# Version 2.1 - nm, norm@500 to 1, cut digits, bergeron_40000_75.dat_40000
# Wavelength(nm)  Flambda(ergs/cm^s/s/nm)
300.00 5.83
300.10 5.823
300.20 5.816
300.30 5.809
300.40 5.802
300.50 5.795
300.60 5.789
300.70 5.782
300.80 5.775
300.90 5.768
301.00 5.761
301.10 5.754
301.20 5.748
301.30 5.741
301.40 5.734
301.50 5.727
301.60 5.721
301.70 5.714
301.80 5.707
301.90 5.701
302.00 5.694
302.10 5.687
302.20 5.68
302.30 5.674
302.40 5.667
302.50 5.661
302.60 5.654
302.70 5.647
302.80 5.641
302.90 5.634
303.00 5.627
303.10 5.621
303.20 5.614
303.30 5.608
303.40 5.601
303.50 5.595
303.60 5.588
303.70 5.582
303.80 5.575
303.90 5.568
304.00 5.562
304.10 5.555
304.20 5.549
304.30 5.543
304.40 5.536
304.50 5.53
304.60 5.523
304.70 5.517
304.80 5.51
304.90 5.504
305.00 5.497
305.10 5.491
305.20 5.485
305.30 5.478
305.40 5.472
305.50 5.466
305.60 5.459
305.70 5.453
305.80 5.447
305.90 5.44
306.00 5.434
306.10 5.428
306.20 5.421
306.30 5.415
306.40 5.409
306.50 5.403
306.60 5.396
306.70 5.39
306.80 5.384
306.90 5.378
307.00 5.371
307.10 5.365
307.20 5.359
307.30 5.353
307.40 5.346
307.50 5.34
307.60 5.334
307.70 5.328
307.80 5.322
307.90 5.316
308.00 5.31
308.10 5.303
308.20 5.297
308.30 5.291
308.40 5.285
308.50 5.279
308.60 5.273
308.70 5.267
308.80 5.261
308.90 5.255
309.00 5.249
309.10 5.243
309.20 5.237
309.30 5.231
309.40 5.225
309.50 5.219
309.60 5.213
309.70 5.207
309.80 5.201
309.90 5.195
310.00 5.189
310.10 5.183
310.20 5.177
310.30 5.171
310.40 5.165
310.50 5.159
310.60 5.153
310.70 5.147
310.80 5.141
310.90 5.136
311.00 5.13
311.10 5.124
311.20 5.118
311.30 5.112
311.40 5.106
311.50 5.1
311.60 5.095
311.70 5.089
311.80 5.083
311.90 5.077
312.00 5.071
312.10 5.066
312.20 5.06
312.30 5.054
312.40 5.048
312.50 5.043
312.60 5.037
312.70 5.031
312.80 5.025
312.90 5.02
313.00 5.014
313.10 5.008
313.20 5.003
313.30 4.997
313.40 4.991
313.50 4.986
313.60 4.98
313.70 4.974
313.80 4.969
313.90 4.963
314.00 4.957
314.10 4.952
314.20 4.946
314.30 4.94
314.40 4.935
314.50 4.929
314.60 4.924
314.70 4.918
314.80 4.913
314.90 4.907
315.00 4.901
315.10 4.896
315.20 4.89
315.30 4.885
315.40 4.879
315.50 4.874
315.60 4.868
315.70 4.863
315.80 4.857
315.90 4.852
316.00 4.846
316.10 4.841
316.20 4.836
316.30 4.83
316.40 4.825
316.50 4.819
316.60 4.814
316.70 4.808
316.80 4.803
316.90 4.798
317.00 4.792
317.10 4.787
317.20 4.781
317.30 4.776
317.40 4.771
317.50 4.765
317.60 4.76
317.70 4.755
317.80 4.749
317.90 4.744
318.00 4.739
318.10 4.733
318.20 4.728
318.30 4.723
318.40 4.717
318.50 4.712
318.60 4.707
318.70 4.702
318.80 4.696
318.90 4.691
319.00 4.686
319.10 4.681
319.20 4.675
319.30 4.67
319.40 4.665
319.50 4.66
319.60 4.655
319.70 4.649
319.80 4.644
319.90 4.639
320.00 4.634
320.10 4.629
320.20 4.624
320.30 4.618
320.40 4.613
320.50 4.608
320.60 4.603
320.70 4.598
320.80 4.593
320.90 4.588
321.00 4.583
321.10 4.577
321.20 4.572
321.30 4.567
321.40 4.562
321.50 4.557
321.60 4.552
321.70 4.547
321.80 4.542
321.90 4.537
322.00 4.532
322.10 4.527
322.20 4.522
322.30 4.517
322.40 4.512
322.50 4.507
322.60 4.502
322.70 4.497
322.80 4.492
322.90 4.487
323.00 4.482
323.10 4.477
323.20 4.472
323.30 4.467
323.40 4.462
323.50 4.457
323.60 4.452
323.70 4.448
323.80 4.443
323.90 4.438
324.00 4.433
324.10 4.428
324.20 4.423
324.30 4.418
324.40 4.413
324.50 4.409
324.60 4.404
324.70 4.399
324.80 4.394
324.90 4.389
325.00 4.384
325.10 4.38
325.20 4.375
325.30 4.37
325.40 4.365
325.50 4.36
325.60 4.356
325.70 4.351
325.80 4.346
325.90 4.341
326.00 4.337
326.10 4.332
326.20 4.327
326.30 4.322
326.40 4.318
326.50 4.313
326.60 4.308
326.70 4.303
326.80 4.299
326.90 4.294
327.00 4.289
327.10 4.285
327.20 4.28
327.30 4.275
327.40 4.271
327.50 4.266
327.60 4.261
327.70 4.257
327.80 4.252
327.90 4.247
328.00 4.243
328.10 4.238
328.20 4.234
328.30 4.229
328.40 4.224
328.50 4.22
328.60 4.215
328.70 4.211
328.80 4.206
328.90 4.201
329.00 4.197
329.10 4.192
329.20 4.188
329.30 4.183
329.40 4.179
329.50 4.174
329.60 4.17
329.70 4.165
329.80 4.161
329.90 4.156
330.00 4.152
330.10 4.147
330.20 4.143
330.30 4.138
330.40 4.134
330.50 4.129
330.60 4.125
330.70 4.12
330.80 4.116
330.90 4.111
331.00 4.107
331.10 4.102
331.20 4.098
331.30 4.094
331.40 4.089
331.50 4.085
331.60 4.08
331.70 4.076
331.80 4.072
331.90 4.067
332.00 4.063
332.10 4.058
332.20 4.054
332.30 4.05
332.40 4.045
332.50 4.041
332.60 4.037
332.70 4.032
332.80 4.028
332.90 4.024
333.00 4.019
333.10 4.015
333.20 4.011
333.30 4.006
333.40 4.002
333.50 3.998
333.60 3.993
333.70 3.989
333.80 3.985
333.90 3.981
334.00 3.976
334.10 3.972
334.20 3.968
334.30 3.964
334.40 3.959
334.50 3.955
334.60 3.951
334.70 3.947
334.80 3.942
334.90 3.938
335.00 3.934
335.10 3.93
335.20 3.926
335.30 3.921
335.40 3.917
335.50 3.913
335.60 3.909
335.70 3.905
335.80 3.901
335.90 3.896
336.00 3.892
336.10 3.888
336.20 3.884
336.30 3.88
336.40 3.876
336.50 3.872
336.60 3.867
336.70 3.863
336.80 3.859
336.90 3.855
337.00 3.851
337.10 3.847
337.20 3.843
337.30 3.839
337.40 3.835
337.50 3.831
337.60 3.827
337.70 3.822
337.80 3.818
337.90 3.814
338.00 3.81
338.10 3.806
338.20 3.802
338.30 3.798
338.40 3.794
338.50 3.79
338.60 3.786
338.70 3.782
338.80 3.778
338.90 3.774
339.00 3.77
339.10 3.766
339.20 3.762
339.30 3.758
339.40 3.754
339.50 3.75
339.60 3.746
339.70 3.742
339.80 3.738
339.90 3.735
340.00 3.731
340.10 3.727
340.20 3.723
340.30 3.719
340.40 3.715
340.50 3.711
340.60 3.707
340.70 3.703
340.80 3.699
340.90 3.695
341.00 3.692
341.10 3.688
341.20 3.684
341.30 3.68
341.40 3.676
341.50 3.672
341.60 3.668
341.70 3.664
341.80 3.661
341.90 3.657
342.00 3.653
342.10 3.649
342.20 3.645
342.30 3.641
342.40 3.638
342.50 3.634
342.60 3.63
342.70 3.626
342.80 3.622
342.90 3.619
343.00 3.615
343.10 3.611
343.20 3.607
343.30 3.604
343.40 3.6
343.50 3.596
343.60 3.592
343.70 3.588
343.80 3.585
343.90 3.581
344.00 3.577
344.10 3.574
344.20 3.57
344.30 3.566
344.40 3.562
344.50 3.559
344.60 3.555
344.70 3.551
344.80 3.548
344.90 3.544
345.00 3.54
345.10 3.537
345.20 3.533
345.30 3.529
345.40 3.526
345.50 3.522
345.60 3.518
345.70 3.515
345.80 3.511
345.90 3.507
346.00 3.504
346.10 3.5
346.20 3.496
346.30 3.493
346.40 3.489
346.50 3.485
346.60 3.482
346.70 3.478
346.80 3.475
346.90 3.471
347.00 3.467
347.10 3.464
347.20 3.46
347.30 3.457
347.40 3.453
347.50 3.45
347.60 3.446
347.70 3.442
347.80 3.439
347.90 3.435
348.00 3.432
348.10 3.428
348.20 3.425
348.30 3.421
348.40 3.418
348.50 3.414
348.60 3.411
348.70 3.407
348.80 3.404
348.90 3.4
349.00 3.397
349.10 3.393
349.20 3.39
349.30 3.386
349.40 3.383
349.50 3.379
349.60 3.376
349.70 3.372
349.80 3.369
349.90 3.365
350.00 3.362
350.10 3.358
350.20 3.355
350.30 3.351
350.40 3.348
350.50 3.345
350.60 3.341
350.70 3.338
350.80 3.334
350.90 3.331
351.00 3.328
351.10 3.324
351.20 3.321
351.30 3.317
351.40 3.314
351.50 3.311
351.60 3.307
351.70 3.304
351.80 3.3
351.90 3.297
352.00 3.294
352.10 3.29
352.20 3.287
352.30 3.284
352.40 3.28
352.50 3.277
352.60 3.274
352.70 3.27
352.80 3.267
352.90 3.264
353.00 3.26
353.10 3.257
353.20 3.254
353.30 3.25
353.40 3.247
353.50 3.244
353.60 3.24
353.70 3.237
353.80 3.234
353.90 3.23
354.00 3.227
354.10 3.224
354.20 3.221
354.30 3.217
354.40 3.214
354.50 3.211
354.60 3.208
354.70 3.204
354.80 3.201
354.90 3.198
355.00 3.195
355.10 3.191
355.20 3.188
355.30 3.185
355.40 3.182
355.50 3.178
355.60 3.175
355.70 3.172
355.80 3.169
355.90 3.166
356.00 3.162
356.10 3.159
356.20 3.156
356.30 3.153
356.40 3.15
356.50 3.146
356.60 3.143
356.70 3.14
356.80 3.137
356.90 3.134
357.00 3.131
357.10 3.128
357.20 3.124
357.30 3.121
357.40 3.118
357.50 3.115
357.60 3.112
357.70 3.109
357.80 3.106
357.90 3.102
358.00 3.099
358.10 3.096
358.20 3.093
358.30 3.09
358.40 3.087
358.50 3.084
358.60 3.081
358.70 3.078
358.80 3.074
358.90 3.071
359.00 3.068
359.10 3.065
359.20 3.062
359.30 3.059
359.40 3.056
359.50 3.053
359.60 3.05
359.70 3.047
359.80 3.044
359.90 3.041
360.00 3.038
360.10 3.035
360.20 3.032
360.30 3.029
360.40 3.026
360.50 3.023
360.60 3.02
360.70 3.017
360.80 3.014
360.90 3.011
361.00 3.008
361.10 3.005
361.20 3.002
361.30 2.999
361.40 2.996
361.50 2.993
361.60 2.99
361.70 2.987
361.80 2.984
361.90 2.981
362.00 2.978
362.10 2.975
362.20 2.972
362.30 2.969
362.40 2.966
362.50 2.963
362.60 2.96
362.70 2.957
362.80 2.954
362.90 2.951
363.00 2.948
363.10 2.945
363.20 2.942
363.30 2.939
363.40 2.936
363.50 2.934
363.60 2.931
363.70 2.928
363.80 2.925
363.90 2.922
364.00 2.919
364.10 2.916
364.20 2.913
364.30 2.91
364.40 2.908
364.50 2.905
364.60 2.902
364.70 2.899
364.80 2.896
364.90 2.893
365.00 2.89
365.10 2.887
365.20 2.885
365.30 2.882
365.40 2.879
365.50 2.876
365.60 2.873
365.70 2.87
365.80 2.868
365.90 2.865
366.00 2.862
366.10 2.859
366.20 2.856
366.30 2.853
366.40 2.85
366.50 2.847
366.60 2.844
366.70 2.841
366.80 2.838
366.90 2.835
367.00 2.832
367.10 2.829
367.20 2.826
367.30 2.823
367.40 2.82
367.50 2.818
367.60 2.815
367.70 2.812
367.80 2.809
367.90 2.806
368.00 2.803
368.10 2.8
368.20 2.797
368.30 2.794
368.40 2.791
368.50 2.788
368.60 2.785
368.70 2.783
368.80 2.78
368.90 2.777
369.00 2.774
369.10 2.771
369.20 2.768
369.30 2.765
369.40 2.763
369.50 2.76
369.60 2.757
369.70 2.754
369.80 2.751
369.90 2.748
370.00 2.745
370.10 2.743
370.20 2.74
370.30 2.737
370.40 2.734
370.50 2.731
370.60 2.729
370.70 2.726
370.80 2.723
370.90 2.72
371.00 2.717
371.10 2.715
371.20 2.712
371.30 2.709
371.40 2.706
371.50 2.704
371.60 2.701
371.70 2.698
371.80 2.695
371.90 2.692
372.00 2.69
372.10 2.687
372.20 2.684
372.30 2.682
372.40 2.679
372.50 2.677
372.60 2.674
372.70 2.671
372.80 2.669
372.90 2.666
373.00 2.663
373.10 2.661
373.20 2.658
373.30 2.656
373.40 2.653
373.50 2.65
373.60 2.648
373.70 2.645
373.80 2.643
373.90 2.64
374.00 2.638
374.10 2.635
374.20 2.633
374.30 2.63
374.40 2.628
374.50 2.625
374.60 2.623
374.70 2.621
374.80 2.618
374.90 2.616
375.00 2.613
375.10 2.611
375.20 2.608
375.30 2.606
375.40 2.604
375.50 2.601
375.60 2.599
375.70 2.596
375.80 2.594
375.90 2.592
376.00 2.589
376.10 2.587
376.20 2.584
376.30 2.582
376.40 2.58
376.50 2.577
376.60 2.575
376.70 2.572
376.80 2.57
376.90 2.568
377.00 2.565
377.10 2.563
377.20 2.561
377.30 2.559
377.40 2.558
377.50 2.556
377.60 2.554
377.70 2.552
377.80 2.55
377.90 2.548
378.00 2.546
378.10 2.544
378.20 2.541
378.30 2.539
378.40 2.537
378.50 2.534
378.60 2.532
378.70 2.53
378.80 2.527
378.90 2.525
379.00 2.522
379.10 2.52
379.20 2.518
379.30 2.515
379.40 2.513
379.50 2.511
379.60 2.508
379.70 2.506
379.80 2.503
379.90 2.501
380.00 2.499
380.10 2.498
380.20 2.497
380.30 2.496
380.40 2.494
380.50 2.493
380.60 2.492
380.70 2.491
380.80 2.49
380.90 2.489
381.00 2.488
381.10 2.486
381.20 2.484
381.30 2.482
381.40 2.48
381.50 2.478
381.60 2.476
381.70 2.473
381.80 2.47
381.90 2.467
382.00 2.464
382.10 2.46
382.20 2.457
382.30 2.452
382.40 2.448
382.50 2.443
382.60 2.439
382.70 2.435
382.80 2.43
382.90 2.426
383.00 2.421
383.10 2.417
383.20 2.413
383.30 2.408
383.40 2.404
383.50 2.401
383.60 2.4
383.70 2.4
383.80 2.401
383.90 2.403
384.00 2.404
384.10 2.406
384.20 2.408
384.30 2.409
384.40 2.411
384.50 2.412
384.60 2.413
384.70 2.414
384.80 2.415
384.90 2.415
385.00 2.415
385.10 2.415
385.20 2.415
385.30 2.415
385.40 2.414
385.50 2.413
385.60 2.412
385.70 2.41
385.80 2.408
385.90 2.406
386.00 2.404
386.10 2.401
386.20 2.398
386.30 2.395
386.40 2.391
386.50 2.388
386.60 2.383
386.70 2.379
386.80 2.374
386.90 2.369
387.00 2.363
387.10 2.357
387.20 2.351
387.30 2.344
387.40 2.338
387.50 2.33
387.60 2.323
387.70 2.315
387.80 2.306
387.90 2.298
388.00 2.289
388.10 2.28
388.20 2.271
388.30 2.262
388.40 2.253
388.50 2.244
388.60 2.235
388.70 2.228
388.80 2.223
388.90 2.219
389.00 2.219
389.10 2.222
389.20 2.226
389.30 2.231
389.40 2.237
389.50 2.243
389.60 2.249
389.70 2.255
389.80 2.261
389.90 2.267
390.00 2.273
390.10 2.278
390.20 2.283
390.30 2.288
390.40 2.293
390.50 2.297
390.60 2.301
390.70 2.304
390.80 2.308
390.90 2.311
391.00 2.313
391.10 2.316
391.20 2.318
391.30 2.32
391.40 2.321
391.50 2.322
391.60 2.323
391.70 2.324
391.80 2.325
391.90 2.325
392.00 2.325
392.10 2.324
392.20 2.324
392.30 2.323
392.40 2.322
392.50 2.32
392.60 2.319
392.70 2.317
392.80 2.315
392.90 2.312
393.00 2.31
393.10 2.307
393.20 2.303
393.30 2.3
393.40 2.296
393.50 2.292
393.60 2.288
393.70 2.283
393.80 2.278
393.90 2.273
394.00 2.267
394.10 2.261
394.20 2.255
394.30 2.249
394.40 2.241
394.50 2.234
394.60 2.226
394.70 2.218
394.80 2.21
394.90 2.201
395.00 2.191
395.10 2.181
395.20 2.171
395.30 2.16
395.40 2.149
395.50 2.137
395.60 2.125
395.70 2.112
395.80 2.099
395.90 2.085
396.00 2.071
396.10 2.056
396.20 2.041
396.30 2.025
396.40 2.01
396.50 1.994
396.60 1.978
396.70 1.962
396.80 1.946
396.90 1.931
397.00 1.917
397.10 1.927
397.20 1.938
397.30 1.95
397.40 1.963
397.50 1.976
397.60 1.989
397.70 2.001
397.80 2.013
397.90 2.025
398.00 2.036
398.10 2.047
398.20 2.058
398.30 2.068
398.40 2.077
398.50 2.086
398.60 2.095
398.70 2.103
398.80 2.11
398.90 2.117
399.00 2.124
399.10 2.13
399.20 2.136
399.30 2.142
399.40 2.147
399.50 2.151
399.60 2.156
399.70 2.16
399.80 2.164
399.90 2.167
400.00 2.17
400.10 2.173
400.20 2.176
400.30 2.178
400.40 2.18
400.50 2.182
400.60 2.184
400.70 2.185
400.80 2.187
400.90 2.188
401.00 2.189
401.10 2.189
401.20 2.19
401.30 2.19
401.40 2.191
401.50 2.191
401.60 2.191
401.70 2.191
401.80 2.19
401.90 2.19
402.00 2.189
402.10 2.189
402.20 2.188
402.30 2.187
402.40 2.186
402.50 2.185
402.60 2.184
402.70 2.183
402.80 2.182
402.90 2.18
403.00 2.179
403.10 2.177
403.20 2.176
403.30 2.174
403.40 2.172
403.50 2.17
403.60 2.168
403.70 2.166
403.80 2.164
403.90 2.162
404.00 2.159
404.10 2.157
404.20 2.154
404.30 2.152
404.40 2.149
404.50 2.146
404.60 2.143
404.70 2.14
404.80 2.137
404.90 2.134
405.00 2.13
405.10 2.127
405.20 2.123
405.30 2.12
405.40 2.116
405.50 2.112
405.60 2.108
405.70 2.103
405.80 2.099
405.90 2.094
406.00 2.09
406.10 2.085
406.20 2.08
406.30 2.074
406.40 2.069
406.50 2.063
406.60 2.057
406.70 2.051
406.80 2.044
406.90 2.038
407.00 2.031
407.10 2.023
407.20 2.016
407.30 2.008
407.40 1.999
407.50 1.991
407.60 1.982
407.70 1.972
407.80 1.963
407.90 1.952
408.00 1.941
408.10 1.93
408.20 1.919
408.30 1.906
408.40 1.894
408.50 1.88
408.60 1.866
408.70 1.852
408.80 1.837
408.90 1.821
409.00 1.805
409.10 1.788
409.20 1.77
409.30 1.752
409.40 1.733
409.50 1.713
409.60 1.693
409.70 1.672
409.80 1.651
409.90 1.63
410.00 1.613
410.10 1.604
410.20 1.603
410.30 1.606
410.40 1.616
410.50 1.633
410.60 1.651
410.70 1.669
410.80 1.687
410.90 1.703
411.00 1.72
411.10 1.735
411.20 1.75
411.30 1.764
411.40 1.778
411.50 1.79
411.60 1.802
411.70 1.814
411.80 1.825
411.90 1.835
412.00 1.844
412.10 1.853
412.20 1.862
412.30 1.87
412.40 1.877
412.50 1.884
412.60 1.89
412.70 1.896
412.80 1.902
412.90 1.907
413.00 1.912
413.10 1.917
413.20 1.921
413.30 1.925
413.40 1.928
413.50 1.932
413.60 1.935
413.70 1.937
413.80 1.94
413.90 1.942
414.00 1.944
414.10 1.946
414.20 1.948
414.30 1.95
414.40 1.951
414.50 1.952
414.60 1.953
414.70 1.954
414.80 1.955
414.90 1.955
415.00 1.956
415.10 1.956
415.20 1.957
415.30 1.957
415.40 1.957
415.50 1.957
415.60 1.957
415.70 1.957
415.80 1.957
415.90 1.956
416.00 1.956
416.10 1.955
416.20 1.955
416.30 1.954
416.40 1.954
416.50 1.953
416.60 1.952
416.70 1.952
416.80 1.951
416.90 1.95
417.00 1.949
417.10 1.948
417.20 1.947
417.30 1.946
417.40 1.945
417.50 1.944
417.60 1.943
417.70 1.942
417.80 1.941
417.90 1.94
418.00 1.938
418.10 1.937
418.20 1.936
418.30 1.935
418.40 1.933
418.50 1.932
418.60 1.931
418.70 1.93
418.80 1.928
418.90 1.927
419.00 1.925
419.10 1.924
419.20 1.923
419.30 1.921
419.40 1.92
419.50 1.918
419.60 1.917
419.70 1.916
419.80 1.914
419.90 1.913
420.00 1.911
420.10 1.91
420.20 1.908
420.30 1.907
420.40 1.905
420.50 1.903
420.60 1.902
420.70 1.9
420.80 1.899
420.90 1.897
421.00 1.896
421.10 1.894
421.20 1.892
421.30 1.891
421.40 1.889
421.50 1.888
421.60 1.886
421.70 1.884
421.80 1.883
421.90 1.881
422.00 1.879
422.10 1.878
422.20 1.876
422.30 1.874
422.40 1.873
422.50 1.871
422.60 1.869
422.70 1.868
422.80 1.866
422.90 1.864
423.00 1.863
423.10 1.861
423.20 1.859
423.30 1.857
423.40 1.856
423.50 1.854
423.60 1.852
423.70 1.851
423.80 1.849
423.90 1.847
424.00 1.845
424.10 1.843
424.20 1.842
424.30 1.84
424.40 1.838
424.50 1.836
424.60 1.834
424.70 1.832
424.80 1.831
424.90 1.829
425.00 1.827
425.10 1.825
425.20 1.823
425.30 1.821
425.40 1.819
425.50 1.817
425.60 1.815
425.70 1.813
425.80 1.811
425.90 1.809
426.00 1.807
426.10 1.805
426.20 1.803
426.30 1.801
426.40 1.799
426.50 1.797
426.60 1.795
426.70 1.793
426.80 1.791
426.90 1.788
427.00 1.786
427.10 1.784
427.20 1.782
427.30 1.779
427.40 1.777
427.50 1.775
427.60 1.772
427.70 1.77
427.80 1.767
427.90 1.765
428.00 1.762
428.10 1.759
428.20 1.757
428.30 1.754
428.40 1.751
428.50 1.748
428.60 1.745
428.70 1.742
428.80 1.739
428.90 1.736
429.00 1.733
429.10 1.729
429.20 1.726
429.30 1.722
429.40 1.719
429.50 1.715
429.60 1.711
429.70 1.707
429.80 1.703
429.90 1.699
430.00 1.694
430.10 1.69
430.20 1.685
430.30 1.68
430.40 1.675
430.50 1.67
430.60 1.664
430.70 1.658
430.80 1.653
430.90 1.646
431.00 1.64
431.10 1.633
431.20 1.626
431.30 1.619
431.40 1.611
431.50 1.603
431.60 1.595
431.70 1.586
431.80 1.577
431.90 1.568
432.00 1.558
432.10 1.548
432.20 1.536
432.30 1.525
432.40 1.513
432.50 1.5
432.60 1.487
432.70 1.474
432.80 1.459
432.90 1.444
433.00 1.429
433.10 1.412
433.20 1.395
433.30 1.377
433.40 1.359
433.50 1.34
433.60 1.321
433.70 1.301
433.80 1.282
433.90 1.263
434.00 1.245
434.10 1.244
434.20 1.261
434.30 1.278
434.40 1.295
434.50 1.313
434.60 1.33
434.70 1.347
434.80 1.363
434.90 1.378
435.00 1.393
435.10 1.407
435.20 1.42
435.30 1.432
435.40 1.444
435.50 1.455
435.60 1.465
435.70 1.475
435.80 1.484
435.90 1.493
436.00 1.501
436.10 1.509
436.20 1.516
436.30 1.522
436.40 1.529
436.50 1.534
436.60 1.54
436.70 1.545
436.80 1.549
436.90 1.554
437.00 1.558
437.10 1.561
437.20 1.565
437.30 1.568
437.40 1.571
437.50 1.574
437.60 1.576
437.70 1.578
437.80 1.581
437.90 1.582
438.00 1.584
438.10 1.586
438.20 1.587
438.30 1.588
438.40 1.589
438.50 1.59
438.60 1.591
438.70 1.592
438.80 1.593
438.90 1.593
439.00 1.593
439.10 1.594
439.20 1.594
439.30 1.594
439.40 1.594
439.50 1.594
439.60 1.594
439.70 1.594
439.80 1.594
439.90 1.594
440.00 1.593
440.10 1.593
440.20 1.593
440.30 1.592
440.40 1.592
440.50 1.591
440.60 1.591
440.70 1.59
440.80 1.589
440.90 1.589
441.00 1.588
441.10 1.587
441.20 1.587
441.30 1.586
441.40 1.585
441.50 1.584
441.60 1.583
441.70 1.583
441.80 1.582
441.90 1.581
442.00 1.58
442.10 1.579
442.20 1.578
442.30 1.577
442.40 1.576
442.50 1.575
442.60 1.574
442.70 1.573
442.80 1.572
442.90 1.571
443.00 1.57
443.10 1.569
443.20 1.568
443.30 1.567
443.40 1.566
443.50 1.565
443.60 1.564
443.70 1.563
443.80 1.561
443.90 1.56
444.00 1.559
444.10 1.558
444.20 1.557
444.30 1.556
444.40 1.555
444.50 1.554
444.60 1.552
444.70 1.551
444.80 1.55
444.90 1.549
445.00 1.548
445.10 1.547
445.20 1.545
445.30 1.544
445.40 1.543
445.50 1.542
445.60 1.541
445.70 1.54
445.80 1.538
445.90 1.537
446.00 1.536
446.10 1.535
446.20 1.534
446.30 1.533
446.40 1.531
446.50 1.53
446.60 1.529
446.70 1.528
446.80 1.527
446.90 1.525
447.00 1.524
447.10 1.523
447.20 1.522
447.30 1.521
447.40 1.519
447.50 1.518
447.60 1.517
447.70 1.516
447.80 1.515
447.90 1.513
448.00 1.512
448.10 1.511
448.20 1.51
448.30 1.508
448.40 1.507
448.50 1.506
448.60 1.505
448.70 1.504
448.80 1.502
448.90 1.501
449.00 1.5
449.10 1.499
449.20 1.498
449.30 1.496
449.40 1.495
449.50 1.494
449.60 1.493
449.70 1.492
449.80 1.49
449.90 1.489
450.00 1.488
450.10 1.487
450.20 1.486
450.30 1.484
450.40 1.483
450.50 1.482
450.60 1.481
450.70 1.479
450.80 1.478
450.90 1.477
451.00 1.476
451.10 1.475
451.20 1.473
451.30 1.472
451.40 1.471
451.50 1.47
451.60 1.469
451.70 1.467
451.80 1.466
451.90 1.465
452.00 1.464
452.10 1.463
452.20 1.462
452.30 1.46
452.40 1.459
452.50 1.458
452.60 1.457
452.70 1.456
452.80 1.454
452.90 1.453
453.00 1.452
453.10 1.451
453.20 1.45
453.30 1.448
453.40 1.447
453.50 1.446
453.60 1.445
453.70 1.444
453.80 1.442
453.90 1.441
454.00 1.44
454.10 1.439
454.20 1.438
454.30 1.437
454.40 1.435
454.50 1.434
454.60 1.433
454.70 1.432
454.80 1.431
454.90 1.43
455.00 1.428
455.10 1.427
455.20 1.426
455.30 1.425
455.40 1.424
455.50 1.423
455.60 1.421
455.70 1.42
455.80 1.419
455.90 1.418
456.00 1.417
456.10 1.416
456.20 1.414
456.30 1.413
456.40 1.412
456.50 1.411
456.60 1.41
456.70 1.409
456.80 1.407
456.90 1.406
457.00 1.405
457.10 1.404
457.20 1.403
457.30 1.402
457.40 1.401
457.50 1.399
457.60 1.398
457.70 1.397
457.80 1.396
457.90 1.395
458.00 1.394
458.10 1.393
458.20 1.391
458.30 1.39
458.40 1.389
458.50 1.388
458.60 1.387
458.70 1.386
458.80 1.385
458.90 1.383
459.00 1.382
459.10 1.381
459.20 1.38
459.30 1.379
459.40 1.378
459.50 1.377
459.60 1.376
459.70 1.374
459.80 1.373
459.90 1.372
460.00 1.371
460.10 1.37
460.20 1.369
460.30 1.368
460.40 1.367
460.50 1.365
460.60 1.364
460.70 1.363
460.80 1.362
460.90 1.361
461.00 1.36
461.10 1.359
461.20 1.358
461.30 1.356
461.40 1.355
461.50 1.354
461.60 1.353
461.70 1.352
461.80 1.351
461.90 1.35
462.00 1.349
462.10 1.348
462.20 1.347
462.30 1.345
462.40 1.344
462.50 1.343
462.60 1.342
462.70 1.341
462.80 1.34
462.90 1.339
463.00 1.338
463.10 1.337
463.20 1.336
463.30 1.334
463.40 1.333
463.50 1.332
463.60 1.331
463.70 1.33
463.80 1.329
463.90 1.328
464.00 1.327
464.10 1.326
464.20 1.325
464.30 1.324
464.40 1.322
464.50 1.321
464.60 1.32
464.70 1.319
464.80 1.318
464.90 1.317
465.00 1.316
465.10 1.315
465.20 1.314
465.30 1.313
465.40 1.312
465.50 1.311
465.60 1.31
465.70 1.308
465.80 1.307
465.90 1.306
466.00 1.305
466.10 1.304
466.20 1.303
466.30 1.302
466.40 1.301
466.50 1.3
466.60 1.299
466.70 1.298
466.80 1.297
466.90 1.296
467.00 1.295
467.10 1.293
467.20 1.292
467.30 1.291
467.40 1.29
467.50 1.289
467.60 1.288
467.70 1.287
467.80 1.286
467.90 1.285
468.00 1.284
468.10 1.283
468.20 1.282
468.30 1.281
468.40 1.28
468.50 1.279
468.60 1.278
468.70 1.277
468.80 1.275
468.90 1.274
469.00 1.273
469.10 1.272
469.20 1.271
469.30 1.27
469.40 1.269
469.50 1.268
469.60 1.267
469.70 1.266
469.80 1.265
469.90 1.264
470.00 1.263
470.10 1.262
470.20 1.261
470.30 1.26
470.40 1.259
470.50 1.258
470.60 1.257
470.70 1.256
470.80 1.254
470.90 1.253
471.00 1.252
471.10 1.251
471.20 1.25
471.30 1.249
471.40 1.248
471.50 1.247
471.60 1.246
471.70 1.245
471.80 1.244
471.90 1.243
472.00 1.242
472.10 1.241
472.20 1.24
472.30 1.239
472.40 1.238
472.50 1.237
472.60 1.236
472.70 1.234
472.80 1.233
472.90 1.232
473.00 1.231
473.10 1.23
473.20 1.229
473.30 1.228
473.40 1.227
473.50 1.226
473.60 1.225
473.70 1.224
473.80 1.223
473.90 1.222
474.00 1.221
474.10 1.22
474.20 1.219
474.30 1.217
474.40 1.216
474.50 1.215
474.60 1.214
474.70 1.213
474.80 1.212
474.90 1.211
475.00 1.21
475.10 1.209
475.20 1.208
475.30 1.207
475.40 1.206
475.50 1.204
475.60 1.203
475.70 1.202
475.80 1.201
475.90 1.2
476.00 1.199
476.10 1.198
476.20 1.197
476.30 1.195
476.40 1.194
476.50 1.193
476.60 1.192
476.70 1.191
476.80 1.19
476.90 1.189
477.00 1.187
477.10 1.186
477.20 1.185
477.30 1.184
477.40 1.183
477.50 1.181
477.60 1.18
477.70 1.179
477.80 1.178
477.90 1.177
478.00 1.175
478.10 1.174
478.20 1.173
478.30 1.171
478.40 1.17
478.50 1.169
478.60 1.167
478.70 1.166
478.80 1.165
478.90 1.163
479.00 1.162
479.10 1.161
479.20 1.159
479.30 1.158
479.40 1.156
479.50 1.155
479.60 1.153
479.70 1.152
479.80 1.15
479.90 1.149
480.00 1.147
480.10 1.146
480.20 1.144
480.30 1.142
480.40 1.14
480.50 1.138
480.60 1.136
480.70 1.135
480.80 1.133
480.90 1.131
481.00 1.129
481.10 1.127
481.20 1.125
481.30 1.123
481.40 1.12
481.50 1.118
481.60 1.115
481.70 1.113
481.80 1.111
481.90 1.108
482.00 1.106
482.10 1.103
482.20 1.1
482.30 1.097
482.40 1.094
482.50 1.09
482.60 1.087
482.70 1.083
482.80 1.08
482.90 1.077
483.00 1.073
483.10 1.07
483.20 1.065
483.30 1.06
483.40 1.055
483.50 1.05
483.60 1.045
483.70 1.04
483.80 1.035
483.90 1.03
484.00 1.025
484.10 1.02
484.20 1.013
484.30 1.006
484.40 0.9992
484.50 0.9921
484.60 0.9851
484.70 0.9768
484.80 0.9679
484.90 0.959
485.00 0.9501
485.10 0.9412
485.20 0.9313
485.30 0.9209
485.40 0.91
485.50 0.8988
485.60 0.887
485.70 0.8749
485.80 0.8623
485.90 0.8494
486.00 0.8354
486.10 0.8249
486.20 0.825
486.30 0.8385
486.40 0.8506
486.50 0.8622
486.60 0.8733
486.70 0.8841
486.80 0.8942
486.90 0.9041
487.00 0.9133
487.10 0.9222
487.20 0.9301
487.30 0.9375
487.40 0.9448
487.50 0.9522
487.60 0.9596
487.70 0.9657
487.80 0.9711
487.90 0.9766
488.00 0.982
488.10 0.9875
488.20 0.9915
488.30 0.9949
488.40 0.9982
488.50 1.002
488.60 1.005
488.70 1.008
488.80 1.012
488.90 1.015
489.00 1.018
489.10 1.022
489.20 1.024
489.30 1.026
489.40 1.027
489.50 1.029
489.60 1.03
489.70 1.032
489.80 1.033
489.90 1.035
490.00 1.037
490.10 1.038
490.20 1.039
490.30 1.04
490.40 1.04
490.50 1.041
490.60 1.042
490.70 1.042
490.80 1.043
490.90 1.043
491.00 1.044
491.10 1.045
491.20 1.045
491.30 1.045
491.40 1.045
491.50 1.045
491.60 1.045
491.70 1.045
491.80 1.045
491.90 1.045
492.00 1.045
492.10 1.045
492.20 1.045
492.30 1.045
492.40 1.045
492.50 1.044
492.60 1.044
492.70 1.044
492.80 1.044
492.90 1.043
493.00 1.043
493.10 1.043
493.20 1.042
493.30 1.042
493.40 1.041
493.50 1.041
493.60 1.041
493.70 1.04
493.80 1.04
493.90 1.039
494.00 1.039
494.10 1.038
494.20 1.038
494.30 1.037
494.40 1.037
494.50 1.036
494.60 1.036
494.70 1.035
494.80 1.035
494.90 1.034
495.00 1.033
495.10 1.033
495.20 1.032
495.30 1.032
495.40 1.031
495.50 1.03
495.60 1.03
495.70 1.029
495.80 1.029
495.90 1.028
496.00 1.027
496.10 1.027
496.20 1.026
496.30 1.025
496.40 1.025
496.50 1.024
496.60 1.023
496.70 1.023
496.80 1.022
496.90 1.021
497.00 1.021
497.10 1.02
497.20 1.019
497.30 1.019
497.40 1.018
497.50 1.017
497.60 1.017
497.70 1.016
497.80 1.015
497.90 1.015
498.00 1.014
498.10 1.013
498.20 1.013
498.30 1.012
498.40 1.011
498.50 1.011
498.60 1.01
498.70 1.009
498.80 1.008
498.90 1.008
499.00 1.007
499.10 1.006
499.20 1.006
499.30 1.005
499.40 1.004
499.50 1.004
499.60 1.003
499.70 1.002
499.80 1.001
499.90 1.001
500.00 1
500.10 0.9993
500.20 0.9986
500.30 0.9979
500.40 0.9972
500.50 0.9964
500.60 0.9957
500.70 0.995
500.80 0.9943
500.90 0.9936
501.00 0.9929
501.10 0.9922
501.20 0.9915
501.30 0.9907
501.40 0.99
501.50 0.9893
501.60 0.9886
501.70 0.9879
501.80 0.9872
501.90 0.9865
502.00 0.9858
502.10 0.985
502.20 0.9843
502.30 0.9836
502.40 0.9829
502.50 0.9822
502.60 0.9815
502.70 0.9808
502.80 0.98
502.90 0.9793
503.00 0.9786
503.10 0.9779
503.20 0.9772
503.30 0.9765
503.40 0.9758
503.50 0.9751
503.60 0.9744
503.70 0.9736
503.80 0.9729
503.90 0.9722
504.00 0.9715
504.10 0.9708
504.20 0.9701
504.30 0.9694
504.40 0.9687
504.50 0.968
504.60 0.9673
504.70 0.9665
504.80 0.9658
504.90 0.9651
505.00 0.9644
505.10 0.9637
505.20 0.963
505.30 0.9623
505.40 0.9616
505.50 0.9609
505.60 0.9602
505.70 0.9595
505.80 0.9588
505.90 0.9581
506.00 0.9574
506.10 0.9567
506.20 0.956
506.30 0.9553
506.40 0.9546
506.50 0.9539
506.60 0.9532
506.70 0.9525
506.80 0.9518
506.90 0.9511
507.00 0.9504
507.10 0.9497
507.20 0.949
507.30 0.9483
507.40 0.9476
507.50 0.9469
507.60 0.9462
507.70 0.9455
507.80 0.9448
507.90 0.9441
508.00 0.9434
508.10 0.9427
508.20 0.942
508.30 0.9413
508.40 0.9407
508.50 0.94
508.60 0.9393
508.70 0.9386
508.80 0.9379
508.90 0.9372
509.00 0.9365
509.10 0.9358
509.20 0.9351
509.30 0.9345
509.40 0.9338
509.50 0.9331
509.60 0.9324
509.70 0.9317
509.80 0.931
509.90 0.9303
510.00 0.9297
510.10 0.929
510.20 0.9283
510.30 0.9276
510.40 0.9269
510.50 0.9263
510.60 0.9256
510.70 0.9249
510.80 0.9242
510.90 0.9235
511.00 0.9229
511.10 0.9222
511.20 0.9215
511.30 0.9208
511.40 0.9202
511.50 0.9195
511.60 0.9188
511.70 0.9181
511.80 0.9175
511.90 0.9168
512.00 0.9161
512.10 0.9154
512.20 0.9148
512.30 0.9141
512.40 0.9134
512.50 0.9128
512.60 0.9121
512.70 0.9114
512.80 0.9108
512.90 0.9101
513.00 0.9094
513.10 0.9088
513.20 0.9081
513.30 0.9074
513.40 0.9068
513.50 0.9061
513.60 0.9054
513.70 0.9048
513.80 0.9041
513.90 0.9034
514.00 0.9028
514.10 0.9021
514.20 0.9015
514.30 0.9008
514.40 0.9001
514.50 0.8995
514.60 0.8988
514.70 0.8982
514.80 0.8975
514.90 0.8969
515.00 0.8962
515.10 0.8955
515.20 0.8949
515.30 0.8942
515.40 0.8936
515.50 0.8929
515.60 0.8923
515.70 0.8916
515.80 0.891
515.90 0.8903
516.00 0.8897
516.10 0.889
516.20 0.8884
516.30 0.8877
516.40 0.8871
516.50 0.8864
516.60 0.8858
516.70 0.8851
516.80 0.8845
516.90 0.8839
517.00 0.8832
517.10 0.8826
517.20 0.8819
517.30 0.8813
517.40 0.8806
517.50 0.88
517.60 0.8794
517.70 0.8787
517.80 0.8781
517.90 0.8774
518.00 0.8768
518.10 0.8762
518.20 0.8755
518.30 0.8749
518.40 0.8743
518.50 0.8736
518.60 0.873
518.70 0.8723
518.80 0.8717
518.90 0.8711
519.00 0.8704
519.10 0.8698
519.20 0.8692
519.30 0.8685
519.40 0.8679
519.50 0.8673
519.60 0.8667
519.70 0.866
519.80 0.8654
519.90 0.8648
520.00 0.8641
520.10 0.8635
520.20 0.8629
520.30 0.8623
520.40 0.8616
520.50 0.861
520.60 0.8604
520.70 0.8598
520.80 0.8591
520.90 0.8585
521.00 0.8579
521.10 0.8573
521.20 0.8567
521.30 0.856
521.40 0.8554
521.50 0.8548
521.60 0.8542
521.70 0.8536
521.80 0.8529
521.90 0.8523
522.00 0.8517
522.10 0.8511
522.20 0.8505
522.30 0.8499
522.40 0.8492
522.50 0.8486
522.60 0.848
522.70 0.8474
522.80 0.8468
522.90 0.8462
523.00 0.8456
523.10 0.845
523.20 0.8444
523.30 0.8437
523.40 0.8431
523.50 0.8425
523.60 0.8419
523.70 0.8413
523.80 0.8407
523.90 0.8401
524.00 0.8395
524.10 0.8389
524.20 0.8383
524.30 0.8377
524.40 0.8371
524.50 0.8365
524.60 0.8359
524.70 0.8353
524.80 0.8347
524.90 0.8341
525.00 0.8335
525.10 0.8329
525.20 0.8323
525.30 0.8317
525.40 0.8311
525.50 0.8305
525.60 0.8299
525.70 0.8293
525.80 0.8287
525.90 0.8281
526.00 0.8275
526.10 0.8269
526.20 0.8263
526.30 0.8257
526.40 0.8251
526.50 0.8245
526.60 0.8239
526.70 0.8233
526.80 0.8227
526.90 0.8222
527.00 0.8216
527.10 0.821
527.20 0.8204
527.30 0.8198
527.40 0.8192
527.50 0.8186
527.60 0.818
527.70 0.8175
527.80 0.8169
527.90 0.8163
528.00 0.8157
528.10 0.8151
528.20 0.8145
528.30 0.8139
528.40 0.8134
528.50 0.8128
528.60 0.8122
528.70 0.8116
528.80 0.811
528.90 0.8105
529.00 0.8099
529.10 0.8093
529.20 0.8087
529.30 0.8081
529.40 0.8076
529.50 0.807
529.60 0.8064
529.70 0.8058
529.80 0.8053
529.90 0.8047
530.00 0.8041
530.10 0.8035
530.20 0.803
530.30 0.8024
530.40 0.8018
530.50 0.8012
530.60 0.8007
530.70 0.8001
530.80 0.7995
530.90 0.799
531.00 0.7984
531.10 0.7978
531.20 0.7973
531.30 0.7967
531.40 0.7961
531.50 0.7956
531.60 0.795
531.70 0.7944
531.80 0.7939
531.90 0.7933
532.00 0.7927
532.10 0.7922
532.20 0.7916
532.30 0.791
532.40 0.7905
532.50 0.7899
532.60 0.7894
532.70 0.7888
532.80 0.7882
532.90 0.7877
533.00 0.7871
533.10 0.7866
533.20 0.786
533.30 0.7854
533.40 0.7849
533.50 0.7843
533.60 0.7838
533.70 0.7832
533.80 0.7827
533.90 0.7821
534.00 0.7815
534.10 0.781
534.20 0.7804
534.30 0.7799
534.40 0.7793
534.50 0.7788
534.60 0.7782
534.70 0.7777
534.80 0.7771
534.90 0.7766
535.00 0.776
535.10 0.7755
535.20 0.7749
535.30 0.7744
535.40 0.7738
535.50 0.7733
535.60 0.7727
535.70 0.7722
535.80 0.7717
535.90 0.7711
536.00 0.7706
536.10 0.77
536.20 0.7695
536.30 0.7689
536.40 0.7684
536.50 0.7678
536.60 0.7673
536.70 0.7668
536.80 0.7662
536.90 0.7657
537.00 0.7651
537.10 0.7646
537.20 0.7641
537.30 0.7635
537.40 0.763
537.50 0.7624
537.60 0.7619
537.70 0.7614
537.80 0.7608
537.90 0.7603
538.00 0.7598
538.10 0.7592
538.20 0.7587
538.30 0.7582
538.40 0.7576
538.50 0.7571
538.60 0.7566
538.70 0.756
538.80 0.7555
538.90 0.755
539.00 0.7544
539.10 0.7539
539.20 0.7534
539.30 0.7529
539.40 0.7523
539.50 0.7518
539.60 0.7513
539.70 0.7507
539.80 0.7502
539.90 0.7497
540.00 0.7492
540.10 0.7486
540.20 0.7481
540.30 0.7476
540.40 0.7471
540.50 0.7465
540.60 0.746
540.70 0.7455
540.80 0.745
540.90 0.7444
541.00 0.7439
541.10 0.7434
541.20 0.7429
541.30 0.7424
541.40 0.7418
541.50 0.7413
541.60 0.7408
541.70 0.7403
541.80 0.7398
541.90 0.7393
542.00 0.7387
542.10 0.7382
542.20 0.7377
542.30 0.7372
542.40 0.7367
542.50 0.7362
542.60 0.7356
542.70 0.7351
542.80 0.7346
542.90 0.7341
543.00 0.7336
543.10 0.7331
543.20 0.7326
543.30 0.7321
543.40 0.7315
543.50 0.731
543.60 0.7305
543.70 0.73
543.80 0.7295
543.90 0.729
544.00 0.7285
544.10 0.728
544.20 0.7275
544.30 0.727
544.40 0.7265
544.50 0.726
544.60 0.7255
544.70 0.725
544.80 0.7244
544.90 0.7239
545.00 0.7234
545.10 0.7229
545.20 0.7224
545.30 0.7219
545.40 0.7214
545.50 0.7209
545.60 0.7204
545.70 0.7199
545.80 0.7194
545.90 0.7189
546.00 0.7184
546.10 0.7179
546.20 0.7174
546.30 0.7169
546.40 0.7164
546.50 0.7159
546.60 0.7154
546.70 0.7149
546.80 0.7145
546.90 0.714
547.00 0.7135
547.10 0.713
547.20 0.7125
547.30 0.712
547.40 0.7115
547.50 0.711
547.60 0.7105
547.70 0.71
547.80 0.7095
547.90 0.709
548.00 0.7085
548.10 0.708
548.20 0.7076
548.30 0.7071
548.40 0.7066
548.50 0.7061
548.60 0.7056
548.70 0.7051
548.80 0.7046
548.90 0.7041
549.00 0.7037
549.10 0.7032
549.20 0.7027
549.30 0.7022
549.40 0.7017
549.50 0.7012
549.60 0.7007
549.70 0.7003
549.80 0.6998
549.90 0.6993
550.00 0.6988
550.10 0.6983
550.20 0.6978
550.30 0.6974
550.40 0.6969
550.50 0.6964
550.60 0.6959
550.70 0.6954
550.80 0.695
550.90 0.6945
551.00 0.694
551.10 0.6935
551.20 0.6931
551.30 0.6926
551.40 0.6921
551.50 0.6916
551.60 0.6912
551.70 0.6907
551.80 0.6902
551.90 0.6897
552.00 0.6893
552.10 0.6888
552.20 0.6883
552.30 0.6878
552.40 0.6874
552.50 0.6869
552.60 0.6864
552.70 0.6859
552.80 0.6855
552.90 0.685
553.00 0.6845
553.10 0.6841
553.20 0.6836
553.30 0.6831
553.40 0.6827
553.50 0.6822
553.60 0.6817
553.70 0.6813
553.80 0.6808
553.90 0.6803
554.00 0.6799
554.10 0.6794
554.20 0.6789
554.30 0.6785
554.40 0.678
554.50 0.6775
554.60 0.6771
554.70 0.6766
554.80 0.6761
554.90 0.6757
555.00 0.6752
555.10 0.6748
555.20 0.6743
555.30 0.6738
555.40 0.6734
555.50 0.6729
555.60 0.6725
555.70 0.672
555.80 0.6715
555.90 0.6711
556.00 0.6706
556.10 0.6702
556.20 0.6697
556.30 0.6693
556.40 0.6688
556.50 0.6683
556.60 0.6679
556.70 0.6674
556.80 0.667
556.90 0.6665
557.00 0.6661
557.10 0.6656
557.20 0.6652
557.30 0.6647
557.40 0.6643
557.50 0.6638
557.60 0.6633
557.70 0.6629
557.80 0.6624
557.90 0.662
558.00 0.6615
558.10 0.6611
558.20 0.6606
558.30 0.6602
558.40 0.6597
558.50 0.6593
558.60 0.6589
558.70 0.6584
558.80 0.658
558.90 0.6575
559.00 0.6571
559.10 0.6566
559.20 0.6562
559.30 0.6557
559.40 0.6553
559.50 0.6548
559.60 0.6544
559.70 0.6539
559.80 0.6535
559.90 0.6531
560.00 0.6526
560.10 0.6522
560.20 0.6517
560.30 0.6513
560.40 0.6508
560.50 0.6504
560.60 0.65
560.70 0.6495
560.80 0.6491
560.90 0.6486
561.00 0.6482
561.10 0.6478
561.20 0.6473
561.30 0.6469
561.40 0.6465
561.50 0.646
561.60 0.6456
561.70 0.6451
561.80 0.6447
561.90 0.6443
562.00 0.6438
562.10 0.6434
562.20 0.643
562.30 0.6425
562.40 0.6421
562.50 0.6417
562.60 0.6412
562.70 0.6408
562.80 0.6404
562.90 0.6399
563.00 0.6395
563.10 0.6391
563.20 0.6386
563.30 0.6382
563.40 0.6378
563.50 0.6374
563.60 0.6369
563.70 0.6365
563.80 0.6361
563.90 0.6356
564.00 0.6352
564.10 0.6348
564.20 0.6344
564.30 0.6339
564.40 0.6335
564.50 0.6331
564.60 0.6327
564.70 0.6322
564.80 0.6318
564.90 0.6314
565.00 0.631
565.10 0.6305
565.20 0.6301
565.30 0.6297
565.40 0.6293
565.50 0.6288
565.60 0.6284
565.70 0.628
565.80 0.6276
565.90 0.6271
566.00 0.6267
566.10 0.6263
566.20 0.6259
566.30 0.6255
566.40 0.625
566.50 0.6246
566.60 0.6242
566.70 0.6238
566.80 0.6234
566.90 0.623
567.00 0.6225
567.10 0.6221
567.20 0.6217
567.30 0.6213
567.40 0.6209
567.50 0.6205
567.60 0.62
567.70 0.6196
567.80 0.6192
567.90 0.6188
568.00 0.6184
568.10 0.618
568.20 0.6176
568.30 0.6171
568.40 0.6167
568.50 0.6163
568.60 0.6159
568.70 0.6155
568.80 0.6151
568.90 0.6147
569.00 0.6143
569.10 0.6139
569.20 0.6134
569.30 0.613
569.40 0.6126
569.50 0.6122
569.60 0.6118
569.70 0.6114
569.80 0.611
569.90 0.6106
570.00 0.6102
570.10 0.6098
570.20 0.6094
570.30 0.609
570.40 0.6086
570.50 0.6081
570.60 0.6077
570.70 0.6073
570.80 0.6069
570.90 0.6065
571.00 0.6061
571.10 0.6057
571.20 0.6053
571.30 0.6049
571.40 0.6045
571.50 0.6041
571.60 0.6037
571.70 0.6033
571.80 0.6029
571.90 0.6025
572.00 0.6021
572.10 0.6017
572.20 0.6013
572.30 0.6009
572.40 0.6005
572.50 0.6001
572.60 0.5997
572.70 0.5993
572.80 0.5989
572.90 0.5985
573.00 0.5981
573.10 0.5977
573.20 0.5973
573.30 0.5969
573.40 0.5965
573.50 0.5961
573.60 0.5957
573.70 0.5954
573.80 0.595
573.90 0.5946
574.00 0.5942
574.10 0.5938
574.20 0.5934
574.30 0.593
574.40 0.5926
574.50 0.5922
574.60 0.5918
574.70 0.5914
574.80 0.591
574.90 0.5906
575.00 0.5902
575.10 0.5899
575.20 0.5895
575.30 0.5891
575.40 0.5887
575.50 0.5883
575.60 0.5879
575.70 0.5875
575.80 0.5871
575.90 0.5867
576.00 0.5864
576.10 0.586
576.20 0.5856
576.30 0.5852
576.40 0.5848
576.50 0.5844
576.60 0.584
576.70 0.5837
576.80 0.5833
576.90 0.5829
577.00 0.5825
577.10 0.5821
577.20 0.5817
577.30 0.5814
577.40 0.581
577.50 0.5806
577.60 0.5802
577.70 0.5798
577.80 0.5794
577.90 0.5791
578.00 0.5787
578.10 0.5783
578.20 0.5779
578.30 0.5775
578.40 0.5772
578.50 0.5768
578.60 0.5764
578.70 0.576
578.80 0.5756
578.90 0.5753
579.00 0.5749
579.10 0.5745
579.20 0.5741
579.30 0.5738
579.40 0.5734
579.50 0.573
579.60 0.5726
579.70 0.5723
579.80 0.5719
579.90 0.5715
580.00 0.5711
580.10 0.5708
580.20 0.5704
580.30 0.57
580.40 0.5696
580.50 0.5693
580.60 0.5689
580.70 0.5685
580.80 0.5681
580.90 0.5678
581.00 0.5674
581.10 0.567
581.20 0.5667
581.30 0.5663
581.40 0.5659
581.50 0.5655
581.60 0.5652
581.70 0.5648
581.80 0.5644
581.90 0.5641
582.00 0.5637
582.10 0.5633
582.20 0.563
582.30 0.5626
582.40 0.5622
582.50 0.5619
582.60 0.5615
582.70 0.5611
582.80 0.5608
582.90 0.5604
583.00 0.56
583.10 0.5597
583.20 0.5593
583.30 0.5589
583.40 0.5586
583.50 0.5582
583.60 0.5578
583.70 0.5575
583.80 0.5571
583.90 0.5567
584.00 0.5564
584.10 0.556
584.20 0.5557
584.30 0.5553
584.40 0.5549
584.50 0.5546
584.60 0.5542
584.70 0.5539
584.80 0.5535
584.90 0.5531
585.00 0.5528
585.10 0.5524
585.20 0.5521
585.30 0.5517
585.40 0.5513
585.50 0.551
585.60 0.5506
585.70 0.5503
585.80 0.5499
585.90 0.5496
586.00 0.5492
586.10 0.5488
586.20 0.5485
586.30 0.5481
586.40 0.5478
586.50 0.5474
586.60 0.5471
586.70 0.5467
586.80 0.5464
586.90 0.546
587.00 0.5456
587.10 0.5453
587.20 0.5449
587.30 0.5446
587.40 0.5442
587.50 0.5439
587.60 0.5435
587.70 0.5432
587.80 0.5428
587.90 0.5425
588.00 0.5421
588.10 0.5418
588.20 0.5414
588.30 0.5411
588.40 0.5407
588.50 0.5404
588.60 0.54
588.70 0.5397
588.80 0.5393
588.90 0.539
589.00 0.5386
589.10 0.5383
589.20 0.5379
589.30 0.5376
589.40 0.5372
589.50 0.5369
589.60 0.5365
589.70 0.5362
589.80 0.5358
589.90 0.5355
590.00 0.5352
590.10 0.5348
590.20 0.5345
590.30 0.5341
590.40 0.5338
590.50 0.5334
590.60 0.5331
590.70 0.5327
590.80 0.5324
590.90 0.5321
591.00 0.5317
591.10 0.5314
591.20 0.531
591.30 0.5307
591.40 0.5303
591.50 0.53
591.60 0.5297
591.70 0.5293
591.80 0.529
591.90 0.5286
592.00 0.5283
592.10 0.528
592.20 0.5276
592.30 0.5273
592.40 0.5269
592.50 0.5266
592.60 0.5263
592.70 0.5259
592.80 0.5256
592.90 0.5253
593.00 0.5249
593.10 0.5246
593.20 0.5242
593.30 0.5239
593.40 0.5236
593.50 0.5232
593.60 0.5229
593.70 0.5226
593.80 0.5222
593.90 0.5219
594.00 0.5216
594.10 0.5212
594.20 0.5209
594.30 0.5206
594.40 0.5202
594.50 0.5199
594.60 0.5196
594.70 0.5192
594.80 0.5189
594.90 0.5186
595.00 0.5182
595.10 0.5179
595.20 0.5176
595.30 0.5172
595.40 0.5169
595.50 0.5166
595.60 0.5162
595.70 0.5159
595.80 0.5156
595.90 0.5153
596.00 0.5149
596.10 0.5146
596.20 0.5143
596.30 0.5139
596.40 0.5136
596.50 0.5133
596.60 0.513
596.70 0.5126
596.80 0.5123
596.90 0.512
597.00 0.5116
597.10 0.5113
597.20 0.511
597.30 0.5107
597.40 0.5103
597.50 0.51
597.60 0.5097
597.70 0.5094
597.80 0.509
597.90 0.5087
598.00 0.5084
598.10 0.5081
598.20 0.5077
598.30 0.5074
598.40 0.5071
598.50 0.5068
598.60 0.5065
598.70 0.5061
598.80 0.5058
598.90 0.5055
599.00 0.5052
599.10 0.5048
599.20 0.5045
599.30 0.5042
599.40 0.5039
599.50 0.5036
599.60 0.5032
599.70 0.5029
599.80 0.5026
599.90 0.5023
600.00 0.502
600.10 0.5016
600.20 0.5013
600.30 0.501
600.40 0.5007
600.50 0.5004
600.60 0.5001
600.70 0.4997
600.80 0.4994
600.90 0.4991
601.00 0.4988
601.10 0.4985
601.20 0.4982
601.30 0.4978
601.40 0.4975
601.50 0.4972
601.60 0.4969
601.70 0.4966
601.80 0.4963
601.90 0.496
602.00 0.4956
602.10 0.4953
602.20 0.495
602.30 0.4947
602.40 0.4944
602.50 0.4941
602.60 0.4938
602.70 0.4934
602.80 0.4931
602.90 0.4928
603.00 0.4925
603.10 0.4922
603.20 0.4919
603.30 0.4916
603.40 0.4913
603.50 0.491
603.60 0.4906
603.70 0.4903
603.80 0.49
603.90 0.4897
604.00 0.4894
604.10 0.4891
604.20 0.4888
604.30 0.4885
604.40 0.4882
604.50 0.4879
604.60 0.4876
604.70 0.4873
604.80 0.4869
604.90 0.4866
605.00 0.4863
605.10 0.486
605.20 0.4857
605.30 0.4854
605.40 0.4851
605.50 0.4848
605.60 0.4845
605.70 0.4842
605.80 0.4839
605.90 0.4836
606.00 0.4833
606.10 0.483
606.20 0.4827
606.30 0.4824
606.40 0.4821
606.50 0.4818
606.60 0.4815
606.70 0.4812
606.80 0.4809
606.90 0.4806
607.00 0.4802
607.10 0.4799
607.20 0.4796
607.30 0.4793
607.40 0.479
607.50 0.4787
607.60 0.4784
607.70 0.4781
607.80 0.4778
607.90 0.4775
608.00 0.4772
608.10 0.4769
608.20 0.4766
608.30 0.4763
608.40 0.476
608.50 0.4757
608.60 0.4754
608.70 0.4752
608.80 0.4749
608.90 0.4746
609.00 0.4743
609.10 0.474
609.20 0.4737
609.30 0.4734
609.40 0.4731
609.50 0.4728
609.60 0.4725
609.70 0.4722
609.80 0.4719
609.90 0.4716
610.00 0.4713
610.10 0.471
610.20 0.4707
610.30 0.4704
610.40 0.4701
610.50 0.4698
610.60 0.4695
610.70 0.4692
610.80 0.4689
610.90 0.4687
611.00 0.4684
611.10 0.4681
611.20 0.4678
611.30 0.4675
611.40 0.4672
611.50 0.4669
611.60 0.4666
611.70 0.4663
611.80 0.466
611.90 0.4657
612.00 0.4654
612.10 0.4652
612.20 0.4649
612.30 0.4646
612.40 0.4643
612.50 0.464
612.60 0.4637
612.70 0.4634
612.80 0.4631
612.90 0.4628
613.00 0.4626
613.10 0.4623
613.20 0.462
613.30 0.4617
613.40 0.4614
613.50 0.4611
613.60 0.4608
613.70 0.4605
613.80 0.4603
613.90 0.46
614.00 0.4597
614.10 0.4594
614.20 0.4591
614.30 0.4588
614.40 0.4585
614.50 0.4583
614.60 0.458
614.70 0.4577
614.80 0.4574
614.90 0.4571
615.00 0.4568
615.10 0.4565
615.20 0.4563
615.30 0.456
615.40 0.4557
615.50 0.4554
615.60 0.4551
615.70 0.4549
615.80 0.4546
615.90 0.4543
616.00 0.454
616.10 0.4537
616.20 0.4534
616.30 0.4532
616.40 0.4529
616.50 0.4526
616.60 0.4523
616.70 0.452
616.80 0.4518
616.90 0.4515
617.00 0.4512
617.10 0.4509
617.20 0.4506
617.30 0.4504
617.40 0.4501
617.50 0.4498
617.60 0.4495
617.70 0.4493
617.80 0.449
617.90 0.4487
618.00 0.4484
618.10 0.4481
618.20 0.4479
618.30 0.4476
618.40 0.4473
618.50 0.447
618.60 0.4468
618.70 0.4465
618.80 0.4462
618.90 0.4459
619.00 0.4457
619.10 0.4454
619.20 0.4451
619.30 0.4448
619.40 0.4446
619.50 0.4443
619.60 0.444
619.70 0.4437
619.80 0.4435
619.90 0.4432
620.00 0.4429
620.10 0.4426
620.20 0.4424
620.30 0.4421
620.40 0.4418
620.50 0.4415
620.60 0.4413
620.70 0.441
620.80 0.4407
620.90 0.4405
621.00 0.4402
621.10 0.4399
621.20 0.4396
621.30 0.4394
621.40 0.4391
621.50 0.4388
621.60 0.4386
621.70 0.4383
621.80 0.438
621.90 0.4378
622.00 0.4375
622.10 0.4372
622.20 0.4369
622.30 0.4367
622.40 0.4364
622.50 0.4361
622.60 0.4359
622.70 0.4356
622.80 0.4353
622.90 0.4351
623.00 0.4348
623.10 0.4345
623.20 0.4343
623.30 0.434
623.40 0.4337
623.50 0.4335
623.60 0.4332
623.70 0.4329
623.80 0.4327
623.90 0.4324
624.00 0.4321
624.10 0.4319
624.20 0.4316
624.30 0.4313
624.40 0.4311
624.50 0.4308
624.60 0.4306
624.70 0.4303
624.80 0.43
624.90 0.4298
625.00 0.4295
625.10 0.4292
625.20 0.429
625.30 0.4287
625.40 0.4284
625.50 0.4282
625.60 0.4279
625.70 0.4277
625.80 0.4274
625.90 0.4271
626.00 0.4269
626.10 0.4266
626.20 0.4263
626.30 0.4261
626.40 0.4258
626.50 0.4256
626.60 0.4253
626.70 0.425
626.80 0.4248
626.90 0.4245
627.00 0.4243
627.10 0.424
627.20 0.4237
627.30 0.4235
627.40 0.4232
627.50 0.423
627.60 0.4227
627.70 0.4225
627.80 0.4222
627.90 0.4219
628.00 0.4217
628.10 0.4214
628.20 0.4212
628.30 0.4209
628.40 0.4206
628.50 0.4204
628.60 0.4201
628.70 0.4199
628.80 0.4196
628.90 0.4194
629.00 0.4191
629.10 0.4189
629.20 0.4186
629.30 0.4183
629.40 0.4181
629.50 0.4178
629.60 0.4176
629.70 0.4173
629.80 0.4171
629.90 0.4168
630.00 0.4166
630.10 0.4163
630.20 0.416
630.30 0.4158
630.40 0.4155
630.50 0.4153
630.60 0.415
630.70 0.4148
630.80 0.4145
630.90 0.4143
631.00 0.414
631.10 0.4138
631.20 0.4135
631.30 0.4133
631.40 0.413
631.50 0.4128
631.60 0.4125
631.70 0.4123
631.80 0.412
631.90 0.4117
632.00 0.4115
632.10 0.4112
632.20 0.411
632.30 0.4107
632.40 0.4105
632.50 0.4102
632.60 0.41
632.70 0.4097
632.80 0.4095
632.90 0.4092
633.00 0.409
633.10 0.4087
633.20 0.4085
633.30 0.4082
633.40 0.408
633.50 0.4077
633.60 0.4075
633.70 0.4072
633.80 0.407
633.90 0.4067
634.00 0.4065
634.10 0.4063
634.20 0.406
634.30 0.4058
634.40 0.4055
634.50 0.4053
634.60 0.405
634.70 0.4048
634.80 0.4045
634.90 0.4043
635.00 0.404
635.10 0.4038
635.20 0.4035
635.30 0.4033
635.40 0.403
635.50 0.4028
635.60 0.4025
635.70 0.4023
635.80 0.4021
635.90 0.4018
636.00 0.4016
636.10 0.4013
636.20 0.4011
636.30 0.4008
636.40 0.4006
636.50 0.4003
636.60 0.4001
636.70 0.3998
636.80 0.3996
636.90 0.3994
637.00 0.3991
637.10 0.3989
637.20 0.3986
637.30 0.3984
637.40 0.3981
637.50 0.3979
637.60 0.3976
637.70 0.3974
637.80 0.3972
637.90 0.3969
638.00 0.3967
638.10 0.3964
638.20 0.3962
638.30 0.3959
638.40 0.3957
638.50 0.3954
638.60 0.3952
638.70 0.395
638.80 0.3947
638.90 0.3945
639.00 0.3942
639.10 0.394
639.20 0.3937
639.30 0.3935
639.40 0.3933
639.50 0.393
639.60 0.3928
639.70 0.3925
639.80 0.3923
639.90 0.392
640.00 0.3918
640.10 0.3916
640.20 0.3913
640.30 0.3911
640.40 0.3908
640.50 0.3906
640.60 0.3903
640.70 0.3901
640.80 0.3898
640.90 0.3896
641.00 0.3894
641.10 0.3891
641.20 0.3889
641.30 0.3886
641.40 0.3884
641.50 0.3881
641.60 0.3879
641.70 0.3877
641.80 0.3874
641.90 0.3872
642.00 0.3869
642.10 0.3867
642.20 0.3864
642.30 0.3862
642.40 0.3859
642.50 0.3857
642.60 0.3854
642.70 0.3852
642.80 0.385
642.90 0.3847
643.00 0.3845
643.10 0.3842
643.20 0.384
643.30 0.3837
643.40 0.3835
643.50 0.3832
643.60 0.383
643.70 0.3827
643.80 0.3825
643.90 0.3822
644.00 0.382
644.10 0.3817
644.20 0.3815
644.30 0.3812
644.40 0.381
644.50 0.3807
644.60 0.3805
644.70 0.3802
644.80 0.38
644.90 0.3797
645.00 0.3795
645.10 0.3792
645.20 0.379
645.30 0.3787
645.40 0.3785
645.50 0.3782
645.60 0.3779
645.70 0.3777
645.80 0.3774
645.90 0.3772
646.00 0.3769
646.10 0.3766
646.20 0.3764
646.30 0.3761
646.40 0.3758
646.50 0.3756
646.60 0.3753
646.70 0.375
646.80 0.3748
646.90 0.3745
647.00 0.3742
647.10 0.374
647.20 0.3737
647.30 0.3734
647.40 0.3731
647.50 0.3728
647.60 0.3725
647.70 0.3723
647.80 0.372
647.90 0.3717
648.00 0.3714
648.10 0.3711
648.20 0.3708
648.30 0.3705
648.40 0.3702
648.50 0.3699
648.60 0.3696
648.70 0.3693
648.80 0.3689
648.90 0.3686
649.00 0.3683
649.10 0.368
649.20 0.3677
649.30 0.3674
649.40 0.367
649.50 0.3667
649.60 0.3663
649.70 0.3659
649.80 0.3656
649.90 0.3652
650.00 0.3649
650.10 0.3645
650.20 0.3641
650.30 0.3638
650.40 0.3633
650.50 0.3629
650.60 0.3625
650.70 0.362
650.80 0.3616
650.90 0.3612
651.00 0.3607
651.10 0.3603
651.20 0.3599
651.30 0.3594
651.40 0.3588
651.50 0.3583
651.60 0.3577
651.70 0.3571
651.80 0.3566
651.90 0.356
652.00 0.3555
652.10 0.3549
652.20 0.3543
652.30 0.3537
652.40 0.3529
652.50 0.3521
652.60 0.3513
652.70 0.3505
652.80 0.3497
652.90 0.349
653.00 0.3482
653.10 0.3474
653.20 0.3466
653.30 0.3457
653.40 0.3445
653.50 0.3433
653.60 0.3421
653.70 0.3409
653.80 0.3396
653.90 0.3384
654.00 0.3372
654.10 0.336
654.20 0.3348
654.30 0.3335
654.40 0.3318
654.50 0.3301
654.60 0.3284
654.70 0.3267
654.80 0.3249
654.90 0.3228
655.00 0.3207
655.10 0.3185
655.20 0.3164
655.30 0.3142
655.40 0.3117
655.50 0.3091
655.60 0.3064
655.70 0.3036
655.80 0.3005
655.90 0.2973
656.00 0.2933
656.10 0.289
656.20 0.2797
656.30 0.2797
656.40 0.2834
656.50 0.2901
656.60 0.2938
656.70 0.2973
656.80 0.3
656.90 0.3026
657.00 0.305
657.10 0.3073
657.20 0.3095
657.30 0.3116
657.40 0.3133
657.50 0.3151
657.60 0.3168
657.70 0.3186
657.80 0.3203
657.90 0.3216
658.00 0.3229
658.10 0.3242
658.20 0.3255
658.30 0.3267
658.40 0.3275
658.50 0.3283
658.60 0.3291
658.70 0.3299
658.80 0.3307
658.90 0.3315
659.00 0.3323
659.10 0.3331
659.20 0.3338
659.30 0.3346
659.40 0.3349
659.50 0.3353
659.60 0.3357
659.70 0.336
659.80 0.3364
659.90 0.3368
660.00 0.3372
660.10 0.3375
660.20 0.3379
660.30 0.3382
660.40 0.3384
660.50 0.3385
660.60 0.3386
660.70 0.3388
660.80 0.3389
660.90 0.3391
661.00 0.3392
661.10 0.3393
661.20 0.3395
661.30 0.3396
661.40 0.3396
661.50 0.3396
661.60 0.3396
661.70 0.3396
661.80 0.3396
661.90 0.3396
662.00 0.3396
662.10 0.3396
662.20 0.3396
662.30 0.3396
662.40 0.3396
662.50 0.3395
662.60 0.3394
662.70 0.3394
662.80 0.3393
662.90 0.3392
663.00 0.3392
663.10 0.3391
663.20 0.339
663.30 0.339
663.40 0.3388
663.50 0.3387
663.60 0.3386
663.70 0.3385
663.80 0.3384
663.90 0.3383
664.00 0.3382
664.10 0.3381
664.20 0.338
664.30 0.3379
664.40 0.3377
664.50 0.3376
664.60 0.3374
664.70 0.3373
664.80 0.3372
664.90 0.337
665.00 0.3369
665.10 0.3368
665.20 0.3366
665.30 0.3365
665.40 0.3363
665.50 0.3362
665.60 0.336
665.70 0.3359
665.80 0.3357
665.90 0.3356
666.00 0.3354
666.10 0.3353
666.20 0.3351
666.30 0.335
666.40 0.3348
666.50 0.3347
666.60 0.3345
666.70 0.3343
666.80 0.3342
666.90 0.334
667.00 0.3338
667.10 0.3337
667.20 0.3335
667.30 0.3334
667.40 0.3332
667.50 0.333
667.60 0.3329
667.70 0.3327
667.80 0.3325
667.90 0.3324
668.00 0.3322
668.10 0.332
668.20 0.3318
668.30 0.3317
668.40 0.3315
668.50 0.3313
668.60 0.3312
668.70 0.331
668.80 0.3308
668.90 0.3306
669.00 0.3305
669.10 0.3303
669.20 0.3301
669.30 0.33
669.40 0.3298
669.50 0.3296
669.60 0.3294
669.70 0.3293
669.80 0.3291
669.90 0.3289
670.00 0.3287
670.10 0.3286
670.20 0.3284
670.30 0.3282
670.40 0.328
670.50 0.3278
670.60 0.3277
670.70 0.3275
670.80 0.3273
670.90 0.3271
671.00 0.327
671.10 0.3268
671.20 0.3266
671.30 0.3264
671.40 0.3263
671.50 0.3261
671.60 0.3259
671.70 0.3257
671.80 0.3256
671.90 0.3254
672.00 0.3252
672.10 0.325
672.20 0.3248
672.30 0.3247
672.40 0.3245
672.50 0.3243
672.60 0.3241
672.70 0.324
672.80 0.3238
672.90 0.3236
673.00 0.3234
673.10 0.3232
673.20 0.3231
673.30 0.3229
673.40 0.3227
673.50 0.3225
673.60 0.3224
673.70 0.3222
673.80 0.322
673.90 0.3218
674.00 0.3216
674.10 0.3215
674.20 0.3213
674.30 0.3211
674.40 0.3209
674.50 0.3208
674.60 0.3206
674.70 0.3204
674.80 0.3202
674.90 0.32
675.00 0.3199
675.10 0.3197
675.20 0.3195
675.30 0.3193
675.40 0.3192
675.50 0.319
675.60 0.3188
675.70 0.3186
675.80 0.3185
675.90 0.3183
676.00 0.3181
676.10 0.3179
676.20 0.3178
676.30 0.3176
676.40 0.3174
676.50 0.3172
676.60 0.317
676.70 0.3169
676.80 0.3167
676.90 0.3165
677.00 0.3163
677.10 0.3162
677.20 0.316
677.30 0.3158
677.40 0.3156
677.50 0.3155
677.60 0.3153
677.70 0.3151
677.80 0.3149
677.90 0.3148
678.00 0.3146
678.10 0.3144
678.20 0.3142
678.30 0.3141
678.40 0.3139
678.50 0.3137
678.60 0.3135
678.70 0.3134
678.80 0.3132
678.90 0.313
679.00 0.3128
679.10 0.3127
679.20 0.3125
679.30 0.3123
679.40 0.3121
679.50 0.312
679.60 0.3118
679.70 0.3116
679.80 0.3114
679.90 0.3113
680.00 0.3111
680.10 0.3109
680.20 0.3108
680.30 0.3106
680.40 0.3104
680.50 0.3102
680.60 0.3101
680.70 0.3099
680.80 0.3097
680.90 0.3095
681.00 0.3094
681.10 0.3092
681.20 0.309
681.30 0.3089
681.40 0.3087
681.50 0.3085
681.60 0.3083
681.70 0.3082
681.80 0.308
681.90 0.3078
682.00 0.3077
682.10 0.3075
682.20 0.3073
682.30 0.3071
682.40 0.307
682.50 0.3068
682.60 0.3066
682.70 0.3065
682.80 0.3063
682.90 0.3061
683.00 0.3059
683.10 0.3058
683.20 0.3056
683.30 0.3054
683.40 0.3053
683.50 0.3051
683.60 0.3049
683.70 0.3048
683.80 0.3046
683.90 0.3044
684.00 0.3042
684.10 0.3041
684.20 0.3039
684.30 0.3037
684.40 0.3036
684.50 0.3034
684.60 0.3032
684.70 0.3031
684.80 0.3029
684.90 0.3027
685.00 0.3026
685.10 0.3024
685.20 0.3022
685.30 0.3021
685.40 0.3019
685.50 0.3017
685.60 0.3016
685.70 0.3014
685.80 0.3012
685.90 0.301
686.00 0.3009
686.10 0.3007
686.20 0.3005
686.30 0.3004
686.40 0.3002
686.50 0.3
686.60 0.2999
686.70 0.2997
686.80 0.2995
686.90 0.2994
687.00 0.2992
687.10 0.299
687.20 0.2989
687.30 0.2987
687.40 0.2986
687.50 0.2984
687.60 0.2982
687.70 0.2981
687.80 0.2979
687.90 0.2977
688.00 0.2976
688.10 0.2974
688.20 0.2972
688.30 0.2971
688.40 0.2969
688.50 0.2967
688.60 0.2966
688.70 0.2964
688.80 0.2962
688.90 0.2961
689.00 0.2959
689.10 0.2957
689.20 0.2956
689.30 0.2954
689.40 0.2953
689.50 0.2951
689.60 0.2949
689.70 0.2948
689.80 0.2946
689.90 0.2944
690.00 0.2943
690.10 0.2941
690.20 0.294
690.30 0.2938
690.40 0.2936
690.50 0.2935
690.60 0.2933
690.70 0.2931
690.80 0.293
690.90 0.2928
691.00 0.2927
691.10 0.2925
691.20 0.2923
691.30 0.2922
691.40 0.292
691.50 0.2919
691.60 0.2917
691.70 0.2915
691.80 0.2914
691.90 0.2912
692.00 0.2911
692.10 0.2909
692.20 0.2907
692.30 0.2906
692.40 0.2904
692.50 0.2903
692.60 0.2901
692.70 0.2899
692.80 0.2898
692.90 0.2896
693.00 0.2895
693.10 0.2893
693.20 0.2891
693.30 0.289
693.40 0.2888
693.50 0.2887
693.60 0.2885
693.70 0.2883
693.80 0.2882
693.90 0.288
694.00 0.2879
694.10 0.2877
694.20 0.2875
694.30 0.2874
694.40 0.2872
694.50 0.2871
694.60 0.2869
694.70 0.2867
694.80 0.2866
694.90 0.2864
695.00 0.2863
695.10 0.2861
695.20 0.286
695.30 0.2858
695.40 0.2856
695.50 0.2855
695.60 0.2853
695.70 0.2852
695.80 0.285
695.90 0.2849
696.00 0.2847
696.10 0.2845
696.20 0.2844
696.30 0.2842
696.40 0.2841
696.50 0.2839
696.60 0.2838
696.70 0.2836
696.80 0.2835
696.90 0.2833
697.00 0.2831
697.10 0.283
697.20 0.2828
697.30 0.2827
697.40 0.2825
697.50 0.2824
697.60 0.2822
697.70 0.2821
697.80 0.2819
697.90 0.2818
698.00 0.2816
698.10 0.2814
698.20 0.2813
698.30 0.2811
698.40 0.281
698.50 0.2808
698.60 0.2807
698.70 0.2805
698.80 0.2804
698.90 0.2802
699.00 0.2801
699.10 0.2799
699.20 0.2797
699.30 0.2796
699.40 0.2794
699.50 0.2793
699.60 0.2791
699.70 0.279
699.80 0.2788
699.90 0.2787
700.00 0.2785
700.10 0.2784
700.20 0.2782
700.30 0.2781
700.40 0.2779
700.50 0.2778
700.60 0.2776
700.70 0.2775
700.80 0.2773
700.90 0.2772
701.00 0.277
701.10 0.2769
701.20 0.2767
701.30 0.2766
701.40 0.2764
701.50 0.2763
701.60 0.2761
701.70 0.276
701.80 0.2758
701.90 0.2757
702.00 0.2755
702.10 0.2754
702.20 0.2752
702.30 0.2751
702.40 0.2749
702.50 0.2748
702.60 0.2746
702.70 0.2745
702.80 0.2743
702.90 0.2742
703.00 0.274
703.10 0.2739
703.20 0.2737
703.30 0.2736
703.40 0.2734
703.50 0.2733
703.60 0.2731
703.70 0.273
703.80 0.2728
703.90 0.2727
704.00 0.2725
704.10 0.2724
704.20 0.2722
704.30 0.2721
704.40 0.2719
704.50 0.2718
704.60 0.2716
704.70 0.2715
704.80 0.2713
704.90 0.2712
705.00 0.271
705.10 0.2709
705.20 0.2707
705.30 0.2706
705.40 0.2704
705.50 0.2703
705.60 0.2702
705.70 0.27
705.80 0.2699
705.90 0.2697
706.00 0.2696
706.10 0.2694
706.20 0.2693
706.30 0.2691
706.40 0.269
706.50 0.2688
706.60 0.2687
706.70 0.2686
706.80 0.2684
706.90 0.2683
707.00 0.2681
707.10 0.268
707.20 0.2678
707.30 0.2677
707.40 0.2675
707.50 0.2674
707.60 0.2672
707.70 0.2671
707.80 0.267
707.90 0.2668
708.00 0.2667
708.10 0.2665
708.20 0.2664
708.30 0.2662
708.40 0.2661
708.50 0.2659
708.60 0.2658
708.70 0.2657
708.80 0.2655
708.90 0.2654
709.00 0.2652
709.10 0.2651
709.20 0.2649
709.30 0.2648
709.40 0.2647
709.50 0.2645
709.60 0.2644
709.70 0.2642
709.80 0.2641
709.90 0.2639
710.00 0.2638
710.10 0.2637
710.20 0.2635
710.30 0.2634
710.40 0.2632
710.50 0.2631
710.60 0.2629
710.70 0.2628
710.80 0.2627
710.90 0.2625
711.00 0.2624
711.10 0.2622
711.20 0.2621
711.30 0.262
711.40 0.2618
711.50 0.2617
711.60 0.2615
711.70 0.2614
711.80 0.2613
711.90 0.2611
712.00 0.261
712.10 0.2608
712.20 0.2607
712.30 0.2606
712.40 0.2604
712.50 0.2603
712.60 0.2601
712.70 0.26
712.80 0.2599
712.90 0.2597
713.00 0.2596
713.10 0.2594
713.20 0.2593
713.30 0.2592
713.40 0.259
713.50 0.2589
713.60 0.2587
713.70 0.2586
713.80 0.2585
713.90 0.2583
714.00 0.2582
714.10 0.258
714.20 0.2579
714.30 0.2578
714.40 0.2576
714.50 0.2575
714.60 0.2573
714.70 0.2572
714.80 0.2571
714.90 0.2569
715.00 0.2568
715.10 0.2567
715.20 0.2565
715.30 0.2564
715.40 0.2562
715.50 0.2561
715.60 0.256
715.70 0.2558
715.80 0.2557
715.90 0.2556
716.00 0.2554
716.10 0.2553
716.20 0.2552
716.30 0.255
716.40 0.2549
716.50 0.2547
716.60 0.2546
716.70 0.2545
716.80 0.2543
716.90 0.2542
717.00 0.2541
717.10 0.2539
717.20 0.2538
717.30 0.2537
717.40 0.2535
717.50 0.2534
717.60 0.2532
717.70 0.2531
717.80 0.253
717.90 0.2528
718.00 0.2527
718.10 0.2526
718.20 0.2524
718.30 0.2523
718.40 0.2522
718.50 0.252
718.60 0.2519
718.70 0.2518
718.80 0.2516
718.90 0.2515
719.00 0.2514
719.10 0.2512
719.20 0.2511
719.30 0.251
719.40 0.2508
719.50 0.2507
719.60 0.2506
719.70 0.2504
719.80 0.2503
719.90 0.2502
720.00 0.25
720.10 0.2499
720.20 0.2498
720.30 0.2496
720.40 0.2495
720.50 0.2494
720.60 0.2492
720.70 0.2491
720.80 0.249
720.90 0.2488
721.00 0.2487
721.10 0.2486
721.20 0.2484
721.30 0.2483
721.40 0.2482
721.50 0.248
721.60 0.2479
721.70 0.2478
721.80 0.2476
721.90 0.2475
722.00 0.2474
722.10 0.2472
722.20 0.2471
722.30 0.247
722.40 0.2469
722.50 0.2467
722.60 0.2466
722.70 0.2465
722.80 0.2463
722.90 0.2462
723.00 0.2461
723.10 0.2459
723.20 0.2458
723.30 0.2457
723.40 0.2455
723.50 0.2454
723.60 0.2453
723.70 0.2452
723.80 0.245
723.90 0.2449
724.00 0.2448
724.10 0.2446
724.20 0.2445
724.30 0.2444
724.40 0.2442
724.50 0.2441
724.60 0.244
724.70 0.2439
724.80 0.2437
724.90 0.2436
725.00 0.2435
725.10 0.2433
725.20 0.2432
725.30 0.2431
725.40 0.243
725.50 0.2428
725.60 0.2427
725.70 0.2426
725.80 0.2424
725.90 0.2423
726.00 0.2422
726.10 0.2421
726.20 0.2419
726.30 0.2418
726.40 0.2417
726.50 0.2416
726.60 0.2414
726.70 0.2413
726.80 0.2412
726.90 0.241
727.00 0.2409
727.10 0.2408
727.20 0.2407
727.30 0.2405
727.40 0.2404
727.50 0.2403
727.60 0.2402
727.70 0.24
727.80 0.2399
727.90 0.2398
728.00 0.2396
728.10 0.2395
728.20 0.2394
728.30 0.2393
728.40 0.2391
728.50 0.239
728.60 0.2389
728.70 0.2388
728.80 0.2386
728.90 0.2385
729.00 0.2384
729.10 0.2383
729.20 0.2381
729.30 0.238
729.40 0.2379
729.50 0.2378
729.60 0.2376
729.70 0.2375
729.80 0.2374
729.90 0.2373
730.00 0.2371
730.10 0.237
730.20 0.2369
730.30 0.2368
730.40 0.2366
730.50 0.2365
730.60 0.2364
730.70 0.2363
730.80 0.2361
730.90 0.236
731.00 0.2359
731.10 0.2358
731.20 0.2357
731.30 0.2355
731.40 0.2354
731.50 0.2353
731.60 0.2352
731.70 0.235
731.80 0.2349
731.90 0.2348
732.00 0.2347
732.10 0.2345
732.20 0.2344
732.30 0.2343
732.40 0.2342
732.50 0.2341
732.60 0.2339
732.70 0.2338
732.80 0.2337
732.90 0.2336
733.00 0.2335
733.10 0.2333
733.20 0.2332
733.30 0.2331
733.40 0.233
733.50 0.2328
733.60 0.2327
733.70 0.2326
733.80 0.2325
733.90 0.2324
734.00 0.2322
734.10 0.2321
734.20 0.232
734.30 0.2319
734.40 0.2318
734.50 0.2316
734.60 0.2315
734.70 0.2314
734.80 0.2313
734.90 0.2311
735.00 0.231
735.10 0.2309
735.20 0.2308
735.30 0.2307
735.40 0.2305
735.50 0.2304
735.60 0.2303
735.70 0.2302
735.80 0.2301
735.90 0.2299
736.00 0.2298
736.10 0.2297
736.20 0.2296
736.30 0.2295
736.40 0.2293
736.50 0.2292
736.60 0.2291
736.70 0.229
736.80 0.2289
736.90 0.2287
737.00 0.2286
737.10 0.2285
737.20 0.2284
737.30 0.2283
737.40 0.2281
737.50 0.228
737.60 0.2279
737.70 0.2278
737.80 0.2277
737.90 0.2276
738.00 0.2274
738.10 0.2273
738.20 0.2272
738.30 0.2271
738.40 0.227
738.50 0.2268
738.60 0.2267
738.70 0.2266
738.80 0.2265
738.90 0.2264
739.00 0.2262
739.10 0.2261
739.20 0.226
739.30 0.2259
739.40 0.2258
739.50 0.2257
739.60 0.2255
739.70 0.2254
739.80 0.2253
739.90 0.2252
740.00 0.2251
740.10 0.2249
740.20 0.2248
740.30 0.2247
740.40 0.2246
740.50 0.2245
740.60 0.2244
740.70 0.2243
740.80 0.2241
740.90 0.224
741.00 0.2239
741.10 0.2238
741.20 0.2237
741.30 0.2236
741.40 0.2234
741.50 0.2233
741.60 0.2232
741.70 0.2231
741.80 0.223
741.90 0.2229
742.00 0.2228
742.10 0.2226
742.20 0.2225
742.30 0.2224
742.40 0.2223
742.50 0.2222
742.60 0.2221
742.70 0.222
742.80 0.2218
742.90 0.2217
743.00 0.2216
743.10 0.2215
743.20 0.2214
743.30 0.2213
743.40 0.2212
743.50 0.221
743.60 0.2209
743.70 0.2208
743.80 0.2207
743.90 0.2206
744.00 0.2205
744.10 0.2204
744.20 0.2202
744.30 0.2201
744.40 0.22
744.50 0.2199
744.60 0.2198
744.70 0.2197
744.80 0.2196
744.90 0.2195
745.00 0.2193
745.10 0.2192
745.20 0.2191
745.30 0.219
745.40 0.2189
745.50 0.2188
745.60 0.2187
745.70 0.2186
745.80 0.2184
745.90 0.2183
746.00 0.2182
746.10 0.2181
746.20 0.218
746.30 0.2179
746.40 0.2178
746.50 0.2177
746.60 0.2175
746.70 0.2174
746.80 0.2173
746.90 0.2172
747.00 0.2171
747.10 0.217
747.20 0.2169
747.30 0.2168
747.40 0.2166
747.50 0.2165
747.60 0.2164
747.70 0.2163
747.80 0.2162
747.90 0.2161
748.00 0.216
748.10 0.2159
748.20 0.2157
748.30 0.2156
748.40 0.2155
748.50 0.2154
748.60 0.2153
748.70 0.2152
748.80 0.2151
748.90 0.215
749.00 0.2149
749.10 0.2147
749.20 0.2146
749.30 0.2145
749.40 0.2144
749.50 0.2143
749.60 0.2142
749.70 0.2141
749.80 0.214
749.90 0.2139
750.00 0.2138
750.10 0.2136
750.20 0.2135
750.30 0.2134
750.40 0.2133
750.50 0.2132
750.60 0.2131
750.70 0.213
750.80 0.2129
750.90 0.2128
751.00 0.2127
751.10 0.2126
751.20 0.2125
751.30 0.2123
751.40 0.2122
751.50 0.2121
751.60 0.212
751.70 0.2119
751.80 0.2118
751.90 0.2117
752.00 0.2116
752.10 0.2115
752.20 0.2114
752.30 0.2113
752.40 0.2112
752.50 0.2111
752.60 0.2109
752.70 0.2108
752.80 0.2107
752.90 0.2106
753.00 0.2105
753.10 0.2104
753.20 0.2103
753.30 0.2102
753.40 0.2101
753.50 0.21
753.60 0.2099
753.70 0.2098
753.80 0.2097
753.90 0.2096
754.00 0.2095
754.10 0.2093
754.20 0.2092
754.30 0.2091
754.40 0.209
754.50 0.2089
754.60 0.2088
754.70 0.2087
754.80 0.2086
754.90 0.2085
755.00 0.2084
755.10 0.2083
755.20 0.2082
755.30 0.2081
755.40 0.208
755.50 0.2079
755.60 0.2078
755.70 0.2076
755.80 0.2075
755.90 0.2074
756.00 0.2073
756.10 0.2072
756.20 0.2071
756.30 0.207
756.40 0.2069
756.50 0.2068
756.60 0.2067
756.70 0.2066
756.80 0.2065
756.90 0.2064
757.00 0.2063
757.10 0.2062
757.20 0.2061
757.30 0.206
757.40 0.2059
757.50 0.2058
757.60 0.2056
757.70 0.2055
757.80 0.2054
757.90 0.2053
758.00 0.2052
758.10 0.2051
758.20 0.205
758.30 0.2049
758.40 0.2048
758.50 0.2047
758.60 0.2046
758.70 0.2045
758.80 0.2044
758.90 0.2043
759.00 0.2042
759.10 0.2041
759.20 0.204
759.30 0.2039
759.40 0.2038
759.50 0.2037
759.60 0.2036
759.70 0.2035
759.80 0.2034
759.90 0.2032
760.00 0.2031
760.10 0.203
760.20 0.2029
760.30 0.2028
760.40 0.2027
760.50 0.2026
760.60 0.2025
760.70 0.2024
760.80 0.2023
760.90 0.2022
761.00 0.2021
761.10 0.202
761.20 0.2019
761.30 0.2018
761.40 0.2017
761.50 0.2016
761.60 0.2015
761.70 0.2014
761.80 0.2013
761.90 0.2012
762.00 0.2011
762.10 0.201
762.20 0.2009
762.30 0.2008
762.40 0.2007
762.50 0.2006
762.60 0.2005
762.70 0.2004
762.80 0.2003
762.90 0.2002
763.00 0.2001
763.10 0.2
763.20 0.1999
763.30 0.1998
763.40 0.1997
763.50 0.1996
763.60 0.1995
763.70 0.1994
763.80 0.1993
763.90 0.1992
764.00 0.1991
764.10 0.199
764.20 0.1989
764.30 0.1988
764.40 0.1987
764.50 0.1986
764.60 0.1985
764.70 0.1984
764.80 0.1983
764.90 0.1982
765.00 0.1981
765.10 0.198
765.20 0.1979
765.30 0.1978
765.40 0.1977
765.50 0.1976
765.60 0.1975
765.70 0.1974
765.80 0.1973
765.90 0.1972
766.00 0.1971
766.10 0.197
766.20 0.1969
766.30 0.1968
766.40 0.1967
766.50 0.1966
766.60 0.1965
766.70 0.1964
766.80 0.1963
766.90 0.1962
767.00 0.1961
767.10 0.196
767.20 0.1959
767.30 0.1958
767.40 0.1957
767.50 0.1956
767.60 0.1955
767.70 0.1954
767.80 0.1953
767.90 0.1952
768.00 0.1951
768.10 0.195
768.20 0.1949
768.30 0.1948
768.40 0.1947
768.50 0.1947
768.60 0.1946
768.70 0.1945
768.80 0.1944
768.90 0.1943
769.00 0.1942
769.10 0.1941
769.20 0.194
769.30 0.1939
769.40 0.1938
769.50 0.1937
769.60 0.1936
769.70 0.1935
769.80 0.1934
769.90 0.1933
770.00 0.1932
770.10 0.1931
770.20 0.193
770.30 0.1929
770.40 0.1928
770.50 0.1927
770.60 0.1926
770.70 0.1925
770.80 0.1924
770.90 0.1923
771.00 0.1922
771.10 0.1921
771.20 0.192
771.30 0.1919
771.40 0.1919
771.50 0.1918
771.60 0.1917
771.70 0.1916
771.80 0.1915
771.90 0.1914
772.00 0.1913
772.10 0.1912
772.20 0.1911
772.30 0.191
772.40 0.1909
772.50 0.1908
772.60 0.1907
772.70 0.1906
772.80 0.1905
772.90 0.1904
773.00 0.1903
773.10 0.1902
773.20 0.1901
773.30 0.1901
773.40 0.19
773.50 0.1899
773.60 0.1898
773.70 0.1897
773.80 0.1896
773.90 0.1895
774.00 0.1894
774.10 0.1893
774.20 0.1892
774.30 0.1891
774.40 0.189
774.50 0.1889
774.60 0.1888
774.70 0.1887
774.80 0.1886
774.90 0.1885
775.00 0.1885
775.10 0.1884
775.20 0.1883
775.30 0.1882
775.40 0.1881
775.50 0.188
775.60 0.1879
775.70 0.1878
775.80 0.1877
775.90 0.1876
776.00 0.1875
776.10 0.1874
776.20 0.1873
776.30 0.1872
776.40 0.1872
776.50 0.1871
776.60 0.187
776.70 0.1869
776.80 0.1868
776.90 0.1867
777.00 0.1866
777.10 0.1865
777.20 0.1864
777.30 0.1863
777.40 0.1862
777.50 0.1861
777.60 0.186
777.70 0.1859
777.80 0.1859
777.90 0.1858
778.00 0.1857
778.10 0.1856
778.20 0.1855
778.30 0.1854
778.40 0.1853
778.50 0.1852
778.60 0.1851
778.70 0.185
778.80 0.1849
778.90 0.1848
779.00 0.1847
779.10 0.1847
779.20 0.1846
779.30 0.1845
779.40 0.1844
779.50 0.1843
779.60 0.1842
779.70 0.1841
779.80 0.184
779.90 0.1839
780.00 0.1838
780.10 0.1837
780.20 0.1837
780.30 0.1836
780.40 0.1835
780.50 0.1834
780.60 0.1833
780.70 0.1832
780.80 0.1831
780.90 0.183
781.00 0.1829
781.10 0.1828
781.20 0.1828
781.30 0.1827
781.40 0.1826
781.50 0.1825
781.60 0.1824
781.70 0.1823
781.80 0.1822
781.90 0.1821
782.00 0.182
782.10 0.182
782.20 0.1819
782.30 0.1818
782.40 0.1817
782.50 0.1816
782.60 0.1815
782.70 0.1814
782.80 0.1813
782.90 0.1812
783.00 0.1812
783.10 0.1811
783.20 0.181
783.30 0.1809
783.40 0.1808
783.50 0.1807
783.60 0.1806
783.70 0.1805
783.80 0.1804
783.90 0.1804
784.00 0.1803
784.10 0.1802
784.20 0.1801
784.30 0.18
784.40 0.1799
784.50 0.1798
784.60 0.1797
784.70 0.1796
784.80 0.1796
784.90 0.1795
785.00 0.1794
785.10 0.1793
785.20 0.1792
785.30 0.1791
785.40 0.179
785.50 0.1789
785.60 0.1789
785.70 0.1788
785.80 0.1787
785.90 0.1786
786.00 0.1785
786.10 0.1784
786.20 0.1783
786.30 0.1782
786.40 0.1782
786.50 0.1781
786.60 0.178
786.70 0.1779
786.80 0.1778
786.90 0.1777
787.00 0.1776
787.10 0.1775
787.20 0.1775
787.30 0.1774
787.40 0.1773
787.50 0.1772
787.60 0.1771
787.70 0.177
787.80 0.1769
787.90 0.1769
788.00 0.1768
788.10 0.1767
788.20 0.1766
788.30 0.1765
788.40 0.1764
788.50 0.1763
788.60 0.1762
788.70 0.1762
788.80 0.1761
788.90 0.176
789.00 0.1759
789.10 0.1758
789.20 0.1757
789.30 0.1756
789.40 0.1756
789.50 0.1755
789.60 0.1754
789.70 0.1753
789.80 0.1752
789.90 0.1751
790.00 0.175
790.10 0.175
790.20 0.1749
790.30 0.1748
790.40 0.1747
790.50 0.1746
790.60 0.1745
790.70 0.1744
790.80 0.1744
790.90 0.1743
791.00 0.1742
791.10 0.1741
791.20 0.174
791.30 0.1739
791.40 0.1739
791.50 0.1738
791.60 0.1737
791.70 0.1736
791.80 0.1735
791.90 0.1734
792.00 0.1734
792.10 0.1733
792.20 0.1732
792.30 0.1731
792.40 0.173
792.50 0.1729
792.60 0.1728
792.70 0.1728
792.80 0.1727
792.90 0.1726
793.00 0.1725
793.10 0.1724
793.20 0.1723
793.30 0.1723
793.40 0.1722
793.50 0.1721
793.60 0.172
793.70 0.1719
793.80 0.1718
793.90 0.1718
794.00 0.1717
794.10 0.1716
794.20 0.1715
794.30 0.1714
794.40 0.1713
794.50 0.1713
794.60 0.1712
794.70 0.1711
794.80 0.171
794.90 0.1709
795.00 0.1709
795.10 0.1708
795.20 0.1707
795.30 0.1706
795.40 0.1705
795.50 0.1704
795.60 0.1704
795.70 0.1703
795.80 0.1702
795.90 0.1701
796.00 0.17
796.10 0.1699
796.20 0.1699
796.30 0.1698
796.40 0.1697
796.50 0.1696
796.60 0.1695
796.70 0.1695
796.80 0.1694
796.90 0.1693
797.00 0.1692
797.10 0.1691
797.20 0.169
797.30 0.169
797.40 0.1689
797.50 0.1688
797.60 0.1687
797.70 0.1686
797.80 0.1685
797.90 0.1685
798.00 0.1684
798.10 0.1683
798.20 0.1682
798.30 0.1681
798.40 0.1681
798.50 0.168
798.60 0.1679
798.70 0.1678
798.80 0.1677
798.90 0.1677
799.00 0.1676
799.10 0.1675
799.20 0.1674
799.30 0.1673
799.40 0.1672
799.50 0.1672
799.60 0.1671
799.70 0.167
799.80 0.1669
799.90 0.1668
800.00 0.1668
800.10 0.1667
800.20 0.1666
800.30 0.1665
800.40 0.1664
800.50 0.1664
800.60 0.1663
800.70 0.1662
800.80 0.1661
800.90 0.166
801.00 0.166
801.10 0.1659
801.20 0.1658
801.30 0.1657
801.40 0.1656
801.50 0.1656
801.60 0.1655
801.70 0.1654
801.80 0.1653
801.90 0.1653
802.00 0.1652
802.10 0.1651
802.20 0.165
802.30 0.1649
802.40 0.1649
802.50 0.1648
802.60 0.1647
802.70 0.1646
802.80 0.1645
802.90 0.1645
803.00 0.1644
803.10 0.1643
803.20 0.1642
803.30 0.1642
803.40 0.1641
803.50 0.164
803.60 0.1639
803.70 0.1638
803.80 0.1638
803.90 0.1637
804.00 0.1636
804.10 0.1635
804.20 0.1634
804.30 0.1634
804.40 0.1633
804.50 0.1632
804.60 0.1631
804.70 0.1631
804.80 0.163
804.90 0.1629
805.00 0.1628
805.10 0.1627
805.20 0.1627
805.30 0.1626
805.40 0.1625
805.50 0.1624
805.60 0.1624
805.70 0.1623
805.80 0.1622
805.90 0.1621
806.00 0.162
806.10 0.162
806.20 0.1619
806.30 0.1618
806.40 0.1617
806.50 0.1617
806.60 0.1616
806.70 0.1615
806.80 0.1614
806.90 0.1613
807.00 0.1613
807.10 0.1612
807.20 0.1611
807.30 0.161
807.40 0.161
807.50 0.1609
807.60 0.1608
807.70 0.1607
807.80 0.1607
807.90 0.1606
808.00 0.1605
808.10 0.1604
808.20 0.1603
808.30 0.1603
808.40 0.1602
808.50 0.1601
808.60 0.16
808.70 0.16
808.80 0.1599
808.90 0.1598
809.00 0.1597
809.10 0.1597
809.20 0.1596
809.30 0.1595
809.40 0.1594
809.50 0.1594
809.60 0.1593
809.70 0.1592
809.80 0.1591
809.90 0.159
810.00 0.159
810.10 0.1589
810.20 0.1588
810.30 0.1587
810.40 0.1587
810.50 0.1586
810.60 0.1585
810.70 0.1584
810.80 0.1584
810.90 0.1583
811.00 0.1582
811.10 0.1581
811.20 0.1581
811.30 0.158
811.40 0.1579
811.50 0.1578
811.60 0.1578
811.70 0.1577
811.80 0.1576
811.90 0.1575
812.00 0.1575
812.10 0.1574
812.20 0.1573
812.30 0.1573
812.40 0.1572
812.50 0.1571
812.60 0.157
812.70 0.157
812.80 0.1569
812.90 0.1568
813.00 0.1567
813.10 0.1567
813.20 0.1566
813.30 0.1565
813.40 0.1564
813.50 0.1564
813.60 0.1563
813.70 0.1562
813.80 0.1561
813.90 0.1561
814.00 0.156
814.10 0.1559
814.20 0.1558
814.30 0.1558
814.40 0.1557
814.50 0.1556
814.60 0.1556
814.70 0.1555
814.80 0.1554
814.90 0.1553
815.00 0.1553
815.10 0.1552
815.20 0.1551
815.30 0.155
815.40 0.155
815.50 0.1549
815.60 0.1548
815.70 0.1547
815.80 0.1547
815.90 0.1546
816.00 0.1545
816.10 0.1545
816.20 0.1544
816.30 0.1543
816.40 0.1542
816.50 0.1542
816.60 0.1541
816.70 0.154
816.80 0.1539
816.90 0.1539
817.00 0.1538
817.10 0.1537
817.20 0.1537
817.30 0.1536
817.40 0.1535
817.50 0.1534
817.60 0.1534
817.70 0.1533
817.80 0.1532
817.90 0.1531
818.00 0.1531
818.10 0.153
818.20 0.1529
818.30 0.1529
818.40 0.1528
818.50 0.1527
818.60 0.1526
818.70 0.1526
818.80 0.1525
818.90 0.1524
819.00 0.1523
819.10 0.1523
819.20 0.1522
819.30 0.1521
819.40 0.1521
819.50 0.152
819.60 0.1519
819.70 0.1518
819.80 0.1518
819.90 0.1517
820.00 0.1516
820.10 0.1516
820.20 0.1515
820.30 0.1514
820.40 0.1513
820.50 0.1513
820.60 0.1512
820.70 0.1511
820.80 0.1511
820.90 0.151
821.00 0.1509
821.10 0.1508
821.20 0.1508
821.30 0.1507
821.40 0.1506
821.50 0.1506
821.60 0.1505
821.70 0.1504
821.80 0.1504
821.90 0.1503
822.00 0.1502
822.10 0.1501
822.20 0.1501
822.30 0.15
822.40 0.1499
822.50 0.1499
822.60 0.1498
822.70 0.1497
822.80 0.1496
822.90 0.1496
823.00 0.1495
823.10 0.1494
823.20 0.1494
823.30 0.1493
823.40 0.1492
823.50 0.1492
823.60 0.1491
823.70 0.149
823.80 0.149
823.90 0.1489
824.00 0.1488
824.10 0.1487
824.20 0.1487
824.30 0.1486
824.40 0.1485
824.50 0.1485
824.60 0.1484
824.70 0.1483
824.80 0.1483
824.90 0.1482
825.00 0.1481
825.10 0.148
825.20 0.148
825.30 0.1479
825.40 0.1478
825.50 0.1478
825.60 0.1477
825.70 0.1476
825.80 0.1476
825.90 0.1475
826.00 0.1474
826.10 0.1474
826.20 0.1473
826.30 0.1472
826.40 0.1472
826.50 0.1471
826.60 0.147
826.70 0.1469
826.80 0.1469
826.90 0.1468
827.00 0.1467
827.10 0.1467
827.20 0.1466
827.30 0.1465
827.40 0.1465
827.50 0.1464
827.60 0.1463
827.70 0.1463
827.80 0.1462
827.90 0.1461
828.00 0.1461
828.10 0.146
828.20 0.1459
828.30 0.1459
828.40 0.1458
828.50 0.1457
828.60 0.1457
828.70 0.1456
828.80 0.1455
828.90 0.1454
829.00 0.1454
829.10 0.1453
829.20 0.1452
829.30 0.1452
829.40 0.1451
829.50 0.145
829.60 0.145
829.70 0.1449
829.80 0.1448
829.90 0.1448
830.00 0.1447
830.10 0.1446
830.20 0.1446
830.30 0.1445
830.40 0.1444
830.50 0.1444
830.60 0.1443
830.70 0.1442
830.80 0.1442
830.90 0.1441
831.00 0.144
831.10 0.144
831.20 0.1439
831.30 0.1438
831.40 0.1438
831.50 0.1437
831.60 0.1436
831.70 0.1436
831.80 0.1435
831.90 0.1434
832.00 0.1434
832.10 0.1433
832.20 0.1432
832.30 0.1432
832.40 0.1431
832.50 0.143
832.60 0.143
832.70 0.1429
832.80 0.1428
832.90 0.1428
833.00 0.1427
833.10 0.1426
833.20 0.1426
833.30 0.1425
833.40 0.1424
833.50 0.1424
833.60 0.1423
833.70 0.1422
833.80 0.1422
833.90 0.1421
834.00 0.142
834.10 0.142
834.20 0.1419
834.30 0.1418
834.40 0.1418
834.50 0.1417
834.60 0.1416
834.70 0.1416
834.80 0.1415
834.90 0.1414
835.00 0.1414
835.10 0.1413
835.20 0.1412
835.30 0.1412
835.40 0.1411
835.50 0.141
835.60 0.141
835.70 0.1409
835.80 0.1408
835.90 0.1408
836.00 0.1407
836.10 0.1406
836.20 0.1406
836.30 0.1405
836.40 0.1404
836.50 0.1404
836.60 0.1403
836.70 0.1403
836.80 0.1402
836.90 0.1401
837.00 0.1401
837.10 0.14
837.20 0.1399
837.30 0.1399
837.40 0.1398
837.50 0.1397
837.60 0.1397
837.70 0.1396
837.80 0.1395
837.90 0.1395
838.00 0.1394
838.10 0.1393
838.20 0.1393
838.30 0.1392
838.40 0.1392
838.50 0.1391
838.60 0.139
838.70 0.139
838.80 0.1389
838.90 0.1388
839.00 0.1388
839.10 0.1387
839.20 0.1386
839.30 0.1386
839.40 0.1385
839.50 0.1384
839.60 0.1384
839.70 0.1383
839.80 0.1383
839.90 0.1382
840.00 0.1381
840.10 0.1381
840.20 0.138
840.30 0.1379
840.40 0.1379
840.50 0.1378
840.60 0.1377
840.70 0.1377
840.80 0.1376
840.90 0.1376
841.00 0.1375
841.10 0.1374
841.20 0.1374
841.30 0.1373
841.40 0.1372
841.50 0.1372
841.60 0.1371
841.70 0.137
841.80 0.137
841.90 0.1369
842.00 0.1369
842.10 0.1368
842.20 0.1367
842.30 0.1367
842.40 0.1366
842.50 0.1365
842.60 0.1365
842.70 0.1364
842.80 0.1364
842.90 0.1363
843.00 0.1362
843.10 0.1362
843.20 0.1361
843.30 0.136
843.40 0.136
843.50 0.1359
843.60 0.1359
843.70 0.1358
843.80 0.1357
843.90 0.1357
844.00 0.1356
844.10 0.1355
844.20 0.1355
844.30 0.1354
844.40 0.1354
844.50 0.1353
844.60 0.1352
844.70 0.1352
844.80 0.1351
844.90 0.135
845.00 0.135
845.10 0.1349
845.20 0.1349
845.30 0.1348
845.40 0.1347
845.50 0.1347
845.60 0.1346
845.70 0.1345
845.80 0.1345
845.90 0.1344
846.00 0.1344
846.10 0.1343
846.20 0.1342
846.30 0.1342
846.40 0.1341
846.50 0.134
846.60 0.134
846.70 0.1339
846.80 0.1339
846.90 0.1338
847.00 0.1337
847.10 0.1337
847.20 0.1336
847.30 0.1336
847.40 0.1335
847.50 0.1334
847.60 0.1334
847.70 0.1333
847.80 0.1333
847.90 0.1332
848.00 0.1331
848.10 0.1331
848.20 0.133
848.30 0.1329
848.40 0.1329
848.50 0.1328
848.60 0.1328
848.70 0.1327
848.80 0.1326
848.90 0.1326
849.00 0.1325
849.10 0.1325
849.20 0.1324
849.30 0.1323
849.40 0.1323
849.50 0.1322
849.60 0.1322
849.70 0.1321
849.80 0.132
849.90 0.132
850.00 0.1319
850.10 0.1319
850.20 0.1318
850.30 0.1317
850.40 0.1317
850.50 0.1316
850.60 0.1316
850.70 0.1315
850.80 0.1314
850.90 0.1314
851.00 0.1313
851.10 0.1313
851.20 0.1312
851.30 0.1311
851.40 0.1311
851.50 0.131
851.60 0.131
851.70 0.1309
851.80 0.1308
851.90 0.1308
852.00 0.1307
852.10 0.1307
852.20 0.1306
852.30 0.1305
852.40 0.1305
852.50 0.1304
852.60 0.1304
852.70 0.1303
852.80 0.1302
852.90 0.1302
853.00 0.1301
853.10 0.1301
853.20 0.13
853.30 0.1299
853.40 0.1299
853.50 0.1298
853.60 0.1298
853.70 0.1297
853.80 0.1297
853.90 0.1296
854.00 0.1295
854.10 0.1295
854.20 0.1294
854.30 0.1294
854.40 0.1293
854.50 0.1292
854.60 0.1292
854.70 0.1291
854.80 0.1291
854.90 0.129
855.00 0.129
855.10 0.1289
855.20 0.1288
855.30 0.1288
855.40 0.1287
855.50 0.1287
855.60 0.1286
855.70 0.1285
855.80 0.1285
855.90 0.1284
856.00 0.1284
856.10 0.1283
856.20 0.1282
856.30 0.1282
856.40 0.1281
856.50 0.1281
856.60 0.128
856.70 0.128
856.80 0.1279
856.90 0.1278
857.00 0.1278
857.10 0.1277
857.20 0.1277
857.30 0.1276
857.40 0.1276
857.50 0.1275
857.60 0.1274
857.70 0.1274
857.80 0.1273
857.90 0.1273
858.00 0.1272
858.10 0.1272
858.20 0.1271
858.30 0.127
858.40 0.127
858.50 0.1269
858.60 0.1269
858.70 0.1268
858.80 0.1268
858.90 0.1267
859.00 0.1266
859.10 0.1266
859.20 0.1265
859.30 0.1265
859.40 0.1264
859.50 0.1264
859.60 0.1263
859.70 0.1262
859.80 0.1262
859.90 0.1261
860.00 0.1261
860.10 0.126
860.20 0.126
860.30 0.1259
860.40 0.1258
860.50 0.1258
860.60 0.1257
860.70 0.1257
860.80 0.1256
860.90 0.1256
861.00 0.1255
861.10 0.1255
861.20 0.1254
861.30 0.1253
861.40 0.1253
861.50 0.1252
861.60 0.1252
861.70 0.1251
861.80 0.1251
861.90 0.125
862.00 0.1249
862.10 0.1249
862.20 0.1248
862.30 0.1248
862.40 0.1247
862.50 0.1247
862.60 0.1246
862.70 0.1246
862.80 0.1245
862.90 0.1244
863.00 0.1244
863.10 0.1243
863.20 0.1243
863.30 0.1242
863.40 0.1242
863.50 0.1241
863.60 0.1241
863.70 0.124
863.80 0.1239
863.90 0.1239
864.00 0.1238
864.10 0.1238
864.20 0.1237
864.30 0.1237
864.40 0.1236
864.50 0.1236
864.60 0.1235
864.70 0.1235
864.80 0.1234
864.90 0.1233
865.00 0.1233
865.10 0.1232
865.20 0.1232
865.30 0.1231
865.40 0.1231
865.50 0.123
865.60 0.123
865.70 0.1229
865.80 0.1228
865.90 0.1228
866.00 0.1227
866.10 0.1227
866.20 0.1226
866.30 0.1226
866.40 0.1225
866.50 0.1225
866.60 0.1224
866.70 0.1224
866.80 0.1223
866.90 0.1222
867.00 0.1222
867.10 0.1221
867.20 0.1221
867.30 0.122
867.40 0.122
867.50 0.1219
867.60 0.1219
867.70 0.1218
867.80 0.1218
867.90 0.1217
868.00 0.1217
868.10 0.1216
868.20 0.1215
868.30 0.1215
868.40 0.1214
868.50 0.1214
868.60 0.1213
868.70 0.1213
868.80 0.1212
868.90 0.1212
869.00 0.1211
869.10 0.1211
869.20 0.121
869.30 0.121
869.40 0.1209
869.50 0.1209
869.60 0.1208
869.70 0.1207
869.80 0.1207
869.90 0.1206
870.00 0.1206
870.10 0.1205
870.20 0.1205
870.30 0.1204
870.40 0.1204
870.50 0.1203
870.60 0.1203
870.70 0.1202
870.80 0.1202
870.90 0.1201
871.00 0.1201
871.10 0.12
871.20 0.1199
871.30 0.1199
871.40 0.1198
871.50 0.1198
871.60 0.1197
871.70 0.1197
871.80 0.1196
871.90 0.1196
872.00 0.1195
872.10 0.1195
872.20 0.1194
872.30 0.1194
872.40 0.1193
872.50 0.1193
872.60 0.1192
872.70 0.1192
872.80 0.1191
872.90 0.1191
873.00 0.119
873.10 0.1189
873.20 0.1189
873.30 0.1188
873.40 0.1188
873.50 0.1187
873.60 0.1187
873.70 0.1186
873.80 0.1186
873.90 0.1185
874.00 0.1185
874.10 0.1184
874.20 0.1184
874.30 0.1183
874.40 0.1183
874.50 0.1182
874.60 0.1182
874.70 0.1181
874.80 0.1181
874.90 0.118
875.00 0.118
875.10 0.1179
875.20 0.1179
875.30 0.1178
875.40 0.1178
875.50 0.1177
875.60 0.1177
875.70 0.1176
875.80 0.1176
875.90 0.1175
876.00 0.1175
876.10 0.1174
876.20 0.1173
876.30 0.1173
876.40 0.1172
876.50 0.1172
876.60 0.1171
876.70 0.1171
876.80 0.117
876.90 0.117
877.00 0.1169
877.10 0.1169
877.20 0.1168
877.30 0.1168
877.40 0.1167
877.50 0.1167
877.60 0.1166
877.70 0.1166
877.80 0.1165
877.90 0.1165
878.00 0.1164
878.10 0.1164
878.20 0.1163
878.30 0.1163
878.40 0.1162
878.50 0.1162
878.60 0.1161
878.70 0.1161
878.80 0.116
878.90 0.116
879.00 0.1159
879.10 0.1159
879.20 0.1158
879.30 0.1158
879.40 0.1157
879.50 0.1157
879.60 0.1156
879.70 0.1156
879.80 0.1155
879.90 0.1155
880.00 0.1154
880.10 0.1154
880.20 0.1153
880.30 0.1153
880.40 0.1152
880.50 0.1152
880.60 0.1151
880.70 0.1151
880.80 0.115
880.90 0.115
881.00 0.1149
881.10 0.1149
881.20 0.1148
881.30 0.1148
881.40 0.1147
881.50 0.1147
881.60 0.1146
881.70 0.1146
881.80 0.1145
881.90 0.1145
882.00 0.1144
882.10 0.1144
882.20 0.1143
882.30 0.1143
882.40 0.1142
882.50 0.1142
882.60 0.1141
882.70 0.1141
882.80 0.114
882.90 0.114
883.00 0.1139
883.10 0.1139
883.20 0.1138
883.30 0.1138
883.40 0.1137
883.50 0.1137
883.60 0.1136
883.70 0.1136
883.80 0.1135
883.90 0.1135
884.00 0.1134
884.10 0.1134
884.20 0.1133
884.30 0.1133
884.40 0.1132
884.50 0.1132
884.60 0.1131
884.70 0.1131
884.80 0.1131
884.90 0.113
885.00 0.113
885.10 0.1129
885.20 0.1129
885.30 0.1128
885.40 0.1128
885.50 0.1127
885.60 0.1127
885.70 0.1126
885.80 0.1126
885.90 0.1125
886.00 0.1125
886.10 0.1124
886.20 0.1124
886.30 0.1123
886.40 0.1123
886.50 0.1122
886.60 0.1122
886.70 0.1121
886.80 0.1121
886.90 0.112
887.00 0.112
887.10 0.1119
887.20 0.1119
887.30 0.1118
887.40 0.1118
887.50 0.1117
887.60 0.1117
887.70 0.1117
887.80 0.1116
887.90 0.1116
888.00 0.1115
888.10 0.1115
888.20 0.1114
888.30 0.1114
888.40 0.1113
888.50 0.1113
888.60 0.1112
888.70 0.1112
888.80 0.1111
888.90 0.1111
889.00 0.111
889.10 0.111
889.20 0.1109
889.30 0.1109
889.40 0.1109
889.50 0.1108
889.60 0.1108
889.70 0.1107
889.80 0.1107
889.90 0.1106
890.00 0.1106
890.10 0.1105
890.20 0.1105
890.30 0.1104
890.40 0.1104
890.50 0.1103
890.60 0.1103
890.70 0.1102
890.80 0.1102
890.90 0.1101
891.00 0.1101
891.10 0.1101
891.20 0.11
891.30 0.11
891.40 0.1099
891.50 0.1099
891.60 0.1098
891.70 0.1098
891.80 0.1097
891.90 0.1097
892.00 0.1096
892.10 0.1096
892.20 0.1095
892.30 0.1095
892.40 0.1094
892.50 0.1094
892.60 0.1093
892.70 0.1093
892.80 0.1093
892.90 0.1092
893.00 0.1092
893.10 0.1091
893.20 0.1091
893.30 0.109
893.40 0.109
893.50 0.1089
893.60 0.1089
893.70 0.1088
893.80 0.1088
893.90 0.1087
894.00 0.1087
894.10 0.1086
894.20 0.1086
894.30 0.1085
894.40 0.1085
894.50 0.1084
894.60 0.1084
894.70 0.1083
894.80 0.1083
894.90 0.1083
895.00 0.1082
895.10 0.1082
895.20 0.1081
895.30 0.1081
895.40 0.108
895.50 0.108
895.60 0.1079
895.70 0.1079
895.80 0.1078
895.90 0.1078
896.00 0.1077
896.10 0.1077
896.20 0.1076
896.30 0.1076
896.40 0.1075
896.50 0.1075
896.60 0.1074
896.70 0.1074
896.80 0.1074
896.90 0.1073
897.00 0.1073
897.10 0.1072
897.20 0.1072
897.30 0.1071
897.40 0.1071
897.50 0.107
897.60 0.107
897.70 0.1069
897.80 0.1069
897.90 0.1068
898.00 0.1068
898.10 0.1067
898.20 0.1067
898.30 0.1066
898.40 0.1066
898.50 0.1066
898.60 0.1065
898.70 0.1065
898.80 0.1064
898.90 0.1064
899.00 0.1063
899.10 0.1063
899.20 0.1062
899.30 0.1062
899.40 0.1061
899.50 0.1061
899.60 0.106
899.70 0.106
899.80 0.1059
899.90 0.1059
900.00 0.1059
900.10 0.1058
900.20 0.1058
900.30 0.1057
900.40 0.1057
900.50 0.1056
900.60 0.1056
900.70 0.1055
900.80 0.1055
900.90 0.1054
901.00 0.1054
901.10 0.1053
901.20 0.1053
901.30 0.1053
901.40 0.1052
901.50 0.1052
901.60 0.1051
901.70 0.1051
901.80 0.105
901.90 0.105
902.00 0.1049
902.10 0.1049
902.20 0.1048
902.30 0.1048
902.40 0.1048
902.50 0.1047
902.60 0.1047
902.70 0.1046
902.80 0.1046
902.90 0.1046
903.00 0.1045
903.10 0.1045
903.20 0.1044
903.30 0.1044
903.40 0.1044
903.50 0.1043
903.60 0.1043
903.70 0.1042
903.80 0.1042
903.90 0.1042
904.00 0.1041
904.10 0.1041
904.20 0.104
904.30 0.104
904.40 0.104
904.50 0.1039
904.60 0.1039
904.70 0.1038
904.80 0.1038
904.90 0.1038
905.00 0.1037
905.10 0.1037
905.20 0.1036
905.30 0.1036
905.40 0.1036
905.50 0.1035
905.60 0.1035
905.70 0.1034
905.80 0.1034
905.90 0.1034
906.00 0.1033
906.10 0.1033
906.20 0.1032
906.30 0.1032
906.40 0.1031
906.50 0.1031
906.60 0.1031
906.70 0.103
906.80 0.103
906.90 0.1029
907.00 0.1029
907.10 0.1029
907.20 0.1028
907.30 0.1028
907.40 0.1027
907.50 0.1027
907.60 0.1027
907.70 0.1026
907.80 0.1026
907.90 0.1025
908.00 0.1025
908.10 0.1024
908.20 0.1024
908.30 0.1024
908.40 0.1023
908.50 0.1023
908.60 0.1022
908.70 0.1022
908.80 0.1021
908.90 0.1021
909.00 0.1021
909.10 0.102
909.20 0.102
909.30 0.1019
909.40 0.1019
909.50 0.1018
909.60 0.1018
909.70 0.1018
909.80 0.1017
909.90 0.1017
910.00 0.1016
910.10 0.1016
910.20 0.1016
910.30 0.1015
910.40 0.1015
910.50 0.1014
910.60 0.1014
910.70 0.1013
910.80 0.1013
910.90 0.1013
911.00 0.1012
911.10 0.1012
911.20 0.1011
911.30 0.1011
911.40 0.1011
911.50 0.101
911.60 0.101
911.70 0.1009
911.80 0.1009
911.90 0.1008
912.00 0.1008
912.10 0.1008
912.20 0.1007
912.30 0.1007
912.40 0.1006
912.50 0.1006
912.60 0.1005
912.70 0.1005
912.80 0.1004
912.90 0.1004
913.00 0.1003
913.10 0.1003
913.20 0.1002
913.30 0.1002
913.40 0.1001
913.50 0.1001
913.60 0.1001
913.70 0.1
913.80 0.09996
913.90 0.09991
914.00 0.09987
914.10 0.09982
914.20 0.09978
914.30 0.09973
914.40 0.09968
914.50 0.09964
914.60 0.09959
914.70 0.09954
914.80 0.0995
914.90 0.09945
915.00 0.0994
915.10 0.09936
915.20 0.09931
915.30 0.09927
915.40 0.09922
915.50 0.09917
915.60 0.09913
915.70 0.09908
915.80 0.09904
915.90 0.09899
916.00 0.09894
916.10 0.0989
916.20 0.09885
916.30 0.0988
916.40 0.09876
916.50 0.09871
916.60 0.09867
916.70 0.09862
916.80 0.09857
916.90 0.09853
917.00 0.09848
917.10 0.09843
917.20 0.09839
917.30 0.09834
917.40 0.09829
917.50 0.09824
917.60 0.09819
917.70 0.09814
917.80 0.09809
917.90 0.09805
918.00 0.098
918.10 0.09795
918.20 0.0979
918.30 0.09785
918.40 0.0978
918.50 0.09775
918.60 0.09771
918.70 0.09766
918.80 0.09761
918.90 0.09756
919.00 0.09751
919.10 0.09746
919.20 0.09742
919.30 0.09737
919.40 0.09732
919.50 0.09727
919.60 0.09722
919.70 0.09717
919.80 0.09713
919.90 0.09708
920.00 0.09703
920.10 0.09698
920.20 0.09693
920.30 0.09689
920.40 0.09684
920.50 0.09679
920.60 0.09674
920.70 0.09669
920.80 0.09664
920.90 0.0966
921.00 0.09655
921.10 0.0965
921.20 0.09645
921.30 0.09641
921.40 0.09636
921.50 0.09631
921.60 0.09626
921.70 0.09621
921.80 0.09617
921.90 0.09612
922.00 0.09607
922.10 0.09604
922.20 0.096
922.30 0.09597
922.40 0.09594
922.50 0.0959
922.60 0.09587
922.70 0.09584
922.80 0.0958
922.90 0.09577
923.00 0.09574
923.10 0.0957
923.20 0.09567
923.30 0.09564
923.40 0.0956
923.50 0.09557
923.60 0.09554
923.70 0.09551
923.80 0.09547
923.90 0.09544
924.00 0.09541
924.10 0.09537
924.20 0.09534
924.30 0.09531
924.40 0.09527
924.50 0.09524
924.60 0.09521
924.70 0.09517
924.80 0.09514
924.90 0.09511
925.00 0.09508
925.10 0.09504
925.20 0.09501
925.30 0.09498
925.40 0.09494
925.50 0.09491
925.60 0.09488
925.70 0.09485
925.80 0.09481
925.90 0.09478
926.00 0.09475
926.10 0.09471
926.20 0.09468
926.30 0.09465
926.40 0.09462
926.50 0.09458
926.60 0.09455
926.70 0.09452
926.80 0.09448
926.90 0.09445
927.00 0.09442
927.10 0.09439
927.20 0.09436
927.30 0.09433
927.40 0.0943
927.50 0.09427
927.60 0.09423
927.70 0.0942
927.80 0.09417
927.90 0.09414
928.00 0.09411
928.10 0.09408
928.20 0.09405
928.30 0.09402
928.40 0.09399
928.50 0.09396
928.60 0.09393
928.70 0.0939
928.80 0.09387
928.90 0.09384
929.00 0.09381
929.10 0.09378
929.20 0.09374
929.30 0.09371
929.40 0.09368
929.50 0.09365
929.60 0.09362
929.70 0.09359
929.80 0.09356
929.90 0.09353
930.00 0.0935
930.10 0.09347
930.20 0.09344
930.30 0.09341
930.40 0.09338
930.50 0.09335
930.60 0.09332
930.70 0.09329
930.80 0.09326
930.90 0.09323
931.00 0.0932
931.10 0.09317
931.20 0.09314
931.30 0.09311
931.40 0.09308
931.50 0.09305
931.60 0.09301
931.70 0.09298
931.80 0.09295
931.90 0.09292
932.00 0.09289
932.10 0.09286
932.20 0.09283
932.30 0.09279
932.40 0.09276
932.50 0.09272
932.60 0.09269
932.70 0.09266
932.80 0.09262
932.90 0.09259
933.00 0.09255
933.10 0.09252
933.20 0.09249
933.30 0.09245
933.40 0.09242
933.50 0.09239
933.60 0.09235
933.70 0.09232
933.80 0.09228
933.90 0.09225
934.00 0.09222
934.10 0.09218
934.20 0.09215
934.30 0.09211
934.40 0.09208
934.50 0.09204
934.60 0.09201
934.70 0.09197
934.80 0.09193
934.90 0.0919
935.00 0.09186
935.10 0.09183
935.20 0.09179
935.30 0.09175
935.40 0.09172
935.50 0.09168
935.60 0.09165
935.70 0.09161
935.80 0.09157
935.90 0.09154
936.00 0.0915
936.10 0.09146
936.20 0.09143
936.30 0.09139
936.40 0.09136
936.50 0.09132
936.60 0.09129
936.70 0.09125
936.80 0.09121
936.90 0.09118
937.00 0.09114
937.10 0.0911
937.20 0.09107
937.30 0.09103
937.40 0.09099
937.50 0.09095
937.60 0.09091
937.70 0.09088
937.80 0.09084
937.90 0.0908
938.00 0.09076
938.10 0.09073
938.20 0.09069
938.30 0.09065
938.40 0.09061
938.50 0.09057
938.60 0.09053
938.70 0.09049
938.80 0.09045
938.90 0.09041
939.00 0.09037
939.10 0.09033
939.20 0.0903
939.30 0.09026
939.40 0.09022
939.50 0.09018
939.60 0.09014
939.70 0.0901
939.80 0.09006
939.90 0.09002
940.00 0.08998
940.10 0.08994
940.20 0.0899
940.30 0.08986
940.40 0.08982
940.50 0.08978
940.60 0.08974
940.70 0.0897
940.80 0.08966
940.90 0.08962
941.00 0.08958
941.10 0.08954
941.20 0.08949
941.30 0.08945
941.40 0.08941
941.50 0.08937
941.60 0.08933
941.70 0.08929
941.80 0.08925
941.90 0.08921
942.00 0.08917
942.10 0.08912
942.20 0.08908
942.30 0.08904
942.40 0.089
942.50 0.08895
942.60 0.08891
942.70 0.08886
942.80 0.08882
942.90 0.08878
943.00 0.08873
943.10 0.08869
943.20 0.08865
943.30 0.0886
943.40 0.08856
943.50 0.08852
943.60 0.08847
943.70 0.08843
943.80 0.08839
943.90 0.08834
944.00 0.0883
944.10 0.08826
944.20 0.08821
944.30 0.08817
944.40 0.08812
944.50 0.08808
944.60 0.08803
944.70 0.08799
944.80 0.08794
944.90 0.08789
945.00 0.08785
945.10 0.0878
945.20 0.08776
945.30 0.08771
945.40 0.08766
945.50 0.08762
945.60 0.08757
945.70 0.08752
945.80 0.08747
945.90 0.08743
946.00 0.08738
946.10 0.08733
946.20 0.08728
946.30 0.08724
946.40 0.08719
946.50 0.08714
946.60 0.08709
946.70 0.08705
946.80 0.087
946.90 0.08695
947.00 0.0869
947.10 0.08685
947.20 0.08681
947.30 0.08676
947.40 0.0867
947.50 0.08665
947.60 0.0866
947.70 0.08655
947.80 0.0865
947.90 0.08645
948.00 0.0864
948.10 0.08635
948.20 0.08629
948.30 0.08624
948.40 0.08619
948.50 0.08614
948.60 0.08609
948.70 0.08604
948.80 0.08599
948.90 0.08594
949.00 0.08589
949.10 0.08583
949.20 0.08578
949.30 0.08573
949.40 0.08568
949.50 0.08562
949.60 0.08557
949.70 0.08552
949.80 0.08546
949.90 0.08541
950.00 0.08535
950.10 0.0853
950.20 0.08525
950.30 0.08519
950.40 0.08514
950.50 0.08508
950.60 0.08503
950.70 0.08497
950.80 0.08492
950.90 0.08487
951.00 0.08481
951.10 0.08476
951.20 0.08471
951.30 0.08465
951.40 0.0846
951.50 0.08454
951.60 0.08449
951.70 0.08443
951.80 0.08438
951.90 0.08432
952.00 0.08427
952.10 0.08421
952.20 0.08416
952.30 0.0841
952.40 0.08405
952.50 0.084
952.60 0.08394
952.70 0.08389
952.80 0.08383
952.90 0.08378
953.00 0.08373
953.10 0.08368
953.20 0.08362
953.30 0.08357
953.40 0.08352
953.50 0.08347
953.60 0.08342
953.70 0.08337
953.80 0.08333
953.90 0.08328
954.00 0.08323
954.10 0.08319
954.20 0.08315
954.30 0.08311
954.40 0.08307
954.50 0.08304
954.60 0.08301
954.70 0.08297
954.80 0.08295
954.90 0.08292
955.00 0.08289
955.10 0.08286
955.20 0.08285
955.30 0.08283
955.40 0.08281
955.50 0.08279
955.60 0.08277
955.70 0.08275
955.80 0.08274
955.90 0.08272
956.00 0.08271
956.10 0.0827
956.20 0.08269
956.30 0.08267
956.40 0.08266
956.50 0.08265
956.60 0.08263
956.70 0.08262
956.80 0.08261
956.90 0.0826
957.00 0.08258
957.10 0.08257
957.20 0.08256
957.30 0.08255
957.40 0.08254
957.50 0.08252
957.60 0.08251
957.70 0.0825
957.80 0.08249
957.90 0.08248
958.00 0.08246
958.10 0.08245
958.20 0.08244
958.30 0.08243
958.40 0.08241
958.50 0.0824
958.60 0.08239
958.70 0.08238
958.80 0.08237
958.90 0.08235
959.00 0.08234
959.10 0.08233
959.20 0.08232
959.30 0.08231
959.40 0.08229
959.50 0.08227
959.60 0.08226
959.70 0.08224
959.80 0.08223
959.90 0.08221
960.00 0.0822
960.10 0.08218
960.20 0.08217
960.30 0.08215
960.40 0.08214
960.50 0.08212
960.60 0.08211
960.70 0.08209
960.80 0.08208
960.90 0.08206
961.00 0.08205
961.10 0.08203
961.20 0.08201
961.30 0.082
961.40 0.08198
961.50 0.08196
961.60 0.08195
961.70 0.08193
961.80 0.08191
961.90 0.08189
962.00 0.08187
962.10 0.08185
962.20 0.08184
962.30 0.08182
962.40 0.0818
962.50 0.08178
962.60 0.08176
962.70 0.08174
962.80 0.08172
962.90 0.0817
963.00 0.08168
963.10 0.08166
963.20 0.08164
963.30 0.08162
963.40 0.0816
963.50 0.08158
963.60 0.08156
963.70 0.08154
963.80 0.08151
963.90 0.08149
964.00 0.08147
964.10 0.08145
964.20 0.08143
964.30 0.08141
964.40 0.08138
964.50 0.08136
964.60 0.08134
964.70 0.08131
964.80 0.08129
964.90 0.08127
965.00 0.08124
965.10 0.08122
965.20 0.0812
965.30 0.08117
965.40 0.08115
965.50 0.08113
965.60 0.0811
965.70 0.08108
965.80 0.08106
965.90 0.08103
966.00 0.08101
966.10 0.08099
966.20 0.08096
966.30 0.08094
966.40 0.08091
966.50 0.08089
966.60 0.08086
966.70 0.08084
966.80 0.08081
966.90 0.08079
967.00 0.08076
967.10 0.08074
967.20 0.08071
967.30 0.08069
967.40 0.08066
967.50 0.08064
967.60 0.08061
967.70 0.08058
967.80 0.08056
967.90 0.08053
968.00 0.08051
968.10 0.08048
968.20 0.08045
968.30 0.08043
968.40 0.0804
968.50 0.08037
968.60 0.08035
968.70 0.08032
968.80 0.08029
968.90 0.08027
969.00 0.08024
969.10 0.08021
969.20 0.08018
969.30 0.08016
969.40 0.08013
969.50 0.0801
969.60 0.08008
969.70 0.08005
969.80 0.08002
969.90 0.07999
970.00 0.07997
970.10 0.07994
970.20 0.07991
970.30 0.07989
970.40 0.07986
970.50 0.07983
970.60 0.0798
970.70 0.07977
970.80 0.07974
970.90 0.07972
971.00 0.07969
971.10 0.07966
971.20 0.07963
971.30 0.0796
971.40 0.07958
971.50 0.07955
971.60 0.07952
971.70 0.07949
971.80 0.07946
971.90 0.07944
972.00 0.07941
972.10 0.07938
972.20 0.07935
972.30 0.07932
972.40 0.07929
972.50 0.07926
972.60 0.07923
972.70 0.0792
972.80 0.07917
972.90 0.07914
973.00 0.07912
973.10 0.07909
973.20 0.07906
973.30 0.07903
973.40 0.079
973.50 0.07897
973.60 0.07894
973.70 0.07891
973.80 0.07888
973.90 0.07885
974.00 0.07883
974.10 0.0788
974.20 0.07877
974.30 0.07874
974.40 0.07871
974.50 0.07868
974.60 0.07865
974.70 0.07862
974.80 0.07859
974.90 0.07856
975.00 0.07853
975.10 0.0785
975.20 0.07847
975.30 0.07844
975.40 0.07841
975.50 0.07838
975.60 0.07835
975.70 0.07832
975.80 0.07829
975.90 0.07826
976.00 0.07823
976.10 0.0782
976.20 0.07817
976.30 0.07814
976.40 0.07811
976.50 0.07808
976.60 0.07805
976.70 0.07802
976.80 0.07799
976.90 0.07796
977.00 0.07793
977.10 0.0779
977.20 0.07787
977.30 0.07784
977.40 0.07781
977.50 0.07778
977.60 0.07775
977.70 0.07772
977.80 0.07769
977.90 0.07765
978.00 0.07762
978.10 0.07759
978.20 0.07756
978.30 0.07753
978.40 0.0775
978.50 0.07747
978.60 0.07744
978.70 0.07741
978.80 0.07738
978.90 0.07735
979.00 0.07732
979.10 0.07728
979.20 0.07725
979.30 0.07722
979.40 0.07719
979.50 0.07716
979.60 0.07713
979.70 0.0771
979.80 0.07707
979.90 0.07704
980.00 0.07701
980.10 0.07698
980.20 0.07695
980.30 0.07692
980.40 0.07689
980.50 0.07686
980.60 0.07682
980.70 0.07679
980.80 0.07676
980.90 0.07673
981.00 0.0767
981.10 0.07667
981.20 0.07664
981.30 0.07661
981.40 0.07658
981.50 0.07655
981.60 0.07652
981.70 0.07649
981.80 0.07646
981.90 0.07643
982.00 0.0764
982.10 0.07637
982.20 0.07633
982.30 0.0763
982.40 0.07627
982.50 0.07624
982.60 0.07621
982.70 0.07618
982.80 0.07614
982.90 0.07611
983.00 0.07608
983.10 0.07605
983.20 0.07602
983.30 0.07598
983.40 0.07595
983.50 0.07592
983.60 0.07589
983.70 0.07586
983.80 0.07583
983.90 0.0758
984.00 0.07576
984.10 0.07573
984.20 0.0757
984.30 0.07567
984.40 0.07564
984.50 0.07561
984.60 0.07557
984.70 0.07554
984.80 0.07551
984.90 0.07548
985.00 0.07544
985.10 0.07541
985.20 0.07538
985.30 0.07535
985.40 0.07531
985.50 0.07528
985.60 0.07525
985.70 0.07522
985.80 0.07518
985.90 0.07515
986.00 0.07512
986.10 0.07509
986.20 0.07505
986.30 0.07502
986.40 0.07499
986.50 0.07496
986.60 0.07492
986.70 0.07489
986.80 0.07486
986.90 0.07483
987.00 0.07479
987.10 0.07476
987.20 0.07473
987.30 0.07469
987.40 0.07466
987.50 0.07463
987.60 0.07459
987.70 0.07456
987.80 0.07453
987.90 0.07449
988.00 0.07446
988.10 0.07442
988.20 0.07439
988.30 0.07436
988.40 0.07432
988.50 0.07429
988.60 0.07426
988.70 0.07422
988.80 0.07419
988.90 0.07415
989.00 0.07412
989.10 0.07408
989.20 0.07405
989.30 0.07401
989.40 0.07398
989.50 0.07394
989.60 0.07391
989.70 0.07387
989.80 0.07384
989.90 0.0738
990.00 0.07377
990.10 0.07373
990.20 0.0737
990.30 0.07366
990.40 0.07363
990.50 0.0736
990.60 0.07356
990.70 0.07352
990.80 0.07349
990.90 0.07345
991.00 0.07341
991.10 0.07338
991.20 0.07334
991.30 0.07331
991.40 0.07327
991.50 0.07323
991.60 0.0732
991.70 0.07316
991.80 0.07312
991.90 0.07309
992.00 0.07305
992.10 0.07301
992.20 0.07297
992.30 0.07294
992.40 0.0729
992.50 0.07286
992.60 0.07282
992.70 0.07278
992.80 0.07274
992.90 0.0727
993.00 0.07266
993.10 0.07262
993.20 0.07258
993.30 0.07254
993.40 0.0725
993.50 0.07246
993.60 0.07242
993.70 0.07238
993.80 0.07235
993.90 0.07231
994.00 0.07227
994.10 0.07223
994.20 0.07219
994.30 0.07215
994.40 0.07211
994.50 0.07207
994.60 0.07203
994.70 0.07198
994.80 0.07194
994.90 0.0719
995.00 0.07186
995.10 0.07181
995.20 0.07177
995.30 0.07173
995.40 0.07168
995.50 0.07164
995.60 0.0716
995.70 0.07155
995.80 0.07151
995.90 0.07146
996.00 0.07142
996.10 0.07137
996.20 0.07132
996.30 0.07128
996.40 0.07123
996.50 0.07119
996.60 0.07114
996.70 0.0711
996.80 0.07105
996.90 0.071
997.00 0.07096
997.10 0.07091
997.20 0.07086
997.30 0.07081
997.40 0.07076
997.50 0.07072
997.60 0.07067
997.70 0.07061
997.80 0.07056
997.90 0.07051
998.00 0.07045
998.10 0.0704
998.20 0.07035
998.30 0.07029
998.40 0.07024
998.50 0.07019
998.60 0.07013
998.70 0.07008
998.80 0.07003
998.90 0.06997
999.00 0.06992
999.10 0.06987
999.20 0.06981
999.30 0.06976
999.40 0.06971
999.50 0.06965
999.60 0.0696
999.70 0.06954
999.80 0.06948
999.90 0.06942
1000.00 0.06936
1000.10 0.06929
1000.20 0.06923
1000.30 0.06917
1000.40 0.06911
1000.50 0.06905
1000.60 0.06898
1000.70 0.06892
1000.80 0.06886
1000.90 0.0688
1001.00 0.06874
1001.10 0.06868
1001.20 0.06862
1001.30 0.06855
1001.40 0.06849
1001.50 0.06843
1001.60 0.06837
1001.70 0.06831
1001.80 0.06824
1001.90 0.06817
1002.00 0.06811
1002.10 0.06804
1002.20 0.06798
1002.30 0.06791
1002.40 0.06785
1002.50 0.06778
1002.60 0.06771
1002.70 0.06765
1002.80 0.06758
1002.90 0.06752
1003.00 0.06745
1003.10 0.06739
1003.20 0.06733
1003.30 0.06727
1003.40 0.06721
1003.50 0.06715
1003.60 0.06709
1003.70 0.06703
1003.80 0.06697
1003.90 0.06693
1004.00 0.06689
1004.10 0.06685
1004.20 0.0668
1004.30 0.06678
1004.40 0.06676
1004.50 0.06675
1004.60 0.06676
1004.70 0.06679
1004.80 0.06681
1004.90 0.0668
1005.00 0.06678
1005.10 0.06673
1005.20 0.06666
1005.30 0.06659
1005.40 0.06653
1005.50 0.0665
1005.60 0.06648
1005.70 0.06647
1005.80 0.06645
1005.90 0.06644
1006.00 0.06643
1006.10 0.06641
1006.20 0.06641
1006.30 0.06643
1006.40 0.06644
1006.50 0.06645
1006.60 0.06646
1006.70 0.06647
1006.80 0.06648
1006.90 0.06649
1007.00 0.0665
1007.10 0.06651
1007.20 0.06653
1007.30 0.06654
1007.40 0.06656
1007.50 0.06657
1007.60 0.06659
1007.70 0.0666
1007.80 0.06661
1007.90 0.06662
1008.00 0.06663
1008.10 0.06664
1008.20 0.06665
1008.30 0.06667
1008.40 0.06668
1008.50 0.06669
1008.60 0.0667
1008.70 0.06671
1008.80 0.06672
1008.90 0.06673
1009.00 0.06674
1009.10 0.06675
1009.20 0.06676
1009.30 0.06678
1009.40 0.06679
1009.50 0.0668
1009.60 0.06681
1009.70 0.06681
1009.80 0.06681
1009.90 0.06682
1010.00 0.06682
1010.10 0.06682
1010.20 0.06682
1010.30 0.06683
1010.40 0.06683
1010.50 0.06683
1010.60 0.06683
1010.70 0.06683
1010.80 0.06684
1010.90 0.06684
1011.00 0.06684
1011.10 0.06684
1011.20 0.06685
1011.30 0.06685
1011.40 0.06685
1011.50 0.06685
1011.60 0.06685
1011.70 0.06685
1011.80 0.06685
1011.90 0.06685
1012.00 0.06684
1012.10 0.06684
1012.20 0.06683
1012.30 0.06683
1012.40 0.06682
1012.50 0.06681
1012.60 0.06681
1012.70 0.0668
1012.80 0.06679
1012.90 0.06679
1013.00 0.06678
1013.10 0.06678
1013.20 0.06677
1013.30 0.06676
1013.40 0.06676
1013.50 0.06675
1013.60 0.06674
1013.70 0.06673
1013.80 0.06672
1013.90 0.06671
1014.00 0.0667
1014.10 0.06669
1014.20 0.06668
1014.30 0.06667
1014.40 0.06666
1014.50 0.06665
1014.60 0.06664
1014.70 0.06663
1014.80 0.06662
1014.90 0.0666
1015.00 0.06659
1015.10 0.06658
1015.20 0.06656
1015.30 0.06655
1015.40 0.06654
1015.50 0.06652
1015.60 0.06651
1015.70 0.06649
1015.80 0.06648
1015.90 0.06647
1016.00 0.06645
1016.10 0.06644
1016.20 0.06643
1016.30 0.06641
1016.40 0.0664
1016.50 0.06639
1016.60 0.06637
1016.70 0.06636
1016.80 0.06634
1016.90 0.06633
1017.00 0.06631
1017.10 0.06629
1017.20 0.06628
1017.30 0.06626
1017.40 0.06624
1017.50 0.06622
1017.60 0.06621
1017.70 0.06619
1017.80 0.06617
1017.90 0.06615
1018.00 0.06614
1018.10 0.06612
1018.20 0.0661
1018.30 0.06609
1018.40 0.06607
1018.50 0.06605
1018.60 0.06603
1018.70 0.06602
1018.80 0.066
1018.90 0.06598
1019.00 0.06596
1019.10 0.06594
1019.20 0.06592
1019.30 0.0659
1019.40 0.06588
1019.50 0.06586
1019.60 0.06584
1019.70 0.06582
1019.80 0.06581
1019.90 0.06579
1020.00 0.06577
1020.10 0.06575
1020.20 0.06573
1020.30 0.06571
1020.40 0.06569
1020.50 0.06567
1020.60 0.06565
1020.70 0.06563
1020.80 0.06561
1020.90 0.06559
1021.00 0.06557
1021.10 0.06555
1021.20 0.06553
1021.30 0.06551
1021.40 0.06549
1021.50 0.06547
1021.60 0.06545
1021.70 0.06543
1021.80 0.06541
1021.90 0.06539
1022.00 0.06537
1022.10 0.06534
1022.20 0.06532
1022.30 0.0653
1022.40 0.06528
1022.50 0.06526
1022.60 0.06524
1022.70 0.06522
1022.80 0.06519
1022.90 0.06517
1023.00 0.06515
1023.10 0.06513
1023.20 0.06511
1023.30 0.06509
1023.40 0.06507
1023.50 0.06504
1023.60 0.06502
1023.70 0.065
1023.80 0.06498
1023.90 0.06496
1024.00 0.06494
1024.10 0.06491
1024.20 0.06489
1024.30 0.06487
1024.40 0.06485
1024.50 0.06483
1024.60 0.06481
1024.70 0.06479
1024.80 0.06476
1024.90 0.06474
1025.00 0.06472
1025.10 0.0647
1025.20 0.06467
1025.30 0.06465
1025.40 0.06463
1025.50 0.06461
1025.60 0.06459
1025.70 0.06456
1025.80 0.06454
1025.90 0.06452
1026.00 0.0645
1026.10 0.06447
1026.20 0.06445
1026.30 0.06443
1026.40 0.06441
1026.50 0.06439
1026.60 0.06436
1026.70 0.06434
1026.80 0.06432
1026.90 0.0643
1027.00 0.06427
1027.10 0.06425
1027.20 0.06423
1027.30 0.06421
1027.40 0.06418
1027.50 0.06416
1027.60 0.06414
1027.70 0.06411
1027.80 0.06409
1027.90 0.06407
1028.00 0.06405
1028.10 0.06402
1028.20 0.064
1028.30 0.06398
1028.40 0.06395
1028.50 0.06393
1028.60 0.06391
1028.70 0.06389
1028.80 0.06386
1028.90 0.06384
1029.00 0.06382
1029.10 0.06379
1029.20 0.06377
1029.30 0.06375
1029.40 0.06373
1029.50 0.0637
1029.60 0.06368
1029.70 0.06366
1029.80 0.06363
1029.90 0.06361
1030.00 0.06359
1030.10 0.06357
1030.20 0.06354
1030.30 0.06352
1030.40 0.0635
1030.50 0.06348
1030.60 0.06345
1030.70 0.06343
1030.80 0.06341
1030.90 0.06339
1031.00 0.06336
1031.10 0.06334
1031.20 0.06332
1031.30 0.06329
1031.40 0.06327
1031.50 0.06325
1031.60 0.06323
1031.70 0.0632
1031.80 0.06318
1031.90 0.06316
1032.00 0.06314
1032.10 0.06311
1032.20 0.06309
1032.30 0.06307
1032.40 0.06304
1032.50 0.06302
1032.60 0.063
1032.70 0.06298
1032.80 0.06295
1032.90 0.06293
1033.00 0.06291
1033.10 0.06288
1033.20 0.06286
1033.30 0.06284
1033.40 0.06281
1033.50 0.06279
1033.60 0.06277
1033.70 0.06275
1033.80 0.06272
1033.90 0.0627
1034.00 0.06268
1034.10 0.06265
1034.20 0.06263
1034.30 0.06261
1034.40 0.06259
1034.50 0.06256
1034.60 0.06254
1034.70 0.06252
1034.80 0.06249
1034.90 0.06247
1035.00 0.06245
1035.10 0.06243
1035.20 0.0624
1035.30 0.06238
1035.40 0.06236
1035.50 0.06233
1035.60 0.06231
1035.70 0.06229
1035.80 0.06227
1035.90 0.06224
1036.00 0.06222
1036.10 0.0622
1036.20 0.06217
1036.30 0.06215
1036.40 0.06213
1036.50 0.06211
1036.60 0.06208
1036.70 0.06206
1036.80 0.06204
1036.90 0.06202
1037.00 0.06199
1037.10 0.06197
1037.20 0.06195
1037.30 0.06192
1037.40 0.0619
1037.50 0.06188
1037.60 0.06186
1037.70 0.06183
1037.80 0.06181
1037.90 0.06179
1038.00 0.06176
1038.10 0.06174
1038.20 0.06172
1038.30 0.0617
1038.40 0.06167
1038.50 0.06165
1038.60 0.06163
1038.70 0.06161
1038.80 0.06158
1038.90 0.06156
1039.00 0.06154
1039.10 0.06151
1039.20 0.06149
1039.30 0.06147
1039.40 0.06145
1039.50 0.06142
1039.60 0.0614
1039.70 0.06138
1039.80 0.06136
1039.90 0.06133
1040.00 0.06131
1040.10 0.06129
1040.20 0.06127
1040.30 0.06124
1040.40 0.06122
1040.50 0.0612
1040.60 0.06117
1040.70 0.06115
1040.80 0.06113
1040.90 0.06111
1041.00 0.06108
1041.10 0.06106
1041.20 0.06104
1041.30 0.06102
1041.40 0.06099
1041.50 0.06097
1041.60 0.06095
1041.70 0.06093
1041.80 0.0609
1041.90 0.06088
1042.00 0.06086
1042.10 0.06084
1042.20 0.06081
1042.30 0.06079
1042.40 0.06077
1042.50 0.06075
1042.60 0.06072
1042.70 0.0607
1042.80 0.06068
1042.90 0.06066
1043.00 0.06063
1043.10 0.06061
1043.20 0.06059
1043.30 0.06057
1043.40 0.06054
1043.50 0.06052
1043.60 0.0605
1043.70 0.06048
1043.80 0.06045
1043.90 0.06043
1044.00 0.06041
1044.10 0.06039
1044.20 0.06037
1044.30 0.06034
1044.40 0.06032
1044.50 0.0603
1044.60 0.06028
1044.70 0.06025
1044.80 0.06023
1044.90 0.06021
1045.00 0.06019
1045.10 0.06016
1045.20 0.06014
1045.30 0.06012
1045.40 0.0601
1045.50 0.06007
1045.60 0.06005
1045.70 0.06003
1045.80 0.06001
1045.90 0.05999
1046.00 0.05996
1046.10 0.05994
1046.20 0.05992
1046.30 0.0599
1046.40 0.05987
1046.50 0.05985
1046.60 0.05983
1046.70 0.05981
1046.80 0.05979
1046.90 0.05976
1047.00 0.05974
1047.10 0.05972
1047.20 0.0597
1047.30 0.05968
1047.40 0.05965
1047.50 0.05963
1047.60 0.05961
1047.70 0.05959
1047.80 0.05956
1047.90 0.05954
1048.00 0.05952
1048.10 0.0595
1048.20 0.05948
1048.30 0.05945
1048.40 0.05943
1048.50 0.05941
1048.60 0.05939
1048.70 0.05937
1048.80 0.05934
1048.90 0.05932
1049.00 0.0593
1049.10 0.05928
1049.20 0.05926
1049.30 0.05923
1049.40 0.05921
1049.50 0.05919
1049.60 0.05917
1049.70 0.05915
1049.80 0.05912
1049.90 0.0591
1050.00 0.05908
1050.10 0.05906
1050.20 0.05904
1050.30 0.05901
1050.40 0.05899
1050.50 0.05897
1050.60 0.05895
1050.70 0.05893
1050.80 0.0589
1050.90 0.05888
1051.00 0.05886
1051.10 0.05884
1051.20 0.05882
1051.30 0.05879
1051.40 0.05877
1051.50 0.05875
1051.60 0.05873
1051.70 0.05871
1051.80 0.05869
1051.90 0.05866
1052.00 0.05864
1052.10 0.05862
1052.20 0.0586
1052.30 0.05858
1052.40 0.05855
1052.50 0.05853
1052.60 0.05851
1052.70 0.05849
1052.80 0.05847
1052.90 0.05845
1053.00 0.05842
1053.10 0.0584
1053.20 0.05838
1053.30 0.05836
1053.40 0.05834
1053.50 0.05832
1053.60 0.05829
1053.70 0.05827
1053.80 0.05825
1053.90 0.05823
1054.00 0.05821
1054.10 0.05819
1054.20 0.05816
1054.30 0.05814
1054.40 0.05812
1054.50 0.0581
1054.60 0.05808
1054.70 0.05806
1054.80 0.05803
1054.90 0.05801
1055.00 0.05799
1055.10 0.05797
1055.20 0.05795
1055.30 0.05793
1055.40 0.0579
1055.50 0.05788
1055.60 0.05786
1055.70 0.05784
1055.80 0.05782
1055.90 0.0578
1056.00 0.05777
1056.10 0.05775
1056.20 0.05773
1056.30 0.05771
1056.40 0.05769
1056.50 0.05767
1056.60 0.05765
1056.70 0.05762
1056.80 0.0576
1056.90 0.05758
1057.00 0.05756
1057.10 0.05754
1057.20 0.05752
1057.30 0.0575
1057.40 0.05747
1057.50 0.05745
1057.60 0.05743
1057.70 0.05741
1057.80 0.05739
1057.90 0.05737
1058.00 0.05735
1058.10 0.05732
1058.20 0.0573
1058.30 0.05728
1058.40 0.05726
1058.50 0.05724
1058.60 0.05722
1058.70 0.05719
1058.80 0.05717
1058.90 0.05715
1059.00 0.05713
1059.10 0.05711
1059.20 0.05709
1059.30 0.05707
1059.40 0.05705
1059.50 0.05702
1059.60 0.057
1059.70 0.05698
1059.80 0.05696
1059.90 0.05694
1060.00 0.05692
1060.10 0.0569
1060.20 0.05687
1060.30 0.05685
1060.40 0.05683
1060.50 0.05681
1060.60 0.05679
1060.70 0.05677
1060.80 0.05675
1060.90 0.05673
1061.00 0.0567
1061.10 0.05668
1061.20 0.05666
1061.30 0.05664
1061.40 0.05662
1061.50 0.0566
1061.60 0.05658
1061.70 0.05656
1061.80 0.05653
1061.90 0.05651
1062.00 0.05649
1062.10 0.05647
1062.20 0.05645
1062.30 0.05643
1062.40 0.05641
1062.50 0.05639
1062.60 0.05636
1062.70 0.05634
1062.80 0.05632
1062.90 0.0563
1063.00 0.05628
1063.10 0.05626
1063.20 0.05624
1063.30 0.05621
1063.40 0.05619
1063.50 0.05617
1063.60 0.05615
1063.70 0.05613
1063.80 0.05611
1063.90 0.05609
1064.00 0.05607
1064.10 0.05604
1064.20 0.05602
1064.30 0.056
1064.40 0.05598
1064.50 0.05596
1064.60 0.05594
1064.70 0.05592
1064.80 0.0559
1064.90 0.05587
1065.00 0.05585
1065.10 0.05583
1065.20 0.05581
1065.30 0.05579
1065.40 0.05577
1065.50 0.05575
1065.60 0.05573
1065.70 0.05571
1065.80 0.05568
1065.90 0.05566
1066.00 0.05564
1066.10 0.05562
1066.20 0.0556
1066.30 0.05558
1066.40 0.05556
1066.50 0.05554
1066.60 0.05552
1066.70 0.05549
1066.80 0.05547
1066.90 0.05545
1067.00 0.05543
1067.10 0.05541
1067.20 0.05539
1067.30 0.05537
1067.40 0.05534
1067.50 0.05532
1067.60 0.0553
1067.70 0.05528
1067.80 0.05526
1067.90 0.05524
1068.00 0.05522
1068.10 0.05519
1068.20 0.05517
1068.30 0.05515
1068.40 0.05513
1068.50 0.05511
1068.60 0.05509
1068.70 0.05507
1068.80 0.05504
1068.90 0.05502
1069.00 0.055
1069.10 0.05498
1069.20 0.05496
1069.30 0.05494
1069.40 0.05492
1069.50 0.05489
1069.60 0.05487
1069.70 0.05485
1069.80 0.05483
1069.90 0.05481
1070.00 0.05479
1070.10 0.05477
1070.20 0.05474
1070.30 0.05472
1070.40 0.0547
1070.50 0.05468
1070.60 0.05466
1070.70 0.05464
1070.80 0.05462
1070.90 0.0546
1071.00 0.05457
1071.10 0.05455
1071.20 0.05453
1071.30 0.05451
1071.40 0.05449
1071.50 0.05447
1071.60 0.05445
1071.70 0.05443
1071.80 0.0544
1071.90 0.05438
1072.00 0.05436
1072.10 0.05434
1072.20 0.05432
1072.30 0.0543
1072.40 0.05427
1072.50 0.05425
1072.60 0.05423
1072.70 0.05421
1072.80 0.05419
1072.90 0.05416
1073.00 0.05414
1073.10 0.05412
1073.20 0.0541
1073.30 0.05408
1073.40 0.05406
1073.50 0.05403
1073.60 0.05401
1073.70 0.05399
1073.80 0.05397
1073.90 0.05394
1074.00 0.05392
1074.10 0.0539
1074.20 0.05387
1074.30 0.05385
1074.40 0.05383
1074.50 0.05381
1074.60 0.05378
1074.70 0.05376
1074.80 0.05374
1074.90 0.05372
1075.00 0.05369
1075.10 0.05367
1075.20 0.05365
1075.30 0.05363
1075.40 0.0536
1075.50 0.05358
1075.60 0.05356
1075.70 0.05354
1075.80 0.05351
1075.90 0.05349
1076.00 0.05347
1076.10 0.05345
1076.20 0.05342
1076.30 0.0534
1076.40 0.05338
1076.50 0.05336
1076.60 0.05333
1076.70 0.05331
1076.80 0.05329
1076.90 0.05327
1077.00 0.05324
1077.10 0.05322
1077.20 0.0532
1077.30 0.05317
1077.40 0.05315
1077.50 0.05313
1077.60 0.0531
1077.70 0.05308
1077.80 0.05305
1077.90 0.05303
1078.00 0.053
1078.10 0.05298
1078.20 0.05296
1078.30 0.05293
1078.40 0.05291
1078.50 0.05288
1078.60 0.05286
1078.70 0.05283
1078.80 0.05281
1078.90 0.05279
1079.00 0.05276
1079.10 0.05274
1079.20 0.05271
1079.30 0.05269
1079.40 0.05266
1079.50 0.05264
1079.60 0.05261
1079.70 0.05259
1079.80 0.05256
1079.90 0.05253
1080.00 0.05251
1080.10 0.05248
1080.20 0.05245
1080.30 0.05243
1080.40 0.0524
1080.50 0.05238
1080.60 0.05235
1080.70 0.05232
1080.80 0.0523
1080.90 0.05227
1081.00 0.05224
1081.10 0.05222
1081.20 0.05219
1081.30 0.05217
1081.40 0.05214
1081.50 0.05211
1081.60 0.05209
1081.70 0.05206
1081.80 0.05203
1081.90 0.052
1082.00 0.05197
1082.10 0.05194
1082.20 0.05191
1082.30 0.05188
1082.40 0.05186
1082.50 0.05183
1082.60 0.0518
1082.70 0.05177
1082.80 0.05174
1082.90 0.05171
1083.00 0.05168
1083.10 0.05165
1083.20 0.05162
1083.30 0.05159
1083.40 0.05156
1083.50 0.05153
1083.60 0.0515
1083.70 0.05146
1083.80 0.05143
1083.90 0.0514
1084.00 0.05137
1084.10 0.05133
1084.20 0.0513
1084.30 0.05127
1084.40 0.05124
1084.50 0.0512
1084.60 0.05117
1084.70 0.05113
1084.80 0.05109
1084.90 0.05106
1085.00 0.05102
1085.10 0.05098
1085.20 0.05095
1085.30 0.05091
1085.40 0.05087
1085.50 0.05084
1085.60 0.0508
1085.70 0.05076
1085.80 0.05073
1085.90 0.05069
1086.00 0.05065
1086.10 0.05062
1086.20 0.05058
1086.30 0.05055
1086.40 0.05051
1086.50 0.05047
1086.60 0.05043
1086.70 0.05039
1086.80 0.05035
1086.90 0.05031
1087.00 0.05027
1087.10 0.05022
1087.20 0.05017
1087.30 0.05013
1087.40 0.05008
1087.50 0.05004
1087.60 0.04999
1087.70 0.04995
1087.80 0.0499
1087.90 0.04986
1088.00 0.04981
1088.10 0.04977
1088.20 0.04972
1088.30 0.04967
1088.40 0.04963
1088.50 0.04958
1088.60 0.04953
1088.70 0.04947
1088.80 0.04942
1088.90 0.04937
1089.00 0.04931
1089.10 0.04926
1089.20 0.04921
1089.30 0.04915
1089.40 0.0491
1089.50 0.04904
1089.60 0.04899
1089.70 0.04894
1089.80 0.04888
1089.90 0.04883
1090.00 0.04878
1090.10 0.04872
1090.20 0.04867
1090.30 0.04862
1090.40 0.04856
1090.50 0.04851
1090.60 0.04845
1090.70 0.04839
1090.80 0.04833
1090.90 0.04827
1091.00 0.04822
1091.10 0.04816
1091.20 0.0481
1091.30 0.04804
1091.40 0.04798
1091.50 0.04792
1091.60 0.04786
1091.70 0.04781
1091.80 0.04775
1091.90 0.04769
1092.00 0.04763
1092.10 0.04758
1092.20 0.04752
1092.30 0.04747
1092.40 0.04741
1092.50 0.04736
1092.60 0.04731
1092.70 0.04725
1092.80 0.04721
1092.90 0.04716
1093.00 0.04711
1093.10 0.04706
1093.20 0.04702
1093.30 0.04697
1093.40 0.04693
1093.50 0.04689
1093.60 0.04686
1093.70 0.04684
1093.80 0.04684
1093.90 0.04684
1094.00 0.04683
1094.10 0.04682
1094.20 0.04681
1094.30 0.04681
1094.40 0.04683
1094.50 0.04684
1094.60 0.04685
1094.70 0.04687
1094.80 0.04688
1094.90 0.0469
1095.00 0.04692
1095.10 0.04694
1095.20 0.04696
1095.30 0.04699
1095.40 0.04701
1095.50 0.04703
1095.60 0.04706
1095.70 0.04708
1095.80 0.0471
1095.90 0.04713
1096.00 0.04715
1096.10 0.04717
1096.20 0.0472
1096.30 0.04722
1096.40 0.04724
1096.50 0.04727
1096.60 0.04729
1096.70 0.04732
1096.80 0.04734
1096.90 0.04737
1097.00 0.04739
1097.10 0.04741
1097.20 0.04743
1097.30 0.04745
1097.40 0.04747
1097.50 0.04749
1097.60 0.04751
1097.70 0.04754
1097.80 0.04756
1097.90 0.04758
1098.00 0.0476
1098.10 0.04762
1098.20 0.04764
1098.30 0.04766
1098.40 0.04768
1098.50 0.0477
1098.60 0.04771
1098.70 0.04772
1098.80 0.04773
1098.90 0.04775
1099.00 0.04776
1099.10 0.04777
1099.20 0.04778
1099.30 0.04779
1099.40 0.04781
1099.50 0.04782
1099.60 0.04783
1099.70 0.04784
1099.80 0.04785
1099.90 0.04786
1100.00 0.04788
1100.10 0.04789
1100.20 0.0479
1100.30 0.04791
1100.40 0.04792
1100.50 0.04793
1100.60 0.04794
1100.70 0.04794
1100.80 0.04794
1100.90 0.04795
1101.00 0.04795
1101.10 0.04796
1101.20 0.04796
1101.30 0.04796
1101.40 0.04797
1101.50 0.04797
1101.60 0.04797
1101.70 0.04798
1101.80 0.04798
1101.90 0.04798
1102.00 0.04799
1102.10 0.04799
1102.20 0.04799
1102.30 0.04799
1102.40 0.04799
1102.50 0.04799
1102.60 0.04799
1102.70 0.04798
1102.80 0.04798
1102.90 0.04798
1103.00 0.04798
1103.10 0.04797
1103.20 0.04797
1103.30 0.04797
1103.40 0.04797
1103.50 0.04796
1103.60 0.04796
1103.70 0.04795
1103.80 0.04795
1103.90 0.04794
1104.00 0.04793
1104.10 0.04793
1104.20 0.04792
1104.30 0.04792
1104.40 0.04791
1104.50 0.0479
1104.60 0.0479
1104.70 0.04789
1104.80 0.04789
1104.90 0.04788
1105.00 0.04787
1105.10 0.04787
1105.20 0.04786
1105.30 0.04786
1105.40 0.04785
1105.50 0.04784
1105.60 0.04783
1105.70 0.04782
1105.80 0.04782
1105.90 0.04781
1106.00 0.0478
1106.10 0.04779
1106.20 0.04778
1106.30 0.04777
1106.40 0.04776
1106.50 0.04775
1106.60 0.04774
1106.70 0.04773
1106.80 0.04772
1106.90 0.04772
1107.00 0.04771
1107.10 0.0477
1107.20 0.04769
1107.30 0.04768
1107.40 0.04767
1107.50 0.04765
1107.60 0.04764
1107.70 0.04763
1107.80 0.04762
1107.90 0.04761
1108.00 0.0476
1108.10 0.04758
1108.20 0.04757
1108.30 0.04756
1108.40 0.04755
1108.50 0.04754
1108.60 0.04753
1108.70 0.04751
1108.80 0.0475
1108.90 0.04749
1109.00 0.04748
1109.10 0.04747
1109.20 0.04746
1109.30 0.04744
1109.40 0.04743
1109.50 0.04742
1109.60 0.04741
1109.70 0.04739
1109.80 0.04738
1109.90 0.04737
1110.00 0.04735
1110.10 0.04734
1110.20 0.04733
1110.30 0.04732
1110.40 0.0473
1110.50 0.04729
1110.60 0.04728
1110.70 0.04726
1110.80 0.04725
1110.90 0.04724
1111.00 0.04722
1111.10 0.04721
1111.20 0.0472
1111.30 0.04718
1111.40 0.04717
1111.50 0.04716
1111.60 0.04714
1111.70 0.04713
1111.80 0.04712
1111.90 0.04711
1112.00 0.04709
1112.10 0.04708
1112.20 0.04706
1112.30 0.04705
1112.40 0.04704
1112.50 0.04702
1112.60 0.04701
1112.70 0.04699
1112.80 0.04698
1112.90 0.04697
1113.00 0.04695
1113.10 0.04694
1113.20 0.04692
1113.30 0.04691
1113.40 0.0469
1113.50 0.04688
1113.60 0.04687
1113.70 0.04685
1113.80 0.04684
1113.90 0.04682
1114.00 0.04681
1114.10 0.04679
1114.20 0.04678
1114.30 0.04676
1114.40 0.04675
1114.50 0.04673
1114.60 0.04672
1114.70 0.0467
1114.80 0.04669
1114.90 0.04668
1115.00 0.04666
1115.10 0.04665
1115.20 0.04663
1115.30 0.04662
1115.40 0.0466
1115.50 0.04659
1115.60 0.04657
1115.70 0.04656
1115.80 0.04654
1115.90 0.04653
1116.00 0.04651
1116.10 0.0465
1116.20 0.04649
1116.30 0.04647
1116.40 0.04646
1116.50 0.04644
1116.60 0.04643
1116.70 0.04641
1116.80 0.0464
1116.90 0.04638
1117.00 0.04637
1117.10 0.04635
1117.20 0.04634
1117.30 0.04632
1117.40 0.04631
1117.50 0.04629
1117.60 0.04628
1117.70 0.04626
1117.80 0.04625
1117.90 0.04623
1118.00 0.04622
1118.10 0.0462
1118.20 0.04619
1118.30 0.04617
1118.40 0.04616
1118.50 0.04614
1118.60 0.04613
1118.70 0.04611
1118.80 0.0461
1118.90 0.04608
1119.00 0.04606
1119.10 0.04605
1119.20 0.04603
1119.30 0.04602
1119.40 0.046
1119.50 0.04599
1119.60 0.04597
1119.70 0.04596
1119.80 0.04594
1119.90 0.04593
1120.00 0.04591
1120.10 0.0459
1120.20 0.04588
1120.30 0.04587
1120.40 0.04585
1120.50 0.04584
1120.60 0.04582
1120.70 0.04581
1120.80 0.04579
1120.90 0.04578
1121.00 0.04576
1121.10 0.04575
1121.20 0.04573
1121.30 0.04572
1121.40 0.0457
1121.50 0.04569
1121.60 0.04567
1121.70 0.04566
1121.80 0.04564
1121.90 0.04563
1122.00 0.04561
1122.10 0.0456
1122.20 0.04558
1122.30 0.04557
1122.40 0.04555
1122.50 0.04554
1122.60 0.04552
1122.70 0.04551
1122.80 0.04549
1122.90 0.04548
1123.00 0.04546
1123.10 0.04544
1123.20 0.04543
1123.30 0.04541
1123.40 0.0454
1123.50 0.04538
1123.60 0.04537
1123.70 0.04535
1123.80 0.04534
1123.90 0.04532
1124.00 0.04531
1124.10 0.04529
1124.20 0.04528
1124.30 0.04526
1124.40 0.04525
1124.50 0.04523
1124.60 0.04522
1124.70 0.0452
1124.80 0.04519
1124.90 0.04517
1125.00 0.04516
1125.10 0.04514
1125.20 0.04513
1125.30 0.04511
1125.40 0.04509
1125.50 0.04508
1125.60 0.04506
1125.70 0.04505
1125.80 0.04503
1125.90 0.04502
1126.00 0.045
1126.10 0.04499
1126.20 0.04497
1126.30 0.04496
1126.40 0.04494
1126.50 0.04493
1126.60 0.04491
1126.70 0.0449
1126.80 0.04488
1126.90 0.04487
1127.00 0.04485
1127.10 0.04484
1127.20 0.04482
1127.30 0.04481
1127.40 0.04479
1127.50 0.04478
1127.60 0.04476
1127.70 0.04475
1127.80 0.04473
1127.90 0.04472
1128.00 0.0447
1128.10 0.04469
1128.20 0.04467
1128.30 0.04466
1128.40 0.04464
1128.50 0.04463
1128.60 0.04461
1128.70 0.04459
1128.80 0.04458
1128.90 0.04456
1129.00 0.04455
1129.10 0.04453
1129.20 0.04452
1129.30 0.0445
1129.40 0.04449
1129.50 0.04447
1129.60 0.04446
1129.70 0.04444
1129.80 0.04443
1129.90 0.04441
1130.00 0.0444
1130.10 0.04438
1130.20 0.04437
1130.30 0.04435
1130.40 0.04434
1130.50 0.04432
1130.60 0.04431
1130.70 0.04429
1130.80 0.04428
1130.90 0.04426
1131.00 0.04425
1131.10 0.04423
1131.20 0.04422
1131.30 0.0442
1131.40 0.04419
1131.50 0.04417
1131.60 0.04416
1131.70 0.04414
1131.80 0.04413
1131.90 0.04411
1132.00 0.0441
1132.10 0.04408
1132.20 0.04407
1132.30 0.04405
1132.40 0.04404
1132.50 0.04402
1132.60 0.04401
1132.70 0.04399
1132.80 0.04398
1132.90 0.04396
1133.00 0.04395
1133.10 0.04393
1133.20 0.04392
1133.30 0.0439
1133.40 0.04389
1133.50 0.04387
1133.60 0.04386
1133.70 0.04384
1133.80 0.04383
1133.90 0.04381
1134.00 0.0438
1134.10 0.04378
1134.20 0.04377
1134.30 0.04376
1134.40 0.04374
1134.50 0.04373
1134.60 0.04371
1134.70 0.0437
1134.80 0.04368
1134.90 0.04367
1135.00 0.04365
1135.10 0.04364
1135.20 0.04362
1135.30 0.04361
1135.40 0.04359
1135.50 0.04358
1135.60 0.04356
1135.70 0.04355
1135.80 0.04353
1135.90 0.04352
1136.00 0.0435
1136.10 0.04349
1136.20 0.04347
1136.30 0.04346
1136.40 0.04344
1136.50 0.04343
1136.60 0.04341
1136.70 0.0434
1136.80 0.04338
1136.90 0.04337
1137.00 0.04336
1137.10 0.04334
1137.20 0.04333
1137.30 0.04331
1137.40 0.0433
1137.50 0.04328
1137.60 0.04327
1137.70 0.04325
1137.80 0.04324
1137.90 0.04322
1138.00 0.04321
1138.10 0.04319
1138.20 0.04318
1138.30 0.04316
1138.40 0.04315
1138.50 0.04313
1138.60 0.04312
1138.70 0.04311
1138.80 0.04309
1138.90 0.04308
1139.00 0.04306
1139.10 0.04305
1139.20 0.04303
1139.30 0.04302
1139.40 0.043
1139.50 0.04299
1139.60 0.04297
1139.70 0.04296
1139.80 0.04294
1139.90 0.04293
1140.00 0.04292
1140.10 0.0429
1140.20 0.04289
1140.30 0.04287
1140.40 0.04286
1140.50 0.04284
1140.60 0.04283
1140.70 0.04281
1140.80 0.0428
1140.90 0.04278
1141.00 0.04277
1141.10 0.04276
1141.20 0.04274
1141.30 0.04273
1141.40 0.04271
1141.50 0.0427
1141.60 0.04268
1141.70 0.04267
1141.80 0.04265
1141.90 0.04264
1142.00 0.04262
1142.10 0.04261
1142.20 0.0426
1142.30 0.04258
1142.40 0.04257
1142.50 0.04255
1142.60 0.04254
1142.70 0.04252
1142.80 0.04251
1142.90 0.04249
1143.00 0.04248
1143.10 0.04247
1143.20 0.04245
1143.30 0.04244
1143.40 0.04242
1143.50 0.04241
1143.60 0.04239
1143.70 0.04238
1143.80 0.04237
1143.90 0.04235
1144.00 0.04234
1144.10 0.04232
1144.20 0.04231
1144.30 0.04229
1144.40 0.04228
1144.50 0.04226
1144.60 0.04225
1144.70 0.04224
1144.80 0.04222
1144.90 0.04221
1145.00 0.04219
1145.10 0.04218
1145.20 0.04216
1145.30 0.04215
1145.40 0.04214
1145.50 0.04212
1145.60 0.04211
1145.70 0.04209
1145.80 0.04208
1145.90 0.04206
1146.00 0.04205
1146.10 0.04204
1146.20 0.04202
1146.30 0.04201
1146.40 0.04199
1146.50 0.04198
1146.60 0.04196
1146.70 0.04195
1146.80 0.04194
1146.90 0.04192
1147.00 0.04191
1147.10 0.04189
1147.20 0.04188
1147.30 0.04187
1147.40 0.04185
1147.50 0.04184
1147.60 0.04182
1147.70 0.04181
1147.80 0.04179
1147.90 0.04178
1148.00 0.04177
1148.10 0.04175
1148.20 0.04174
1148.30 0.04172
1148.40 0.04171
1148.50 0.0417
1148.60 0.04168
1148.70 0.04167
1148.80 0.04165
1148.90 0.04164
1149.00 0.04163
1149.10 0.04161
1149.20 0.0416
1149.30 0.04158
1149.40 0.04157
1149.50 0.04155
1149.60 0.04154
1149.70 0.04153
1149.80 0.04151
1149.90 0.0415
1150.00 0.04148
1150.10 0.04147
1150.20 0.04146
1150.30 0.04144
1150.40 0.04143
1150.50 0.04141
1150.60 0.0414
1150.70 0.04139
1150.80 0.04137
1150.90 0.04136
1151.00 0.04134
1151.10 0.04133
1151.20 0.04132
1151.30 0.0413
1151.40 0.04129
1151.50 0.04127
1151.60 0.04126
1151.70 0.04125
1151.80 0.04123
1151.90 0.04122
1152.00 0.0412
1152.10 0.04119
1152.20 0.04118
1152.30 0.04116
1152.40 0.04115
1152.50 0.04114
1152.60 0.04112
1152.70 0.04111
1152.80 0.04109
1152.90 0.04108
1153.00 0.04107
1153.10 0.04105
1153.20 0.04104
1153.30 0.04102
1153.40 0.04101
1153.50 0.041
1153.60 0.04098
1153.70 0.04097
1153.80 0.04096
1153.90 0.04094
1154.00 0.04093
1154.10 0.04091
1154.20 0.0409
1154.30 0.04089
1154.40 0.04087
1154.50 0.04086
1154.60 0.04085
1154.70 0.04083
1154.80 0.04082
1154.90 0.0408
1155.00 0.04079
1155.10 0.04078
1155.20 0.04076
1155.30 0.04075
1155.40 0.04073
1155.50 0.04072
1155.60 0.04071
1155.70 0.04069
1155.80 0.04068
1155.90 0.04067
1156.00 0.04065
1156.10 0.04064
1156.20 0.04063
1156.30 0.04061
1156.40 0.0406
1156.50 0.04058
1156.60 0.04057
1156.70 0.04056
1156.80 0.04054
1156.90 0.04053
1157.00 0.04052
1157.10 0.0405
1157.20 0.04049
1157.30 0.04047
1157.40 0.04046
1157.50 0.04045
1157.60 0.04043
1157.70 0.04042
1157.80 0.04041
1157.90 0.04039
1158.00 0.04038
1158.10 0.04037
1158.20 0.04035
1158.30 0.04034
1158.40 0.04033
1158.50 0.04031
1158.60 0.0403
1158.70 0.04028
1158.80 0.04027
1158.90 0.04026
1159.00 0.04024
1159.10 0.04023
1159.20 0.04022
1159.30 0.0402
1159.40 0.04019
1159.50 0.04018
1159.60 0.04016
1159.70 0.04015
1159.80 0.04014
1159.90 0.04012
1160.00 0.04011
1160.10 0.0401
1160.20 0.04008
1160.30 0.04007
1160.40 0.04006
1160.50 0.04004
1160.60 0.04003
1160.70 0.04001
1160.80 0.04
1160.90 0.03999
1161.00 0.03997
1161.10 0.03996
1161.20 0.03995
1161.30 0.03993
1161.40 0.03992
1161.50 0.03991
1161.60 0.03989
1161.70 0.03988
1161.80 0.03987
1161.90 0.03985
1162.00 0.03984
1162.10 0.03983
1162.20 0.03981
1162.30 0.0398
1162.40 0.03979
1162.50 0.03977
1162.60 0.03976
1162.70 0.03975
1162.80 0.03973
1162.90 0.03972
1163.00 0.03971
1163.10 0.03969
1163.20 0.03968
1163.30 0.03967
1163.40 0.03965
1163.50 0.03964
1163.60 0.03963
1163.70 0.03961
1163.80 0.0396
1163.90 0.03959
1164.00 0.03957
1164.10 0.03956
1164.20 0.03955
1164.30 0.03953
1164.40 0.03952
1164.50 0.03951
1164.60 0.0395
1164.70 0.03948
1164.80 0.03947
1164.90 0.03946
1165.00 0.03944
1165.10 0.03943
1165.20 0.03942
1165.30 0.0394
1165.40 0.03939
1165.50 0.03938
1165.60 0.03936
1165.70 0.03935
1165.80 0.03934
1165.90 0.03932
1166.00 0.03931
1166.10 0.0393
1166.20 0.03928
1166.30 0.03927
1166.40 0.03926
1166.50 0.03924
1166.60 0.03923
1166.70 0.03922
1166.80 0.03921
1166.90 0.03919
1167.00 0.03918
1167.10 0.03917
1167.20 0.03915
1167.30 0.03914
1167.40 0.03913
1167.50 0.03911
1167.60 0.0391
1167.70 0.03909
1167.80 0.03907
1167.90 0.03906
1168.00 0.03905
1168.10 0.03904
1168.20 0.03902
1168.30 0.03901
1168.40 0.039
1168.50 0.03898
1168.60 0.03897
1168.70 0.03896
1168.80 0.03894
1168.90 0.03893
1169.00 0.03892
1169.10 0.03891
1169.20 0.03889
1169.30 0.03888
1169.40 0.03887
1169.50 0.03885
1169.60 0.03884
1169.70 0.03883
1169.80 0.03881
1169.90 0.0388
1170.00 0.03879
1170.10 0.03878
1170.20 0.03876
1170.30 0.03875
1170.40 0.03874
1170.50 0.03872
1170.60 0.03871
1170.70 0.0387
1170.80 0.03869
1170.90 0.03867
1171.00 0.03866
1171.10 0.03865
1171.20 0.03863
1171.30 0.03862
1171.40 0.03861
1171.50 0.0386
1171.60 0.03858
1171.70 0.03857
1171.80 0.03856
1171.90 0.03854
1172.00 0.03853
1172.10 0.03852
1172.20 0.03851
1172.30 0.03849
1172.40 0.03848
1172.50 0.03847
1172.60 0.03845
1172.70 0.03844
1172.80 0.03843
1172.90 0.03842
1173.00 0.0384
1173.10 0.03839
1173.20 0.03838
1173.30 0.03836
1173.40 0.03835
1173.50 0.03834
1173.60 0.03833
1173.70 0.03831
1173.80 0.0383
1173.90 0.03829
1174.00 0.03828
1174.10 0.03826
1174.20 0.03825
1174.30 0.03824
1174.40 0.03822
1174.50 0.03821
1174.60 0.0382
1174.70 0.03819
1174.80 0.03817
1174.90 0.03816
1175.00 0.03815
1175.10 0.03814
1175.20 0.03812
1175.30 0.03811
1175.40 0.0381
1175.50 0.03809
1175.60 0.03807
1175.70 0.03806
1175.80 0.03805
1175.90 0.03803
1176.00 0.03802
1176.10 0.03801
1176.20 0.038
1176.30 0.03798
1176.40 0.03797
1176.50 0.03796
1176.60 0.03795
1176.70 0.03793
1176.80 0.03792
1176.90 0.03791
1177.00 0.0379
1177.10 0.03788
1177.20 0.03787
1177.30 0.03786
1177.40 0.03785
1177.50 0.03783
1177.60 0.03782
1177.70 0.03781
1177.80 0.0378
1177.90 0.03778
1178.00 0.03777
1178.10 0.03776
1178.20 0.03775
1178.30 0.03773
1178.40 0.03772
1178.50 0.03771
1178.60 0.0377
1178.70 0.03768
1178.80 0.03767
1178.90 0.03766
1179.00 0.03765
1179.10 0.03763
1179.20 0.03762
1179.30 0.03761
1179.40 0.0376
1179.50 0.03758
1179.60 0.03757
1179.70 0.03756
1179.80 0.03755
1179.90 0.03753
1180.00 0.03752
1180.10 0.03751
1180.20 0.0375
1180.30 0.03748
1180.40 0.03747
1180.50 0.03746
1180.60 0.03745
1180.70 0.03743
1180.80 0.03742
1180.90 0.03741
1181.00 0.0374
1181.10 0.03739
1181.20 0.03737
1181.30 0.03736
1181.40 0.03735
1181.50 0.03734
1181.60 0.03732
1181.70 0.03731
1181.80 0.0373
1181.90 0.03729
1182.00 0.03727
1182.10 0.03726
1182.20 0.03725
1182.30 0.03724
1182.40 0.03722
1182.50 0.03721
1182.60 0.0372
1182.70 0.03719
1182.80 0.03718
1182.90 0.03716
1183.00 0.03715
1183.10 0.03714
1183.20 0.03713
1183.30 0.03711
1183.40 0.0371
1183.50 0.03709
1183.60 0.03708
1183.70 0.03707
1183.80 0.03705
1183.90 0.03704
1184.00 0.03703
1184.10 0.03702
1184.20 0.037
1184.30 0.03699
1184.40 0.03698
1184.50 0.03697
1184.60 0.03696
1184.70 0.03694
1184.80 0.03693
1184.90 0.03692
1185.00 0.03691
1185.10 0.03689
1185.20 0.03688
1185.30 0.03687
1185.40 0.03686
1185.50 0.03685
1185.60 0.03683
1185.70 0.03682
1185.80 0.03681
1185.90 0.0368
1186.00 0.03679
1186.10 0.03677
1186.20 0.03676
1186.30 0.03675
1186.40 0.03674
1186.50 0.03673
1186.60 0.03671
1186.70 0.0367
1186.80 0.03669
1186.90 0.03668
1187.00 0.03666
1187.10 0.03665
1187.20 0.03664
1187.30 0.03663
1187.40 0.03662
1187.50 0.0366
1187.60 0.03659
1187.70 0.03658
1187.80 0.03657
1187.90 0.03656
1188.00 0.03654
1188.10 0.03653
1188.20 0.03652
1188.30 0.03651
1188.40 0.0365
1188.50 0.03648
1188.60 0.03647
1188.70 0.03646
1188.80 0.03645
1188.90 0.03644
1189.00 0.03642
1189.10 0.03641
1189.20 0.0364
1189.30 0.03639
1189.40 0.03638
1189.50 0.03636
1189.60 0.03635
1189.70 0.03634
1189.80 0.03633
1189.90 0.03632
1190.00 0.03631
1190.10 0.03629
1190.20 0.03628
1190.30 0.03627
1190.40 0.03626
1190.50 0.03625
1190.60 0.03623
1190.70 0.03622
1190.80 0.03621
1190.90 0.0362
1191.00 0.03619
1191.10 0.03617
1191.20 0.03616
1191.30 0.03615
1191.40 0.03614
1191.50 0.03613
1191.60 0.03611
1191.70 0.0361
1191.80 0.03609
1191.90 0.03608
1192.00 0.03607
1192.10 0.03606
1192.20 0.03604
1192.30 0.03603
1192.40 0.03602
1192.50 0.03601
1192.60 0.036
1192.70 0.03598
1192.80 0.03597
1192.90 0.03596
1193.00 0.03595
1193.10 0.03594
1193.20 0.03593
1193.30 0.03591
1193.40 0.0359
1193.50 0.03589
1193.60 0.03588
1193.70 0.03587
1193.80 0.03586
1193.90 0.03584
1194.00 0.03583
1194.10 0.03582
1194.20 0.03581
1194.30 0.0358
1194.40 0.03579
1194.50 0.03577
1194.60 0.03576
1194.70 0.03575
1194.80 0.03574
1194.90 0.03573
1195.00 0.03571
1195.10 0.0357
1195.20 0.03569
1195.30 0.03568
1195.40 0.03567
1195.50 0.03566
1195.60 0.03564
1195.70 0.03563
1195.80 0.03562
1195.90 0.03561
1196.00 0.0356
1196.10 0.03559
1196.20 0.03557
1196.30 0.03556
1196.40 0.03555
1196.50 0.03554
1196.60 0.03553
1196.70 0.03552
1196.80 0.03551
1196.90 0.03549
1197.00 0.03548
1197.10 0.03547
1197.20 0.03546
1197.30 0.03545
1197.40 0.03544
1197.50 0.03542
1197.60 0.03541
1197.70 0.0354
1197.80 0.03539
1197.90 0.03538
1198.00 0.03537
1198.10 0.03535
1198.20 0.03534
1198.30 0.03533
1198.40 0.03532
1198.50 0.03531
1198.60 0.0353
1198.70 0.03529
1198.80 0.03527
1198.90 0.03526
1199.00 0.03525
1199.10 0.03524
1199.20 0.03523
1199.30 0.03522
1199.40 0.03521
1199.50 0.03519
1199.60 0.03518
1199.70 0.03517
1199.80 0.03516
1199.90 0.03515
1200.00 0
