# Version 2.1 - nm, norm@500 to 1, cut digits, bergeron_2000_90.dat_2000
# Wavelength(nm)  Flambda(ergs/cm^s/s/nm)
300.00 0.05287
300.10 0.05303
300.20 0.05319
300.30 0.05335
300.40 0.05351
300.50 0.05368
300.60 0.05384
300.70 0.054
300.80 0.05416
300.90 0.05432
301.00 0.05449
301.10 0.05465
301.20 0.05481
301.30 0.05497
301.40 0.05513
301.50 0.05529
301.60 0.05545
301.70 0.05561
301.80 0.05577
301.90 0.05593
302.00 0.05609
302.10 0.05626
302.20 0.05642
302.30 0.05659
302.40 0.05676
302.50 0.05693
302.60 0.0571
302.70 0.05727
302.80 0.05744
302.90 0.05761
303.00 0.05777
303.10 0.05794
303.20 0.05811
303.30 0.05827
303.40 0.05844
303.50 0.05861
303.60 0.05877
303.70 0.05894
303.80 0.05911
303.90 0.05927
304.00 0.05944
304.10 0.05962
304.20 0.05979
304.30 0.05997
304.40 0.06014
304.50 0.06032
304.60 0.06049
304.70 0.06067
304.80 0.06084
304.90 0.06102
305.00 0.06119
305.10 0.06136
305.20 0.06154
305.30 0.06171
305.40 0.06188
305.50 0.06206
305.60 0.06223
305.70 0.0624
305.80 0.06257
305.90 0.06275
306.00 0.06293
306.10 0.06311
306.20 0.06329
306.30 0.06347
306.40 0.06365
306.50 0.06383
306.60 0.06401
306.70 0.0642
306.80 0.06438
306.90 0.06456
307.00 0.06474
307.10 0.06492
307.20 0.0651
307.30 0.06528
307.40 0.06546
307.50 0.06564
307.60 0.06582
307.70 0.066
307.80 0.06618
307.90 0.06636
308.00 0.06654
308.10 0.06673
308.20 0.06692
308.30 0.06711
308.40 0.06729
308.50 0.06748
308.60 0.06767
308.70 0.06786
308.80 0.06805
308.90 0.06824
309.00 0.06842
309.10 0.06861
309.20 0.0688
309.30 0.06899
309.40 0.06917
309.50 0.06936
309.60 0.06955
309.70 0.06973
309.80 0.06992
309.90 0.0701
310.00 0.0703
310.10 0.07049
310.20 0.07068
310.30 0.07088
310.40 0.07108
310.50 0.07127
310.60 0.07147
310.70 0.07167
310.80 0.07186
310.90 0.07206
311.00 0.07225
311.10 0.07245
311.20 0.07264
311.30 0.07284
311.40 0.07303
311.50 0.07322
311.60 0.07342
311.70 0.07361
311.80 0.0738
311.90 0.074
312.00 0.07419
312.10 0.07438
312.20 0.07458
312.30 0.07478
312.40 0.07498
312.50 0.07519
312.60 0.07539
312.70 0.07559
312.80 0.0758
312.90 0.076
313.00 0.0762
313.10 0.0764
313.20 0.07661
313.30 0.07681
313.40 0.07701
313.50 0.07721
313.60 0.07741
313.70 0.07761
313.80 0.07781
313.90 0.07801
314.00 0.07822
314.10 0.07842
314.20 0.07863
314.30 0.07884
314.40 0.07905
314.50 0.07926
314.60 0.07947
314.70 0.07968
314.80 0.07989
314.90 0.0801
315.00 0.08031
315.10 0.08052
315.20 0.08073
315.30 0.08094
315.40 0.08114
315.50 0.08135
315.60 0.08156
315.70 0.08176
315.80 0.08197
315.90 0.08218
316.00 0.08239
316.10 0.0826
316.20 0.08282
316.30 0.08304
316.40 0.08326
316.50 0.08347
316.60 0.08369
316.70 0.08391
316.80 0.08412
316.90 0.08434
317.00 0.08456
317.10 0.08477
317.20 0.08499
317.30 0.0852
317.40 0.08542
317.50 0.08563
317.60 0.08585
317.70 0.08606
317.80 0.08628
317.90 0.08649
318.00 0.08671
318.10 0.08693
318.20 0.08715
318.30 0.08738
318.40 0.0876
318.50 0.08783
318.60 0.08805
318.70 0.08828
318.80 0.0885
318.90 0.08873
319.00 0.08895
319.10 0.08917
319.20 0.0894
319.30 0.08962
319.40 0.08984
319.50 0.09006
319.60 0.09028
319.70 0.0905
319.80 0.09073
319.90 0.09095
320.00 0.09118
320.10 0.0914
320.20 0.09163
320.30 0.09187
320.40 0.0921
320.50 0.09233
320.60 0.09256
320.70 0.09279
320.80 0.09303
320.90 0.09326
321.00 0.09349
321.10 0.09372
321.20 0.09395
321.30 0.09418
321.40 0.09441
321.50 0.09464
321.60 0.09487
321.70 0.09509
321.80 0.09532
321.90 0.09555
322.00 0.09578
322.10 0.09602
322.20 0.09626
322.30 0.0965
322.40 0.09674
322.50 0.09698
322.60 0.09722
322.70 0.09746
322.80 0.0977
322.90 0.09794
323.00 0.09817
323.10 0.09841
323.20 0.09865
323.30 0.09889
323.40 0.09912
323.50 0.09936
323.60 0.0996
323.70 0.09983
323.80 0.1001
323.90 0.1003
324.00 0.1005
324.10 0.1008
324.20 0.101
324.30 0.1013
324.40 0.1015
324.50 0.1018
324.60 0.102
324.70 0.1023
324.80 0.1025
324.90 0.1028
325.00 0.103
325.10 0.1033
325.20 0.1035
325.30 0.1037
325.40 0.104
325.50 0.1042
325.60 0.1045
325.70 0.1047
325.80 0.105
325.90 0.1052
326.00 0.1055
326.10 0.1057
326.20 0.106
326.30 0.1062
326.40 0.1065
326.50 0.1067
326.60 0.107
326.70 0.1072
326.80 0.1075
326.90 0.1077
327.00 0.108
327.10 0.1082
327.20 0.1085
327.30 0.1088
327.40 0.109
327.50 0.1093
327.60 0.1095
327.70 0.1098
327.80 0.11
327.90 0.1103
328.00 0.1105
328.10 0.1108
328.20 0.111
328.30 0.1113
328.40 0.1116
328.50 0.1118
328.60 0.1121
328.70 0.1124
328.80 0.1126
328.90 0.1129
329.00 0.1131
329.10 0.1134
329.20 0.1137
329.30 0.1139
329.40 0.1142
329.50 0.1144
329.60 0.1147
329.70 0.115
329.80 0.1152
329.90 0.1155
330.00 0.1157
330.10 0.116
330.20 0.1163
330.30 0.1165
330.40 0.1168
330.50 0.1171
330.60 0.1174
330.70 0.1176
330.80 0.1179
330.90 0.1182
331.00 0.1184
331.10 0.1187
331.20 0.119
331.30 0.1192
331.40 0.1195
331.50 0.1198
331.60 0.12
331.70 0.1203
331.80 0.1206
331.90 0.1208
332.00 0.1211
332.10 0.1214
332.20 0.1217
332.30 0.1219
332.40 0.1222
332.50 0.1225
332.60 0.1228
332.70 0.123
332.80 0.1233
332.90 0.1236
333.00 0.1239
333.10 0.1241
333.20 0.1244
333.30 0.1247
333.40 0.125
333.50 0.1252
333.60 0.1255
333.70 0.1258
333.80 0.1261
333.90 0.1263
334.00 0.1266
334.10 0.1269
334.20 0.1272
334.30 0.1275
334.40 0.1278
334.50 0.128
334.60 0.1283
334.70 0.1286
334.80 0.1289
334.90 0.1292
335.00 0.1295
335.10 0.1298
335.20 0.13
335.30 0.1303
335.40 0.1306
335.50 0.1309
335.60 0.1312
335.70 0.1314
335.80 0.1317
335.90 0.132
336.00 0.1323
336.10 0.1326
336.20 0.1329
336.30 0.1332
336.40 0.1335
336.50 0.1338
336.60 0.1341
336.70 0.1343
336.80 0.1346
336.90 0.1349
337.00 0.1352
337.10 0.1355
337.20 0.1358
337.30 0.1361
337.40 0.1364
337.50 0.1367
337.60 0.137
337.70 0.1373
337.80 0.1375
337.90 0.1378
338.00 0.1381
338.10 0.1384
338.20 0.1387
338.30 0.139
338.40 0.1393
338.50 0.1396
338.60 0.1399
338.70 0.1402
338.80 0.1405
338.90 0.1408
339.00 0.1411
339.10 0.1414
339.20 0.1417
339.30 0.142
339.40 0.1423
339.50 0.1426
339.60 0.1429
339.70 0.1432
339.80 0.1435
339.90 0.1438
340.00 0.1441
340.10 0.1444
340.20 0.1447
340.30 0.145
340.40 0.1454
340.50 0.1457
340.60 0.146
340.70 0.1463
340.80 0.1466
340.90 0.1469
341.00 0.1472
341.10 0.1475
341.20 0.1478
341.30 0.1481
341.40 0.1484
341.50 0.1487
341.60 0.149
341.70 0.1493
341.80 0.1496
341.90 0.15
342.00 0.1503
342.10 0.1506
342.20 0.1509
342.30 0.1512
342.40 0.1515
342.50 0.1518
342.60 0.1522
342.70 0.1525
342.80 0.1528
342.90 0.1531
343.00 0.1534
343.10 0.1537
343.20 0.1541
343.30 0.1544
343.40 0.1547
343.50 0.155
343.60 0.1553
343.70 0.1556
343.80 0.1559
343.90 0.1563
344.00 0.1566
344.10 0.1569
344.20 0.1572
344.30 0.1575
344.40 0.1579
344.50 0.1582
344.60 0.1585
344.70 0.1588
344.80 0.1592
344.90 0.1595
345.00 0.1598
345.10 0.1601
345.20 0.1605
345.30 0.1608
345.40 0.1611
345.50 0.1614
345.60 0.1617
345.70 0.1621
345.80 0.1624
345.90 0.1627
346.00 0.163
346.10 0.1634
346.20 0.1637
346.30 0.164
346.40 0.1644
346.50 0.1647
346.60 0.165
346.70 0.1654
346.80 0.1657
346.90 0.166
347.00 0.1663
347.10 0.1667
347.20 0.167
347.30 0.1673
347.40 0.1677
347.50 0.168
347.60 0.1683
347.70 0.1686
347.80 0.169
347.90 0.1693
348.00 0.1696
348.10 0.17
348.20 0.1703
348.30 0.1707
348.40 0.171
348.50 0.1713
348.60 0.1717
348.70 0.172
348.80 0.1724
348.90 0.1727
349.00 0.173
349.10 0.1734
349.20 0.1737
349.30 0.1741
349.40 0.1744
349.50 0.1747
349.60 0.1751
349.70 0.1754
349.80 0.1757
349.90 0.1761
350.00 0.1764
350.10 0.1768
350.20 0.1771
350.30 0.1775
350.40 0.1778
350.50 0.1782
350.60 0.1785
350.70 0.1788
350.80 0.1792
350.90 0.1795
351.00 0.1799
351.10 0.1802
351.20 0.1806
351.30 0.1809
351.40 0.1813
351.50 0.1816
351.60 0.182
351.70 0.1823
351.80 0.1826
351.90 0.183
352.00 0.1833
352.10 0.1837
352.20 0.184
352.30 0.1844
352.40 0.1848
352.50 0.1851
352.60 0.1855
352.70 0.1858
352.80 0.1862
352.90 0.1865
353.00 0.1869
353.10 0.1872
353.20 0.1876
353.30 0.188
353.40 0.1883
353.50 0.1887
353.60 0.189
353.70 0.1894
353.80 0.1897
353.90 0.1901
354.00 0.1904
354.10 0.1908
354.20 0.1911
354.30 0.1915
354.40 0.1919
354.50 0.1922
354.60 0.1926
354.70 0.193
354.80 0.1933
354.90 0.1937
355.00 0.1941
355.10 0.1944
355.20 0.1948
355.30 0.1951
355.40 0.1955
355.50 0.1959
355.60 0.1962
355.70 0.1966
355.80 0.1969
355.90 0.1973
356.00 0.1977
356.10 0.198
356.20 0.1984
356.30 0.1988
356.40 0.1991
356.50 0.1995
356.60 0.1999
356.70 0.2003
356.80 0.2006
356.90 0.201
357.00 0.2014
357.10 0.2017
357.20 0.2021
357.30 0.2025
357.40 0.2028
357.50 0.2032
357.60 0.2036
357.70 0.2039
357.80 0.2043
357.90 0.2047
358.00 0.205
358.10 0.2054
358.20 0.2058
358.30 0.2062
358.40 0.2066
358.50 0.2069
358.60 0.2073
358.70 0.2077
358.80 0.2081
358.90 0.2085
359.00 0.2088
359.10 0.2092
359.20 0.2096
359.30 0.21
359.40 0.2104
359.50 0.2107
359.60 0.2111
359.70 0.2115
359.80 0.2119
359.90 0.2122
360.00 0.2126
360.10 0.213
360.20 0.2134
360.30 0.2138
360.40 0.2142
360.50 0.2145
360.60 0.2149
360.70 0.2153
360.80 0.2157
360.90 0.2161
361.00 0.2165
361.10 0.2169
361.20 0.2172
361.30 0.2176
361.40 0.218
361.50 0.2184
361.60 0.2188
361.70 0.2192
361.80 0.2195
361.90 0.2199
362.00 0.2203
362.10 0.2207
362.20 0.2211
362.30 0.2215
362.40 0.2219
362.50 0.2223
362.60 0.2227
362.70 0.223
362.80 0.2234
362.90 0.2238
363.00 0.2242
363.10 0.2246
363.20 0.225
363.30 0.2254
363.40 0.2258
363.50 0.2262
363.60 0.2266
363.70 0.227
363.80 0.2274
363.90 0.2278
364.00 0.2282
364.10 0.2286
364.20 0.229
364.30 0.2294
364.40 0.2297
364.50 0.2301
364.60 0.2306
364.70 0.231
364.80 0.2314
364.90 0.2318
365.00 0.2322
365.10 0.2326
365.20 0.233
365.30 0.2334
365.40 0.2338
365.50 0.2342
365.60 0.2346
365.70 0.235
365.80 0.2354
365.90 0.2358
366.00 0.2362
366.10 0.2366
366.20 0.237
366.30 0.2374
366.40 0.2378
366.50 0.2382
366.60 0.2386
366.70 0.239
366.80 0.2394
366.90 0.2399
367.00 0.2403
367.10 0.2407
367.20 0.2411
367.30 0.2415
367.40 0.2419
367.50 0.2423
367.60 0.2427
367.70 0.2431
367.80 0.2435
367.90 0.2439
368.00 0.2443
368.10 0.2447
368.20 0.2452
368.30 0.2456
368.40 0.246
368.50 0.2464
368.60 0.2468
368.70 0.2473
368.80 0.2477
368.90 0.2481
369.00 0.2485
369.10 0.2489
369.20 0.2493
369.30 0.2497
369.40 0.2502
369.50 0.2506
369.60 0.251
369.70 0.2514
369.80 0.2518
369.90 0.2522
370.00 0.2526
370.10 0.2531
370.20 0.2535
370.30 0.2539
370.40 0.2543
370.50 0.2548
370.60 0.2552
370.70 0.2556
370.80 0.256
370.90 0.2565
371.00 0.2569
371.10 0.2573
371.20 0.2577
371.30 0.2581
371.40 0.2586
371.50 0.259
371.60 0.2594
371.70 0.2598
371.80 0.2603
371.90 0.2607
372.00 0.2611
372.10 0.2615
372.20 0.262
372.30 0.2624
372.40 0.2628
372.50 0.2633
372.60 0.2637
372.70 0.2641
372.80 0.2646
372.90 0.265
373.00 0.2654
373.10 0.2658
373.20 0.2663
373.30 0.2667
373.40 0.2671
373.50 0.2676
373.60 0.268
373.70 0.2684
373.80 0.2688
373.90 0.2693
374.00 0.2697
374.10 0.2701
374.20 0.2706
374.30 0.271
374.40 0.2715
374.50 0.2719
374.60 0.2723
374.70 0.2728
374.80 0.2732
374.90 0.2736
375.00 0.2741
375.10 0.2745
375.20 0.275
375.30 0.2754
375.40 0.2758
375.50 0.2763
375.60 0.2767
375.70 0.2771
375.80 0.2776
375.90 0.278
376.00 0.2784
376.10 0.2789
376.20 0.2793
376.30 0.2798
376.40 0.2802
376.50 0.2807
376.60 0.2811
376.70 0.2815
376.80 0.282
376.90 0.2824
377.00 0.2829
377.10 0.2833
377.20 0.2838
377.30 0.2842
377.40 0.2847
377.50 0.2851
377.60 0.2855
377.70 0.286
377.80 0.2864
377.90 0.2869
378.00 0.2873
378.10 0.2878
378.20 0.2882
378.30 0.2887
378.40 0.2891
378.50 0.2896
378.60 0.29
378.70 0.2905
378.80 0.2909
378.90 0.2914
379.00 0.2918
379.10 0.2923
379.20 0.2927
379.30 0.2932
379.40 0.2937
379.50 0.2941
379.60 0.2946
379.70 0.295
379.80 0.2955
379.90 0.2959
380.00 0.2964
380.10 0.2968
380.20 0.2973
380.30 0.2977
380.40 0.2982
380.50 0.2987
380.60 0.2991
380.70 0.2996
380.80 0.3
380.90 0.3005
381.00 0.3009
381.10 0.3014
381.20 0.3019
381.30 0.3023
381.40 0.3028
381.50 0.3032
381.60 0.3037
381.70 0.3042
381.80 0.3046
381.90 0.3051
382.00 0.3056
382.10 0.306
382.20 0.3065
382.30 0.3069
382.40 0.3074
382.50 0.3079
382.60 0.3083
382.70 0.3088
382.80 0.3093
382.90 0.3097
383.00 0.3102
383.10 0.3107
383.20 0.3111
383.30 0.3116
383.40 0.3121
383.50 0.3125
383.60 0.313
383.70 0.3135
383.80 0.3139
383.90 0.3144
384.00 0.3149
384.10 0.3153
384.20 0.3158
384.30 0.3163
384.40 0.3167
384.50 0.3172
384.60 0.3177
384.70 0.3182
384.80 0.3186
384.90 0.3191
385.00 0.3196
385.10 0.32
385.20 0.3205
385.30 0.321
385.40 0.3215
385.50 0.3219
385.60 0.3224
385.70 0.3229
385.80 0.3234
385.90 0.3238
386.00 0.3243
386.10 0.3248
386.20 0.3253
386.30 0.3257
386.40 0.3262
386.50 0.3267
386.60 0.3272
386.70 0.3277
386.80 0.3281
386.90 0.3286
387.00 0.3291
387.10 0.3296
387.20 0.3301
387.30 0.3305
387.40 0.331
387.50 0.3315
387.60 0.332
387.70 0.3325
387.80 0.3329
387.90 0.3334
388.00 0.3339
388.10 0.3344
388.20 0.3349
388.30 0.3354
388.40 0.3358
388.50 0.3363
388.60 0.3368
388.70 0.3373
388.80 0.3378
388.90 0.3383
389.00 0.3388
389.10 0.3392
389.20 0.3397
389.30 0.3402
389.40 0.3407
389.50 0.3412
389.60 0.3417
389.70 0.3422
389.80 0.3427
389.90 0.3431
390.00 0.3436
390.10 0.3441
390.20 0.3446
390.30 0.3451
390.40 0.3456
390.50 0.3461
390.60 0.3466
390.70 0.3471
390.80 0.3476
390.90 0.348
391.00 0.3485
391.10 0.349
391.20 0.3495
391.30 0.35
391.40 0.3505
391.50 0.351
391.60 0.3515
391.70 0.352
391.80 0.3525
391.90 0.353
392.00 0.3535
392.10 0.354
392.20 0.3545
392.30 0.355
392.40 0.3555
392.50 0.356
392.60 0.3565
392.70 0.357
392.80 0.3575
392.90 0.358
393.00 0.3585
393.10 0.359
393.20 0.3595
393.30 0.36
393.40 0.3605
393.50 0.361
393.60 0.3615
393.70 0.362
393.80 0.3625
393.90 0.363
394.00 0.3635
394.10 0.364
394.20 0.3645
394.30 0.365
394.40 0.3655
394.50 0.366
394.60 0.3665
394.70 0.367
394.80 0.3675
394.90 0.368
395.00 0.3685
395.10 0.369
395.20 0.3695
395.30 0.37
395.40 0.3705
395.50 0.371
395.60 0.3715
395.70 0.3721
395.80 0.3726
395.90 0.3731
396.00 0.3736
396.10 0.3741
396.20 0.3746
396.30 0.3751
396.40 0.3756
396.50 0.3761
396.60 0.3766
396.70 0.3771
396.80 0.3777
396.90 0.3782
397.00 0.3787
397.10 0.3792
397.20 0.3797
397.30 0.3802
397.40 0.3807
397.50 0.3812
397.60 0.3818
397.70 0.3823
397.80 0.3828
397.90 0.3833
398.00 0.3838
398.10 0.3843
398.20 0.3848
398.30 0.3854
398.40 0.3859
398.50 0.3864
398.60 0.3869
398.70 0.3874
398.80 0.3879
398.90 0.3885
399.00 0.389
399.10 0.3895
399.20 0.39
399.30 0.3905
399.40 0.3911
399.50 0.3916
399.60 0.3921
399.70 0.3926
399.80 0.3931
399.90 0.3937
400.00 0.3942
400.10 0.3947
400.20 0.3952
400.30 0.3957
400.40 0.3963
400.50 0.3968
400.60 0.3973
400.70 0.3978
400.80 0.3983
400.90 0.3989
401.00 0.3994
401.10 0.3999
401.20 0.4004
401.30 0.401
401.40 0.4015
401.50 0.402
401.60 0.4025
401.70 0.4031
401.80 0.4036
401.90 0.4041
402.00 0.4046
402.10 0.4052
402.20 0.4057
402.30 0.4062
402.40 0.4068
402.50 0.4073
402.60 0.4078
402.70 0.4083
402.80 0.4089
402.90 0.4094
403.00 0.4099
403.10 0.4105
403.20 0.411
403.30 0.4115
403.40 0.412
403.50 0.4126
403.60 0.4131
403.70 0.4136
403.80 0.4142
403.90 0.4147
404.00 0.4152
404.10 0.4158
404.20 0.4163
404.30 0.4168
404.40 0.4174
404.50 0.4179
404.60 0.4184
404.70 0.419
404.80 0.4195
404.90 0.42
405.00 0.4206
405.10 0.4211
405.20 0.4217
405.30 0.4222
405.40 0.4227
405.50 0.4233
405.60 0.4238
405.70 0.4243
405.80 0.4249
405.90 0.4254
406.00 0.4259
406.10 0.4265
406.20 0.427
406.30 0.4276
406.40 0.4281
406.50 0.4286
406.60 0.4292
406.70 0.4297
406.80 0.4303
406.90 0.4308
407.00 0.4313
407.10 0.4319
407.20 0.4324
407.30 0.433
407.40 0.4335
407.50 0.4341
407.60 0.4346
407.70 0.4351
407.80 0.4357
407.90 0.4362
408.00 0.4368
408.10 0.4373
408.20 0.4379
408.30 0.4384
408.40 0.4389
408.50 0.4395
408.60 0.44
408.70 0.4406
408.80 0.4411
408.90 0.4417
409.00 0.4422
409.10 0.4428
409.20 0.4433
409.30 0.4439
409.40 0.4444
409.50 0.445
409.60 0.4455
409.70 0.4461
409.80 0.4466
409.90 0.4471
410.00 0.4477
410.10 0.4482
410.20 0.4488
410.30 0.4493
410.40 0.4499
410.50 0.4504
410.60 0.451
410.70 0.4515
410.80 0.4521
410.90 0.4527
411.00 0.4532
411.10 0.4538
411.20 0.4543
411.30 0.4549
411.40 0.4554
411.50 0.456
411.60 0.4565
411.70 0.4571
411.80 0.4576
411.90 0.4582
412.00 0.4587
412.10 0.4593
412.20 0.4598
412.30 0.4604
412.40 0.461
412.50 0.4615
412.60 0.4621
412.70 0.4626
412.80 0.4632
412.90 0.4637
413.00 0.4643
413.10 0.4648
413.20 0.4654
413.30 0.466
413.40 0.4665
413.50 0.4671
413.60 0.4676
413.70 0.4682
413.80 0.4688
413.90 0.4693
414.00 0.4699
414.10 0.4704
414.20 0.471
414.30 0.4716
414.40 0.4721
414.50 0.4727
414.60 0.4732
414.70 0.4738
414.80 0.4744
414.90 0.4749
415.00 0.4755
415.10 0.476
415.20 0.4766
415.30 0.4772
415.40 0.4777
415.50 0.4783
415.60 0.4789
415.70 0.4794
415.80 0.48
415.90 0.4806
416.00 0.4811
416.10 0.4817
416.20 0.4822
416.30 0.4828
416.40 0.4834
416.50 0.4839
416.60 0.4845
416.70 0.4851
416.80 0.4856
416.90 0.4862
417.00 0.4868
417.10 0.4873
417.20 0.4879
417.30 0.4885
417.40 0.489
417.50 0.4896
417.60 0.4902
417.70 0.4907
417.80 0.4913
417.90 0.4919
418.00 0.4925
418.10 0.493
418.20 0.4936
418.30 0.4942
418.40 0.4947
418.50 0.4953
418.60 0.4959
418.70 0.4964
418.80 0.497
418.90 0.4976
419.00 0.4982
419.10 0.4987
419.20 0.4993
419.30 0.4999
419.40 0.5004
419.50 0.501
419.60 0.5016
419.70 0.5022
419.80 0.5027
419.90 0.5033
420.00 0.5039
420.10 0.5045
420.20 0.505
420.30 0.5056
420.40 0.5062
420.50 0.5068
420.60 0.5073
420.70 0.5079
420.80 0.5085
420.90 0.5091
421.00 0.5096
421.10 0.5102
421.20 0.5108
421.30 0.5114
421.40 0.5119
421.50 0.5125
421.60 0.5131
421.70 0.5137
421.80 0.5143
421.90 0.5148
422.00 0.5154
422.10 0.516
422.20 0.5166
422.30 0.5172
422.40 0.5177
422.50 0.5183
422.60 0.5189
422.70 0.5195
422.80 0.52
422.90 0.5206
423.00 0.5212
423.10 0.5218
423.20 0.5224
423.30 0.5229
423.40 0.5235
423.50 0.5241
423.60 0.5247
423.70 0.5253
423.80 0.5259
423.90 0.5264
424.00 0.527
424.10 0.5276
424.20 0.5282
424.30 0.5288
424.40 0.5294
424.50 0.5299
424.60 0.5305
424.70 0.5311
424.80 0.5317
424.90 0.5323
425.00 0.5329
425.10 0.5334
425.20 0.534
425.30 0.5346
425.40 0.5352
425.50 0.5358
425.60 0.5364
425.70 0.537
425.80 0.5376
425.90 0.5381
426.00 0.5387
426.10 0.5393
426.20 0.5399
426.30 0.5405
426.40 0.5411
426.50 0.5417
426.60 0.5423
426.70 0.5428
426.80 0.5434
426.90 0.544
427.00 0.5446
427.10 0.5452
427.20 0.5458
427.30 0.5464
427.40 0.547
427.50 0.5476
427.60 0.5481
427.70 0.5487
427.80 0.5493
427.90 0.5499
428.00 0.5505
428.10 0.5511
428.20 0.5517
428.30 0.5523
428.40 0.5529
428.50 0.5535
428.60 0.5541
428.70 0.5547
428.80 0.5552
428.90 0.5558
429.00 0.5564
429.10 0.557
429.20 0.5576
429.30 0.5582
429.40 0.5588
429.50 0.5594
429.60 0.56
429.70 0.5606
429.80 0.5612
429.90 0.5618
430.00 0.5624
430.10 0.563
430.20 0.5636
430.30 0.5642
430.40 0.5648
430.50 0.5654
430.60 0.5659
430.70 0.5665
430.80 0.5671
430.90 0.5677
431.00 0.5683
431.10 0.5689
431.20 0.5695
431.30 0.5701
431.40 0.5707
431.50 0.5713
431.60 0.5719
431.70 0.5725
431.80 0.5731
431.90 0.5737
432.00 0.5743
432.10 0.5749
432.20 0.5755
432.30 0.5761
432.40 0.5767
432.50 0.5773
432.60 0.5779
432.70 0.5785
432.80 0.5791
432.90 0.5797
433.00 0.5803
433.10 0.5809
433.20 0.5815
433.30 0.5821
433.40 0.5827
433.50 0.5833
433.60 0.5839
433.70 0.5845
433.80 0.5851
433.90 0.5857
434.00 0.5863
434.10 0.5869
434.20 0.5875
434.30 0.5881
434.40 0.5887
434.50 0.5893
434.60 0.5899
434.70 0.5905
434.80 0.5912
434.90 0.5918
435.00 0.5924
435.10 0.593
435.20 0.5936
435.30 0.5942
435.40 0.5948
435.50 0.5954
435.60 0.596
435.70 0.5966
435.80 0.5972
435.90 0.5978
436.00 0.5984
436.10 0.599
436.20 0.5996
436.30 0.6002
436.40 0.6008
436.50 0.6014
436.60 0.602
436.70 0.6027
436.80 0.6033
436.90 0.6039
437.00 0.6045
437.10 0.6051
437.20 0.6057
437.30 0.6063
437.40 0.6069
437.50 0.6075
437.60 0.6081
437.70 0.6087
437.80 0.6093
437.90 0.61
438.00 0.6106
438.10 0.6112
438.20 0.6118
438.30 0.6124
438.40 0.613
438.50 0.6136
438.60 0.6142
438.70 0.6148
438.80 0.6154
438.90 0.616
439.00 0.6167
439.10 0.6173
439.20 0.6179
439.30 0.6185
439.40 0.6191
439.50 0.6197
439.60 0.6203
439.70 0.6209
439.80 0.6215
439.90 0.6222
440.00 0.6228
440.10 0.6234
440.20 0.624
440.30 0.6246
440.40 0.6252
440.50 0.6258
440.60 0.6264
440.70 0.6271
440.80 0.6277
440.90 0.6283
441.00 0.6289
441.10 0.6295
441.20 0.6301
441.30 0.6307
441.40 0.6314
441.50 0.632
441.60 0.6326
441.70 0.6332
441.80 0.6338
441.90 0.6344
442.00 0.635
442.10 0.6357
442.20 0.6363
442.30 0.6369
442.40 0.6375
442.50 0.6381
442.60 0.6387
442.70 0.6394
442.80 0.64
442.90 0.6406
443.00 0.6412
443.10 0.6418
443.20 0.6424
443.30 0.6431
443.40 0.6437
443.50 0.6443
443.60 0.6449
443.70 0.6455
443.80 0.6461
443.90 0.6468
444.00 0.6474
444.10 0.648
444.20 0.6486
444.30 0.6492
444.40 0.6498
444.50 0.6505
444.60 0.6511
444.70 0.6517
444.80 0.6523
444.90 0.6529
445.00 0.6536
445.10 0.6542
445.20 0.6548
445.30 0.6554
445.40 0.656
445.50 0.6567
445.60 0.6573
445.70 0.6579
445.80 0.6585
445.90 0.6591
446.00 0.6598
446.10 0.6604
446.20 0.661
446.30 0.6616
446.40 0.6622
446.50 0.6629
446.60 0.6635
446.70 0.6641
446.80 0.6647
446.90 0.6653
447.00 0.666
447.10 0.6666
447.20 0.6672
447.30 0.6678
447.40 0.6685
447.50 0.6691
447.60 0.6697
447.70 0.6703
447.80 0.6709
447.90 0.6716
448.00 0.6722
448.10 0.6728
448.20 0.6734
448.30 0.6741
448.40 0.6747
448.50 0.6753
448.60 0.6759
448.70 0.6765
448.80 0.6772
448.90 0.6778
449.00 0.6784
449.10 0.679
449.20 0.6797
449.30 0.6803
449.40 0.6809
449.50 0.6815
449.60 0.6822
449.70 0.6828
449.80 0.6834
449.90 0.684
450.00 0.6847
450.10 0.6853
450.20 0.6859
450.30 0.6865
450.40 0.6872
450.50 0.6878
450.60 0.6884
450.70 0.689
450.80 0.6897
450.90 0.6903
451.00 0.6909
451.10 0.6915
451.20 0.6922
451.30 0.6928
451.40 0.6934
451.50 0.694
451.60 0.6947
451.70 0.6953
451.80 0.6959
451.90 0.6966
452.00 0.6972
452.10 0.6978
452.20 0.6984
452.30 0.6991
452.40 0.6997
452.50 0.7003
452.60 0.701
452.70 0.7016
452.80 0.7022
452.90 0.7028
453.00 0.7035
453.10 0.7041
453.20 0.7047
453.30 0.7053
453.40 0.706
453.50 0.7066
453.60 0.7072
453.70 0.7079
453.80 0.7085
453.90 0.7091
454.00 0.7097
454.10 0.7104
454.20 0.711
454.30 0.7116
454.40 0.7123
454.50 0.7129
454.60 0.7135
454.70 0.7141
454.80 0.7148
454.90 0.7154
455.00 0.716
455.10 0.7167
455.20 0.7173
455.30 0.7179
455.40 0.7186
455.50 0.7192
455.60 0.7198
455.70 0.7205
455.80 0.7211
455.90 0.7217
456.00 0.7223
456.10 0.723
456.20 0.7236
456.30 0.7242
456.40 0.7249
456.50 0.7255
456.60 0.7261
456.70 0.7268
456.80 0.7274
456.90 0.728
457.00 0.7286
457.10 0.7293
457.20 0.7299
457.30 0.7305
457.40 0.7311
457.50 0.7318
457.60 0.7324
457.70 0.7331
457.80 0.7337
457.90 0.7343
458.00 0.735
458.10 0.7356
458.20 0.7362
458.30 0.7369
458.40 0.7375
458.50 0.7381
458.60 0.7388
458.70 0.7394
458.80 0.74
458.90 0.7407
459.00 0.7413
459.10 0.7419
459.20 0.7426
459.30 0.7432
459.40 0.7438
459.50 0.7444
459.60 0.7451
459.70 0.7457
459.80 0.7463
459.90 0.747
460.00 0.7476
460.10 0.7482
460.20 0.7489
460.30 0.7495
460.40 0.7502
460.50 0.7508
460.60 0.7514
460.70 0.7521
460.80 0.7527
460.90 0.7533
461.00 0.754
461.10 0.7546
461.20 0.7552
461.30 0.7559
461.40 0.7565
461.50 0.7571
461.60 0.7578
461.70 0.7584
461.80 0.759
461.90 0.7597
462.00 0.7603
462.10 0.7609
462.20 0.7616
462.30 0.7622
462.40 0.7628
462.50 0.7635
462.60 0.7641
462.70 0.7648
462.80 0.7654
462.90 0.766
463.00 0.7667
463.10 0.7673
463.20 0.7679
463.30 0.7686
463.40 0.7692
463.50 0.7698
463.60 0.7704
463.70 0.7711
463.80 0.7717
463.90 0.7723
464.00 0.773
464.10 0.7736
464.20 0.7742
464.30 0.7749
464.40 0.7755
464.50 0.7761
464.60 0.7768
464.70 0.7774
464.80 0.7781
464.90 0.7787
465.00 0.7793
465.10 0.78
465.20 0.7806
465.30 0.7812
465.40 0.7819
465.50 0.7825
465.60 0.7832
465.70 0.7838
465.80 0.7844
465.90 0.7851
466.00 0.7857
466.10 0.7863
466.20 0.787
466.30 0.7876
466.40 0.7882
466.50 0.7889
466.60 0.7895
466.70 0.7901
466.80 0.7908
466.90 0.7914
467.00 0.792
467.10 0.7927
467.20 0.7933
467.30 0.7939
467.40 0.7946
467.50 0.7952
467.60 0.7959
467.70 0.7965
467.80 0.7971
467.90 0.7978
468.00 0.7984
468.10 0.7991
468.20 0.7997
468.30 0.8003
468.40 0.801
468.50 0.8016
468.60 0.8022
468.70 0.8029
468.80 0.8035
468.90 0.8041
469.00 0.8048
469.10 0.8054
469.20 0.806
469.30 0.8067
469.40 0.8073
469.50 0.808
469.60 0.8086
469.70 0.8092
469.80 0.8099
469.90 0.8105
470.00 0.8111
470.10 0.8118
470.20 0.8124
470.30 0.813
470.40 0.8137
470.50 0.8143
470.60 0.815
470.70 0.8156
470.80 0.8162
470.90 0.8169
471.00 0.8175
471.10 0.8182
471.20 0.8188
471.30 0.8194
471.40 0.8201
471.50 0.8207
471.60 0.8213
471.70 0.822
471.80 0.8226
471.90 0.8233
472.00 0.8239
472.10 0.8245
472.20 0.8252
472.30 0.8258
472.40 0.8264
472.50 0.8271
472.60 0.8277
472.70 0.8283
472.80 0.829
472.90 0.8296
473.00 0.8302
473.10 0.8309
473.20 0.8315
473.30 0.8322
473.40 0.8328
473.50 0.8334
473.60 0.8341
473.70 0.8347
473.80 0.8353
473.90 0.836
474.00 0.8366
474.10 0.8373
474.20 0.8379
474.30 0.8385
474.40 0.8392
474.50 0.8398
474.60 0.8404
474.70 0.8411
474.80 0.8417
474.90 0.8424
475.00 0.843
475.10 0.8436
475.20 0.8443
475.30 0.8449
475.40 0.8455
475.50 0.8462
475.60 0.8468
475.70 0.8475
475.80 0.8481
475.90 0.8487
476.00 0.8494
476.10 0.85
476.20 0.8506
476.30 0.8513
476.40 0.8519
476.50 0.8525
476.60 0.8532
476.70 0.8538
476.80 0.8544
476.90 0.8551
477.00 0.8557
477.10 0.8563
477.20 0.857
477.30 0.8576
477.40 0.8582
477.50 0.8589
477.60 0.8595
477.70 0.8602
477.80 0.8608
477.90 0.8614
478.00 0.8621
478.10 0.8627
478.20 0.8634
478.30 0.864
478.40 0.8646
478.50 0.8653
478.60 0.8659
478.70 0.8665
478.80 0.8672
478.90 0.8678
479.00 0.8684
479.10 0.8691
479.20 0.8697
479.30 0.8703
479.40 0.871
479.50 0.8716
479.60 0.8722
479.70 0.8729
479.80 0.8735
479.90 0.8741
480.00 0.8748
480.10 0.8754
480.20 0.876
480.30 0.8767
480.40 0.8773
480.50 0.8779
480.60 0.8786
480.70 0.8792
480.80 0.8798
480.90 0.8805
481.00 0.8811
481.10 0.8817
481.20 0.8824
481.30 0.883
481.40 0.8836
481.50 0.8843
481.60 0.8849
481.70 0.8855
481.80 0.8862
481.90 0.8868
482.00 0.8874
482.10 0.8881
482.20 0.8887
482.30 0.8893
482.40 0.89
482.50 0.8906
482.60 0.8913
482.70 0.8919
482.80 0.8925
482.90 0.8932
483.00 0.8938
483.10 0.8944
483.20 0.8951
483.30 0.8957
483.40 0.8963
483.50 0.897
483.60 0.8976
483.70 0.8982
483.80 0.8988
483.90 0.8995
484.00 0.9001
484.10 0.9007
484.20 0.9014
484.30 0.902
484.40 0.9026
484.50 0.9033
484.60 0.9039
484.70 0.9046
484.80 0.9052
484.90 0.9058
485.00 0.9065
485.10 0.9071
485.20 0.9077
485.30 0.9083
485.40 0.909
485.50 0.9096
485.60 0.9102
485.70 0.9109
485.80 0.9115
485.90 0.9121
486.00 0.9127
486.10 0.9134
486.20 0.914
486.30 0.9146
486.40 0.9153
486.50 0.9159
486.60 0.9165
486.70 0.9172
486.80 0.9178
486.90 0.9184
487.00 0.919
487.10 0.9197
487.20 0.9203
487.30 0.9209
487.40 0.9216
487.50 0.9222
487.60 0.9228
487.70 0.9234
487.80 0.9241
487.90 0.9247
488.00 0.9254
488.10 0.926
488.20 0.9266
488.30 0.9272
488.40 0.9279
488.50 0.9285
488.60 0.9291
488.70 0.9297
488.80 0.9304
488.90 0.931
489.00 0.9316
489.10 0.9322
489.20 0.9329
489.30 0.9335
489.40 0.9341
489.50 0.9348
489.60 0.9354
489.70 0.936
489.80 0.9367
489.90 0.9373
490.00 0.9379
490.10 0.9386
490.20 0.9392
490.30 0.9398
490.40 0.9404
490.50 0.9411
490.60 0.9417
490.70 0.9423
490.80 0.9429
490.90 0.9436
491.00 0.9442
491.10 0.9448
491.20 0.9454
491.30 0.9461
491.40 0.9467
491.50 0.9473
491.60 0.9479
491.70 0.9486
491.80 0.9492
491.90 0.9498
492.00 0.9504
492.10 0.951
492.20 0.9517
492.30 0.9523
492.40 0.9529
492.50 0.9535
492.60 0.9542
492.70 0.9548
492.80 0.9554
492.90 0.956
493.00 0.9567
493.10 0.9573
493.20 0.9579
493.30 0.9585
493.40 0.9592
493.50 0.9598
493.60 0.9604
493.70 0.961
493.80 0.9617
493.90 0.9623
494.00 0.9629
494.10 0.9635
494.20 0.9642
494.30 0.9648
494.40 0.9654
494.50 0.966
494.60 0.9667
494.70 0.9673
494.80 0.9679
494.90 0.9685
495.00 0.9691
495.10 0.9698
495.20 0.9704
495.30 0.971
495.40 0.9716
495.50 0.9722
495.60 0.9729
495.70 0.9735
495.80 0.9741
495.90 0.9747
496.00 0.9754
496.10 0.976
496.20 0.9766
496.30 0.9772
496.40 0.9778
496.50 0.9784
496.60 0.9791
496.70 0.9797
496.80 0.9803
496.90 0.9809
497.00 0.9815
497.10 0.9821
497.20 0.9827
497.30 0.9834
497.40 0.984
497.50 0.9846
497.60 0.9852
497.70 0.9858
497.80 0.9864
497.90 0.9871
498.00 0.9877
498.10 0.9883
498.20 0.9889
498.30 0.9895
498.40 0.9901
498.50 0.9908
498.60 0.9914
498.70 0.992
498.80 0.9926
498.90 0.9932
499.00 0.9938
499.10 0.9944
499.20 0.9951
499.30 0.9957
499.40 0.9963
499.50 0.9969
499.60 0.9975
499.70 0.9982
499.80 0.9988
499.90 0.9994
500.00 1
500.10 1.001
500.20 1.001
500.30 1.002
500.40 1.002
500.50 1.003
500.60 1.004
500.70 1.004
500.80 1.005
500.90 1.006
501.00 1.006
501.10 1.007
501.20 1.007
501.30 1.008
501.40 1.009
501.50 1.009
501.60 1.01
501.70 1.01
501.80 1.011
501.90 1.012
502.00 1.012
502.10 1.013
502.20 1.013
502.30 1.014
502.40 1.015
502.50 1.015
502.60 1.016
502.70 1.016
502.80 1.017
502.90 1.018
503.00 1.018
503.10 1.019
503.20 1.019
503.30 1.02
503.40 1.021
503.50 1.021
503.60 1.022
503.70 1.023
503.80 1.023
503.90 1.024
504.00 1.024
504.10 1.025
504.20 1.025
504.30 1.026
504.40 1.027
504.50 1.027
504.60 1.028
504.70 1.029
504.80 1.029
504.90 1.03
505.00 1.03
505.10 1.031
505.20 1.031
505.30 1.032
505.40 1.033
505.50 1.033
505.60 1.034
505.70 1.034
505.80 1.035
505.90 1.036
506.00 1.036
506.10 1.037
506.20 1.037
506.30 1.038
506.40 1.039
506.50 1.039
506.60 1.04
506.70 1.04
506.80 1.041
506.90 1.042
507.00 1.042
507.10 1.043
507.20 1.043
507.30 1.044
507.40 1.045
507.50 1.045
507.60 1.046
507.70 1.046
507.80 1.047
507.90 1.048
508.00 1.048
508.10 1.049
508.20 1.049
508.30 1.05
508.40 1.05
508.50 1.051
508.60 1.052
508.70 1.052
508.80 1.053
508.90 1.053
509.00 1.054
509.10 1.055
509.20 1.055
509.30 1.056
509.40 1.056
509.50 1.057
509.60 1.058
509.70 1.058
509.80 1.059
509.90 1.059
510.00 1.06
510.10 1.061
510.20 1.061
510.30 1.062
510.40 1.062
510.50 1.063
510.60 1.063
510.70 1.064
510.80 1.065
510.90 1.065
511.00 1.066
511.10 1.066
511.20 1.067
511.30 1.068
511.40 1.068
511.50 1.069
511.60 1.069
511.70 1.07
511.80 1.071
511.90 1.071
512.00 1.072
512.10 1.072
512.20 1.073
512.30 1.073
512.40 1.074
512.50 1.075
512.60 1.075
512.70 1.076
512.80 1.076
512.90 1.077
513.00 1.078
513.10 1.078
513.20 1.079
513.30 1.079
513.40 1.08
513.50 1.08
513.60 1.081
513.70 1.082
513.80 1.082
513.90 1.083
514.00 1.083
514.10 1.084
514.20 1.085
514.30 1.085
514.40 1.086
514.50 1.086
514.60 1.087
514.70 1.087
514.80 1.088
514.90 1.089
515.00 1.089
515.10 1.09
515.20 1.09
515.30 1.091
515.40 1.091
515.50 1.092
515.60 1.093
515.70 1.093
515.80 1.094
515.90 1.094
516.00 1.095
516.10 1.095
516.20 1.096
516.30 1.097
516.40 1.097
516.50 1.098
516.60 1.098
516.70 1.099
516.80 1.099
516.90 1.1
517.00 1.101
517.10 1.101
517.20 1.102
517.30 1.102
517.40 1.103
517.50 1.103
517.60 1.104
517.70 1.104
517.80 1.105
517.90 1.106
518.00 1.106
518.10 1.107
518.20 1.107
518.30 1.108
518.40 1.108
518.50 1.109
518.60 1.11
518.70 1.11
518.80 1.111
518.90 1.111
519.00 1.112
519.10 1.112
519.20 1.113
519.30 1.114
519.40 1.114
519.50 1.115
519.60 1.115
519.70 1.116
519.80 1.116
519.90 1.117
520.00 1.117
520.10 1.118
520.20 1.118
520.30 1.119
520.40 1.12
520.50 1.12
520.60 1.121
520.70 1.121
520.80 1.122
520.90 1.122
521.00 1.123
521.10 1.123
521.20 1.124
521.30 1.125
521.40 1.125
521.50 1.126
521.60 1.126
521.70 1.127
521.80 1.127
521.90 1.128
522.00 1.128
522.10 1.129
522.20 1.13
522.30 1.13
522.40 1.131
522.50 1.131
522.60 1.132
522.70 1.132
522.80 1.133
522.90 1.133
523.00 1.134
523.10 1.134
523.20 1.135
523.30 1.136
523.40 1.136
523.50 1.137
523.60 1.137
523.70 1.138
523.80 1.138
523.90 1.139
524.00 1.139
524.10 1.14
524.20 1.14
524.30 1.141
524.40 1.142
524.50 1.142
524.60 1.143
524.70 1.143
524.80 1.144
524.90 1.144
525.00 1.145
525.10 1.145
525.20 1.146
525.30 1.146
525.40 1.147
525.50 1.147
525.60 1.148
525.70 1.148
525.80 1.149
525.90 1.15
526.00 1.15
526.10 1.151
526.20 1.151
526.30 1.152
526.40 1.152
526.50 1.153
526.60 1.153
526.70 1.154
526.80 1.154
526.90 1.155
527.00 1.155
527.10 1.156
527.20 1.156
527.30 1.157
527.40 1.157
527.50 1.158
527.60 1.159
527.70 1.159
527.80 1.16
527.90 1.16
528.00 1.161
528.10 1.161
528.20 1.162
528.30 1.162
528.40 1.163
528.50 1.163
528.60 1.164
528.70 1.164
528.80 1.165
528.90 1.165
529.00 1.166
529.10 1.166
529.20 1.167
529.30 1.167
529.40 1.168
529.50 1.168
529.60 1.169
529.70 1.169
529.80 1.17
529.90 1.17
530.00 1.171
530.10 1.171
530.20 1.172
530.30 1.172
530.40 1.173
530.50 1.173
530.60 1.174
530.70 1.174
530.80 1.175
530.90 1.175
531.00 1.176
531.10 1.177
531.20 1.177
531.30 1.178
531.40 1.178
531.50 1.179
531.60 1.179
531.70 1.18
531.80 1.18
531.90 1.181
532.00 1.181
532.10 1.182
532.20 1.182
532.30 1.182
532.40 1.183
532.50 1.183
532.60 1.184
532.70 1.184
532.80 1.185
532.90 1.185
533.00 1.186
533.10 1.186
533.20 1.187
533.30 1.187
533.40 1.188
533.50 1.188
533.60 1.189
533.70 1.189
533.80 1.19
533.90 1.19
534.00 1.191
534.10 1.191
534.20 1.192
534.30 1.192
534.40 1.193
534.50 1.193
534.60 1.194
534.70 1.194
534.80 1.195
534.90 1.195
535.00 1.196
535.10 1.196
535.20 1.197
535.30 1.197
535.40 1.198
535.50 1.198
535.60 1.199
535.70 1.199
535.80 1.2
535.90 1.2
536.00 1.2
536.10 1.201
536.20 1.201
536.30 1.202
536.40 1.202
536.50 1.203
536.60 1.203
536.70 1.204
536.80 1.204
536.90 1.205
537.00 1.205
537.10 1.206
537.20 1.206
537.30 1.207
537.40 1.207
537.50 1.208
537.60 1.208
537.70 1.208
537.80 1.209
537.90 1.209
538.00 1.21
538.10 1.21
538.20 1.211
538.30 1.211
538.40 1.212
538.50 1.212
538.60 1.213
538.70 1.213
538.80 1.214
538.90 1.214
539.00 1.214
539.10 1.215
539.20 1.215
539.30 1.216
539.40 1.216
539.50 1.217
539.60 1.217
539.70 1.218
539.80 1.218
539.90 1.218
540.00 1.219
540.10 1.219
540.20 1.22
540.30 1.22
540.40 1.221
540.50 1.221
540.60 1.222
540.70 1.222
540.80 1.222
540.90 1.223
541.00 1.223
541.10 1.224
541.20 1.224
541.30 1.225
541.40 1.225
541.50 1.225
541.60 1.226
541.70 1.226
541.80 1.227
541.90 1.227
542.00 1.228
542.10 1.228
542.20 1.228
542.30 1.229
542.40 1.229
542.50 1.23
542.60 1.23
542.70 1.231
542.80 1.231
542.90 1.231
543.00 1.232
543.10 1.232
543.20 1.233
543.30 1.233
543.40 1.234
543.50 1.234
543.60 1.234
543.70 1.235
543.80 1.235
543.90 1.236
544.00 1.236
544.10 1.236
544.20 1.237
544.30 1.237
544.40 1.238
544.50 1.238
544.60 1.238
544.70 1.239
544.80 1.239
544.90 1.24
545.00 1.24
545.10 1.24
545.20 1.241
545.30 1.241
545.40 1.242
545.50 1.242
545.60 1.242
545.70 1.243
545.80 1.243
545.90 1.244
546.00 1.244
546.10 1.244
546.20 1.245
546.30 1.245
546.40 1.246
546.50 1.246
546.60 1.246
546.70 1.247
546.80 1.247
546.90 1.248
547.00 1.248
547.10 1.248
547.20 1.249
547.30 1.249
547.40 1.25
547.50 1.25
547.60 1.25
547.70 1.251
547.80 1.251
547.90 1.251
548.00 1.252
548.10 1.252
548.20 1.253
548.30 1.253
548.40 1.253
548.50 1.254
548.60 1.254
548.70 1.254
548.80 1.255
548.90 1.255
549.00 1.256
549.10 1.256
549.20 1.256
549.30 1.257
549.40 1.257
549.50 1.257
549.60 1.258
549.70 1.258
549.80 1.258
549.90 1.259
550.00 1.259
550.10 1.259
550.20 1.26
550.30 1.26
550.40 1.261
550.50 1.261
550.60 1.261
550.70 1.262
550.80 1.262
550.90 1.262
551.00 1.263
551.10 1.263
551.20 1.263
551.30 1.264
551.40 1.264
551.50 1.264
551.60 1.265
551.70 1.265
551.80 1.265
551.90 1.266
552.00 1.266
552.10 1.266
552.20 1.267
552.30 1.267
552.40 1.267
552.50 1.268
552.60 1.268
552.70 1.268
552.80 1.269
552.90 1.269
553.00 1.269
553.10 1.27
553.20 1.27
553.30 1.27
553.40 1.271
553.50 1.271
553.60 1.271
553.70 1.272
553.80 1.272
553.90 1.272
554.00 1.272
554.10 1.273
554.20 1.273
554.30 1.273
554.40 1.274
554.50 1.274
554.60 1.274
554.70 1.275
554.80 1.275
554.90 1.275
555.00 1.275
555.10 1.276
555.20 1.276
555.30 1.276
555.40 1.277
555.50 1.277
555.60 1.277
555.70 1.277
555.80 1.278
555.90 1.278
556.00 1.278
556.10 1.279
556.20 1.279
556.30 1.279
556.40 1.279
556.50 1.28
556.60 1.28
556.70 1.28
556.80 1.28
556.90 1.281
557.00 1.281
557.10 1.281
557.20 1.282
557.30 1.282
557.40 1.282
557.50 1.282
557.60 1.283
557.70 1.283
557.80 1.283
557.90 1.283
558.00 1.284
558.10 1.284
558.20 1.284
558.30 1.284
558.40 1.285
558.50 1.285
558.60 1.285
558.70 1.285
558.80 1.286
558.90 1.286
559.00 1.286
559.10 1.286
559.20 1.287
559.30 1.287
559.40 1.287
559.50 1.287
559.60 1.288
559.70 1.288
559.80 1.288
559.90 1.288
560.00 1.289
560.10 1.289
560.20 1.289
560.30 1.289
560.40 1.29
560.50 1.29
560.60 1.29
560.70 1.29
560.80 1.291
560.90 1.291
561.00 1.291
561.10 1.291
561.20 1.291
561.30 1.292
561.40 1.292
561.50 1.292
561.60 1.292
561.70 1.293
561.80 1.293
561.90 1.293
562.00 1.293
562.10 1.293
562.20 1.294
562.30 1.294
562.40 1.294
562.50 1.294
562.60 1.294
562.70 1.295
562.80 1.295
562.90 1.295
563.00 1.295
563.10 1.296
563.20 1.296
563.30 1.296
563.40 1.296
563.50 1.296
563.60 1.296
563.70 1.297
563.80 1.297
563.90 1.297
564.00 1.297
564.10 1.297
564.20 1.298
564.30 1.298
564.40 1.298
564.50 1.298
564.60 1.298
564.70 1.299
564.80 1.299
564.90 1.299
565.00 1.299
565.10 1.299
565.20 1.299
565.30 1.3
565.40 1.3
565.50 1.3
565.60 1.3
565.70 1.3
565.80 1.3
565.90 1.301
566.00 1.301
566.10 1.301
566.20 1.301
566.30 1.301
566.40 1.301
566.50 1.301
566.60 1.302
566.70 1.302
566.80 1.302
566.90 1.302
567.00 1.302
567.10 1.302
567.20 1.302
567.30 1.302
567.40 1.303
567.50 1.303
567.60 1.303
567.70 1.303
567.80 1.303
567.90 1.303
568.00 1.303
568.10 1.303
568.20 1.304
568.30 1.304
568.40 1.304
568.50 1.304
568.60 1.304
568.70 1.304
568.80 1.304
568.90 1.304
569.00 1.304
569.10 1.304
569.20 1.305
569.30 1.305
569.40 1.305
569.50 1.305
569.60 1.305
569.70 1.305
569.80 1.305
569.90 1.305
570.00 1.305
570.10 1.305
570.20 1.305
570.30 1.306
570.40 1.306
570.50 1.306
570.60 1.306
570.70 1.306
570.80 1.306
570.90 1.306
571.00 1.306
571.10 1.306
571.20 1.306
571.30 1.306
571.40 1.306
571.50 1.306
571.60 1.306
571.70 1.306
571.80 1.306
571.90 1.307
572.00 1.307
572.10 1.307
572.20 1.307
572.30 1.307
572.40 1.307
572.50 1.307
572.60 1.307
572.70 1.307
572.80 1.307
572.90 1.307
573.00 1.307
573.10 1.307
573.20 1.307
573.30 1.307
573.40 1.307
573.50 1.307
573.60 1.307
573.70 1.307
573.80 1.307
573.90 1.307
574.00 1.307
574.10 1.307
574.20 1.307
574.30 1.307
574.40 1.307
574.50 1.307
574.60 1.307
574.70 1.307
574.80 1.307
574.90 1.307
575.00 1.307
575.10 1.307
575.20 1.307
575.30 1.307
575.40 1.307
575.50 1.307
575.60 1.307
575.70 1.307
575.80 1.307
575.90 1.307
576.00 1.307
576.10 1.307
576.20 1.307
576.30 1.307
576.40 1.307
576.50 1.307
576.60 1.307
576.70 1.307
576.80 1.307
576.90 1.307
577.00 1.307
577.10 1.307
577.20 1.307
577.30 1.307
577.40 1.307
577.50 1.307
577.60 1.307
577.70 1.307
577.80 1.307
577.90 1.307
578.00 1.307
578.10 1.307
578.20 1.307
578.30 1.307
578.40 1.307
578.50 1.307
578.60 1.307
578.70 1.306
578.80 1.306
578.90 1.306
579.00 1.306
579.10 1.306
579.20 1.306
579.30 1.306
579.40 1.306
579.50 1.306
579.60 1.306
579.70 1.306
579.80 1.306
579.90 1.306
580.00 1.306
580.10 1.306
580.20 1.306
580.30 1.305
580.40 1.305
580.50 1.305
580.60 1.305
580.70 1.305
580.80 1.305
580.90 1.305
581.00 1.305
581.10 1.305
581.20 1.305
581.30 1.305
581.40 1.304
581.50 1.304
581.60 1.304
581.70 1.304
581.80 1.304
581.90 1.304
582.00 1.304
582.10 1.304
582.20 1.304
582.30 1.303
582.40 1.303
582.50 1.303
582.60 1.303
582.70 1.303
582.80 1.303
582.90 1.303
583.00 1.303
583.10 1.302
583.20 1.302
583.30 1.302
583.40 1.302
583.50 1.302
583.60 1.302
583.70 1.301
583.80 1.301
583.90 1.301
584.00 1.301
584.10 1.301
584.20 1.301
584.30 1.301
584.40 1.3
584.50 1.3
584.60 1.3
584.70 1.3
584.80 1.3
584.90 1.3
585.00 1.299
585.10 1.299
585.20 1.299
585.30 1.299
585.40 1.299
585.50 1.298
585.60 1.298
585.70 1.298
585.80 1.298
585.90 1.298
586.00 1.297
586.10 1.297
586.20 1.297
586.30 1.297
586.40 1.297
586.50 1.296
586.60 1.296
586.70 1.296
586.80 1.296
586.90 1.295
587.00 1.295
587.10 1.295
587.20 1.295
587.30 1.295
587.40 1.294
587.50 1.294
587.60 1.294
587.70 1.294
587.80 1.293
587.90 1.293
588.00 1.293
588.10 1.293
588.20 1.292
588.30 1.292
588.40 1.292
588.50 1.292
588.60 1.291
588.70 1.291
588.80 1.291
588.90 1.291
589.00 1.29
589.10 1.29
589.20 1.29
589.30 1.289
589.40 1.289
589.50 1.289
589.60 1.289
589.70 1.288
589.80 1.288
589.90 1.288
590.00 1.287
590.10 1.287
590.20 1.287
590.30 1.287
590.40 1.286
590.50 1.286
590.60 1.286
590.70 1.285
590.80 1.285
590.90 1.285
591.00 1.284
591.10 1.284
591.20 1.284
591.30 1.284
591.40 1.283
591.50 1.283
591.60 1.283
591.70 1.282
591.80 1.282
591.90 1.282
592.00 1.281
592.10 1.281
592.20 1.281
592.30 1.28
592.40 1.28
592.50 1.28
592.60 1.279
592.70 1.279
592.80 1.279
592.90 1.278
593.00 1.278
593.10 1.278
593.20 1.277
593.30 1.277
593.40 1.277
593.50 1.276
593.60 1.276
593.70 1.276
593.80 1.275
593.90 1.275
594.00 1.275
594.10 1.274
594.20 1.274
594.30 1.273
594.40 1.273
594.50 1.273
594.60 1.272
594.70 1.272
594.80 1.272
594.90 1.271
595.00 1.271
595.10 1.271
595.20 1.27
595.30 1.27
595.40 1.269
595.50 1.269
595.60 1.269
595.70 1.268
595.80 1.268
595.90 1.267
596.00 1.267
596.10 1.267
596.20 1.266
596.30 1.266
596.40 1.266
596.50 1.265
596.60 1.265
596.70 1.264
596.80 1.264
596.90 1.264
597.00 1.263
597.10 1.263
597.20 1.262
597.30 1.262
597.40 1.262
597.50 1.261
597.60 1.261
597.70 1.26
597.80 1.26
597.90 1.259
598.00 1.259
598.10 1.259
598.20 1.258
598.30 1.258
598.40 1.257
598.50 1.257
598.60 1.256
598.70 1.256
598.80 1.256
598.90 1.255
599.00 1.255
599.10 1.254
599.20 1.254
599.30 1.253
599.40 1.253
599.50 1.252
599.60 1.252
599.70 1.252
599.80 1.251
599.90 1.251
600.00 1.25
600.10 1.25
600.20 1.249
600.30 1.249
600.40 1.248
600.50 1.248
600.60 1.247
600.70 1.247
600.80 1.246
600.90 1.246
601.00 1.246
601.10 1.245
601.20 1.245
601.30 1.244
601.40 1.244
601.50 1.243
601.60 1.243
601.70 1.242
601.80 1.242
601.90 1.241
602.00 1.241
602.10 1.24
602.20 1.24
602.30 1.239
602.40 1.239
602.50 1.238
602.60 1.238
602.70 1.237
602.80 1.237
602.90 1.236
603.00 1.236
603.10 1.235
603.20 1.235
603.30 1.234
603.40 1.234
603.50 1.233
603.60 1.232
603.70 1.232
603.80 1.231
603.90 1.231
604.00 1.23
604.10 1.23
604.20 1.229
604.30 1.229
604.40 1.228
604.50 1.228
604.60 1.227
604.70 1.227
604.80 1.226
604.90 1.226
605.00 1.225
605.10 1.224
605.20 1.224
605.30 1.223
605.40 1.223
605.50 1.222
605.60 1.222
605.70 1.221
605.80 1.221
605.90 1.22
606.00 1.219
606.10 1.219
606.20 1.218
606.30 1.218
606.40 1.217
606.50 1.217
606.60 1.216
606.70 1.215
606.80 1.215
606.90 1.214
607.00 1.214
607.10 1.213
607.20 1.213
607.30 1.212
607.40 1.211
607.50 1.211
607.60 1.21
607.70 1.21
607.80 1.209
607.90 1.208
608.00 1.208
608.10 1.207
608.20 1.207
608.30 1.206
608.40 1.205
608.50 1.205
608.60 1.204
608.70 1.204
608.80 1.203
608.90 1.202
609.00 1.202
609.10 1.201
609.20 1.201
609.30 1.2
609.40 1.199
609.50 1.199
609.60 1.198
609.70 1.197
609.80 1.197
609.90 1.196
610.00 1.196
610.10 1.195
610.20 1.194
610.30 1.194
610.40 1.193
610.50 1.192
610.60 1.192
610.70 1.191
610.80 1.19
610.90 1.19
611.00 1.189
611.10 1.189
611.20 1.188
611.30 1.187
611.40 1.187
611.50 1.186
611.60 1.185
611.70 1.185
611.80 1.184
611.90 1.183
612.00 1.183
612.10 1.182
612.20 1.181
612.30 1.181
612.40 1.18
612.50 1.179
612.60 1.179
612.70 1.178
612.80 1.177
612.90 1.177
613.00 1.176
613.10 1.175
613.20 1.175
613.30 1.174
613.40 1.173
613.50 1.172
613.60 1.172
613.70 1.171
613.80 1.17
613.90 1.17
614.00 1.169
614.10 1.168
614.20 1.168
614.30 1.167
614.40 1.166
614.50 1.165
614.60 1.165
614.70 1.164
614.80 1.163
614.90 1.163
615.00 1.162
615.10 1.161
615.20 1.16
615.30 1.16
615.40 1.159
615.50 1.158
615.60 1.157
615.70 1.157
615.80 1.156
615.90 1.155
616.00 1.155
616.10 1.154
616.20 1.153
616.30 1.152
616.40 1.152
616.50 1.151
616.60 1.15
616.70 1.149
616.80 1.149
616.90 1.148
617.00 1.147
617.10 1.146
617.20 1.146
617.30 1.145
617.40 1.144
617.50 1.143
617.60 1.143
617.70 1.142
617.80 1.141
617.90 1.14
618.00 1.139
618.10 1.139
618.20 1.138
618.30 1.137
618.40 1.136
618.50 1.136
618.60 1.135
618.70 1.134
618.80 1.133
618.90 1.133
619.00 1.132
619.10 1.131
619.20 1.13
619.30 1.129
619.40 1.129
619.50 1.128
619.60 1.127
619.70 1.126
619.80 1.125
619.90 1.125
620.00 1.124
620.10 1.123
620.20 1.122
620.30 1.121
620.40 1.121
620.50 1.12
620.60 1.119
620.70 1.118
620.80 1.118
620.90 1.117
621.00 1.116
621.10 1.115
621.20 1.114
621.30 1.114
621.40 1.113
621.50 1.112
621.60 1.111
621.70 1.11
621.80 1.109
621.90 1.109
622.00 1.108
622.10 1.107
622.20 1.106
622.30 1.105
622.40 1.105
622.50 1.104
622.60 1.103
622.70 1.102
622.80 1.101
622.90 1.101
623.00 1.1
623.10 1.099
623.20 1.098
623.30 1.097
623.40 1.097
623.50 1.096
623.60 1.095
623.70 1.094
623.80 1.093
623.90 1.092
624.00 1.092
624.10 1.091
624.20 1.09
624.30 1.089
624.40 1.088
624.50 1.087
624.60 1.087
624.70 1.086
624.80 1.085
624.90 1.084
625.00 1.083
625.10 1.082
625.20 1.081
625.30 1.081
625.40 1.08
625.50 1.079
625.60 1.078
625.70 1.077
625.80 1.076
625.90 1.076
626.00 1.075
626.10 1.074
626.20 1.073
626.30 1.072
626.40 1.071
626.50 1.07
626.60 1.069
626.70 1.069
626.80 1.068
626.90 1.067
627.00 1.066
627.10 1.065
627.20 1.064
627.30 1.063
627.40 1.063
627.50 1.062
627.60 1.061
627.70 1.06
627.80 1.059
627.90 1.058
628.00 1.057
628.10 1.056
628.20 1.055
628.30 1.055
628.40 1.054
628.50 1.053
628.60 1.052
628.70 1.051
628.80 1.05
628.90 1.049
629.00 1.048
629.10 1.047
629.20 1.047
629.30 1.046
629.40 1.045
629.50 1.044
629.60 1.043
629.70 1.042
629.80 1.041
629.90 1.04
630.00 1.039
630.10 1.039
630.20 1.038
630.30 1.037
630.40 1.036
630.50 1.035
630.60 1.034
630.70 1.033
630.80 1.032
630.90 1.031
631.00 1.03
631.10 1.03
631.20 1.029
631.30 1.028
631.40 1.027
631.50 1.026
631.60 1.025
631.70 1.024
631.80 1.023
631.90 1.022
632.00 1.021
632.10 1.02
632.20 1.019
632.30 1.019
632.40 1.018
632.50 1.017
632.60 1.016
632.70 1.015
632.80 1.014
632.90 1.013
633.00 1.012
633.10 1.011
633.20 1.01
633.30 1.009
633.40 1.008
633.50 1.007
633.60 1.006
633.70 1.005
633.80 1.005
633.90 1.004
634.00 1.003
634.10 1.002
634.20 1.001
634.30 0.9998
634.40 0.9989
634.50 0.9979
634.60 0.997
634.70 0.996
634.80 0.9951
634.90 0.9941
635.00 0.9931
635.10 0.9922
635.20 0.9912
635.30 0.9903
635.40 0.9893
635.50 0.9884
635.60 0.9874
635.70 0.9864
635.80 0.9855
635.90 0.9845
636.00 0.9836
636.10 0.9826
636.20 0.9816
636.30 0.9807
636.40 0.9797
636.50 0.9788
636.60 0.9778
636.70 0.9768
636.80 0.9759
636.90 0.9749
637.00 0.9739
637.10 0.973
637.20 0.972
637.30 0.971
637.40 0.9701
637.50 0.9691
637.60 0.9681
637.70 0.9671
637.80 0.9662
637.90 0.9652
638.00 0.9642
638.10 0.9632
638.20 0.9623
638.30 0.9613
638.40 0.9603
638.50 0.9593
638.60 0.9584
638.70 0.9574
638.80 0.9565
638.90 0.9555
639.00 0.9545
639.10 0.9536
639.20 0.9526
639.30 0.9516
639.40 0.9506
639.50 0.9496
639.60 0.9486
639.70 0.9476
639.80 0.9467
639.90 0.9457
640.00 0.9447
640.10 0.9437
640.20 0.9427
640.30 0.9417
640.40 0.9407
640.50 0.9397
640.60 0.9387
640.70 0.9377
640.80 0.9367
640.90 0.9357
641.00 0.9346
641.10 0.9336
641.20 0.9326
641.30 0.9316
641.40 0.9306
641.50 0.9296
641.60 0.9286
641.70 0.9275
641.80 0.9265
641.90 0.9255
642.00 0.9245
642.10 0.9235
642.20 0.9224
642.30 0.9214
642.40 0.9204
642.50 0.9193
642.60 0.9183
642.70 0.9172
642.80 0.9162
642.90 0.9151
643.00 0.9141
643.10 0.913
643.20 0.912
643.30 0.9109
643.40 0.9099
643.50 0.9088
643.60 0.9078
643.70 0.9068
643.80 0.9057
643.90 0.9047
644.00 0.9036
644.10 0.9026
644.20 0.9016
644.30 0.9005
644.40 0.8995
644.50 0.8984
644.60 0.8974
644.70 0.8964
644.80 0.8953
644.90 0.8943
645.00 0.8932
645.10 0.8922
645.20 0.8912
645.30 0.8901
645.40 0.8891
645.50 0.888
645.60 0.887
645.70 0.8859
645.80 0.8849
645.90 0.8839
646.00 0.8828
646.10 0.8818
646.20 0.8807
646.30 0.8797
646.40 0.8786
646.50 0.8776
646.60 0.8766
646.70 0.8755
646.80 0.8745
646.90 0.8735
647.00 0.8724
647.10 0.8714
647.20 0.8704
647.30 0.8693
647.40 0.8683
647.50 0.8672
647.60 0.8662
647.70 0.8651
647.80 0.8641
647.90 0.863
648.00 0.862
648.10 0.8609
648.20 0.8599
648.30 0.8588
648.40 0.8578
648.50 0.8567
648.60 0.8557
648.70 0.8546
648.80 0.8536
648.90 0.8525
649.00 0.8514
649.10 0.8504
649.20 0.8493
649.30 0.8483
649.40 0.8472
649.50 0.8462
649.60 0.8451
649.70 0.844
649.80 0.843
649.90 0.8419
650.00 0.8409
650.10 0.8398
650.20 0.8387
650.30 0.8377
650.40 0.8366
650.50 0.8356
650.60 0.8345
650.70 0.8334
650.80 0.8324
650.90 0.8313
651.00 0.8302
651.10 0.8292
651.20 0.8281
651.30 0.8271
651.40 0.826
651.50 0.8249
651.60 0.8239
651.70 0.8228
651.80 0.8217
651.90 0.8206
652.00 0.8196
652.10 0.8185
652.20 0.8174
652.30 0.8164
652.40 0.8153
652.50 0.8142
652.60 0.8132
652.70 0.8121
652.80 0.811
652.90 0.8099
653.00 0.8089
653.10 0.8078
653.20 0.8067
653.30 0.8057
653.40 0.8046
653.50 0.8035
653.60 0.8024
653.70 0.8014
653.80 0.8003
653.90 0.7992
654.00 0.7982
654.10 0.7971
654.20 0.796
654.30 0.795
654.40 0.7939
654.50 0.7928
654.60 0.7917
654.70 0.7907
654.80 0.7896
654.90 0.7885
655.00 0.7874
655.10 0.7864
655.20 0.7853
655.30 0.7842
655.40 0.7831
655.50 0.7821
655.60 0.781
655.70 0.7799
655.80 0.7789
655.90 0.7778
656.00 0.7767
656.10 0.7756
656.20 0.7746
656.30 0.7735
656.40 0.7724
656.50 0.7713
656.60 0.7703
656.70 0.7692
656.80 0.7681
656.90 0.767
657.00 0.766
657.10 0.7649
657.20 0.7638
657.30 0.7628
657.40 0.7617
657.50 0.7606
657.60 0.7596
657.70 0.7585
657.80 0.7574
657.90 0.7563
658.00 0.7553
658.10 0.7542
658.20 0.7531
658.30 0.752
658.40 0.751
658.50 0.7499
658.60 0.7488
658.70 0.7477
658.80 0.7467
658.90 0.7456
659.00 0.7445
659.10 0.7434
659.20 0.7424
659.30 0.7413
659.40 0.7402
659.50 0.7392
659.60 0.7381
659.70 0.737
659.80 0.736
659.90 0.7349
660.00 0.7338
660.10 0.7328
660.20 0.7317
660.30 0.7306
660.40 0.7296
660.50 0.7285
660.60 0.7274
660.70 0.7263
660.80 0.7253
660.90 0.7242
661.00 0.7231
661.10 0.722
661.20 0.721
661.30 0.7199
661.40 0.7188
661.50 0.7178
661.60 0.7167
661.70 0.7156
661.80 0.7146
661.90 0.7135
662.00 0.7124
662.10 0.7114
662.20 0.7103
662.30 0.7092
662.40 0.7082
662.50 0.7071
662.60 0.706
662.70 0.7049
662.80 0.7039
662.90 0.7028
663.00 0.7017
663.10 0.7007
663.20 0.6996
663.30 0.6985
663.40 0.6975
663.50 0.6964
663.60 0.6953
663.70 0.6943
663.80 0.6932
663.90 0.6921
664.00 0.6911
664.10 0.69
664.20 0.689
664.30 0.6879
664.40 0.6868
664.50 0.6858
664.60 0.6847
664.70 0.6836
664.80 0.6826
664.90 0.6815
665.00 0.6805
665.10 0.6794
665.20 0.6784
665.30 0.6773
665.40 0.6762
665.50 0.6752
665.60 0.6741
665.70 0.6731
665.80 0.672
665.90 0.6709
666.00 0.6699
666.10 0.6688
666.20 0.6678
666.30 0.6667
666.40 0.6656
666.50 0.6646
666.60 0.6635
666.70 0.6625
666.80 0.6614
666.90 0.6603
667.00 0.6593
667.10 0.6582
667.20 0.6572
667.30 0.6561
667.40 0.6551
667.50 0.654
667.60 0.653
667.70 0.6519
667.80 0.6509
667.90 0.6498
668.00 0.6488
668.10 0.6477
668.20 0.6467
668.30 0.6456
668.40 0.6446
668.50 0.6435
668.60 0.6425
668.70 0.6414
668.80 0.6404
668.90 0.6393
669.00 0.6383
669.10 0.6372
669.20 0.6362
669.30 0.6351
669.40 0.6341
669.50 0.633
669.60 0.632
669.70 0.6309
669.80 0.6299
669.90 0.6289
670.00 0.6278
670.10 0.6268
670.20 0.6257
670.30 0.6247
670.40 0.6237
670.50 0.6226
670.60 0.6216
670.70 0.6205
670.80 0.6195
670.90 0.6184
671.00 0.6174
671.10 0.6164
671.20 0.6153
671.30 0.6143
671.40 0.6133
671.50 0.6122
671.60 0.6112
671.70 0.6101
671.80 0.6091
671.90 0.6081
672.00 0.607
672.10 0.606
672.20 0.605
672.30 0.6039
672.40 0.6029
672.50 0.6019
672.60 0.6008
672.70 0.5998
672.80 0.5988
672.90 0.5978
673.00 0.5967
673.10 0.5957
673.20 0.5947
673.30 0.5936
673.40 0.5926
673.50 0.5916
673.60 0.5906
673.70 0.5895
673.80 0.5885
673.90 0.5875
674.00 0.5865
674.10 0.5854
674.20 0.5844
674.30 0.5834
674.40 0.5824
674.50 0.5814
674.60 0.5803
674.70 0.5793
674.80 0.5783
674.90 0.5773
675.00 0.5763
675.10 0.5753
675.20 0.5743
675.30 0.5732
675.40 0.5722
675.50 0.5712
675.60 0.5702
675.70 0.5692
675.80 0.5682
675.90 0.5672
676.00 0.5662
676.10 0.5651
676.20 0.5641
676.30 0.5631
676.40 0.5621
676.50 0.5611
676.60 0.5601
676.70 0.5591
676.80 0.5581
676.90 0.5571
677.00 0.5561
677.10 0.5551
677.20 0.5541
677.30 0.5531
677.40 0.5521
677.50 0.5511
677.60 0.5501
677.70 0.5491
677.80 0.5481
677.90 0.5471
678.00 0.5461
678.10 0.5451
678.20 0.5441
678.30 0.5431
678.40 0.5422
678.50 0.5412
678.60 0.5402
678.70 0.5392
678.80 0.5382
678.90 0.5372
679.00 0.5362
679.10 0.5352
679.20 0.5342
679.30 0.5332
679.40 0.5322
679.50 0.5313
679.60 0.5303
679.70 0.5293
679.80 0.5283
679.90 0.5273
680.00 0.5263
680.10 0.5254
680.20 0.5244
680.30 0.5234
680.40 0.5224
680.50 0.5214
680.60 0.5205
680.70 0.5195
680.80 0.5185
680.90 0.5175
681.00 0.5165
681.10 0.5156
681.20 0.5146
681.30 0.5136
681.40 0.5126
681.50 0.5117
681.60 0.5107
681.70 0.5097
681.80 0.5088
681.90 0.5078
682.00 0.5068
682.10 0.5059
682.20 0.5049
682.30 0.5039
682.40 0.5029
682.50 0.502
682.60 0.501
682.70 0.5
682.80 0.4991
682.90 0.4981
683.00 0.4971
683.10 0.4962
683.20 0.4952
683.30 0.4942
683.40 0.4933
683.50 0.4923
683.60 0.4914
683.70 0.4904
683.80 0.4894
683.90 0.4885
684.00 0.4875
684.10 0.4866
684.20 0.4856
684.30 0.4847
684.40 0.4837
684.50 0.4828
684.60 0.4818
684.70 0.4809
684.80 0.4799
684.90 0.479
685.00 0.478
685.10 0.4771
685.20 0.4761
685.30 0.4752
685.40 0.4742
685.50 0.4733
685.60 0.4724
685.70 0.4714
685.80 0.4705
685.90 0.4695
686.00 0.4686
686.10 0.4677
686.20 0.4667
686.30 0.4658
686.40 0.4648
686.50 0.4639
686.60 0.463
686.70 0.462
686.80 0.4611
686.90 0.4602
687.00 0.4592
687.10 0.4583
687.20 0.4574
687.30 0.4564
687.40 0.4555
687.50 0.4546
687.60 0.4537
687.70 0.4527
687.80 0.4518
687.90 0.4509
688.00 0.45
688.10 0.449
688.20 0.4481
688.30 0.4472
688.40 0.4463
688.50 0.4454
688.60 0.4444
688.70 0.4435
688.80 0.4426
688.90 0.4417
689.00 0.4408
689.10 0.4399
689.20 0.439
689.30 0.438
689.40 0.4371
689.50 0.4362
689.60 0.4353
689.70 0.4344
689.80 0.4336
689.90 0.4327
690.00 0.4318
690.10 0.4309
690.20 0.43
690.30 0.4291
690.40 0.4282
690.50 0.4273
690.60 0.4264
690.70 0.4255
690.80 0.4246
690.90 0.4237
691.00 0.4228
691.10 0.4219
691.20 0.421
691.30 0.4202
691.40 0.4193
691.50 0.4184
691.60 0.4175
691.70 0.4166
691.80 0.4157
691.90 0.4148
692.00 0.4139
692.10 0.4131
692.20 0.4122
692.30 0.4113
692.40 0.4104
692.50 0.4095
692.60 0.4086
692.70 0.4078
692.80 0.4069
692.90 0.406
693.00 0.4051
693.10 0.4042
693.20 0.4034
693.30 0.4025
693.40 0.4016
693.50 0.4007
693.60 0.3998
693.70 0.399
693.80 0.3981
693.90 0.3972
694.00 0.3963
694.10 0.3955
694.20 0.3946
694.30 0.3937
694.40 0.3928
694.50 0.392
694.60 0.3911
694.70 0.3902
694.80 0.3893
694.90 0.3885
695.00 0.3876
695.10 0.3868
695.20 0.3859
695.30 0.3851
695.40 0.3843
695.50 0.3834
695.60 0.3826
695.70 0.3818
695.80 0.3809
695.90 0.3801
696.00 0.3793
696.10 0.3784
696.20 0.3776
696.30 0.3768
696.40 0.3759
696.50 0.3751
696.60 0.3743
696.70 0.3734
696.80 0.3726
696.90 0.3718
697.00 0.371
697.10 0.3701
697.20 0.3693
697.30 0.3685
697.40 0.3677
697.50 0.3668
697.60 0.366
697.70 0.3652
697.80 0.3644
697.90 0.3635
698.00 0.3627
698.10 0.3619
698.20 0.3611
698.30 0.3602
698.40 0.3594
698.50 0.3586
698.60 0.3578
698.70 0.357
698.80 0.3561
698.90 0.3553
699.00 0.3545
699.10 0.3537
699.20 0.3529
699.30 0.352
699.40 0.3512
699.50 0.3504
699.60 0.3496
699.70 0.3488
699.80 0.348
699.90 0.3472
700.00 0.3463
700.10 0.3456
700.20 0.3448
700.30 0.344
700.40 0.3433
700.50 0.3425
700.60 0.3417
700.70 0.3409
700.80 0.3402
700.90 0.3394
701.00 0.3386
701.10 0.3379
701.20 0.3371
701.30 0.3363
701.40 0.3356
701.50 0.3348
701.60 0.334
701.70 0.3333
701.80 0.3325
701.90 0.3317
702.00 0.331
702.10 0.3302
702.20 0.3294
702.30 0.3287
702.40 0.3279
702.50 0.3271
702.60 0.3264
702.70 0.3256
702.80 0.3249
702.90 0.3241
703.00 0.3233
703.10 0.3226
703.20 0.3218
703.30 0.3211
703.40 0.3203
703.50 0.3195
703.60 0.3188
703.70 0.318
703.80 0.3173
703.90 0.3165
704.00 0.3158
704.10 0.315
704.20 0.3142
704.30 0.3135
704.40 0.3127
704.50 0.312
704.60 0.3112
704.70 0.3105
704.80 0.3097
704.90 0.309
705.00 0.3082
705.10 0.3075
705.20 0.3068
705.30 0.3061
705.40 0.3054
705.50 0.3047
705.60 0.304
705.70 0.3033
705.80 0.3026
705.90 0.3019
706.00 0.3012
706.10 0.3006
706.20 0.2999
706.30 0.2992
706.40 0.2985
706.50 0.2978
706.60 0.2971
706.70 0.2964
706.80 0.2957
706.90 0.295
707.00 0.2943
707.10 0.2936
707.20 0.2929
707.30 0.2922
707.40 0.2916
707.50 0.2909
707.60 0.2902
707.70 0.2895
707.80 0.2888
707.90 0.2881
708.00 0.2874
708.10 0.2867
708.20 0.286
708.30 0.2854
708.40 0.2847
708.50 0.284
708.60 0.2833
708.70 0.2826
708.80 0.2819
708.90 0.2812
709.00 0.2806
709.10 0.2799
709.20 0.2792
709.30 0.2785
709.40 0.2778
709.50 0.2771
709.60 0.2765
709.70 0.2758
709.80 0.2751
709.90 0.2744
710.00 0.2737
710.10 0.2731
710.20 0.2725
710.30 0.2719
710.40 0.2712
710.50 0.2706
710.60 0.27
710.70 0.2694
710.80 0.2688
710.90 0.2681
711.00 0.2675
711.10 0.2669
711.20 0.2663
711.30 0.2657
711.40 0.265
711.50 0.2644
711.60 0.2638
711.70 0.2632
711.80 0.2626
711.90 0.2619
712.00 0.2613
712.10 0.2607
712.20 0.2601
712.30 0.2595
712.40 0.2589
712.50 0.2582
712.60 0.2576
712.70 0.257
712.80 0.2564
712.90 0.2558
713.00 0.2552
713.10 0.2546
713.20 0.2539
713.30 0.2533
713.40 0.2527
713.50 0.2521
713.60 0.2515
713.70 0.2509
713.80 0.2503
713.90 0.2496
714.00 0.249
714.10 0.2484
714.20 0.2478
714.30 0.2472
714.40 0.2466
714.50 0.246
714.60 0.2454
714.70 0.2448
714.80 0.2442
714.90 0.2436
715.00 0.2429
715.10 0.2424
715.20 0.2418
715.30 0.2413
715.40 0.2408
715.50 0.2402
715.60 0.2397
715.70 0.2391
715.80 0.2386
715.90 0.238
716.00 0.2375
716.10 0.2369
716.20 0.2364
716.30 0.2358
716.40 0.2353
716.50 0.2347
716.60 0.2342
716.70 0.2337
716.80 0.2331
716.90 0.2326
717.00 0.232
717.10 0.2315
717.20 0.2309
717.30 0.2304
717.40 0.2299
717.50 0.2293
717.60 0.2288
717.70 0.2282
717.80 0.2277
717.90 0.2272
718.00 0.2266
718.10 0.2261
718.20 0.2255
718.30 0.225
718.40 0.2245
718.50 0.2239
718.60 0.2234
718.70 0.2228
718.80 0.2223
718.90 0.2218
719.00 0.2212
719.10 0.2207
719.20 0.2202
719.30 0.2196
719.40 0.2191
719.50 0.2186
719.60 0.218
719.70 0.2175
719.80 0.2169
719.90 0.2164
720.00 0.2159
720.10 0.2154
720.20 0.2149
720.30 0.2145
720.40 0.214
720.50 0.2135
720.60 0.2131
720.70 0.2126
720.80 0.2121
720.90 0.2116
721.00 0.2112
721.10 0.2107
721.20 0.2102
721.30 0.2098
721.40 0.2093
721.50 0.2088
721.60 0.2084
721.70 0.2079
721.80 0.2074
721.90 0.207
722.00 0.2065
722.10 0.206
722.20 0.2056
722.30 0.2051
722.40 0.2046
722.50 0.2042
722.60 0.2037
722.70 0.2032
722.80 0.2028
722.90 0.2023
723.00 0.2019
723.10 0.2014
723.20 0.2009
723.30 0.2005
723.40 0.2
723.50 0.1995
723.60 0.1991
723.70 0.1986
723.80 0.1982
723.90 0.1977
724.00 0.1972
724.10 0.1968
724.20 0.1963
724.30 0.1958
724.40 0.1954
724.50 0.1949
724.60 0.1945
724.70 0.194
724.80 0.1935
724.90 0.1931
725.00 0.1926
725.10 0.1922
725.20 0.1918
725.30 0.1914
725.40 0.191
725.50 0.1906
725.60 0.1902
725.70 0.1898
725.80 0.1894
725.90 0.189
726.00 0.1886
726.10 0.1883
726.20 0.1879
726.30 0.1875
726.40 0.1871
726.50 0.1867
726.60 0.1863
726.70 0.1859
726.80 0.1855
726.90 0.1851
727.00 0.1847
727.10 0.1843
727.20 0.1839
727.30 0.1835
727.40 0.1831
727.50 0.1827
727.60 0.1823
727.70 0.1819
727.80 0.1815
727.90 0.1811
728.00 0.1808
728.10 0.1804
728.20 0.18
728.30 0.1796
728.40 0.1792
728.50 0.1788
728.60 0.1784
728.70 0.178
728.80 0.1776
728.90 0.1772
729.00 0.1768
729.10 0.1765
729.20 0.1761
729.30 0.1757
729.40 0.1753
729.50 0.1749
729.60 0.1745
729.70 0.1741
729.80 0.1737
729.90 0.1733
730.00 0.1729
730.10 0.1727
730.20 0.1724
730.30 0.1721
730.40 0.1718
730.50 0.1715
730.60 0.1712
730.70 0.1709
730.80 0.1706
730.90 0.1704
731.00 0.1701
731.10 0.1698
731.20 0.1695
731.30 0.1692
731.40 0.1689
731.50 0.1686
731.60 0.1684
731.70 0.1681
731.80 0.1678
731.90 0.1675
732.00 0.1672
732.10 0.1669
732.20 0.1666
732.30 0.1664
732.40 0.1661
732.50 0.1658
732.60 0.1655
732.70 0.1652
732.80 0.1649
732.90 0.1646
733.00 0.1644
733.10 0.1641
733.20 0.1638
733.30 0.1635
733.40 0.1632
733.50 0.1629
733.60 0.1627
733.70 0.1624
733.80 0.1621
733.90 0.1618
734.00 0.1615
734.10 0.1613
734.20 0.161
734.30 0.1607
734.40 0.1604
734.50 0.1601
734.60 0.1598
734.70 0.1596
734.80 0.1593
734.90 0.159
735.00 0.1587
735.10 0.1584
735.20 0.1582
735.30 0.1579
735.40 0.1576
735.50 0.1573
735.60 0.157
735.70 0.1568
735.80 0.1565
735.90 0.1562
736.00 0.1559
736.10 0.1556
736.20 0.1554
736.30 0.1551
736.40 0.1548
736.50 0.1545
736.60 0.1542
736.70 0.154
736.80 0.1537
736.90 0.1534
737.00 0.1531
737.10 0.1529
737.20 0.1526
737.30 0.1523
737.40 0.152
737.50 0.1517
737.60 0.1515
737.70 0.1512
737.80 0.1509
737.90 0.1506
738.00 0.1504
738.10 0.1501
738.20 0.1498
738.30 0.1495
738.40 0.1493
738.50 0.149
738.60 0.1487
738.70 0.1484
738.80 0.1482
738.90 0.1479
739.00 0.1476
739.10 0.1473
739.20 0.1471
739.30 0.1468
739.40 0.1465
739.50 0.1462
739.60 0.146
739.70 0.1457
739.80 0.1454
739.90 0.1451
740.00 0.1449
740.10 0.1447
740.20 0.1445
740.30 0.1443
740.40 0.1442
740.50 0.144
740.60 0.1438
740.70 0.1437
740.80 0.1435
740.90 0.1433
741.00 0.1432
741.10 0.143
741.20 0.1428
741.30 0.1426
741.40 0.1425
741.50 0.1423
741.60 0.1421
741.70 0.142
741.80 0.1418
741.90 0.1416
742.00 0.1415
742.10 0.1413
742.20 0.1411
742.30 0.141
742.40 0.1408
742.50 0.1406
742.60 0.1404
742.70 0.1403
742.80 0.1401
742.90 0.1399
743.00 0.1398
743.10 0.1396
743.20 0.1394
743.30 0.1393
743.40 0.1391
743.50 0.1389
743.60 0.1388
743.70 0.1386
743.80 0.1384
743.90 0.1383
744.00 0.1381
744.10 0.1379
744.20 0.1378
744.30 0.1376
744.40 0.1374
744.50 0.1373
744.60 0.1371
744.70 0.1369
744.80 0.1368
744.90 0.1366
745.00 0.1364
745.10 0.1363
745.20 0.1361
745.30 0.1359
745.40 0.1358
745.50 0.1356
745.60 0.1354
745.70 0.1353
745.80 0.1351
745.90 0.1349
746.00 0.1348
746.10 0.1346
746.20 0.1344
746.30 0.1343
746.40 0.1341
746.50 0.1339
746.60 0.1338
746.70 0.1336
746.80 0.1334
746.90 0.1333
747.00 0.1331
747.10 0.1329
747.20 0.1328
747.30 0.1326
747.40 0.1324
747.50 0.1323
747.60 0.1321
747.70 0.132
747.80 0.1318
747.90 0.1316
748.00 0.1315
748.10 0.1313
748.20 0.1311
748.30 0.131
748.40 0.1308
748.50 0.1306
748.60 0.1305
748.70 0.1303
748.80 0.1302
748.90 0.13
749.00 0.1298
749.10 0.1297
749.20 0.1295
749.30 0.1293
749.40 0.1292
749.50 0.129
749.60 0.1288
749.70 0.1287
749.80 0.1285
749.90 0.1284
750.00 0.1282
750.10 0.1281
750.20 0.128
750.30 0.1279
750.40 0.1278
750.50 0.1277
750.60 0.1276
750.70 0.1275
750.80 0.1274
750.90 0.1273
751.00 0.1272
751.10 0.1271
751.20 0.127
751.30 0.1269
751.40 0.1268
751.50 0.1267
751.60 0.1266
751.70 0.1265
751.80 0.1264
751.90 0.1262
752.00 0.1261
752.10 0.126
752.20 0.1259
752.30 0.1258
752.40 0.1257
752.50 0.1256
752.60 0.1255
752.70 0.1254
752.80 0.1253
752.90 0.1252
753.00 0.1251
753.10 0.125
753.20 0.1249
753.30 0.1248
753.40 0.1247
753.50 0.1246
753.60 0.1245
753.70 0.1244
753.80 0.1243
753.90 0.1242
754.00 0.1241
754.10 0.124
754.20 0.1239
754.30 0.1238
754.40 0.1237
754.50 0.1236
754.60 0.1235
754.70 0.1234
754.80 0.1233
754.90 0.1232
755.00 0.1231
755.10 0.123
755.20 0.1229
755.30 0.1228
755.40 0.1227
755.50 0.1226
755.60 0.1225
755.70 0.1224
755.80 0.1223
755.90 0.1222
756.00 0.1221
756.10 0.122
756.20 0.1219
756.30 0.1218
756.40 0.1217
756.50 0.1216
756.60 0.1215
756.70 0.1214
756.80 0.1213
756.90 0.1212
757.00 0.1211
757.10 0.121
757.20 0.1209
757.30 0.1208
757.40 0.1207
757.50 0.1206
757.60 0.1205
757.70 0.1204
757.80 0.1203
757.90 0.1202
758.00 0.1201
758.10 0.12
758.20 0.1199
758.30 0.1198
758.40 0.1197
758.50 0.1196
758.60 0.1195
758.70 0.1194
758.80 0.1193
758.90 0.1192
759.00 0.1191
759.10 0.119
759.20 0.1189
759.30 0.1188
759.40 0.1187
759.50 0.1186
759.60 0.1185
759.70 0.1184
759.80 0.1183
759.90 0.1182
760.00 0.1181
760.10 0.1181
760.20 0.118
760.30 0.1179
760.40 0.1179
760.50 0.1178
760.60 0.1178
760.70 0.1177
760.80 0.1176
760.90 0.1176
761.00 0.1175
761.10 0.1174
761.20 0.1174
761.30 0.1173
761.40 0.1172
761.50 0.1172
761.60 0.1171
761.70 0.117
761.80 0.117
761.90 0.1169
762.00 0.1169
762.10 0.1168
762.20 0.1167
762.30 0.1167
762.40 0.1166
762.50 0.1165
762.60 0.1165
762.70 0.1164
762.80 0.1163
762.90 0.1163
763.00 0.1162
763.10 0.1162
763.20 0.1161
763.30 0.116
763.40 0.116
763.50 0.1159
763.60 0.1158
763.70 0.1158
763.80 0.1157
763.90 0.1156
764.00 0.1156
764.10 0.1155
764.20 0.1155
764.30 0.1154
764.40 0.1153
764.50 0.1153
764.60 0.1152
764.70 0.1151
764.80 0.1151
764.90 0.115
765.00 0.1149
765.10 0.1149
765.20 0.1148
765.30 0.1148
765.40 0.1147
765.50 0.1146
765.60 0.1146
765.70 0.1145
765.80 0.1144
765.90 0.1144
766.00 0.1143
766.10 0.1143
766.20 0.1142
766.30 0.1141
766.40 0.1141
766.50 0.114
766.60 0.1139
766.70 0.1139
766.80 0.1138
766.90 0.1138
767.00 0.1137
767.10 0.1136
767.20 0.1136
767.30 0.1135
767.40 0.1134
767.50 0.1134
767.60 0.1133
767.70 0.1133
767.80 0.1132
767.90 0.1131
768.00 0.1131
768.10 0.113
768.20 0.1129
768.30 0.1129
768.40 0.1128
768.50 0.1128
768.60 0.1127
768.70 0.1126
768.80 0.1126
768.90 0.1125
769.00 0.1124
769.10 0.1124
769.20 0.1123
769.30 0.1123
769.40 0.1122
769.50 0.1121
769.60 0.1121
769.70 0.112
769.80 0.112
769.90 0.1119
770.00 0.1118
770.10 0.1118
770.20 0.1118
770.30 0.1117
770.40 0.1117
770.50 0.1117
770.60 0.1117
770.70 0.1116
770.80 0.1116
770.90 0.1116
771.00 0.1115
771.10 0.1115
771.20 0.1115
771.30 0.1115
771.40 0.1114
771.50 0.1114
771.60 0.1114
771.70 0.1113
771.80 0.1113
771.90 0.1113
772.00 0.1112
772.10 0.1112
772.20 0.1112
772.30 0.1112
772.40 0.1111
772.50 0.1111
772.60 0.1111
772.70 0.111
772.80 0.111
772.90 0.111
773.00 0.111
773.10 0.1109
773.20 0.1109
773.30 0.1109
773.40 0.1108
773.50 0.1108
773.60 0.1108
773.70 0.1108
773.80 0.1107
773.90 0.1107
774.00 0.1107
774.10 0.1106
774.20 0.1106
774.30 0.1106
774.40 0.1106
774.50 0.1105
774.60 0.1105
774.70 0.1105
774.80 0.1104
774.90 0.1104
775.00 0.1104
775.10 0.1104
775.20 0.1103
775.30 0.1103
775.40 0.1103
775.50 0.1102
775.60 0.1102
775.70 0.1102
775.80 0.1102
775.90 0.1101
776.00 0.1101
776.10 0.1101
776.20 0.11
776.30 0.11
776.40 0.11
776.50 0.11
776.60 0.1099
776.70 0.1099
776.80 0.1099
776.90 0.1098
777.00 0.1098
777.10 0.1098
777.20 0.1098
777.30 0.1097
777.40 0.1097
777.50 0.1097
777.60 0.1097
777.70 0.1096
777.80 0.1096
777.90 0.1096
778.00 0.1095
778.10 0.1095
778.20 0.1095
778.30 0.1095
778.40 0.1094
778.50 0.1094
778.60 0.1094
778.70 0.1093
778.80 0.1093
778.90 0.1093
779.00 0.1093
779.10 0.1092
779.20 0.1092
779.30 0.1092
779.40 0.1091
779.50 0.1091
779.60 0.1091
779.70 0.1091
779.80 0.109
779.90 0.109
780.00 0.109
780.10 0.109
780.20 0.109
780.30 0.1091
780.40 0.1091
780.50 0.1091
780.60 0.1091
780.70 0.1091
780.80 0.1092
780.90 0.1092
781.00 0.1092
781.10 0.1092
781.20 0.1093
781.30 0.1093
781.40 0.1093
781.50 0.1093
781.60 0.1094
781.70 0.1094
781.80 0.1094
781.90 0.1094
782.00 0.1095
782.10 0.1095
782.20 0.1095
782.30 0.1095
782.40 0.1096
782.50 0.1096
782.60 0.1096
782.70 0.1096
782.80 0.1096
782.90 0.1097
783.00 0.1097
783.10 0.1097
783.20 0.1097
783.30 0.1098
783.40 0.1098
783.50 0.1098
783.60 0.1098
783.70 0.1099
783.80 0.1099
783.90 0.1099
784.00 0.1099
784.10 0.11
784.20 0.11
784.30 0.11
784.40 0.11
784.50 0.11
784.60 0.1101
784.70 0.1101
784.80 0.1101
784.90 0.1101
785.00 0.1102
785.10 0.1102
785.20 0.1102
785.30 0.1102
785.40 0.1103
785.50 0.1103
785.60 0.1103
785.70 0.1103
785.80 0.1104
785.90 0.1104
786.00 0.1104
786.10 0.1104
786.20 0.1104
786.30 0.1105
786.40 0.1105
786.50 0.1105
786.60 0.1105
786.70 0.1106
786.80 0.1106
786.90 0.1106
787.00 0.1106
787.10 0.1107
787.20 0.1107
787.30 0.1107
787.40 0.1107
787.50 0.1107
787.60 0.1108
787.70 0.1108
787.80 0.1108
787.90 0.1108
788.00 0.1109
788.10 0.1109
788.20 0.1109
788.30 0.1109
788.40 0.111
788.50 0.111
788.60 0.111
788.70 0.111
788.80 0.111
788.90 0.1111
789.00 0.1111
789.10 0.1111
789.20 0.1111
789.30 0.1112
789.40 0.1112
789.50 0.1112
789.60 0.1112
789.70 0.1112
789.80 0.1113
789.90 0.1113
790.00 0.1113
790.10 0.1114
790.20 0.1114
790.30 0.1115
790.40 0.1115
790.50 0.1116
790.60 0.1116
790.70 0.1117
790.80 0.1117
790.90 0.1118
791.00 0.1118
791.10 0.1119
791.20 0.1119
791.30 0.112
791.40 0.112
791.50 0.1121
791.60 0.1121
791.70 0.1122
791.80 0.1122
791.90 0.1123
792.00 0.1123
792.10 0.1124
792.20 0.1124
792.30 0.1125
792.40 0.1125
792.50 0.1126
792.60 0.1126
792.70 0.1127
792.80 0.1127
792.90 0.1128
793.00 0.1128
793.10 0.1129
793.20 0.1129
793.30 0.113
793.40 0.113
793.50 0.1131
793.60 0.1131
793.70 0.1132
793.80 0.1132
793.90 0.1133
794.00 0.1133
794.10 0.1134
794.20 0.1134
794.30 0.1135
794.40 0.1135
794.50 0.1136
794.60 0.1136
794.70 0.1137
794.80 0.1137
794.90 0.1138
795.00 0.1138
795.10 0.1139
795.20 0.1139
795.30 0.114
795.40 0.114
795.50 0.1141
795.60 0.1141
795.70 0.1142
795.80 0.1142
795.90 0.1143
796.00 0.1143
796.10 0.1144
796.20 0.1144
796.30 0.1145
796.40 0.1145
796.50 0.1146
796.60 0.1146
796.70 0.1147
796.80 0.1147
796.90 0.1148
797.00 0.1148
797.10 0.1149
797.20 0.1149
797.30 0.115
797.40 0.115
797.50 0.1151
797.60 0.1151
797.70 0.1152
797.80 0.1152
797.90 0.1153
798.00 0.1153
798.10 0.1154
798.20 0.1154
798.30 0.1155
798.40 0.1155
798.50 0.1156
798.60 0.1156
798.70 0.1157
798.80 0.1157
798.90 0.1158
799.00 0.1158
799.10 0.1159
799.20 0.1159
799.30 0.116
799.40 0.116
799.50 0.1161
799.60 0.1161
799.70 0.1162
799.80 0.1162
799.90 0.1162
800.00 0.1163
800.10 0.1163
800.20 0.1164
800.30 0.1164
800.40 0.1164
800.50 0.1164
800.60 0.1165
800.70 0.1165
800.80 0.1165
800.90 0.1166
801.00 0.1166
801.10 0.1166
801.20 0.1166
801.30 0.1167
801.40 0.1167
801.50 0.1167
801.60 0.1168
801.70 0.1168
801.80 0.1168
801.90 0.1168
802.00 0.1169
802.10 0.1169
802.20 0.1169
802.30 0.117
802.40 0.117
802.50 0.117
802.60 0.117
802.70 0.1171
802.80 0.1171
802.90 0.1171
803.00 0.1172
803.10 0.1172
803.20 0.1172
803.30 0.1172
803.40 0.1173
803.50 0.1173
803.60 0.1173
803.70 0.1174
803.80 0.1174
803.90 0.1174
804.00 0.1174
804.10 0.1175
804.20 0.1175
804.30 0.1175
804.40 0.1176
804.50 0.1176
804.60 0.1176
804.70 0.1176
804.80 0.1177
804.90 0.1177
805.00 0.1177
805.10 0.1178
805.20 0.1178
805.30 0.1178
805.40 0.1178
805.50 0.1179
805.60 0.1179
805.70 0.1179
805.80 0.118
805.90 0.118
806.00 0.118
806.10 0.118
806.20 0.1181
806.30 0.1181
806.40 0.1181
806.50 0.1182
806.60 0.1182
806.70 0.1182
806.80 0.1182
806.90 0.1183
807.00 0.1183
807.10 0.1183
807.20 0.1184
807.30 0.1184
807.40 0.1184
807.50 0.1184
807.60 0.1185
807.70 0.1185
807.80 0.1185
807.90 0.1185
808.00 0.1186
808.10 0.1186
808.20 0.1186
808.30 0.1187
808.40 0.1187
808.50 0.1187
808.60 0.1187
808.70 0.1188
808.80 0.1188
808.90 0.1188
809.00 0.1188
809.10 0.1189
809.20 0.1189
809.30 0.1189
809.40 0.119
809.50 0.119
809.60 0.119
809.70 0.119
809.80 0.1191
809.90 0.1191
810.00 0.1191
810.10 0.1191
810.20 0.1191
810.30 0.1192
810.40 0.1192
810.50 0.1192
810.60 0.1192
810.70 0.1192
810.80 0.1192
810.90 0.1192
811.00 0.1192
811.10 0.1192
811.20 0.1192
811.30 0.1192
811.40 0.1192
811.50 0.1193
811.60 0.1193
811.70 0.1193
811.80 0.1193
811.90 0.1193
812.00 0.1193
812.10 0.1193
812.20 0.1193
812.30 0.1193
812.40 0.1193
812.50 0.1193
812.60 0.1194
812.70 0.1194
812.80 0.1194
812.90 0.1194
813.00 0.1194
813.10 0.1194
813.20 0.1194
813.30 0.1194
813.40 0.1194
813.50 0.1194
813.60 0.1194
813.70 0.1194
813.80 0.1195
813.90 0.1195
814.00 0.1195
814.10 0.1195
814.20 0.1195
814.30 0.1195
814.40 0.1195
814.50 0.1195
814.60 0.1195
814.70 0.1195
814.80 0.1195
814.90 0.1195
815.00 0.1196
815.10 0.1196
815.20 0.1196
815.30 0.1196
815.40 0.1196
815.50 0.1196
815.60 0.1196
815.70 0.1196
815.80 0.1196
815.90 0.1196
816.00 0.1196
816.10 0.1196
816.20 0.1197
816.30 0.1197
816.40 0.1197
816.50 0.1197
816.60 0.1197
816.70 0.1197
816.80 0.1197
816.90 0.1197
817.00 0.1197
817.10 0.1197
817.20 0.1197
817.30 0.1197
817.40 0.1198
817.50 0.1198
817.60 0.1198
817.70 0.1198
817.80 0.1198
817.90 0.1198
818.00 0.1198
818.10 0.1198
818.20 0.1198
818.30 0.1198
818.40 0.1198
818.50 0.1198
818.60 0.1199
818.70 0.1199
818.80 0.1199
818.90 0.1199
819.00 0.1199
819.10 0.1199
819.20 0.1199
819.30 0.1199
819.40 0.1199
819.50 0.1199
819.60 0.1199
819.70 0.1199
819.80 0.12
819.90 0.12
820.00 0.12
820.10 0.12
820.20 0.12
820.30 0.12
820.40 0.12
820.50 0.12
820.60 0.1201
820.70 0.1201
820.80 0.1201
820.90 0.1201
821.00 0.1201
821.10 0.1201
821.20 0.1202
821.30 0.1202
821.40 0.1202
821.50 0.1202
821.60 0.1202
821.70 0.1202
821.80 0.1203
821.90 0.1203
822.00 0.1203
822.10 0.1203
822.20 0.1203
822.30 0.1204
822.40 0.1204
822.50 0.1204
822.60 0.1204
822.70 0.1205
822.80 0.1205
822.90 0.1205
823.00 0.1205
823.10 0.1206
823.20 0.1206
823.30 0.1206
823.40 0.1206
823.50 0.1206
823.60 0.1207
823.70 0.1207
823.80 0.1207
823.90 0.1207
824.00 0.1208
824.10 0.1208
824.20 0.1208
824.30 0.1208
824.40 0.1209
824.50 0.1209
824.60 0.1209
824.70 0.1209
824.80 0.1209
824.90 0.121
825.00 0.121
825.10 0.121
825.20 0.121
825.30 0.1211
825.40 0.1211
825.50 0.1211
825.60 0.1211
825.70 0.1211
825.80 0.1212
825.90 0.1212
826.00 0.1212
826.10 0.1212
826.20 0.1213
826.30 0.1213
826.40 0.1213
826.50 0.1213
826.60 0.1214
826.70 0.1214
826.80 0.1214
826.90 0.1214
827.00 0.1214
827.10 0.1215
827.20 0.1215
827.30 0.1215
827.40 0.1216
827.50 0.1216
827.60 0.1216
827.70 0.1216
827.80 0.1217
827.90 0.1217
828.00 0.1217
828.10 0.1217
828.20 0.1218
828.30 0.1218
828.40 0.1218
828.50 0.1219
828.60 0.1219
828.70 0.1219
828.80 0.1219
828.90 0.122
829.00 0.122
829.10 0.122
829.20 0.122
829.30 0.1221
829.40 0.1221
829.50 0.1221
829.60 0.1222
829.70 0.1222
829.80 0.1222
829.90 0.1222
830.00 0.1223
830.10 0.1223
830.20 0.1223
830.30 0.1223
830.40 0.1224
830.50 0.1224
830.60 0.1224
830.70 0.1225
830.80 0.1225
830.90 0.1225
831.00 0.1225
831.10 0.1226
831.20 0.1226
831.30 0.1226
831.40 0.1226
831.50 0.1227
831.60 0.1227
831.70 0.1227
831.80 0.1228
831.90 0.1228
832.00 0.1228
832.10 0.1228
832.20 0.1229
832.30 0.1229
832.40 0.1229
832.50 0.1229
832.60 0.1229
832.70 0.123
832.80 0.123
832.90 0.123
833.00 0.123
833.10 0.123
833.20 0.1231
833.30 0.1231
833.40 0.1231
833.50 0.1231
833.60 0.1231
833.70 0.1232
833.80 0.1232
833.90 0.1232
834.00 0.1232
834.10 0.1233
834.20 0.1233
834.30 0.1233
834.40 0.1233
834.50 0.1233
834.60 0.1234
834.70 0.1234
834.80 0.1234
834.90 0.1234
835.00 0.1234
835.10 0.1235
835.20 0.1235
835.30 0.1235
835.40 0.1235
835.50 0.1235
835.60 0.1236
835.70 0.1236
835.80 0.1236
835.90 0.1236
836.00 0.1236
836.10 0.1237
836.20 0.1237
836.30 0.1237
836.40 0.1237
836.50 0.1238
836.60 0.1238
836.70 0.1238
836.80 0.1238
836.90 0.1238
837.00 0.1239
837.10 0.1239
837.20 0.1239
837.30 0.1239
837.40 0.1239
837.50 0.1239
837.60 0.124
837.70 0.124
837.80 0.124
837.90 0.124
838.00 0.124
838.10 0.124
838.20 0.124
838.30 0.1241
838.40 0.1241
838.50 0.1241
838.60 0.1241
838.70 0.1241
838.80 0.1241
838.90 0.1242
839.00 0.1242
839.10 0.1242
839.20 0.1242
839.30 0.1242
839.40 0.1242
839.50 0.1243
839.60 0.1243
839.70 0.1243
839.80 0.1243
839.90 0.1243
840.00 0.1243
840.10 0.1244
840.20 0.1244
840.30 0.1244
840.40 0.1244
840.50 0.1244
840.60 0.1244
840.70 0.1245
840.80 0.1245
840.90 0.1245
841.00 0.1245
841.10 0.1245
841.20 0.1245
841.30 0.1245
841.40 0.1246
841.50 0.1246
841.60 0.1246
841.70 0.1246
841.80 0.1246
841.90 0.1246
842.00 0.1247
842.10 0.1247
842.20 0.1247
842.30 0.1247
842.40 0.1247
842.50 0.1247
842.60 0.1247
842.70 0.1247
842.80 0.1247
842.90 0.1248
843.00 0.1248
843.10 0.1248
843.20 0.1248
843.30 0.1248
843.40 0.1248
843.50 0.1248
843.60 0.1248
843.70 0.1249
843.80 0.1249
843.90 0.1249
844.00 0.1249
844.10 0.1249
844.20 0.1249
844.30 0.1249
844.40 0.1249
844.50 0.1249
844.60 0.125
844.70 0.125
844.80 0.125
844.90 0.125
845.00 0.125
845.10 0.125
845.20 0.125
845.30 0.125
845.40 0.125
845.50 0.1251
845.60 0.1251
845.70 0.1251
845.80 0.1251
845.90 0.1251
846.00 0.1251
846.10 0.1251
846.20 0.1251
846.30 0.1251
846.40 0.1252
846.50 0.1252
846.60 0.1252
846.70 0.1252
846.80 0.1252
846.90 0.1252
847.00 0.1252
847.10 0.1252
847.20 0.1252
847.30 0.1253
847.40 0.1253
847.50 0.1253
847.60 0.1253
847.70 0.1253
847.80 0.1253
847.90 0.1253
848.00 0.1253
848.10 0.1253
848.20 0.1253
848.30 0.1254
848.40 0.1254
848.50 0.1254
848.60 0.1254
848.70 0.1254
848.80 0.1254
848.90 0.1254
849.00 0.1254
849.10 0.1254
849.20 0.1255
849.30 0.1255
849.40 0.1255
849.50 0.1255
849.60 0.1255
849.70 0.1255
849.80 0.1255
849.90 0.1255
850.00 0.1255
850.10 0.1255
850.20 0.1256
850.30 0.1256
850.40 0.1256
850.50 0.1256
850.60 0.1256
850.70 0.1256
850.80 0.1256
850.90 0.1256
851.00 0.1256
851.10 0.1257
851.20 0.1257
851.30 0.1257
851.40 0.1257
851.50 0.1257
851.60 0.1257
851.70 0.1257
851.80 0.1257
851.90 0.1257
852.00 0.1257
852.10 0.1258
852.20 0.1258
852.30 0.1258
852.40 0.1258
852.50 0.1258
852.60 0.1258
852.70 0.1258
852.80 0.1258
852.90 0.1259
853.00 0.1259
853.10 0.1259
853.20 0.1259
853.30 0.1259
853.40 0.1259
853.50 0.1259
853.60 0.1259
853.70 0.1259
853.80 0.126
853.90 0.126
854.00 0.126
854.10 0.126
854.20 0.126
854.30 0.126
854.40 0.126
854.50 0.126
854.60 0.126
854.70 0.1261
854.80 0.1261
854.90 0.1261
855.00 0.1261
855.10 0.1261
855.20 0.1261
855.30 0.1261
855.40 0.1261
855.50 0.1261
855.60 0.1262
855.70 0.1262
855.80 0.1262
855.90 0.1262
856.00 0.1262
856.10 0.1262
856.20 0.1262
856.30 0.1262
856.40 0.1262
856.50 0.1263
856.60 0.1263
856.70 0.1263
856.80 0.1263
856.90 0.1263
857.00 0.1263
857.10 0.1263
857.20 0.1263
857.30 0.1263
857.40 0.1264
857.50 0.1264
857.60 0.1264
857.70 0.1264
857.80 0.1264
857.90 0.1264
858.00 0.1264
858.10 0.1264
858.20 0.1265
858.30 0.1265
858.40 0.1265
858.50 0.1265
858.60 0.1265
858.70 0.1265
858.80 0.1265
858.90 0.1265
859.00 0.1266
859.10 0.1266
859.20 0.1266
859.30 0.1266
859.40 0.1266
859.50 0.1266
859.60 0.1266
859.70 0.1266
859.80 0.1266
859.90 0.1267
860.00 0.1267
860.10 0.1267
860.20 0.1267
860.30 0.1267
860.40 0.1267
860.50 0.1267
860.60 0.1267
860.70 0.1268
860.80 0.1268
860.90 0.1268
861.00 0.1268
861.10 0.1268
861.20 0.1268
861.30 0.1268
861.40 0.1268
861.50 0.1269
861.60 0.1269
861.70 0.1269
861.80 0.1269
861.90 0.1269
862.00 0.1269
862.10 0.1269
862.20 0.1269
862.30 0.127
862.40 0.127
862.50 0.127
862.60 0.127
862.70 0.127
862.80 0.127
862.90 0.127
863.00 0.1271
863.10 0.1271
863.20 0.1271
863.30 0.1271
863.40 0.1271
863.50 0.1271
863.60 0.1272
863.70 0.1272
863.80 0.1272
863.90 0.1272
864.00 0.1272
864.10 0.1272
864.20 0.1272
864.30 0.1273
864.40 0.1273
864.50 0.1273
864.60 0.1273
864.70 0.1273
864.80 0.1273
864.90 0.1273
865.00 0.1274
865.10 0.1274
865.20 0.1274
865.30 0.1274
865.40 0.1274
865.50 0.1274
865.60 0.1274
865.70 0.1275
865.80 0.1275
865.90 0.1275
866.00 0.1275
866.10 0.1275
866.20 0.1275
866.30 0.1276
866.40 0.1276
866.50 0.1276
866.60 0.1276
866.70 0.1276
866.80 0.1276
866.90 0.1276
867.00 0.1277
867.10 0.1277
867.20 0.1277
867.30 0.1277
867.40 0.1277
867.50 0.1277
867.60 0.1277
867.70 0.1277
867.80 0.1277
867.90 0.1277
868.00 0.1277
868.10 0.1277
868.20 0.1277
868.30 0.1277
868.40 0.1278
868.50 0.1278
868.60 0.1278
868.70 0.1278
868.80 0.1278
868.90 0.1278
869.00 0.1278
869.10 0.1278
869.20 0.1278
869.30 0.1278
869.40 0.1278
869.50 0.1278
869.60 0.1278
869.70 0.1278
869.80 0.1278
869.90 0.1279
870.00 0.1279
870.10 0.1279
870.20 0.1279
870.30 0.1279
870.40 0.1279
870.50 0.1279
870.60 0.1279
870.70 0.1279
870.80 0.1279
870.90 0.1279
871.00 0.1279
871.10 0.1279
871.20 0.1279
871.30 0.1279
871.40 0.128
871.50 0.128
871.60 0.128
871.70 0.128
871.80 0.128
871.90 0.128
872.00 0.128
872.10 0.128
872.20 0.128
872.30 0.128
872.40 0.128
872.50 0.128
872.60 0.128
872.70 0.128
872.80 0.128
872.90 0.128
873.00 0.128
873.10 0.128
873.20 0.128
873.30 0.128
873.40 0.128
873.50 0.128
873.60 0.128
873.70 0.128
873.80 0.128
873.90 0.128
874.00 0.128
874.10 0.128
874.20 0.128
874.30 0.128
874.40 0.128
874.50 0.128
874.60 0.128
874.70 0.128
874.80 0.128
874.90 0.128
875.00 0.128
875.10 0.128
875.20 0.128
875.30 0.128
875.40 0.128
875.50 0.128
875.60 0.128
875.70 0.128
875.80 0.128
875.90 0.128
876.00 0.128
876.10 0.128
876.20 0.128
876.30 0.128
876.40 0.128
876.50 0.128
876.60 0.128
876.70 0.128
876.80 0.128
876.90 0.128
877.00 0.128
877.10 0.1279
877.20 0.1279
877.30 0.1279
877.40 0.1279
877.50 0.1279
877.60 0.1279
877.70 0.1278
877.80 0.1278
877.90 0.1278
878.00 0.1278
878.10 0.1278
878.20 0.1278
878.30 0.1277
878.40 0.1277
878.50 0.1277
878.60 0.1277
878.70 0.1277
878.80 0.1276
878.90 0.1276
879.00 0.1276
879.10 0.1276
879.20 0.1276
879.30 0.1276
879.40 0.1275
879.50 0.1275
879.60 0.1275
879.70 0.1275
879.80 0.1275
879.90 0.1274
880.00 0.1274
880.10 0.1274
880.20 0.1274
880.30 0.1274
880.40 0.1274
880.50 0.1273
880.60 0.1273
880.70 0.1273
880.80 0.1273
880.90 0.1273
881.00 0.1272
881.10 0.1272
881.20 0.1272
881.30 0.1272
881.40 0.1272
881.50 0.1272
881.60 0.1271
881.70 0.1271
881.80 0.1271
881.90 0.1271
882.00 0.1271
882.10 0.127
882.20 0.127
882.30 0.127
882.40 0.1269
882.50 0.1269
882.60 0.1269
882.70 0.1269
882.80 0.1268
882.90 0.1268
883.00 0.1268
883.10 0.1267
883.20 0.1267
883.30 0.1267
883.40 0.1266
883.50 0.1266
883.60 0.1266
883.70 0.1265
883.80 0.1265
883.90 0.1265
884.00 0.1264
884.10 0.1264
884.20 0.1264
884.30 0.1264
884.40 0.1263
884.50 0.1263
884.60 0.1263
884.70 0.1262
884.80 0.1262
884.90 0.1262
885.00 0.1261
885.10 0.1261
885.20 0.1261
885.30 0.126
885.40 0.126
885.50 0.126
885.60 0.126
885.70 0.1259
885.80 0.1259
885.90 0.1259
886.00 0.1258
886.10 0.1258
886.20 0.1258
886.30 0.1257
886.40 0.1257
886.50 0.1257
886.60 0.1256
886.70 0.1256
886.80 0.1256
886.90 0.1255
887.00 0.1255
887.10 0.1255
887.20 0.1254
887.30 0.1254
887.40 0.1253
887.50 0.1253
887.60 0.1253
887.70 0.1252
887.80 0.1252
887.90 0.1251
888.00 0.1251
888.10 0.125
888.20 0.125
888.30 0.125
888.40 0.1249
888.50 0.1249
888.60 0.1248
888.70 0.1248
888.80 0.1247
888.90 0.1247
889.00 0.1246
889.10 0.1246
889.20 0.1246
889.30 0.1245
889.40 0.1245
889.50 0.1244
889.60 0.1244
889.70 0.1243
889.80 0.1243
889.90 0.1243
890.00 0.1242
890.10 0.1242
890.20 0.1241
890.30 0.1241
890.40 0.124
890.50 0.124
890.60 0.124
890.70 0.1239
890.80 0.1239
890.90 0.1238
891.00 0.1238
891.10 0.1237
891.20 0.1237
891.30 0.1237
891.40 0.1236
891.50 0.1236
891.60 0.1235
891.70 0.1235
891.80 0.1234
891.90 0.1234
892.00 0.1234
892.10 0.1233
892.20 0.1233
892.30 0.1232
892.40 0.1231
892.50 0.1231
892.60 0.123
892.70 0.123
892.80 0.1229
892.90 0.1229
893.00 0.1228
893.10 0.1228
893.20 0.1227
893.30 0.1227
893.40 0.1226
893.50 0.1226
893.60 0.1225
893.70 0.1225
893.80 0.1224
893.90 0.1224
894.00 0.1223
894.10 0.1223
894.20 0.1222
894.30 0.1222
894.40 0.1221
894.50 0.1221
894.60 0.122
894.70 0.122
894.80 0.1219
894.90 0.1219
895.00 0.1218
895.10 0.1218
895.20 0.1217
895.30 0.1217
895.40 0.1216
895.50 0.1216
895.60 0.1215
895.70 0.1215
895.80 0.1214
895.90 0.1214
896.00 0.1213
896.10 0.1213
896.20 0.1212
896.30 0.1212
896.40 0.1211
896.50 0.1211
896.60 0.121
896.70 0.1209
896.80 0.1209
896.90 0.1208
897.00 0.1208
897.10 0.1207
897.20 0.1207
897.30 0.1206
897.40 0.1206
897.50 0.1205
897.60 0.1204
897.70 0.1204
897.80 0.1203
897.90 0.1203
898.00 0.1202
898.10 0.1201
898.20 0.1201
898.30 0.12
898.40 0.12
898.50 0.1199
898.60 0.1198
898.70 0.1198
898.80 0.1197
898.90 0.1197
899.00 0.1196
899.10 0.1195
899.20 0.1195
899.30 0.1194
899.40 0.1194
899.50 0.1193
899.60 0.1193
899.70 0.1192
899.80 0.1191
899.90 0.1191
900.00 0.119
900.10 0.119
900.20 0.1189
900.30 0.1188
900.40 0.1188
900.50 0.1187
900.60 0.1187
900.70 0.1186
900.80 0.1185
900.90 0.1185
901.00 0.1184
901.10 0.1184
901.20 0.1183
901.30 0.1183
901.40 0.1182
901.50 0.1181
901.60 0.1181
901.70 0.118
901.80 0.118
901.90 0.1179
902.00 0.1178
902.10 0.1178
902.20 0.1177
902.30 0.1176
902.40 0.1176
902.50 0.1175
902.60 0.1174
902.70 0.1174
902.80 0.1173
902.90 0.1172
903.00 0.1172
903.10 0.1171
903.20 0.117
903.30 0.117
903.40 0.1169
903.50 0.1168
903.60 0.1168
903.70 0.1167
903.80 0.1167
903.90 0.1166
904.00 0.1165
904.10 0.1165
904.20 0.1164
904.30 0.1163
904.40 0.1163
904.50 0.1162
904.60 0.1161
904.70 0.1161
904.80 0.116
904.90 0.1159
905.00 0.1159
905.10 0.1158
905.20 0.1157
905.30 0.1157
905.40 0.1156
905.50 0.1155
905.60 0.1155
905.70 0.1154
905.80 0.1153
905.90 0.1153
906.00 0.1152
906.10 0.1151
906.20 0.1151
906.30 0.115
906.40 0.1149
906.50 0.1149
906.60 0.1148
906.70 0.1148
906.80 0.1147
906.90 0.1146
907.00 0.1146
907.10 0.1145
907.20 0.1144
907.30 0.1143
907.40 0.1143
907.50 0.1142
907.60 0.1141
907.70 0.114
907.80 0.1139
907.90 0.1139
908.00 0.1138
908.10 0.1137
908.20 0.1136
908.30 0.1136
908.40 0.1135
908.50 0.1134
908.60 0.1133
908.70 0.1133
908.80 0.1132
908.90 0.1131
909.00 0.113
909.10 0.113
909.20 0.1129
909.30 0.1128
909.40 0.1127
909.50 0.1127
909.60 0.1126
909.70 0.1125
909.80 0.1124
909.90 0.1124
910.00 0.1123
910.10 0.1122
910.20 0.1121
910.30 0.1121
910.40 0.112
910.50 0.1119
910.60 0.1118
910.70 0.1118
910.80 0.1117
910.90 0.1116
911.00 0.1115
911.10 0.1115
911.20 0.1114
911.30 0.1113
911.40 0.1112
911.50 0.1112
911.60 0.1111
911.70 0.111
911.80 0.1109
911.90 0.1109
912.00 0.1108
912.10 0.1107
912.20 0.1106
912.30 0.1105
912.40 0.1104
912.50 0.1104
912.60 0.1103
912.70 0.1102
912.80 0.1101
912.90 0.11
913.00 0.1099
913.10 0.1098
913.20 0.1098
913.30 0.1097
913.40 0.1096
913.50 0.1095
913.60 0.1094
913.70 0.1093
913.80 0.1093
913.90 0.1092
914.00 0.1091
914.10 0.109
914.20 0.1089
914.30 0.1088
914.40 0.1088
914.50 0.1087
914.60 0.1086
914.70 0.1085
914.80 0.1084
914.90 0.1083
915.00 0.1083
915.10 0.1082
915.20 0.1081
915.30 0.108
915.40 0.1079
915.50 0.1078
915.60 0.1078
915.70 0.1077
915.80 0.1076
915.90 0.1075
916.00 0.1074
916.10 0.1073
916.20 0.1073
916.30 0.1072
916.40 0.1071
916.50 0.107
916.60 0.1069
916.70 0.1068
916.80 0.1068
916.90 0.1067
917.00 0.1066
917.10 0.1065
917.20 0.1064
917.30 0.1063
917.40 0.1062
917.50 0.1061
917.60 0.1061
917.70 0.106
917.80 0.1059
917.90 0.1058
918.00 0.1057
918.10 0.1056
918.20 0.1055
918.30 0.1054
918.40 0.1053
918.50 0.1052
918.60 0.1051
918.70 0.1051
918.80 0.105
918.90 0.1049
919.00 0.1048
919.10 0.1047
919.20 0.1046
919.30 0.1045
919.40 0.1044
919.50 0.1043
919.60 0.1042
919.70 0.1042
919.80 0.1041
919.90 0.104
920.00 0.1039
920.10 0.1038
920.20 0.1037
920.30 0.1036
920.40 0.1035
920.50 0.1034
920.60 0.1033
920.70 0.1033
920.80 0.1032
920.90 0.1031
921.00 0.103
921.10 0.1029
921.20 0.1028
921.30 0.1027
921.40 0.1026
921.50 0.1025
921.60 0.1025
921.70 0.1024
921.80 0.1023
921.90 0.1022
922.00 0.1021
922.10 0.102
922.20 0.1019
922.30 0.1018
922.40 0.1017
922.50 0.1016
922.60 0.1015
922.70 0.1014
922.80 0.1013
922.90 0.1012
923.00 0.1011
923.10 0.101
923.20 0.1009
923.30 0.1009
923.40 0.1008
923.50 0.1007
923.60 0.1006
923.70 0.1005
923.80 0.1004
923.90 0.1003
924.00 0.1002
924.10 0.1001
924.20 0.1
924.30 0.0999
924.40 0.09981
924.50 0.09971
924.60 0.09962
924.70 0.09952
924.80 0.09943
924.90 0.09933
925.00 0.09924
925.10 0.09914
925.20 0.09905
925.30 0.09895
925.40 0.09886
925.50 0.09877
925.60 0.09867
925.70 0.09858
925.80 0.09848
925.90 0.09839
926.00 0.09829
926.10 0.0982
926.20 0.09811
926.30 0.09801
926.40 0.09792
926.50 0.09782
926.60 0.09773
926.70 0.09763
926.80 0.09754
926.90 0.09745
927.00 0.09735
927.10 0.09725
927.20 0.09715
927.30 0.09705
927.40 0.09695
927.50 0.09685
927.60 0.09675
927.70 0.09665
927.80 0.09655
927.90 0.09645
928.00 0.09635
928.10 0.09625
928.20 0.09615
928.30 0.09605
928.40 0.09595
928.50 0.09585
928.60 0.09576
928.70 0.09566
928.80 0.09556
928.90 0.09546
929.00 0.09536
929.10 0.09526
929.20 0.09516
929.30 0.09506
929.40 0.09496
929.50 0.09486
929.60 0.09476
929.70 0.09466
929.80 0.09456
929.90 0.09446
930.00 0.09437
930.10 0.09427
930.20 0.09417
930.30 0.09407
930.40 0.09397
930.50 0.09387
930.60 0.09377
930.70 0.09367
930.80 0.09357
930.90 0.09348
931.00 0.09338
931.10 0.09328
931.20 0.09318
931.30 0.09308
931.40 0.09298
931.50 0.09289
931.60 0.09279
931.70 0.09269
931.80 0.09259
931.90 0.09249
932.00 0.09239
932.10 0.09229
932.20 0.09219
932.30 0.09209
932.40 0.09199
932.50 0.09189
932.60 0.09179
932.70 0.09169
932.80 0.09159
932.90 0.09149
933.00 0.09139
933.10 0.09129
933.20 0.09119
933.30 0.09109
933.40 0.09099
933.50 0.09089
933.60 0.09079
933.70 0.09069
933.80 0.09059
933.90 0.0905
934.00 0.0904
934.10 0.0903
934.20 0.0902
934.30 0.0901
934.40 0.09
934.50 0.0899
934.60 0.08979
934.70 0.08969
934.80 0.08959
934.90 0.08949
935.00 0.08939
935.10 0.08929
935.20 0.08919
935.30 0.08909
935.40 0.08899
935.50 0.08889
935.60 0.08879
935.70 0.08869
935.80 0.08859
935.90 0.08849
936.00 0.08839
936.10 0.08829
936.20 0.08819
936.30 0.08809
936.40 0.08799
936.50 0.08789
936.60 0.08779
936.70 0.08769
936.80 0.08759
936.90 0.08749
937.00 0.08739
937.10 0.08729
937.20 0.08719
937.30 0.08709
937.40 0.08699
937.50 0.08689
937.60 0.08678
937.70 0.08668
937.80 0.08658
937.90 0.08648
938.00 0.08638
938.10 0.08628
938.20 0.08618
938.30 0.08608
938.40 0.08598
938.50 0.08588
938.60 0.08577
938.70 0.08567
938.80 0.08557
938.90 0.08547
939.00 0.08537
939.10 0.08526
939.20 0.08516
939.30 0.08506
939.40 0.08496
939.50 0.08485
939.60 0.08475
939.70 0.08465
939.80 0.08455
939.90 0.08445
940.00 0.08435
940.10 0.08424
940.20 0.08414
940.30 0.08404
940.40 0.08394
940.50 0.08384
940.60 0.08374
940.70 0.08364
940.80 0.08354
940.90 0.08344
941.00 0.08334
941.10 0.08324
941.20 0.08314
941.30 0.08304
941.40 0.08294
941.50 0.08284
941.60 0.08274
941.70 0.08264
941.80 0.08254
941.90 0.08244
942.00 0.08234
942.10 0.08224
942.20 0.08214
942.30 0.08204
942.40 0.08194
942.50 0.08184
942.60 0.08174
942.70 0.08164
942.80 0.08154
942.90 0.08144
943.00 0.08134
943.10 0.08124
943.20 0.08114
943.30 0.08104
943.40 0.08094
943.50 0.08084
943.60 0.08074
943.70 0.08064
943.80 0.08055
943.90 0.08045
944.00 0.08035
944.10 0.08025
944.20 0.08015
944.30 0.08005
944.40 0.07995
944.50 0.07985
944.60 0.07975
944.70 0.07965
944.80 0.07955
944.90 0.07945
945.00 0.07936
945.10 0.07926
945.20 0.07916
945.30 0.07906
945.40 0.07896
945.50 0.07886
945.60 0.07876
945.70 0.07866
945.80 0.07857
945.90 0.07847
946.00 0.07837
946.10 0.07827
946.20 0.07817
946.30 0.07807
946.40 0.07797
946.50 0.07788
946.60 0.07778
946.70 0.07768
946.80 0.07758
946.90 0.07748
947.00 0.07738
947.10 0.07729
947.20 0.07719
947.30 0.07709
947.40 0.07699
947.50 0.07689
947.60 0.0768
947.70 0.0767
947.80 0.0766
947.90 0.0765
948.00 0.0764
948.10 0.0763
948.20 0.07621
948.30 0.07611
948.40 0.07601
948.50 0.07591
948.60 0.07581
948.70 0.07572
948.80 0.07562
948.90 0.07552
949.00 0.07542
949.10 0.07533
949.20 0.07523
949.30 0.07513
949.40 0.07503
949.50 0.07494
949.60 0.07484
949.70 0.07474
949.80 0.07465
949.90 0.07455
950.00 0.07445
950.10 0.07435
950.20 0.07426
950.30 0.07416
950.40 0.07406
950.50 0.07397
950.60 0.07387
950.70 0.07377
950.80 0.07368
950.90 0.07358
951.00 0.07348
951.10 0.07339
951.20 0.07329
951.30 0.07319
951.40 0.0731
951.50 0.073
951.60 0.07291
951.70 0.07281
951.80 0.07271
951.90 0.07262
952.00 0.07252
952.10 0.07242
952.20 0.07233
952.30 0.07223
952.40 0.07214
952.50 0.07204
952.60 0.07194
952.70 0.07185
952.80 0.07175
952.90 0.07166
953.00 0.07156
953.10 0.07147
953.20 0.07137
953.30 0.07127
953.40 0.07118
953.50 0.07108
953.60 0.07099
953.70 0.07089
953.80 0.0708
953.90 0.0707
954.00 0.07061
954.10 0.07051
954.20 0.07042
954.30 0.07032
954.40 0.07023
954.50 0.07013
954.60 0.07004
954.70 0.06994
954.80 0.06985
954.90 0.06975
955.00 0.06966
955.10 0.06956
955.20 0.06947
955.30 0.06937
955.40 0.06928
955.50 0.06918
955.60 0.06909
955.70 0.069
955.80 0.0689
955.90 0.0688
956.00 0.06871
956.10 0.06861
956.20 0.06852
956.30 0.06842
956.40 0.06832
956.50 0.06823
956.60 0.06813
956.70 0.06804
956.80 0.06794
956.90 0.06784
957.00 0.06775
957.10 0.06765
957.20 0.06756
957.30 0.06747
957.40 0.06737
957.50 0.06728
957.60 0.06719
957.70 0.06709
957.80 0.067
957.90 0.06691
958.00 0.06681
958.10 0.06672
958.20 0.06663
958.30 0.06654
958.40 0.06644
958.50 0.06635
958.60 0.06626
958.70 0.06616
958.80 0.06607
958.90 0.06598
959.00 0.06589
959.10 0.06579
959.20 0.0657
959.30 0.06561
959.40 0.06552
959.50 0.06542
959.60 0.06533
959.70 0.06524
959.80 0.06515
959.90 0.06506
960.00 0.06497
960.10 0.06487
960.20 0.06478
960.30 0.06469
960.40 0.0646
960.50 0.06451
960.60 0.06442
960.70 0.06432
960.80 0.06423
960.90 0.06414
961.00 0.06405
961.10 0.06396
961.20 0.06387
961.30 0.06378
961.40 0.06368
961.50 0.06359
961.60 0.0635
961.70 0.06341
961.80 0.06332
961.90 0.06323
962.00 0.06314
962.10 0.06305
962.20 0.06296
962.30 0.06287
962.40 0.06278
962.50 0.06269
962.60 0.0626
962.70 0.06251
962.80 0.06242
962.90 0.06233
963.00 0.06224
963.10 0.06215
963.20 0.06206
963.30 0.06197
963.40 0.06188
963.50 0.06179
963.60 0.0617
963.70 0.06161
963.80 0.06152
963.90 0.06143
964.00 0.06134
964.10 0.06125
964.20 0.06117
964.30 0.06108
964.40 0.06098
964.50 0.06089
964.60 0.0608
964.70 0.06071
964.80 0.06062
964.90 0.06053
965.00 0.06044
965.10 0.06035
965.20 0.06026
965.30 0.06017
965.40 0.06008
965.50 0.05999
965.60 0.0599
965.70 0.05981
965.80 0.05972
965.90 0.05962
966.00 0.05953
966.10 0.05944
966.20 0.05935
966.30 0.05926
966.40 0.05918
966.50 0.05909
966.60 0.059
966.70 0.05891
966.80 0.05883
966.90 0.05874
967.00 0.05865
967.10 0.05857
967.20 0.05848
967.30 0.05839
967.40 0.05831
967.50 0.05822
967.60 0.05813
967.70 0.05805
967.80 0.05796
967.90 0.05787
968.00 0.05779
968.10 0.0577
968.20 0.05762
968.30 0.05753
968.40 0.05744
968.50 0.05736
968.60 0.05727
968.70 0.05719
968.80 0.0571
968.90 0.05702
969.00 0.05693
969.10 0.05685
969.20 0.05677
969.30 0.05668
969.40 0.0566
969.50 0.05651
969.60 0.05643
969.70 0.05634
969.80 0.05626
969.90 0.05617
970.00 0.05609
970.10 0.056
970.20 0.05592
970.30 0.05584
970.40 0.05575
970.50 0.05567
970.60 0.05559
970.70 0.0555
970.80 0.05542
970.90 0.05534
971.00 0.05525
971.10 0.05517
971.20 0.05509
971.30 0.05501
971.40 0.05492
971.50 0.05484
971.60 0.05476
971.70 0.05467
971.80 0.05459
971.90 0.05451
972.00 0.05443
972.10 0.05434
972.20 0.05426
972.30 0.05418
972.40 0.0541
972.50 0.05402
972.60 0.05394
972.70 0.05386
972.80 0.05378
972.90 0.05369
973.00 0.05361
973.10 0.05353
973.20 0.05345
973.30 0.05337
973.40 0.05329
973.50 0.05321
973.60 0.05313
973.70 0.05305
973.80 0.05297
973.90 0.05288
974.00 0.0528
974.10 0.05272
974.20 0.05264
974.30 0.05256
974.40 0.05248
974.50 0.0524
974.60 0.05232
974.70 0.05224
974.80 0.05216
974.90 0.05208
975.00 0.052
975.10 0.05192
975.20 0.05184
975.30 0.05176
975.40 0.05168
975.50 0.0516
975.60 0.05152
975.70 0.05144
975.80 0.05136
975.90 0.05128
976.00 0.0512
976.10 0.05112
976.20 0.05104
976.30 0.05096
976.40 0.05088
976.50 0.0508
976.60 0.05072
976.70 0.05065
976.80 0.05057
976.90 0.05049
977.00 0.05041
977.10 0.05033
977.20 0.05026
977.30 0.05018
977.40 0.05011
977.50 0.05003
977.60 0.04995
977.70 0.04988
977.80 0.0498
977.90 0.04973
978.00 0.04965
978.10 0.04958
978.20 0.0495
978.30 0.04943
978.40 0.04935
978.50 0.04928
978.60 0.0492
978.70 0.04913
978.80 0.04905
978.90 0.04898
979.00 0.0489
979.10 0.04883
979.20 0.04875
979.30 0.04868
979.40 0.0486
979.50 0.04853
979.60 0.04845
979.70 0.04838
979.80 0.0483
979.90 0.04823
980.00 0.04815
980.10 0.04808
980.20 0.048
980.30 0.04793
980.40 0.04785
980.50 0.04778
980.60 0.04771
980.70 0.04763
980.80 0.04756
980.90 0.04748
981.00 0.04741
981.10 0.04733
981.20 0.04726
981.30 0.04718
981.40 0.04711
981.50 0.04704
981.60 0.04696
981.70 0.04689
981.80 0.04681
981.90 0.04674
982.00 0.04667
982.10 0.04659
982.20 0.04652
982.30 0.04645
982.40 0.04638
982.50 0.04631
982.60 0.04624
982.70 0.04617
982.80 0.0461
982.90 0.04602
983.00 0.04595
983.10 0.04588
983.20 0.04581
983.30 0.04574
983.40 0.04567
983.50 0.0456
983.60 0.04553
983.70 0.04546
983.80 0.04538
983.90 0.04531
984.00 0.04524
984.10 0.04517
984.20 0.0451
984.30 0.04503
984.40 0.04496
984.50 0.04489
984.60 0.04482
984.70 0.04475
984.80 0.04468
984.90 0.04462
985.00 0.04455
985.10 0.04448
985.20 0.04442
985.30 0.04435
985.40 0.04429
985.50 0.04422
985.60 0.04415
985.70 0.04409
985.80 0.04402
985.90 0.04395
986.00 0.04389
986.10 0.04382
986.20 0.04376
986.30 0.04369
986.40 0.04362
986.50 0.04356
986.60 0.04349
986.70 0.04343
986.80 0.04336
986.90 0.04329
987.00 0.04323
987.10 0.04316
987.20 0.04309
987.30 0.04302
987.40 0.04295
987.50 0.04288
987.60 0.04281
987.70 0.04275
987.80 0.04268
987.90 0.04261
988.00 0.04254
988.10 0.04247
988.20 0.0424
988.30 0.04233
988.40 0.04227
988.50 0.0422
988.60 0.04213
988.70 0.04206
988.80 0.04199
988.90 0.04192
989.00 0.04185
989.10 0.04179
989.20 0.04172
989.30 0.04165
989.40 0.04158
989.50 0.04151
989.60 0.04144
989.70 0.04138
989.80 0.04131
989.90 0.04124
990.00 0.04117
990.10 0.0411
990.20 0.04103
990.30 0.04097
990.40 0.0409
990.50 0.04083
990.60 0.04076
990.70 0.04069
990.80 0.04063
990.90 0.04056
991.00 0.04049
991.10 0.04042
991.20 0.04036
991.30 0.04029
991.40 0.04022
991.50 0.04015
991.60 0.04008
991.70 0.04002
991.80 0.03995
991.90 0.03988
992.00 0.03981
992.10 0.03975
992.20 0.03968
992.30 0.03961
992.40 0.03954
992.50 0.03948
992.60 0.03941
992.70 0.03934
992.80 0.03927
992.90 0.03921
993.00 0.03914
993.10 0.03907
993.20 0.03901
993.30 0.03894
993.40 0.03887
993.50 0.0388
993.60 0.03874
993.70 0.03867
993.80 0.0386
993.90 0.03854
994.00 0.03847
994.10 0.0384
994.20 0.03833
994.30 0.03827
994.40 0.0382
994.50 0.03813
994.60 0.03807
994.70 0.03799
994.80 0.0379
994.90 0.03782
995.00 0.03774
995.10 0.03766
995.20 0.03757
995.30 0.03749
995.40 0.03741
995.50 0.03732
995.60 0.03724
995.70 0.03717
995.80 0.03711
995.90 0.03704
996.00 0.03698
996.10 0.03691
996.20 0.03685
996.30 0.03678
996.40 0.03672
996.50 0.03666
996.60 0.03659
996.70 0.03653
996.80 0.03646
996.90 0.0364
997.00 0.03633
997.10 0.03627
997.20 0.03621
997.30 0.03615
997.40 0.03608
997.50 0.03602
997.60 0.03596
997.70 0.0359
997.80 0.03584
997.90 0.03577
998.00 0.03571
998.10 0.03565
998.20 0.03559
998.30 0.03553
998.40 0.03547
998.50 0.03541
998.60 0.03535
998.70 0.03529
998.80 0.03523
998.90 0.03517
999.00 0.03511
999.10 0.03504
999.20 0.03498
999.30 0.03492
999.40 0.03486
999.50 0.0348
999.60 0.03474
999.70 0.03468
999.80 0.03462
999.90 0.03457
1000.00 0.03451
1000.10 0.03445
1000.20 0.03439
1000.30 0.03433
1000.40 0.03428
1000.50 0.03422
1000.60 0.03416
1000.70 0.0341
1000.80 0.03404
1000.90 0.03399
1001.00 0.03393
1001.10 0.03387
1001.20 0.03381
1001.30 0.03376
1001.40 0.0337
1001.50 0.03364
1001.60 0.03358
1001.70 0.03353
1001.80 0.03347
1001.90 0.03341
1002.00 0.03336
1002.10 0.0333
1002.20 0.03325
1002.30 0.03319
1002.40 0.03314
1002.50 0.03308
1002.60 0.03303
1002.70 0.03297
1002.80 0.03292
1002.90 0.03286
1003.00 0.03281
1003.10 0.03275
1003.20 0.0327
1003.30 0.03264
1003.40 0.03259
1003.50 0.03253
1003.60 0.03248
1003.70 0.03243
1003.80 0.03237
1003.90 0.03232
1004.00 0.03227
1004.10 0.03221
1004.20 0.03216
1004.30 0.03211
1004.40 0.03205
1004.50 0.032
1004.60 0.03195
1004.70 0.0319
1004.80 0.03184
1004.90 0.03177
1005.00 0.0317
1005.10 0.03164
1005.20 0.03159
1005.30 0.03154
1005.40 0.03149
1005.50 0.03144
1005.60 0.03139
1005.70 0.03134
1005.80 0.03129
1005.90 0.03123
1006.00 0.03118
1006.10 0.03113
1006.20 0.03108
1006.30 0.03103
1006.40 0.03098
1006.50 0.03093
1006.60 0.03089
1006.70 0.03084
1006.80 0.03079
1006.90 0.03074
1007.00 0.03069
1007.10 0.03064
1007.20 0.03059
1007.30 0.03054
1007.40 0.03049
1007.50 0.03045
1007.60 0.0304
1007.70 0.03035
1007.80 0.0303
1007.90 0.03026
1008.00 0.03021
1008.10 0.03017
1008.20 0.03012
1008.30 0.03007
1008.40 0.03003
1008.50 0.02998
1008.60 0.02993
1008.70 0.02989
1008.80 0.02984
1008.90 0.02979
1009.00 0.02975
1009.10 0.0297
1009.20 0.02966
1009.30 0.02961
1009.40 0.02956
1009.50 0.02952
1009.60 0.02947
1009.70 0.02943
1009.80 0.02938
1009.90 0.02934
1010.00 0.0293
1010.10 0.02925
1010.20 0.02921
1010.30 0.02917
1010.40 0.02912
1010.50 0.02908
1010.60 0.02904
1010.70 0.02899
1010.80 0.02895
1010.90 0.02891
1011.00 0.02886
1011.10 0.02882
1011.20 0.02878
1011.30 0.02873
1011.40 0.02869
1011.50 0.02865
1011.60 0.0286
1011.70 0.02856
1011.80 0.02852
1011.90 0.02848
1012.00 0.02843
1012.10 0.02839
1012.20 0.02835
1012.30 0.02831
1012.40 0.02827
1012.50 0.02823
1012.60 0.02819
1012.70 0.02815
1012.80 0.02811
1012.90 0.02807
1013.00 0.02803
1013.10 0.02799
1013.20 0.02795
1013.30 0.02791
1013.40 0.02787
1013.50 0.02783
1013.60 0.02779
1013.70 0.02775
1013.80 0.02771
1013.90 0.02767
1014.00 0.02763
1014.10 0.02759
1014.20 0.02755
1014.30 0.02751
1014.40 0.02748
1014.50 0.02744
1014.60 0.0274
1014.70 0.02736
1014.80 0.02733
1014.90 0.0273
1015.00 0.02726
1015.10 0.02723
1015.20 0.0272
1015.30 0.02716
1015.40 0.02713
1015.50 0.0271
1015.60 0.02706
1015.70 0.02703
1015.80 0.027
1015.90 0.02696
1016.00 0.02693
1016.10 0.0269
1016.20 0.02686
1016.30 0.02683
1016.40 0.0268
1016.50 0.02676
1016.60 0.02673
1016.70 0.02669
1016.80 0.02666
1016.90 0.02662
1017.00 0.02659
1017.10 0.02655
1017.20 0.02651
1017.30 0.02648
1017.40 0.02644
1017.50 0.02641
1017.60 0.02637
1017.70 0.02633
1017.80 0.0263
1017.90 0.02626
1018.00 0.02623
1018.10 0.02619
1018.20 0.02615
1018.30 0.02612
1018.40 0.02608
1018.50 0.02605
1018.60 0.02601
1018.70 0.02598
1018.80 0.02594
1018.90 0.02591
1019.00 0.02587
1019.10 0.02584
1019.20 0.0258
1019.30 0.02577
1019.40 0.02573
1019.50 0.0257
1019.60 0.02566
1019.70 0.02563
1019.80 0.0256
1019.90 0.02556
1020.00 0.02553
1020.10 0.02549
1020.20 0.02546
1020.30 0.02542
1020.40 0.02539
1020.50 0.02535
1020.60 0.02532
1020.70 0.02528
1020.80 0.02525
1020.90 0.02522
1021.00 0.02518
1021.10 0.02515
1021.20 0.02512
1021.30 0.02508
1021.40 0.02505
1021.50 0.02501
1021.60 0.02498
1021.70 0.02495
1021.80 0.02491
1021.90 0.02488
1022.00 0.02485
1022.10 0.02481
1022.20 0.02478
1022.30 0.02475
1022.40 0.02472
1022.50 0.02468
1022.60 0.02465
1022.70 0.02462
1022.80 0.02459
1022.90 0.02455
1023.00 0.02452
1023.10 0.02449
1023.20 0.02445
1023.30 0.02442
1023.40 0.02439
1023.50 0.02436
1023.60 0.02432
1023.70 0.02429
1023.80 0.02426
1023.90 0.02423
1024.00 0.02419
1024.10 0.02416
1024.20 0.02413
1024.30 0.0241
1024.40 0.02407
1024.50 0.02403
1024.60 0.024
1024.70 0.02397
1024.80 0.02394
1024.90 0.0239
1025.00 0.02387
1025.10 0.02384
1025.20 0.02381
1025.30 0.02378
1025.40 0.02374
1025.50 0.02371
1025.60 0.02368
1025.70 0.02365
1025.80 0.02362
1025.90 0.02358
1026.00 0.02355
1026.10 0.02352
1026.20 0.02349
1026.30 0.02346
1026.40 0.02342
1026.50 0.02339
1026.60 0.02336
1026.70 0.02333
1026.80 0.0233
1026.90 0.02326
1027.00 0.02323
1027.10 0.0232
1027.20 0.02317
1027.30 0.02315
1027.40 0.02312
1027.50 0.02309
1027.60 0.02306
1027.70 0.02303
1027.80 0.023
1027.90 0.02297
1028.00 0.02294
1028.10 0.02291
1028.20 0.02288
1028.30 0.02286
1028.40 0.02283
1028.50 0.0228
1028.60 0.02277
1028.70 0.02274
1028.80 0.02271
1028.90 0.02268
1029.00 0.02265
1029.10 0.02262
1029.20 0.0226
1029.30 0.02257
1029.40 0.02254
1029.50 0.02251
1029.60 0.02248
1029.70 0.02245
1029.80 0.02242
1029.90 0.02239
1030.00 0.02237
1030.10 0.02234
1030.20 0.02231
1030.30 0.02228
1030.40 0.02225
1030.50 0.02222
1030.60 0.02219
1030.70 0.02217
1030.80 0.02214
1030.90 0.02211
1031.00 0.02208
1031.10 0.02205
1031.20 0.02202
1031.30 0.02199
1031.40 0.02197
1031.50 0.02194
1031.60 0.02191
1031.70 0.02188
1031.80 0.02185
1031.90 0.02182
1032.00 0.02179
1032.10 0.02177
1032.20 0.02174
1032.30 0.02172
1032.40 0.02169
1032.50 0.02166
1032.60 0.02164
1032.70 0.02161
1032.80 0.02158
1032.90 0.02156
1033.00 0.02153
1033.10 0.02151
1033.20 0.02148
1033.30 0.02145
1033.40 0.02143
1033.50 0.0214
1033.60 0.02138
1033.70 0.02135
1033.80 0.02132
1033.90 0.0213
1034.00 0.02127
1034.10 0.02125
1034.20 0.02122
1034.30 0.02119
1034.40 0.02117
1034.50 0.02114
1034.60 0.02112
1034.70 0.02109
1034.80 0.02106
1034.90 0.02104
1035.00 0.02101
1035.10 0.02099
1035.20 0.02096
1035.30 0.02093
1035.40 0.02091
1035.50 0.02088
1035.60 0.02086
1035.70 0.02083
1035.80 0.0208
1035.90 0.02078
1036.00 0.02075
1036.10 0.02073
1036.20 0.0207
1036.30 0.02067
1036.40 0.02065
1036.50 0.02062
1036.60 0.0206
1036.70 0.02057
1036.80 0.02055
1036.90 0.02052
1037.00 0.02049
1037.10 0.02047
1037.20 0.02045
1037.30 0.02043
1037.40 0.0204
1037.50 0.02038
1037.60 0.02036
1037.70 0.02033
1037.80 0.02031
1037.90 0.02029
1038.00 0.02027
1038.10 0.02024
1038.20 0.02022
1038.30 0.0202
1038.40 0.02017
1038.50 0.02015
1038.60 0.02013
1038.70 0.02011
1038.80 0.02008
1038.90 0.02006
1039.00 0.02004
1039.10 0.02002
1039.20 0.01999
1039.30 0.01997
1039.40 0.01995
1039.50 0.01993
1039.60 0.0199
1039.70 0.01988
1039.80 0.01986
1039.90 0.01983
1040.00 0.01981
1040.10 0.01979
1040.20 0.01977
1040.30 0.01974
1040.40 0.01972
1040.50 0.0197
1040.60 0.01968
1040.70 0.01965
1040.80 0.01963
1040.90 0.01961
1041.00 0.01959
1041.10 0.01956
1041.20 0.01954
1041.30 0.01952
1041.40 0.0195
1041.50 0.01947
1041.60 0.01945
1041.70 0.01943
1041.80 0.01941
1041.90 0.01938
1042.00 0.01936
1042.10 0.01934
1042.20 0.01932
1042.30 0.0193
1042.40 0.01928
1042.50 0.01926
1042.60 0.01924
1042.70 0.01922
1042.80 0.0192
1042.90 0.01918
1043.00 0.01916
1043.10 0.01914
1043.20 0.01912
1043.30 0.0191
1043.40 0.01908
1043.50 0.01906
1043.60 0.01904
1043.70 0.01903
1043.80 0.01901
1043.90 0.01899
1044.00 0.01897
1044.10 0.01895
1044.20 0.01893
1044.30 0.01891
1044.40 0.01889
1044.50 0.01887
1044.60 0.01885
1044.70 0.01883
1044.80 0.01881
1044.90 0.01879
1045.00 0.01877
1045.10 0.01875
1045.20 0.01873
1045.30 0.01871
1045.40 0.01869
1045.50 0.01867
1045.60 0.01865
1045.70 0.01863
1045.80 0.01861
1045.90 0.01859
1046.00 0.01857
1046.10 0.01855
1046.20 0.01853
1046.30 0.01851
1046.40 0.01849
1046.50 0.01848
1046.60 0.01846
1046.70 0.01844
1046.80 0.01842
1046.90 0.0184
1047.00 0.01838
1047.10 0.01836
1047.20 0.01834
1047.30 0.01833
1047.40 0.01831
1047.50 0.01829
1047.60 0.01828
1047.70 0.01826
1047.80 0.01824
1047.90 0.01822
1048.00 0.01821
1048.10 0.01819
1048.20 0.01817
1048.30 0.01816
1048.40 0.01814
1048.50 0.01812
1048.60 0.01811
1048.70 0.01809
1048.80 0.01807
1048.90 0.01805
1049.00 0.01804
1049.10 0.01802
1049.20 0.018
1049.30 0.01799
1049.40 0.01797
1049.50 0.01795
1049.60 0.01794
1049.70 0.01792
1049.80 0.0179
1049.90 0.01789
1050.00 0.01787
1050.10 0.01785
1050.20 0.01783
1050.30 0.01782
1050.40 0.0178
1050.50 0.01778
1050.60 0.01777
1050.70 0.01775
1050.80 0.01773
1050.90 0.01772
1051.00 0.0177
1051.10 0.01768
1051.20 0.01767
1051.30 0.01765
1051.40 0.01763
1051.50 0.01762
1051.60 0.0176
1051.70 0.01758
1051.80 0.01757
1051.90 0.01755
1052.00 0.01753
1052.10 0.01752
1052.20 0.0175
1052.30 0.01749
1052.40 0.01747
1052.50 0.01746
1052.60 0.01744
1052.70 0.01742
1052.80 0.01741
1052.90 0.01739
1053.00 0.01738
1053.10 0.01736
1053.20 0.01735
1053.30 0.01733
1053.40 0.01732
1053.50 0.0173
1053.60 0.01729
1053.70 0.01727
1053.80 0.01726
1053.90 0.01724
1054.00 0.01723
1054.10 0.01721
1054.20 0.0172
1054.30 0.01718
1054.40 0.01717
1054.50 0.01715
1054.60 0.01714
1054.70 0.01712
1054.80 0.0171
1054.90 0.01709
1055.00 0.01707
1055.10 0.01706
1055.20 0.01704
1055.30 0.01703
1055.40 0.01701
1055.50 0.017
1055.60 0.01698
1055.70 0.01697
1055.80 0.01695
1055.90 0.01694
1056.00 0.01692
1056.10 0.01691
1056.20 0.01689
1056.30 0.01688
1056.40 0.01686
1056.50 0.01685
1056.60 0.01683
1056.70 0.01682
1056.80 0.0168
1056.90 0.01679
1057.00 0.01677
1057.10 0.01676
1057.20 0.01674
1057.30 0.01673
1057.40 0.01672
1057.50 0.0167
1057.60 0.01669
1057.70 0.01668
1057.80 0.01666
1057.90 0.01665
1058.00 0.01664
1058.10 0.01662
1058.20 0.01661
1058.30 0.0166
1058.40 0.01658
1058.50 0.01657
1058.60 0.01656
1058.70 0.01654
1058.80 0.01653
1058.90 0.01652
1059.00 0.0165
1059.10 0.01649
1059.20 0.01648
1059.30 0.01646
1059.40 0.01645
1059.50 0.01643
1059.60 0.01642
1059.70 0.01641
1059.80 0.01639
1059.90 0.01638
1060.00 0.01637
1060.10 0.01635
1060.20 0.01634
1060.30 0.01633
1060.40 0.01631
1060.50 0.0163
1060.60 0.01629
1060.70 0.01627
1060.80 0.01626
1060.90 0.01625
1061.00 0.01623
1061.10 0.01622
1061.20 0.01621
1061.30 0.01619
1061.40 0.01618
1061.50 0.01617
1061.60 0.01615
1061.70 0.01614
1061.80 0.01613
1061.90 0.01611
1062.00 0.0161
1062.10 0.01609
1062.20 0.01608
1062.30 0.01607
1062.40 0.01605
1062.50 0.01604
1062.60 0.01603
1062.70 0.01602
1062.80 0.01601
1062.90 0.016
1063.00 0.01598
1063.10 0.01597
1063.20 0.01596
1063.30 0.01595
1063.40 0.01594
1063.50 0.01592
1063.60 0.01591
1063.70 0.0159
1063.80 0.01589
1063.90 0.01588
1064.00 0.01587
1064.10 0.01586
1064.20 0.01584
1064.30 0.01583
1064.40 0.01582
1064.50 0.01581
1064.60 0.0158
1064.70 0.01579
1064.80 0.01577
1064.90 0.01576
1065.00 0.01575
1065.10 0.01574
1065.20 0.01573
1065.30 0.01572
1065.40 0.0157
1065.50 0.01569
1065.60 0.01568
1065.70 0.01567
1065.80 0.01566
1065.90 0.01565
1066.00 0.01563
1066.10 0.01562
1066.20 0.01561
1066.30 0.0156
1066.40 0.01559
1066.50 0.01558
1066.60 0.01557
1066.70 0.01555
1066.80 0.01554
1066.90 0.01553
1067.00 0.01552
1067.10 0.01551
1067.20 0.0155
1067.30 0.01549
1067.40 0.01548
1067.50 0.01547
1067.60 0.01546
1067.70 0.01544
1067.80 0.01543
1067.90 0.01542
1068.00 0.01541
1068.10 0.0154
1068.20 0.01539
1068.30 0.01538
1068.40 0.01537
1068.50 0.01536
1068.60 0.01535
1068.70 0.01534
1068.80 0.01533
1068.90 0.01532
1069.00 0.01531
1069.10 0.0153
1069.20 0.01529
1069.30 0.01528
1069.40 0.01527
1069.50 0.01526
1069.60 0.01524
1069.70 0.01523
1069.80 0.01522
1069.90 0.01521
1070.00 0.0152
1070.10 0.01519
1070.20 0.01518
1070.30 0.01517
1070.40 0.01516
1070.50 0.01515
1070.60 0.01514
1070.70 0.01513
1070.80 0.01512
1070.90 0.01511
1071.00 0.0151
1071.10 0.01509
1071.20 0.01508
1071.30 0.01507
1071.40 0.01506
1071.50 0.01505
1071.60 0.01504
1071.70 0.01502
1071.80 0.01501
1071.90 0.015
1072.00 0.01499
1072.10 0.01499
1072.20 0.01498
1072.30 0.01497
1072.40 0.01496
1072.50 0.01495
1072.60 0.01494
1072.70 0.01494
1072.80 0.01493
1072.90 0.01492
1073.00 0.01491
1073.10 0.0149
1073.20 0.01489
1073.30 0.01489
1073.40 0.01488
1073.50 0.01487
1073.60 0.01486
1073.70 0.01485
1073.80 0.01485
1073.90 0.01484
1074.00 0.01483
1074.10 0.01483
1074.20 0.01482
1074.30 0.01481
1074.40 0.0148
1074.50 0.0148
1074.60 0.01479
1074.70 0.01478
1074.80 0.01477
1074.90 0.01477
1075.00 0.01476
1075.10 0.01475
1075.20 0.01475
1075.30 0.01474
1075.40 0.01473
1075.50 0.01472
1075.60 0.01472
1075.70 0.01471
1075.80 0.0147
1075.90 0.0147
1076.00 0.01469
1076.10 0.01468
1076.20 0.01467
1076.30 0.01467
1076.40 0.01466
1076.50 0.01465
1076.60 0.01465
1076.70 0.01464
1076.80 0.01463
1076.90 0.01462
1077.00 0.01462
1077.10 0.01461
1077.20 0.0146
1077.30 0.0146
1077.40 0.01459
1077.50 0.01459
1077.60 0.01458
1077.70 0.01457
1077.80 0.01457
1077.90 0.01456
1078.00 0.01456
1078.10 0.01455
1078.20 0.01454
1078.30 0.01454
1078.40 0.01453
1078.50 0.01453
1078.60 0.01452
1078.70 0.01452
1078.80 0.01451
1078.90 0.0145
1079.00 0.0145
1079.10 0.01449
1079.20 0.01449
1079.30 0.01448
1079.40 0.01448
1079.50 0.01447
1079.60 0.01447
1079.70 0.01446
1079.80 0.01446
1079.90 0.01445
1080.00 0.01445
1080.10 0.01445
1080.20 0.01444
1080.30 0.01444
1080.40 0.01443
1080.50 0.01443
1080.60 0.01442
1080.70 0.01442
1080.80 0.01442
1080.90 0.01441
1081.00 0.01441
1081.10 0.0144
1081.20 0.0144
1081.30 0.01439
1081.40 0.01439
1081.50 0.01439
1081.60 0.01438
1081.70 0.01438
1081.80 0.01437
1081.90 0.01437
1082.00 0.01436
1082.10 0.01436
1082.20 0.01436
1082.30 0.01435
1082.40 0.01435
1082.50 0.01435
1082.60 0.01434
1082.70 0.01434
1082.80 0.01433
1082.90 0.01433
1083.00 0.01433
1083.10 0.01432
1083.20 0.01432
1083.30 0.01431
1083.40 0.01431
1083.50 0.01431
1083.60 0.0143
1083.70 0.0143
1083.80 0.0143
1083.90 0.01429
1084.00 0.01429
1084.10 0.01429
1084.20 0.01428
1084.30 0.01428
1084.40 0.01427
1084.50 0.01427
1084.60 0.01427
1084.70 0.01427
1084.80 0.01426
1084.90 0.01426
1085.00 0.01426
1085.10 0.01425
1085.20 0.01425
1085.30 0.01425
1085.40 0.01425
1085.50 0.01424
1085.60 0.01424
1085.70 0.01424
1085.80 0.01423
1085.90 0.01423
1086.00 0.01423
1086.10 0.01423
1086.20 0.01422
1086.30 0.01422
1086.40 0.01422
1086.50 0.01421
1086.60 0.01421
1086.70 0.01421
1086.80 0.01421
1086.90 0.0142
1087.00 0.0142
1087.10 0.0142
1087.20 0.0142
1087.30 0.01419
1087.40 0.01419
1087.50 0.01419
1087.60 0.01419
1087.70 0.01419
1087.80 0.01418
1087.90 0.01418
1088.00 0.01418
1088.10 0.01418
1088.20 0.01418
1088.30 0.01417
1088.40 0.01417
1088.50 0.01417
1088.60 0.01417
1088.70 0.01417
1088.80 0.01417
1088.90 0.01416
1089.00 0.01416
1089.10 0.01416
1089.20 0.01416
1089.30 0.01416
1089.40 0.01416
1089.50 0.01416
1089.60 0.01415
1089.70 0.01415
1089.80 0.01415
1089.90 0.01415
1090.00 0.01415
1090.10 0.01415
1090.20 0.01414
1090.30 0.01414
1090.40 0.01414
1090.50 0.01414
1090.60 0.01414
1090.70 0.01414
1090.80 0.01414
1090.90 0.01414
1091.00 0.01414
1091.10 0.01414
1091.20 0.01413
1091.30 0.01413
1091.40 0.01413
1091.50 0.01413
1091.60 0.01413
1091.70 0.01413
1091.80 0.01413
1091.90 0.01413
1092.00 0.01413
1092.10 0.01413
1092.20 0.01413
1092.30 0.01413
1092.40 0.01413
1092.50 0.01413
1092.60 0.01413
1092.70 0.01413
1092.80 0.01414
1092.90 0.01414
1093.00 0.01415
1093.10 0.01416
1093.20 0.01416
1093.30 0.01416
1093.40 0.01416
1093.50 0.01416
1093.60 0.01416
1093.70 0.01416
1093.80 0.01416
1093.90 0.01416
1094.00 0.01416
1094.10 0.01416
1094.20 0.01416
1094.30 0.01416
1094.40 0.01416
1094.50 0.01416
1094.60 0.01416
1094.70 0.01416
1094.80 0.01416
1094.90 0.01416
1095.00 0.01416
1095.10 0.01416
1095.20 0.01416
1095.30 0.01416
1095.40 0.01416
1095.50 0.01416
1095.60 0.01416
1095.70 0.01416
1095.80 0.01416
1095.90 0.01416
1096.00 0.01416
1096.10 0.01416
1096.20 0.01416
1096.30 0.01416
1096.40 0.01416
1096.50 0.01416
1096.60 0.01416
1096.70 0.01416
1096.80 0.01416
1096.90 0.01416
1097.00 0.01416
1097.10 0.01416
1097.20 0.01416
1097.30 0.01416
1097.40 0.01416
1097.50 0.01416
1097.60 0.01417
1097.70 0.01417
1097.80 0.01417
1097.90 0.01417
1098.00 0.01417
1098.10 0.01417
1098.20 0.01417
1098.30 0.01417
1098.40 0.01417
1098.50 0.01417
1098.60 0.01417
1098.70 0.01417
1098.80 0.01417
1098.90 0.01417
1099.00 0.01417
1099.10 0.01417
1099.20 0.01418
1099.30 0.01418
1099.40 0.01418
1099.50 0.01418
1099.60 0.01418
1099.70 0.01418
1099.80 0.01418
1099.90 0.01418
1100.00 0.01418
1100.10 0.01418
1100.20 0.01418
1100.30 0.01418
1100.40 0.01418
1100.50 0.01419
1100.60 0.01419
1100.70 0.01419
1100.80 0.01419
1100.90 0.01419
1101.00 0.01419
1101.10 0.01419
1101.20 0.01419
1101.30 0.01419
1101.40 0.0142
1101.50 0.0142
1101.60 0.0142
1101.70 0.0142
1101.80 0.0142
1101.90 0.0142
1102.00 0.0142
1102.10 0.0142
1102.20 0.0142
1102.30 0.01421
1102.40 0.01421
1102.50 0.01421
1102.60 0.01421
1102.70 0.01421
1102.80 0.01421
1102.90 0.01421
1103.00 0.01422
1103.10 0.01422
1103.20 0.01422
1103.30 0.01422
1103.40 0.01422
1103.50 0.01422
1103.60 0.01422
1103.70 0.01422
1103.80 0.01423
1103.90 0.01423
1104.00 0.01423
1104.10 0.01423
1104.20 0.01423
1104.30 0.01423
1104.40 0.01423
1104.50 0.01424
1104.60 0.01424
1104.70 0.01424
1104.80 0.01424
1104.90 0.01424
1105.00 0.01424
1105.10 0.01424
1105.20 0.01425
1105.30 0.01425
1105.40 0.01425
1105.50 0.01425
1105.60 0.01425
1105.70 0.01425
1105.80 0.01426
1105.90 0.01426
1106.00 0.01426
1106.10 0.01426
1106.20 0.01426
1106.30 0.01427
1106.40 0.01427
1106.50 0.01427
1106.60 0.01427
1106.70 0.01427
1106.80 0.01427
1106.90 0.01428
1107.00 0.01428
1107.10 0.01428
1107.20 0.01428
1107.30 0.01428
1107.40 0.01429
1107.50 0.01429
1107.60 0.01429
1107.70 0.01429
1107.80 0.01429
1107.90 0.0143
1108.00 0.0143
1108.10 0.0143
1108.20 0.0143
1108.30 0.01431
1108.40 0.01431
1108.50 0.01431
1108.60 0.01431
1108.70 0.01432
1108.80 0.01432
1108.90 0.01432
1109.00 0.01432
1109.10 0.01432
1109.20 0.01433
1109.30 0.01433
1109.40 0.01433
1109.50 0.01433
1109.60 0.01434
1109.70 0.01434
1109.80 0.01434
1109.90 0.01434
1110.00 0.01435
1110.10 0.01435
1110.20 0.01435
1110.30 0.01436
1110.40 0.01436
1110.50 0.01436
1110.60 0.01436
1110.70 0.01437
1110.80 0.01437
1110.90 0.01437
1111.00 0.01437
1111.10 0.01438
1111.20 0.01438
1111.30 0.01438
1111.40 0.01438
1111.50 0.01439
1111.60 0.01439
1111.70 0.01439
1111.80 0.0144
1111.90 0.0144
1112.00 0.0144
1112.10 0.0144
1112.20 0.01441
1112.30 0.01441
1112.40 0.01441
1112.50 0.01442
1112.60 0.01442
1112.70 0.01442
1112.80 0.01443
1112.90 0.01443
1113.00 0.01443
1113.10 0.01443
1113.20 0.01444
1113.30 0.01444
1113.40 0.01444
1113.50 0.01445
1113.60 0.01445
1113.70 0.01445
1113.80 0.01446
1113.90 0.01446
1114.00 0.01446
1114.10 0.01447
1114.20 0.01447
1114.30 0.01447
1114.40 0.01448
1114.50 0.01448
1114.60 0.01449
1114.70 0.01449
1114.80 0.01449
1114.90 0.0145
1115.00 0.0145
1115.10 0.0145
1115.20 0.01451
1115.30 0.01451
1115.40 0.01451
1115.50 0.01452
1115.60 0.01452
1115.70 0.01452
1115.80 0.01453
1115.90 0.01453
1116.00 0.01453
1116.10 0.01454
1116.20 0.01454
1116.30 0.01454
1116.40 0.01455
1116.50 0.01455
1116.60 0.01455
1116.70 0.01456
1116.80 0.01456
1116.90 0.01457
1117.00 0.01457
1117.10 0.01457
1117.20 0.01458
1117.30 0.01458
1117.40 0.01458
1117.50 0.01459
1117.60 0.01459
1117.70 0.0146
1117.80 0.0146
1117.90 0.01461
1118.00 0.01461
1118.10 0.01461
1118.20 0.01462
1118.30 0.01462
1118.40 0.01463
1118.50 0.01463
1118.60 0.01463
1118.70 0.01464
1118.80 0.01464
1118.90 0.01465
1119.00 0.01465
1119.10 0.01465
1119.20 0.01466
1119.30 0.01466
1119.40 0.01467
1119.50 0.01467
1119.60 0.01467
1119.70 0.01468
1119.80 0.01468
1119.90 0.01469
1120.00 0.01469
1120.10 0.01469
1120.20 0.0147
1120.30 0.0147
1120.40 0.01471
1120.50 0.01471
1120.60 0.01471
1120.70 0.01472
1120.80 0.01472
1120.90 0.01473
1121.00 0.01473
1121.10 0.01473
1121.20 0.01474
1121.30 0.01474
1121.40 0.01475
1121.50 0.01475
1121.60 0.01476
1121.70 0.01476
1121.80 0.01476
1121.90 0.01477
1122.00 0.01477
1122.10 0.01478
1122.20 0.01478
1122.30 0.01479
1122.40 0.01479
1122.50 0.0148
1122.60 0.01481
1122.70 0.01481
1122.80 0.01482
1122.90 0.01482
1123.00 0.01483
1123.10 0.01484
1123.20 0.01484
1123.30 0.01485
1123.40 0.01485
1123.50 0.01486
1123.60 0.01487
1123.70 0.01487
1123.80 0.01488
1123.90 0.01488
1124.00 0.01489
1124.10 0.0149
1124.20 0.0149
1124.30 0.01491
1124.40 0.01491
1124.50 0.01492
1124.60 0.01493
1124.70 0.01493
1124.80 0.01494
1124.90 0.01494
1125.00 0.01495
1125.10 0.01496
1125.20 0.01496
1125.30 0.01497
1125.40 0.01497
1125.50 0.01498
1125.60 0.01498
1125.70 0.01499
1125.80 0.015
1125.90 0.015
1126.00 0.01501
1126.10 0.01501
1126.20 0.01502
1126.30 0.01503
1126.40 0.01503
1126.50 0.01504
1126.60 0.01504
1126.70 0.01505
1126.80 0.01506
1126.90 0.01506
1127.00 0.01507
1127.10 0.01508
1127.20 0.01508
1127.30 0.01509
1127.40 0.0151
1127.50 0.01511
1127.60 0.01512
1127.70 0.01512
1127.80 0.01513
1127.90 0.01514
1128.00 0.01515
1128.10 0.01516
1128.20 0.01516
1128.30 0.01517
1128.40 0.01518
1128.50 0.01519
1128.60 0.0152
1128.70 0.0152
1128.80 0.01521
1128.90 0.01522
1129.00 0.01523
1129.10 0.01524
1129.20 0.01524
1129.30 0.01525
1129.40 0.01526
1129.50 0.01527
1129.60 0.01528
1129.70 0.01528
1129.80 0.01529
1129.90 0.0153
1130.00 0.01531
1130.10 0.01532
1130.20 0.01532
1130.30 0.01533
1130.40 0.01534
1130.50 0.01535
1130.60 0.01536
1130.70 0.01536
1130.80 0.01537
1130.90 0.01538
1131.00 0.01539
1131.10 0.0154
1131.20 0.0154
1131.30 0.01541
1131.40 0.01542
1131.50 0.01543
1131.60 0.01543
1131.70 0.01544
1131.80 0.01545
1131.90 0.01546
1132.00 0.01547
1132.10 0.01547
1132.20 0.01548
1132.30 0.01549
1132.40 0.0155
1132.50 0.01551
1132.60 0.01552
1132.70 0.01552
1132.80 0.01553
1132.90 0.01554
1133.00 0.01555
1133.10 0.01556
1133.20 0.01557
1133.30 0.01557
1133.40 0.01558
1133.50 0.01559
1133.60 0.0156
1133.70 0.01561
1133.80 0.01562
1133.90 0.01562
1134.00 0.01563
1134.10 0.01564
1134.20 0.01565
1134.30 0.01566
1134.40 0.01566
1134.50 0.01567
1134.60 0.01568
1134.70 0.01569
1134.80 0.0157
1134.90 0.01571
1135.00 0.01571
1135.10 0.01572
1135.20 0.01573
1135.30 0.01574
1135.40 0.01575
1135.50 0.01576
1135.60 0.01576
1135.70 0.01577
1135.80 0.01578
1135.90 0.01579
1136.00 0.0158
1136.10 0.0158
1136.20 0.01581
1136.30 0.01582
1136.40 0.01583
1136.50 0.01584
1136.60 0.01584
1136.70 0.01585
1136.80 0.01586
1136.90 0.01587
1137.00 0.01588
1137.10 0.01589
1137.20 0.0159
1137.30 0.0159
1137.40 0.01591
1137.50 0.01592
1137.60 0.01593
1137.70 0.01594
1137.80 0.01595
1137.90 0.01596
1138.00 0.01597
1138.10 0.01598
1138.20 0.01599
1138.30 0.01599
1138.40 0.016
1138.50 0.01601
1138.60 0.01602
1138.70 0.01603
1138.80 0.01604
1138.90 0.01605
1139.00 0.01606
1139.10 0.01607
1139.20 0.01608
1139.30 0.01608
1139.40 0.01609
1139.50 0.0161
1139.60 0.01611
1139.70 0.01612
1139.80 0.01613
1139.90 0.01614
1140.00 0.01615
1140.10 0.01616
1140.20 0.01616
1140.30 0.01617
1140.40 0.01618
1140.50 0.01619
1140.60 0.0162
1140.70 0.01621
1140.80 0.01622
1140.90 0.01623
1141.00 0.01624
1141.10 0.01624
1141.20 0.01625
1141.30 0.01626
1141.40 0.01627
1141.50 0.01628
1141.60 0.01629
1141.70 0.0163
1141.80 0.01631
1141.90 0.01632
1142.00 0.01632
1142.10 0.01633
1142.20 0.01635
1142.30 0.01636
1142.40 0.01637
1142.50 0.01638
1142.60 0.01639
1142.70 0.0164
1142.80 0.01641
1142.90 0.01642
1143.00 0.01643
1143.10 0.01644
1143.20 0.01645
1143.30 0.01646
1143.40 0.01647
1143.50 0.01648
1143.60 0.01649
1143.70 0.0165
1143.80 0.01651
1143.90 0.01652
1144.00 0.01653
1144.10 0.01654
1144.20 0.01655
1144.30 0.01656
1144.40 0.01657
1144.50 0.01658
1144.60 0.01659
1144.70 0.0166
1144.80 0.01661
1144.90 0.01662
1145.00 0.01663
1145.10 0.01664
1145.20 0.01665
1145.30 0.01666
1145.40 0.01667
1145.50 0.01668
1145.60 0.01669
1145.70 0.0167
1145.80 0.01671
1145.90 0.01672
1146.00 0.01673
1146.10 0.01674
1146.20 0.01676
1146.30 0.01677
1146.40 0.01678
1146.50 0.01679
1146.60 0.0168
1146.70 0.01681
1146.80 0.01682
1146.90 0.01683
1147.00 0.01684
1147.10 0.01685
1147.20 0.01685
1147.30 0.01686
1147.40 0.01687
1147.50 0.01688
1147.60 0.01689
1147.70 0.0169
1147.80 0.01691
1147.90 0.01692
1148.00 0.01693
1148.10 0.01694
1148.20 0.01695
1148.30 0.01695
1148.40 0.01696
1148.50 0.01697
1148.60 0.01698
1148.70 0.01699
1148.80 0.017
1148.90 0.01701
1149.00 0.01702
1149.10 0.01703
1149.20 0.01704
1149.30 0.01705
1149.40 0.01705
1149.50 0.01706
1149.60 0.01707
1149.70 0.01708
1149.80 0.01709
1149.90 0.0171
1150.00 0.01711
1150.10 0.01712
1150.20 0.01713
1150.30 0.01714
1150.40 0.01714
1150.50 0.01715
1150.60 0.01716
1150.70 0.01717
1150.80 0.01718
1150.90 0.01719
1151.00 0.0172
1151.10 0.01721
1151.20 0.01722
1151.30 0.01723
1151.40 0.01723
1151.50 0.01724
1151.60 0.01725
1151.70 0.01726
1151.80 0.01727
1151.90 0.01728
1152.00 0.01729
1152.10 0.0173
1152.20 0.01731
1152.30 0.01732
1152.40 0.01733
1152.50 0.01734
1152.60 0.01734
1152.70 0.01735
1152.80 0.01736
1152.90 0.01737
1153.00 0.01738
1153.10 0.01739
1153.20 0.0174
1153.30 0.01741
1153.40 0.01742
1153.50 0.01743
1153.60 0.01744
1153.70 0.01745
1153.80 0.01746
1153.90 0.01747
1154.00 0.01748
1154.10 0.01749
1154.20 0.0175
1154.30 0.01751
1154.40 0.01751
1154.50 0.01752
1154.60 0.01753
1154.70 0.01754
1154.80 0.01755
1154.90 0.01756
1155.00 0.01757
1155.10 0.01758
1155.20 0.01759
1155.30 0.0176
1155.40 0.01761
1155.50 0.01762
1155.60 0.01763
1155.70 0.01764
1155.80 0.01765
1155.90 0.01766
1156.00 0.01766
1156.10 0.01767
1156.20 0.01768
1156.30 0.01769
1156.40 0.0177
1156.50 0.01771
1156.60 0.01772
1156.70 0.01773
1156.80 0.01774
1156.90 0.01775
1157.00 0.01776
1157.10 0.01777
1157.20 0.01777
1157.30 0.01778
1157.40 0.01779
1157.50 0.0178
1157.60 0.0178
1157.70 0.01781
1157.80 0.01782
1157.90 0.01783
1158.00 0.01784
1158.10 0.01784
1158.20 0.01785
1158.30 0.01786
1158.40 0.01787
1158.50 0.01788
1158.60 0.01788
1158.70 0.01789
1158.80 0.0179
1158.90 0.01791
1159.00 0.01791
1159.10 0.01792
1159.20 0.01793
1159.30 0.01794
1159.40 0.01795
1159.50 0.01795
1159.60 0.01796
1159.70 0.01797
1159.80 0.01798
1159.90 0.01798
1160.00 0.01799
1160.10 0.018
1160.20 0.01801
1160.30 0.01802
1160.40 0.01802
1160.50 0.01803
1160.60 0.01804
1160.70 0.01805
1160.80 0.01805
1160.90 0.01806
1161.00 0.01807
1161.10 0.01808
1161.20 0.01808
1161.30 0.01809
1161.40 0.0181
1161.50 0.01811
1161.60 0.01812
1161.70 0.01812
1161.80 0.01813
1161.90 0.01814
1162.00 0.01815
1162.10 0.01815
1162.20 0.01816
1162.30 0.01817
1162.40 0.01817
1162.50 0.01818
1162.60 0.01819
1162.70 0.01819
1162.80 0.0182
1162.90 0.01821
1163.00 0.01821
1163.10 0.01822
1163.20 0.01823
1163.30 0.01823
1163.40 0.01824
1163.50 0.01825
1163.60 0.01825
1163.70 0.01826
1163.80 0.01827
1163.90 0.01827
1164.00 0.01828
1164.10 0.01829
1164.20 0.01829
1164.30 0.0183
1164.40 0.01831
1164.50 0.01831
1164.60 0.01832
1164.70 0.01833
1164.80 0.01833
1164.90 0.01834
1165.00 0.01835
1165.10 0.01835
1165.20 0.01836
1165.30 0.01837
1165.40 0.01837
1165.50 0.01838
1165.60 0.01838
1165.70 0.01839
1165.80 0.0184
1165.90 0.0184
1166.00 0.01841
1166.10 0.01842
1166.20 0.01842
1166.30 0.01843
1166.40 0.01844
1166.50 0.01844
1166.60 0.01845
1166.70 0.01846
1166.80 0.01846
1166.90 0.01847
1167.00 0.01848
1167.10 0.01848
1167.20 0.01849
1167.30 0.0185
1167.40 0.0185
1167.50 0.01851
1167.60 0.01852
1167.70 0.01852
1167.80 0.01853
1167.90 0.01853
1168.00 0.01854
1168.10 0.01855
1168.20 0.01855
1168.30 0.01856
1168.40 0.01857
1168.50 0.01857
1168.60 0.01858
1168.70 0.01859
1168.80 0.01859
1168.90 0.0186
1169.00 0.0186
1169.10 0.01861
1169.20 0.01862
1169.30 0.01862
1169.40 0.01863
1169.50 0.01864
1169.60 0.01864
1169.70 0.01865
1169.80 0.01866
1169.90 0.01866
1170.00 0.01867
1170.10 0.01867
1170.20 0.01868
1170.30 0.01869
1170.40 0.01869
1170.50 0.0187
1170.60 0.01871
1170.70 0.01871
1170.80 0.01872
1170.90 0.01873
1171.00 0.01873
1171.10 0.01874
1171.20 0.01874
1171.30 0.01875
1171.40 0.01876
1171.50 0.01876
1171.60 0.01877
1171.70 0.01878
1171.80 0.01878
1171.90 0.01879
1172.00 0.0188
1172.10 0.0188
1172.20 0.0188
1172.30 0.0188
1172.40 0.01881
1172.50 0.01881
1172.60 0.01881
1172.70 0.01882
1172.80 0.01882
1172.90 0.01882
1173.00 0.01883
1173.10 0.01883
1173.20 0.01883
1173.30 0.01884
1173.40 0.01884
1173.50 0.01884
1173.60 0.01885
1173.70 0.01885
1173.80 0.01885
1173.90 0.01885
1174.00 0.01886
1174.10 0.01886
1174.20 0.01886
1174.30 0.01887
1174.40 0.01887
1174.50 0.01887
1174.60 0.01888
1174.70 0.01888
1174.80 0.01888
1174.90 0.01889
1175.00 0.01889
1175.10 0.01889
1175.20 0.0189
1175.30 0.0189
1175.40 0.0189
1175.50 0.0189
1175.60 0.01891
1175.70 0.01891
1175.80 0.01891
1175.90 0.01892
1176.00 0.01892
1176.10 0.01892
1176.20 0.01893
1176.30 0.01893
1176.40 0.01893
1176.50 0.01894
1176.60 0.01894
1176.70 0.01894
1176.80 0.01894
1176.90 0.01895
1177.00 0.01895
1177.10 0.01895
1177.20 0.01895
1177.30 0.01895
1177.40 0.01895
1177.50 0.01896
1177.60 0.01896
1177.70 0.01896
1177.80 0.01896
1177.90 0.01896
1178.00 0.01896
1178.10 0.01896
1178.20 0.01896
1178.30 0.01896
1178.40 0.01896
1178.50 0.01896
1178.60 0.01896
1178.70 0.01896
1178.80 0.01897
1178.90 0.01897
1179.00 0.01897
1179.10 0.01897
1179.20 0.01897
1179.30 0.01897
1179.40 0.01897
1179.50 0.01897
1179.60 0.01897
1179.70 0.01897
1179.80 0.01897
1179.90 0.01897
1180.00 0.01898
1180.10 0.01898
1180.20 0.01898
1180.30 0.01898
1180.40 0.01898
1180.50 0.01898
1180.60 0.01898
1180.70 0.01898
1180.80 0.01898
1180.90 0.01898
1181.00 0.01898
1181.10 0.01898
1181.20 0.01899
1181.30 0.01899
1181.40 0.01899
1181.50 0.01899
1181.60 0.01899
1181.70 0.01899
1181.80 0.01899
1181.90 0.01899
1182.00 0.01899
1182.10 0.01899
1182.20 0.01899
1182.30 0.01898
1182.40 0.01898
1182.50 0.01898
1182.60 0.01898
1182.70 0.01897
1182.80 0.01897
1182.90 0.01897
1183.00 0.01897
1183.10 0.01896
1183.20 0.01896
1183.30 0.01896
1183.40 0.01895
1183.50 0.01895
1183.60 0.01895
1183.70 0.01895
1183.80 0.01894
1183.90 0.01894
1184.00 0.01894
1184.10 0.01894
1184.20 0.01893
1184.30 0.01893
1184.40 0.01893
1184.50 0.01893
1184.60 0.01892
1184.70 0.01892
1184.80 0.01892
1184.90 0.01892
1185.00 0.01891
1185.10 0.01891
1185.20 0.01891
1185.30 0.0189
1185.40 0.0189
1185.50 0.0189
1185.60 0.0189
1185.70 0.01889
1185.80 0.01889
1185.90 0.01889
1186.00 0.01889
1186.10 0.01888
1186.20 0.01888
1186.30 0.01888
1186.40 0.01888
1186.50 0.01887
1186.60 0.01887
1186.70 0.01887
1186.80 0.01887
1186.90 0.01886
1187.00 0.01886
1187.10 0.01886
1187.20 0.01886
1187.30 0.01885
1187.40 0.01885
1187.50 0.01885
1187.60 0.01885
1187.70 0.01885
1187.80 0.01885
1187.90 0.01884
1188.00 0.01884
1188.10 0.01884
1188.20 0.01884
1188.30 0.01884
1188.40 0.01884
1188.50 0.01883
1188.60 0.01883
1188.70 0.01883
1188.80 0.01883
1188.90 0.01883
1189.00 0.01883
1189.10 0.01882
1189.20 0.01882
1189.30 0.01882
1189.40 0.01882
1189.50 0.01882
1189.60 0.01882
1189.70 0.01881
1189.80 0.01881
1189.90 0.01881
1190.00 0.01881
1190.10 0.01881
1190.20 0.01881
1190.30 0.0188
1190.40 0.0188
1190.50 0.0188
1190.60 0.0188
1190.70 0.0188
1190.80 0.01879
1190.90 0.01879
1191.00 0.01879
1191.10 0.01879
1191.20 0.01879
1191.30 0.01879
1191.40 0.01878
1191.50 0.01878
1191.60 0.01878
1191.70 0.01878
1191.80 0.01878
1191.90 0.01878
1192.00 0.01877
1192.10 0.01877
1192.20 0.01877
1192.30 0.01877
1192.40 0.01877
1192.50 0.01876
1192.60 0.01876
1192.70 0.01876
1192.80 0.01876
1192.90 0.01875
1193.00 0.01875
1193.10 0.01875
1193.20 0.01875
1193.30 0.01875
1193.40 0.01874
1193.50 0.01874
1193.60 0.01874
1193.70 0.01874
1193.80 0.01873
1193.90 0.01873
1194.00 0.01873
1194.10 0.01873
1194.20 0.01872
1194.30 0.01872
1194.40 0.01872
1194.50 0.01872
1194.60 0.01872
1194.70 0.01871
1194.80 0.01871
1194.90 0.01871
1195.00 0.01871
1195.10 0.0187
1195.20 0.0187
1195.30 0.0187
1195.40 0.0187
1195.50 0.0187
1195.60 0.01869
1195.70 0.01869
1195.80 0.01869
1195.90 0.01869
1196.00 0.01868
1196.10 0.01868
1196.20 0.01868
1196.30 0.01868
1196.40 0.01868
1196.50 0.01867
1196.60 0.01867
1196.70 0.01867
1196.80 0.01867
1196.90 0.01866
1197.00 0.01866
1197.10 0.01866
1197.20 0.01865
1197.30 0.01865
1197.40 0.01864
1197.50 0.01864
1197.60 0.01864
1197.70 0.01863
1197.80 0.01863
1197.90 0.01862
1198.00 0.01862
1198.10 0.01861
1198.20 0.01861
1198.30 0.01861
1198.40 0.0186
1198.50 0.0186
1198.60 0.01859
1198.70 0.01859
1198.80 0.01858
1198.90 0.01858
1199.00 0.01857
1199.10 0.01857
1199.20 0.01857
1199.30 0.01856
1199.40 0.01856
1199.50 0.01855
1199.60 0.01855
1199.70 0.01854
1199.80 0.01854
1199.90 0.01853
1200.00 0
