# Version 2.1 - nm, norm@500 to 1, cut digits, bergeron_2500_90.dat_2500
# Wavelength(nm)  Flambda(ergs/cm^s/s/nm)
300.00 0.08669
300.10 0.08691
300.20 0.08713
300.30 0.08736
300.40 0.08758
300.50 0.0878
300.60 0.08803
300.70 0.08825
300.80 0.08847
300.90 0.08869
301.00 0.08892
301.10 0.08914
301.20 0.08936
301.30 0.08958
301.40 0.0898
301.50 0.09002
301.60 0.09024
301.70 0.09046
301.80 0.09068
301.90 0.0909
302.00 0.09112
302.10 0.09134
302.20 0.09158
302.30 0.09181
302.40 0.09204
302.50 0.09227
302.60 0.0925
302.70 0.09273
302.80 0.09295
302.90 0.09318
303.00 0.09341
303.10 0.09364
303.20 0.09387
303.30 0.09409
303.40 0.09432
303.50 0.09455
303.60 0.09477
303.70 0.095
303.80 0.09523
303.90 0.09545
304.00 0.09568
304.10 0.09592
304.20 0.09615
304.30 0.09639
304.40 0.09663
304.50 0.09687
304.60 0.0971
304.70 0.09734
304.80 0.09757
304.90 0.09781
305.00 0.09805
305.10 0.09828
305.20 0.09852
305.30 0.09875
305.40 0.09898
305.50 0.09922
305.60 0.09945
305.70 0.09968
305.80 0.09992
305.90 0.1001
306.00 0.1004
306.10 0.1006
306.20 0.1009
306.30 0.1011
306.40 0.1014
306.50 0.1016
306.60 0.1018
306.70 0.1021
306.80 0.1023
306.90 0.1026
307.00 0.1028
307.10 0.1031
307.20 0.1033
307.30 0.1035
307.40 0.1038
307.50 0.104
307.60 0.1043
307.70 0.1045
307.80 0.1047
307.90 0.105
308.00 0.1052
308.10 0.1055
308.20 0.1057
308.30 0.106
308.40 0.1062
308.50 0.1065
308.60 0.1067
308.70 0.107
308.80 0.1072
308.90 0.1075
309.00 0.1077
309.10 0.108
309.20 0.1082
309.30 0.1085
309.40 0.1087
309.50 0.109
309.60 0.1092
309.70 0.1095
309.80 0.1097
309.90 0.11
310.00 0.1102
310.10 0.1105
310.20 0.1107
310.30 0.111
310.40 0.1112
310.50 0.1115
310.60 0.1118
310.70 0.112
310.80 0.1123
310.90 0.1125
311.00 0.1128
311.10 0.1131
311.20 0.1133
311.30 0.1136
311.40 0.1138
311.50 0.1141
311.60 0.1143
311.70 0.1146
311.80 0.1148
311.90 0.1151
312.00 0.1153
312.10 0.1156
312.20 0.1159
312.30 0.1161
312.40 0.1164
312.50 0.1166
312.60 0.1169
312.70 0.1172
312.80 0.1174
312.90 0.1177
313.00 0.118
313.10 0.1182
313.20 0.1185
313.30 0.1188
313.40 0.119
313.50 0.1193
313.60 0.1196
313.70 0.1198
313.80 0.1201
313.90 0.1203
314.00 0.1206
314.10 0.1209
314.20 0.1211
314.30 0.1214
314.40 0.1217
314.50 0.122
314.60 0.1222
314.70 0.1225
314.80 0.1228
314.90 0.123
315.00 0.1233
315.10 0.1236
315.20 0.1239
315.30 0.1241
315.40 0.1244
315.50 0.1247
315.60 0.1249
315.70 0.1252
315.80 0.1255
315.90 0.1257
316.00 0.126
316.10 0.1263
316.20 0.1266
316.30 0.1268
316.40 0.1271
316.50 0.1274
316.60 0.1277
316.70 0.128
316.80 0.1282
316.90 0.1285
317.00 0.1288
317.10 0.1291
317.20 0.1293
317.30 0.1296
317.40 0.1299
317.50 0.1302
317.60 0.1304
317.70 0.1307
317.80 0.131
317.90 0.1313
318.00 0.1316
318.10 0.1318
318.20 0.1321
318.30 0.1324
318.40 0.1327
318.50 0.133
318.60 0.1333
318.70 0.1336
318.80 0.1338
318.90 0.1341
319.00 0.1344
319.10 0.1347
319.20 0.135
319.30 0.1353
319.40 0.1355
319.50 0.1358
319.60 0.1361
319.70 0.1364
319.80 0.1367
319.90 0.1369
320.00 0.1372
320.10 0.1375
320.20 0.1378
320.30 0.1381
320.40 0.1384
320.50 0.1387
320.60 0.139
320.70 0.1393
320.80 0.1396
320.90 0.1399
321.00 0.1402
321.10 0.1405
321.20 0.1407
321.30 0.141
321.40 0.1413
321.50 0.1416
321.60 0.1419
321.70 0.1422
321.80 0.1425
321.90 0.1428
322.00 0.1431
322.10 0.1434
322.20 0.1437
322.30 0.144
322.40 0.1443
322.50 0.1446
322.60 0.1449
322.70 0.1452
322.80 0.1455
322.90 0.1458
323.00 0.1461
323.10 0.1464
323.20 0.1466
323.30 0.1469
323.40 0.1472
323.50 0.1475
323.60 0.1478
323.70 0.1481
323.80 0.1484
323.90 0.1487
324.00 0.149
324.10 0.1493
324.20 0.1496
324.30 0.1499
324.40 0.1502
324.50 0.1506
324.60 0.1509
324.70 0.1512
324.80 0.1515
324.90 0.1518
325.00 0.1521
325.10 0.1524
325.20 0.1527
325.30 0.153
325.40 0.1533
325.50 0.1536
325.60 0.1539
325.70 0.1542
325.80 0.1545
325.90 0.1548
326.00 0.1551
326.10 0.1554
326.20 0.1557
326.30 0.1561
326.40 0.1564
326.50 0.1567
326.60 0.157
326.70 0.1573
326.80 0.1576
326.90 0.1579
327.00 0.1583
327.10 0.1586
327.20 0.1589
327.30 0.1592
327.40 0.1595
327.50 0.1598
327.60 0.1601
327.70 0.1604
327.80 0.1607
327.90 0.1611
328.00 0.1614
328.10 0.1617
328.20 0.162
328.30 0.1623
328.40 0.1626
328.50 0.163
328.60 0.1633
328.70 0.1636
328.80 0.1639
328.90 0.1643
329.00 0.1646
329.10 0.1649
329.20 0.1652
329.30 0.1655
329.40 0.1658
329.50 0.1662
329.60 0.1665
329.70 0.1668
329.80 0.1671
329.90 0.1674
330.00 0.1677
330.10 0.1681
330.20 0.1684
330.30 0.1687
330.40 0.1691
330.50 0.1694
330.60 0.1697
330.70 0.17
330.80 0.1704
330.90 0.1707
331.00 0.171
331.10 0.1713
331.20 0.1717
331.30 0.172
331.40 0.1723
331.50 0.1726
331.60 0.173
331.70 0.1733
331.80 0.1736
331.90 0.1739
332.00 0.1743
332.10 0.1746
332.20 0.1749
332.30 0.1753
332.40 0.1756
332.50 0.1759
332.60 0.1763
332.70 0.1766
332.80 0.1769
332.90 0.1773
333.00 0.1776
333.10 0.1779
333.20 0.1783
333.30 0.1786
333.40 0.1789
333.50 0.1792
333.60 0.1796
333.70 0.1799
333.80 0.1802
333.90 0.1806
334.00 0.1809
334.10 0.1812
334.20 0.1816
334.30 0.1819
334.40 0.1823
334.50 0.1826
334.60 0.1829
334.70 0.1833
334.80 0.1836
334.90 0.184
335.00 0.1843
335.10 0.1847
335.20 0.185
335.30 0.1853
335.40 0.1857
335.50 0.186
335.60 0.1863
335.70 0.1867
335.80 0.187
335.90 0.1873
336.00 0.1877
336.10 0.188
336.20 0.1884
336.30 0.1887
336.40 0.1891
336.50 0.1894
336.60 0.1898
336.70 0.1901
336.80 0.1905
336.90 0.1908
337.00 0.1912
337.10 0.1915
337.20 0.1919
337.30 0.1922
337.40 0.1925
337.50 0.1929
337.60 0.1932
337.70 0.1936
337.80 0.1939
337.90 0.1943
338.00 0.1946
338.10 0.195
338.20 0.1953
338.30 0.1957
338.40 0.196
338.50 0.1964
338.60 0.1967
338.70 0.1971
338.80 0.1974
338.90 0.1978
339.00 0.1981
339.10 0.1985
339.20 0.1988
339.30 0.1992
339.40 0.1996
339.50 0.1999
339.60 0.2003
339.70 0.2006
339.80 0.2009
339.90 0.2013
340.00 0.2016
340.10 0.202
340.20 0.2024
340.30 0.2027
340.40 0.2031
340.50 0.2035
340.60 0.2038
340.70 0.2042
340.80 0.2045
340.90 0.2049
341.00 0.2053
341.10 0.2056
341.20 0.206
341.30 0.2063
341.40 0.2067
341.50 0.2071
341.60 0.2074
341.70 0.2078
341.80 0.2081
341.90 0.2085
342.00 0.2088
342.10 0.2092
342.20 0.2096
342.30 0.2099
342.40 0.2103
342.50 0.2107
342.60 0.211
342.70 0.2114
342.80 0.2118
342.90 0.2121
343.00 0.2125
343.10 0.2129
343.20 0.2132
343.30 0.2136
343.40 0.214
343.50 0.2143
343.60 0.2147
343.70 0.2151
343.80 0.2154
343.90 0.2158
344.00 0.2161
344.10 0.2165
344.20 0.2169
344.30 0.2173
344.40 0.2176
344.50 0.218
344.60 0.2184
344.70 0.2188
344.80 0.2191
344.90 0.2195
345.00 0.2199
345.10 0.2203
345.20 0.2206
345.30 0.221
345.40 0.2214
345.50 0.2217
345.60 0.2221
345.70 0.2225
345.80 0.2228
345.90 0.2232
346.00 0.2236
346.10 0.224
346.20 0.2243
346.30 0.2247
346.40 0.2251
346.50 0.2255
346.60 0.2259
346.70 0.2263
346.80 0.2266
346.90 0.227
347.00 0.2274
347.10 0.2278
347.20 0.2281
347.30 0.2285
347.40 0.2289
347.50 0.2293
347.60 0.2296
347.70 0.23
347.80 0.2304
347.90 0.2308
348.00 0.2311
348.10 0.2315
348.20 0.2319
348.30 0.2323
348.40 0.2327
348.50 0.2331
348.60 0.2335
348.70 0.2339
348.80 0.2342
348.90 0.2346
349.00 0.235
349.10 0.2354
349.20 0.2358
349.30 0.2362
349.40 0.2366
349.50 0.2369
349.60 0.2373
349.70 0.2377
349.80 0.2381
349.90 0.2385
350.00 0.2388
350.10 0.2392
350.20 0.2396
350.30 0.24
350.40 0.2404
350.50 0.2408
350.60 0.2412
350.70 0.2416
350.80 0.242
350.90 0.2424
351.00 0.2428
351.10 0.2432
351.20 0.2436
351.30 0.2439
351.40 0.2443
351.50 0.2447
351.60 0.2451
351.70 0.2455
351.80 0.2459
351.90 0.2463
352.00 0.2467
352.10 0.2471
352.20 0.2475
352.30 0.2479
352.40 0.2483
352.50 0.2487
352.60 0.2491
352.70 0.2495
352.80 0.2499
352.90 0.2503
353.00 0.2507
353.10 0.251
353.20 0.2514
353.30 0.2518
353.40 0.2522
353.50 0.2526
353.60 0.253
353.70 0.2534
353.80 0.2538
353.90 0.2542
354.00 0.2546
354.10 0.255
354.20 0.2554
354.30 0.2558
354.40 0.2562
354.50 0.2566
354.60 0.257
354.70 0.2574
354.80 0.2578
354.90 0.2582
355.00 0.2586
355.10 0.259
355.20 0.2595
355.30 0.2599
355.40 0.2603
355.50 0.2607
355.60 0.2611
355.70 0.2615
355.80 0.2619
355.90 0.2622
356.00 0.2626
356.10 0.2631
356.20 0.2635
356.30 0.2639
356.40 0.2643
356.50 0.2647
356.60 0.2651
356.70 0.2655
356.80 0.2659
356.90 0.2664
357.00 0.2668
357.10 0.2672
357.20 0.2676
357.30 0.268
357.40 0.2684
357.50 0.2688
357.60 0.2692
357.70 0.2696
357.80 0.27
357.90 0.2704
358.00 0.2708
358.10 0.2712
358.20 0.2717
358.30 0.2721
358.40 0.2725
358.50 0.2729
358.60 0.2733
358.70 0.2738
358.80 0.2742
358.90 0.2746
359.00 0.275
359.10 0.2754
359.20 0.2758
359.30 0.2762
359.40 0.2767
359.50 0.2771
359.60 0.2775
359.70 0.2779
359.80 0.2783
359.90 0.2787
360.00 0.2791
360.10 0.2795
360.20 0.28
360.30 0.2804
360.40 0.2808
360.50 0.2812
360.60 0.2817
360.70 0.2821
360.80 0.2825
360.90 0.2829
361.00 0.2833
361.10 0.2838
361.20 0.2842
361.30 0.2846
361.40 0.285
361.50 0.2854
361.60 0.2859
361.70 0.2863
361.80 0.2867
361.90 0.2871
362.00 0.2875
362.10 0.288
362.20 0.2884
362.30 0.2888
362.40 0.2892
362.50 0.2897
362.60 0.2901
362.70 0.2905
362.80 0.2909
362.90 0.2913
363.00 0.2918
363.10 0.2922
363.20 0.2926
363.30 0.2931
363.40 0.2935
363.50 0.2939
363.60 0.2944
363.70 0.2948
363.80 0.2952
363.90 0.2956
364.00 0.2961
364.10 0.2965
364.20 0.2969
364.30 0.2973
364.40 0.2978
364.50 0.2982
364.60 0.2986
364.70 0.2991
364.80 0.2995
364.90 0.2999
365.00 0.3004
365.10 0.3008
365.20 0.3012
365.30 0.3017
365.40 0.3021
365.50 0.3025
365.60 0.303
365.70 0.3034
365.80 0.3038
365.90 0.3042
366.00 0.3047
366.10 0.3051
366.20 0.3056
366.30 0.306
366.40 0.3064
366.50 0.3069
366.60 0.3073
366.70 0.3078
366.80 0.3082
366.90 0.3086
367.00 0.3091
367.10 0.3095
367.20 0.3099
367.30 0.3104
367.40 0.3108
367.50 0.3112
367.60 0.3117
367.70 0.3121
367.80 0.3125
367.90 0.313
368.00 0.3134
368.10 0.3139
368.20 0.3143
368.30 0.3148
368.40 0.3152
368.50 0.3156
368.60 0.3161
368.70 0.3165
368.80 0.317
368.90 0.3174
369.00 0.3179
369.10 0.3183
369.20 0.3187
369.30 0.3192
369.40 0.3196
369.50 0.3201
369.60 0.3205
369.70 0.3209
369.80 0.3214
369.90 0.3218
370.00 0.3223
370.10 0.3227
370.20 0.3232
370.30 0.3236
370.40 0.3241
370.50 0.3245
370.60 0.325
370.70 0.3254
370.80 0.3259
370.90 0.3263
371.00 0.3268
371.10 0.3272
371.20 0.3277
371.30 0.3281
371.40 0.3285
371.50 0.329
371.60 0.3294
371.70 0.3299
371.80 0.3303
371.90 0.3308
372.00 0.3312
372.10 0.3317
372.20 0.3321
372.30 0.3326
372.40 0.333
372.50 0.3335
372.60 0.3339
372.70 0.3344
372.80 0.3348
372.90 0.3353
373.00 0.3358
373.10 0.3362
373.20 0.3367
373.30 0.3371
373.40 0.3376
373.50 0.338
373.60 0.3385
373.70 0.3389
373.80 0.3394
373.90 0.3398
374.00 0.3403
374.10 0.3407
374.20 0.3412
374.30 0.3416
374.40 0.3421
374.50 0.3426
374.60 0.343
374.70 0.3435
374.80 0.3439
374.90 0.3444
375.00 0.3449
375.10 0.3453
375.20 0.3458
375.30 0.3462
375.40 0.3467
375.50 0.3471
375.60 0.3476
375.70 0.348
375.80 0.3485
375.90 0.349
376.00 0.3494
376.10 0.3499
376.20 0.3503
376.30 0.3508
376.40 0.3513
376.50 0.3517
376.60 0.3522
376.70 0.3526
376.80 0.3531
376.90 0.3536
377.00 0.354
377.10 0.3545
377.20 0.3549
377.30 0.3554
377.40 0.3559
377.50 0.3563
377.60 0.3568
377.70 0.3573
377.80 0.3577
377.90 0.3582
378.00 0.3586
378.10 0.3591
378.20 0.3596
378.30 0.36
378.40 0.3605
378.50 0.361
378.60 0.3614
378.70 0.3619
378.80 0.3624
378.90 0.3628
379.00 0.3633
379.10 0.3638
379.20 0.3642
379.30 0.3647
379.40 0.3652
379.50 0.3657
379.60 0.3661
379.70 0.3666
379.80 0.3671
379.90 0.3675
380.00 0.368
380.10 0.3685
380.20 0.3689
380.30 0.3694
380.40 0.3699
380.50 0.3703
380.60 0.3708
380.70 0.3713
380.80 0.3718
380.90 0.3722
381.00 0.3727
381.10 0.3732
381.20 0.3736
381.30 0.3741
381.40 0.3746
381.50 0.375
381.60 0.3755
381.70 0.376
381.80 0.3765
381.90 0.3769
382.00 0.3774
382.10 0.3779
382.20 0.3784
382.30 0.3788
382.40 0.3793
382.50 0.3798
382.60 0.3803
382.70 0.3807
382.80 0.3812
382.90 0.3817
383.00 0.3822
383.10 0.3826
383.20 0.3831
383.30 0.3836
383.40 0.3841
383.50 0.3845
383.60 0.385
383.70 0.3855
383.80 0.386
383.90 0.3865
384.00 0.3869
384.10 0.3874
384.20 0.3879
384.30 0.3884
384.40 0.3888
384.50 0.3893
384.60 0.3898
384.70 0.3903
384.80 0.3908
384.90 0.3912
385.00 0.3917
385.10 0.3922
385.20 0.3927
385.30 0.3932
385.40 0.3936
385.50 0.3941
385.60 0.3946
385.70 0.3951
385.80 0.3956
385.90 0.3961
386.00 0.3965
386.10 0.397
386.20 0.3975
386.30 0.398
386.40 0.3985
386.50 0.399
386.60 0.3994
386.70 0.3999
386.80 0.4004
386.90 0.4009
387.00 0.4014
387.10 0.4019
387.20 0.4023
387.30 0.4028
387.40 0.4033
387.50 0.4038
387.60 0.4043
387.70 0.4048
387.80 0.4053
387.90 0.4057
388.00 0.4062
388.10 0.4067
388.20 0.4072
388.30 0.4077
388.40 0.4082
388.50 0.4087
388.60 0.4091
388.70 0.4096
388.80 0.4101
388.90 0.4106
389.00 0.4111
389.10 0.4116
389.20 0.4121
389.30 0.4126
389.40 0.4131
389.50 0.4135
389.60 0.414
389.70 0.4145
389.80 0.415
389.90 0.4155
390.00 0.416
390.10 0.4165
390.20 0.417
390.30 0.4175
390.40 0.418
390.50 0.4185
390.60 0.4189
390.70 0.4194
390.80 0.4199
390.90 0.4204
391.00 0.4209
391.10 0.4214
391.20 0.4219
391.30 0.4224
391.40 0.4229
391.50 0.4234
391.60 0.4239
391.70 0.4244
391.80 0.4249
391.90 0.4254
392.00 0.4259
392.10 0.4263
392.20 0.4268
392.30 0.4273
392.40 0.4278
392.50 0.4283
392.60 0.4288
392.70 0.4293
392.80 0.4298
392.90 0.4303
393.00 0.4308
393.10 0.4313
393.20 0.4318
393.30 0.4323
393.40 0.4328
393.50 0.4333
393.60 0.4338
393.70 0.4343
393.80 0.4348
393.90 0.4353
394.00 0.4358
394.10 0.4363
394.20 0.4368
394.30 0.4373
394.40 0.4378
394.50 0.4383
394.60 0.4388
394.70 0.4393
394.80 0.4398
394.90 0.4403
395.00 0.4408
395.10 0.4413
395.20 0.4418
395.30 0.4423
395.40 0.4428
395.50 0.4433
395.60 0.4438
395.70 0.4443
395.80 0.4448
395.90 0.4453
396.00 0.4458
396.10 0.4463
396.20 0.4468
396.30 0.4473
396.40 0.4478
396.50 0.4483
396.60 0.4488
396.70 0.4493
396.80 0.4498
396.90 0.4503
397.00 0.4508
397.10 0.4513
397.20 0.4518
397.30 0.4523
397.40 0.4528
397.50 0.4533
397.60 0.4538
397.70 0.4543
397.80 0.4548
397.90 0.4553
398.00 0.4558
398.10 0.4563
398.20 0.4569
398.30 0.4574
398.40 0.4579
398.50 0.4584
398.60 0.4589
398.70 0.4594
398.80 0.4599
398.90 0.4604
399.00 0.4609
399.10 0.4614
399.20 0.4619
399.30 0.4624
399.40 0.4629
399.50 0.4634
399.60 0.4639
399.70 0.4645
399.80 0.465
399.90 0.4655
400.00 0.466
400.10 0.4665
400.20 0.467
400.30 0.4675
400.40 0.468
400.50 0.4685
400.60 0.469
400.70 0.4695
400.80 0.4701
400.90 0.4706
401.00 0.4711
401.10 0.4716
401.20 0.4721
401.30 0.4726
401.40 0.4731
401.50 0.4736
401.60 0.4741
401.70 0.4747
401.80 0.4752
401.90 0.4757
402.00 0.4762
402.10 0.4767
402.20 0.4772
402.30 0.4777
402.40 0.4782
402.50 0.4787
402.60 0.4793
402.70 0.4798
402.80 0.4803
402.90 0.4808
403.00 0.4813
403.10 0.4818
403.20 0.4823
403.30 0.4828
403.40 0.4834
403.50 0.4839
403.60 0.4844
403.70 0.4849
403.80 0.4854
403.90 0.4859
404.00 0.4865
404.10 0.487
404.20 0.4875
404.30 0.488
404.40 0.4885
404.50 0.489
404.60 0.4895
404.70 0.4901
404.80 0.4906
404.90 0.4911
405.00 0.4916
405.10 0.4921
405.20 0.4926
405.30 0.4932
405.40 0.4937
405.50 0.4942
405.60 0.4947
405.70 0.4952
405.80 0.4957
405.90 0.4963
406.00 0.4968
406.10 0.4973
406.20 0.4978
406.30 0.4983
406.40 0.4989
406.50 0.4994
406.60 0.4999
406.70 0.5004
406.80 0.5009
406.90 0.5014
407.00 0.502
407.10 0.5025
407.20 0.503
407.30 0.5035
407.40 0.504
407.50 0.5046
407.60 0.5051
407.70 0.5056
407.80 0.5061
407.90 0.5066
408.00 0.5072
408.10 0.5077
408.20 0.5082
408.30 0.5087
408.40 0.5092
408.50 0.5098
408.60 0.5103
408.70 0.5108
408.80 0.5113
408.90 0.5119
409.00 0.5124
409.10 0.5129
409.20 0.5134
409.30 0.5139
409.40 0.5145
409.50 0.515
409.60 0.5155
409.70 0.516
409.80 0.5166
409.90 0.5171
410.00 0.5176
410.10 0.5181
410.20 0.5186
410.30 0.5192
410.40 0.5197
410.50 0.5202
410.60 0.5207
410.70 0.5212
410.80 0.5218
410.90 0.5223
411.00 0.5228
411.10 0.5233
411.20 0.5239
411.30 0.5244
411.40 0.525
411.50 0.5255
411.60 0.526
411.70 0.5265
411.80 0.527
411.90 0.5276
412.00 0.5281
412.10 0.5286
412.20 0.5292
412.30 0.5297
412.40 0.5302
412.50 0.5307
412.60 0.5312
412.70 0.5318
412.80 0.5323
412.90 0.5328
413.00 0.5333
413.10 0.5339
413.20 0.5344
413.30 0.5349
413.40 0.5355
413.50 0.536
413.60 0.5365
413.70 0.537
413.80 0.5376
413.90 0.5381
414.00 0.5386
414.10 0.5391
414.20 0.5397
414.30 0.5402
414.40 0.5407
414.50 0.5413
414.60 0.5418
414.70 0.5423
414.80 0.5429
414.90 0.5434
415.00 0.5439
415.10 0.5444
415.20 0.545
415.30 0.5455
415.40 0.546
415.50 0.5466
415.60 0.5471
415.70 0.5476
415.80 0.5481
415.90 0.5487
416.00 0.5492
416.10 0.5497
416.20 0.5503
416.30 0.5508
416.40 0.5513
416.50 0.5519
416.60 0.5524
416.70 0.5529
416.80 0.5535
416.90 0.554
417.00 0.5545
417.10 0.5551
417.20 0.5556
417.30 0.5561
417.40 0.5567
417.50 0.5572
417.60 0.5577
417.70 0.5583
417.80 0.5588
417.90 0.5593
418.00 0.5599
418.10 0.5604
418.20 0.5609
418.30 0.5615
418.40 0.562
418.50 0.5625
418.60 0.563
418.70 0.5636
418.80 0.5641
418.90 0.5646
419.00 0.5652
419.10 0.5657
419.20 0.5662
419.30 0.5668
419.40 0.5673
419.50 0.5679
419.60 0.5684
419.70 0.5689
419.80 0.5694
419.90 0.57
420.00 0.5705
420.10 0.571
420.20 0.5716
420.30 0.5721
420.40 0.5726
420.50 0.5732
420.60 0.5737
420.70 0.5742
420.80 0.5748
420.90 0.5753
421.00 0.5759
421.10 0.5764
421.20 0.5769
421.30 0.5775
421.40 0.578
421.50 0.5785
421.60 0.5791
421.70 0.5796
421.80 0.5801
421.90 0.5807
422.00 0.5812
422.10 0.5817
422.20 0.5823
422.30 0.5828
422.40 0.5834
422.50 0.5839
422.60 0.5844
422.70 0.585
422.80 0.5855
422.90 0.586
423.00 0.5866
423.10 0.5871
423.20 0.5877
423.30 0.5882
423.40 0.5887
423.50 0.5893
423.60 0.5898
423.70 0.5904
423.80 0.5909
423.90 0.5914
424.00 0.592
424.10 0.5925
424.20 0.593
424.30 0.5936
424.40 0.5941
424.50 0.5946
424.60 0.5952
424.70 0.5957
424.80 0.5963
424.90 0.5968
425.00 0.5973
425.10 0.5979
425.20 0.5984
425.30 0.599
425.40 0.5995
425.50 0.6
425.60 0.6006
425.70 0.6011
425.80 0.6016
425.90 0.6022
426.00 0.6027
426.10 0.6033
426.20 0.6038
426.30 0.6043
426.40 0.6049
426.50 0.6054
426.60 0.606
426.70 0.6065
426.80 0.6071
426.90 0.6076
427.00 0.6081
427.10 0.6086
427.20 0.6092
427.30 0.6097
427.40 0.6103
427.50 0.6108
427.60 0.6114
427.70 0.6119
427.80 0.6124
427.90 0.613
428.00 0.6135
428.10 0.6141
428.20 0.6146
428.30 0.6152
428.40 0.6157
428.50 0.6162
428.60 0.6168
428.70 0.6173
428.80 0.6179
428.90 0.6184
429.00 0.6189
429.10 0.6195
429.20 0.62
429.30 0.6206
429.40 0.6211
429.50 0.6217
429.60 0.6222
429.70 0.6227
429.80 0.6233
429.90 0.6238
430.00 0.6244
430.10 0.6249
430.20 0.6254
430.30 0.626
430.40 0.6265
430.50 0.6271
430.60 0.6276
430.70 0.6282
430.80 0.6287
430.90 0.6292
431.00 0.6298
431.10 0.6303
431.20 0.6309
431.30 0.6314
431.40 0.6319
431.50 0.6325
431.60 0.633
431.70 0.6336
431.80 0.6341
431.90 0.6347
432.00 0.6352
432.10 0.6358
432.20 0.6363
432.30 0.6368
432.40 0.6374
432.50 0.6379
432.60 0.6385
432.70 0.639
432.80 0.6395
432.90 0.6401
433.00 0.6407
433.10 0.6412
433.20 0.6417
433.30 0.6423
433.40 0.6428
433.50 0.6434
433.60 0.6439
433.70 0.6444
433.80 0.645
433.90 0.6456
434.00 0.6461
434.10 0.6466
434.20 0.6472
434.30 0.6477
434.40 0.6483
434.50 0.6488
434.60 0.6493
434.70 0.6499
434.80 0.6505
434.90 0.651
435.00 0.6515
435.10 0.6521
435.20 0.6526
435.30 0.6532
435.40 0.6537
435.50 0.6543
435.60 0.6548
435.70 0.6554
435.80 0.6559
435.90 0.6564
436.00 0.657
436.10 0.6575
436.20 0.6581
436.30 0.6586
436.40 0.6592
436.50 0.6597
436.60 0.6602
436.70 0.6608
436.80 0.6613
436.90 0.6619
437.00 0.6624
437.10 0.663
437.20 0.6635
437.30 0.664
437.40 0.6646
437.50 0.6651
437.60 0.6657
437.70 0.6662
437.80 0.6668
437.90 0.6673
438.00 0.6679
438.10 0.6685
438.20 0.669
438.30 0.6695
438.40 0.6701
438.50 0.6706
438.60 0.6712
438.70 0.6717
438.80 0.6722
438.90 0.6728
439.00 0.6734
439.10 0.6739
439.20 0.6744
439.30 0.675
439.40 0.6755
439.50 0.6761
439.60 0.6766
439.70 0.6772
439.80 0.6777
439.90 0.6783
440.00 0.6788
440.10 0.6794
440.20 0.6799
440.30 0.6804
440.40 0.681
440.50 0.6815
440.60 0.6821
440.70 0.6826
440.80 0.6832
440.90 0.6837
441.00 0.6843
441.10 0.6848
441.20 0.6854
441.30 0.6859
441.40 0.6865
441.50 0.687
441.60 0.6876
441.70 0.6881
441.80 0.6886
441.90 0.6892
442.00 0.6897
442.10 0.6903
442.20 0.6908
442.30 0.6914
442.40 0.6919
442.50 0.6925
442.60 0.693
442.70 0.6936
442.80 0.6941
442.90 0.6947
443.00 0.6952
443.10 0.6958
443.20 0.6963
443.30 0.6969
443.40 0.6974
443.50 0.6979
443.60 0.6985
443.70 0.699
443.80 0.6996
443.90 0.7001
444.00 0.7007
444.10 0.7012
444.20 0.7018
444.30 0.7023
444.40 0.7029
444.50 0.7034
444.60 0.704
444.70 0.7045
444.80 0.7051
444.90 0.7056
445.00 0.7061
445.10 0.7067
445.20 0.7073
445.30 0.7078
445.40 0.7083
445.50 0.7089
445.60 0.7094
445.70 0.71
445.80 0.7105
445.90 0.7111
446.00 0.7116
446.10 0.7122
446.20 0.7127
446.30 0.7133
446.40 0.7138
446.50 0.7144
446.60 0.7149
446.70 0.7155
446.80 0.716
446.90 0.7166
447.00 0.7171
447.10 0.7176
447.20 0.7182
447.30 0.7187
447.40 0.7193
447.50 0.7198
447.60 0.7204
447.70 0.7209
447.80 0.7215
447.90 0.722
448.00 0.7226
448.10 0.7231
448.20 0.7237
448.30 0.7242
448.40 0.7248
448.50 0.7253
448.60 0.7259
448.70 0.7264
448.80 0.727
448.90 0.7275
449.00 0.728
449.10 0.7286
449.20 0.7291
449.30 0.7297
449.40 0.7303
449.50 0.7308
449.60 0.7313
449.70 0.7319
449.80 0.7324
449.90 0.733
450.00 0.7335
450.10 0.7341
450.20 0.7346
450.30 0.7352
450.40 0.7357
450.50 0.7363
450.60 0.7368
450.70 0.7374
450.80 0.7379
450.90 0.7385
451.00 0.739
451.10 0.7395
451.20 0.7401
451.30 0.7406
451.40 0.7412
451.50 0.7417
451.60 0.7423
451.70 0.7428
451.80 0.7434
451.90 0.7439
452.00 0.7445
452.10 0.745
452.20 0.7456
452.30 0.7461
452.40 0.7467
452.50 0.7472
452.60 0.7478
452.70 0.7483
452.80 0.7489
452.90 0.7494
453.00 0.7499
453.10 0.7505
453.20 0.751
453.30 0.7516
453.40 0.7521
453.50 0.7527
453.60 0.7532
453.70 0.7538
453.80 0.7543
453.90 0.7549
454.00 0.7554
454.10 0.756
454.20 0.7565
454.30 0.7571
454.40 0.7576
454.50 0.7581
454.60 0.7587
454.70 0.7592
454.80 0.7598
454.90 0.7603
455.00 0.7609
455.10 0.7614
455.20 0.762
455.30 0.7625
455.40 0.7631
455.50 0.7636
455.60 0.7642
455.70 0.7647
455.80 0.7652
455.90 0.7658
456.00 0.7663
456.10 0.7669
456.20 0.7674
456.30 0.768
456.40 0.7685
456.50 0.7691
456.60 0.7696
456.70 0.7702
456.80 0.7707
456.90 0.7713
457.00 0.7718
457.10 0.7724
457.20 0.7729
457.30 0.7734
457.40 0.774
457.50 0.7745
457.60 0.7751
457.70 0.7756
457.80 0.7762
457.90 0.7767
458.00 0.7773
458.10 0.7778
458.20 0.7784
458.30 0.7789
458.40 0.7795
458.50 0.78
458.60 0.7806
458.70 0.7811
458.80 0.7816
458.90 0.7822
459.00 0.7827
459.10 0.7833
459.20 0.7838
459.30 0.7844
459.40 0.7849
459.50 0.7855
459.60 0.786
459.70 0.7865
459.80 0.7871
459.90 0.7876
460.00 0.7882
460.10 0.7887
460.20 0.7893
460.30 0.7898
460.40 0.7904
460.50 0.7909
460.60 0.7915
460.70 0.792
460.80 0.7926
460.90 0.7931
461.00 0.7936
461.10 0.7942
461.20 0.7947
461.30 0.7953
461.40 0.7958
461.50 0.7964
461.60 0.7969
461.70 0.7975
461.80 0.798
461.90 0.7985
462.00 0.7991
462.10 0.7996
462.20 0.8002
462.30 0.8007
462.40 0.8013
462.50 0.8018
462.60 0.8023
462.70 0.8029
462.80 0.8034
462.90 0.804
463.00 0.8045
463.10 0.8051
463.20 0.8056
463.30 0.8062
463.40 0.8067
463.50 0.8072
463.60 0.8078
463.70 0.8083
463.80 0.8089
463.90 0.8094
464.00 0.81
464.10 0.8105
464.20 0.8111
464.30 0.8116
464.40 0.8121
464.50 0.8127
464.60 0.8132
464.70 0.8138
464.80 0.8143
464.90 0.8149
465.00 0.8154
465.10 0.8159
465.20 0.8165
465.30 0.817
465.40 0.8176
465.50 0.8181
465.60 0.8186
465.70 0.8192
465.80 0.8197
465.90 0.8203
466.00 0.8208
466.10 0.8213
466.20 0.8219
466.30 0.8224
466.40 0.823
466.50 0.8235
466.60 0.8241
466.70 0.8246
466.80 0.8252
466.90 0.8257
467.00 0.8262
467.10 0.8268
467.20 0.8273
467.30 0.8279
467.40 0.8284
467.50 0.8289
467.60 0.8295
467.70 0.83
467.80 0.8306
467.90 0.8311
468.00 0.8316
468.10 0.8322
468.20 0.8327
468.30 0.8333
468.40 0.8338
468.50 0.8343
468.60 0.8349
468.70 0.8354
468.80 0.836
468.90 0.8365
469.00 0.837
469.10 0.8376
469.20 0.8381
469.30 0.8387
469.40 0.8392
469.50 0.8397
469.60 0.8403
469.70 0.8408
469.80 0.8414
469.90 0.8419
470.00 0.8425
470.10 0.843
470.20 0.8435
470.30 0.8441
470.40 0.8446
470.50 0.8452
470.60 0.8457
470.70 0.8462
470.80 0.8468
470.90 0.8473
471.00 0.8479
471.10 0.8484
471.20 0.8489
471.30 0.8495
471.40 0.85
471.50 0.8505
471.60 0.8511
471.70 0.8516
471.80 0.8522
471.90 0.8527
472.00 0.8532
472.10 0.8538
472.20 0.8543
472.30 0.8548
472.40 0.8554
472.50 0.8559
472.60 0.8565
472.70 0.857
472.80 0.8575
472.90 0.8581
473.00 0.8586
473.10 0.8592
473.20 0.8597
473.30 0.8602
473.40 0.8608
473.50 0.8613
473.60 0.8618
473.70 0.8624
473.80 0.8629
473.90 0.8635
474.00 0.864
474.10 0.8645
474.20 0.8651
474.30 0.8656
474.40 0.8661
474.50 0.8667
474.60 0.8672
474.70 0.8678
474.80 0.8683
474.90 0.8688
475.00 0.8694
475.10 0.8699
475.20 0.8704
475.30 0.871
475.40 0.8715
475.50 0.872
475.60 0.8726
475.70 0.8731
475.80 0.8736
475.90 0.8742
476.00 0.8747
476.10 0.8752
476.20 0.8758
476.30 0.8763
476.40 0.8769
476.50 0.8774
476.60 0.8779
476.70 0.8785
476.80 0.879
476.90 0.8795
477.00 0.8801
477.10 0.8806
477.20 0.8811
477.30 0.8817
477.40 0.8822
477.50 0.8827
477.60 0.8833
477.70 0.8838
477.80 0.8843
477.90 0.8848
478.00 0.8854
478.10 0.8859
478.20 0.8864
478.30 0.887
478.40 0.8875
478.50 0.888
478.60 0.8886
478.70 0.8891
478.80 0.8897
478.90 0.8902
479.00 0.8907
479.10 0.8913
479.20 0.8918
479.30 0.8923
479.40 0.8928
479.50 0.8934
479.60 0.8939
479.70 0.8944
479.80 0.895
479.90 0.8955
480.00 0.896
480.10 0.8966
480.20 0.8971
480.30 0.8976
480.40 0.8982
480.50 0.8987
480.60 0.8992
480.70 0.8997
480.80 0.9003
480.90 0.9008
481.00 0.9013
481.10 0.9019
481.20 0.9024
481.30 0.9029
481.40 0.9035
481.50 0.904
481.60 0.9045
481.70 0.905
481.80 0.9056
481.90 0.9061
482.00 0.9066
482.10 0.9072
482.20 0.9077
482.30 0.9082
482.40 0.9088
482.50 0.9093
482.60 0.9098
482.70 0.9103
482.80 0.9109
482.90 0.9114
483.00 0.9119
483.10 0.9125
483.20 0.913
483.30 0.9135
483.40 0.914
483.50 0.9146
483.60 0.9151
483.70 0.9156
483.80 0.9162
483.90 0.9167
484.00 0.9172
484.10 0.9177
484.20 0.9183
484.30 0.9188
484.40 0.9193
484.50 0.9198
484.60 0.9204
484.70 0.9209
484.80 0.9214
484.90 0.9219
485.00 0.9225
485.10 0.923
485.20 0.9235
485.30 0.924
485.40 0.9246
485.50 0.9251
485.60 0.9256
485.70 0.9261
485.80 0.9267
485.90 0.9272
486.00 0.9277
486.10 0.9283
486.20 0.9288
486.30 0.9293
486.40 0.9298
486.50 0.9304
486.60 0.9309
486.70 0.9314
486.80 0.9319
486.90 0.9325
487.00 0.933
487.10 0.9335
487.20 0.934
487.30 0.9345
487.40 0.9351
487.50 0.9356
487.60 0.9361
487.70 0.9366
487.80 0.9372
487.90 0.9377
488.00 0.9382
488.10 0.9387
488.20 0.9392
488.30 0.9398
488.40 0.9403
488.50 0.9408
488.60 0.9413
488.70 0.9419
488.80 0.9424
488.90 0.9429
489.00 0.9434
489.10 0.944
489.20 0.9445
489.30 0.945
489.40 0.9455
489.50 0.946
489.60 0.9466
489.70 0.9471
489.80 0.9476
489.90 0.9481
490.00 0.9486
490.10 0.9492
490.20 0.9497
490.30 0.9502
490.40 0.9507
490.50 0.9512
490.60 0.9518
490.70 0.9523
490.80 0.9528
490.90 0.9533
491.00 0.9538
491.10 0.9544
491.20 0.9549
491.30 0.9554
491.40 0.9559
491.50 0.9564
491.60 0.957
491.70 0.9575
491.80 0.958
491.90 0.9585
492.00 0.959
492.10 0.9595
492.20 0.9601
492.30 0.9606
492.40 0.9611
492.50 0.9616
492.60 0.9621
492.70 0.9627
492.80 0.9632
492.90 0.9637
493.00 0.9642
493.10 0.9647
493.20 0.9652
493.30 0.9657
493.40 0.9663
493.50 0.9668
493.60 0.9673
493.70 0.9678
493.80 0.9683
493.90 0.9688
494.00 0.9693
494.10 0.9698
494.20 0.9704
494.30 0.9709
494.40 0.9714
494.50 0.9719
494.60 0.9724
494.70 0.9729
494.80 0.9735
494.90 0.974
495.00 0.9745
495.10 0.975
495.20 0.9755
495.30 0.976
495.40 0.9766
495.50 0.9771
495.60 0.9776
495.70 0.9781
495.80 0.9786
495.90 0.9791
496.00 0.9796
496.10 0.9801
496.20 0.9807
496.30 0.9812
496.40 0.9817
496.50 0.9822
496.60 0.9827
496.70 0.9832
496.80 0.9837
496.90 0.9842
497.00 0.9847
497.10 0.9852
497.20 0.9858
497.30 0.9863
497.40 0.9868
497.50 0.9873
497.60 0.9878
497.70 0.9883
497.80 0.9888
497.90 0.9893
498.00 0.9898
498.10 0.9904
498.20 0.9909
498.30 0.9914
498.40 0.9919
498.50 0.9924
498.60 0.9929
498.70 0.9934
498.80 0.9939
498.90 0.9944
499.00 0.9949
499.10 0.9954
499.20 0.9959
499.30 0.9964
499.40 0.9969
499.50 0.9975
499.60 0.998
499.70 0.9985
499.80 0.999
499.90 0.9995
500.00 1
500.10 1.001
500.20 1.001
500.30 1.002
500.40 1.002
500.50 1.003
500.60 1.003
500.70 1.004
500.80 1.004
500.90 1.005
501.00 1.005
501.10 1.006
501.20 1.006
501.30 1.007
501.40 1.007
501.50 1.008
501.60 1.008
501.70 1.009
501.80 1.009
501.90 1.01
502.00 1.01
502.10 1.011
502.20 1.011
502.30 1.012
502.40 1.012
502.50 1.013
502.60 1.013
502.70 1.014
502.80 1.014
502.90 1.015
503.00 1.015
503.10 1.016
503.20 1.016
503.30 1.017
503.40 1.017
503.50 1.018
503.60 1.018
503.70 1.019
503.80 1.019
503.90 1.02
504.00 1.02
504.10 1.021
504.20 1.021
504.30 1.022
504.40 1.022
504.50 1.023
504.60 1.023
504.70 1.024
504.80 1.024
504.90 1.025
505.00 1.025
505.10 1.026
505.20 1.026
505.30 1.027
505.40 1.027
505.50 1.028
505.60 1.028
505.70 1.029
505.80 1.029
505.90 1.03
506.00 1.03
506.10 1.031
506.20 1.031
506.30 1.032
506.40 1.032
506.50 1.033
506.60 1.033
506.70 1.033
506.80 1.034
506.90 1.034
507.00 1.035
507.10 1.035
507.20 1.036
507.30 1.036
507.40 1.037
507.50 1.037
507.60 1.038
507.70 1.038
507.80 1.039
507.90 1.039
508.00 1.04
508.10 1.04
508.20 1.041
508.30 1.041
508.40 1.042
508.50 1.042
508.60 1.043
508.70 1.043
508.80 1.044
508.90 1.044
509.00 1.045
509.10 1.045
509.20 1.046
509.30 1.046
509.40 1.047
509.50 1.047
509.60 1.048
509.70 1.048
509.80 1.049
509.90 1.049
510.00 1.05
510.10 1.05
510.20 1.051
510.30 1.051
510.40 1.052
510.50 1.052
510.60 1.053
510.70 1.053
510.80 1.054
510.90 1.054
511.00 1.055
511.10 1.055
511.20 1.056
511.30 1.056
511.40 1.057
511.50 1.057
511.60 1.058
511.70 1.058
511.80 1.058
511.90 1.059
512.00 1.059
512.10 1.06
512.20 1.06
512.30 1.061
512.40 1.061
512.50 1.062
512.60 1.062
512.70 1.063
512.80 1.063
512.90 1.064
513.00 1.064
513.10 1.065
513.20 1.065
513.30 1.066
513.40 1.066
513.50 1.067
513.60 1.067
513.70 1.068
513.80 1.068
513.90 1.069
514.00 1.069
514.10 1.07
514.20 1.07
514.30 1.071
514.40 1.071
514.50 1.072
514.60 1.072
514.70 1.073
514.80 1.073
514.90 1.073
515.00 1.074
515.10 1.074
515.20 1.075
515.30 1.075
515.40 1.076
515.50 1.076
515.60 1.077
515.70 1.077
515.80 1.078
515.90 1.078
516.00 1.079
516.10 1.079
516.20 1.08
516.30 1.08
516.40 1.081
516.50 1.081
516.60 1.082
516.70 1.082
516.80 1.083
516.90 1.083
517.00 1.083
517.10 1.084
517.20 1.084
517.30 1.085
517.40 1.085
517.50 1.086
517.60 1.086
517.70 1.087
517.80 1.087
517.90 1.088
518.00 1.088
518.10 1.089
518.20 1.089
518.30 1.09
518.40 1.09
518.50 1.091
518.60 1.091
518.70 1.092
518.80 1.092
518.90 1.092
519.00 1.093
519.10 1.093
519.20 1.094
519.30 1.094
519.40 1.095
519.50 1.095
519.60 1.096
519.70 1.096
519.80 1.097
519.90 1.097
520.00 1.098
520.10 1.098
520.20 1.099
520.30 1.099
520.40 1.1
520.50 1.1
520.60 1.1
520.70 1.101
520.80 1.101
520.90 1.102
521.00 1.102
521.10 1.103
521.20 1.103
521.30 1.104
521.40 1.104
521.50 1.105
521.60 1.105
521.70 1.106
521.80 1.106
521.90 1.107
522.00 1.107
522.10 1.107
522.20 1.108
522.30 1.108
522.40 1.109
522.50 1.109
522.60 1.11
522.70 1.11
522.80 1.111
522.90 1.111
523.00 1.112
523.10 1.112
523.20 1.113
523.30 1.113
523.40 1.114
523.50 1.114
523.60 1.114
523.70 1.115
523.80 1.115
523.90 1.116
524.00 1.116
524.10 1.117
524.20 1.117
524.30 1.118
524.40 1.118
524.50 1.119
524.60 1.119
524.70 1.119
524.80 1.12
524.90 1.12
525.00 1.121
525.10 1.121
525.20 1.122
525.30 1.122
525.40 1.123
525.50 1.123
525.60 1.124
525.70 1.124
525.80 1.125
525.90 1.125
526.00 1.125
526.10 1.126
526.20 1.126
526.30 1.127
526.40 1.127
526.50 1.128
526.60 1.128
526.70 1.129
526.80 1.129
526.90 1.13
527.00 1.13
527.10 1.13
527.20 1.131
527.30 1.131
527.40 1.132
527.50 1.132
527.60 1.133
527.70 1.133
527.80 1.134
527.90 1.134
528.00 1.135
528.10 1.135
528.20 1.135
528.30 1.136
528.40 1.136
528.50 1.137
528.60 1.137
528.70 1.138
528.80 1.138
528.90 1.139
529.00 1.139
529.10 1.139
529.20 1.14
529.30 1.14
529.40 1.141
529.50 1.141
529.60 1.142
529.70 1.142
529.80 1.143
529.90 1.143
530.00 1.143
530.10 1.144
530.20 1.144
530.30 1.145
530.40 1.145
530.50 1.146
530.60 1.146
530.70 1.147
530.80 1.147
530.90 1.147
531.00 1.148
531.10 1.148
531.20 1.149
531.30 1.149
531.40 1.15
531.50 1.15
531.60 1.151
531.70 1.151
531.80 1.151
531.90 1.152
532.00 1.152
532.10 1.153
532.20 1.153
532.30 1.154
532.40 1.154
532.50 1.155
532.60 1.155
532.70 1.155
532.80 1.156
532.90 1.156
533.00 1.157
533.10 1.157
533.20 1.158
533.30 1.158
533.40 1.158
533.50 1.159
533.60 1.159
533.70 1.16
533.80 1.16
533.90 1.161
534.00 1.161
534.10 1.162
534.20 1.162
534.30 1.162
534.40 1.163
534.50 1.163
534.60 1.164
534.70 1.164
534.80 1.165
534.90 1.165
535.00 1.165
535.10 1.166
535.20 1.166
535.30 1.167
535.40 1.167
535.50 1.168
535.60 1.168
535.70 1.168
535.80 1.169
535.90 1.169
536.00 1.17
536.10 1.17
536.20 1.171
536.30 1.171
536.40 1.171
536.50 1.172
536.60 1.172
536.70 1.173
536.80 1.173
536.90 1.174
537.00 1.174
537.10 1.174
537.20 1.175
537.30 1.175
537.40 1.176
537.50 1.176
537.60 1.177
537.70 1.177
537.80 1.177
537.90 1.178
538.00 1.178
538.10 1.179
538.20 1.179
538.30 1.18
538.40 1.18
538.50 1.18
538.60 1.181
538.70 1.181
538.80 1.182
538.90 1.182
539.00 1.183
539.10 1.183
539.20 1.183
539.30 1.184
539.40 1.184
539.50 1.185
539.60 1.185
539.70 1.185
539.80 1.186
539.90 1.186
540.00 1.187
540.10 1.187
540.20 1.188
540.30 1.188
540.40 1.188
540.50 1.189
540.60 1.189
540.70 1.19
540.80 1.19
540.90 1.19
541.00 1.191
541.10 1.191
541.20 1.192
541.30 1.192
541.40 1.193
541.50 1.193
541.60 1.193
541.70 1.194
541.80 1.194
541.90 1.195
542.00 1.195
542.10 1.195
542.20 1.196
542.30 1.196
542.40 1.197
542.50 1.197
542.60 1.198
542.70 1.198
542.80 1.198
542.90 1.199
543.00 1.199
543.10 1.2
543.20 1.2
543.30 1.2
543.40 1.201
543.50 1.201
543.60 1.202
543.70 1.202
543.80 1.202
543.90 1.203
544.00 1.203
544.10 1.204
544.20 1.204
544.30 1.204
544.40 1.205
544.50 1.205
544.60 1.206
544.70 1.206
544.80 1.206
544.90 1.207
545.00 1.207
545.10 1.208
545.20 1.208
545.30 1.208
545.40 1.209
545.50 1.209
545.60 1.21
545.70 1.21
545.80 1.211
545.90 1.211
546.00 1.211
546.10 1.212
546.20 1.212
546.30 1.213
546.40 1.213
546.50 1.213
546.60 1.214
546.70 1.214
546.80 1.214
546.90 1.215
547.00 1.215
547.10 1.216
547.20 1.216
547.30 1.216
547.40 1.217
547.50 1.217
547.60 1.218
547.70 1.218
547.80 1.218
547.90 1.219
548.00 1.219
548.10 1.22
548.20 1.22
548.30 1.22
548.40 1.221
548.50 1.221
548.60 1.222
548.70 1.222
548.80 1.222
548.90 1.223
549.00 1.223
549.10 1.224
549.20 1.224
549.30 1.224
549.40 1.225
549.50 1.225
549.60 1.225
549.70 1.226
549.80 1.226
549.90 1.227
550.00 1.227
550.10 1.227
550.20 1.228
550.30 1.228
550.40 1.229
550.50 1.229
550.60 1.229
550.70 1.23
550.80 1.23
550.90 1.23
551.00 1.231
551.10 1.231
551.20 1.232
551.30 1.232
551.40 1.232
551.50 1.233
551.60 1.233
551.70 1.234
551.80 1.234
551.90 1.234
552.00 1.235
552.10 1.235
552.20 1.235
552.30 1.236
552.40 1.236
552.50 1.237
552.60 1.237
552.70 1.237
552.80 1.238
552.90 1.238
553.00 1.238
553.10 1.239
553.20 1.239
553.30 1.24
553.40 1.24
553.50 1.24
553.60 1.241
553.70 1.241
553.80 1.241
553.90 1.242
554.00 1.242
554.10 1.243
554.20 1.243
554.30 1.243
554.40 1.244
554.50 1.244
554.60 1.244
554.70 1.245
554.80 1.245
554.90 1.246
555.00 1.246
555.10 1.246
555.20 1.247
555.30 1.247
555.40 1.247
555.50 1.248
555.60 1.248
555.70 1.248
555.80 1.249
555.90 1.249
556.00 1.25
556.10 1.25
556.20 1.25
556.30 1.251
556.40 1.251
556.50 1.251
556.60 1.252
556.70 1.252
556.80 1.252
556.90 1.253
557.00 1.253
557.10 1.253
557.20 1.254
557.30 1.254
557.40 1.255
557.50 1.255
557.60 1.255
557.70 1.256
557.80 1.256
557.90 1.256
558.00 1.257
558.10 1.257
558.20 1.257
558.30 1.258
558.40 1.258
558.50 1.258
558.60 1.259
558.70 1.259
558.80 1.26
558.90 1.26
559.00 1.26
559.10 1.261
559.20 1.261
559.30 1.261
559.40 1.262
559.50 1.262
559.60 1.262
559.70 1.263
559.80 1.263
559.90 1.263
560.00 1.264
560.10 1.264
560.20 1.264
560.30 1.265
560.40 1.265
560.50 1.265
560.60 1.266
560.70 1.266
560.80 1.266
560.90 1.267
561.00 1.267
561.10 1.268
561.20 1.268
561.30 1.268
561.40 1.269
561.50 1.269
561.60 1.269
561.70 1.27
561.80 1.27
561.90 1.27
562.00 1.271
562.10 1.271
562.20 1.271
562.30 1.272
562.40 1.272
562.50 1.272
562.60 1.273
562.70 1.273
562.80 1.273
562.90 1.274
563.00 1.274
563.10 1.274
563.20 1.275
563.30 1.275
563.40 1.275
563.50 1.276
563.60 1.276
563.70 1.276
563.80 1.277
563.90 1.277
564.00 1.277
564.10 1.278
564.20 1.278
564.30 1.278
564.40 1.279
564.50 1.279
564.60 1.279
564.70 1.28
564.80 1.28
564.90 1.28
565.00 1.281
565.10 1.281
565.20 1.281
565.30 1.282
565.40 1.282
565.50 1.282
565.60 1.283
565.70 1.283
565.80 1.283
565.90 1.284
566.00 1.284
566.10 1.284
566.20 1.284
566.30 1.285
566.40 1.285
566.50 1.285
566.60 1.286
566.70 1.286
566.80 1.286
566.90 1.287
567.00 1.287
567.10 1.287
567.20 1.288
567.30 1.288
567.40 1.288
567.50 1.289
567.60 1.289
567.70 1.289
567.80 1.29
567.90 1.29
568.00 1.29
568.10 1.291
568.20 1.291
568.30 1.291
568.40 1.291
568.50 1.292
568.60 1.292
568.70 1.292
568.80 1.293
568.90 1.293
569.00 1.293
569.10 1.294
569.20 1.294
569.30 1.294
569.40 1.294
569.50 1.295
569.60 1.295
569.70 1.295
569.80 1.296
569.90 1.296
570.00 1.296
570.10 1.297
570.20 1.297
570.30 1.297
570.40 1.297
570.50 1.298
570.60 1.298
570.70 1.298
570.80 1.299
570.90 1.299
571.00 1.299
571.10 1.3
571.20 1.3
571.30 1.3
571.40 1.3
571.50 1.301
571.60 1.301
571.70 1.301
571.80 1.302
571.90 1.302
572.00 1.302
572.10 1.303
572.20 1.303
572.30 1.303
572.40 1.303
572.50 1.304
572.60 1.304
572.70 1.304
572.80 1.305
572.90 1.305
573.00 1.305
573.10 1.305
573.20 1.306
573.30 1.306
573.40 1.306
573.50 1.307
573.60 1.307
573.70 1.307
573.80 1.307
573.90 1.308
574.00 1.308
574.10 1.308
574.20 1.309
574.30 1.309
574.40 1.309
574.50 1.309
574.60 1.31
574.70 1.31
574.80 1.31
574.90 1.31
575.00 1.311
575.10 1.311
575.20 1.311
575.30 1.312
575.40 1.312
575.50 1.312
575.60 1.312
575.70 1.313
575.80 1.313
575.90 1.313
576.00 1.313
576.10 1.314
576.20 1.314
576.30 1.314
576.40 1.315
576.50 1.315
576.60 1.315
576.70 1.315
576.80 1.316
576.90 1.316
577.00 1.316
577.10 1.316
577.20 1.317
577.30 1.317
577.40 1.317
577.50 1.317
577.60 1.318
577.70 1.318
577.80 1.318
577.90 1.319
578.00 1.319
578.10 1.319
578.20 1.319
578.30 1.32
578.40 1.32
578.50 1.32
578.60 1.32
578.70 1.321
578.80 1.321
578.90 1.321
579.00 1.321
579.10 1.322
579.20 1.322
579.30 1.322
579.40 1.322
579.50 1.323
579.60 1.323
579.70 1.323
579.80 1.323
579.90 1.324
580.00 1.324
580.10 1.324
580.20 1.324
580.30 1.325
580.40 1.325
580.50 1.325
580.60 1.325
580.70 1.326
580.80 1.326
580.90 1.326
581.00 1.326
581.10 1.327
581.20 1.327
581.30 1.327
581.40 1.327
581.50 1.327
581.60 1.328
581.70 1.328
581.80 1.328
581.90 1.328
582.00 1.329
582.10 1.329
582.20 1.329
582.30 1.329
582.40 1.33
582.50 1.33
582.60 1.33
582.70 1.33
582.80 1.331
582.90 1.331
583.00 1.331
583.10 1.331
583.20 1.331
583.30 1.332
583.40 1.332
583.50 1.332
583.60 1.332
583.70 1.333
583.80 1.333
583.90 1.333
584.00 1.333
584.10 1.333
584.20 1.334
584.30 1.334
584.40 1.334
584.50 1.334
584.60 1.335
584.70 1.335
584.80 1.335
584.90 1.335
585.00 1.335
585.10 1.336
585.20 1.336
585.30 1.336
585.40 1.336
585.50 1.336
585.60 1.337
585.70 1.337
585.80 1.337
585.90 1.337
586.00 1.337
586.10 1.338
586.20 1.338
586.30 1.338
586.40 1.338
586.50 1.339
586.60 1.339
586.70 1.339
586.80 1.339
586.90 1.339
587.00 1.34
587.10 1.34
587.20 1.34
587.30 1.34
587.40 1.34
587.50 1.34
587.60 1.341
587.70 1.341
587.80 1.341
587.90 1.341
588.00 1.341
588.10 1.342
588.20 1.342
588.30 1.342
588.40 1.342
588.50 1.342
588.60 1.343
588.70 1.343
588.80 1.343
588.90 1.343
589.00 1.343
589.10 1.344
589.20 1.344
589.30 1.344
589.40 1.344
589.50 1.344
589.60 1.344
589.70 1.345
589.80 1.345
589.90 1.345
590.00 1.345
590.10 1.345
590.20 1.346
590.30 1.346
590.40 1.346
590.50 1.346
590.60 1.346
590.70 1.346
590.80 1.347
590.90 1.347
591.00 1.347
591.10 1.347
591.20 1.347
591.30 1.347
591.40 1.348
591.50 1.348
591.60 1.348
591.70 1.348
591.80 1.348
591.90 1.348
592.00 1.349
592.10 1.349
592.20 1.349
592.30 1.349
592.40 1.349
592.50 1.349
592.60 1.35
592.70 1.35
592.80 1.35
592.90 1.35
593.00 1.35
593.10 1.35
593.20 1.35
593.30 1.351
593.40 1.351
593.50 1.351
593.60 1.351
593.70 1.351
593.80 1.351
593.90 1.352
594.00 1.352
594.10 1.352
594.20 1.352
594.30 1.352
594.40 1.352
594.50 1.352
594.60 1.353
594.70 1.353
594.80 1.353
594.90 1.353
595.00 1.353
595.10 1.353
595.20 1.353
595.30 1.354
595.40 1.354
595.50 1.354
595.60 1.354
595.70 1.354
595.80 1.354
595.90 1.354
596.00 1.355
596.10 1.355
596.20 1.355
596.30 1.355
596.40 1.355
596.50 1.355
596.60 1.355
596.70 1.355
596.80 1.356
596.90 1.356
597.00 1.356
597.10 1.356
597.20 1.356
597.30 1.356
597.40 1.356
597.50 1.357
597.60 1.357
597.70 1.357
597.80 1.357
597.90 1.357
598.00 1.357
598.10 1.357
598.20 1.357
598.30 1.357
598.40 1.358
598.50 1.358
598.60 1.358
598.70 1.358
598.80 1.358
598.90 1.358
599.00 1.358
599.10 1.358
599.20 1.358
599.30 1.359
599.40 1.359
599.50 1.359
599.60 1.359
599.70 1.359
599.80 1.359
599.90 1.359
600.00 1.359
600.10 1.359
600.20 1.36
600.30 1.36
600.40 1.36
600.50 1.36
600.60 1.36
600.70 1.36
600.80 1.36
600.90 1.36
601.00 1.36
601.10 1.36
601.20 1.361
601.30 1.361
601.40 1.361
601.50 1.361
601.60 1.361
601.70 1.361
601.80 1.361
601.90 1.361
602.00 1.361
602.10 1.361
602.20 1.361
602.30 1.361
602.40 1.362
602.50 1.362
602.60 1.362
602.70 1.362
602.80 1.362
602.90 1.362
603.00 1.362
603.10 1.362
603.20 1.362
603.30 1.362
603.40 1.362
603.50 1.362
603.60 1.362
603.70 1.363
603.80 1.363
603.90 1.363
604.00 1.363
604.10 1.363
604.20 1.363
604.30 1.363
604.40 1.363
604.50 1.363
604.60 1.363
604.70 1.363
604.80 1.363
604.90 1.363
605.00 1.363
605.10 1.363
605.20 1.364
605.30 1.364
605.40 1.364
605.50 1.364
605.60 1.364
605.70 1.364
605.80 1.364
605.90 1.364
606.00 1.364
606.10 1.364
606.20 1.364
606.30 1.364
606.40 1.364
606.50 1.364
606.60 1.364
606.70 1.364
606.80 1.364
606.90 1.364
607.00 1.364
607.10 1.364
607.20 1.364
607.30 1.364
607.40 1.365
607.50 1.365
607.60 1.365
607.70 1.365
607.80 1.365
607.90 1.365
608.00 1.365
608.10 1.365
608.20 1.365
608.30 1.365
608.40 1.365
608.50 1.365
608.60 1.365
608.70 1.365
608.80 1.365
608.90 1.365
609.00 1.365
609.10 1.365
609.20 1.365
609.30 1.365
609.40 1.365
609.50 1.365
609.60 1.365
609.70 1.365
609.80 1.365
609.90 1.365
610.00 1.365
610.10 1.365
610.20 1.365
610.30 1.365
610.40 1.365
610.50 1.365
610.60 1.365
610.70 1.365
610.80 1.365
610.90 1.365
611.00 1.365
611.10 1.365
611.20 1.365
611.30 1.365
611.40 1.365
611.50 1.365
611.60 1.365
611.70 1.365
611.80 1.365
611.90 1.365
612.00 1.365
612.10 1.365
612.20 1.365
612.30 1.365
612.40 1.365
612.50 1.365
612.60 1.365
612.70 1.365
612.80 1.365
612.90 1.365
613.00 1.365
613.10 1.365
613.20 1.365
613.30 1.365
613.40 1.365
613.50 1.365
613.60 1.365
613.70 1.365
613.80 1.365
613.90 1.365
614.00 1.365
614.10 1.365
614.20 1.365
614.30 1.365
614.40 1.365
614.50 1.365
614.60 1.365
614.70 1.365
614.80 1.364
614.90 1.364
615.00 1.364
615.10 1.364
615.20 1.364
615.30 1.364
615.40 1.364
615.50 1.364
615.60 1.364
615.70 1.364
615.80 1.364
615.90 1.364
616.00 1.364
616.10 1.364
616.20 1.364
616.30 1.364
616.40 1.364
616.50 1.364
616.60 1.364
616.70 1.363
616.80 1.363
616.90 1.363
617.00 1.363
617.10 1.363
617.20 1.363
617.30 1.363
617.40 1.363
617.50 1.363
617.60 1.363
617.70 1.363
617.80 1.363
617.90 1.363
618.00 1.363
618.10 1.363
618.20 1.362
618.30 1.362
618.40 1.362
618.50 1.362
618.60 1.362
618.70 1.362
618.80 1.362
618.90 1.362
619.00 1.362
619.10 1.362
619.20 1.362
619.30 1.361
619.40 1.361
619.50 1.361
619.60 1.361
619.70 1.361
619.80 1.361
619.90 1.361
620.00 1.361
620.10 1.361
620.20 1.361
620.30 1.36
620.40 1.36
620.50 1.36
620.60 1.36
620.70 1.36
620.80 1.36
620.90 1.36
621.00 1.36
621.10 1.36
621.20 1.359
621.30 1.359
621.40 1.359
621.50 1.359
621.60 1.359
621.70 1.359
621.80 1.359
621.90 1.359
622.00 1.359
622.10 1.358
622.20 1.358
622.30 1.358
622.40 1.358
622.50 1.358
622.60 1.358
622.70 1.358
622.80 1.358
622.90 1.357
623.00 1.357
623.10 1.357
623.20 1.357
623.30 1.357
623.40 1.357
623.50 1.357
623.60 1.356
623.70 1.356
623.80 1.356
623.90 1.356
624.00 1.356
624.10 1.356
624.20 1.356
624.30 1.355
624.40 1.355
624.50 1.355
624.60 1.355
624.70 1.355
624.80 1.355
624.90 1.354
625.00 1.354
625.10 1.354
625.20 1.354
625.30 1.354
625.40 1.354
625.50 1.354
625.60 1.353
625.70 1.353
625.80 1.353
625.90 1.353
626.00 1.353
626.10 1.353
626.20 1.352
626.30 1.352
626.40 1.352
626.50 1.352
626.60 1.352
626.70 1.351
626.80 1.351
626.90 1.351
627.00 1.351
627.10 1.351
627.20 1.351
627.30 1.35
627.40 1.35
627.50 1.35
627.60 1.35
627.70 1.35
627.80 1.349
627.90 1.349
628.00 1.349
628.10 1.349
628.20 1.349
628.30 1.348
628.40 1.348
628.50 1.348
628.60 1.348
628.70 1.348
628.80 1.347
628.90 1.347
629.00 1.347
629.10 1.347
629.20 1.347
629.30 1.346
629.40 1.346
629.50 1.346
629.60 1.346
629.70 1.345
629.80 1.345
629.90 1.345
630.00 1.345
630.10 1.345
630.20 1.344
630.30 1.344
630.40 1.344
630.50 1.344
630.60 1.343
630.70 1.343
630.80 1.343
630.90 1.343
631.00 1.343
631.10 1.342
631.20 1.342
631.30 1.342
631.40 1.342
631.50 1.341
631.60 1.341
631.70 1.341
631.80 1.341
631.90 1.34
632.00 1.34
632.10 1.34
632.20 1.34
632.30 1.339
632.40 1.339
632.50 1.339
632.60 1.339
632.70 1.338
632.80 1.338
632.90 1.338
633.00 1.338
633.10 1.337
633.20 1.337
633.30 1.337
633.40 1.336
633.50 1.336
633.60 1.336
633.70 1.336
633.80 1.335
633.90 1.335
634.00 1.335
634.10 1.335
634.20 1.334
634.30 1.334
634.40 1.334
634.50 1.333
634.60 1.333
634.70 1.333
634.80 1.333
634.90 1.332
635.00 1.332
635.10 1.332
635.20 1.331
635.30 1.331
635.40 1.331
635.50 1.33
635.60 1.33
635.70 1.33
635.80 1.33
635.90 1.329
636.00 1.329
636.10 1.329
636.20 1.328
636.30 1.328
636.40 1.328
636.50 1.327
636.60 1.327
636.70 1.327
636.80 1.326
636.90 1.326
637.00 1.326
637.10 1.325
637.20 1.325
637.30 1.325
637.40 1.325
637.50 1.324
637.60 1.324
637.70 1.324
637.80 1.323
637.90 1.323
638.00 1.323
638.10 1.322
638.20 1.322
638.30 1.322
638.40 1.321
638.50 1.321
638.60 1.321
638.70 1.32
638.80 1.32
638.90 1.32
639.00 1.319
639.10 1.319
639.20 1.318
639.30 1.318
639.40 1.318
639.50 1.317
639.60 1.317
639.70 1.317
639.80 1.316
639.90 1.316
640.00 1.316
640.10 1.315
640.20 1.315
640.30 1.315
640.40 1.314
640.50 1.314
640.60 1.313
640.70 1.313
640.80 1.313
640.90 1.312
641.00 1.312
641.10 1.311
641.20 1.311
641.30 1.311
641.40 1.31
641.50 1.31
641.60 1.31
641.70 1.309
641.80 1.309
641.90 1.308
642.00 1.308
642.10 1.308
642.20 1.307
642.30 1.307
642.40 1.306
642.50 1.306
642.60 1.305
642.70 1.305
642.80 1.305
642.90 1.304
643.00 1.304
643.10 1.303
643.20 1.303
643.30 1.303
643.40 1.302
643.50 1.302
643.60 1.301
643.70 1.301
643.80 1.3
643.90 1.3
644.00 1.3
644.10 1.299
644.20 1.299
644.30 1.298
644.40 1.298
644.50 1.297
644.60 1.297
644.70 1.296
644.80 1.296
644.90 1.296
645.00 1.295
645.10 1.295
645.20 1.294
645.30 1.294
645.40 1.293
645.50 1.293
645.60 1.292
645.70 1.292
645.80 1.291
645.90 1.291
646.00 1.291
646.10 1.29
646.20 1.29
646.30 1.289
646.40 1.289
646.50 1.288
646.60 1.288
646.70 1.287
646.80 1.287
646.90 1.286
647.00 1.286
647.10 1.285
647.20 1.285
647.30 1.284
647.40 1.284
647.50 1.284
647.60 1.283
647.70 1.283
647.80 1.282
647.90 1.282
648.00 1.281
648.10 1.281
648.20 1.28
648.30 1.28
648.40 1.279
648.50 1.279
648.60 1.278
648.70 1.278
648.80 1.277
648.90 1.277
649.00 1.276
649.10 1.276
649.20 1.275
649.30 1.275
649.40 1.274
649.50 1.273
649.60 1.273
649.70 1.272
649.80 1.272
649.90 1.271
650.00 1.271
650.10 1.27
650.20 1.27
650.30 1.269
650.40 1.269
650.50 1.268
650.60 1.268
650.70 1.267
650.80 1.267
650.90 1.266
651.00 1.265
651.10 1.265
651.20 1.264
651.30 1.264
651.40 1.263
651.50 1.263
651.60 1.262
651.70 1.262
651.80 1.261
651.90 1.261
652.00 1.26
652.10 1.259
652.20 1.259
652.30 1.258
652.40 1.258
652.50 1.257
652.60 1.257
652.70 1.256
652.80 1.255
652.90 1.255
653.00 1.254
653.10 1.254
653.20 1.253
653.30 1.253
653.40 1.252
653.50 1.251
653.60 1.251
653.70 1.25
653.80 1.25
653.90 1.249
654.00 1.248
654.10 1.248
654.20 1.247
654.30 1.247
654.40 1.246
654.50 1.245
654.60 1.245
654.70 1.244
654.80 1.244
654.90 1.243
655.00 1.242
655.10 1.242
655.20 1.241
655.30 1.241
655.40 1.24
655.50 1.239
655.60 1.239
655.70 1.238
655.80 1.237
655.90 1.237
656.00 1.236
656.10 1.236
656.20 1.235
656.30 1.234
656.40 1.234
656.50 1.233
656.60 1.232
656.70 1.232
656.80 1.231
656.90 1.23
657.00 1.23
657.10 1.229
657.20 1.229
657.30 1.228
657.40 1.227
657.50 1.227
657.60 1.226
657.70 1.225
657.80 1.225
657.90 1.224
658.00 1.223
658.10 1.223
658.20 1.222
658.30 1.221
658.40 1.221
658.50 1.22
658.60 1.219
658.70 1.219
658.80 1.218
658.90 1.217
659.00 1.217
659.10 1.216
659.20 1.215
659.30 1.215
659.40 1.214
659.50 1.213
659.60 1.212
659.70 1.212
659.80 1.211
659.90 1.21
660.00 1.21
660.10 1.209
660.20 1.208
660.30 1.208
660.40 1.207
660.50 1.206
660.60 1.206
660.70 1.205
660.80 1.204
660.90 1.203
661.00 1.203
661.10 1.202
661.20 1.201
661.30 1.201
661.40 1.2
661.50 1.199
661.60 1.198
661.70 1.198
661.80 1.197
661.90 1.196
662.00 1.196
662.10 1.195
662.20 1.194
662.30 1.193
662.40 1.193
662.50 1.192
662.60 1.191
662.70 1.19
662.80 1.19
662.90 1.189
663.00 1.188
663.10 1.187
663.20 1.187
663.30 1.186
663.40 1.185
663.50 1.184
663.60 1.184
663.70 1.183
663.80 1.182
663.90 1.181
664.00 1.181
664.10 1.18
664.20 1.179
664.30 1.178
664.40 1.178
664.50 1.177
664.60 1.176
664.70 1.175
664.80 1.174
664.90 1.174
665.00 1.173
665.10 1.172
665.20 1.171
665.30 1.171
665.40 1.17
665.50 1.169
665.60 1.168
665.70 1.167
665.80 1.167
665.90 1.166
666.00 1.165
666.10 1.164
666.20 1.163
666.30 1.163
666.40 1.162
666.50 1.161
666.60 1.16
666.70 1.159
666.80 1.159
666.90 1.158
667.00 1.157
667.10 1.156
667.20 1.155
667.30 1.154
667.40 1.154
667.50 1.153
667.60 1.152
667.70 1.151
667.80 1.15
667.90 1.149
668.00 1.149
668.10 1.148
668.20 1.147
668.30 1.146
668.40 1.145
668.50 1.144
668.60 1.144
668.70 1.143
668.80 1.142
668.90 1.141
669.00 1.14
669.10 1.139
669.20 1.139
669.30 1.138
669.40 1.137
669.50 1.136
669.60 1.135
669.70 1.134
669.80 1.133
669.90 1.132
670.00 1.132
670.10 1.131
670.20 1.13
670.30 1.129
670.40 1.128
670.50 1.127
670.60 1.126
670.70 1.125
670.80 1.125
670.90 1.124
671.00 1.123
671.10 1.122
671.20 1.121
671.30 1.12
671.40 1.119
671.50 1.118
671.60 1.118
671.70 1.117
671.80 1.116
671.90 1.115
672.00 1.114
672.10 1.113
672.20 1.112
672.30 1.111
672.40 1.11
672.50 1.109
672.60 1.108
672.70 1.108
672.80 1.107
672.90 1.106
673.00 1.105
673.10 1.104
673.20 1.103
673.30 1.102
673.40 1.101
673.50 1.1
673.60 1.099
673.70 1.098
673.80 1.097
673.90 1.096
674.00 1.096
674.10 1.095
674.20 1.094
674.30 1.093
674.40 1.092
674.50 1.091
674.60 1.09
674.70 1.089
674.80 1.088
674.90 1.087
675.00 1.086
675.10 1.085
675.20 1.084
675.30 1.083
675.40 1.082
675.50 1.081
675.60 1.08
675.70 1.079
675.80 1.078
675.90 1.078
676.00 1.077
676.10 1.076
676.20 1.075
676.30 1.074
676.40 1.073
676.50 1.072
676.60 1.071
676.70 1.07
676.80 1.069
676.90 1.068
677.00 1.067
677.10 1.066
677.20 1.065
677.30 1.064
677.40 1.063
677.50 1.062
677.60 1.061
677.70 1.06
677.80 1.059
677.90 1.058
678.00 1.057
678.10 1.056
678.20 1.055
678.30 1.054
678.40 1.053
678.50 1.052
678.60 1.051
678.70 1.05
678.80 1.049
678.90 1.048
679.00 1.047
679.10 1.046
679.20 1.045
679.30 1.044
679.40 1.043
679.50 1.042
679.60 1.041
679.70 1.04
679.80 1.039
679.90 1.038
680.00 1.037
680.10 1.036
680.20 1.035
680.30 1.034
680.40 1.033
680.50 1.032
680.60 1.031
680.70 1.03
680.80 1.029
680.90 1.027
681.00 1.026
681.10 1.025
681.20 1.024
681.30 1.023
681.40 1.022
681.50 1.021
681.60 1.02
681.70 1.019
681.80 1.018
681.90 1.017
682.00 1.016
682.10 1.015
682.20 1.014
682.30 1.013
682.40 1.012
682.50 1.011
682.60 1.01
682.70 1.009
682.80 1.007
682.90 1.006
683.00 1.005
683.10 1.004
683.20 1.003
683.30 1.002
683.40 1.001
683.50 1
683.60 0.9989
683.70 0.9978
683.80 0.9968
683.90 0.9957
684.00 0.9946
684.10 0.9935
684.20 0.9924
684.30 0.9914
684.40 0.9903
684.50 0.9892
684.60 0.9881
684.70 0.987
684.80 0.9859
684.90 0.9848
685.00 0.9837
685.10 0.9826
685.20 0.9815
685.30 0.9804
685.40 0.9793
685.50 0.9782
685.60 0.9771
685.70 0.976
685.80 0.9749
685.90 0.9738
686.00 0.9727
686.10 0.9716
686.20 0.9705
686.30 0.9694
686.40 0.9683
686.50 0.9672
686.60 0.9661
686.70 0.965
686.80 0.9638
686.90 0.9627
687.00 0.9616
687.10 0.9605
687.20 0.9594
687.30 0.9583
687.40 0.9571
687.50 0.956
687.60 0.9549
687.70 0.9538
687.80 0.9526
687.90 0.9515
688.00 0.9504
688.10 0.9493
688.20 0.9481
688.30 0.947
688.40 0.9459
688.50 0.9447
688.60 0.9436
688.70 0.9425
688.80 0.9413
688.90 0.9402
689.00 0.9391
689.10 0.9379
689.20 0.9368
689.30 0.9356
689.40 0.9345
689.50 0.9333
689.60 0.9321
689.70 0.9309
689.80 0.9297
689.90 0.9286
690.00 0.9274
690.10 0.9262
690.20 0.925
690.30 0.9238
690.40 0.9227
690.50 0.9215
690.60 0.9203
690.70 0.9191
690.80 0.918
690.90 0.9168
691.00 0.9156
691.10 0.9145
691.20 0.9133
691.30 0.9121
691.40 0.9109
691.50 0.9098
691.60 0.9086
691.70 0.9074
691.80 0.9063
691.90 0.9051
692.00 0.9039
692.10 0.9028
692.20 0.9016
692.30 0.9005
692.40 0.8993
692.50 0.8981
692.60 0.897
692.70 0.8958
692.80 0.8946
692.90 0.8935
693.00 0.8923
693.10 0.8912
693.20 0.89
693.30 0.8888
693.40 0.8877
693.50 0.8865
693.60 0.8854
693.70 0.8842
693.80 0.8831
693.90 0.8819
694.00 0.8808
694.10 0.8796
694.20 0.8785
694.30 0.8773
694.40 0.8762
694.50 0.875
694.60 0.8739
694.70 0.8727
694.80 0.8716
694.90 0.8704
695.00 0.8693
695.10 0.8681
695.20 0.8669
695.30 0.8657
695.40 0.8645
695.50 0.8633
695.60 0.8621
695.70 0.8609
695.80 0.8598
695.90 0.8586
696.00 0.8574
696.10 0.8562
696.20 0.855
696.30 0.8538
696.40 0.8526
696.50 0.8515
696.60 0.8503
696.70 0.8491
696.80 0.8479
696.90 0.8467
697.00 0.8456
697.10 0.8444
697.20 0.8432
697.30 0.842
697.40 0.8408
697.50 0.8397
697.60 0.8385
697.70 0.8373
697.80 0.8361
697.90 0.835
698.00 0.8338
698.10 0.8326
698.20 0.8315
698.30 0.8303
698.40 0.8291
698.50 0.8279
698.60 0.8268
698.70 0.8256
698.80 0.8244
698.90 0.8233
699.00 0.8221
699.10 0.8209
699.20 0.8198
699.30 0.8186
699.40 0.8175
699.50 0.8163
699.60 0.8151
699.70 0.814
699.80 0.8128
699.90 0.8116
700.00 0.8105
700.10 0.8093
700.20 0.8081
700.30 0.8069
700.40 0.8057
700.50 0.8046
700.60 0.8034
700.70 0.8022
700.80 0.801
700.90 0.7998
701.00 0.7987
701.10 0.7975
701.20 0.7963
701.30 0.7951
701.40 0.794
701.50 0.7928
701.60 0.7916
701.70 0.7904
701.80 0.7893
701.90 0.7881
702.00 0.7869
702.10 0.7857
702.20 0.7846
702.30 0.7834
702.40 0.7822
702.50 0.7811
702.60 0.7799
702.70 0.7787
702.80 0.7775
702.90 0.7764
703.00 0.7752
703.10 0.7741
703.20 0.7729
703.30 0.7717
703.40 0.7706
703.50 0.7694
703.60 0.7682
703.70 0.7671
703.80 0.7659
703.90 0.7647
704.00 0.7636
704.10 0.7624
704.20 0.7613
704.30 0.7601
704.40 0.759
704.50 0.7578
704.60 0.7566
704.70 0.7555
704.80 0.7543
704.90 0.7532
705.00 0.752
705.10 0.7509
705.20 0.7497
705.30 0.7486
705.40 0.7475
705.50 0.7463
705.60 0.7452
705.70 0.7441
705.80 0.7429
705.90 0.7418
706.00 0.7407
706.10 0.7395
706.20 0.7384
706.30 0.7373
706.40 0.7361
706.50 0.735
706.60 0.7339
706.70 0.7327
706.80 0.7316
706.90 0.7305
707.00 0.7294
707.10 0.7282
707.20 0.7271
707.30 0.726
707.40 0.7248
707.50 0.7237
707.60 0.7226
707.70 0.7215
707.80 0.7204
707.90 0.7192
708.00 0.7181
708.10 0.717
708.20 0.7159
708.30 0.7147
708.40 0.7136
708.50 0.7125
708.60 0.7114
708.70 0.7103
708.80 0.7092
708.90 0.708
709.00 0.7069
709.10 0.7058
709.20 0.7047
709.30 0.7036
709.40 0.7025
709.50 0.7014
709.60 0.7002
709.70 0.6991
709.80 0.698
709.90 0.6969
710.00 0.6958
710.10 0.6947
710.20 0.6937
710.30 0.6926
710.40 0.6915
710.50 0.6904
710.60 0.6894
710.70 0.6883
710.80 0.6872
710.90 0.6862
711.00 0.6851
711.10 0.684
711.20 0.6829
711.30 0.6819
711.40 0.6808
711.50 0.6797
711.60 0.6787
711.70 0.6776
711.80 0.6765
711.90 0.6755
712.00 0.6744
712.10 0.6734
712.20 0.6723
712.30 0.6712
712.40 0.6702
712.50 0.6691
712.60 0.6681
712.70 0.667
712.80 0.6659
712.90 0.6649
713.00 0.6638
713.10 0.6628
713.20 0.6617
713.30 0.6606
713.40 0.6596
713.50 0.6585
713.60 0.6575
713.70 0.6564
713.80 0.6554
713.90 0.6543
714.00 0.6533
714.10 0.6522
714.20 0.6512
714.30 0.6501
714.40 0.6491
714.50 0.648
714.60 0.647
714.70 0.6459
714.80 0.6449
714.90 0.6438
715.00 0.6428
715.10 0.6418
715.20 0.6408
715.30 0.6398
715.40 0.6388
715.50 0.6378
715.60 0.6368
715.70 0.6358
715.80 0.6348
715.90 0.6339
716.00 0.6329
716.10 0.6319
716.20 0.6309
716.30 0.6299
716.40 0.6289
716.50 0.6279
716.60 0.627
716.70 0.626
716.80 0.625
716.90 0.624
717.00 0.623
717.10 0.622
717.20 0.6211
717.30 0.6201
717.40 0.6191
717.50 0.6181
717.60 0.6171
717.70 0.6161
717.80 0.6152
717.90 0.6142
718.00 0.6132
718.10 0.6122
718.20 0.6113
718.30 0.6103
718.40 0.6093
718.50 0.6083
718.60 0.6074
718.70 0.6064
718.80 0.6054
718.90 0.6044
719.00 0.6035
719.10 0.6025
719.20 0.6015
719.30 0.6005
719.40 0.5996
719.50 0.5986
719.60 0.5976
719.70 0.5967
719.80 0.5957
719.90 0.5947
720.00 0.5938
720.10 0.5929
720.20 0.592
720.30 0.5911
720.40 0.5902
720.50 0.5893
720.60 0.5885
720.70 0.5876
720.80 0.5867
720.90 0.5858
721.00 0.5849
721.10 0.5841
721.20 0.5832
721.30 0.5823
721.40 0.5814
721.50 0.5805
721.60 0.5797
721.70 0.5788
721.80 0.5779
721.90 0.577
722.00 0.5762
722.10 0.5753
722.20 0.5744
722.30 0.5735
722.40 0.5727
722.50 0.5718
722.60 0.5709
722.70 0.57
722.80 0.5692
722.90 0.5683
723.00 0.5674
723.10 0.5665
723.20 0.5657
723.30 0.5648
723.40 0.5639
723.50 0.5631
723.60 0.5622
723.70 0.5613
723.80 0.5605
723.90 0.5596
724.00 0.5587
724.10 0.5579
724.20 0.557
724.30 0.5561
724.40 0.5553
724.50 0.5544
724.60 0.5535
724.70 0.5527
724.80 0.5518
724.90 0.5509
725.00 0.5501
725.10 0.5493
725.20 0.5485
725.30 0.5478
725.40 0.547
725.50 0.5462
725.60 0.5455
725.70 0.5447
725.80 0.5439
725.90 0.5432
726.00 0.5424
726.10 0.5416
726.20 0.5409
726.30 0.5401
726.40 0.5393
726.50 0.5386
726.60 0.5378
726.70 0.537
726.80 0.5363
726.90 0.5355
727.00 0.5347
727.10 0.534
727.20 0.5332
727.30 0.5325
727.40 0.5317
727.50 0.5309
727.60 0.5302
727.70 0.5294
727.80 0.5287
727.90 0.5279
728.00 0.5271
728.10 0.5264
728.20 0.5256
728.30 0.5249
728.40 0.5241
728.50 0.5233
728.60 0.5226
728.70 0.5218
728.80 0.5211
728.90 0.5203
729.00 0.5196
729.10 0.5188
729.20 0.5181
729.30 0.5173
729.40 0.5166
729.50 0.5158
729.60 0.515
729.70 0.5143
729.80 0.5135
729.90 0.5128
730.00 0.512
730.10 0.5114
730.20 0.5109
730.30 0.5103
730.40 0.5097
730.50 0.5091
730.60 0.5085
730.70 0.5079
730.80 0.5074
730.90 0.5068
731.00 0.5062
731.10 0.5056
731.20 0.505
731.30 0.5044
731.40 0.5039
731.50 0.5033
731.60 0.5027
731.70 0.5021
731.80 0.5015
731.90 0.5009
732.00 0.5004
732.10 0.4998
732.20 0.4992
732.30 0.4986
732.40 0.498
732.50 0.4975
732.60 0.4969
732.70 0.4963
732.80 0.4957
732.90 0.4951
733.00 0.4946
733.10 0.494
733.20 0.4934
733.30 0.4928
733.40 0.4923
733.50 0.4917
733.60 0.4911
733.70 0.4905
733.80 0.49
733.90 0.4894
734.00 0.4888
734.10 0.4882
734.20 0.4877
734.30 0.4871
734.40 0.4865
734.50 0.4859
734.60 0.4854
734.70 0.4848
734.80 0.4842
734.90 0.4836
735.00 0.4831
735.10 0.4825
735.20 0.4819
735.30 0.4814
735.40 0.4808
735.50 0.4802
735.60 0.4797
735.70 0.4791
735.80 0.4785
735.90 0.4779
736.00 0.4774
736.10 0.4768
736.20 0.4762
736.30 0.4757
736.40 0.4751
736.50 0.4745
736.60 0.474
736.70 0.4734
736.80 0.4728
736.90 0.4723
737.00 0.4717
737.10 0.4711
737.20 0.4706
737.30 0.47
737.40 0.4694
737.50 0.4689
737.60 0.4683
737.70 0.4677
737.80 0.4672
737.90 0.4666
738.00 0.4661
738.10 0.4655
738.20 0.4649
738.30 0.4644
738.40 0.4638
738.50 0.4632
738.60 0.4627
738.70 0.4621
738.80 0.4616
738.90 0.461
739.00 0.4604
739.10 0.4599
739.20 0.4593
739.30 0.4588
739.40 0.4582
739.50 0.4576
739.60 0.4571
739.70 0.4565
739.80 0.456
739.90 0.4554
740.00 0.4549
740.10 0.4545
740.20 0.4541
740.30 0.4538
740.40 0.4534
740.50 0.453
740.60 0.4526
740.70 0.4523
740.80 0.4519
740.90 0.4515
741.00 0.4512
741.10 0.4508
741.20 0.4504
741.30 0.4501
741.40 0.4497
741.50 0.4494
741.60 0.449
741.70 0.4486
741.80 0.4483
741.90 0.4479
742.00 0.4475
742.10 0.4472
742.20 0.4468
742.30 0.4464
742.40 0.4461
742.50 0.4457
742.60 0.4453
742.70 0.445
742.80 0.4446
742.90 0.4442
743.00 0.4439
743.10 0.4435
743.20 0.4432
743.30 0.4428
743.40 0.4424
743.50 0.4421
743.60 0.4417
743.70 0.4414
743.80 0.441
743.90 0.4406
744.00 0.4403
744.10 0.4399
744.20 0.4395
744.30 0.4392
744.40 0.4388
744.50 0.4385
744.60 0.4381
744.70 0.4377
744.80 0.4374
744.90 0.437
745.00 0.4367
745.10 0.4363
745.20 0.4359
745.30 0.4356
745.40 0.4352
745.50 0.4349
745.60 0.4345
745.70 0.4342
745.80 0.4338
745.90 0.4334
746.00 0.4331
746.10 0.4327
746.20 0.4324
746.30 0.432
746.40 0.4317
746.50 0.4313
746.60 0.4309
746.70 0.4306
746.80 0.4302
746.90 0.4299
747.00 0.4295
747.10 0.4292
747.20 0.4288
747.30 0.4284
747.40 0.4281
747.50 0.4277
747.60 0.4274
747.70 0.427
747.80 0.4267
747.90 0.4263
748.00 0.426
748.10 0.4256
748.20 0.4253
748.30 0.4249
748.40 0.4245
748.50 0.4242
748.60 0.4238
748.70 0.4235
748.80 0.4231
748.90 0.4228
749.00 0.4224
749.10 0.4221
749.20 0.4217
749.30 0.4214
749.40 0.421
749.50 0.4207
749.60 0.4203
749.70 0.42
749.80 0.4196
749.90 0.4193
750.00 0.4189
750.10 0.4187
750.20 0.4184
750.30 0.4182
750.40 0.4179
750.50 0.4177
750.60 0.4175
750.70 0.4172
750.80 0.417
750.90 0.4167
751.00 0.4165
751.10 0.4163
751.20 0.416
751.30 0.4158
751.40 0.4155
751.50 0.4153
751.60 0.4151
751.70 0.4148
751.80 0.4146
751.90 0.4143
752.00 0.4141
752.10 0.4139
752.20 0.4136
752.30 0.4134
752.40 0.4131
752.50 0.4129
752.60 0.4127
752.70 0.4124
752.80 0.4122
752.90 0.4119
753.00 0.4117
753.10 0.4115
753.20 0.4112
753.30 0.411
753.40 0.4108
753.50 0.4105
753.60 0.4103
753.70 0.41
753.80 0.4098
753.90 0.4096
754.00 0.4093
754.10 0.4091
754.20 0.4088
754.30 0.4086
754.40 0.4084
754.50 0.4081
754.60 0.4079
754.70 0.4077
754.80 0.4074
754.90 0.4072
755.00 0.407
755.10 0.4067
755.20 0.4065
755.30 0.4062
755.40 0.406
755.50 0.4058
755.60 0.4055
755.70 0.4053
755.80 0.4051
755.90 0.4048
756.00 0.4046
756.10 0.4044
756.20 0.4041
756.30 0.4039
756.40 0.4037
756.50 0.4034
756.60 0.4032
756.70 0.403
756.80 0.4027
756.90 0.4025
757.00 0.4022
757.10 0.402
757.20 0.4018
757.30 0.4015
757.40 0.4013
757.50 0.4011
757.60 0.4008
757.70 0.4006
757.80 0.4004
757.90 0.4001
758.00 0.3999
758.10 0.3997
758.20 0.3994
758.30 0.3992
758.40 0.399
758.50 0.3987
758.60 0.3985
758.70 0.3983
758.80 0.398
758.90 0.3978
759.00 0.3976
759.10 0.3974
759.20 0.3971
759.30 0.3969
759.40 0.3967
759.50 0.3964
759.60 0.3962
759.70 0.396
759.80 0.3957
759.90 0.3955
760.00 0.3953
760.10 0.3951
760.20 0.3949
760.30 0.3948
760.40 0.3946
760.50 0.3944
760.60 0.3942
760.70 0.3941
760.80 0.3939
760.90 0.3937
761.00 0.3936
761.10 0.3934
761.20 0.3932
761.30 0.3931
761.40 0.3929
761.50 0.3927
761.60 0.3925
761.70 0.3924
761.80 0.3922
761.90 0.392
762.00 0.3919
762.10 0.3917
762.20 0.3915
762.30 0.3914
762.40 0.3912
762.50 0.391
762.60 0.3909
762.70 0.3907
762.80 0.3905
762.90 0.3903
763.00 0.3902
763.10 0.39
763.20 0.3898
763.30 0.3897
763.40 0.3895
763.50 0.3893
763.60 0.3892
763.70 0.389
763.80 0.3888
763.90 0.3887
764.00 0.3885
764.10 0.3883
764.20 0.3882
764.30 0.388
764.40 0.3878
764.50 0.3877
764.60 0.3875
764.70 0.3873
764.80 0.3872
764.90 0.387
765.00 0.3868
765.10 0.3867
765.20 0.3865
765.30 0.3863
765.40 0.3862
765.50 0.386
765.60 0.3858
765.70 0.3857
765.80 0.3855
765.90 0.3853
766.00 0.3852
766.10 0.385
766.20 0.3848
766.30 0.3847
766.40 0.3845
766.50 0.3843
766.60 0.3842
766.70 0.384
766.80 0.3838
766.90 0.3837
767.00 0.3835
767.10 0.3833
767.20 0.3832
767.30 0.383
767.40 0.3828
767.50 0.3827
767.60 0.3825
767.70 0.3823
767.80 0.3822
767.90 0.382
768.00 0.3818
768.10 0.3817
768.20 0.3815
768.30 0.3813
768.40 0.3812
768.50 0.381
768.60 0.3808
768.70 0.3807
768.80 0.3805
768.90 0.3804
769.00 0.3802
769.10 0.38
769.20 0.3799
769.30 0.3797
769.40 0.3795
769.50 0.3794
769.60 0.3792
769.70 0.379
769.80 0.3789
769.90 0.3787
770.00 0.3786
770.10 0.3785
770.20 0.3784
770.30 0.3783
770.40 0.3782
770.50 0.3781
770.60 0.378
770.70 0.3779
770.80 0.3778
770.90 0.3778
771.00 0.3777
771.10 0.3776
771.20 0.3775
771.30 0.3774
771.40 0.3773
771.50 0.3772
771.60 0.3771
771.70 0.377
771.80 0.377
771.90 0.3769
772.00 0.3768
772.10 0.3767
772.20 0.3766
772.30 0.3765
772.40 0.3764
772.50 0.3763
772.60 0.3762
772.70 0.3762
772.80 0.3761
772.90 0.376
773.00 0.3759
773.10 0.3758
773.20 0.3757
773.30 0.3756
773.40 0.3755
773.50 0.3755
773.60 0.3754
773.70 0.3753
773.80 0.3752
773.90 0.3751
774.00 0.375
774.10 0.3749
774.20 0.3748
774.30 0.3748
774.40 0.3747
774.50 0.3746
774.60 0.3745
774.70 0.3744
774.80 0.3743
774.90 0.3742
775.00 0.3741
775.10 0.3741
775.20 0.374
775.30 0.3739
775.40 0.3738
775.50 0.3737
775.60 0.3736
775.70 0.3735
775.80 0.3734
775.90 0.3734
776.00 0.3733
776.10 0.3732
776.20 0.3731
776.30 0.373
776.40 0.3729
776.50 0.3728
776.60 0.3727
776.70 0.3727
776.80 0.3726
776.90 0.3725
777.00 0.3724
777.10 0.3723
777.20 0.3722
777.30 0.3721
777.40 0.3721
777.50 0.372
777.60 0.3719
777.70 0.3718
777.80 0.3717
777.90 0.3716
778.00 0.3715
778.10 0.3714
778.20 0.3714
778.30 0.3713
778.40 0.3712
778.50 0.3711
778.60 0.371
778.70 0.3709
778.80 0.3708
778.90 0.3708
779.00 0.3707
779.10 0.3706
779.20 0.3705
779.30 0.3704
779.40 0.3703
779.50 0.3702
779.60 0.3702
779.70 0.3701
779.80 0.37
779.90 0.3699
780.00 0.3698
780.10 0.3698
780.20 0.3698
780.30 0.3698
780.40 0.3698
780.50 0.3698
780.60 0.3698
780.70 0.3698
780.80 0.3699
780.90 0.3699
781.00 0.3699
781.10 0.3699
781.20 0.3699
781.30 0.3699
781.40 0.3699
781.50 0.3699
781.60 0.3699
781.70 0.3699
781.80 0.3699
781.90 0.3699
782.00 0.3699
782.10 0.3699
782.20 0.3699
782.30 0.3699
782.40 0.3699
782.50 0.3699
782.60 0.3699
782.70 0.3699
782.80 0.3699
782.90 0.3699
783.00 0.37
783.10 0.37
783.20 0.37
783.30 0.37
783.40 0.37
783.50 0.37
783.60 0.37
783.70 0.37
783.80 0.37
783.90 0.37
784.00 0.37
784.10 0.37
784.20 0.37
784.30 0.37
784.40 0.37
784.50 0.37
784.60 0.37
784.70 0.37
784.80 0.37
784.90 0.37
785.00 0.37
785.10 0.37
785.20 0.37
785.30 0.3701
785.40 0.3701
785.50 0.3701
785.60 0.3701
785.70 0.3701
785.80 0.3701
785.90 0.3701
786.00 0.3701
786.10 0.3701
786.20 0.3701
786.30 0.3701
786.40 0.3701
786.50 0.3701
786.60 0.3701
786.70 0.3701
786.80 0.3701
786.90 0.3701
787.00 0.3701
787.10 0.3701
787.20 0.3701
787.30 0.3701
787.40 0.3701
787.50 0.3701
787.60 0.3701
787.70 0.3701
787.80 0.3702
787.90 0.3702
788.00 0.3702
788.10 0.3702
788.20 0.3702
788.30 0.3702
788.40 0.3702
788.50 0.3702
788.60 0.3702
788.70 0.3702
788.80 0.3702
788.90 0.3702
789.00 0.3702
789.10 0.3702
789.20 0.3702
789.30 0.3702
789.40 0.3702
789.50 0.3702
789.60 0.3702
789.70 0.3702
789.80 0.3702
789.90 0.3702
790.00 0.3702
790.10 0.3703
790.20 0.3703
790.30 0.3704
790.40 0.3704
790.50 0.3704
790.60 0.3705
790.70 0.3705
790.80 0.3706
790.90 0.3706
791.00 0.3707
791.10 0.3707
791.20 0.3707
791.30 0.3708
791.40 0.3708
791.50 0.3709
791.60 0.3709
791.70 0.371
791.80 0.371
791.90 0.371
792.00 0.3711
792.10 0.3711
792.20 0.3712
792.30 0.3712
792.40 0.3713
792.50 0.3713
792.60 0.3713
792.70 0.3714
792.80 0.3714
792.90 0.3715
793.00 0.3715
793.10 0.3715
793.20 0.3716
793.30 0.3716
793.40 0.3717
793.50 0.3717
793.60 0.3718
793.70 0.3718
793.80 0.3718
793.90 0.3719
794.00 0.3719
794.10 0.372
794.20 0.372
794.30 0.372
794.40 0.3721
794.50 0.3721
794.60 0.3722
794.70 0.3722
794.80 0.3723
794.90 0.3723
795.00 0.3723
795.10 0.3724
795.20 0.3724
795.30 0.3725
795.40 0.3725
795.50 0.3725
795.60 0.3726
795.70 0.3726
795.80 0.3727
795.90 0.3727
796.00 0.3727
796.10 0.3728
796.20 0.3728
796.30 0.3729
796.40 0.3729
796.50 0.373
796.60 0.373
796.70 0.373
796.80 0.3731
796.90 0.3731
797.00 0.3732
797.10 0.3732
797.20 0.3732
797.30 0.3733
797.40 0.3733
797.50 0.3734
797.60 0.3734
797.70 0.3734
797.80 0.3735
797.90 0.3735
798.00 0.3736
798.10 0.3736
798.20 0.3736
798.30 0.3737
798.40 0.3737
798.50 0.3738
798.60 0.3738
798.70 0.3738
798.80 0.3739
798.90 0.3739
799.00 0.374
799.10 0.374
799.20 0.374
799.30 0.3741
799.40 0.3741
799.50 0.3742
799.60 0.3742
799.70 0.3742
799.80 0.3743
799.90 0.3743
800.00 0.3744
800.10 0.3744
800.20 0.3744
800.30 0.3744
800.40 0.3744
800.50 0.3744
800.60 0.3744
800.70 0.3744
800.80 0.3744
800.90 0.3744
801.00 0.3744
801.10 0.3744
801.20 0.3744
801.30 0.3744
801.40 0.3744
801.50 0.3744
801.60 0.3744
801.70 0.3744
801.80 0.3744
801.90 0.3744
802.00 0.3744
802.10 0.3744
802.20 0.3744
802.30 0.3744
802.40 0.3744
802.50 0.3744
802.60 0.3744
802.70 0.3744
802.80 0.3744
802.90 0.3744
803.00 0.3744
803.10 0.3744
803.20 0.3745
803.30 0.3745
803.40 0.3745
803.50 0.3745
803.60 0.3745
803.70 0.3745
803.80 0.3745
803.90 0.3745
804.00 0.3745
804.10 0.3745
804.20 0.3745
804.30 0.3745
804.40 0.3745
804.50 0.3745
804.60 0.3745
804.70 0.3745
804.80 0.3745
804.90 0.3745
805.00 0.3745
805.10 0.3745
805.20 0.3745
805.30 0.3745
805.40 0.3745
805.50 0.3745
805.60 0.3745
805.70 0.3745
805.80 0.3745
805.90 0.3745
806.00 0.3745
806.10 0.3745
806.20 0.3745
806.30 0.3745
806.40 0.3745
806.50 0.3745
806.60 0.3745
806.70 0.3745
806.80 0.3745
806.90 0.3745
807.00 0.3745
807.10 0.3745
807.20 0.3745
807.30 0.3745
807.40 0.3745
807.50 0.3746
807.60 0.3746
807.70 0.3746
807.80 0.3746
807.90 0.3746
808.00 0.3746
808.10 0.3746
808.20 0.3746
808.30 0.3746
808.40 0.3746
808.50 0.3746
808.60 0.3746
808.70 0.3746
808.80 0.3746
808.90 0.3746
809.00 0.3746
809.10 0.3746
809.20 0.3746
809.30 0.3746
809.40 0.3746
809.50 0.3746
809.60 0.3746
809.70 0.3746
809.80 0.3746
809.90 0.3746
810.00 0.3746
810.10 0.3745
810.20 0.3745
810.30 0.3744
810.40 0.3744
810.50 0.3743
810.60 0.3743
810.70 0.3742
810.80 0.3742
810.90 0.3741
811.00 0.3741
811.10 0.374
811.20 0.374
811.30 0.3739
811.40 0.3739
811.50 0.3738
811.60 0.3738
811.70 0.3737
811.80 0.3737
811.90 0.3736
812.00 0.3736
812.10 0.3735
812.20 0.3735
812.30 0.3734
812.40 0.3734
812.50 0.3733
812.60 0.3733
812.70 0.3732
812.80 0.3732
812.90 0.3731
813.00 0.3731
813.10 0.373
813.20 0.373
813.30 0.3729
813.40 0.3729
813.50 0.3728
813.60 0.3728
813.70 0.3727
813.80 0.3727
813.90 0.3726
814.00 0.3726
814.10 0.3725
814.20 0.3725
814.30 0.3724
814.40 0.3724
814.50 0.3723
814.60 0.3723
814.70 0.3722
814.80 0.3722
814.90 0.3721
815.00 0.3721
815.10 0.372
815.20 0.372
815.30 0.3719
815.40 0.3719
815.50 0.3718
815.60 0.3718
815.70 0.3717
815.80 0.3717
815.90 0.3717
816.00 0.3716
816.10 0.3716
816.20 0.3715
816.30 0.3715
816.40 0.3714
816.50 0.3714
816.60 0.3713
816.70 0.3713
816.80 0.3712
816.90 0.3712
817.00 0.3711
817.10 0.3711
817.20 0.371
817.30 0.371
817.40 0.3709
817.50 0.3709
817.60 0.3708
817.70 0.3708
817.80 0.3707
817.90 0.3707
818.00 0.3706
818.10 0.3706
818.20 0.3705
818.30 0.3705
818.40 0.3704
818.50 0.3704
818.60 0.3703
818.70 0.3703
818.80 0.3702
818.90 0.3702
819.00 0.3701
819.10 0.3701
819.20 0.37
819.30 0.37
819.40 0.3699
819.50 0.3699
819.60 0.3698
819.70 0.3698
819.80 0.3697
819.90 0.3697
820.00 0.3696
820.10 0.3696
820.20 0.3695
820.30 0.3694
820.40 0.3694
820.50 0.3693
820.60 0.3693
820.70 0.3692
820.80 0.3691
820.90 0.3691
821.00 0.369
821.10 0.3689
821.20 0.3689
821.30 0.3688
821.40 0.3687
821.50 0.3687
821.60 0.3686
821.70 0.3686
821.80 0.3685
821.90 0.3684
822.00 0.3684
822.10 0.3683
822.20 0.3682
822.30 0.3682
822.40 0.3681
822.50 0.368
822.60 0.3679
822.70 0.3679
822.80 0.3678
822.90 0.3677
823.00 0.3677
823.10 0.3676
823.20 0.3675
823.30 0.3675
823.40 0.3674
823.50 0.3673
823.60 0.3672
823.70 0.3672
823.80 0.3671
823.90 0.367
824.00 0.367
824.10 0.3669
824.20 0.3668
824.30 0.3668
824.40 0.3667
824.50 0.3666
824.60 0.3665
824.70 0.3665
824.80 0.3664
824.90 0.3663
825.00 0.3663
825.10 0.3662
825.20 0.3661
825.30 0.3661
825.40 0.366
825.50 0.3659
825.60 0.3659
825.70 0.3658
825.80 0.3657
825.90 0.3656
826.00 0.3656
826.10 0.3655
826.20 0.3654
826.30 0.3654
826.40 0.3653
826.50 0.3652
826.60 0.3652
826.70 0.3651
826.80 0.365
826.90 0.365
827.00 0.3649
827.10 0.3648
827.20 0.3647
827.30 0.3647
827.40 0.3646
827.50 0.3645
827.60 0.3645
827.70 0.3644
827.80 0.3643
827.90 0.3642
828.00 0.3642
828.10 0.3641
828.20 0.364
828.30 0.364
828.40 0.3639
828.50 0.3638
828.60 0.3637
828.70 0.3637
828.80 0.3636
828.90 0.3635
829.00 0.3635
829.10 0.3634
829.20 0.3633
829.30 0.3633
829.40 0.3632
829.50 0.3631
829.60 0.363
829.70 0.363
829.80 0.3629
829.90 0.3628
830.00 0.3628
830.10 0.3627
830.20 0.3626
830.30 0.3625
830.40 0.3625
830.50 0.3624
830.60 0.3623
830.70 0.3623
830.80 0.3622
830.90 0.3621
831.00 0.3621
831.10 0.362
831.20 0.3619
831.30 0.3618
831.40 0.3618
831.50 0.3617
831.60 0.3616
831.70 0.3616
831.80 0.3615
831.90 0.3614
832.00 0.3613
832.10 0.3613
832.20 0.3612
832.30 0.3611
832.40 0.3611
832.50 0.361
832.60 0.3609
832.70 0.3609
832.80 0.3608
832.90 0.3607
833.00 0.3607
833.10 0.3606
833.20 0.3605
833.30 0.3604
833.40 0.3604
833.50 0.3603
833.60 0.3602
833.70 0.3602
833.80 0.3601
833.90 0.36
834.00 0.36
834.10 0.3599
834.20 0.3598
834.30 0.3598
834.40 0.3597
834.50 0.3596
834.60 0.3595
834.70 0.3595
834.80 0.3594
834.90 0.3593
835.00 0.3593
835.10 0.3592
835.20 0.3591
835.30 0.3591
835.40 0.359
835.50 0.3589
835.60 0.3589
835.70 0.3588
835.80 0.3587
835.90 0.3587
836.00 0.3586
836.10 0.3585
836.20 0.3584
836.30 0.3584
836.40 0.3583
836.50 0.3582
836.60 0.3582
836.70 0.3581
836.80 0.358
836.90 0.358
837.00 0.3579
837.10 0.3578
837.20 0.3578
837.30 0.3577
837.40 0.3576
837.50 0.3576
837.60 0.3575
837.70 0.3574
837.80 0.3574
837.90 0.3573
838.00 0.3572
838.10 0.3571
838.20 0.3571
838.30 0.357
838.40 0.3569
838.50 0.3569
838.60 0.3568
838.70 0.3567
838.80 0.3567
838.90 0.3566
839.00 0.3565
839.10 0.3565
839.20 0.3564
839.30 0.3563
839.40 0.3563
839.50 0.3562
839.60 0.3561
839.70 0.3561
839.80 0.356
839.90 0.3559
840.00 0.3558
840.10 0.3558
840.20 0.3557
840.30 0.3556
840.40 0.3556
840.50 0.3555
840.60 0.3554
840.70 0.3554
840.80 0.3553
840.90 0.3552
841.00 0.3552
841.10 0.3551
841.20 0.355
841.30 0.355
841.40 0.3549
841.50 0.3548
841.60 0.3548
841.70 0.3547
841.80 0.3546
841.90 0.3546
842.00 0.3545
842.10 0.3544
842.20 0.3544
842.30 0.3543
842.40 0.3542
842.50 0.3541
842.60 0.3541
842.70 0.354
842.80 0.3539
842.90 0.3539
843.00 0.3538
843.10 0.3537
843.20 0.3537
843.30 0.3536
843.40 0.3535
843.50 0.3535
843.60 0.3534
843.70 0.3533
843.80 0.3533
843.90 0.3532
844.00 0.3531
844.10 0.3531
844.20 0.353
844.30 0.3529
844.40 0.3529
844.50 0.3528
844.60 0.3527
844.70 0.3526
844.80 0.3526
844.90 0.3525
845.00 0.3524
845.10 0.3524
845.20 0.3523
845.30 0.3522
845.40 0.3522
845.50 0.3521
845.60 0.352
845.70 0.352
845.80 0.3519
845.90 0.3518
846.00 0.3518
846.10 0.3517
846.20 0.3516
846.30 0.3516
846.40 0.3515
846.50 0.3514
846.60 0.3514
846.70 0.3513
846.80 0.3512
846.90 0.3512
847.00 0.3511
847.10 0.351
847.20 0.3509
847.30 0.3509
847.40 0.3508
847.50 0.3507
847.60 0.3507
847.70 0.3506
847.80 0.3505
847.90 0.3504
848.00 0.3504
848.10 0.3503
848.20 0.3502
848.30 0.3502
848.40 0.3501
848.50 0.35
848.60 0.3499
848.70 0.3499
848.80 0.3498
848.90 0.3497
849.00 0.3496
849.10 0.3496
849.20 0.3495
849.30 0.3494
849.40 0.3494
849.50 0.3493
849.60 0.3492
849.70 0.3491
849.80 0.3491
849.90 0.349
850.00 0.3489
850.10 0.3489
850.20 0.3488
850.30 0.3487
850.40 0.3486
850.50 0.3486
850.60 0.3485
850.70 0.3484
850.80 0.3483
850.90 0.3483
851.00 0.3482
851.10 0.3481
851.20 0.3481
851.30 0.348
851.40 0.3479
851.50 0.3478
851.60 0.3478
851.70 0.3477
851.80 0.3476
851.90 0.3476
852.00 0.3475
852.10 0.3474
852.20 0.3473
852.30 0.3473
852.40 0.3472
852.50 0.3471
852.60 0.347
852.70 0.3469
852.80 0.3469
852.90 0.3468
853.00 0.3467
853.10 0.3466
853.20 0.3466
853.30 0.3465
853.40 0.3464
853.50 0.3463
853.60 0.3462
853.70 0.3462
853.80 0.3461
853.90 0.346
854.00 0.3459
854.10 0.3459
854.20 0.3458
854.30 0.3457
854.40 0.3456
854.50 0.3455
854.60 0.3455
854.70 0.3454
854.80 0.3453
854.90 0.3452
855.00 0.3452
855.10 0.3451
855.20 0.345
855.30 0.3449
855.40 0.3449
855.50 0.3448
855.60 0.3447
855.70 0.3446
855.80 0.3445
855.90 0.3445
856.00 0.3444
856.10 0.3443
856.20 0.3442
856.30 0.3442
856.40 0.3441
856.50 0.344
856.60 0.3439
856.70 0.3439
856.80 0.3438
856.90 0.3437
857.00 0.3436
857.10 0.3435
857.20 0.3435
857.30 0.3434
857.40 0.3433
857.50 0.3432
857.60 0.3431
857.70 0.343
857.80 0.343
857.90 0.3429
858.00 0.3428
858.10 0.3427
858.20 0.3426
858.30 0.3425
858.40 0.3425
858.50 0.3424
858.60 0.3423
858.70 0.3422
858.80 0.3421
858.90 0.3421
859.00 0.342
859.10 0.3419
859.20 0.3418
859.30 0.3417
859.40 0.3416
859.50 0.3416
859.60 0.3415
859.70 0.3414
859.80 0.3413
859.90 0.3412
860.00 0.3411
860.10 0.3411
860.20 0.341
860.30 0.3409
860.40 0.3408
860.50 0.3407
860.60 0.3407
860.70 0.3406
860.80 0.3405
860.90 0.3404
861.00 0.3403
861.10 0.3402
861.20 0.3402
861.30 0.3401
861.40 0.34
861.50 0.3399
861.60 0.3398
861.70 0.3398
861.80 0.3397
861.90 0.3396
862.00 0.3395
862.10 0.3394
862.20 0.3393
862.30 0.3392
862.40 0.3392
862.50 0.3391
862.60 0.339
862.70 0.3389
862.80 0.3388
862.90 0.3387
863.00 0.3386
863.10 0.3385
863.20 0.3385
863.30 0.3384
863.40 0.3383
863.50 0.3382
863.60 0.3381
863.70 0.338
863.80 0.3379
863.90 0.3378
864.00 0.3377
864.10 0.3377
864.20 0.3376
864.30 0.3375
864.40 0.3374
864.50 0.3373
864.60 0.3372
864.70 0.3371
864.80 0.337
864.90 0.337
865.00 0.3369
865.10 0.3368
865.20 0.3367
865.30 0.3366
865.40 0.3365
865.50 0.3364
865.60 0.3363
865.70 0.3363
865.80 0.3362
865.90 0.3361
866.00 0.336
866.10 0.3359
866.20 0.3358
866.30 0.3357
866.40 0.3357
866.50 0.3356
866.60 0.3355
866.70 0.3354
866.80 0.3353
866.90 0.3352
867.00 0.3351
867.10 0.335
867.20 0.3349
867.30 0.3348
867.40 0.3347
867.50 0.3346
867.60 0.3345
867.70 0.3344
867.80 0.3343
867.90 0.3342
868.00 0.3341
868.10 0.334
868.20 0.3339
868.30 0.3338
868.40 0.3337
868.50 0.3336
868.60 0.3335
868.70 0.3334
868.80 0.3333
868.90 0.3332
869.00 0.3331
869.10 0.333
869.20 0.3329
869.30 0.3328
869.40 0.3327
869.50 0.3326
869.60 0.3325
869.70 0.3324
869.80 0.3323
869.90 0.3322
870.00 0.3321
870.10 0.332
870.20 0.3319
870.30 0.3318
870.40 0.3317
870.50 0.3316
870.60 0.3315
870.70 0.3314
870.80 0.3313
870.90 0.3312
871.00 0.3311
871.10 0.331
871.20 0.3309
871.30 0.3308
871.40 0.3307
871.50 0.3306
871.60 0.3305
871.70 0.3304
871.80 0.3303
871.90 0.3302
872.00 0.3301
872.10 0.33
872.20 0.3299
872.30 0.3298
872.40 0.3297
872.50 0.3296
872.60 0.3295
872.70 0.3293
872.80 0.3292
872.90 0.3291
873.00 0.329
873.10 0.3289
873.20 0.3288
873.30 0.3287
873.40 0.3286
873.50 0.3285
873.60 0.3283
873.70 0.3282
873.80 0.3281
873.90 0.328
874.00 0.3279
874.10 0.3278
874.20 0.3277
874.30 0.3276
874.40 0.3275
874.50 0.3273
874.60 0.3272
874.70 0.3271
874.80 0.327
874.90 0.3269
875.00 0.3268
875.10 0.3267
875.20 0.3266
875.30 0.3265
875.40 0.3263
875.50 0.3262
875.60 0.3261
875.70 0.326
875.80 0.3259
875.90 0.3258
876.00 0.3257
876.10 0.3256
876.20 0.3255
876.30 0.3254
876.40 0.3252
876.50 0.3251
876.60 0.325
876.70 0.3249
876.80 0.3248
876.90 0.3247
877.00 0.3246
877.10 0.3245
877.20 0.3243
877.30 0.3242
877.40 0.3241
877.50 0.3239
877.60 0.3238
877.70 0.3237
877.80 0.3236
877.90 0.3234
878.00 0.3233
878.10 0.3232
878.20 0.3231
878.30 0.3229
878.40 0.3228
878.50 0.3227
878.60 0.3226
878.70 0.3224
878.80 0.3223
878.90 0.3222
879.00 0.3221
879.10 0.3219
879.20 0.3218
879.30 0.3217
879.40 0.3216
879.50 0.3214
879.60 0.3213
879.70 0.3212
879.80 0.3211
879.90 0.3209
880.00 0.3208
880.10 0.3207
880.20 0.3206
880.30 0.3204
880.40 0.3203
880.50 0.3202
880.60 0.3201
880.70 0.3199
880.80 0.3198
880.90 0.3197
881.00 0.3196
881.10 0.3194
881.20 0.3193
881.30 0.3192
881.40 0.3191
881.50 0.3189
881.60 0.3188
881.70 0.3187
881.80 0.3186
881.90 0.3184
882.00 0.3183
882.10 0.3182
882.20 0.318
882.30 0.3179
882.40 0.3177
882.50 0.3176
882.60 0.3175
882.70 0.3173
882.80 0.3172
882.90 0.317
883.00 0.3169
883.10 0.3168
883.20 0.3166
883.30 0.3165
883.40 0.3163
883.50 0.3162
883.60 0.3161
883.70 0.3159
883.80 0.3158
883.90 0.3156
884.00 0.3155
884.10 0.3154
884.20 0.3152
884.30 0.3151
884.40 0.3149
884.50 0.3148
884.60 0.3147
884.70 0.3145
884.80 0.3144
884.90 0.3142
885.00 0.3141
885.10 0.314
885.20 0.3138
885.30 0.3137
885.40 0.3135
885.50 0.3134
885.60 0.3133
885.70 0.3131
885.80 0.313
885.90 0.3128
886.00 0.3127
886.10 0.3126
886.20 0.3124
886.30 0.3123
886.40 0.3121
886.50 0.312
886.60 0.3119
886.70 0.3117
886.80 0.3116
886.90 0.3114
887.00 0.3113
887.10 0.3112
887.20 0.311
887.30 0.3108
887.40 0.3107
887.50 0.3105
887.60 0.3104
887.70 0.3102
887.80 0.3101
887.90 0.3099
888.00 0.3098
888.10 0.3096
888.20 0.3095
888.30 0.3093
888.40 0.3092
888.50 0.309
888.60 0.3088
888.70 0.3087
888.80 0.3085
888.90 0.3084
889.00 0.3082
889.10 0.3081
889.20 0.3079
889.30 0.3078
889.40 0.3076
889.50 0.3075
889.60 0.3073
889.70 0.3072
889.80 0.307
889.90 0.3069
890.00 0.3067
890.10 0.3066
890.20 0.3064
890.30 0.3063
890.40 0.3061
890.50 0.3059
890.60 0.3058
890.70 0.3056
890.80 0.3055
890.90 0.3053
891.00 0.3052
891.10 0.305
891.20 0.3049
891.30 0.3047
891.40 0.3046
891.50 0.3044
891.60 0.3043
891.70 0.3041
891.80 0.304
891.90 0.3038
892.00 0.3037
892.10 0.3035
892.20 0.3033
892.30 0.3032
892.40 0.303
892.50 0.3028
892.60 0.3026
892.70 0.3025
892.80 0.3023
892.90 0.3021
893.00 0.3019
893.10 0.3018
893.20 0.3016
893.30 0.3014
893.40 0.3013
893.50 0.3011
893.60 0.3009
893.70 0.3007
893.80 0.3006
893.90 0.3004
894.00 0.3002
894.10 0.3
894.20 0.2999
894.30 0.2997
894.40 0.2995
894.50 0.2994
894.60 0.2992
894.70 0.299
894.80 0.2988
894.90 0.2987
895.00 0.2985
895.10 0.2983
895.20 0.2982
895.30 0.298
895.40 0.2978
895.50 0.2976
895.60 0.2975
895.70 0.2973
895.80 0.2971
895.90 0.297
896.00 0.2968
896.10 0.2966
896.20 0.2964
896.30 0.2963
896.40 0.2961
896.50 0.2959
896.60 0.2958
896.70 0.2956
896.80 0.2954
896.90 0.2953
897.00 0.2951
897.10 0.2949
897.20 0.2947
897.30 0.2945
897.40 0.2944
897.50 0.2942
897.60 0.294
897.70 0.2938
897.80 0.2937
897.90 0.2935
898.00 0.2933
898.10 0.2931
898.20 0.2929
898.30 0.2928
898.40 0.2926
898.50 0.2924
898.60 0.2922
898.70 0.2921
898.80 0.2919
898.90 0.2917
899.00 0.2915
899.10 0.2913
899.20 0.2912
899.30 0.291
899.40 0.2908
899.50 0.2906
899.60 0.2905
899.70 0.2903
899.80 0.2901
899.90 0.2899
900.00 0.2897
900.10 0.2896
900.20 0.2894
900.30 0.2892
900.40 0.289
900.50 0.2889
900.60 0.2887
900.70 0.2885
900.80 0.2883
900.90 0.2882
901.00 0.288
901.10 0.2878
901.20 0.2876
901.30 0.2875
901.40 0.2873
901.50 0.2871
901.60 0.2869
901.70 0.2868
901.80 0.2866
901.90 0.2864
902.00 0.2862
902.10 0.286
902.20 0.2859
902.30 0.2857
902.40 0.2855
902.50 0.2853
902.60 0.2852
902.70 0.285
902.80 0.2848
902.90 0.2846
903.00 0.2844
903.10 0.2843
903.20 0.2841
903.30 0.2839
903.40 0.2837
903.50 0.2836
903.60 0.2834
903.70 0.2832
903.80 0.283
903.90 0.2828
904.00 0.2827
904.10 0.2825
904.20 0.2823
904.30 0.2821
904.40 0.282
904.50 0.2818
904.60 0.2816
904.70 0.2814
904.80 0.2812
904.90 0.2811
905.00 0.2809
905.10 0.2807
905.20 0.2805
905.30 0.2804
905.40 0.2802
905.50 0.28
905.60 0.2798
905.70 0.2797
905.80 0.2795
905.90 0.2793
906.00 0.2791
906.10 0.2789
906.20 0.2788
906.30 0.2786
906.40 0.2784
906.50 0.2782
906.60 0.2781
906.70 0.2779
906.80 0.2777
906.90 0.2775
907.00 0.2774
907.10 0.2772
907.20 0.277
907.30 0.2768
907.40 0.2766
907.50 0.2764
907.60 0.2762
907.70 0.276
907.80 0.2758
907.90 0.2756
908.00 0.2754
908.10 0.2752
908.20 0.275
908.30 0.2748
908.40 0.2746
908.50 0.2744
908.60 0.2742
908.70 0.274
908.80 0.2738
908.90 0.2736
909.00 0.2734
909.10 0.2732
909.20 0.273
909.30 0.2728
909.40 0.2727
909.50 0.2725
909.60 0.2723
909.70 0.2721
909.80 0.2719
909.90 0.2717
910.00 0.2715
910.10 0.2713
910.20 0.2711
910.30 0.2709
910.40 0.2707
910.50 0.2705
910.60 0.2703
910.70 0.2701
910.80 0.2699
910.90 0.2697
911.00 0.2695
911.10 0.2693
911.20 0.2691
911.30 0.269
911.40 0.2688
911.50 0.2686
911.60 0.2684
911.70 0.2682
911.80 0.268
911.90 0.2678
912.00 0.2676
912.10 0.2674
912.20 0.2672
912.30 0.267
912.40 0.2667
912.50 0.2665
912.60 0.2663
912.70 0.2661
912.80 0.2659
912.90 0.2657
913.00 0.2655
913.10 0.2653
913.20 0.2651
913.30 0.2649
913.40 0.2646
913.50 0.2644
913.60 0.2642
913.70 0.264
913.80 0.2638
913.90 0.2636
914.00 0.2634
914.10 0.2632
914.20 0.263
914.30 0.2628
914.40 0.2625
914.50 0.2623
914.60 0.2621
914.70 0.2619
914.80 0.2617
914.90 0.2615
915.00 0.2613
915.10 0.2611
915.20 0.2609
915.30 0.2607
915.40 0.2605
915.50 0.2602
915.60 0.26
915.70 0.2598
915.80 0.2596
915.90 0.2594
916.00 0.2592
916.10 0.259
916.20 0.2588
916.30 0.2586
916.40 0.2584
916.50 0.2582
916.60 0.258
916.70 0.2577
916.80 0.2575
916.90 0.2573
917.00 0.2571
917.10 0.2569
917.20 0.2567
917.30 0.2565
917.40 0.2563
917.50 0.2561
917.60 0.2558
917.70 0.2556
917.80 0.2554
917.90 0.2552
918.00 0.255
918.10 0.2548
918.20 0.2546
918.30 0.2544
918.40 0.2541
918.50 0.2539
918.60 0.2537
918.70 0.2535
918.80 0.2533
918.90 0.2531
919.00 0.2529
919.10 0.2527
919.20 0.2524
919.30 0.2522
919.40 0.252
919.50 0.2518
919.60 0.2516
919.70 0.2514
919.80 0.2512
919.90 0.251
920.00 0.2507
920.10 0.2505
920.20 0.2503
920.30 0.2501
920.40 0.2499
920.50 0.2497
920.60 0.2495
920.70 0.2493
920.80 0.2491
920.90 0.2488
921.00 0.2486
921.10 0.2484
921.20 0.2482
921.30 0.248
921.40 0.2478
921.50 0.2476
921.60 0.2474
921.70 0.2472
921.80 0.247
921.90 0.2467
922.00 0.2465
922.10 0.2463
922.20 0.2461
922.30 0.2459
922.40 0.2457
922.50 0.2455
922.60 0.2452
922.70 0.245
922.80 0.2448
922.90 0.2446
923.00 0.2444
923.10 0.2442
923.20 0.2439
923.30 0.2437
923.40 0.2435
923.50 0.2433
923.60 0.2431
923.70 0.2429
923.80 0.2426
923.90 0.2424
924.00 0.2422
924.10 0.242
924.20 0.2418
924.30 0.2416
924.40 0.2414
924.50 0.2411
924.60 0.2409
924.70 0.2407
924.80 0.2405
924.90 0.2403
925.00 0.2401
925.10 0.2399
925.20 0.2396
925.30 0.2394
925.40 0.2392
925.50 0.239
925.60 0.2388
925.70 0.2386
925.80 0.2384
925.90 0.2381
926.00 0.2379
926.10 0.2377
926.20 0.2375
926.30 0.2373
926.40 0.2371
926.50 0.2369
926.60 0.2366
926.70 0.2364
926.80 0.2362
926.90 0.236
927.00 0.2358
927.10 0.2356
927.20 0.2354
927.30 0.2351
927.40 0.2349
927.50 0.2347
927.60 0.2345
927.70 0.2343
927.80 0.234
927.90 0.2338
928.00 0.2336
928.10 0.2334
928.20 0.2332
928.30 0.2329
928.40 0.2327
928.50 0.2325
928.60 0.2323
928.70 0.2321
928.80 0.2318
928.90 0.2316
929.00 0.2314
929.10 0.2312
929.20 0.231
929.30 0.2308
929.40 0.2305
929.50 0.2303
929.60 0.2301
929.70 0.2299
929.80 0.2297
929.90 0.2295
930.00 0.2292
930.10 0.229
930.20 0.2288
930.30 0.2286
930.40 0.2284
930.50 0.2281
930.60 0.2279
930.70 0.2277
930.80 0.2275
930.90 0.2273
931.00 0.2271
931.10 0.2268
931.20 0.2266
931.30 0.2264
931.40 0.2262
931.50 0.226
931.60 0.2258
931.70 0.2255
931.80 0.2253
931.90 0.2251
932.00 0.2249
932.10 0.2247
932.20 0.2245
932.30 0.2242
932.40 0.224
932.50 0.2238
932.60 0.2236
932.70 0.2234
932.80 0.2232
932.90 0.2229
933.00 0.2227
933.10 0.2225
933.20 0.2223
933.30 0.2221
933.40 0.2219
933.50 0.2216
933.60 0.2214
933.70 0.2212
933.80 0.221
933.90 0.2208
934.00 0.2206
934.10 0.2203
934.20 0.2201
934.30 0.2199
934.40 0.2197
934.50 0.2195
934.60 0.2193
934.70 0.219
934.80 0.2188
934.90 0.2186
935.00 0.2184
935.10 0.2182
935.20 0.2179
935.30 0.2177
935.40 0.2175
935.50 0.2173
935.60 0.2171
935.70 0.2169
935.80 0.2166
935.90 0.2164
936.00 0.2162
936.10 0.216
936.20 0.2158
936.30 0.2156
936.40 0.2154
936.50 0.2151
936.60 0.2149
936.70 0.2147
936.80 0.2145
936.90 0.2143
937.00 0.2141
937.10 0.2138
937.20 0.2136
937.30 0.2134
937.40 0.2132
937.50 0.213
937.60 0.2128
937.70 0.2125
937.80 0.2123
937.90 0.2121
938.00 0.2119
938.10 0.2117
938.20 0.2115
938.30 0.2112
938.40 0.211
938.50 0.2108
938.60 0.2106
938.70 0.2104
938.80 0.2102
938.90 0.2099
939.00 0.2097
939.10 0.2095
939.20 0.2093
939.30 0.2091
939.40 0.2088
939.50 0.2086
939.60 0.2084
939.70 0.2082
939.80 0.208
939.90 0.2078
940.00 0.2075
940.10 0.2073
940.20 0.2071
940.30 0.2069
940.40 0.2067
940.50 0.2065
940.60 0.2062
940.70 0.206
940.80 0.2058
940.90 0.2056
941.00 0.2054
941.10 0.2052
941.20 0.205
941.30 0.2047
941.40 0.2045
941.50 0.2043
941.60 0.2041
941.70 0.2039
941.80 0.2037
941.90 0.2035
942.00 0.2032
942.10 0.203
942.20 0.2028
942.30 0.2026
942.40 0.2024
942.50 0.2022
942.60 0.202
942.70 0.2018
942.80 0.2015
942.90 0.2013
943.00 0.2011
943.10 0.2009
943.20 0.2007
943.30 0.2005
943.40 0.2003
943.50 0.2001
943.60 0.1998
943.70 0.1996
943.80 0.1994
943.90 0.1992
944.00 0.199
944.10 0.1988
944.20 0.1986
944.30 0.1984
944.40 0.1982
944.50 0.1979
944.60 0.1977
944.70 0.1975
944.80 0.1973
944.90 0.1971
945.00 0.1969
945.10 0.1967
945.20 0.1965
945.30 0.1962
945.40 0.196
945.50 0.1958
945.60 0.1956
945.70 0.1954
945.80 0.1952
945.90 0.195
946.00 0.1948
946.10 0.1946
946.20 0.1944
946.30 0.1941
946.40 0.1939
946.50 0.1937
946.60 0.1935
946.70 0.1933
946.80 0.1931
946.90 0.1929
947.00 0.1927
947.10 0.1925
947.20 0.1923
947.30 0.192
947.40 0.1918
947.50 0.1916
947.60 0.1914
947.70 0.1912
947.80 0.191
947.90 0.1908
948.00 0.1906
948.10 0.1904
948.20 0.1902
948.30 0.1899
948.40 0.1897
948.50 0.1895
948.60 0.1893
948.70 0.1891
948.80 0.1889
948.90 0.1887
949.00 0.1885
949.10 0.1883
949.20 0.1881
949.30 0.1878
949.40 0.1876
949.50 0.1874
949.60 0.1872
949.70 0.187
949.80 0.1868
949.90 0.1866
950.00 0.1864
950.10 0.1862
950.20 0.186
950.30 0.1858
950.40 0.1856
950.50 0.1854
950.60 0.1852
950.70 0.185
950.80 0.1848
950.90 0.1846
951.00 0.1843
951.10 0.1841
951.20 0.1839
951.30 0.1837
951.40 0.1835
951.50 0.1833
951.60 0.1831
951.70 0.1829
951.80 0.1827
951.90 0.1825
952.00 0.1823
952.10 0.1821
952.20 0.1819
952.30 0.1817
952.40 0.1815
952.50 0.1813
952.60 0.1811
952.70 0.1809
952.80 0.1807
952.90 0.1805
953.00 0.1803
953.10 0.1801
953.20 0.1799
953.30 0.1797
953.40 0.1795
953.50 0.1793
953.60 0.1791
953.70 0.1789
953.80 0.1787
953.90 0.1784
954.00 0.1782
954.10 0.178
954.20 0.1778
954.30 0.1776
954.40 0.1774
954.50 0.1772
954.60 0.177
954.70 0.1768
954.80 0.1766
954.90 0.1764
955.00 0.1762
955.10 0.176
955.20 0.1758
955.30 0.1756
955.40 0.1754
955.50 0.1752
955.60 0.175
955.70 0.1748
955.80 0.1746
955.90 0.1744
956.00 0.1742
956.10 0.174
956.20 0.1738
956.30 0.1736
956.40 0.1734
956.50 0.1732
956.60 0.173
956.70 0.1728
956.80 0.1726
956.90 0.1724
957.00 0.1722
957.10 0.172
957.20 0.1718
957.30 0.1716
957.40 0.1714
957.50 0.1712
957.60 0.171
957.70 0.1708
957.80 0.1706
957.90 0.1704
958.00 0.1702
958.10 0.17
958.20 0.1698
958.30 0.1696
958.40 0.1694
958.50 0.1692
958.60 0.1691
958.70 0.1689
958.80 0.1687
958.90 0.1685
959.00 0.1683
959.10 0.1681
959.20 0.1679
959.30 0.1677
959.40 0.1675
959.50 0.1673
959.60 0.1671
959.70 0.1669
959.80 0.1667
959.90 0.1665
960.00 0.1663
960.10 0.1661
960.20 0.166
960.30 0.1658
960.40 0.1656
960.50 0.1654
960.60 0.1652
960.70 0.165
960.80 0.1648
960.90 0.1646
961.00 0.1644
961.10 0.1642
961.20 0.164
961.30 0.1638
961.40 0.1637
961.50 0.1635
961.60 0.1633
961.70 0.1631
961.80 0.1629
961.90 0.1627
962.00 0.1625
962.10 0.1623
962.20 0.1621
962.30 0.162
962.40 0.1618
962.50 0.1616
962.60 0.1614
962.70 0.1612
962.80 0.161
962.90 0.1608
963.00 0.1606
963.10 0.1604
963.20 0.1603
963.30 0.1601
963.40 0.1599
963.50 0.1597
963.60 0.1595
963.70 0.1593
963.80 0.1591
963.90 0.159
964.00 0.1588
964.10 0.1586
964.20 0.1584
964.30 0.1582
964.40 0.158
964.50 0.1578
964.60 0.1576
964.70 0.1575
964.80 0.1573
964.90 0.1571
965.00 0.1569
965.10 0.1567
965.20 0.1565
965.30 0.1563
965.40 0.1561
965.50 0.156
965.60 0.1558
965.70 0.1556
965.80 0.1554
965.90 0.1552
966.00 0.155
966.10 0.1548
966.20 0.1546
966.30 0.1545
966.40 0.1543
966.50 0.1541
966.60 0.1539
966.70 0.1537
966.80 0.1535
966.90 0.1534
967.00 0.1532
967.10 0.153
967.20 0.1528
967.30 0.1526
967.40 0.1525
967.50 0.1523
967.60 0.1521
967.70 0.1519
967.80 0.1517
967.90 0.1516
968.00 0.1514
968.10 0.1512
968.20 0.151
968.30 0.1508
968.40 0.1507
968.50 0.1505
968.60 0.1503
968.70 0.1501
968.80 0.15
968.90 0.1498
969.00 0.1496
969.10 0.1494
969.20 0.1493
969.30 0.1491
969.40 0.1489
969.50 0.1487
969.60 0.1486
969.70 0.1484
969.80 0.1482
969.90 0.148
970.00 0.1479
970.10 0.1477
970.20 0.1475
970.30 0.1473
970.40 0.1472
970.50 0.147
970.60 0.1468
970.70 0.1467
970.80 0.1465
970.90 0.1463
971.00 0.1461
971.10 0.146
971.20 0.1458
971.30 0.1456
971.40 0.1455
971.50 0.1453
971.60 0.1451
971.70 0.1449
971.80 0.1448
971.90 0.1446
972.00 0.1444
972.10 0.1443
972.20 0.1441
972.30 0.1439
972.40 0.1438
972.50 0.1436
972.60 0.1434
972.70 0.1432
972.80 0.1431
972.90 0.1429
973.00 0.1427
973.10 0.1426
973.20 0.1424
973.30 0.1422
973.40 0.1421
973.50 0.1419
973.60 0.1417
973.70 0.1416
973.80 0.1414
973.90 0.1412
974.00 0.1411
974.10 0.1409
974.20 0.1407
974.30 0.1406
974.40 0.1404
974.50 0.1402
974.60 0.1401
974.70 0.1399
974.80 0.1397
974.90 0.1396
975.00 0.1394
975.10 0.1392
975.20 0.1391
975.30 0.1389
975.40 0.1388
975.50 0.1386
975.60 0.1384
975.70 0.1383
975.80 0.1381
975.90 0.1379
976.00 0.1378
976.10 0.1376
976.20 0.1374
976.30 0.1373
976.40 0.1371
976.50 0.1369
976.60 0.1368
976.70 0.1366
976.80 0.1365
976.90 0.1363
977.00 0.1361
977.10 0.136
977.20 0.1358
977.30 0.1357
977.40 0.1355
977.50 0.1353
977.60 0.1352
977.70 0.135
977.80 0.1349
977.90 0.1347
978.00 0.1346
978.10 0.1344
978.20 0.1343
978.30 0.1341
978.40 0.134
978.50 0.1338
978.60 0.1336
978.70 0.1335
978.80 0.1333
978.90 0.1332
979.00 0.133
979.10 0.1329
979.20 0.1327
979.30 0.1326
979.40 0.1324
979.50 0.1323
979.60 0.1321
979.70 0.1319
979.80 0.1318
979.90 0.1316
980.00 0.1315
980.10 0.1313
980.20 0.1312
980.30 0.131
980.40 0.1309
980.50 0.1307
980.60 0.1306
980.70 0.1304
980.80 0.1303
980.90 0.1301
981.00 0.1299
981.10 0.1298
981.20 0.1296
981.30 0.1295
981.40 0.1293
981.50 0.1292
981.60 0.129
981.70 0.1289
981.80 0.1287
981.90 0.1286
982.00 0.1284
982.10 0.1283
982.20 0.1281
982.30 0.128
982.40 0.1278
982.50 0.1277
982.60 0.1275
982.70 0.1274
982.80 0.1272
982.90 0.1271
983.00 0.1269
983.10 0.1268
983.20 0.1266
983.30 0.1265
983.40 0.1264
983.50 0.1262
983.60 0.1261
983.70 0.1259
983.80 0.1258
983.90 0.1256
984.00 0.1255
984.10 0.1253
984.20 0.1252
984.30 0.125
984.40 0.1249
984.50 0.1247
984.60 0.1246
984.70 0.1245
984.80 0.1243
984.90 0.1242
985.00 0.124
985.10 0.1239
985.20 0.1238
985.30 0.1236
985.40 0.1235
985.50 0.1234
985.60 0.1232
985.70 0.1231
985.80 0.123
985.90 0.1228
986.00 0.1227
986.10 0.1225
986.20 0.1224
986.30 0.1223
986.40 0.1221
986.50 0.122
986.60 0.1219
986.70 0.1217
986.80 0.1216
986.90 0.1215
987.00 0.1213
987.10 0.1212
987.20 0.121
987.30 0.1209
987.40 0.1208
987.50 0.1206
987.60 0.1205
987.70 0.1203
987.80 0.1202
987.90 0.1201
988.00 0.1199
988.10 0.1198
988.20 0.1196
988.30 0.1195
988.40 0.1194
988.50 0.1192
988.60 0.1191
988.70 0.1189
988.80 0.1188
988.90 0.1186
989.00 0.1185
989.10 0.1184
989.20 0.1182
989.30 0.1181
989.40 0.1179
989.50 0.1178
989.60 0.1177
989.70 0.1175
989.80 0.1174
989.90 0.1172
990.00 0.1171
990.10 0.117
990.20 0.1168
990.30 0.1167
990.40 0.1165
990.50 0.1164
990.60 0.1163
990.70 0.1161
990.80 0.116
990.90 0.1158
991.00 0.1157
991.10 0.1156
991.20 0.1154
991.30 0.1153
991.40 0.1151
991.50 0.115
991.60 0.1149
991.70 0.1147
991.80 0.1146
991.90 0.1144
992.00 0.1143
992.10 0.1142
992.20 0.114
992.30 0.1139
992.40 0.1138
992.50 0.1136
992.60 0.1135
992.70 0.1133
992.80 0.1132
992.90 0.1131
993.00 0.1129
993.10 0.1128
993.20 0.1126
993.30 0.1125
993.40 0.1124
993.50 0.1122
993.60 0.1121
993.70 0.112
993.80 0.1118
993.90 0.1117
994.00 0.1115
994.10 0.1114
994.20 0.1113
994.30 0.1111
994.40 0.111
994.50 0.1109
994.60 0.1107
994.70 0.1106
994.80 0.1104
994.90 0.1102
995.00 0.1101
995.10 0.1099
995.20 0.1097
995.30 0.1095
995.40 0.1094
995.50 0.1092
995.60 0.109
995.70 0.1089
995.80 0.1088
995.90 0.1086
996.00 0.1085
996.10 0.1084
996.20 0.1082
996.30 0.1081
996.40 0.108
996.50 0.1078
996.60 0.1077
996.70 0.1076
996.80 0.1074
996.90 0.1073
997.00 0.1072
997.10 0.107
997.20 0.1069
997.30 0.1068
997.40 0.1067
997.50 0.1065
997.60 0.1064
997.70 0.1063
997.80 0.1061
997.90 0.106
998.00 0.1059
998.10 0.1058
998.20 0.1056
998.30 0.1055
998.40 0.1054
998.50 0.1053
998.60 0.1051
998.70 0.105
998.80 0.1049
998.90 0.1048
999.00 0.1046
999.10 0.1045
999.20 0.1044
999.30 0.1043
999.40 0.1041
999.50 0.104
999.60 0.1039
999.70 0.1038
999.80 0.1036
999.90 0.1035
1000.00 0.1034
1000.10 0.1033
1000.20 0.1032
1000.30 0.103
1000.40 0.1029
1000.50 0.1028
1000.60 0.1027
1000.70 0.1026
1000.80 0.1024
1000.90 0.1023
1001.00 0.1022
1001.10 0.1021
1001.20 0.1019
1001.30 0.1018
1001.40 0.1017
1001.50 0.1016
1001.60 0.1015
1001.70 0.1014
1001.80 0.1012
1001.90 0.1011
1002.00 0.101
1002.10 0.1009
1002.20 0.1008
1002.30 0.1007
1002.40 0.1005
1002.50 0.1004
1002.60 0.1003
1002.70 0.1002
1002.80 0.1001
1002.90 0.09997
1003.00 0.09986
1003.10 0.09974
1003.20 0.09963
1003.30 0.09952
1003.40 0.09941
1003.50 0.09929
1003.60 0.09918
1003.70 0.09907
1003.80 0.09896
1003.90 0.09885
1004.00 0.09873
1004.10 0.09862
1004.20 0.09851
1004.30 0.0984
1004.40 0.09829
1004.50 0.09818
1004.60 0.09807
1004.70 0.09796
1004.80 0.09785
1004.90 0.09771
1005.00 0.09756
1005.10 0.09745
1005.20 0.09734
1005.30 0.09723
1005.40 0.09712
1005.50 0.09702
1005.60 0.09691
1005.70 0.0968
1005.80 0.0967
1005.90 0.09659
1006.00 0.09648
1006.10 0.09638
1006.20 0.09627
1006.30 0.09617
1006.40 0.09606
1006.50 0.09596
1006.60 0.09586
1006.70 0.09575
1006.80 0.09565
1006.90 0.09555
1007.00 0.09544
1007.10 0.09534
1007.20 0.09524
1007.30 0.09514
1007.40 0.09504
1007.50 0.09494
1007.60 0.09484
1007.70 0.09474
1007.80 0.09465
1007.90 0.09455
1008.00 0.09445
1008.10 0.09435
1008.20 0.09425
1008.30 0.09416
1008.40 0.09406
1008.50 0.09396
1008.60 0.09386
1008.70 0.09377
1008.80 0.09367
1008.90 0.09357
1009.00 0.09347
1009.10 0.09338
1009.20 0.09328
1009.30 0.09318
1009.40 0.09309
1009.50 0.09299
1009.60 0.09289
1009.70 0.0928
1009.80 0.09271
1009.90 0.09261
1010.00 0.09252
1010.10 0.09243
1010.20 0.09234
1010.30 0.09225
1010.40 0.09216
1010.50 0.09206
1010.60 0.09197
1010.70 0.09188
1010.80 0.09179
1010.90 0.0917
1011.00 0.09161
1011.10 0.09151
1011.20 0.09142
1011.30 0.09133
1011.40 0.09124
1011.50 0.09115
1011.60 0.09106
1011.70 0.09097
1011.80 0.09088
1011.90 0.0908
1012.00 0.09071
1012.10 0.09063
1012.20 0.09054
1012.30 0.09045
1012.40 0.09037
1012.50 0.09028
1012.60 0.0902
1012.70 0.09011
1012.80 0.09003
1012.90 0.08994
1013.00 0.08985
1013.10 0.08977
1013.20 0.08968
1013.30 0.0896
1013.40 0.08951
1013.50 0.08943
1013.60 0.08934
1013.70 0.08926
1013.80 0.08918
1013.90 0.08909
1014.00 0.08901
1014.10 0.08893
1014.20 0.08885
1014.30 0.08877
1014.40 0.08869
1014.50 0.08861
1014.60 0.08853
1014.70 0.08845
1014.80 0.08838
1014.90 0.08831
1015.00 0.08824
1015.10 0.08817
1015.20 0.0881
1015.30 0.08803
1015.40 0.08796
1015.50 0.08789
1015.60 0.08782
1015.70 0.08775
1015.80 0.08768
1015.90 0.08761
1016.00 0.08754
1016.10 0.08747
1016.20 0.0874
1016.30 0.08732
1016.40 0.08725
1016.50 0.08718
1016.60 0.08711
1016.70 0.08704
1016.80 0.08696
1016.90 0.08689
1017.00 0.08681
1017.10 0.08674
1017.20 0.08666
1017.30 0.08658
1017.40 0.08651
1017.50 0.08643
1017.60 0.08636
1017.70 0.08628
1017.80 0.0862
1017.90 0.08613
1018.00 0.08605
1018.10 0.08598
1018.20 0.0859
1018.30 0.08582
1018.40 0.08575
1018.50 0.08567
1018.60 0.0856
1018.70 0.08552
1018.80 0.08545
1018.90 0.08538
1019.00 0.0853
1019.10 0.08523
1019.20 0.08516
1019.30 0.08508
1019.40 0.08501
1019.50 0.08494
1019.60 0.08486
1019.70 0.08479
1019.80 0.08472
1019.90 0.08464
1020.00 0.08457
1020.10 0.0845
1020.20 0.08442
1020.30 0.08435
1020.40 0.08428
1020.50 0.0842
1020.60 0.08413
1020.70 0.08406
1020.80 0.08399
1020.90 0.08392
1021.00 0.08384
1021.10 0.08377
1021.20 0.0837
1021.30 0.08363
1021.40 0.08356
1021.50 0.08349
1021.60 0.08341
1021.70 0.08334
1021.80 0.08327
1021.90 0.0832
1022.00 0.08313
1022.10 0.08306
1022.20 0.08299
1022.30 0.08292
1022.40 0.08285
1022.50 0.08278
1022.60 0.08271
1022.70 0.08264
1022.80 0.08257
1022.90 0.08251
1023.00 0.08244
1023.10 0.08237
1023.20 0.0823
1023.30 0.08223
1023.40 0.08216
1023.50 0.08209
1023.60 0.08202
1023.70 0.08195
1023.80 0.08188
1023.90 0.08181
1024.00 0.08175
1024.10 0.08168
1024.20 0.08161
1024.30 0.08154
1024.40 0.08147
1024.50 0.0814
1024.60 0.08133
1024.70 0.08127
1024.80 0.0812
1024.90 0.08113
1025.00 0.08106
1025.10 0.081
1025.20 0.08093
1025.30 0.08086
1025.40 0.08079
1025.50 0.08073
1025.60 0.08066
1025.70 0.08059
1025.80 0.08052
1025.90 0.08046
1026.00 0.08039
1026.10 0.08032
1026.20 0.08026
1026.30 0.08019
1026.40 0.08012
1026.50 0.08005
1026.60 0.07999
1026.70 0.07992
1026.80 0.07985
1026.90 0.07979
1027.00 0.07972
1027.10 0.07966
1027.20 0.0796
1027.30 0.07953
1027.40 0.07947
1027.50 0.07941
1027.60 0.07935
1027.70 0.07929
1027.80 0.07922
1027.90 0.07916
1028.00 0.0791
1028.10 0.07904
1028.20 0.07898
1028.30 0.07891
1028.40 0.07885
1028.50 0.07879
1028.60 0.07873
1028.70 0.07867
1028.80 0.0786
1028.90 0.07854
1029.00 0.07848
1029.10 0.07842
1029.20 0.07836
1029.30 0.0783
1029.40 0.07823
1029.50 0.07817
1029.60 0.07811
1029.70 0.07805
1029.80 0.07799
1029.90 0.07793
1030.00 0.07787
1030.10 0.0778
1030.20 0.07774
1030.30 0.07768
1030.40 0.07762
1030.50 0.07756
1030.60 0.0775
1030.70 0.07744
1030.80 0.07737
1030.90 0.07731
1031.00 0.07725
1031.10 0.07719
1031.20 0.07713
1031.30 0.07707
1031.40 0.07701
1031.50 0.07695
1031.60 0.07688
1031.70 0.07682
1031.80 0.07676
1031.90 0.0767
1032.00 0.07664
1032.10 0.07658
1032.20 0.07653
1032.30 0.07647
1032.40 0.07641
1032.50 0.07636
1032.60 0.0763
1032.70 0.07624
1032.80 0.07619
1032.90 0.07613
1033.00 0.07607
1033.10 0.07602
1033.20 0.07596
1033.30 0.0759
1033.40 0.07585
1033.50 0.07579
1033.60 0.07573
1033.70 0.07568
1033.80 0.07562
1033.90 0.07557
1034.00 0.07551
1034.10 0.07545
1034.20 0.0754
1034.30 0.07534
1034.40 0.07528
1034.50 0.07523
1034.60 0.07517
1034.70 0.07512
1034.80 0.07506
1034.90 0.075
1035.00 0.07495
1035.10 0.07489
1035.20 0.07483
1035.30 0.07478
1035.40 0.07472
1035.50 0.07467
1035.60 0.07461
1035.70 0.07455
1035.80 0.0745
1035.90 0.07444
1036.00 0.07439
1036.10 0.07433
1036.20 0.07427
1036.30 0.07422
1036.40 0.07416
1036.50 0.07411
1036.60 0.07405
1036.70 0.074
1036.80 0.07394
1036.90 0.07388
1037.00 0.07383
1037.10 0.07378
1037.20 0.07373
1037.30 0.07368
1037.40 0.07363
1037.50 0.07358
1037.60 0.07353
1037.70 0.07348
1037.80 0.07343
1037.90 0.07338
1038.00 0.07333
1038.10 0.07328
1038.20 0.07323
1038.30 0.07318
1038.40 0.07313
1038.50 0.07308
1038.60 0.07303
1038.70 0.07298
1038.80 0.07293
1038.90 0.07288
1039.00 0.07283
1039.10 0.07278
1039.20 0.07273
1039.30 0.07268
1039.40 0.07263
1039.50 0.07258
1039.60 0.07253
1039.70 0.07248
1039.80 0.07243
1039.90 0.07238
1040.00 0.07233
1040.10 0.07228
1040.20 0.07223
1040.30 0.07218
1040.40 0.07213
1040.50 0.07208
1040.60 0.07204
1040.70 0.07199
1040.80 0.07194
1040.90 0.07189
1041.00 0.07184
1041.10 0.07179
1041.20 0.07174
1041.30 0.07169
1041.40 0.07164
1041.50 0.07159
1041.60 0.07154
1041.70 0.07149
1041.80 0.07144
1041.90 0.07139
1042.00 0.07134
1042.10 0.0713
1042.20 0.07126
1042.30 0.07121
1042.40 0.07117
1042.50 0.07112
1042.60 0.07108
1042.70 0.07104
1042.80 0.07099
1042.90 0.07095
1043.00 0.0709
1043.10 0.07086
1043.20 0.07082
1043.30 0.07077
1043.40 0.07073
1043.50 0.07069
1043.60 0.07064
1043.70 0.0706
1043.80 0.07055
1043.90 0.07051
1044.00 0.07047
1044.10 0.07042
1044.20 0.07038
1044.30 0.07034
1044.40 0.07029
1044.50 0.07025
1044.60 0.0702
1044.70 0.07016
1044.80 0.07012
1044.90 0.07007
1045.00 0.07003
1045.10 0.06999
1045.20 0.06994
1045.30 0.0699
1045.40 0.06986
1045.50 0.06981
1045.60 0.06977
1045.70 0.06972
1045.80 0.06968
1045.90 0.06964
1046.00 0.06959
1046.10 0.06955
1046.20 0.06951
1046.30 0.06946
1046.40 0.06942
1046.50 0.06938
1046.60 0.06933
1046.70 0.06929
1046.80 0.06925
1046.90 0.0692
1047.00 0.06916
1047.10 0.06912
1047.20 0.06908
1047.30 0.06905
1047.40 0.06901
1047.50 0.06897
1047.60 0.06893
1047.70 0.06889
1047.80 0.06885
1047.90 0.06882
1048.00 0.06878
1048.10 0.06874
1048.20 0.0687
1048.30 0.06866
1048.40 0.06862
1048.50 0.06859
1048.60 0.06855
1048.70 0.06851
1048.80 0.06847
1048.90 0.06843
1049.00 0.0684
1049.10 0.06836
1049.20 0.06832
1049.30 0.06828
1049.40 0.06824
1049.50 0.06821
1049.60 0.06817
1049.70 0.06813
1049.80 0.06809
1049.90 0.06805
1050.00 0.06802
1050.10 0.06798
1050.20 0.06794
1050.30 0.0679
1050.40 0.06786
1050.50 0.06783
1050.60 0.06779
1050.70 0.06775
1050.80 0.06771
1050.90 0.06767
1051.00 0.06764
1051.10 0.0676
1051.20 0.06756
1051.30 0.06752
1051.40 0.06748
1051.50 0.06745
1051.60 0.06741
1051.70 0.06737
1051.80 0.06733
1051.90 0.0673
1052.00 0.06726
1052.10 0.06722
1052.20 0.06719
1052.30 0.06716
1052.40 0.06712
1052.50 0.06709
1052.60 0.06706
1052.70 0.06702
1052.80 0.06699
1052.90 0.06696
1053.00 0.06692
1053.10 0.06689
1053.20 0.06686
1053.30 0.06682
1053.40 0.06679
1053.50 0.06676
1053.60 0.06672
1053.70 0.06669
1053.80 0.06666
1053.90 0.06662
1054.00 0.06659
1054.10 0.06656
1054.20 0.06653
1054.30 0.06649
1054.40 0.06646
1054.50 0.06643
1054.60 0.06639
1054.70 0.06636
1054.80 0.06633
1054.90 0.06629
1055.00 0.06626
1055.10 0.06623
1055.20 0.06619
1055.30 0.06616
1055.40 0.06613
1055.50 0.06609
1055.60 0.06606
1055.70 0.06603
1055.80 0.066
1055.90 0.06596
1056.00 0.06593
1056.10 0.0659
1056.20 0.06586
1056.30 0.06583
1056.40 0.0658
1056.50 0.06576
1056.60 0.06573
1056.70 0.0657
1056.80 0.06567
1056.90 0.06563
1057.00 0.0656
1057.10 0.06557
1057.20 0.06554
1057.30 0.06551
1057.40 0.06549
1057.50 0.06546
1057.60 0.06543
1057.70 0.0654
1057.80 0.06537
1057.90 0.06534
1058.00 0.06531
1058.10 0.06528
1058.20 0.06526
1058.30 0.06523
1058.40 0.0652
1058.50 0.06517
1058.60 0.06514
1058.70 0.06511
1058.80 0.06508
1058.90 0.06506
1059.00 0.06503
1059.10 0.065
1059.20 0.06497
1059.30 0.06494
1059.40 0.06491
1059.50 0.06489
1059.60 0.06486
1059.70 0.06483
1059.80 0.0648
1059.90 0.06477
1060.00 0.06474
1060.10 0.06471
1060.20 0.06469
1060.30 0.06466
1060.40 0.06463
1060.50 0.0646
1060.60 0.06457
1060.70 0.06454
1060.80 0.06452
1060.90 0.06449
1061.00 0.06446
1061.10 0.06443
1061.20 0.0644
1061.30 0.06437
1061.40 0.06435
1061.50 0.06432
1061.60 0.06429
1061.70 0.06426
1061.80 0.06423
1061.90 0.0642
1062.00 0.06418
1062.10 0.06415
1062.20 0.06413
1062.30 0.0641
1062.40 0.06408
1062.50 0.06405
1062.60 0.06403
1062.70 0.06401
1062.80 0.06398
1062.90 0.06396
1063.00 0.06393
1063.10 0.06391
1063.20 0.06389
1063.30 0.06386
1063.40 0.06384
1063.50 0.06381
1063.60 0.06379
1063.70 0.06376
1063.80 0.06374
1063.90 0.06372
1064.00 0.06369
1064.10 0.06367
1064.20 0.06364
1064.30 0.06362
1064.40 0.0636
1064.50 0.06357
1064.60 0.06355
1064.70 0.06352
1064.80 0.0635
1064.90 0.06348
1065.00 0.06345
1065.10 0.06343
1065.20 0.0634
1065.30 0.06338
1065.40 0.06336
1065.50 0.06333
1065.60 0.06331
1065.70 0.06328
1065.80 0.06326
1065.90 0.06324
1066.00 0.06321
1066.10 0.06319
1066.20 0.06316
1066.30 0.06314
1066.40 0.06312
1066.50 0.06309
1066.60 0.06307
1066.70 0.06304
1066.80 0.06302
1066.90 0.063
1067.00 0.06297
1067.10 0.06295
1067.20 0.06293
1067.30 0.06291
1067.40 0.06289
1067.50 0.06287
1067.60 0.06285
1067.70 0.06283
1067.80 0.06281
1067.90 0.06279
1068.00 0.06277
1068.10 0.06275
1068.20 0.06273
1068.30 0.06271
1068.40 0.06269
1068.50 0.06267
1068.60 0.06264
1068.70 0.06262
1068.80 0.0626
1068.90 0.06258
1069.00 0.06256
1069.10 0.06254
1069.20 0.06252
1069.30 0.0625
1069.40 0.06248
1069.50 0.06246
1069.60 0.06244
1069.70 0.06242
1069.80 0.0624
1069.90 0.06238
1070.00 0.06236
1070.10 0.06234
1070.20 0.06232
1070.30 0.0623
1070.40 0.06228
1070.50 0.06226
1070.60 0.06224
1070.70 0.06222
1070.80 0.0622
1070.90 0.06218
1071.00 0.06216
1071.10 0.06214
1071.20 0.06212
1071.30 0.0621
1071.40 0.06208
1071.50 0.06205
1071.60 0.06203
1071.70 0.06201
1071.80 0.06199
1071.90 0.06197
1072.00 0.06195
1072.10 0.06194
1072.20 0.06192
1072.30 0.0619
1072.40 0.06189
1072.50 0.06187
1072.60 0.06185
1072.70 0.06184
1072.80 0.06182
1072.90 0.0618
1073.00 0.06179
1073.10 0.06177
1073.20 0.06175
1073.30 0.06174
1073.40 0.06172
1073.50 0.0617
1073.60 0.06169
1073.70 0.06167
1073.80 0.06166
1073.90 0.06165
1074.00 0.06163
1074.10 0.06162
1074.20 0.0616
1074.30 0.06159
1074.40 0.06157
1074.50 0.06156
1074.60 0.06154
1074.70 0.06153
1074.80 0.06152
1074.90 0.0615
1075.00 0.06149
1075.10 0.06147
1075.20 0.06146
1075.30 0.06144
1075.40 0.06143
1075.50 0.06142
1075.60 0.0614
1075.70 0.06139
1075.80 0.06137
1075.90 0.06136
1076.00 0.06134
1076.10 0.06133
1076.20 0.06132
1076.30 0.0613
1076.40 0.06129
1076.50 0.06127
1076.60 0.06126
1076.70 0.06124
1076.80 0.06123
1076.90 0.06122
1077.00 0.0612
1077.10 0.06119
1077.20 0.06118
1077.30 0.06116
1077.40 0.06115
1077.50 0.06114
1077.60 0.06113
1077.70 0.06112
1077.80 0.06111
1077.90 0.06109
1078.00 0.06108
1078.10 0.06107
1078.20 0.06106
1078.30 0.06105
1078.40 0.06104
1078.50 0.06103
1078.60 0.06102
1078.70 0.061
1078.80 0.06099
1078.90 0.06098
1079.00 0.06097
1079.10 0.06096
1079.20 0.06095
1079.30 0.06094
1079.40 0.06093
1079.50 0.06092
1079.60 0.06091
1079.70 0.0609
1079.80 0.06089
1079.90 0.06088
1080.00 0.06087
1080.10 0.06087
1080.20 0.06086
1080.30 0.06085
1080.40 0.06084
1080.50 0.06083
1080.60 0.06082
1080.70 0.06082
1080.80 0.06081
1080.90 0.0608
1081.00 0.06079
1081.10 0.06078
1081.20 0.06077
1081.30 0.06077
1081.40 0.06076
1081.50 0.06075
1081.60 0.06074
1081.70 0.06073
1081.80 0.06072
1081.90 0.06072
1082.00 0.06071
1082.10 0.0607
1082.20 0.06069
1082.30 0.06068
1082.40 0.06068
1082.50 0.06067
1082.60 0.06066
1082.70 0.06065
1082.80 0.06065
1082.90 0.06064
1083.00 0.06063
1083.10 0.06062
1083.20 0.06062
1083.30 0.06061
1083.40 0.0606
1083.50 0.0606
1083.60 0.06059
1083.70 0.06058
1083.80 0.06058
1083.90 0.06057
1084.00 0.06056
1084.10 0.06056
1084.20 0.06055
1084.30 0.06054
1084.40 0.06054
1084.50 0.06053
1084.60 0.06052
1084.70 0.06052
1084.80 0.06051
1084.90 0.06051
1085.00 0.0605
1085.10 0.0605
1085.20 0.06049
1085.30 0.06049
1085.40 0.06048
1085.50 0.06048
1085.60 0.06047
1085.70 0.06047
1085.80 0.06046
1085.90 0.06045
1086.00 0.06045
1086.10 0.06044
1086.20 0.06044
1086.30 0.06043
1086.40 0.06043
1086.50 0.06042
1086.60 0.06042
1086.70 0.06041
1086.80 0.06041
1086.90 0.06041
1087.00 0.0604
1087.10 0.0604
1087.20 0.06039
1087.30 0.06039
1087.40 0.06039
1087.50 0.06038
1087.60 0.06038
1087.70 0.06038
1087.80 0.06037
1087.90 0.06037
1088.00 0.06036
1088.10 0.06036
1088.20 0.06036
1088.30 0.06035
1088.40 0.06035
1088.50 0.06035
1088.60 0.06034
1088.70 0.06034
1088.80 0.06034
1088.90 0.06034
1089.00 0.06034
1089.10 0.06033
1089.20 0.06033
1089.30 0.06033
1089.40 0.06033
1089.50 0.06032
1089.60 0.06032
1089.70 0.06032
1089.80 0.06032
1089.90 0.06032
1090.00 0.06031
1090.10 0.06031
1090.20 0.06031
1090.30 0.06031
1090.40 0.0603
1090.50 0.0603
1090.60 0.0603
1090.70 0.0603
1090.80 0.0603
1090.90 0.0603
1091.00 0.0603
1091.10 0.0603
1091.20 0.0603
1091.30 0.06029
1091.40 0.06029
1091.50 0.06029
1091.60 0.06029
1091.70 0.06029
1091.80 0.06029
1091.90 0.06029
1092.00 0.06029
1092.10 0.06029
1092.20 0.06029
1092.30 0.06029
1092.40 0.06029
1092.50 0.06029
1092.60 0.06029
1092.70 0.06029
1092.80 0.0603
1092.90 0.06032
1093.00 0.06033
1093.10 0.06034
1093.20 0.06034
1093.30 0.06034
1093.40 0.06034
1093.50 0.06034
1093.60 0.06034
1093.70 0.06035
1093.80 0.06035
1093.90 0.06035
1094.00 0.06035
1094.10 0.06035
1094.20 0.06035
1094.30 0.06035
1094.40 0.06035
1094.50 0.06035
1094.60 0.06035
1094.70 0.06035
1094.80 0.06036
1094.90 0.06036
1095.00 0.06036
1095.10 0.06036
1095.20 0.06036
1095.30 0.06036
1095.40 0.06036
1095.50 0.06037
1095.60 0.06037
1095.70 0.06037
1095.80 0.06037
1095.90 0.06037
1096.00 0.06037
1096.10 0.06038
1096.20 0.06038
1096.30 0.06038
1096.40 0.06038
1096.50 0.06038
1096.60 0.06038
1096.70 0.06039
1096.80 0.06039
1096.90 0.06039
1097.00 0.06039
1097.10 0.0604
1097.20 0.0604
1097.30 0.0604
1097.40 0.0604
1097.50 0.0604
1097.60 0.06041
1097.70 0.06041
1097.80 0.06041
1097.90 0.06041
1098.00 0.06042
1098.10 0.06042
1098.20 0.06042
1098.30 0.06042
1098.40 0.06043
1098.50 0.06043
1098.60 0.06043
1098.70 0.06044
1098.80 0.06044
1098.90 0.06044
1099.00 0.06045
1099.10 0.06045
1099.20 0.06045
1099.30 0.06046
1099.40 0.06046
1099.50 0.06046
1099.60 0.06047
1099.70 0.06047
1099.80 0.06047
1099.90 0.06048
1100.00 0.06048
1100.10 0.06048
1100.20 0.06048
1100.30 0.06049
1100.40 0.06049
1100.50 0.06049
1100.60 0.0605
1100.70 0.0605
1100.80 0.06051
1100.90 0.06051
1101.00 0.06052
1101.10 0.06052
1101.20 0.06052
1101.30 0.06053
1101.40 0.06053
1101.50 0.06054
1101.60 0.06054
1101.70 0.06054
1101.80 0.06055
1101.90 0.06055
1102.00 0.06056
1102.10 0.06056
1102.20 0.06056
1102.30 0.06057
1102.40 0.06057
1102.50 0.06058
1102.60 0.06058
1102.70 0.06059
1102.80 0.06059
1102.90 0.0606
1103.00 0.0606
1103.10 0.06061
1103.20 0.06061
1103.30 0.06062
1103.40 0.06062
1103.50 0.06063
1103.60 0.06063
1103.70 0.06064
1103.80 0.06064
1103.90 0.06065
1104.00 0.06066
1104.10 0.06066
1104.20 0.06067
1104.30 0.06067
1104.40 0.06068
1104.50 0.06068
1104.60 0.06069
1104.70 0.0607
1104.80 0.0607
1104.90 0.06071
1105.00 0.06071
1105.10 0.06072
1105.20 0.06073
1105.30 0.06073
1105.40 0.06074
1105.50 0.06074
1105.60 0.06075
1105.70 0.06076
1105.80 0.06076
1105.90 0.06077
1106.00 0.06078
1106.10 0.06078
1106.20 0.06079
1106.30 0.06079
1106.40 0.0608
1106.50 0.06081
1106.60 0.06081
1106.70 0.06082
1106.80 0.06082
1106.90 0.06083
1107.00 0.06084
1107.10 0.06084
1107.20 0.06085
1107.30 0.06086
1107.40 0.06086
1107.50 0.06087
1107.60 0.06088
1107.70 0.06088
1107.80 0.06089
1107.90 0.0609
1108.00 0.0609
1108.10 0.06091
1108.20 0.06092
1108.30 0.06092
1108.40 0.06093
1108.50 0.06094
1108.60 0.06095
1108.70 0.06095
1108.80 0.06096
1108.90 0.06097
1109.00 0.06097
1109.10 0.06098
1109.20 0.06099
1109.30 0.06099
1109.40 0.061
1109.50 0.06101
1109.60 0.06102
1109.70 0.06102
1109.80 0.06103
1109.90 0.06104
1110.00 0.06105
1110.10 0.06105
1110.20 0.06106
1110.30 0.06107
1110.40 0.06108
1110.50 0.06109
1110.60 0.06109
1110.70 0.0611
1110.80 0.06111
1110.90 0.06112
1111.00 0.06112
1111.10 0.06113
1111.20 0.06114
1111.30 0.06115
1111.40 0.06115
1111.50 0.06116
1111.60 0.06117
1111.70 0.06118
1111.80 0.06119
1111.90 0.06119
1112.00 0.0612
1112.10 0.06121
1112.20 0.06122
1112.30 0.06123
1112.40 0.06123
1112.50 0.06124
1112.60 0.06125
1112.70 0.06126
1112.80 0.06127
1112.90 0.06128
1113.00 0.06129
1113.10 0.06129
1113.20 0.0613
1113.30 0.06131
1113.40 0.06132
1113.50 0.06133
1113.60 0.06134
1113.70 0.06135
1113.80 0.06136
1113.90 0.06137
1114.00 0.06138
1114.10 0.06139
1114.20 0.06139
1114.30 0.0614
1114.40 0.06141
1114.50 0.06142
1114.60 0.06143
1114.70 0.06144
1114.80 0.06145
1114.90 0.06146
1115.00 0.06147
1115.10 0.06148
1115.20 0.06149
1115.30 0.0615
1115.40 0.06151
1115.50 0.06152
1115.60 0.06153
1115.70 0.06154
1115.80 0.06155
1115.90 0.06155
1116.00 0.06156
1116.10 0.06157
1116.20 0.06158
1116.30 0.06159
1116.40 0.0616
1116.50 0.06161
1116.60 0.06162
1116.70 0.06163
1116.80 0.06164
1116.90 0.06165
1117.00 0.06166
1117.10 0.06167
1117.20 0.06168
1117.30 0.06169
1117.40 0.0617
1117.50 0.06171
1117.60 0.06172
1117.70 0.06173
1117.80 0.06175
1117.90 0.06176
1118.00 0.06177
1118.10 0.06178
1118.20 0.06179
1118.30 0.0618
1118.40 0.06181
1118.50 0.06182
1118.60 0.06183
1118.70 0.06184
1118.80 0.06185
1118.90 0.06187
1119.00 0.06188
1119.10 0.06189
1119.20 0.0619
1119.30 0.06191
1119.40 0.06192
1119.50 0.06193
1119.60 0.06194
1119.70 0.06195
1119.80 0.06196
1119.90 0.06197
1120.00 0.06199
1120.10 0.062
1120.20 0.06201
1120.30 0.06202
1120.40 0.06203
1120.50 0.06204
1120.60 0.06205
1120.70 0.06206
1120.80 0.06207
1120.90 0.06208
1121.00 0.06209
1121.10 0.0621
1121.20 0.06212
1121.30 0.06213
1121.40 0.06214
1121.50 0.06215
1121.60 0.06216
1121.70 0.06217
1121.80 0.06218
1121.90 0.06219
1122.00 0.0622
1122.10 0.06221
1122.20 0.06223
1122.30 0.06224
1122.40 0.06225
1122.50 0.06227
1122.60 0.06228
1122.70 0.06229
1122.80 0.06231
1122.90 0.06232
1123.00 0.06233
1123.10 0.06234
1123.20 0.06236
1123.30 0.06237
1123.40 0.06238
1123.50 0.0624
1123.60 0.06241
1123.70 0.06242
1123.80 0.06243
1123.90 0.06245
1124.00 0.06246
1124.10 0.06247
1124.20 0.06249
1124.30 0.0625
1124.40 0.06251
1124.50 0.06252
1124.60 0.06254
1124.70 0.06255
1124.80 0.06256
1124.90 0.06257
1125.00 0.06259
1125.10 0.0626
1125.20 0.06261
1125.30 0.06263
1125.40 0.06264
1125.50 0.06265
1125.60 0.06266
1125.70 0.06268
1125.80 0.06269
1125.90 0.0627
1126.00 0.06271
1126.10 0.06273
1126.20 0.06274
1126.30 0.06275
1126.40 0.06277
1126.50 0.06278
1126.60 0.06279
1126.70 0.0628
1126.80 0.06282
1126.90 0.06283
1127.00 0.06284
1127.10 0.06286
1127.20 0.06287
1127.30 0.06289
1127.40 0.06291
1127.50 0.06292
1127.60 0.06294
1127.70 0.06295
1127.80 0.06297
1127.90 0.06298
1128.00 0.063
1128.10 0.06302
1128.20 0.06303
1128.30 0.06305
1128.40 0.06306
1128.50 0.06308
1128.60 0.0631
1128.70 0.06311
1128.80 0.06313
1128.90 0.06314
1129.00 0.06316
1129.10 0.06317
1129.20 0.06319
1129.30 0.06321
1129.40 0.06322
1129.50 0.06324
1129.60 0.06325
1129.70 0.06327
1129.80 0.06328
1129.90 0.0633
1130.00 0.06332
1130.10 0.06333
1130.20 0.06335
1130.30 0.06336
1130.40 0.06338
1130.50 0.06339
1130.60 0.06341
1130.70 0.06343
1130.80 0.06344
1130.90 0.06346
1131.00 0.06347
1131.10 0.06349
1131.20 0.0635
1131.30 0.06352
1131.40 0.06354
1131.50 0.06355
1131.60 0.06357
1131.70 0.06358
1131.80 0.0636
1131.90 0.06361
1132.00 0.06363
1132.10 0.06364
1132.20 0.06366
1132.30 0.06367
1132.40 0.06369
1132.50 0.06371
1132.60 0.06372
1132.70 0.06374
1132.80 0.06375
1132.90 0.06377
1133.00 0.06378
1133.10 0.0638
1133.20 0.06381
1133.30 0.06383
1133.40 0.06384
1133.50 0.06386
1133.60 0.06387
1133.70 0.06389
1133.80 0.0639
1133.90 0.06392
1134.00 0.06393
1134.10 0.06395
1134.20 0.06396
1134.30 0.06398
1134.40 0.06399
1134.50 0.06401
1134.60 0.06402
1134.70 0.06404
1134.80 0.06405
1134.90 0.06407
1135.00 0.06408
1135.10 0.0641
1135.20 0.06411
1135.30 0.06413
1135.40 0.06414
1135.50 0.06415
1135.60 0.06417
1135.70 0.06418
1135.80 0.0642
1135.90 0.06421
1136.00 0.06423
1136.10 0.06424
1136.20 0.06426
1136.30 0.06427
1136.40 0.06429
1136.50 0.0643
1136.60 0.06432
1136.70 0.06433
1136.80 0.06435
1136.90 0.06436
1137.00 0.06438
1137.10 0.06439
1137.20 0.06441
1137.30 0.06442
1137.40 0.06444
1137.50 0.06445
1137.60 0.06447
1137.70 0.06448
1137.80 0.0645
1137.90 0.06452
1138.00 0.06453
1138.10 0.06455
1138.20 0.06456
1138.30 0.06458
1138.40 0.06459
1138.50 0.06461
1138.60 0.06462
1138.70 0.06464
1138.80 0.06465
1138.90 0.06467
1139.00 0.06468
1139.10 0.0647
1139.20 0.06471
1139.30 0.06473
1139.40 0.06474
1139.50 0.06476
1139.60 0.06477
1139.70 0.06479
1139.80 0.0648
1139.90 0.06482
1140.00 0.06483
1140.10 0.06485
1140.20 0.06487
1140.30 0.06488
1140.40 0.0649
1140.50 0.06491
1140.60 0.06493
1140.70 0.06494
1140.80 0.06496
1140.90 0.06497
1141.00 0.06499
1141.10 0.065
1141.20 0.06502
1141.30 0.06503
1141.40 0.06505
1141.50 0.06506
1141.60 0.06508
1141.70 0.06509
1141.80 0.06511
1141.90 0.06512
1142.00 0.06514
1142.10 0.06515
1142.20 0.06517
1142.30 0.06519
1142.40 0.0652
1142.50 0.06522
1142.60 0.06524
1142.70 0.06525
1142.80 0.06527
1142.90 0.06528
1143.00 0.0653
1143.10 0.06532
1143.20 0.06533
1143.30 0.06535
1143.40 0.06537
1143.50 0.06538
1143.60 0.0654
1143.70 0.06542
1143.80 0.06543
1143.90 0.06545
1144.00 0.06546
1144.10 0.06548
1144.20 0.0655
1144.30 0.06551
1144.40 0.06553
1144.50 0.06555
1144.60 0.06556
1144.70 0.06558
1144.80 0.0656
1144.90 0.06561
1145.00 0.06563
1145.10 0.06564
1145.20 0.06566
1145.30 0.06568
1145.40 0.06569
1145.50 0.06571
1145.60 0.06573
1145.70 0.06574
1145.80 0.06576
1145.90 0.06577
1146.00 0.06579
1146.10 0.06581
1146.20 0.06582
1146.30 0.06584
1146.40 0.06585
1146.50 0.06587
1146.60 0.06589
1146.70 0.0659
1146.80 0.06592
1146.90 0.06594
1147.00 0.06595
1147.10 0.06596
1147.20 0.06598
1147.30 0.06599
1147.40 0.066
1147.50 0.06602
1147.60 0.06603
1147.70 0.06604
1147.80 0.06606
1147.90 0.06607
1148.00 0.06608
1148.10 0.0661
1148.20 0.06611
1148.30 0.06612
1148.40 0.06613
1148.50 0.06615
1148.60 0.06616
1148.70 0.06617
1148.80 0.06619
1148.90 0.0662
1149.00 0.06621
1149.10 0.06623
1149.20 0.06624
1149.30 0.06625
1149.40 0.06626
1149.50 0.06628
1149.60 0.06629
1149.70 0.0663
1149.80 0.06632
1149.90 0.06633
1150.00 0.06634
1150.10 0.06636
1150.20 0.06637
1150.30 0.06638
1150.40 0.06639
1150.50 0.06641
1150.60 0.06642
1150.70 0.06643
1150.80 0.06645
1150.90 0.06646
1151.00 0.06647
1151.10 0.06648
1151.20 0.0665
1151.30 0.06651
1151.40 0.06652
1151.50 0.06654
1151.60 0.06655
1151.70 0.06656
1151.80 0.06658
1151.90 0.06659
1152.00 0.0666
1152.10 0.06661
1152.20 0.06663
1152.30 0.06664
1152.40 0.06665
1152.50 0.06666
1152.60 0.06668
1152.70 0.06669
1152.80 0.0667
1152.90 0.06672
1153.00 0.06673
1153.10 0.06674
1153.20 0.06675
1153.30 0.06677
1153.40 0.06678
1153.50 0.06679
1153.60 0.0668
1153.70 0.06682
1153.80 0.06683
1153.90 0.06684
1154.00 0.06685
1154.10 0.06687
1154.20 0.06688
1154.30 0.06689
1154.40 0.06691
1154.50 0.06692
1154.60 0.06693
1154.70 0.06694
1154.80 0.06696
1154.90 0.06697
1155.00 0.06698
1155.10 0.06699
1155.20 0.06701
1155.30 0.06702
1155.40 0.06703
1155.50 0.06704
1155.60 0.06706
1155.70 0.06707
1155.80 0.06708
1155.90 0.06709
1156.00 0.06711
1156.10 0.06712
1156.20 0.06713
1156.30 0.06714
1156.40 0.06716
1156.50 0.06717
1156.60 0.06718
1156.70 0.06719
1156.80 0.06721
1156.90 0.06722
1157.00 0.06723
1157.10 0.06724
1157.20 0.06725
1157.30 0.06726
1157.40 0.06727
1157.50 0.06728
1157.60 0.06729
1157.70 0.06729
1157.80 0.0673
1157.90 0.06731
1158.00 0.06732
1158.10 0.06733
1158.20 0.06734
1158.30 0.06735
1158.40 0.06736
1158.50 0.06737
1158.60 0.06737
1158.70 0.06738
1158.80 0.06739
1158.90 0.0674
1159.00 0.06741
1159.10 0.06742
1159.20 0.06743
1159.30 0.06744
1159.40 0.06745
1159.50 0.06745
1159.60 0.06746
1159.70 0.06747
1159.80 0.06748
1159.90 0.06749
1160.00 0.0675
1160.10 0.06751
1160.20 0.06752
1160.30 0.06752
1160.40 0.06753
1160.50 0.06754
1160.60 0.06755
1160.70 0.06756
1160.80 0.06757
1160.90 0.06758
1161.00 0.06759
1161.10 0.0676
1161.20 0.0676
1161.30 0.06761
1161.40 0.06762
1161.50 0.06763
1161.60 0.06764
1161.70 0.06765
1161.80 0.06766
1161.90 0.06767
1162.00 0.06767
1162.10 0.06768
1162.20 0.06769
1162.30 0.06769
1162.40 0.0677
1162.50 0.0677
1162.60 0.06771
1162.70 0.06772
1162.80 0.06772
1162.90 0.06773
1163.00 0.06773
1163.10 0.06774
1163.20 0.06775
1163.30 0.06775
1163.40 0.06776
1163.50 0.06776
1163.60 0.06777
1163.70 0.06777
1163.80 0.06778
1163.90 0.06779
1164.00 0.06779
1164.10 0.0678
1164.20 0.0678
1164.30 0.06781
1164.40 0.06782
1164.50 0.06782
1164.60 0.06783
1164.70 0.06783
1164.80 0.06784
1164.90 0.06784
1165.00 0.06785
1165.10 0.06786
1165.20 0.06786
1165.30 0.06787
1165.40 0.06787
1165.50 0.06788
1165.60 0.06789
1165.70 0.06789
1165.80 0.0679
1165.90 0.0679
1166.00 0.06791
1166.10 0.06791
1166.20 0.06792
1166.30 0.06793
1166.40 0.06793
1166.50 0.06794
1166.60 0.06794
1166.70 0.06795
1166.80 0.06796
1166.90 0.06796
1167.00 0.06797
1167.10 0.06797
1167.20 0.06798
1167.30 0.06798
1167.40 0.06798
1167.50 0.06799
1167.60 0.06799
1167.70 0.068
1167.80 0.068
1167.90 0.068
1168.00 0.06801
1168.10 0.06801
1168.20 0.06802
1168.30 0.06802
1168.40 0.06803
1168.50 0.06803
1168.60 0.06803
1168.70 0.06804
1168.80 0.06804
1168.90 0.06805
1169.00 0.06805
1169.10 0.06805
1169.20 0.06806
1169.30 0.06806
1169.40 0.06807
1169.50 0.06807
1169.60 0.06808
1169.70 0.06808
1169.80 0.06808
1169.90 0.06809
1170.00 0.06809
1170.10 0.0681
1170.20 0.0681
1170.30 0.0681
1170.40 0.06811
1170.50 0.06811
1170.60 0.06812
1170.70 0.06812
1170.80 0.06813
1170.90 0.06813
1171.00 0.06813
1171.10 0.06814
1171.20 0.06814
1171.30 0.06815
1171.40 0.06815
1171.50 0.06815
1171.60 0.06816
1171.70 0.06816
1171.80 0.06817
1171.90 0.06817
1172.00 0.06818
1172.10 0.06817
1172.20 0.06817
1172.30 0.06817
1172.40 0.06817
1172.50 0.06817
1172.60 0.06817
1172.70 0.06817
1172.80 0.06817
1172.90 0.06817
1173.00 0.06817
1173.10 0.06817
1173.20 0.06816
1173.30 0.06816
1173.40 0.06816
1173.50 0.06816
1173.60 0.06816
1173.70 0.06816
1173.80 0.06816
1173.90 0.06816
1174.00 0.06816
1174.10 0.06816
1174.20 0.06816
1174.30 0.06816
1174.40 0.06815
1174.50 0.06815
1174.60 0.06815
1174.70 0.06815
1174.80 0.06815
1174.90 0.06815
1175.00 0.06815
1175.10 0.06815
1175.20 0.06815
1175.30 0.06815
1175.40 0.06815
1175.50 0.06815
1175.60 0.06814
1175.70 0.06814
1175.80 0.06814
1175.90 0.06814
1176.00 0.06814
1176.10 0.06814
1176.20 0.06814
1176.30 0.06814
1176.40 0.06814
1176.50 0.06814
1176.60 0.06814
1176.70 0.06813
1176.80 0.06813
1176.90 0.06813
1177.00 0.06813
1177.10 0.06813
1177.20 0.06812
1177.30 0.06812
1177.40 0.06811
1177.50 0.06811
1177.60 0.0681
1177.70 0.0681
1177.80 0.0681
1177.90 0.06809
1178.00 0.06809
1178.10 0.06808
1178.20 0.06808
1178.30 0.06807
1178.40 0.06807
1178.50 0.06806
1178.60 0.06806
1178.70 0.06806
1178.80 0.06805
1178.90 0.06805
1179.00 0.06804
1179.10 0.06804
1179.20 0.06803
1179.30 0.06803
1179.40 0.06802
1179.50 0.06802
1179.60 0.06801
1179.70 0.06801
1179.80 0.06801
1179.90 0.068
1180.00 0.068
1180.10 0.06799
1180.20 0.06799
1180.30 0.06798
1180.40 0.06798
1180.50 0.06797
1180.60 0.06797
1180.70 0.06797
1180.80 0.06796
1180.90 0.06796
1181.00 0.06795
1181.10 0.06795
1181.20 0.06794
1181.30 0.06794
1181.40 0.06793
1181.50 0.06793
1181.60 0.06792
1181.70 0.06792
1181.80 0.06792
1181.90 0.06791
1182.00 0.06791
1182.10 0.0679
1182.20 0.06789
1182.30 0.06788
1182.40 0.06787
1182.50 0.06786
1182.60 0.06785
1182.70 0.06784
1182.80 0.06783
1182.90 0.06782
1183.00 0.06781
1183.10 0.0678
1183.20 0.06779
1183.30 0.06778
1183.40 0.06777
1183.50 0.06776
1183.60 0.06775
1183.70 0.06774
1183.80 0.06773
1183.90 0.06772
1184.00 0.06771
1184.10 0.0677
1184.20 0.06769
1184.30 0.06768
1184.40 0.06767
1184.50 0.06766
1184.60 0.06765
1184.70 0.06764
1184.80 0.06763
1184.90 0.06762
1185.00 0.06761
1185.10 0.0676
1185.20 0.06759
1185.30 0.06758
1185.40 0.06757
1185.50 0.06756
1185.60 0.06755
1185.70 0.06754
1185.80 0.06753
1185.90 0.06752
1186.00 0.06751
1186.10 0.0675
1186.20 0.06749
1186.30 0.06748
1186.40 0.06747
1186.50 0.06746
1186.60 0.06745
1186.70 0.06744
1186.80 0.06743
1186.90 0.06742
1187.00 0.06741
1187.10 0.0674
1187.20 0.06739
1187.30 0.06738
1187.40 0.06737
1187.50 0.06736
1187.60 0.06736
1187.70 0.06735
1187.80 0.06734
1187.90 0.06733
1188.00 0.06732
1188.10 0.06731
1188.20 0.0673
1188.30 0.06729
1188.40 0.06728
1188.50 0.06727
1188.60 0.06726
1188.70 0.06725
1188.80 0.06725
1188.90 0.06724
1189.00 0.06723
1189.10 0.06722
1189.20 0.06721
1189.30 0.0672
1189.40 0.06719
1189.50 0.06718
1189.60 0.06717
1189.70 0.06716
1189.80 0.06716
1189.90 0.06715
1190.00 0.06714
1190.10 0.06713
1190.20 0.06712
1190.30 0.06711
1190.40 0.0671
1190.50 0.06709
1190.60 0.06708
1190.70 0.06707
1190.80 0.06706
1190.90 0.06706
1191.00 0.06705
1191.10 0.06704
1191.20 0.06703
1191.30 0.06702
1191.40 0.06701
1191.50 0.067
1191.60 0.06699
1191.70 0.06698
1191.80 0.06697
1191.90 0.06697
1192.00 0.06696
1192.10 0.06695
1192.20 0.06694
1192.30 0.06693
1192.40 0.06691
1192.50 0.0669
1192.60 0.06689
1192.70 0.06688
1192.80 0.06687
1192.90 0.06686
1193.00 0.06685
1193.10 0.06684
1193.20 0.06683
1193.30 0.06682
1193.40 0.06681
1193.50 0.0668
1193.60 0.06679
1193.70 0.06678
1193.80 0.06677
1193.90 0.06676
1194.00 0.06675
1194.10 0.06674
1194.20 0.06673
1194.30 0.06672
1194.40 0.06671
1194.50 0.0667
1194.60 0.06669
1194.70 0.06668
1194.80 0.06667
1194.90 0.06666
1195.00 0.06665
1195.10 0.06664
1195.20 0.06663
1195.30 0.06662
1195.40 0.06661
1195.50 0.0666
1195.60 0.06659
1195.70 0.06658
1195.80 0.06657
1195.90 0.06656
1196.00 0.06655
1196.10 0.06654
1196.20 0.06653
1196.30 0.06652
1196.40 0.06651
1196.50 0.0665
1196.60 0.06649
1196.70 0.06648
1196.80 0.06647
1196.90 0.06646
1197.00 0.06645
1197.10 0.06643
1197.20 0.06642
1197.30 0.06641
1197.40 0.06639
1197.50 0.06638
1197.60 0.06636
1197.70 0.06635
1197.80 0.06634
1197.90 0.06632
1198.00 0.06631
1198.10 0.0663
1198.20 0.06628
1198.30 0.06627
1198.40 0.06625
1198.50 0.06624
1198.60 0.06623
1198.70 0.06621
1198.80 0.0662
1198.90 0.06619
1199.00 0.06617
1199.10 0.06616
1199.20 0.06614
1199.30 0.06613
1199.40 0.06612
1199.50 0.0661
1199.60 0.06609
1199.70 0.06608
1199.80 0.06606
1199.90 0.06605
1200.00 0
