# Version 2.1 - nm, norm@500 to 1, cut digits, bergeron_65000_85.dat_65000
# Wavelength(nm)  Flambda(ergs/cm^s/s/nm)
300.00 6.495
300.10 6.487
300.20 6.479
300.30 6.471
300.40 6.463
300.50 6.455
300.60 6.448
300.70 6.44
300.80 6.432
300.90 6.424
301.00 6.416
301.10 6.408
301.20 6.4
301.30 6.392
301.40 6.385
301.50 6.377
301.60 6.369
301.70 6.361
301.80 6.353
301.90 6.346
302.00 6.338
302.10 6.33
302.20 6.322
302.30 6.315
302.40 6.307
302.50 6.299
302.60 6.292
302.70 6.284
302.80 6.276
302.90 6.269
303.00 6.261
303.10 6.253
303.20 6.246
303.30 6.238
303.40 6.231
303.50 6.223
303.60 6.216
303.70 6.208
303.80 6.2
303.90 6.193
304.00 6.185
304.10 6.178
304.20 6.17
304.30 6.163
304.40 6.155
304.50 6.148
304.60 6.141
304.70 6.133
304.80 6.126
304.90 6.118
305.00 6.111
305.10 6.103
305.20 6.096
305.30 6.089
305.40 6.081
305.50 6.074
305.60 6.067
305.70 6.059
305.80 6.052
305.90 6.045
306.00 6.037
306.10 6.03
306.20 6.023
306.30 6.016
306.40 6.008
306.50 6.001
306.60 5.994
306.70 5.987
306.80 5.979
306.90 5.972
307.00 5.965
307.10 5.958
307.20 5.951
307.30 5.944
307.40 5.936
307.50 5.929
307.60 5.922
307.70 5.915
307.80 5.908
307.90 5.901
308.00 5.894
308.10 5.887
308.20 5.88
308.30 5.873
308.40 5.866
308.50 5.859
308.60 5.852
308.70 5.845
308.80 5.838
308.90 5.831
309.00 5.824
309.10 5.817
309.20 5.81
309.30 5.803
309.40 5.796
309.50 5.789
309.60 5.782
309.70 5.775
309.80 5.768
309.90 5.761
310.00 5.755
310.10 5.748
310.20 5.741
310.30 5.734
310.40 5.727
310.50 5.72
310.60 5.714
310.70 5.707
310.80 5.7
310.90 5.693
311.00 5.686
311.10 5.68
311.20 5.673
311.30 5.666
311.40 5.66
311.50 5.653
311.60 5.646
311.70 5.639
311.80 5.633
311.90 5.626
312.00 5.619
312.10 5.613
312.20 5.606
312.30 5.599
312.40 5.593
312.50 5.586
312.60 5.58
312.70 5.573
312.80 5.566
312.90 5.56
313.00 5.553
313.10 5.547
313.20 5.54
313.30 5.534
313.40 5.527
313.50 5.521
313.60 5.514
313.70 5.508
313.80 5.501
313.90 5.495
314.00 5.488
314.10 5.482
314.20 5.475
314.30 5.469
314.40 5.462
314.50 5.456
314.60 5.45
314.70 5.443
314.80 5.437
314.90 5.43
315.00 5.424
315.10 5.418
315.20 5.411
315.30 5.405
315.40 5.399
315.50 5.392
315.60 5.386
315.70 5.38
315.80 5.373
315.90 5.367
316.00 5.361
316.10 5.354
316.20 5.348
316.30 5.342
316.40 5.336
316.50 5.329
316.60 5.323
316.70 5.317
316.80 5.311
316.90 5.305
317.00 5.298
317.10 5.292
317.20 5.286
317.30 5.28
317.40 5.274
317.50 5.268
317.60 5.261
317.70 5.255
317.80 5.249
317.90 5.243
318.00 5.237
318.10 5.231
318.20 5.225
318.30 5.219
318.40 5.213
318.50 5.207
318.60 5.201
318.70 5.195
318.80 5.189
318.90 5.183
319.00 5.176
319.10 5.17
319.20 5.165
319.30 5.159
319.40 5.153
319.50 5.147
319.60 5.141
319.70 5.135
319.80 5.129
319.90 5.123
320.00 5.117
320.10 5.111
320.20 5.105
320.30 5.099
320.40 5.093
320.50 5.087
320.60 5.081
320.70 5.076
320.80 5.07
320.90 5.064
321.00 5.058
321.10 5.052
321.20 5.046
321.30 5.041
321.40 5.035
321.50 5.029
321.60 5.023
321.70 5.017
321.80 5.012
321.90 5.006
322.00 5
322.10 4.994
322.20 4.989
322.30 4.983
322.40 4.977
322.50 4.971
322.60 4.966
322.70 4.96
322.80 4.954
322.90 4.949
323.00 4.943
323.10 4.937
323.20 4.932
323.30 4.926
323.40 4.92
323.50 4.915
323.60 4.909
323.70 4.904
323.80 4.898
323.90 4.892
324.00 4.887
324.10 4.881
324.20 4.876
324.30 4.87
324.40 4.864
324.50 4.859
324.60 4.853
324.70 4.848
324.80 4.842
324.90 4.837
325.00 4.831
325.10 4.826
325.20 4.82
325.30 4.815
325.40 4.809
325.50 4.804
325.60 4.798
325.70 4.793
325.80 4.787
325.90 4.782
326.00 4.777
326.10 4.771
326.20 4.766
326.30 4.76
326.40 4.755
326.50 4.749
326.60 4.744
326.70 4.739
326.80 4.733
326.90 4.728
327.00 4.723
327.10 4.717
327.20 4.712
327.30 4.707
327.40 4.701
327.50 4.696
327.60 4.691
327.70 4.685
327.80 4.68
327.90 4.675
328.00 4.669
328.10 4.664
328.20 4.659
328.30 4.654
328.40 4.648
328.50 4.643
328.60 4.638
328.70 4.633
328.80 4.627
328.90 4.622
329.00 4.617
329.10 4.612
329.20 4.607
329.30 4.601
329.40 4.596
329.50 4.591
329.60 4.586
329.70 4.581
329.80 4.576
329.90 4.57
330.00 4.565
330.10 4.56
330.20 4.555
330.30 4.55
330.40 4.545
330.50 4.54
330.60 4.535
330.70 4.53
330.80 4.525
330.90 4.52
331.00 4.514
331.10 4.509
331.20 4.504
331.30 4.499
331.40 4.494
331.50 4.489
331.60 4.484
331.70 4.479
331.80 4.474
331.90 4.469
332.00 4.464
332.10 4.459
332.20 4.454
332.30 4.449
332.40 4.444
332.50 4.439
332.60 4.434
332.70 4.429
332.80 4.425
332.90 4.42
333.00 4.415
333.10 4.41
333.20 4.405
333.30 4.4
333.40 4.395
333.50 4.39
333.60 4.385
333.70 4.38
333.80 4.375
333.90 4.371
334.00 4.366
334.10 4.361
334.20 4.356
334.30 4.351
334.40 4.346
334.50 4.342
334.60 4.337
334.70 4.332
334.80 4.327
334.90 4.322
335.00 4.318
335.10 4.313
335.20 4.308
335.30 4.303
335.40 4.299
335.50 4.294
335.60 4.289
335.70 4.284
335.80 4.28
335.90 4.275
336.00 4.27
336.10 4.265
336.20 4.261
336.30 4.256
336.40 4.251
336.50 4.247
336.60 4.242
336.70 4.237
336.80 4.233
336.90 4.228
337.00 4.223
337.10 4.219
337.20 4.214
337.30 4.209
337.40 4.205
337.50 4.2
337.60 4.195
337.70 4.191
337.80 4.186
337.90 4.182
338.00 4.177
338.10 4.172
338.20 4.168
338.30 4.163
338.40 4.159
338.50 4.154
338.60 4.15
338.70 4.145
338.80 4.14
338.90 4.136
339.00 4.131
339.10 4.127
339.20 4.122
339.30 4.118
339.40 4.113
339.50 4.109
339.60 4.104
339.70 4.1
339.80 4.095
339.90 4.091
340.00 4.086
340.10 4.082
340.20 4.077
340.30 4.073
340.40 4.069
340.50 4.064
340.60 4.06
340.70 4.055
340.80 4.051
340.90 4.047
341.00 4.042
341.10 4.038
341.20 4.033
341.30 4.029
341.40 4.025
341.50 4.02
341.60 4.016
341.70 4.011
341.80 4.007
341.90 4.003
342.00 3.998
342.10 3.994
342.20 3.99
342.30 3.985
342.40 3.981
342.50 3.977
342.60 3.972
342.70 3.968
342.80 3.964
342.90 3.959
343.00 3.955
343.10 3.951
343.20 3.947
343.30 3.942
343.40 3.938
343.50 3.934
343.60 3.93
343.70 3.925
343.80 3.921
343.90 3.917
344.00 3.913
344.10 3.908
344.20 3.904
344.30 3.9
344.40 3.896
344.50 3.892
344.60 3.887
344.70 3.883
344.80 3.879
344.90 3.875
345.00 3.871
345.10 3.866
345.20 3.862
345.30 3.858
345.40 3.854
345.50 3.85
345.60 3.846
345.70 3.842
345.80 3.837
345.90 3.833
346.00 3.829
346.10 3.825
346.20 3.821
346.30 3.817
346.40 3.813
346.50 3.809
346.60 3.805
346.70 3.8
346.80 3.796
346.90 3.792
347.00 3.788
347.10 3.784
347.20 3.78
347.30 3.776
347.40 3.772
347.50 3.768
347.60 3.764
347.70 3.76
347.80 3.756
347.90 3.752
348.00 3.748
348.10 3.744
348.20 3.74
348.30 3.736
348.40 3.732
348.50 3.728
348.60 3.724
348.70 3.72
348.80 3.716
348.90 3.712
349.00 3.708
349.10 3.704
349.20 3.7
349.30 3.696
349.40 3.692
349.50 3.688
349.60 3.684
349.70 3.681
349.80 3.677
349.90 3.673
350.00 3.669
350.10 3.665
350.20 3.661
350.30 3.657
350.40 3.653
350.50 3.649
350.60 3.646
350.70 3.642
350.80 3.638
350.90 3.634
351.00 3.63
351.10 3.626
351.20 3.622
351.30 3.619
351.40 3.615
351.50 3.611
351.60 3.607
351.70 3.603
351.80 3.599
351.90 3.596
352.00 3.592
352.10 3.588
352.20 3.584
352.30 3.58
352.40 3.577
352.50 3.573
352.60 3.569
352.70 3.565
352.80 3.562
352.90 3.558
353.00 3.554
353.10 3.55
353.20 3.547
353.30 3.543
353.40 3.539
353.50 3.535
353.60 3.532
353.70 3.528
353.80 3.524
353.90 3.521
354.00 3.517
354.10 3.513
354.20 3.509
354.30 3.506
354.40 3.502
354.50 3.498
354.60 3.495
354.70 3.491
354.80 3.487
354.90 3.484
355.00 3.48
355.10 3.476
355.20 3.473
355.30 3.469
355.40 3.466
355.50 3.462
355.60 3.458
355.70 3.455
355.80 3.451
355.90 3.447
356.00 3.444
356.10 3.44
356.20 3.437
356.30 3.433
356.40 3.429
356.50 3.426
356.60 3.422
356.70 3.419
356.80 3.415
356.90 3.412
357.00 3.408
357.10 3.405
357.20 3.401
357.30 3.397
357.40 3.394
357.50 3.39
357.60 3.387
357.70 3.383
357.80 3.38
357.90 3.376
358.00 3.373
358.10 3.369
358.20 3.366
358.30 3.362
358.40 3.359
358.50 3.355
358.60 3.352
358.70 3.348
358.80 3.345
358.90 3.341
359.00 3.338
359.10 3.334
359.20 3.331
359.30 3.327
359.40 3.324
359.50 3.321
359.60 3.317
359.70 3.314
359.80 3.31
359.90 3.307
360.00 3.303
360.10 3.3
360.20 3.297
360.30 3.293
360.40 3.29
360.50 3.286
360.60 3.283
360.70 3.28
360.80 3.276
360.90 3.273
361.00 3.269
361.10 3.266
361.20 3.263
361.30 3.259
361.40 3.256
361.50 3.253
361.60 3.249
361.70 3.246
361.80 3.243
361.90 3.239
362.00 3.236
362.10 3.233
362.20 3.229
362.30 3.226
362.40 3.223
362.50 3.219
362.60 3.216
362.70 3.213
362.80 3.209
362.90 3.206
363.00 3.203
363.10 3.199
363.20 3.196
363.30 3.193
363.40 3.19
363.50 3.186
363.60 3.183
363.70 3.18
363.80 3.177
363.90 3.173
364.00 3.17
364.10 3.167
364.20 3.164
364.30 3.16
364.40 3.157
364.50 3.154
364.60 3.151
364.70 3.147
364.80 3.144
364.90 3.141
365.00 3.138
365.10 3.135
365.20 3.131
365.30 3.128
365.40 3.125
365.50 3.122
365.60 3.119
365.70 3.115
365.80 3.112
365.90 3.109
366.00 3.106
366.10 3.103
366.20 3.1
366.30 3.096
366.40 3.093
366.50 3.09
366.60 3.087
366.70 3.084
366.80 3.08
366.90 3.077
367.00 3.074
367.10 3.071
367.20 3.068
367.30 3.064
367.40 3.061
367.50 3.058
367.60 3.055
367.70 3.052
367.80 3.049
367.90 3.046
368.00 3.042
368.10 3.039
368.20 3.036
368.30 3.033
368.40 3.03
368.50 3.027
368.60 3.023
368.70 3.02
368.80 3.017
368.90 3.014
369.00 3.011
369.10 3.008
369.20 3.004
369.30 3.001
369.40 2.998
369.50 2.995
369.60 2.992
369.70 2.989
369.80 2.986
369.90 2.982
370.00 2.979
370.10 2.976
370.20 2.973
370.30 2.97
370.40 2.967
370.50 2.964
370.60 2.961
370.70 2.958
370.80 2.955
370.90 2.952
371.00 2.949
371.10 2.946
371.20 2.943
371.30 2.94
371.40 2.936
371.50 2.933
371.60 2.93
371.70 2.927
371.80 2.924
371.90 2.921
372.00 2.918
372.10 2.915
372.20 2.912
372.30 2.91
372.40 2.907
372.50 2.904
372.60 2.901
372.70 2.898
372.80 2.895
372.90 2.892
373.00 2.889
373.10 2.886
373.20 2.883
373.30 2.88
373.40 2.877
373.50 2.875
373.60 2.872
373.70 2.869
373.80 2.866
373.90 2.863
374.00 2.86
374.10 2.857
374.20 2.854
374.30 2.851
374.40 2.848
374.50 2.845
374.60 2.843
374.70 2.84
374.80 2.837
374.90 2.834
375.00 2.831
375.10 2.828
375.20 2.825
375.30 2.822
375.40 2.819
375.50 2.817
375.60 2.814
375.70 2.811
375.80 2.808
375.90 2.805
376.00 2.802
376.10 2.799
376.20 2.796
376.30 2.794
376.40 2.791
376.50 2.788
376.60 2.785
376.70 2.782
376.80 2.78
376.90 2.777
377.00 2.774
377.10 2.771
377.20 2.768
377.30 2.766
377.40 2.763
377.50 2.76
377.60 2.757
377.70 2.755
377.80 2.752
377.90 2.749
378.00 2.746
378.10 2.744
378.20 2.741
378.30 2.738
378.40 2.736
378.50 2.733
378.60 2.73
378.70 2.728
378.80 2.725
378.90 2.722
379.00 2.72
379.10 2.717
379.20 2.714
379.30 2.712
379.40 2.709
379.50 2.706
379.60 2.704
379.70 2.701
379.80 2.698
379.90 2.696
380.00 2.693
380.10 2.691
380.20 2.688
380.30 2.685
380.40 2.683
380.50 2.68
380.60 2.678
380.70 2.675
380.80 2.673
380.90 2.67
381.00 2.668
381.10 2.665
381.20 2.662
381.30 2.66
381.40 2.657
381.50 2.655
381.60 2.652
381.70 2.65
381.80 2.647
381.90 2.645
382.00 2.642
382.10 2.64
382.20 2.637
382.30 2.635
382.40 2.632
382.50 2.63
382.60 2.627
382.70 2.624
382.80 2.622
382.90 2.619
383.00 2.617
383.10 2.614
383.20 2.612
383.30 2.61
383.40 2.607
383.50 2.605
383.60 2.602
383.70 2.6
383.80 2.598
383.90 2.595
384.00 2.593
384.10 2.591
384.20 2.588
384.30 2.586
384.40 2.584
384.50 2.582
384.60 2.579
384.70 2.577
384.80 2.575
384.90 2.572
385.00 2.57
385.10 2.568
385.20 2.566
385.30 2.563
385.40 2.561
385.50 2.559
385.60 2.556
385.70 2.554
385.80 2.551
385.90 2.549
386.00 2.547
386.10 2.544
386.20 2.542
386.30 2.539
386.40 2.537
386.50 2.534
386.60 2.532
386.70 2.529
386.80 2.527
386.90 2.524
387.00 2.522
387.10 2.519
387.20 2.517
387.30 2.514
387.40 2.512
387.50 2.509
387.60 2.507
387.70 2.504
387.80 2.502
387.90 2.499
388.00 2.497
388.10 2.494
388.20 2.492
388.30 2.489
388.40 2.487
388.50 2.484
388.60 2.482
388.70 2.48
388.80 2.477
388.90 2.475
389.00 2.473
389.10 2.471
389.20 2.469
389.30 2.467
389.40 2.465
389.50 2.464
389.60 2.462
389.70 2.46
389.80 2.458
389.90 2.457
390.00 2.455
390.10 2.453
390.20 2.451
390.30 2.45
390.40 2.448
390.50 2.446
390.60 2.444
390.70 2.442
390.80 2.441
390.90 2.439
391.00 2.437
391.10 2.435
391.20 2.433
391.30 2.431
391.40 2.429
391.50 2.427
391.60 2.425
391.70 2.423
391.80 2.421
391.90 2.419
392.00 2.417
392.10 2.414
392.20 2.412
392.30 2.41
392.40 2.408
392.50 2.405
392.60 2.403
392.70 2.4
392.80 2.398
392.90 2.395
393.00 2.393
393.10 2.39
393.20 2.388
393.30 2.385
393.40 2.382
393.50 2.38
393.60 2.377
393.70 2.374
393.80 2.371
393.90 2.368
394.00 2.366
394.10 2.363
394.20 2.36
394.30 2.357
394.40 2.353
394.50 2.35
394.60 2.347
394.70 2.344
394.80 2.341
394.90 2.338
395.00 2.334
395.10 2.331
395.20 2.328
395.30 2.324
395.40 2.321
395.50 2.317
395.60 2.314
395.70 2.31
395.80 2.307
395.90 2.303
396.00 2.3
396.10 2.296
396.20 2.293
396.30 2.289
396.40 2.286
396.50 2.283
396.60 2.279
396.70 2.276
396.80 2.273
396.90 2.27
397.00 2.267
397.10 2.266
397.20 2.265
397.30 2.265
397.40 2.264
397.50 2.264
397.60 2.263
397.70 2.263
397.80 2.262
397.90 2.262
398.00 2.262
398.10 2.262
398.20 2.261
398.30 2.261
398.40 2.261
398.50 2.26
398.60 2.26
398.70 2.26
398.80 2.259
398.90 2.259
399.00 2.258
399.10 2.258
399.20 2.257
399.30 2.257
399.40 2.256
399.50 2.255
399.60 2.255
399.70 2.254
399.80 2.253
399.90 2.252
400.00 2.252
400.10 2.251
400.20 2.25
400.30 2.249
400.40 2.248
400.50 2.247
400.60 2.246
400.70 2.245
400.80 2.243
400.90 2.242
401.00 2.241
401.10 2.24
401.20 2.238
401.30 2.237
401.40 2.236
401.50 2.234
401.60 2.233
401.70 2.231
401.80 2.229
401.90 2.228
402.00 2.226
402.10 2.225
402.20 2.223
402.30 2.221
402.40 2.219
402.50 2.217
402.60 2.215
402.70 2.214
402.80 2.212
402.90 2.21
403.00 2.208
403.10 2.205
403.20 2.203
403.30 2.201
403.40 2.199
403.50 2.197
403.60 2.194
403.70 2.192
403.80 2.19
403.90 2.187
404.00 2.185
404.10 2.182
404.20 2.18
404.30 2.177
404.40 2.174
404.50 2.172
404.60 2.169
404.70 2.166
404.80 2.163
404.90 2.16
405.00 2.158
405.10 2.155
405.20 2.151
405.30 2.148
405.40 2.145
405.50 2.142
405.60 2.139
405.70 2.135
405.80 2.132
405.90 2.129
406.00 2.125
406.10 2.121
406.20 2.118
406.30 2.114
406.40 2.11
406.50 2.107
406.60 2.103
406.70 2.099
406.80 2.095
406.90 2.09
407.00 2.086
407.10 2.082
407.20 2.078
407.30 2.073
407.40 2.069
407.50 2.064
407.60 2.06
407.70 2.055
407.80 2.05
407.90 2.045
408.00 2.04
408.10 2.035
408.20 2.03
408.30 2.025
408.40 2.02
408.50 2.015
408.60 2.009
408.70 2.004
408.80 1.999
408.90 1.993
409.00 1.988
409.10 1.983
409.20 1.977
409.30 1.972
409.40 1.967
409.50 1.962
409.60 1.957
409.70 1.953
409.80 1.95
409.90 1.947
410.00 1.946
410.10 1.946
410.20 1.946
410.30 1.942
410.40 1.939
410.50 1.937
410.60 1.937
410.70 1.938
410.80 1.939
410.90 1.94
411.00 1.942
411.10 1.944
411.20 1.946
411.30 1.948
411.40 1.95
411.50 1.952
411.60 1.953
411.70 1.955
411.80 1.957
411.90 1.959
412.00 1.961
412.10 1.962
412.20 1.964
412.30 1.966
412.40 1.967
412.50 1.968
412.60 1.97
412.70 1.971
412.80 1.972
412.90 1.973
413.00 1.974
413.10 1.975
413.20 1.976
413.30 1.976
413.40 1.977
413.50 1.978
413.60 1.978
413.70 1.979
413.80 1.979
413.90 1.979
414.00 1.98
414.10 1.98
414.20 1.98
414.30 1.98
414.40 1.98
414.50 1.98
414.60 1.98
414.70 1.98
414.80 1.98
414.90 1.98
415.00 1.979
415.10 1.979
415.20 1.979
415.30 1.978
415.40 1.978
415.50 1.977
415.60 1.977
415.70 1.976
415.80 1.975
415.90 1.975
416.00 1.974
416.10 1.973
416.20 1.973
416.30 1.972
416.40 1.971
416.50 1.97
416.60 1.969
416.70 1.968
416.80 1.967
416.90 1.966
417.00 1.965
417.10 1.964
417.20 1.963
417.30 1.962
417.40 1.961
417.50 1.96
417.60 1.959
417.70 1.958
417.80 1.957
417.90 1.955
418.00 1.954
418.10 1.953
418.20 1.952
418.30 1.95
418.40 1.949
418.50 1.948
418.60 1.946
418.70 1.945
418.80 1.944
418.90 1.942
419.00 1.941
419.10 1.94
419.20 1.938
419.30 1.937
419.40 1.935
419.50 1.934
419.60 1.932
419.70 1.931
419.80 1.929
419.90 1.928
420.00 1.926
420.10 1.925
420.20 1.923
420.30 1.922
420.40 1.92
420.50 1.919
420.60 1.917
420.70 1.915
420.80 1.914
420.90 1.912
421.00 1.911
421.10 1.909
421.20 1.907
421.30 1.906
421.40 1.904
421.50 1.902
421.60 1.901
421.70 1.899
421.80 1.897
421.90 1.896
422.00 1.894
422.10 1.892
422.20 1.891
422.30 1.889
422.40 1.887
422.50 1.885
422.60 1.884
422.70 1.882
422.80 1.88
422.90 1.878
423.00 1.877
423.10 1.875
423.20 1.873
423.30 1.871
423.40 1.869
423.50 1.867
423.60 1.866
423.70 1.864
423.80 1.862
423.90 1.86
424.00 1.858
424.10 1.856
424.20 1.854
424.30 1.852
424.40 1.85
424.50 1.848
424.60 1.847
424.70 1.845
424.80 1.843
424.90 1.841
425.00 1.839
425.10 1.837
425.20 1.834
425.30 1.832
425.40 1.83
425.50 1.828
425.60 1.826
425.70 1.824
425.80 1.822
425.90 1.82
426.00 1.818
426.10 1.815
426.20 1.813
426.30 1.811
426.40 1.809
426.50 1.806
426.60 1.804
426.70 1.802
426.80 1.799
426.90 1.797
427.00 1.795
427.10 1.792
427.20 1.79
427.30 1.787
427.40 1.785
427.50 1.782
427.60 1.779
427.70 1.777
427.80 1.774
427.90 1.771
428.00 1.769
428.10 1.766
428.20 1.763
428.30 1.76
428.40 1.757
428.50 1.754
428.60 1.751
428.70 1.748
428.80 1.745
428.90 1.742
429.00 1.739
429.10 1.736
429.20 1.732
429.30 1.729
429.40 1.726
429.50 1.722
429.60 1.719
429.70 1.715
429.80 1.711
429.90 1.708
430.00 1.704
430.10 1.7
430.20 1.696
430.30 1.692
430.40 1.688
430.50 1.683
430.60 1.679
430.70 1.675
430.80 1.67
430.90 1.666
431.00 1.661
431.10 1.656
431.20 1.651
431.30 1.646
431.40 1.641
431.50 1.636
431.60 1.631
431.70 1.625
431.80 1.62
431.90 1.614
432.00 1.609
432.10 1.603
432.20 1.597
432.30 1.591
432.40 1.585
432.50 1.579
432.60 1.573
432.70 1.566
432.80 1.56
432.90 1.554
433.00 1.548
433.10 1.541
433.20 1.535
433.30 1.529
433.40 1.523
433.50 1.517
433.60 1.511
433.70 1.504
433.80 1.498
433.90 1.49
434.00 1.484
434.10 1.483
434.20 1.487
434.30 1.492
434.40 1.496
434.50 1.5
434.60 1.504
434.70 1.507
434.80 1.511
434.90 1.514
435.00 1.518
435.10 1.522
435.20 1.525
435.30 1.529
435.40 1.533
435.50 1.536
435.60 1.54
435.70 1.543
435.80 1.546
435.90 1.549
436.00 1.553
436.10 1.556
436.20 1.558
436.30 1.561
436.40 1.564
436.50 1.566
436.60 1.569
436.70 1.571
436.80 1.573
436.90 1.575
437.00 1.577
437.10 1.579
437.20 1.581
437.30 1.583
437.40 1.584
437.50 1.586
437.60 1.587
437.70 1.588
437.80 1.59
437.90 1.591
438.00 1.592
438.10 1.593
438.20 1.593
438.30 1.594
438.40 1.595
438.50 1.596
438.60 1.596
438.70 1.597
438.80 1.597
438.90 1.597
439.00 1.598
439.10 1.598
439.20 1.598
439.30 1.598
439.40 1.598
439.50 1.598
439.60 1.598
439.70 1.598
439.80 1.598
439.90 1.598
440.00 1.598
440.10 1.598
440.20 1.597
440.30 1.597
440.40 1.597
440.50 1.596
440.60 1.596
440.70 1.595
440.80 1.595
440.90 1.594
441.00 1.594
441.10 1.593
441.20 1.593
441.30 1.592
441.40 1.591
441.50 1.591
441.60 1.59
441.70 1.589
441.80 1.588
441.90 1.588
442.00 1.587
442.10 1.586
442.20 1.585
442.30 1.584
442.40 1.584
442.50 1.583
442.60 1.582
442.70 1.581
442.80 1.58
442.90 1.579
443.00 1.578
443.10 1.577
443.20 1.576
443.30 1.575
443.40 1.574
443.50 1.573
443.60 1.572
443.70 1.571
443.80 1.57
443.90 1.569
444.00 1.568
444.10 1.567
444.20 1.566
444.30 1.565
444.40 1.564
444.50 1.563
444.60 1.562
444.70 1.561
444.80 1.56
444.90 1.559
445.00 1.557
445.10 1.556
445.20 1.555
445.30 1.554
445.40 1.553
445.50 1.552
445.60 1.551
445.70 1.55
445.80 1.548
445.90 1.547
446.00 1.546
446.10 1.545
446.20 1.544
446.30 1.543
446.40 1.541
446.50 1.54
446.60 1.539
446.70 1.538
446.80 1.537
446.90 1.536
447.00 1.534
447.10 1.533
447.20 1.532
447.30 1.531
447.40 1.53
447.50 1.528
447.60 1.527
447.70 1.526
447.80 1.525
447.90 1.524
448.00 1.522
448.10 1.521
448.20 1.52
448.30 1.519
448.40 1.518
448.50 1.516
448.60 1.515
448.70 1.514
448.80 1.513
448.90 1.512
449.00 1.51
449.10 1.509
449.20 1.508
449.30 1.507
449.40 1.506
449.50 1.504
449.60 1.503
449.70 1.502
449.80 1.501
449.90 1.5
450.00 1.498
450.10 1.497
450.20 1.496
450.30 1.495
450.40 1.493
450.50 1.492
450.60 1.491
450.70 1.49
450.80 1.489
450.90 1.487
451.00 1.486
451.10 1.485
451.20 1.484
451.30 1.483
451.40 1.481
451.50 1.48
451.60 1.479
451.70 1.478
451.80 1.476
451.90 1.475
452.00 1.474
452.10 1.473
452.20 1.472
452.30 1.47
452.40 1.469
452.50 1.468
452.60 1.467
452.70 1.466
452.80 1.464
452.90 1.463
453.00 1.462
453.10 1.461
453.20 1.46
453.30 1.458
453.40 1.457
453.50 1.456
453.60 1.455
453.70 1.453
453.80 1.452
453.90 1.451
454.00 1.45
454.10 1.449
454.20 1.447
454.30 1.446
454.40 1.445
454.50 1.444
454.60 1.443
454.70 1.441
454.80 1.44
454.90 1.439
455.00 1.438
455.10 1.437
455.20 1.436
455.30 1.434
455.40 1.433
455.50 1.432
455.60 1.431
455.70 1.43
455.80 1.428
455.90 1.427
456.00 1.426
456.10 1.425
456.20 1.424
456.30 1.422
456.40 1.421
456.50 1.42
456.60 1.419
456.70 1.418
456.80 1.417
456.90 1.415
457.00 1.414
457.10 1.413
457.20 1.412
457.30 1.411
457.40 1.41
457.50 1.408
457.60 1.407
457.70 1.406
457.80 1.405
457.90 1.404
458.00 1.402
458.10 1.401
458.20 1.4
458.30 1.399
458.40 1.398
458.50 1.397
458.60 1.395
458.70 1.394
458.80 1.393
458.90 1.392
459.00 1.391
459.10 1.39
459.20 1.389
459.30 1.387
459.40 1.386
459.50 1.385
459.60 1.384
459.70 1.383
459.80 1.382
459.90 1.38
460.00 1.379
460.10 1.378
460.20 1.377
460.30 1.376
460.40 1.375
460.50 1.374
460.60 1.372
460.70 1.371
460.80 1.37
460.90 1.369
461.00 1.368
461.10 1.367
461.20 1.366
461.30 1.364
461.40 1.363
461.50 1.362
461.60 1.361
461.70 1.36
461.80 1.359
461.90 1.358
462.00 1.356
462.10 1.355
462.20 1.354
462.30 1.353
462.40 1.352
462.50 1.351
462.60 1.35
462.70 1.348
462.80 1.347
462.90 1.346
463.00 1.345
463.10 1.344
463.20 1.343
463.30 1.342
463.40 1.341
463.50 1.339
463.60 1.338
463.70 1.337
463.80 1.336
463.90 1.335
464.00 1.334
464.10 1.333
464.20 1.332
464.30 1.331
464.40 1.329
464.50 1.328
464.60 1.327
464.70 1.326
464.80 1.325
464.90 1.324
465.00 1.323
465.10 1.322
465.20 1.321
465.30 1.319
465.40 1.318
465.50 1.317
465.60 1.316
465.70 1.315
465.80 1.314
465.90 1.313
466.00 1.312
466.10 1.311
466.20 1.309
466.30 1.308
466.40 1.307
466.50 1.306
466.60 1.305
466.70 1.304
466.80 1.303
466.90 1.302
467.00 1.301
467.10 1.3
467.20 1.298
467.30 1.297
467.40 1.296
467.50 1.295
467.60 1.294
467.70 1.293
467.80 1.292
467.90 1.291
468.00 1.29
468.10 1.289
468.20 1.287
468.30 1.286
468.40 1.285
468.50 1.284
468.60 1.283
468.70 1.282
468.80 1.281
468.90 1.28
469.00 1.279
469.10 1.278
469.20 1.276
469.30 1.275
469.40 1.274
469.50 1.273
469.60 1.272
469.70 1.271
469.80 1.27
469.90 1.269
470.00 1.268
470.10 1.267
470.20 1.266
470.30 1.264
470.40 1.263
470.50 1.262
470.60 1.261
470.70 1.26
470.80 1.259
470.90 1.258
471.00 1.257
471.10 1.256
471.20 1.255
471.30 1.253
471.40 1.252
471.50 1.251
471.60 1.25
471.70 1.249
471.80 1.248
471.90 1.247
472.00 1.246
472.10 1.245
472.20 1.244
472.30 1.242
472.40 1.241
472.50 1.24
472.60 1.239
472.70 1.238
472.80 1.237
472.90 1.236
473.00 1.235
473.10 1.234
473.20 1.232
473.30 1.231
473.40 1.23
473.50 1.229
473.60 1.228
473.70 1.227
473.80 1.226
473.90 1.225
474.00 1.223
474.10 1.222
474.20 1.221
474.30 1.22
474.40 1.219
474.50 1.218
474.60 1.216
474.70 1.215
474.80 1.214
474.90 1.213
475.00 1.212
475.10 1.211
475.20 1.21
475.30 1.208
475.40 1.207
475.50 1.206
475.60 1.205
475.70 1.204
475.80 1.202
475.90 1.201
476.00 1.2
476.10 1.199
476.20 1.198
476.30 1.196
476.40 1.195
476.50 1.194
476.60 1.193
476.70 1.191
476.80 1.19
476.90 1.189
477.00 1.188
477.10 1.186
477.20 1.185
477.30 1.184
477.40 1.182
477.50 1.181
477.60 1.18
477.70 1.178
477.80 1.177
477.90 1.176
478.00 1.174
478.10 1.173
478.20 1.172
478.30 1.17
478.40 1.169
478.50 1.167
478.60 1.166
478.70 1.164
478.80 1.163
478.90 1.161
479.00 1.16
479.10 1.158
479.20 1.157
479.30 1.155
479.40 1.154
479.50 1.152
479.60 1.15
479.70 1.149
479.80 1.147
479.90 1.145
480.00 1.144
480.10 1.142
480.20 1.14
480.30 1.138
480.40 1.136
480.50 1.134
480.60 1.133
480.70 1.131
480.80 1.129
480.90 1.127
481.00 1.125
481.10 1.123
481.20 1.121
481.30 1.119
481.40 1.116
481.50 1.114
481.60 1.112
481.70 1.109
481.80 1.107
481.90 1.105
482.00 1.102
482.10 1.1
482.20 1.097
482.30 1.095
482.40 1.092
482.50 1.089
482.60 1.086
482.70 1.083
482.80 1.08
482.90 1.078
483.00 1.075
483.10 1.072
483.20 1.068
483.30 1.065
483.40 1.061
483.50 1.058
483.60 1.054
483.70 1.051
483.80 1.047
483.90 1.044
484.00 1.04
484.10 1.037
484.20 1.033
484.30 1.028
484.40 1.024
484.50 1.02
484.60 1.016
484.70 1.012
484.80 1.007
484.90 1.003
485.00 0.9983
485.10 0.9938
485.20 0.9893
485.30 0.9848
485.40 0.9804
485.50 0.976
485.60 0.9719
485.70 0.968
485.80 0.9655
485.90 0.9635
486.00 0.9655
486.10 0.9772
486.20 0.9717
486.30 0.9613
486.40 0.9605
486.50 0.9609
486.60 0.9627
486.70 0.9651
486.80 0.9679
486.90 0.9708
487.00 0.9737
487.10 0.9767
487.20 0.9797
487.30 0.9826
487.40 0.9855
487.50 0.9884
487.60 0.9913
487.70 0.994
487.80 0.9965
487.90 0.999
488.00 1.002
488.10 1.004
488.20 1.006
488.30 1.008
488.40 1.01
488.50 1.012
488.60 1.014
488.70 1.016
488.80 1.017
488.90 1.019
489.00 1.021
489.10 1.023
489.20 1.024
489.30 1.026
489.40 1.027
489.50 1.028
489.60 1.029
489.70 1.03
489.80 1.031
489.90 1.032
490.00 1.033
490.10 1.034
490.20 1.035
490.30 1.036
490.40 1.036
490.50 1.037
490.60 1.037
490.70 1.038
490.80 1.038
490.90 1.039
491.00 1.039
491.10 1.04
491.20 1.04
491.30 1.04
491.40 1.04
491.50 1.04
491.60 1.04
491.70 1.04
491.80 1.041
491.90 1.041
492.00 1.041
492.10 1.041
492.20 1.041
492.30 1.041
492.40 1.041
492.50 1.04
492.60 1.04
492.70 1.04
492.80 1.04
492.90 1.04
493.00 1.04
493.10 1.039
493.20 1.039
493.30 1.039
493.40 1.038
493.50 1.038
493.60 1.038
493.70 1.037
493.80 1.037
493.90 1.037
494.00 1.036
494.10 1.036
494.20 1.035
494.30 1.035
494.40 1.034
494.50 1.034
494.60 1.034
494.70 1.033
494.80 1.033
494.90 1.032
495.00 1.032
495.10 1.031
495.20 1.031
495.30 1.03
495.40 1.03
495.50 1.029
495.60 1.028
495.70 1.028
495.80 1.027
495.90 1.027
496.00 1.026
496.10 1.026
496.20 1.025
496.30 1.024
496.40 1.024
496.50 1.023
496.60 1.023
496.70 1.022
496.80 1.021
496.90 1.021
497.00 1.02
497.10 1.019
497.20 1.019
497.30 1.018
497.40 1.018
497.50 1.017
497.60 1.016
497.70 1.016
497.80 1.015
497.90 1.014
498.00 1.014
498.10 1.013
498.20 1.012
498.30 1.012
498.40 1.011
498.50 1.01
498.60 1.01
498.70 1.009
498.80 1.008
498.90 1.008
499.00 1.007
499.10 1.006
499.20 1.006
499.30 1.005
499.40 1.004
499.50 1.003
499.60 1.003
499.70 1.002
499.80 1.001
499.90 1.001
500.00 1
500.10 0.9993
500.20 0.9986
500.30 0.9979
500.40 0.9972
500.50 0.9965
500.60 0.9958
500.70 0.9951
500.80 0.9944
500.90 0.9937
501.00 0.993
501.10 0.9923
501.20 0.9916
501.30 0.9909
501.40 0.9902
501.50 0.9895
501.60 0.9888
501.70 0.9881
501.80 0.9873
501.90 0.9866
502.00 0.9859
502.10 0.9852
502.20 0.9845
502.30 0.9838
502.40 0.9831
502.50 0.9824
502.60 0.9817
502.70 0.981
502.80 0.9803
502.90 0.9795
503.00 0.9788
503.10 0.9781
503.20 0.9774
503.30 0.9767
503.40 0.976
503.50 0.9753
503.60 0.9746
503.70 0.9739
503.80 0.9732
503.90 0.9724
504.00 0.9717
504.10 0.971
504.20 0.9703
504.30 0.9696
504.40 0.9689
504.50 0.9682
504.60 0.9675
504.70 0.9668
504.80 0.9661
504.90 0.9654
505.00 0.9646
505.10 0.9639
505.20 0.9632
505.30 0.9625
505.40 0.9618
505.50 0.9611
505.60 0.9604
505.70 0.9597
505.80 0.959
505.90 0.9583
506.00 0.9576
506.10 0.9569
506.20 0.9562
506.30 0.9555
506.40 0.9547
506.50 0.954
506.60 0.9533
506.70 0.9526
506.80 0.9519
506.90 0.9512
507.00 0.9505
507.10 0.9498
507.20 0.9491
507.30 0.9484
507.40 0.9477
507.50 0.947
507.60 0.9463
507.70 0.9456
507.80 0.9449
507.90 0.9442
508.00 0.9435
508.10 0.9428
508.20 0.9421
508.30 0.9414
508.40 0.9407
508.50 0.94
508.60 0.9393
508.70 0.9386
508.80 0.9379
508.90 0.9372
509.00 0.9365
509.10 0.9359
509.20 0.9352
509.30 0.9345
509.40 0.9338
509.50 0.9331
509.60 0.9324
509.70 0.9317
509.80 0.931
509.90 0.9303
510.00 0.9296
510.10 0.9289
510.20 0.9283
510.30 0.9276
510.40 0.9269
510.50 0.9262
510.60 0.9255
510.70 0.9248
510.80 0.9241
510.90 0.9234
511.00 0.9228
511.10 0.9221
511.20 0.9214
511.30 0.9207
511.40 0.92
511.50 0.9193
511.60 0.9187
511.70 0.918
511.80 0.9173
511.90 0.9166
512.00 0.9159
512.10 0.9153
512.20 0.9146
512.30 0.9139
512.40 0.9132
512.50 0.9126
512.60 0.9119
512.70 0.9112
512.80 0.9105
512.90 0.9099
513.00 0.9092
513.10 0.9085
513.20 0.9078
513.30 0.9072
513.40 0.9065
513.50 0.9058
513.60 0.9051
513.70 0.9045
513.80 0.9038
513.90 0.9031
514.00 0.9025
514.10 0.9018
514.20 0.9011
514.30 0.9005
514.40 0.8998
514.50 0.8991
514.60 0.8985
514.70 0.8978
514.80 0.8971
514.90 0.8965
515.00 0.8958
515.10 0.8951
515.20 0.8945
515.30 0.8938
515.40 0.8932
515.50 0.8925
515.60 0.8918
515.70 0.8912
515.80 0.8905
515.90 0.8899
516.00 0.8892
516.10 0.8885
516.20 0.8879
516.30 0.8872
516.40 0.8866
516.50 0.8859
516.60 0.8853
516.70 0.8846
516.80 0.884
516.90 0.8833
517.00 0.8827
517.10 0.882
517.20 0.8814
517.30 0.8807
517.40 0.8801
517.50 0.8794
517.60 0.8788
517.70 0.8781
517.80 0.8775
517.90 0.8768
518.00 0.8762
518.10 0.8755
518.20 0.8749
518.30 0.8742
518.40 0.8736
518.50 0.8729
518.60 0.8723
518.70 0.8717
518.80 0.871
518.90 0.8704
519.00 0.8697
519.10 0.8691
519.20 0.8684
519.30 0.8678
519.40 0.8672
519.50 0.8665
519.60 0.8659
519.70 0.8653
519.80 0.8646
519.90 0.864
520.00 0.8633
520.10 0.8627
520.20 0.8621
520.30 0.8614
520.40 0.8608
520.50 0.8602
520.60 0.8595
520.70 0.8589
520.80 0.8583
520.90 0.8577
521.00 0.857
521.10 0.8564
521.20 0.8558
521.30 0.8551
521.40 0.8545
521.50 0.8539
521.60 0.8533
521.70 0.8526
521.80 0.852
521.90 0.8514
522.00 0.8508
522.10 0.8501
522.20 0.8495
522.30 0.8489
522.40 0.8483
522.50 0.8476
522.60 0.847
522.70 0.8464
522.80 0.8458
522.90 0.8452
523.00 0.8445
523.10 0.8439
523.20 0.8433
523.30 0.8427
523.40 0.8421
523.50 0.8415
523.60 0.8408
523.70 0.8402
523.80 0.8396
523.90 0.839
524.00 0.8384
524.10 0.8378
524.20 0.8372
524.30 0.8365
524.40 0.8359
524.50 0.8353
524.60 0.8347
524.70 0.8341
524.80 0.8335
524.90 0.8329
525.00 0.8323
525.10 0.8317
525.20 0.8311
525.30 0.8305
525.40 0.8299
525.50 0.8293
525.60 0.8286
525.70 0.828
525.80 0.8274
525.90 0.8268
526.00 0.8262
526.10 0.8256
526.20 0.825
526.30 0.8244
526.40 0.8238
526.50 0.8232
526.60 0.8226
526.70 0.822
526.80 0.8214
526.90 0.8208
527.00 0.8202
527.10 0.8196
527.20 0.819
527.30 0.8184
527.40 0.8179
527.50 0.8173
527.60 0.8167
527.70 0.8161
527.80 0.8155
527.90 0.8149
528.00 0.8143
528.10 0.8137
528.20 0.8131
528.30 0.8125
528.40 0.8119
528.50 0.8113
528.60 0.8108
528.70 0.8102
528.80 0.8096
528.90 0.809
529.00 0.8084
529.10 0.8078
529.20 0.8072
529.30 0.8066
529.40 0.8061
529.50 0.8055
529.60 0.8049
529.70 0.8043
529.80 0.8037
529.90 0.8031
530.00 0.8026
530.10 0.802
530.20 0.8014
530.30 0.8008
530.40 0.8002
530.50 0.7997
530.60 0.7991
530.70 0.7985
530.80 0.7979
530.90 0.7974
531.00 0.7968
531.10 0.7962
531.20 0.7956
531.30 0.7951
531.40 0.7945
531.50 0.7939
531.60 0.7933
531.70 0.7928
531.80 0.7922
531.90 0.7916
532.00 0.791
532.10 0.7905
532.20 0.7899
532.30 0.7893
532.40 0.7888
532.50 0.7882
532.60 0.7876
532.70 0.7871
532.80 0.7865
532.90 0.7859
533.00 0.7854
533.10 0.7848
533.20 0.7842
533.30 0.7837
533.40 0.7831
533.50 0.7825
533.60 0.782
533.70 0.7814
533.80 0.7809
533.90 0.7803
534.00 0.7797
534.10 0.7792
534.20 0.7786
534.30 0.778
534.40 0.7775
534.50 0.7769
534.60 0.7764
534.70 0.7758
534.80 0.7753
534.90 0.7747
535.00 0.7741
535.10 0.7736
535.20 0.773
535.30 0.7725
535.40 0.7719
535.50 0.7714
535.60 0.7708
535.70 0.7703
535.80 0.7697
535.90 0.7692
536.00 0.7686
536.10 0.7681
536.20 0.7675
536.30 0.767
536.40 0.7664
536.50 0.7659
536.60 0.7653
536.70 0.7648
536.80 0.7642
536.90 0.7637
537.00 0.7631
537.10 0.7626
537.20 0.762
537.30 0.7615
537.40 0.7609
537.50 0.7604
537.60 0.7599
537.70 0.7593
537.80 0.7588
537.90 0.7582
538.00 0.7577
538.10 0.7572
538.20 0.7566
538.30 0.7561
538.40 0.7555
538.50 0.755
538.60 0.7545
538.70 0.7539
538.80 0.7534
538.90 0.7528
539.00 0.7523
539.10 0.7518
539.20 0.7512
539.30 0.7507
539.40 0.7502
539.50 0.7496
539.60 0.7491
539.70 0.7486
539.80 0.748
539.90 0.7475
540.00 0.747
540.10 0.7464
540.20 0.7459
540.30 0.7454
540.40 0.7448
540.50 0.7443
540.60 0.7438
540.70 0.7433
540.80 0.7427
540.90 0.7422
541.00 0.7417
541.10 0.7411
541.20 0.7406
541.30 0.7401
541.40 0.7396
541.50 0.739
541.60 0.7385
541.70 0.738
541.80 0.7375
541.90 0.7369
542.00 0.7364
542.10 0.7359
542.20 0.7354
542.30 0.7349
542.40 0.7343
542.50 0.7338
542.60 0.7333
542.70 0.7328
542.80 0.7323
542.90 0.7317
543.00 0.7312
543.10 0.7307
543.20 0.7302
543.30 0.7297
543.40 0.7292
543.50 0.7286
543.60 0.7281
543.70 0.7276
543.80 0.7271
543.90 0.7266
544.00 0.7261
544.10 0.7256
544.20 0.725
544.30 0.7245
544.40 0.724
544.50 0.7235
544.60 0.723
544.70 0.7225
544.80 0.722
544.90 0.7215
545.00 0.721
545.10 0.7205
545.20 0.7199
545.30 0.7194
545.40 0.7189
545.50 0.7184
545.60 0.7179
545.70 0.7174
545.80 0.7169
545.90 0.7164
546.00 0.7159
546.10 0.7154
546.20 0.7149
546.30 0.7144
546.40 0.7139
546.50 0.7134
546.60 0.7129
546.70 0.7124
546.80 0.7119
546.90 0.7114
547.00 0.7109
547.10 0.7104
547.20 0.7099
547.30 0.7094
547.40 0.7089
547.50 0.7084
547.60 0.7079
547.70 0.7074
547.80 0.7069
547.90 0.7064
548.00 0.7059
548.10 0.7054
548.20 0.7049
548.30 0.7044
548.40 0.7039
548.50 0.7034
548.60 0.7029
548.70 0.7024
548.80 0.7019
548.90 0.7015
549.00 0.701
549.10 0.7005
549.20 0.7
549.30 0.6995
549.40 0.699
549.50 0.6985
549.60 0.698
549.70 0.6975
549.80 0.697
549.90 0.6966
550.00 0.6961
550.10 0.6956
550.20 0.6951
550.30 0.6946
550.40 0.6941
550.50 0.6936
550.60 0.6932
550.70 0.6927
550.80 0.6922
550.90 0.6917
551.00 0.6912
551.10 0.6907
551.20 0.6903
551.30 0.6898
551.40 0.6893
551.50 0.6888
551.60 0.6883
551.70 0.6879
551.80 0.6874
551.90 0.6869
552.00 0.6864
552.10 0.6859
552.20 0.6855
552.30 0.685
552.40 0.6845
552.50 0.684
552.60 0.6836
552.70 0.6831
552.80 0.6826
552.90 0.6821
553.00 0.6817
553.10 0.6812
553.20 0.6807
553.30 0.6802
553.40 0.6798
553.50 0.6793
553.60 0.6788
553.70 0.6783
553.80 0.6779
553.90 0.6774
554.00 0.6769
554.10 0.6765
554.20 0.676
554.30 0.6755
554.40 0.6751
554.50 0.6746
554.60 0.6741
554.70 0.6737
554.80 0.6732
554.90 0.6727
555.00 0.6723
555.10 0.6718
555.20 0.6713
555.30 0.6709
555.40 0.6704
555.50 0.6699
555.60 0.6695
555.70 0.669
555.80 0.6685
555.90 0.6681
556.00 0.6676
556.10 0.6671
556.20 0.6667
556.30 0.6662
556.40 0.6658
556.50 0.6653
556.60 0.6648
556.70 0.6644
556.80 0.6639
556.90 0.6635
557.00 0.663
557.10 0.6626
557.20 0.6621
557.30 0.6616
557.40 0.6612
557.50 0.6607
557.60 0.6603
557.70 0.6598
557.80 0.6594
557.90 0.6589
558.00 0.6584
558.10 0.658
558.20 0.6575
558.30 0.6571
558.40 0.6566
558.50 0.6562
558.60 0.6557
558.70 0.6553
558.80 0.6548
558.90 0.6544
559.00 0.6539
559.10 0.6535
559.20 0.653
559.30 0.6526
559.40 0.6521
559.50 0.6517
559.60 0.6512
559.70 0.6508
559.80 0.6503
559.90 0.6499
560.00 0.6494
560.10 0.649
560.20 0.6485
560.30 0.6481
560.40 0.6477
560.50 0.6472
560.60 0.6468
560.70 0.6463
560.80 0.6459
560.90 0.6454
561.00 0.645
561.10 0.6446
561.20 0.6441
561.30 0.6437
561.40 0.6432
561.50 0.6428
561.60 0.6423
561.70 0.6419
561.80 0.6415
561.90 0.641
562.00 0.6406
562.10 0.6401
562.20 0.6397
562.30 0.6393
562.40 0.6388
562.50 0.6384
562.60 0.638
562.70 0.6375
562.80 0.6371
562.90 0.6367
563.00 0.6362
563.10 0.6358
563.20 0.6353
563.30 0.6349
563.40 0.6345
563.50 0.634
563.60 0.6336
563.70 0.6332
563.80 0.6327
563.90 0.6323
564.00 0.6319
564.10 0.6315
564.20 0.631
564.30 0.6306
564.40 0.6302
564.50 0.6297
564.60 0.6293
564.70 0.6289
564.80 0.6284
564.90 0.628
565.00 0.6276
565.10 0.6272
565.20 0.6267
565.30 0.6263
565.40 0.6259
565.50 0.6255
565.60 0.625
565.70 0.6246
565.80 0.6242
565.90 0.6238
566.00 0.6233
566.10 0.6229
566.20 0.6225
566.30 0.6221
566.40 0.6216
566.50 0.6212
566.60 0.6208
566.70 0.6204
566.80 0.6199
566.90 0.6195
567.00 0.6191
567.10 0.6187
567.20 0.6183
567.30 0.6178
567.40 0.6174
567.50 0.617
567.60 0.6166
567.70 0.6162
567.80 0.6158
567.90 0.6153
568.00 0.6149
568.10 0.6145
568.20 0.6141
568.30 0.6137
568.40 0.6133
568.50 0.6128
568.60 0.6124
568.70 0.612
568.80 0.6116
568.90 0.6112
569.00 0.6108
569.10 0.6103
569.20 0.6099
569.30 0.6095
569.40 0.6091
569.50 0.6087
569.60 0.6083
569.70 0.6079
569.80 0.6075
569.90 0.6071
570.00 0.6066
570.10 0.6062
570.20 0.6058
570.30 0.6054
570.40 0.605
570.50 0.6046
570.60 0.6042
570.70 0.6038
570.80 0.6034
570.90 0.603
571.00 0.6026
571.10 0.6022
571.20 0.6018
571.30 0.6013
571.40 0.6009
571.50 0.6005
571.60 0.6001
571.70 0.5997
571.80 0.5993
571.90 0.5989
572.00 0.5985
572.10 0.5981
572.20 0.5977
572.30 0.5973
572.40 0.5969
572.50 0.5965
572.60 0.5961
572.70 0.5957
572.80 0.5953
572.90 0.5949
573.00 0.5945
573.10 0.5941
573.20 0.5937
573.30 0.5933
573.40 0.5929
573.50 0.5925
573.60 0.5921
573.70 0.5917
573.80 0.5913
573.90 0.5909
574.00 0.5905
574.10 0.5901
574.20 0.5897
574.30 0.5893
574.40 0.5889
574.50 0.5885
574.60 0.5881
574.70 0.5878
574.80 0.5874
574.90 0.587
575.00 0.5866
575.10 0.5862
575.20 0.5858
575.30 0.5854
575.40 0.585
575.50 0.5846
575.60 0.5842
575.70 0.5838
575.80 0.5834
575.90 0.583
576.00 0.5827
576.10 0.5823
576.20 0.5819
576.30 0.5815
576.40 0.5811
576.50 0.5807
576.60 0.5803
576.70 0.5799
576.80 0.5795
576.90 0.5792
577.00 0.5788
577.10 0.5784
577.20 0.578
577.30 0.5776
577.40 0.5772
577.50 0.5768
577.60 0.5765
577.70 0.5761
577.80 0.5757
577.90 0.5753
578.00 0.5749
578.10 0.5745
578.20 0.5742
578.30 0.5738
578.40 0.5734
578.50 0.573
578.60 0.5726
578.70 0.5722
578.80 0.5719
578.90 0.5715
579.00 0.5711
579.10 0.5707
579.20 0.5703
579.30 0.57
579.40 0.5696
579.50 0.5692
579.60 0.5688
579.70 0.5684
579.80 0.5681
579.90 0.5677
580.00 0.5673
580.10 0.5669
580.20 0.5666
580.30 0.5662
580.40 0.5658
580.50 0.5654
580.60 0.5651
580.70 0.5647
580.80 0.5643
580.90 0.5639
581.00 0.5636
581.10 0.5632
581.20 0.5628
581.30 0.5624
581.40 0.5621
581.50 0.5617
581.60 0.5613
581.70 0.561
581.80 0.5606
581.90 0.5602
582.00 0.5598
582.10 0.5595
582.20 0.5591
582.30 0.5587
582.40 0.5584
582.50 0.558
582.60 0.5576
582.70 0.5572
582.80 0.5569
582.90 0.5565
583.00 0.5561
583.10 0.5558
583.20 0.5554
583.30 0.555
583.40 0.5547
583.50 0.5543
583.60 0.5539
583.70 0.5536
583.80 0.5532
583.90 0.5528
584.00 0.5525
584.10 0.5521
584.20 0.5518
584.30 0.5514
584.40 0.551
584.50 0.5507
584.60 0.5503
584.70 0.5499
584.80 0.5496
584.90 0.5492
585.00 0.5488
585.10 0.5485
585.20 0.5481
585.30 0.5478
585.40 0.5474
585.50 0.547
585.60 0.5467
585.70 0.5463
585.80 0.546
585.90 0.5456
586.00 0.5452
586.10 0.5449
586.20 0.5445
586.30 0.5442
586.40 0.5438
586.50 0.5435
586.60 0.5431
586.70 0.5427
586.80 0.5424
586.90 0.542
587.00 0.5417
587.10 0.5413
587.20 0.541
587.30 0.5406
587.40 0.5403
587.50 0.5399
587.60 0.5395
587.70 0.5392
587.80 0.5388
587.90 0.5385
588.00 0.5381
588.10 0.5378
588.20 0.5374
588.30 0.5371
588.40 0.5367
588.50 0.5364
588.60 0.536
588.70 0.5357
588.80 0.5353
588.90 0.535
589.00 0.5346
589.10 0.5343
589.20 0.5339
589.30 0.5336
589.40 0.5332
589.50 0.5329
589.60 0.5325
589.70 0.5322
589.80 0.5318
589.90 0.5315
590.00 0.5311
590.10 0.5308
590.20 0.5304
590.30 0.5301
590.40 0.5297
590.50 0.5294
590.60 0.529
590.70 0.5287
590.80 0.5284
590.90 0.528
591.00 0.5277
591.10 0.5273
591.20 0.527
591.30 0.5266
591.40 0.5263
591.50 0.5259
591.60 0.5256
591.70 0.5253
591.80 0.5249
591.90 0.5246
592.00 0.5242
592.10 0.5239
592.20 0.5236
592.30 0.5232
592.40 0.5229
592.50 0.5225
592.60 0.5222
592.70 0.5218
592.80 0.5215
592.90 0.5212
593.00 0.5208
593.10 0.5205
593.20 0.5202
593.30 0.5198
593.40 0.5195
593.50 0.5191
593.60 0.5188
593.70 0.5185
593.80 0.5181
593.90 0.5178
594.00 0.5175
594.10 0.5171
594.20 0.5168
594.30 0.5164
594.40 0.5161
594.50 0.5158
594.60 0.5154
594.70 0.5151
594.80 0.5148
594.90 0.5144
595.00 0.5141
595.10 0.5138
595.20 0.5134
595.30 0.5131
595.40 0.5128
595.50 0.5124
595.60 0.5121
595.70 0.5118
595.80 0.5114
595.90 0.5111
596.00 0.5108
596.10 0.5105
596.20 0.5101
596.30 0.5098
596.40 0.5095
596.50 0.5091
596.60 0.5088
596.70 0.5085
596.80 0.5081
596.90 0.5078
597.00 0.5075
597.10 0.5072
597.20 0.5068
597.30 0.5065
597.40 0.5062
597.50 0.5059
597.60 0.5055
597.70 0.5052
597.80 0.5049
597.90 0.5045
598.00 0.5042
598.10 0.5039
598.20 0.5036
598.30 0.5032
598.40 0.5029
598.50 0.5026
598.60 0.5023
598.70 0.502
598.80 0.5016
598.90 0.5013
599.00 0.501
599.10 0.5007
599.20 0.5003
599.30 0.5
599.40 0.4997
599.50 0.4994
599.60 0.499
599.70 0.4987
599.80 0.4984
599.90 0.4981
600.00 0.4978
600.10 0.4974
600.20 0.4971
600.30 0.4968
600.40 0.4965
600.50 0.4962
600.60 0.4958
600.70 0.4955
600.80 0.4952
600.90 0.4949
601.00 0.4946
601.10 0.4943
601.20 0.4939
601.30 0.4936
601.40 0.4933
601.50 0.493
601.60 0.4927
601.70 0.4924
601.80 0.492
601.90 0.4917
602.00 0.4914
602.10 0.4911
602.20 0.4908
602.30 0.4905
602.40 0.4901
602.50 0.4898
602.60 0.4895
602.70 0.4892
602.80 0.4889
602.90 0.4886
603.00 0.4883
603.10 0.488
603.20 0.4876
603.30 0.4873
603.40 0.487
603.50 0.4867
603.60 0.4864
603.70 0.4861
603.80 0.4858
603.90 0.4855
604.00 0.4852
604.10 0.4848
604.20 0.4845
604.30 0.4842
604.40 0.4839
604.50 0.4836
604.60 0.4833
604.70 0.483
604.80 0.4827
604.90 0.4824
605.00 0.4821
605.10 0.4818
605.20 0.4814
605.30 0.4811
605.40 0.4808
605.50 0.4805
605.60 0.4802
605.70 0.4799
605.80 0.4796
605.90 0.4793
606.00 0.479
606.10 0.4787
606.20 0.4784
606.30 0.4781
606.40 0.4778
606.50 0.4775
606.60 0.4772
606.70 0.4769
606.80 0.4766
606.90 0.4763
607.00 0.476
607.10 0.4756
607.20 0.4753
607.30 0.475
607.40 0.4747
607.50 0.4744
607.60 0.4741
607.70 0.4738
607.80 0.4735
607.90 0.4732
608.00 0.4729
608.10 0.4726
608.20 0.4723
608.30 0.472
608.40 0.4717
608.50 0.4714
608.60 0.4711
608.70 0.4708
608.80 0.4705
608.90 0.4702
609.00 0.4699
609.10 0.4696
609.20 0.4693
609.30 0.469
609.40 0.4687
609.50 0.4685
609.60 0.4682
609.70 0.4679
609.80 0.4676
609.90 0.4673
610.00 0.467
610.10 0.4667
610.20 0.4664
610.30 0.4661
610.40 0.4658
610.50 0.4655
610.60 0.4652
610.70 0.4649
610.80 0.4646
610.90 0.4643
611.00 0.464
611.10 0.4637
611.20 0.4634
611.30 0.4631
611.40 0.4628
611.50 0.4626
611.60 0.4623
611.70 0.462
611.80 0.4617
611.90 0.4614
612.00 0.4611
612.10 0.4608
612.20 0.4605
612.30 0.4602
612.40 0.4599
612.50 0.4596
612.60 0.4593
612.70 0.4591
612.80 0.4588
612.90 0.4585
613.00 0.4582
613.10 0.4579
613.20 0.4576
613.30 0.4573
613.40 0.457
613.50 0.4567
613.60 0.4565
613.70 0.4562
613.80 0.4559
613.90 0.4556
614.00 0.4553
614.10 0.455
614.20 0.4547
614.30 0.4544
614.40 0.4542
614.50 0.4539
614.60 0.4536
614.70 0.4533
614.80 0.453
614.90 0.4527
615.00 0.4525
615.10 0.4522
615.20 0.4519
615.30 0.4516
615.40 0.4513
615.50 0.451
615.60 0.4507
615.70 0.4505
615.80 0.4502
615.90 0.4499
616.00 0.4496
616.10 0.4493
616.20 0.449
616.30 0.4488
616.40 0.4485
616.50 0.4482
616.60 0.4479
616.70 0.4476
616.80 0.4474
616.90 0.4471
617.00 0.4468
617.10 0.4465
617.20 0.4462
617.30 0.446
617.40 0.4457
617.50 0.4454
617.60 0.4451
617.70 0.4448
617.80 0.4446
617.90 0.4443
618.00 0.444
618.10 0.4437
618.20 0.4434
618.30 0.4432
618.40 0.4429
618.50 0.4426
618.60 0.4423
618.70 0.4421
618.80 0.4418
618.90 0.4415
619.00 0.4412
619.10 0.441
619.20 0.4407
619.30 0.4404
619.40 0.4401
619.50 0.4399
619.60 0.4396
619.70 0.4393
619.80 0.439
619.90 0.4388
620.00 0.4385
620.10 0.4382
620.20 0.4379
620.30 0.4377
620.40 0.4374
620.50 0.4371
620.60 0.4368
620.70 0.4366
620.80 0.4363
620.90 0.436
621.00 0.4357
621.10 0.4355
621.20 0.4352
621.30 0.4349
621.40 0.4347
621.50 0.4344
621.60 0.4341
621.70 0.4338
621.80 0.4336
621.90 0.4333
622.00 0.433
622.10 0.4328
622.20 0.4325
622.30 0.4322
622.40 0.432
622.50 0.4317
622.60 0.4314
622.70 0.4311
622.80 0.4309
622.90 0.4306
623.00 0.4303
623.10 0.4301
623.20 0.4298
623.30 0.4295
623.40 0.4293
623.50 0.429
623.60 0.4287
623.70 0.4285
623.80 0.4282
623.90 0.4279
624.00 0.4277
624.10 0.4274
624.20 0.4271
624.30 0.4269
624.40 0.4266
624.50 0.4263
624.60 0.4261
624.70 0.4258
624.80 0.4255
624.90 0.4253
625.00 0.425
625.10 0.4248
625.20 0.4245
625.30 0.4242
625.40 0.424
625.50 0.4237
625.60 0.4234
625.70 0.4232
625.80 0.4229
625.90 0.4226
626.00 0.4224
626.10 0.4221
626.20 0.4219
626.30 0.4216
626.40 0.4213
626.50 0.4211
626.60 0.4208
626.70 0.4205
626.80 0.4203
626.90 0.42
627.00 0.4198
627.10 0.4195
627.20 0.4192
627.30 0.419
627.40 0.4187
627.50 0.4185
627.60 0.4182
627.70 0.4179
627.80 0.4177
627.90 0.4174
628.00 0.4172
628.10 0.4169
628.20 0.4166
628.30 0.4164
628.40 0.4161
628.50 0.4159
628.60 0.4156
628.70 0.4154
628.80 0.4151
628.90 0.4148
629.00 0.4146
629.10 0.4143
629.20 0.4141
629.30 0.4138
629.40 0.4136
629.50 0.4133
629.60 0.413
629.70 0.4128
629.80 0.4125
629.90 0.4123
630.00 0.412
630.10 0.4118
630.20 0.4115
630.30 0.4113
630.40 0.411
630.50 0.4107
630.60 0.4105
630.70 0.4102
630.80 0.41
630.90 0.4097
631.00 0.4095
631.10 0.4092
631.20 0.409
631.30 0.4087
631.40 0.4085
631.50 0.4082
631.60 0.4079
631.70 0.4077
631.80 0.4074
631.90 0.4072
632.00 0.4069
632.10 0.4067
632.20 0.4064
632.30 0.4062
632.40 0.4059
632.50 0.4057
632.60 0.4054
632.70 0.4052
632.80 0.4049
632.90 0.4047
633.00 0.4044
633.10 0.4042
633.20 0.4039
633.30 0.4037
633.40 0.4034
633.50 0.4032
633.60 0.4029
633.70 0.4027
633.80 0.4024
633.90 0.4022
634.00 0.4019
634.10 0.4017
634.20 0.4014
634.30 0.4012
634.40 0.4009
634.50 0.4007
634.60 0.4004
634.70 0.4002
634.80 0.3999
634.90 0.3997
635.00 0.3994
635.10 0.3992
635.20 0.3989
635.30 0.3987
635.40 0.3984
635.50 0.3982
635.60 0.3979
635.70 0.3977
635.80 0.3974
635.90 0.3972
636.00 0.3969
636.10 0.3967
636.20 0.3964
636.30 0.3962
636.40 0.3959
636.50 0.3957
636.60 0.3954
636.70 0.3952
636.80 0.3949
636.90 0.3947
637.00 0.3945
637.10 0.3942
637.20 0.394
637.30 0.3937
637.40 0.3935
637.50 0.3932
637.60 0.393
637.70 0.3927
637.80 0.3925
637.90 0.3922
638.00 0.392
638.10 0.3917
638.20 0.3915
638.30 0.3912
638.40 0.391
638.50 0.3907
638.60 0.3905
638.70 0.3903
638.80 0.39
638.90 0.3898
639.00 0.3895
639.10 0.3893
639.20 0.389
639.30 0.3888
639.40 0.3885
639.50 0.3883
639.60 0.388
639.70 0.3878
639.80 0.3875
639.90 0.3873
640.00 0.387
640.10 0.3868
640.20 0.3866
640.30 0.3863
640.40 0.3861
640.50 0.3858
640.60 0.3856
640.70 0.3853
640.80 0.3851
640.90 0.3848
641.00 0.3846
641.10 0.3843
641.20 0.3841
641.30 0.3838
641.40 0.3836
641.50 0.3833
641.60 0.3831
641.70 0.3828
641.80 0.3826
641.90 0.3823
642.00 0.3821
642.10 0.3818
642.20 0.3816
642.30 0.3813
642.40 0.3811
642.50 0.3808
642.60 0.3806
642.70 0.3803
642.80 0.3801
642.90 0.3798
643.00 0.3796
643.10 0.3793
643.20 0.3791
643.30 0.3788
643.40 0.3786
643.50 0.3783
643.60 0.3781
643.70 0.3778
643.80 0.3775
643.90 0.3773
644.00 0.377
644.10 0.3768
644.20 0.3765
644.30 0.3763
644.40 0.376
644.50 0.3757
644.60 0.3755
644.70 0.3752
644.80 0.375
644.90 0.3747
645.00 0.3744
645.10 0.3742
645.20 0.3739
645.30 0.3736
645.40 0.3734
645.50 0.3731
645.60 0.3728
645.70 0.3726
645.80 0.3723
645.90 0.372
646.00 0.3718
646.10 0.3715
646.20 0.3712
646.30 0.3709
646.40 0.3707
646.50 0.3704
646.60 0.3701
646.70 0.3698
646.80 0.3695
646.90 0.3692
647.00 0.369
647.10 0.3687
647.20 0.3684
647.30 0.3681
647.40 0.3678
647.50 0.3675
647.60 0.3672
647.70 0.3669
647.80 0.3666
647.90 0.3663
648.00 0.366
648.10 0.3657
648.20 0.3654
648.30 0.3651
648.40 0.3648
648.50 0.3644
648.60 0.3641
648.70 0.3638
648.80 0.3634
648.90 0.3631
649.00 0.3628
649.10 0.3624
649.20 0.3621
649.30 0.3618
649.40 0.3614
649.50 0.361
649.60 0.3607
649.70 0.3603
649.80 0.3599
649.90 0.3596
650.00 0.3592
650.10 0.3588
650.20 0.3584
650.30 0.3581
650.40 0.3576
650.50 0.3572
650.60 0.3568
650.70 0.3563
650.80 0.3559
650.90 0.3555
651.00 0.355
651.10 0.3546
651.20 0.3542
651.30 0.3537
651.40 0.3532
651.50 0.3527
651.60 0.3522
651.70 0.3516
651.80 0.3511
651.90 0.3506
652.00 0.3501
652.10 0.3495
652.20 0.349
652.30 0.3485
652.40 0.3478
652.50 0.3472
652.60 0.3465
652.70 0.3459
652.80 0.3452
652.90 0.3445
653.00 0.3439
653.10 0.3432
653.20 0.3426
653.30 0.3419
653.40 0.3411
653.50 0.3402
653.60 0.3394
653.70 0.3386
653.80 0.3378
653.90 0.3369
654.00 0.3361
654.10 0.3353
654.20 0.3345
654.30 0.3336
654.40 0.3326
654.50 0.3317
654.60 0.3307
654.70 0.3297
654.80 0.3288
654.90 0.3277
655.00 0.3267
655.10 0.3256
655.20 0.3246
655.30 0.3236
655.40 0.3225
655.50 0.3215
655.60 0.3205
655.70 0.3195
655.80 0.3186
655.90 0.3179
656.00 0.3179
656.10 0.3183
656.20 0.3272
656.30 0.3414
656.40 0.3214
656.50 0.3172
656.60 0.3168
656.70 0.3166
656.80 0.3171
656.90 0.3176
657.00 0.3183
657.10 0.3189
657.20 0.3196
657.30 0.3202
657.40 0.3209
657.50 0.3216
657.60 0.3222
657.70 0.3229
657.80 0.3235
657.90 0.3241
658.00 0.3247
658.10 0.3253
658.20 0.3258
658.30 0.3264
658.40 0.3268
658.50 0.3272
658.60 0.3277
658.70 0.3281
658.80 0.3285
658.90 0.3289
659.00 0.3294
659.10 0.3298
659.20 0.3302
659.30 0.3306
659.40 0.3308
659.50 0.3311
659.60 0.3313
659.70 0.3316
659.80 0.3318
659.90 0.332
660.00 0.3323
660.10 0.3325
660.20 0.3328
660.30 0.333
660.40 0.3331
660.50 0.3332
660.60 0.3333
660.70 0.3334
660.80 0.3335
660.90 0.3336
661.00 0.3337
661.10 0.3338
661.20 0.3339
661.30 0.334
661.40 0.334
661.50 0.334
661.60 0.334
661.70 0.3341
661.80 0.3341
661.90 0.3341
662.00 0.3341
662.10 0.3341
662.20 0.3341
662.30 0.3341
662.40 0.334
662.50 0.334
662.60 0.3339
662.70 0.3339
662.80 0.3338
662.90 0.3338
663.00 0.3337
663.10 0.3337
663.20 0.3336
663.30 0.3336
663.40 0.3335
663.50 0.3334
663.60 0.3333
663.70 0.3332
663.80 0.3331
663.90 0.333
664.00 0.3329
664.10 0.3328
664.20 0.3327
664.30 0.3326
664.40 0.3325
664.50 0.3324
664.60 0.3323
664.70 0.3321
664.80 0.332
664.90 0.3319
665.00 0.3318
665.10 0.3317
665.20 0.3315
665.30 0.3314
665.40 0.3313
665.50 0.3311
665.60 0.331
665.70 0.3309
665.80 0.3307
665.90 0.3306
666.00 0.3304
666.10 0.3303
666.20 0.3302
666.30 0.33
666.40 0.3299
666.50 0.3297
666.60 0.3296
666.70 0.3294
666.80 0.3293
666.90 0.3291
667.00 0.329
667.10 0.3288
667.20 0.3287
667.30 0.3285
667.40 0.3283
667.50 0.3282
667.60 0.328
667.70 0.3279
667.80 0.3277
667.90 0.3275
668.00 0.3274
668.10 0.3272
668.20 0.3271
668.30 0.3269
668.40 0.3267
668.50 0.3266
668.60 0.3264
668.70 0.3262
668.80 0.3261
668.90 0.3259
669.00 0.3257
669.10 0.3256
669.20 0.3254
669.30 0.3252
669.40 0.3251
669.50 0.3249
669.60 0.3247
669.70 0.3246
669.80 0.3244
669.90 0.3242
670.00 0.3241
670.10 0.3239
670.20 0.3237
670.30 0.3236
670.40 0.3234
670.50 0.3232
670.60 0.323
670.70 0.3229
670.80 0.3227
670.90 0.3225
671.00 0.3223
671.10 0.3222
671.20 0.322
671.30 0.3218
671.40 0.3217
671.50 0.3215
671.60 0.3213
671.70 0.3211
671.80 0.321
671.90 0.3208
672.00 0.3206
672.10 0.3204
672.20 0.3203
672.30 0.3201
672.40 0.3199
672.50 0.3197
672.60 0.3196
672.70 0.3194
672.80 0.3192
672.90 0.3191
673.00 0.3189
673.10 0.3187
673.20 0.3185
673.30 0.3184
673.40 0.3182
673.50 0.318
673.60 0.3178
673.70 0.3177
673.80 0.3175
673.90 0.3173
674.00 0.3171
674.10 0.317
674.20 0.3168
674.30 0.3166
674.40 0.3164
674.50 0.3163
674.60 0.3161
674.70 0.3159
674.80 0.3157
674.90 0.3156
675.00 0.3154
675.10 0.3152
675.20 0.315
675.30 0.3149
675.40 0.3147
675.50 0.3145
675.60 0.3143
675.70 0.3142
675.80 0.314
675.90 0.3138
676.00 0.3136
676.10 0.3135
676.20 0.3133
676.30 0.3131
676.40 0.3129
676.50 0.3128
676.60 0.3126
676.70 0.3124
676.80 0.3122
676.90 0.3121
677.00 0.3119
677.10 0.3117
677.20 0.3115
677.30 0.3114
677.40 0.3112
677.50 0.311
677.60 0.3109
677.70 0.3107
677.80 0.3105
677.90 0.3103
678.00 0.3102
678.10 0.31
678.20 0.3098
678.30 0.3096
678.40 0.3095
678.50 0.3093
678.60 0.3091
678.70 0.3089
678.80 0.3088
678.90 0.3086
679.00 0.3084
679.10 0.3083
679.20 0.3081
679.30 0.3079
679.40 0.3077
679.50 0.3076
679.60 0.3074
679.70 0.3072
679.80 0.307
679.90 0.3069
680.00 0.3067
680.10 0.3065
680.20 0.3064
680.30 0.3062
680.40 0.306
680.50 0.3058
680.60 0.3057
680.70 0.3055
680.80 0.3053
680.90 0.3052
681.00 0.305
681.10 0.3048
681.20 0.3046
681.30 0.3045
681.40 0.3043
681.50 0.3041
681.60 0.304
681.70 0.3038
681.80 0.3036
681.90 0.3035
682.00 0.3033
682.10 0.3031
682.20 0.3029
682.30 0.3028
682.40 0.3026
682.50 0.3024
682.60 0.3023
682.70 0.3021
682.80 0.3019
682.90 0.3018
683.00 0.3016
683.10 0.3014
683.20 0.3012
683.30 0.3011
683.40 0.3009
683.50 0.3007
683.60 0.3006
683.70 0.3004
683.80 0.3002
683.90 0.3001
684.00 0.2999
684.10 0.2997
684.20 0.2996
684.30 0.2994
684.40 0.2992
684.50 0.2991
684.60 0.2989
684.70 0.2987
684.80 0.2986
684.90 0.2984
685.00 0.2982
685.10 0.2981
685.20 0.2979
685.30 0.2977
685.40 0.2976
685.50 0.2974
685.60 0.2972
685.70 0.2971
685.80 0.2969
685.90 0.2967
686.00 0.2966
686.10 0.2964
686.20 0.2962
686.30 0.2961
686.40 0.2959
686.50 0.2957
686.60 0.2956
686.70 0.2954
686.80 0.2952
686.90 0.2951
687.00 0.2949
687.10 0.2947
687.20 0.2946
687.30 0.2944
687.40 0.2942
687.50 0.2941
687.60 0.2939
687.70 0.2937
687.80 0.2936
687.90 0.2934
688.00 0.2933
688.10 0.2931
688.20 0.2929
688.30 0.2928
688.40 0.2926
688.50 0.2924
688.60 0.2923
688.70 0.2921
688.80 0.2919
688.90 0.2918
689.00 0.2916
689.10 0.2915
689.20 0.2913
689.30 0.2911
689.40 0.291
689.50 0.2908
689.60 0.2906
689.70 0.2905
689.80 0.2903
689.90 0.2902
690.00 0.29
690.10 0.2898
690.20 0.2897
690.30 0.2895
690.40 0.2894
690.50 0.2892
690.60 0.289
690.70 0.2889
690.80 0.2887
690.90 0.2885
691.00 0.2884
691.10 0.2882
691.20 0.2881
691.30 0.2879
691.40 0.2877
691.50 0.2876
691.60 0.2874
691.70 0.2873
691.80 0.2871
691.90 0.2869
692.00 0.2868
692.10 0.2866
692.20 0.2865
692.30 0.2863
692.40 0.2861
692.50 0.286
692.60 0.2858
692.70 0.2857
692.80 0.2855
692.90 0.2853
693.00 0.2852
693.10 0.285
693.20 0.2849
693.30 0.2847
693.40 0.2846
693.50 0.2844
693.60 0.2842
693.70 0.2841
693.80 0.2839
693.90 0.2838
694.00 0.2836
694.10 0.2834
694.20 0.2833
694.30 0.2831
694.40 0.283
694.50 0.2828
694.60 0.2827
694.70 0.2825
694.80 0.2823
694.90 0.2822
695.00 0.282
695.10 0.2819
695.20 0.2817
695.30 0.2816
695.40 0.2814
695.50 0.2812
695.60 0.2811
695.70 0.2809
695.80 0.2808
695.90 0.2806
696.00 0.2805
696.10 0.2803
696.20 0.2802
696.30 0.28
696.40 0.2798
696.50 0.2797
696.60 0.2795
696.70 0.2794
696.80 0.2792
696.90 0.2791
697.00 0.2789
697.10 0.2788
697.20 0.2786
697.30 0.2785
697.40 0.2783
697.50 0.2781
697.60 0.278
697.70 0.2778
697.80 0.2777
697.90 0.2775
698.00 0.2774
698.10 0.2772
698.20 0.2771
698.30 0.2769
698.40 0.2768
698.50 0.2766
698.60 0.2765
698.70 0.2763
698.80 0.2762
698.90 0.276
699.00 0.2758
699.10 0.2757
699.20 0.2755
699.30 0.2754
699.40 0.2752
699.50 0.2751
699.60 0.2749
699.70 0.2748
699.80 0.2746
699.90 0.2745
700.00 0.2743
700.10 0.2742
700.20 0.274
700.30 0.2739
700.40 0.2737
700.50 0.2736
700.60 0.2734
700.70 0.2733
700.80 0.2731
700.90 0.273
701.00 0.2728
701.10 0.2727
701.20 0.2725
701.30 0.2724
701.40 0.2722
701.50 0.2721
701.60 0.2719
701.70 0.2718
701.80 0.2716
701.90 0.2715
702.00 0.2713
702.10 0.2712
702.20 0.271
702.30 0.2709
702.40 0.2707
702.50 0.2706
702.60 0.2704
702.70 0.2703
702.80 0.2701
702.90 0.27
703.00 0.2698
703.10 0.2697
703.20 0.2695
703.30 0.2694
703.40 0.2692
703.50 0.2691
703.60 0.2689
703.70 0.2688
703.80 0.2686
703.90 0.2685
704.00 0.2683
704.10 0.2682
704.20 0.2681
704.30 0.2679
704.40 0.2678
704.50 0.2676
704.60 0.2675
704.70 0.2673
704.80 0.2672
704.90 0.267
705.00 0.2669
705.10 0.2667
705.20 0.2666
705.30 0.2664
705.40 0.2663
705.50 0.2661
705.60 0.266
705.70 0.2659
705.80 0.2657
705.90 0.2656
706.00 0.2654
706.10 0.2653
706.20 0.2651
706.30 0.265
706.40 0.2648
706.50 0.2647
706.60 0.2645
706.70 0.2644
706.80 0.2643
706.90 0.2641
707.00 0.264
707.10 0.2638
707.20 0.2637
707.30 0.2635
707.40 0.2634
707.50 0.2633
707.60 0.2631
707.70 0.263
707.80 0.2628
707.90 0.2627
708.00 0.2625
708.10 0.2624
708.20 0.2622
708.30 0.2621
708.40 0.262
708.50 0.2618
708.60 0.2617
708.70 0.2615
708.80 0.2614
708.90 0.2612
709.00 0.2611
709.10 0.261
709.20 0.2608
709.30 0.2607
709.40 0.2605
709.50 0.2604
709.60 0.2602
709.70 0.2601
709.80 0.26
709.90 0.2598
710.00 0.2597
710.10 0.2595
710.20 0.2594
710.30 0.2593
710.40 0.2591
710.50 0.259
710.60 0.2588
710.70 0.2587
710.80 0.2585
710.90 0.2584
711.00 0.2583
711.10 0.2581
711.20 0.258
711.30 0.2578
711.40 0.2577
711.50 0.2576
711.60 0.2574
711.70 0.2573
711.80 0.2571
711.90 0.257
712.00 0.2569
712.10 0.2567
712.20 0.2566
712.30 0.2565
712.40 0.2563
712.50 0.2562
712.60 0.256
712.70 0.2559
712.80 0.2558
712.90 0.2556
713.00 0.2555
713.10 0.2553
713.20 0.2552
713.30 0.2551
713.40 0.2549
713.50 0.2548
713.60 0.2546
713.70 0.2545
713.80 0.2544
713.90 0.2542
714.00 0.2541
714.10 0.254
714.20 0.2538
714.30 0.2537
714.40 0.2535
714.50 0.2534
714.60 0.2533
714.70 0.2531
714.80 0.253
714.90 0.2529
715.00 0.2527
715.10 0.2526
715.20 0.2524
715.30 0.2523
715.40 0.2522
715.50 0.252
715.60 0.2519
715.70 0.2518
715.80 0.2516
715.90 0.2515
716.00 0.2514
716.10 0.2512
716.20 0.2511
716.30 0.2509
716.40 0.2508
716.50 0.2507
716.60 0.2505
716.70 0.2504
716.80 0.2503
716.90 0.2501
717.00 0.25
717.10 0.2499
717.20 0.2497
717.30 0.2496
717.40 0.2495
717.50 0.2493
717.60 0.2492
717.70 0.2491
717.80 0.2489
717.90 0.2488
718.00 0.2487
718.10 0.2485
718.20 0.2484
718.30 0.2483
718.40 0.2481
718.50 0.248
718.60 0.2479
718.70 0.2477
718.80 0.2476
718.90 0.2475
719.00 0.2473
719.10 0.2472
719.20 0.247
719.30 0.2469
719.40 0.2468
719.50 0.2466
719.60 0.2465
719.70 0.2464
719.80 0.2462
719.90 0.2461
720.00 0.246
720.10 0.2459
720.20 0.2457
720.30 0.2456
720.40 0.2455
720.50 0.2453
720.60 0.2452
720.70 0.2451
720.80 0.2449
720.90 0.2448
721.00 0.2447
721.10 0.2445
721.20 0.2444
721.30 0.2443
721.40 0.2441
721.50 0.244
721.60 0.2439
721.70 0.2438
721.80 0.2436
721.90 0.2435
722.00 0.2434
722.10 0.2432
722.20 0.2431
722.30 0.243
722.40 0.2428
722.50 0.2427
722.60 0.2426
722.70 0.2424
722.80 0.2423
722.90 0.2422
723.00 0.2421
723.10 0.2419
723.20 0.2418
723.30 0.2417
723.40 0.2415
723.50 0.2414
723.60 0.2413
723.70 0.2412
723.80 0.241
723.90 0.2409
724.00 0.2408
724.10 0.2406
724.20 0.2405
724.30 0.2404
724.40 0.2402
724.50 0.2401
724.60 0.24
724.70 0.2399
724.80 0.2397
724.90 0.2396
725.00 0.2395
725.10 0.2393
725.20 0.2392
725.30 0.2391
725.40 0.239
725.50 0.2388
725.60 0.2387
725.70 0.2386
725.80 0.2385
725.90 0.2383
726.00 0.2382
726.10 0.2381
726.20 0.238
726.30 0.2378
726.40 0.2377
726.50 0.2376
726.60 0.2374
726.70 0.2373
726.80 0.2372
726.90 0.2371
727.00 0.2369
727.10 0.2368
727.20 0.2367
727.30 0.2366
727.40 0.2364
727.50 0.2363
727.60 0.2362
727.70 0.2361
727.80 0.2359
727.90 0.2358
728.00 0.2357
728.10 0.2356
728.20 0.2354
728.30 0.2353
728.40 0.2352
728.50 0.2351
728.60 0.2349
728.70 0.2348
728.80 0.2347
728.90 0.2346
729.00 0.2344
729.10 0.2343
729.20 0.2342
729.30 0.2341
729.40 0.2339
729.50 0.2338
729.60 0.2337
729.70 0.2336
729.80 0.2334
729.90 0.2333
730.00 0.2332
730.10 0.2331
730.20 0.2329
730.30 0.2328
730.40 0.2327
730.50 0.2326
730.60 0.2324
730.70 0.2323
730.80 0.2322
730.90 0.2321
731.00 0.232
731.10 0.2318
731.20 0.2317
731.30 0.2316
731.40 0.2315
731.50 0.2313
731.60 0.2312
731.70 0.2311
731.80 0.231
731.90 0.2309
732.00 0.2307
732.10 0.2306
732.20 0.2305
732.30 0.2304
732.40 0.2303
732.50 0.2301
732.60 0.23
732.70 0.2299
732.80 0.2298
732.90 0.2296
733.00 0.2295
733.10 0.2294
733.20 0.2293
733.30 0.2292
733.40 0.229
733.50 0.2289
733.60 0.2288
733.70 0.2287
733.80 0.2286
733.90 0.2284
734.00 0.2283
734.10 0.2282
734.20 0.2281
734.30 0.228
734.40 0.2278
734.50 0.2277
734.60 0.2276
734.70 0.2275
734.80 0.2274
734.90 0.2272
735.00 0.2271
735.10 0.227
735.20 0.2269
735.30 0.2268
735.40 0.2266
735.50 0.2265
735.60 0.2264
735.70 0.2263
735.80 0.2262
735.90 0.226
736.00 0.2259
736.10 0.2258
736.20 0.2257
736.30 0.2256
736.40 0.2255
736.50 0.2253
736.60 0.2252
736.70 0.2251
736.80 0.225
736.90 0.2249
737.00 0.2247
737.10 0.2246
737.20 0.2245
737.30 0.2244
737.40 0.2243
737.50 0.2241
737.60 0.224
737.70 0.2239
737.80 0.2238
737.90 0.2237
738.00 0.2236
738.10 0.2234
738.20 0.2233
738.30 0.2232
738.40 0.2231
738.50 0.223
738.60 0.2228
738.70 0.2227
738.80 0.2226
738.90 0.2225
739.00 0.2224
739.10 0.2223
739.20 0.2221
739.30 0.222
739.40 0.2219
739.50 0.2218
739.60 0.2217
739.70 0.2216
739.80 0.2214
739.90 0.2213
740.00 0.2212
740.10 0.2211
740.20 0.221
740.30 0.2209
740.40 0.2207
740.50 0.2206
740.60 0.2205
740.70 0.2204
740.80 0.2203
740.90 0.2202
741.00 0.2201
741.10 0.2199
741.20 0.2198
741.30 0.2197
741.40 0.2196
741.50 0.2195
741.60 0.2194
741.70 0.2193
741.80 0.2191
741.90 0.219
742.00 0.2189
742.10 0.2188
742.20 0.2187
742.30 0.2186
742.40 0.2185
742.50 0.2183
742.60 0.2182
742.70 0.2181
742.80 0.218
742.90 0.2179
743.00 0.2178
743.10 0.2177
743.20 0.2176
743.30 0.2174
743.40 0.2173
743.50 0.2172
743.60 0.2171
743.70 0.217
743.80 0.2169
743.90 0.2168
744.00 0.2167
744.10 0.2165
744.20 0.2164
744.30 0.2163
744.40 0.2162
744.50 0.2161
744.60 0.216
744.70 0.2159
744.80 0.2158
744.90 0.2156
745.00 0.2155
745.10 0.2154
745.20 0.2153
745.30 0.2152
745.40 0.2151
745.50 0.215
745.60 0.2149
745.70 0.2147
745.80 0.2146
745.90 0.2145
746.00 0.2144
746.10 0.2143
746.20 0.2142
746.30 0.2141
746.40 0.214
746.50 0.2139
746.60 0.2137
746.70 0.2136
746.80 0.2135
746.90 0.2134
747.00 0.2133
747.10 0.2132
747.20 0.2131
747.30 0.213
747.40 0.2128
747.50 0.2127
747.60 0.2126
747.70 0.2125
747.80 0.2124
747.90 0.2123
748.00 0.2122
748.10 0.2121
748.20 0.212
748.30 0.2119
748.40 0.2117
748.50 0.2116
748.60 0.2115
748.70 0.2114
748.80 0.2113
748.90 0.2112
749.00 0.2111
749.10 0.211
749.20 0.2109
749.30 0.2108
749.40 0.2106
749.50 0.2105
749.60 0.2104
749.70 0.2103
749.80 0.2102
749.90 0.2101
750.00 0.21
750.10 0.2099
750.20 0.2098
750.30 0.2097
750.40 0.2096
750.50 0.2094
750.60 0.2093
750.70 0.2092
750.80 0.2091
750.90 0.209
751.00 0.2089
751.10 0.2088
751.20 0.2087
751.30 0.2086
751.40 0.2085
751.50 0.2084
751.60 0.2083
751.70 0.2082
751.80 0.2081
751.90 0.2079
752.00 0.2078
752.10 0.2077
752.20 0.2076
752.30 0.2075
752.40 0.2074
752.50 0.2073
752.60 0.2072
752.70 0.2071
752.80 0.207
752.90 0.2069
753.00 0.2068
753.10 0.2067
753.20 0.2066
753.30 0.2065
753.40 0.2064
753.50 0.2062
753.60 0.2061
753.70 0.206
753.80 0.2059
753.90 0.2058
754.00 0.2057
754.10 0.2056
754.20 0.2055
754.30 0.2054
754.40 0.2053
754.50 0.2052
754.60 0.2051
754.70 0.205
754.80 0.2049
754.90 0.2048
755.00 0.2047
755.10 0.2046
755.20 0.2045
755.30 0.2043
755.40 0.2042
755.50 0.2041
755.60 0.204
755.70 0.2039
755.80 0.2038
755.90 0.2037
756.00 0.2036
756.10 0.2035
756.20 0.2034
756.30 0.2033
756.40 0.2032
756.50 0.2031
756.60 0.203
756.70 0.2029
756.80 0.2028
756.90 0.2027
757.00 0.2026
757.10 0.2025
757.20 0.2024
757.30 0.2023
757.40 0.2022
757.50 0.202
757.60 0.2019
757.70 0.2018
757.80 0.2017
757.90 0.2016
758.00 0.2015
758.10 0.2014
758.20 0.2013
758.30 0.2012
758.40 0.2011
758.50 0.201
758.60 0.2009
758.70 0.2008
758.80 0.2007
758.90 0.2006
759.00 0.2005
759.10 0.2004
759.20 0.2003
759.30 0.2002
759.40 0.2001
759.50 0.2
759.60 0.1999
759.70 0.1998
759.80 0.1997
759.90 0.1996
760.00 0.1995
760.10 0.1994
760.20 0.1993
760.30 0.1992
760.40 0.1991
760.50 0.199
760.60 0.1989
760.70 0.1988
760.80 0.1987
760.90 0.1986
761.00 0.1985
761.10 0.1984
761.20 0.1983
761.30 0.1982
761.40 0.1981
761.50 0.198
761.60 0.1979
761.70 0.1978
761.80 0.1977
761.90 0.1976
762.00 0.1975
762.10 0.1974
762.20 0.1973
762.30 0.1972
762.40 0.1971
762.50 0.197
762.60 0.1969
762.70 0.1968
762.80 0.1967
762.90 0.1966
763.00 0.1965
763.10 0.1964
763.20 0.1963
763.30 0.1962
763.40 0.1961
763.50 0.196
763.60 0.1959
763.70 0.1958
763.80 0.1957
763.90 0.1956
764.00 0.1955
764.10 0.1954
764.20 0.1953
764.30 0.1952
764.40 0.1951
764.50 0.195
764.60 0.1949
764.70 0.1948
764.80 0.1947
764.90 0.1946
765.00 0.1945
765.10 0.1944
765.20 0.1943
765.30 0.1942
765.40 0.1941
765.50 0.194
765.60 0.1939
765.70 0.1938
765.80 0.1937
765.90 0.1936
766.00 0.1935
766.10 0.1934
766.20 0.1933
766.30 0.1932
766.40 0.1931
766.50 0.193
766.60 0.1929
766.70 0.1928
766.80 0.1927
766.90 0.1926
767.00 0.1925
767.10 0.1924
767.20 0.1923
767.30 0.1922
767.40 0.1921
767.50 0.192
767.60 0.1919
767.70 0.1918
767.80 0.1917
767.90 0.1916
768.00 0.1915
768.10 0.1914
768.20 0.1913
768.30 0.1912
768.40 0.1911
768.50 0.1911
768.60 0.191
768.70 0.1909
768.80 0.1908
768.90 0.1907
769.00 0.1906
769.10 0.1905
769.20 0.1904
769.30 0.1903
769.40 0.1902
769.50 0.1901
769.60 0.19
769.70 0.1899
769.80 0.1898
769.90 0.1897
770.00 0.1896
770.10 0.1895
770.20 0.1894
770.30 0.1893
770.40 0.1892
770.50 0.1891
770.60 0.189
770.70 0.1889
770.80 0.1888
770.90 0.1887
771.00 0.1887
771.10 0.1886
771.20 0.1885
771.30 0.1884
771.40 0.1883
771.50 0.1882
771.60 0.1881
771.70 0.188
771.80 0.1879
771.90 0.1878
772.00 0.1877
772.10 0.1876
772.20 0.1875
772.30 0.1874
772.40 0.1873
772.50 0.1872
772.60 0.1872
772.70 0.1871
772.80 0.187
772.90 0.1869
773.00 0.1868
773.10 0.1867
773.20 0.1866
773.30 0.1865
773.40 0.1864
773.50 0.1863
773.60 0.1862
773.70 0.1861
773.80 0.186
773.90 0.1859
774.00 0.1858
774.10 0.1858
774.20 0.1857
774.30 0.1856
774.40 0.1855
774.50 0.1854
774.60 0.1853
774.70 0.1852
774.80 0.1851
774.90 0.185
775.00 0.1849
775.10 0.1848
775.20 0.1847
775.30 0.1846
775.40 0.1845
775.50 0.1845
775.60 0.1844
775.70 0.1843
775.80 0.1842
775.90 0.1841
776.00 0.184
776.10 0.1839
776.20 0.1838
776.30 0.1837
776.40 0.1836
776.50 0.1835
776.60 0.1834
776.70 0.1833
776.80 0.1833
776.90 0.1832
777.00 0.1831
777.10 0.183
777.20 0.1829
777.30 0.1828
777.40 0.1827
777.50 0.1826
777.60 0.1825
777.70 0.1824
777.80 0.1823
777.90 0.1822
778.00 0.1822
778.10 0.1821
778.20 0.182
778.30 0.1819
778.40 0.1818
778.50 0.1817
778.60 0.1816
778.70 0.1815
778.80 0.1814
778.90 0.1813
779.00 0.1812
779.10 0.1812
779.20 0.1811
779.30 0.181
779.40 0.1809
779.50 0.1808
779.60 0.1807
779.70 0.1806
779.80 0.1805
779.90 0.1804
780.00 0.1803
780.10 0.1802
780.20 0.1802
780.30 0.1801
780.40 0.18
780.50 0.1799
780.60 0.1798
780.70 0.1797
780.80 0.1796
780.90 0.1795
781.00 0.1794
781.10 0.1794
781.20 0.1793
781.30 0.1792
781.40 0.1791
781.50 0.179
781.60 0.1789
781.70 0.1788
781.80 0.1787
781.90 0.1787
782.00 0.1786
782.10 0.1785
782.20 0.1784
782.30 0.1783
782.40 0.1782
782.50 0.1781
782.60 0.178
782.70 0.1779
782.80 0.1779
782.90 0.1778
783.00 0.1777
783.10 0.1776
783.20 0.1775
783.30 0.1774
783.40 0.1773
783.50 0.1772
783.60 0.1772
783.70 0.1771
783.80 0.177
783.90 0.1769
784.00 0.1768
784.10 0.1767
784.20 0.1766
784.30 0.1765
784.40 0.1765
784.50 0.1764
784.60 0.1763
784.70 0.1762
784.80 0.1761
784.90 0.176
785.00 0.1759
785.10 0.1759
785.20 0.1758
785.30 0.1757
785.40 0.1756
785.50 0.1755
785.60 0.1754
785.70 0.1753
785.80 0.1752
785.90 0.1752
786.00 0.1751
786.10 0.175
786.20 0.1749
786.30 0.1748
786.40 0.1747
786.50 0.1746
786.60 0.1745
786.70 0.1745
786.80 0.1744
786.90 0.1743
787.00 0.1742
787.10 0.1741
787.20 0.174
787.30 0.1739
787.40 0.1739
787.50 0.1738
787.60 0.1737
787.70 0.1736
787.80 0.1735
787.90 0.1734
788.00 0.1733
788.10 0.1733
788.20 0.1732
788.30 0.1731
788.40 0.173
788.50 0.1729
788.60 0.1728
788.70 0.1727
788.80 0.1727
788.90 0.1726
789.00 0.1725
789.10 0.1724
789.20 0.1723
789.30 0.1722
789.40 0.1721
789.50 0.1721
789.60 0.172
789.70 0.1719
789.80 0.1718
789.90 0.1717
790.00 0.1716
790.10 0.1716
790.20 0.1715
790.30 0.1714
790.40 0.1713
790.50 0.1712
790.60 0.1711
790.70 0.171
790.80 0.171
790.90 0.1709
791.00 0.1708
791.10 0.1707
791.20 0.1706
791.30 0.1705
791.40 0.1705
791.50 0.1704
791.60 0.1703
791.70 0.1702
791.80 0.1701
791.90 0.1701
792.00 0.17
792.10 0.1699
792.20 0.1698
792.30 0.1697
792.40 0.1696
792.50 0.1696
792.60 0.1695
792.70 0.1694
792.80 0.1693
792.90 0.1692
793.00 0.1691
793.10 0.1691
793.20 0.169
793.30 0.1689
793.40 0.1688
793.50 0.1687
793.60 0.1686
793.70 0.1686
793.80 0.1685
793.90 0.1684
794.00 0.1683
794.10 0.1682
794.20 0.1682
794.30 0.1681
794.40 0.168
794.50 0.1679
794.60 0.1678
794.70 0.1677
794.80 0.1677
794.90 0.1676
795.00 0.1675
795.10 0.1674
795.20 0.1673
795.30 0.1673
795.40 0.1672
795.50 0.1671
795.60 0.167
795.70 0.1669
795.80 0.1668
795.90 0.1668
796.00 0.1667
796.10 0.1666
796.20 0.1665
796.30 0.1664
796.40 0.1664
796.50 0.1663
796.60 0.1662
796.70 0.1661
796.80 0.166
796.90 0.1659
797.00 0.1659
797.10 0.1658
797.20 0.1657
797.30 0.1656
797.40 0.1655
797.50 0.1655
797.60 0.1654
797.70 0.1653
797.80 0.1652
797.90 0.1651
798.00 0.1651
798.10 0.165
798.20 0.1649
798.30 0.1648
798.40 0.1647
798.50 0.1647
798.60 0.1646
798.70 0.1645
798.80 0.1644
798.90 0.1643
799.00 0.1643
799.10 0.1642
799.20 0.1641
799.30 0.164
799.40 0.1639
799.50 0.1639
799.60 0.1638
799.70 0.1637
799.80 0.1636
799.90 0.1635
800.00 0.1635
800.10 0.1634
800.20 0.1633
800.30 0.1632
800.40 0.1631
800.50 0.1631
800.60 0.163
800.70 0.1629
800.80 0.1628
800.90 0.1627
801.00 0.1627
801.10 0.1626
801.20 0.1625
801.30 0.1624
801.40 0.1624
801.50 0.1623
801.60 0.1622
801.70 0.1621
801.80 0.162
801.90 0.162
802.00 0.1619
802.10 0.1618
802.20 0.1617
802.30 0.1616
802.40 0.1616
802.50 0.1615
802.60 0.1614
802.70 0.1613
802.80 0.1613
802.90 0.1612
803.00 0.1611
803.10 0.161
803.20 0.1609
803.30 0.1609
803.40 0.1608
803.50 0.1607
803.60 0.1606
803.70 0.1606
803.80 0.1605
803.90 0.1604
804.00 0.1603
804.10 0.1603
804.20 0.1602
804.30 0.1601
804.40 0.16
804.50 0.1599
804.60 0.1599
804.70 0.1598
804.80 0.1597
804.90 0.1596
805.00 0.1596
805.10 0.1595
805.20 0.1594
805.30 0.1593
805.40 0.1593
805.50 0.1592
805.60 0.1591
805.70 0.159
805.80 0.1589
805.90 0.1589
806.00 0.1588
806.10 0.1587
806.20 0.1586
806.30 0.1586
806.40 0.1585
806.50 0.1584
806.60 0.1583
806.70 0.1583
806.80 0.1582
806.90 0.1581
807.00 0.158
807.10 0.1579
807.20 0.1579
807.30 0.1578
807.40 0.1577
807.50 0.1576
807.60 0.1576
807.70 0.1575
807.80 0.1574
807.90 0.1573
808.00 0.1573
808.10 0.1572
808.20 0.1571
808.30 0.157
808.40 0.157
808.50 0.1569
808.60 0.1568
808.70 0.1567
808.80 0.1567
808.90 0.1566
809.00 0.1565
809.10 0.1564
809.20 0.1564
809.30 0.1563
809.40 0.1562
809.50 0.1561
809.60 0.1561
809.70 0.156
809.80 0.1559
809.90 0.1558
810.00 0.1557
810.10 0.1557
810.20 0.1556
810.30 0.1555
810.40 0.1555
810.50 0.1554
810.60 0.1553
810.70 0.1552
810.80 0.1552
810.90 0.1551
811.00 0.155
811.10 0.1549
811.20 0.1549
811.30 0.1548
811.40 0.1547
811.50 0.1546
811.60 0.1546
811.70 0.1545
811.80 0.1544
811.90 0.1543
812.00 0.1543
812.10 0.1542
812.20 0.1541
812.30 0.1541
812.40 0.154
812.50 0.1539
812.60 0.1538
812.70 0.1538
812.80 0.1537
812.90 0.1536
813.00 0.1535
813.10 0.1535
813.20 0.1534
813.30 0.1533
813.40 0.1532
813.50 0.1532
813.60 0.1531
813.70 0.153
813.80 0.153
813.90 0.1529
814.00 0.1528
814.10 0.1527
814.20 0.1527
814.30 0.1526
814.40 0.1525
814.50 0.1524
814.60 0.1524
814.70 0.1523
814.80 0.1522
814.90 0.1522
815.00 0.1521
815.10 0.152
815.20 0.1519
815.30 0.1519
815.40 0.1518
815.50 0.1517
815.60 0.1517
815.70 0.1516
815.80 0.1515
815.90 0.1514
816.00 0.1514
816.10 0.1513
816.20 0.1512
816.30 0.1511
816.40 0.1511
816.50 0.151
816.60 0.1509
816.70 0.1509
816.80 0.1508
816.90 0.1507
817.00 0.1506
817.10 0.1506
817.20 0.1505
817.30 0.1504
817.40 0.1504
817.50 0.1503
817.60 0.1502
817.70 0.1501
817.80 0.1501
817.90 0.15
818.00 0.1499
818.10 0.1499
818.20 0.1498
818.30 0.1497
818.40 0.1496
818.50 0.1496
818.60 0.1495
818.70 0.1494
818.80 0.1494
818.90 0.1493
819.00 0.1492
819.10 0.1491
819.20 0.1491
819.30 0.149
819.40 0.1489
819.50 0.1489
819.60 0.1488
819.70 0.1487
819.80 0.1486
819.90 0.1486
820.00 0.1485
820.10 0.1484
820.20 0.1484
820.30 0.1483
820.40 0.1482
820.50 0.1481
820.60 0.1481
820.70 0.148
820.80 0.1479
820.90 0.1479
821.00 0.1478
821.10 0.1477
821.20 0.1477
821.30 0.1476
821.40 0.1475
821.50 0.1474
821.60 0.1474
821.70 0.1473
821.80 0.1472
821.90 0.1472
822.00 0.1471
822.10 0.147
822.20 0.147
822.30 0.1469
822.40 0.1468
822.50 0.1468
822.60 0.1467
822.70 0.1466
822.80 0.1465
822.90 0.1465
823.00 0.1464
823.10 0.1463
823.20 0.1463
823.30 0.1462
823.40 0.1461
823.50 0.1461
823.60 0.146
823.70 0.1459
823.80 0.1459
823.90 0.1458
824.00 0.1457
824.10 0.1456
824.20 0.1456
824.30 0.1455
824.40 0.1454
824.50 0.1454
824.60 0.1453
824.70 0.1452
824.80 0.1452
824.90 0.1451
825.00 0.145
825.10 0.145
825.20 0.1449
825.30 0.1448
825.40 0.1448
825.50 0.1447
825.60 0.1446
825.70 0.1446
825.80 0.1445
825.90 0.1444
826.00 0.1444
826.10 0.1443
826.20 0.1442
826.30 0.1441
826.40 0.1441
826.50 0.144
826.60 0.1439
826.70 0.1439
826.80 0.1438
826.90 0.1437
827.00 0.1437
827.10 0.1436
827.20 0.1435
827.30 0.1435
827.40 0.1434
827.50 0.1433
827.60 0.1433
827.70 0.1432
827.80 0.1431
827.90 0.1431
828.00 0.143
828.10 0.1429
828.20 0.1429
828.30 0.1428
828.40 0.1427
828.50 0.1427
828.60 0.1426
828.70 0.1425
828.80 0.1425
828.90 0.1424
829.00 0.1423
829.10 0.1423
829.20 0.1422
829.30 0.1421
829.40 0.1421
829.50 0.142
829.60 0.1419
829.70 0.1419
829.80 0.1418
829.90 0.1417
830.00 0.1417
830.10 0.1416
830.20 0.1415
830.30 0.1415
830.40 0.1414
830.50 0.1413
830.60 0.1413
830.70 0.1412
830.80 0.1411
830.90 0.1411
831.00 0.141
831.10 0.1409
831.20 0.1409
831.30 0.1408
831.40 0.1407
831.50 0.1407
831.60 0.1406
831.70 0.1405
831.80 0.1405
831.90 0.1404
832.00 0.1403
832.10 0.1403
832.20 0.1402
832.30 0.1401
832.40 0.1401
832.50 0.14
832.60 0.14
832.70 0.1399
832.80 0.1398
832.90 0.1398
833.00 0.1397
833.10 0.1396
833.20 0.1396
833.30 0.1395
833.40 0.1394
833.50 0.1394
833.60 0.1393
833.70 0.1392
833.80 0.1392
833.90 0.1391
834.00 0.139
834.10 0.139
834.20 0.1389
834.30 0.1388
834.40 0.1388
834.50 0.1387
834.60 0.1387
834.70 0.1386
834.80 0.1385
834.90 0.1385
835.00 0.1384
835.10 0.1383
835.20 0.1383
835.30 0.1382
835.40 0.1381
835.50 0.1381
835.60 0.138
835.70 0.1379
835.80 0.1379
835.90 0.1378
836.00 0.1377
836.10 0.1377
836.20 0.1376
836.30 0.1376
836.40 0.1375
836.50 0.1374
836.60 0.1374
836.70 0.1373
836.80 0.1372
836.90 0.1372
837.00 0.1371
837.10 0.137
837.20 0.137
837.30 0.1369
837.40 0.1369
837.50 0.1368
837.60 0.1367
837.70 0.1367
837.80 0.1366
837.90 0.1365
838.00 0.1365
838.10 0.1364
838.20 0.1363
838.30 0.1363
838.40 0.1362
838.50 0.1362
838.60 0.1361
838.70 0.136
838.80 0.136
838.90 0.1359
839.00 0.1358
839.10 0.1358
839.20 0.1357
839.30 0.1356
839.40 0.1356
839.50 0.1355
839.60 0.1355
839.70 0.1354
839.80 0.1353
839.90 0.1353
840.00 0.1352
840.10 0.1351
840.20 0.1351
840.30 0.135
840.40 0.135
840.50 0.1349
840.60 0.1348
840.70 0.1348
840.80 0.1347
840.90 0.1346
841.00 0.1346
841.10 0.1345
841.20 0.1345
841.30 0.1344
841.40 0.1343
841.50 0.1343
841.60 0.1342
841.70 0.1341
841.80 0.1341
841.90 0.134
842.00 0.134
842.10 0.1339
842.20 0.1338
842.30 0.1338
842.40 0.1337
842.50 0.1336
842.60 0.1336
842.70 0.1335
842.80 0.1335
842.90 0.1334
843.00 0.1333
843.10 0.1333
843.20 0.1332
843.30 0.1332
843.40 0.1331
843.50 0.133
843.60 0.133
843.70 0.1329
843.80 0.1328
843.90 0.1328
844.00 0.1327
844.10 0.1327
844.20 0.1326
844.30 0.1325
844.40 0.1325
844.50 0.1324
844.60 0.1324
844.70 0.1323
844.80 0.1322
844.90 0.1322
845.00 0.1321
845.10 0.1321
845.20 0.132
845.30 0.1319
845.40 0.1319
845.50 0.1318
845.60 0.1317
845.70 0.1317
845.80 0.1316
845.90 0.1316
846.00 0.1315
846.10 0.1314
846.20 0.1314
846.30 0.1313
846.40 0.1313
846.50 0.1312
846.60 0.1311
846.70 0.1311
846.80 0.131
846.90 0.131
847.00 0.1309
847.10 0.1308
847.20 0.1308
847.30 0.1307
847.40 0.1307
847.50 0.1306
847.60 0.1305
847.70 0.1305
847.80 0.1304
847.90 0.1304
848.00 0.1303
848.10 0.1302
848.20 0.1302
848.30 0.1301
848.40 0.1301
848.50 0.13
848.60 0.1299
848.70 0.1299
848.80 0.1298
848.90 0.1298
849.00 0.1297
849.10 0.1296
849.20 0.1296
849.30 0.1295
849.40 0.1295
849.50 0.1294
849.60 0.1293
849.70 0.1293
849.80 0.1292
849.90 0.1292
850.00 0.1291
850.10 0.129
850.20 0.129
850.30 0.1289
850.40 0.1289
850.50 0.1288
850.60 0.1288
850.70 0.1287
850.80 0.1286
850.90 0.1286
851.00 0.1285
851.10 0.1285
851.20 0.1284
851.30 0.1283
851.40 0.1283
851.50 0.1282
851.60 0.1282
851.70 0.1281
851.80 0.128
851.90 0.128
852.00 0.1279
852.10 0.1279
852.20 0.1278
852.30 0.1277
852.40 0.1277
852.50 0.1276
852.60 0.1276
852.70 0.1275
852.80 0.1275
852.90 0.1274
853.00 0.1273
853.10 0.1273
853.20 0.1272
853.30 0.1272
853.40 0.1271
853.50 0.1271
853.60 0.127
853.70 0.1269
853.80 0.1269
853.90 0.1268
854.00 0.1268
854.10 0.1267
854.20 0.1266
854.30 0.1266
854.40 0.1265
854.50 0.1265
854.60 0.1264
854.70 0.1264
854.80 0.1263
854.90 0.1262
855.00 0.1262
855.10 0.1261
855.20 0.1261
855.30 0.126
855.40 0.126
855.50 0.1259
855.60 0.1258
855.70 0.1258
855.80 0.1257
855.90 0.1257
856.00 0.1256
856.10 0.1256
856.20 0.1255
856.30 0.1254
856.40 0.1254
856.50 0.1253
856.60 0.1253
856.70 0.1252
856.80 0.1252
856.90 0.1251
857.00 0.125
857.10 0.125
857.20 0.1249
857.30 0.1249
857.40 0.1248
857.50 0.1248
857.60 0.1247
857.70 0.1246
857.80 0.1246
857.90 0.1245
858.00 0.1245
858.10 0.1244
858.20 0.1244
858.30 0.1243
858.40 0.1243
858.50 0.1242
858.60 0.1241
858.70 0.1241
858.80 0.124
858.90 0.124
859.00 0.1239
859.10 0.1239
859.20 0.1238
859.30 0.1237
859.40 0.1237
859.50 0.1236
859.60 0.1236
859.70 0.1235
859.80 0.1235
859.90 0.1234
860.00 0.1234
860.10 0.1233
860.20 0.1232
860.30 0.1232
860.40 0.1231
860.50 0.1231
860.60 0.123
860.70 0.123
860.80 0.1229
860.90 0.1229
861.00 0.1228
861.10 0.1227
861.20 0.1227
861.30 0.1226
861.40 0.1226
861.50 0.1225
861.60 0.1225
861.70 0.1224
861.80 0.1224
861.90 0.1223
862.00 0.1222
862.10 0.1222
862.20 0.1221
862.30 0.1221
862.40 0.122
862.50 0.122
862.60 0.1219
862.70 0.1219
862.80 0.1218
862.90 0.1217
863.00 0.1217
863.10 0.1216
863.20 0.1216
863.30 0.1215
863.40 0.1215
863.50 0.1214
863.60 0.1214
863.70 0.1213
863.80 0.1213
863.90 0.1212
864.00 0.1211
864.10 0.1211
864.20 0.121
864.30 0.121
864.40 0.1209
864.50 0.1209
864.60 0.1208
864.70 0.1208
864.80 0.1207
864.90 0.1207
865.00 0.1206
865.10 0.1205
865.20 0.1205
865.30 0.1204
865.40 0.1204
865.50 0.1203
865.60 0.1203
865.70 0.1202
865.80 0.1202
865.90 0.1201
866.00 0.1201
866.10 0.12
866.20 0.1199
866.30 0.1199
866.40 0.1198
866.50 0.1198
866.60 0.1197
866.70 0.1197
866.80 0.1196
866.90 0.1196
867.00 0.1195
867.10 0.1195
867.20 0.1194
867.30 0.1194
867.40 0.1193
867.50 0.1192
867.60 0.1192
867.70 0.1191
867.80 0.1191
867.90 0.119
868.00 0.119
868.10 0.1189
868.20 0.1189
868.30 0.1188
868.40 0.1188
868.50 0.1187
868.60 0.1187
868.70 0.1186
868.80 0.1186
868.90 0.1185
869.00 0.1184
869.10 0.1184
869.20 0.1183
869.30 0.1183
869.40 0.1182
869.50 0.1182
869.60 0.1181
869.70 0.1181
869.80 0.118
869.90 0.118
870.00 0.1179
870.10 0.1179
870.20 0.1178
870.30 0.1178
870.40 0.1177
870.50 0.1177
870.60 0.1176
870.70 0.1175
870.80 0.1175
870.90 0.1174
871.00 0.1174
871.10 0.1173
871.20 0.1173
871.30 0.1172
871.40 0.1172
871.50 0.1171
871.60 0.1171
871.70 0.117
871.80 0.117
871.90 0.1169
872.00 0.1169
872.10 0.1168
872.20 0.1168
872.30 0.1167
872.40 0.1167
872.50 0.1166
872.60 0.1166
872.70 0.1165
872.80 0.1164
872.90 0.1164
873.00 0.1163
873.10 0.1163
873.20 0.1162
873.30 0.1162
873.40 0.1161
873.50 0.1161
873.60 0.116
873.70 0.116
873.80 0.1159
873.90 0.1159
874.00 0.1158
874.10 0.1158
874.20 0.1157
874.30 0.1157
874.40 0.1156
874.50 0.1156
874.60 0.1155
874.70 0.1155
874.80 0.1154
874.90 0.1154
875.00 0.1153
875.10 0.1153
875.20 0.1152
875.30 0.1152
875.40 0.1151
875.50 0.1151
875.60 0.115
875.70 0.115
875.80 0.1149
875.90 0.1149
876.00 0.1148
876.10 0.1147
876.20 0.1147
876.30 0.1146
876.40 0.1146
876.50 0.1145
876.60 0.1145
876.70 0.1144
876.80 0.1144
876.90 0.1143
877.00 0.1143
877.10 0.1142
877.20 0.1142
877.30 0.1141
877.40 0.1141
877.50 0.114
877.60 0.114
877.70 0.1139
877.80 0.1139
877.90 0.1138
878.00 0.1138
878.10 0.1137
878.20 0.1137
878.30 0.1136
878.40 0.1136
878.50 0.1135
878.60 0.1135
878.70 0.1134
878.80 0.1134
878.90 0.1133
879.00 0.1133
879.10 0.1132
879.20 0.1132
879.30 0.1131
879.40 0.1131
879.50 0.113
879.60 0.113
879.70 0.1129
879.80 0.1129
879.90 0.1128
880.00 0.1128
880.10 0.1127
880.20 0.1127
880.30 0.1126
880.40 0.1126
880.50 0.1125
880.60 0.1125
880.70 0.1124
880.80 0.1124
880.90 0.1123
881.00 0.1123
881.10 0.1122
881.20 0.1122
881.30 0.1121
881.40 0.1121
881.50 0.112
881.60 0.112
881.70 0.1119
881.80 0.1119
881.90 0.1118
882.00 0.1118
882.10 0.1117
882.20 0.1117
882.30 0.1116
882.40 0.1116
882.50 0.1115
882.60 0.1115
882.70 0.1114
882.80 0.1114
882.90 0.1113
883.00 0.1113
883.10 0.1112
883.20 0.1112
883.30 0.1111
883.40 0.1111
883.50 0.1111
883.60 0.111
883.70 0.111
883.80 0.1109
883.90 0.1109
884.00 0.1108
884.10 0.1108
884.20 0.1107
884.30 0.1107
884.40 0.1106
884.50 0.1106
884.60 0.1105
884.70 0.1105
884.80 0.1104
884.90 0.1104
885.00 0.1103
885.10 0.1103
885.20 0.1102
885.30 0.1102
885.40 0.1101
885.50 0.1101
885.60 0.11
885.70 0.11
885.80 0.1099
885.90 0.1099
886.00 0.1098
886.10 0.1098
886.20 0.1097
886.30 0.1097
886.40 0.1096
886.50 0.1096
886.60 0.1095
886.70 0.1095
886.80 0.1094
886.90 0.1094
887.00 0.1094
887.10 0.1093
887.20 0.1093
887.30 0.1092
887.40 0.1092
887.50 0.1091
887.60 0.1091
887.70 0.109
887.80 0.109
887.90 0.1089
888.00 0.1089
888.10 0.1088
888.20 0.1088
888.30 0.1087
888.40 0.1087
888.50 0.1086
888.60 0.1086
888.70 0.1085
888.80 0.1085
888.90 0.1084
889.00 0.1084
889.10 0.1084
889.20 0.1083
889.30 0.1083
889.40 0.1082
889.50 0.1082
889.60 0.1081
889.70 0.1081
889.80 0.108
889.90 0.108
890.00 0.1079
890.10 0.1079
890.20 0.1078
890.30 0.1078
890.40 0.1077
890.50 0.1077
890.60 0.1076
890.70 0.1076
890.80 0.1075
890.90 0.1075
891.00 0.1075
891.10 0.1074
891.20 0.1074
891.30 0.1073
891.40 0.1073
891.50 0.1072
891.60 0.1072
891.70 0.1071
891.80 0.1071
891.90 0.107
892.00 0.107
892.10 0.1069
892.20 0.1069
892.30 0.1068
892.40 0.1068
892.50 0.1068
892.60 0.1067
892.70 0.1067
892.80 0.1066
892.90 0.1066
893.00 0.1065
893.10 0.1065
893.20 0.1064
893.30 0.1064
893.40 0.1063
893.50 0.1063
893.60 0.1062
893.70 0.1062
893.80 0.1062
893.90 0.1061
894.00 0.1061
894.10 0.106
894.20 0.106
894.30 0.1059
894.40 0.1059
894.50 0.1058
894.60 0.1058
894.70 0.1057
894.80 0.1057
894.90 0.1056
895.00 0.1056
895.10 0.1056
895.20 0.1055
895.30 0.1055
895.40 0.1054
895.50 0.1054
895.60 0.1053
895.70 0.1053
895.80 0.1052
895.90 0.1052
896.00 0.1051
896.10 0.1051
896.20 0.1051
896.30 0.105
896.40 0.105
896.50 0.1049
896.60 0.1049
896.70 0.1048
896.80 0.1048
896.90 0.1047
897.00 0.1047
897.10 0.1046
897.20 0.1046
897.30 0.1046
897.40 0.1045
897.50 0.1045
897.60 0.1044
897.70 0.1044
897.80 0.1043
897.90 0.1043
898.00 0.1042
898.10 0.1042
898.20 0.1041
898.30 0.1041
898.40 0.1041
898.50 0.104
898.60 0.104
898.70 0.1039
898.80 0.1039
898.90 0.1038
899.00 0.1038
899.10 0.1037
899.20 0.1037
899.30 0.1037
899.40 0.1036
899.50 0.1036
899.60 0.1035
899.70 0.1035
899.80 0.1034
899.90 0.1034
900.00 0.1033
900.10 0.1033
900.20 0.1033
900.30 0.1032
900.40 0.1032
900.50 0.1031
900.60 0.1031
900.70 0.103
900.80 0.103
900.90 0.1029
901.00 0.1029
901.10 0.1029
901.20 0.1028
901.30 0.1028
901.40 0.1027
901.50 0.1027
901.60 0.1026
901.70 0.1026
901.80 0.1025
901.90 0.1025
902.00 0.1025
902.10 0.1024
902.20 0.1024
902.30 0.1023
902.40 0.1023
902.50 0.1022
902.60 0.1022
902.70 0.1021
902.80 0.1021
902.90 0.1021
903.00 0.102
903.10 0.102
903.20 0.1019
903.30 0.1019
903.40 0.1018
903.50 0.1018
903.60 0.1018
903.70 0.1017
903.80 0.1017
903.90 0.1016
904.00 0.1016
904.10 0.1015
904.20 0.1015
904.30 0.1014
904.40 0.1014
904.50 0.1014
904.60 0.1013
904.70 0.1013
904.80 0.1012
904.90 0.1012
905.00 0.1011
905.10 0.1011
905.20 0.1011
905.30 0.101
905.40 0.101
905.50 0.1009
905.60 0.1009
905.70 0.1008
905.80 0.1008
905.90 0.1008
906.00 0.1007
906.10 0.1007
906.20 0.1006
906.30 0.1006
906.40 0.1005
906.50 0.1005
906.60 0.1004
906.70 0.1004
906.80 0.1004
906.90 0.1003
907.00 0.1003
907.10 0.1002
907.20 0.1002
907.30 0.1001
907.40 0.1001
907.50 0.1001
907.60 0.1
907.70 0.09998
907.80 0.09993
907.90 0.09989
908.00 0.09985
908.10 0.09981
908.20 0.09976
908.30 0.09972
908.40 0.09968
908.50 0.09964
908.60 0.09959
908.70 0.09955
908.80 0.09951
908.90 0.09947
909.00 0.09942
909.10 0.09938
909.20 0.09934
909.30 0.0993
909.40 0.09925
909.50 0.09921
909.60 0.09917
909.70 0.09913
909.80 0.09908
909.90 0.09904
910.00 0.099
910.10 0.09896
910.20 0.09892
910.30 0.09887
910.40 0.09883
910.50 0.09879
910.60 0.09875
910.70 0.0987
910.80 0.09866
910.90 0.09862
911.00 0.09858
911.10 0.09854
911.20 0.09849
911.30 0.09845
911.40 0.09841
911.50 0.09837
911.60 0.09833
911.70 0.09828
911.80 0.09824
911.90 0.0982
912.00 0.09816
912.10 0.09812
912.20 0.09807
912.30 0.09803
912.40 0.09799
912.50 0.09795
912.60 0.09791
912.70 0.09787
912.80 0.09782
912.90 0.09778
913.00 0.09774
913.10 0.0977
913.20 0.09766
913.30 0.09762
913.40 0.09758
913.50 0.09753
913.60 0.09749
913.70 0.09745
913.80 0.09741
913.90 0.09737
914.00 0.09733
914.10 0.09729
914.20 0.09724
914.30 0.0972
914.40 0.09716
914.50 0.09712
914.60 0.09708
914.70 0.09704
914.80 0.097
914.90 0.09696
915.00 0.09691
915.10 0.09687
915.20 0.09683
915.30 0.09679
915.40 0.09675
915.50 0.09671
915.60 0.09667
915.70 0.09663
915.80 0.09659
915.90 0.09654
916.00 0.0965
916.10 0.09646
916.20 0.09642
916.30 0.09638
916.40 0.09634
916.50 0.0963
916.60 0.09626
916.70 0.09622
916.80 0.09618
916.90 0.09614
917.00 0.09609
917.10 0.09605
917.20 0.09601
917.30 0.09597
917.40 0.09593
917.50 0.09589
917.60 0.09585
917.70 0.09581
917.80 0.09577
917.90 0.09573
918.00 0.09569
918.10 0.09565
918.20 0.09561
918.30 0.09557
918.40 0.09553
918.50 0.09549
918.60 0.09545
918.70 0.09541
918.80 0.09537
918.90 0.09533
919.00 0.09529
919.10 0.09525
919.20 0.09521
919.30 0.09517
919.40 0.09513
919.50 0.09509
919.60 0.09505
919.70 0.09501
919.80 0.09497
919.90 0.09493
920.00 0.09489
920.10 0.09485
920.20 0.09481
920.30 0.09477
920.40 0.09473
920.50 0.09469
920.60 0.09465
920.70 0.09461
920.80 0.09457
920.90 0.09453
921.00 0.09449
921.10 0.09445
921.20 0.09442
921.30 0.09438
921.40 0.09434
921.50 0.0943
921.60 0.09426
921.70 0.09422
921.80 0.09418
921.90 0.09414
922.00 0.0941
922.10 0.09406
922.20 0.09402
922.30 0.09398
922.40 0.09394
922.50 0.0939
922.60 0.09386
922.70 0.09382
922.80 0.09378
922.90 0.09374
923.00 0.0937
923.10 0.09367
923.20 0.09363
923.30 0.09359
923.40 0.09355
923.50 0.09351
923.60 0.09347
923.70 0.09343
923.80 0.09339
923.90 0.09335
924.00 0.09331
924.10 0.09327
924.20 0.09323
924.30 0.09319
924.40 0.09316
924.50 0.09312
924.60 0.09308
924.70 0.09304
924.80 0.093
924.90 0.09296
925.00 0.09292
925.10 0.09288
925.20 0.09284
925.30 0.0928
925.40 0.09277
925.50 0.09273
925.60 0.09269
925.70 0.09265
925.80 0.09261
925.90 0.09257
926.00 0.09253
926.10 0.09249
926.20 0.09245
926.30 0.09242
926.40 0.09238
926.50 0.09234
926.60 0.0923
926.70 0.09226
926.80 0.09222
926.90 0.09218
927.00 0.09214
927.10 0.09211
927.20 0.09207
927.30 0.09203
927.40 0.09199
927.50 0.09195
927.60 0.09192
927.70 0.09188
927.80 0.09184
927.90 0.0918
928.00 0.09176
928.10 0.09172
928.20 0.09169
928.30 0.09165
928.40 0.09161
928.50 0.09157
928.60 0.09153
928.70 0.0915
928.80 0.09146
928.90 0.09142
929.00 0.09138
929.10 0.09134
929.20 0.09131
929.30 0.09127
929.40 0.09123
929.50 0.09119
929.60 0.09115
929.70 0.09112
929.80 0.09108
929.90 0.09104
930.00 0.091
930.10 0.09096
930.20 0.09093
930.30 0.09089
930.40 0.09085
930.50 0.09081
930.60 0.09078
930.70 0.09074
930.80 0.0907
930.90 0.09066
931.00 0.09062
931.10 0.09059
931.20 0.09055
931.30 0.09051
931.40 0.09047
931.50 0.09044
931.60 0.0904
931.70 0.09036
931.80 0.09032
931.90 0.09029
932.00 0.09025
932.10 0.09021
932.20 0.09017
932.30 0.09014
932.40 0.0901
932.50 0.09006
932.60 0.09002
932.70 0.08999
932.80 0.08995
932.90 0.08991
933.00 0.08987
933.10 0.08984
933.20 0.0898
933.30 0.08976
933.40 0.08973
933.50 0.08969
933.60 0.08965
933.70 0.08961
933.80 0.08958
933.90 0.08954
934.00 0.0895
934.10 0.08947
934.20 0.08943
934.30 0.08939
934.40 0.08935
934.50 0.08932
934.60 0.08928
934.70 0.08924
934.80 0.08921
934.90 0.08917
935.00 0.08913
935.10 0.08909
935.20 0.08906
935.30 0.08902
935.40 0.08898
935.50 0.08895
935.60 0.08891
935.70 0.08887
935.80 0.08883
935.90 0.0888
936.00 0.08876
936.10 0.08872
936.20 0.08869
936.30 0.08865
936.40 0.08861
936.50 0.08858
936.60 0.08854
936.70 0.0885
936.80 0.08847
936.90 0.08843
937.00 0.08839
937.10 0.08836
937.20 0.08832
937.30 0.08828
937.40 0.08825
937.50 0.08821
937.60 0.08817
937.70 0.08814
937.80 0.0881
937.90 0.08806
938.00 0.08802
938.10 0.08799
938.20 0.08795
938.30 0.08791
938.40 0.08788
938.50 0.08784
938.60 0.0878
938.70 0.08777
938.80 0.08773
938.90 0.0877
939.00 0.08766
939.10 0.08762
939.20 0.08759
939.30 0.08755
939.40 0.08751
939.50 0.08748
939.60 0.08744
939.70 0.0874
939.80 0.08737
939.90 0.08733
940.00 0.08729
940.10 0.08726
940.20 0.08722
940.30 0.08718
940.40 0.08715
940.50 0.08711
940.60 0.08707
940.70 0.08704
940.80 0.087
940.90 0.08697
941.00 0.08693
941.10 0.08689
941.20 0.08686
941.30 0.08682
941.40 0.08678
941.50 0.08675
941.60 0.08671
941.70 0.08668
941.80 0.08664
941.90 0.0866
942.00 0.08657
942.10 0.08653
942.20 0.08649
942.30 0.08646
942.40 0.08642
942.50 0.08639
942.60 0.08635
942.70 0.08631
942.80 0.08628
942.90 0.08624
943.00 0.08621
943.10 0.08617
943.20 0.08613
943.30 0.0861
943.40 0.08606
943.50 0.08602
943.60 0.08599
943.70 0.08595
943.80 0.08592
943.90 0.08588
944.00 0.08584
944.10 0.08581
944.20 0.08577
944.30 0.08574
944.40 0.0857
944.50 0.08567
944.60 0.08563
944.70 0.08559
944.80 0.08556
944.90 0.08552
945.00 0.08549
945.10 0.08545
945.20 0.08541
945.30 0.08538
945.40 0.08534
945.50 0.08531
945.60 0.08527
945.70 0.08524
945.80 0.0852
945.90 0.08516
946.00 0.08513
946.10 0.08509
946.20 0.08506
946.30 0.08502
946.40 0.08499
946.50 0.08495
946.60 0.08491
946.70 0.08488
946.80 0.08484
946.90 0.08481
947.00 0.08477
947.10 0.08474
947.20 0.0847
947.30 0.08467
947.40 0.08463
947.50 0.0846
947.60 0.08456
947.70 0.08452
947.80 0.08449
947.90 0.08445
948.00 0.08442
948.10 0.08438
948.20 0.08435
948.30 0.08431
948.40 0.08428
948.50 0.08424
948.60 0.08421
948.70 0.08417
948.80 0.08414
948.90 0.0841
949.00 0.08407
949.10 0.08403
949.20 0.084
949.30 0.08396
949.40 0.08393
949.50 0.08389
949.60 0.08386
949.70 0.08382
949.80 0.08379
949.90 0.08375
950.00 0.08372
950.10 0.08368
950.20 0.08365
950.30 0.08361
950.40 0.08358
950.50 0.08354
950.60 0.08351
950.70 0.08347
950.80 0.08344
950.90 0.08341
951.00 0.08337
951.10 0.08334
951.20 0.0833
951.30 0.08327
951.40 0.08323
951.50 0.0832
951.60 0.08316
951.70 0.08313
951.80 0.0831
951.90 0.08306
952.00 0.08303
952.10 0.08299
952.20 0.08296
952.30 0.08293
952.40 0.08289
952.50 0.08286
952.60 0.08283
952.70 0.08279
952.80 0.08276
952.90 0.08273
953.00 0.08269
953.10 0.08266
953.20 0.08263
953.30 0.08259
953.40 0.08256
953.50 0.08253
953.60 0.08249
953.70 0.08246
953.80 0.08243
953.90 0.0824
954.00 0.08236
954.10 0.08233
954.20 0.0823
954.30 0.08227
954.40 0.08223
954.50 0.0822
954.60 0.08217
954.70 0.08214
954.80 0.0821
954.90 0.08207
955.00 0.08203
955.10 0.082
955.20 0.08196
955.30 0.08193
955.40 0.0819
955.50 0.08186
955.60 0.08183
955.70 0.0818
955.80 0.08176
955.90 0.08173
956.00 0.0817
956.10 0.08166
956.20 0.08163
956.30 0.0816
956.40 0.08156
956.50 0.08153
956.60 0.0815
956.70 0.08147
956.80 0.08143
956.90 0.0814
957.00 0.08137
957.10 0.08134
957.20 0.0813
957.30 0.08127
957.40 0.08124
957.50 0.08121
957.60 0.08117
957.70 0.08114
957.80 0.08111
957.90 0.08108
958.00 0.08105
958.10 0.08101
958.20 0.08098
958.30 0.08095
958.40 0.08092
958.50 0.08089
958.60 0.08085
958.70 0.08082
958.80 0.08079
958.90 0.08076
959.00 0.08073
959.10 0.08069
959.20 0.08066
959.30 0.08063
959.40 0.0806
959.50 0.08057
959.60 0.08054
959.70 0.08051
959.80 0.08047
959.90 0.08044
960.00 0.08041
960.10 0.08038
960.20 0.08035
960.30 0.08032
960.40 0.08029
960.50 0.08025
960.60 0.08022
960.70 0.08019
960.80 0.08016
960.90 0.08013
961.00 0.0801
961.10 0.08007
961.20 0.08003
961.30 0.08
961.40 0.07997
961.50 0.07994
961.60 0.07991
961.70 0.07988
961.80 0.07985
961.90 0.07982
962.00 0.07978
962.10 0.07975
962.20 0.07972
962.30 0.07969
962.40 0.07966
962.50 0.07963
962.60 0.0796
962.70 0.07957
962.80 0.07954
962.90 0.07951
963.00 0.07947
963.10 0.07944
963.20 0.07941
963.30 0.07938
963.40 0.07935
963.50 0.07932
963.60 0.07929
963.70 0.07926
963.80 0.07923
963.90 0.0792
964.00 0.07916
964.10 0.07913
964.20 0.0791
964.30 0.07907
964.40 0.07904
964.50 0.07901
964.60 0.07898
964.70 0.07895
964.80 0.07892
964.90 0.07889
965.00 0.07886
965.10 0.07883
965.20 0.0788
965.30 0.07876
965.40 0.07873
965.50 0.0787
965.60 0.07867
965.70 0.07864
965.80 0.07861
965.90 0.07858
966.00 0.07855
966.10 0.07852
966.20 0.07849
966.30 0.07846
966.40 0.07843
966.50 0.0784
966.60 0.07837
966.70 0.07833
966.80 0.0783
966.90 0.07827
967.00 0.07824
967.10 0.07821
967.20 0.07818
967.30 0.07815
967.40 0.07812
967.50 0.07809
967.60 0.07806
967.70 0.07803
967.80 0.078
967.90 0.07797
968.00 0.07794
968.10 0.07791
968.20 0.07788
968.30 0.07784
968.40 0.07781
968.50 0.07778
968.60 0.07775
968.70 0.07772
968.80 0.07769
968.90 0.07766
969.00 0.07763
969.10 0.0776
969.20 0.07757
969.30 0.07754
969.40 0.07751
969.50 0.07748
969.60 0.07745
969.70 0.07742
969.80 0.07739
969.90 0.07736
970.00 0.07733
970.10 0.0773
970.20 0.07727
970.30 0.07724
970.40 0.0772
970.50 0.07717
970.60 0.07714
970.70 0.07711
970.80 0.07708
970.90 0.07705
971.00 0.07702
971.10 0.07699
971.20 0.07696
971.30 0.07693
971.40 0.0769
971.50 0.07687
971.60 0.07684
971.70 0.07681
971.80 0.07678
971.90 0.07675
972.00 0.07672
972.10 0.07669
972.20 0.07666
972.30 0.07663
972.40 0.0766
972.50 0.07657
972.60 0.07654
972.70 0.07651
972.80 0.07648
972.90 0.07645
973.00 0.07641
973.10 0.07638
973.20 0.07635
973.30 0.07632
973.40 0.07629
973.50 0.07626
973.60 0.07623
973.70 0.0762
973.80 0.07617
973.90 0.07614
974.00 0.07611
974.10 0.07608
974.20 0.07605
974.30 0.07602
974.40 0.07599
974.50 0.07596
974.60 0.07593
974.70 0.0759
974.80 0.07587
974.90 0.07584
975.00 0.07581
975.10 0.07578
975.20 0.07575
975.30 0.07572
975.40 0.07569
975.50 0.07566
975.60 0.07563
975.70 0.0756
975.80 0.07557
975.90 0.07554
976.00 0.07551
976.10 0.07548
976.20 0.07545
976.30 0.07542
976.40 0.07539
976.50 0.07536
976.60 0.07533
976.70 0.0753
976.80 0.07527
976.90 0.07524
977.00 0.07521
977.10 0.07518
977.20 0.07515
977.30 0.07512
977.40 0.07509
977.50 0.07506
977.60 0.07503
977.70 0.075
977.80 0.07497
977.90 0.07494
978.00 0.07491
978.10 0.07487
978.20 0.07484
978.30 0.07481
978.40 0.07478
978.50 0.07475
978.60 0.07472
978.70 0.07469
978.80 0.07466
978.90 0.07463
979.00 0.0746
979.10 0.07457
979.20 0.07454
979.30 0.07451
979.40 0.07448
979.50 0.07445
979.60 0.07442
979.70 0.07439
979.80 0.07436
979.90 0.07433
980.00 0.0743
980.10 0.07427
980.20 0.07424
980.30 0.07421
980.40 0.07418
980.50 0.07415
980.60 0.07412
980.70 0.07409
980.80 0.07406
980.90 0.07403
981.00 0.074
981.10 0.07397
981.20 0.07394
981.30 0.07391
981.40 0.07388
981.50 0.07386
981.60 0.07383
981.70 0.0738
981.80 0.07377
981.90 0.07374
982.00 0.07371
982.10 0.07368
982.20 0.07365
982.30 0.07362
982.40 0.07359
982.50 0.07356
982.60 0.07353
982.70 0.0735
982.80 0.07347
982.90 0.07344
983.00 0.07341
983.10 0.07338
983.20 0.07335
983.30 0.07332
983.40 0.07329
983.50 0.07326
983.60 0.07323
983.70 0.0732
983.80 0.07317
983.90 0.07314
984.00 0.07311
984.10 0.07308
984.20 0.07305
984.30 0.07302
984.40 0.07299
984.50 0.07296
984.60 0.07293
984.70 0.0729
984.80 0.07287
984.90 0.07284
985.00 0.07281
985.10 0.07278
985.20 0.07275
985.30 0.07272
985.40 0.07269
985.50 0.07266
985.60 0.07263
985.70 0.0726
985.80 0.07257
985.90 0.07254
986.00 0.07251
986.10 0.07248
986.20 0.07245
986.30 0.07242
986.40 0.07239
986.50 0.07236
986.60 0.07233
986.70 0.0723
986.80 0.07227
986.90 0.07224
987.00 0.07221
987.10 0.07218
987.20 0.07215
987.30 0.07212
987.40 0.07209
987.50 0.07206
987.60 0.07203
987.70 0.072
987.80 0.07197
987.90 0.07194
988.00 0.07191
988.10 0.07188
988.20 0.07185
988.30 0.07182
988.40 0.07179
988.50 0.07176
988.60 0.07173
988.70 0.0717
988.80 0.07167
988.90 0.07164
989.00 0.07161
989.10 0.07158
989.20 0.07155
989.30 0.07152
989.40 0.07149
989.50 0.07146
989.60 0.07143
989.70 0.0714
989.80 0.07137
989.90 0.07134
990.00 0.07131
990.10 0.07128
990.20 0.07125
990.30 0.07122
990.40 0.07119
990.50 0.07116
990.60 0.07113
990.70 0.0711
990.80 0.07107
990.90 0.07104
991.00 0.07101
991.10 0.07098
991.20 0.07095
991.30 0.07092
991.40 0.07089
991.50 0.07086
991.60 0.07083
991.70 0.0708
991.80 0.07077
991.90 0.07074
992.00 0.07071
992.10 0.07068
992.20 0.07065
992.30 0.07062
992.40 0.07059
992.50 0.07056
992.60 0.07053
992.70 0.0705
992.80 0.07047
992.90 0.07044
993.00 0.07041
993.10 0.07038
993.20 0.07035
993.30 0.07032
993.40 0.07029
993.50 0.07026
993.60 0.07023
993.70 0.0702
993.80 0.07017
993.90 0.07014
994.00 0.07011
994.10 0.07008
994.20 0.07005
994.30 0.07002
994.40 0.06999
994.50 0.06996
994.60 0.06993
994.70 0.0699
994.80 0.06987
994.90 0.06984
995.00 0.06981
995.10 0.06978
995.20 0.06975
995.30 0.06972
995.40 0.06969
995.50 0.06966
995.60 0.06963
995.70 0.0696
995.80 0.06957
995.90 0.06954
996.00 0.06951
996.10 0.06948
996.20 0.06945
996.30 0.06942
996.40 0.06939
996.50 0.06936
996.60 0.06933
996.70 0.0693
996.80 0.06927
996.90 0.06924
997.00 0.06921
997.10 0.06918
997.20 0.06915
997.30 0.06912
997.40 0.06909
997.50 0.06906
997.60 0.06903
997.70 0.069
997.80 0.06897
997.90 0.06894
998.00 0.06891
998.10 0.06888
998.20 0.06885
998.30 0.06882
998.40 0.06879
998.50 0.06876
998.60 0.06873
998.70 0.0687
998.80 0.06867
998.90 0.06864
999.00 0.06861
999.10 0.06858
999.20 0.06855
999.30 0.06852
999.40 0.06849
999.50 0.06846
999.60 0.06844
999.70 0.06841
999.80 0.06837
999.90 0.06834
1000.00 0.06831
1000.10 0.06828
1000.20 0.06825
1000.30 0.06822
1000.40 0.06819
1000.50 0.06816
1000.60 0.06813
1000.70 0.0681
1000.80 0.06807
1000.90 0.06804
1001.00 0.06801
1001.10 0.06798
1001.20 0.06795
1001.30 0.06792
1001.40 0.06789
1001.50 0.06786
1001.60 0.06783
1001.70 0.0678
1001.80 0.06777
1001.90 0.06775
1002.00 0.06772
1002.10 0.06769
1002.20 0.06767
1002.30 0.06764
1002.40 0.06761
1002.50 0.06759
1002.60 0.06756
1002.70 0.06753
1002.80 0.06751
1002.90 0.06748
1003.00 0.06745
1003.10 0.06743
1003.20 0.0674
1003.30 0.06738
1003.40 0.06736
1003.50 0.06733
1003.60 0.06731
1003.70 0.06729
1003.80 0.06726
1003.90 0.06724
1004.00 0.06722
1004.10 0.0672
1004.20 0.06717
1004.30 0.06715
1004.40 0.06713
1004.50 0.06711
1004.60 0.06709
1004.70 0.06707
1004.80 0.06704
1004.90 0.06701
1005.00 0.06699
1005.10 0.06696
1005.20 0.06693
1005.30 0.06691
1005.40 0.06688
1005.50 0.06685
1005.60 0.06682
1005.70 0.06679
1005.80 0.06676
1005.90 0.06673
1006.00 0.0667
1006.10 0.06667
1006.20 0.06664
1006.30 0.06661
1006.40 0.06659
1006.50 0.06656
1006.60 0.06653
1006.70 0.06651
1006.80 0.06648
1006.90 0.06645
1007.00 0.06643
1007.10 0.0664
1007.20 0.06638
1007.30 0.06635
1007.40 0.06632
1007.50 0.0663
1007.60 0.06627
1007.70 0.06625
1007.80 0.06623
1007.90 0.0662
1008.00 0.06618
1008.10 0.06616
1008.20 0.06613
1008.30 0.06611
1008.40 0.06609
1008.50 0.06606
1008.60 0.06604
1008.70 0.06602
1008.80 0.06599
1008.90 0.06597
1009.00 0.06595
1009.10 0.06592
1009.20 0.0659
1009.30 0.06588
1009.40 0.06585
1009.50 0.06583
1009.60 0.06581
1009.70 0.06579
1009.80 0.06576
1009.90 0.06574
1010.00 0.06572
1010.10 0.0657
1010.20 0.06567
1010.30 0.06565
1010.40 0.06563
1010.50 0.06561
1010.60 0.06559
1010.70 0.06556
1010.80 0.06554
1010.90 0.06552
1011.00 0.0655
1011.10 0.06547
1011.20 0.06545
1011.30 0.06543
1011.40 0.06541
1011.50 0.06539
1011.60 0.06536
1011.70 0.06534
1011.80 0.06532
1011.90 0.0653
1012.00 0.06528
1012.10 0.06525
1012.20 0.06523
1012.30 0.06521
1012.40 0.06519
1012.50 0.06517
1012.60 0.06514
1012.70 0.06512
1012.80 0.0651
1012.90 0.06508
1013.00 0.06506
1013.10 0.06503
1013.20 0.06501
1013.30 0.06499
1013.40 0.06497
1013.50 0.06495
1013.60 0.06492
1013.70 0.0649
1013.80 0.06488
1013.90 0.06486
1014.00 0.06484
1014.10 0.06481
1014.20 0.06479
1014.30 0.06477
1014.40 0.06475
1014.50 0.06473
1014.60 0.0647
1014.70 0.06468
1014.80 0.06466
1014.90 0.06464
1015.00 0.06462
1015.10 0.06459
1015.20 0.06457
1015.30 0.06455
1015.40 0.06453
1015.50 0.0645
1015.60 0.06448
1015.70 0.06446
1015.80 0.06444
1015.90 0.06442
1016.00 0.06439
1016.10 0.06437
1016.20 0.06435
1016.30 0.06433
1016.40 0.06431
1016.50 0.06428
1016.60 0.06426
1016.70 0.06424
1016.80 0.06422
1016.90 0.0642
1017.00 0.06417
1017.10 0.06415
1017.20 0.06413
1017.30 0.06411
1017.40 0.06408
1017.50 0.06406
1017.60 0.06404
1017.70 0.06402
1017.80 0.064
1017.90 0.06397
1018.00 0.06395
1018.10 0.06393
1018.20 0.06391
1018.30 0.06388
1018.40 0.06386
1018.50 0.06384
1018.60 0.06382
1018.70 0.0638
1018.80 0.06377
1018.90 0.06375
1019.00 0.06373
1019.10 0.06371
1019.20 0.06368
1019.30 0.06366
1019.40 0.06364
1019.50 0.06362
1019.60 0.06359
1019.70 0.06357
1019.80 0.06355
1019.90 0.06353
1020.00 0.0635
1020.10 0.06348
1020.20 0.06346
1020.30 0.06344
1020.40 0.06342
1020.50 0.06339
1020.60 0.06337
1020.70 0.06335
1020.80 0.06333
1020.90 0.0633
1021.00 0.06328
1021.10 0.06326
1021.20 0.06324
1021.30 0.06321
1021.40 0.06319
1021.50 0.06317
1021.60 0.06315
1021.70 0.06312
1021.80 0.0631
1021.90 0.06308
1022.00 0.06306
1022.10 0.06303
1022.20 0.06301
1022.30 0.06299
1022.40 0.06297
1022.50 0.06294
1022.60 0.06292
1022.70 0.0629
1022.80 0.06288
1022.90 0.06285
1023.00 0.06283
1023.10 0.06281
1023.20 0.06279
1023.30 0.06276
1023.40 0.06274
1023.50 0.06272
1023.60 0.0627
1023.70 0.06267
1023.80 0.06265
1023.90 0.06263
1024.00 0.06261
1024.10 0.06258
1024.20 0.06256
1024.30 0.06254
1024.40 0.06252
1024.50 0.0625
1024.60 0.06247
1024.70 0.06245
1024.80 0.06243
1024.90 0.0624
1025.00 0.06238
1025.10 0.06236
1025.20 0.06234
1025.30 0.06231
1025.40 0.06229
1025.50 0.06227
1025.60 0.06225
1025.70 0.06222
1025.80 0.0622
1025.90 0.06218
1026.00 0.06216
1026.10 0.06213
1026.20 0.06211
1026.30 0.06209
1026.40 0.06207
1026.50 0.06204
1026.60 0.06202
1026.70 0.062
1026.80 0.06198
1026.90 0.06195
1027.00 0.06193
1027.10 0.06191
1027.20 0.06189
1027.30 0.06186
1027.40 0.06184
1027.50 0.06182
1027.60 0.0618
1027.70 0.06177
1027.80 0.06175
1027.90 0.06173
1028.00 0.06171
1028.10 0.06168
1028.20 0.06166
1028.30 0.06164
1028.40 0.06162
1028.50 0.06159
1028.60 0.06157
1028.70 0.06155
1028.80 0.06153
1028.90 0.0615
1029.00 0.06148
1029.10 0.06146
1029.20 0.06144
1029.30 0.06141
1029.40 0.06139
1029.50 0.06137
1029.60 0.06135
1029.70 0.06132
1029.80 0.0613
1029.90 0.06128
1030.00 0.06126
1030.10 0.06123
1030.20 0.06121
1030.30 0.06119
1030.40 0.06117
1030.50 0.06114
1030.60 0.06112
1030.70 0.0611
1030.80 0.06108
1030.90 0.06106
1031.00 0.06103
1031.10 0.06101
1031.20 0.06099
1031.30 0.06097
1031.40 0.06094
1031.50 0.06092
1031.60 0.0609
1031.70 0.06088
1031.80 0.06085
1031.90 0.06083
1032.00 0.06081
1032.10 0.06079
1032.20 0.06077
1032.30 0.06074
1032.40 0.06072
1032.50 0.0607
1032.60 0.06068
1032.70 0.06065
1032.80 0.06063
1032.90 0.06061
1033.00 0.06059
1033.10 0.06056
1033.20 0.06054
1033.30 0.06052
1033.40 0.0605
1033.50 0.06047
1033.60 0.06045
1033.70 0.06043
1033.80 0.06041
1033.90 0.06039
1034.00 0.06036
1034.10 0.06034
1034.20 0.06032
1034.30 0.0603
1034.40 0.06027
1034.50 0.06025
1034.60 0.06023
1034.70 0.06021
1034.80 0.06018
1034.90 0.06016
1035.00 0.06014
1035.10 0.06012
1035.20 0.0601
1035.30 0.06007
1035.40 0.06005
1035.50 0.06003
1035.60 0.06001
1035.70 0.05999
1035.80 0.05996
1035.90 0.05994
1036.00 0.05992
1036.10 0.0599
1036.20 0.05987
1036.30 0.05985
1036.40 0.05983
1036.50 0.05981
1036.60 0.05979
1036.70 0.05976
1036.80 0.05974
1036.90 0.05972
1037.00 0.0597
1037.10 0.05968
1037.20 0.05965
1037.30 0.05963
1037.40 0.05961
1037.50 0.05959
1037.60 0.05957
1037.70 0.05954
1037.80 0.05952
1037.90 0.0595
1038.00 0.05948
1038.10 0.05945
1038.20 0.05943
1038.30 0.05941
1038.40 0.05939
1038.50 0.05937
1038.60 0.05934
1038.70 0.05932
1038.80 0.0593
1038.90 0.05928
1039.00 0.05926
1039.10 0.05923
1039.20 0.05921
1039.30 0.05919
1039.40 0.05917
1039.50 0.05915
1039.60 0.05912
1039.70 0.0591
1039.80 0.05908
1039.90 0.05906
1040.00 0.05904
1040.10 0.05901
1040.20 0.05899
1040.30 0.05897
1040.40 0.05895
1040.50 0.05893
1040.60 0.05891
1040.70 0.05888
1040.80 0.05886
1040.90 0.05884
1041.00 0.05882
1041.10 0.0588
1041.20 0.05877
1041.30 0.05875
1041.40 0.05873
1041.50 0.05871
1041.60 0.05869
1041.70 0.05866
1041.80 0.05864
1041.90 0.05862
1042.00 0.0586
1042.10 0.05858
1042.20 0.05856
1042.30 0.05853
1042.40 0.05851
1042.50 0.05849
1042.60 0.05847
1042.70 0.05845
1042.80 0.05843
1042.90 0.0584
1043.00 0.05838
1043.10 0.05836
1043.20 0.05834
1043.30 0.05832
1043.40 0.0583
1043.50 0.05827
1043.60 0.05825
1043.70 0.05823
1043.80 0.05821
1043.90 0.05819
1044.00 0.05816
1044.10 0.05814
1044.20 0.05812
1044.30 0.0581
1044.40 0.05808
1044.50 0.05806
1044.60 0.05804
1044.70 0.05801
1044.80 0.05799
1044.90 0.05797
1045.00 0.05795
1045.10 0.05793
1045.20 0.05791
1045.30 0.05788
1045.40 0.05786
1045.50 0.05784
1045.60 0.05782
1045.70 0.0578
1045.80 0.05778
1045.90 0.05775
1046.00 0.05773
1046.10 0.05771
1046.20 0.05769
1046.30 0.05767
1046.40 0.05765
1046.50 0.05763
1046.60 0.0576
1046.70 0.05758
1046.80 0.05756
1046.90 0.05754
1047.00 0.05752
1047.10 0.0575
1047.20 0.05748
1047.30 0.05745
1047.40 0.05743
1047.50 0.05741
1047.60 0.05739
1047.70 0.05737
1047.80 0.05735
1047.90 0.05733
1048.00 0.0573
1048.10 0.05728
1048.20 0.05726
1048.30 0.05724
1048.40 0.05722
1048.50 0.0572
1048.60 0.05718
1048.70 0.05715
1048.80 0.05713
1048.90 0.05711
1049.00 0.05709
1049.10 0.05707
1049.20 0.05705
1049.30 0.05703
1049.40 0.05701
1049.50 0.05698
1049.60 0.05696
1049.70 0.05694
1049.80 0.05692
1049.90 0.0569
1050.00 0.05688
1050.10 0.05686
1050.20 0.05684
1050.30 0.05681
1050.40 0.05679
1050.50 0.05677
1050.60 0.05675
1050.70 0.05673
1050.80 0.05671
1050.90 0.05669
1051.00 0.05667
1051.10 0.05664
1051.20 0.05662
1051.30 0.0566
1051.40 0.05658
1051.50 0.05656
1051.60 0.05654
1051.70 0.05652
1051.80 0.0565
1051.90 0.05648
1052.00 0.05645
1052.10 0.05643
1052.20 0.05641
1052.30 0.05639
1052.40 0.05637
1052.50 0.05635
1052.60 0.05633
1052.70 0.05631
1052.80 0.05628
1052.90 0.05626
1053.00 0.05624
1053.10 0.05622
1053.20 0.0562
1053.30 0.05618
1053.40 0.05616
1053.50 0.05614
1053.60 0.05612
1053.70 0.0561
1053.80 0.05607
1053.90 0.05605
1054.00 0.05603
1054.10 0.05601
1054.20 0.05599
1054.30 0.05597
1054.40 0.05595
1054.50 0.05593
1054.60 0.05591
1054.70 0.05589
1054.80 0.05586
1054.90 0.05584
1055.00 0.05582
1055.10 0.0558
1055.20 0.05578
1055.30 0.05576
1055.40 0.05574
1055.50 0.05572
1055.60 0.0557
1055.70 0.05568
1055.80 0.05566
1055.90 0.05563
1056.00 0.05561
1056.10 0.05559
1056.20 0.05557
1056.30 0.05555
1056.40 0.05553
1056.50 0.05551
1056.60 0.05549
1056.70 0.05547
1056.80 0.05545
1056.90 0.05543
1057.00 0.05541
1057.10 0.05538
1057.20 0.05536
1057.30 0.05534
1057.40 0.05532
1057.50 0.0553
1057.60 0.05528
1057.70 0.05526
1057.80 0.05524
1057.90 0.05522
1058.00 0.0552
1058.10 0.05518
1058.20 0.05516
1058.30 0.05513
1058.40 0.05511
1058.50 0.05509
1058.60 0.05507
1058.70 0.05505
1058.80 0.05503
1058.90 0.05501
1059.00 0.05499
1059.10 0.05497
1059.20 0.05495
1059.30 0.05493
1059.40 0.05491
1059.50 0.05489
1059.60 0.05487
1059.70 0.05484
1059.80 0.05482
1059.90 0.0548
1060.00 0.05478
1060.10 0.05476
1060.20 0.05474
1060.30 0.05472
1060.40 0.0547
1060.50 0.05468
1060.60 0.05466
1060.70 0.05464
1060.80 0.05462
1060.90 0.0546
1061.00 0.05458
1061.10 0.05456
1061.20 0.05454
1061.30 0.05451
1061.40 0.05449
1061.50 0.05447
1061.60 0.05445
1061.70 0.05443
1061.80 0.05441
1061.90 0.05439
1062.00 0.05437
1062.10 0.05435
1062.20 0.05433
1062.30 0.05431
1062.40 0.05429
1062.50 0.05427
1062.60 0.05425
1062.70 0.05423
1062.80 0.05421
1062.90 0.05419
1063.00 0.05416
1063.10 0.05414
1063.20 0.05412
1063.30 0.0541
1063.40 0.05408
1063.50 0.05406
1063.60 0.05404
1063.70 0.05402
1063.80 0.054
1063.90 0.05398
1064.00 0.05396
1064.10 0.05394
1064.20 0.05392
1064.30 0.0539
1064.40 0.05388
1064.50 0.05386
1064.60 0.05384
1064.70 0.05381
1064.80 0.05379
1064.90 0.05377
1065.00 0.05375
1065.10 0.05373
1065.20 0.05371
1065.30 0.05369
1065.40 0.05367
1065.50 0.05365
1065.60 0.05363
1065.70 0.05361
1065.80 0.05359
1065.90 0.05357
1066.00 0.05355
1066.10 0.05353
1066.20 0.05351
1066.30 0.05349
1066.40 0.05347
1066.50 0.05345
1066.60 0.05343
1066.70 0.05341
1066.80 0.05339
1066.90 0.05336
1067.00 0.05334
1067.10 0.05332
1067.20 0.0533
1067.30 0.05328
1067.40 0.05326
1067.50 0.05324
1067.60 0.05322
1067.70 0.0532
1067.80 0.05318
1067.90 0.05316
1068.00 0.05314
1068.10 0.05312
1068.20 0.0531
1068.30 0.05308
1068.40 0.05306
1068.50 0.05304
1068.60 0.05301
1068.70 0.05299
1068.80 0.05297
1068.90 0.05295
1069.00 0.05293
1069.10 0.05291
1069.20 0.05289
1069.30 0.05287
1069.40 0.05285
1069.50 0.05283
1069.60 0.05281
1069.70 0.05279
1069.80 0.05277
1069.90 0.05275
1070.00 0.05273
1070.10 0.05271
1070.20 0.05269
1070.30 0.05267
1070.40 0.05265
1070.50 0.05262
1070.60 0.0526
1070.70 0.05258
1070.80 0.05256
1070.90 0.05254
1071.00 0.05252
1071.10 0.0525
1071.20 0.05248
1071.30 0.05246
1071.40 0.05244
1071.50 0.05242
1071.60 0.0524
1071.70 0.05238
1071.80 0.05236
1071.90 0.05234
1072.00 0.05232
1072.10 0.0523
1072.20 0.05228
1072.30 0.05226
1072.40 0.05224
1072.50 0.05222
1072.60 0.05219
1072.70 0.05217
1072.80 0.05215
1072.90 0.05213
1073.00 0.05211
1073.10 0.05209
1073.20 0.05207
1073.30 0.05205
1073.40 0.05203
1073.50 0.05201
1073.60 0.05199
1073.70 0.05197
1073.80 0.05195
1073.90 0.05193
1074.00 0.0519
1074.10 0.05188
1074.20 0.05186
1074.30 0.05184
1074.40 0.05182
1074.50 0.0518
1074.60 0.05178
1074.70 0.05176
1074.80 0.05174
1074.90 0.05172
1075.00 0.0517
1075.10 0.05167
1075.20 0.05165
1075.30 0.05163
1075.40 0.05161
1075.50 0.05159
1075.60 0.05157
1075.70 0.05155
1075.80 0.05153
1075.90 0.05151
1076.00 0.05149
1076.10 0.05147
1076.20 0.05145
1076.30 0.05142
1076.40 0.0514
1076.50 0.05138
1076.60 0.05136
1076.70 0.05134
1076.80 0.05132
1076.90 0.0513
1077.00 0.05128
1077.10 0.05126
1077.20 0.05124
1077.30 0.05122
1077.40 0.05119
1077.50 0.05117
1077.60 0.05115
1077.70 0.05113
1077.80 0.05111
1077.90 0.05109
1078.00 0.05107
1078.10 0.05105
1078.20 0.05102
1078.30 0.051
1078.40 0.05098
1078.50 0.05096
1078.60 0.05094
1078.70 0.05092
1078.80 0.0509
1078.90 0.05088
1079.00 0.05085
1079.10 0.05083
1079.20 0.05081
1079.30 0.05079
1079.40 0.05077
1079.50 0.05075
1079.60 0.05073
1079.70 0.05071
1079.80 0.05068
1079.90 0.05066
1080.00 0.05064
1080.10 0.05062
1080.20 0.0506
1080.30 0.05058
1080.40 0.05055
1080.50 0.05053
1080.60 0.05051
1080.70 0.05049
1080.80 0.05047
1080.90 0.05045
1081.00 0.05042
1081.10 0.0504
1081.20 0.05038
1081.30 0.05036
1081.40 0.05034
1081.50 0.05032
1081.60 0.05029
1081.70 0.05027
1081.80 0.05025
1081.90 0.05023
1082.00 0.05021
1082.10 0.05019
1082.20 0.05016
1082.30 0.05014
1082.40 0.05012
1082.50 0.0501
1082.60 0.05007
1082.70 0.05005
1082.80 0.05003
1082.90 0.05001
1083.00 0.04999
1083.10 0.04996
1083.20 0.04994
1083.30 0.04992
1083.40 0.0499
1083.50 0.04988
1083.60 0.04985
1083.70 0.04983
1083.80 0.04981
1083.90 0.04979
1084.00 0.04977
1084.10 0.04974
1084.20 0.04972
1084.30 0.0497
1084.40 0.04968
1084.50 0.04965
1084.60 0.04963
1084.70 0.04961
1084.80 0.04959
1084.90 0.04956
1085.00 0.04954
1085.10 0.04952
1085.20 0.0495
1085.30 0.04947
1085.40 0.04945
1085.50 0.04943
1085.60 0.04941
1085.70 0.04938
1085.80 0.04936
1085.90 0.04934
1086.00 0.04932
1086.10 0.04929
1086.20 0.04927
1086.30 0.04925
1086.40 0.04923
1086.50 0.0492
1086.60 0.04918
1086.70 0.04916
1086.80 0.04914
1086.90 0.04911
1087.00 0.04909
1087.10 0.04907
1087.20 0.04905
1087.30 0.04902
1087.40 0.049
1087.50 0.04898
1087.60 0.04896
1087.70 0.04893
1087.80 0.04891
1087.90 0.04889
1088.00 0.04887
1088.10 0.04884
1088.20 0.04882
1088.30 0.0488
1088.40 0.04878
1088.50 0.04875
1088.60 0.04873
1088.70 0.04871
1088.80 0.04869
1088.90 0.04867
1089.00 0.04864
1089.10 0.04862
1089.20 0.0486
1089.30 0.04858
1089.40 0.04856
1089.50 0.04853
1089.60 0.04851
1089.70 0.04849
1089.80 0.04847
1089.90 0.04845
1090.00 0.04842
1090.10 0.0484
1090.20 0.04838
1090.30 0.04836
1090.40 0.04834
1090.50 0.04831
1090.60 0.04829
1090.70 0.04827
1090.80 0.04825
1090.90 0.04823
1091.00 0.04821
1091.10 0.04819
1091.20 0.04817
1091.30 0.04814
1091.40 0.04812
1091.50 0.0481
1091.60 0.04808
1091.70 0.04806
1091.80 0.04804
1091.90 0.04802
1092.00 0.048
1092.10 0.04798
1092.20 0.04795
1092.30 0.04793
1092.40 0.04791
1092.50 0.04789
1092.60 0.04787
1092.70 0.04785
1092.80 0.04783
1092.90 0.04781
1093.00 0.04779
1093.10 0.04777
1093.20 0.04775
1093.30 0.04773
1093.40 0.04772
1093.50 0.0477
1093.60 0.0477
1093.70 0.0477
1093.80 0.04769
1093.90 0.04767
1094.00 0.04765
1094.10 0.04762
1094.20 0.04759
1094.30 0.04757
1094.40 0.04755
1094.50 0.04754
1094.60 0.04753
1094.70 0.04751
1094.80 0.0475
1094.90 0.04748
1095.00 0.04747
1095.10 0.04746
1095.20 0.04745
1095.30 0.04743
1095.40 0.04742
1095.50 0.04741
1095.60 0.04739
1095.70 0.04738
1095.80 0.04737
1095.90 0.04736
1096.00 0.04734
1096.10 0.04733
1096.20 0.04732
1096.30 0.04731
1096.40 0.04729
1096.50 0.04728
1096.60 0.04727
1096.70 0.04726
1096.80 0.04724
1096.90 0.04723
1097.00 0.04722
1097.10 0.04721
1097.20 0.04719
1097.30 0.04718
1097.40 0.04717
1097.50 0.04716
1097.60 0.04715
1097.70 0.04713
1097.80 0.04712
1097.90 0.04711
1098.00 0.0471
1098.10 0.04709
1098.20 0.04707
1098.30 0.04706
1098.40 0.04705
1098.50 0.04704
1098.60 0.04703
1098.70 0.04701
1098.80 0.047
1098.90 0.04699
1099.00 0.04698
1099.10 0.04697
1099.20 0.04696
1099.30 0.04694
1099.40 0.04693
1099.50 0.04692
1099.60 0.04691
1099.70 0.0469
1099.80 0.04689
1099.90 0.04687
1100.00 0.04686
1100.10 0.04685
1100.20 0.04684
1100.30 0.04683
1100.40 0.04682
1100.50 0.0468
1100.60 0.04679
1100.70 0.04678
1100.80 0.04677
1100.90 0.04676
1101.00 0.04675
1101.10 0.04673
1101.20 0.04672
1101.30 0.04671
1101.40 0.0467
1101.50 0.04669
1101.60 0.04667
1101.70 0.04666
1101.80 0.04665
1101.90 0.04664
1102.00 0.04663
1102.10 0.04662
1102.20 0.0466
1102.30 0.04659
1102.40 0.04658
1102.50 0.04657
1102.60 0.04656
1102.70 0.04654
1102.80 0.04653
1102.90 0.04652
1103.00 0.04651
1103.10 0.0465
1103.20 0.04648
1103.30 0.04647
1103.40 0.04646
1103.50 0.04645
1103.60 0.04643
1103.70 0.04642
1103.80 0.04641
1103.90 0.0464
1104.00 0.04638
1104.10 0.04637
1104.20 0.04636
1104.30 0.04635
1104.40 0.04633
1104.50 0.04632
1104.60 0.04631
1104.70 0.0463
1104.80 0.04628
1104.90 0.04627
1105.00 0.04626
1105.10 0.04625
1105.20 0.04623
1105.30 0.04622
1105.40 0.04621
1105.50 0.0462
1105.60 0.04618
1105.70 0.04617
1105.80 0.04616
1105.90 0.04614
1106.00 0.04613
1106.10 0.04612
1106.20 0.04611
1106.30 0.04609
1106.40 0.04608
1106.50 0.04607
1106.60 0.04605
1106.70 0.04604
1106.80 0.04603
1106.90 0.04602
1107.00 0.046
1107.10 0.04599
1107.20 0.04598
1107.30 0.04596
1107.40 0.04595
1107.50 0.04594
1107.60 0.04592
1107.70 0.04591
1107.80 0.0459
1107.90 0.04588
1108.00 0.04587
1108.10 0.04586
1108.20 0.04584
1108.30 0.04583
1108.40 0.04581
1108.50 0.0458
1108.60 0.04579
1108.70 0.04577
1108.80 0.04576
1108.90 0.04575
1109.00 0.04573
1109.10 0.04572
1109.20 0.04571
1109.30 0.04569
1109.40 0.04568
1109.50 0.04567
1109.60 0.04565
1109.70 0.04564
1109.80 0.04563
1109.90 0.04561
1110.00 0.0456
1110.10 0.04558
1110.20 0.04557
1110.30 0.04556
1110.40 0.04554
1110.50 0.04553
1110.60 0.04551
1110.70 0.0455
1110.80 0.04549
1110.90 0.04547
1111.00 0.04546
1111.10 0.04544
1111.20 0.04543
1111.30 0.04542
1111.40 0.0454
1111.50 0.04539
1111.60 0.04538
1111.70 0.04536
1111.80 0.04535
1111.90 0.04533
1112.00 0.04532
1112.10 0.04531
1112.20 0.04529
1112.30 0.04528
1112.40 0.04526
1112.50 0.04525
1112.60 0.04524
1112.70 0.04522
1112.80 0.04521
1112.90 0.04519
1113.00 0.04518
1113.10 0.04516
1113.20 0.04515
1113.30 0.04514
1113.40 0.04512
1113.50 0.04511
1113.60 0.04509
1113.70 0.04508
1113.80 0.04506
1113.90 0.04505
1114.00 0.04504
1114.10 0.04502
1114.20 0.04501
1114.30 0.04499
1114.40 0.04498
1114.50 0.04496
1114.60 0.04495
1114.70 0.04493
1114.80 0.04492
1114.90 0.04491
1115.00 0.04489
1115.10 0.04488
1115.20 0.04486
1115.30 0.04485
1115.40 0.04483
1115.50 0.04482
1115.60 0.0448
1115.70 0.04479
1115.80 0.04478
1115.90 0.04476
1116.00 0.04475
1116.10 0.04473
1116.20 0.04472
1116.30 0.0447
1116.40 0.04469
1116.50 0.04468
1116.60 0.04466
1116.70 0.04465
1116.80 0.04463
1116.90 0.04462
1117.00 0.0446
1117.10 0.04459
1117.20 0.04457
1117.30 0.04456
1117.40 0.04455
1117.50 0.04453
1117.60 0.04452
1117.70 0.0445
1117.80 0.04449
1117.90 0.04447
1118.00 0.04446
1118.10 0.04444
1118.20 0.04443
1118.30 0.04441
1118.40 0.0444
1118.50 0.04438
1118.60 0.04437
1118.70 0.04435
1118.80 0.04434
1118.90 0.04433
1119.00 0.04431
1119.10 0.0443
1119.20 0.04428
1119.30 0.04427
1119.40 0.04425
1119.50 0.04424
1119.60 0.04422
1119.70 0.04421
1119.80 0.04419
1119.90 0.04418
1120.00 0.04417
1120.10 0.04415
1120.20 0.04414
1120.30 0.04412
1120.40 0.04411
1120.50 0.04409
1120.60 0.04408
1120.70 0.04406
1120.80 0.04405
1120.90 0.04403
1121.00 0.04402
1121.10 0.04401
1121.20 0.04399
1121.30 0.04398
1121.40 0.04396
1121.50 0.04395
1121.60 0.04393
1121.70 0.04392
1121.80 0.0439
1121.90 0.04389
1122.00 0.04387
1122.10 0.04386
1122.20 0.04385
1122.30 0.04383
1122.40 0.04382
1122.50 0.0438
1122.60 0.04379
1122.70 0.04377
1122.80 0.04376
1122.90 0.04374
1123.00 0.04373
1123.10 0.04371
1123.20 0.0437
1123.30 0.04368
1123.40 0.04367
1123.50 0.04365
1123.60 0.04364
1123.70 0.04363
1123.80 0.04361
1123.90 0.0436
1124.00 0.04358
1124.10 0.04357
1124.20 0.04355
1124.30 0.04354
1124.40 0.04352
1124.50 0.04351
1124.60 0.04349
1124.70 0.04348
1124.80 0.04346
1124.90 0.04345
1125.00 0.04344
1125.10 0.04342
1125.20 0.04341
1125.30 0.04339
1125.40 0.04338
1125.50 0.04336
1125.60 0.04335
1125.70 0.04333
1125.80 0.04332
1125.90 0.0433
1126.00 0.04329
1126.10 0.04327
1126.20 0.04326
1126.30 0.04325
1126.40 0.04323
1126.50 0.04322
1126.60 0.0432
1126.70 0.04319
1126.80 0.04317
1126.90 0.04316
1127.00 0.04314
1127.10 0.04313
1127.20 0.04312
1127.30 0.0431
1127.40 0.04309
1127.50 0.04307
1127.60 0.04306
1127.70 0.04304
1127.80 0.04303
1127.90 0.04301
1128.00 0.043
1128.10 0.04298
1128.20 0.04297
1128.30 0.04295
1128.40 0.04294
1128.50 0.04293
1128.60 0.04291
1128.70 0.0429
1128.80 0.04288
1128.90 0.04287
1129.00 0.04285
1129.10 0.04284
1129.20 0.04282
1129.30 0.04281
1129.40 0.0428
1129.50 0.04278
1129.60 0.04277
1129.70 0.04275
1129.80 0.04274
1129.90 0.04272
1130.00 0.04271
1130.10 0.04269
1130.20 0.04268
1130.30 0.04266
1130.40 0.04265
1130.50 0.04264
1130.60 0.04262
1130.70 0.04261
1130.80 0.04259
1130.90 0.04258
1131.00 0.04256
1131.10 0.04255
1131.20 0.04253
1131.30 0.04252
1131.40 0.04251
1131.50 0.04249
1131.60 0.04248
1131.70 0.04246
1131.80 0.04245
1131.90 0.04243
1132.00 0.04242
1132.10 0.04241
1132.20 0.04239
1132.30 0.04238
1132.40 0.04236
1132.50 0.04235
1132.60 0.04233
1132.70 0.04232
1132.80 0.0423
1132.90 0.04229
1133.00 0.04228
1133.10 0.04226
1133.20 0.04225
1133.30 0.04223
1133.40 0.04222
1133.50 0.0422
1133.60 0.04219
1133.70 0.04218
1133.80 0.04216
1133.90 0.04215
1134.00 0.04213
1134.10 0.04212
1134.20 0.0421
1134.30 0.04209
1134.40 0.04208
1134.50 0.04206
1134.60 0.04205
1134.70 0.04203
1134.80 0.04202
1134.90 0.042
1135.00 0.04199
1135.10 0.04198
1135.20 0.04196
1135.30 0.04195
1135.40 0.04193
1135.50 0.04192
1135.60 0.0419
1135.70 0.04189
1135.80 0.04188
1135.90 0.04186
1136.00 0.04185
1136.10 0.04183
1136.20 0.04182
1136.30 0.0418
1136.40 0.04179
1136.50 0.04178
1136.60 0.04176
1136.70 0.04175
1136.80 0.04173
1136.90 0.04172
1137.00 0.0417
1137.10 0.04169
1137.20 0.04168
1137.30 0.04166
1137.40 0.04165
1137.50 0.04163
1137.60 0.04162
1137.70 0.04161
1137.80 0.04159
1137.90 0.04158
1138.00 0.04156
1138.10 0.04155
1138.20 0.04154
1138.30 0.04152
1138.40 0.04151
1138.50 0.04149
1138.60 0.04148
1138.70 0.04146
1138.80 0.04145
1138.90 0.04144
1139.00 0.04142
1139.10 0.04141
1139.20 0.04139
1139.30 0.04138
1139.40 0.04137
1139.50 0.04135
1139.60 0.04134
1139.70 0.04132
1139.80 0.04131
1139.90 0.0413
1140.00 0.04128
1140.10 0.04127
1140.20 0.04125
1140.30 0.04124
1140.40 0.04123
1140.50 0.04121
1140.60 0.0412
1140.70 0.04118
1140.80 0.04117
1140.90 0.04116
1141.00 0.04114
1141.10 0.04113
1141.20 0.04111
1141.30 0.0411
1141.40 0.04109
1141.50 0.04107
1141.60 0.04106
1141.70 0.04104
1141.80 0.04103
1141.90 0.04102
1142.00 0.041
1142.10 0.04099
1142.20 0.04097
1142.30 0.04096
1142.40 0.04095
1142.50 0.04093
1142.60 0.04092
1142.70 0.0409
1142.80 0.04089
1142.90 0.04088
1143.00 0.04086
1143.10 0.04085
1143.20 0.04083
1143.30 0.04082
1143.40 0.04081
1143.50 0.04079
1143.60 0.04078
1143.70 0.04077
1143.80 0.04075
1143.90 0.04074
1144.00 0.04072
1144.10 0.04071
1144.20 0.0407
1144.30 0.04068
1144.40 0.04067
1144.50 0.04065
1144.60 0.04064
1144.70 0.04063
1144.80 0.04061
1144.90 0.0406
1145.00 0.04059
1145.10 0.04057
1145.20 0.04056
1145.30 0.04054
1145.40 0.04053
1145.50 0.04052
1145.60 0.0405
1145.70 0.04049
1145.80 0.04048
1145.90 0.04046
1146.00 0.04045
1146.10 0.04043
1146.20 0.04042
1146.30 0.04041
1146.40 0.04039
1146.50 0.04038
1146.60 0.04037
1146.70 0.04035
1146.80 0.04034
1146.90 0.04032
1147.00 0.04031
1147.10 0.0403
1147.20 0.04028
1147.30 0.04027
1147.40 0.04026
1147.50 0.04024
1147.60 0.04023
1147.70 0.04022
1147.80 0.0402
1147.90 0.04019
1148.00 0.04017
1148.10 0.04016
1148.20 0.04015
1148.30 0.04013
1148.40 0.04012
1148.50 0.04011
1148.60 0.04009
1148.70 0.04008
1148.80 0.04007
1148.90 0.04005
1149.00 0.04004
1149.10 0.04003
1149.20 0.04001
1149.30 0.04
1149.40 0.03998
1149.50 0.03997
1149.60 0.03996
1149.70 0.03994
1149.80 0.03993
1149.90 0.03992
1150.00 0.0399
1150.10 0.03989
1150.20 0.03988
1150.30 0.03986
1150.40 0.03985
1150.50 0.03984
1150.60 0.03982
1150.70 0.03981
1150.80 0.0398
1150.90 0.03978
1151.00 0.03977
1151.10 0.03975
1151.20 0.03974
1151.30 0.03973
1151.40 0.03971
1151.50 0.0397
1151.60 0.03969
1151.70 0.03967
1151.80 0.03966
1151.90 0.03965
1152.00 0.03963
1152.10 0.03962
1152.20 0.03961
1152.30 0.03959
1152.40 0.03958
1152.50 0.03957
1152.60 0.03955
1152.70 0.03954
1152.80 0.03953
1152.90 0.03951
1153.00 0.0395
1153.10 0.03949
1153.20 0.03947
1153.30 0.03946
1153.40 0.03945
1153.50 0.03943
1153.60 0.03942
1153.70 0.03941
1153.80 0.03939
1153.90 0.03938
1154.00 0.03937
1154.10 0.03935
1154.20 0.03934
1154.30 0.03933
1154.40 0.03931
1154.50 0.0393
1154.60 0.03929
1154.70 0.03927
1154.80 0.03926
1154.90 0.03925
1155.00 0.03923
1155.10 0.03922
1155.20 0.03921
1155.30 0.03919
1155.40 0.03918
1155.50 0.03917
1155.60 0.03915
1155.70 0.03914
1155.80 0.03913
1155.90 0.03911
1156.00 0.0391
1156.10 0.03909
1156.20 0.03907
1156.30 0.03906
1156.40 0.03905
1156.50 0.03904
1156.60 0.03902
1156.70 0.03901
1156.80 0.039
1156.90 0.03898
1157.00 0.03897
1157.10 0.03896
1157.20 0.03894
1157.30 0.03893
1157.40 0.03892
1157.50 0.0389
1157.60 0.03889
1157.70 0.03888
1157.80 0.03886
1157.90 0.03885
1158.00 0.03884
1158.10 0.03883
1158.20 0.03881
1158.30 0.0388
1158.40 0.03879
1158.50 0.03877
1158.60 0.03876
1158.70 0.03875
1158.80 0.03873
1158.90 0.03872
1159.00 0.03871
1159.10 0.03869
1159.20 0.03868
1159.30 0.03867
1159.40 0.03866
1159.50 0.03864
1159.60 0.03863
1159.70 0.03862
1159.80 0.0386
1159.90 0.03859
1160.00 0.03858
1160.10 0.03856
1160.20 0.03855
1160.30 0.03854
1160.40 0.03853
1160.50 0.03851
1160.60 0.0385
1160.70 0.03849
1160.80 0.03847
1160.90 0.03846
1161.00 0.03845
1161.10 0.03843
1161.20 0.03842
1161.30 0.03841
1161.40 0.0384
1161.50 0.03838
1161.60 0.03837
1161.70 0.03836
1161.80 0.03834
1161.90 0.03833
1162.00 0.03832
1162.10 0.03831
1162.20 0.03829
1162.30 0.03828
1162.40 0.03827
1162.50 0.03825
1162.60 0.03824
1162.70 0.03823
1162.80 0.03822
1162.90 0.0382
1163.00 0.03819
1163.10 0.03818
1163.20 0.03816
1163.30 0.03815
1163.40 0.03814
1163.50 0.03813
1163.60 0.03811
1163.70 0.0381
1163.80 0.03809
1163.90 0.03807
1164.00 0.03806
1164.10 0.03805
1164.20 0.03804
1164.30 0.03802
1164.40 0.03801
1164.50 0.038
1164.60 0.03799
1164.70 0.03797
1164.80 0.03796
1164.90 0.03795
1165.00 0.03793
1165.10 0.03792
1165.20 0.03791
1165.30 0.0379
1165.40 0.03788
1165.50 0.03787
1165.60 0.03786
1165.70 0.03785
1165.80 0.03783
1165.90 0.03782
1166.00 0.03781
1166.10 0.03779
1166.20 0.03778
1166.30 0.03777
1166.40 0.03776
1166.50 0.03774
1166.60 0.03773
1166.70 0.03772
1166.80 0.03771
1166.90 0.03769
1167.00 0.03768
1167.10 0.03767
1167.20 0.03766
1167.30 0.03764
1167.40 0.03763
1167.50 0.03762
1167.60 0.0376
1167.70 0.03759
1167.80 0.03758
1167.90 0.03757
1168.00 0.03755
1168.10 0.03754
1168.20 0.03753
1168.30 0.03752
1168.40 0.0375
1168.50 0.03749
1168.60 0.03748
1168.70 0.03747
1168.80 0.03745
1168.90 0.03744
1169.00 0.03743
1169.10 0.03742
1169.20 0.0374
1169.30 0.03739
1169.40 0.03738
1169.50 0.03737
1169.60 0.03735
1169.70 0.03734
1169.80 0.03733
1169.90 0.03732
1170.00 0.0373
1170.10 0.03729
1170.20 0.03728
1170.30 0.03727
1170.40 0.03725
1170.50 0.03724
1170.60 0.03723
1170.70 0.03722
1170.80 0.0372
1170.90 0.03719
1171.00 0.03718
1171.10 0.03717
1171.20 0.03715
1171.30 0.03714
1171.40 0.03713
1171.50 0.03712
1171.60 0.03711
1171.70 0.03709
1171.80 0.03708
1171.90 0.03707
1172.00 0.03706
1172.10 0.03704
1172.20 0.03703
1172.30 0.03702
1172.40 0.03701
1172.50 0.03699
1172.60 0.03698
1172.70 0.03697
1172.80 0.03696
1172.90 0.03694
1173.00 0.03693
1173.10 0.03692
1173.20 0.03691
1173.30 0.0369
1173.40 0.03688
1173.50 0.03687
1173.60 0.03686
1173.70 0.03685
1173.80 0.03683
1173.90 0.03682
1174.00 0.03681
1174.10 0.0368
1174.20 0.03678
1174.30 0.03677
1174.40 0.03676
1174.50 0.03675
1174.60 0.03674
1174.70 0.03672
1174.80 0.03671
1174.90 0.0367
1175.00 0.03669
1175.10 0.03667
1175.20 0.03666
1175.30 0.03665
1175.40 0.03664
1175.50 0.03663
1175.60 0.03661
1175.70 0.0366
1175.80 0.03659
1175.90 0.03658
1176.00 0.03656
1176.10 0.03655
1176.20 0.03654
1176.30 0.03653
1176.40 0.03652
1176.50 0.0365
1176.60 0.03649
1176.70 0.03648
1176.80 0.03647
1176.90 0.03646
1177.00 0.03644
1177.10 0.03643
1177.20 0.03642
1177.30 0.03641
1177.40 0.03639
1177.50 0.03638
1177.60 0.03637
1177.70 0.03636
1177.80 0.03635
1177.90 0.03633
1178.00 0.03632
1178.10 0.03631
1178.20 0.0363
1178.30 0.03629
1178.40 0.03627
1178.50 0.03626
1178.60 0.03625
1178.70 0.03624
1178.80 0.03623
1178.90 0.03621
1179.00 0.0362
1179.10 0.03619
1179.20 0.03618
1179.30 0.03617
1179.40 0.03615
1179.50 0.03614
1179.60 0.03613
1179.70 0.03612
1179.80 0.03611
1179.90 0.03609
1180.00 0.03608
1180.10 0.03607
1180.20 0.03606
1180.30 0.03605
1180.40 0.03603
1180.50 0.03602
1180.60 0.03601
1180.70 0.036
1180.80 0.03599
1180.90 0.03597
1181.00 0.03596
1181.10 0.03595
1181.20 0.03594
1181.30 0.03593
1181.40 0.03591
1181.50 0.0359
1181.60 0.03589
1181.70 0.03588
1181.80 0.03587
1181.90 0.03585
1182.00 0.03584
1182.10 0.03583
1182.20 0.03582
1182.30 0.03581
1182.40 0.0358
1182.50 0.03578
1182.60 0.03577
1182.70 0.03576
1182.80 0.03575
1182.90 0.03574
1183.00 0.03572
1183.10 0.03571
1183.20 0.0357
1183.30 0.03569
1183.40 0.03568
1183.50 0.03567
1183.60 0.03565
1183.70 0.03564
1183.80 0.03563
1183.90 0.03562
1184.00 0.03561
1184.10 0.0356
1184.20 0.03558
1184.30 0.03557
1184.40 0.03556
1184.50 0.03555
1184.60 0.03554
1184.70 0.03552
1184.80 0.03551
1184.90 0.0355
1185.00 0.03549
1185.10 0.03548
1185.20 0.03547
1185.30 0.03545
1185.40 0.03544
1185.50 0.03543
1185.60 0.03542
1185.70 0.03541
1185.80 0.0354
1185.90 0.03538
1186.00 0.03537
1186.10 0.03536
1186.20 0.03535
1186.30 0.03534
1186.40 0.03533
1186.50 0.03531
1186.60 0.0353
1186.70 0.03529
1186.80 0.03528
1186.90 0.03527
1187.00 0.03525
1187.10 0.03524
1187.20 0.03523
1187.30 0.03522
1187.40 0.03521
1187.50 0.0352
1187.60 0.03519
1187.70 0.03517
1187.80 0.03516
1187.90 0.03515
1188.00 0.03514
1188.10 0.03513
1188.20 0.03512
1188.30 0.0351
1188.40 0.03509
1188.50 0.03508
1188.60 0.03507
1188.70 0.03506
1188.80 0.03505
1188.90 0.03504
1189.00 0.03502
1189.10 0.03501
1189.20 0.035
1189.30 0.03499
1189.40 0.03498
1189.50 0.03497
1189.60 0.03495
1189.70 0.03494
1189.80 0.03493
1189.90 0.03492
1190.00 0.03491
1190.10 0.0349
1190.20 0.03489
1190.30 0.03487
1190.40 0.03486
1190.50 0.03485
1190.60 0.03484
1190.70 0.03483
1190.80 0.03482
1190.90 0.03481
1191.00 0.03479
1191.10 0.03478
1191.20 0.03477
1191.30 0.03476
1191.40 0.03475
1191.50 0.03474
1191.60 0.03472
1191.70 0.03471
1191.80 0.0347
1191.90 0.03469
1192.00 0.03468
1192.10 0.03467
1192.20 0.03466
1192.30 0.03464
1192.40 0.03463
1192.50 0.03462
1192.60 0.03461
1192.70 0.0346
1192.80 0.03459
1192.90 0.03458
1193.00 0.03457
1193.10 0.03455
1193.20 0.03454
1193.30 0.03453
1193.40 0.03452
1193.50 0.03451
1193.60 0.0345
1193.70 0.03449
1193.80 0.03447
1193.90 0.03446
1194.00 0.03445
1194.10 0.03444
1194.20 0.03443
1194.30 0.03442
1194.40 0.03441
1194.50 0.0344
1194.60 0.03438
1194.70 0.03437
1194.80 0.03436
1194.90 0.03435
1195.00 0.03434
1195.10 0.03433
1195.20 0.03432
1195.30 0.03431
1195.40 0.03429
1195.50 0.03428
1195.60 0.03427
1195.70 0.03426
1195.80 0.03425
1195.90 0.03424
1196.00 0.03423
1196.10 0.03422
1196.20 0.0342
1196.30 0.03419
1196.40 0.03418
1196.50 0.03417
1196.60 0.03416
1196.70 0.03415
1196.80 0.03414
1196.90 0.03413
1197.00 0.03411
1197.10 0.0341
1197.20 0.03409
1197.30 0.03408
1197.40 0.03407
1197.50 0.03406
1197.60 0.03405
1197.70 0.03404
1197.80 0.03403
1197.90 0.03401
1198.00 0.034
1198.10 0.03399
1198.20 0.03398
1198.30 0.03397
1198.40 0.03396
1198.50 0.03395
1198.60 0.03394
1198.70 0.03393
1198.80 0.03391
1198.90 0.0339
1199.00 0.03389
1199.10 0.03388
1199.20 0.03387
1199.30 0.03386
1199.40 0.03385
1199.50 0.03384
1199.60 0.03383
1199.70 0.03381
1199.80 0.0338
1199.90 0.03379
1200.00 0
