# Version 2.1 - nm, norm@500 to 1, cut digits, bergeron_1750_75.dat_1750
# Wavelength(nm)  Flambda(ergs/cm^s/s/nm)
300.00 0.01883
300.10 0.01891
300.20 0.01899
300.30 0.01907
300.40 0.01915
300.50 0.01924
300.60 0.01932
300.70 0.0194
300.80 0.01948
300.90 0.01956
301.00 0.01964
301.10 0.01972
301.20 0.0198
301.30 0.01988
301.40 0.01996
301.50 0.02004
301.60 0.02012
301.70 0.0202
301.80 0.02028
301.90 0.02036
302.00 0.02045
302.10 0.02053
302.20 0.02062
302.30 0.0207
302.40 0.02079
302.50 0.02087
302.60 0.02096
302.70 0.02105
302.80 0.02113
302.90 0.02122
303.00 0.0213
303.10 0.02139
303.20 0.02148
303.30 0.02156
303.40 0.02165
303.50 0.02173
303.60 0.02182
303.70 0.0219
303.80 0.02199
303.90 0.02207
304.00 0.02216
304.10 0.02225
304.20 0.02234
304.30 0.02243
304.40 0.02252
304.50 0.02261
304.60 0.0227
304.70 0.02279
304.80 0.02289
304.90 0.02298
305.00 0.02307
305.10 0.02316
305.20 0.02325
305.30 0.02334
305.40 0.02343
305.50 0.02352
305.60 0.02361
305.70 0.0237
305.80 0.02379
305.90 0.02388
306.00 0.02397
306.10 0.02407
306.20 0.02416
306.30 0.02426
306.40 0.02436
306.50 0.02445
306.60 0.02455
306.70 0.02464
306.80 0.02474
306.90 0.02484
307.00 0.02493
307.10 0.02503
307.20 0.02512
307.30 0.02522
307.40 0.02532
307.50 0.02541
307.60 0.02551
307.70 0.0256
307.80 0.0257
307.90 0.02579
308.00 0.02589
308.10 0.02599
308.20 0.02609
308.30 0.02619
308.40 0.0263
308.50 0.0264
308.60 0.0265
308.70 0.0266
308.80 0.0267
308.90 0.02681
309.00 0.02691
309.10 0.02701
309.20 0.02711
309.30 0.02721
309.40 0.02731
309.50 0.02741
309.60 0.02751
309.70 0.02761
309.80 0.02771
309.90 0.02782
310.00 0.02792
310.10 0.02803
310.20 0.02813
310.30 0.02824
310.40 0.02835
310.50 0.02846
310.60 0.02857
310.70 0.02867
310.80 0.02878
310.90 0.02889
311.00 0.029
311.10 0.0291
311.20 0.02921
311.30 0.02932
311.40 0.02943
311.50 0.02953
311.60 0.02964
311.70 0.02975
311.80 0.02985
311.90 0.02996
312.00 0.03007
312.10 0.03017
312.20 0.03028
312.30 0.03039
312.40 0.03051
312.50 0.03062
312.60 0.03073
312.70 0.03085
312.80 0.03096
312.90 0.03108
313.00 0.03119
313.10 0.0313
313.20 0.03142
313.30 0.03153
313.40 0.03164
313.50 0.03176
313.60 0.03187
313.70 0.03198
313.80 0.03209
313.90 0.03221
314.00 0.03232
314.10 0.03244
314.20 0.03256
314.30 0.03268
314.40 0.0328
314.50 0.03292
314.60 0.03304
314.70 0.03316
314.80 0.03328
314.90 0.0334
315.00 0.03352
315.10 0.03364
315.20 0.03376
315.30 0.03387
315.40 0.03399
315.50 0.03411
315.60 0.03423
315.70 0.03435
315.80 0.03447
315.90 0.03459
316.00 0.03471
316.10 0.03483
316.20 0.03496
316.30 0.03508
316.40 0.03521
316.50 0.03534
316.60 0.03546
316.70 0.03559
316.80 0.03571
316.90 0.03584
317.00 0.03597
317.10 0.03609
317.20 0.03622
317.30 0.03634
317.40 0.03647
317.50 0.03659
317.60 0.03672
317.70 0.03684
317.80 0.03697
317.90 0.03709
318.00 0.03722
318.10 0.03735
318.20 0.03748
318.30 0.03761
318.40 0.03775
318.50 0.03788
318.60 0.03801
318.70 0.03815
318.80 0.03828
318.90 0.03841
319.00 0.03854
319.10 0.03868
319.20 0.03881
319.30 0.03894
319.40 0.03907
319.50 0.0392
319.60 0.03933
319.70 0.03946
319.80 0.03959
319.90 0.03973
320.00 0.03986
320.10 0.04
320.20 0.04014
320.30 0.04028
320.40 0.04042
320.50 0.04056
320.60 0.0407
320.70 0.04084
320.80 0.04098
320.90 0.04111
321.00 0.04125
321.10 0.04139
321.20 0.04153
321.30 0.04167
321.40 0.04181
321.50 0.04195
321.60 0.04208
321.70 0.04222
321.80 0.04236
321.90 0.0425
322.00 0.04264
322.10 0.04278
322.20 0.04293
322.30 0.04308
322.40 0.04322
322.50 0.04337
322.60 0.04352
322.70 0.04366
322.80 0.04381
322.90 0.04395
323.00 0.0441
323.10 0.04425
323.20 0.04439
323.30 0.04454
323.40 0.04468
323.50 0.04483
323.60 0.04497
323.70 0.04512
323.80 0.04526
323.90 0.04541
324.00 0.04555
324.10 0.0457
324.20 0.04586
324.30 0.04601
324.40 0.04617
324.50 0.04632
324.60 0.04647
324.70 0.04663
324.80 0.04678
324.90 0.04693
325.00 0.04709
325.10 0.04724
325.20 0.04739
325.30 0.04755
325.40 0.0477
325.50 0.04785
325.60 0.048
325.70 0.04815
325.80 0.04831
325.90 0.04846
326.00 0.04861
326.10 0.04877
326.20 0.04893
326.30 0.04909
326.40 0.04925
326.50 0.04942
326.60 0.04958
326.70 0.04974
326.80 0.0499
326.90 0.05006
327.00 0.05022
327.10 0.05038
327.20 0.05054
327.30 0.0507
327.40 0.05086
327.50 0.05102
327.60 0.05118
327.70 0.05134
327.80 0.0515
327.90 0.05166
328.00 0.05182
328.10 0.05199
328.20 0.05215
328.30 0.05232
328.40 0.05249
328.50 0.05266
328.60 0.05283
328.70 0.053
328.80 0.05316
328.90 0.05333
329.00 0.0535
329.10 0.05367
329.20 0.05384
329.30 0.054
329.40 0.05417
329.50 0.05434
329.60 0.0545
329.70 0.05467
329.80 0.05484
329.90 0.055
330.00 0.05517
330.10 0.05534
330.20 0.05552
330.30 0.0557
330.40 0.05588
330.50 0.05605
330.60 0.05623
330.70 0.05641
330.80 0.05658
330.90 0.05676
331.00 0.05693
331.10 0.05711
331.20 0.05728
331.30 0.05746
331.40 0.05763
331.50 0.05781
331.60 0.05798
331.70 0.05815
331.80 0.05833
331.90 0.0585
332.00 0.05867
332.10 0.05886
332.20 0.05905
332.30 0.05923
332.40 0.05942
332.50 0.0596
332.60 0.05978
332.70 0.05997
332.80 0.06015
332.90 0.06034
333.00 0.06052
333.10 0.0607
333.20 0.06089
333.30 0.06107
333.40 0.06125
333.50 0.06143
333.60 0.06162
333.70 0.0618
333.80 0.06198
333.90 0.06216
334.00 0.06234
334.10 0.06254
334.20 0.06273
334.30 0.06292
334.40 0.06311
334.50 0.06331
334.60 0.0635
334.70 0.06369
334.80 0.06388
334.90 0.06408
335.00 0.06427
335.10 0.06446
335.20 0.06465
335.30 0.06484
335.40 0.06503
335.50 0.06522
335.60 0.06541
335.70 0.0656
335.80 0.06579
335.90 0.06598
336.00 0.06617
336.10 0.06637
336.20 0.06657
336.30 0.06677
336.40 0.06697
336.50 0.06718
336.60 0.06738
336.70 0.06758
336.80 0.06778
336.90 0.06798
337.00 0.06818
337.10 0.06838
337.20 0.06858
337.30 0.06877
337.40 0.06897
337.50 0.06917
337.60 0.06937
337.70 0.06957
337.80 0.06977
337.90 0.06996
338.00 0.07016
338.10 0.07037
338.20 0.07058
338.30 0.07079
338.40 0.071
338.50 0.07121
338.60 0.07142
338.70 0.07163
338.80 0.07184
338.90 0.07204
339.00 0.07225
339.10 0.07246
339.20 0.07267
339.30 0.07287
339.40 0.07308
339.50 0.07329
339.60 0.07349
339.70 0.0737
339.80 0.07391
339.90 0.07411
340.00 0.07432
340.10 0.07454
340.20 0.07476
340.30 0.07497
340.40 0.07519
340.50 0.07541
340.60 0.07563
340.70 0.07585
340.80 0.07606
340.90 0.07628
341.00 0.0765
341.10 0.07671
341.20 0.07693
341.30 0.07714
341.40 0.07736
341.50 0.07757
341.60 0.07779
341.70 0.078
341.80 0.07822
341.90 0.07843
342.00 0.07865
342.10 0.07887
342.20 0.0791
342.30 0.07933
342.40 0.07956
342.50 0.07978
342.60 0.08001
342.70 0.08024
342.80 0.08046
342.90 0.08069
343.00 0.08091
343.10 0.08114
343.20 0.08136
343.30 0.08159
343.40 0.08181
343.50 0.08203
343.60 0.08226
343.70 0.08248
343.80 0.0827
343.90 0.08293
344.00 0.08315
344.10 0.08339
344.20 0.08362
344.30 0.08386
344.40 0.08409
344.50 0.08433
344.60 0.08457
344.70 0.0848
344.80 0.08504
344.90 0.08527
345.00 0.0855
345.10 0.08574
345.20 0.08597
345.30 0.0862
345.40 0.08644
345.50 0.08667
345.60 0.0869
345.70 0.08713
345.80 0.08737
345.90 0.0876
346.00 0.08783
346.10 0.08808
346.20 0.08832
346.30 0.08857
346.40 0.08881
346.50 0.08906
346.60 0.0893
346.70 0.08954
346.80 0.08979
346.90 0.09003
347.00 0.09027
347.10 0.09052
347.20 0.09076
347.30 0.091
347.40 0.09124
347.50 0.09148
347.60 0.09173
347.70 0.09197
347.80 0.09221
347.90 0.09245
348.00 0.09269
348.10 0.09294
348.20 0.0932
348.30 0.09345
348.40 0.09371
348.50 0.09396
348.60 0.09421
348.70 0.09447
348.80 0.09472
348.90 0.09497
349.00 0.09522
349.10 0.09548
349.20 0.09573
349.30 0.09598
349.40 0.09623
349.50 0.09648
349.60 0.09673
349.70 0.09698
349.80 0.09723
349.90 0.09748
350.00 0.09773
350.10 0.09799
350.20 0.09826
350.30 0.09852
350.40 0.09878
350.50 0.09905
350.60 0.09931
350.70 0.09957
350.80 0.09983
350.90 0.1001
351.00 0.1004
351.10 0.1006
351.20 0.1009
351.30 0.1011
351.40 0.1014
351.50 0.1017
351.60 0.1019
351.70 0.1022
351.80 0.1024
351.90 0.1027
352.00 0.103
352.10 0.1032
352.20 0.1035
352.30 0.1038
352.40 0.104
352.50 0.1043
352.60 0.1046
352.70 0.1049
352.80 0.1051
352.90 0.1054
353.00 0.1057
353.10 0.1059
353.20 0.1062
353.30 0.1065
353.40 0.1068
353.50 0.107
353.60 0.1073
353.70 0.1076
353.80 0.1078
353.90 0.1081
354.00 0.1084
354.10 0.1087
354.20 0.1089
354.30 0.1092
354.40 0.1095
354.50 0.1098
354.60 0.1101
354.70 0.1103
354.80 0.1106
354.90 0.1109
355.00 0.1112
355.10 0.1115
355.20 0.1117
355.30 0.112
355.40 0.1123
355.50 0.1126
355.60 0.1129
355.70 0.1131
355.80 0.1134
355.90 0.1137
356.00 0.114
356.10 0.1143
356.20 0.1146
356.30 0.1148
356.40 0.1151
356.50 0.1154
356.60 0.1157
356.70 0.116
356.80 0.1163
356.90 0.1166
357.00 0.1169
357.10 0.1172
357.20 0.1175
357.30 0.1177
357.40 0.118
357.50 0.1183
357.60 0.1186
357.70 0.1189
357.80 0.1192
357.90 0.1195
358.00 0.1198
358.10 0.1201
358.20 0.1204
358.30 0.1207
358.40 0.121
358.50 0.1213
358.60 0.1216
358.70 0.1219
358.80 0.1222
358.90 0.1225
359.00 0.1228
359.10 0.1231
359.20 0.1234
359.30 0.1237
359.40 0.124
359.50 0.1243
359.60 0.1246
359.70 0.1249
359.80 0.1252
359.90 0.1255
360.00 0.1257
360.10 0.1261
360.20 0.1264
360.30 0.1267
360.40 0.127
360.50 0.1273
360.60 0.1276
360.70 0.1279
360.80 0.1282
360.90 0.1286
361.00 0.1289
361.10 0.1292
361.20 0.1295
361.30 0.1298
361.40 0.1301
361.50 0.1304
361.60 0.1307
361.70 0.131
361.80 0.1313
361.90 0.1316
362.00 0.1319
362.10 0.1323
362.20 0.1326
362.30 0.1329
362.40 0.1332
362.50 0.1335
362.60 0.1338
362.70 0.1342
362.80 0.1345
362.90 0.1348
363.00 0.1351
363.10 0.1354
363.20 0.1357
363.30 0.1361
363.40 0.1364
363.50 0.1367
363.60 0.137
363.70 0.1374
363.80 0.1377
363.90 0.138
364.00 0.1383
364.10 0.1387
364.20 0.139
364.30 0.1393
364.40 0.1396
364.50 0.1399
364.60 0.1403
364.70 0.1406
364.80 0.1409
364.90 0.1413
365.00 0.1416
365.10 0.1419
365.20 0.1423
365.30 0.1426
365.40 0.1429
365.50 0.1433
365.60 0.1436
365.70 0.1439
365.80 0.1442
365.90 0.1446
366.00 0.1449
366.10 0.1452
366.20 0.1456
366.30 0.1459
366.40 0.1463
366.50 0.1466
366.60 0.1469
366.70 0.1473
366.80 0.1476
366.90 0.148
367.00 0.1483
367.10 0.1486
367.20 0.149
367.30 0.1493
367.40 0.1497
367.50 0.15
367.60 0.1503
367.70 0.1507
367.80 0.151
367.90 0.1513
368.00 0.1517
368.10 0.152
368.20 0.1524
368.30 0.1527
368.40 0.1531
368.50 0.1534
368.60 0.1538
368.70 0.1541
368.80 0.1545
368.90 0.1548
369.00 0.1552
369.10 0.1555
369.20 0.1559
369.30 0.1562
369.40 0.1566
369.50 0.1569
369.60 0.1573
369.70 0.1576
369.80 0.158
369.90 0.1583
370.00 0.1587
370.10 0.159
370.20 0.1594
370.30 0.1597
370.40 0.1601
370.50 0.1605
370.60 0.1608
370.70 0.1612
370.80 0.1616
370.90 0.1619
371.00 0.1623
371.10 0.1626
371.20 0.163
371.30 0.1634
371.40 0.1637
371.50 0.1641
371.60 0.1644
371.70 0.1648
371.80 0.1651
371.90 0.1655
372.00 0.1658
372.10 0.1662
372.20 0.1666
372.30 0.167
372.40 0.1673
372.50 0.1677
372.60 0.1681
372.70 0.1685
372.80 0.1688
372.90 0.1692
373.00 0.1696
373.10 0.1699
373.20 0.1703
373.30 0.1707
373.40 0.171
373.50 0.1714
373.60 0.1718
373.70 0.1721
373.80 0.1725
373.90 0.1729
374.00 0.1732
374.10 0.1736
374.20 0.174
374.30 0.1744
374.40 0.1748
374.50 0.1752
374.60 0.1755
374.70 0.1759
374.80 0.1763
374.90 0.1767
375.00 0.1771
375.10 0.1774
375.20 0.1778
375.30 0.1782
375.40 0.1786
375.50 0.179
375.60 0.1793
375.70 0.1797
375.80 0.1801
375.90 0.1805
376.00 0.1808
376.10 0.1812
376.20 0.1816
376.30 0.182
376.40 0.1824
376.50 0.1828
376.60 0.1832
376.70 0.1836
376.80 0.1839
376.90 0.1843
377.00 0.1847
377.10 0.1851
377.20 0.1855
377.30 0.1859
377.40 0.1863
377.50 0.1867
377.60 0.1871
377.70 0.1875
377.80 0.1879
377.90 0.1882
378.00 0.1886
378.10 0.189
378.20 0.1894
378.30 0.1898
378.40 0.1902
378.50 0.1906
378.60 0.191
378.70 0.1914
378.80 0.1918
378.90 0.1922
379.00 0.1926
379.10 0.193
379.20 0.1934
379.30 0.1938
379.40 0.1942
379.50 0.1946
379.60 0.195
379.70 0.1954
379.80 0.1959
379.90 0.1963
380.00 0.1967
380.10 0.1971
380.20 0.1975
380.30 0.1979
380.40 0.1983
380.50 0.1987
380.60 0.1991
380.70 0.1995
380.80 0.1999
380.90 0.2003
381.00 0.2007
381.10 0.2012
381.20 0.2016
381.30 0.202
381.40 0.2024
381.50 0.2028
381.60 0.2032
381.70 0.2036
381.80 0.204
381.90 0.2044
382.00 0.2049
382.10 0.2053
382.20 0.2057
382.30 0.2061
382.40 0.2065
382.50 0.207
382.60 0.2074
382.70 0.2078
382.80 0.2082
382.90 0.2086
383.00 0.2091
383.10 0.2095
383.20 0.2099
383.30 0.2103
383.40 0.2107
383.50 0.2112
383.60 0.2116
383.70 0.212
383.80 0.2124
383.90 0.2129
384.00 0.2133
384.10 0.2137
384.20 0.2141
384.30 0.2146
384.40 0.215
384.50 0.2154
384.60 0.2159
384.70 0.2163
384.80 0.2167
384.90 0.2171
385.00 0.2176
385.10 0.218
385.20 0.2184
385.30 0.2189
385.40 0.2193
385.50 0.2197
385.60 0.2202
385.70 0.2206
385.80 0.221
385.90 0.2215
386.00 0.2219
386.10 0.2224
386.20 0.2228
386.30 0.2232
386.40 0.2237
386.50 0.2241
386.60 0.2245
386.70 0.225
386.80 0.2254
386.90 0.2259
387.00 0.2263
387.10 0.2268
387.20 0.2272
387.30 0.2277
387.40 0.2281
387.50 0.2285
387.60 0.229
387.70 0.2294
387.80 0.2299
387.90 0.2303
388.00 0.2308
388.10 0.2312
388.20 0.2317
388.30 0.2321
388.40 0.2326
388.50 0.233
388.60 0.2335
388.70 0.2339
388.80 0.2344
388.90 0.2348
389.00 0.2353
389.10 0.2357
389.20 0.2362
389.30 0.2366
389.40 0.2371
389.50 0.2375
389.60 0.238
389.70 0.2384
389.80 0.2389
389.90 0.2394
390.00 0.2398
390.10 0.2403
390.20 0.2407
390.30 0.2412
390.40 0.2416
390.50 0.2421
390.60 0.2426
390.70 0.243
390.80 0.2435
390.90 0.244
391.00 0.2444
391.10 0.2449
391.20 0.2453
391.30 0.2458
391.40 0.2463
391.50 0.2467
391.60 0.2472
391.70 0.2477
391.80 0.2481
391.90 0.2486
392.00 0.2491
392.10 0.2495
392.20 0.25
392.30 0.2505
392.40 0.2509
392.50 0.2514
392.60 0.2519
392.70 0.2524
392.80 0.2528
392.90 0.2533
393.00 0.2538
393.10 0.2542
393.20 0.2547
393.30 0.2552
393.40 0.2557
393.50 0.2561
393.60 0.2566
393.70 0.2571
393.80 0.2576
393.90 0.258
394.00 0.2585
394.10 0.259
394.20 0.2595
394.30 0.26
394.40 0.2604
394.50 0.2609
394.60 0.2614
394.70 0.2619
394.80 0.2624
394.90 0.2629
395.00 0.2633
395.10 0.2638
395.20 0.2643
395.30 0.2648
395.40 0.2653
395.50 0.2658
395.60 0.2662
395.70 0.2667
395.80 0.2672
395.90 0.2677
396.00 0.2682
396.10 0.2687
396.20 0.2692
396.30 0.2697
396.40 0.2702
396.50 0.2706
396.60 0.2711
396.70 0.2716
396.80 0.2721
396.90 0.2726
397.00 0.2731
397.10 0.2736
397.20 0.2741
397.30 0.2746
397.40 0.2751
397.50 0.2756
397.60 0.2761
397.70 0.2766
397.80 0.2771
397.90 0.2776
398.00 0.2781
398.10 0.2786
398.20 0.2791
398.30 0.2796
398.40 0.2801
398.50 0.2806
398.60 0.2811
398.70 0.2816
398.80 0.2821
398.90 0.2826
399.00 0.2831
399.10 0.2836
399.20 0.2841
399.30 0.2846
399.40 0.2851
399.50 0.2856
399.60 0.2861
399.70 0.2866
399.80 0.2871
399.90 0.2876
400.00 0.2881
400.10 0.2887
400.20 0.2892
400.30 0.2897
400.40 0.2902
400.50 0.2907
400.60 0.2912
400.70 0.2917
400.80 0.2922
400.90 0.2928
401.00 0.2933
401.10 0.2938
401.20 0.2943
401.30 0.2948
401.40 0.2953
401.50 0.2959
401.60 0.2964
401.70 0.2969
401.80 0.2974
401.90 0.2979
402.00 0.2984
402.10 0.299
402.20 0.2995
402.30 0.3
402.40 0.3005
402.50 0.301
402.60 0.3016
402.70 0.3021
402.80 0.3026
402.90 0.3031
403.00 0.3037
403.10 0.3042
403.20 0.3047
403.30 0.3052
403.40 0.3058
403.50 0.3063
403.60 0.3068
403.70 0.3073
403.80 0.3079
403.90 0.3084
404.00 0.3089
404.10 0.3095
404.20 0.31
404.30 0.3105
404.40 0.3111
404.50 0.3116
404.60 0.3121
404.70 0.3126
404.80 0.3132
404.90 0.3137
405.00 0.3142
405.10 0.3148
405.20 0.3153
405.30 0.3159
405.40 0.3164
405.50 0.3169
405.60 0.3175
405.70 0.318
405.80 0.3185
405.90 0.3191
406.00 0.3196
406.10 0.3202
406.20 0.3207
406.30 0.3212
406.40 0.3218
406.50 0.3223
406.60 0.3229
406.70 0.3234
406.80 0.324
406.90 0.3245
407.00 0.325
407.10 0.3256
407.20 0.3261
407.30 0.3267
407.40 0.3272
407.50 0.3278
407.60 0.3283
407.70 0.3289
407.80 0.3294
407.90 0.33
408.00 0.3305
408.10 0.3311
408.20 0.3316
408.30 0.3322
408.40 0.3327
408.50 0.3333
408.60 0.3338
408.70 0.3344
408.80 0.3349
408.90 0.3355
409.00 0.336
409.10 0.3366
409.20 0.3371
409.30 0.3377
409.40 0.3383
409.50 0.3388
409.60 0.3394
409.70 0.3399
409.80 0.3405
409.90 0.341
410.00 0.3416
410.10 0.3422
410.20 0.3427
410.30 0.3433
410.40 0.3438
410.50 0.3444
410.60 0.345
410.70 0.3455
410.80 0.3461
410.90 0.3467
411.00 0.3472
411.10 0.3478
411.20 0.3483
411.30 0.3489
411.40 0.3495
411.50 0.35
411.60 0.3506
411.70 0.3512
411.80 0.3517
411.90 0.3523
412.00 0.3529
412.10 0.3534
412.20 0.354
412.30 0.3546
412.40 0.3552
412.50 0.3557
412.60 0.3563
412.70 0.3569
412.80 0.3575
412.90 0.358
413.00 0.3586
413.10 0.3592
413.20 0.3597
413.30 0.3603
413.40 0.3609
413.50 0.3615
413.60 0.3621
413.70 0.3626
413.80 0.3632
413.90 0.3638
414.00 0.3644
414.10 0.3649
414.20 0.3655
414.30 0.3661
414.40 0.3667
414.50 0.3673
414.60 0.3678
414.70 0.3684
414.80 0.369
414.90 0.3696
415.00 0.3702
415.10 0.3708
415.20 0.3713
415.30 0.3719
415.40 0.3725
415.50 0.3731
415.60 0.3737
415.70 0.3743
415.80 0.3749
415.90 0.3755
416.00 0.376
416.10 0.3766
416.20 0.3772
416.30 0.3778
416.40 0.3784
416.50 0.379
416.60 0.3796
416.70 0.3802
416.80 0.3808
416.90 0.3814
417.00 0.3819
417.10 0.3825
417.20 0.3831
417.30 0.3837
417.40 0.3843
417.50 0.3849
417.60 0.3855
417.70 0.3861
417.80 0.3867
417.90 0.3873
418.00 0.3879
418.10 0.3885
418.20 0.3891
418.30 0.3897
418.40 0.3903
418.50 0.3909
418.60 0.3915
418.70 0.3921
418.80 0.3927
418.90 0.3933
419.00 0.3939
419.10 0.3945
419.20 0.3951
419.30 0.3957
419.40 0.3963
419.50 0.3969
419.60 0.3975
419.70 0.3981
419.80 0.3987
419.90 0.3994
420.00 0.4
420.10 0.4006
420.20 0.4012
420.30 0.4018
420.40 0.4024
420.50 0.403
420.60 0.4036
420.70 0.4042
420.80 0.4048
420.90 0.4054
421.00 0.406
421.10 0.4067
421.20 0.4073
421.30 0.4079
421.40 0.4085
421.50 0.4091
421.60 0.4097
421.70 0.4103
421.80 0.411
421.90 0.4116
422.00 0.4122
422.10 0.4128
422.20 0.4134
422.30 0.4141
422.40 0.4147
422.50 0.4153
422.60 0.4159
422.70 0.4165
422.80 0.4172
422.90 0.4178
423.00 0.4184
423.10 0.419
423.20 0.4196
423.30 0.4203
423.40 0.4209
423.50 0.4215
423.60 0.4221
423.70 0.4227
423.80 0.4234
423.90 0.424
424.00 0.4246
424.10 0.4252
424.20 0.4259
424.30 0.4265
424.40 0.4271
424.50 0.4278
424.60 0.4284
424.70 0.429
424.80 0.4297
424.90 0.4303
425.00 0.4309
425.10 0.4315
425.20 0.4322
425.30 0.4328
425.40 0.4334
425.50 0.4341
425.60 0.4347
425.70 0.4353
425.80 0.436
425.90 0.4366
426.00 0.4372
426.10 0.4379
426.20 0.4385
426.30 0.4391
426.40 0.4398
426.50 0.4404
426.60 0.441
426.70 0.4417
426.80 0.4423
426.90 0.443
427.00 0.4436
427.10 0.4442
427.20 0.4449
427.30 0.4455
427.40 0.4462
427.50 0.4468
427.60 0.4474
427.70 0.4481
427.80 0.4487
427.90 0.4494
428.00 0.45
428.10 0.4507
428.20 0.4513
428.30 0.452
428.40 0.4526
428.50 0.4532
428.60 0.4539
428.70 0.4545
428.80 0.4552
428.90 0.4558
429.00 0.4565
429.10 0.4571
429.20 0.4578
429.30 0.4584
429.40 0.4591
429.50 0.4597
429.60 0.4604
429.70 0.461
429.80 0.4617
429.90 0.4623
430.00 0.463
430.10 0.4636
430.20 0.4643
430.30 0.4649
430.40 0.4656
430.50 0.4663
430.60 0.4669
430.70 0.4676
430.80 0.4682
430.90 0.4689
431.00 0.4695
431.10 0.4702
431.20 0.4708
431.30 0.4715
431.40 0.4722
431.50 0.4728
431.60 0.4735
431.70 0.4741
431.80 0.4748
431.90 0.4755
432.00 0.4761
432.10 0.4768
432.20 0.4775
432.30 0.4781
432.40 0.4788
432.50 0.4794
432.60 0.4801
432.70 0.4808
432.80 0.4814
432.90 0.4821
433.00 0.4828
433.10 0.4834
433.20 0.4841
433.30 0.4847
433.40 0.4854
433.50 0.4861
433.60 0.4868
433.70 0.4874
433.80 0.4881
433.90 0.4888
434.00 0.4894
434.10 0.4901
434.20 0.4908
434.30 0.4914
434.40 0.4921
434.50 0.4928
434.60 0.4935
434.70 0.4941
434.80 0.4948
434.90 0.4955
435.00 0.4961
435.10 0.4968
435.20 0.4975
435.30 0.4982
435.40 0.4989
435.50 0.4995
435.60 0.5002
435.70 0.5009
435.80 0.5016
435.90 0.5022
436.00 0.5029
436.10 0.5036
436.20 0.5043
436.30 0.5049
436.40 0.5056
436.50 0.5063
436.60 0.507
436.70 0.5077
436.80 0.5083
436.90 0.509
437.00 0.5097
437.10 0.5104
437.20 0.5111
437.30 0.5118
437.40 0.5124
437.50 0.5131
437.60 0.5138
437.70 0.5145
437.80 0.5152
437.90 0.5159
438.00 0.5166
438.10 0.5172
438.20 0.5179
438.30 0.5186
438.40 0.5193
438.50 0.52
438.60 0.5207
438.70 0.5214
438.80 0.522
438.90 0.5227
439.00 0.5234
439.10 0.5241
439.20 0.5248
439.30 0.5255
439.40 0.5262
439.50 0.5269
439.60 0.5276
439.70 0.5283
439.80 0.529
439.90 0.5297
440.00 0.5304
440.10 0.531
440.20 0.5317
440.30 0.5324
440.40 0.5331
440.50 0.5338
440.60 0.5345
440.70 0.5352
440.80 0.5359
440.90 0.5366
441.00 0.5373
441.10 0.538
441.20 0.5387
441.30 0.5394
441.40 0.5401
441.50 0.5408
441.60 0.5415
441.70 0.5422
441.80 0.5429
441.90 0.5436
442.00 0.5443
442.10 0.545
442.20 0.5457
442.30 0.5464
442.40 0.5471
442.50 0.5478
442.60 0.5485
442.70 0.5492
442.80 0.5499
442.90 0.5507
443.00 0.5514
443.10 0.5521
443.20 0.5528
443.30 0.5535
443.40 0.5542
443.50 0.5549
443.60 0.5556
443.70 0.5563
443.80 0.557
443.90 0.5577
444.00 0.5584
444.10 0.5591
444.20 0.5599
444.30 0.5606
444.40 0.5613
444.50 0.562
444.60 0.5627
444.70 0.5634
444.80 0.5641
444.90 0.5648
445.00 0.5655
445.10 0.5663
445.20 0.567
445.30 0.5677
445.40 0.5684
445.50 0.5691
445.60 0.5698
445.70 0.5706
445.80 0.5713
445.90 0.572
446.00 0.5727
446.10 0.5734
446.20 0.5741
446.30 0.5749
446.40 0.5756
446.50 0.5763
446.60 0.577
446.70 0.5777
446.80 0.5784
446.90 0.5792
447.00 0.5799
447.10 0.5806
447.20 0.5813
447.30 0.5821
447.40 0.5828
447.50 0.5835
447.60 0.5842
447.70 0.5849
447.80 0.5857
447.90 0.5864
448.00 0.5871
448.10 0.5878
448.20 0.5886
448.30 0.5893
448.40 0.59
448.50 0.5907
448.60 0.5915
448.70 0.5922
448.80 0.5929
448.90 0.5936
449.00 0.5944
449.10 0.5951
449.20 0.5958
449.30 0.5966
449.40 0.5973
449.50 0.598
449.60 0.5987
449.70 0.5995
449.80 0.6002
449.90 0.6009
450.00 0.6017
450.10 0.6024
450.20 0.6031
450.30 0.6039
450.40 0.6046
450.50 0.6053
450.60 0.6061
450.70 0.6068
450.80 0.6075
450.90 0.6083
451.00 0.609
451.10 0.6097
451.20 0.6105
451.30 0.6112
451.40 0.6119
451.50 0.6127
451.60 0.6134
451.70 0.6142
451.80 0.6149
451.90 0.6156
452.00 0.6164
452.10 0.6171
452.20 0.6178
452.30 0.6186
452.40 0.6193
452.50 0.6201
452.60 0.6208
452.70 0.6216
452.80 0.6223
452.90 0.623
453.00 0.6238
453.10 0.6245
453.20 0.6253
453.30 0.626
453.40 0.6267
453.50 0.6275
453.60 0.6282
453.70 0.629
453.80 0.6297
453.90 0.6305
454.00 0.6312
454.10 0.632
454.20 0.6327
454.30 0.6335
454.40 0.6342
454.50 0.6349
454.60 0.6357
454.70 0.6364
454.80 0.6372
454.90 0.6379
455.00 0.6387
455.10 0.6394
455.20 0.6402
455.30 0.6409
455.40 0.6417
455.50 0.6424
455.60 0.6432
455.70 0.6439
455.80 0.6447
455.90 0.6454
456.00 0.6462
456.10 0.6469
456.20 0.6477
456.30 0.6484
456.40 0.6492
456.50 0.6499
456.60 0.6507
456.70 0.6515
456.80 0.6522
456.90 0.653
457.00 0.6537
457.10 0.6545
457.20 0.6552
457.30 0.656
457.40 0.6567
457.50 0.6575
457.60 0.6583
457.70 0.659
457.80 0.6598
457.90 0.6605
458.00 0.6613
458.10 0.662
458.20 0.6628
458.30 0.6636
458.40 0.6643
458.50 0.6651
458.60 0.6658
458.70 0.6666
458.80 0.6674
458.90 0.6681
459.00 0.6689
459.10 0.6696
459.20 0.6704
459.30 0.6712
459.40 0.6719
459.50 0.6727
459.60 0.6734
459.70 0.6742
459.80 0.675
459.90 0.6757
460.00 0.6765
460.10 0.6773
460.20 0.678
460.30 0.6788
460.40 0.6796
460.50 0.6803
460.60 0.6811
460.70 0.6819
460.80 0.6826
460.90 0.6834
461.00 0.6842
461.10 0.6849
461.20 0.6857
461.30 0.6865
461.40 0.6872
461.50 0.688
461.60 0.6888
461.70 0.6895
461.80 0.6903
461.90 0.6911
462.00 0.6918
462.10 0.6926
462.20 0.6934
462.30 0.6942
462.40 0.6949
462.50 0.6957
462.60 0.6965
462.70 0.6972
462.80 0.698
462.90 0.6988
463.00 0.6996
463.10 0.7003
463.20 0.7011
463.30 0.7019
463.40 0.7027
463.50 0.7034
463.60 0.7042
463.70 0.705
463.80 0.7058
463.90 0.7065
464.00 0.7073
464.10 0.7081
464.20 0.7089
464.30 0.7096
464.40 0.7104
464.50 0.7112
464.60 0.712
464.70 0.7127
464.80 0.7135
464.90 0.7143
465.00 0.7151
465.10 0.7159
465.20 0.7166
465.30 0.7174
465.40 0.7182
465.50 0.719
465.60 0.7198
465.70 0.7205
465.80 0.7213
465.90 0.7221
466.00 0.7229
466.10 0.7237
466.20 0.7244
466.30 0.7252
466.40 0.726
466.50 0.7268
466.60 0.7276
466.70 0.7284
466.80 0.7291
466.90 0.7299
467.00 0.7307
467.10 0.7315
467.20 0.7323
467.30 0.7331
467.40 0.7338
467.50 0.7346
467.60 0.7354
467.70 0.7362
467.80 0.737
467.90 0.7378
468.00 0.7385
468.10 0.7393
468.20 0.7401
468.30 0.7409
468.40 0.7417
468.50 0.7425
468.60 0.7433
468.70 0.7441
468.80 0.7449
468.90 0.7456
469.00 0.7464
469.10 0.7472
469.20 0.748
469.30 0.7488
469.40 0.7496
469.50 0.7504
469.60 0.7512
469.70 0.752
469.80 0.7527
469.90 0.7535
470.00 0.7543
470.10 0.7551
470.20 0.7559
470.30 0.7567
470.40 0.7575
470.50 0.7583
470.60 0.7591
470.70 0.7599
470.80 0.7607
470.90 0.7615
471.00 0.7623
471.10 0.763
471.20 0.7638
471.30 0.7646
471.40 0.7654
471.50 0.7662
471.60 0.767
471.70 0.7678
471.80 0.7686
471.90 0.7694
472.00 0.7702
472.10 0.771
472.20 0.7718
472.30 0.7726
472.40 0.7734
472.50 0.7742
472.60 0.775
472.70 0.7758
472.80 0.7766
472.90 0.7774
473.00 0.7782
473.10 0.779
473.20 0.7798
473.30 0.7806
473.40 0.7814
473.50 0.7822
473.60 0.783
473.70 0.7838
473.80 0.7846
473.90 0.7854
474.00 0.7862
474.10 0.787
474.20 0.7878
474.30 0.7886
474.40 0.7894
474.50 0.7902
474.60 0.791
474.70 0.7918
474.80 0.7926
474.90 0.7934
475.00 0.7942
475.10 0.795
475.20 0.7958
475.30 0.7966
475.40 0.7974
475.50 0.7982
475.60 0.799
475.70 0.7998
475.80 0.8006
475.90 0.8014
476.00 0.8022
476.10 0.803
476.20 0.8039
476.30 0.8047
476.40 0.8055
476.50 0.8063
476.60 0.8071
476.70 0.8079
476.80 0.8087
476.90 0.8095
477.00 0.8103
477.10 0.8111
477.20 0.8119
477.30 0.8127
477.40 0.8135
477.50 0.8143
477.60 0.8152
477.70 0.816
477.80 0.8168
477.90 0.8176
478.00 0.8184
478.10 0.8192
478.20 0.82
478.30 0.8208
478.40 0.8216
478.50 0.8224
478.60 0.8232
478.70 0.8241
478.80 0.8249
478.90 0.8257
479.00 0.8265
479.10 0.8273
479.20 0.8281
479.30 0.8289
479.40 0.8297
479.50 0.8305
479.60 0.8314
479.70 0.8322
479.80 0.833
479.90 0.8338
480.00 0.8346
480.10 0.8354
480.20 0.8362
480.30 0.8371
480.40 0.8379
480.50 0.8387
480.60 0.8395
480.70 0.8403
480.80 0.8411
480.90 0.8419
481.00 0.8427
481.10 0.8436
481.20 0.8444
481.30 0.8452
481.40 0.846
481.50 0.8468
481.60 0.8476
481.70 0.8485
481.80 0.8493
481.90 0.8501
482.00 0.8509
482.10 0.8517
482.20 0.8525
482.30 0.8534
482.40 0.8542
482.50 0.855
482.60 0.8558
482.70 0.8566
482.80 0.8574
482.90 0.8583
483.00 0.8591
483.10 0.8599
483.20 0.8607
483.30 0.8615
483.40 0.8624
483.50 0.8632
483.60 0.864
483.70 0.8648
483.80 0.8656
483.90 0.8665
484.00 0.8673
484.10 0.8681
484.20 0.8689
484.30 0.8697
484.40 0.8706
484.50 0.8714
484.60 0.8722
484.70 0.873
484.80 0.8738
484.90 0.8747
485.00 0.8755
485.10 0.8763
485.20 0.8771
485.30 0.8779
485.40 0.8788
485.50 0.8796
485.60 0.8804
485.70 0.8812
485.80 0.882
485.90 0.8829
486.00 0.8837
486.10 0.8845
486.20 0.8853
486.30 0.8862
486.40 0.887
486.50 0.8878
486.60 0.8886
486.70 0.8895
486.80 0.8903
486.90 0.8911
487.00 0.8919
487.10 0.8928
487.20 0.8936
487.30 0.8944
487.40 0.8952
487.50 0.8961
487.60 0.8969
487.70 0.8977
487.80 0.8985
487.90 0.8994
488.00 0.9002
488.10 0.901
488.20 0.9018
488.30 0.9027
488.40 0.9035
488.50 0.9043
488.60 0.9051
488.70 0.906
488.80 0.9068
488.90 0.9076
489.00 0.9084
489.10 0.9093
489.20 0.9101
489.30 0.9109
489.40 0.9118
489.50 0.9126
489.60 0.9134
489.70 0.9142
489.80 0.9151
489.90 0.9159
490.00 0.9167
490.10 0.9176
490.20 0.9184
490.30 0.9192
490.40 0.92
490.50 0.9209
490.60 0.9217
490.70 0.9225
490.80 0.9234
490.90 0.9242
491.00 0.925
491.10 0.9258
491.20 0.9267
491.30 0.9275
491.40 0.9283
491.50 0.9292
491.60 0.93
491.70 0.9308
491.80 0.9317
491.90 0.9325
492.00 0.9333
492.10 0.9341
492.20 0.935
492.30 0.9358
492.40 0.9366
492.50 0.9375
492.60 0.9383
492.70 0.9391
492.80 0.94
492.90 0.9408
493.00 0.9416
493.10 0.9424
493.20 0.9433
493.30 0.9441
493.40 0.9449
493.50 0.9458
493.60 0.9466
493.70 0.9474
493.80 0.9483
493.90 0.9491
494.00 0.9499
494.10 0.9508
494.20 0.9516
494.30 0.9524
494.40 0.9533
494.50 0.9541
494.60 0.9549
494.70 0.9558
494.80 0.9566
494.90 0.9574
495.00 0.9583
495.10 0.9591
495.20 0.9599
495.30 0.9608
495.40 0.9616
495.50 0.9624
495.60 0.9633
495.70 0.9641
495.80 0.9649
495.90 0.9658
496.00 0.9666
496.10 0.9674
496.20 0.9683
496.30 0.9691
496.40 0.9699
496.50 0.9708
496.60 0.9716
496.70 0.9724
496.80 0.9733
496.90 0.9741
497.00 0.9749
497.10 0.9758
497.20 0.9766
497.30 0.9774
497.40 0.9783
497.50 0.9791
497.60 0.98
497.70 0.9808
497.80 0.9816
497.90 0.9825
498.00 0.9833
498.10 0.9841
498.20 0.985
498.30 0.9858
498.40 0.9866
498.50 0.9875
498.60 0.9883
498.70 0.9891
498.80 0.99
498.90 0.9908
499.00 0.9916
499.10 0.9925
499.20 0.9933
499.30 0.9941
499.40 0.995
499.50 0.9958
499.60 0.9967
499.70 0.9975
499.80 0.9983
499.90 0.9992
500.00 1
500.10 1.001
500.20 1.002
500.30 1.003
500.40 1.003
500.50 1.004
500.60 1.005
500.70 1.006
500.80 1.007
500.90 1.008
501.00 1.008
501.10 1.009
501.20 1.01
501.30 1.011
501.40 1.012
501.50 1.013
501.60 1.013
501.70 1.014
501.80 1.015
501.90 1.016
502.00 1.017
502.10 1.018
502.20 1.018
502.30 1.019
502.40 1.02
502.50 1.021
502.60 1.022
502.70 1.023
502.80 1.023
502.90 1.024
503.00 1.025
503.10 1.026
503.20 1.027
503.30 1.028
503.40 1.028
503.50 1.029
503.60 1.03
503.70 1.031
503.80 1.032
503.90 1.033
504.00 1.033
504.10 1.034
504.20 1.035
504.30 1.036
504.40 1.037
504.50 1.038
504.60 1.038
504.70 1.039
504.80 1.04
504.90 1.041
505.00 1.042
505.10 1.043
505.20 1.043
505.30 1.044
505.40 1.045
505.50 1.046
505.60 1.047
505.70 1.048
505.80 1.048
505.90 1.049
506.00 1.05
506.10 1.051
506.20 1.052
506.30 1.053
506.40 1.053
506.50 1.054
506.60 1.055
506.70 1.056
506.80 1.057
506.90 1.058
507.00 1.058
507.10 1.059
507.20 1.06
507.30 1.061
507.40 1.062
507.50 1.063
507.60 1.064
507.70 1.064
507.80 1.065
507.90 1.066
508.00 1.067
508.10 1.068
508.20 1.069
508.30 1.069
508.40 1.07
508.50 1.071
508.60 1.072
508.70 1.073
508.80 1.074
508.90 1.074
509.00 1.075
509.10 1.076
509.20 1.077
509.30 1.078
509.40 1.079
509.50 1.079
509.60 1.08
509.70 1.081
509.80 1.082
509.90 1.083
510.00 1.084
510.10 1.084
510.20 1.085
510.30 1.086
510.40 1.087
510.50 1.088
510.60 1.089
510.70 1.089
510.80 1.09
510.90 1.091
511.00 1.092
511.10 1.093
511.20 1.094
511.30 1.094
511.40 1.095
511.50 1.096
511.60 1.097
511.70 1.098
511.80 1.099
511.90 1.099
512.00 1.1
512.10 1.101
512.20 1.102
512.30 1.103
512.40 1.104
512.50 1.104
512.60 1.105
512.70 1.106
512.80 1.107
512.90 1.108
513.00 1.109
513.10 1.109
513.20 1.11
513.30 1.111
513.40 1.112
513.50 1.113
513.60 1.114
513.70 1.114
513.80 1.115
513.90 1.116
514.00 1.117
514.10 1.118
514.20 1.119
514.30 1.119
514.40 1.12
514.50 1.121
514.60 1.122
514.70 1.123
514.80 1.124
514.90 1.124
515.00 1.125
515.10 1.126
515.20 1.127
515.30 1.128
515.40 1.129
515.50 1.129
515.60 1.13
515.70 1.131
515.80 1.132
515.90 1.133
516.00 1.134
516.10 1.134
516.20 1.135
516.30 1.136
516.40 1.137
516.50 1.138
516.60 1.139
516.70 1.139
516.80 1.14
516.90 1.141
517.00 1.142
517.10 1.143
517.20 1.143
517.30 1.144
517.40 1.145
517.50 1.146
517.60 1.147
517.70 1.148
517.80 1.148
517.90 1.149
518.00 1.15
518.10 1.151
518.20 1.152
518.30 1.153
518.40 1.153
518.50 1.154
518.60 1.155
518.70 1.156
518.80 1.157
518.90 1.158
519.00 1.158
519.10 1.159
519.20 1.16
519.30 1.161
519.40 1.162
519.50 1.163
519.60 1.163
519.70 1.164
519.80 1.165
519.90 1.166
520.00 1.167
520.10 1.167
520.20 1.168
520.30 1.169
520.40 1.17
520.50 1.171
520.60 1.172
520.70 1.172
520.80 1.173
520.90 1.174
521.00 1.175
521.10 1.176
521.20 1.177
521.30 1.177
521.40 1.178
521.50 1.179
521.60 1.18
521.70 1.181
521.80 1.181
521.90 1.182
522.00 1.183
522.10 1.184
522.20 1.185
522.30 1.186
522.40 1.186
522.50 1.187
522.60 1.188
522.70 1.189
522.80 1.19
522.90 1.19
523.00 1.191
523.10 1.192
523.20 1.193
523.30 1.194
523.40 1.195
523.50 1.195
523.60 1.196
523.70 1.197
523.80 1.198
523.90 1.199
524.00 1.2
524.10 1.2
524.20 1.201
524.30 1.202
524.40 1.203
524.50 1.204
524.60 1.204
524.70 1.205
524.80 1.206
524.90 1.207
525.00 1.208
525.10 1.208
525.20 1.209
525.30 1.21
525.40 1.211
525.50 1.212
525.60 1.213
525.70 1.213
525.80 1.214
525.90 1.215
526.00 1.216
526.10 1.217
526.20 1.217
526.30 1.218
526.40 1.219
526.50 1.22
526.60 1.221
526.70 1.222
526.80 1.222
526.90 1.223
527.00 1.224
527.10 1.225
527.20 1.226
527.30 1.226
527.40 1.227
527.50 1.228
527.60 1.229
527.70 1.23
527.80 1.23
527.90 1.231
528.00 1.232
528.10 1.233
528.20 1.234
528.30 1.234
528.40 1.235
528.50 1.236
528.60 1.237
528.70 1.238
528.80 1.238
528.90 1.239
529.00 1.24
529.10 1.241
529.20 1.242
529.30 1.242
529.40 1.243
529.50 1.244
529.60 1.245
529.70 1.246
529.80 1.246
529.90 1.247
530.00 1.248
530.10 1.249
530.20 1.25
530.30 1.25
530.40 1.251
530.50 1.252
530.60 1.253
530.70 1.254
530.80 1.254
530.90 1.255
531.00 1.256
531.10 1.257
531.20 1.258
531.30 1.258
531.40 1.259
531.50 1.26
531.60 1.261
531.70 1.262
531.80 1.262
531.90 1.263
532.00 1.264
532.10 1.265
532.20 1.266
532.30 1.266
532.40 1.267
532.50 1.268
532.60 1.269
532.70 1.27
532.80 1.27
532.90 1.271
533.00 1.272
533.10 1.273
533.20 1.274
533.30 1.274
533.40 1.275
533.50 1.276
533.60 1.277
533.70 1.277
533.80 1.278
533.90 1.279
534.00 1.28
534.10 1.281
534.20 1.281
534.30 1.282
534.40 1.283
534.50 1.284
534.60 1.285
534.70 1.285
534.80 1.286
534.90 1.287
535.00 1.288
535.10 1.288
535.20 1.289
535.30 1.29
535.40 1.291
535.50 1.292
535.60 1.292
535.70 1.293
535.80 1.294
535.90 1.295
536.00 1.295
536.10 1.296
536.20 1.297
536.30 1.298
536.40 1.299
536.50 1.299
536.60 1.3
536.70 1.301
536.80 1.302
536.90 1.303
537.00 1.303
537.10 1.304
537.20 1.305
537.30 1.306
537.40 1.306
537.50 1.307
537.60 1.308
537.70 1.309
537.80 1.309
537.90 1.31
538.00 1.311
538.10 1.312
538.20 1.312
538.30 1.313
538.40 1.314
538.50 1.315
538.60 1.316
538.70 1.316
538.80 1.317
538.90 1.318
539.00 1.319
539.10 1.319
539.20 1.32
539.30 1.321
539.40 1.322
539.50 1.322
539.60 1.323
539.70 1.324
539.80 1.325
539.90 1.325
540.00 1.326
540.10 1.327
540.20 1.328
540.30 1.329
540.40 1.329
540.50 1.33
540.60 1.331
540.70 1.332
540.80 1.332
540.90 1.333
541.00 1.334
541.10 1.335
541.20 1.335
541.30 1.336
541.40 1.337
541.50 1.338
541.60 1.338
541.70 1.339
541.80 1.34
541.90 1.341
542.00 1.341
542.10 1.342
542.20 1.343
542.30 1.344
542.40 1.344
542.50 1.345
542.60 1.346
542.70 1.347
542.80 1.347
542.90 1.348
543.00 1.349
543.10 1.349
543.20 1.35
543.30 1.351
543.40 1.352
543.50 1.352
543.60 1.353
543.70 1.354
543.80 1.355
543.90 1.355
544.00 1.356
544.10 1.357
544.20 1.358
544.30 1.358
544.40 1.359
544.50 1.36
544.60 1.36
544.70 1.361
544.80 1.362
544.90 1.363
545.00 1.363
545.10 1.364
545.20 1.365
545.30 1.366
545.40 1.366
545.50 1.367
545.60 1.368
545.70 1.369
545.80 1.369
545.90 1.37
546.00 1.371
546.10 1.371
546.20 1.372
546.30 1.373
546.40 1.374
546.50 1.374
546.60 1.375
546.70 1.376
546.80 1.376
546.90 1.377
547.00 1.378
547.10 1.379
547.20 1.379
547.30 1.38
547.40 1.381
547.50 1.381
547.60 1.382
547.70 1.383
547.80 1.384
547.90 1.384
548.00 1.385
548.10 1.386
548.20 1.386
548.30 1.387
548.40 1.388
548.50 1.389
548.60 1.389
548.70 1.39
548.80 1.391
548.90 1.391
549.00 1.392
549.10 1.393
549.20 1.393
549.30 1.394
549.40 1.395
549.50 1.396
549.60 1.396
549.70 1.397
549.80 1.398
549.90 1.398
550.00 1.399
550.10 1.4
550.20 1.4
550.30 1.401
550.40 1.402
550.50 1.402
550.60 1.403
550.70 1.404
550.80 1.405
550.90 1.405
551.00 1.406
551.10 1.407
551.20 1.407
551.30 1.408
551.40 1.409
551.50 1.409
551.60 1.41
551.70 1.411
551.80 1.411
551.90 1.412
552.00 1.413
552.10 1.413
552.20 1.414
552.30 1.415
552.40 1.415
552.50 1.416
552.60 1.417
552.70 1.417
552.80 1.418
552.90 1.419
553.00 1.419
553.10 1.42
553.20 1.421
553.30 1.421
553.40 1.422
553.50 1.423
553.60 1.423
553.70 1.424
553.80 1.425
553.90 1.425
554.00 1.426
554.10 1.427
554.20 1.427
554.30 1.428
554.40 1.429
554.50 1.429
554.60 1.43
554.70 1.43
554.80 1.431
554.90 1.432
555.00 1.432
555.10 1.433
555.20 1.434
555.30 1.434
555.40 1.435
555.50 1.436
555.60 1.436
555.70 1.437
555.80 1.438
555.90 1.438
556.00 1.439
556.10 1.439
556.20 1.44
556.30 1.441
556.40 1.441
556.50 1.442
556.60 1.443
556.70 1.443
556.80 1.444
556.90 1.444
557.00 1.445
557.10 1.446
557.20 1.446
557.30 1.447
557.40 1.448
557.50 1.448
557.60 1.449
557.70 1.449
557.80 1.45
557.90 1.451
558.00 1.451
558.10 1.452
558.20 1.452
558.30 1.453
558.40 1.454
558.50 1.454
558.60 1.455
558.70 1.455
558.80 1.456
558.90 1.457
559.00 1.457
559.10 1.458
559.20 1.458
559.30 1.459
559.40 1.46
559.50 1.46
559.60 1.461
559.70 1.461
559.80 1.462
559.90 1.463
560.00 1.463
560.10 1.464
560.20 1.464
560.30 1.465
560.40 1.466
560.50 1.466
560.60 1.467
560.70 1.467
560.80 1.468
560.90 1.469
561.00 1.469
561.10 1.47
561.20 1.47
561.30 1.471
561.40 1.471
561.50 1.472
561.60 1.473
561.70 1.473
561.80 1.474
561.90 1.474
562.00 1.475
562.10 1.475
562.20 1.476
562.30 1.477
562.40 1.477
562.50 1.478
562.60 1.478
562.70 1.479
562.80 1.479
562.90 1.48
563.00 1.481
563.10 1.481
563.20 1.482
563.30 1.482
563.40 1.483
563.50 1.483
563.60 1.484
563.70 1.484
563.80 1.485
563.90 1.486
564.00 1.486
564.10 1.487
564.20 1.487
564.30 1.488
564.40 1.488
564.50 1.489
564.60 1.489
564.70 1.49
564.80 1.49
564.90 1.491
565.00 1.492
565.10 1.492
565.20 1.493
565.30 1.493
565.40 1.494
565.50 1.494
565.60 1.495
565.70 1.495
565.80 1.496
565.90 1.496
566.00 1.497
566.10 1.497
566.20 1.498
566.30 1.498
566.40 1.499
566.50 1.499
566.60 1.5
566.70 1.5
566.80 1.501
566.90 1.501
567.00 1.502
567.10 1.502
567.20 1.503
567.30 1.503
567.40 1.504
567.50 1.504
567.60 1.505
567.70 1.505
567.80 1.506
567.90 1.506
568.00 1.507
568.10 1.507
568.20 1.508
568.30 1.508
568.40 1.509
568.50 1.509
568.60 1.509
568.70 1.51
568.80 1.51
568.90 1.511
569.00 1.511
569.10 1.512
569.20 1.512
569.30 1.513
569.40 1.513
569.50 1.514
569.60 1.514
569.70 1.515
569.80 1.515
569.90 1.515
570.00 1.516
570.10 1.516
570.20 1.517
570.30 1.517
570.40 1.518
570.50 1.518
570.60 1.519
570.70 1.519
570.80 1.519
570.90 1.52
571.00 1.52
571.10 1.521
571.20 1.521
571.30 1.522
571.40 1.522
571.50 1.522
571.60 1.523
571.70 1.523
571.80 1.524
571.90 1.524
572.00 1.524
572.10 1.525
572.20 1.525
572.30 1.526
572.40 1.526
572.50 1.526
572.60 1.527
572.70 1.527
572.80 1.528
572.90 1.528
573.00 1.528
573.10 1.529
573.20 1.529
573.30 1.53
573.40 1.53
573.50 1.53
573.60 1.531
573.70 1.531
573.80 1.532
573.90 1.532
574.00 1.532
574.10 1.533
574.20 1.533
574.30 1.533
574.40 1.534
574.50 1.534
574.60 1.535
574.70 1.535
574.80 1.535
574.90 1.536
575.00 1.536
575.10 1.536
575.20 1.537
575.30 1.537
575.40 1.537
575.50 1.538
575.60 1.538
575.70 1.539
575.80 1.539
575.90 1.539
576.00 1.54
576.10 1.54
576.20 1.54
576.30 1.541
576.40 1.541
576.50 1.541
576.60 1.542
576.70 1.542
576.80 1.542
576.90 1.543
577.00 1.543
577.10 1.543
577.20 1.544
577.30 1.544
577.40 1.544
577.50 1.545
577.60 1.545
577.70 1.545
577.80 1.546
577.90 1.546
578.00 1.546
578.10 1.547
578.20 1.547
578.30 1.547
578.40 1.548
578.50 1.548
578.60 1.548
578.70 1.548
578.80 1.549
578.90 1.549
579.00 1.549
579.10 1.55
579.20 1.55
579.30 1.55
579.40 1.551
579.50 1.551
579.60 1.551
579.70 1.552
579.80 1.552
579.90 1.552
580.00 1.552
580.10 1.553
580.20 1.553
580.30 1.553
580.40 1.554
580.50 1.554
580.60 1.554
580.70 1.554
580.80 1.555
580.90 1.555
581.00 1.555
581.10 1.556
581.20 1.556
581.30 1.556
581.40 1.556
581.50 1.557
581.60 1.557
581.70 1.557
581.80 1.557
581.90 1.558
582.00 1.558
582.10 1.558
582.20 1.558
582.30 1.559
582.40 1.559
582.50 1.559
582.60 1.559
582.70 1.56
582.80 1.56
582.90 1.56
583.00 1.56
583.10 1.561
583.20 1.561
583.30 1.561
583.40 1.561
583.50 1.561
583.60 1.562
583.70 1.562
583.80 1.562
583.90 1.562
584.00 1.563
584.10 1.563
584.20 1.563
584.30 1.563
584.40 1.563
584.50 1.564
584.60 1.564
584.70 1.564
584.80 1.564
584.90 1.564
585.00 1.564
585.10 1.565
585.20 1.565
585.30 1.565
585.40 1.565
585.50 1.565
585.60 1.565
585.70 1.566
585.80 1.566
585.90 1.566
586.00 1.566
586.10 1.566
586.20 1.566
586.30 1.567
586.40 1.567
586.50 1.567
586.60 1.567
586.70 1.567
586.80 1.567
586.90 1.567
587.00 1.567
587.10 1.568
587.20 1.568
587.30 1.568
587.40 1.568
587.50 1.568
587.60 1.568
587.70 1.568
587.80 1.568
587.90 1.568
588.00 1.569
588.10 1.569
588.20 1.569
588.30 1.569
588.40 1.569
588.50 1.569
588.60 1.569
588.70 1.569
588.80 1.569
588.90 1.569
589.00 1.569
589.10 1.569
589.20 1.569
589.30 1.57
589.40 1.57
589.50 1.57
589.60 1.57
589.70 1.57
589.80 1.57
589.90 1.57
590.00 1.57
590.10 1.57
590.20 1.57
590.30 1.57
590.40 1.57
590.50 1.57
590.60 1.57
590.70 1.57
590.80 1.57
590.90 1.57
591.00 1.57
591.10 1.57
591.20 1.57
591.30 1.57
591.40 1.57
591.50 1.57
591.60 1.57
591.70 1.57
591.80 1.57
591.90 1.57
592.00 1.57
592.10 1.57
592.20 1.57
592.30 1.57
592.40 1.57
592.50 1.57
592.60 1.57
592.70 1.57
592.80 1.57
592.90 1.57
593.00 1.57
593.10 1.57
593.20 1.57
593.30 1.57
593.40 1.57
593.50 1.57
593.60 1.57
593.70 1.57
593.80 1.57
593.90 1.57
594.00 1.57
594.10 1.57
594.20 1.57
594.30 1.57
594.40 1.57
594.50 1.57
594.60 1.569
594.70 1.569
594.80 1.569
594.90 1.569
595.00 1.569
595.10 1.569
595.20 1.569
595.30 1.569
595.40 1.569
595.50 1.569
595.60 1.569
595.70 1.569
595.80 1.569
595.90 1.568
596.00 1.568
596.10 1.568
596.20 1.568
596.30 1.568
596.40 1.568
596.50 1.568
596.60 1.568
596.70 1.568
596.80 1.568
596.90 1.568
597.00 1.567
597.10 1.567
597.20 1.567
597.30 1.567
597.40 1.567
597.50 1.567
597.60 1.567
597.70 1.567
597.80 1.566
597.90 1.566
598.00 1.566
598.10 1.566
598.20 1.566
598.30 1.566
598.40 1.566
598.50 1.565
598.60 1.565
598.70 1.565
598.80 1.565
598.90 1.565
599.00 1.565
599.10 1.565
599.20 1.564
599.30 1.564
599.40 1.564
599.50 1.564
599.60 1.564
599.70 1.563
599.80 1.563
599.90 1.563
600.00 1.563
600.10 1.563
600.20 1.562
600.30 1.562
600.40 1.562
600.50 1.562
600.60 1.562
600.70 1.561
600.80 1.561
600.90 1.561
601.00 1.561
601.10 1.561
601.20 1.56
601.30 1.56
601.40 1.56
601.50 1.56
601.60 1.559
601.70 1.559
601.80 1.559
601.90 1.559
602.00 1.558
602.10 1.558
602.20 1.558
602.30 1.558
602.40 1.557
602.50 1.557
602.60 1.557
602.70 1.557
602.80 1.556
602.90 1.556
603.00 1.556
603.10 1.555
603.20 1.555
603.30 1.555
603.40 1.555
603.50 1.554
603.60 1.554
603.70 1.554
603.80 1.553
603.90 1.553
604.00 1.553
604.10 1.553
604.20 1.552
604.30 1.552
604.40 1.552
604.50 1.551
604.60 1.551
604.70 1.551
604.80 1.55
604.90 1.55
605.00 1.55
605.10 1.549
605.20 1.549
605.30 1.549
605.40 1.548
605.50 1.548
605.60 1.548
605.70 1.547
605.80 1.547
605.90 1.546
606.00 1.546
606.10 1.546
606.20 1.545
606.30 1.545
606.40 1.545
606.50 1.544
606.60 1.544
606.70 1.543
606.80 1.543
606.90 1.543
607.00 1.542
607.10 1.542
607.20 1.542
607.30 1.541
607.40 1.541
607.50 1.54
607.60 1.54
607.70 1.54
607.80 1.539
607.90 1.539
608.00 1.538
608.10 1.538
608.20 1.538
608.30 1.537
608.40 1.537
608.50 1.536
608.60 1.536
608.70 1.535
608.80 1.535
608.90 1.534
609.00 1.534
609.10 1.534
609.20 1.533
609.30 1.533
609.40 1.532
609.50 1.532
609.60 1.531
609.70 1.531
609.80 1.53
609.90 1.53
610.00 1.529
610.10 1.529
610.20 1.528
610.30 1.528
610.40 1.527
610.50 1.527
610.60 1.526
610.70 1.526
610.80 1.525
610.90 1.525
611.00 1.524
611.10 1.524
611.20 1.523
611.30 1.523
611.40 1.522
611.50 1.522
611.60 1.521
611.70 1.521
611.80 1.52
611.90 1.52
612.00 1.519
612.10 1.519
612.20 1.518
612.30 1.518
612.40 1.517
612.50 1.517
612.60 1.516
612.70 1.515
612.80 1.515
612.90 1.514
613.00 1.514
613.10 1.513
613.20 1.513
613.30 1.512
613.40 1.511
613.50 1.511
613.60 1.51
613.70 1.51
613.80 1.509
613.90 1.509
614.00 1.508
614.10 1.507
614.20 1.507
614.30 1.506
614.40 1.506
614.50 1.505
614.60 1.504
614.70 1.504
614.80 1.503
614.90 1.502
615.00 1.502
615.10 1.501
615.20 1.501
615.30 1.5
615.40 1.499
615.50 1.499
615.60 1.498
615.70 1.497
615.80 1.497
615.90 1.496
616.00 1.495
616.10 1.495
616.20 1.494
616.30 1.493
616.40 1.493
616.50 1.492
616.60 1.491
616.70 1.49
616.80 1.49
616.90 1.489
617.00 1.488
617.10 1.488
617.20 1.487
617.30 1.486
617.40 1.486
617.50 1.485
617.60 1.484
617.70 1.484
617.80 1.483
617.90 1.482
618.00 1.481
618.10 1.481
618.20 1.48
618.30 1.479
618.40 1.478
618.50 1.478
618.60 1.477
618.70 1.476
618.80 1.476
618.90 1.475
619.00 1.474
619.10 1.473
619.20 1.473
619.30 1.472
619.40 1.471
619.50 1.47
619.60 1.469
619.70 1.469
619.80 1.468
619.90 1.467
620.00 1.466
620.10 1.466
620.20 1.465
620.30 1.464
620.40 1.463
620.50 1.462
620.60 1.462
620.70 1.461
620.80 1.46
620.90 1.459
621.00 1.459
621.10 1.458
621.20 1.457
621.30 1.456
621.40 1.455
621.50 1.455
621.60 1.454
621.70 1.453
621.80 1.452
621.90 1.451
622.00 1.45
622.10 1.45
622.20 1.449
622.30 1.448
622.40 1.447
622.50 1.446
622.60 1.446
622.70 1.445
622.80 1.444
622.90 1.443
623.00 1.442
623.10 1.442
623.20 1.441
623.30 1.44
623.40 1.439
623.50 1.438
623.60 1.437
623.70 1.436
623.80 1.436
623.90 1.435
624.00 1.434
624.10 1.433
624.20 1.432
624.30 1.431
624.40 1.43
624.50 1.429
624.60 1.429
624.70 1.428
624.80 1.427
624.90 1.426
625.00 1.425
625.10 1.424
625.20 1.423
625.30 1.422
625.40 1.421
625.50 1.421
625.60 1.42
625.70 1.419
625.80 1.418
625.90 1.417
626.00 1.416
626.10 1.415
626.20 1.414
626.30 1.413
626.40 1.412
626.50 1.411
626.60 1.41
626.70 1.409
626.80 1.408
626.90 1.408
627.00 1.407
627.10 1.406
627.20 1.405
627.30 1.404
627.40 1.403
627.50 1.402
627.60 1.401
627.70 1.4
627.80 1.399
627.90 1.398
628.00 1.397
628.10 1.396
628.20 1.395
628.30 1.394
628.40 1.393
628.50 1.392
628.60 1.391
628.70 1.39
628.80 1.389
628.90 1.388
629.00 1.387
629.10 1.386
629.20 1.385
629.30 1.384
629.40 1.383
629.50 1.382
629.60 1.381
629.70 1.38
629.80 1.379
629.90 1.378
630.00 1.377
630.10 1.376
630.20 1.375
630.30 1.374
630.40 1.373
630.50 1.372
630.60 1.371
630.70 1.37
630.80 1.369
630.90 1.368
631.00 1.367
631.10 1.366
631.20 1.365
631.30 1.364
631.40 1.363
631.50 1.362
631.60 1.361
631.70 1.36
631.80 1.358
631.90 1.357
632.00 1.356
632.10 1.355
632.20 1.354
632.30 1.353
632.40 1.352
632.50 1.351
632.60 1.35
632.70 1.349
632.80 1.348
632.90 1.347
633.00 1.346
633.10 1.345
633.20 1.343
633.30 1.342
633.40 1.341
633.50 1.34
633.60 1.339
633.70 1.338
633.80 1.337
633.90 1.336
634.00 1.335
634.10 1.334
634.20 1.332
634.30 1.331
634.40 1.33
634.50 1.329
634.60 1.328
634.70 1.327
634.80 1.326
634.90 1.325
635.00 1.323
635.10 1.322
635.20 1.321
635.30 1.32
635.40 1.319
635.50 1.318
635.60 1.317
635.70 1.315
635.80 1.314
635.90 1.313
636.00 1.312
636.10 1.311
636.20 1.31
636.30 1.309
636.40 1.307
636.50 1.306
636.60 1.305
636.70 1.304
636.80 1.303
636.90 1.302
637.00 1.3
637.10 1.299
637.20 1.298
637.30 1.297
637.40 1.296
637.50 1.295
637.60 1.293
637.70 1.292
637.80 1.291
637.90 1.29
638.00 1.289
638.10 1.287
638.20 1.286
638.30 1.285
638.40 1.284
638.50 1.283
638.60 1.282
638.70 1.28
638.80 1.279
638.90 1.278
639.00 1.277
639.10 1.276
639.20 1.274
639.30 1.273
639.40 1.272
639.50 1.271
639.60 1.27
639.70 1.268
639.80 1.267
639.90 1.266
640.00 1.265
640.10 1.263
640.20 1.262
640.30 1.261
640.40 1.26
640.50 1.258
640.60 1.257
640.70 1.256
640.80 1.255
640.90 1.253
641.00 1.252
641.10 1.251
641.20 1.25
641.30 1.248
641.40 1.247
641.50 1.246
641.60 1.245
641.70 1.243
641.80 1.242
641.90 1.241
642.00 1.239
642.10 1.238
642.20 1.237
642.30 1.236
642.40 1.234
642.50 1.233
642.60 1.232
642.70 1.23
642.80 1.229
642.90 1.228
643.00 1.226
643.10 1.225
643.20 1.224
643.30 1.222
643.40 1.221
643.50 1.22
643.60 1.218
643.70 1.217
643.80 1.216
643.90 1.214
644.00 1.213
644.10 1.212
644.20 1.21
644.30 1.209
644.40 1.208
644.50 1.206
644.60 1.205
644.70 1.204
644.80 1.202
644.90 1.201
645.00 1.2
645.10 1.198
645.20 1.197
645.30 1.196
645.40 1.194
645.50 1.193
645.60 1.192
645.70 1.19
645.80 1.189
645.90 1.188
646.00 1.186
646.10 1.185
646.20 1.184
646.30 1.182
646.40 1.181
646.50 1.179
646.60 1.178
646.70 1.177
646.80 1.175
646.90 1.174
647.00 1.173
647.10 1.171
647.20 1.17
647.30 1.169
647.40 1.167
647.50 1.166
647.60 1.165
647.70 1.163
647.80 1.162
647.90 1.161
648.00 1.159
648.10 1.158
648.20 1.156
648.30 1.155
648.40 1.154
648.50 1.152
648.60 1.151
648.70 1.149
648.80 1.148
648.90 1.147
649.00 1.145
649.10 1.144
649.20 1.143
649.30 1.141
649.40 1.14
649.50 1.138
649.60 1.137
649.70 1.136
649.80 1.134
649.90 1.133
650.00 1.131
650.10 1.13
650.20 1.129
650.30 1.127
650.40 1.126
650.50 1.124
650.60 1.123
650.70 1.121
650.80 1.12
650.90 1.119
651.00 1.117
651.10 1.116
651.20 1.114
651.30 1.113
651.40 1.112
651.50 1.11
651.60 1.109
651.70 1.107
651.80 1.106
651.90 1.104
652.00 1.103
652.10 1.102
652.20 1.1
652.30 1.099
652.40 1.097
652.50 1.096
652.60 1.094
652.70 1.093
652.80 1.092
652.90 1.09
653.00 1.089
653.10 1.087
653.20 1.086
653.30 1.084
653.40 1.083
653.50 1.081
653.60 1.08
653.70 1.079
653.80 1.077
653.90 1.076
654.00 1.074
654.10 1.073
654.20 1.071
654.30 1.07
654.40 1.068
654.50 1.067
654.60 1.065
654.70 1.064
654.80 1.063
654.90 1.061
655.00 1.06
655.10 1.058
655.20 1.057
655.30 1.055
655.40 1.054
655.50 1.052
655.60 1.051
655.70 1.049
655.80 1.048
655.90 1.047
656.00 1.045
656.10 1.044
656.20 1.042
656.30 1.041
656.40 1.039
656.50 1.038
656.60 1.036
656.70 1.035
656.80 1.033
656.90 1.032
657.00 1.03
657.10 1.029
657.20 1.027
657.30 1.026
657.40 1.024
657.50 1.023
657.60 1.021
657.70 1.02
657.80 1.019
657.90 1.017
658.00 1.016
658.10 1.014
658.20 1.013
658.30 1.011
658.40 1.01
658.50 1.008
658.60 1.007
658.70 1.005
658.80 1.004
658.90 1.002
659.00 1.001
659.10 0.9992
659.20 0.9977
659.30 0.9962
659.40 0.9948
659.50 0.9933
659.60 0.9918
659.70 0.9903
659.80 0.9888
659.90 0.9873
660.00 0.9859
660.10 0.9844
660.20 0.9829
660.30 0.9814
660.40 0.9799
660.50 0.9784
660.60 0.9769
660.70 0.9754
660.80 0.9739
660.90 0.9724
661.00 0.9709
661.10 0.9694
661.20 0.9679
661.30 0.9664
661.40 0.9649
661.50 0.9634
661.60 0.9619
661.70 0.9604
661.80 0.9589
661.90 0.9574
662.00 0.9559
662.10 0.9544
662.20 0.9529
662.30 0.9514
662.40 0.9499
662.50 0.9484
662.60 0.9469
662.70 0.9454
662.80 0.9439
662.90 0.9424
663.00 0.9409
663.10 0.9394
663.20 0.9379
663.30 0.9364
663.40 0.9349
663.50 0.9333
663.60 0.9318
663.70 0.9303
663.80 0.9288
663.90 0.9273
664.00 0.9258
664.10 0.9243
664.20 0.9228
664.30 0.9213
664.40 0.9198
664.50 0.9182
664.60 0.9167
664.70 0.9152
664.80 0.9137
664.90 0.9122
665.00 0.9107
665.10 0.9092
665.20 0.9077
665.30 0.9062
665.40 0.9047
665.50 0.9032
665.60 0.9017
665.70 0.9002
665.80 0.8987
665.90 0.8971
666.00 0.8956
666.10 0.8941
666.20 0.8926
666.30 0.8911
666.40 0.8896
666.50 0.8881
666.60 0.8866
666.70 0.8851
666.80 0.8835
666.90 0.882
667.00 0.8805
667.10 0.879
667.20 0.8775
667.30 0.876
667.40 0.8745
667.50 0.873
667.60 0.8715
667.70 0.87
667.80 0.8685
667.90 0.8669
668.00 0.8654
668.10 0.8639
668.20 0.8624
668.30 0.8609
668.40 0.8594
668.50 0.8579
668.60 0.8564
668.70 0.8549
668.80 0.8533
668.90 0.8518
669.00 0.8503
669.10 0.8488
669.20 0.8473
669.30 0.8458
669.40 0.8443
669.50 0.8428
669.60 0.8413
669.70 0.8398
669.80 0.8383
669.90 0.8368
670.00 0.8353
670.10 0.8338
670.20 0.8323
670.30 0.8308
670.40 0.8293
670.50 0.8278
670.60 0.8263
670.70 0.8248
670.80 0.8233
670.90 0.8218
671.00 0.8203
671.10 0.8188
671.20 0.8173
671.30 0.8158
671.40 0.8143
671.50 0.8127
671.60 0.8112
671.70 0.8097
671.80 0.8082
671.90 0.8067
672.00 0.8052
672.10 0.8037
672.20 0.8022
672.30 0.8007
672.40 0.7992
672.50 0.7977
672.60 0.7962
672.70 0.7947
672.80 0.7933
672.90 0.7918
673.00 0.7903
673.10 0.7888
673.20 0.7873
673.30 0.7858
673.40 0.7843
673.50 0.7828
673.60 0.7813
673.70 0.7798
673.80 0.7783
673.90 0.7768
674.00 0.7754
674.10 0.7739
674.20 0.7724
674.30 0.7709
674.40 0.7694
674.50 0.7679
674.60 0.7664
674.70 0.765
674.80 0.7635
674.90 0.762
675.00 0.7605
675.10 0.759
675.20 0.7576
675.30 0.7561
675.40 0.7546
675.50 0.7531
675.60 0.7517
675.70 0.7502
675.80 0.7487
675.90 0.7472
676.00 0.7458
676.10 0.7443
676.20 0.7428
676.30 0.7413
676.40 0.7399
676.50 0.7384
676.60 0.7369
676.70 0.7355
676.80 0.734
676.90 0.7325
677.00 0.7311
677.10 0.7296
677.20 0.7282
677.30 0.7267
677.40 0.7253
677.50 0.7238
677.60 0.7223
677.70 0.7209
677.80 0.7194
677.90 0.718
678.00 0.7165
678.10 0.7151
678.20 0.7136
678.30 0.7122
678.40 0.7107
678.50 0.7093
678.60 0.7078
678.70 0.7064
678.80 0.7049
678.90 0.7035
679.00 0.702
679.10 0.7006
679.20 0.6992
679.30 0.6977
679.40 0.6963
679.50 0.6948
679.60 0.6934
679.70 0.6919
679.80 0.6905
679.90 0.689
680.00 0.6876
680.10 0.6862
680.20 0.6847
680.30 0.6833
680.40 0.6818
680.50 0.6804
680.60 0.679
680.70 0.6776
680.80 0.6761
680.90 0.6747
681.00 0.6733
681.10 0.6718
681.20 0.6704
681.30 0.669
681.40 0.6676
681.50 0.6661
681.60 0.6647
681.70 0.6633
681.80 0.6619
681.90 0.6605
682.00 0.659
682.10 0.6576
682.20 0.6562
682.30 0.6548
682.40 0.6534
682.50 0.6519
682.60 0.6505
682.70 0.6491
682.80 0.6477
682.90 0.6463
683.00 0.6449
683.10 0.6435
683.20 0.6421
683.30 0.6406
683.40 0.6392
683.50 0.6378
683.60 0.6364
683.70 0.635
683.80 0.6336
683.90 0.6322
684.00 0.6308
684.10 0.6295
684.20 0.6281
684.30 0.6267
684.40 0.6253
684.50 0.6239
684.60 0.6225
684.70 0.6211
684.80 0.6197
684.90 0.6183
685.00 0.617
685.10 0.6156
685.20 0.6142
685.30 0.6128
685.40 0.6114
685.50 0.6101
685.60 0.6087
685.70 0.6073
685.80 0.6059
685.90 0.6046
686.00 0.6032
686.10 0.6018
686.20 0.6005
686.30 0.5991
686.40 0.5977
686.50 0.5964
686.60 0.595
686.70 0.5937
686.80 0.5923
686.90 0.5909
687.00 0.5896
687.10 0.5882
687.20 0.5869
687.30 0.5855
687.40 0.5842
687.50 0.5828
687.60 0.5815
687.70 0.5801
687.80 0.5788
687.90 0.5775
688.00 0.5761
688.10 0.5748
688.20 0.5734
688.30 0.5721
688.40 0.5708
688.50 0.5694
688.60 0.5681
688.70 0.5668
688.80 0.5654
688.90 0.5641
689.00 0.5628
689.10 0.5614
689.20 0.5601
689.30 0.5588
689.40 0.5575
689.50 0.5562
689.60 0.5549
689.70 0.5536
689.80 0.5523
689.90 0.551
690.00 0.5497
690.10 0.5484
690.20 0.5471
690.30 0.5459
690.40 0.5446
690.50 0.5433
690.60 0.542
690.70 0.5407
690.80 0.5394
690.90 0.5381
691.00 0.5368
691.10 0.5356
691.20 0.5343
691.30 0.533
691.40 0.5317
691.50 0.5304
691.60 0.5291
691.70 0.5279
691.80 0.5266
691.90 0.5253
692.00 0.524
692.10 0.5227
692.20 0.5215
692.30 0.5202
692.40 0.5189
692.50 0.5176
692.60 0.5164
692.70 0.5151
692.80 0.5138
692.90 0.5126
693.00 0.5113
693.10 0.51
693.20 0.5087
693.30 0.5075
693.40 0.5062
693.50 0.5049
693.60 0.5037
693.70 0.5024
693.80 0.5011
693.90 0.4999
694.00 0.4986
694.10 0.4973
694.20 0.4961
694.30 0.4948
694.40 0.4936
694.50 0.4923
694.60 0.491
694.70 0.4898
694.80 0.4885
694.90 0.4873
695.00 0.486
695.10 0.4848
695.20 0.4836
695.30 0.4824
695.40 0.4812
695.50 0.48
695.60 0.4788
695.70 0.4777
695.80 0.4765
695.90 0.4753
696.00 0.4741
696.10 0.4729
696.20 0.4717
696.30 0.4705
696.40 0.4693
696.50 0.4682
696.60 0.467
696.70 0.4658
696.80 0.4646
696.90 0.4634
697.00 0.4622
697.10 0.4611
697.20 0.4599
697.30 0.4587
697.40 0.4575
697.50 0.4563
697.60 0.4552
697.70 0.454
697.80 0.4528
697.90 0.4516
698.00 0.4505
698.10 0.4493
698.20 0.4481
698.30 0.4469
698.40 0.4458
698.50 0.4446
698.60 0.4434
698.70 0.4422
698.80 0.4411
698.90 0.4399
699.00 0.4387
699.10 0.4376
699.20 0.4364
699.30 0.4352
699.40 0.4341
699.50 0.4329
699.60 0.4317
699.70 0.4306
699.80 0.4294
699.90 0.4282
700.00 0.4271
700.10 0.426
700.20 0.4249
700.30 0.4238
700.40 0.4227
700.50 0.4216
700.60 0.4205
700.70 0.4195
700.80 0.4184
700.90 0.4173
701.00 0.4162
701.10 0.4151
701.20 0.414
701.30 0.4129
701.40 0.4118
701.50 0.4108
701.60 0.4097
701.70 0.4086
701.80 0.4075
701.90 0.4064
702.00 0.4054
702.10 0.4043
702.20 0.4032
702.30 0.4021
702.40 0.401
702.50 0.4
702.60 0.3989
702.70 0.3978
702.80 0.3967
702.90 0.3957
703.00 0.3946
703.10 0.3935
703.20 0.3924
703.30 0.3914
703.40 0.3903
703.50 0.3892
703.60 0.3881
703.70 0.3871
703.80 0.386
703.90 0.3849
704.00 0.3839
704.10 0.3828
704.20 0.3817
704.30 0.3807
704.40 0.3796
704.50 0.3785
704.60 0.3775
704.70 0.3764
704.80 0.3753
704.90 0.3743
705.00 0.3732
705.10 0.3722
705.20 0.3713
705.30 0.3703
705.40 0.3693
705.50 0.3683
705.60 0.3674
705.70 0.3664
705.80 0.3654
705.90 0.3644
706.00 0.3635
706.10 0.3625
706.20 0.3615
706.30 0.3605
706.40 0.3596
706.50 0.3586
706.60 0.3576
706.70 0.3567
706.80 0.3557
706.90 0.3547
707.00 0.3538
707.10 0.3528
707.20 0.3518
707.30 0.3509
707.40 0.3499
707.50 0.3489
707.60 0.348
707.70 0.347
707.80 0.346
707.90 0.3451
708.00 0.3441
708.10 0.3432
708.20 0.3422
708.30 0.3412
708.40 0.3403
708.50 0.3393
708.60 0.3384
708.70 0.3374
708.80 0.3365
708.90 0.3355
709.00 0.3345
709.10 0.3336
709.20 0.3326
709.30 0.3317
709.40 0.3307
709.50 0.3298
709.60 0.3288
709.70 0.3279
709.80 0.3269
709.90 0.326
710.00 0.325
710.10 0.3241
710.20 0.3233
710.30 0.3224
710.40 0.3216
710.50 0.3207
710.60 0.3198
710.70 0.319
710.80 0.3181
710.90 0.3173
711.00 0.3164
711.10 0.3155
711.20 0.3147
711.30 0.3138
711.40 0.313
711.50 0.3121
711.60 0.3113
711.70 0.3104
711.80 0.3095
711.90 0.3087
712.00 0.3078
712.10 0.307
712.20 0.3061
712.30 0.3053
712.40 0.3044
712.50 0.3036
712.60 0.3027
712.70 0.3019
712.80 0.301
712.90 0.3002
713.00 0.2993
713.10 0.2985
713.20 0.2976
713.30 0.2968
713.40 0.2959
713.50 0.2951
713.60 0.2942
713.70 0.2934
713.80 0.2925
713.90 0.2917
714.00 0.2909
714.10 0.29
714.20 0.2892
714.30 0.2883
714.40 0.2875
714.50 0.2866
714.60 0.2858
714.70 0.285
714.80 0.2841
714.90 0.2833
715.00 0.2824
715.10 0.2817
715.20 0.2809
715.30 0.2802
715.40 0.2794
715.50 0.2787
715.60 0.278
715.70 0.2772
715.80 0.2765
715.90 0.2757
716.00 0.275
716.10 0.2742
716.20 0.2735
716.30 0.2727
716.40 0.272
716.50 0.2713
716.60 0.2705
716.70 0.2698
716.80 0.269
716.90 0.2683
717.00 0.2676
717.10 0.2668
717.20 0.2661
717.30 0.2653
717.40 0.2646
717.50 0.2639
717.60 0.2631
717.70 0.2624
717.80 0.2616
717.90 0.2609
718.00 0.2602
718.10 0.2594
718.20 0.2587
718.30 0.258
718.40 0.2572
718.50 0.2565
718.60 0.2558
718.70 0.255
718.80 0.2543
718.90 0.2536
719.00 0.2528
719.10 0.2521
719.20 0.2514
719.30 0.2506
719.40 0.2499
719.50 0.2492
719.60 0.2484
719.70 0.2477
719.80 0.247
719.90 0.2463
720.00 0.2455
720.10 0.2449
720.20 0.2443
720.30 0.2436
720.40 0.243
720.50 0.2424
720.60 0.2417
720.70 0.2411
720.80 0.2405
720.90 0.2398
721.00 0.2392
721.10 0.2386
721.20 0.2379
721.30 0.2373
721.40 0.2367
721.50 0.236
721.60 0.2354
721.70 0.2348
721.80 0.2341
721.90 0.2335
722.00 0.2329
722.10 0.2323
722.20 0.2316
722.30 0.231
722.40 0.2304
722.50 0.2297
722.60 0.2291
722.70 0.2285
722.80 0.2279
722.90 0.2272
723.00 0.2266
723.10 0.226
723.20 0.2254
723.30 0.2247
723.40 0.2241
723.50 0.2235
723.60 0.2229
723.70 0.2222
723.80 0.2216
723.90 0.221
724.00 0.2204
724.10 0.2198
724.20 0.2191
724.30 0.2185
724.40 0.2179
724.50 0.2173
724.60 0.2166
724.70 0.216
724.80 0.2154
724.90 0.2148
725.00 0.2142
725.10 0.2136
725.20 0.2131
725.30 0.2126
725.40 0.212
725.50 0.2115
725.60 0.211
725.70 0.2105
725.80 0.2099
725.90 0.2094
726.00 0.2089
726.10 0.2083
726.20 0.2078
726.30 0.2073
726.40 0.2067
726.50 0.2062
726.60 0.2057
726.70 0.2052
726.80 0.2046
726.90 0.2041
727.00 0.2036
727.10 0.2031
727.20 0.2025
727.30 0.202
727.40 0.2015
727.50 0.201
727.60 0.2004
727.70 0.1999
727.80 0.1994
727.90 0.1989
728.00 0.1983
728.10 0.1978
728.20 0.1973
728.30 0.1968
728.40 0.1962
728.50 0.1957
728.60 0.1952
728.70 0.1947
728.80 0.1942
728.90 0.1936
729.00 0.1931
729.10 0.1926
729.20 0.1921
729.30 0.1916
729.40 0.191
729.50 0.1905
729.60 0.19
729.70 0.1895
729.80 0.189
729.90 0.1884
730.00 0.1879
730.10 0.1875
730.20 0.1872
730.30 0.1868
730.40 0.1864
730.50 0.186
730.60 0.1856
730.70 0.1853
730.80 0.1849
730.90 0.1845
731.00 0.1841
731.10 0.1838
731.20 0.1834
731.30 0.183
731.40 0.1826
731.50 0.1823
731.60 0.1819
731.70 0.1815
731.80 0.1811
731.90 0.1807
732.00 0.1804
732.10 0.18
732.20 0.1796
732.30 0.1792
732.40 0.1789
732.50 0.1785
732.60 0.1781
732.70 0.1777
732.80 0.1774
732.90 0.177
733.00 0.1766
733.10 0.1763
733.20 0.1759
733.30 0.1755
733.40 0.1751
733.50 0.1748
733.60 0.1744
733.70 0.174
733.80 0.1736
733.90 0.1733
734.00 0.1729
734.10 0.1725
734.20 0.1722
734.30 0.1718
734.40 0.1714
734.50 0.171
734.60 0.1707
734.70 0.1703
734.80 0.1699
734.90 0.1696
735.00 0.1692
735.10 0.1688
735.20 0.1685
735.30 0.1681
735.40 0.1677
735.50 0.1674
735.60 0.167
735.70 0.1666
735.80 0.1663
735.90 0.1659
736.00 0.1655
736.10 0.1651
736.20 0.1648
736.30 0.1644
736.40 0.164
736.50 0.1637
736.60 0.1633
736.70 0.1629
736.80 0.1626
736.90 0.1622
737.00 0.1618
737.10 0.1615
737.20 0.1611
737.30 0.1608
737.40 0.1604
737.50 0.16
737.60 0.1597
737.70 0.1593
737.80 0.1589
737.90 0.1586
738.00 0.1582
738.10 0.1578
738.20 0.1575
738.30 0.1571
738.40 0.1567
738.50 0.1564
738.60 0.156
738.70 0.1557
738.80 0.1553
738.90 0.1549
739.00 0.1546
739.10 0.1542
739.20 0.1539
739.30 0.1535
739.40 0.1531
739.50 0.1528
739.60 0.1524
739.70 0.152
739.80 0.1517
739.90 0.1513
740.00 0.151
740.10 0.1507
740.20 0.1505
740.30 0.1503
740.40 0.1501
740.50 0.1498
740.60 0.1496
740.70 0.1494
740.80 0.1492
740.90 0.149
741.00 0.1487
741.10 0.1485
741.20 0.1483
741.30 0.1481
741.40 0.1478
741.50 0.1476
741.60 0.1474
741.70 0.1472
741.80 0.147
741.90 0.1467
742.00 0.1465
742.10 0.1463
742.20 0.1461
742.30 0.1458
742.40 0.1456
742.50 0.1454
742.60 0.1452
742.70 0.145
742.80 0.1447
742.90 0.1445
743.00 0.1443
743.10 0.1441
743.20 0.1439
743.30 0.1436
743.40 0.1434
743.50 0.1432
743.60 0.143
743.70 0.1428
743.80 0.1425
743.90 0.1423
744.00 0.1421
744.10 0.1419
744.20 0.1417
744.30 0.1414
744.40 0.1412
744.50 0.141
744.60 0.1408
744.70 0.1406
744.80 0.1404
744.90 0.1401
745.00 0.1399
745.10 0.1397
745.20 0.1395
745.30 0.1393
745.40 0.139
745.50 0.1388
745.60 0.1386
745.70 0.1384
745.80 0.1382
745.90 0.138
746.00 0.1377
746.10 0.1375
746.20 0.1373
746.30 0.1371
746.40 0.1369
746.50 0.1367
746.60 0.1364
746.70 0.1362
746.80 0.136
746.90 0.1358
747.00 0.1356
747.10 0.1354
747.20 0.1351
747.30 0.1349
747.40 0.1347
747.50 0.1345
747.60 0.1343
747.70 0.1341
747.80 0.1339
747.90 0.1336
748.00 0.1334
748.10 0.1332
748.20 0.133
748.30 0.1328
748.40 0.1326
748.50 0.1324
748.60 0.1321
748.70 0.1319
748.80 0.1317
748.90 0.1315
749.00 0.1313
749.10 0.1311
749.20 0.1309
749.30 0.1306
749.40 0.1304
749.50 0.1302
749.60 0.13
749.70 0.1298
749.80 0.1296
749.90 0.1294
750.00 0.1292
750.10 0.129
750.20 0.1289
750.30 0.1288
750.40 0.1286
750.50 0.1285
750.60 0.1284
750.70 0.1282
750.80 0.1281
750.90 0.128
751.00 0.1278
751.10 0.1277
751.20 0.1276
751.30 0.1274
751.40 0.1273
751.50 0.1272
751.60 0.127
751.70 0.1269
751.80 0.1268
751.90 0.1266
752.00 0.1265
752.10 0.1264
752.20 0.1262
752.30 0.1261
752.40 0.126
752.50 0.1259
752.60 0.1257
752.70 0.1256
752.80 0.1255
752.90 0.1253
753.00 0.1252
753.10 0.1251
753.20 0.1249
753.30 0.1248
753.40 0.1247
753.50 0.1245
753.60 0.1244
753.70 0.1243
753.80 0.1242
753.90 0.124
754.00 0.1239
754.10 0.1238
754.20 0.1236
754.30 0.1235
754.40 0.1234
754.50 0.1232
754.60 0.1231
754.70 0.123
754.80 0.1229
754.90 0.1227
755.00 0.1226
755.10 0.1225
755.20 0.1223
755.30 0.1222
755.40 0.1221
755.50 0.122
755.60 0.1218
755.70 0.1217
755.80 0.1216
755.90 0.1214
756.00 0.1213
756.10 0.1212
756.20 0.1211
756.30 0.1209
756.40 0.1208
756.50 0.1207
756.60 0.1205
756.70 0.1204
756.80 0.1203
756.90 0.1202
757.00 0.12
757.10 0.1199
757.20 0.1198
757.30 0.1196
757.40 0.1195
757.50 0.1194
757.60 0.1193
757.70 0.1191
757.80 0.119
757.90 0.1189
758.00 0.1187
758.10 0.1186
758.20 0.1185
758.30 0.1184
758.40 0.1182
758.50 0.1181
758.60 0.118
758.70 0.1179
758.80 0.1177
758.90 0.1176
759.00 0.1175
759.10 0.1174
759.20 0.1172
759.30 0.1171
759.40 0.117
759.50 0.1168
759.60 0.1167
759.70 0.1166
759.80 0.1165
759.90 0.1163
760.00 0.1162
760.10 0.1161
760.20 0.1161
760.30 0.116
760.40 0.1159
760.50 0.1158
760.60 0.1157
760.70 0.1157
760.80 0.1156
760.90 0.1155
761.00 0.1154
761.10 0.1153
761.20 0.1153
761.30 0.1152
761.40 0.1151
761.50 0.115
761.60 0.1149
761.70 0.1149
761.80 0.1148
761.90 0.1147
762.00 0.1146
762.10 0.1145
762.20 0.1145
762.30 0.1144
762.40 0.1143
762.50 0.1142
762.60 0.1141
762.70 0.1141
762.80 0.114
762.90 0.1139
763.00 0.1138
763.10 0.1137
763.20 0.1137
763.30 0.1136
763.40 0.1135
763.50 0.1134
763.60 0.1133
763.70 0.1133
763.80 0.1132
763.90 0.1131
764.00 0.113
764.10 0.113
764.20 0.1129
764.30 0.1128
764.40 0.1127
764.50 0.1126
764.60 0.1126
764.70 0.1125
764.80 0.1124
764.90 0.1123
765.00 0.1122
765.10 0.1122
765.20 0.1121
765.30 0.112
765.40 0.1119
765.50 0.1119
765.60 0.1118
765.70 0.1117
765.80 0.1116
765.90 0.1115
766.00 0.1115
766.10 0.1114
766.20 0.1113
766.30 0.1112
766.40 0.1112
766.50 0.1111
766.60 0.111
766.70 0.1109
766.80 0.1108
766.90 0.1108
767.00 0.1107
767.10 0.1106
767.20 0.1105
767.30 0.1105
767.40 0.1104
767.50 0.1103
767.60 0.1102
767.70 0.1101
767.80 0.1101
767.90 0.11
768.00 0.1099
768.10 0.1098
768.20 0.1098
768.30 0.1097
768.40 0.1096
768.50 0.1095
768.60 0.1094
768.70 0.1094
768.80 0.1093
768.90 0.1092
769.00 0.1091
769.10 0.1091
769.20 0.109
769.30 0.1089
769.40 0.1088
769.50 0.1088
769.60 0.1087
769.70 0.1086
769.80 0.1085
769.90 0.1084
770.00 0.1084
770.10 0.1083
770.20 0.1083
770.30 0.1083
770.40 0.1082
770.50 0.1082
770.60 0.1081
770.70 0.1081
770.80 0.1081
770.90 0.108
771.00 0.108
771.10 0.1079
771.20 0.1079
771.30 0.1079
771.40 0.1078
771.50 0.1078
771.60 0.1077
771.70 0.1077
771.80 0.1077
771.90 0.1076
772.00 0.1076
772.10 0.1075
772.20 0.1075
772.30 0.1075
772.40 0.1074
772.50 0.1074
772.60 0.1074
772.70 0.1073
772.80 0.1073
772.90 0.1072
773.00 0.1072
773.10 0.1072
773.20 0.1071
773.30 0.1071
773.40 0.107
773.50 0.107
773.60 0.107
773.70 0.1069
773.80 0.1069
773.90 0.1069
774.00 0.1068
774.10 0.1068
774.20 0.1067
774.30 0.1067
774.40 0.1067
774.50 0.1066
774.60 0.1066
774.70 0.1065
774.80 0.1065
774.90 0.1065
775.00 0.1064
775.10 0.1064
775.20 0.1063
775.30 0.1063
775.40 0.1063
775.50 0.1062
775.60 0.1062
775.70 0.1062
775.80 0.1061
775.90 0.1061
776.00 0.106
776.10 0.106
776.20 0.106
776.30 0.1059
776.40 0.1059
776.50 0.1059
776.60 0.1058
776.70 0.1058
776.80 0.1057
776.90 0.1057
777.00 0.1057
777.10 0.1056
777.20 0.1056
777.30 0.1055
777.40 0.1055
777.50 0.1055
777.60 0.1054
777.70 0.1054
777.80 0.1054
777.90 0.1053
778.00 0.1053
778.10 0.1052
778.20 0.1052
778.30 0.1052
778.40 0.1051
778.50 0.1051
778.60 0.1051
778.70 0.105
778.80 0.105
778.90 0.1049
779.00 0.1049
779.10 0.1049
779.20 0.1048
779.30 0.1048
779.40 0.1047
779.50 0.1047
779.60 0.1047
779.70 0.1046
779.80 0.1046
779.90 0.1046
780.00 0.1045
780.10 0.1045
780.20 0.1046
780.30 0.1046
780.40 0.1046
780.50 0.1047
780.60 0.1047
780.70 0.1047
780.80 0.1047
780.90 0.1048
781.00 0.1048
781.10 0.1048
781.20 0.1048
781.30 0.1049
781.40 0.1049
781.50 0.1049
781.60 0.105
781.70 0.105
781.80 0.105
781.90 0.105
782.00 0.1051
782.10 0.1051
782.20 0.1051
782.30 0.1051
782.40 0.1052
782.50 0.1052
782.60 0.1052
782.70 0.1053
782.80 0.1053
782.90 0.1053
783.00 0.1053
783.10 0.1054
783.20 0.1054
783.30 0.1054
783.40 0.1054
783.50 0.1055
783.60 0.1055
783.70 0.1055
783.80 0.1055
783.90 0.1056
784.00 0.1056
784.10 0.1056
784.20 0.1057
784.30 0.1057
784.40 0.1057
784.50 0.1057
784.60 0.1058
784.70 0.1058
784.80 0.1058
784.90 0.1058
785.00 0.1059
785.10 0.1059
785.20 0.1059
785.30 0.1059
785.40 0.106
785.50 0.106
785.60 0.106
785.70 0.1061
785.80 0.1061
785.90 0.1061
786.00 0.1061
786.10 0.1062
786.20 0.1062
786.30 0.1062
786.40 0.1062
786.50 0.1063
786.60 0.1063
786.70 0.1063
786.80 0.1063
786.90 0.1064
787.00 0.1064
787.10 0.1064
787.20 0.1064
787.30 0.1065
787.40 0.1065
787.50 0.1065
787.60 0.1065
787.70 0.1066
787.80 0.1066
787.90 0.1066
788.00 0.1067
788.10 0.1067
788.20 0.1067
788.30 0.1067
788.40 0.1068
788.50 0.1068
788.60 0.1068
788.70 0.1068
788.80 0.1069
788.90 0.1069
789.00 0.1069
789.10 0.1069
789.20 0.107
789.30 0.107
789.40 0.107
789.50 0.107
789.60 0.1071
789.70 0.1071
789.80 0.1071
789.90 0.1071
790.00 0.1072
790.10 0.1072
790.20 0.1073
790.30 0.1074
790.40 0.1074
790.50 0.1075
790.60 0.1075
790.70 0.1076
790.80 0.1077
790.90 0.1077
791.00 0.1078
791.10 0.1079
791.20 0.1079
791.30 0.108
791.40 0.108
791.50 0.1081
791.60 0.1082
791.70 0.1082
791.80 0.1083
791.90 0.1084
792.00 0.1084
792.10 0.1085
792.20 0.1085
792.30 0.1086
792.40 0.1087
792.50 0.1087
792.60 0.1088
792.70 0.1088
792.80 0.1089
792.90 0.109
793.00 0.109
793.10 0.1091
793.20 0.1092
793.30 0.1092
793.40 0.1093
793.50 0.1093
793.60 0.1094
793.70 0.1095
793.80 0.1095
793.90 0.1096
794.00 0.1096
794.10 0.1097
794.20 0.1098
794.30 0.1098
794.40 0.1099
794.50 0.11
794.60 0.11
794.70 0.1101
794.80 0.1101
794.90 0.1102
795.00 0.1103
795.10 0.1103
795.20 0.1104
795.30 0.1104
795.40 0.1105
795.50 0.1106
795.60 0.1106
795.70 0.1107
795.80 0.1107
795.90 0.1108
796.00 0.1109
796.10 0.1109
796.20 0.111
796.30 0.111
796.40 0.1111
796.50 0.1112
796.60 0.1112
796.70 0.1113
796.80 0.1114
796.90 0.1114
797.00 0.1115
797.10 0.1115
797.20 0.1116
797.30 0.1117
797.40 0.1117
797.50 0.1118
797.60 0.1118
797.70 0.1119
797.80 0.112
797.90 0.112
798.00 0.1121
798.10 0.1121
798.20 0.1122
798.30 0.1123
798.40 0.1123
798.50 0.1124
798.60 0.1124
798.70 0.1125
798.80 0.1126
798.90 0.1126
799.00 0.1127
799.10 0.1127
799.20 0.1128
799.30 0.1128
799.40 0.1129
799.50 0.113
799.60 0.113
799.70 0.1131
799.80 0.1131
799.90 0.1132
800.00 0.1133
800.10 0.1133
800.20 0.1133
800.30 0.1134
800.40 0.1134
800.50 0.1134
800.60 0.1135
800.70 0.1135
800.80 0.1135
800.90 0.1136
801.00 0.1136
801.10 0.1136
801.20 0.1137
801.30 0.1137
801.40 0.1137
801.50 0.1138
801.60 0.1138
801.70 0.1138
801.80 0.1139
801.90 0.1139
802.00 0.1139
802.10 0.114
802.20 0.114
802.30 0.114
802.40 0.1141
802.50 0.1141
802.60 0.1141
802.70 0.1142
802.80 0.1142
802.90 0.1142
803.00 0.1143
803.10 0.1143
803.20 0.1143
803.30 0.1144
803.40 0.1144
803.50 0.1144
803.60 0.1145
803.70 0.1145
803.80 0.1145
803.90 0.1146
804.00 0.1146
804.10 0.1146
804.20 0.1147
804.30 0.1147
804.40 0.1147
804.50 0.1148
804.60 0.1148
804.70 0.1148
804.80 0.1149
804.90 0.1149
805.00 0.1149
805.10 0.115
805.20 0.115
805.30 0.115
805.40 0.1151
805.50 0.1151
805.60 0.1151
805.70 0.1152
805.80 0.1152
805.90 0.1152
806.00 0.1153
806.10 0.1153
806.20 0.1153
806.30 0.1154
806.40 0.1154
806.50 0.1154
806.60 0.1155
806.70 0.1155
806.80 0.1155
806.90 0.1156
807.00 0.1156
807.10 0.1156
807.20 0.1157
807.30 0.1157
807.40 0.1157
807.50 0.1158
807.60 0.1158
807.70 0.1158
807.80 0.1159
807.90 0.1159
808.00 0.1159
808.10 0.116
808.20 0.116
808.30 0.116
808.40 0.1161
808.50 0.1161
808.60 0.1161
808.70 0.1161
808.80 0.1162
808.90 0.1162
809.00 0.1162
809.10 0.1163
809.20 0.1163
809.30 0.1163
809.40 0.1164
809.50 0.1164
809.60 0.1164
809.70 0.1165
809.80 0.1165
809.90 0.1165
810.00 0.1166
810.10 0.1166
810.20 0.1166
810.30 0.1166
810.40 0.1166
810.50 0.1166
810.60 0.1166
810.70 0.1167
810.80 0.1167
810.90 0.1167
811.00 0.1167
811.10 0.1167
811.20 0.1167
811.30 0.1167
811.40 0.1168
811.50 0.1168
811.60 0.1168
811.70 0.1168
811.80 0.1168
811.90 0.1168
812.00 0.1168
812.10 0.1169
812.20 0.1169
812.30 0.1169
812.40 0.1169
812.50 0.1169
812.60 0.1169
812.70 0.1169
812.80 0.117
812.90 0.117
813.00 0.117
813.10 0.117
813.20 0.117
813.30 0.117
813.40 0.117
813.50 0.117
813.60 0.1171
813.70 0.1171
813.80 0.1171
813.90 0.1171
814.00 0.1171
814.10 0.1171
814.20 0.1171
814.30 0.1172
814.40 0.1172
814.50 0.1172
814.60 0.1172
814.70 0.1172
814.80 0.1172
814.90 0.1172
815.00 0.1173
815.10 0.1173
815.20 0.1173
815.30 0.1173
815.40 0.1173
815.50 0.1173
815.60 0.1173
815.70 0.1173
815.80 0.1174
815.90 0.1174
816.00 0.1174
816.10 0.1174
816.20 0.1174
816.30 0.1174
816.40 0.1174
816.50 0.1175
816.60 0.1175
816.70 0.1175
816.80 0.1175
816.90 0.1175
817.00 0.1175
817.10 0.1175
817.20 0.1175
817.30 0.1176
817.40 0.1176
817.50 0.1176
817.60 0.1176
817.70 0.1176
817.80 0.1176
817.90 0.1176
818.00 0.1177
818.10 0.1177
818.20 0.1177
818.30 0.1177
818.40 0.1177
818.50 0.1177
818.60 0.1177
818.70 0.1177
818.80 0.1178
818.90 0.1178
819.00 0.1178
819.10 0.1178
819.20 0.1178
819.30 0.1178
819.40 0.1178
819.50 0.1178
819.60 0.1179
819.70 0.1179
819.80 0.1179
819.90 0.1179
820.00 0.1179
820.10 0.1179
820.20 0.118
820.30 0.118
820.40 0.118
820.50 0.1181
820.60 0.1181
820.70 0.1181
820.80 0.1182
820.90 0.1182
821.00 0.1182
821.10 0.1183
821.20 0.1183
821.30 0.1183
821.40 0.1184
821.50 0.1184
821.60 0.1184
821.70 0.1185
821.80 0.1185
821.90 0.1185
822.00 0.1186
822.10 0.1186
822.20 0.1187
822.30 0.1187
822.40 0.1188
822.50 0.1188
822.60 0.1188
822.70 0.1189
822.80 0.1189
822.90 0.119
823.00 0.119
823.10 0.1191
823.20 0.1191
823.30 0.1192
823.40 0.1192
823.50 0.1193
823.60 0.1193
823.70 0.1194
823.80 0.1194
823.90 0.1195
824.00 0.1195
824.10 0.1196
824.20 0.1196
824.30 0.1197
824.40 0.1197
824.50 0.1197
824.60 0.1198
824.70 0.1198
824.80 0.1199
824.90 0.1199
825.00 0.12
825.10 0.12
825.20 0.1201
825.30 0.1201
825.40 0.1202
825.50 0.1202
825.60 0.1203
825.70 0.1203
825.80 0.1204
825.90 0.1204
826.00 0.1204
826.10 0.1205
826.20 0.1205
826.30 0.1206
826.40 0.1206
826.50 0.1207
826.60 0.1207
826.70 0.1208
826.80 0.1208
826.90 0.1209
827.00 0.1209
827.10 0.121
827.20 0.121
827.30 0.1211
827.40 0.1211
827.50 0.1212
827.60 0.1212
827.70 0.1213
827.80 0.1214
827.90 0.1214
828.00 0.1215
828.10 0.1215
828.20 0.1216
828.30 0.1216
828.40 0.1217
828.50 0.1217
828.60 0.1218
828.70 0.1219
828.80 0.1219
828.90 0.122
829.00 0.122
829.10 0.1221
829.20 0.1221
829.30 0.1222
829.40 0.1222
829.50 0.1223
829.60 0.1224
829.70 0.1224
829.80 0.1225
829.90 0.1225
830.00 0.1226
830.10 0.1226
830.20 0.1227
830.30 0.1227
830.40 0.1228
830.50 0.1228
830.60 0.1229
830.70 0.123
830.80 0.123
830.90 0.1231
831.00 0.1231
831.10 0.1232
831.20 0.1232
831.30 0.1233
831.40 0.1233
831.50 0.1234
831.60 0.1234
831.70 0.1235
831.80 0.1236
831.90 0.1236
832.00 0.1237
832.10 0.1237
832.20 0.1237
832.30 0.1238
832.40 0.1238
832.50 0.1239
832.60 0.1239
832.70 0.124
832.80 0.124
832.90 0.124
833.00 0.1241
833.10 0.1241
833.20 0.1242
833.30 0.1242
833.40 0.1242
833.50 0.1243
833.60 0.1243
833.70 0.1244
833.80 0.1244
833.90 0.1245
834.00 0.1245
834.10 0.1245
834.20 0.1246
834.30 0.1246
834.40 0.1247
834.50 0.1247
834.60 0.1247
834.70 0.1248
834.80 0.1248
834.90 0.1249
835.00 0.1249
835.10 0.125
835.20 0.125
835.30 0.125
835.40 0.1251
835.50 0.1251
835.60 0.1252
835.70 0.1252
835.80 0.1252
835.90 0.1253
836.00 0.1253
836.10 0.1254
836.20 0.1254
836.30 0.1254
836.40 0.1255
836.50 0.1255
836.60 0.1256
836.70 0.1256
836.80 0.1256
836.90 0.1257
837.00 0.1257
837.10 0.1258
837.20 0.1258
837.30 0.1258
837.40 0.1259
837.50 0.1259
837.60 0.1259
837.70 0.126
837.80 0.126
837.90 0.126
838.00 0.126
838.10 0.1261
838.20 0.1261
838.30 0.1261
838.40 0.1262
838.50 0.1262
838.60 0.1262
838.70 0.1263
838.80 0.1263
838.90 0.1263
839.00 0.1264
839.10 0.1264
839.20 0.1264
839.30 0.1265
839.40 0.1265
839.50 0.1265
839.60 0.1266
839.70 0.1266
839.80 0.1266
839.90 0.1266
840.00 0.1267
840.10 0.1267
840.20 0.1267
840.30 0.1268
840.40 0.1268
840.50 0.1268
840.60 0.1269
840.70 0.1269
840.80 0.1269
840.90 0.127
841.00 0.127
841.10 0.127
841.20 0.1271
841.30 0.1271
841.40 0.1271
841.50 0.1271
841.60 0.1272
841.70 0.1272
841.80 0.1272
841.90 0.1273
842.00 0.1273
842.10 0.1273
842.20 0.1273
842.30 0.1274
842.40 0.1274
842.50 0.1274
842.60 0.1274
842.70 0.1275
842.80 0.1275
842.90 0.1275
843.00 0.1275
843.10 0.1275
843.20 0.1276
843.30 0.1276
843.40 0.1276
843.50 0.1276
843.60 0.1277
843.70 0.1277
843.80 0.1277
843.90 0.1277
844.00 0.1277
844.10 0.1278
844.20 0.1278
844.30 0.1278
844.40 0.1278
844.50 0.1279
844.60 0.1279
844.70 0.1279
844.80 0.1279
844.90 0.1279
845.00 0.128
845.10 0.128
845.20 0.128
845.30 0.128
845.40 0.1281
845.50 0.1281
845.60 0.1281
845.70 0.1281
845.80 0.1281
845.90 0.1282
846.00 0.1282
846.10 0.1282
846.20 0.1282
846.30 0.1283
846.40 0.1283
846.50 0.1283
846.60 0.1283
846.70 0.1283
846.80 0.1284
846.90 0.1284
847.00 0.1284
847.10 0.1284
847.20 0.1285
847.30 0.1285
847.40 0.1285
847.50 0.1285
847.60 0.1286
847.70 0.1286
847.80 0.1286
847.90 0.1286
848.00 0.1286
848.10 0.1287
848.20 0.1287
848.30 0.1287
848.40 0.1287
848.50 0.1288
848.60 0.1288
848.70 0.1288
848.80 0.1288
848.90 0.1289
849.00 0.1289
849.10 0.1289
849.20 0.1289
849.30 0.129
849.40 0.129
849.50 0.129
849.60 0.129
849.70 0.129
849.80 0.1291
849.90 0.1291
850.00 0.1291
850.10 0.1291
850.20 0.1292
850.30 0.1292
850.40 0.1292
850.50 0.1292
850.60 0.1293
850.70 0.1293
850.80 0.1293
850.90 0.1293
851.00 0.1294
851.10 0.1294
851.20 0.1294
851.30 0.1294
851.40 0.1294
851.50 0.1295
851.60 0.1295
851.70 0.1295
851.80 0.1295
851.90 0.1296
852.00 0.1296
852.10 0.1296
852.20 0.1296
852.30 0.1297
852.40 0.1297
852.50 0.1297
852.60 0.1298
852.70 0.1298
852.80 0.1298
852.90 0.1298
853.00 0.1299
853.10 0.1299
853.20 0.1299
853.30 0.13
853.40 0.13
853.50 0.13
853.60 0.13
853.70 0.1301
853.80 0.1301
853.90 0.1301
854.00 0.1301
854.10 0.1302
854.20 0.1302
854.30 0.1302
854.40 0.1303
854.50 0.1303
854.60 0.1303
854.70 0.1303
854.80 0.1304
854.90 0.1304
855.00 0.1304
855.10 0.1305
855.20 0.1305
855.30 0.1305
855.40 0.1305
855.50 0.1306
855.60 0.1306
855.70 0.1306
855.80 0.1306
855.90 0.1307
856.00 0.1307
856.10 0.1307
856.20 0.1308
856.30 0.1308
856.40 0.1308
856.50 0.1308
856.60 0.1309
856.70 0.1309
856.80 0.1309
856.90 0.1309
857.00 0.131
857.10 0.131
857.20 0.131
857.30 0.1311
857.40 0.1311
857.50 0.1311
857.60 0.1312
857.70 0.1312
857.80 0.1312
857.90 0.1313
858.00 0.1313
858.10 0.1313
858.20 0.1314
858.30 0.1314
858.40 0.1314
858.50 0.1315
858.60 0.1315
858.70 0.1315
858.80 0.1315
858.90 0.1316
859.00 0.1316
859.10 0.1316
859.20 0.1317
859.30 0.1317
859.40 0.1317
859.50 0.1318
859.60 0.1318
859.70 0.1318
859.80 0.1319
859.90 0.1319
860.00 0.1319
860.10 0.132
860.20 0.132
860.30 0.132
860.40 0.1321
860.50 0.1321
860.60 0.1321
860.70 0.1321
860.80 0.1322
860.90 0.1322
861.00 0.1322
861.10 0.1323
861.20 0.1323
861.30 0.1323
861.40 0.1324
861.50 0.1324
861.60 0.1324
861.70 0.1325
861.80 0.1325
861.90 0.1325
862.00 0.1326
862.10 0.1326
862.20 0.1326
862.30 0.1327
862.40 0.1327
862.50 0.1328
862.60 0.1328
862.70 0.1328
862.80 0.1329
862.90 0.1329
863.00 0.133
863.10 0.133
863.20 0.133
863.30 0.1331
863.40 0.1331
863.50 0.1332
863.60 0.1332
863.70 0.1332
863.80 0.1333
863.90 0.1333
864.00 0.1334
864.10 0.1334
864.20 0.1334
864.30 0.1335
864.40 0.1335
864.50 0.1336
864.60 0.1336
864.70 0.1336
864.80 0.1337
864.90 0.1337
865.00 0.1338
865.10 0.1338
865.20 0.1338
865.30 0.1339
865.40 0.1339
865.50 0.134
865.60 0.134
865.70 0.134
865.80 0.1341
865.90 0.1341
866.00 0.1342
866.10 0.1342
866.20 0.1342
866.30 0.1343
866.40 0.1343
866.50 0.1344
866.60 0.1344
866.70 0.1344
866.80 0.1345
866.90 0.1345
867.00 0.1346
867.10 0.1346
867.20 0.1346
867.30 0.1346
867.40 0.1347
867.50 0.1347
867.60 0.1347
867.70 0.1348
867.80 0.1348
867.90 0.1348
868.00 0.1349
868.10 0.1349
868.20 0.1349
868.30 0.135
868.40 0.135
868.50 0.135
868.60 0.135
868.70 0.1351
868.80 0.1351
868.90 0.1351
869.00 0.1352
869.10 0.1352
869.20 0.1352
869.30 0.1353
869.40 0.1353
869.50 0.1353
869.60 0.1353
869.70 0.1354
869.80 0.1354
869.90 0.1354
870.00 0.1355
870.10 0.1355
870.20 0.1355
870.30 0.1356
870.40 0.1356
870.50 0.1356
870.60 0.1356
870.70 0.1357
870.80 0.1357
870.90 0.1357
871.00 0.1358
871.10 0.1358
871.20 0.1358
871.30 0.1359
871.40 0.1359
871.50 0.1359
871.60 0.1359
871.70 0.136
871.80 0.136
871.90 0.136
872.00 0.1361
872.10 0.1361
872.20 0.1361
872.30 0.1361
872.40 0.1361
872.50 0.1362
872.60 0.1362
872.70 0.1362
872.80 0.1362
872.90 0.1363
873.00 0.1363
873.10 0.1363
873.20 0.1363
873.30 0.1363
873.40 0.1364
873.50 0.1364
873.60 0.1364
873.70 0.1364
873.80 0.1364
873.90 0.1365
874.00 0.1365
874.10 0.1365
874.20 0.1365
874.30 0.1365
874.40 0.1366
874.50 0.1366
874.60 0.1366
874.70 0.1366
874.80 0.1367
874.90 0.1367
875.00 0.1367
875.10 0.1367
875.20 0.1367
875.30 0.1368
875.40 0.1368
875.50 0.1368
875.60 0.1368
875.70 0.1368
875.80 0.1369
875.90 0.1369
876.00 0.1369
876.10 0.1369
876.20 0.1369
876.30 0.137
876.40 0.137
876.50 0.137
876.60 0.137
876.70 0.137
876.80 0.1371
876.90 0.1371
877.00 0.1371
877.10 0.1371
877.20 0.1371
877.30 0.1371
877.40 0.1371
877.50 0.1371
877.60 0.1371
877.70 0.1371
877.80 0.1371
877.90 0.1371
878.00 0.137
878.10 0.137
878.20 0.137
878.30 0.137
878.40 0.137
878.50 0.137
878.60 0.137
878.70 0.137
878.80 0.137
878.90 0.137
879.00 0.137
879.10 0.137
879.20 0.137
879.30 0.137
879.40 0.137
879.50 0.137
879.60 0.1369
879.70 0.1369
879.80 0.1369
879.90 0.1369
880.00 0.1369
880.10 0.1369
880.20 0.1369
880.30 0.1369
880.40 0.1369
880.50 0.1369
880.60 0.1369
880.70 0.1369
880.80 0.1369
880.90 0.1369
881.00 0.1369
881.10 0.1368
881.20 0.1368
881.30 0.1368
881.40 0.1368
881.50 0.1368
881.60 0.1368
881.70 0.1368
881.80 0.1368
881.90 0.1368
882.00 0.1368
882.10 0.1368
882.20 0.1367
882.30 0.1367
882.40 0.1367
882.50 0.1367
882.60 0.1366
882.70 0.1366
882.80 0.1366
882.90 0.1366
883.00 0.1365
883.10 0.1365
883.20 0.1365
883.30 0.1365
883.40 0.1364
883.50 0.1364
883.60 0.1364
883.70 0.1364
883.80 0.1363
883.90 0.1363
884.00 0.1363
884.10 0.1363
884.20 0.1362
884.30 0.1362
884.40 0.1362
884.50 0.1362
884.60 0.1361
884.70 0.1361
884.80 0.1361
884.90 0.1361
885.00 0.136
885.10 0.136
885.20 0.136
885.30 0.136
885.40 0.1359
885.50 0.1359
885.60 0.1359
885.70 0.1359
885.80 0.1358
885.90 0.1358
886.00 0.1358
886.10 0.1358
886.20 0.1357
886.30 0.1357
886.40 0.1357
886.50 0.1357
886.60 0.1356
886.70 0.1356
886.80 0.1356
886.90 0.1356
887.00 0.1355
887.10 0.1355
887.20 0.1355
887.30 0.1354
887.40 0.1354
887.50 0.1353
887.60 0.1353
887.70 0.1352
887.80 0.1352
887.90 0.1352
888.00 0.1351
888.10 0.1351
888.20 0.135
888.30 0.135
888.40 0.1349
888.50 0.1349
888.60 0.1349
888.70 0.1348
888.80 0.1348
888.90 0.1347
889.00 0.1347
889.10 0.1346
889.20 0.1346
889.30 0.1346
889.40 0.1345
889.50 0.1345
889.60 0.1344
889.70 0.1344
889.80 0.1343
889.90 0.1343
890.00 0.1343
890.10 0.1342
890.20 0.1342
890.30 0.1341
890.40 0.1341
890.50 0.134
890.60 0.134
890.70 0.134
890.80 0.1339
890.90 0.1339
891.00 0.1338
891.10 0.1338
891.20 0.1337
891.30 0.1337
891.40 0.1337
891.50 0.1336
891.60 0.1336
891.70 0.1335
891.80 0.1335
891.90 0.1334
892.00 0.1334
892.10 0.1334
892.20 0.1333
892.30 0.1333
892.40 0.1332
892.50 0.1332
892.60 0.1331
892.70 0.133
892.80 0.133
892.90 0.1329
893.00 0.1329
893.10 0.1328
893.20 0.1328
893.30 0.1327
893.40 0.1327
893.50 0.1326
893.60 0.1326
893.70 0.1325
893.80 0.1325
893.90 0.1324
894.00 0.1324
894.10 0.1323
894.20 0.1323
894.30 0.1322
894.40 0.1322
894.50 0.1321
894.60 0.1321
894.70 0.132
894.80 0.132
894.90 0.1319
895.00 0.1319
895.10 0.1318
895.20 0.1318
895.30 0.1317
895.40 0.1317
895.50 0.1316
895.60 0.1316
895.70 0.1315
895.80 0.1315
895.90 0.1314
896.00 0.1314
896.10 0.1313
896.20 0.1313
896.30 0.1312
896.40 0.1312
896.50 0.1311
896.60 0.1311
896.70 0.131
896.80 0.131
896.90 0.1309
897.00 0.1309
897.10 0.1308
897.20 0.1308
897.30 0.1307
897.40 0.1307
897.50 0.1306
897.60 0.1305
897.70 0.1305
897.80 0.1304
897.90 0.1303
898.00 0.1303
898.10 0.1302
898.20 0.1302
898.30 0.1301
898.40 0.13
898.50 0.13
898.60 0.1299
898.70 0.1298
898.80 0.1298
898.90 0.1297
899.00 0.1297
899.10 0.1296
899.20 0.1295
899.30 0.1295
899.40 0.1294
899.50 0.1294
899.60 0.1293
899.70 0.1292
899.80 0.1292
899.90 0.1291
900.00 0.129
900.10 0.129
900.20 0.1289
900.30 0.1289
900.40 0.1288
900.50 0.1287
900.60 0.1287
900.70 0.1286
900.80 0.1286
900.90 0.1285
901.00 0.1284
901.10 0.1284
901.20 0.1283
901.30 0.1282
901.40 0.1282
901.50 0.1281
901.60 0.1281
901.70 0.128
901.80 0.1279
901.90 0.1279
902.00 0.1278
902.10 0.1277
902.20 0.1277
902.30 0.1276
902.40 0.1275
902.50 0.1275
902.60 0.1274
902.70 0.1273
902.80 0.1272
902.90 0.1272
903.00 0.1271
903.10 0.127
903.20 0.127
903.30 0.1269
903.40 0.1268
903.50 0.1267
903.60 0.1267
903.70 0.1266
903.80 0.1265
903.90 0.1264
904.00 0.1264
904.10 0.1263
904.20 0.1262
904.30 0.1262
904.40 0.1261
904.50 0.126
904.60 0.1259
904.70 0.1259
904.80 0.1258
904.90 0.1257
905.00 0.1257
905.10 0.1256
905.20 0.1255
905.30 0.1254
905.40 0.1254
905.50 0.1253
905.60 0.1252
905.70 0.1252
905.80 0.1251
905.90 0.125
906.00 0.1249
906.10 0.1249
906.20 0.1248
906.30 0.1247
906.40 0.1247
906.50 0.1246
906.60 0.1245
906.70 0.1244
906.80 0.1244
906.90 0.1243
907.00 0.1242
907.10 0.1241
907.20 0.1241
907.30 0.124
907.40 0.1239
907.50 0.1238
907.60 0.1237
907.70 0.1236
907.80 0.1236
907.90 0.1235
908.00 0.1234
908.10 0.1233
908.20 0.1232
908.30 0.1231
908.40 0.1231
908.50 0.123
908.60 0.1229
908.70 0.1228
908.80 0.1227
908.90 0.1226
909.00 0.1225
909.10 0.1225
909.20 0.1224
909.30 0.1223
909.40 0.1222
909.50 0.1221
909.60 0.122
909.70 0.122
909.80 0.1219
909.90 0.1218
910.00 0.1217
910.10 0.1216
910.20 0.1215
910.30 0.1215
910.40 0.1214
910.50 0.1213
910.60 0.1212
910.70 0.1211
910.80 0.121
910.90 0.121
911.00 0.1209
911.10 0.1208
911.20 0.1207
911.30 0.1206
911.40 0.1205
911.50 0.1205
911.60 0.1204
911.70 0.1203
911.80 0.1202
911.90 0.1201
912.00 0.12
912.10 0.1199
912.20 0.1198
912.30 0.1198
912.40 0.1197
912.50 0.1196
912.60 0.1195
912.70 0.1194
912.80 0.1193
912.90 0.1192
913.00 0.1191
913.10 0.119
913.20 0.1189
913.30 0.1188
913.40 0.1187
913.50 0.1186
913.60 0.1185
913.70 0.1184
913.80 0.1183
913.90 0.1182
914.00 0.1182
914.10 0.1181
914.20 0.118
914.30 0.1179
914.40 0.1178
914.50 0.1177
914.60 0.1176
914.70 0.1175
914.80 0.1174
914.90 0.1173
915.00 0.1172
915.10 0.1171
915.20 0.117
915.30 0.1169
915.40 0.1168
915.50 0.1167
915.60 0.1167
915.70 0.1166
915.80 0.1165
915.90 0.1164
916.00 0.1163
916.10 0.1162
916.20 0.1161
916.30 0.116
916.40 0.1159
916.50 0.1158
916.60 0.1157
916.70 0.1156
916.80 0.1155
916.90 0.1154
917.00 0.1153
917.10 0.1152
917.20 0.1151
917.30 0.115
917.40 0.1149
917.50 0.1148
917.60 0.1147
917.70 0.1146
917.80 0.1145
917.90 0.1144
918.00 0.1143
918.10 0.1142
918.20 0.1141
918.30 0.114
918.40 0.1139
918.50 0.1138
918.60 0.1137
918.70 0.1136
918.80 0.1135
918.90 0.1134
919.00 0.1133
919.10 0.1132
919.20 0.113
919.30 0.1129
919.40 0.1128
919.50 0.1127
919.60 0.1126
919.70 0.1125
919.80 0.1124
919.90 0.1123
920.00 0.1122
920.10 0.1121
920.20 0.112
920.30 0.1119
920.40 0.1118
920.50 0.1117
920.60 0.1116
920.70 0.1115
920.80 0.1114
920.90 0.1113
921.00 0.1112
921.10 0.1111
921.20 0.111
921.30 0.1109
921.40 0.1108
921.50 0.1107
921.60 0.1106
921.70 0.1105
921.80 0.1104
921.90 0.1103
922.00 0.1102
922.10 0.11
922.20 0.1099
922.30 0.1098
922.40 0.1097
922.50 0.1096
922.60 0.1095
922.70 0.1094
922.80 0.1093
922.90 0.1092
923.00 0.109
923.10 0.1089
923.20 0.1088
923.30 0.1087
923.40 0.1086
923.50 0.1085
923.60 0.1084
923.70 0.1083
923.80 0.1082
923.90 0.108
924.00 0.1079
924.10 0.1078
924.20 0.1077
924.30 0.1076
924.40 0.1075
924.50 0.1074
924.60 0.1073
924.70 0.1072
924.80 0.107
924.90 0.1069
925.00 0.1068
925.10 0.1067
925.20 0.1066
925.30 0.1065
925.40 0.1064
925.50 0.1063
925.60 0.1062
925.70 0.1061
925.80 0.1059
925.90 0.1058
926.00 0.1057
926.10 0.1056
926.20 0.1055
926.30 0.1054
926.40 0.1053
926.50 0.1052
926.60 0.1051
926.70 0.105
926.80 0.1048
926.90 0.1047
927.00 0.1046
927.10 0.1045
927.20 0.1044
927.30 0.1043
927.40 0.1042
927.50 0.104
927.60 0.1039
927.70 0.1038
927.80 0.1037
927.90 0.1036
928.00 0.1034
928.10 0.1033
928.20 0.1032
928.30 0.1031
928.40 0.103
928.50 0.1029
928.60 0.1027
928.70 0.1026
928.80 0.1025
928.90 0.1024
929.00 0.1023
929.10 0.1022
929.20 0.102
929.30 0.1019
929.40 0.1018
929.50 0.1017
929.60 0.1016
929.70 0.1015
929.80 0.1013
929.90 0.1012
930.00 0.1011
930.10 0.101
930.20 0.1009
930.30 0.1008
930.40 0.1006
930.50 0.1005
930.60 0.1004
930.70 0.1003
930.80 0.1002
930.90 0.1001
931.00 0.09995
931.10 0.09983
931.20 0.09971
931.30 0.0996
931.40 0.09948
931.50 0.09937
931.60 0.09925
931.70 0.09914
931.80 0.09902
931.90 0.0989
932.00 0.09879
932.10 0.09867
932.20 0.09855
932.30 0.09844
932.40 0.09832
932.50 0.0982
932.60 0.09808
932.70 0.09796
932.80 0.09785
932.90 0.09773
933.00 0.09761
933.10 0.09749
933.20 0.09738
933.30 0.09726
933.40 0.09714
933.50 0.09702
933.60 0.09691
933.70 0.09679
933.80 0.09667
933.90 0.09656
934.00 0.09644
934.10 0.09632
934.20 0.0962
934.30 0.09609
934.40 0.09597
934.50 0.09585
934.60 0.09573
934.70 0.09561
934.80 0.09549
934.90 0.09537
935.00 0.09526
935.10 0.09514
935.20 0.09502
935.30 0.0949
935.40 0.09478
935.50 0.09466
935.60 0.09455
935.70 0.09443
935.80 0.09431
935.90 0.09419
936.00 0.09407
936.10 0.09396
936.20 0.09384
936.30 0.09372
936.40 0.0936
936.50 0.09348
936.60 0.09337
936.70 0.09325
936.80 0.09313
936.90 0.09301
937.00 0.0929
937.10 0.09278
937.20 0.09266
937.30 0.09254
937.40 0.09242
937.50 0.0923
937.60 0.09218
937.70 0.09206
937.80 0.09195
937.90 0.09183
938.00 0.09171
938.10 0.09159
938.20 0.09147
938.30 0.09135
938.40 0.09123
938.50 0.09111
938.60 0.09099
938.70 0.09087
938.80 0.09075
938.90 0.09063
939.00 0.09051
939.10 0.09039
939.20 0.09027
939.30 0.09015
939.40 0.09003
939.50 0.08991
939.60 0.08979
939.70 0.08967
939.80 0.08955
939.90 0.08943
940.00 0.08931
940.10 0.08919
940.20 0.08907
940.30 0.08895
940.40 0.08883
940.50 0.08871
940.60 0.08859
940.70 0.08847
940.80 0.08836
940.90 0.08824
941.00 0.08812
941.10 0.088
941.20 0.08788
941.30 0.08777
941.40 0.08765
941.50 0.08753
941.60 0.08741
941.70 0.0873
941.80 0.08718
941.90 0.08706
942.00 0.08694
942.10 0.08683
942.20 0.08671
942.30 0.08659
942.40 0.08647
942.50 0.08636
942.60 0.08624
942.70 0.08612
942.80 0.08601
942.90 0.08589
943.00 0.08577
943.10 0.08565
943.20 0.08554
943.30 0.08542
943.40 0.0853
943.50 0.08519
943.60 0.08507
943.70 0.08495
943.80 0.08484
943.90 0.08472
944.00 0.0846
944.10 0.08449
944.20 0.08437
944.30 0.08425
944.40 0.08414
944.50 0.08402
944.60 0.0839
944.70 0.08379
944.80 0.08367
944.90 0.08356
945.00 0.08344
945.10 0.08332
945.20 0.08321
945.30 0.08309
945.40 0.08298
945.50 0.08286
945.60 0.08274
945.70 0.08263
945.80 0.08251
945.90 0.0824
946.00 0.08228
946.10 0.08216
946.20 0.08205
946.30 0.08193
946.40 0.08182
946.50 0.0817
946.60 0.08159
946.70 0.08147
946.80 0.08136
946.90 0.08124
947.00 0.08113
947.10 0.08101
947.20 0.0809
947.30 0.08078
947.40 0.08067
947.50 0.08055
947.60 0.08044
947.70 0.08032
947.80 0.08021
947.90 0.08009
948.00 0.07998
948.10 0.07986
948.20 0.07975
948.30 0.07964
948.40 0.07952
948.50 0.07941
948.60 0.07929
948.70 0.07918
948.80 0.07907
948.90 0.07895
949.00 0.07884
949.10 0.07872
949.20 0.07861
949.30 0.0785
949.40 0.07838
949.50 0.07827
949.60 0.07815
949.70 0.07804
949.80 0.07793
949.90 0.07781
950.00 0.0777
950.10 0.07759
950.20 0.07747
950.30 0.07736
950.40 0.07725
950.50 0.07713
950.60 0.07702
950.70 0.07691
950.80 0.07679
950.90 0.07668
951.00 0.07657
951.10 0.07645
951.20 0.07634
951.30 0.07623
951.40 0.07611
951.50 0.076
951.60 0.07589
951.70 0.07577
951.80 0.07566
951.90 0.07555
952.00 0.07544
952.10 0.07532
952.20 0.07521
952.30 0.0751
952.40 0.07499
952.50 0.07488
952.60 0.07476
952.70 0.07465
952.80 0.07454
952.90 0.07443
953.00 0.07432
953.10 0.0742
953.20 0.07409
953.30 0.07398
953.40 0.07387
953.50 0.07376
953.60 0.07365
953.70 0.07353
953.80 0.07342
953.90 0.07331
954.00 0.0732
954.10 0.07309
954.20 0.07298
954.30 0.07286
954.40 0.07275
954.50 0.07264
954.60 0.07253
954.70 0.07242
954.80 0.07231
954.90 0.0722
955.00 0.07209
955.10 0.07198
955.20 0.07187
955.30 0.07175
955.40 0.07164
955.50 0.07153
955.60 0.07142
955.70 0.07131
955.80 0.0712
955.90 0.07109
956.00 0.07098
956.10 0.07087
956.20 0.07075
956.30 0.07064
956.40 0.07053
956.50 0.07042
956.60 0.07031
956.70 0.0702
956.80 0.07009
956.90 0.06997
957.00 0.06986
957.10 0.06975
957.20 0.06964
957.30 0.06953
957.40 0.06942
957.50 0.06931
957.60 0.06921
957.70 0.0691
957.80 0.06899
957.90 0.06888
958.00 0.06877
958.10 0.06866
958.20 0.06855
958.30 0.06845
958.40 0.06834
958.50 0.06823
958.60 0.06812
958.70 0.06801
958.80 0.0679
958.90 0.0678
959.00 0.06769
959.10 0.06758
959.20 0.06747
959.30 0.06736
959.40 0.06726
959.50 0.06715
959.60 0.06704
959.70 0.06693
959.80 0.06683
959.90 0.06672
960.00 0.06661
960.10 0.0665
960.20 0.0664
960.30 0.06629
960.40 0.06618
960.50 0.06608
960.60 0.06597
960.70 0.06586
960.80 0.06576
960.90 0.06565
961.00 0.06554
961.10 0.06544
961.20 0.06533
961.30 0.06522
961.40 0.06512
961.50 0.06501
961.60 0.0649
961.70 0.0648
961.80 0.06469
961.90 0.06459
962.00 0.06448
962.10 0.06438
962.20 0.06427
962.30 0.06417
962.40 0.06406
962.50 0.06395
962.60 0.06385
962.70 0.06374
962.80 0.06364
962.90 0.06353
963.00 0.06343
963.10 0.06332
963.20 0.06322
963.30 0.06311
963.40 0.06301
963.50 0.0629
963.60 0.0628
963.70 0.0627
963.80 0.06259
963.90 0.06249
964.00 0.06238
964.10 0.06228
964.20 0.06218
964.30 0.06207
964.40 0.06197
964.50 0.06186
964.60 0.06175
964.70 0.06165
964.80 0.06154
964.90 0.06144
965.00 0.06133
965.10 0.06122
965.20 0.06112
965.30 0.06101
965.40 0.06091
965.50 0.0608
965.60 0.0607
965.70 0.06059
965.80 0.06048
965.90 0.06038
966.00 0.06027
966.10 0.06017
966.20 0.06006
966.30 0.05996
966.40 0.05986
966.50 0.05975
966.60 0.05965
966.70 0.05955
966.80 0.05945
966.90 0.05935
967.00 0.05925
967.10 0.05915
967.20 0.05904
967.30 0.05894
967.40 0.05884
967.50 0.05874
967.60 0.05864
967.70 0.05854
967.80 0.05844
967.90 0.05834
968.00 0.05824
968.10 0.05814
968.20 0.05804
968.30 0.05794
968.40 0.05784
968.50 0.05774
968.60 0.05764
968.70 0.05754
968.80 0.05744
968.90 0.05735
969.00 0.05725
969.10 0.05715
969.20 0.05705
969.30 0.05695
969.40 0.05685
969.50 0.05676
969.60 0.05666
969.70 0.05656
969.80 0.05646
969.90 0.05636
970.00 0.05626
970.10 0.05617
970.20 0.05607
970.30 0.05597
970.40 0.05587
970.50 0.05578
970.60 0.05568
970.70 0.05559
970.80 0.05549
970.90 0.05539
971.00 0.0553
971.10 0.0552
971.20 0.0551
971.30 0.05501
971.40 0.05491
971.50 0.05482
971.60 0.05472
971.70 0.05462
971.80 0.05453
971.90 0.05443
972.00 0.05434
972.10 0.05424
972.20 0.05415
972.30 0.05405
972.40 0.05396
972.50 0.05386
972.60 0.05377
972.70 0.05368
972.80 0.05358
972.90 0.05349
973.00 0.05339
973.10 0.0533
973.20 0.05321
973.30 0.05311
973.40 0.05302
973.50 0.05292
973.60 0.05283
973.70 0.05274
973.80 0.05264
973.90 0.05255
974.00 0.05245
974.10 0.05236
974.20 0.05227
974.30 0.05217
974.40 0.05208
974.50 0.05199
974.60 0.0519
974.70 0.0518
974.80 0.05171
974.90 0.05162
975.00 0.05153
975.10 0.05143
975.20 0.05134
975.30 0.05125
975.40 0.05116
975.50 0.05106
975.60 0.05097
975.70 0.05088
975.80 0.05079
975.90 0.05069
976.00 0.0506
976.10 0.05051
976.20 0.05042
976.30 0.05033
976.40 0.05023
976.50 0.05014
976.60 0.05005
976.70 0.04996
976.80 0.04987
976.90 0.04977
977.00 0.04968
977.10 0.0496
977.20 0.04951
977.30 0.04942
977.40 0.04934
977.50 0.04925
977.60 0.04916
977.70 0.04907
977.80 0.04899
977.90 0.0489
978.00 0.04881
978.10 0.04873
978.20 0.04864
978.30 0.04855
978.40 0.04847
978.50 0.04838
978.60 0.0483
978.70 0.04821
978.80 0.04812
978.90 0.04804
979.00 0.04795
979.10 0.04786
979.20 0.04778
979.30 0.04769
979.40 0.0476
979.50 0.04752
979.60 0.04743
979.70 0.04735
979.80 0.04726
979.90 0.04717
980.00 0.04709
980.10 0.047
980.20 0.04692
980.30 0.04683
980.40 0.04674
980.50 0.04666
980.60 0.04657
980.70 0.04649
980.80 0.0464
980.90 0.04632
981.00 0.04623
981.10 0.04614
981.20 0.04606
981.30 0.04597
981.40 0.04589
981.50 0.0458
981.60 0.04572
981.70 0.04563
981.80 0.04555
981.90 0.04546
982.00 0.04538
982.10 0.04529
982.20 0.04521
982.30 0.04513
982.40 0.04505
982.50 0.04497
982.60 0.04488
982.70 0.0448
982.80 0.04472
982.90 0.04464
983.00 0.04456
983.10 0.04448
983.20 0.04439
983.30 0.04431
983.40 0.04423
983.50 0.04415
983.60 0.04407
983.70 0.04399
983.80 0.04391
983.90 0.04382
984.00 0.04374
984.10 0.04366
984.20 0.04358
984.30 0.0435
984.40 0.04342
984.50 0.04334
984.60 0.04326
984.70 0.04318
984.80 0.0431
984.90 0.04303
985.00 0.04295
985.10 0.04288
985.20 0.0428
985.30 0.04272
985.40 0.04265
985.50 0.04257
985.60 0.0425
985.70 0.04242
985.80 0.04234
985.90 0.04227
986.00 0.04219
986.10 0.04212
986.20 0.04204
986.30 0.04197
986.40 0.04189
986.50 0.04182
986.60 0.04174
986.70 0.04166
986.80 0.04159
986.90 0.04151
987.00 0.04144
987.10 0.04136
987.20 0.04128
987.30 0.0412
987.40 0.04112
987.50 0.04105
987.60 0.04097
987.70 0.04089
987.80 0.04081
987.90 0.04073
988.00 0.04065
988.10 0.04058
988.20 0.0405
988.30 0.04042
988.40 0.04034
988.50 0.04026
988.60 0.04019
988.70 0.04011
988.80 0.04003
988.90 0.03995
989.00 0.03987
989.10 0.03979
989.20 0.03972
989.30 0.03964
989.40 0.03956
989.50 0.03948
989.60 0.03941
989.70 0.03933
989.80 0.03925
989.90 0.03917
990.00 0.03909
990.10 0.03902
990.20 0.03894
990.30 0.03886
990.40 0.03878
990.50 0.03871
990.60 0.03863
990.70 0.03855
990.80 0.03847
990.90 0.0384
991.00 0.03832
991.10 0.03824
991.20 0.03817
991.30 0.03809
991.40 0.03801
991.50 0.03794
991.60 0.03786
991.70 0.03778
991.80 0.03771
991.90 0.03763
992.00 0.03755
992.10 0.03748
992.20 0.0374
992.30 0.03732
992.40 0.03725
992.50 0.03717
992.60 0.03709
992.70 0.03702
992.80 0.03694
992.90 0.03686
993.00 0.03679
993.10 0.03671
993.20 0.03663
993.30 0.03656
993.40 0.03648
993.50 0.03641
993.60 0.03633
993.70 0.03625
993.80 0.03618
993.90 0.0361
994.00 0.03603
994.10 0.03595
994.20 0.03588
994.30 0.0358
994.40 0.03572
994.50 0.03565
994.60 0.03557
994.70 0.03548
994.80 0.03539
994.90 0.0353
995.00 0.0352
995.10 0.03511
995.20 0.03501
995.30 0.03492
995.40 0.03483
995.50 0.03473
995.60 0.03464
995.70 0.03456
995.80 0.03449
995.90 0.03442
996.00 0.03434
996.10 0.03427
996.20 0.0342
996.30 0.03413
996.40 0.03405
996.50 0.03398
996.60 0.03391
996.70 0.03384
996.80 0.03376
996.90 0.03369
997.00 0.03362
997.10 0.03355
997.20 0.03348
997.30 0.03341
997.40 0.03334
997.50 0.03327
997.60 0.0332
997.70 0.03313
997.80 0.03306
997.90 0.03299
998.00 0.03292
998.10 0.03286
998.20 0.03279
998.30 0.03272
998.40 0.03265
998.50 0.03258
998.60 0.03251
998.70 0.03245
998.80 0.03238
998.90 0.03231
999.00 0.03224
999.10 0.03217
999.20 0.03211
999.30 0.03204
999.40 0.03197
999.50 0.0319
999.60 0.03184
999.70 0.03177
999.80 0.03171
999.90 0.03164
1000.00 0.03158
1000.10 0.03151
1000.20 0.03145
1000.30 0.03138
1000.40 0.03132
1000.50 0.03125
1000.60 0.03119
1000.70 0.03112
1000.80 0.03106
1000.90 0.031
1001.00 0.03093
1001.10 0.03087
1001.20 0.0308
1001.30 0.03074
1001.40 0.03067
1001.50 0.03061
1001.60 0.03055
1001.70 0.03048
1001.80 0.03042
1001.90 0.03036
1002.00 0.0303
1002.10 0.03024
1002.20 0.03017
1002.30 0.03011
1002.40 0.03005
1002.50 0.02999
1002.60 0.02993
1002.70 0.02987
1002.80 0.02981
1002.90 0.02975
1003.00 0.02969
1003.10 0.02962
1003.20 0.02956
1003.30 0.02951
1003.40 0.02945
1003.50 0.02939
1003.60 0.02933
1003.70 0.02927
1003.80 0.02921
1003.90 0.02915
1004.00 0.02909
1004.10 0.02903
1004.20 0.02897
1004.30 0.02891
1004.40 0.02885
1004.50 0.0288
1004.60 0.02874
1004.70 0.02868
1004.80 0.02862
1004.90 0.02854
1005.00 0.02846
1005.10 0.0284
1005.20 0.02834
1005.30 0.02829
1005.40 0.02823
1005.50 0.02817
1005.60 0.02812
1005.70 0.02806
1005.80 0.02801
1005.90 0.02795
1006.00 0.0279
1006.10 0.02784
1006.20 0.02778
1006.30 0.02773
1006.40 0.02768
1006.50 0.02762
1006.60 0.02757
1006.70 0.02751
1006.80 0.02746
1006.90 0.02741
1007.00 0.02735
1007.10 0.0273
1007.20 0.02725
1007.30 0.02719
1007.40 0.02714
1007.50 0.02709
1007.60 0.02703
1007.70 0.02698
1007.80 0.02693
1007.90 0.02688
1008.00 0.02683
1008.10 0.02678
1008.20 0.02673
1008.30 0.02668
1008.40 0.02663
1008.50 0.02658
1008.60 0.02653
1008.70 0.02648
1008.80 0.02642
1008.90 0.02637
1009.00 0.02632
1009.10 0.02627
1009.20 0.02622
1009.30 0.02617
1009.40 0.02612
1009.50 0.02607
1009.60 0.02602
1009.70 0.02597
1009.80 0.02593
1009.90 0.02588
1010.00 0.02583
1010.10 0.02578
1010.20 0.02574
1010.30 0.02569
1010.40 0.02564
1010.50 0.02559
1010.60 0.02555
1010.70 0.0255
1010.80 0.02545
1010.90 0.0254
1011.00 0.02536
1011.10 0.02531
1011.20 0.02526
1011.30 0.02522
1011.40 0.02517
1011.50 0.02512
1011.60 0.02507
1011.70 0.02503
1011.80 0.02498
1011.90 0.02494
1012.00 0.02489
1012.10 0.02485
1012.20 0.0248
1012.30 0.02476
1012.40 0.02472
1012.50 0.02467
1012.60 0.02463
1012.70 0.02459
1012.80 0.02454
1012.90 0.0245
1013.00 0.02445
1013.10 0.02441
1013.20 0.02437
1013.30 0.02432
1013.40 0.02428
1013.50 0.02423
1013.60 0.02419
1013.70 0.02415
1013.80 0.02411
1013.90 0.02406
1014.00 0.02402
1014.10 0.02398
1014.20 0.02394
1014.30 0.0239
1014.40 0.02386
1014.50 0.02381
1014.60 0.02377
1014.70 0.02373
1014.80 0.0237
1014.90 0.02366
1015.00 0.02363
1015.10 0.02359
1015.20 0.02355
1015.30 0.02352
1015.40 0.02348
1015.50 0.02345
1015.60 0.02341
1015.70 0.02337
1015.80 0.02334
1015.90 0.0233
1016.00 0.02327
1016.10 0.02323
1016.20 0.02319
1016.30 0.02316
1016.40 0.02312
1016.50 0.02309
1016.60 0.02305
1016.70 0.02301
1016.80 0.02297
1016.90 0.02293
1017.00 0.02289
1017.10 0.02286
1017.20 0.02282
1017.30 0.02278
1017.40 0.02274
1017.50 0.0227
1017.60 0.02266
1017.70 0.02262
1017.80 0.02259
1017.90 0.02255
1018.00 0.02251
1018.10 0.02247
1018.20 0.02243
1018.30 0.02239
1018.40 0.02236
1018.50 0.02232
1018.60 0.02228
1018.70 0.02224
1018.80 0.0222
1018.90 0.02217
1019.00 0.02213
1019.10 0.02209
1019.20 0.02206
1019.30 0.02202
1019.40 0.02198
1019.50 0.02194
1019.60 0.02191
1019.70 0.02187
1019.80 0.02183
1019.90 0.0218
1020.00 0.02176
1020.10 0.02172
1020.20 0.02169
1020.30 0.02165
1020.40 0.02161
1020.50 0.02157
1020.60 0.02154
1020.70 0.0215
1020.80 0.02146
1020.90 0.02143
1021.00 0.02139
1021.10 0.02136
1021.20 0.02132
1021.30 0.02129
1021.40 0.02125
1021.50 0.02121
1021.60 0.02118
1021.70 0.02114
1021.80 0.02111
1021.90 0.02107
1022.00 0.02103
1022.10 0.021
1022.20 0.02096
1022.30 0.02093
1022.40 0.0209
1022.50 0.02086
1022.60 0.02083
1022.70 0.02079
1022.80 0.02076
1022.90 0.02072
1023.00 0.02069
1023.10 0.02065
1023.20 0.02062
1023.30 0.02058
1023.40 0.02055
1023.50 0.02051
1023.60 0.02048
1023.70 0.02045
1023.80 0.02041
1023.90 0.02038
1024.00 0.02034
1024.10 0.02031
1024.20 0.02027
1024.30 0.02024
1024.40 0.0202
1024.50 0.02017
1024.60 0.02014
1024.70 0.0201
1024.80 0.02007
1024.90 0.02003
1025.00 0.02
1025.10 0.01997
1025.20 0.01993
1025.30 0.0199
1025.40 0.01986
1025.50 0.01983
1025.60 0.0198
1025.70 0.01976
1025.80 0.01973
1025.90 0.01969
1026.00 0.01966
1026.10 0.01963
1026.20 0.01959
1026.30 0.01956
1026.40 0.01952
1026.50 0.01949
1026.60 0.01946
1026.70 0.01942
1026.80 0.01939
1026.90 0.01935
1027.00 0.01932
1027.10 0.01929
1027.20 0.01926
1027.30 0.01923
1027.40 0.0192
1027.50 0.01917
1027.60 0.01914
1027.70 0.01911
1027.80 0.01908
1027.90 0.01905
1028.00 0.01902
1028.10 0.01899
1028.20 0.01896
1028.30 0.01893
1028.40 0.0189
1028.50 0.01887
1028.60 0.01884
1028.70 0.01881
1028.80 0.01878
1028.90 0.01875
1029.00 0.01872
1029.10 0.01869
1029.20 0.01866
1029.30 0.01863
1029.40 0.0186
1029.50 0.01857
1029.60 0.01854
1029.70 0.01851
1029.80 0.01848
1029.90 0.01845
1030.00 0.01842
1030.10 0.01839
1030.20 0.01836
1030.30 0.01833
1030.40 0.0183
1030.50 0.01827
1030.60 0.01824
1030.70 0.01821
1030.80 0.01818
1030.90 0.01815
1031.00 0.01812
1031.10 0.01809
1031.20 0.01806
1031.30 0.01803
1031.40 0.018
1031.50 0.01797
1031.60 0.01794
1031.70 0.01791
1031.80 0.01788
1031.90 0.01785
1032.00 0.01782
1032.10 0.01779
1032.20 0.01776
1032.30 0.01774
1032.40 0.01771
1032.50 0.01768
1032.60 0.01765
1032.70 0.01763
1032.80 0.0176
1032.90 0.01757
1033.00 0.01755
1033.10 0.01752
1033.20 0.01749
1033.30 0.01747
1033.40 0.01744
1033.50 0.01741
1033.60 0.01738
1033.70 0.01736
1033.80 0.01733
1033.90 0.0173
1034.00 0.01728
1034.10 0.01725
1034.20 0.01722
1034.30 0.0172
1034.40 0.01717
1034.50 0.01714
1034.60 0.01711
1034.70 0.01709
1034.80 0.01706
1034.90 0.01703
1035.00 0.01701
1035.10 0.01698
1035.20 0.01695
1035.30 0.01693
1035.40 0.0169
1035.50 0.01687
1035.60 0.01685
1035.70 0.01682
1035.80 0.01679
1035.90 0.01677
1036.00 0.01674
1036.10 0.01671
1036.20 0.01669
1036.30 0.01666
1036.40 0.01663
1036.50 0.01661
1036.60 0.01658
1036.70 0.01655
1036.80 0.01653
1036.90 0.0165
1037.00 0.01647
1037.10 0.01645
1037.20 0.01643
1037.30 0.0164
1037.40 0.01638
1037.50 0.01636
1037.60 0.01633
1037.70 0.01631
1037.80 0.01629
1037.90 0.01626
1038.00 0.01624
1038.10 0.01622
1038.20 0.01619
1038.30 0.01617
1038.40 0.01615
1038.50 0.01612
1038.60 0.0161
1038.70 0.01608
1038.80 0.01605
1038.90 0.01603
1039.00 0.01601
1039.10 0.01598
1039.20 0.01596
1039.30 0.01594
1039.40 0.01591
1039.50 0.01589
1039.60 0.01587
1039.70 0.01585
1039.80 0.01582
1039.90 0.0158
1040.00 0.01578
1040.10 0.01575
1040.20 0.01573
1040.30 0.01571
1040.40 0.01568
1040.50 0.01566
1040.60 0.01564
1040.70 0.01561
1040.80 0.01559
1040.90 0.01557
1041.00 0.01555
1041.10 0.01552
1041.20 0.0155
1041.30 0.01548
1041.40 0.01545
1041.50 0.01543
1041.60 0.01541
1041.70 0.01539
1041.80 0.01536
1041.90 0.01534
1042.00 0.01532
1042.10 0.0153
1042.20 0.01528
1042.30 0.01526
1042.40 0.01524
1042.50 0.01522
1042.60 0.0152
1042.70 0.01518
1042.80 0.01516
1042.90 0.01514
1043.00 0.01512
1043.10 0.0151
1043.20 0.01508
1043.30 0.01506
1043.40 0.01504
1043.50 0.01502
1043.60 0.015
1043.70 0.01498
1043.80 0.01496
1043.90 0.01494
1044.00 0.01492
1044.10 0.0149
1044.20 0.01488
1044.30 0.01486
1044.40 0.01484
1044.50 0.01482
1044.60 0.0148
1044.70 0.01478
1044.80 0.01476
1044.90 0.01474
1045.00 0.01472
1045.10 0.0147
1045.20 0.01468
1045.30 0.01466
1045.40 0.01464
1045.50 0.01462
1045.60 0.0146
1045.70 0.01458
1045.80 0.01456
1045.90 0.01454
1046.00 0.01452
1046.10 0.0145
1046.20 0.01448
1046.30 0.01446
1046.40 0.01444
1046.50 0.01442
1046.60 0.0144
1046.70 0.01438
1046.80 0.01436
1046.90 0.01434
1047.00 0.01432
1047.10 0.01431
1047.20 0.01429
1047.30 0.01427
1047.40 0.01425
1047.50 0.01424
1047.60 0.01422
1047.70 0.0142
1047.80 0.01419
1047.90 0.01417
1048.00 0.01415
1048.10 0.01414
1048.20 0.01412
1048.30 0.0141
1048.40 0.01408
1048.50 0.01407
1048.60 0.01405
1048.70 0.01403
1048.80 0.01402
1048.90 0.014
1049.00 0.01398
1049.10 0.01397
1049.20 0.01395
1049.30 0.01393
1049.40 0.01391
1049.50 0.0139
1049.60 0.01388
1049.70 0.01386
1049.80 0.01385
1049.90 0.01383
1050.00 0.01381
1050.10 0.0138
1050.20 0.01378
1050.30 0.01376
1050.40 0.01375
1050.50 0.01373
1050.60 0.01371
1050.70 0.0137
1050.80 0.01368
1050.90 0.01366
1051.00 0.01364
1051.10 0.01363
1051.20 0.01361
1051.30 0.01359
1051.40 0.01358
1051.50 0.01356
1051.60 0.01354
1051.70 0.01353
1051.80 0.01351
1051.90 0.01349
1052.00 0.01348
1052.10 0.01346
1052.20 0.01345
1052.30 0.01343
1052.40 0.01342
1052.50 0.0134
1052.60 0.01338
1052.70 0.01337
1052.80 0.01335
1052.90 0.01334
1053.00 0.01332
1053.10 0.01331
1053.20 0.01329
1053.30 0.01328
1053.40 0.01326
1053.50 0.01325
1053.60 0.01323
1053.70 0.01322
1053.80 0.0132
1053.90 0.01319
1054.00 0.01317
1054.10 0.01316
1054.20 0.01314
1054.30 0.01312
1054.40 0.01311
1054.50 0.01309
1054.60 0.01308
1054.70 0.01306
1054.80 0.01305
1054.90 0.01303
1055.00 0.01302
1055.10 0.013
1055.20 0.01299
1055.30 0.01297
1055.40 0.01296
1055.50 0.01294
1055.60 0.01293
1055.70 0.01291
1055.80 0.0129
1055.90 0.01288
1056.00 0.01287
1056.10 0.01285
1056.20 0.01284
1056.30 0.01282
1056.40 0.01281
1056.50 0.01279
1056.60 0.01277
1056.70 0.01276
1056.80 0.01274
1056.90 0.01273
1057.00 0.01271
1057.10 0.0127
1057.20 0.01269
1057.30 0.01267
1057.40 0.01266
1057.50 0.01265
1057.60 0.01263
1057.70 0.01262
1057.80 0.01261
1057.90 0.01259
1058.00 0.01258
1058.10 0.01256
1058.20 0.01255
1058.30 0.01254
1058.40 0.01252
1058.50 0.01251
1058.60 0.0125
1058.70 0.01248
1058.80 0.01247
1058.90 0.01246
1059.00 0.01244
1059.10 0.01243
1059.20 0.01242
1059.30 0.0124
1059.40 0.01239
1059.50 0.01238
1059.60 0.01236
1059.70 0.01235
1059.80 0.01233
1059.90 0.01232
1060.00 0.01231
1060.10 0.01229
1060.20 0.01228
1060.30 0.01227
1060.40 0.01225
1060.50 0.01224
1060.60 0.01223
1060.70 0.01221
1060.80 0.0122
1060.90 0.01219
1061.00 0.01217
1061.10 0.01216
1061.20 0.01215
1061.30 0.01213
1061.40 0.01212
1061.50 0.01211
1061.60 0.01209
1061.70 0.01208
1061.80 0.01207
1061.90 0.01205
1062.00 0.01204
1062.10 0.01203
1062.20 0.01202
1062.30 0.012
1062.40 0.01199
1062.50 0.01198
1062.60 0.01197
1062.70 0.01196
1062.80 0.01195
1062.90 0.01193
1063.00 0.01192
1063.10 0.01191
1063.20 0.0119
1063.30 0.01189
1063.40 0.01187
1063.50 0.01186
1063.60 0.01185
1063.70 0.01184
1063.80 0.01183
1063.90 0.01182
1064.00 0.0118
1064.10 0.01179
1064.20 0.01178
1064.30 0.01177
1064.40 0.01176
1064.50 0.01175
1064.60 0.01173
1064.70 0.01172
1064.80 0.01171
1064.90 0.0117
1065.00 0.01169
1065.10 0.01168
1065.20 0.01166
1065.30 0.01165
1065.40 0.01164
1065.50 0.01163
1065.60 0.01162
1065.70 0.01161
1065.80 0.01159
1065.90 0.01158
1066.00 0.01157
1066.10 0.01156
1066.20 0.01155
1066.30 0.01154
1066.40 0.01152
1066.50 0.01151
1066.60 0.0115
1066.70 0.01149
1066.80 0.01148
1066.90 0.01147
1067.00 0.01146
1067.10 0.01144
1067.20 0.01143
1067.30 0.01142
1067.40 0.01141
1067.50 0.0114
1067.60 0.01139
1067.70 0.01138
1067.80 0.01137
1067.90 0.01136
1068.00 0.01135
1068.10 0.01134
1068.20 0.01133
1068.30 0.01132
1068.40 0.01131
1068.50 0.01129
1068.60 0.01128
1068.70 0.01127
1068.80 0.01126
1068.90 0.01125
1069.00 0.01124
1069.10 0.01123
1069.20 0.01122
1069.30 0.01121
1069.40 0.0112
1069.50 0.01119
1069.60 0.01118
1069.70 0.01117
1069.80 0.01116
1069.90 0.01114
1070.00 0.01113
1070.10 0.01112
1070.20 0.01111
1070.30 0.0111
1070.40 0.01109
1070.50 0.01108
1070.60 0.01107
1070.70 0.01106
1070.80 0.01105
1070.90 0.01104
1071.00 0.01103
1071.10 0.01102
1071.20 0.01101
1071.30 0.011
1071.40 0.01099
1071.50 0.01097
1071.60 0.01096
1071.70 0.01095
1071.80 0.01094
1071.90 0.01093
1072.00 0.01092
1072.10 0.01091
1072.20 0.0109
1072.30 0.0109
1072.40 0.01089
1072.50 0.01088
1072.60 0.01087
1072.70 0.01086
1072.80 0.01085
1072.90 0.01085
1073.00 0.01084
1073.10 0.01083
1073.20 0.01082
1073.30 0.01081
1073.40 0.0108
1073.50 0.01079
1073.60 0.01079
1073.70 0.01078
1073.80 0.01077
1073.90 0.01077
1074.00 0.01076
1074.10 0.01075
1074.20 0.01074
1074.30 0.01074
1074.40 0.01073
1074.50 0.01072
1074.60 0.01071
1074.70 0.01071
1074.80 0.0107
1074.90 0.01069
1075.00 0.01068
1075.10 0.01068
1075.20 0.01067
1075.30 0.01066
1075.40 0.01066
1075.50 0.01065
1075.60 0.01064
1075.70 0.01063
1075.80 0.01063
1075.90 0.01062
1076.00 0.01061
1076.10 0.0106
1076.20 0.0106
1076.30 0.01059
1076.40 0.01058
1076.50 0.01057
1076.60 0.01057
1076.70 0.01056
1076.80 0.01055
1076.90 0.01055
1077.00 0.01054
1077.10 0.01053
1077.20 0.01053
1077.30 0.01052
1077.40 0.01051
1077.50 0.01051
1077.60 0.0105
1077.70 0.01049
1077.80 0.01049
1077.90 0.01048
1078.00 0.01048
1078.10 0.01047
1078.20 0.01047
1078.30 0.01046
1078.40 0.01045
1078.50 0.01045
1078.60 0.01044
1078.70 0.01044
1078.80 0.01043
1078.90 0.01042
1079.00 0.01042
1079.10 0.01041
1079.20 0.01041
1079.30 0.0104
1079.40 0.0104
1079.50 0.01039
1079.60 0.01039
1079.70 0.01038
1079.80 0.01038
1079.90 0.01037
1080.00 0.01037
1080.10 0.01036
1080.20 0.01036
1080.30 0.01035
1080.40 0.01035
1080.50 0.01035
1080.60 0.01034
1080.70 0.01034
1080.80 0.01033
1080.90 0.01033
1081.00 0.01032
1081.10 0.01032
1081.20 0.01031
1081.30 0.01031
1081.40 0.01031
1081.50 0.0103
1081.60 0.0103
1081.70 0.01029
1081.80 0.01029
1081.90 0.01028
1082.00 0.01028
1082.10 0.01027
1082.20 0.01027
1082.30 0.01027
1082.40 0.01026
1082.50 0.01026
1082.60 0.01025
1082.70 0.01025
1082.80 0.01025
1082.90 0.01024
1083.00 0.01024
1083.10 0.01023
1083.20 0.01023
1083.30 0.01023
1083.40 0.01022
1083.50 0.01022
1083.60 0.01021
1083.70 0.01021
1083.80 0.01021
1083.90 0.0102
1084.00 0.0102
1084.10 0.01019
1084.20 0.01019
1084.30 0.01019
1084.40 0.01018
1084.50 0.01018
1084.60 0.01018
1084.70 0.01017
1084.80 0.01017
1084.90 0.01017
1085.00 0.01016
1085.10 0.01016
1085.20 0.01016
1085.30 0.01015
1085.40 0.01015
1085.50 0.01015
1085.60 0.01015
1085.70 0.01014
1085.80 0.01014
1085.90 0.01014
1086.00 0.01013
1086.10 0.01013
1086.20 0.01013
1086.30 0.01012
1086.40 0.01012
1086.50 0.01012
1086.60 0.01011
1086.70 0.01011
1086.80 0.01011
1086.90 0.01011
1087.00 0.0101
1087.10 0.0101
1087.20 0.0101
1087.30 0.0101
1087.40 0.01009
1087.50 0.01009
1087.60 0.01009
1087.70 0.01009
1087.80 0.01008
1087.90 0.01008
1088.00 0.01008
1088.10 0.01008
1088.20 0.01007
1088.30 0.01007
1088.40 0.01007
1088.50 0.01007
1088.60 0.01007
1088.70 0.01006
1088.80 0.01006
1088.90 0.01006
1089.00 0.01006
1089.10 0.01006
1089.20 0.01005
1089.30 0.01005
1089.40 0.01005
1089.50 0.01005
1089.60 0.01005
1089.70 0.01005
1089.80 0.01004
1089.90 0.01004
1090.00 0.01004
1090.10 0.01004
1090.20 0.01004
1090.30 0.01003
1090.40 0.01003
1090.50 0.01003
1090.60 0.01003
1090.70 0.01003
1090.80 0.01003
1090.90 0.01003
1091.00 0.01002
1091.10 0.01002
1091.20 0.01002
1091.30 0.01002
1091.40 0.01002
1091.50 0.01002
1091.60 0.01002
1091.70 0.01002
1091.80 0.01001
1091.90 0.01001
1092.00 0.01001
1092.10 0.01001
1092.20 0.01001
1092.30 0.01001
1092.40 0.01001
1092.50 0.01001
1092.60 0.01001
1092.70 0.01001
1092.80 0.01002
1092.90 0.01002
1093.00 0.01003
1093.10 0.01004
1093.20 0.01004
1093.30 0.01004
1093.40 0.01004
1093.50 0.01003
1093.60 0.01003
1093.70 0.01003
1093.80 0.01003
1093.90 0.01003
1094.00 0.01003
1094.10 0.01003
1094.20 0.01003
1094.30 0.01003
1094.40 0.01003
1094.50 0.01003
1094.60 0.01003
1094.70 0.01003
1094.80 0.01003
1094.90 0.01003
1095.00 0.01003
1095.10 0.01003
1095.20 0.01003
1095.30 0.01003
1095.40 0.01003
1095.50 0.01003
1095.60 0.01003
1095.70 0.01003
1095.80 0.01003
1095.90 0.01002
1096.00 0.01002
1096.10 0.01002
1096.20 0.01002
1096.30 0.01002
1096.40 0.01002
1096.50 0.01002
1096.60 0.01002
1096.70 0.01002
1096.80 0.01002
1096.90 0.01002
1097.00 0.01002
1097.10 0.01002
1097.20 0.01002
1097.30 0.01002
1097.40 0.01002
1097.50 0.01002
1097.60 0.01002
1097.70 0.01002
1097.80 0.01002
1097.90 0.01002
1098.00 0.01002
1098.10 0.01002
1098.20 0.01002
1098.30 0.01002
1098.40 0.01002
1098.50 0.01002
1098.60 0.01002
1098.70 0.01002
1098.80 0.01002
1098.90 0.01002
1099.00 0.01002
1099.10 0.01002
1099.20 0.01002
1099.30 0.01002
1099.40 0.01002
1099.50 0.01002
1099.60 0.01002
1099.70 0.01002
1099.80 0.01002
1099.90 0.01002
1100.00 0.01002
1100.10 0.01003
1100.20 0.01003
1100.30 0.01003
1100.40 0.01003
1100.50 0.01003
1100.60 0.01003
1100.70 0.01003
1100.80 0.01003
1100.90 0.01003
1101.00 0.01003
1101.10 0.01003
1101.20 0.01003
1101.30 0.01003
1101.40 0.01003
1101.50 0.01003
1101.60 0.01003
1101.70 0.01003
1101.80 0.01003
1101.90 0.01003
1102.00 0.01003
1102.10 0.01003
1102.20 0.01003
1102.30 0.01003
1102.40 0.01003
1102.50 0.01004
1102.60 0.01004
1102.70 0.01004
1102.80 0.01004
1102.90 0.01004
1103.00 0.01004
1103.10 0.01004
1103.20 0.01004
1103.30 0.01004
1103.40 0.01004
1103.50 0.01004
1103.60 0.01004
1103.70 0.01004
1103.80 0.01004
1103.90 0.01004
1104.00 0.01005
1104.10 0.01005
1104.20 0.01005
1104.30 0.01005
1104.40 0.01005
1104.50 0.01005
1104.60 0.01005
1104.70 0.01005
1104.80 0.01005
1104.90 0.01005
1105.00 0.01005
1105.10 0.01005
1105.20 0.01005
1105.30 0.01005
1105.40 0.01005
1105.50 0.01005
1105.60 0.01005
1105.70 0.01006
1105.80 0.01006
1105.90 0.01006
1106.00 0.01006
1106.10 0.01006
1106.20 0.01006
1106.30 0.01006
1106.40 0.01006
1106.50 0.01007
1106.60 0.01007
1106.70 0.01007
1106.80 0.01007
1106.90 0.01007
1107.00 0.01007
1107.10 0.01007
1107.20 0.01007
1107.30 0.01007
1107.40 0.01008
1107.50 0.01008
1107.60 0.01008
1107.70 0.01008
1107.80 0.01008
1107.90 0.01008
1108.00 0.01008
1108.10 0.01009
1108.20 0.01009
1108.30 0.01009
1108.40 0.01009
1108.50 0.01009
1108.60 0.01009
1108.70 0.0101
1108.80 0.0101
1108.90 0.0101
1109.00 0.0101
1109.10 0.0101
1109.20 0.0101
1109.30 0.0101
1109.40 0.01011
1109.50 0.01011
1109.60 0.01011
1109.70 0.01011
1109.80 0.01011
1109.90 0.01012
1110.00 0.01012
1110.10 0.01012
1110.20 0.01012
1110.30 0.01012
1110.40 0.01012
1110.50 0.01013
1110.60 0.01013
1110.70 0.01013
1110.80 0.01013
1110.90 0.01013
1111.00 0.01014
1111.10 0.01014
1111.20 0.01014
1111.30 0.01014
1111.40 0.01014
1111.50 0.01015
1111.60 0.01015
1111.70 0.01015
1111.80 0.01015
1111.90 0.01015
1112.00 0.01015
1112.10 0.01016
1112.20 0.01016
1112.30 0.01016
1112.40 0.01016
1112.50 0.01017
1112.60 0.01017
1112.70 0.01017
1112.80 0.01017
1112.90 0.01017
1113.00 0.01018
1113.10 0.01018
1113.20 0.01018
1113.30 0.01018
1113.40 0.01019
1113.50 0.01019
1113.60 0.01019
1113.70 0.01019
1113.80 0.0102
1113.90 0.0102
1114.00 0.0102
1114.10 0.0102
1114.20 0.01021
1114.30 0.01021
1114.40 0.01021
1114.50 0.01021
1114.60 0.01022
1114.70 0.01022
1114.80 0.01022
1114.90 0.01022
1115.00 0.01023
1115.10 0.01023
1115.20 0.01023
1115.30 0.01023
1115.40 0.01024
1115.50 0.01024
1115.60 0.01024
1115.70 0.01025
1115.80 0.01025
1115.90 0.01025
1116.00 0.01025
1116.10 0.01026
1116.20 0.01026
1116.30 0.01026
1116.40 0.01026
1116.50 0.01027
1116.60 0.01027
1116.70 0.01027
1116.80 0.01027
1116.90 0.01028
1117.00 0.01028
1117.10 0.01028
1117.20 0.01029
1117.30 0.01029
1117.40 0.01029
1117.50 0.01029
1117.60 0.0103
1117.70 0.0103
1117.80 0.0103
1117.90 0.01031
1118.00 0.01031
1118.10 0.01031
1118.20 0.01032
1118.30 0.01032
1118.40 0.01032
1118.50 0.01033
1118.60 0.01033
1118.70 0.01033
1118.80 0.01034
1118.90 0.01034
1119.00 0.01034
1119.10 0.01034
1119.20 0.01035
1119.30 0.01035
1119.40 0.01035
1119.50 0.01036
1119.60 0.01036
1119.70 0.01036
1119.80 0.01037
1119.90 0.01037
1120.00 0.01037
1120.10 0.01038
1120.20 0.01038
1120.30 0.01038
1120.40 0.01038
1120.50 0.01039
1120.60 0.01039
1120.70 0.01039
1120.80 0.0104
1120.90 0.0104
1121.00 0.0104
1121.10 0.01041
1121.20 0.01041
1121.30 0.01041
1121.40 0.01042
1121.50 0.01042
1121.60 0.01042
1121.70 0.01042
1121.80 0.01043
1121.90 0.01043
1122.00 0.01043
1122.10 0.01044
1122.20 0.01044
1122.30 0.01045
1122.40 0.01045
1122.50 0.01046
1122.60 0.01046
1122.70 0.01047
1122.80 0.01048
1122.90 0.01048
1123.00 0.01049
1123.10 0.01049
1123.20 0.0105
1123.30 0.0105
1123.40 0.01051
1123.50 0.01051
1123.60 0.01052
1123.70 0.01052
1123.80 0.01053
1123.90 0.01053
1124.00 0.01054
1124.10 0.01054
1124.20 0.01055
1124.30 0.01055
1124.40 0.01056
1124.50 0.01056
1124.60 0.01057
1124.70 0.01057
1124.80 0.01058
1124.90 0.01058
1125.00 0.01059
1125.10 0.01059
1125.20 0.0106
1125.30 0.0106
1125.40 0.01061
1125.50 0.01061
1125.60 0.01062
1125.70 0.01062
1125.80 0.01063
1125.90 0.01063
1126.00 0.01064
1126.10 0.01064
1126.20 0.01065
1126.30 0.01065
1126.40 0.01066
1126.50 0.01066
1126.60 0.01067
1126.70 0.01067
1126.80 0.01068
1126.90 0.01068
1127.00 0.01069
1127.10 0.0107
1127.20 0.0107
1127.30 0.01071
1127.40 0.01072
1127.50 0.01072
1127.60 0.01073
1127.70 0.01074
1127.80 0.01075
1127.90 0.01075
1128.00 0.01076
1128.10 0.01077
1128.20 0.01078
1128.30 0.01078
1128.40 0.01079
1128.50 0.0108
1128.60 0.0108
1128.70 0.01081
1128.80 0.01082
1128.90 0.01083
1129.00 0.01083
1129.10 0.01084
1129.20 0.01085
1129.30 0.01085
1129.40 0.01086
1129.50 0.01087
1129.60 0.01088
1129.70 0.01088
1129.80 0.01089
1129.90 0.0109
1130.00 0.01091
1130.10 0.01091
1130.20 0.01092
1130.30 0.01093
1130.40 0.01093
1130.50 0.01094
1130.60 0.01095
1130.70 0.01096
1130.80 0.01096
1130.90 0.01097
1131.00 0.01098
1131.10 0.01098
1131.20 0.01099
1131.30 0.011
1131.40 0.01101
1131.50 0.01101
1131.60 0.01102
1131.70 0.01103
1131.80 0.01103
1131.90 0.01104
1132.00 0.01105
1132.10 0.01106
1132.20 0.01106
1132.30 0.01107
1132.40 0.01108
1132.50 0.01109
1132.60 0.01109
1132.70 0.0111
1132.80 0.01111
1132.90 0.01112
1133.00 0.01112
1133.10 0.01113
1133.20 0.01114
1133.30 0.01115
1133.40 0.01115
1133.50 0.01116
1133.60 0.01117
1133.70 0.01118
1133.80 0.01119
1133.90 0.01119
1134.00 0.0112
1134.10 0.01121
1134.20 0.01122
1134.30 0.01122
1134.40 0.01123
1134.50 0.01124
1134.60 0.01125
1134.70 0.01125
1134.80 0.01126
1134.90 0.01127
1135.00 0.01128
1135.10 0.01128
1135.20 0.01129
1135.30 0.0113
1135.40 0.01131
1135.50 0.01131
1135.60 0.01132
1135.70 0.01133
1135.80 0.01134
1135.90 0.01134
1136.00 0.01135
1136.10 0.01136
1136.20 0.01137
1136.30 0.01137
1136.40 0.01138
1136.50 0.01139
1136.60 0.0114
1136.70 0.0114
1136.80 0.01141
1136.90 0.01142
1137.00 0.01143
1137.10 0.01144
1137.20 0.01144
1137.30 0.01145
1137.40 0.01146
1137.50 0.01147
1137.60 0.01148
1137.70 0.01149
1137.80 0.01149
1137.90 0.0115
1138.00 0.01151
1138.10 0.01152
1138.20 0.01153
1138.30 0.01154
1138.40 0.01155
1138.50 0.01155
1138.60 0.01156
1138.70 0.01157
1138.80 0.01158
1138.90 0.01159
1139.00 0.0116
1139.10 0.01161
1139.20 0.01161
1139.30 0.01162
1139.40 0.01163
1139.50 0.01164
1139.60 0.01165
1139.70 0.01166
1139.80 0.01166
1139.90 0.01167
1140.00 0.01168
1140.10 0.01169
1140.20 0.0117
1140.30 0.01171
1140.40 0.01172
1140.50 0.01172
1140.60 0.01173
1140.70 0.01174
1140.80 0.01175
1140.90 0.01176
1141.00 0.01177
1141.10 0.01177
1141.20 0.01178
1141.30 0.01179
1141.40 0.0118
1141.50 0.01181
1141.60 0.01182
1141.70 0.01182
1141.80 0.01183
1141.90 0.01184
1142.00 0.01185
1142.10 0.01186
1142.20 0.01187
1142.30 0.01188
1142.40 0.01189
1142.50 0.0119
1142.60 0.01191
1142.70 0.01192
1142.80 0.01193
1142.90 0.01194
1143.00 0.01195
1143.10 0.01196
1143.20 0.01197
1143.30 0.01198
1143.40 0.01199
1143.50 0.012
1143.60 0.01201
1143.70 0.01202
1143.80 0.01203
1143.90 0.01204
1144.00 0.01205
1144.10 0.01206
1144.20 0.01207
1144.30 0.01208
1144.40 0.01209
1144.50 0.0121
1144.60 0.01211
1144.70 0.01212
1144.80 0.01213
1144.90 0.01214
1145.00 0.01215
1145.10 0.01216
1145.20 0.01217
1145.30 0.01218
1145.40 0.01219
1145.50 0.0122
1145.60 0.01221
1145.70 0.01222
1145.80 0.01223
1145.90 0.01224
1146.00 0.01225
1146.10 0.01226
1146.20 0.01227
1146.30 0.01228
1146.40 0.01229
1146.50 0.0123
1146.60 0.01231
1146.70 0.01232
1146.80 0.01233
1146.90 0.01234
1147.00 0.01235
1147.10 0.01236
1147.20 0.01236
1147.30 0.01237
1147.40 0.01238
1147.50 0.01239
1147.60 0.0124
1147.70 0.01241
1147.80 0.01242
1147.90 0.01243
1148.00 0.01244
1148.10 0.01244
1148.20 0.01245
1148.30 0.01246
1148.40 0.01247
1148.50 0.01248
1148.60 0.01249
1148.70 0.0125
1148.80 0.01251
1148.90 0.01252
1149.00 0.01253
1149.10 0.01253
1149.20 0.01254
1149.30 0.01255
1149.40 0.01256
1149.50 0.01257
1149.60 0.01258
1149.70 0.01259
1149.80 0.0126
1149.90 0.01261
1150.00 0.01261
1150.10 0.01262
1150.20 0.01263
1150.30 0.01264
1150.40 0.01265
1150.50 0.01266
1150.60 0.01267
1150.70 0.01268
1150.80 0.01269
1150.90 0.01269
1151.00 0.0127
1151.10 0.01271
1151.20 0.01272
1151.30 0.01273
1151.40 0.01274
1151.50 0.01275
1151.60 0.01276
1151.70 0.01277
1151.80 0.01277
1151.90 0.01278
1152.00 0.01279
1152.10 0.0128
1152.20 0.01281
1152.30 0.01282
1152.40 0.01283
1152.50 0.01284
1152.60 0.01285
1152.70 0.01286
1152.80 0.01287
1152.90 0.01288
1153.00 0.01289
1153.10 0.0129
1153.20 0.01291
1153.30 0.01292
1153.40 0.01293
1153.50 0.01293
1153.60 0.01294
1153.70 0.01295
1153.80 0.01296
1153.90 0.01297
1154.00 0.01298
1154.10 0.01299
1154.20 0.013
1154.30 0.01301
1154.40 0.01302
1154.50 0.01303
1154.60 0.01304
1154.70 0.01305
1154.80 0.01306
1154.90 0.01307
1155.00 0.01308
1155.10 0.01309
1155.20 0.0131
1155.30 0.01311
1155.40 0.01311
1155.50 0.01312
1155.60 0.01313
1155.70 0.01314
1155.80 0.01315
1155.90 0.01316
1156.00 0.01317
1156.10 0.01318
1156.20 0.01319
1156.30 0.0132
1156.40 0.01321
1156.50 0.01322
1156.60 0.01323
1156.70 0.01324
1156.80 0.01325
1156.90 0.01326
1157.00 0.01327
1157.10 0.01327
1157.20 0.01328
1157.30 0.01329
1157.40 0.0133
1157.50 0.01331
1157.60 0.01331
1157.70 0.01332
1157.80 0.01333
1157.90 0.01334
1158.00 0.01335
1158.10 0.01335
1158.20 0.01336
1158.30 0.01337
1158.40 0.01338
1158.50 0.01339
1158.60 0.01339
1158.70 0.0134
1158.80 0.01341
1158.90 0.01342
1159.00 0.01343
1159.10 0.01344
1159.20 0.01344
1159.30 0.01345
1159.40 0.01346
1159.50 0.01347
1159.60 0.01348
1159.70 0.01348
1159.80 0.01349
1159.90 0.0135
1160.00 0.01351
1160.10 0.01352
1160.20 0.01352
1160.30 0.01353
1160.40 0.01354
1160.50 0.01355
1160.60 0.01356
1160.70 0.01356
1160.80 0.01357
1160.90 0.01358
1161.00 0.01359
1161.10 0.0136
1161.20 0.0136
1161.30 0.01361
1161.40 0.01362
1161.50 0.01363
1161.60 0.01364
1161.70 0.01364
1161.80 0.01365
1161.90 0.01366
1162.00 0.01367
1162.10 0.01367
1162.20 0.01368
1162.30 0.01369
1162.40 0.0137
1162.50 0.0137
1162.60 0.01371
1162.70 0.01372
1162.80 0.01372
1162.90 0.01373
1163.00 0.01374
1163.10 0.01374
1163.20 0.01375
1163.30 0.01376
1163.40 0.01377
1163.50 0.01377
1163.60 0.01378
1163.70 0.01379
1163.80 0.01379
1163.90 0.0138
1164.00 0.01381
1164.10 0.01382
1164.20 0.01382
1164.30 0.01383
1164.40 0.01384
1164.50 0.01384
1164.60 0.01385
1164.70 0.01386
1164.80 0.01386
1164.90 0.01387
1165.00 0.01388
1165.10 0.01389
1165.20 0.01389
1165.30 0.0139
1165.40 0.01391
1165.50 0.01391
1165.60 0.01392
1165.70 0.01393
1165.80 0.01393
1165.90 0.01394
1166.00 0.01395
1166.10 0.01395
1166.20 0.01396
1166.30 0.01397
1166.40 0.01398
1166.50 0.01398
1166.60 0.01399
1166.70 0.014
1166.80 0.014
1166.90 0.01401
1167.00 0.01402
1167.10 0.01402
1167.20 0.01403
1167.30 0.01404
1167.40 0.01405
1167.50 0.01405
1167.60 0.01406
1167.70 0.01407
1167.80 0.01407
1167.90 0.01408
1168.00 0.01409
1168.10 0.0141
1168.20 0.0141
1168.30 0.01411
1168.40 0.01412
1168.50 0.01412
1168.60 0.01413
1168.70 0.01414
1168.80 0.01414
1168.90 0.01415
1169.00 0.01416
1169.10 0.01417
1169.20 0.01417
1169.30 0.01418
1169.40 0.01419
1169.50 0.01419
1169.60 0.0142
1169.70 0.01421
1169.80 0.01421
1169.90 0.01422
1170.00 0.01423
1170.10 0.01424
1170.20 0.01424
1170.30 0.01425
1170.40 0.01426
1170.50 0.01426
1170.60 0.01427
1170.70 0.01428
1170.80 0.01428
1170.90 0.01429
1171.00 0.0143
1171.10 0.01431
1171.20 0.01431
1171.30 0.01432
1171.40 0.01433
1171.50 0.01433
1171.60 0.01434
1171.70 0.01435
1171.80 0.01435
1171.90 0.01436
1172.00 0.01437
1172.10 0.01437
1172.20 0.01438
1172.30 0.01438
1172.40 0.01438
1172.50 0.01439
1172.60 0.01439
1172.70 0.01439
1172.80 0.0144
1172.90 0.0144
1173.00 0.0144
1173.10 0.01441
1173.20 0.01441
1173.30 0.01442
1173.40 0.01442
1173.50 0.01442
1173.60 0.01443
1173.70 0.01443
1173.80 0.01443
1173.90 0.01444
1174.00 0.01444
1174.10 0.01444
1174.20 0.01445
1174.30 0.01445
1174.40 0.01446
1174.50 0.01446
1174.60 0.01446
1174.70 0.01447
1174.80 0.01447
1174.90 0.01447
1175.00 0.01448
1175.10 0.01448
1175.20 0.01448
1175.30 0.01449
1175.40 0.01449
1175.50 0.0145
1175.60 0.0145
1175.70 0.0145
1175.80 0.01451
1175.90 0.01451
1176.00 0.01451
1176.10 0.01452
1176.20 0.01452
1176.30 0.01452
1176.40 0.01453
1176.50 0.01453
1176.60 0.01453
1176.70 0.01454
1176.80 0.01454
1176.90 0.01455
1177.00 0.01455
1177.10 0.01455
1177.20 0.01455
1177.30 0.01455
1177.40 0.01455
1177.50 0.01456
1177.60 0.01456
1177.70 0.01456
1177.80 0.01456
1177.90 0.01456
1178.00 0.01456
1178.10 0.01456
1178.20 0.01456
1178.30 0.01457
1178.40 0.01457
1178.50 0.01457
1178.60 0.01457
1178.70 0.01457
1178.80 0.01457
1178.90 0.01457
1179.00 0.01457
1179.10 0.01457
1179.20 0.01458
1179.30 0.01458
1179.40 0.01458
1179.50 0.01458
1179.60 0.01458
1179.70 0.01458
1179.80 0.01458
1179.90 0.01458
1180.00 0.01459
1180.10 0.01459
1180.20 0.01459
1180.30 0.01459
1180.40 0.01459
1180.50 0.01459
1180.60 0.01459
1180.70 0.01459
1180.80 0.0146
1180.90 0.0146
1181.00 0.0146
1181.10 0.0146
1181.20 0.0146
1181.30 0.0146
1181.40 0.0146
1181.50 0.0146
1181.60 0.01461
1181.70 0.01461
1181.80 0.01461
1181.90 0.01461
1182.00 0.01461
1182.10 0.01461
1182.20 0.01461
1182.30 0.0146
1182.40 0.0146
1182.50 0.0146
1182.60 0.0146
1182.70 0.01459
1182.80 0.01459
1182.90 0.01459
1183.00 0.01459
1183.10 0.01458
1183.20 0.01458
1183.30 0.01458
1183.40 0.01458
1183.50 0.01457
1183.60 0.01457
1183.70 0.01457
1183.80 0.01457
1183.90 0.01457
1184.00 0.01456
1184.10 0.01456
1184.20 0.01456
1184.30 0.01456
1184.40 0.01455
1184.50 0.01455
1184.60 0.01455
1184.70 0.01455
1184.80 0.01454
1184.90 0.01454
1185.00 0.01454
1185.10 0.01454
1185.20 0.01453
1185.30 0.01453
1185.40 0.01453
1185.50 0.01453
1185.60 0.01452
1185.70 0.01452
1185.80 0.01452
1185.90 0.01452
1186.00 0.01452
1186.10 0.01451
1186.20 0.01451
1186.30 0.01451
1186.40 0.01451
1186.50 0.0145
1186.60 0.0145
1186.70 0.0145
1186.80 0.0145
1186.90 0.01449
1187.00 0.01449
1187.10 0.01449
1187.20 0.01449
1187.30 0.01449
1187.40 0.01449
1187.50 0.01448
1187.60 0.01448
1187.70 0.01448
1187.80 0.01448
1187.90 0.01448
1188.00 0.01448
1188.10 0.01448
1188.20 0.01448
1188.30 0.01447
1188.40 0.01447
1188.50 0.01447
1188.60 0.01447
1188.70 0.01447
1188.80 0.01447
1188.90 0.01447
1189.00 0.01447
1189.10 0.01446
1189.20 0.01446
1189.30 0.01446
1189.40 0.01446
1189.50 0.01446
1189.60 0.01446
1189.70 0.01446
1189.80 0.01446
1189.90 0.01445
1190.00 0.01445
1190.10 0.01445
1190.20 0.01445
1190.30 0.01445
1190.40 0.01445
1190.50 0.01445
1190.60 0.01445
1190.70 0.01444
1190.80 0.01444
1190.90 0.01444
1191.00 0.01444
1191.10 0.01444
1191.20 0.01444
1191.30 0.01444
1191.40 0.01443
1191.50 0.01443
1191.60 0.01443
1191.70 0.01443
1191.80 0.01443
1191.90 0.01443
1192.00 0.01443
1192.10 0.01443
1192.20 0.01442
1192.30 0.01442
1192.40 0.01442
1192.50 0.01442
1192.60 0.01442
1192.70 0.01441
1192.80 0.01441
1192.90 0.01441
1193.00 0.01441
1193.10 0.01441
1193.20 0.01441
1193.30 0.0144
1193.40 0.0144
1193.50 0.0144
1193.60 0.0144
1193.70 0.0144
1193.80 0.01439
1193.90 0.01439
1194.00 0.01439
1194.10 0.01439
1194.20 0.01439
1194.30 0.01439
1194.40 0.01438
1194.50 0.01438
1194.60 0.01438
1194.70 0.01438
1194.80 0.01438
1194.90 0.01437
1195.00 0.01437
1195.10 0.01437
1195.20 0.01437
1195.30 0.01437
1195.40 0.01437
1195.50 0.01436
1195.60 0.01436
1195.70 0.01436
1195.80 0.01436
1195.90 0.01436
1196.00 0.01435
1196.10 0.01435
1196.20 0.01435
1196.30 0.01435
1196.40 0.01435
1196.50 0.01435
1196.60 0.01434
1196.70 0.01434
1196.80 0.01434
1196.90 0.01434
1197.00 0.01434
1197.10 0.01433
1197.20 0.01433
1197.30 0.01432
1197.40 0.01432
1197.50 0.01432
1197.60 0.01431
1197.70 0.01431
1197.80 0.0143
1197.90 0.0143
1198.00 0.0143
1198.10 0.01429
1198.20 0.01429
1198.30 0.01428
1198.40 0.01428
1198.50 0.01428
1198.60 0.01427
1198.70 0.01427
1198.80 0.01426
1198.90 0.01426
1199.00 0.01426
1199.10 0.01425
1199.20 0.01425
1199.30 0.01424
1199.40 0.01424
1199.50 0.01424
1199.60 0.01423
1199.70 0.01423
1199.80 0.01422
1199.90 0.01422
1200.00 0
