# Version 2.1 - nm, norm@500 to 1, cut digits, bergeron_90000_95.dat_90000
# Wavelength(nm)  Flambda(ergs/cm^s/s/nm)
300.00 6.81
300.10 6.801
300.20 6.793
300.30 6.784
300.40 6.776
300.50 6.767
300.60 6.759
300.70 6.75
300.80 6.742
300.90 6.734
301.00 6.725
301.10 6.717
301.20 6.708
301.30 6.7
301.40 6.692
301.50 6.683
301.60 6.675
301.70 6.667
301.80 6.658
301.90 6.65
302.00 6.642
302.10 6.634
302.20 6.625
302.30 6.617
302.40 6.609
302.50 6.601
302.60 6.592
302.70 6.584
302.80 6.576
302.90 6.568
303.00 6.56
303.10 6.552
303.20 6.544
303.30 6.535
303.40 6.527
303.50 6.519
303.60 6.511
303.70 6.503
303.80 6.495
303.90 6.487
304.00 6.479
304.10 6.471
304.20 6.463
304.30 6.455
304.40 6.447
304.50 6.439
304.60 6.431
304.70 6.423
304.80 6.415
304.90 6.407
305.00 6.399
305.10 6.392
305.20 6.384
305.30 6.376
305.40 6.368
305.50 6.36
305.60 6.352
305.70 6.345
305.80 6.337
305.90 6.329
306.00 6.321
306.10 6.313
306.20 6.306
306.30 6.298
306.40 6.29
306.50 6.282
306.60 6.275
306.70 6.267
306.80 6.259
306.90 6.252
307.00 6.244
307.10 6.236
307.20 6.229
307.30 6.221
307.40 6.214
307.50 6.206
307.60 6.198
307.70 6.191
307.80 6.183
307.90 6.176
308.00 6.168
308.10 6.161
308.20 6.153
308.30 6.146
308.40 6.138
308.50 6.131
308.60 6.123
308.70 6.116
308.80 6.108
308.90 6.101
309.00 6.093
309.10 6.086
309.20 6.079
309.30 6.071
309.40 6.064
309.50 6.056
309.60 6.049
309.70 6.042
309.80 6.034
309.90 6.027
310.00 6.02
310.10 6.012
310.20 6.005
310.30 5.998
310.40 5.991
310.50 5.983
310.60 5.976
310.70 5.969
310.80 5.962
310.90 5.954
311.00 5.947
311.10 5.94
311.20 5.933
311.30 5.926
311.40 5.918
311.50 5.911
311.60 5.904
311.70 5.897
311.80 5.89
311.90 5.883
312.00 5.876
312.10 5.869
312.20 5.862
312.30 5.855
312.40 5.847
312.50 5.84
312.60 5.833
312.70 5.826
312.80 5.819
312.90 5.812
313.00 5.805
313.10 5.798
313.20 5.791
313.30 5.784
313.40 5.778
313.50 5.771
313.60 5.764
313.70 5.757
313.80 5.75
313.90 5.743
314.00 5.736
314.10 5.729
314.20 5.722
314.30 5.715
314.40 5.709
314.50 5.702
314.60 5.695
314.70 5.688
314.80 5.681
314.90 5.675
315.00 5.668
315.10 5.661
315.20 5.654
315.30 5.647
315.40 5.641
315.50 5.634
315.60 5.627
315.70 5.621
315.80 5.614
315.90 5.607
316.00 5.601
316.10 5.594
316.20 5.587
316.30 5.581
316.40 5.574
316.50 5.567
316.60 5.561
316.70 5.554
316.80 5.547
316.90 5.541
317.00 5.534
317.10 5.528
317.20 5.521
317.30 5.515
317.40 5.508
317.50 5.502
317.60 5.495
317.70 5.488
317.80 5.482
317.90 5.475
318.00 5.469
318.10 5.462
318.20 5.456
318.30 5.45
318.40 5.443
318.50 5.437
318.60 5.43
318.70 5.424
318.80 5.417
318.90 5.411
319.00 5.405
319.10 5.398
319.20 5.392
319.30 5.386
319.40 5.379
319.50 5.373
319.60 5.366
319.70 5.36
319.80 5.354
319.90 5.348
320.00 5.341
320.10 5.335
320.20 5.329
320.30 5.322
320.40 5.316
320.50 5.31
320.60 5.304
320.70 5.297
320.80 5.291
320.90 5.285
321.00 5.279
321.10 5.273
321.20 5.266
321.30 5.26
321.40 5.254
321.50 5.248
321.60 5.242
321.70 5.236
321.80 5.23
321.90 5.223
322.00 5.217
322.10 5.211
322.20 5.205
322.30 5.199
322.40 5.193
322.50 5.187
322.60 5.181
322.70 5.175
322.80 5.169
322.90 5.163
323.00 5.157
323.10 5.151
323.20 5.145
323.30 5.139
323.40 5.133
323.50 5.127
323.60 5.121
323.70 5.115
323.80 5.109
323.90 5.103
324.00 5.097
324.10 5.091
324.20 5.085
324.30 5.079
324.40 5.073
324.50 5.067
324.60 5.061
324.70 5.056
324.80 5.05
324.90 5.044
325.00 5.038
325.10 5.032
325.20 5.026
325.30 5.02
325.40 5.015
325.50 5.009
325.60 5.003
325.70 4.997
325.80 4.992
325.90 4.986
326.00 4.98
326.10 4.974
326.20 4.968
326.30 4.963
326.40 4.957
326.50 4.951
326.60 4.946
326.70 4.94
326.80 4.934
326.90 4.928
327.00 4.923
327.10 4.917
327.20 4.911
327.30 4.906
327.40 4.9
327.50 4.894
327.60 4.889
327.70 4.883
327.80 4.878
327.90 4.872
328.00 4.866
328.10 4.861
328.20 4.855
328.30 4.85
328.40 4.844
328.50 4.838
328.60 4.833
328.70 4.827
328.80 4.822
328.90 4.816
329.00 4.811
329.10 4.805
329.20 4.8
329.30 4.794
329.40 4.789
329.50 4.783
329.60 4.778
329.70 4.772
329.80 4.767
329.90 4.761
330.00 4.756
330.10 4.751
330.20 4.745
330.30 4.74
330.40 4.734
330.50 4.729
330.60 4.724
330.70 4.718
330.80 4.713
330.90 4.707
331.00 4.702
331.10 4.697
331.20 4.691
331.30 4.686
331.40 4.681
331.50 4.675
331.60 4.67
331.70 4.665
331.80 4.659
331.90 4.654
332.00 4.649
332.10 4.644
332.20 4.638
332.30 4.633
332.40 4.628
332.50 4.623
332.60 4.617
332.70 4.612
332.80 4.607
332.90 4.602
333.00 4.596
333.10 4.591
333.20 4.586
333.30 4.581
333.40 4.576
333.50 4.57
333.60 4.565
333.70 4.56
333.80 4.555
333.90 4.55
334.00 4.545
334.10 4.539
334.20 4.534
334.30 4.529
334.40 4.524
334.50 4.519
334.60 4.514
334.70 4.509
334.80 4.504
334.90 4.499
335.00 4.494
335.10 4.489
335.20 4.483
335.30 4.478
335.40 4.473
335.50 4.468
335.60 4.463
335.70 4.458
335.80 4.453
335.90 4.448
336.00 4.443
336.10 4.438
336.20 4.433
336.30 4.428
336.40 4.423
336.50 4.418
336.60 4.413
336.70 4.409
336.80 4.404
336.90 4.399
337.00 4.394
337.10 4.389
337.20 4.384
337.30 4.379
337.40 4.374
337.50 4.369
337.60 4.364
337.70 4.359
337.80 4.354
337.90 4.35
338.00 4.345
338.10 4.34
338.20 4.335
338.30 4.33
338.40 4.325
338.50 4.321
338.60 4.316
338.70 4.311
338.80 4.306
338.90 4.301
339.00 4.297
339.10 4.292
339.20 4.287
339.30 4.282
339.40 4.277
339.50 4.273
339.60 4.268
339.70 4.263
339.80 4.258
339.90 4.254
340.00 4.249
340.10 4.244
340.20 4.24
340.30 4.235
340.40 4.23
340.50 4.225
340.60 4.221
340.70 4.216
340.80 4.211
340.90 4.207
341.00 4.202
341.10 4.197
341.20 4.193
341.30 4.188
341.40 4.184
341.50 4.179
341.60 4.174
341.70 4.17
341.80 4.165
341.90 4.16
342.00 4.156
342.10 4.151
342.20 4.147
342.30 4.142
342.40 4.138
342.50 4.133
342.60 4.128
342.70 4.124
342.80 4.119
342.90 4.115
343.00 4.11
343.10 4.106
343.20 4.101
343.30 4.097
343.40 4.092
343.50 4.088
343.60 4.083
343.70 4.079
343.80 4.074
343.90 4.07
344.00 4.065
344.10 4.061
344.20 4.056
344.30 4.052
344.40 4.047
344.50 4.043
344.60 4.039
344.70 4.034
344.80 4.03
344.90 4.025
345.00 4.021
345.10 4.017
345.20 4.012
345.30 4.008
345.40 4.003
345.50 3.999
345.60 3.995
345.70 3.99
345.80 3.986
345.90 3.981
346.00 3.977
346.10 3.973
346.20 3.968
346.30 3.964
346.40 3.96
346.50 3.955
346.60 3.951
346.70 3.947
346.80 3.943
346.90 3.938
347.00 3.934
347.10 3.93
347.20 3.925
347.30 3.921
347.40 3.917
347.50 3.913
347.60 3.908
347.70 3.904
347.80 3.9
347.90 3.896
348.00 3.891
348.10 3.887
348.20 3.883
348.30 3.879
348.40 3.874
348.50 3.87
348.60 3.866
348.70 3.862
348.80 3.858
348.90 3.854
349.00 3.849
349.10 3.845
349.20 3.841
349.30 3.837
349.40 3.833
349.50 3.829
349.60 3.824
349.70 3.82
349.80 3.816
349.90 3.812
350.00 3.808
350.10 3.804
350.20 3.8
350.30 3.796
350.40 3.792
350.50 3.787
350.60 3.783
350.70 3.779
350.80 3.775
350.90 3.771
351.00 3.767
351.10 3.763
351.20 3.759
351.30 3.755
351.40 3.751
351.50 3.747
351.60 3.743
351.70 3.739
351.80 3.735
351.90 3.731
352.00 3.727
352.10 3.723
352.20 3.719
352.30 3.715
352.40 3.711
352.50 3.707
352.60 3.703
352.70 3.699
352.80 3.695
352.90 3.691
353.00 3.687
353.10 3.683
353.20 3.679
353.30 3.675
353.40 3.671
353.50 3.667
353.60 3.663
353.70 3.659
353.80 3.655
353.90 3.652
354.00 3.648
354.10 3.644
354.20 3.64
354.30 3.636
354.40 3.632
354.50 3.628
354.60 3.624
354.70 3.62
354.80 3.617
354.90 3.613
355.00 3.609
355.10 3.605
355.20 3.601
355.30 3.597
355.40 3.594
355.50 3.59
355.60 3.586
355.70 3.582
355.80 3.578
355.90 3.574
356.00 3.571
356.10 3.567
356.20 3.563
356.30 3.559
356.40 3.556
356.50 3.552
356.60 3.548
356.70 3.544
356.80 3.54
356.90 3.537
357.00 3.533
357.10 3.529
357.20 3.525
357.30 3.522
357.40 3.518
357.50 3.514
357.60 3.511
357.70 3.507
357.80 3.503
357.90 3.499
358.00 3.496
358.10 3.492
358.20 3.488
358.30 3.485
358.40 3.481
358.50 3.477
358.60 3.474
358.70 3.47
358.80 3.466
358.90 3.463
359.00 3.459
359.10 3.455
359.20 3.452
359.30 3.448
359.40 3.444
359.50 3.441
359.60 3.437
359.70 3.434
359.80 3.43
359.90 3.426
360.00 3.423
360.10 3.419
360.20 3.416
360.30 3.412
360.40 3.408
360.50 3.405
360.60 3.401
360.70 3.398
360.80 3.394
360.90 3.391
361.00 3.387
361.10 3.383
361.20 3.38
361.30 3.376
361.40 3.373
361.50 3.369
361.60 3.366
361.70 3.362
361.80 3.359
361.90 3.355
362.00 3.352
362.10 3.348
362.20 3.345
362.30 3.341
362.40 3.338
362.50 3.334
362.60 3.331
362.70 3.327
362.80 3.324
362.90 3.32
363.00 3.317
363.10 3.313
363.20 3.31
363.30 3.306
363.40 3.303
363.50 3.3
363.60 3.296
363.70 3.293
363.80 3.289
363.90 3.286
364.00 3.282
364.10 3.279
364.20 3.276
364.30 3.272
364.40 3.269
364.50 3.265
364.60 3.262
364.70 3.259
364.80 3.255
364.90 3.252
365.00 3.248
365.10 3.245
365.20 3.242
365.30 3.238
365.40 3.235
365.50 3.232
365.60 3.228
365.70 3.225
365.80 3.222
365.90 3.218
366.00 3.215
366.10 3.212
366.20 3.208
366.30 3.205
366.40 3.202
366.50 3.198
366.60 3.195
366.70 3.192
366.80 3.188
366.90 3.185
367.00 3.182
367.10 3.179
367.20 3.175
367.30 3.172
367.40 3.169
367.50 3.165
367.60 3.162
367.70 3.159
367.80 3.156
367.90 3.152
368.00 3.149
368.10 3.146
368.20 3.142
368.30 3.139
368.40 3.136
368.50 3.133
368.60 3.129
368.70 3.126
368.80 3.123
368.90 3.119
369.00 3.116
369.10 3.113
369.20 3.11
369.30 3.106
369.40 3.103
369.50 3.1
369.60 3.097
369.70 3.093
369.80 3.09
369.90 3.087
370.00 3.084
370.10 3.08
370.20 3.077
370.30 3.074
370.40 3.071
370.50 3.067
370.60 3.064
370.70 3.061
370.80 3.058
370.90 3.054
371.00 3.051
371.10 3.048
371.20 3.045
371.30 3.042
371.40 3.038
371.50 3.035
371.60 3.032
371.70 3.029
371.80 3.026
371.90 3.022
372.00 3.019
372.10 3.016
372.20 3.013
372.30 3.01
372.40 3.007
372.50 3.004
372.60 3.001
372.70 2.998
372.80 2.995
372.90 2.992
373.00 2.989
373.10 2.986
373.20 2.983
373.30 2.98
373.40 2.977
373.50 2.974
373.60 2.971
373.70 2.969
373.80 2.966
373.90 2.963
374.00 2.96
374.10 2.957
374.20 2.954
374.30 2.95
374.40 2.947
374.50 2.944
374.60 2.941
374.70 2.938
374.80 2.935
374.90 2.932
375.00 2.929
375.10 2.926
375.20 2.923
375.30 2.92
375.40 2.917
375.50 2.914
375.60 2.911
375.70 2.908
375.80 2.905
375.90 2.902
376.00 2.899
376.10 2.896
376.20 2.893
376.30 2.89
376.40 2.887
376.50 2.884
376.60 2.881
376.70 2.878
376.80 2.875
376.90 2.872
377.00 2.869
377.10 2.866
377.20 2.863
377.30 2.86
377.40 2.857
377.50 2.854
377.60 2.851
377.70 2.848
377.80 2.845
377.90 2.843
378.00 2.84
378.10 2.837
378.20 2.834
378.30 2.831
378.40 2.828
378.50 2.825
378.60 2.823
378.70 2.82
378.80 2.817
378.90 2.814
379.00 2.811
379.10 2.808
379.20 2.805
379.30 2.803
379.40 2.8
379.50 2.797
379.60 2.794
379.70 2.791
379.80 2.788
379.90 2.785
380.00 2.783
380.10 2.78
380.20 2.777
380.30 2.774
380.40 2.771
380.50 2.769
380.60 2.766
380.70 2.763
380.80 2.76
380.90 2.758
381.00 2.755
381.10 2.752
381.20 2.749
381.30 2.747
381.40 2.744
381.50 2.741
381.60 2.738
381.70 2.736
381.80 2.733
381.90 2.73
382.00 2.727
382.10 2.725
382.20 2.722
382.30 2.719
382.40 2.717
382.50 2.714
382.60 2.711
382.70 2.708
382.80 2.706
382.90 2.703
383.00 2.7
383.10 2.698
383.20 2.695
383.30 2.692
383.40 2.69
383.50 2.687
383.60 2.684
383.70 2.682
383.80 2.679
383.90 2.676
384.00 2.674
384.10 2.671
384.20 2.668
384.30 2.666
384.40 2.663
384.50 2.661
384.60 2.658
384.70 2.655
384.80 2.653
384.90 2.65
385.00 2.647
385.10 2.645
385.20 2.642
385.30 2.64
385.40 2.637
385.50 2.635
385.60 2.632
385.70 2.629
385.80 2.627
385.90 2.624
386.00 2.622
386.10 2.619
386.20 2.617
386.30 2.614
386.40 2.611
386.50 2.609
386.60 2.606
386.70 2.604
386.80 2.601
386.90 2.599
387.00 2.596
387.10 2.594
387.20 2.591
387.30 2.589
387.40 2.586
387.50 2.584
387.60 2.581
387.70 2.579
387.80 2.576
387.90 2.574
388.00 2.571
388.10 2.569
388.20 2.566
388.30 2.564
388.40 2.561
388.50 2.559
388.60 2.556
388.70 2.554
388.80 2.552
388.90 2.549
389.00 2.547
389.10 2.544
389.20 2.542
389.30 2.539
389.40 2.537
389.50 2.535
389.60 2.532
389.70 2.53
389.80 2.527
389.90 2.525
390.00 2.523
390.10 2.52
390.20 2.518
390.30 2.515
390.40 2.513
390.50 2.511
390.60 2.508
390.70 2.506
390.80 2.504
390.90 2.501
391.00 2.499
391.10 2.497
391.20 2.494
391.30 2.492
391.40 2.489
391.50 2.487
391.60 2.485
391.70 2.482
391.80 2.48
391.90 2.478
392.00 2.475
392.10 2.473
392.20 2.471
392.30 2.468
392.40 2.466
392.50 2.464
392.60 2.461
392.70 2.459
392.80 2.457
392.90 2.454
393.00 2.452
393.10 2.45
393.20 2.447
393.30 2.445
393.40 2.443
393.50 2.44
393.60 2.438
393.70 2.436
393.80 2.433
393.90 2.431
394.00 2.429
394.10 2.426
394.20 2.424
394.30 2.422
394.40 2.419
394.50 2.417
394.60 2.415
394.70 2.412
394.80 2.41
394.90 2.408
395.00 2.405
395.10 2.403
395.20 2.401
395.30 2.398
395.40 2.396
395.50 2.394
395.60 2.391
395.70 2.389
395.80 2.387
395.90 2.384
396.00 2.382
396.10 2.38
396.20 2.378
396.30 2.375
396.40 2.373
396.50 2.371
396.60 2.369
396.70 2.366
396.80 2.364
396.90 2.362
397.00 2.36
397.10 2.358
397.20 2.356
397.30 2.353
397.40 2.351
397.50 2.349
397.60 2.347
397.70 2.345
397.80 2.343
397.90 2.341
398.00 2.339
398.10 2.337
398.20 2.335
398.30 2.333
398.40 2.331
398.50 2.329
398.60 2.327
398.70 2.325
398.80 2.323
398.90 2.321
399.00 2.319
399.10 2.317
399.20 2.315
399.30 2.313
399.40 2.311
399.50 2.309
399.60 2.307
399.70 2.305
399.80 2.303
399.90 2.301
400.00 2.299
400.10 2.297
400.20 2.295
400.30 2.293
400.40 2.291
400.50 2.289
400.60 2.287
400.70 2.285
400.80 2.283
400.90 2.281
401.00 2.279
401.10 2.277
401.20 2.275
401.30 2.273
401.40 2.271
401.50 2.269
401.60 2.267
401.70 2.265
401.80 2.263
401.90 2.261
402.00 2.258
402.10 2.256
402.20 2.254
402.30 2.252
402.40 2.25
402.50 2.248
402.60 2.246
402.70 2.244
402.80 2.241
402.90 2.239
403.00 2.237
403.10 2.235
403.20 2.233
403.30 2.231
403.40 2.228
403.50 2.226
403.60 2.224
403.70 2.222
403.80 2.22
403.90 2.217
404.00 2.215
404.10 2.213
404.20 2.211
404.30 2.209
404.40 2.206
404.50 2.204
404.60 2.202
404.70 2.199
404.80 2.197
404.90 2.195
405.00 2.193
405.10 2.19
405.20 2.188
405.30 2.186
405.40 2.183
405.50 2.181
405.60 2.179
405.70 2.176
405.80 2.174
405.90 2.172
406.00 2.169
406.10 2.167
406.20 2.165
406.30 2.162
406.40 2.16
406.50 2.157
406.60 2.155
406.70 2.153
406.80 2.15
406.90 2.148
407.00 2.145
407.10 2.143
407.20 2.141
407.30 2.138
407.40 2.136
407.50 2.133
407.60 2.131
407.70 2.129
407.80 2.126
407.90 2.124
408.00 2.121
408.10 2.119
408.20 2.116
408.30 2.114
408.40 2.112
408.50 2.109
408.60 2.107
408.70 2.105
408.80 2.102
408.90 2.1
409.00 2.098
409.10 2.096
409.20 2.093
409.30 2.091
409.40 2.089
409.50 2.087
409.60 2.085
409.70 2.083
409.80 2.082
409.90 2.08
410.00 2.079
410.10 2.077
410.20 2.075
410.30 2.073
410.40 2.071
410.50 2.069
410.60 2.067
410.70 2.065
410.80 2.064
410.90 2.062
411.00 2.061
411.10 2.059
411.20 2.058
411.30 2.056
411.40 2.055
411.50 2.054
411.60 2.052
411.70 2.051
411.80 2.05
411.90 2.048
412.00 2.047
412.10 2.046
412.20 2.045
412.30 2.044
412.40 2.042
412.50 2.041
412.60 2.04
412.70 2.039
412.80 2.037
412.90 2.036
413.00 2.035
413.10 2.034
413.20 2.033
413.30 2.031
413.40 2.03
413.50 2.029
413.60 2.028
413.70 2.026
413.80 2.025
413.90 2.024
414.00 2.023
414.10 2.021
414.20 2.02
414.30 2.019
414.40 2.017
414.50 2.016
414.60 2.015
414.70 2.014
414.80 2.012
414.90 2.011
415.00 2.01
415.10 2.008
415.20 2.007
415.30 2.006
415.40 2.004
415.50 2.003
415.60 2.001
415.70 2
415.80 1.999
415.90 1.997
416.00 1.996
416.10 1.994
416.20 1.993
416.30 1.991
416.40 1.99
416.50 1.989
416.60 1.987
416.70 1.986
416.80 1.984
416.90 1.983
417.00 1.981
417.10 1.98
417.20 1.978
417.30 1.977
417.40 1.975
417.50 1.974
417.60 1.972
417.70 1.971
417.80 1.969
417.90 1.968
418.00 1.966
418.10 1.964
418.20 1.963
418.30 1.961
418.40 1.96
418.50 1.958
418.60 1.957
418.70 1.955
418.80 1.953
418.90 1.952
419.00 1.95
419.10 1.948
419.20 1.947
419.30 1.945
419.40 1.944
419.50 1.942
419.60 1.94
419.70 1.939
419.80 1.937
419.90 1.935
420.00 1.934
420.10 1.932
420.20 1.93
420.30 1.928
420.40 1.927
420.50 1.925
420.60 1.923
420.70 1.922
420.80 1.92
420.90 1.918
421.00 1.916
421.10 1.915
421.20 1.913
421.30 1.911
421.40 1.909
421.50 1.908
421.60 1.906
421.70 1.904
421.80 1.902
421.90 1.901
422.00 1.899
422.10 1.897
422.20 1.895
422.30 1.893
422.40 1.891
422.50 1.89
422.60 1.888
422.70 1.886
422.80 1.884
422.90 1.882
423.00 1.88
423.10 1.878
423.20 1.877
423.30 1.875
423.40 1.873
423.50 1.871
423.60 1.869
423.70 1.867
423.80 1.865
423.90 1.863
424.00 1.861
424.10 1.859
424.20 1.857
424.30 1.855
424.40 1.853
424.50 1.851
424.60 1.849
424.70 1.847
424.80 1.845
424.90 1.843
425.00 1.841
425.10 1.839
425.20 1.837
425.30 1.835
425.40 1.833
425.50 1.831
425.60 1.829
425.70 1.827
425.80 1.825
425.90 1.823
426.00 1.821
426.10 1.818
426.20 1.816
426.30 1.814
426.40 1.812
426.50 1.81
426.60 1.808
426.70 1.805
426.80 1.803
426.90 1.801
427.00 1.799
427.10 1.796
427.20 1.794
427.30 1.792
427.40 1.79
427.50 1.787
427.60 1.785
427.70 1.783
427.80 1.78
427.90 1.778
428.00 1.776
428.10 1.773
428.20 1.771
428.30 1.768
428.40 1.766
428.50 1.763
428.60 1.761
428.70 1.759
428.80 1.756
428.90 1.754
429.00 1.751
429.10 1.748
429.20 1.746
429.30 1.743
429.40 1.741
429.50 1.738
429.60 1.736
429.70 1.733
429.80 1.73
429.90 1.728
430.00 1.725
430.10 1.722
430.20 1.72
430.30 1.717
430.40 1.714
430.50 1.711
430.60 1.709
430.70 1.706
430.80 1.703
430.90 1.7
431.00 1.697
431.10 1.695
431.20 1.692
431.30 1.689
431.40 1.686
431.50 1.683
431.60 1.68
431.70 1.677
431.80 1.674
431.90 1.672
432.00 1.669
432.10 1.666
432.20 1.663
432.30 1.66
432.40 1.657
432.50 1.654
432.60 1.651
432.70 1.648
432.80 1.645
432.90 1.641
433.00 1.638
433.10 1.635
433.20 1.632
433.30 1.628
433.40 1.625
433.50 1.621
433.60 1.618
433.70 1.614
433.80 1.61
433.90 1.606
434.00 1.603
434.10 1.602
434.20 1.603
434.30 1.604
434.40 1.605
434.50 1.607
434.60 1.608
434.70 1.608
434.80 1.609
434.90 1.61
435.00 1.61
435.10 1.611
435.20 1.611
435.30 1.612
435.40 1.612
435.50 1.612
435.60 1.613
435.70 1.613
435.80 1.613
435.90 1.613
436.00 1.613
436.10 1.614
436.20 1.614
436.30 1.614
436.40 1.614
436.50 1.614
436.60 1.614
436.70 1.614
436.80 1.614
436.90 1.614
437.00 1.614
437.10 1.614
437.20 1.614
437.30 1.614
437.40 1.614
437.50 1.614
437.60 1.613
437.70 1.613
437.80 1.613
437.90 1.613
438.00 1.613
438.10 1.613
438.20 1.612
438.30 1.612
438.40 1.612
438.50 1.612
438.60 1.611
438.70 1.611
438.80 1.611
438.90 1.61
439.00 1.61
439.10 1.609
439.20 1.609
439.30 1.609
439.40 1.608
439.50 1.608
439.60 1.607
439.70 1.607
439.80 1.606
439.90 1.606
440.00 1.605
440.10 1.604
440.20 1.604
440.30 1.603
440.40 1.603
440.50 1.602
440.60 1.601
440.70 1.601
440.80 1.6
440.90 1.599
441.00 1.599
441.10 1.598
441.20 1.597
441.30 1.597
441.40 1.596
441.50 1.595
441.60 1.594
441.70 1.593
441.80 1.593
441.90 1.592
442.00 1.591
442.10 1.59
442.20 1.589
442.30 1.589
442.40 1.588
442.50 1.587
442.60 1.586
442.70 1.585
442.80 1.584
442.90 1.583
443.00 1.582
443.10 1.581
443.20 1.58
443.30 1.579
443.40 1.579
443.50 1.578
443.60 1.577
443.70 1.576
443.80 1.575
443.90 1.574
444.00 1.573
444.10 1.572
444.20 1.571
444.30 1.57
444.40 1.569
444.50 1.568
444.60 1.567
444.70 1.566
444.80 1.564
444.90 1.563
445.00 1.562
445.10 1.561
445.20 1.56
445.30 1.559
445.40 1.558
445.50 1.557
445.60 1.556
445.70 1.555
445.80 1.554
445.90 1.553
446.00 1.552
446.10 1.55
446.20 1.549
446.30 1.548
446.40 1.547
446.50 1.546
446.60 1.545
446.70 1.544
446.80 1.543
446.90 1.541
447.00 1.54
447.10 1.539
447.20 1.538
447.30 1.537
447.40 1.536
447.50 1.535
447.60 1.533
447.70 1.532
447.80 1.531
447.90 1.53
448.00 1.529
448.10 1.528
448.20 1.527
448.30 1.525
448.40 1.524
448.50 1.523
448.60 1.522
448.70 1.521
448.80 1.52
448.90 1.518
449.00 1.517
449.10 1.516
449.20 1.515
449.30 1.514
449.40 1.512
449.50 1.511
449.60 1.51
449.70 1.509
449.80 1.508
449.90 1.507
450.00 1.505
450.10 1.504
450.20 1.503
450.30 1.502
450.40 1.501
450.50 1.499
450.60 1.498
450.70 1.497
450.80 1.496
450.90 1.495
451.00 1.493
451.10 1.492
451.20 1.491
451.30 1.49
451.40 1.489
451.50 1.487
451.60 1.486
451.70 1.485
451.80 1.484
451.90 1.483
452.00 1.481
452.10 1.48
452.20 1.479
452.30 1.478
452.40 1.477
452.50 1.475
452.60 1.474
452.70 1.473
452.80 1.472
452.90 1.471
453.00 1.469
453.10 1.468
453.20 1.467
453.30 1.466
453.40 1.465
453.50 1.463
453.60 1.462
453.70 1.461
453.80 1.46
453.90 1.459
454.00 1.457
454.10 1.456
454.20 1.455
454.30 1.454
454.40 1.453
454.50 1.451
454.60 1.45
454.70 1.449
454.80 1.448
454.90 1.447
455.00 1.445
455.10 1.444
455.20 1.443
455.30 1.442
455.40 1.441
455.50 1.439
455.60 1.438
455.70 1.437
455.80 1.436
455.90 1.435
456.00 1.433
456.10 1.432
456.20 1.431
456.30 1.43
456.40 1.429
456.50 1.427
456.60 1.426
456.70 1.425
456.80 1.424
456.90 1.423
457.00 1.421
457.10 1.42
457.20 1.419
457.30 1.418
457.40 1.417
457.50 1.416
457.60 1.414
457.70 1.413
457.80 1.412
457.90 1.411
458.00 1.41
458.10 1.408
458.20 1.407
458.30 1.406
458.40 1.405
458.50 1.404
458.60 1.402
458.70 1.401
458.80 1.4
458.90 1.399
459.00 1.398
459.10 1.397
459.20 1.395
459.30 1.394
459.40 1.393
459.50 1.392
459.60 1.391
459.70 1.39
459.80 1.388
459.90 1.387
460.00 1.386
460.10 1.385
460.20 1.384
460.30 1.382
460.40 1.381
460.50 1.38
460.60 1.379
460.70 1.378
460.80 1.377
460.90 1.375
461.00 1.374
461.10 1.373
461.20 1.372
461.30 1.371
461.40 1.37
461.50 1.368
461.60 1.367
461.70 1.366
461.80 1.365
461.90 1.364
462.00 1.363
462.10 1.361
462.20 1.36
462.30 1.359
462.40 1.358
462.50 1.357
462.60 1.356
462.70 1.354
462.80 1.353
462.90 1.352
463.00 1.351
463.10 1.35
463.20 1.349
463.30 1.348
463.40 1.346
463.50 1.345
463.60 1.344
463.70 1.343
463.80 1.342
463.90 1.341
464.00 1.339
464.10 1.338
464.20 1.337
464.30 1.336
464.40 1.335
464.50 1.334
464.60 1.333
464.70 1.331
464.80 1.33
464.90 1.329
465.00 1.328
465.10 1.327
465.20 1.326
465.30 1.324
465.40 1.323
465.50 1.322
465.60 1.321
465.70 1.32
465.80 1.319
465.90 1.318
466.00 1.316
466.10 1.315
466.20 1.314
466.30 1.313
466.40 1.312
466.50 1.311
466.60 1.31
466.70 1.308
466.80 1.307
466.90 1.306
467.00 1.305
467.10 1.304
467.20 1.303
467.30 1.301
467.40 1.3
467.50 1.299
467.60 1.298
467.70 1.297
467.80 1.296
467.90 1.295
468.00 1.293
468.10 1.292
468.20 1.291
468.30 1.29
468.40 1.289
468.50 1.288
468.60 1.287
468.70 1.285
468.80 1.284
468.90 1.283
469.00 1.282
469.10 1.281
469.20 1.28
469.30 1.278
469.40 1.277
469.50 1.276
469.60 1.275
469.70 1.274
469.80 1.273
469.90 1.271
470.00 1.27
470.10 1.269
470.20 1.268
470.30 1.267
470.40 1.266
470.50 1.264
470.60 1.263
470.70 1.262
470.80 1.261
470.90 1.26
471.00 1.259
471.10 1.257
471.20 1.256
471.30 1.255
471.40 1.254
471.50 1.253
471.60 1.252
471.70 1.25
471.80 1.249
471.90 1.248
472.00 1.247
472.10 1.246
472.20 1.244
472.30 1.243
472.40 1.242
472.50 1.241
472.60 1.24
472.70 1.238
472.80 1.237
472.90 1.236
473.00 1.235
473.10 1.234
473.20 1.232
473.30 1.231
473.40 1.23
473.50 1.229
473.60 1.227
473.70 1.226
473.80 1.225
473.90 1.224
474.00 1.223
474.10 1.221
474.20 1.22
474.30 1.219
474.40 1.218
474.50 1.216
474.60 1.215
474.70 1.214
474.80 1.212
474.90 1.211
475.00 1.21
475.10 1.209
475.20 1.207
475.30 1.206
475.40 1.205
475.50 1.203
475.60 1.202
475.70 1.201
475.80 1.199
475.90 1.198
476.00 1.197
476.10 1.196
476.20 1.194
476.30 1.193
476.40 1.191
476.50 1.19
476.60 1.189
476.70 1.187
476.80 1.186
476.90 1.185
477.00 1.183
477.10 1.182
477.20 1.18
477.30 1.179
477.40 1.177
477.50 1.176
477.60 1.174
477.70 1.173
477.80 1.172
477.90 1.17
478.00 1.169
478.10 1.167
478.20 1.166
478.30 1.164
478.40 1.163
478.50 1.161
478.60 1.159
478.70 1.158
478.80 1.156
478.90 1.155
479.00 1.153
479.10 1.152
479.20 1.15
479.30 1.148
479.40 1.147
479.50 1.145
479.60 1.143
479.70 1.141
479.80 1.14
479.90 1.138
480.00 1.136
480.10 1.135
480.20 1.133
480.30 1.131
480.40 1.129
480.50 1.127
480.60 1.126
480.70 1.124
480.80 1.122
480.90 1.12
481.00 1.118
481.10 1.116
481.20 1.114
481.30 1.112
481.40 1.11
481.50 1.108
481.60 1.106
481.70 1.104
481.80 1.102
481.90 1.1
482.00 1.098
482.10 1.096
482.20 1.094
482.30 1.092
482.40 1.089
482.50 1.087
482.60 1.085
482.70 1.082
482.80 1.08
482.90 1.078
483.00 1.076
483.10 1.074
483.20 1.071
483.30 1.069
483.40 1.066
483.50 1.064
483.60 1.061
483.70 1.059
483.80 1.056
483.90 1.054
484.00 1.051
484.10 1.049
484.20 1.046
484.30 1.044
484.40 1.041
484.50 1.039
484.60 1.036
484.70 1.034
484.80 1.031
484.90 1.029
485.00 1.027
485.10 1.024
485.20 1.022
485.30 1.02
485.40 1.018
485.50 1.017
485.60 1.016
485.70 1.015
485.80 1.017
485.90 1.02
486.00 1.025
486.10 1.029
486.20 1.027
486.30 1.02
486.40 1.015
486.50 1.011
486.60 1.008
486.70 1.007
486.80 1.007
486.90 1.007
487.00 1.007
487.10 1.008
487.20 1.009
487.30 1.009
487.40 1.01
487.50 1.011
487.60 1.012
487.70 1.013
487.80 1.014
487.90 1.015
488.00 1.016
488.10 1.017
488.20 1.017
488.30 1.018
488.40 1.019
488.50 1.02
488.60 1.021
488.70 1.021
488.80 1.022
488.90 1.023
489.00 1.024
489.10 1.025
489.20 1.025
489.30 1.026
489.40 1.026
489.50 1.027
489.60 1.027
489.70 1.028
489.80 1.029
489.90 1.029
490.00 1.03
490.10 1.03
490.20 1.031
490.30 1.031
490.40 1.031
490.50 1.031
490.60 1.032
490.70 1.032
490.80 1.032
490.90 1.033
491.00 1.033
491.10 1.033
491.20 1.033
491.30 1.033
491.40 1.033
491.50 1.034
491.60 1.034
491.70 1.034
491.80 1.034
491.90 1.034
492.00 1.034
492.10 1.034
492.20 1.034
492.30 1.034
492.40 1.034
492.50 1.034
492.60 1.034
492.70 1.033
492.80 1.033
492.90 1.033
493.00 1.033
493.10 1.033
493.20 1.033
493.30 1.033
493.40 1.032
493.50 1.032
493.60 1.032
493.70 1.032
493.80 1.031
493.90 1.031
494.00 1.031
494.10 1.031
494.20 1.03
494.30 1.03
494.40 1.03
494.50 1.029
494.60 1.029
494.70 1.028
494.80 1.028
494.90 1.028
495.00 1.027
495.10 1.027
495.20 1.027
495.30 1.026
495.40 1.026
495.50 1.025
495.60 1.025
495.70 1.024
495.80 1.024
495.90 1.023
496.00 1.023
496.10 1.023
496.20 1.022
496.30 1.021
496.40 1.021
496.50 1.02
496.60 1.02
496.70 1.019
496.80 1.019
496.90 1.018
497.00 1.018
497.10 1.017
497.20 1.017
497.30 1.016
497.40 1.016
497.50 1.015
497.60 1.015
497.70 1.014
497.80 1.013
497.90 1.013
498.00 1.012
498.10 1.012
498.20 1.011
498.30 1.011
498.40 1.01
498.50 1.009
498.60 1.009
498.70 1.008
498.80 1.007
498.90 1.007
499.00 1.006
499.10 1.006
499.20 1.005
499.30 1.004
499.40 1.004
499.50 1.003
499.60 1.003
499.70 1.002
499.80 1.001
499.90 1.001
500.00 1
500.10 0.9994
500.20 0.9987
500.30 0.9981
500.40 0.9974
500.50 0.9968
500.60 0.9961
500.70 0.9955
500.80 0.9948
500.90 0.9941
501.00 0.9935
501.10 0.9928
501.20 0.9922
501.30 0.9915
501.40 0.9908
501.50 0.9902
501.60 0.9895
501.70 0.9888
501.80 0.9882
501.90 0.9875
502.00 0.9868
502.10 0.9862
502.20 0.9855
502.30 0.9848
502.40 0.9841
502.50 0.9835
502.60 0.9828
502.70 0.9821
502.80 0.9814
502.90 0.9807
503.00 0.9801
503.10 0.9794
503.20 0.9787
503.30 0.978
503.40 0.9773
503.50 0.9767
503.60 0.976
503.70 0.9753
503.80 0.9746
503.90 0.9739
504.00 0.9732
504.10 0.9725
504.20 0.9719
504.30 0.9712
504.40 0.9705
504.50 0.9698
504.60 0.9691
504.70 0.9684
504.80 0.9677
504.90 0.967
505.00 0.9664
505.10 0.9657
505.20 0.965
505.30 0.9643
505.40 0.9636
505.50 0.9629
505.60 0.9622
505.70 0.9615
505.80 0.9608
505.90 0.9601
506.00 0.9594
506.10 0.9588
506.20 0.9581
506.30 0.9574
506.40 0.9567
506.50 0.956
506.60 0.9553
506.70 0.9546
506.80 0.9539
506.90 0.9532
507.00 0.9525
507.10 0.9518
507.20 0.9512
507.30 0.9505
507.40 0.9498
507.50 0.9491
507.60 0.9484
507.70 0.9477
507.80 0.947
507.90 0.9463
508.00 0.9456
508.10 0.9449
508.20 0.9443
508.30 0.9436
508.40 0.9429
508.50 0.9422
508.60 0.9415
508.70 0.9408
508.80 0.9401
508.90 0.9394
509.00 0.9387
509.10 0.9381
509.20 0.9374
509.30 0.9367
509.40 0.936
509.50 0.9353
509.60 0.9346
509.70 0.9339
509.80 0.9332
509.90 0.9326
510.00 0.9319
510.10 0.9312
510.20 0.9305
510.30 0.9298
510.40 0.9291
510.50 0.9285
510.60 0.9278
510.70 0.9271
510.80 0.9264
510.90 0.9257
511.00 0.925
511.10 0.9244
511.20 0.9237
511.30 0.923
511.40 0.9223
511.50 0.9216
511.60 0.921
511.70 0.9203
511.80 0.9196
511.90 0.9189
512.00 0.9182
512.10 0.9176
512.20 0.9169
512.30 0.9162
512.40 0.9155
512.50 0.9149
512.60 0.9142
512.70 0.9135
512.80 0.9128
512.90 0.9122
513.00 0.9115
513.10 0.9108
513.20 0.9101
513.30 0.9095
513.40 0.9088
513.50 0.9081
513.60 0.9075
513.70 0.9068
513.80 0.9061
513.90 0.9054
514.00 0.9048
514.10 0.9041
514.20 0.9034
514.30 0.9028
514.40 0.9021
514.50 0.9014
514.60 0.9008
514.70 0.9001
514.80 0.8994
514.90 0.8988
515.00 0.8981
515.10 0.8975
515.20 0.8968
515.30 0.8961
515.40 0.8955
515.50 0.8948
515.60 0.8941
515.70 0.8935
515.80 0.8928
515.90 0.8922
516.00 0.8915
516.10 0.8908
516.20 0.8902
516.30 0.8895
516.40 0.8889
516.50 0.8882
516.60 0.8875
516.70 0.8869
516.80 0.8862
516.90 0.8856
517.00 0.8849
517.10 0.8843
517.20 0.8836
517.30 0.883
517.40 0.8823
517.50 0.8817
517.60 0.881
517.70 0.8804
517.80 0.8797
517.90 0.8791
518.00 0.8784
518.10 0.8778
518.20 0.8771
518.30 0.8765
518.40 0.8758
518.50 0.8752
518.60 0.8745
518.70 0.8739
518.80 0.8732
518.90 0.8726
519.00 0.8719
519.10 0.8713
519.20 0.8707
519.30 0.87
519.40 0.8694
519.50 0.8687
519.60 0.8681
519.70 0.8674
519.80 0.8668
519.90 0.8662
520.00 0.8655
520.10 0.8649
520.20 0.8643
520.30 0.8636
520.40 0.863
520.50 0.8623
520.60 0.8617
520.70 0.8611
520.80 0.8604
520.90 0.8598
521.00 0.8592
521.10 0.8585
521.20 0.8579
521.30 0.8573
521.40 0.8566
521.50 0.856
521.60 0.8554
521.70 0.8547
521.80 0.8541
521.90 0.8535
522.00 0.8529
522.10 0.8522
522.20 0.8516
522.30 0.851
522.40 0.8504
522.50 0.8497
522.60 0.8491
522.70 0.8485
522.80 0.8479
522.90 0.8472
523.00 0.8466
523.10 0.846
523.20 0.8454
523.30 0.8447
523.40 0.8441
523.50 0.8435
523.60 0.8429
523.70 0.8423
523.80 0.8416
523.90 0.841
524.00 0.8404
524.10 0.8398
524.20 0.8392
524.30 0.8386
524.40 0.8379
524.50 0.8373
524.60 0.8367
524.70 0.8361
524.80 0.8355
524.90 0.8349
525.00 0.8343
525.10 0.8336
525.20 0.833
525.30 0.8324
525.40 0.8318
525.50 0.8312
525.60 0.8306
525.70 0.83
525.80 0.8294
525.90 0.8288
526.00 0.8282
526.10 0.8276
526.20 0.8269
526.30 0.8263
526.40 0.8257
526.50 0.8251
526.60 0.8245
526.70 0.8239
526.80 0.8233
526.90 0.8227
527.00 0.8221
527.10 0.8215
527.20 0.8209
527.30 0.8203
527.40 0.8197
527.50 0.8191
527.60 0.8185
527.70 0.8179
527.80 0.8173
527.90 0.8167
528.00 0.8161
528.10 0.8155
528.20 0.8149
528.30 0.8143
528.40 0.8137
528.50 0.8132
528.60 0.8126
528.70 0.812
528.80 0.8114
528.90 0.8108
529.00 0.8102
529.10 0.8096
529.20 0.809
529.30 0.8084
529.40 0.8078
529.50 0.8072
529.60 0.8067
529.70 0.8061
529.80 0.8055
529.90 0.8049
530.00 0.8043
530.10 0.8037
530.20 0.8031
530.30 0.8026
530.40 0.802
530.50 0.8014
530.60 0.8008
530.70 0.8002
530.80 0.7996
530.90 0.799
531.00 0.7985
531.10 0.7979
531.20 0.7973
531.30 0.7967
531.40 0.7961
531.50 0.7956
531.60 0.795
531.70 0.7944
531.80 0.7938
531.90 0.7933
532.00 0.7927
532.10 0.7921
532.20 0.7915
532.30 0.791
532.40 0.7904
532.50 0.7898
532.60 0.7892
532.70 0.7887
532.80 0.7881
532.90 0.7875
533.00 0.787
533.10 0.7864
533.20 0.7858
533.30 0.7853
533.40 0.7847
533.50 0.7841
533.60 0.7835
533.70 0.783
533.80 0.7824
533.90 0.7818
534.00 0.7813
534.10 0.7807
534.20 0.7801
534.30 0.7796
534.40 0.779
534.50 0.7785
534.60 0.7779
534.70 0.7773
534.80 0.7768
534.90 0.7762
535.00 0.7756
535.10 0.7751
535.20 0.7745
535.30 0.774
535.40 0.7734
535.50 0.7728
535.60 0.7723
535.70 0.7717
535.80 0.7712
535.90 0.7706
536.00 0.7701
536.10 0.7695
536.20 0.7689
536.30 0.7684
536.40 0.7678
536.50 0.7673
536.60 0.7667
536.70 0.7662
536.80 0.7656
536.90 0.7651
537.00 0.7645
537.10 0.764
537.20 0.7634
537.30 0.7629
537.40 0.7623
537.50 0.7618
537.60 0.7612
537.70 0.7607
537.80 0.7601
537.90 0.7596
538.00 0.759
538.10 0.7585
538.20 0.758
538.30 0.7574
538.40 0.7569
538.50 0.7563
538.60 0.7558
538.70 0.7552
538.80 0.7547
538.90 0.7541
539.00 0.7536
539.10 0.7531
539.20 0.7525
539.30 0.752
539.40 0.7514
539.50 0.7509
539.60 0.7504
539.70 0.7498
539.80 0.7493
539.90 0.7488
540.00 0.7482
540.10 0.7477
540.20 0.7472
540.30 0.7466
540.40 0.7461
540.50 0.7456
540.60 0.745
540.70 0.7445
540.80 0.744
540.90 0.7434
541.00 0.7429
541.10 0.7424
541.20 0.7418
541.30 0.7413
541.40 0.7408
541.50 0.7402
541.60 0.7397
541.70 0.7392
541.80 0.7386
541.90 0.7381
542.00 0.7376
542.10 0.7371
542.20 0.7365
542.30 0.736
542.40 0.7355
542.50 0.735
542.60 0.7344
542.70 0.7339
542.80 0.7334
542.90 0.7329
543.00 0.7323
543.10 0.7318
543.20 0.7313
543.30 0.7308
543.40 0.7303
543.50 0.7297
543.60 0.7292
543.70 0.7287
543.80 0.7282
543.90 0.7277
544.00 0.7271
544.10 0.7266
544.20 0.7261
544.30 0.7256
544.40 0.7251
544.50 0.7246
544.60 0.724
544.70 0.7235
544.80 0.723
544.90 0.7225
545.00 0.722
545.10 0.7215
545.20 0.721
545.30 0.7205
545.40 0.7199
545.50 0.7194
545.60 0.7189
545.70 0.7184
545.80 0.7179
545.90 0.7174
546.00 0.7169
546.10 0.7164
546.20 0.7159
546.30 0.7154
546.40 0.7149
546.50 0.7143
546.60 0.7138
546.70 0.7133
546.80 0.7128
546.90 0.7123
547.00 0.7118
547.10 0.7113
547.20 0.7108
547.30 0.7103
547.40 0.7098
547.50 0.7093
547.60 0.7088
547.70 0.7083
547.80 0.7078
547.90 0.7073
548.00 0.7068
548.10 0.7063
548.20 0.7058
548.30 0.7053
548.40 0.7048
548.50 0.7043
548.60 0.7038
548.70 0.7033
548.80 0.7028
548.90 0.7023
549.00 0.7018
549.10 0.7013
549.20 0.7008
549.30 0.7003
549.40 0.6998
549.50 0.6993
549.60 0.6989
549.70 0.6984
549.80 0.6979
549.90 0.6974
550.00 0.6969
550.10 0.6964
550.20 0.6959
550.30 0.6954
550.40 0.6949
550.50 0.6944
550.60 0.6939
550.70 0.6935
550.80 0.693
550.90 0.6925
551.00 0.692
551.10 0.6915
551.20 0.691
551.30 0.6905
551.40 0.6901
551.50 0.6896
551.60 0.6891
551.70 0.6886
551.80 0.6881
551.90 0.6876
552.00 0.6871
552.10 0.6867
552.20 0.6862
552.30 0.6857
552.40 0.6852
552.50 0.6847
552.60 0.6843
552.70 0.6838
552.80 0.6833
552.90 0.6828
553.00 0.6823
553.10 0.6819
553.20 0.6814
553.30 0.6809
553.40 0.6804
553.50 0.68
553.60 0.6795
553.70 0.679
553.80 0.6785
553.90 0.6781
554.00 0.6776
554.10 0.6771
554.20 0.6766
554.30 0.6762
554.40 0.6757
554.50 0.6752
554.60 0.6747
554.70 0.6743
554.80 0.6738
554.90 0.6733
555.00 0.6729
555.10 0.6724
555.20 0.6719
555.30 0.6714
555.40 0.671
555.50 0.6705
555.60 0.67
555.70 0.6696
555.80 0.6691
555.90 0.6686
556.00 0.6682
556.10 0.6677
556.20 0.6672
556.30 0.6668
556.40 0.6663
556.50 0.6659
556.60 0.6654
556.70 0.6649
556.80 0.6645
556.90 0.664
557.00 0.6635
557.10 0.6631
557.20 0.6626
557.30 0.6622
557.40 0.6617
557.50 0.6612
557.60 0.6608
557.70 0.6603
557.80 0.6599
557.90 0.6594
558.00 0.6589
558.10 0.6585
558.20 0.658
558.30 0.6576
558.40 0.6571
558.50 0.6567
558.60 0.6562
558.70 0.6557
558.80 0.6553
558.90 0.6548
559.00 0.6544
559.10 0.6539
559.20 0.6535
559.30 0.653
559.40 0.6526
559.50 0.6521
559.60 0.6517
559.70 0.6512
559.80 0.6508
559.90 0.6503
560.00 0.6499
560.10 0.6494
560.20 0.649
560.30 0.6485
560.40 0.6481
560.50 0.6476
560.60 0.6472
560.70 0.6467
560.80 0.6463
560.90 0.6458
561.00 0.6454
561.10 0.6449
561.20 0.6445
561.30 0.644
561.40 0.6436
561.50 0.6431
561.60 0.6427
561.70 0.6423
561.80 0.6418
561.90 0.6414
562.00 0.6409
562.10 0.6405
562.20 0.64
562.30 0.6396
562.40 0.6392
562.50 0.6387
562.60 0.6383
562.70 0.6378
562.80 0.6374
562.90 0.637
563.00 0.6365
563.10 0.6361
563.20 0.6356
563.30 0.6352
563.40 0.6348
563.50 0.6343
563.60 0.6339
563.70 0.6335
563.80 0.633
563.90 0.6326
564.00 0.6322
564.10 0.6317
564.20 0.6313
564.30 0.6308
564.40 0.6304
564.50 0.63
564.60 0.6296
564.70 0.6291
564.80 0.6287
564.90 0.6283
565.00 0.6278
565.10 0.6274
565.20 0.627
565.30 0.6265
565.40 0.6261
565.50 0.6257
565.60 0.6252
565.70 0.6248
565.80 0.6244
565.90 0.624
566.00 0.6235
566.10 0.6231
566.20 0.6227
566.30 0.6222
566.40 0.6218
566.50 0.6214
566.60 0.621
566.70 0.6205
566.80 0.6201
566.90 0.6197
567.00 0.6193
567.10 0.6188
567.20 0.6184
567.30 0.618
567.40 0.6176
567.50 0.6172
567.60 0.6167
567.70 0.6163
567.80 0.6159
567.90 0.6155
568.00 0.615
568.10 0.6146
568.20 0.6142
568.30 0.6138
568.40 0.6134
568.50 0.613
568.60 0.6125
568.70 0.6121
568.80 0.6117
568.90 0.6113
569.00 0.6109
569.10 0.6104
569.20 0.61
569.30 0.6096
569.40 0.6092
569.50 0.6088
569.60 0.6084
569.70 0.608
569.80 0.6075
569.90 0.6071
570.00 0.6067
570.10 0.6063
570.20 0.6059
570.30 0.6055
570.40 0.6051
570.50 0.6047
570.60 0.6042
570.70 0.6038
570.80 0.6034
570.90 0.603
571.00 0.6026
571.10 0.6022
571.20 0.6018
571.30 0.6014
571.40 0.601
571.50 0.6006
571.60 0.6001
571.70 0.5997
571.80 0.5993
571.90 0.5989
572.00 0.5985
572.10 0.5981
572.20 0.5977
572.30 0.5973
572.40 0.5969
572.50 0.5965
572.60 0.5961
572.70 0.5957
572.80 0.5953
572.90 0.5949
573.00 0.5945
573.10 0.5941
573.20 0.5937
573.30 0.5933
573.40 0.5929
573.50 0.5925
573.60 0.5921
573.70 0.5917
573.80 0.5913
573.90 0.5909
574.00 0.5905
574.10 0.5901
574.20 0.5897
574.30 0.5893
574.40 0.5889
574.50 0.5885
574.60 0.5881
574.70 0.5877
574.80 0.5873
574.90 0.5869
575.00 0.5865
575.10 0.5861
575.20 0.5857
575.30 0.5853
575.40 0.5849
575.50 0.5845
575.60 0.5841
575.70 0.5837
575.80 0.5833
575.90 0.5829
576.00 0.5825
576.10 0.5821
576.20 0.5818
576.30 0.5814
576.40 0.581
576.50 0.5806
576.60 0.5802
576.70 0.5798
576.80 0.5794
576.90 0.579
577.00 0.5786
577.10 0.5782
577.20 0.5778
577.30 0.5775
577.40 0.5771
577.50 0.5767
577.60 0.5763
577.70 0.5759
577.80 0.5755
577.90 0.5751
578.00 0.5747
578.10 0.5744
578.20 0.574
578.30 0.5736
578.40 0.5732
578.50 0.5728
578.60 0.5724
578.70 0.5721
578.80 0.5717
578.90 0.5713
579.00 0.5709
579.10 0.5705
579.20 0.5701
579.30 0.5698
579.40 0.5694
579.50 0.569
579.60 0.5686
579.70 0.5682
579.80 0.5678
579.90 0.5675
580.00 0.5671
580.10 0.5667
580.20 0.5663
580.30 0.5659
580.40 0.5656
580.50 0.5652
580.60 0.5648
580.70 0.5644
580.80 0.5641
580.90 0.5637
581.00 0.5633
581.10 0.5629
581.20 0.5626
581.30 0.5622
581.40 0.5618
581.50 0.5614
581.60 0.561
581.70 0.5607
581.80 0.5603
581.90 0.5599
582.00 0.5596
582.10 0.5592
582.20 0.5588
582.30 0.5584
582.40 0.5581
582.50 0.5577
582.60 0.5573
582.70 0.5569
582.80 0.5566
582.90 0.5562
583.00 0.5558
583.10 0.5555
583.20 0.5551
583.30 0.5547
583.40 0.5544
583.50 0.554
583.60 0.5536
583.70 0.5532
583.80 0.5529
583.90 0.5525
584.00 0.5521
584.10 0.5518
584.20 0.5514
584.30 0.551
584.40 0.5507
584.50 0.5503
584.60 0.5499
584.70 0.5496
584.80 0.5492
584.90 0.5488
585.00 0.5485
585.10 0.5481
585.20 0.5478
585.30 0.5474
585.40 0.547
585.50 0.5467
585.60 0.5463
585.70 0.5459
585.80 0.5456
585.90 0.5452
586.00 0.5449
586.10 0.5445
586.20 0.5441
586.30 0.5438
586.40 0.5434
586.50 0.543
586.60 0.5427
586.70 0.5423
586.80 0.542
586.90 0.5416
587.00 0.5413
587.10 0.5409
587.20 0.5405
587.30 0.5402
587.40 0.5398
587.50 0.5395
587.60 0.5391
587.70 0.5388
587.80 0.5384
587.90 0.538
588.00 0.5377
588.10 0.5373
588.20 0.537
588.30 0.5366
588.40 0.5363
588.50 0.5359
588.60 0.5356
588.70 0.5352
588.80 0.5348
588.90 0.5345
589.00 0.5341
589.10 0.5338
589.20 0.5334
589.30 0.5331
589.40 0.5327
589.50 0.5324
589.60 0.532
589.70 0.5317
589.80 0.5313
589.90 0.531
590.00 0.5306
590.10 0.5303
590.20 0.5299
590.30 0.5296
590.40 0.5292
590.50 0.5289
590.60 0.5285
590.70 0.5282
590.80 0.5278
590.90 0.5275
591.00 0.5271
591.10 0.5268
591.20 0.5265
591.30 0.5261
591.40 0.5258
591.50 0.5254
591.60 0.5251
591.70 0.5247
591.80 0.5244
591.90 0.524
592.00 0.5237
592.10 0.5233
592.20 0.523
592.30 0.5227
592.40 0.5223
592.50 0.522
592.60 0.5216
592.70 0.5213
592.80 0.5209
592.90 0.5206
593.00 0.5203
593.10 0.5199
593.20 0.5196
593.30 0.5192
593.40 0.5189
593.50 0.5186
593.60 0.5182
593.70 0.5179
593.80 0.5175
593.90 0.5172
594.00 0.5169
594.10 0.5165
594.20 0.5162
594.30 0.5159
594.40 0.5155
594.50 0.5152
594.60 0.5148
594.70 0.5145
594.80 0.5142
594.90 0.5138
595.00 0.5135
595.10 0.5132
595.20 0.5128
595.30 0.5125
595.40 0.5122
595.50 0.5118
595.60 0.5115
595.70 0.5112
595.80 0.5108
595.90 0.5105
596.00 0.5102
596.10 0.5098
596.20 0.5095
596.30 0.5092
596.40 0.5088
596.50 0.5085
596.60 0.5082
596.70 0.5078
596.80 0.5075
596.90 0.5072
597.00 0.5068
597.10 0.5065
597.20 0.5062
597.30 0.5058
597.40 0.5055
597.50 0.5052
597.60 0.5049
597.70 0.5045
597.80 0.5042
597.90 0.5039
598.00 0.5035
598.10 0.5032
598.20 0.5029
598.30 0.5026
598.40 0.5022
598.50 0.5019
598.60 0.5016
598.70 0.5013
598.80 0.5009
598.90 0.5006
599.00 0.5003
599.10 0.5
599.20 0.4996
599.30 0.4993
599.40 0.499
599.50 0.4987
599.60 0.4983
599.70 0.498
599.80 0.4977
599.90 0.4974
600.00 0.497
600.10 0.4967
600.20 0.4964
600.30 0.4961
600.40 0.4958
600.50 0.4954
600.60 0.4951
600.70 0.4948
600.80 0.4945
600.90 0.4941
601.00 0.4938
601.10 0.4935
601.20 0.4932
601.30 0.4929
601.40 0.4925
601.50 0.4922
601.60 0.4919
601.70 0.4916
601.80 0.4913
601.90 0.491
602.00 0.4906
602.10 0.4903
602.20 0.49
602.30 0.4897
602.40 0.4894
602.50 0.4891
602.60 0.4887
602.70 0.4884
602.80 0.4881
602.90 0.4878
603.00 0.4875
603.10 0.4872
603.20 0.4868
603.30 0.4865
603.40 0.4862
603.50 0.4859
603.60 0.4856
603.70 0.4853
603.80 0.485
603.90 0.4847
604.00 0.4843
604.10 0.484
604.20 0.4837
604.30 0.4834
604.40 0.4831
604.50 0.4828
604.60 0.4825
604.70 0.4822
604.80 0.4818
604.90 0.4815
605.00 0.4812
605.10 0.4809
605.20 0.4806
605.30 0.4803
605.40 0.48
605.50 0.4797
605.60 0.4794
605.70 0.4791
605.80 0.4788
605.90 0.4784
606.00 0.4781
606.10 0.4778
606.20 0.4775
606.30 0.4772
606.40 0.4769
606.50 0.4766
606.60 0.4763
606.70 0.476
606.80 0.4757
606.90 0.4754
607.00 0.4751
607.10 0.4748
607.20 0.4745
607.30 0.4742
607.40 0.4739
607.50 0.4736
607.60 0.4733
607.70 0.4729
607.80 0.4726
607.90 0.4723
608.00 0.472
608.10 0.4717
608.20 0.4714
608.30 0.4711
608.40 0.4708
608.50 0.4705
608.60 0.4702
608.70 0.4699
608.80 0.4696
608.90 0.4693
609.00 0.469
609.10 0.4687
609.20 0.4684
609.30 0.4681
609.40 0.4678
609.50 0.4675
609.60 0.4672
609.70 0.4669
609.80 0.4666
609.90 0.4663
610.00 0.466
610.10 0.4657
610.20 0.4654
610.30 0.4651
610.40 0.4648
610.50 0.4645
610.60 0.4642
610.70 0.4639
610.80 0.4637
610.90 0.4634
611.00 0.4631
611.10 0.4628
611.20 0.4625
611.30 0.4622
611.40 0.4619
611.50 0.4616
611.60 0.4613
611.70 0.461
611.80 0.4607
611.90 0.4604
612.00 0.4601
612.10 0.4598
612.20 0.4595
612.30 0.4592
612.40 0.4589
612.50 0.4586
612.60 0.4584
612.70 0.4581
612.80 0.4578
612.90 0.4575
613.00 0.4572
613.10 0.4569
613.20 0.4566
613.30 0.4563
613.40 0.456
613.50 0.4557
613.60 0.4554
613.70 0.4552
613.80 0.4549
613.90 0.4546
614.00 0.4543
614.10 0.454
614.20 0.4537
614.30 0.4534
614.40 0.4531
614.50 0.4528
614.60 0.4526
614.70 0.4523
614.80 0.452
614.90 0.4517
615.00 0.4514
615.10 0.4511
615.20 0.4508
615.30 0.4505
615.40 0.4503
615.50 0.45
615.60 0.4497
615.70 0.4494
615.80 0.4491
615.90 0.4488
616.00 0.4485
616.10 0.4483
616.20 0.448
616.30 0.4477
616.40 0.4474
616.50 0.4471
616.60 0.4468
616.70 0.4466
616.80 0.4463
616.90 0.446
617.00 0.4457
617.10 0.4454
617.20 0.4451
617.30 0.4449
617.40 0.4446
617.50 0.4443
617.60 0.444
617.70 0.4437
617.80 0.4435
617.90 0.4432
618.00 0.4429
618.10 0.4426
618.20 0.4423
618.30 0.442
618.40 0.4418
618.50 0.4415
618.60 0.4412
618.70 0.4409
618.80 0.4406
618.90 0.4404
619.00 0.4401
619.10 0.4398
619.20 0.4395
619.30 0.4393
619.40 0.439
619.50 0.4387
619.60 0.4384
619.70 0.4381
619.80 0.4379
619.90 0.4376
620.00 0.4373
620.10 0.437
620.20 0.4368
620.30 0.4365
620.40 0.4362
620.50 0.4359
620.60 0.4357
620.70 0.4354
620.80 0.4351
620.90 0.4348
621.00 0.4346
621.10 0.4343
621.20 0.434
621.30 0.4337
621.40 0.4335
621.50 0.4332
621.60 0.4329
621.70 0.4326
621.80 0.4324
621.90 0.4321
622.00 0.4318
622.10 0.4315
622.20 0.4313
622.30 0.431
622.40 0.4307
622.50 0.4305
622.60 0.4302
622.70 0.4299
622.80 0.4296
622.90 0.4294
623.00 0.4291
623.10 0.4288
623.20 0.4286
623.30 0.4283
623.40 0.428
623.50 0.4278
623.60 0.4275
623.70 0.4272
623.80 0.4269
623.90 0.4267
624.00 0.4264
624.10 0.4261
624.20 0.4259
624.30 0.4256
624.40 0.4253
624.50 0.4251
624.60 0.4248
624.70 0.4245
624.80 0.4243
624.90 0.424
625.00 0.4237
625.10 0.4235
625.20 0.4232
625.30 0.4229
625.40 0.4227
625.50 0.4224
625.60 0.4221
625.70 0.4219
625.80 0.4216
625.90 0.4213
626.00 0.4211
626.10 0.4208
626.20 0.4205
626.30 0.4203
626.40 0.42
626.50 0.4197
626.60 0.4195
626.70 0.4192
626.80 0.4189
626.90 0.4187
627.00 0.4184
627.10 0.4181
627.20 0.4179
627.30 0.4176
627.40 0.4174
627.50 0.4171
627.60 0.4168
627.70 0.4166
627.80 0.4163
627.90 0.416
628.00 0.4158
628.10 0.4155
628.20 0.4152
628.30 0.415
628.40 0.4147
628.50 0.4145
628.60 0.4142
628.70 0.4139
628.80 0.4137
628.90 0.4134
629.00 0.4132
629.10 0.4129
629.20 0.4126
629.30 0.4124
629.40 0.4121
629.50 0.4119
629.60 0.4116
629.70 0.4113
629.80 0.4111
629.90 0.4108
630.00 0.4106
630.10 0.4103
630.20 0.41
630.30 0.4098
630.40 0.4095
630.50 0.4093
630.60 0.409
630.70 0.4087
630.80 0.4085
630.90 0.4082
631.00 0.408
631.10 0.4077
631.20 0.4074
631.30 0.4072
631.40 0.4069
631.50 0.4067
631.60 0.4064
631.70 0.4062
631.80 0.4059
631.90 0.4056
632.00 0.4054
632.10 0.4051
632.20 0.4049
632.30 0.4046
632.40 0.4044
632.50 0.4041
632.60 0.4038
632.70 0.4036
632.80 0.4033
632.90 0.4031
633.00 0.4028
633.10 0.4026
633.20 0.4023
633.30 0.402
633.40 0.4018
633.50 0.4015
633.60 0.4013
633.70 0.401
633.80 0.4008
633.90 0.4005
634.00 0.4003
634.10 0.4
634.20 0.3997
634.30 0.3995
634.40 0.3992
634.50 0.399
634.60 0.3987
634.70 0.3985
634.80 0.3982
634.90 0.398
635.00 0.3977
635.10 0.3974
635.20 0.3972
635.30 0.3969
635.40 0.3967
635.50 0.3964
635.60 0.3962
635.70 0.3959
635.80 0.3957
635.90 0.3954
636.00 0.3951
636.10 0.3949
636.20 0.3946
636.30 0.3944
636.40 0.3941
636.50 0.3939
636.60 0.3936
636.70 0.3934
636.80 0.3931
636.90 0.3929
637.00 0.3926
637.10 0.3923
637.20 0.3921
637.30 0.3918
637.40 0.3916
637.50 0.3913
637.60 0.3911
637.70 0.3908
637.80 0.3906
637.90 0.3903
638.00 0.39
638.10 0.3898
638.20 0.3895
638.30 0.3893
638.40 0.389
638.50 0.3888
638.60 0.3885
638.70 0.3883
638.80 0.388
638.90 0.3877
639.00 0.3875
639.10 0.3872
639.20 0.387
639.30 0.3867
639.40 0.3865
639.50 0.3862
639.60 0.3859
639.70 0.3857
639.80 0.3854
639.90 0.3852
640.00 0.3849
640.10 0.3846
640.20 0.3844
640.30 0.3841
640.40 0.3839
640.50 0.3836
640.60 0.3833
640.70 0.3831
640.80 0.3828
640.90 0.3826
641.00 0.3823
641.10 0.382
641.20 0.3818
641.30 0.3815
641.40 0.3813
641.50 0.381
641.60 0.3807
641.70 0.3805
641.80 0.3802
641.90 0.3799
642.00 0.3797
642.10 0.3794
642.20 0.3792
642.30 0.3789
642.40 0.3786
642.50 0.3783
642.60 0.3781
642.70 0.3778
642.80 0.3775
642.90 0.3773
643.00 0.377
643.10 0.3767
643.20 0.3765
643.30 0.3762
643.40 0.3759
643.50 0.3756
643.60 0.3754
643.70 0.3751
643.80 0.3748
643.90 0.3745
644.00 0.3743
644.10 0.374
644.20 0.3737
644.30 0.3734
644.40 0.3732
644.50 0.3729
644.60 0.3726
644.70 0.3723
644.80 0.372
644.90 0.3717
645.00 0.3715
645.10 0.3712
645.20 0.3709
645.30 0.3706
645.40 0.3703
645.50 0.37
645.60 0.3697
645.70 0.3694
645.80 0.3691
645.90 0.3688
646.00 0.3685
646.10 0.3682
646.20 0.3679
646.30 0.3676
646.40 0.3673
646.50 0.367
646.60 0.3667
646.70 0.3664
646.80 0.3661
646.90 0.3658
647.00 0.3655
647.10 0.3652
647.20 0.3648
647.30 0.3645
647.40 0.3642
647.50 0.3639
647.60 0.3635
647.70 0.3632
647.80 0.3629
647.90 0.3625
648.00 0.3622
648.10 0.3619
648.20 0.3615
648.30 0.3612
648.40 0.3608
648.50 0.3605
648.60 0.3601
648.70 0.3598
648.80 0.3594
648.90 0.3591
649.00 0.3587
649.10 0.3583
649.20 0.358
649.30 0.3576
649.40 0.3572
649.50 0.3568
649.60 0.3564
649.70 0.3561
649.80 0.3557
649.90 0.3553
650.00 0.3549
650.10 0.3545
650.20 0.3541
650.30 0.3537
650.40 0.3533
650.50 0.3528
650.60 0.3524
650.70 0.352
650.80 0.3515
650.90 0.3511
651.00 0.3507
651.10 0.3502
651.20 0.3498
651.30 0.3493
651.40 0.3489
651.50 0.3484
651.60 0.3479
651.70 0.3474
651.80 0.3469
651.90 0.3464
652.00 0.3459
652.10 0.3455
652.20 0.345
652.30 0.3445
652.40 0.3439
652.50 0.3434
652.60 0.3428
652.70 0.3423
652.80 0.3417
652.90 0.3412
653.00 0.3407
653.10 0.3401
653.20 0.3396
653.30 0.339
653.40 0.3384
653.50 0.3378
653.60 0.3372
653.70 0.3366
653.80 0.336
653.90 0.3354
654.00 0.3348
654.10 0.3342
654.20 0.3336
654.30 0.333
654.40 0.3324
654.50 0.3318
654.60 0.3312
654.70 0.3305
654.80 0.3299
654.90 0.3293
655.00 0.3287
655.10 0.3281
655.20 0.3275
655.30 0.3269
655.40 0.3264
655.50 0.3259
655.60 0.3255
655.70 0.3252
655.80 0.3252
655.90 0.3255
656.00 0.3268
656.10 0.3286
656.20 0.3367
656.30 0.3456
656.40 0.332
656.50 0.3269
656.60 0.3251
656.70 0.3237
656.80 0.3233
656.90 0.323
657.00 0.323
657.10 0.323
657.20 0.3232
657.30 0.3233
657.40 0.3235
657.50 0.3238
657.60 0.324
657.70 0.3242
657.80 0.3244
657.90 0.3247
658.00 0.3249
658.10 0.3251
658.20 0.3254
658.30 0.3256
658.40 0.3258
658.50 0.326
658.60 0.3262
658.70 0.3264
658.80 0.3266
658.90 0.3268
659.00 0.3271
659.10 0.3273
659.20 0.3275
659.30 0.3277
659.40 0.3278
659.50 0.3279
659.60 0.3281
659.70 0.3282
659.80 0.3284
659.90 0.3285
660.00 0.3286
660.10 0.3288
660.20 0.3289
660.30 0.3291
660.40 0.3291
660.50 0.3292
660.60 0.3293
660.70 0.3294
660.80 0.3294
660.90 0.3295
661.00 0.3296
661.10 0.3297
661.20 0.3297
661.30 0.3298
661.40 0.3298
661.50 0.3298
661.60 0.3299
661.70 0.3299
661.80 0.3299
661.90 0.3299
662.00 0.3299
662.10 0.33
662.20 0.33
662.30 0.33
662.40 0.33
662.50 0.3299
662.60 0.3299
662.70 0.3299
662.80 0.3299
662.90 0.3298
663.00 0.3298
663.10 0.3298
663.20 0.3297
663.30 0.3297
663.40 0.3296
663.50 0.3296
663.60 0.3295
663.70 0.3295
663.80 0.3294
663.90 0.3293
664.00 0.3293
664.10 0.3292
664.20 0.3291
664.30 0.3291
664.40 0.329
664.50 0.3289
664.60 0.3288
664.70 0.3287
664.80 0.3286
664.90 0.3285
665.00 0.3284
665.10 0.3283
665.20 0.3282
665.30 0.3282
665.40 0.328
665.50 0.3279
665.60 0.3278
665.70 0.3277
665.80 0.3276
665.90 0.3275
666.00 0.3274
666.10 0.3273
666.20 0.3271
666.30 0.327
666.40 0.3269
666.50 0.3268
666.60 0.3266
666.70 0.3265
666.80 0.3264
666.90 0.3263
667.00 0.3261
667.10 0.326
667.20 0.3259
667.30 0.3257
667.40 0.3256
667.50 0.3255
667.60 0.3253
667.70 0.3252
667.80 0.325
667.90 0.3249
668.00 0.3248
668.10 0.3246
668.20 0.3245
668.30 0.3243
668.40 0.3242
668.50 0.324
668.60 0.3239
668.70 0.3237
668.80 0.3236
668.90 0.3234
669.00 0.3233
669.10 0.3231
669.20 0.323
669.30 0.3229
669.40 0.3227
669.50 0.3225
669.60 0.3224
669.70 0.3222
669.80 0.3221
669.90 0.3219
670.00 0.3218
670.10 0.3216
670.20 0.3215
670.30 0.3213
670.40 0.3211
670.50 0.321
670.60 0.3208
670.70 0.3207
670.80 0.3205
670.90 0.3203
671.00 0.3202
671.10 0.32
671.20 0.3199
671.30 0.3197
671.40 0.3195
671.50 0.3194
671.60 0.3192
671.70 0.319
671.80 0.3189
671.90 0.3187
672.00 0.3185
672.10 0.3184
672.20 0.3182
672.30 0.3181
672.40 0.3179
672.50 0.3177
672.60 0.3176
672.70 0.3174
672.80 0.3172
672.90 0.3171
673.00 0.3169
673.10 0.3167
673.20 0.3166
673.30 0.3164
673.40 0.3162
673.50 0.3161
673.60 0.3159
673.70 0.3157
673.80 0.3156
673.90 0.3154
674.00 0.3152
674.10 0.3151
674.20 0.3149
674.30 0.3147
674.40 0.3145
674.50 0.3144
674.60 0.3142
674.70 0.314
674.80 0.3139
674.90 0.3137
675.00 0.3135
675.10 0.3134
675.20 0.3132
675.30 0.313
675.40 0.3129
675.50 0.3127
675.60 0.3125
675.70 0.3123
675.80 0.3122
675.90 0.312
676.00 0.3118
676.10 0.3117
676.20 0.3115
676.30 0.3113
676.40 0.3112
676.50 0.311
676.60 0.3108
676.70 0.3106
676.80 0.3105
676.90 0.3103
677.00 0.3101
677.10 0.31
677.20 0.3098
677.30 0.3096
677.40 0.3095
677.50 0.3093
677.60 0.3091
677.70 0.3089
677.80 0.3088
677.90 0.3086
678.00 0.3084
678.10 0.3083
678.20 0.3081
678.30 0.3079
678.40 0.3078
678.50 0.3076
678.60 0.3074
678.70 0.3072
678.80 0.3071
678.90 0.3069
679.00 0.3067
679.10 0.3066
679.20 0.3064
679.30 0.3062
679.40 0.3061
679.50 0.3059
679.60 0.3057
679.70 0.3055
679.80 0.3054
679.90 0.3052
680.00 0.305
680.10 0.3049
680.20 0.3047
680.30 0.3045
680.40 0.3044
680.50 0.3042
680.60 0.304
680.70 0.3039
680.80 0.3037
680.90 0.3035
681.00 0.3033
681.10 0.3032
681.20 0.303
681.30 0.3028
681.40 0.3027
681.50 0.3025
681.60 0.3023
681.70 0.3022
681.80 0.302
681.90 0.3018
682.00 0.3017
682.10 0.3015
682.20 0.3013
682.30 0.3012
682.40 0.301
682.50 0.3008
682.60 0.3007
682.70 0.3005
682.80 0.3003
682.90 0.3002
683.00 0.3
683.10 0.2998
683.20 0.2996
683.30 0.2995
683.40 0.2993
683.50 0.2991
683.60 0.299
683.70 0.2988
683.80 0.2986
683.90 0.2985
684.00 0.2983
684.10 0.2981
684.20 0.298
684.30 0.2978
684.40 0.2976
684.50 0.2975
684.60 0.2973
684.70 0.2971
684.80 0.297
684.90 0.2968
685.00 0.2966
685.10 0.2965
685.20 0.2963
685.30 0.2961
685.40 0.296
685.50 0.2958
685.60 0.2957
685.70 0.2955
685.80 0.2953
685.90 0.2952
686.00 0.295
686.10 0.2948
686.20 0.2947
686.30 0.2945
686.40 0.2943
686.50 0.2942
686.60 0.294
686.70 0.2938
686.80 0.2937
686.90 0.2935
687.00 0.2933
687.10 0.2932
687.20 0.293
687.30 0.2929
687.40 0.2927
687.50 0.2925
687.60 0.2924
687.70 0.2922
687.80 0.292
687.90 0.2919
688.00 0.2917
688.10 0.2915
688.20 0.2914
688.30 0.2912
688.40 0.2911
688.50 0.2909
688.60 0.2907
688.70 0.2906
688.80 0.2904
688.90 0.2902
689.00 0.2901
689.10 0.2899
689.20 0.2898
689.30 0.2896
689.40 0.2894
689.50 0.2893
689.60 0.2891
689.70 0.2889
689.80 0.2888
689.90 0.2886
690.00 0.2885
690.10 0.2883
690.20 0.2881
690.30 0.288
690.40 0.2878
690.50 0.2877
690.60 0.2875
690.70 0.2873
690.80 0.2872
690.90 0.287
691.00 0.2869
691.10 0.2867
691.20 0.2865
691.30 0.2864
691.40 0.2862
691.50 0.2861
691.60 0.2859
691.70 0.2857
691.80 0.2856
691.90 0.2854
692.00 0.2853
692.10 0.2851
692.20 0.2849
692.30 0.2848
692.40 0.2846
692.50 0.2845
692.60 0.2843
692.70 0.2841
692.80 0.284
692.90 0.2838
693.00 0.2837
693.10 0.2835
693.20 0.2834
693.30 0.2832
693.40 0.283
693.50 0.2829
693.60 0.2827
693.70 0.2826
693.80 0.2824
693.90 0.2822
694.00 0.2821
694.10 0.2819
694.20 0.2818
694.30 0.2816
694.40 0.2815
694.50 0.2813
694.60 0.2811
694.70 0.281
694.80 0.2808
694.90 0.2807
695.00 0.2805
695.10 0.2804
695.20 0.2802
695.30 0.28
695.40 0.2799
695.50 0.2797
695.60 0.2796
695.70 0.2794
695.80 0.2793
695.90 0.2791
696.00 0.279
696.10 0.2788
696.20 0.2786
696.30 0.2785
696.40 0.2783
696.50 0.2782
696.60 0.278
696.70 0.2779
696.80 0.2777
696.90 0.2776
697.00 0.2774
697.10 0.2773
697.20 0.2771
697.30 0.2769
697.40 0.2768
697.50 0.2766
697.60 0.2765
697.70 0.2763
697.80 0.2762
697.90 0.276
698.00 0.2759
698.10 0.2757
698.20 0.2756
698.30 0.2754
698.40 0.2753
698.50 0.2751
698.60 0.275
698.70 0.2748
698.80 0.2746
698.90 0.2745
699.00 0.2743
699.10 0.2742
699.20 0.274
699.30 0.2739
699.40 0.2737
699.50 0.2736
699.60 0.2734
699.70 0.2733
699.80 0.2731
699.90 0.273
700.00 0.2728
700.10 0.2727
700.20 0.2725
700.30 0.2724
700.40 0.2722
700.50 0.2721
700.60 0.2719
700.70 0.2718
700.80 0.2716
700.90 0.2715
701.00 0.2713
701.10 0.2712
701.20 0.271
701.30 0.2709
701.40 0.2707
701.50 0.2706
701.60 0.2704
701.70 0.2703
701.80 0.2701
701.90 0.27
702.00 0.2698
702.10 0.2697
702.20 0.2695
702.30 0.2694
702.40 0.2692
702.50 0.2691
702.60 0.2689
702.70 0.2688
702.80 0.2686
702.90 0.2685
703.00 0.2683
703.10 0.2682
703.20 0.268
703.30 0.2679
703.40 0.2677
703.50 0.2676
703.60 0.2674
703.70 0.2673
703.80 0.2671
703.90 0.267
704.00 0.2668
704.10 0.2667
704.20 0.2666
704.30 0.2664
704.40 0.2663
704.50 0.2661
704.60 0.266
704.70 0.2658
704.80 0.2657
704.90 0.2655
705.00 0.2654
705.10 0.2652
705.20 0.2651
705.30 0.2649
705.40 0.2648
705.50 0.2646
705.60 0.2645
705.70 0.2644
705.80 0.2642
705.90 0.2641
706.00 0.2639
706.10 0.2638
706.20 0.2636
706.30 0.2635
706.40 0.2633
706.50 0.2632
706.60 0.2631
706.70 0.2629
706.80 0.2628
706.90 0.2626
707.00 0.2625
707.10 0.2623
707.20 0.2622
707.30 0.262
707.40 0.2619
707.50 0.2618
707.60 0.2616
707.70 0.2615
707.80 0.2613
707.90 0.2612
708.00 0.261
708.10 0.2609
708.20 0.2608
708.30 0.2606
708.40 0.2605
708.50 0.2603
708.60 0.2602
708.70 0.26
708.80 0.2599
708.90 0.2597
709.00 0.2596
709.10 0.2595
709.20 0.2593
709.30 0.2592
709.40 0.259
709.50 0.2589
709.60 0.2587
709.70 0.2586
709.80 0.2585
709.90 0.2583
710.00 0.2582
710.10 0.258
710.20 0.2579
710.30 0.2578
710.40 0.2576
710.50 0.2575
710.60 0.2573
710.70 0.2572
710.80 0.2571
710.90 0.2569
711.00 0.2568
711.10 0.2566
711.20 0.2565
711.30 0.2564
711.40 0.2562
711.50 0.2561
711.60 0.2559
711.70 0.2558
711.80 0.2557
711.90 0.2555
712.00 0.2554
712.10 0.2552
712.20 0.2551
712.30 0.255
712.40 0.2548
712.50 0.2547
712.60 0.2545
712.70 0.2544
712.80 0.2543
712.90 0.2541
713.00 0.254
713.10 0.2538
713.20 0.2537
713.30 0.2536
713.40 0.2534
713.50 0.2533
713.60 0.2532
713.70 0.253
713.80 0.2529
713.90 0.2527
714.00 0.2526
714.10 0.2525
714.20 0.2523
714.30 0.2522
714.40 0.252
714.50 0.2519
714.60 0.2518
714.70 0.2516
714.80 0.2515
714.90 0.2514
715.00 0.2512
715.10 0.2511
715.20 0.251
715.30 0.2508
715.40 0.2507
715.50 0.2505
715.60 0.2504
715.70 0.2503
715.80 0.2501
715.90 0.25
716.00 0.2499
716.10 0.2497
716.20 0.2496
716.30 0.2495
716.40 0.2493
716.50 0.2492
716.60 0.2491
716.70 0.2489
716.80 0.2488
716.90 0.2486
717.00 0.2485
717.10 0.2484
717.20 0.2482
717.30 0.2481
717.40 0.248
717.50 0.2478
717.60 0.2477
717.70 0.2476
717.80 0.2474
717.90 0.2473
718.00 0.2472
718.10 0.247
718.20 0.2469
718.30 0.2468
718.40 0.2466
718.50 0.2465
718.60 0.2464
718.70 0.2462
718.80 0.2461
718.90 0.246
719.00 0.2458
719.10 0.2457
719.20 0.2456
719.30 0.2454
719.40 0.2453
719.50 0.2452
719.60 0.245
719.70 0.2449
719.80 0.2448
719.90 0.2446
720.00 0.2445
720.10 0.2444
720.20 0.2442
720.30 0.2441
720.40 0.244
720.50 0.2438
720.60 0.2437
720.70 0.2436
720.80 0.2434
720.90 0.2433
721.00 0.2432
721.10 0.243
721.20 0.2429
721.30 0.2428
721.40 0.2427
721.50 0.2425
721.60 0.2424
721.70 0.2423
721.80 0.2421
721.90 0.242
722.00 0.2419
722.10 0.2417
722.20 0.2416
722.30 0.2415
722.40 0.2414
722.50 0.2412
722.60 0.2411
722.70 0.241
722.80 0.2408
722.90 0.2407
723.00 0.2406
723.10 0.2404
723.20 0.2403
723.30 0.2402
723.40 0.2401
723.50 0.2399
723.60 0.2398
723.70 0.2397
723.80 0.2395
723.90 0.2394
724.00 0.2393
724.10 0.2391
724.20 0.239
724.30 0.2389
724.40 0.2388
724.50 0.2386
724.60 0.2385
724.70 0.2384
724.80 0.2382
724.90 0.2381
725.00 0.238
725.10 0.2379
725.20 0.2377
725.30 0.2376
725.40 0.2375
725.50 0.2374
725.60 0.2372
725.70 0.2371
725.80 0.237
725.90 0.2368
726.00 0.2367
726.10 0.2366
726.20 0.2365
726.30 0.2363
726.40 0.2362
726.50 0.2361
726.60 0.236
726.70 0.2358
726.80 0.2357
726.90 0.2356
727.00 0.2355
727.10 0.2353
727.20 0.2352
727.30 0.2351
727.40 0.235
727.50 0.2348
727.60 0.2347
727.70 0.2346
727.80 0.2344
727.90 0.2343
728.00 0.2342
728.10 0.2341
728.20 0.2339
728.30 0.2338
728.40 0.2337
728.50 0.2336
728.60 0.2334
728.70 0.2333
728.80 0.2332
728.90 0.2331
729.00 0.2329
729.10 0.2328
729.20 0.2327
729.30 0.2326
729.40 0.2324
729.50 0.2323
729.60 0.2322
729.70 0.2321
729.80 0.2319
729.90 0.2318
730.00 0.2317
730.10 0.2316
730.20 0.2315
730.30 0.2313
730.40 0.2312
730.50 0.2311
730.60 0.231
730.70 0.2308
730.80 0.2307
730.90 0.2306
731.00 0.2305
731.10 0.2304
731.20 0.2302
731.30 0.2301
731.40 0.23
731.50 0.2299
731.60 0.2297
731.70 0.2296
731.80 0.2295
731.90 0.2294
732.00 0.2293
732.10 0.2291
732.20 0.229
732.30 0.2289
732.40 0.2288
732.50 0.2287
732.60 0.2285
732.70 0.2284
732.80 0.2283
732.90 0.2282
733.00 0.228
733.10 0.2279
733.20 0.2278
733.30 0.2277
733.40 0.2276
733.50 0.2274
733.60 0.2273
733.70 0.2272
733.80 0.2271
733.90 0.227
734.00 0.2268
734.10 0.2267
734.20 0.2266
734.30 0.2265
734.40 0.2264
734.50 0.2262
734.60 0.2261
734.70 0.226
734.80 0.2259
734.90 0.2258
735.00 0.2256
735.10 0.2255
735.20 0.2254
735.30 0.2253
735.40 0.2252
735.50 0.225
735.60 0.2249
735.70 0.2248
735.80 0.2247
735.90 0.2246
736.00 0.2244
736.10 0.2243
736.20 0.2242
736.30 0.2241
736.40 0.224
736.50 0.2239
736.60 0.2237
736.70 0.2236
736.80 0.2235
736.90 0.2234
737.00 0.2233
737.10 0.2231
737.20 0.223
737.30 0.2229
737.40 0.2228
737.50 0.2227
737.60 0.2225
737.70 0.2224
737.80 0.2223
737.90 0.2222
738.00 0.2221
738.10 0.222
738.20 0.2218
738.30 0.2217
738.40 0.2216
738.50 0.2215
738.60 0.2214
738.70 0.2213
738.80 0.2211
738.90 0.221
739.00 0.2209
739.10 0.2208
739.20 0.2207
739.30 0.2205
739.40 0.2204
739.50 0.2203
739.60 0.2202
739.70 0.2201
739.80 0.22
739.90 0.2198
740.00 0.2197
740.10 0.2196
740.20 0.2195
740.30 0.2194
740.40 0.2193
740.50 0.2192
740.60 0.219
740.70 0.2189
740.80 0.2188
740.90 0.2187
741.00 0.2186
741.10 0.2185
741.20 0.2184
741.30 0.2182
741.40 0.2181
741.50 0.218
741.60 0.2179
741.70 0.2178
741.80 0.2177
741.90 0.2176
742.00 0.2174
742.10 0.2173
742.20 0.2172
742.30 0.2171
742.40 0.217
742.50 0.2169
742.60 0.2168
742.70 0.2166
742.80 0.2165
742.90 0.2164
743.00 0.2163
743.10 0.2162
743.20 0.2161
743.30 0.216
743.40 0.2159
743.50 0.2157
743.60 0.2156
743.70 0.2155
743.80 0.2154
743.90 0.2153
744.00 0.2152
744.10 0.2151
744.20 0.215
744.30 0.2148
744.40 0.2147
744.50 0.2146
744.60 0.2145
744.70 0.2144
744.80 0.2143
744.90 0.2142
745.00 0.2141
745.10 0.2139
745.20 0.2138
745.30 0.2137
745.40 0.2136
745.50 0.2135
745.60 0.2134
745.70 0.2133
745.80 0.2132
745.90 0.213
746.00 0.2129
746.10 0.2128
746.20 0.2127
746.30 0.2126
746.40 0.2125
746.50 0.2124
746.60 0.2123
746.70 0.2122
746.80 0.212
746.90 0.2119
747.00 0.2118
747.10 0.2117
747.20 0.2116
747.30 0.2115
747.40 0.2114
747.50 0.2113
747.60 0.2112
747.70 0.211
747.80 0.2109
747.90 0.2108
748.00 0.2107
748.10 0.2106
748.20 0.2105
748.30 0.2104
748.40 0.2103
748.50 0.2102
748.60 0.2101
748.70 0.2099
748.80 0.2098
748.90 0.2097
749.00 0.2096
749.10 0.2095
749.20 0.2094
749.30 0.2093
749.40 0.2092
749.50 0.2091
749.60 0.209
749.70 0.2088
749.80 0.2087
749.90 0.2086
750.00 0.2085
750.10 0.2084
750.20 0.2083
750.30 0.2082
750.40 0.2081
750.50 0.208
750.60 0.2079
750.70 0.2078
750.80 0.2077
750.90 0.2076
751.00 0.2074
751.10 0.2073
751.20 0.2072
751.30 0.2071
751.40 0.207
751.50 0.2069
751.60 0.2068
751.70 0.2067
751.80 0.2066
751.90 0.2065
752.00 0.2064
752.10 0.2063
752.20 0.2062
752.30 0.2061
752.40 0.206
752.50 0.2058
752.60 0.2057
752.70 0.2056
752.80 0.2055
752.90 0.2054
753.00 0.2053
753.10 0.2052
753.20 0.2051
753.30 0.205
753.40 0.2049
753.50 0.2048
753.60 0.2047
753.70 0.2046
753.80 0.2045
753.90 0.2044
754.00 0.2043
754.10 0.2042
754.20 0.204
754.30 0.2039
754.40 0.2038
754.50 0.2037
754.60 0.2036
754.70 0.2035
754.80 0.2034
754.90 0.2033
755.00 0.2032
755.10 0.2031
755.20 0.203
755.30 0.2029
755.40 0.2028
755.50 0.2027
755.60 0.2026
755.70 0.2025
755.80 0.2024
755.90 0.2023
756.00 0.2022
756.10 0.2021
756.20 0.2019
756.30 0.2018
756.40 0.2017
756.50 0.2016
756.60 0.2015
756.70 0.2014
756.80 0.2013
756.90 0.2012
757.00 0.2011
757.10 0.201
757.20 0.2009
757.30 0.2008
757.40 0.2007
757.50 0.2006
757.60 0.2005
757.70 0.2004
757.80 0.2003
757.90 0.2002
758.00 0.2001
758.10 0.2
758.20 0.1999
758.30 0.1998
758.40 0.1997
758.50 0.1996
758.60 0.1995
758.70 0.1994
758.80 0.1992
758.90 0.1991
759.00 0.199
759.10 0.1989
759.20 0.1988
759.30 0.1987
759.40 0.1986
759.50 0.1985
759.60 0.1984
759.70 0.1983
759.80 0.1982
759.90 0.1981
760.00 0.198
760.10 0.1979
760.20 0.1978
760.30 0.1977
760.40 0.1976
760.50 0.1975
760.60 0.1974
760.70 0.1973
760.80 0.1972
760.90 0.1971
761.00 0.197
761.10 0.1969
761.20 0.1968
761.30 0.1967
761.40 0.1966
761.50 0.1965
761.60 0.1964
761.70 0.1963
761.80 0.1962
761.90 0.1961
762.00 0.196
762.10 0.1959
762.20 0.1958
762.30 0.1957
762.40 0.1956
762.50 0.1955
762.60 0.1954
762.70 0.1953
762.80 0.1952
762.90 0.1951
763.00 0.195
763.10 0.1949
763.20 0.1948
763.30 0.1947
763.40 0.1946
763.50 0.1945
763.60 0.1944
763.70 0.1943
763.80 0.1942
763.90 0.1941
764.00 0.194
764.10 0.1939
764.20 0.1938
764.30 0.1937
764.40 0.1936
764.50 0.1935
764.60 0.1934
764.70 0.1933
764.80 0.1932
764.90 0.1931
765.00 0.193
765.10 0.1929
765.20 0.1928
765.30 0.1927
765.40 0.1926
765.50 0.1925
765.60 0.1924
765.70 0.1923
765.80 0.1922
765.90 0.1921
766.00 0.192
766.10 0.192
766.20 0.1919
766.30 0.1918
766.40 0.1917
766.50 0.1916
766.60 0.1915
766.70 0.1914
766.80 0.1913
766.90 0.1912
767.00 0.1911
767.10 0.191
767.20 0.1909
767.30 0.1908
767.40 0.1907
767.50 0.1906
767.60 0.1905
767.70 0.1904
767.80 0.1903
767.90 0.1902
768.00 0.1901
768.10 0.19
768.20 0.1899
768.30 0.1898
768.40 0.1897
768.50 0.1896
768.60 0.1895
768.70 0.1894
768.80 0.1893
768.90 0.1892
769.00 0.1891
769.10 0.189
769.20 0.1889
769.30 0.1888
769.40 0.1887
769.50 0.1886
769.60 0.1885
769.70 0.1885
769.80 0.1884
769.90 0.1883
770.00 0.1882
770.10 0.1881
770.20 0.188
770.30 0.1879
770.40 0.1878
770.50 0.1877
770.60 0.1876
770.70 0.1875
770.80 0.1874
770.90 0.1873
771.00 0.1872
771.10 0.1871
771.20 0.187
771.30 0.1869
771.40 0.1868
771.50 0.1867
771.60 0.1867
771.70 0.1866
771.80 0.1865
771.90 0.1864
772.00 0.1863
772.10 0.1862
772.20 0.1861
772.30 0.186
772.40 0.1859
772.50 0.1858
772.60 0.1857
772.70 0.1856
772.80 0.1855
772.90 0.1854
773.00 0.1853
773.10 0.1853
773.20 0.1852
773.30 0.1851
773.40 0.185
773.50 0.1849
773.60 0.1848
773.70 0.1847
773.80 0.1846
773.90 0.1845
774.00 0.1844
774.10 0.1843
774.20 0.1842
774.30 0.1841
774.40 0.184
774.50 0.184
774.60 0.1839
774.70 0.1838
774.80 0.1837
774.90 0.1836
775.00 0.1835
775.10 0.1834
775.20 0.1833
775.30 0.1832
775.40 0.1831
775.50 0.183
775.60 0.1829
775.70 0.1828
775.80 0.1827
775.90 0.1827
776.00 0.1826
776.10 0.1825
776.20 0.1824
776.30 0.1823
776.40 0.1822
776.50 0.1821
776.60 0.182
776.70 0.1819
776.80 0.1818
776.90 0.1817
777.00 0.1816
777.10 0.1816
777.20 0.1815
777.30 0.1814
777.40 0.1813
777.50 0.1812
777.60 0.1811
777.70 0.181
777.80 0.1809
777.90 0.1808
778.00 0.1807
778.10 0.1806
778.20 0.1806
778.30 0.1805
778.40 0.1804
778.50 0.1803
778.60 0.1802
778.70 0.1801
778.80 0.18
778.90 0.1799
779.00 0.1798
779.10 0.1797
779.20 0.1796
779.30 0.1796
779.40 0.1795
779.50 0.1794
779.60 0.1793
779.70 0.1792
779.80 0.1791
779.90 0.179
780.00 0.1789
780.10 0.1788
780.20 0.1787
780.30 0.1787
780.40 0.1786
780.50 0.1785
780.60 0.1784
780.70 0.1783
780.80 0.1782
780.90 0.1781
781.00 0.178
781.10 0.1779
781.20 0.1779
781.30 0.1778
781.40 0.1777
781.50 0.1776
781.60 0.1775
781.70 0.1774
781.80 0.1773
781.90 0.1772
782.00 0.1771
782.10 0.1771
782.20 0.177
782.30 0.1769
782.40 0.1768
782.50 0.1767
782.60 0.1766
782.70 0.1765
782.80 0.1764
782.90 0.1764
783.00 0.1763
783.10 0.1762
783.20 0.1761
783.30 0.176
783.40 0.1759
783.50 0.1758
783.60 0.1757
783.70 0.1757
783.80 0.1756
783.90 0.1755
784.00 0.1754
784.10 0.1753
784.20 0.1752
784.30 0.1751
784.40 0.175
784.50 0.175
784.60 0.1749
784.70 0.1748
784.80 0.1747
784.90 0.1746
785.00 0.1745
785.10 0.1744
785.20 0.1744
785.30 0.1743
785.40 0.1742
785.50 0.1741
785.60 0.174
785.70 0.1739
785.80 0.1738
785.90 0.1737
786.00 0.1737
786.10 0.1736
786.20 0.1735
786.30 0.1734
786.40 0.1733
786.50 0.1732
786.60 0.1731
786.70 0.1731
786.80 0.173
786.90 0.1729
787.00 0.1728
787.10 0.1727
787.20 0.1726
787.30 0.1725
787.40 0.1725
787.50 0.1724
787.60 0.1723
787.70 0.1722
787.80 0.1721
787.90 0.172
788.00 0.1719
788.10 0.1719
788.20 0.1718
788.30 0.1717
788.40 0.1716
788.50 0.1715
788.60 0.1714
788.70 0.1713
788.80 0.1713
788.90 0.1712
789.00 0.1711
789.10 0.171
789.20 0.1709
789.30 0.1708
789.40 0.1707
789.50 0.1707
789.60 0.1706
789.70 0.1705
789.80 0.1704
789.90 0.1703
790.00 0.1702
790.10 0.1702
790.20 0.1701
790.30 0.17
790.40 0.1699
790.50 0.1698
790.60 0.1697
790.70 0.1697
790.80 0.1696
790.90 0.1695
791.00 0.1694
791.10 0.1693
791.20 0.1692
791.30 0.1692
791.40 0.1691
791.50 0.169
791.60 0.1689
791.70 0.1688
791.80 0.1687
791.90 0.1687
792.00 0.1686
792.10 0.1685
792.20 0.1684
792.30 0.1683
792.40 0.1682
792.50 0.1682
792.60 0.1681
792.70 0.168
792.80 0.1679
792.90 0.1678
793.00 0.1677
793.10 0.1677
793.20 0.1676
793.30 0.1675
793.40 0.1674
793.50 0.1673
793.60 0.1673
793.70 0.1672
793.80 0.1671
793.90 0.167
794.00 0.1669
794.10 0.1668
794.20 0.1668
794.30 0.1667
794.40 0.1666
794.50 0.1665
794.60 0.1664
794.70 0.1664
794.80 0.1663
794.90 0.1662
795.00 0.1661
795.10 0.166
795.20 0.1659
795.30 0.1659
795.40 0.1658
795.50 0.1657
795.60 0.1656
795.70 0.1655
795.80 0.1655
795.90 0.1654
796.00 0.1653
796.10 0.1652
796.20 0.1651
796.30 0.165
796.40 0.165
796.50 0.1649
796.60 0.1648
796.70 0.1647
796.80 0.1646
796.90 0.1646
797.00 0.1645
797.10 0.1644
797.20 0.1643
797.30 0.1642
797.40 0.1642
797.50 0.1641
797.60 0.164
797.70 0.1639
797.80 0.1638
797.90 0.1638
798.00 0.1637
798.10 0.1636
798.20 0.1635
798.30 0.1634
798.40 0.1634
798.50 0.1633
798.60 0.1632
798.70 0.1631
798.80 0.163
798.90 0.163
799.00 0.1629
799.10 0.1628
799.20 0.1627
799.30 0.1626
799.40 0.1626
799.50 0.1625
799.60 0.1624
799.70 0.1623
799.80 0.1622
799.90 0.1622
800.00 0.1621
800.10 0.162
800.20 0.1619
800.30 0.1618
800.40 0.1618
800.50 0.1617
800.60 0.1616
800.70 0.1615
800.80 0.1614
800.90 0.1614
801.00 0.1613
801.10 0.1612
801.20 0.1611
801.30 0.1611
801.40 0.161
801.50 0.1609
801.60 0.1608
801.70 0.1607
801.80 0.1607
801.90 0.1606
802.00 0.1605
802.10 0.1604
802.20 0.1604
802.30 0.1603
802.40 0.1602
802.50 0.1601
802.60 0.16
802.70 0.16
802.80 0.1599
802.90 0.1598
803.00 0.1597
803.10 0.1597
803.20 0.1596
803.30 0.1595
803.40 0.1594
803.50 0.1593
803.60 0.1593
803.70 0.1592
803.80 0.1591
803.90 0.159
804.00 0.159
804.10 0.1589
804.20 0.1588
804.30 0.1587
804.40 0.1587
804.50 0.1586
804.60 0.1585
804.70 0.1584
804.80 0.1583
804.90 0.1583
805.00 0.1582
805.10 0.1581
805.20 0.158
805.30 0.158
805.40 0.1579
805.50 0.1578
805.60 0.1577
805.70 0.1577
805.80 0.1576
805.90 0.1575
806.00 0.1574
806.10 0.1573
806.20 0.1573
806.30 0.1572
806.40 0.1571
806.50 0.157
806.60 0.157
806.70 0.1569
806.80 0.1568
806.90 0.1567
807.00 0.1567
807.10 0.1566
807.20 0.1565
807.30 0.1564
807.40 0.1564
807.50 0.1563
807.60 0.1562
807.70 0.1561
807.80 0.1561
807.90 0.156
808.00 0.1559
808.10 0.1558
808.20 0.1558
808.30 0.1557
808.40 0.1556
808.50 0.1555
808.60 0.1554
808.70 0.1554
808.80 0.1553
808.90 0.1552
809.00 0.1551
809.10 0.1551
809.20 0.155
809.30 0.1549
809.40 0.1548
809.50 0.1548
809.60 0.1547
809.70 0.1546
809.80 0.1545
809.90 0.1545
810.00 0.1544
810.10 0.1543
810.20 0.1542
810.30 0.1542
810.40 0.1541
810.50 0.154
810.60 0.154
810.70 0.1539
810.80 0.1538
810.90 0.1537
811.00 0.1537
811.10 0.1536
811.20 0.1535
811.30 0.1534
811.40 0.1534
811.50 0.1533
811.60 0.1532
811.70 0.1531
811.80 0.1531
811.90 0.153
812.00 0.1529
812.10 0.1528
812.20 0.1528
812.30 0.1527
812.40 0.1526
812.50 0.1526
812.60 0.1525
812.70 0.1524
812.80 0.1523
812.90 0.1523
813.00 0.1522
813.10 0.1521
813.20 0.152
813.30 0.152
813.40 0.1519
813.50 0.1518
813.60 0.1518
813.70 0.1517
813.80 0.1516
813.90 0.1515
814.00 0.1515
814.10 0.1514
814.20 0.1513
814.30 0.1512
814.40 0.1512
814.50 0.1511
814.60 0.151
814.70 0.151
814.80 0.1509
814.90 0.1508
815.00 0.1507
815.10 0.1507
815.20 0.1506
815.30 0.1505
815.40 0.1505
815.50 0.1504
815.60 0.1503
815.70 0.1502
815.80 0.1502
815.90 0.1501
816.00 0.15
816.10 0.1499
816.20 0.1499
816.30 0.1498
816.40 0.1497
816.50 0.1497
816.60 0.1496
816.70 0.1495
816.80 0.1494
816.90 0.1494
817.00 0.1493
817.10 0.1492
817.20 0.1492
817.30 0.1491
817.40 0.149
817.50 0.1489
817.60 0.1489
817.70 0.1488
817.80 0.1487
817.90 0.1487
818.00 0.1486
818.10 0.1485
818.20 0.1484
818.30 0.1484
818.40 0.1483
818.50 0.1482
818.60 0.1482
818.70 0.1481
818.80 0.148
818.90 0.1479
819.00 0.1479
819.10 0.1478
819.20 0.1477
819.30 0.1477
819.40 0.1476
819.50 0.1475
819.60 0.1474
819.70 0.1474
819.80 0.1473
819.90 0.1472
820.00 0.1472
820.10 0.1471
820.20 0.147
820.30 0.147
820.40 0.1469
820.50 0.1468
820.60 0.1467
820.70 0.1467
820.80 0.1466
820.90 0.1465
821.00 0.1465
821.10 0.1464
821.20 0.1463
821.30 0.1463
821.40 0.1462
821.50 0.1461
821.60 0.146
821.70 0.146
821.80 0.1459
821.90 0.1458
822.00 0.1458
822.10 0.1457
822.20 0.1456
822.30 0.1456
822.40 0.1455
822.50 0.1454
822.60 0.1454
822.70 0.1453
822.80 0.1452
822.90 0.1452
823.00 0.1451
823.10 0.145
823.20 0.1449
823.30 0.1449
823.40 0.1448
823.50 0.1447
823.60 0.1447
823.70 0.1446
823.80 0.1445
823.90 0.1445
824.00 0.1444
824.10 0.1443
824.20 0.1443
824.30 0.1442
824.40 0.1441
824.50 0.1441
824.60 0.144
824.70 0.1439
824.80 0.1438
824.90 0.1438
825.00 0.1437
825.10 0.1436
825.20 0.1436
825.30 0.1435
825.40 0.1434
825.50 0.1434
825.60 0.1433
825.70 0.1432
825.80 0.1432
825.90 0.1431
826.00 0.143
826.10 0.143
826.20 0.1429
826.30 0.1428
826.40 0.1428
826.50 0.1427
826.60 0.1426
826.70 0.1426
826.80 0.1425
826.90 0.1424
827.00 0.1424
827.10 0.1423
827.20 0.1422
827.30 0.1422
827.40 0.1421
827.50 0.142
827.60 0.142
827.70 0.1419
827.80 0.1418
827.90 0.1418
828.00 0.1417
828.10 0.1416
828.20 0.1416
828.30 0.1415
828.40 0.1414
828.50 0.1414
828.60 0.1413
828.70 0.1412
828.80 0.1412
828.90 0.1411
829.00 0.141
829.10 0.141
829.20 0.1409
829.30 0.1408
829.40 0.1408
829.50 0.1407
829.60 0.1406
829.70 0.1406
829.80 0.1405
829.90 0.1404
830.00 0.1404
830.10 0.1403
830.20 0.1402
830.30 0.1402
830.40 0.1401
830.50 0.14
830.60 0.14
830.70 0.1399
830.80 0.1398
830.90 0.1398
831.00 0.1397
831.10 0.1396
831.20 0.1396
831.30 0.1395
831.40 0.1394
831.50 0.1394
831.60 0.1393
831.70 0.1392
831.80 0.1392
831.90 0.1391
832.00 0.139
832.10 0.139
832.20 0.1389
832.30 0.1388
832.40 0.1388
832.50 0.1387
832.60 0.1386
832.70 0.1386
832.80 0.1385
832.90 0.1385
833.00 0.1384
833.10 0.1383
833.20 0.1383
833.30 0.1382
833.40 0.1381
833.50 0.1381
833.60 0.138
833.70 0.1379
833.80 0.1379
833.90 0.1378
834.00 0.1377
834.10 0.1377
834.20 0.1376
834.30 0.1375
834.40 0.1375
834.50 0.1374
834.60 0.1374
834.70 0.1373
834.80 0.1372
834.90 0.1372
835.00 0.1371
835.10 0.137
835.20 0.137
835.30 0.1369
835.40 0.1368
835.50 0.1368
835.60 0.1367
835.70 0.1366
835.80 0.1366
835.90 0.1365
836.00 0.1365
836.10 0.1364
836.20 0.1363
836.30 0.1363
836.40 0.1362
836.50 0.1361
836.60 0.1361
836.70 0.136
836.80 0.1359
836.90 0.1359
837.00 0.1358
837.10 0.1358
837.20 0.1357
837.30 0.1356
837.40 0.1356
837.50 0.1355
837.60 0.1354
837.70 0.1354
837.80 0.1353
837.90 0.1353
838.00 0.1352
838.10 0.1351
838.20 0.1351
838.30 0.135
838.40 0.1349
838.50 0.1349
838.60 0.1348
838.70 0.1347
838.80 0.1347
838.90 0.1346
839.00 0.1346
839.10 0.1345
839.20 0.1344
839.30 0.1344
839.40 0.1343
839.50 0.1342
839.60 0.1342
839.70 0.1341
839.80 0.1341
839.90 0.134
840.00 0.1339
840.10 0.1339
840.20 0.1338
840.30 0.1337
840.40 0.1337
840.50 0.1336
840.60 0.1336
840.70 0.1335
840.80 0.1334
840.90 0.1334
841.00 0.1333
841.10 0.1332
841.20 0.1332
841.30 0.1331
841.40 0.1331
841.50 0.133
841.60 0.1329
841.70 0.1329
841.80 0.1328
841.90 0.1328
842.00 0.1327
842.10 0.1326
842.20 0.1326
842.30 0.1325
842.40 0.1324
842.50 0.1324
842.60 0.1323
842.70 0.1323
842.80 0.1322
842.90 0.1321
843.00 0.1321
843.10 0.132
843.20 0.132
843.30 0.1319
843.40 0.1318
843.50 0.1318
843.60 0.1317
843.70 0.1316
843.80 0.1316
843.90 0.1315
844.00 0.1315
844.10 0.1314
844.20 0.1313
844.30 0.1313
844.40 0.1312
844.50 0.1312
844.60 0.1311
844.70 0.131
844.80 0.131
844.90 0.1309
845.00 0.1309
845.10 0.1308
845.20 0.1307
845.30 0.1307
845.40 0.1306
845.50 0.1306
845.60 0.1305
845.70 0.1304
845.80 0.1304
845.90 0.1303
846.00 0.1303
846.10 0.1302
846.20 0.1301
846.30 0.1301
846.40 0.13
846.50 0.1299
846.60 0.1299
846.70 0.1298
846.80 0.1298
846.90 0.1297
847.00 0.1296
847.10 0.1296
847.20 0.1295
847.30 0.1295
847.40 0.1294
847.50 0.1293
847.60 0.1293
847.70 0.1292
847.80 0.1292
847.90 0.1291
848.00 0.1291
848.10 0.129
848.20 0.1289
848.30 0.1289
848.40 0.1288
848.50 0.1288
848.60 0.1287
848.70 0.1286
848.80 0.1286
848.90 0.1285
849.00 0.1285
849.10 0.1284
849.20 0.1283
849.30 0.1283
849.40 0.1282
849.50 0.1282
849.60 0.1281
849.70 0.128
849.80 0.128
849.90 0.1279
850.00 0.1279
850.10 0.1278
850.20 0.1277
850.30 0.1277
850.40 0.1276
850.50 0.1276
850.60 0.1275
850.70 0.1275
850.80 0.1274
850.90 0.1273
851.00 0.1273
851.10 0.1272
851.20 0.1272
851.30 0.1271
851.40 0.127
851.50 0.127
851.60 0.1269
851.70 0.1269
851.80 0.1268
851.90 0.1267
852.00 0.1267
852.10 0.1266
852.20 0.1266
852.30 0.1265
852.40 0.1265
852.50 0.1264
852.60 0.1263
852.70 0.1263
852.80 0.1262
852.90 0.1262
853.00 0.1261
853.10 0.1261
853.20 0.126
853.30 0.1259
853.40 0.1259
853.50 0.1258
853.60 0.1258
853.70 0.1257
853.80 0.1256
853.90 0.1256
854.00 0.1255
854.10 0.1255
854.20 0.1254
854.30 0.1254
854.40 0.1253
854.50 0.1252
854.60 0.1252
854.70 0.1251
854.80 0.1251
854.90 0.125
855.00 0.125
855.10 0.1249
855.20 0.1248
855.30 0.1248
855.40 0.1247
855.50 0.1247
855.60 0.1246
855.70 0.1246
855.80 0.1245
855.90 0.1244
856.00 0.1244
856.10 0.1243
856.20 0.1243
856.30 0.1242
856.40 0.1242
856.50 0.1241
856.60 0.124
856.70 0.124
856.80 0.1239
856.90 0.1239
857.00 0.1238
857.10 0.1238
857.20 0.1237
857.30 0.1236
857.40 0.1236
857.50 0.1235
857.60 0.1235
857.70 0.1234
857.80 0.1234
857.90 0.1233
858.00 0.1233
858.10 0.1232
858.20 0.1231
858.30 0.1231
858.40 0.123
858.50 0.123
858.60 0.1229
858.70 0.1229
858.80 0.1228
858.90 0.1228
859.00 0.1227
859.10 0.1226
859.20 0.1226
859.30 0.1225
859.40 0.1225
859.50 0.1224
859.60 0.1224
859.70 0.1223
859.80 0.1223
859.90 0.1222
860.00 0.1221
860.10 0.1221
860.20 0.122
860.30 0.122
860.40 0.1219
860.50 0.1219
860.60 0.1218
860.70 0.1218
860.80 0.1217
860.90 0.1216
861.00 0.1216
861.10 0.1215
861.20 0.1215
861.30 0.1214
861.40 0.1214
861.50 0.1213
861.60 0.1213
861.70 0.1212
861.80 0.1212
861.90 0.1211
862.00 0.121
862.10 0.121
862.20 0.1209
862.30 0.1209
862.40 0.1208
862.50 0.1208
862.60 0.1207
862.70 0.1207
862.80 0.1206
862.90 0.1205
863.00 0.1205
863.10 0.1204
863.20 0.1204
863.30 0.1203
863.40 0.1203
863.50 0.1202
863.60 0.1202
863.70 0.1201
863.80 0.1201
863.90 0.12
864.00 0.1199
864.10 0.1199
864.20 0.1198
864.30 0.1198
864.40 0.1197
864.50 0.1197
864.60 0.1196
864.70 0.1196
864.80 0.1195
864.90 0.1195
865.00 0.1194
865.10 0.1193
865.20 0.1193
865.30 0.1192
865.40 0.1192
865.50 0.1191
865.60 0.1191
865.70 0.119
865.80 0.119
865.90 0.1189
866.00 0.1189
866.10 0.1188
866.20 0.1188
866.30 0.1187
866.40 0.1186
866.50 0.1186
866.60 0.1185
866.70 0.1185
866.80 0.1184
866.90 0.1184
867.00 0.1183
867.10 0.1183
867.20 0.1182
867.30 0.1182
867.40 0.1181
867.50 0.1181
867.60 0.118
867.70 0.118
867.80 0.1179
867.90 0.1178
868.00 0.1178
868.10 0.1177
868.20 0.1177
868.30 0.1176
868.40 0.1176
868.50 0.1175
868.60 0.1175
868.70 0.1174
868.80 0.1174
868.90 0.1173
869.00 0.1173
869.10 0.1172
869.20 0.1172
869.30 0.1171
869.40 0.1171
869.50 0.117
869.60 0.1169
869.70 0.1169
869.80 0.1168
869.90 0.1168
870.00 0.1167
870.10 0.1167
870.20 0.1166
870.30 0.1166
870.40 0.1165
870.50 0.1165
870.60 0.1164
870.70 0.1164
870.80 0.1163
870.90 0.1163
871.00 0.1162
871.10 0.1162
871.20 0.1161
871.30 0.1161
871.40 0.116
871.50 0.1159
871.60 0.1159
871.70 0.1158
871.80 0.1158
871.90 0.1157
872.00 0.1157
872.10 0.1156
872.20 0.1156
872.30 0.1155
872.40 0.1155
872.50 0.1154
872.60 0.1154
872.70 0.1153
872.80 0.1153
872.90 0.1152
873.00 0.1152
873.10 0.1151
873.20 0.1151
873.30 0.115
873.40 0.115
873.50 0.1149
873.60 0.1149
873.70 0.1148
873.80 0.1148
873.90 0.1147
874.00 0.1147
874.10 0.1146
874.20 0.1146
874.30 0.1145
874.40 0.1144
874.50 0.1144
874.60 0.1143
874.70 0.1143
874.80 0.1142
874.90 0.1142
875.00 0.1141
875.10 0.1141
875.20 0.114
875.30 0.114
875.40 0.1139
875.50 0.1139
875.60 0.1138
875.70 0.1138
875.80 0.1137
875.90 0.1137
876.00 0.1136
876.10 0.1136
876.20 0.1135
876.30 0.1135
876.40 0.1134
876.50 0.1134
876.60 0.1133
876.70 0.1133
876.80 0.1132
876.90 0.1132
877.00 0.1131
877.10 0.1131
877.20 0.113
877.30 0.113
877.40 0.1129
877.50 0.1129
877.60 0.1128
877.70 0.1128
877.80 0.1127
877.90 0.1127
878.00 0.1126
878.10 0.1126
878.20 0.1125
878.30 0.1125
878.40 0.1124
878.50 0.1124
878.60 0.1123
878.70 0.1123
878.80 0.1122
878.90 0.1122
879.00 0.1121
879.10 0.1121
879.20 0.112
879.30 0.112
879.40 0.1119
879.50 0.1119
879.60 0.1118
879.70 0.1118
879.80 0.1117
879.90 0.1117
880.00 0.1116
880.10 0.1116
880.20 0.1115
880.30 0.1115
880.40 0.1114
880.50 0.1114
880.60 0.1113
880.70 0.1113
880.80 0.1112
880.90 0.1112
881.00 0.1111
881.10 0.1111
881.20 0.111
881.30 0.111
881.40 0.1109
881.50 0.1109
881.60 0.1108
881.70 0.1108
881.80 0.1107
881.90 0.1107
882.00 0.1106
882.10 0.1106
882.20 0.1105
882.30 0.1105
882.40 0.1104
882.50 0.1104
882.60 0.1103
882.70 0.1103
882.80 0.1102
882.90 0.1102
883.00 0.1101
883.10 0.1101
883.20 0.11
883.30 0.11
883.40 0.1099
883.50 0.1099
883.60 0.1098
883.70 0.1098
883.80 0.1098
883.90 0.1097
884.00 0.1097
884.10 0.1096
884.20 0.1096
884.30 0.1095
884.40 0.1095
884.50 0.1094
884.60 0.1094
884.70 0.1093
884.80 0.1093
884.90 0.1092
885.00 0.1092
885.10 0.1091
885.20 0.1091
885.30 0.109
885.40 0.109
885.50 0.1089
885.60 0.1089
885.70 0.1088
885.80 0.1088
885.90 0.1087
886.00 0.1087
886.10 0.1086
886.20 0.1086
886.30 0.1085
886.40 0.1085
886.50 0.1084
886.60 0.1084
886.70 0.1083
886.80 0.1083
886.90 0.1083
887.00 0.1082
887.10 0.1082
887.20 0.1081
887.30 0.1081
887.40 0.108
887.50 0.108
887.60 0.1079
887.70 0.1079
887.80 0.1078
887.90 0.1078
888.00 0.1077
888.10 0.1077
888.20 0.1076
888.30 0.1076
888.40 0.1075
888.50 0.1075
888.60 0.1074
888.70 0.1074
888.80 0.1073
888.90 0.1073
889.00 0.1073
889.10 0.1072
889.20 0.1072
889.30 0.1071
889.40 0.1071
889.50 0.107
889.60 0.107
889.70 0.1069
889.80 0.1069
889.90 0.1068
890.00 0.1068
890.10 0.1067
890.20 0.1067
890.30 0.1066
890.40 0.1066
890.50 0.1065
890.60 0.1065
890.70 0.1065
890.80 0.1064
890.90 0.1064
891.00 0.1063
891.10 0.1063
891.20 0.1062
891.30 0.1062
891.40 0.1061
891.50 0.1061
891.60 0.106
891.70 0.106
891.80 0.1059
891.90 0.1059
892.00 0.1058
892.10 0.1058
892.20 0.1058
892.30 0.1057
892.40 0.1057
892.50 0.1056
892.60 0.1056
892.70 0.1055
892.80 0.1055
892.90 0.1054
893.00 0.1054
893.10 0.1053
893.20 0.1053
893.30 0.1052
893.40 0.1052
893.50 0.1052
893.60 0.1051
893.70 0.1051
893.80 0.105
893.90 0.105
894.00 0.1049
894.10 0.1049
894.20 0.1048
894.30 0.1048
894.40 0.1047
894.50 0.1047
894.60 0.1046
894.70 0.1046
894.80 0.1046
894.90 0.1045
895.00 0.1045
895.10 0.1044
895.20 0.1044
895.30 0.1043
895.40 0.1043
895.50 0.1042
895.60 0.1042
895.70 0.1041
895.80 0.1041
895.90 0.1041
896.00 0.104
896.10 0.104
896.20 0.1039
896.30 0.1039
896.40 0.1038
896.50 0.1038
896.60 0.1037
896.70 0.1037
896.80 0.1036
896.90 0.1036
897.00 0.1036
897.10 0.1035
897.20 0.1035
897.30 0.1034
897.40 0.1034
897.50 0.1033
897.60 0.1033
897.70 0.1032
897.80 0.1032
897.90 0.1031
898.00 0.1031
898.10 0.1031
898.20 0.103
898.30 0.103
898.40 0.1029
898.50 0.1029
898.60 0.1028
898.70 0.1028
898.80 0.1027
898.90 0.1027
899.00 0.1027
899.10 0.1026
899.20 0.1026
899.30 0.1025
899.40 0.1025
899.50 0.1024
899.60 0.1024
899.70 0.1023
899.80 0.1023
899.90 0.1023
900.00 0.1022
900.10 0.1022
900.20 0.1021
900.30 0.1021
900.40 0.102
900.50 0.102
900.60 0.1019
900.70 0.1019
900.80 0.1019
900.90 0.1018
901.00 0.1018
901.10 0.1017
901.20 0.1017
901.30 0.1016
901.40 0.1016
901.50 0.1015
901.60 0.1015
901.70 0.1015
901.80 0.1014
901.90 0.1014
902.00 0.1013
902.10 0.1013
902.20 0.1012
902.30 0.1012
902.40 0.1011
902.50 0.1011
902.60 0.1011
902.70 0.101
902.80 0.101
902.90 0.1009
903.00 0.1009
903.10 0.1008
903.20 0.1008
903.30 0.1008
903.40 0.1007
903.50 0.1007
903.60 0.1006
903.70 0.1006
903.80 0.1005
903.90 0.1005
904.00 0.1005
904.10 0.1004
904.20 0.1004
904.30 0.1003
904.40 0.1003
904.50 0.1002
904.60 0.1002
904.70 0.1001
904.80 0.1001
904.90 0.1001
905.00 0.1
905.10 0.09997
905.20 0.09993
905.30 0.09989
905.40 0.09984
905.50 0.0998
905.60 0.09976
905.70 0.09971
905.80 0.09967
905.90 0.09963
906.00 0.09958
906.10 0.09954
906.20 0.0995
906.30 0.09945
906.40 0.09941
906.50 0.09937
906.60 0.09932
906.70 0.09928
906.80 0.09924
906.90 0.0992
907.00 0.09915
907.10 0.09911
907.20 0.09907
907.30 0.09903
907.40 0.09898
907.50 0.09894
907.60 0.0989
907.70 0.09885
907.80 0.09881
907.90 0.09877
908.00 0.09873
908.10 0.09868
908.20 0.09864
908.30 0.0986
908.40 0.09856
908.50 0.09852
908.60 0.09847
908.70 0.09843
908.80 0.09839
908.90 0.09835
909.00 0.0983
909.10 0.09826
909.20 0.09822
909.30 0.09818
909.40 0.09813
909.50 0.09809
909.60 0.09805
909.70 0.09801
909.80 0.09797
909.90 0.09792
910.00 0.09788
910.10 0.09784
910.20 0.0978
910.30 0.09775
910.40 0.09771
910.50 0.09767
910.60 0.09763
910.70 0.09759
910.80 0.09754
910.90 0.0975
911.00 0.09746
911.10 0.09742
911.20 0.09738
911.30 0.09733
911.40 0.09729
911.50 0.09725
911.60 0.09721
911.70 0.09717
911.80 0.09713
911.90 0.09708
912.00 0.09704
912.10 0.097
912.20 0.09696
912.30 0.09692
912.40 0.09688
912.50 0.09683
912.60 0.09679
912.70 0.09675
912.80 0.09671
912.90 0.09667
913.00 0.09663
913.10 0.09659
913.20 0.09655
913.30 0.0965
913.40 0.09646
913.50 0.09642
913.60 0.09638
913.70 0.09634
913.80 0.0963
913.90 0.09626
914.00 0.09622
914.10 0.09617
914.20 0.09613
914.30 0.09609
914.40 0.09605
914.50 0.09601
914.60 0.09597
914.70 0.09593
914.80 0.09589
914.90 0.09585
915.00 0.0958
915.10 0.09576
915.20 0.09572
915.30 0.09568
915.40 0.09564
915.50 0.0956
915.60 0.09556
915.70 0.09552
915.80 0.09548
915.90 0.09544
916.00 0.0954
916.10 0.09535
916.20 0.09531
916.30 0.09527
916.40 0.09523
916.50 0.09519
916.60 0.09515
916.70 0.09511
916.80 0.09507
916.90 0.09503
917.00 0.09499
917.10 0.09495
917.20 0.09491
917.30 0.09487
917.40 0.09483
917.50 0.09479
917.60 0.09475
917.70 0.09471
917.80 0.09467
917.90 0.09463
918.00 0.09459
918.10 0.09455
918.20 0.0945
918.30 0.09446
918.40 0.09442
918.50 0.09438
918.60 0.09434
918.70 0.0943
918.80 0.09426
918.90 0.09422
919.00 0.09418
919.10 0.09414
919.20 0.0941
919.30 0.09406
919.40 0.09402
919.50 0.09398
919.60 0.09394
919.70 0.0939
919.80 0.09386
919.90 0.09382
920.00 0.09378
920.10 0.09374
920.20 0.09371
920.30 0.09367
920.40 0.09363
920.50 0.09359
920.60 0.09355
920.70 0.09351
920.80 0.09347
920.90 0.09343
921.00 0.09339
921.10 0.09335
921.20 0.09331
921.30 0.09327
921.40 0.09323
921.50 0.09319
921.60 0.09315
921.70 0.09311
921.80 0.09307
921.90 0.09303
922.00 0.09299
922.10 0.09295
922.20 0.09291
922.30 0.09287
922.40 0.09283
922.50 0.09279
922.60 0.09275
922.70 0.09272
922.80 0.09268
922.90 0.09264
923.00 0.0926
923.10 0.09256
923.20 0.09252
923.30 0.09248
923.40 0.09244
923.50 0.0924
923.60 0.09236
923.70 0.09232
923.80 0.09228
923.90 0.09225
924.00 0.09221
924.10 0.09217
924.20 0.09213
924.30 0.09209
924.40 0.09205
924.50 0.09201
924.60 0.09197
924.70 0.09193
924.80 0.09189
924.90 0.09186
925.00 0.09182
925.10 0.09178
925.20 0.09174
925.30 0.0917
925.40 0.09166
925.50 0.09162
925.60 0.09158
925.70 0.09154
925.80 0.09151
925.90 0.09147
926.00 0.09143
926.10 0.09139
926.20 0.09135
926.30 0.09131
926.40 0.09127
926.50 0.09124
926.60 0.0912
926.70 0.09116
926.80 0.09112
926.90 0.09108
927.00 0.09104
927.10 0.091
927.20 0.09097
927.30 0.09093
927.40 0.09089
927.50 0.09085
927.60 0.09081
927.70 0.09077
927.80 0.09074
927.90 0.0907
928.00 0.09066
928.10 0.09062
928.20 0.09058
928.30 0.09055
928.40 0.09051
928.50 0.09047
928.60 0.09043
928.70 0.09039
928.80 0.09035
928.90 0.09032
929.00 0.09028
929.10 0.09024
929.20 0.0902
929.30 0.09016
929.40 0.09013
929.50 0.09009
929.60 0.09005
929.70 0.09001
929.80 0.08998
929.90 0.08994
930.00 0.0899
930.10 0.08986
930.20 0.08982
930.30 0.08979
930.40 0.08975
930.50 0.08971
930.60 0.08967
930.70 0.08963
930.80 0.0896
930.90 0.08956
931.00 0.08952
931.10 0.08948
931.20 0.08945
931.30 0.08941
931.40 0.08937
931.50 0.08933
931.60 0.0893
931.70 0.08926
931.80 0.08922
931.90 0.08918
932.00 0.08914
932.10 0.08911
932.20 0.08907
932.30 0.08903
932.40 0.089
932.50 0.08896
932.60 0.08892
932.70 0.08888
932.80 0.08885
932.90 0.08881
933.00 0.08877
933.10 0.08873
933.20 0.0887
933.30 0.08866
933.40 0.08862
933.50 0.08859
933.60 0.08855
933.70 0.08851
933.80 0.08847
933.90 0.08844
934.00 0.0884
934.10 0.08836
934.20 0.08833
934.30 0.08829
934.40 0.08825
934.50 0.08822
934.60 0.08818
934.70 0.08814
934.80 0.08811
934.90 0.08807
935.00 0.08803
935.10 0.08799
935.20 0.08796
935.30 0.08792
935.40 0.08788
935.50 0.08785
935.60 0.08781
935.70 0.08777
935.80 0.08774
935.90 0.0877
936.00 0.08766
936.10 0.08763
936.20 0.08759
936.30 0.08755
936.40 0.08752
936.50 0.08748
936.60 0.08744
936.70 0.08741
936.80 0.08737
936.90 0.08733
937.00 0.0873
937.10 0.08726
937.20 0.08723
937.30 0.08719
937.40 0.08715
937.50 0.08712
937.60 0.08708
937.70 0.08704
937.80 0.08701
937.90 0.08697
938.00 0.08693
938.10 0.0869
938.20 0.08686
938.30 0.08683
938.40 0.08679
938.50 0.08675
938.60 0.08672
938.70 0.08668
938.80 0.08665
938.90 0.08661
939.00 0.08657
939.10 0.08654
939.20 0.0865
939.30 0.08647
939.40 0.08643
939.50 0.08639
939.60 0.08636
939.70 0.08632
939.80 0.08629
939.90 0.08625
940.00 0.08621
940.10 0.08618
940.20 0.08614
940.30 0.08611
940.40 0.08607
940.50 0.08603
940.60 0.086
940.70 0.08596
940.80 0.08593
940.90 0.08589
941.00 0.08586
941.10 0.08582
941.20 0.08578
941.30 0.08575
941.40 0.08571
941.50 0.08568
941.60 0.08564
941.70 0.08561
941.80 0.08557
941.90 0.08553
942.00 0.0855
942.10 0.08546
942.20 0.08543
942.30 0.08539
942.40 0.08536
942.50 0.08532
942.60 0.08529
942.70 0.08525
942.80 0.08522
942.90 0.08518
943.00 0.08515
943.10 0.08511
943.20 0.08507
943.30 0.08504
943.40 0.085
943.50 0.08497
943.60 0.08493
943.70 0.0849
943.80 0.08486
943.90 0.08483
944.00 0.08479
944.10 0.08476
944.20 0.08472
944.30 0.08469
944.40 0.08465
944.50 0.08462
944.60 0.08458
944.70 0.08455
944.80 0.08451
944.90 0.08448
945.00 0.08444
945.10 0.08441
945.20 0.08437
945.30 0.08434
945.40 0.0843
945.50 0.08427
945.60 0.08423
945.70 0.0842
945.80 0.08416
945.90 0.08413
946.00 0.08409
946.10 0.08406
946.20 0.08403
946.30 0.08399
946.40 0.08396
946.50 0.08392
946.60 0.08389
946.70 0.08385
946.80 0.08382
946.90 0.08378
947.00 0.08375
947.10 0.08371
947.20 0.08368
947.30 0.08364
947.40 0.08361
947.50 0.08358
947.60 0.08354
947.70 0.08351
947.80 0.08347
947.90 0.08344
948.00 0.0834
948.10 0.08337
948.20 0.08333
948.30 0.0833
948.40 0.08327
948.50 0.08323
948.60 0.0832
948.70 0.08316
948.80 0.08313
948.90 0.08309
949.00 0.08306
949.10 0.08303
949.20 0.08299
949.30 0.08296
949.40 0.08292
949.50 0.08289
949.60 0.08286
949.70 0.08282
949.80 0.08279
949.90 0.08275
950.00 0.08272
950.10 0.08269
950.20 0.08265
950.30 0.08262
950.40 0.08258
950.50 0.08255
950.60 0.08252
950.70 0.08248
950.80 0.08245
950.90 0.08242
951.00 0.08238
951.10 0.08235
951.20 0.08231
951.30 0.08228
951.40 0.08225
951.50 0.08221
951.60 0.08218
951.70 0.08215
951.80 0.08211
951.90 0.08208
952.00 0.08204
952.10 0.08201
952.20 0.08198
952.30 0.08194
952.40 0.08191
952.50 0.08188
952.60 0.08184
952.70 0.08181
952.80 0.08178
952.90 0.08174
953.00 0.08171
953.10 0.08168
953.20 0.08164
953.30 0.08161
953.40 0.08158
953.50 0.08154
953.60 0.08151
953.70 0.08148
953.80 0.08144
953.90 0.08141
954.00 0.08138
954.10 0.08134
954.20 0.08131
954.30 0.08128
954.40 0.08124
954.50 0.08121
954.60 0.08118
954.70 0.08114
954.80 0.08111
954.90 0.08108
955.00 0.08104
955.10 0.08101
955.20 0.08098
955.30 0.08094
955.40 0.08091
955.50 0.08088
955.60 0.08085
955.70 0.08081
955.80 0.08078
955.90 0.08075
956.00 0.08071
956.10 0.08068
956.20 0.08065
956.30 0.08061
956.40 0.08058
956.50 0.08055
956.60 0.08051
956.70 0.08048
956.80 0.08045
956.90 0.08042
957.00 0.08038
957.10 0.08035
957.20 0.08032
957.30 0.08028
957.40 0.08025
957.50 0.08022
957.60 0.08019
957.70 0.08015
957.80 0.08012
957.90 0.08009
958.00 0.08005
958.10 0.08002
958.20 0.07999
958.30 0.07996
958.40 0.07992
958.50 0.07989
958.60 0.07986
958.70 0.07983
958.80 0.07979
958.90 0.07976
959.00 0.07973
959.10 0.0797
959.20 0.07966
959.30 0.07963
959.40 0.0796
959.50 0.07957
959.60 0.07953
959.70 0.0795
959.80 0.07947
959.90 0.07944
960.00 0.0794
960.10 0.07937
960.20 0.07934
960.30 0.07931
960.40 0.07927
960.50 0.07924
960.60 0.07921
960.70 0.07918
960.80 0.07915
960.90 0.07911
961.00 0.07908
961.10 0.07905
961.20 0.07902
961.30 0.07898
961.40 0.07895
961.50 0.07892
961.60 0.07889
961.70 0.07886
961.80 0.07882
961.90 0.07879
962.00 0.07876
962.10 0.07873
962.20 0.0787
962.30 0.07866
962.40 0.07863
962.50 0.0786
962.60 0.07857
962.70 0.07854
962.80 0.0785
962.90 0.07847
963.00 0.07844
963.10 0.07841
963.20 0.07838
963.30 0.07835
963.40 0.07831
963.50 0.07828
963.60 0.07825
963.70 0.07822
963.80 0.07819
963.90 0.07815
964.00 0.07812
964.10 0.07809
964.20 0.07806
964.30 0.07803
964.40 0.078
964.50 0.07796
964.60 0.07793
964.70 0.0779
964.80 0.07787
964.90 0.07784
965.00 0.07781
965.10 0.07778
965.20 0.07774
965.30 0.07771
965.40 0.07768
965.50 0.07765
965.60 0.07762
965.70 0.07759
965.80 0.07756
965.90 0.07752
966.00 0.07749
966.10 0.07746
966.20 0.07743
966.30 0.0774
966.40 0.07737
966.50 0.07734
966.60 0.07731
966.70 0.07727
966.80 0.07724
966.90 0.07721
967.00 0.07718
967.10 0.07715
967.20 0.07712
967.30 0.07709
967.40 0.07706
967.50 0.07702
967.60 0.07699
967.70 0.07696
967.80 0.07693
967.90 0.0769
968.00 0.07687
968.10 0.07684
968.20 0.07681
968.30 0.07678
968.40 0.07674
968.50 0.07671
968.60 0.07668
968.70 0.07665
968.80 0.07662
968.90 0.07659
969.00 0.07656
969.10 0.07653
969.20 0.0765
969.30 0.07647
969.40 0.07644
969.50 0.0764
969.60 0.07637
969.70 0.07634
969.80 0.07631
969.90 0.07628
970.00 0.07625
970.10 0.07622
970.20 0.07619
970.30 0.07616
970.40 0.07613
970.50 0.0761
970.60 0.07607
970.70 0.07604
970.80 0.07601
970.90 0.07597
971.00 0.07594
971.10 0.07591
971.20 0.07588
971.30 0.07585
971.40 0.07582
971.50 0.07579
971.60 0.07576
971.70 0.07573
971.80 0.0757
971.90 0.07567
972.00 0.07564
972.10 0.07561
972.20 0.07558
972.30 0.07555
972.40 0.07552
972.50 0.07549
972.60 0.07546
972.70 0.07543
972.80 0.0754
972.90 0.07537
973.00 0.07534
973.10 0.0753
973.20 0.07527
973.30 0.07524
973.40 0.07521
973.50 0.07518
973.60 0.07515
973.70 0.07512
973.80 0.07509
973.90 0.07506
974.00 0.07503
974.10 0.075
974.20 0.07497
974.30 0.07494
974.40 0.07491
974.50 0.07488
974.60 0.07485
974.70 0.07482
974.80 0.07479
974.90 0.07476
975.00 0.07473
975.10 0.0747
975.20 0.07467
975.30 0.07464
975.40 0.07461
975.50 0.07458
975.60 0.07455
975.70 0.07452
975.80 0.07449
975.90 0.07446
976.00 0.07443
976.10 0.0744
976.20 0.07437
976.30 0.07434
976.40 0.07431
976.50 0.07428
976.60 0.07425
976.70 0.07422
976.80 0.07419
976.90 0.07416
977.00 0.07413
977.10 0.0741
977.20 0.07407
977.30 0.07404
977.40 0.07401
977.50 0.07399
977.60 0.07396
977.70 0.07393
977.80 0.0739
977.90 0.07387
978.00 0.07384
978.10 0.07381
978.20 0.07378
978.30 0.07375
978.40 0.07372
978.50 0.07369
978.60 0.07366
978.70 0.07363
978.80 0.0736
978.90 0.07357
979.00 0.07354
979.10 0.07351
979.20 0.07348
979.30 0.07345
979.40 0.07342
979.50 0.07339
979.60 0.07336
979.70 0.07334
979.80 0.07331
979.90 0.07328
980.00 0.07325
980.10 0.07322
980.20 0.07319
980.30 0.07316
980.40 0.07313
980.50 0.0731
980.60 0.07307
980.70 0.07304
980.80 0.07301
980.90 0.07298
981.00 0.07295
981.10 0.07292
981.20 0.0729
981.30 0.07287
981.40 0.07284
981.50 0.07281
981.60 0.07278
981.70 0.07275
981.80 0.07272
981.90 0.07269
982.00 0.07266
982.10 0.07263
982.20 0.0726
982.30 0.07257
982.40 0.07255
982.50 0.07252
982.60 0.07249
982.70 0.07246
982.80 0.07243
982.90 0.0724
983.00 0.07237
983.10 0.07234
983.20 0.07231
983.30 0.07228
983.40 0.07226
983.50 0.07223
983.60 0.0722
983.70 0.07217
983.80 0.07214
983.90 0.07211
984.00 0.07208
984.10 0.07205
984.20 0.07202
984.30 0.072
984.40 0.07197
984.50 0.07194
984.60 0.07191
984.70 0.07188
984.80 0.07185
984.90 0.07182
985.00 0.07179
985.10 0.07177
985.20 0.07174
985.30 0.07171
985.40 0.07168
985.50 0.07165
985.60 0.07162
985.70 0.07159
985.80 0.07157
985.90 0.07154
986.00 0.07151
986.10 0.07148
986.20 0.07145
986.30 0.07142
986.40 0.07139
986.50 0.07137
986.60 0.07134
986.70 0.07131
986.80 0.07128
986.90 0.07125
987.00 0.07122
987.10 0.07119
987.20 0.07117
987.30 0.07114
987.40 0.07111
987.50 0.07108
987.60 0.07105
987.70 0.07102
987.80 0.071
987.90 0.07097
988.00 0.07094
988.10 0.07091
988.20 0.07088
988.30 0.07086
988.40 0.07083
988.50 0.0708
988.60 0.07077
988.70 0.07074
988.80 0.07071
988.90 0.07069
989.00 0.07066
989.10 0.07063
989.20 0.0706
989.30 0.07057
989.40 0.07055
989.50 0.07052
989.60 0.07049
989.70 0.07046
989.80 0.07043
989.90 0.0704
990.00 0.07038
990.10 0.07035
990.20 0.07032
990.30 0.07029
990.40 0.07026
990.50 0.07024
990.60 0.07021
990.70 0.07018
990.80 0.07015
990.90 0.07012
991.00 0.0701
991.10 0.07007
991.20 0.07004
991.30 0.07001
991.40 0.06999
991.50 0.06996
991.60 0.06993
991.70 0.0699
991.80 0.06987
991.90 0.06985
992.00 0.06982
992.10 0.06979
992.20 0.06976
992.30 0.06974
992.40 0.06971
992.50 0.06968
992.60 0.06965
992.70 0.06962
992.80 0.0696
992.90 0.06957
993.00 0.06954
993.10 0.06951
993.20 0.06949
993.30 0.06946
993.40 0.06943
993.50 0.0694
993.60 0.06938
993.70 0.06935
993.80 0.06932
993.90 0.06929
994.00 0.06927
994.10 0.06924
994.20 0.06921
994.30 0.06918
994.40 0.06916
994.50 0.06913
994.60 0.0691
994.70 0.06907
994.80 0.06905
994.90 0.06902
995.00 0.06899
995.10 0.06897
995.20 0.06894
995.30 0.06891
995.40 0.06888
995.50 0.06886
995.60 0.06883
995.70 0.0688
995.80 0.06877
995.90 0.06875
996.00 0.06872
996.10 0.06869
996.20 0.06867
996.30 0.06864
996.40 0.06861
996.50 0.06858
996.60 0.06856
996.70 0.06853
996.80 0.0685
996.90 0.06848
997.00 0.06845
997.10 0.06842
997.20 0.0684
997.30 0.06837
997.40 0.06834
997.50 0.06831
997.60 0.06829
997.70 0.06826
997.80 0.06823
997.90 0.06821
998.00 0.06818
998.10 0.06815
998.20 0.06813
998.30 0.0681
998.40 0.06807
998.50 0.06805
998.60 0.06802
998.70 0.06799
998.80 0.06797
998.90 0.06794
999.00 0.06791
999.10 0.06789
999.20 0.06786
999.30 0.06783
999.40 0.06781
999.50 0.06778
999.60 0.06775
999.70 0.06773
999.80 0.0677
999.90 0.06767
1000.00 0.06764
1000.10 0.06761
1000.20 0.06758
1000.30 0.06755
1000.40 0.06752
1000.50 0.0675
1000.60 0.06747
1000.70 0.06744
1000.80 0.06741
1000.90 0.06738
1001.00 0.06735
1001.10 0.06732
1001.20 0.0673
1001.30 0.06727
1001.40 0.06724
1001.50 0.06721
1001.60 0.06718
1001.70 0.06715
1001.80 0.06713
1001.90 0.0671
1002.00 0.06708
1002.10 0.06705
1002.20 0.06703
1002.30 0.067
1002.40 0.06697
1002.50 0.06695
1002.60 0.06692
1002.70 0.0669
1002.80 0.06687
1002.90 0.06685
1003.00 0.06682
1003.10 0.06679
1003.20 0.06677
1003.30 0.06674
1003.40 0.06672
1003.50 0.06669
1003.60 0.06667
1003.70 0.06664
1003.80 0.06662
1003.90 0.06659
1004.00 0.06657
1004.10 0.06654
1004.20 0.06651
1004.30 0.06649
1004.40 0.06646
1004.50 0.06644
1004.60 0.06641
1004.70 0.06639
1004.80 0.06636
1004.90 0.06633
1005.00 0.06631
1005.10 0.06628
1005.20 0.06626
1005.30 0.06623
1005.40 0.06621
1005.50 0.06618
1005.60 0.06615
1005.70 0.06613
1005.80 0.0661
1005.90 0.06608
1006.00 0.06605
1006.10 0.06602
1006.20 0.066
1006.30 0.06597
1006.40 0.06595
1006.50 0.06592
1006.60 0.06589
1006.70 0.06587
1006.80 0.06584
1006.90 0.06582
1007.00 0.06579
1007.10 0.06576
1007.20 0.06574
1007.30 0.06571
1007.40 0.06569
1007.50 0.06566
1007.60 0.06564
1007.70 0.06561
1007.80 0.06558
1007.90 0.06556
1008.00 0.06553
1008.10 0.06551
1008.20 0.06548
1008.30 0.06546
1008.40 0.06543
1008.50 0.06541
1008.60 0.06538
1008.70 0.06536
1008.80 0.06533
1008.90 0.06531
1009.00 0.06528
1009.10 0.06525
1009.20 0.06523
1009.30 0.0652
1009.40 0.06518
1009.50 0.06515
1009.60 0.06513
1009.70 0.0651
1009.80 0.06508
1009.90 0.06505
1010.00 0.06503
1010.10 0.065
1010.20 0.06498
1010.30 0.06495
1010.40 0.06493
1010.50 0.0649
1010.60 0.06488
1010.70 0.06485
1010.80 0.06483
1010.90 0.0648
1011.00 0.06478
1011.10 0.06475
1011.20 0.06473
1011.30 0.0647
1011.40 0.06468
1011.50 0.06465
1011.60 0.06463
1011.70 0.0646
1011.80 0.06458
1011.90 0.06455
1012.00 0.06453
1012.10 0.0645
1012.20 0.06448
1012.30 0.06446
1012.40 0.06443
1012.50 0.06441
1012.60 0.06438
1012.70 0.06436
1012.80 0.06433
1012.90 0.06431
1013.00 0.06428
1013.10 0.06426
1013.20 0.06423
1013.30 0.06421
1013.40 0.06418
1013.50 0.06416
1013.60 0.06414
1013.70 0.06411
1013.80 0.06409
1013.90 0.06406
1014.00 0.06404
1014.10 0.06401
1014.20 0.06399
1014.30 0.06396
1014.40 0.06394
1014.50 0.06392
1014.60 0.06389
1014.70 0.06387
1014.80 0.06384
1014.90 0.06382
1015.00 0.06379
1015.10 0.06377
1015.20 0.06375
1015.30 0.06372
1015.40 0.0637
1015.50 0.06367
1015.60 0.06365
1015.70 0.06363
1015.80 0.0636
1015.90 0.06358
1016.00 0.06355
1016.10 0.06353
1016.20 0.0635
1016.30 0.06348
1016.40 0.06346
1016.50 0.06343
1016.60 0.06341
1016.70 0.06338
1016.80 0.06336
1016.90 0.06334
1017.00 0.06331
1017.10 0.06329
1017.20 0.06326
1017.30 0.06324
1017.40 0.06322
1017.50 0.06319
1017.60 0.06317
1017.70 0.06314
1017.80 0.06312
1017.90 0.0631
1018.00 0.06307
1018.10 0.06305
1018.20 0.06302
1018.30 0.063
1018.40 0.06298
1018.50 0.06295
1018.60 0.06293
1018.70 0.0629
1018.80 0.06288
1018.90 0.06286
1019.00 0.06283
1019.10 0.06281
1019.20 0.06279
1019.30 0.06276
1019.40 0.06274
1019.50 0.06271
1019.60 0.06269
1019.70 0.06267
1019.80 0.06264
1019.90 0.06262
1020.00 0.0626
1020.10 0.06257
1020.20 0.06255
1020.30 0.06252
1020.40 0.0625
1020.50 0.06248
1020.60 0.06245
1020.70 0.06243
1020.80 0.06241
1020.90 0.06238
1021.00 0.06236
1021.10 0.06234
1021.20 0.06231
1021.30 0.06229
1021.40 0.06226
1021.50 0.06224
1021.60 0.06222
1021.70 0.06219
1021.80 0.06217
1021.90 0.06215
1022.00 0.06212
1022.10 0.0621
1022.20 0.06208
1022.30 0.06205
1022.40 0.06203
1022.50 0.06201
1022.60 0.06198
1022.70 0.06196
1022.80 0.06194
1022.90 0.06191
1023.00 0.06189
1023.10 0.06187
1023.20 0.06184
1023.30 0.06182
1023.40 0.0618
1023.50 0.06177
1023.60 0.06175
1023.70 0.06173
1023.80 0.0617
1023.90 0.06168
1024.00 0.06166
1024.10 0.06163
1024.20 0.06161
1024.30 0.06159
1024.40 0.06156
1024.50 0.06154
1024.60 0.06152
1024.70 0.06149
1024.80 0.06147
1024.90 0.06145
1025.00 0.06142
1025.10 0.0614
1025.20 0.06138
1025.30 0.06135
1025.40 0.06133
1025.50 0.06131
1025.60 0.06128
1025.70 0.06126
1025.80 0.06124
1025.90 0.06121
1026.00 0.06119
1026.10 0.06117
1026.20 0.06115
1026.30 0.06112
1026.40 0.0611
1026.50 0.06108
1026.60 0.06105
1026.70 0.06103
1026.80 0.06101
1026.90 0.06098
1027.00 0.06096
1027.10 0.06094
1027.20 0.06091
1027.30 0.06089
1027.40 0.06087
1027.50 0.06085
1027.60 0.06082
1027.70 0.0608
1027.80 0.06078
1027.90 0.06075
1028.00 0.06073
1028.10 0.06071
1028.20 0.06069
1028.30 0.06066
1028.40 0.06064
1028.50 0.06062
1028.60 0.06059
1028.70 0.06057
1028.80 0.06055
1028.90 0.06053
1029.00 0.0605
1029.10 0.06048
1029.20 0.06046
1029.30 0.06043
1029.40 0.06041
1029.50 0.06039
1029.60 0.06037
1029.70 0.06034
1029.80 0.06032
1029.90 0.0603
1030.00 0.06028
1030.10 0.06025
1030.20 0.06023
1030.30 0.06021
1030.40 0.06018
1030.50 0.06016
1030.60 0.06014
1030.70 0.06012
1030.80 0.06009
1030.90 0.06007
1031.00 0.06005
1031.10 0.06003
1031.20 0.06
1031.30 0.05998
1031.40 0.05996
1031.50 0.05994
1031.60 0.05991
1031.70 0.05989
1031.80 0.05987
1031.90 0.05984
1032.00 0.05982
1032.10 0.0598
1032.20 0.05978
1032.30 0.05975
1032.40 0.05973
1032.50 0.05971
1032.60 0.05969
1032.70 0.05966
1032.80 0.05964
1032.90 0.05962
1033.00 0.0596
1033.10 0.05957
1033.20 0.05955
1033.30 0.05953
1033.40 0.05951
1033.50 0.05949
1033.60 0.05946
1033.70 0.05944
1033.80 0.05942
1033.90 0.0594
1034.00 0.05937
1034.10 0.05935
1034.20 0.05933
1034.30 0.05931
1034.40 0.05928
1034.50 0.05926
1034.60 0.05924
1034.70 0.05922
1034.80 0.05919
1034.90 0.05917
1035.00 0.05915
1035.10 0.05913
1035.20 0.05911
1035.30 0.05908
1035.40 0.05906
1035.50 0.05904
1035.60 0.05902
1035.70 0.05899
1035.80 0.05897
1035.90 0.05895
1036.00 0.05893
1036.10 0.05891
1036.20 0.05888
1036.30 0.05886
1036.40 0.05884
1036.50 0.05882
1036.60 0.05879
1036.70 0.05877
1036.80 0.05875
1036.90 0.05873
1037.00 0.05871
1037.10 0.05868
1037.20 0.05866
1037.30 0.05864
1037.40 0.05862
1037.50 0.0586
1037.60 0.05857
1037.70 0.05855
1037.80 0.05853
1037.90 0.05851
1038.00 0.05849
1038.10 0.05846
1038.20 0.05844
1038.30 0.05842
1038.40 0.0584
1038.50 0.05838
1038.60 0.05835
1038.70 0.05833
1038.80 0.05831
1038.90 0.05829
1039.00 0.05827
1039.10 0.05824
1039.20 0.05822
1039.30 0.0582
1039.40 0.05818
1039.50 0.05816
1039.60 0.05813
1039.70 0.05811
1039.80 0.05809
1039.90 0.05807
1040.00 0.05805
1040.10 0.05803
1040.20 0.058
1040.30 0.05798
1040.40 0.05796
1040.50 0.05794
1040.60 0.05792
1040.70 0.05789
1040.80 0.05787
1040.90 0.05785
1041.00 0.05783
1041.10 0.05781
1041.20 0.05779
1041.30 0.05776
1041.40 0.05774
1041.50 0.05772
1041.60 0.0577
1041.70 0.05768
1041.80 0.05765
1041.90 0.05763
1042.00 0.05761
1042.10 0.05759
1042.20 0.05757
1042.30 0.05755
1042.40 0.05753
1042.50 0.0575
1042.60 0.05748
1042.70 0.05746
1042.80 0.05744
1042.90 0.05742
1043.00 0.0574
1043.10 0.05737
1043.20 0.05735
1043.30 0.05733
1043.40 0.05731
1043.50 0.05729
1043.60 0.05727
1043.70 0.05724
1043.80 0.05722
1043.90 0.0572
1044.00 0.05718
1044.10 0.05716
1044.20 0.05714
1044.30 0.05712
1044.40 0.05709
1044.50 0.05707
1044.60 0.05705
1044.70 0.05703
1044.80 0.05701
1044.90 0.05699
1045.00 0.05697
1045.10 0.05694
1045.20 0.05692
1045.30 0.0569
1045.40 0.05688
1045.50 0.05686
1045.60 0.05684
1045.70 0.05682
1045.80 0.05679
1045.90 0.05677
1046.00 0.05675
1046.10 0.05673
1046.20 0.05671
1046.30 0.05669
1046.40 0.05667
1046.50 0.05665
1046.60 0.05662
1046.70 0.0566
1046.80 0.05658
1046.90 0.05656
1047.00 0.05654
1047.10 0.05652
1047.20 0.0565
1047.30 0.05648
1047.40 0.05645
1047.50 0.05643
1047.60 0.05641
1047.70 0.05639
1047.80 0.05637
1047.90 0.05635
1048.00 0.05633
1048.10 0.05631
1048.20 0.05628
1048.30 0.05626
1048.40 0.05624
1048.50 0.05622
1048.60 0.0562
1048.70 0.05618
1048.80 0.05616
1048.90 0.05614
1049.00 0.05612
1049.10 0.05609
1049.20 0.05607
1049.30 0.05605
1049.40 0.05603
1049.50 0.05601
1049.60 0.05599
1049.70 0.05597
1049.80 0.05595
1049.90 0.05593
1050.00 0.05591
1050.10 0.05588
1050.20 0.05586
1050.30 0.05584
1050.40 0.05582
1050.50 0.0558
1050.60 0.05578
1050.70 0.05576
1050.80 0.05574
1050.90 0.05572
1051.00 0.0557
1051.10 0.05567
1051.20 0.05565
1051.30 0.05563
1051.40 0.05561
1051.50 0.05559
1051.60 0.05557
1051.70 0.05555
1051.80 0.05553
1051.90 0.05551
1052.00 0.05549
1052.10 0.05547
1052.20 0.05545
1052.30 0.05542
1052.40 0.0554
1052.50 0.05538
1052.60 0.05536
1052.70 0.05534
1052.80 0.05532
1052.90 0.0553
1053.00 0.05528
1053.10 0.05526
1053.20 0.05524
1053.30 0.05522
1053.40 0.0552
1053.50 0.05518
1053.60 0.05515
1053.70 0.05513
1053.80 0.05511
1053.90 0.05509
1054.00 0.05507
1054.10 0.05505
1054.20 0.05503
1054.30 0.05501
1054.40 0.05499
1054.50 0.05497
1054.60 0.05495
1054.70 0.05493
1054.80 0.05491
1054.90 0.05489
1055.00 0.05487
1055.10 0.05484
1055.20 0.05482
1055.30 0.0548
1055.40 0.05478
1055.50 0.05476
1055.60 0.05474
1055.70 0.05472
1055.80 0.0547
1055.90 0.05468
1056.00 0.05466
1056.10 0.05464
1056.20 0.05462
1056.30 0.0546
1056.40 0.05458
1056.50 0.05456
1056.60 0.05454
1056.70 0.05452
1056.80 0.0545
1056.90 0.05447
1057.00 0.05445
1057.10 0.05443
1057.20 0.05441
1057.30 0.05439
1057.40 0.05437
1057.50 0.05435
1057.60 0.05433
1057.70 0.05431
1057.80 0.05429
1057.90 0.05427
1058.00 0.05425
1058.10 0.05423
1058.20 0.05421
1058.30 0.05419
1058.40 0.05417
1058.50 0.05415
1058.60 0.05413
1058.70 0.05411
1058.80 0.05409
1058.90 0.05407
1059.00 0.05405
1059.10 0.05403
1059.20 0.05401
1059.30 0.05399
1059.40 0.05397
1059.50 0.05395
1059.60 0.05393
1059.70 0.05391
1059.80 0.05388
1059.90 0.05386
1060.00 0.05384
1060.10 0.05382
1060.20 0.0538
1060.30 0.05378
1060.40 0.05376
1060.50 0.05374
1060.60 0.05372
1060.70 0.0537
1060.80 0.05368
1060.90 0.05366
1061.00 0.05364
1061.10 0.05362
1061.20 0.0536
1061.30 0.05358
1061.40 0.05356
1061.50 0.05354
1061.60 0.05352
1061.70 0.0535
1061.80 0.05348
1061.90 0.05346
1062.00 0.05344
1062.10 0.05342
1062.20 0.0534
1062.30 0.05338
1062.40 0.05336
1062.50 0.05334
1062.60 0.05332
1062.70 0.0533
1062.80 0.05328
1062.90 0.05326
1063.00 0.05324
1063.10 0.05322
1063.20 0.0532
1063.30 0.05318
1063.40 0.05316
1063.50 0.05314
1063.60 0.05312
1063.70 0.0531
1063.80 0.05308
1063.90 0.05306
1064.00 0.05304
1064.10 0.05302
1064.20 0.053
1064.30 0.05298
1064.40 0.05296
1064.50 0.05294
1064.60 0.05292
1064.70 0.0529
1064.80 0.05288
1064.90 0.05286
1065.00 0.05284
1065.10 0.05282
1065.20 0.0528
1065.30 0.05278
1065.40 0.05276
1065.50 0.05274
1065.60 0.05272
1065.70 0.0527
1065.80 0.05268
1065.90 0.05266
1066.00 0.05264
1066.10 0.05262
1066.20 0.0526
1066.30 0.05258
1066.40 0.05256
1066.50 0.05254
1066.60 0.05252
1066.70 0.0525
1066.80 0.05248
1066.90 0.05246
1067.00 0.05245
1067.10 0.05243
1067.20 0.05241
1067.30 0.05239
1067.40 0.05237
1067.50 0.05235
1067.60 0.05233
1067.70 0.05231
1067.80 0.05229
1067.90 0.05227
1068.00 0.05225
1068.10 0.05223
1068.20 0.05221
1068.30 0.05219
1068.40 0.05217
1068.50 0.05215
1068.60 0.05213
1068.70 0.05211
1068.80 0.05209
1068.90 0.05207
1069.00 0.05205
1069.10 0.05203
1069.20 0.05201
1069.30 0.05199
1069.40 0.05197
1069.50 0.05195
1069.60 0.05193
1069.70 0.05191
1069.80 0.05189
1069.90 0.05188
1070.00 0.05186
1070.10 0.05184
1070.20 0.05182
1070.30 0.0518
1070.40 0.05178
1070.50 0.05176
1070.60 0.05174
1070.70 0.05172
1070.80 0.0517
1070.90 0.05168
1071.00 0.05166
1071.10 0.05164
1071.20 0.05162
1071.30 0.0516
1071.40 0.05158
1071.50 0.05156
1071.60 0.05154
1071.70 0.05152
1071.80 0.0515
1071.90 0.05149
1072.00 0.05147
1072.10 0.05145
1072.20 0.05143
1072.30 0.05141
1072.40 0.05139
1072.50 0.05137
1072.60 0.05135
1072.70 0.05133
1072.80 0.05131
1072.90 0.05129
1073.00 0.05127
1073.10 0.05125
1073.20 0.05123
1073.30 0.05121
1073.40 0.05119
1073.50 0.05118
1073.60 0.05116
1073.70 0.05114
1073.80 0.05112
1073.90 0.0511
1074.00 0.05108
1074.10 0.05106
1074.20 0.05104
1074.30 0.05102
1074.40 0.051
1074.50 0.05098
1074.60 0.05096
1074.70 0.05094
1074.80 0.05092
1074.90 0.05091
1075.00 0.05089
1075.10 0.05087
1075.20 0.05085
1075.30 0.05083
1075.40 0.05081
1075.50 0.05079
1075.60 0.05077
1075.70 0.05075
1075.80 0.05073
1075.90 0.05071
1076.00 0.05069
1076.10 0.05067
1076.20 0.05066
1076.30 0.05064
1076.40 0.05062
1076.50 0.0506
1076.60 0.05058
1076.70 0.05056
1076.80 0.05054
1076.90 0.05052
1077.00 0.0505
1077.10 0.05048
1077.20 0.05046
1077.30 0.05045
1077.40 0.05043
1077.50 0.05041
1077.60 0.05039
1077.70 0.05037
1077.80 0.05035
1077.90 0.05033
1078.00 0.05031
1078.10 0.05029
1078.20 0.05027
1078.30 0.05025
1078.40 0.05024
1078.50 0.05022
1078.60 0.0502
1078.70 0.05018
1078.80 0.05016
1078.90 0.05014
1079.00 0.05012
1079.10 0.0501
1079.20 0.05008
1079.30 0.05007
1079.40 0.05005
1079.50 0.05003
1079.60 0.05001
1079.70 0.04999
1079.80 0.04997
1079.90 0.04995
1080.00 0.04993
1080.10 0.04991
1080.20 0.04989
1080.30 0.04988
1080.40 0.04986
1080.50 0.04984
1080.60 0.04982
1080.70 0.0498
1080.80 0.04978
1080.90 0.04976
1081.00 0.04974
1081.10 0.04973
1081.20 0.04971
1081.30 0.04969
1081.40 0.04967
1081.50 0.04965
1081.60 0.04963
1081.70 0.04961
1081.80 0.04959
1081.90 0.04958
1082.00 0.04956
1082.10 0.04954
1082.20 0.04952
1082.30 0.0495
1082.40 0.04948
1082.50 0.04946
1082.60 0.04944
1082.70 0.04943
1082.80 0.04941
1082.90 0.04939
1083.00 0.04937
1083.10 0.04935
1083.20 0.04933
1083.30 0.04931
1083.40 0.04929
1083.50 0.04928
1083.60 0.04926
1083.70 0.04924
1083.80 0.04922
1083.90 0.0492
1084.00 0.04918
1084.10 0.04916
1084.20 0.04915
1084.30 0.04913
1084.40 0.04911
1084.50 0.04909
1084.60 0.04907
1084.70 0.04905
1084.80 0.04903
1084.90 0.04902
1085.00 0.049
1085.10 0.04898
1085.20 0.04896
1085.30 0.04894
1085.40 0.04892
1085.50 0.04891
1085.60 0.04889
1085.70 0.04887
1085.80 0.04885
1085.90 0.04883
1086.00 0.04881
1086.10 0.04879
1086.20 0.04878
1086.30 0.04876
1086.40 0.04874
1086.50 0.04872
1086.60 0.0487
1086.70 0.04868
1086.80 0.04867
1086.90 0.04865
1087.00 0.04863
1087.10 0.04861
1087.20 0.04859
1087.30 0.04857
1087.40 0.04856
1087.50 0.04854
1087.60 0.04852
1087.70 0.0485
1087.80 0.04848
1087.90 0.04847
1088.00 0.04845
1088.10 0.04843
1088.20 0.04841
1088.30 0.04839
1088.40 0.04837
1088.50 0.04836
1088.60 0.04834
1088.70 0.04832
1088.80 0.0483
1088.90 0.04828
1089.00 0.04827
1089.10 0.04825
1089.20 0.04823
1089.30 0.04821
1089.40 0.04819
1089.50 0.04818
1089.60 0.04816
1089.70 0.04814
1089.80 0.04812
1089.90 0.0481
1090.00 0.04809
1090.10 0.04807
1090.20 0.04805
1090.30 0.04803
1090.40 0.04801
1090.50 0.048
1090.60 0.04798
1090.70 0.04796
1090.80 0.04794
1090.90 0.04792
1091.00 0.04791
1091.10 0.04789
1091.20 0.04787
1091.30 0.04785
1091.40 0.04783
1091.50 0.04782
1091.60 0.0478
1091.70 0.04778
1091.80 0.04776
1091.90 0.04775
1092.00 0.04773
1092.10 0.04771
1092.20 0.04769
1092.30 0.04767
1092.40 0.04766
1092.50 0.04764
1092.60 0.04762
1092.70 0.04761
1092.80 0.04759
1092.90 0.04757
1093.00 0.04755
1093.10 0.04754
1093.20 0.04752
1093.30 0.04751
1093.40 0.04749
1093.50 0.04748
1093.60 0.04746
1093.70 0.04745
1093.80 0.04743
1093.90 0.04742
1094.00 0.0474
1094.10 0.04739
1094.20 0.04737
1094.30 0.04735
1094.40 0.04734
1094.50 0.04732
1094.60 0.0473
1094.70 0.04728
1094.80 0.04727
1094.90 0.04725
1095.00 0.04723
1095.10 0.04722
1095.20 0.0472
1095.30 0.04718
1095.40 0.04717
1095.50 0.04715
1095.60 0.04714
1095.70 0.04712
1095.80 0.0471
1095.90 0.04709
1096.00 0.04707
1096.10 0.04706
1096.20 0.04704
1096.30 0.04702
1096.40 0.04701
1096.50 0.04699
1096.60 0.04698
1096.70 0.04696
1096.80 0.04694
1096.90 0.04693
1097.00 0.04691
1097.10 0.0469
1097.20 0.04688
1097.30 0.04686
1097.40 0.04685
1097.50 0.04683
1097.60 0.04682
1097.70 0.0468
1097.80 0.04678
1097.90 0.04677
1098.00 0.04675
1098.10 0.04674
1098.20 0.04672
1098.30 0.04671
1098.40 0.04669
1098.50 0.04667
1098.60 0.04666
1098.70 0.04664
1098.80 0.04663
1098.90 0.04661
1099.00 0.04659
1099.10 0.04658
1099.20 0.04656
1099.30 0.04655
1099.40 0.04653
1099.50 0.04652
1099.60 0.0465
1099.70 0.04648
1099.80 0.04647
1099.90 0.04645
1100.00 0.04644
1100.10 0.04642
1100.20 0.04641
1100.30 0.04639
1100.40 0.04637
1100.50 0.04636
1100.60 0.04634
1100.70 0.04633
1100.80 0.04631
1100.90 0.0463
1101.00 0.04628
1101.10 0.04627
1101.20 0.04625
1101.30 0.04623
1101.40 0.04622
1101.50 0.0462
1101.60 0.04619
1101.70 0.04617
1101.80 0.04616
1101.90 0.04614
1102.00 0.04613
1102.10 0.04611
1102.20 0.04609
1102.30 0.04608
1102.40 0.04606
1102.50 0.04605
1102.60 0.04603
1102.70 0.04602
1102.80 0.046
1102.90 0.04599
1103.00 0.04597
1103.10 0.04595
1103.20 0.04594
1103.30 0.04592
1103.40 0.04591
1103.50 0.04589
1103.60 0.04588
1103.70 0.04586
1103.80 0.04585
1103.90 0.04583
1104.00 0.04582
1104.10 0.0458
1104.20 0.04578
1104.30 0.04577
1104.40 0.04575
1104.50 0.04574
1104.60 0.04572
1104.70 0.04571
1104.80 0.04569
1104.90 0.04568
1105.00 0.04566
1105.10 0.04565
1105.20 0.04563
1105.30 0.04562
1105.40 0.0456
1105.50 0.04558
1105.60 0.04557
1105.70 0.04555
1105.80 0.04554
1105.90 0.04552
1106.00 0.04551
1106.10 0.04549
1106.20 0.04548
1106.30 0.04546
1106.40 0.04545
1106.50 0.04543
1106.60 0.04542
1106.70 0.0454
1106.80 0.04539
1106.90 0.04537
1107.00 0.04535
1107.10 0.04534
1107.20 0.04532
1107.30 0.04531
1107.40 0.04529
1107.50 0.04528
1107.60 0.04526
1107.70 0.04525
1107.80 0.04523
1107.90 0.04522
1108.00 0.0452
1108.10 0.04519
1108.20 0.04517
1108.30 0.04516
1108.40 0.04514
1108.50 0.04513
1108.60 0.04511
1108.70 0.0451
1108.80 0.04508
1108.90 0.04507
1109.00 0.04505
1109.10 0.04504
1109.20 0.04502
1109.30 0.045
1109.40 0.04499
1109.50 0.04497
1109.60 0.04496
1109.70 0.04494
1109.80 0.04493
1109.90 0.04491
1110.00 0.0449
1110.10 0.04488
1110.20 0.04487
1110.30 0.04485
1110.40 0.04484
1110.50 0.04482
1110.60 0.04481
1110.70 0.04479
1110.80 0.04478
1110.90 0.04476
1111.00 0.04475
1111.10 0.04473
1111.20 0.04472
1111.30 0.0447
1111.40 0.04469
1111.50 0.04467
1111.60 0.04466
1111.70 0.04464
1111.80 0.04463
1111.90 0.04461
1112.00 0.0446
1112.10 0.04458
1112.20 0.04457
1112.30 0.04455
1112.40 0.04454
1112.50 0.04452
1112.60 0.04451
1112.70 0.04449
1112.80 0.04448
1112.90 0.04446
1113.00 0.04445
1113.10 0.04443
1113.20 0.04442
1113.30 0.0444
1113.40 0.04439
1113.50 0.04437
1113.60 0.04436
1113.70 0.04434
1113.80 0.04433
1113.90 0.04431
1114.00 0.0443
1114.10 0.04428
1114.20 0.04427
1114.30 0.04425
1114.40 0.04424
1114.50 0.04422
1114.60 0.04421
1114.70 0.04419
1114.80 0.04418
1114.90 0.04416
1115.00 0.04415
1115.10 0.04413
1115.20 0.04412
1115.30 0.0441
1115.40 0.04409
1115.50 0.04407
1115.60 0.04406
1115.70 0.04404
1115.80 0.04403
1115.90 0.04401
1116.00 0.044
1116.10 0.04398
1116.20 0.04397
1116.30 0.04395
1116.40 0.04394
1116.50 0.04392
1116.60 0.04391
1116.70 0.04389
1116.80 0.04388
1116.90 0.04386
1117.00 0.04385
1117.10 0.04383
1117.20 0.04382
1117.30 0.0438
1117.40 0.04379
1117.50 0.04377
1117.60 0.04376
1117.70 0.04374
1117.80 0.04373
1117.90 0.04371
1118.00 0.0437
1118.10 0.04368
1118.20 0.04367
1118.30 0.04365
1118.40 0.04364
1118.50 0.04363
1118.60 0.04361
1118.70 0.0436
1118.80 0.04358
1118.90 0.04357
1119.00 0.04355
1119.10 0.04354
1119.20 0.04352
1119.30 0.04351
1119.40 0.04349
1119.50 0.04348
1119.60 0.04346
1119.70 0.04345
1119.80 0.04343
1119.90 0.04342
1120.00 0.0434
1120.10 0.04339
1120.20 0.04337
1120.30 0.04336
1120.40 0.04334
1120.50 0.04333
1120.60 0.04332
1120.70 0.0433
1120.80 0.04329
1120.90 0.04327
1121.00 0.04326
1121.10 0.04324
1121.20 0.04323
1121.30 0.04321
1121.40 0.0432
1121.50 0.04318
1121.60 0.04317
1121.70 0.04315
1121.80 0.04314
1121.90 0.04312
1122.00 0.04311
1122.10 0.04309
1122.20 0.04308
1122.30 0.04307
1122.40 0.04305
1122.50 0.04304
1122.60 0.04302
1122.70 0.04301
1122.80 0.04299
1122.90 0.04298
1123.00 0.04296
1123.10 0.04295
1123.20 0.04293
1123.30 0.04292
1123.40 0.0429
1123.50 0.04289
1123.60 0.04288
1123.70 0.04286
1123.80 0.04285
1123.90 0.04283
1124.00 0.04282
1124.10 0.0428
1124.20 0.04279
1124.30 0.04277
1124.40 0.04276
1124.50 0.04274
1124.60 0.04273
1124.70 0.04271
1124.80 0.0427
1124.90 0.04269
1125.00 0.04267
1125.10 0.04266
1125.20 0.04264
1125.30 0.04263
1125.40 0.04261
1125.50 0.0426
1125.60 0.04258
1125.70 0.04257
1125.80 0.04255
1125.90 0.04254
1126.00 0.04253
1126.10 0.04251
1126.20 0.0425
1126.30 0.04248
1126.40 0.04247
1126.50 0.04245
1126.60 0.04244
1126.70 0.04242
1126.80 0.04241
1126.90 0.0424
1127.00 0.04238
1127.10 0.04237
1127.20 0.04235
1127.30 0.04234
1127.40 0.04232
1127.50 0.04231
1127.60 0.04229
1127.70 0.04228
1127.80 0.04227
1127.90 0.04225
1128.00 0.04224
1128.10 0.04222
1128.20 0.04221
1128.30 0.04219
1128.40 0.04218
1128.50 0.04216
1128.60 0.04215
1128.70 0.04214
1128.80 0.04212
1128.90 0.04211
1129.00 0.04209
1129.10 0.04208
1129.20 0.04206
1129.30 0.04205
1129.40 0.04204
1129.50 0.04202
1129.60 0.04201
1129.70 0.04199
1129.80 0.04198
1129.90 0.04196
1130.00 0.04195
1130.10 0.04194
1130.20 0.04192
1130.30 0.04191
1130.40 0.04189
1130.50 0.04188
1130.60 0.04186
1130.70 0.04185
1130.80 0.04184
1130.90 0.04182
1131.00 0.04181
1131.10 0.04179
1131.20 0.04178
1131.30 0.04176
1131.40 0.04175
1131.50 0.04174
1131.60 0.04172
1131.70 0.04171
1131.80 0.04169
1131.90 0.04168
1132.00 0.04166
1132.10 0.04165
1132.20 0.04164
1132.30 0.04162
1132.40 0.04161
1132.50 0.04159
1132.60 0.04158
1132.70 0.04157
1132.80 0.04155
1132.90 0.04154
1133.00 0.04152
1133.10 0.04151
1133.20 0.04149
1133.30 0.04148
1133.40 0.04147
1133.50 0.04145
1133.60 0.04144
1133.70 0.04142
1133.80 0.04141
1133.90 0.0414
1134.00 0.04138
1134.10 0.04137
1134.20 0.04135
1134.30 0.04134
1134.40 0.04132
1134.50 0.04131
1134.60 0.0413
1134.70 0.04128
1134.80 0.04127
1134.90 0.04125
1135.00 0.04124
1135.10 0.04123
1135.20 0.04121
1135.30 0.0412
1135.40 0.04118
1135.50 0.04117
1135.60 0.04116
1135.70 0.04114
1135.80 0.04113
1135.90 0.04111
1136.00 0.0411
1136.10 0.04109
1136.20 0.04107
1136.30 0.04106
1136.40 0.04104
1136.50 0.04103
1136.60 0.04102
1136.70 0.041
1136.80 0.04099
1136.90 0.04097
1137.00 0.04096
1137.10 0.04095
1137.20 0.04093
1137.30 0.04092
1137.40 0.0409
1137.50 0.04089
1137.60 0.04088
1137.70 0.04086
1137.80 0.04085
1137.90 0.04083
1138.00 0.04082
1138.10 0.04081
1138.20 0.04079
1138.30 0.04078
1138.40 0.04076
1138.50 0.04075
1138.60 0.04074
1138.70 0.04072
1138.80 0.04071
1138.90 0.0407
1139.00 0.04068
1139.10 0.04067
1139.20 0.04065
1139.30 0.04064
1139.40 0.04063
1139.50 0.04061
1139.60 0.0406
1139.70 0.04058
1139.80 0.04057
1139.90 0.04056
1140.00 0.04054
1140.10 0.04053
1140.20 0.04052
1140.30 0.0405
1140.40 0.04049
1140.50 0.04047
1140.60 0.04046
1140.70 0.04045
1140.80 0.04043
1140.90 0.04042
1141.00 0.0404
1141.10 0.04039
1141.20 0.04038
1141.30 0.04036
1141.40 0.04035
1141.50 0.04034
1141.60 0.04032
1141.70 0.04031
1141.80 0.04029
1141.90 0.04028
1142.00 0.04027
1142.10 0.04025
1142.20 0.04024
1142.30 0.04023
1142.40 0.04021
1142.50 0.0402
1142.60 0.04019
1142.70 0.04017
1142.80 0.04016
1142.90 0.04014
1143.00 0.04013
1143.10 0.04012
1143.20 0.0401
1143.30 0.04009
1143.40 0.04008
1143.50 0.04006
1143.60 0.04005
1143.70 0.04003
1143.80 0.04002
1143.90 0.04001
1144.00 0.03999
1144.10 0.03998
1144.20 0.03997
1144.30 0.03995
1144.40 0.03994
1144.50 0.03993
1144.60 0.03991
1144.70 0.0399
1144.80 0.03989
1144.90 0.03987
1145.00 0.03986
1145.10 0.03984
1145.20 0.03983
1145.30 0.03982
1145.40 0.0398
1145.50 0.03979
1145.60 0.03978
1145.70 0.03976
1145.80 0.03975
1145.90 0.03974
1146.00 0.03972
1146.10 0.03971
1146.20 0.0397
1146.30 0.03968
1146.40 0.03967
1146.50 0.03965
1146.60 0.03964
1146.70 0.03963
1146.80 0.03961
1146.90 0.0396
1147.00 0.03959
1147.10 0.03957
1147.20 0.03956
1147.30 0.03955
1147.40 0.03953
1147.50 0.03952
1147.60 0.03951
1147.70 0.03949
1147.80 0.03948
1147.90 0.03947
1148.00 0.03945
1148.10 0.03944
1148.20 0.03943
1148.30 0.03941
1148.40 0.0394
1148.50 0.03939
1148.60 0.03937
1148.70 0.03936
1148.80 0.03935
1148.90 0.03933
1149.00 0.03932
1149.10 0.03931
1149.20 0.03929
1149.30 0.03928
1149.40 0.03927
1149.50 0.03925
1149.60 0.03924
1149.70 0.03923
1149.80 0.03921
1149.90 0.0392
1150.00 0.03919
1150.10 0.03917
1150.20 0.03916
1150.30 0.03915
1150.40 0.03913
1150.50 0.03912
1150.60 0.03911
1150.70 0.03909
1150.80 0.03908
1150.90 0.03907
1151.00 0.03905
1151.10 0.03904
1151.20 0.03903
1151.30 0.03901
1151.40 0.039
1151.50 0.03899
1151.60 0.03897
1151.70 0.03896
1151.80 0.03895
1151.90 0.03893
1152.00 0.03892
1152.10 0.03891
1152.20 0.03889
1152.30 0.03888
1152.40 0.03887
1152.50 0.03885
1152.60 0.03884
1152.70 0.03883
1152.80 0.03882
1152.90 0.0388
1153.00 0.03879
1153.10 0.03878
1153.20 0.03876
1153.30 0.03875
1153.40 0.03874
1153.50 0.03872
1153.60 0.03871
1153.70 0.0387
1153.80 0.03868
1153.90 0.03867
1154.00 0.03866
1154.10 0.03864
1154.20 0.03863
1154.30 0.03862
1154.40 0.03861
1154.50 0.03859
1154.60 0.03858
1154.70 0.03857
1154.80 0.03855
1154.90 0.03854
1155.00 0.03853
1155.10 0.03851
1155.20 0.0385
1155.30 0.03849
1155.40 0.03847
1155.50 0.03846
1155.60 0.03845
1155.70 0.03844
1155.80 0.03842
1155.90 0.03841
1156.00 0.0384
1156.10 0.03838
1156.20 0.03837
1156.30 0.03836
1156.40 0.03834
1156.50 0.03833
1156.60 0.03832
1156.70 0.03831
1156.80 0.03829
1156.90 0.03828
1157.00 0.03827
1157.10 0.03825
1157.20 0.03824
1157.30 0.03823
1157.40 0.03822
1157.50 0.0382
1157.60 0.03819
1157.70 0.03818
1157.80 0.03816
1157.90 0.03815
1158.00 0.03814
1158.10 0.03812
1158.20 0.03811
1158.30 0.0381
1158.40 0.03809
1158.50 0.03807
1158.60 0.03806
1158.70 0.03805
1158.80 0.03803
1158.90 0.03802
1159.00 0.03801
1159.10 0.038
1159.20 0.03798
1159.30 0.03797
1159.40 0.03796
1159.50 0.03795
1159.60 0.03793
1159.70 0.03792
1159.80 0.03791
1159.90 0.03789
1160.00 0.03788
1160.10 0.03787
1160.20 0.03786
1160.30 0.03784
1160.40 0.03783
1160.50 0.03782
1160.60 0.0378
1160.70 0.03779
1160.80 0.03778
1160.90 0.03777
1161.00 0.03775
1161.10 0.03774
1161.20 0.03773
1161.30 0.03771
1161.40 0.0377
1161.50 0.03769
1161.60 0.03768
1161.70 0.03766
1161.80 0.03765
1161.90 0.03764
1162.00 0.03763
1162.10 0.03761
1162.20 0.0376
1162.30 0.03759
1162.40 0.03758
1162.50 0.03756
1162.60 0.03755
1162.70 0.03754
1162.80 0.03752
1162.90 0.03751
1163.00 0.0375
1163.10 0.03749
1163.20 0.03747
1163.30 0.03746
1163.40 0.03745
1163.50 0.03744
1163.60 0.03742
1163.70 0.03741
1163.80 0.0374
1163.90 0.03739
1164.00 0.03737
1164.10 0.03736
1164.20 0.03735
1164.30 0.03734
1164.40 0.03732
1164.50 0.03731
1164.60 0.0373
1164.70 0.03729
1164.80 0.03727
1164.90 0.03726
1165.00 0.03725
1165.10 0.03724
1165.20 0.03722
1165.30 0.03721
1165.40 0.0372
1165.50 0.03718
1165.60 0.03717
1165.70 0.03716
1165.80 0.03715
1165.90 0.03713
1166.00 0.03712
1166.10 0.03711
1166.20 0.0371
1166.30 0.03708
1166.40 0.03707
1166.50 0.03706
1166.60 0.03705
1166.70 0.03703
1166.80 0.03702
1166.90 0.03701
1167.00 0.037
1167.10 0.03699
1167.20 0.03697
1167.30 0.03696
1167.40 0.03695
1167.50 0.03694
1167.60 0.03692
1167.70 0.03691
1167.80 0.0369
1167.90 0.03689
1168.00 0.03687
1168.10 0.03686
1168.20 0.03685
1168.30 0.03684
1168.40 0.03682
1168.50 0.03681
1168.60 0.0368
1168.70 0.03679
1168.80 0.03677
1168.90 0.03676
1169.00 0.03675
1169.10 0.03674
1169.20 0.03673
1169.30 0.03671
1169.40 0.0367
1169.50 0.03669
1169.60 0.03668
1169.70 0.03666
1169.80 0.03665
1169.90 0.03664
1170.00 0.03663
1170.10 0.03661
1170.20 0.0366
1170.30 0.03659
1170.40 0.03658
1170.50 0.03657
1170.60 0.03655
1170.70 0.03654
1170.80 0.03653
1170.90 0.03652
1171.00 0.0365
1171.10 0.03649
1171.20 0.03648
1171.30 0.03647
1171.40 0.03646
1171.50 0.03644
1171.60 0.03643
1171.70 0.03642
1171.80 0.03641
1171.90 0.03639
1172.00 0.03638
1172.10 0.03637
1172.20 0.03636
1172.30 0.03635
1172.40 0.03633
1172.50 0.03632
1172.60 0.03631
1172.70 0.0363
1172.80 0.03628
1172.90 0.03627
1173.00 0.03626
1173.10 0.03625
1173.20 0.03624
1173.30 0.03622
1173.40 0.03621
1173.50 0.0362
1173.60 0.03619
1173.70 0.03618
1173.80 0.03616
1173.90 0.03615
1174.00 0.03614
1174.10 0.03613
1174.20 0.03612
1174.30 0.0361
1174.40 0.03609
1174.50 0.03608
1174.60 0.03607
1174.70 0.03605
1174.80 0.03604
1174.90 0.03603
1175.00 0.03602
1175.10 0.03601
1175.20 0.03599
1175.30 0.03598
1175.40 0.03597
1175.50 0.03596
1175.60 0.03595
1175.70 0.03593
1175.80 0.03592
1175.90 0.03591
1176.00 0.0359
1176.10 0.03589
1176.20 0.03587
1176.30 0.03586
1176.40 0.03585
1176.50 0.03584
1176.60 0.03583
1176.70 0.03581
1176.80 0.0358
1176.90 0.03579
1177.00 0.03578
1177.10 0.03577
1177.20 0.03575
1177.30 0.03574
1177.40 0.03573
1177.50 0.03572
1177.60 0.03571
1177.70 0.0357
1177.80 0.03568
1177.90 0.03567
1178.00 0.03566
1178.10 0.03565
1178.20 0.03564
1178.30 0.03562
1178.40 0.03561
1178.50 0.0356
1178.60 0.03559
1178.70 0.03558
1178.80 0.03556
1178.90 0.03555
1179.00 0.03554
1179.10 0.03553
1179.20 0.03552
1179.30 0.03551
1179.40 0.03549
1179.50 0.03548
1179.60 0.03547
1179.70 0.03546
1179.80 0.03545
1179.90 0.03543
1180.00 0.03542
1180.10 0.03541
1180.20 0.0354
1180.30 0.03539
1180.40 0.03538
1180.50 0.03536
1180.60 0.03535
1180.70 0.03534
1180.80 0.03533
1180.90 0.03532
1181.00 0.0353
1181.10 0.03529
1181.20 0.03528
1181.30 0.03527
1181.40 0.03526
1181.50 0.03525
1181.60 0.03523
1181.70 0.03522
1181.80 0.03521
1181.90 0.0352
1182.00 0.03519
1182.10 0.03518
1182.20 0.03516
1182.30 0.03515
1182.40 0.03514
1182.50 0.03513
1182.60 0.03512
1182.70 0.03511
1182.80 0.03509
1182.90 0.03508
1183.00 0.03507
1183.10 0.03506
1183.20 0.03505
1183.30 0.03504
1183.40 0.03502
1183.50 0.03501
1183.60 0.035
1183.70 0.03499
1183.80 0.03498
1183.90 0.03497
1184.00 0.03495
1184.10 0.03494
1184.20 0.03493
1184.30 0.03492
1184.40 0.03491
1184.50 0.0349
1184.60 0.03488
1184.70 0.03487
1184.80 0.03486
1184.90 0.03485
1185.00 0.03484
1185.10 0.03483
1185.20 0.03482
1185.30 0.0348
1185.40 0.03479
1185.50 0.03478
1185.60 0.03477
1185.70 0.03476
1185.80 0.03475
1185.90 0.03473
1186.00 0.03472
1186.10 0.03471
1186.20 0.0347
1186.30 0.03469
1186.40 0.03468
1186.50 0.03466
1186.60 0.03465
1186.70 0.03464
1186.80 0.03463
1186.90 0.03462
1187.00 0.03461
1187.10 0.0346
1187.20 0.03458
1187.30 0.03457
1187.40 0.03456
1187.50 0.03455
1187.60 0.03454
1187.70 0.03453
1187.80 0.03452
1187.90 0.0345
1188.00 0.03449
1188.10 0.03448
1188.20 0.03447
1188.30 0.03446
1188.40 0.03445
1188.50 0.03444
1188.60 0.03442
1188.70 0.03441
1188.80 0.0344
1188.90 0.03439
1189.00 0.03438
1189.10 0.03437
1189.20 0.03436
1189.30 0.03434
1189.40 0.03433
1189.50 0.03432
1189.60 0.03431
1189.70 0.0343
1189.80 0.03429
1189.90 0.03428
1190.00 0.03427
1190.10 0.03425
1190.20 0.03424
1190.30 0.03423
1190.40 0.03422
1190.50 0.03421
1190.60 0.0342
1190.70 0.03419
1190.80 0.03417
1190.90 0.03416
1191.00 0.03415
1191.10 0.03414
1191.20 0.03413
1191.30 0.03412
1191.40 0.03411
1191.50 0.0341
1191.60 0.03408
1191.70 0.03407
1191.80 0.03406
1191.90 0.03405
1192.00 0.03404
1192.10 0.03403
1192.20 0.03402
1192.30 0.03401
1192.40 0.03399
1192.50 0.03398
1192.60 0.03397
1192.70 0.03396
1192.80 0.03395
1192.90 0.03394
1193.00 0.03393
1193.10 0.03392
1193.20 0.0339
1193.30 0.03389
1193.40 0.03388
1193.50 0.03387
1193.60 0.03386
1193.70 0.03385
1193.80 0.03384
1193.90 0.03383
1194.00 0.03382
1194.10 0.0338
1194.20 0.03379
1194.30 0.03378
1194.40 0.03377
1194.50 0.03376
1194.60 0.03375
1194.70 0.03374
1194.80 0.03373
1194.90 0.03372
1195.00 0.0337
1195.10 0.03369
1195.20 0.03368
1195.30 0.03367
1195.40 0.03366
1195.50 0.03365
1195.60 0.03364
1195.70 0.03363
1195.80 0.03362
1195.90 0.0336
1196.00 0.03359
1196.10 0.03358
1196.20 0.03357
1196.30 0.03356
1196.40 0.03355
1196.50 0.03354
1196.60 0.03353
1196.70 0.03352
1196.80 0.0335
1196.90 0.03349
1197.00 0.03348
1197.10 0.03347
1197.20 0.03346
1197.30 0.03345
1197.40 0.03344
1197.50 0.03343
1197.60 0.03342
1197.70 0.03341
1197.80 0.03339
1197.90 0.03338
1198.00 0.03337
1198.10 0.03336
1198.20 0.03335
1198.30 0.03334
1198.40 0.03333
1198.50 0.03332
1198.60 0.03331
1198.70 0.0333
1198.80 0.03328
1198.90 0.03327
1199.00 0.03326
1199.10 0.03325
1199.20 0.03324
1199.30 0.03323
1199.40 0.03322
1199.50 0.03321
1199.60 0.0332
1199.70 0.03319
1199.80 0.03318
1199.90 0.03316
1200.00 0
