# Version 2.1 - nm, norm@500 to 1, cut digits, bergeron_3750_95.dat_3750
# Wavelength(nm)  Flambda(ergs/cm^s/s/nm)
300.00 0.2053
300.10 0.2057
300.20 0.206
300.30 0.2064
300.40 0.2067
300.50 0.2071
300.60 0.2074
300.70 0.2078
300.80 0.2082
300.90 0.2085
301.00 0.2089
301.10 0.2092
301.20 0.2096
301.30 0.2099
301.40 0.2103
301.50 0.2106
301.60 0.211
301.70 0.2113
301.80 0.2117
301.90 0.212
302.00 0.2124
302.10 0.2128
302.20 0.2131
302.30 0.2135
302.40 0.2138
302.50 0.2142
302.60 0.2146
302.70 0.2149
302.80 0.2153
302.90 0.2157
303.00 0.216
303.10 0.2164
303.20 0.2167
303.30 0.2171
303.40 0.2174
303.50 0.2178
303.60 0.2182
303.70 0.2185
303.80 0.2189
303.90 0.2192
304.00 0.2196
304.10 0.22
304.20 0.2203
304.30 0.2207
304.40 0.2211
304.50 0.2214
304.60 0.2218
304.70 0.2222
304.80 0.2225
304.90 0.2229
305.00 0.2233
305.10 0.2236
305.20 0.224
305.30 0.2244
305.40 0.2247
305.50 0.2251
305.60 0.2254
305.70 0.2258
305.80 0.2262
305.90 0.2265
306.00 0.2269
306.10 0.2273
306.20 0.2276
306.30 0.228
306.40 0.2284
306.50 0.2288
306.60 0.2291
306.70 0.2295
306.80 0.2299
306.90 0.2302
307.00 0.2306
307.10 0.231
307.20 0.2314
307.30 0.2317
307.40 0.2321
307.50 0.2325
307.60 0.2328
307.70 0.2332
307.80 0.2336
307.90 0.2339
308.00 0.2343
308.10 0.2347
308.20 0.2351
308.30 0.2354
308.40 0.2358
308.50 0.2362
308.60 0.2366
308.70 0.2369
308.80 0.2373
308.90 0.2377
309.00 0.2381
309.10 0.2384
309.20 0.2388
309.30 0.2392
309.40 0.2396
309.50 0.2399
309.60 0.2403
309.70 0.2407
309.80 0.2411
309.90 0.2414
310.00 0.2418
310.10 0.2422
310.20 0.2426
310.30 0.2429
310.40 0.2433
310.50 0.2437
310.60 0.2441
310.70 0.2445
310.80 0.2449
310.90 0.2452
311.00 0.2456
311.10 0.246
311.20 0.2464
311.30 0.2468
311.40 0.2471
311.50 0.2475
311.60 0.2479
311.70 0.2483
311.80 0.2487
311.90 0.249
312.00 0.2494
312.10 0.2498
312.20 0.2502
312.30 0.2505
312.40 0.2509
312.50 0.2513
312.60 0.2517
312.70 0.2521
312.80 0.2525
312.90 0.2529
313.00 0.2533
313.10 0.2536
313.20 0.254
313.30 0.2544
313.40 0.2548
313.50 0.2552
313.60 0.2556
313.70 0.2559
313.80 0.2563
313.90 0.2567
314.00 0.2571
314.10 0.2575
314.20 0.2579
314.30 0.2583
314.40 0.2587
314.50 0.259
314.60 0.2594
314.70 0.2598
314.80 0.2602
314.90 0.2606
315.00 0.261
315.10 0.2614
315.20 0.2618
315.30 0.2622
315.40 0.2626
315.50 0.2629
315.60 0.2633
315.70 0.2637
315.80 0.2641
315.90 0.2645
316.00 0.2649
316.10 0.2653
316.20 0.2657
316.30 0.2661
316.40 0.2665
316.50 0.2669
316.60 0.2672
316.70 0.2676
316.80 0.268
316.90 0.2684
317.00 0.2688
317.10 0.2692
317.20 0.2696
317.30 0.27
317.40 0.2704
317.50 0.2708
317.60 0.2712
317.70 0.2716
317.80 0.272
317.90 0.2724
318.00 0.2727
318.10 0.2731
318.20 0.2735
318.30 0.2739
318.40 0.2743
318.50 0.2747
318.60 0.2751
318.70 0.2755
318.80 0.2759
318.90 0.2763
319.00 0.2767
319.10 0.2771
319.20 0.2775
319.30 0.2779
319.40 0.2783
319.50 0.2787
319.60 0.2791
319.70 0.2795
319.80 0.2799
319.90 0.2803
320.00 0.2807
320.10 0.2811
320.20 0.2815
320.30 0.2819
320.40 0.2823
320.50 0.2827
320.60 0.2831
320.70 0.2835
320.80 0.2839
320.90 0.2843
321.00 0.2847
321.10 0.2851
321.20 0.2855
321.30 0.2859
321.40 0.2863
321.50 0.2867
321.60 0.2871
321.70 0.2875
321.80 0.2879
321.90 0.2883
322.00 0.2887
322.10 0.2891
322.20 0.2895
322.30 0.29
322.40 0.2904
322.50 0.2908
322.60 0.2912
322.70 0.2916
322.80 0.292
322.90 0.2924
323.00 0.2928
323.10 0.2932
323.20 0.2936
323.30 0.294
323.40 0.2944
323.50 0.2948
323.60 0.2952
323.70 0.2956
323.80 0.296
323.90 0.2964
324.00 0.2968
324.10 0.2972
324.20 0.2977
324.30 0.2981
324.40 0.2985
324.50 0.2989
324.60 0.2993
324.70 0.2997
324.80 0.3001
324.90 0.3005
325.00 0.3009
325.10 0.3014
325.20 0.3018
325.30 0.3022
325.40 0.3026
325.50 0.303
325.60 0.3034
325.70 0.3038
325.80 0.3042
325.90 0.3046
326.00 0.305
326.10 0.3054
326.20 0.3058
326.30 0.3063
326.40 0.3067
326.50 0.3071
326.60 0.3075
326.70 0.3079
326.80 0.3083
326.90 0.3088
327.00 0.3092
327.10 0.3096
327.20 0.31
327.30 0.3104
327.40 0.3108
327.50 0.3112
327.60 0.3116
327.70 0.312
327.80 0.3124
327.90 0.3129
328.00 0.3133
328.10 0.3137
328.20 0.3141
328.30 0.3145
328.40 0.3149
328.50 0.3154
328.60 0.3158
328.70 0.3162
328.80 0.3166
328.90 0.317
329.00 0.3175
329.10 0.3179
329.20 0.3183
329.30 0.3187
329.40 0.3191
329.50 0.3195
329.60 0.3199
329.70 0.3204
329.80 0.3208
329.90 0.3212
330.00 0.3216
330.10 0.322
330.20 0.3224
330.30 0.3229
330.40 0.3233
330.50 0.3237
330.60 0.3241
330.70 0.3246
330.80 0.325
330.90 0.3254
331.00 0.3258
331.10 0.3262
331.20 0.3267
331.30 0.3271
331.40 0.3275
331.50 0.3279
331.60 0.3283
331.70 0.3287
331.80 0.3292
331.90 0.3296
332.00 0.33
332.10 0.3304
332.20 0.3308
332.30 0.3313
332.40 0.3317
332.50 0.3321
332.60 0.3325
332.70 0.333
332.80 0.3334
332.90 0.3338
333.00 0.3342
333.10 0.3347
333.20 0.3351
333.30 0.3355
333.40 0.3359
333.50 0.3363
333.60 0.3368
333.70 0.3372
333.80 0.3376
333.90 0.338
334.00 0.3384
334.10 0.3389
334.20 0.3393
334.30 0.3397
334.40 0.3402
334.50 0.3406
334.60 0.341
334.70 0.3415
334.80 0.3419
334.90 0.3423
335.00 0.3427
335.10 0.3432
335.20 0.3436
335.30 0.344
335.40 0.3444
335.50 0.3449
335.60 0.3453
335.70 0.3457
335.80 0.3461
335.90 0.3465
336.00 0.347
336.10 0.3474
336.20 0.3478
336.30 0.3483
336.40 0.3487
336.50 0.3491
336.60 0.3496
336.70 0.35
336.80 0.3504
336.90 0.3509
337.00 0.3513
337.10 0.3517
337.20 0.3521
337.30 0.3526
337.40 0.353
337.50 0.3534
337.60 0.3538
337.70 0.3543
337.80 0.3547
337.90 0.3551
338.00 0.3555
338.10 0.356
338.20 0.3564
338.30 0.3568
338.40 0.3573
338.50 0.3577
338.60 0.3581
338.70 0.3586
338.80 0.359
338.90 0.3594
339.00 0.3599
339.10 0.3603
339.20 0.3607
339.30 0.3612
339.40 0.3616
339.50 0.362
339.60 0.3625
339.70 0.3629
339.80 0.3633
339.90 0.3637
340.00 0.3642
340.10 0.3646
340.20 0.365
340.30 0.3655
340.40 0.3659
340.50 0.3664
340.60 0.3668
340.70 0.3672
340.80 0.3677
340.90 0.3681
341.00 0.3685
341.10 0.369
341.20 0.3694
341.30 0.3698
341.40 0.3703
341.50 0.3707
341.60 0.3711
341.70 0.3715
341.80 0.372
341.90 0.3724
342.00 0.3728
342.10 0.3733
342.20 0.3737
342.30 0.3741
342.40 0.3746
342.50 0.375
342.60 0.3755
342.70 0.3759
342.80 0.3763
342.90 0.3768
343.00 0.3772
343.10 0.3776
343.20 0.3781
343.30 0.3785
343.40 0.379
343.50 0.3794
343.60 0.3798
343.70 0.3802
343.80 0.3807
343.90 0.3811
344.00 0.3815
344.10 0.382
344.20 0.3824
344.30 0.3829
344.40 0.3833
344.50 0.3838
344.60 0.3842
344.70 0.3846
344.80 0.3851
344.90 0.3855
345.00 0.386
345.10 0.3864
345.20 0.3868
345.30 0.3873
345.40 0.3877
345.50 0.3881
345.60 0.3886
345.70 0.389
345.80 0.3894
345.90 0.3899
346.00 0.3903
346.10 0.3908
346.20 0.3912
346.30 0.3916
346.40 0.3921
346.50 0.3925
346.60 0.393
346.70 0.3934
346.80 0.3939
346.90 0.3943
347.00 0.3947
347.10 0.3952
347.20 0.3956
347.30 0.3961
347.40 0.3965
347.50 0.3969
347.60 0.3974
347.70 0.3978
347.80 0.3983
347.90 0.3987
348.00 0.3991
348.10 0.3996
348.20 0.4
348.30 0.4005
348.40 0.4009
348.50 0.4014
348.60 0.4018
348.70 0.4022
348.80 0.4027
348.90 0.4031
349.00 0.4036
349.10 0.404
349.20 0.4044
349.30 0.4049
349.40 0.4053
349.50 0.4058
349.60 0.4062
349.70 0.4066
349.80 0.4071
349.90 0.4075
350.00 0.408
350.10 0.4084
350.20 0.4089
350.30 0.4093
350.40 0.4098
350.50 0.4102
350.60 0.4106
350.70 0.4111
350.80 0.4115
350.90 0.412
351.00 0.4124
351.10 0.4129
351.20 0.4133
351.30 0.4138
351.40 0.4142
351.50 0.4146
351.60 0.4151
351.70 0.4155
351.80 0.416
351.90 0.4164
352.00 0.4169
352.10 0.4173
352.20 0.4178
352.30 0.4182
352.40 0.4187
352.50 0.4191
352.60 0.4196
352.70 0.42
352.80 0.4204
352.90 0.4209
353.00 0.4213
353.10 0.4218
353.20 0.4222
353.30 0.4227
353.40 0.4231
353.50 0.4236
353.60 0.424
353.70 0.4244
353.80 0.4249
353.90 0.4253
354.00 0.4258
354.10 0.4262
354.20 0.4267
354.30 0.4271
354.40 0.4276
354.50 0.428
354.60 0.4285
354.70 0.4289
354.80 0.4294
354.90 0.4298
355.00 0.4303
355.10 0.4307
355.20 0.4311
355.30 0.4316
355.40 0.432
355.50 0.4325
355.60 0.4329
355.70 0.4334
355.80 0.4338
355.90 0.4342
356.00 0.4347
356.10 0.4351
356.20 0.4356
356.30 0.436
356.40 0.4365
356.50 0.437
356.60 0.4374
356.70 0.4379
356.80 0.4383
356.90 0.4388
357.00 0.4392
357.10 0.4396
357.20 0.4401
357.30 0.4405
357.40 0.441
357.50 0.4414
357.60 0.4419
357.70 0.4423
357.80 0.4428
357.90 0.4432
358.00 0.4436
358.10 0.4441
358.20 0.4446
358.30 0.445
358.40 0.4455
358.50 0.4459
358.60 0.4464
358.70 0.4468
358.80 0.4473
358.90 0.4477
359.00 0.4482
359.10 0.4486
359.20 0.4491
359.30 0.4495
359.40 0.45
359.50 0.4504
359.60 0.4509
359.70 0.4513
359.80 0.4517
359.90 0.4522
360.00 0.4526
360.10 0.4531
360.20 0.4535
360.30 0.454
360.40 0.4545
360.50 0.4549
360.60 0.4554
360.70 0.4558
360.80 0.4563
360.90 0.4567
361.00 0.4572
361.10 0.4576
361.20 0.4581
361.30 0.4585
361.40 0.459
361.50 0.4594
361.60 0.4599
361.70 0.4603
361.80 0.4608
361.90 0.4612
362.00 0.4617
362.10 0.4621
362.20 0.4626
362.30 0.463
362.40 0.4635
362.50 0.4639
362.60 0.4644
362.70 0.4648
362.80 0.4653
362.90 0.4657
363.00 0.4662
363.10 0.4666
363.20 0.4671
363.30 0.4675
363.40 0.468
363.50 0.4684
363.60 0.4689
363.70 0.4693
363.80 0.4698
363.90 0.4702
364.00 0.4707
364.10 0.4711
364.20 0.4716
364.30 0.472
364.40 0.4725
364.50 0.4729
364.60 0.4734
364.70 0.4738
364.80 0.4743
364.90 0.4748
365.00 0.4752
365.10 0.4757
365.20 0.4761
365.30 0.4766
365.40 0.477
365.50 0.4775
365.60 0.4779
365.70 0.4784
365.80 0.4788
365.90 0.4793
366.00 0.4797
366.10 0.4802
366.20 0.4806
366.30 0.4811
366.40 0.4815
366.50 0.482
366.60 0.4824
366.70 0.4829
366.80 0.4834
366.90 0.4838
367.00 0.4843
367.10 0.4847
367.20 0.4852
367.30 0.4856
367.40 0.4861
367.50 0.4865
367.60 0.487
367.70 0.4874
367.80 0.4879
367.90 0.4883
368.00 0.4888
368.10 0.4892
368.20 0.4897
368.30 0.4901
368.40 0.4906
368.50 0.491
368.60 0.4915
368.70 0.492
368.80 0.4924
368.90 0.4929
369.00 0.4933
369.10 0.4938
369.20 0.4942
369.30 0.4947
369.40 0.4951
369.50 0.4956
369.60 0.496
369.70 0.4965
369.80 0.4969
369.90 0.4974
370.00 0.4978
370.10 0.4983
370.20 0.4987
370.30 0.4992
370.40 0.4996
370.50 0.5001
370.60 0.5006
370.70 0.501
370.80 0.5015
370.90 0.5019
371.00 0.5024
371.10 0.5028
371.20 0.5033
371.30 0.5037
371.40 0.5042
371.50 0.5046
371.60 0.5051
371.70 0.5055
371.80 0.506
371.90 0.5064
372.00 0.5069
372.10 0.5073
372.20 0.5078
372.30 0.5082
372.40 0.5087
372.50 0.5092
372.60 0.5096
372.70 0.5101
372.80 0.5105
372.90 0.511
373.00 0.5114
373.10 0.5119
373.20 0.5123
373.30 0.5128
373.40 0.5132
373.50 0.5137
373.60 0.5141
373.70 0.5146
373.80 0.515
373.90 0.5155
374.00 0.5159
374.10 0.5164
374.20 0.5168
374.30 0.5173
374.40 0.5178
374.50 0.5182
374.60 0.5187
374.70 0.5191
374.80 0.5196
374.90 0.52
375.00 0.5205
375.10 0.5209
375.20 0.5214
375.30 0.5218
375.40 0.5223
375.50 0.5227
375.60 0.5232
375.70 0.5236
375.80 0.5241
375.90 0.5245
376.00 0.525
376.10 0.5254
376.20 0.5259
376.30 0.5264
376.40 0.5268
376.50 0.5273
376.60 0.5277
376.70 0.5282
376.80 0.5286
376.90 0.5291
377.00 0.5295
377.10 0.53
377.20 0.5304
377.30 0.5309
377.40 0.5313
377.50 0.5318
377.60 0.5322
377.70 0.5327
377.80 0.5331
377.90 0.5336
378.00 0.534
378.10 0.5345
378.20 0.535
378.30 0.5354
378.40 0.5359
378.50 0.5363
378.60 0.5368
378.70 0.5372
378.80 0.5377
378.90 0.5381
379.00 0.5386
379.10 0.539
379.20 0.5395
379.30 0.5399
379.40 0.5404
379.50 0.5408
379.60 0.5413
379.70 0.5417
379.80 0.5422
379.90 0.5426
380.00 0.5431
380.10 0.5435
380.20 0.544
380.30 0.5445
380.40 0.5449
380.50 0.5454
380.60 0.5458
380.70 0.5463
380.80 0.5467
380.90 0.5472
381.00 0.5476
381.10 0.5481
381.20 0.5485
381.30 0.549
381.40 0.5494
381.50 0.5499
381.60 0.5503
381.70 0.5508
381.80 0.5512
381.90 0.5517
382.00 0.5521
382.10 0.5526
382.20 0.553
382.30 0.5535
382.40 0.554
382.50 0.5544
382.60 0.5549
382.70 0.5553
382.80 0.5558
382.90 0.5562
383.00 0.5567
383.10 0.5571
383.20 0.5576
383.30 0.558
383.40 0.5585
383.50 0.5589
383.60 0.5594
383.70 0.5598
383.80 0.5603
383.90 0.5607
384.00 0.5612
384.10 0.5616
384.20 0.5621
384.30 0.5625
384.40 0.563
384.50 0.5634
384.60 0.5639
384.70 0.5643
384.80 0.5648
384.90 0.5652
385.00 0.5657
385.10 0.5661
385.20 0.5666
385.30 0.567
385.40 0.5675
385.50 0.5679
385.60 0.5684
385.70 0.5688
385.80 0.5693
385.90 0.5697
386.00 0.5702
386.10 0.5706
386.20 0.5711
386.30 0.5715
386.40 0.572
386.50 0.5724
386.60 0.5729
386.70 0.5733
386.80 0.5738
386.90 0.5742
387.00 0.5747
387.10 0.5751
387.20 0.5756
387.30 0.576
387.40 0.5765
387.50 0.5769
387.60 0.5774
387.70 0.5778
387.80 0.5783
387.90 0.5787
388.00 0.5792
388.10 0.5796
388.20 0.5801
388.30 0.5805
388.40 0.581
388.50 0.5814
388.60 0.5819
388.70 0.5823
388.80 0.5828
388.90 0.5832
389.00 0.5837
389.10 0.5841
389.20 0.5846
389.30 0.585
389.40 0.5855
389.50 0.5859
389.60 0.5864
389.70 0.5868
389.80 0.5873
389.90 0.5877
390.00 0.5882
390.10 0.5886
390.20 0.5891
390.30 0.5895
390.40 0.59
390.50 0.5904
390.60 0.5908
390.70 0.5913
390.80 0.5917
390.90 0.5922
391.00 0.5926
391.10 0.5931
391.20 0.5935
391.30 0.594
391.40 0.5944
391.50 0.5949
391.60 0.5953
391.70 0.5958
391.80 0.5962
391.90 0.5967
392.00 0.5971
392.10 0.5976
392.20 0.598
392.30 0.5985
392.40 0.5989
392.50 0.5993
392.60 0.5998
392.70 0.6002
392.80 0.6007
392.90 0.6011
393.00 0.6016
393.10 0.602
393.20 0.6025
393.30 0.6029
393.40 0.6034
393.50 0.6038
393.60 0.6043
393.70 0.6047
393.80 0.6052
393.90 0.6056
394.00 0.606
394.10 0.6065
394.20 0.6069
394.30 0.6074
394.40 0.6078
394.50 0.6083
394.60 0.6087
394.70 0.6092
394.80 0.6096
394.90 0.6101
395.00 0.6105
395.10 0.6109
395.20 0.6114
395.30 0.6118
395.40 0.6123
395.50 0.6127
395.60 0.6132
395.70 0.6136
395.80 0.6141
395.90 0.6145
396.00 0.615
396.10 0.6154
396.20 0.6158
396.30 0.6163
396.40 0.6167
396.50 0.6172
396.60 0.6176
396.70 0.6181
396.80 0.6185
396.90 0.619
397.00 0.6194
397.10 0.6198
397.20 0.6203
397.30 0.6207
397.40 0.6212
397.50 0.6216
397.60 0.6221
397.70 0.6225
397.80 0.6229
397.90 0.6234
398.00 0.6238
398.10 0.6243
398.20 0.6247
398.30 0.6252
398.40 0.6256
398.50 0.626
398.60 0.6265
398.70 0.6269
398.80 0.6274
398.90 0.6278
399.00 0.6283
399.10 0.6287
399.20 0.6291
399.30 0.6296
399.40 0.63
399.50 0.6305
399.60 0.6309
399.70 0.6314
399.80 0.6318
399.90 0.6322
400.00 0.6327
400.10 0.6331
400.20 0.6336
400.30 0.634
400.40 0.6344
400.50 0.6349
400.60 0.6353
400.70 0.6358
400.80 0.6362
400.90 0.6367
401.00 0.6371
401.10 0.6375
401.20 0.638
401.30 0.6384
401.40 0.6388
401.50 0.6393
401.60 0.6397
401.70 0.6402
401.80 0.6406
401.90 0.641
402.00 0.6415
402.10 0.6419
402.20 0.6424
402.30 0.6428
402.40 0.6433
402.50 0.6437
402.60 0.6441
402.70 0.6446
402.80 0.645
402.90 0.6454
403.00 0.6459
403.10 0.6463
403.20 0.6468
403.30 0.6472
403.40 0.6476
403.50 0.6481
403.60 0.6485
403.70 0.6489
403.80 0.6494
403.90 0.6498
404.00 0.6503
404.10 0.6507
404.20 0.6511
404.30 0.6516
404.40 0.652
404.50 0.6525
404.60 0.6529
404.70 0.6533
404.80 0.6538
404.90 0.6542
405.00 0.6546
405.10 0.6551
405.20 0.6555
405.30 0.6559
405.40 0.6564
405.50 0.6568
405.60 0.6573
405.70 0.6577
405.80 0.6581
405.90 0.6586
406.00 0.659
406.10 0.6594
406.20 0.6599
406.30 0.6603
406.40 0.6608
406.50 0.6612
406.60 0.6616
406.70 0.6621
406.80 0.6625
406.90 0.6629
407.00 0.6634
407.10 0.6638
407.20 0.6642
407.30 0.6647
407.40 0.6651
407.50 0.6655
407.60 0.666
407.70 0.6664
407.80 0.6668
407.90 0.6673
408.00 0.6677
408.10 0.6681
408.20 0.6686
408.30 0.669
408.40 0.6694
408.50 0.6699
408.60 0.6703
408.70 0.6707
408.80 0.6712
408.90 0.6716
409.00 0.672
409.10 0.6725
409.20 0.6729
409.30 0.6733
409.40 0.6738
409.50 0.6742
409.60 0.6746
409.70 0.6751
409.80 0.6755
409.90 0.6759
410.00 0.6764
410.10 0.6768
410.20 0.6772
410.30 0.6777
410.40 0.6781
410.50 0.6785
410.60 0.679
410.70 0.6794
410.80 0.6798
410.90 0.6802
411.00 0.6807
411.10 0.6811
411.20 0.6815
411.30 0.682
411.40 0.6824
411.50 0.6828
411.60 0.6833
411.70 0.6837
411.80 0.6841
411.90 0.6846
412.00 0.685
412.10 0.6854
412.20 0.6858
412.30 0.6863
412.40 0.6867
412.50 0.6871
412.60 0.6876
412.70 0.688
412.80 0.6884
412.90 0.6888
413.00 0.6893
413.10 0.6897
413.20 0.6901
413.30 0.6906
413.40 0.691
413.50 0.6914
413.60 0.6918
413.70 0.6923
413.80 0.6927
413.90 0.6931
414.00 0.6935
414.10 0.694
414.20 0.6944
414.30 0.6948
414.40 0.6953
414.50 0.6957
414.60 0.6961
414.70 0.6965
414.80 0.697
414.90 0.6974
415.00 0.6978
415.10 0.6982
415.20 0.6987
415.30 0.6991
415.40 0.6995
415.50 0.6999
415.60 0.7004
415.70 0.7008
415.80 0.7012
415.90 0.7016
416.00 0.7021
416.10 0.7025
416.20 0.7029
416.30 0.7033
416.40 0.7038
416.50 0.7042
416.60 0.7046
416.70 0.705
416.80 0.7055
416.90 0.7059
417.00 0.7063
417.10 0.7067
417.20 0.7072
417.30 0.7076
417.40 0.708
417.50 0.7084
417.60 0.7089
417.70 0.7093
417.80 0.7097
417.90 0.7101
418.00 0.7106
418.10 0.711
418.20 0.7114
418.30 0.7118
418.40 0.7122
418.50 0.7127
418.60 0.7131
418.70 0.7135
418.80 0.7139
418.90 0.7143
419.00 0.7148
419.10 0.7152
419.20 0.7156
419.30 0.716
419.40 0.7164
419.50 0.7169
419.60 0.7173
419.70 0.7177
419.80 0.7181
419.90 0.7186
420.00 0.719
420.10 0.7194
420.20 0.7198
420.30 0.7202
420.40 0.7206
420.50 0.7211
420.60 0.7215
420.70 0.7219
420.80 0.7223
420.90 0.7227
421.00 0.7232
421.10 0.7236
421.20 0.724
421.30 0.7244
421.40 0.7248
421.50 0.7253
421.60 0.7257
421.70 0.7261
421.80 0.7265
421.90 0.7269
422.00 0.7273
422.10 0.7278
422.20 0.7282
422.30 0.7286
422.40 0.729
422.50 0.7294
422.60 0.7298
422.70 0.7303
422.80 0.7307
422.90 0.7311
423.00 0.7315
423.10 0.7319
423.20 0.7323
423.30 0.7328
423.40 0.7332
423.50 0.7336
423.60 0.734
423.70 0.7344
423.80 0.7348
423.90 0.7352
424.00 0.7357
424.10 0.7361
424.20 0.7365
424.30 0.7369
424.40 0.7373
424.50 0.7377
424.60 0.7381
424.70 0.7386
424.80 0.739
424.90 0.7394
425.00 0.7398
425.10 0.7402
425.20 0.7406
425.30 0.741
425.40 0.7414
425.50 0.7418
425.60 0.7423
425.70 0.7427
425.80 0.7431
425.90 0.7435
426.00 0.7439
426.10 0.7443
426.20 0.7447
426.30 0.7451
426.40 0.7456
426.50 0.746
426.60 0.7464
426.70 0.7468
426.80 0.7472
426.90 0.7476
427.00 0.748
427.10 0.7484
427.20 0.7488
427.30 0.7493
427.40 0.7497
427.50 0.7501
427.60 0.7505
427.70 0.7509
427.80 0.7513
427.90 0.7517
428.00 0.7521
428.10 0.7525
428.20 0.7529
428.30 0.7533
428.40 0.7537
428.50 0.7542
428.60 0.7546
428.70 0.755
428.80 0.7554
428.90 0.7558
429.00 0.7562
429.10 0.7566
429.20 0.757
429.30 0.7574
429.40 0.7578
429.50 0.7582
429.60 0.7586
429.70 0.759
429.80 0.7595
429.90 0.7599
430.00 0.7603
430.10 0.7607
430.20 0.7611
430.30 0.7615
430.40 0.7619
430.50 0.7623
430.60 0.7627
430.70 0.7631
430.80 0.7635
430.90 0.7639
431.00 0.7643
431.10 0.7647
431.20 0.7651
431.30 0.7655
431.40 0.7659
431.50 0.7663
431.60 0.7667
431.70 0.7671
431.80 0.7675
431.90 0.7679
432.00 0.7683
432.10 0.7688
432.20 0.7692
432.30 0.7696
432.40 0.77
432.50 0.7704
432.60 0.7708
432.70 0.7712
432.80 0.7716
432.90 0.772
433.00 0.7724
433.10 0.7728
433.20 0.7732
433.30 0.7736
433.40 0.774
433.50 0.7744
433.60 0.7748
433.70 0.7752
433.80 0.7756
433.90 0.776
434.00 0.7764
434.10 0.7768
434.20 0.7772
434.30 0.7776
434.40 0.778
434.50 0.7784
434.60 0.7788
434.70 0.7792
434.80 0.7796
434.90 0.78
435.00 0.7804
435.10 0.7808
435.20 0.7812
435.30 0.7816
435.40 0.782
435.50 0.7823
435.60 0.7827
435.70 0.7831
435.80 0.7835
435.90 0.7839
436.00 0.7843
436.10 0.7847
436.20 0.7851
436.30 0.7855
436.40 0.7859
436.50 0.7863
436.60 0.7867
436.70 0.7871
436.80 0.7875
436.90 0.7879
437.00 0.7883
437.10 0.7887
437.20 0.7891
437.30 0.7895
437.40 0.7899
437.50 0.7903
437.60 0.7907
437.70 0.791
437.80 0.7914
437.90 0.7918
438.00 0.7922
438.10 0.7926
438.20 0.793
438.30 0.7934
438.40 0.7938
438.50 0.7942
438.60 0.7946
438.70 0.795
438.80 0.7954
438.90 0.7958
439.00 0.7961
439.10 0.7965
439.20 0.7969
439.30 0.7973
439.40 0.7977
439.50 0.7981
439.60 0.7985
439.70 0.7989
439.80 0.7993
439.90 0.7997
440.00 0.8001
440.10 0.8004
440.20 0.8008
440.30 0.8012
440.40 0.8016
440.50 0.802
440.60 0.8024
440.70 0.8028
440.80 0.8032
440.90 0.8036
441.00 0.8039
441.10 0.8043
441.20 0.8047
441.30 0.8051
441.40 0.8055
441.50 0.8059
441.60 0.8063
441.70 0.8067
441.80 0.8071
441.90 0.8074
442.00 0.8078
442.10 0.8082
442.20 0.8086
442.30 0.809
442.40 0.8094
442.50 0.8098
442.60 0.8101
442.70 0.8105
442.80 0.8109
442.90 0.8113
443.00 0.8117
443.10 0.8121
443.20 0.8124
443.30 0.8128
443.40 0.8132
443.50 0.8136
443.60 0.814
443.70 0.8144
443.80 0.8147
443.90 0.8151
444.00 0.8155
444.10 0.8159
444.20 0.8163
444.30 0.8167
444.40 0.817
444.50 0.8174
444.60 0.8178
444.70 0.8182
444.80 0.8186
444.90 0.819
445.00 0.8193
445.10 0.8197
445.20 0.8201
445.30 0.8205
445.40 0.8209
445.50 0.8212
445.60 0.8216
445.70 0.822
445.80 0.8224
445.90 0.8228
446.00 0.8231
446.10 0.8235
446.20 0.8239
446.30 0.8243
446.40 0.8247
446.50 0.825
446.60 0.8254
446.70 0.8258
446.80 0.8262
446.90 0.8265
447.00 0.8269
447.10 0.8273
447.20 0.8277
447.30 0.8281
447.40 0.8284
447.50 0.8288
447.60 0.8292
447.70 0.8296
447.80 0.8299
447.90 0.8303
448.00 0.8307
448.10 0.8311
448.20 0.8314
448.30 0.8318
448.40 0.8322
448.50 0.8326
448.60 0.833
448.70 0.8333
448.80 0.8337
448.90 0.8341
449.00 0.8344
449.10 0.8348
449.20 0.8352
449.30 0.8356
449.40 0.8359
449.50 0.8363
449.60 0.8367
449.70 0.8371
449.80 0.8374
449.90 0.8378
450.00 0.8382
450.10 0.8386
450.20 0.8389
450.30 0.8393
450.40 0.8397
450.50 0.84
450.60 0.8404
450.70 0.8408
450.80 0.8412
450.90 0.8415
451.00 0.8419
451.10 0.8423
451.20 0.8426
451.30 0.843
451.40 0.8434
451.50 0.8437
451.60 0.8441
451.70 0.8445
451.80 0.8449
451.90 0.8452
452.00 0.8456
452.10 0.846
452.20 0.8463
452.30 0.8467
452.40 0.8471
452.50 0.8474
452.60 0.8478
452.70 0.8482
452.80 0.8485
452.90 0.8489
453.00 0.8493
453.10 0.8496
453.20 0.85
453.30 0.8504
453.40 0.8507
453.50 0.8511
453.60 0.8515
453.70 0.8518
453.80 0.8522
453.90 0.8526
454.00 0.8529
454.10 0.8533
454.20 0.8537
454.30 0.854
454.40 0.8544
454.50 0.8548
454.60 0.8551
454.70 0.8555
454.80 0.8559
454.90 0.8562
455.00 0.8566
455.10 0.8569
455.20 0.8573
455.30 0.8577
455.40 0.858
455.50 0.8584
455.60 0.8588
455.70 0.8591
455.80 0.8595
455.90 0.8598
456.00 0.8602
456.10 0.8606
456.20 0.8609
456.30 0.8613
456.40 0.8616
456.50 0.862
456.60 0.8624
456.70 0.8627
456.80 0.8631
456.90 0.8634
457.00 0.8638
457.10 0.8642
457.20 0.8645
457.30 0.8649
457.40 0.8652
457.50 0.8656
457.60 0.866
457.70 0.8663
457.80 0.8667
457.90 0.867
458.00 0.8674
458.10 0.8677
458.20 0.8681
458.30 0.8685
458.40 0.8688
458.50 0.8692
458.60 0.8695
458.70 0.8699
458.80 0.8702
458.90 0.8706
459.00 0.871
459.10 0.8713
459.20 0.8717
459.30 0.872
459.40 0.8724
459.50 0.8727
459.60 0.8731
459.70 0.8735
459.80 0.8738
459.90 0.8742
460.00 0.8745
460.10 0.8749
460.20 0.8752
460.30 0.8756
460.40 0.8759
460.50 0.8763
460.60 0.8766
460.70 0.877
460.80 0.8773
460.90 0.8777
461.00 0.878
461.10 0.8784
461.20 0.8787
461.30 0.8791
461.40 0.8794
461.50 0.8798
461.60 0.8801
461.70 0.8805
461.80 0.8808
461.90 0.8812
462.00 0.8815
462.10 0.8819
462.20 0.8822
462.30 0.8826
462.40 0.8829
462.50 0.8833
462.60 0.8836
462.70 0.884
462.80 0.8843
462.90 0.8847
463.00 0.885
463.10 0.8854
463.20 0.8857
463.30 0.8861
463.40 0.8864
463.50 0.8868
463.60 0.8871
463.70 0.8875
463.80 0.8878
463.90 0.8882
464.00 0.8885
464.10 0.8889
464.20 0.8892
464.30 0.8895
464.40 0.8899
464.50 0.8902
464.60 0.8906
464.70 0.8909
464.80 0.8913
464.90 0.8916
465.00 0.892
465.10 0.8923
465.20 0.8927
465.30 0.893
465.40 0.8933
465.50 0.8937
465.60 0.894
465.70 0.8944
465.80 0.8947
465.90 0.8951
466.00 0.8954
466.10 0.8957
466.20 0.8961
466.30 0.8964
466.40 0.8968
466.50 0.8971
466.60 0.8974
466.70 0.8978
466.80 0.8981
466.90 0.8985
467.00 0.8988
467.10 0.8991
467.20 0.8995
467.30 0.8998
467.40 0.9002
467.50 0.9005
467.60 0.9008
467.70 0.9012
467.80 0.9015
467.90 0.9019
468.00 0.9022
468.10 0.9025
468.20 0.9029
468.30 0.9032
468.40 0.9035
468.50 0.9039
468.60 0.9042
468.70 0.9046
468.80 0.9049
468.90 0.9052
469.00 0.9056
469.10 0.9059
469.20 0.9062
469.30 0.9066
469.40 0.9069
469.50 0.9072
469.60 0.9076
469.70 0.9079
469.80 0.9083
469.90 0.9086
470.00 0.9089
470.10 0.9093
470.20 0.9096
470.30 0.9099
470.40 0.9103
470.50 0.9106
470.60 0.9109
470.70 0.9113
470.80 0.9116
470.90 0.9119
471.00 0.9123
471.10 0.9126
471.20 0.9129
471.30 0.9133
471.40 0.9136
471.50 0.9139
471.60 0.9142
471.70 0.9146
471.80 0.9149
471.90 0.9152
472.00 0.9156
472.10 0.9159
472.20 0.9162
472.30 0.9166
472.40 0.9169
472.50 0.9172
472.60 0.9175
472.70 0.9179
472.80 0.9182
472.90 0.9185
473.00 0.9189
473.10 0.9192
473.20 0.9195
473.30 0.9198
473.40 0.9202
473.50 0.9205
473.60 0.9208
473.70 0.9212
473.80 0.9215
473.90 0.9218
474.00 0.9221
474.10 0.9225
474.20 0.9228
474.30 0.9231
474.40 0.9234
474.50 0.9238
474.60 0.9241
474.70 0.9244
474.80 0.9247
474.90 0.9251
475.00 0.9254
475.10 0.9257
475.20 0.926
475.30 0.9264
475.40 0.9267
475.50 0.927
475.60 0.9273
475.70 0.9277
475.80 0.928
475.90 0.9283
476.00 0.9286
476.10 0.9289
476.20 0.9293
476.30 0.9296
476.40 0.9299
476.50 0.9302
476.60 0.9306
476.70 0.9309
476.80 0.9312
476.90 0.9315
477.00 0.9318
477.10 0.9322
477.20 0.9325
477.30 0.9328
477.40 0.9331
477.50 0.9334
477.60 0.9338
477.70 0.9341
477.80 0.9344
477.90 0.9347
478.00 0.935
478.10 0.9353
478.20 0.9357
478.30 0.936
478.40 0.9363
478.50 0.9366
478.60 0.9369
478.70 0.9373
478.80 0.9376
478.90 0.9379
479.00 0.9382
479.10 0.9385
479.20 0.9388
479.30 0.9391
479.40 0.9395
479.50 0.9398
479.60 0.9401
479.70 0.9404
479.80 0.9407
479.90 0.941
480.00 0.9413
480.10 0.9417
480.20 0.942
480.30 0.9423
480.40 0.9426
480.50 0.9429
480.60 0.9432
480.70 0.9435
480.80 0.9439
480.90 0.9442
481.00 0.9445
481.10 0.9448
481.20 0.9451
481.30 0.9454
481.40 0.9457
481.50 0.946
481.60 0.9463
481.70 0.9467
481.80 0.947
481.90 0.9473
482.00 0.9476
482.10 0.9479
482.20 0.9482
482.30 0.9485
482.40 0.9488
482.50 0.9491
482.60 0.9494
482.70 0.9498
482.80 0.9501
482.90 0.9504
483.00 0.9507
483.10 0.951
483.20 0.9513
483.30 0.9516
483.40 0.9519
483.50 0.9522
483.60 0.9525
483.70 0.9528
483.80 0.9531
483.90 0.9534
484.00 0.9537
484.10 0.954
484.20 0.9544
484.30 0.9547
484.40 0.955
484.50 0.9553
484.60 0.9556
484.70 0.9559
484.80 0.9562
484.90 0.9565
485.00 0.9568
485.10 0.9571
485.20 0.9574
485.30 0.9577
485.40 0.958
485.50 0.9583
485.60 0.9586
485.70 0.9589
485.80 0.9592
485.90 0.9595
486.00 0.9598
486.10 0.9601
486.20 0.9604
486.30 0.9607
486.40 0.961
486.50 0.9613
486.60 0.9616
486.70 0.9619
486.80 0.9622
486.90 0.9625
487.00 0.9628
487.10 0.9631
487.20 0.9634
487.30 0.9637
487.40 0.964
487.50 0.9643
487.60 0.9646
487.70 0.9649
487.80 0.9652
487.90 0.9655
488.00 0.9658
488.10 0.9661
488.20 0.9664
488.30 0.9667
488.40 0.967
488.50 0.9673
488.60 0.9676
488.70 0.9679
488.80 0.9682
488.90 0.9685
489.00 0.9688
489.10 0.9691
489.20 0.9694
489.30 0.9697
489.40 0.97
489.50 0.9702
489.60 0.9705
489.70 0.9708
489.80 0.9711
489.90 0.9714
490.00 0.9717
490.10 0.972
490.20 0.9723
490.30 0.9726
490.40 0.9729
490.50 0.9732
490.60 0.9735
490.70 0.9738
490.80 0.9741
490.90 0.9743
491.00 0.9746
491.10 0.9749
491.20 0.9752
491.30 0.9755
491.40 0.9758
491.50 0.9761
491.60 0.9764
491.70 0.9767
491.80 0.977
491.90 0.9773
492.00 0.9775
492.10 0.9778
492.20 0.9781
492.30 0.9784
492.40 0.9787
492.50 0.979
492.60 0.9793
492.70 0.9796
492.80 0.9799
492.90 0.9801
493.00 0.9804
493.10 0.9807
493.20 0.981
493.30 0.9813
493.40 0.9816
493.50 0.9819
493.60 0.9821
493.70 0.9824
493.80 0.9827
493.90 0.983
494.00 0.9833
494.10 0.9836
494.20 0.9839
494.30 0.9841
494.40 0.9844
494.50 0.9847
494.60 0.985
494.70 0.9853
494.80 0.9856
494.90 0.9858
495.00 0.9861
495.10 0.9864
495.20 0.9867
495.30 0.987
495.40 0.9873
495.50 0.9875
495.60 0.9878
495.70 0.9881
495.80 0.9884
495.90 0.9887
496.00 0.9889
496.10 0.9892
496.20 0.9895
496.30 0.9898
496.40 0.9901
496.50 0.9903
496.60 0.9906
496.70 0.9909
496.80 0.9912
496.90 0.9915
497.00 0.9917
497.10 0.992
497.20 0.9923
497.30 0.9926
497.40 0.9929
497.50 0.9931
497.60 0.9934
497.70 0.9937
497.80 0.994
497.90 0.9942
498.00 0.9945
498.10 0.9948
498.20 0.9951
498.30 0.9953
498.40 0.9956
498.50 0.9959
498.60 0.9962
498.70 0.9964
498.80 0.9967
498.90 0.997
499.00 0.9973
499.10 0.9975
499.20 0.9978
499.30 0.9981
499.40 0.9984
499.50 0.9986
499.60 0.9989
499.70 0.9992
499.80 0.9995
499.90 0.9997
500.00 1
500.10 1
500.20 1.001
500.30 1.001
500.40 1.001
500.50 1.001
500.60 1.002
500.70 1.002
500.80 1.002
500.90 1.002
501.00 1.003
501.10 1.003
501.20 1.003
501.30 1.004
501.40 1.004
501.50 1.004
501.60 1.004
501.70 1.005
501.80 1.005
501.90 1.005
502.00 1.005
502.10 1.006
502.20 1.006
502.30 1.006
502.40 1.006
502.50 1.007
502.60 1.007
502.70 1.007
502.80 1.008
502.90 1.008
503.00 1.008
503.10 1.008
503.20 1.009
503.30 1.009
503.40 1.009
503.50 1.009
503.60 1.01
503.70 1.01
503.80 1.01
503.90 1.01
504.00 1.011
504.10 1.011
504.20 1.011
504.30 1.012
504.40 1.012
504.50 1.012
504.60 1.012
504.70 1.013
504.80 1.013
504.90 1.013
505.00 1.013
505.10 1.014
505.20 1.014
505.30 1.014
505.40 1.014
505.50 1.015
505.60 1.015
505.70 1.015
505.80 1.015
505.90 1.016
506.00 1.016
506.10 1.016
506.20 1.016
506.30 1.017
506.40 1.017
506.50 1.017
506.60 1.018
506.70 1.018
506.80 1.018
506.90 1.018
507.00 1.019
507.10 1.019
507.20 1.019
507.30 1.019
507.40 1.02
507.50 1.02
507.60 1.02
507.70 1.02
507.80 1.021
507.90 1.021
508.00 1.021
508.10 1.021
508.20 1.022
508.30 1.022
508.40 1.022
508.50 1.022
508.60 1.023
508.70 1.023
508.80 1.023
508.90 1.023
509.00 1.024
509.10 1.024
509.20 1.024
509.30 1.024
509.40 1.025
509.50 1.025
509.60 1.025
509.70 1.025
509.80 1.026
509.90 1.026
510.00 1.026
510.10 1.026
510.20 1.027
510.30 1.027
510.40 1.027
510.50 1.027
510.60 1.028
510.70 1.028
510.80 1.028
510.90 1.028
511.00 1.029
511.10 1.029
511.20 1.029
511.30 1.029
511.40 1.03
511.50 1.03
511.60 1.03
511.70 1.03
511.80 1.031
511.90 1.031
512.00 1.031
512.10 1.031
512.20 1.032
512.30 1.032
512.40 1.032
512.50 1.032
512.60 1.033
512.70 1.033
512.80 1.033
512.90 1.033
513.00 1.034
513.10 1.034
513.20 1.034
513.30 1.034
513.40 1.035
513.50 1.035
513.60 1.035
513.70 1.035
513.80 1.036
513.90 1.036
514.00 1.036
514.10 1.036
514.20 1.037
514.30 1.037
514.40 1.037
514.50 1.037
514.60 1.038
514.70 1.038
514.80 1.038
514.90 1.038
515.00 1.038
515.10 1.039
515.20 1.039
515.30 1.039
515.40 1.039
515.50 1.04
515.60 1.04
515.70 1.04
515.80 1.04
515.90 1.041
516.00 1.041
516.10 1.041
516.20 1.041
516.30 1.042
516.40 1.042
516.50 1.042
516.60 1.042
516.70 1.043
516.80 1.043
516.90 1.043
517.00 1.043
517.10 1.043
517.20 1.044
517.30 1.044
517.40 1.044
517.50 1.044
517.60 1.045
517.70 1.045
517.80 1.045
517.90 1.045
518.00 1.046
518.10 1.046
518.20 1.046
518.30 1.046
518.40 1.047
518.50 1.047
518.60 1.047
518.70 1.047
518.80 1.047
518.90 1.048
519.00 1.048
519.10 1.048
519.20 1.048
519.30 1.049
519.40 1.049
519.50 1.049
519.60 1.049
519.70 1.05
519.80 1.05
519.90 1.05
520.00 1.05
520.10 1.05
520.20 1.051
520.30 1.051
520.40 1.051
520.50 1.051
520.60 1.052
520.70 1.052
520.80 1.052
520.90 1.052
521.00 1.052
521.10 1.053
521.20 1.053
521.30 1.053
521.40 1.053
521.50 1.054
521.60 1.054
521.70 1.054
521.80 1.054
521.90 1.055
522.00 1.055
522.10 1.055
522.20 1.055
522.30 1.055
522.40 1.056
522.50 1.056
522.60 1.056
522.70 1.056
522.80 1.057
522.90 1.057
523.00 1.057
523.10 1.057
523.20 1.057
523.30 1.058
523.40 1.058
523.50 1.058
523.60 1.058
523.70 1.059
523.80 1.059
523.90 1.059
524.00 1.059
524.10 1.059
524.20 1.06
524.30 1.06
524.40 1.06
524.50 1.06
524.60 1.061
524.70 1.061
524.80 1.061
524.90 1.061
525.00 1.061
525.10 1.062
525.20 1.062
525.30 1.062
525.40 1.062
525.50 1.063
525.60 1.063
525.70 1.063
525.80 1.063
525.90 1.063
526.00 1.064
526.10 1.064
526.20 1.064
526.30 1.064
526.40 1.065
526.50 1.065
526.60 1.065
526.70 1.065
526.80 1.065
526.90 1.066
527.00 1.066
527.10 1.066
527.20 1.066
527.30 1.066
527.40 1.067
527.50 1.067
527.60 1.067
527.70 1.067
527.80 1.068
527.90 1.068
528.00 1.068
528.10 1.068
528.20 1.068
528.30 1.069
528.40 1.069
528.50 1.069
528.60 1.069
528.70 1.069
528.80 1.07
528.90 1.07
529.00 1.07
529.10 1.07
529.20 1.071
529.30 1.071
529.40 1.071
529.50 1.071
529.60 1.071
529.70 1.072
529.80 1.072
529.90 1.072
530.00 1.072
530.10 1.072
530.20 1.073
530.30 1.073
530.40 1.073
530.50 1.073
530.60 1.073
530.70 1.074
530.80 1.074
530.90 1.074
531.00 1.074
531.10 1.074
531.20 1.075
531.30 1.075
531.40 1.075
531.50 1.075
531.60 1.075
531.70 1.076
531.80 1.076
531.90 1.076
532.00 1.076
532.10 1.076
532.20 1.077
532.30 1.077
532.40 1.077
532.50 1.077
532.60 1.078
532.70 1.078
532.80 1.078
532.90 1.078
533.00 1.078
533.10 1.079
533.20 1.079
533.30 1.079
533.40 1.079
533.50 1.079
533.60 1.08
533.70 1.08
533.80 1.08
533.90 1.08
534.00 1.08
534.10 1.081
534.20 1.081
534.30 1.081
534.40 1.081
534.50 1.081
534.60 1.082
534.70 1.082
534.80 1.082
534.90 1.082
535.00 1.082
535.10 1.083
535.20 1.083
535.30 1.083
535.40 1.083
535.50 1.083
535.60 1.084
535.70 1.084
535.80 1.084
535.90 1.084
536.00 1.084
536.10 1.085
536.20 1.085
536.30 1.085
536.40 1.085
536.50 1.085
536.60 1.086
536.70 1.086
536.80 1.086
536.90 1.086
537.00 1.086
537.10 1.087
537.20 1.087
537.30 1.087
537.40 1.087
537.50 1.087
537.60 1.088
537.70 1.088
537.80 1.088
537.90 1.088
538.00 1.088
538.10 1.088
538.20 1.089
538.30 1.089
538.40 1.089
538.50 1.089
538.60 1.089
538.70 1.09
538.80 1.09
538.90 1.09
539.00 1.09
539.10 1.09
539.20 1.091
539.30 1.091
539.40 1.091
539.50 1.091
539.60 1.091
539.70 1.091
539.80 1.092
539.90 1.092
540.00 1.092
540.10 1.092
540.20 1.092
540.30 1.093
540.40 1.093
540.50 1.093
540.60 1.093
540.70 1.093
540.80 1.094
540.90 1.094
541.00 1.094
541.10 1.094
541.20 1.094
541.30 1.094
541.40 1.095
541.50 1.095
541.60 1.095
541.70 1.095
541.80 1.095
541.90 1.096
542.00 1.096
542.10 1.096
542.20 1.096
542.30 1.096
542.40 1.096
542.50 1.097
542.60 1.097
542.70 1.097
542.80 1.097
542.90 1.097
543.00 1.098
543.10 1.098
543.20 1.098
543.30 1.098
543.40 1.098
543.50 1.099
543.60 1.099
543.70 1.099
543.80 1.099
543.90 1.099
544.00 1.099
544.10 1.1
544.20 1.1
544.30 1.1
544.40 1.1
544.50 1.1
544.60 1.101
544.70 1.101
544.80 1.101
544.90 1.101
545.00 1.101
545.10 1.101
545.20 1.102
545.30 1.102
545.40 1.102
545.50 1.102
545.60 1.102
545.70 1.102
545.80 1.103
545.90 1.103
546.00 1.103
546.10 1.103
546.20 1.103
546.30 1.104
546.40 1.104
546.50 1.104
546.60 1.104
546.70 1.104
546.80 1.104
546.90 1.105
547.00 1.105
547.10 1.105
547.20 1.105
547.30 1.105
547.40 1.105
547.50 1.106
547.60 1.106
547.70 1.106
547.80 1.106
547.90 1.106
548.00 1.106
548.10 1.107
548.20 1.107
548.30 1.107
548.40 1.107
548.50 1.107
548.60 1.107
548.70 1.108
548.80 1.108
548.90 1.108
549.00 1.108
549.10 1.108
549.20 1.109
549.30 1.109
549.40 1.109
549.50 1.109
549.60 1.109
549.70 1.109
549.80 1.11
549.90 1.11
550.00 1.11
550.10 1.11
550.20 1.11
550.30 1.11
550.40 1.111
550.50 1.111
550.60 1.111
550.70 1.111
550.80 1.111
550.90 1.111
551.00 1.112
551.10 1.112
551.20 1.112
551.30 1.112
551.40 1.112
551.50 1.112
551.60 1.113
551.70 1.113
551.80 1.113
551.90 1.113
552.00 1.113
552.10 1.113
552.20 1.114
552.30 1.114
552.40 1.114
552.50 1.114
552.60 1.114
552.70 1.114
552.80 1.114
552.90 1.115
553.00 1.115
553.10 1.115
553.20 1.115
553.30 1.115
553.40 1.115
553.50 1.116
553.60 1.116
553.70 1.116
553.80 1.116
553.90 1.116
554.00 1.116
554.10 1.117
554.20 1.117
554.30 1.117
554.40 1.117
554.50 1.117
554.60 1.117
554.70 1.118
554.80 1.118
554.90 1.118
555.00 1.118
555.10 1.118
555.20 1.118
555.30 1.118
555.40 1.119
555.50 1.119
555.60 1.119
555.70 1.119
555.80 1.119
555.90 1.119
556.00 1.12
556.10 1.12
556.20 1.12
556.30 1.12
556.40 1.12
556.50 1.12
556.60 1.121
556.70 1.121
556.80 1.121
556.90 1.121
557.00 1.121
557.10 1.121
557.20 1.121
557.30 1.122
557.40 1.122
557.50 1.122
557.60 1.122
557.70 1.122
557.80 1.122
557.90 1.122
558.00 1.123
558.10 1.123
558.20 1.123
558.30 1.123
558.40 1.123
558.50 1.123
558.60 1.124
558.70 1.124
558.80 1.124
558.90 1.124
559.00 1.124
559.10 1.124
559.20 1.124
559.30 1.125
559.40 1.125
559.50 1.125
559.60 1.125
559.70 1.125
559.80 1.125
559.90 1.125
560.00 1.126
560.10 1.126
560.20 1.126
560.30 1.126
560.40 1.126
560.50 1.126
560.60 1.127
560.70 1.127
560.80 1.127
560.90 1.127
561.00 1.127
561.10 1.127
561.20 1.127
561.30 1.128
561.40 1.128
561.50 1.128
561.60 1.128
561.70 1.128
561.80 1.128
561.90 1.128
562.00 1.129
562.10 1.129
562.20 1.129
562.30 1.129
562.40 1.129
562.50 1.129
562.60 1.129
562.70 1.13
562.80 1.13
562.90 1.13
563.00 1.13
563.10 1.13
563.20 1.13
563.30 1.13
563.40 1.131
563.50 1.131
563.60 1.131
563.70 1.131
563.80 1.131
563.90 1.131
564.00 1.131
564.10 1.132
564.20 1.132
564.30 1.132
564.40 1.132
564.50 1.132
564.60 1.132
564.70 1.132
564.80 1.133
564.90 1.133
565.00 1.133
565.10 1.133
565.20 1.133
565.30 1.133
565.40 1.133
565.50 1.134
565.60 1.134
565.70 1.134
565.80 1.134
565.90 1.134
566.00 1.134
566.10 1.134
566.20 1.134
566.30 1.135
566.40 1.135
566.50 1.135
566.60 1.135
566.70 1.135
566.80 1.135
566.90 1.135
567.00 1.136
567.10 1.136
567.20 1.136
567.30 1.136
567.40 1.136
567.50 1.136
567.60 1.136
567.70 1.136
567.80 1.137
567.90 1.137
568.00 1.137
568.10 1.137
568.20 1.137
568.30 1.137
568.40 1.137
568.50 1.138
568.60 1.138
568.70 1.138
568.80 1.138
568.90 1.138
569.00 1.138
569.10 1.138
569.20 1.138
569.30 1.139
569.40 1.139
569.50 1.139
569.60 1.139
569.70 1.139
569.80 1.139
569.90 1.139
570.00 1.139
570.10 1.14
570.20 1.14
570.30 1.14
570.40 1.14
570.50 1.14
570.60 1.14
570.70 1.14
570.80 1.14
570.90 1.141
571.00 1.141
571.10 1.141
571.20 1.141
571.30 1.141
571.40 1.141
571.50 1.141
571.60 1.141
571.70 1.142
571.80 1.142
571.90 1.142
572.00 1.142
572.10 1.142
572.20 1.142
572.30 1.142
572.40 1.142
572.50 1.143
572.60 1.143
572.70 1.143
572.80 1.143
572.90 1.143
573.00 1.143
573.10 1.143
573.20 1.144
573.30 1.144
573.40 1.144
573.50 1.144
573.60 1.144
573.70 1.144
573.80 1.144
573.90 1.144
574.00 1.144
574.10 1.145
574.20 1.145
574.30 1.145
574.40 1.145
574.50 1.145
574.60 1.145
574.70 1.145
574.80 1.145
574.90 1.146
575.00 1.146
575.10 1.146
575.20 1.146
575.30 1.146
575.40 1.146
575.50 1.146
575.60 1.146
575.70 1.146
575.80 1.147
575.90 1.147
576.00 1.147
576.10 1.147
576.20 1.147
576.30 1.147
576.40 1.147
576.50 1.147
576.60 1.148
576.70 1.148
576.80 1.148
576.90 1.148
577.00 1.148
577.10 1.148
577.20 1.148
577.30 1.148
577.40 1.148
577.50 1.149
577.60 1.149
577.70 1.149
577.80 1.149
577.90 1.149
578.00 1.149
578.10 1.149
578.20 1.149
578.30 1.149
578.40 1.15
578.50 1.15
578.60 1.15
578.70 1.15
578.80 1.15
578.90 1.15
579.00 1.15
579.10 1.15
579.20 1.15
579.30 1.151
579.40 1.151
579.50 1.151
579.60 1.151
579.70 1.151
579.80 1.151
579.90 1.151
580.00 1.151
580.10 1.151
580.20 1.152
580.30 1.152
580.40 1.152
580.50 1.152
580.60 1.152
580.70 1.152
580.80 1.152
580.90 1.152
581.00 1.152
581.10 1.153
581.20 1.153
581.30 1.153
581.40 1.153
581.50 1.153
581.60 1.153
581.70 1.153
581.80 1.153
581.90 1.153
582.00 1.153
582.10 1.154
582.20 1.154
582.30 1.154
582.40 1.154
582.50 1.154
582.60 1.154
582.70 1.154
582.80 1.154
582.90 1.154
583.00 1.155
583.10 1.155
583.20 1.155
583.30 1.155
583.40 1.155
583.50 1.155
583.60 1.155
583.70 1.155
583.80 1.155
583.90 1.155
584.00 1.156
584.10 1.156
584.20 1.156
584.30 1.156
584.40 1.156
584.50 1.156
584.60 1.156
584.70 1.156
584.80 1.156
584.90 1.156
585.00 1.157
585.10 1.157
585.20 1.157
585.30 1.157
585.40 1.157
585.50 1.157
585.60 1.157
585.70 1.157
585.80 1.157
585.90 1.157
586.00 1.158
586.10 1.158
586.20 1.158
586.30 1.158
586.40 1.158
586.50 1.158
586.60 1.158
586.70 1.158
586.80 1.158
586.90 1.158
587.00 1.159
587.10 1.159
587.20 1.159
587.30 1.159
587.40 1.159
587.50 1.159
587.60 1.159
587.70 1.159
587.80 1.159
587.90 1.159
588.00 1.159
588.10 1.16
588.20 1.16
588.30 1.16
588.40 1.16
588.50 1.16
588.60 1.16
588.70 1.16
588.80 1.16
588.90 1.16
589.00 1.16
589.10 1.161
589.20 1.161
589.30 1.161
589.40 1.161
589.50 1.161
589.60 1.161
589.70 1.161
589.80 1.161
589.90 1.161
590.00 1.161
590.10 1.161
590.20 1.162
590.30 1.162
590.40 1.162
590.50 1.162
590.60 1.162
590.70 1.162
590.80 1.162
590.90 1.162
591.00 1.162
591.10 1.162
591.20 1.162
591.30 1.163
591.40 1.163
591.50 1.163
591.60 1.163
591.70 1.163
591.80 1.163
591.90 1.163
592.00 1.163
592.10 1.163
592.20 1.163
592.30 1.163
592.40 1.163
592.50 1.164
592.60 1.164
592.70 1.164
592.80 1.164
592.90 1.164
593.00 1.164
593.10 1.164
593.20 1.164
593.30 1.164
593.40 1.164
593.50 1.164
593.60 1.164
593.70 1.165
593.80 1.165
593.90 1.165
594.00 1.165
594.10 1.165
594.20 1.165
594.30 1.165
594.40 1.165
594.50 1.165
594.60 1.165
594.70 1.165
594.80 1.166
594.90 1.166
595.00 1.166
595.10 1.166
595.20 1.166
595.30 1.166
595.40 1.166
595.50 1.166
595.60 1.166
595.70 1.166
595.80 1.166
595.90 1.166
596.00 1.166
596.10 1.167
596.20 1.167
596.30 1.167
596.40 1.167
596.50 1.167
596.60 1.167
596.70 1.167
596.80 1.167
596.90 1.167
597.00 1.167
597.10 1.167
597.20 1.167
597.30 1.167
597.40 1.168
597.50 1.168
597.60 1.168
597.70 1.168
597.80 1.168
597.90 1.168
598.00 1.168
598.10 1.168
598.20 1.168
598.30 1.168
598.40 1.168
598.50 1.168
598.60 1.168
598.70 1.169
598.80 1.169
598.90 1.169
599.00 1.169
599.10 1.169
599.20 1.169
599.30 1.169
599.40 1.169
599.50 1.169
599.60 1.169
599.70 1.169
599.80 1.169
599.90 1.169
600.00 1.17
600.10 1.17
600.20 1.17
600.30 1.17
600.40 1.17
600.50 1.17
600.60 1.17
600.70 1.17
600.80 1.17
600.90 1.17
601.00 1.17
601.10 1.17
601.20 1.17
601.30 1.17
601.40 1.17
601.50 1.171
601.60 1.171
601.70 1.171
601.80 1.171
601.90 1.171
602.00 1.171
602.10 1.171
602.20 1.171
602.30 1.171
602.40 1.171
602.50 1.171
602.60 1.171
602.70 1.171
602.80 1.171
602.90 1.172
603.00 1.172
603.10 1.172
603.20 1.172
603.30 1.172
603.40 1.172
603.50 1.172
603.60 1.172
603.70 1.172
603.80 1.172
603.90 1.172
604.00 1.172
604.10 1.172
604.20 1.172
604.30 1.172
604.40 1.173
604.50 1.173
604.60 1.173
604.70 1.173
604.80 1.173
604.90 1.173
605.00 1.173
605.10 1.173
605.20 1.173
605.30 1.173
605.40 1.173
605.50 1.173
605.60 1.173
605.70 1.173
605.80 1.173
605.90 1.173
606.00 1.173
606.10 1.174
606.20 1.174
606.30 1.174
606.40 1.174
606.50 1.174
606.60 1.174
606.70 1.174
606.80 1.174
606.90 1.174
607.00 1.174
607.10 1.174
607.20 1.174
607.30 1.174
607.40 1.174
607.50 1.174
607.60 1.174
607.70 1.175
607.80 1.175
607.90 1.175
608.00 1.175
608.10 1.175
608.20 1.175
608.30 1.175
608.40 1.175
608.50 1.175
608.60 1.175
608.70 1.175
608.80 1.175
608.90 1.175
609.00 1.175
609.10 1.175
609.20 1.175
609.30 1.175
609.40 1.176
609.50 1.176
609.60 1.176
609.70 1.176
609.80 1.176
609.90 1.176
610.00 1.176
610.10 1.176
610.20 1.176
610.30 1.176
610.40 1.176
610.50 1.176
610.60 1.176
610.70 1.176
610.80 1.176
610.90 1.176
611.00 1.176
611.10 1.176
611.20 1.176
611.30 1.177
611.40 1.177
611.50 1.177
611.60 1.177
611.70 1.177
611.80 1.177
611.90 1.177
612.00 1.177
612.10 1.177
612.20 1.177
612.30 1.177
612.40 1.177
612.50 1.177
612.60 1.177
612.70 1.177
612.80 1.177
612.90 1.177
613.00 1.177
613.10 1.177
613.20 1.178
613.30 1.178
613.40 1.178
613.50 1.178
613.60 1.178
613.70 1.178
613.80 1.178
613.90 1.178
614.00 1.178
614.10 1.178
614.20 1.178
614.30 1.178
614.40 1.178
614.50 1.178
614.60 1.178
614.70 1.178
614.80 1.178
614.90 1.178
615.00 1.178
615.10 1.178
615.20 1.178
615.30 1.179
615.40 1.179
615.50 1.179
615.60 1.179
615.70 1.179
615.80 1.179
615.90 1.179
616.00 1.179
616.10 1.179
616.20 1.179
616.30 1.179
616.40 1.179
616.50 1.179
616.60 1.179
616.70 1.179
616.80 1.179
616.90 1.179
617.00 1.179
617.10 1.179
617.20 1.179
617.30 1.179
617.40 1.179
617.50 1.179
617.60 1.179
617.70 1.18
617.80 1.18
617.90 1.18
618.00 1.18
618.10 1.18
618.20 1.18
618.30 1.18
618.40 1.18
618.50 1.18
618.60 1.18
618.70 1.18
618.80 1.18
618.90 1.18
619.00 1.18
619.10 1.18
619.20 1.18
619.30 1.18
619.40 1.18
619.50 1.18
619.60 1.18
619.70 1.18
619.80 1.18
619.90 1.18
620.00 1.18
620.10 1.18
620.20 1.181
620.30 1.181
620.40 1.181
620.50 1.181
620.60 1.181
620.70 1.181
620.80 1.181
620.90 1.181
621.00 1.181
621.10 1.181
621.20 1.181
621.30 1.181
621.40 1.181
621.50 1.181
621.60 1.181
621.70 1.181
621.80 1.181
621.90 1.181
622.00 1.181
622.10 1.181
622.20 1.181
622.30 1.181
622.40 1.181
622.50 1.181
622.60 1.181
622.70 1.181
622.80 1.181
622.90 1.181
623.00 1.181
623.10 1.181
623.20 1.182
623.30 1.182
623.40 1.182
623.50 1.182
623.60 1.182
623.70 1.182
623.80 1.182
623.90 1.182
624.00 1.182
624.10 1.182
624.20 1.182
624.30 1.182
624.40 1.182
624.50 1.182
624.60 1.182
624.70 1.182
624.80 1.182
624.90 1.182
625.00 1.182
625.10 1.182
625.20 1.182
625.30 1.182
625.40 1.182
625.50 1.182
625.60 1.182
625.70 1.182
625.80 1.182
625.90 1.182
626.00 1.182
626.10 1.182
626.20 1.182
626.30 1.182
626.40 1.182
626.50 1.182
626.60 1.182
626.70 1.183
626.80 1.183
626.90 1.183
627.00 1.183
627.10 1.183
627.20 1.183
627.30 1.183
627.40 1.183
627.50 1.183
627.60 1.183
627.70 1.183
627.80 1.183
627.90 1.183
628.00 1.183
628.10 1.183
628.20 1.183
628.30 1.183
628.40 1.183
628.50 1.183
628.60 1.183
628.70 1.183
628.80 1.183
628.90 1.183
629.00 1.183
629.10 1.183
629.20 1.183
629.30 1.183
629.40 1.183
629.50 1.183
629.60 1.183
629.70 1.183
629.80 1.183
629.90 1.183
630.00 1.183
630.10 1.183
630.20 1.183
630.30 1.183
630.40 1.183
630.50 1.183
630.60 1.183
630.70 1.183
630.80 1.183
630.90 1.183
631.00 1.183
631.10 1.183
631.20 1.183
631.30 1.183
631.40 1.184
631.50 1.184
631.60 1.184
631.70 1.184
631.80 1.184
631.90 1.184
632.00 1.184
632.10 1.184
632.20 1.184
632.30 1.184
632.40 1.184
632.50 1.184
632.60 1.184
632.70 1.184
632.80 1.184
632.90 1.184
633.00 1.184
633.10 1.184
633.20 1.184
633.30 1.184
633.40 1.184
633.50 1.184
633.60 1.184
633.70 1.184
633.80 1.184
633.90 1.184
634.00 1.184
634.10 1.184
634.20 1.184
634.30 1.184
634.40 1.184
634.50 1.184
634.60 1.184
634.70 1.184
634.80 1.184
634.90 1.184
635.00 1.184
635.10 1.184
635.20 1.184
635.30 1.184
635.40 1.184
635.50 1.184
635.60 1.184
635.70 1.184
635.80 1.184
635.90 1.184
636.00 1.184
636.10 1.184
636.20 1.184
636.30 1.184
636.40 1.184
636.50 1.184
636.60 1.184
636.70 1.184
636.80 1.184
636.90 1.184
637.00 1.184
637.10 1.184
637.20 1.184
637.30 1.184
637.40 1.184
637.50 1.184
637.60 1.184
637.70 1.184
637.80 1.184
637.90 1.184
638.00 1.184
638.10 1.184
638.20 1.184
638.30 1.184
638.40 1.184
638.50 1.184
638.60 1.184
638.70 1.184
638.80 1.184
638.90 1.184
639.00 1.184
639.10 1.184
639.20 1.184
639.30 1.184
639.40 1.184
639.50 1.184
639.60 1.184
639.70 1.184
639.80 1.184
639.90 1.184
640.00 1.184
640.10 1.184
640.20 1.184
640.30 1.184
640.40 1.184
640.50 1.184
640.60 1.184
640.70 1.184
640.80 1.184
640.90 1.184
641.00 1.184
641.10 1.184
641.20 1.184
641.30 1.184
641.40 1.184
641.50 1.184
641.60 1.184
641.70 1.184
641.80 1.184
641.90 1.184
642.00 1.184
642.10 1.184
642.20 1.184
642.30 1.184
642.40 1.184
642.50 1.184
642.60 1.184
642.70 1.184
642.80 1.184
642.90 1.184
643.00 1.184
643.10 1.184
643.20 1.184
643.30 1.184
643.40 1.184
643.50 1.184
643.60 1.184
643.70 1.184
643.80 1.184
643.90 1.184
644.00 1.184
644.10 1.184
644.20 1.184
644.30 1.184
644.40 1.184
644.50 1.184
644.60 1.184
644.70 1.184
644.80 1.184
644.90 1.184
645.00 1.184
645.10 1.184
645.20 1.184
645.30 1.184
645.40 1.184
645.50 1.184
645.60 1.184
645.70 1.184
645.80 1.184
645.90 1.184
646.00 1.184
646.10 1.184
646.20 1.184
646.30 1.184
646.40 1.184
646.50 1.184
646.60 1.184
646.70 1.184
646.80 1.184
646.90 1.184
647.00 1.184
647.10 1.184
647.20 1.184
647.30 1.184
647.40 1.184
647.50 1.184
647.60 1.184
647.70 1.184
647.80 1.184
647.90 1.184
648.00 1.184
648.10 1.184
648.20 1.184
648.30 1.184
648.40 1.184
648.50 1.184
648.60 1.184
648.70 1.184
648.80 1.184
648.90 1.184
649.00 1.184
649.10 1.184
649.20 1.184
649.30 1.184
649.40 1.184
649.50 1.184
649.60 1.184
649.70 1.184
649.80 1.184
649.90 1.184
650.00 1.184
650.10 1.184
650.20 1.184
650.30 1.184
650.40 1.184
650.50 1.184
650.60 1.184
650.70 1.183
650.80 1.183
650.90 1.183
651.00 1.183
651.10 1.183
651.20 1.183
651.30 1.183
651.40 1.183
651.50 1.183
651.60 1.183
651.70 1.183
651.80 1.183
651.90 1.183
652.00 1.183
652.10 1.183
652.20 1.183
652.30 1.183
652.40 1.183
652.50 1.183
652.60 1.183
652.70 1.183
652.80 1.183
652.90 1.183
653.00 1.183
653.10 1.183
653.20 1.183
653.30 1.183
653.40 1.183
653.50 1.183
653.60 1.183
653.70 1.183
653.80 1.183
653.90 1.183
654.00 1.183
654.10 1.183
654.20 1.183
654.30 1.183
654.40 1.183
654.50 1.183
654.60 1.183
654.70 1.183
654.80 1.183
654.90 1.183
655.00 1.183
655.10 1.182
655.20 1.182
655.30 1.182
655.40 1.182
655.50 1.182
655.60 1.182
655.70 1.182
655.80 1.182
655.90 1.182
656.00 1.182
656.10 1.182
656.20 1.182
656.30 1.182
656.40 1.182
656.50 1.182
656.60 1.182
656.70 1.182
656.80 1.182
656.90 1.182
657.00 1.182
657.10 1.182
657.20 1.182
657.30 1.182
657.40 1.182
657.50 1.182
657.60 1.182
657.70 1.182
657.80 1.182
657.90 1.182
658.00 1.182
658.10 1.182
658.20 1.182
658.30 1.182
658.40 1.182
658.50 1.182
658.60 1.182
658.70 1.181
658.80 1.181
658.90 1.181
659.00 1.181
659.10 1.181
659.20 1.181
659.30 1.181
659.40 1.181
659.50 1.181
659.60 1.181
659.70 1.181
659.80 1.181
659.90 1.181
660.00 1.181
660.10 1.181
660.20 1.181
660.30 1.181
660.40 1.181
660.50 1.181
660.60 1.181
660.70 1.181
660.80 1.181
660.90 1.181
661.00 1.181
661.10 1.181
661.20 1.181
661.30 1.181
661.40 1.181
661.50 1.18
661.60 1.18
661.70 1.18
661.80 1.18
661.90 1.18
662.00 1.18
662.10 1.18
662.20 1.18
662.30 1.18
662.40 1.18
662.50 1.18
662.60 1.18
662.70 1.18
662.80 1.18
662.90 1.18
663.00 1.18
663.10 1.18
663.20 1.18
663.30 1.18
663.40 1.18
663.50 1.18
663.60 1.18
663.70 1.18
663.80 1.179
663.90 1.179
664.00 1.179
664.10 1.179
664.20 1.179
664.30 1.179
664.40 1.179
664.50 1.179
664.60 1.179
664.70 1.179
664.80 1.179
664.90 1.179
665.00 1.179
665.10 1.179
665.20 1.179
665.30 1.179
665.40 1.179
665.50 1.179
665.60 1.179
665.70 1.179
665.80 1.179
665.90 1.179
666.00 1.178
666.10 1.178
666.20 1.178
666.30 1.178
666.40 1.178
666.50 1.178
666.60 1.178
666.70 1.178
666.80 1.178
666.90 1.178
667.00 1.178
667.10 1.178
667.20 1.178
667.30 1.178
667.40 1.178
667.50 1.178
667.60 1.178
667.70 1.178
667.80 1.178
667.90 1.178
668.00 1.178
668.10 1.177
668.20 1.177
668.30 1.177
668.40 1.177
668.50 1.177
668.60 1.177
668.70 1.177
668.80 1.177
668.90 1.177
669.00 1.177
669.10 1.177
669.20 1.177
669.30 1.177
669.40 1.177
669.50 1.177
669.60 1.177
669.70 1.177
669.80 1.177
669.90 1.176
670.00 1.176
670.10 1.176
670.20 1.176
670.30 1.176
670.40 1.176
670.50 1.176
670.60 1.176
670.70 1.176
670.80 1.176
670.90 1.176
671.00 1.176
671.10 1.176
671.20 1.176
671.30 1.176
671.40 1.176
671.50 1.176
671.60 1.175
671.70 1.175
671.80 1.175
671.90 1.175
672.00 1.175
672.10 1.175
672.20 1.175
672.30 1.175
672.40 1.175
672.50 1.175
672.60 1.175
672.70 1.175
672.80 1.175
672.90 1.175
673.00 1.175
673.10 1.175
673.20 1.175
673.30 1.174
673.40 1.174
673.50 1.174
673.60 1.174
673.70 1.174
673.80 1.174
673.90 1.174
674.00 1.174
674.10 1.174
674.20 1.174
674.30 1.174
674.40 1.174
674.50 1.174
674.60 1.174
674.70 1.174
674.80 1.173
674.90 1.173
675.00 1.173
675.10 1.173
675.20 1.173
675.30 1.173
675.40 1.173
675.50 1.173
675.60 1.173
675.70 1.173
675.80 1.173
675.90 1.173
676.00 1.173
676.10 1.173
676.20 1.172
676.30 1.172
676.40 1.172
676.50 1.172
676.60 1.172
676.70 1.172
676.80 1.172
676.90 1.172
677.00 1.172
677.10 1.172
677.20 1.172
677.30 1.172
677.40 1.172
677.50 1.172
677.60 1.171
677.70 1.171
677.80 1.171
677.90 1.171
678.00 1.171
678.10 1.171
678.20 1.171
678.30 1.171
678.40 1.171
678.50 1.171
678.60 1.171
678.70 1.171
678.80 1.171
678.90 1.17
679.00 1.17
679.10 1.17
679.20 1.17
679.30 1.17
679.40 1.17
679.50 1.17
679.60 1.17
679.70 1.17
679.80 1.17
679.90 1.17
680.00 1.17
680.10 1.169
680.20 1.169
680.30 1.169
680.40 1.169
680.50 1.169
680.60 1.169
680.70 1.169
680.80 1.169
680.90 1.169
681.00 1.169
681.10 1.169
681.20 1.169
681.30 1.169
681.40 1.168
681.50 1.168
681.60 1.168
681.70 1.168
681.80 1.168
681.90 1.168
682.00 1.168
682.10 1.168
682.20 1.168
682.30 1.168
682.40 1.168
682.50 1.168
682.60 1.167
682.70 1.167
682.80 1.167
682.90 1.167
683.00 1.167
683.10 1.167
683.20 1.167
683.30 1.167
683.40 1.167
683.50 1.167
683.60 1.167
683.70 1.166
683.80 1.166
683.90 1.166
684.00 1.166
684.10 1.166
684.20 1.166
684.30 1.166
684.40 1.166
684.50 1.166
684.60 1.166
684.70 1.166
684.80 1.165
684.90 1.165
685.00 1.165
685.10 1.165
685.20 1.165
685.30 1.165
685.40 1.165
685.50 1.165
685.60 1.165
685.70 1.165
685.80 1.164
685.90 1.164
686.00 1.164
686.10 1.164
686.20 1.164
686.30 1.164
686.40 1.164
686.50 1.164
686.60 1.164
686.70 1.164
686.80 1.164
686.90 1.163
687.00 1.163
687.10 1.163
687.20 1.163
687.30 1.163
687.40 1.163
687.50 1.163
687.60 1.163
687.70 1.163
687.80 1.163
687.90 1.162
688.00 1.162
688.10 1.162
688.20 1.162
688.30 1.162
688.40 1.162
688.50 1.162
688.60 1.162
688.70 1.162
688.80 1.161
688.90 1.161
689.00 1.161
689.10 1.161
689.20 1.161
689.30 1.161
689.40 1.161
689.50 1.161
689.60 1.161
689.70 1.161
689.80 1.16
689.90 1.16
690.00 1.16
690.10 1.16
690.20 1.16
690.30 1.16
690.40 1.16
690.50 1.16
690.60 1.159
690.70 1.159
690.80 1.159
690.90 1.159
691.00 1.159
691.10 1.159
691.20 1.159
691.30 1.159
691.40 1.159
691.50 1.158
691.60 1.158
691.70 1.158
691.80 1.158
691.90 1.158
692.00 1.158
692.10 1.158
692.20 1.158
692.30 1.158
692.40 1.157
692.50 1.157
692.60 1.157
692.70 1.157
692.80 1.157
692.90 1.157
693.00 1.157
693.10 1.157
693.20 1.157
693.30 1.156
693.40 1.156
693.50 1.156
693.60 1.156
693.70 1.156
693.80 1.156
693.90 1.156
694.00 1.156
694.10 1.155
694.20 1.155
694.30 1.155
694.40 1.155
694.50 1.155
694.60 1.155
694.70 1.155
694.80 1.155
694.90 1.155
695.00 1.154
695.10 1.154
695.20 1.154
695.30 1.154
695.40 1.154
695.50 1.154
695.60 1.154
695.70 1.154
695.80 1.153
695.90 1.153
696.00 1.153
696.10 1.153
696.20 1.153
696.30 1.153
696.40 1.153
696.50 1.153
696.60 1.152
696.70 1.152
696.80 1.152
696.90 1.152
697.00 1.152
697.10 1.152
697.20 1.152
697.30 1.151
697.40 1.151
697.50 1.151
697.60 1.151
697.70 1.151
697.80 1.151
697.90 1.151
698.00 1.151
698.10 1.15
698.20 1.15
698.30 1.15
698.40 1.15
698.50 1.15
698.60 1.15
698.70 1.15
698.80 1.15
698.90 1.149
699.00 1.149
699.10 1.149
699.20 1.149
699.30 1.149
699.40 1.149
699.50 1.149
699.60 1.148
699.70 1.148
699.80 1.148
699.90 1.148
700.00 1.148
700.10 1.148
700.20 1.148
700.30 1.148
700.40 1.147
700.50 1.147
700.60 1.147
700.70 1.147
700.80 1.147
700.90 1.147
701.00 1.147
701.10 1.146
701.20 1.146
701.30 1.146
701.40 1.146
701.50 1.146
701.60 1.146
701.70 1.145
701.80 1.145
701.90 1.145
702.00 1.145
702.10 1.145
702.20 1.145
702.30 1.145
702.40 1.144
702.50 1.144
702.60 1.144
702.70 1.144
702.80 1.144
702.90 1.144
703.00 1.144
703.10 1.143
703.20 1.143
703.30 1.143
703.40 1.143
703.50 1.143
703.60 1.143
703.70 1.143
703.80 1.142
703.90 1.142
704.00 1.142
704.10 1.142
704.20 1.142
704.30 1.142
704.40 1.142
704.50 1.141
704.60 1.141
704.70 1.141
704.80 1.141
704.90 1.141
705.00 1.141
705.10 1.141
705.20 1.14
705.30 1.14
705.40 1.14
705.50 1.14
705.60 1.14
705.70 1.14
705.80 1.139
705.90 1.139
706.00 1.139
706.10 1.139
706.20 1.139
706.30 1.139
706.40 1.139
706.50 1.138
706.60 1.138
706.70 1.138
706.80 1.138
706.90 1.138
707.00 1.138
707.10 1.137
707.20 1.137
707.30 1.137
707.40 1.137
707.50 1.137
707.60 1.137
707.70 1.136
707.80 1.136
707.90 1.136
708.00 1.136
708.10 1.136
708.20 1.136
708.30 1.136
708.40 1.135
708.50 1.135
708.60 1.135
708.70 1.135
708.80 1.135
708.90 1.135
709.00 1.134
709.10 1.134
709.20 1.134
709.30 1.134
709.40 1.134
709.50 1.134
709.60 1.133
709.70 1.133
709.80 1.133
709.90 1.133
710.00 1.133
710.10 1.133
710.20 1.133
710.30 1.132
710.40 1.132
710.50 1.132
710.60 1.132
710.70 1.132
710.80 1.131
710.90 1.131
711.00 1.131
711.10 1.131
711.20 1.131
711.30 1.131
711.40 1.13
711.50 1.13
711.60 1.13
711.70 1.13
711.80 1.13
711.90 1.13
712.00 1.129
712.10 1.129
712.20 1.129
712.30 1.129
712.40 1.129
712.50 1.129
712.60 1.128
712.70 1.128
712.80 1.128
712.90 1.128
713.00 1.128
713.10 1.128
713.20 1.127
713.30 1.127
713.40 1.127
713.50 1.127
713.60 1.127
713.70 1.127
713.80 1.126
713.90 1.126
714.00 1.126
714.10 1.126
714.20 1.126
714.30 1.126
714.40 1.125
714.50 1.125
714.60 1.125
714.70 1.125
714.80 1.125
714.90 1.125
715.00 1.124
715.10 1.124
715.20 1.124
715.30 1.124
715.40 1.124
715.50 1.123
715.60 1.123
715.70 1.123
715.80 1.123
715.90 1.123
716.00 1.123
716.10 1.122
716.20 1.122
716.30 1.122
716.40 1.122
716.50 1.122
716.60 1.121
716.70 1.121
716.80 1.121
716.90 1.121
717.00 1.121
717.10 1.121
717.20 1.12
717.30 1.12
717.40 1.12
717.50 1.12
717.60 1.12
717.70 1.119
717.80 1.119
717.90 1.119
718.00 1.119
718.10 1.119
718.20 1.119
718.30 1.118
718.40 1.118
718.50 1.118
718.60 1.118
718.70 1.118
718.80 1.117
718.90 1.117
719.00 1.117
719.10 1.117
719.20 1.117
719.30 1.117
719.40 1.116
719.50 1.116
719.60 1.116
719.70 1.116
719.80 1.116
719.90 1.115
720.00 1.115
720.10 1.115
720.20 1.115
720.30 1.115
720.40 1.115
720.50 1.114
720.60 1.114
720.70 1.114
720.80 1.114
720.90 1.114
721.00 1.113
721.10 1.113
721.20 1.113
721.30 1.113
721.40 1.113
721.50 1.112
721.60 1.112
721.70 1.112
721.80 1.112
721.90 1.112
722.00 1.111
722.10 1.111
722.20 1.111
722.30 1.111
722.40 1.111
722.50 1.111
722.60 1.11
722.70 1.11
722.80 1.11
722.90 1.11
723.00 1.11
723.10 1.109
723.20 1.109
723.30 1.109
723.40 1.109
723.50 1.109
723.60 1.108
723.70 1.108
723.80 1.108
723.90 1.108
724.00 1.108
724.10 1.108
724.20 1.107
724.30 1.107
724.40 1.107
724.50 1.107
724.60 1.107
724.70 1.106
724.80 1.106
724.90 1.106
725.00 1.106
725.10 1.106
725.20 1.105
725.30 1.105
725.40 1.105
725.50 1.105
725.60 1.105
725.70 1.105
725.80 1.104
725.90 1.104
726.00 1.104
726.10 1.104
726.20 1.104
726.30 1.103
726.40 1.103
726.50 1.103
726.60 1.103
726.70 1.103
726.80 1.102
726.90 1.102
727.00 1.102
727.10 1.102
727.20 1.102
727.30 1.101
727.40 1.101
727.50 1.101
727.60 1.101
727.70 1.101
727.80 1.101
727.90 1.1
728.00 1.1
728.10 1.1
728.20 1.1
728.30 1.1
728.40 1.099
728.50 1.099
728.60 1.099
728.70 1.099
728.80 1.099
728.90 1.098
729.00 1.098
729.10 1.098
729.20 1.098
729.30 1.098
729.40 1.097
729.50 1.097
729.60 1.097
729.70 1.097
729.80 1.097
729.90 1.097
730.00 1.096
730.10 1.096
730.20 1.096
730.30 1.096
730.40 1.096
730.50 1.095
730.60 1.095
730.70 1.095
730.80 1.095
730.90 1.095
731.00 1.094
731.10 1.094
731.20 1.094
731.30 1.094
731.40 1.094
731.50 1.094
731.60 1.093
731.70 1.093
731.80 1.093
731.90 1.093
732.00 1.093
732.10 1.092
732.20 1.092
732.30 1.092
732.40 1.092
732.50 1.092
732.60 1.091
732.70 1.091
732.80 1.091
732.90 1.091
733.00 1.091
733.10 1.091
733.20 1.09
733.30 1.09
733.40 1.09
733.50 1.09
733.60 1.09
733.70 1.089
733.80 1.089
733.90 1.089
734.00 1.089
734.10 1.089
734.20 1.088
734.30 1.088
734.40 1.088
734.50 1.088
734.60 1.088
734.70 1.088
734.80 1.087
734.90 1.087
735.00 1.087
735.10 1.087
735.20 1.087
735.30 1.086
735.40 1.086
735.50 1.086
735.60 1.086
735.70 1.086
735.80 1.085
735.90 1.085
736.00 1.085
736.10 1.085
736.20 1.085
736.30 1.085
736.40 1.084
736.50 1.084
736.60 1.084
736.70 1.084
736.80 1.084
736.90 1.083
737.00 1.083
737.10 1.083
737.20 1.083
737.30 1.083
737.40 1.083
737.50 1.082
737.60 1.082
737.70 1.082
737.80 1.082
737.90 1.082
738.00 1.081
738.10 1.081
738.20 1.081
738.30 1.081
738.40 1.081
738.50 1.08
738.60 1.08
738.70 1.08
738.80 1.08
738.90 1.08
739.00 1.08
739.10 1.079
739.20 1.079
739.30 1.079
739.40 1.079
739.50 1.079
739.60 1.078
739.70 1.078
739.80 1.078
739.90 1.078
740.00 1.078
740.10 1.078
740.20 1.077
740.30 1.077
740.40 1.077
740.50 1.077
740.60 1.077
740.70 1.076
740.80 1.076
740.90 1.076
741.00 1.076
741.10 1.076
741.20 1.076
741.30 1.075
741.40 1.075
741.50 1.075
741.60 1.075
741.70 1.075
741.80 1.075
741.90 1.074
742.00 1.074
742.10 1.074
742.20 1.074
742.30 1.074
742.40 1.074
742.50 1.073
742.60 1.073
742.70 1.073
742.80 1.073
742.90 1.073
743.00 1.072
743.10 1.072
743.20 1.072
743.30 1.072
743.40 1.072
743.50 1.072
743.60 1.071
743.70 1.071
743.80 1.071
743.90 1.071
744.00 1.071
744.10 1.071
744.20 1.07
744.30 1.07
744.40 1.07
744.50 1.07
744.60 1.07
744.70 1.069
744.80 1.069
744.90 1.069
745.00 1.069
745.10 1.069
745.20 1.069
745.30 1.068
745.40 1.068
745.50 1.068
745.60 1.068
745.70 1.068
745.80 1.068
745.90 1.067
746.00 1.067
746.10 1.067
746.20 1.067
746.30 1.067
746.40 1.067
746.50 1.066
746.60 1.066
746.70 1.066
746.80 1.066
746.90 1.066
747.00 1.066
747.10 1.065
747.20 1.065
747.30 1.065
747.40 1.065
747.50 1.065
747.60 1.064
747.70 1.064
747.80 1.064
747.90 1.064
748.00 1.064
748.10 1.064
748.20 1.063
748.30 1.063
748.40 1.063
748.50 1.063
748.60 1.063
748.70 1.063
748.80 1.062
748.90 1.062
749.00 1.062
749.10 1.062
749.20 1.062
749.30 1.062
749.40 1.061
749.50 1.061
749.60 1.061
749.70 1.061
749.80 1.061
749.90 1.061
750.00 1.06
750.10 1.06
750.20 1.06
750.30 1.06
750.40 1.06
750.50 1.06
750.60 1.059
750.70 1.059
750.80 1.059
750.90 1.059
751.00 1.059
751.10 1.059
751.20 1.058
751.30 1.058
751.40 1.058
751.50 1.058
751.60 1.058
751.70 1.058
751.80 1.057
751.90 1.057
752.00 1.057
752.10 1.057
752.20 1.057
752.30 1.057
752.40 1.056
752.50 1.056
752.60 1.056
752.70 1.056
752.80 1.056
752.90 1.056
753.00 1.055
753.10 1.055
753.20 1.055
753.30 1.055
753.40 1.055
753.50 1.055
753.60 1.054
753.70 1.054
753.80 1.054
753.90 1.054
754.00 1.054
754.10 1.054
754.20 1.053
754.30 1.053
754.40 1.053
754.50 1.053
754.60 1.053
754.70 1.053
754.80 1.052
754.90 1.052
755.00 1.052
755.10 1.052
755.20 1.052
755.30 1.052
755.40 1.051
755.50 1.051
755.60 1.051
755.70 1.051
755.80 1.051
755.90 1.051
756.00 1.051
756.10 1.05
756.20 1.05
756.30 1.05
756.40 1.05
756.50 1.05
756.60 1.05
756.70 1.049
756.80 1.049
756.90 1.049
757.00 1.049
757.10 1.049
757.20 1.049
757.30 1.048
757.40 1.048
757.50 1.048
757.60 1.048
757.70 1.048
757.80 1.048
757.90 1.047
758.00 1.047
758.10 1.047
758.20 1.047
758.30 1.047
758.40 1.047
758.50 1.046
758.60 1.046
758.70 1.046
758.80 1.046
758.90 1.046
759.00 1.046
759.10 1.045
759.20 1.045
759.30 1.045
759.40 1.045
759.50 1.045
759.60 1.045
759.70 1.045
759.80 1.044
759.90 1.044
760.00 1.044
760.10 1.044
760.20 1.044
760.30 1.044
760.40 1.043
760.50 1.043
760.60 1.043
760.70 1.043
760.80 1.043
760.90 1.043
761.00 1.042
761.10 1.042
761.20 1.042
761.30 1.042
761.40 1.042
761.50 1.042
761.60 1.042
761.70 1.041
761.80 1.041
761.90 1.041
762.00 1.041
762.10 1.041
762.20 1.041
762.30 1.04
762.40 1.04
762.50 1.04
762.60 1.04
762.70 1.04
762.80 1.04
762.90 1.039
763.00 1.039
763.10 1.039
763.20 1.039
763.30 1.039
763.40 1.039
763.50 1.039
763.60 1.038
763.70 1.038
763.80 1.038
763.90 1.038
764.00 1.038
764.10 1.038
764.20 1.037
764.30 1.037
764.40 1.037
764.50 1.037
764.60 1.037
764.70 1.037
764.80 1.037
764.90 1.036
765.00 1.036
765.10 1.036
765.20 1.036
765.30 1.036
765.40 1.036
765.50 1.035
765.60 1.035
765.70 1.035
765.80 1.035
765.90 1.035
766.00 1.035
766.10 1.034
766.20 1.034
766.30 1.034
766.40 1.034
766.50 1.034
766.60 1.034
766.70 1.034
766.80 1.033
766.90 1.033
767.00 1.033
767.10 1.033
767.20 1.033
767.30 1.033
767.40 1.032
767.50 1.032
767.60 1.032
767.70 1.032
767.80 1.032
767.90 1.032
768.00 1.032
768.10 1.031
768.20 1.031
768.30 1.031
768.40 1.031
768.50 1.031
768.60 1.031
768.70 1.03
768.80 1.03
768.90 1.03
769.00 1.03
769.10 1.03
769.20 1.03
769.30 1.03
769.40 1.029
769.50 1.029
769.60 1.029
769.70 1.029
769.80 1.029
769.90 1.029
770.00 1.028
770.10 1.028
770.20 1.028
770.30 1.028
770.40 1.028
770.50 1.028
770.60 1.028
770.70 1.027
770.80 1.027
770.90 1.027
771.00 1.027
771.10 1.027
771.20 1.027
771.30 1.027
771.40 1.026
771.50 1.026
771.60 1.026
771.70 1.026
771.80 1.026
771.90 1.026
772.00 1.026
772.10 1.025
772.20 1.025
772.30 1.025
772.40 1.025
772.50 1.025
772.60 1.025
772.70 1.025
772.80 1.024
772.90 1.024
773.00 1.024
773.10 1.024
773.20 1.024
773.30 1.024
773.40 1.023
773.50 1.023
773.60 1.023
773.70 1.023
773.80 1.023
773.90 1.023
774.00 1.023
774.10 1.022
774.20 1.022
774.30 1.022
774.40 1.022
774.50 1.022
774.60 1.022
774.70 1.022
774.80 1.021
774.90 1.021
775.00 1.021
775.10 1.021
775.20 1.021
775.30 1.021
775.40 1.021
775.50 1.02
775.60 1.02
775.70 1.02
775.80 1.02
775.90 1.02
776.00 1.02
776.10 1.02
776.20 1.019
776.30 1.019
776.40 1.019
776.50 1.019
776.60 1.019
776.70 1.019
776.80 1.019
776.90 1.018
777.00 1.018
777.10 1.018
777.20 1.018
777.30 1.018
777.40 1.018
777.50 1.018
777.60 1.017
777.70 1.017
777.80 1.017
777.90 1.017
778.00 1.017
778.10 1.017
778.20 1.017
778.30 1.016
778.40 1.016
778.50 1.016
778.60 1.016
778.70 1.016
778.80 1.016
778.90 1.016
779.00 1.015
779.10 1.015
779.20 1.015
779.30 1.015
779.40 1.015
779.50 1.015
779.60 1.015
779.70 1.014
779.80 1.014
779.90 1.014
780.00 1.014
780.10 1.014
780.20 1.014
780.30 1.014
780.40 1.013
780.50 1.013
780.60 1.013
780.70 1.013
780.80 1.013
780.90 1.013
781.00 1.013
781.10 1.012
781.20 1.012
781.30 1.012
781.40 1.012
781.50 1.012
781.60 1.012
781.70 1.012
781.80 1.012
781.90 1.011
782.00 1.011
782.10 1.011
782.20 1.011
782.30 1.011
782.40 1.011
782.50 1.011
782.60 1.01
782.70 1.01
782.80 1.01
782.90 1.01
783.00 1.01
783.10 1.01
783.20 1.01
783.30 1.009
783.40 1.009
783.50 1.009
783.60 1.009
783.70 1.009
783.80 1.009
783.90 1.009
784.00 1.009
784.10 1.008
784.20 1.008
784.30 1.008
784.40 1.008
784.50 1.008
784.60 1.008
784.70 1.008
784.80 1.007
784.90 1.007
785.00 1.007
785.10 1.007
785.20 1.007
785.30 1.007
785.40 1.007
785.50 1.007
785.60 1.006
785.70 1.006
785.80 1.006
785.90 1.006
786.00 1.006
786.10 1.006
786.20 1.006
786.30 1.005
786.40 1.005
786.50 1.005
786.60 1.005
786.70 1.005
786.80 1.005
786.90 1.005
787.00 1.005
787.10 1.004
787.20 1.004
787.30 1.004
787.40 1.004
787.50 1.004
787.60 1.004
787.70 1.004
787.80 1.003
787.90 1.003
788.00 1.003
788.10 1.003
788.20 1.003
788.30 1.003
788.40 1.003
788.50 1.003
788.60 1.002
788.70 1.002
788.80 1.002
788.90 1.002
789.00 1.002
789.10 1.002
789.20 1.002
789.30 1.001
789.40 1.001
789.50 1.001
789.60 1.001
789.70 1.001
789.80 1.001
789.90 1.001
790.00 1.001
790.10 1
790.20 1
790.30 1
790.40 1
790.50 0.9999
790.60 0.9997
790.70 0.9996
790.80 0.9995
790.90 0.9993
791.00 0.9992
791.10 0.999
791.20 0.9989
791.30 0.9988
791.40 0.9986
791.50 0.9985
791.60 0.9984
791.70 0.9982
791.80 0.9981
791.90 0.998
792.00 0.9978
792.10 0.9977
792.20 0.9976
792.30 0.9974
792.40 0.9973
792.50 0.9971
792.60 0.997
792.70 0.9969
792.80 0.9967
792.90 0.9966
793.00 0.9965
793.10 0.9963
793.20 0.9962
793.30 0.9961
793.40 0.9959
793.50 0.9958
793.60 0.9957
793.70 0.9955
793.80 0.9954
793.90 0.9953
794.00 0.9951
794.10 0.995
794.20 0.9949
794.30 0.9947
794.40 0.9946
794.50 0.9944
794.60 0.9943
794.70 0.9942
794.80 0.994
794.90 0.9939
795.00 0.9938
795.10 0.9936
795.20 0.9935
795.30 0.9934
795.40 0.9932
795.50 0.9931
795.60 0.993
795.70 0.9928
795.80 0.9927
795.90 0.9926
796.00 0.9924
796.10 0.9923
796.20 0.9922
796.30 0.992
796.40 0.9919
796.50 0.9918
796.60 0.9916
796.70 0.9915
796.80 0.9914
796.90 0.9912
797.00 0.9911
797.10 0.991
797.20 0.9908
797.30 0.9907
797.40 0.9906
797.50 0.9904
797.60 0.9903
797.70 0.9902
797.80 0.99
797.90 0.9899
798.00 0.9898
798.10 0.9896
798.20 0.9895
798.30 0.9894
798.40 0.9892
798.50 0.9891
798.60 0.989
798.70 0.9888
798.80 0.9887
798.90 0.9886
799.00 0.9884
799.10 0.9883
799.20 0.9882
799.30 0.988
799.40 0.9879
799.50 0.9878
799.60 0.9876
799.70 0.9875
799.80 0.9874
799.90 0.9872
800.00 0.9871
800.10 0.9869
800.20 0.9868
800.30 0.9866
800.40 0.9865
800.50 0.9863
800.60 0.9862
800.70 0.986
800.80 0.9859
800.90 0.9857
801.00 0.9856
801.10 0.9854
801.20 0.9853
801.30 0.9851
801.40 0.985
801.50 0.9848
801.60 0.9847
801.70 0.9845
801.80 0.9844
801.90 0.9842
802.00 0.9841
802.10 0.9839
802.20 0.9838
802.30 0.9836
802.40 0.9835
802.50 0.9833
802.60 0.9832
802.70 0.983
802.80 0.9829
802.90 0.9827
803.00 0.9826
803.10 0.9824
803.20 0.9823
803.30 0.9821
803.40 0.982
803.50 0.9818
803.60 0.9817
803.70 0.9815
803.80 0.9814
803.90 0.9812
804.00 0.9811
804.10 0.9809
804.20 0.9807
804.30 0.9806
804.40 0.9804
804.50 0.9803
804.60 0.9801
804.70 0.98
804.80 0.9798
804.90 0.9797
805.00 0.9795
805.10 0.9794
805.20 0.9793
805.30 0.9791
805.40 0.979
805.50 0.9788
805.60 0.9787
805.70 0.9785
805.80 0.9784
805.90 0.9782
806.00 0.9781
806.10 0.9779
806.20 0.9778
806.30 0.9776
806.40 0.9775
806.50 0.9773
806.60 0.9772
806.70 0.977
806.80 0.9769
806.90 0.9767
807.00 0.9766
807.10 0.9764
807.20 0.9763
807.30 0.9761
807.40 0.976
807.50 0.9758
807.60 0.9757
807.70 0.9755
807.80 0.9754
807.90 0.9752
808.00 0.9751
808.10 0.9749
808.20 0.9748
808.30 0.9746
808.40 0.9745
808.50 0.9743
808.60 0.9742
808.70 0.974
808.80 0.9739
808.90 0.9737
809.00 0.9736
809.10 0.9734
809.20 0.9733
809.30 0.9731
809.40 0.973
809.50 0.9729
809.60 0.9727
809.70 0.9726
809.80 0.9724
809.90 0.9723
810.00 0.9721
810.10 0.9719
810.20 0.9718
810.30 0.9716
810.40 0.9714
810.50 0.9713
810.60 0.9711
810.70 0.9709
810.80 0.9707
810.90 0.9706
811.00 0.9704
811.10 0.9702
811.20 0.9701
811.30 0.9699
811.40 0.9697
811.50 0.9695
811.60 0.9694
811.70 0.9692
811.80 0.969
811.90 0.9689
812.00 0.9687
812.10 0.9685
812.20 0.9683
812.30 0.9682
812.40 0.968
812.50 0.9678
812.60 0.9677
812.70 0.9675
812.80 0.9673
812.90 0.9672
813.00 0.967
813.10 0.9668
813.20 0.9666
813.30 0.9665
813.40 0.9663
813.50 0.9661
813.60 0.966
813.70 0.9658
813.80 0.9656
813.90 0.9655
814.00 0.9653
814.10 0.9651
814.20 0.9649
814.30 0.9648
814.40 0.9646
814.50 0.9644
814.60 0.9643
814.70 0.9641
814.80 0.9639
814.90 0.9638
815.00 0.9636
815.10 0.9634
815.20 0.9633
815.30 0.9631
815.40 0.9629
815.50 0.9627
815.60 0.9626
815.70 0.9624
815.80 0.9622
815.90 0.9621
816.00 0.9619
816.10 0.9617
816.20 0.9616
816.30 0.9614
816.40 0.9612
816.50 0.9611
816.60 0.9609
816.70 0.9607
816.80 0.9606
816.90 0.9604
817.00 0.9602
817.10 0.9601
817.20 0.9599
817.30 0.9597
817.40 0.9596
817.50 0.9594
817.60 0.9592
817.70 0.959
817.80 0.9589
817.90 0.9587
818.00 0.9585
818.10 0.9584
818.20 0.9582
818.30 0.958
818.40 0.9579
818.50 0.9577
818.60 0.9575
818.70 0.9574
818.80 0.9572
818.90 0.957
819.00 0.9569
819.10 0.9567
819.20 0.9565
819.30 0.9564
819.40 0.9562
819.50 0.956
819.60 0.9559
819.70 0.9557
819.80 0.9555
819.90 0.9554
820.00 0.9552
820.10 0.955
820.20 0.9549
820.30 0.9547
820.40 0.9545
820.50 0.9543
820.60 0.9541
820.70 0.954
820.80 0.9538
820.90 0.9536
821.00 0.9534
821.10 0.9532
821.20 0.9531
821.30 0.9529
821.40 0.9527
821.50 0.9525
821.60 0.9524
821.70 0.9522
821.80 0.952
821.90 0.9518
822.00 0.9516
822.10 0.9515
822.20 0.9513
822.30 0.9511
822.40 0.9509
822.50 0.9507
822.60 0.9505
822.70 0.9504
822.80 0.9502
822.90 0.95
823.00 0.9498
823.10 0.9496
823.20 0.9494
823.30 0.9492
823.40 0.9491
823.50 0.9489
823.60 0.9487
823.70 0.9485
823.80 0.9483
823.90 0.9481
824.00 0.948
824.10 0.9478
824.20 0.9476
824.30 0.9474
824.40 0.9472
824.50 0.947
824.60 0.9469
824.70 0.9467
824.80 0.9465
824.90 0.9463
825.00 0.9461
825.10 0.9459
825.20 0.9458
825.30 0.9456
825.40 0.9454
825.50 0.9452
825.60 0.945
825.70 0.9448
825.80 0.9447
825.90 0.9445
826.00 0.9443
826.10 0.9441
826.20 0.9439
826.30 0.9437
826.40 0.9436
826.50 0.9434
826.60 0.9432
826.70 0.943
826.80 0.9428
826.90 0.9427
827.00 0.9425
827.10 0.9423
827.20 0.9421
827.30 0.9419
827.40 0.9417
827.50 0.9415
827.60 0.9413
827.70 0.9411
827.80 0.9409
827.90 0.9407
828.00 0.9406
828.10 0.9404
828.20 0.9402
828.30 0.94
828.40 0.9398
828.50 0.9396
828.60 0.9394
828.70 0.9392
828.80 0.939
828.90 0.9388
829.00 0.9386
829.10 0.9385
829.20 0.9383
829.30 0.9381
829.40 0.9379
829.50 0.9377
829.60 0.9375
829.70 0.9373
829.80 0.9371
829.90 0.9369
830.00 0.9367
830.10 0.9366
830.20 0.9364
830.30 0.9362
830.40 0.936
830.50 0.9358
830.60 0.9356
830.70 0.9354
830.80 0.9352
830.90 0.935
831.00 0.9349
831.10 0.9347
831.20 0.9345
831.30 0.9343
831.40 0.9341
831.50 0.9339
831.60 0.9337
831.70 0.9335
831.80 0.9333
831.90 0.9332
832.00 0.933
832.10 0.9328
832.20 0.9326
832.30 0.9324
832.40 0.9322
832.50 0.932
832.60 0.9318
832.70 0.9316
832.80 0.9314
832.90 0.9312
833.00 0.931
833.10 0.9308
833.20 0.9306
833.30 0.9304
833.40 0.9302
833.50 0.93
833.60 0.9298
833.70 0.9296
833.80 0.9294
833.90 0.9292
834.00 0.9291
834.10 0.9289
834.20 0.9287
834.30 0.9285
834.40 0.9283
834.50 0.9281
834.60 0.9279
834.70 0.9277
834.80 0.9275
834.90 0.9273
835.00 0.9271
835.10 0.9269
835.20 0.9267
835.30 0.9265
835.40 0.9263
835.50 0.9261
835.60 0.9259
835.70 0.9257
835.80 0.9256
835.90 0.9254
836.00 0.9252
836.10 0.925
836.20 0.9248
836.30 0.9246
836.40 0.9244
836.50 0.9242
836.60 0.924
836.70 0.9238
836.80 0.9236
836.90 0.9234
837.00 0.9232
837.10 0.923
837.20 0.9228
837.30 0.9226
837.40 0.9224
837.50 0.9222
837.60 0.922
837.70 0.9218
837.80 0.9216
837.90 0.9214
838.00 0.9212
838.10 0.921
838.20 0.9208
838.30 0.9206
838.40 0.9204
838.50 0.9202
838.60 0.92
838.70 0.9198
838.80 0.9196
838.90 0.9194
839.00 0.9192
839.10 0.919
839.20 0.9188
839.30 0.9186
839.40 0.9184
839.50 0.9182
839.60 0.918
839.70 0.9178
839.80 0.9176
839.90 0.9174
840.00 0.9172
840.10 0.917
840.20 0.9168
840.30 0.9166
840.40 0.9164
840.50 0.9162
840.60 0.916
840.70 0.9158
840.80 0.9156
840.90 0.9154
841.00 0.9152
841.10 0.915
841.20 0.9148
841.30 0.9146
841.40 0.9144
841.50 0.9142
841.60 0.914
841.70 0.9138
841.80 0.9136
841.90 0.9134
842.00 0.9132
842.10 0.913
842.20 0.9128
842.30 0.9126
842.40 0.9124
842.50 0.9122
842.60 0.9119
842.70 0.9117
842.80 0.9115
842.90 0.9113
843.00 0.9111
843.10 0.9109
843.20 0.9107
843.30 0.9105
843.40 0.9103
843.50 0.9101
843.60 0.9099
843.70 0.9097
843.80 0.9095
843.90 0.9093
844.00 0.9091
844.10 0.9088
844.20 0.9086
844.30 0.9084
844.40 0.9082
844.50 0.908
844.60 0.9078
844.70 0.9076
844.80 0.9074
844.90 0.9072
845.00 0.907
845.10 0.9068
845.20 0.9066
845.30 0.9064
845.40 0.9062
845.50 0.906
845.60 0.9058
845.70 0.9056
845.80 0.9054
845.90 0.9051
846.00 0.9049
846.10 0.9047
846.20 0.9045
846.30 0.9043
846.40 0.9041
846.50 0.9039
846.60 0.9037
846.70 0.9035
846.80 0.9033
846.90 0.9031
847.00 0.9029
847.10 0.9027
847.20 0.9025
847.30 0.9023
847.40 0.9021
847.50 0.9019
847.60 0.9016
847.70 0.9014
847.80 0.9012
847.90 0.901
848.00 0.9008
848.10 0.9006
848.20 0.9004
848.30 0.9002
848.40 0.9
848.50 0.8998
848.60 0.8995
848.70 0.8993
848.80 0.8991
848.90 0.8989
849.00 0.8987
849.10 0.8985
849.20 0.8983
849.30 0.8981
849.40 0.8979
849.50 0.8977
849.60 0.8975
849.70 0.8973
849.80 0.897
849.90 0.8968
850.00 0.8966
850.10 0.8964
850.20 0.8962
850.30 0.896
850.40 0.8958
850.50 0.8956
850.60 0.8954
850.70 0.8952
850.80 0.895
850.90 0.8948
851.00 0.8946
851.10 0.8943
851.20 0.8941
851.30 0.8939
851.40 0.8937
851.50 0.8935
851.60 0.8933
851.70 0.8931
851.80 0.8929
851.90 0.8927
852.00 0.8925
852.10 0.8923
852.20 0.8921
852.30 0.8918
852.40 0.8916
852.50 0.8914
852.60 0.8912
852.70 0.891
852.80 0.8908
852.90 0.8905
853.00 0.8903
853.10 0.8901
853.20 0.8899
853.30 0.8897
853.40 0.8895
853.50 0.8893
853.60 0.889
853.70 0.8888
853.80 0.8886
853.90 0.8884
854.00 0.8882
854.10 0.888
854.20 0.8877
854.30 0.8875
854.40 0.8873
854.50 0.8871
854.60 0.8869
854.70 0.8867
854.80 0.8865
854.90 0.8862
855.00 0.886
855.10 0.8858
855.20 0.8856
855.30 0.8854
855.40 0.8852
855.50 0.885
855.60 0.8847
855.70 0.8845
855.80 0.8843
855.90 0.8841
856.00 0.8839
856.10 0.8837
856.20 0.8835
856.30 0.8833
856.40 0.883
856.50 0.8828
856.60 0.8826
856.70 0.8824
856.80 0.8822
856.90 0.882
857.00 0.8818
857.10 0.8815
857.20 0.8813
857.30 0.8811
857.40 0.8809
857.50 0.8807
857.60 0.8804
857.70 0.8802
857.80 0.88
857.90 0.8798
858.00 0.8796
858.10 0.8794
858.20 0.8791
858.30 0.8789
858.40 0.8787
858.50 0.8785
858.60 0.8783
858.70 0.878
858.80 0.8778
858.90 0.8776
859.00 0.8774
859.10 0.8772
859.20 0.8769
859.30 0.8767
859.40 0.8765
859.50 0.8763
859.60 0.8761
859.70 0.8759
859.80 0.8756
859.90 0.8754
860.00 0.8752
860.10 0.875
860.20 0.8748
860.30 0.8745
860.40 0.8743
860.50 0.8741
860.60 0.8739
860.70 0.8737
860.80 0.8735
860.90 0.8732
861.00 0.873
861.10 0.8728
861.20 0.8726
861.30 0.8724
861.40 0.8722
861.50 0.8719
861.60 0.8717
861.70 0.8715
861.80 0.8713
861.90 0.8711
862.00 0.8709
862.10 0.8706
862.20 0.8704
862.30 0.8702
862.40 0.87
862.50 0.8697
862.60 0.8695
862.70 0.8693
862.80 0.8691
862.90 0.8688
863.00 0.8686
863.10 0.8684
863.20 0.8682
863.30 0.8679
863.40 0.8677
863.50 0.8675
863.60 0.8673
863.70 0.867
863.80 0.8668
863.90 0.8666
864.00 0.8664
864.10 0.8661
864.20 0.8659
864.30 0.8657
864.40 0.8655
864.50 0.8652
864.60 0.865
864.70 0.8648
864.80 0.8646
864.90 0.8643
865.00 0.8641
865.10 0.8639
865.20 0.8637
865.30 0.8635
865.40 0.8632
865.50 0.863
865.60 0.8628
865.70 0.8626
865.80 0.8623
865.90 0.8621
866.00 0.8619
866.10 0.8617
866.20 0.8614
866.30 0.8612
866.40 0.861
866.50 0.8608
866.60 0.8606
866.70 0.8603
866.80 0.8601
866.90 0.8599
867.00 0.8597
867.10 0.8594
867.20 0.8592
867.30 0.859
867.40 0.8587
867.50 0.8585
867.60 0.8583
867.70 0.858
867.80 0.8578
867.90 0.8576
868.00 0.8574
868.10 0.8571
868.20 0.8569
868.30 0.8567
868.40 0.8564
868.50 0.8562
868.60 0.856
868.70 0.8557
868.80 0.8555
868.90 0.8553
869.00 0.855
869.10 0.8548
869.20 0.8546
869.30 0.8544
869.40 0.8541
869.50 0.8539
869.60 0.8537
869.70 0.8534
869.80 0.8532
869.90 0.853
870.00 0.8527
870.10 0.8525
870.20 0.8523
870.30 0.8521
870.40 0.8518
870.50 0.8516
870.60 0.8514
870.70 0.8511
870.80 0.8509
870.90 0.8507
871.00 0.8505
871.10 0.8502
871.20 0.85
871.30 0.8498
871.40 0.8495
871.50 0.8493
871.60 0.8491
871.70 0.8489
871.80 0.8486
871.90 0.8484
872.00 0.8482
872.10 0.8479
872.20 0.8477
872.30 0.8475
872.40 0.8472
872.50 0.847
872.60 0.8467
872.70 0.8465
872.80 0.8463
872.90 0.846
873.00 0.8458
873.10 0.8456
873.20 0.8453
873.30 0.8451
873.40 0.8448
873.50 0.8446
873.60 0.8444
873.70 0.8441
873.80 0.8439
873.90 0.8437
874.00 0.8434
874.10 0.8432
874.20 0.8429
874.30 0.8427
874.40 0.8425
874.50 0.8422
874.60 0.842
874.70 0.8418
874.80 0.8415
874.90 0.8413
875.00 0.841
875.10 0.8408
875.20 0.8406
875.30 0.8403
875.40 0.8401
875.50 0.8399
875.60 0.8396
875.70 0.8394
875.80 0.8392
875.90 0.8389
876.00 0.8387
876.10 0.8385
876.20 0.8382
876.30 0.838
876.40 0.8378
876.50 0.8375
876.60 0.8373
876.70 0.837
876.80 0.8368
876.90 0.8366
877.00 0.8363
877.10 0.8361
877.20 0.8358
877.30 0.8356
877.40 0.8354
877.50 0.8351
877.60 0.8349
877.70 0.8346
877.80 0.8344
877.90 0.8341
878.00 0.8339
878.10 0.8336
878.20 0.8334
878.30 0.8331
878.40 0.8329
878.50 0.8326
878.60 0.8324
878.70 0.8321
878.80 0.8319
878.90 0.8316
879.00 0.8314
879.10 0.8312
879.20 0.8309
879.30 0.8307
879.40 0.8304
879.50 0.8302
879.60 0.8299
879.70 0.8297
879.80 0.8294
879.90 0.8292
880.00 0.8289
880.10 0.8287
880.20 0.8285
880.30 0.8282
880.40 0.828
880.50 0.8277
880.60 0.8275
880.70 0.8272
880.80 0.827
880.90 0.8267
881.00 0.8265
881.10 0.8262
881.20 0.826
881.30 0.8258
881.40 0.8255
881.50 0.8253
881.60 0.825
881.70 0.8248
881.80 0.8245
881.90 0.8243
882.00 0.8241
882.10 0.8238
882.20 0.8235
882.30 0.8233
882.40 0.823
882.50 0.8228
882.60 0.8225
882.70 0.8222
882.80 0.822
882.90 0.8217
883.00 0.8215
883.10 0.8212
883.20 0.821
883.30 0.8207
883.40 0.8204
883.50 0.8202
883.60 0.8199
883.70 0.8197
883.80 0.8194
883.90 0.8191
884.00 0.8189
884.10 0.8186
884.20 0.8184
884.30 0.8181
884.40 0.8179
884.50 0.8176
884.60 0.8174
884.70 0.8171
884.80 0.8168
884.90 0.8166
885.00 0.8163
885.10 0.8161
885.20 0.8158
885.30 0.8156
885.40 0.8153
885.50 0.815
885.60 0.8148
885.70 0.8145
885.80 0.8143
885.90 0.814
886.00 0.8138
886.10 0.8135
886.20 0.8133
886.30 0.813
886.40 0.8127
886.50 0.8125
886.60 0.8122
886.70 0.812
886.80 0.8117
886.90 0.8115
887.00 0.8112
887.10 0.8109
887.20 0.8107
887.30 0.8104
887.40 0.8101
887.50 0.8099
887.60 0.8096
887.70 0.8093
887.80 0.809
887.90 0.8088
888.00 0.8085
888.10 0.8082
888.20 0.808
888.30 0.8077
888.40 0.8074
888.50 0.8072
888.60 0.8069
888.70 0.8066
888.80 0.8063
888.90 0.8061
889.00 0.8058
889.10 0.8055
889.20 0.8053
889.30 0.805
889.40 0.8047
889.50 0.8045
889.60 0.8042
889.70 0.8039
889.80 0.8036
889.90 0.8034
890.00 0.8031
890.10 0.8028
890.20 0.8026
890.30 0.8023
890.40 0.802
890.50 0.8018
890.60 0.8015
890.70 0.8012
890.80 0.801
890.90 0.8007
891.00 0.8004
891.10 0.8002
891.20 0.7999
891.30 0.7996
891.40 0.7994
891.50 0.7991
891.60 0.7988
891.70 0.7986
891.80 0.7983
891.90 0.798
892.00 0.7978
892.10 0.7975
892.20 0.7973
892.30 0.797
892.40 0.7968
892.50 0.7965
892.60 0.7963
892.70 0.7961
892.80 0.7958
892.90 0.7956
893.00 0.7953
893.10 0.7951
893.20 0.7948
893.30 0.7946
893.40 0.7944
893.50 0.7941
893.60 0.7939
893.70 0.7936
893.80 0.7934
893.90 0.7931
894.00 0.7929
894.10 0.7927
894.20 0.7924
894.30 0.7922
894.40 0.7919
894.50 0.7917
894.60 0.7915
894.70 0.7912
894.80 0.791
894.90 0.7907
895.00 0.7905
895.10 0.7903
895.20 0.79
895.30 0.7898
895.40 0.7895
895.50 0.7893
895.60 0.7891
895.70 0.7888
895.80 0.7886
895.90 0.7883
896.00 0.7881
896.10 0.7879
896.20 0.7876
896.30 0.7874
896.40 0.7871
896.50 0.7869
896.60 0.7867
896.70 0.7864
896.80 0.7862
896.90 0.7859
897.00 0.7857
897.10 0.7854
897.20 0.7851
897.30 0.7848
897.40 0.7845
897.50 0.7842
897.60 0.7839
897.70 0.7836
897.80 0.7833
897.90 0.783
898.00 0.7827
898.10 0.7824
898.20 0.7821
898.30 0.7818
898.40 0.7815
898.50 0.7812
898.60 0.7809
898.70 0.7806
898.80 0.7803
898.90 0.78
899.00 0.7797
899.10 0.7794
899.20 0.7791
899.30 0.7788
899.40 0.7785
899.50 0.7782
899.60 0.7779
899.70 0.7776
899.80 0.7773
899.90 0.777
900.00 0.7767
900.10 0.7764
900.20 0.7761
900.30 0.7758
900.40 0.7755
900.50 0.7752
900.60 0.7749
900.70 0.7746
900.80 0.7743
900.90 0.774
901.00 0.7737
901.10 0.7734
901.20 0.7731
901.30 0.7728
901.40 0.7725
901.50 0.7722
901.60 0.7719
901.70 0.7716
901.80 0.7713
901.90 0.771
902.00 0.7707
902.10 0.7703
902.20 0.7699
902.30 0.7695
902.40 0.7691
902.50 0.7687
902.60 0.7684
902.70 0.768
902.80 0.7676
902.90 0.7672
903.00 0.7668
903.10 0.7664
903.20 0.766
903.30 0.7656
903.40 0.7652
903.50 0.7648
903.60 0.7644
903.70 0.764
903.80 0.7636
903.90 0.7632
904.00 0.7628
904.10 0.7624
904.20 0.762
904.30 0.7616
904.40 0.7612
904.50 0.7608
904.60 0.7604
904.70 0.76
904.80 0.7596
904.90 0.7592
905.00 0.7588
905.10 0.7584
905.20 0.758
905.30 0.7576
905.40 0.7572
905.50 0.7568
905.60 0.7565
905.70 0.7561
905.80 0.7557
905.90 0.7553
906.00 0.7549
906.10 0.7545
906.20 0.7541
906.30 0.7537
906.40 0.7533
906.50 0.7529
906.60 0.7525
906.70 0.7521
906.80 0.7517
906.90 0.7513
907.00 0.751
907.10 0.7506
907.20 0.7503
907.30 0.7499
907.40 0.7496
907.50 0.7493
907.60 0.7489
907.70 0.7486
907.80 0.7483
907.90 0.7479
908.00 0.7476
908.10 0.7473
908.20 0.7469
908.30 0.7466
908.40 0.7463
908.50 0.7459
908.60 0.7456
908.70 0.7453
908.80 0.7449
908.90 0.7446
909.00 0.7443
909.10 0.7439
909.20 0.7436
909.30 0.7432
909.40 0.7429
909.50 0.7426
909.60 0.7422
909.70 0.7419
909.80 0.7416
909.90 0.7413
910.00 0.7409
910.10 0.7406
910.20 0.7403
910.30 0.7399
910.40 0.7396
910.50 0.7393
910.60 0.7389
910.70 0.7386
910.80 0.7383
910.90 0.7379
911.00 0.7376
911.10 0.7373
911.20 0.7369
911.30 0.7366
911.40 0.7363
911.50 0.7359
911.60 0.7356
911.70 0.7353
911.80 0.735
911.90 0.7346
912.00 0.7343
912.10 0.734
912.20 0.7337
912.30 0.7334
912.40 0.7331
912.50 0.7329
912.60 0.7326
912.70 0.7323
912.80 0.732
912.90 0.7317
913.00 0.7314
913.10 0.7311
913.20 0.7308
913.30 0.7306
913.40 0.7303
913.50 0.73
913.60 0.7297
913.70 0.7294
913.80 0.7291
913.90 0.7288
914.00 0.7286
914.10 0.7283
914.20 0.728
914.30 0.7277
914.40 0.7274
914.50 0.7271
914.60 0.7268
914.70 0.7266
914.80 0.7263
914.90 0.726
915.00 0.7257
915.10 0.7254
915.20 0.7251
915.30 0.7248
915.40 0.7246
915.50 0.7243
915.60 0.724
915.70 0.7237
915.80 0.7234
915.90 0.7231
916.00 0.7229
916.10 0.7226
916.20 0.7223
916.30 0.722
916.40 0.7217
916.50 0.7214
916.60 0.7211
916.70 0.7209
916.80 0.7206
916.90 0.7203
917.00 0.72
917.10 0.7197
917.20 0.7194
917.30 0.7191
917.40 0.7187
917.50 0.7184
917.60 0.7181
917.70 0.7178
917.80 0.7175
917.90 0.7171
918.00 0.7168
918.10 0.7165
918.20 0.7162
918.30 0.7159
918.40 0.7155
918.50 0.7152
918.60 0.7149
918.70 0.7146
918.80 0.7143
918.90 0.714
919.00 0.7136
919.10 0.7133
919.20 0.713
919.30 0.7127
919.40 0.7124
919.50 0.7121
919.60 0.7117
919.70 0.7114
919.80 0.7111
919.90 0.7108
920.00 0.7105
920.10 0.7101
920.20 0.7098
920.30 0.7095
920.40 0.7092
920.50 0.7089
920.60 0.7086
920.70 0.7083
920.80 0.7079
920.90 0.7076
921.00 0.7073
921.10 0.707
921.20 0.7067
921.30 0.7064
921.40 0.706
921.50 0.7057
921.60 0.7054
921.70 0.7051
921.80 0.7048
921.90 0.7045
922.00 0.7042
922.10 0.7038
922.20 0.7035
922.30 0.7032
922.40 0.7029
922.50 0.7025
922.60 0.7022
922.70 0.7019
922.80 0.7016
922.90 0.7012
923.00 0.7009
923.10 0.7006
923.20 0.7003
923.30 0.7
923.40 0.6996
923.50 0.6993
923.60 0.699
923.70 0.6987
923.80 0.6983
923.90 0.698
924.00 0.6977
924.10 0.6974
924.20 0.6971
924.30 0.6967
924.40 0.6964
924.50 0.6961
924.60 0.6958
924.70 0.6955
924.80 0.6951
924.90 0.6948
925.00 0.6945
925.10 0.6942
925.20 0.6939
925.30 0.6935
925.40 0.6932
925.50 0.6929
925.60 0.6926
925.70 0.6923
925.80 0.6919
925.90 0.6916
926.00 0.6913
926.10 0.691
926.20 0.6907
926.30 0.6903
926.40 0.69
926.50 0.6897
926.60 0.6894
926.70 0.6891
926.80 0.6888
926.90 0.6884
927.00 0.6881
927.10 0.6878
927.20 0.6875
927.30 0.6871
927.40 0.6868
927.50 0.6865
927.60 0.6862
927.70 0.6858
927.80 0.6855
927.90 0.6852
928.00 0.6849
928.10 0.6845
928.20 0.6842
928.30 0.6839
928.40 0.6836
928.50 0.6832
928.60 0.6829
928.70 0.6826
928.80 0.6823
928.90 0.6819
929.00 0.6816
929.10 0.6813
929.20 0.681
929.30 0.6806
929.40 0.6803
929.50 0.68
929.60 0.6797
929.70 0.6793
929.80 0.679
929.90 0.6787
930.00 0.6784
930.10 0.678
930.20 0.6777
930.30 0.6774
930.40 0.6771
930.50 0.6768
930.60 0.6764
930.70 0.6761
930.80 0.6758
930.90 0.6755
931.00 0.6751
931.10 0.6748
931.20 0.6745
931.30 0.6742
931.40 0.6739
931.50 0.6735
931.60 0.6732
931.70 0.6729
931.80 0.6726
931.90 0.6723
932.00 0.6719
932.10 0.6716
932.20 0.6713
932.30 0.671
932.40 0.6706
932.50 0.6703
932.60 0.67
932.70 0.6696
932.80 0.6693
932.90 0.669
933.00 0.6687
933.10 0.6683
933.20 0.668
933.30 0.6677
933.40 0.6674
933.50 0.667
933.60 0.6667
933.70 0.6664
933.80 0.6661
933.90 0.6657
934.00 0.6654
934.10 0.6651
934.20 0.6648
934.30 0.6644
934.40 0.6641
934.50 0.6638
934.60 0.6634
934.70 0.6631
934.80 0.6628
934.90 0.6625
935.00 0.6621
935.10 0.6618
935.20 0.6615
935.30 0.6611
935.40 0.6608
935.50 0.6605
935.60 0.6601
935.70 0.6598
935.80 0.6595
935.90 0.6592
936.00 0.6588
936.10 0.6585
936.20 0.6582
936.30 0.6579
936.40 0.6575
936.50 0.6572
936.60 0.6569
936.70 0.6565
936.80 0.6562
936.90 0.6559
937.00 0.6556
937.10 0.6552
937.20 0.6549
937.30 0.6546
937.40 0.6542
937.50 0.6539
937.60 0.6536
937.70 0.6532
937.80 0.6529
937.90 0.6526
938.00 0.6523
938.10 0.6519
938.20 0.6516
938.30 0.6513
938.40 0.6509
938.50 0.6506
938.60 0.6503
938.70 0.6499
938.80 0.6496
938.90 0.6493
939.00 0.6489
939.10 0.6486
939.20 0.6483
939.30 0.6479
939.40 0.6476
939.50 0.6473
939.60 0.6469
939.70 0.6466
939.80 0.6463
939.90 0.6459
940.00 0.6456
940.10 0.6453
940.20 0.6449
940.30 0.6446
940.40 0.6443
940.50 0.6439
940.60 0.6436
940.70 0.6433
940.80 0.6429
940.90 0.6426
941.00 0.6423
941.10 0.6419
941.20 0.6416
941.30 0.6413
941.40 0.6409
941.50 0.6406
941.60 0.6403
941.70 0.64
941.80 0.6396
941.90 0.6393
942.00 0.639
942.10 0.6386
942.20 0.6383
942.30 0.638
942.40 0.6376
942.50 0.6373
942.60 0.637
942.70 0.6366
942.80 0.6363
942.90 0.636
943.00 0.6356
943.10 0.6353
943.20 0.635
943.30 0.6346
943.40 0.6343
943.50 0.634
943.60 0.6337
943.70 0.6333
943.80 0.633
943.90 0.6327
944.00 0.6323
944.10 0.632
944.20 0.6317
944.30 0.6313
944.40 0.631
944.50 0.6307
944.60 0.6303
944.70 0.63
944.80 0.6297
944.90 0.6294
945.00 0.629
945.10 0.6287
945.20 0.6284
945.30 0.628
945.40 0.6277
945.50 0.6274
945.60 0.627
945.70 0.6267
945.80 0.6264
945.90 0.626
946.00 0.6257
946.10 0.6254
946.20 0.625
946.30 0.6247
946.40 0.6244
946.50 0.6241
946.60 0.6237
946.70 0.6234
946.80 0.6231
946.90 0.6227
947.00 0.6224
947.10 0.6221
947.20 0.6217
947.30 0.6214
947.40 0.6211
947.50 0.6207
947.60 0.6204
947.70 0.6201
947.80 0.6197
947.90 0.6194
948.00 0.6191
948.10 0.6187
948.20 0.6184
948.30 0.6181
948.40 0.6177
948.50 0.6174
948.60 0.6171
948.70 0.6167
948.80 0.6164
948.90 0.6161
949.00 0.6157
949.10 0.6154
949.20 0.6151
949.30 0.6147
949.40 0.6144
949.50 0.6141
949.60 0.6137
949.70 0.6134
949.80 0.6131
949.90 0.6128
950.00 0.6124
950.10 0.6121
950.20 0.6118
950.30 0.6114
950.40 0.6111
950.50 0.6108
950.60 0.6104
950.70 0.6101
950.80 0.6098
950.90 0.6095
951.00 0.6091
951.10 0.6088
951.20 0.6085
951.30 0.6081
951.40 0.6078
951.50 0.6075
951.60 0.6071
951.70 0.6068
951.80 0.6065
951.90 0.6061
952.00 0.6058
952.10 0.6055
952.20 0.6052
952.30 0.6048
952.40 0.6045
952.50 0.6042
952.60 0.6038
952.70 0.6035
952.80 0.6032
952.90 0.6029
953.00 0.6025
953.10 0.6022
953.20 0.6019
953.30 0.6015
953.40 0.6012
953.50 0.6009
953.60 0.6006
953.70 0.6002
953.80 0.5999
953.90 0.5996
954.00 0.5993
954.10 0.5989
954.20 0.5986
954.30 0.5983
954.40 0.5979
954.50 0.5976
954.60 0.5973
954.70 0.597
954.80 0.5966
954.90 0.5963
955.00 0.596
955.10 0.5956
955.20 0.5953
955.30 0.595
955.40 0.5947
955.50 0.5943
955.60 0.594
955.70 0.5937
955.80 0.5933
955.90 0.593
956.00 0.5927
956.10 0.5924
956.20 0.592
956.30 0.5917
956.40 0.5914
956.50 0.591
956.60 0.5907
956.70 0.5904
956.80 0.59
956.90 0.5897
957.00 0.5894
957.10 0.589
957.20 0.5887
957.30 0.5884
957.40 0.5881
957.50 0.5877
957.60 0.5874
957.70 0.5871
957.80 0.5868
957.90 0.5864
958.00 0.5861
958.10 0.5858
958.20 0.5855
958.30 0.5851
958.40 0.5848
958.50 0.5845
958.60 0.5842
958.70 0.5838
958.80 0.5835
958.90 0.5832
959.00 0.5829
959.10 0.5825
959.20 0.5822
959.30 0.5819
959.40 0.5816
959.50 0.5813
959.60 0.5809
959.70 0.5806
959.80 0.5803
959.90 0.58
960.00 0.5796
960.10 0.5793
960.20 0.579
960.30 0.5787
960.40 0.5784
960.50 0.578
960.60 0.5777
960.70 0.5774
960.80 0.5771
960.90 0.5767
961.00 0.5764
961.10 0.5761
961.20 0.5758
961.30 0.5755
961.40 0.5751
961.50 0.5748
961.60 0.5745
961.70 0.5742
961.80 0.5739
961.90 0.5735
962.00 0.5732
962.10 0.5729
962.20 0.5726
962.30 0.5723
962.40 0.5719
962.50 0.5716
962.60 0.5713
962.70 0.571
962.80 0.5707
962.90 0.5703
963.00 0.57
963.10 0.5697
963.20 0.5694
963.30 0.5691
963.40 0.5687
963.50 0.5684
963.60 0.5681
963.70 0.5678
963.80 0.5675
963.90 0.5672
964.00 0.5668
964.10 0.5665
964.20 0.5662
964.30 0.5659
964.40 0.5656
964.50 0.5653
964.60 0.5649
964.70 0.5646
964.80 0.5643
964.90 0.564
965.00 0.5637
965.10 0.5633
965.20 0.563
965.30 0.5627
965.40 0.5624
965.50 0.5621
965.60 0.5617
965.70 0.5614
965.80 0.5611
965.90 0.5608
966.00 0.5605
966.10 0.5602
966.20 0.5598
966.30 0.5595
966.40 0.5592
966.50 0.5589
966.60 0.5586
966.70 0.5583
966.80 0.5579
966.90 0.5576
967.00 0.5573
967.10 0.557
967.20 0.5567
967.30 0.5564
967.40 0.5561
967.50 0.5557
967.60 0.5554
967.70 0.5551
967.80 0.5548
967.90 0.5545
968.00 0.5542
968.10 0.5539
968.20 0.5536
968.30 0.5532
968.40 0.5529
968.50 0.5526
968.60 0.5523
968.70 0.552
968.80 0.5517
968.90 0.5514
969.00 0.5511
969.10 0.5508
969.20 0.5505
969.30 0.5501
969.40 0.5498
969.50 0.5495
969.60 0.5492
969.70 0.5489
969.80 0.5486
969.90 0.5483
970.00 0.548
970.10 0.5477
970.20 0.5474
970.30 0.5471
970.40 0.5468
970.50 0.5465
970.60 0.5461
970.70 0.5458
970.80 0.5455
970.90 0.5452
971.00 0.5449
971.10 0.5446
971.20 0.5443
971.30 0.544
971.40 0.5437
971.50 0.5434
971.60 0.5431
971.70 0.5428
971.80 0.5425
971.90 0.5422
972.00 0.5419
972.10 0.5416
972.20 0.5413
972.30 0.541
972.40 0.5406
972.50 0.5403
972.60 0.54
972.70 0.5397
972.80 0.5394
972.90 0.5391
973.00 0.5388
973.10 0.5385
973.20 0.5382
973.30 0.5379
973.40 0.5376
973.50 0.5373
973.60 0.537
973.70 0.5367
973.80 0.5364
973.90 0.5361
974.00 0.5358
974.10 0.5355
974.20 0.5352
974.30 0.5349
974.40 0.5346
974.50 0.5343
974.60 0.534
974.70 0.5337
974.80 0.5334
974.90 0.5331
975.00 0.5328
975.10 0.5325
975.20 0.5322
975.30 0.5319
975.40 0.5316
975.50 0.5313
975.60 0.531
975.70 0.5307
975.80 0.5304
975.90 0.5302
976.00 0.5299
976.10 0.5296
976.20 0.5293
976.30 0.529
976.40 0.5287
976.50 0.5284
976.60 0.5281
976.70 0.5278
976.80 0.5275
976.90 0.5272
977.00 0.5269
977.10 0.5266
977.20 0.5263
977.30 0.526
977.40 0.5257
977.50 0.5254
977.60 0.5251
977.70 0.5249
977.80 0.5246
977.90 0.5243
978.00 0.524
978.10 0.5237
978.20 0.5234
978.30 0.5231
978.40 0.5228
978.50 0.5225
978.60 0.5222
978.70 0.522
978.80 0.5217
978.90 0.5214
979.00 0.5211
979.10 0.5208
979.20 0.5205
979.30 0.5202
979.40 0.5199
979.50 0.5197
979.60 0.5194
979.70 0.5191
979.80 0.5188
979.90 0.5185
980.00 0.5182
980.10 0.5179
980.20 0.5176
980.30 0.5173
980.40 0.5171
980.50 0.5168
980.60 0.5165
980.70 0.5162
980.80 0.5159
980.90 0.5156
981.00 0.5153
981.10 0.5151
981.20 0.5148
981.30 0.5145
981.40 0.5142
981.50 0.5139
981.60 0.5136
981.70 0.5133
981.80 0.5131
981.90 0.5128
982.00 0.5125
982.10 0.5122
982.20 0.5119
982.30 0.5116
982.40 0.5114
982.50 0.5111
982.60 0.5108
982.70 0.5105
982.80 0.5102
982.90 0.5099
983.00 0.5097
983.10 0.5094
983.20 0.5091
983.30 0.5088
983.40 0.5085
983.50 0.5083
983.60 0.508
983.70 0.5077
983.80 0.5074
983.90 0.5071
984.00 0.5069
984.10 0.5066
984.20 0.5063
984.30 0.506
984.40 0.5057
984.50 0.5055
984.60 0.5052
984.70 0.5049
984.80 0.5046
984.90 0.5044
985.00 0.5041
985.10 0.5038
985.20 0.5036
985.30 0.5033
985.40 0.503
985.50 0.5028
985.60 0.5025
985.70 0.5022
985.80 0.502
985.90 0.5017
986.00 0.5014
986.10 0.5011
986.20 0.5009
986.30 0.5006
986.40 0.5003
986.50 0.5001
986.60 0.4998
986.70 0.4995
986.80 0.4993
986.90 0.499
987.00 0.4987
987.10 0.4985
987.20 0.4982
987.30 0.4979
987.40 0.4976
987.50 0.4974
987.60 0.4971
987.70 0.4968
987.80 0.4965
987.90 0.4963
988.00 0.496
988.10 0.4957
988.20 0.4955
988.30 0.4952
988.40 0.4949
988.50 0.4946
988.60 0.4944
988.70 0.4941
988.80 0.4938
988.90 0.4936
989.00 0.4933
989.10 0.493
989.20 0.4927
989.30 0.4925
989.40 0.4922
989.50 0.4919
989.60 0.4917
989.70 0.4914
989.80 0.4911
989.90 0.4909
990.00 0.4906
990.10 0.4903
990.20 0.4901
990.30 0.4898
990.40 0.4895
990.50 0.4892
990.60 0.489
990.70 0.4887
990.80 0.4884
990.90 0.4882
991.00 0.4879
991.10 0.4876
991.20 0.4874
991.30 0.4871
991.40 0.4868
991.50 0.4865
991.60 0.4863
991.70 0.486
991.80 0.4857
991.90 0.4855
992.00 0.4852
992.10 0.4849
992.20 0.4847
992.30 0.4844
992.40 0.4841
992.50 0.4839
992.60 0.4836
992.70 0.4833
992.80 0.4831
992.90 0.4828
993.00 0.4825
993.10 0.4823
993.20 0.482
993.30 0.4817
993.40 0.4815
993.50 0.4812
993.60 0.4809
993.70 0.4807
993.80 0.4804
993.90 0.4801
994.00 0.4799
994.10 0.4796
994.20 0.4793
994.30 0.4791
994.40 0.4788
994.50 0.4785
994.60 0.4783
994.70 0.478
994.80 0.4777
994.90 0.4774
995.00 0.4771
995.10 0.4768
995.20 0.4765
995.30 0.4762
995.40 0.4759
995.50 0.4756
995.60 0.4754
995.70 0.4751
995.80 0.4748
995.90 0.4746
996.00 0.4743
996.10 0.474
996.20 0.4738
996.30 0.4735
996.40 0.4733
996.50 0.473
996.60 0.4727
996.70 0.4725
996.80 0.4722
996.90 0.472
997.00 0.4717
997.10 0.4714
997.20 0.4712
997.30 0.4709
997.40 0.4707
997.50 0.4704
997.60 0.4701
997.70 0.4699
997.80 0.4696
997.90 0.4694
998.00 0.4691
998.10 0.4689
998.20 0.4686
998.30 0.4684
998.40 0.4681
998.50 0.4679
998.60 0.4676
998.70 0.4674
998.80 0.4671
998.90 0.4669
999.00 0.4666
999.10 0.4664
999.20 0.4661
999.30 0.4659
999.40 0.4656
999.50 0.4653
999.60 0.4651
999.70 0.4648
999.80 0.4646
999.90 0.4644
1000.00 0.4641
1000.10 0.4639
1000.20 0.4636
1000.30 0.4634
1000.40 0.4631
1000.50 0.4629
1000.60 0.4626
1000.70 0.4624
1000.80 0.4621
1000.90 0.4619
1001.00 0.4616
1001.10 0.4614
1001.20 0.4611
1001.30 0.4609
1001.40 0.4607
1001.50 0.4604
1001.60 0.4602
1001.70 0.4599
1001.80 0.4597
1001.90 0.4594
1002.00 0.4592
1002.10 0.4589
1002.20 0.4587
1002.30 0.4585
1002.40 0.4582
1002.50 0.458
1002.60 0.4578
1002.70 0.4575
1002.80 0.4573
1002.90 0.457
1003.00 0.4568
1003.10 0.4566
1003.20 0.4563
1003.30 0.4561
1003.40 0.4559
1003.50 0.4556
1003.60 0.4554
1003.70 0.4551
1003.80 0.4549
1003.90 0.4547
1004.00 0.4544
1004.10 0.4542
1004.20 0.454
1004.30 0.4537
1004.40 0.4535
1004.50 0.4532
1004.60 0.453
1004.70 0.4528
1004.80 0.4526
1004.90 0.4523
1005.00 0.452
1005.10 0.4518
1005.20 0.4516
1005.30 0.4513
1005.40 0.4511
1005.50 0.4509
1005.60 0.4507
1005.70 0.4504
1005.80 0.4502
1005.90 0.45
1006.00 0.4497
1006.10 0.4495
1006.20 0.4493
1006.30 0.4491
1006.40 0.4488
1006.50 0.4486
1006.60 0.4484
1006.70 0.4482
1006.80 0.4479
1006.90 0.4477
1007.00 0.4475
1007.10 0.4473
1007.20 0.447
1007.30 0.4468
1007.40 0.4466
1007.50 0.4464
1007.60 0.4461
1007.70 0.4459
1007.80 0.4457
1007.90 0.4455
1008.00 0.4453
1008.10 0.4451
1008.20 0.4448
1008.30 0.4446
1008.40 0.4444
1008.50 0.4442
1008.60 0.444
1008.70 0.4437
1008.80 0.4435
1008.90 0.4433
1009.00 0.4431
1009.10 0.4429
1009.20 0.4427
1009.30 0.4424
1009.40 0.4422
1009.50 0.442
1009.60 0.4418
1009.70 0.4416
1009.80 0.4414
1009.90 0.4412
1010.00 0.4409
1010.10 0.4407
1010.20 0.4405
1010.30 0.4403
1010.40 0.4401
1010.50 0.4399
1010.60 0.4397
1010.70 0.4395
1010.80 0.4392
1010.90 0.439
1011.00 0.4388
1011.10 0.4386
1011.20 0.4384
1011.30 0.4382
1011.40 0.438
1011.50 0.4378
1011.60 0.4376
1011.70 0.4374
1011.80 0.4371
1011.90 0.4369
1012.00 0.4367
1012.10 0.4365
1012.20 0.4363
1012.30 0.4361
1012.40 0.4359
1012.50 0.4357
1012.60 0.4355
1012.70 0.4353
1012.80 0.4351
1012.90 0.4349
1013.00 0.4347
1013.10 0.4345
1013.20 0.4343
1013.30 0.4341
1013.40 0.4339
1013.50 0.4337
1013.60 0.4335
1013.70 0.4333
1013.80 0.4331
1013.90 0.4329
1014.00 0.4327
1014.10 0.4325
1014.20 0.4323
1014.30 0.4321
1014.40 0.4319
1014.50 0.4317
1014.60 0.4315
1014.70 0.4313
1014.80 0.4312
1014.90 0.431
1015.00 0.4308
1015.10 0.4306
1015.20 0.4304
1015.30 0.4302
1015.40 0.43
1015.50 0.4299
1015.60 0.4297
1015.70 0.4295
1015.80 0.4293
1015.90 0.4291
1016.00 0.4289
1016.10 0.4287
1016.20 0.4286
1016.30 0.4284
1016.40 0.4282
1016.50 0.428
1016.60 0.4278
1016.70 0.4276
1016.80 0.4274
1016.90 0.4273
1017.00 0.4271
1017.10 0.4269
1017.20 0.4267
1017.30 0.4265
1017.40 0.4263
1017.50 0.4261
1017.60 0.4259
1017.70 0.4258
1017.80 0.4256
1017.90 0.4254
1018.00 0.4252
1018.10 0.425
1018.20 0.4248
1018.30 0.4246
1018.40 0.4244
1018.50 0.4243
1018.60 0.4241
1018.70 0.4239
1018.80 0.4237
1018.90 0.4235
1019.00 0.4233
1019.10 0.4232
1019.20 0.423
1019.30 0.4228
1019.40 0.4226
1019.50 0.4224
1019.60 0.4222
1019.70 0.4221
1019.80 0.4219
1019.90 0.4217
1020.00 0.4215
1020.10 0.4213
1020.20 0.4211
1020.30 0.421
1020.40 0.4208
1020.50 0.4206
1020.60 0.4204
1020.70 0.4202
1020.80 0.42
1020.90 0.4199
1021.00 0.4197
1021.10 0.4195
1021.20 0.4193
1021.30 0.4191
1021.40 0.419
1021.50 0.4188
1021.60 0.4186
1021.70 0.4184
1021.80 0.4182
1021.90 0.4181
1022.00 0.4179
1022.10 0.4177
1022.20 0.4175
1022.30 0.4174
1022.40 0.4172
1022.50 0.417
1022.60 0.4168
1022.70 0.4167
1022.80 0.4165
1022.90 0.4163
1023.00 0.4161
1023.10 0.416
1023.20 0.4158
1023.30 0.4156
1023.40 0.4154
1023.50 0.4152
1023.60 0.4151
1023.70 0.4149
1023.80 0.4147
1023.90 0.4145
1024.00 0.4144
1024.10 0.4142
1024.20 0.414
1024.30 0.4138
1024.40 0.4137
1024.50 0.4135
1024.60 0.4133
1024.70 0.4131
1024.80 0.413
1024.90 0.4128
1025.00 0.4126
1025.10 0.4125
1025.20 0.4123
1025.30 0.4121
1025.40 0.4119
1025.50 0.4118
1025.60 0.4116
1025.70 0.4114
1025.80 0.4112
1025.90 0.4111
1026.00 0.4109
1026.10 0.4107
1026.20 0.4106
1026.30 0.4104
1026.40 0.4102
1026.50 0.41
1026.60 0.4099
1026.70 0.4097
1026.80 0.4095
1026.90 0.4093
1027.00 0.4092
1027.10 0.409
1027.20 0.4089
1027.30 0.4087
1027.40 0.4085
1027.50 0.4084
1027.60 0.4082
1027.70 0.408
1027.80 0.4079
1027.90 0.4077
1028.00 0.4076
1028.10 0.4074
1028.20 0.4072
1028.30 0.4071
1028.40 0.4069
1028.50 0.4067
1028.60 0.4066
1028.70 0.4064
1028.80 0.4063
1028.90 0.4061
1029.00 0.4059
1029.10 0.4058
1029.20 0.4056
1029.30 0.4054
1029.40 0.4053
1029.50 0.4051
1029.60 0.405
1029.70 0.4048
1029.80 0.4046
1029.90 0.4045
1030.00 0.4043
1030.10 0.4042
1030.20 0.404
1030.30 0.4038
1030.40 0.4037
1030.50 0.4035
1030.60 0.4034
1030.70 0.4032
1030.80 0.403
1030.90 0.4029
1031.00 0.4027
1031.10 0.4026
1031.20 0.4024
1031.30 0.4022
1031.40 0.4021
1031.50 0.4019
1031.60 0.4017
1031.70 0.4016
1031.80 0.4014
1031.90 0.4013
1032.00 0.4011
1032.10 0.401
1032.20 0.4008
1032.30 0.4007
1032.40 0.4005
1032.50 0.4004
1032.60 0.4002
1032.70 0.4
1032.80 0.3999
1032.90 0.3997
1033.00 0.3996
1033.10 0.3994
1033.20 0.3993
1033.30 0.3991
1033.40 0.399
1033.50 0.3988
1033.60 0.3987
1033.70 0.3985
1033.80 0.3984
1033.90 0.3982
1034.00 0.3981
1034.10 0.3979
1034.20 0.3978
1034.30 0.3976
1034.40 0.3975
1034.50 0.3973
1034.60 0.3972
1034.70 0.397
1034.80 0.3969
1034.90 0.3967
1035.00 0.3966
1035.10 0.3964
1035.20 0.3963
1035.30 0.3961
1035.40 0.396
1035.50 0.3958
1035.60 0.3957
1035.70 0.3955
1035.80 0.3954
1035.90 0.3952
1036.00 0.3951
1036.10 0.3949
1036.20 0.3948
1036.30 0.3946
1036.40 0.3945
1036.50 0.3943
1036.60 0.3942
1036.70 0.394
1036.80 0.3939
1036.90 0.3937
1037.00 0.3936
1037.10 0.3934
1037.20 0.3933
1037.30 0.3932
1037.40 0.393
1037.50 0.3929
1037.60 0.3927
1037.70 0.3926
1037.80 0.3925
1037.90 0.3923
1038.00 0.3922
1038.10 0.392
1038.20 0.3919
1038.30 0.3918
1038.40 0.3916
1038.50 0.3915
1038.60 0.3914
1038.70 0.3912
1038.80 0.3911
1038.90 0.3909
1039.00 0.3908
1039.10 0.3907
1039.20 0.3905
1039.30 0.3904
1039.40 0.3902
1039.50 0.3901
1039.60 0.39
1039.70 0.3898
1039.80 0.3897
1039.90 0.3895
1040.00 0.3894
1040.10 0.3893
1040.20 0.3891
1040.30 0.389
1040.40 0.3889
1040.50 0.3887
1040.60 0.3886
1040.70 0.3884
1040.80 0.3883
1040.90 0.3882
1041.00 0.388
1041.10 0.3879
1041.20 0.3877
1041.30 0.3876
1041.40 0.3875
1041.50 0.3873
1041.60 0.3872
1041.70 0.3871
1041.80 0.3869
1041.90 0.3868
1042.00 0.3866
1042.10 0.3865
1042.20 0.3864
1042.30 0.3863
1042.40 0.3861
1042.50 0.386
1042.60 0.3859
1042.70 0.3857
1042.80 0.3856
1042.90 0.3855
1043.00 0.3854
1043.10 0.3852
1043.20 0.3851
1043.30 0.385
1043.40 0.3848
1043.50 0.3847
1043.60 0.3846
1043.70 0.3845
1043.80 0.3843
1043.90 0.3842
1044.00 0.3841
1044.10 0.3839
1044.20 0.3838
1044.30 0.3837
1044.40 0.3836
1044.50 0.3834
1044.60 0.3833
1044.70 0.3832
1044.80 0.383
1044.90 0.3829
1045.00 0.3828
1045.10 0.3827
1045.20 0.3825
1045.30 0.3824
1045.40 0.3823
1045.50 0.3822
1045.60 0.382
1045.70 0.3819
1045.80 0.3818
1045.90 0.3816
1046.00 0.3815
1046.10 0.3814
1046.20 0.3813
1046.30 0.3811
1046.40 0.381
1046.50 0.3809
1046.60 0.3808
1046.70 0.3806
1046.80 0.3805
1046.90 0.3804
1047.00 0.3802
1047.10 0.3801
1047.20 0.38
1047.30 0.3799
1047.40 0.3798
1047.50 0.3797
1047.60 0.3795
1047.70 0.3794
1047.80 0.3793
1047.90 0.3792
1048.00 0.3791
1048.10 0.3789
1048.20 0.3788
1048.30 0.3787
1048.40 0.3786
1048.50 0.3785
1048.60 0.3784
1048.70 0.3782
1048.80 0.3781
1048.90 0.378
1049.00 0.3779
1049.10 0.3778
1049.20 0.3777
1049.30 0.3775
1049.40 0.3774
1049.50 0.3773
1049.60 0.3772
1049.70 0.3771
1049.80 0.3769
1049.90 0.3768
1050.00 0.3767
1050.10 0.3766
1050.20 0.3765
1050.30 0.3764
1050.40 0.3762
1050.50 0.3761
1050.60 0.376
1050.70 0.3759
1050.80 0.3758
1050.90 0.3757
1051.00 0.3755
1051.10 0.3754
1051.20 0.3753
1051.30 0.3752
1051.40 0.3751
1051.50 0.375
1051.60 0.3748
1051.70 0.3747
1051.80 0.3746
1051.90 0.3745
1052.00 0.3744
1052.10 0.3743
1052.20 0.3742
1052.30 0.3741
1052.40 0.3739
1052.50 0.3738
1052.60 0.3737
1052.70 0.3736
1052.80 0.3735
1052.90 0.3734
1053.00 0.3733
1053.10 0.3732
1053.20 0.3731
1053.30 0.373
1053.40 0.3729
1053.50 0.3728
1053.60 0.3726
1053.70 0.3725
1053.80 0.3724
1053.90 0.3723
1054.00 0.3722
1054.10 0.3721
1054.20 0.372
1054.30 0.3719
1054.40 0.3718
1054.50 0.3717
1054.60 0.3716
1054.70 0.3715
1054.80 0.3714
1054.90 0.3712
1055.00 0.3711
1055.10 0.371
1055.20 0.3709
1055.30 0.3708
1055.40 0.3707
1055.50 0.3706
1055.60 0.3705
1055.70 0.3704
1055.80 0.3703
1055.90 0.3702
1056.00 0.3701
1056.10 0.37
1056.20 0.3698
1056.30 0.3697
1056.40 0.3696
1056.50 0.3695
1056.60 0.3694
1056.70 0.3693
1056.80 0.3692
1056.90 0.3691
1057.00 0.369
1057.10 0.3689
1057.20 0.3688
1057.30 0.3687
1057.40 0.3686
1057.50 0.3685
1057.60 0.3684
1057.70 0.3683
1057.80 0.3682
1057.90 0.3681
1058.00 0.368
1058.10 0.3679
1058.20 0.3678
1058.30 0.3677
1058.40 0.3676
1058.50 0.3675
1058.60 0.3674
1058.70 0.3673
1058.80 0.3672
1058.90 0.3671
1059.00 0.367
1059.10 0.3669
1059.20 0.3668
1059.30 0.3667
1059.40 0.3666
1059.50 0.3665
1059.60 0.3664
1059.70 0.3663
1059.80 0.3662
1059.90 0.3662
1060.00 0.3661
1060.10 0.366
1060.20 0.3659
1060.30 0.3658
1060.40 0.3657
1060.50 0.3656
1060.60 0.3655
1060.70 0.3654
1060.80 0.3653
1060.90 0.3652
1061.00 0.3651
1061.10 0.365
1061.20 0.3649
1061.30 0.3648
1061.40 0.3647
1061.50 0.3646
1061.60 0.3645
1061.70 0.3644
1061.80 0.3643
1061.90 0.3642
1062.00 0.3641
1062.10 0.364
1062.20 0.3639
1062.30 0.3638
1062.40 0.3638
1062.50 0.3637
1062.60 0.3636
1062.70 0.3635
1062.80 0.3634
1062.90 0.3633
1063.00 0.3632
1063.10 0.3631
1063.20 0.363
1063.30 0.3629
1063.40 0.3629
1063.50 0.3628
1063.60 0.3627
1063.70 0.3626
1063.80 0.3625
1063.90 0.3624
1064.00 0.3623
1064.10 0.3622
1064.20 0.3621
1064.30 0.3621
1064.40 0.362
1064.50 0.3619
1064.60 0.3618
1064.70 0.3617
1064.80 0.3616
1064.90 0.3615
1065.00 0.3614
1065.10 0.3613
1065.20 0.3613
1065.30 0.3612
1065.40 0.3611
1065.50 0.361
1065.60 0.3609
1065.70 0.3608
1065.80 0.3607
1065.90 0.3606
1066.00 0.3605
1066.10 0.3605
1066.20 0.3604
1066.30 0.3603
1066.40 0.3602
1066.50 0.3601
1066.60 0.36
1066.70 0.3599
1066.80 0.3598
1066.90 0.3598
1067.00 0.3597
1067.10 0.3596
1067.20 0.3595
1067.30 0.3594
1067.40 0.3593
1067.50 0.3593
1067.60 0.3592
1067.70 0.3591
1067.80 0.359
1067.90 0.3589
1068.00 0.3589
1068.10 0.3588
1068.20 0.3587
1068.30 0.3586
1068.40 0.3585
1068.50 0.3585
1068.60 0.3584
1068.70 0.3583
1068.80 0.3582
1068.90 0.3581
1069.00 0.3581
1069.10 0.358
1069.20 0.3579
1069.30 0.3578
1069.40 0.3578
1069.50 0.3577
1069.60 0.3576
1069.70 0.3575
1069.80 0.3574
1069.90 0.3574
1070.00 0.3573
1070.10 0.3572
1070.20 0.3571
1070.30 0.357
1070.40 0.357
1070.50 0.3569
1070.60 0.3568
1070.70 0.3567
1070.80 0.3566
1070.90 0.3566
1071.00 0.3565
1071.10 0.3564
1071.20 0.3563
1071.30 0.3562
1071.40 0.3562
1071.50 0.3561
1071.60 0.356
1071.70 0.3559
1071.80 0.3559
1071.90 0.3558
1072.00 0.3557
1072.10 0.3556
1072.20 0.3555
1072.30 0.3555
1072.40 0.3554
1072.50 0.3553
1072.60 0.3552
1072.70 0.3552
1072.80 0.3551
1072.90 0.355
1073.00 0.3549
1073.10 0.3549
1073.20 0.3548
1073.30 0.3547
1073.40 0.3546
1073.50 0.3546
1073.60 0.3545
1073.70 0.3544
1073.80 0.3543
1073.90 0.3543
1074.00 0.3542
1074.10 0.3541
1074.20 0.354
1074.30 0.354
1074.40 0.3539
1074.50 0.3538
1074.60 0.3537
1074.70 0.3537
1074.80 0.3536
1074.90 0.3535
1075.00 0.3535
1075.10 0.3534
1075.20 0.3533
1075.30 0.3532
1075.40 0.3532
1075.50 0.3531
1075.60 0.353
1075.70 0.3529
1075.80 0.3529
1075.90 0.3528
1076.00 0.3527
1076.10 0.3527
1076.20 0.3526
1076.30 0.3525
1076.40 0.3524
1076.50 0.3524
1076.60 0.3523
1076.70 0.3522
1076.80 0.3521
1076.90 0.3521
1077.00 0.352
1077.10 0.3519
1077.20 0.3518
1077.30 0.3518
1077.40 0.3517
1077.50 0.3516
1077.60 0.3516
1077.70 0.3515
1077.80 0.3514
1077.90 0.3513
1078.00 0.3513
1078.10 0.3512
1078.20 0.3511
1078.30 0.3511
1078.40 0.351
1078.50 0.3509
1078.60 0.3509
1078.70 0.3508
1078.80 0.3507
1078.90 0.3507
1079.00 0.3506
1079.10 0.3505
1079.20 0.3505
1079.30 0.3504
1079.40 0.3503
1079.50 0.3502
1079.60 0.3502
1079.70 0.3501
1079.80 0.35
1079.90 0.35
1080.00 0.3499
1080.10 0.3499
1080.20 0.3498
1080.30 0.3497
1080.40 0.3497
1080.50 0.3496
1080.60 0.3495
1080.70 0.3495
1080.80 0.3494
1080.90 0.3493
1081.00 0.3493
1081.10 0.3492
1081.20 0.3491
1081.30 0.3491
1081.40 0.349
1081.50 0.3489
1081.60 0.3489
1081.70 0.3488
1081.80 0.3487
1081.90 0.3487
1082.00 0.3486
1082.10 0.3485
1082.20 0.3485
1082.30 0.3484
1082.40 0.3483
1082.50 0.3483
1082.60 0.3482
1082.70 0.3481
1082.80 0.3481
1082.90 0.348
1083.00 0.3479
1083.10 0.3479
1083.20 0.3478
1083.30 0.3477
1083.40 0.3477
1083.50 0.3476
1083.60 0.3476
1083.70 0.3475
1083.80 0.3474
1083.90 0.3474
1084.00 0.3473
1084.10 0.3472
1084.20 0.3472
1084.30 0.3471
1084.40 0.347
1084.50 0.347
1084.60 0.3469
1084.70 0.3469
1084.80 0.3468
1084.90 0.3467
1085.00 0.3467
1085.10 0.3466
1085.20 0.3465
1085.30 0.3465
1085.40 0.3464
1085.50 0.3464
1085.60 0.3463
1085.70 0.3462
1085.80 0.3462
1085.90 0.3461
1086.00 0.346
1086.10 0.346
1086.20 0.3459
1086.30 0.3459
1086.40 0.3458
1086.50 0.3457
1086.60 0.3457
1086.70 0.3456
1086.80 0.3455
1086.90 0.3455
1087.00 0.3454
1087.10 0.3454
1087.20 0.3453
1087.30 0.3453
1087.40 0.3452
1087.50 0.3451
1087.60 0.3451
1087.70 0.345
1087.80 0.3449
1087.90 0.3449
1088.00 0.3448
1088.10 0.3448
1088.20 0.3447
1088.30 0.3446
1088.40 0.3446
1088.50 0.3445
1088.60 0.3445
1088.70 0.3444
1088.80 0.3444
1088.90 0.3443
1089.00 0.3442
1089.10 0.3442
1089.20 0.3441
1089.30 0.3441
1089.40 0.344
1089.50 0.3439
1089.60 0.3439
1089.70 0.3438
1089.80 0.3438
1089.90 0.3437
1090.00 0.3437
1090.10 0.3436
1090.20 0.3435
1090.30 0.3435
1090.40 0.3434
1090.50 0.3434
1090.60 0.3433
1090.70 0.3432
1090.80 0.3432
1090.90 0.3431
1091.00 0.3431
1091.10 0.343
1091.20 0.343
1091.30 0.3429
1091.40 0.3428
1091.50 0.3428
1091.60 0.3427
1091.70 0.3427
1091.80 0.3426
1091.90 0.3425
1092.00 0.3425
1092.10 0.3424
1092.20 0.3424
1092.30 0.3423
1092.40 0.3423
1092.50 0.3422
1092.60 0.3421
1092.70 0.3421
1092.80 0.3421
1092.90 0.342
1093.00 0.342
1093.10 0.3419
1093.20 0.3419
1093.30 0.3418
1093.40 0.3418
1093.50 0.3417
1093.60 0.3416
1093.70 0.3416
1093.80 0.3415
1093.90 0.3415
1094.00 0.3414
1094.10 0.3414
1094.20 0.3413
1094.30 0.3413
1094.40 0.3412
1094.50 0.3412
1094.60 0.3411
1094.70 0.341
1094.80 0.341
1094.90 0.3409
1095.00 0.3409
1095.10 0.3408
1095.20 0.3408
1095.30 0.3407
1095.40 0.3407
1095.50 0.3406
1095.60 0.3406
1095.70 0.3405
1095.80 0.3405
1095.90 0.3404
1096.00 0.3403
1096.10 0.3403
1096.20 0.3402
1096.30 0.3402
1096.40 0.3401
1096.50 0.3401
1096.60 0.34
1096.70 0.34
1096.80 0.3399
1096.90 0.3399
1097.00 0.3398
1097.10 0.3397
1097.20 0.3397
1097.30 0.3396
1097.40 0.3396
1097.50 0.3395
1097.60 0.3395
1097.70 0.3394
1097.80 0.3394
1097.90 0.3393
1098.00 0.3393
1098.10 0.3392
1098.20 0.3392
1098.30 0.3391
1098.40 0.339
1098.50 0.339
1098.60 0.3389
1098.70 0.3389
1098.80 0.3388
1098.90 0.3388
1099.00 0.3387
1099.10 0.3387
1099.20 0.3386
1099.30 0.3386
1099.40 0.3385
1099.50 0.3385
1099.60 0.3384
1099.70 0.3384
1099.80 0.3383
1099.90 0.3383
1100.00 0.3382
1100.10 0.3382
1100.20 0.3381
1100.30 0.338
1100.40 0.338
1100.50 0.3379
1100.60 0.3379
1100.70 0.3378
1100.80 0.3378
1100.90 0.3377
1101.00 0.3377
1101.10 0.3376
1101.20 0.3376
1101.30 0.3375
1101.40 0.3375
1101.50 0.3374
1101.60 0.3374
1101.70 0.3373
1101.80 0.3373
1101.90 0.3372
1102.00 0.3372
1102.10 0.3371
1102.20 0.3371
1102.30 0.337
1102.40 0.337
1102.50 0.3369
1102.60 0.3369
1102.70 0.3368
1102.80 0.3368
1102.90 0.3367
1103.00 0.3367
1103.10 0.3366
1103.20 0.3366
1103.30 0.3365
1103.40 0.3365
1103.50 0.3364
1103.60 0.3364
1103.70 0.3363
1103.80 0.3363
1103.90 0.3362
1104.00 0.3362
1104.10 0.3361
1104.20 0.3361
1104.30 0.336
1104.40 0.336
1104.50 0.3359
1104.60 0.3359
1104.70 0.3358
1104.80 0.3358
1104.90 0.3357
1105.00 0.3357
1105.10 0.3356
1105.20 0.3356
1105.30 0.3355
1105.40 0.3355
1105.50 0.3354
1105.60 0.3354
1105.70 0.3353
1105.80 0.3353
1105.90 0.3352
1106.00 0.3352
1106.10 0.3351
1106.20 0.3351
1106.30 0.335
1106.40 0.335
1106.50 0.3349
1106.60 0.3349
1106.70 0.3348
1106.80 0.3348
1106.90 0.3347
1107.00 0.3347
1107.10 0.3346
1107.20 0.3346
1107.30 0.3345
1107.40 0.3345
1107.50 0.3344
1107.60 0.3344
1107.70 0.3343
1107.80 0.3343
1107.90 0.3342
1108.00 0.3342
1108.10 0.3341
1108.20 0.3341
1108.30 0.334
1108.40 0.334
1108.50 0.3339
1108.60 0.3339
1108.70 0.3339
1108.80 0.3338
1108.90 0.3338
1109.00 0.3337
1109.10 0.3337
1109.20 0.3336
1109.30 0.3336
1109.40 0.3335
1109.50 0.3335
1109.60 0.3334
1109.70 0.3334
1109.80 0.3333
1109.90 0.3333
1110.00 0.3332
1110.10 0.3332
1110.20 0.3331
1110.30 0.3331
1110.40 0.333
1110.50 0.333
1110.60 0.3329
1110.70 0.3329
1110.80 0.3328
1110.90 0.3328
1111.00 0.3327
1111.10 0.3327
1111.20 0.3326
1111.30 0.3326
1111.40 0.3325
1111.50 0.3325
1111.60 0.3325
1111.70 0.3324
1111.80 0.3324
1111.90 0.3323
1112.00 0.3323
1112.10 0.3322
1112.20 0.3322
1112.30 0.3321
1112.40 0.3321
1112.50 0.332
1112.60 0.332
1112.70 0.3319
1112.80 0.3319
1112.90 0.3318
1113.00 0.3318
1113.10 0.3317
1113.20 0.3317
1113.30 0.3316
1113.40 0.3316
1113.50 0.3315
1113.60 0.3315
1113.70 0.3315
1113.80 0.3314
1113.90 0.3314
1114.00 0.3313
1114.10 0.3313
1114.20 0.3312
1114.30 0.3312
1114.40 0.3311
1114.50 0.3311
1114.60 0.331
1114.70 0.331
1114.80 0.3309
1114.90 0.3309
1115.00 0.3308
1115.10 0.3308
1115.20 0.3307
1115.30 0.3307
1115.40 0.3307
1115.50 0.3306
1115.60 0.3306
1115.70 0.3305
1115.80 0.3305
1115.90 0.3304
1116.00 0.3304
1116.10 0.3303
1116.20 0.3303
1116.30 0.3302
1116.40 0.3302
1116.50 0.3301
1116.60 0.3301
1116.70 0.33
1116.80 0.33
1116.90 0.33
1117.00 0.3299
1117.10 0.3299
1117.20 0.3298
1117.30 0.3298
1117.40 0.3297
1117.50 0.3297
1117.60 0.3296
1117.70 0.3296
1117.80 0.3295
1117.90 0.3295
1118.00 0.3295
1118.10 0.3294
1118.20 0.3294
1118.30 0.3293
1118.40 0.3293
1118.50 0.3292
1118.60 0.3292
1118.70 0.3291
1118.80 0.3291
1118.90 0.3291
1119.00 0.329
1119.10 0.329
1119.20 0.3289
1119.30 0.3289
1119.40 0.3288
1119.50 0.3288
1119.60 0.3287
1119.70 0.3287
1119.80 0.3287
1119.90 0.3286
1120.00 0.3286
1120.10 0.3285
1120.20 0.3285
1120.30 0.3284
1120.40 0.3284
1120.50 0.3283
1120.60 0.3283
1120.70 0.3283
1120.80 0.3282
1120.90 0.3282
1121.00 0.3281
1121.10 0.3281
1121.20 0.328
1121.30 0.328
1121.40 0.3279
1121.50 0.3279
1121.60 0.3279
1121.70 0.3278
1121.80 0.3278
1121.90 0.3277
1122.00 0.3277
1122.10 0.3276
1122.20 0.3276
1122.30 0.3275
1122.40 0.3275
1122.50 0.3274
1122.60 0.3274
1122.70 0.3274
1122.80 0.3273
1122.90 0.3273
1123.00 0.3272
1123.10 0.3272
1123.20 0.3271
1123.30 0.3271
1123.40 0.327
1123.50 0.327
1123.60 0.3269
1123.70 0.3269
1123.80 0.3269
1123.90 0.3268
1124.00 0.3268
1124.10 0.3267
1124.20 0.3267
1124.30 0.3266
1124.40 0.3266
1124.50 0.3265
1124.60 0.3265
1124.70 0.3264
1124.80 0.3264
1124.90 0.3264
1125.00 0.3263
1125.10 0.3263
1125.20 0.3262
1125.30 0.3262
1125.40 0.3261
1125.50 0.3261
1125.60 0.326
1125.70 0.326
1125.80 0.3259
1125.90 0.3259
1126.00 0.3259
1126.10 0.3258
1126.20 0.3258
1126.30 0.3257
1126.40 0.3257
1126.50 0.3256
1126.60 0.3256
1126.70 0.3255
1126.80 0.3255
1126.90 0.3254
1127.00 0.3254
1127.10 0.3254
1127.20 0.3253
1127.30 0.3253
1127.40 0.3252
1127.50 0.3252
1127.60 0.3251
1127.70 0.3251
1127.80 0.325
1127.90 0.325
1128.00 0.325
1128.10 0.3249
1128.20 0.3249
1128.30 0.3248
1128.40 0.3248
1128.50 0.3247
1128.60 0.3247
1128.70 0.3247
1128.80 0.3246
1128.90 0.3246
1129.00 0.3245
1129.10 0.3245
1129.20 0.3244
1129.30 0.3244
1129.40 0.3243
1129.50 0.3243
1129.60 0.3243
1129.70 0.3242
1129.80 0.3242
1129.90 0.3241
1130.00 0.3241
1130.10 0.324
1130.20 0.324
1130.30 0.3239
1130.40 0.3239
1130.50 0.3239
1130.60 0.3238
1130.70 0.3238
1130.80 0.3237
1130.90 0.3237
1131.00 0.3236
1131.10 0.3236
1131.20 0.3236
1131.30 0.3235
1131.40 0.3235
1131.50 0.3234
1131.60 0.3234
1131.70 0.3233
1131.80 0.3233
1131.90 0.3232
1132.00 0.3232
1132.10 0.3232
1132.20 0.3231
1132.30 0.3231
1132.40 0.323
1132.50 0.323
1132.60 0.3229
1132.70 0.3229
1132.80 0.3228
1132.90 0.3228
1133.00 0.3227
1133.10 0.3227
1133.20 0.3226
1133.30 0.3226
1133.40 0.3225
1133.50 0.3225
1133.60 0.3225
1133.70 0.3224
1133.80 0.3224
1133.90 0.3223
1134.00 0.3223
1134.10 0.3222
1134.20 0.3222
1134.30 0.3221
1134.40 0.3221
1134.50 0.322
1134.60 0.322
1134.70 0.3219
1134.80 0.3219
1134.90 0.3218
1135.00 0.3218
1135.10 0.3218
1135.20 0.3217
1135.30 0.3217
1135.40 0.3216
1135.50 0.3216
1135.60 0.3215
1135.70 0.3215
1135.80 0.3214
1135.90 0.3214
1136.00 0.3213
1136.10 0.3213
1136.20 0.3212
1136.30 0.3212
1136.40 0.3212
1136.50 0.3211
1136.60 0.3211
1136.70 0.321
1136.80 0.321
1136.90 0.3209
1137.00 0.3209
1137.10 0.3208
1137.20 0.3208
1137.30 0.3207
1137.40 0.3207
1137.50 0.3206
1137.60 0.3206
1137.70 0.3205
1137.80 0.3205
1137.90 0.3204
1138.00 0.3204
1138.10 0.3203
1138.20 0.3203
1138.30 0.3203
1138.40 0.3202
1138.50 0.3202
1138.60 0.3201
1138.70 0.3201
1138.80 0.32
1138.90 0.32
1139.00 0.3199
1139.10 0.3199
1139.20 0.3198
1139.30 0.3198
1139.40 0.3197
1139.50 0.3197
1139.60 0.3196
1139.70 0.3196
1139.80 0.3195
1139.90 0.3195
1140.00 0.3194
1140.10 0.3194
1140.20 0.3193
1140.30 0.3193
1140.40 0.3193
1140.50 0.3192
1140.60 0.3192
1140.70 0.3191
1140.80 0.3191
1140.90 0.319
1141.00 0.319
1141.10 0.3189
1141.20 0.3189
1141.30 0.3188
1141.40 0.3188
1141.50 0.3187
1141.60 0.3187
1141.70 0.3186
1141.80 0.3186
1141.90 0.3185
1142.00 0.3185
1142.10 0.3184
1142.20 0.3184
1142.30 0.3183
1142.40 0.3183
1142.50 0.3183
1142.60 0.3182
1142.70 0.3182
1142.80 0.3181
1142.90 0.3181
1143.00 0.318
1143.10 0.318
1143.20 0.3179
1143.30 0.3179
1143.40 0.3178
1143.50 0.3178
1143.60 0.3177
1143.70 0.3177
1143.80 0.3176
1143.90 0.3176
1144.00 0.3175
1144.10 0.3175
1144.20 0.3174
1144.30 0.3174
1144.40 0.3173
1144.50 0.3173
1144.60 0.3172
1144.70 0.3172
1144.80 0.3171
1144.90 0.3171
1145.00 0.317
1145.10 0.317
1145.20 0.3169
1145.30 0.3169
1145.40 0.3169
1145.50 0.3168
1145.60 0.3168
1145.70 0.3167
1145.80 0.3167
1145.90 0.3166
1146.00 0.3166
1146.10 0.3165
1146.20 0.3165
1146.30 0.3164
1146.40 0.3164
1146.50 0.3163
1146.60 0.3163
1146.70 0.3162
1146.80 0.3162
1146.90 0.3161
1147.00 0.3161
1147.10 0.316
1147.20 0.316
1147.30 0.3159
1147.40 0.3159
1147.50 0.3158
1147.60 0.3158
1147.70 0.3157
1147.80 0.3157
1147.90 0.3156
1148.00 0.3156
1148.10 0.3155
1148.20 0.3155
1148.30 0.3154
1148.40 0.3154
1148.50 0.3153
1148.60 0.3153
1148.70 0.3152
1148.80 0.3152
1148.90 0.3151
1149.00 0.3151
1149.10 0.315
1149.20 0.315
1149.30 0.3149
1149.40 0.3149
1149.50 0.3148
1149.60 0.3148
1149.70 0.3147
1149.80 0.3146
1149.90 0.3146
1150.00 0.3145
1150.10 0.3145
1150.20 0.3144
1150.30 0.3144
1150.40 0.3143
1150.50 0.3143
1150.60 0.3142
1150.70 0.3142
1150.80 0.3141
1150.90 0.3141
1151.00 0.314
1151.10 0.314
1151.20 0.3139
1151.30 0.3139
1151.40 0.3138
1151.50 0.3138
1151.60 0.3137
1151.70 0.3137
1151.80 0.3136
1151.90 0.3136
1152.00 0.3135
1152.10 0.3135
1152.20 0.3134
1152.30 0.3134
1152.40 0.3133
1152.50 0.3133
1152.60 0.3132
1152.70 0.3132
1152.80 0.3131
1152.90 0.3131
1153.00 0.313
1153.10 0.313
1153.20 0.3129
1153.30 0.3129
1153.40 0.3128
1153.50 0.3127
1153.60 0.3127
1153.70 0.3126
1153.80 0.3126
1153.90 0.3125
1154.00 0.3125
1154.10 0.3124
1154.20 0.3124
1154.30 0.3123
1154.40 0.3123
1154.50 0.3122
1154.60 0.3122
1154.70 0.3121
1154.80 0.3121
1154.90 0.312
1155.00 0.312
1155.10 0.3119
1155.20 0.3119
1155.30 0.3118
1155.40 0.3118
1155.50 0.3117
1155.60 0.3117
1155.70 0.3116
1155.80 0.3116
1155.90 0.3115
1156.00 0.3114
1156.10 0.3114
1156.20 0.3113
1156.30 0.3113
1156.40 0.3112
1156.50 0.3112
1156.60 0.3111
1156.70 0.3111
1156.80 0.311
1156.90 0.311
1157.00 0.3109
1157.10 0.3109
1157.20 0.3108
1157.30 0.3108
1157.40 0.3107
1157.50 0.3107
1157.60 0.3106
1157.70 0.3105
1157.80 0.3105
1157.90 0.3104
1158.00 0.3104
1158.10 0.3103
1158.20 0.3103
1158.30 0.3102
1158.40 0.3102
1158.50 0.3101
1158.60 0.31
1158.70 0.31
1158.80 0.3099
1158.90 0.3099
1159.00 0.3098
1159.10 0.3098
1159.20 0.3097
1159.30 0.3097
1159.40 0.3096
1159.50 0.3095
1159.60 0.3095
1159.70 0.3094
1159.80 0.3094
1159.90 0.3093
1160.00 0.3093
1160.10 0.3092
1160.20 0.3092
1160.30 0.3091
1160.40 0.309
1160.50 0.309
1160.60 0.3089
1160.70 0.3089
1160.80 0.3088
1160.90 0.3088
1161.00 0.3087
1161.10 0.3087
1161.20 0.3086
1161.30 0.3085
1161.40 0.3085
1161.50 0.3084
1161.60 0.3084
1161.70 0.3083
1161.80 0.3083
1161.90 0.3082
1162.00 0.3082
1162.10 0.3081
1162.20 0.308
1162.30 0.308
1162.40 0.3079
1162.50 0.3079
1162.60 0.3078
1162.70 0.3078
1162.80 0.3077
1162.90 0.3076
1163.00 0.3076
1163.10 0.3075
1163.20 0.3075
1163.30 0.3074
1163.40 0.3073
1163.50 0.3073
1163.60 0.3072
1163.70 0.3072
1163.80 0.3071
1163.90 0.3071
1164.00 0.307
1164.10 0.3069
1164.20 0.3069
1164.30 0.3068
1164.40 0.3068
1164.50 0.3067
1164.60 0.3067
1164.70 0.3066
1164.80 0.3065
1164.90 0.3065
1165.00 0.3064
1165.10 0.3064
1165.20 0.3063
1165.30 0.3063
1165.40 0.3062
1165.50 0.3061
1165.60 0.3061
1165.70 0.306
1165.80 0.306
1165.90 0.3059
1166.00 0.3059
1166.10 0.3058
1166.20 0.3057
1166.30 0.3057
1166.40 0.3056
1166.50 0.3056
1166.60 0.3055
1166.70 0.3055
1166.80 0.3054
1166.90 0.3053
1167.00 0.3053
1167.10 0.3052
1167.20 0.3052
1167.30 0.3051
1167.40 0.305
1167.50 0.305
1167.60 0.3049
1167.70 0.3049
1167.80 0.3048
1167.90 0.3047
1168.00 0.3047
1168.10 0.3046
1168.20 0.3046
1168.30 0.3045
1168.40 0.3044
1168.50 0.3044
1168.60 0.3043
1168.70 0.3043
1168.80 0.3042
1168.90 0.3041
1169.00 0.3041
1169.10 0.304
1169.20 0.304
1169.30 0.3039
1169.40 0.3038
1169.50 0.3038
1169.60 0.3037
1169.70 0.3037
1169.80 0.3036
1169.90 0.3035
1170.00 0.3035
1170.10 0.3034
1170.20 0.3034
1170.30 0.3033
1170.40 0.3032
1170.50 0.3032
1170.60 0.3031
1170.70 0.3031
1170.80 0.303
1170.90 0.3029
1171.00 0.3029
1171.10 0.3028
1171.20 0.3028
1171.30 0.3027
1171.40 0.3026
1171.50 0.3026
1171.60 0.3025
1171.70 0.3025
1171.80 0.3024
1171.90 0.3023
1172.00 0.3023
1172.10 0.3022
1172.20 0.3022
1172.30 0.3021
1172.40 0.302
1172.50 0.302
1172.60 0.3019
1172.70 0.3018
1172.80 0.3018
1172.90 0.3017
1173.00 0.3017
1173.10 0.3016
1173.20 0.3015
1173.30 0.3015
1173.40 0.3014
1173.50 0.3013
1173.60 0.3013
1173.70 0.3012
1173.80 0.3012
1173.90 0.3011
1174.00 0.301
1174.10 0.301
1174.20 0.3009
1174.30 0.3008
1174.40 0.3008
1174.50 0.3007
1174.60 0.3007
1174.70 0.3006
1174.80 0.3005
1174.90 0.3005
1175.00 0.3004
1175.10 0.3003
1175.20 0.3003
1175.30 0.3002
1175.40 0.3002
1175.50 0.3001
1175.60 0.3
1175.70 0.3
1175.80 0.2999
1175.90 0.2998
1176.00 0.2998
1176.10 0.2997
1176.20 0.2997
1176.30 0.2996
1176.40 0.2995
1176.50 0.2995
1176.60 0.2994
1176.70 0.2993
1176.80 0.2993
1176.90 0.2992
1177.00 0.2992
1177.10 0.2991
1177.20 0.299
1177.30 0.299
1177.40 0.2989
1177.50 0.2988
1177.60 0.2988
1177.70 0.2987
1177.80 0.2986
1177.90 0.2986
1178.00 0.2985
1178.10 0.2985
1178.20 0.2984
1178.30 0.2983
1178.40 0.2983
1178.50 0.2982
1178.60 0.2981
1178.70 0.2981
1178.80 0.298
1178.90 0.2979
1179.00 0.2979
1179.10 0.2978
1179.20 0.2977
1179.30 0.2977
1179.40 0.2976
1179.50 0.2976
1179.60 0.2975
1179.70 0.2974
1179.80 0.2974
1179.90 0.2973
1180.00 0.2972
1180.10 0.2972
1180.20 0.2971
1180.30 0.297
1180.40 0.297
1180.50 0.2969
1180.60 0.2969
1180.70 0.2968
1180.80 0.2967
1180.90 0.2967
1181.00 0.2966
1181.10 0.2965
1181.20 0.2965
1181.30 0.2964
1181.40 0.2963
1181.50 0.2963
1181.60 0.2962
1181.70 0.2962
1181.80 0.2961
1181.90 0.296
1182.00 0.296
1182.10 0.2959
1182.20 0.2958
1182.30 0.2958
1182.40 0.2957
1182.50 0.2956
1182.60 0.2956
1182.70 0.2955
1182.80 0.2954
1182.90 0.2954
1183.00 0.2953
1183.10 0.2952
1183.20 0.2952
1183.30 0.2951
1183.40 0.295
1183.50 0.295
1183.60 0.2949
1183.70 0.2948
1183.80 0.2948
1183.90 0.2947
1184.00 0.2946
1184.10 0.2946
1184.20 0.2945
1184.30 0.2944
1184.40 0.2944
1184.50 0.2943
1184.60 0.2942
1184.70 0.2942
1184.80 0.2941
1184.90 0.294
1185.00 0.294
1185.10 0.2939
1185.20 0.2938
1185.30 0.2938
1185.40 0.2937
1185.50 0.2936
1185.60 0.2936
1185.70 0.2935
1185.80 0.2934
1185.90 0.2934
1186.00 0.2933
1186.10 0.2932
1186.20 0.2932
1186.30 0.2931
1186.40 0.293
1186.50 0.293
1186.60 0.2929
1186.70 0.2929
1186.80 0.2928
1186.90 0.2927
1187.00 0.2927
1187.10 0.2926
1187.20 0.2925
1187.30 0.2925
1187.40 0.2924
1187.50 0.2923
1187.60 0.2923
1187.70 0.2922
1187.80 0.2921
1187.90 0.2921
1188.00 0.292
1188.10 0.2919
1188.20 0.2919
1188.30 0.2918
1188.40 0.2917
1188.50 0.2917
1188.60 0.2916
1188.70 0.2915
1188.80 0.2915
1188.90 0.2914
1189.00 0.2913
1189.10 0.2913
1189.20 0.2912
1189.30 0.2911
1189.40 0.2911
1189.50 0.291
1189.60 0.2909
1189.70 0.2909
1189.80 0.2908
1189.90 0.2907
1190.00 0.2907
1190.10 0.2906
1190.20 0.2905
1190.30 0.2905
1190.40 0.2904
1190.50 0.2903
1190.60 0.2903
1190.70 0.2902
1190.80 0.2901
1190.90 0.2901
1191.00 0.29
1191.10 0.2899
1191.20 0.2899
1191.30 0.2898
1191.40 0.2897
1191.50 0.2897
1191.60 0.2896
1191.70 0.2895
1191.80 0.2895
1191.90 0.2894
1192.00 0.2893
1192.10 0.2893
1192.20 0.2892
1192.30 0.2891
1192.40 0.2891
1192.50 0.289
1192.60 0.2889
1192.70 0.2889
1192.80 0.2888
1192.90 0.2887
1193.00 0.2887
1193.10 0.2886
1193.20 0.2885
1193.30 0.2885
1193.40 0.2884
1193.50 0.2883
1193.60 0.2882
1193.70 0.2882
1193.80 0.2881
1193.90 0.288
1194.00 0.288
1194.10 0.2879
1194.20 0.2878
1194.30 0.2878
1194.40 0.2877
1194.50 0.2876
1194.60 0.2876
1194.70 0.2875
1194.80 0.2874
1194.90 0.2874
1195.00 0.2873
1195.10 0.2872
1195.20 0.2872
1195.30 0.2871
1195.40 0.287
1195.50 0.287
1195.60 0.2869
1195.70 0.2868
1195.80 0.2868
1195.90 0.2867
1196.00 0.2866
1196.10 0.2866
1196.20 0.2865
1196.30 0.2864
1196.40 0.2864
1196.50 0.2863
1196.60 0.2862
1196.70 0.2862
1196.80 0.2861
1196.90 0.286
1197.00 0.286
1197.10 0.2859
1197.20 0.2858
1197.30 0.2858
1197.40 0.2857
1197.50 0.2856
1197.60 0.2855
1197.70 0.2855
1197.80 0.2854
1197.90 0.2853
1198.00 0.2853
1198.10 0.2852
1198.20 0.2851
1198.30 0.2851
1198.40 0.285
1198.50 0.2849
1198.60 0.2849
1198.70 0.2848
1198.80 0.2847
1198.90 0.2847
1199.00 0.2846
1199.10 0.2845
1199.20 0.2844
1199.30 0.2844
1199.40 0.2843
1199.50 0.2842
1199.60 0.2842
1199.70 0.2841
1199.80 0.284
1199.90 0.284
1200.00 0
