# Version 2.1 - nm, norm@500 to 1, cut digits, bergeron_40000_95.dat_40000
# Wavelength(nm)  Flambda(ergs/cm^s/s/nm)
300.00 5.973
300.10 5.966
300.20 5.959
300.30 5.952
300.40 5.945
300.50 5.938
300.60 5.931
300.70 5.924
300.80 5.917
300.90 5.91
301.00 5.903
301.10 5.896
301.20 5.889
301.30 5.882
301.40 5.875
301.50 5.868
301.60 5.861
301.70 5.854
301.80 5.847
301.90 5.84
302.00 5.833
302.10 5.826
302.20 5.82
302.30 5.813
302.40 5.806
302.50 5.799
302.60 5.792
302.70 5.785
302.80 5.779
302.90 5.772
303.00 5.765
303.10 5.758
303.20 5.751
303.30 5.745
303.40 5.738
303.50 5.731
303.60 5.724
303.70 5.718
303.80 5.711
303.90 5.704
304.00 5.698
304.10 5.691
304.20 5.684
304.30 5.678
304.40 5.671
304.50 5.664
304.60 5.658
304.70 5.651
304.80 5.644
304.90 5.638
305.00 5.631
305.10 5.625
305.20 5.618
305.30 5.611
305.40 5.605
305.50 5.598
305.60 5.592
305.70 5.585
305.80 5.579
305.90 5.572
306.00 5.566
306.10 5.559
306.20 5.553
306.30 5.546
306.40 5.54
306.50 5.533
306.60 5.527
306.70 5.52
306.80 5.514
306.90 5.508
307.00 5.501
307.10 5.495
307.20 5.488
307.30 5.482
307.40 5.476
307.50 5.469
307.60 5.463
307.70 5.457
307.80 5.45
307.90 5.444
308.00 5.438
308.10 5.431
308.20 5.425
308.30 5.419
308.40 5.413
308.50 5.406
308.60 5.4
308.70 5.394
308.80 5.388
308.90 5.381
309.00 5.375
309.10 5.369
309.20 5.363
309.30 5.356
309.40 5.35
309.50 5.344
309.60 5.338
309.70 5.332
309.80 5.326
309.90 5.319
310.00 5.313
310.10 5.307
310.20 5.301
310.30 5.295
310.40 5.289
310.50 5.283
310.60 5.277
310.70 5.271
310.80 5.265
310.90 5.259
311.00 5.252
311.10 5.246
311.20 5.24
311.30 5.234
311.40 5.228
311.50 5.222
311.60 5.216
311.70 5.21
311.80 5.204
311.90 5.198
312.00 5.193
312.10 5.187
312.20 5.181
312.30 5.175
312.40 5.169
312.50 5.163
312.60 5.157
312.70 5.151
312.80 5.145
312.90 5.139
313.00 5.133
313.10 5.128
313.20 5.122
313.30 5.116
313.40 5.11
313.50 5.104
313.60 5.098
313.70 5.093
313.80 5.087
313.90 5.081
314.00 5.075
314.10 5.069
314.20 5.064
314.30 5.058
314.40 5.052
314.50 5.046
314.60 5.041
314.70 5.035
314.80 5.029
314.90 5.023
315.00 5.018
315.10 5.012
315.20 5.006
315.30 5.001
315.40 4.995
315.50 4.989
315.60 4.984
315.70 4.978
315.80 4.972
315.90 4.967
316.00 4.961
316.10 4.955
316.20 4.95
316.30 4.944
316.40 4.939
316.50 4.933
316.60 4.927
316.70 4.922
316.80 4.916
316.90 4.911
317.00 4.905
317.10 4.9
317.20 4.894
317.30 4.889
317.40 4.883
317.50 4.878
317.60 4.872
317.70 4.867
317.80 4.861
317.90 4.856
318.00 4.85
318.10 4.845
318.20 4.839
318.30 4.834
318.40 4.828
318.50 4.823
318.60 4.818
318.70 4.812
318.80 4.807
318.90 4.801
319.00 4.796
319.10 4.791
319.20 4.785
319.30 4.78
319.40 4.774
319.50 4.769
319.60 4.764
319.70 4.758
319.80 4.753
319.90 4.748
320.00 4.742
320.10 4.737
320.20 4.732
320.30 4.727
320.40 4.721
320.50 4.716
320.60 4.711
320.70 4.705
320.80 4.7
320.90 4.695
321.00 4.69
321.10 4.684
321.20 4.679
321.30 4.674
321.40 4.669
321.50 4.664
321.60 4.658
321.70 4.653
321.80 4.648
321.90 4.643
322.00 4.638
322.10 4.632
322.20 4.627
322.30 4.622
322.40 4.617
322.50 4.612
322.60 4.607
322.70 4.602
322.80 4.597
322.90 4.591
323.00 4.586
323.10 4.581
323.20 4.576
323.30 4.571
323.40 4.566
323.50 4.561
323.60 4.556
323.70 4.551
323.80 4.546
323.90 4.541
324.00 4.536
324.10 4.531
324.20 4.526
324.30 4.521
324.40 4.516
324.50 4.511
324.60 4.506
324.70 4.501
324.80 4.496
324.90 4.491
325.00 4.486
325.10 4.481
325.20 4.476
325.30 4.471
325.40 4.466
325.50 4.461
325.60 4.456
325.70 4.451
325.80 4.446
325.90 4.442
326.00 4.437
326.10 4.432
326.20 4.427
326.30 4.422
326.40 4.417
326.50 4.412
326.60 4.407
326.70 4.403
326.80 4.398
326.90 4.393
327.00 4.388
327.10 4.383
327.20 4.378
327.30 4.374
327.40 4.369
327.50 4.364
327.60 4.359
327.70 4.355
327.80 4.35
327.90 4.345
328.00 4.34
328.10 4.336
328.20 4.331
328.30 4.326
328.40 4.321
328.50 4.317
328.60 4.312
328.70 4.307
328.80 4.302
328.90 4.298
329.00 4.293
329.10 4.288
329.20 4.284
329.30 4.279
329.40 4.274
329.50 4.27
329.60 4.265
329.70 4.26
329.80 4.256
329.90 4.251
330.00 4.246
330.10 4.242
330.20 4.237
330.30 4.233
330.40 4.228
330.50 4.223
330.60 4.219
330.70 4.214
330.80 4.21
330.90 4.205
331.00 4.201
331.10 4.196
331.20 4.192
331.30 4.187
331.40 4.182
331.50 4.178
331.60 4.173
331.70 4.169
331.80 4.164
331.90 4.16
332.00 4.155
332.10 4.151
332.20 4.146
332.30 4.142
332.40 4.137
332.50 4.133
332.60 4.128
332.70 4.124
332.80 4.119
332.90 4.115
333.00 4.111
333.10 4.106
333.20 4.102
333.30 4.097
333.40 4.093
333.50 4.088
333.60 4.084
333.70 4.08
333.80 4.075
333.90 4.071
334.00 4.066
334.10 4.062
334.20 4.058
334.30 4.053
334.40 4.049
334.50 4.045
334.60 4.04
334.70 4.036
334.80 4.032
334.90 4.027
335.00 4.023
335.10 4.019
335.20 4.014
335.30 4.01
335.40 4.006
335.50 4.001
335.60 3.997
335.70 3.993
335.80 3.989
335.90 3.984
336.00 3.98
336.10 3.976
336.20 3.972
336.30 3.967
336.40 3.963
336.50 3.959
336.60 3.955
336.70 3.95
336.80 3.946
336.90 3.942
337.00 3.938
337.10 3.934
337.20 3.929
337.30 3.925
337.40 3.921
337.50 3.917
337.60 3.913
337.70 3.908
337.80 3.904
337.90 3.9
338.00 3.896
338.10 3.892
338.20 3.888
338.30 3.884
338.40 3.879
338.50 3.875
338.60 3.871
338.70 3.867
338.80 3.863
338.90 3.859
339.00 3.855
339.10 3.851
339.20 3.847
339.30 3.842
339.40 3.838
339.50 3.834
339.60 3.83
339.70 3.826
339.80 3.822
339.90 3.818
340.00 3.814
340.10 3.81
340.20 3.806
340.30 3.802
340.40 3.798
340.50 3.794
340.60 3.79
340.70 3.786
340.80 3.782
340.90 3.778
341.00 3.774
341.10 3.77
341.20 3.766
341.30 3.762
341.40 3.758
341.50 3.754
341.60 3.75
341.70 3.746
341.80 3.742
341.90 3.738
342.00 3.734
342.10 3.73
342.20 3.726
342.30 3.722
342.40 3.719
342.50 3.715
342.60 3.711
342.70 3.707
342.80 3.703
342.90 3.699
343.00 3.695
343.10 3.691
343.20 3.687
343.30 3.684
343.40 3.68
343.50 3.676
343.60 3.672
343.70 3.668
343.80 3.664
343.90 3.66
344.00 3.657
344.10 3.653
344.20 3.649
344.30 3.645
344.40 3.641
344.50 3.637
344.60 3.634
344.70 3.63
344.80 3.626
344.90 3.622
345.00 3.619
345.10 3.615
345.20 3.611
345.30 3.607
345.40 3.603
345.50 3.6
345.60 3.596
345.70 3.592
345.80 3.588
345.90 3.585
346.00 3.581
346.10 3.577
346.20 3.573
346.30 3.57
346.40 3.566
346.50 3.562
346.60 3.559
346.70 3.555
346.80 3.551
346.90 3.548
347.00 3.544
347.10 3.54
347.20 3.536
347.30 3.533
347.40 3.529
347.50 3.525
347.60 3.522
347.70 3.518
347.80 3.514
347.90 3.511
348.00 3.507
348.10 3.504
348.20 3.5
348.30 3.496
348.40 3.493
348.50 3.489
348.60 3.485
348.70 3.482
348.80 3.478
348.90 3.475
349.00 3.471
349.10 3.468
349.20 3.464
349.30 3.46
349.40 3.457
349.50 3.453
349.60 3.45
349.70 3.446
349.80 3.442
349.90 3.439
350.00 3.435
350.10 3.432
350.20 3.428
350.30 3.425
350.40 3.421
350.50 3.418
350.60 3.414
350.70 3.411
350.80 3.407
350.90 3.404
351.00 3.4
351.10 3.397
351.20 3.393
351.30 3.39
351.40 3.386
351.50 3.383
351.60 3.379
351.70 3.376
351.80 3.372
351.90 3.369
352.00 3.365
352.10 3.362
352.20 3.359
352.30 3.355
352.40 3.352
352.50 3.348
352.60 3.345
352.70 3.341
352.80 3.338
352.90 3.335
353.00 3.331
353.10 3.328
353.20 3.324
353.30 3.321
353.40 3.318
353.50 3.314
353.60 3.311
353.70 3.307
353.80 3.304
353.90 3.301
354.00 3.297
354.10 3.294
354.20 3.291
354.30 3.287
354.40 3.284
354.50 3.28
354.60 3.277
354.70 3.274
354.80 3.27
354.90 3.267
355.00 3.264
355.10 3.26
355.20 3.257
355.30 3.254
355.40 3.251
355.50 3.247
355.60 3.244
355.70 3.241
355.80 3.237
355.90 3.234
356.00 3.231
356.10 3.227
356.20 3.224
356.30 3.221
356.40 3.218
356.50 3.214
356.60 3.211
356.70 3.208
356.80 3.205
356.90 3.201
357.00 3.198
357.10 3.195
357.20 3.192
357.30 3.188
357.40 3.185
357.50 3.182
357.60 3.179
357.70 3.176
357.80 3.172
357.90 3.169
358.00 3.166
358.10 3.163
358.20 3.16
358.30 3.156
358.40 3.153
358.50 3.15
358.60 3.147
358.70 3.144
358.80 3.141
358.90 3.137
359.00 3.134
359.10 3.131
359.20 3.128
359.30 3.125
359.40 3.122
359.50 3.118
359.60 3.115
359.70 3.112
359.80 3.109
359.90 3.106
360.00 3.103
360.10 3.1
360.20 3.097
360.30 3.093
360.40 3.09
360.50 3.087
360.60 3.084
360.70 3.081
360.80 3.078
360.90 3.075
361.00 3.072
361.10 3.069
361.20 3.066
361.30 3.063
361.40 3.06
361.50 3.056
361.60 3.053
361.70 3.05
361.80 3.047
361.90 3.044
362.00 3.041
362.10 3.038
362.20 3.035
362.30 3.032
362.40 3.029
362.50 3.026
362.60 3.023
362.70 3.02
362.80 3.017
362.90 3.014
363.00 3.011
363.10 3.008
363.20 3.005
363.30 3.002
363.40 2.999
363.50 2.996
363.60 2.993
363.70 2.99
363.80 2.987
363.90 2.984
364.00 2.981
364.10 2.978
364.20 2.975
364.30 2.972
364.40 2.969
364.50 2.966
364.60 2.963
364.70 2.96
364.80 2.958
364.90 2.955
365.00 2.952
365.10 2.949
365.20 2.946
365.30 2.943
365.40 2.94
365.50 2.937
365.60 2.934
365.70 2.931
365.80 2.928
365.90 2.925
366.00 2.923
366.10 2.92
366.20 2.917
366.30 2.914
366.40 2.911
366.50 2.908
366.60 2.905
366.70 2.902
366.80 2.899
366.90 2.896
367.00 2.893
367.10 2.89
367.20 2.888
367.30 2.885
367.40 2.882
367.50 2.879
367.60 2.876
367.70 2.873
367.80 2.87
367.90 2.867
368.00 2.864
368.10 2.861
368.20 2.858
368.30 2.855
368.40 2.852
368.50 2.85
368.60 2.847
368.70 2.844
368.80 2.841
368.90 2.838
369.00 2.835
369.10 2.832
369.20 2.829
369.30 2.826
369.40 2.823
369.50 2.82
369.60 2.817
369.70 2.814
369.80 2.811
369.90 2.808
370.00 2.805
370.10 2.802
370.20 2.799
370.30 2.796
370.40 2.793
370.50 2.79
370.60 2.788
370.70 2.785
370.80 2.782
370.90 2.779
371.00 2.776
371.10 2.773
371.20 2.77
371.30 2.767
371.40 2.764
371.50 2.761
371.60 2.759
371.70 2.756
371.80 2.753
371.90 2.75
372.00 2.747
372.10 2.744
372.20 2.742
372.30 2.739
372.40 2.737
372.50 2.734
372.60 2.731
372.70 2.729
372.80 2.726
372.90 2.724
373.00 2.721
373.10 2.719
373.20 2.716
373.30 2.713
373.40 2.711
373.50 2.708
373.60 2.706
373.70 2.703
373.80 2.701
373.90 2.698
374.00 2.695
374.10 2.693
374.20 2.69
374.30 2.687
374.40 2.684
374.50 2.682
374.60 2.679
374.70 2.676
374.80 2.673
374.90 2.671
375.00 2.668
375.10 2.665
375.20 2.662
375.30 2.659
375.40 2.657
375.50 2.654
375.60 2.651
375.70 2.649
375.80 2.646
375.90 2.643
376.00 2.64
376.10 2.638
376.20 2.635
376.30 2.632
376.40 2.629
376.50 2.627
376.60 2.624
376.70 2.621
376.80 2.619
376.90 2.616
377.00 2.613
377.10 2.611
377.20 2.608
377.30 2.606
377.40 2.603
377.50 2.601
377.60 2.598
377.70 2.595
377.80 2.593
377.90 2.59
378.00 2.588
378.10 2.585
378.20 2.583
378.30 2.58
378.40 2.578
378.50 2.575
378.60 2.573
378.70 2.57
378.80 2.568
378.90 2.565
379.00 2.562
379.10 2.56
379.20 2.557
379.30 2.555
379.40 2.552
379.50 2.55
379.60 2.547
379.70 2.545
379.80 2.542
379.90 2.54
380.00 2.537
380.10 2.535
380.20 2.533
380.30 2.53
380.40 2.528
380.50 2.525
380.60 2.523
380.70 2.52
380.80 2.518
380.90 2.516
381.00 2.513
381.10 2.511
381.20 2.508
381.30 2.506
381.40 2.504
381.50 2.501
381.60 2.499
381.70 2.497
381.80 2.494
381.90 2.492
382.00 2.49
382.10 2.487
382.20 2.485
382.30 2.482
382.40 2.48
382.50 2.478
382.60 2.475
382.70 2.473
382.80 2.471
382.90 2.468
383.00 2.466
383.10 2.464
383.20 2.461
383.30 2.459
383.40 2.457
383.50 2.455
383.60 2.452
383.70 2.45
383.80 2.448
383.90 2.446
384.00 2.444
384.10 2.441
384.20 2.439
384.30 2.437
384.40 2.435
384.50 2.433
384.60 2.431
384.70 2.428
384.80 2.426
384.90 2.424
385.00 2.422
385.10 2.42
385.20 2.418
385.30 2.415
385.40 2.413
385.50 2.411
385.60 2.409
385.70 2.407
385.80 2.405
385.90 2.403
386.00 2.4
386.10 2.398
386.20 2.396
386.30 2.394
386.40 2.392
386.50 2.389
386.60 2.387
386.70 2.385
386.80 2.383
386.90 2.381
387.00 2.379
387.10 2.376
387.20 2.374
387.30 2.372
387.40 2.37
387.50 2.368
387.60 2.365
387.70 2.363
387.80 2.361
387.90 2.359
388.00 2.357
388.10 2.355
388.20 2.353
388.30 2.35
388.40 2.348
388.50 2.346
388.60 2.344
388.70 2.342
388.80 2.34
388.90 2.338
389.00 2.336
389.10 2.334
389.20 2.333
389.30 2.331
389.40 2.329
389.50 2.327
389.60 2.325
389.70 2.324
389.80 2.322
389.90 2.32
390.00 2.318
390.10 2.316
390.20 2.315
390.30 2.313
390.40 2.311
390.50 2.309
390.60 2.308
390.70 2.306
390.80 2.304
390.90 2.302
391.00 2.3
391.10 2.299
391.20 2.297
391.30 2.295
391.40 2.293
391.50 2.291
391.60 2.289
391.70 2.287
391.80 2.286
391.90 2.284
392.00 2.282
392.10 2.28
392.20 2.278
392.30 2.276
392.40 2.274
392.50 2.272
392.60 2.27
392.70 2.267
392.80 2.265
392.90 2.263
393.00 2.261
393.10 2.259
393.20 2.257
393.30 2.255
393.40 2.252
393.50 2.25
393.60 2.248
393.70 2.246
393.80 2.243
393.90 2.241
394.00 2.239
394.10 2.237
394.20 2.234
394.30 2.232
394.40 2.229
394.50 2.227
394.60 2.225
394.70 2.222
394.80 2.22
394.90 2.217
395.00 2.215
395.10 2.212
395.20 2.21
395.30 2.207
395.40 2.205
395.50 2.202
395.60 2.2
395.70 2.197
395.80 2.194
395.90 2.192
396.00 2.189
396.10 2.187
396.20 2.184
396.30 2.182
396.40 2.179
396.50 2.177
396.60 2.174
396.70 2.172
396.80 2.17
396.90 2.167
397.00 2.165
397.10 2.164
397.20 2.163
397.30 2.162
397.40 2.161
397.50 2.16
397.60 2.16
397.70 2.159
397.80 2.158
397.90 2.157
398.00 2.157
398.10 2.156
398.20 2.155
398.30 2.155
398.40 2.154
398.50 2.153
398.60 2.152
398.70 2.152
398.80 2.151
398.90 2.15
399.00 2.149
399.10 2.148
399.20 2.147
399.30 2.147
399.40 2.146
399.50 2.145
399.60 2.144
399.70 2.143
399.80 2.142
399.90 2.141
400.00 2.14
400.10 2.139
400.20 2.138
400.30 2.136
400.40 2.135
400.50 2.134
400.60 2.133
400.70 2.131
400.80 2.13
400.90 2.129
401.00 2.128
401.10 2.126
401.20 2.125
401.30 2.123
401.40 2.122
401.50 2.12
401.60 2.119
401.70 2.117
401.80 2.115
401.90 2.114
402.00 2.112
402.10 2.11
402.20 2.109
402.30 2.107
402.40 2.105
402.50 2.103
402.60 2.101
402.70 2.099
402.80 2.097
402.90 2.095
403.00 2.093
403.10 2.091
403.20 2.089
403.30 2.087
403.40 2.085
403.50 2.082
403.60 2.08
403.70 2.078
403.80 2.075
403.90 2.073
404.00 2.071
404.10 2.068
404.20 2.066
404.30 2.063
404.40 2.06
404.50 2.058
404.60 2.055
404.70 2.052
404.80 2.05
404.90 2.047
405.00 2.044
405.10 2.041
405.20 2.038
405.30 2.035
405.40 2.032
405.50 2.029
405.60 2.026
405.70 2.023
405.80 2.02
405.90 2.016
406.00 2.013
406.10 2.01
406.20 2.006
406.30 2.003
406.40 1.999
406.50 1.996
406.60 1.992
406.70 1.989
406.80 1.985
406.90 1.981
407.00 1.977
407.10 1.974
407.20 1.97
407.30 1.966
407.40 1.962
407.50 1.958
407.60 1.954
407.70 1.95
407.80 1.946
407.90 1.942
408.00 1.938
408.10 1.934
408.20 1.93
408.30 1.926
408.40 1.921
408.50 1.917
408.60 1.913
408.70 1.909
408.80 1.905
408.90 1.901
409.00 1.897
409.10 1.893
409.20 1.889
409.30 1.885
409.40 1.882
409.50 1.879
409.60 1.876
409.70 1.873
409.80 1.871
409.90 1.869
410.00 1.868
410.10 1.866
410.20 1.865
410.30 1.863
410.40 1.862
410.50 1.86
410.60 1.86
410.70 1.86
410.80 1.86
410.90 1.86
411.00 1.861
411.10 1.861
411.20 1.862
411.30 1.863
411.40 1.864
411.50 1.866
411.60 1.867
411.70 1.868
411.80 1.869
411.90 1.871
412.00 1.872
412.10 1.873
412.20 1.874
412.30 1.876
412.40 1.877
412.50 1.878
412.60 1.879
412.70 1.88
412.80 1.881
412.90 1.882
413.00 1.883
413.10 1.884
413.20 1.885
413.30 1.886
413.40 1.887
413.50 1.888
413.60 1.889
413.70 1.889
413.80 1.89
413.90 1.891
414.00 1.891
414.10 1.892
414.20 1.892
414.30 1.893
414.40 1.893
414.50 1.894
414.60 1.894
414.70 1.894
414.80 1.895
414.90 1.895
415.00 1.895
415.10 1.895
415.20 1.895
415.30 1.895
415.40 1.895
415.50 1.895
415.60 1.895
415.70 1.895
415.80 1.895
415.90 1.895
416.00 1.895
416.10 1.895
416.20 1.894
416.30 1.894
416.40 1.894
416.50 1.893
416.60 1.893
416.70 1.893
416.80 1.892
416.90 1.892
417.00 1.891
417.10 1.891
417.20 1.89
417.30 1.889
417.40 1.889
417.50 1.888
417.60 1.887
417.70 1.887
417.80 1.886
417.90 1.885
418.00 1.884
418.10 1.884
418.20 1.883
418.30 1.882
418.40 1.881
418.50 1.88
418.60 1.879
418.70 1.878
418.80 1.877
418.90 1.876
419.00 1.875
419.10 1.874
419.20 1.873
419.30 1.872
419.40 1.87
419.50 1.869
419.60 1.868
419.70 1.867
419.80 1.866
419.90 1.864
420.00 1.863
420.10 1.862
420.20 1.86
420.30 1.859
420.40 1.858
420.50 1.856
420.60 1.855
420.70 1.853
420.80 1.852
420.90 1.85
421.00 1.849
421.10 1.847
421.20 1.846
421.30 1.844
421.40 1.843
421.50 1.841
421.60 1.839
421.70 1.838
421.80 1.836
421.90 1.834
422.00 1.833
422.10 1.831
422.20 1.829
422.30 1.827
422.40 1.825
422.50 1.824
422.60 1.822
422.70 1.82
422.80 1.818
422.90 1.816
423.00 1.814
423.10 1.812
423.20 1.81
423.30 1.808
423.40 1.806
423.50 1.804
423.60 1.802
423.70 1.8
423.80 1.797
423.90 1.795
424.00 1.793
424.10 1.791
424.20 1.789
424.30 1.786
424.40 1.784
424.50 1.782
424.60 1.779
424.70 1.777
424.80 1.774
424.90 1.772
425.00 1.769
425.10 1.767
425.20 1.764
425.30 1.762
425.40 1.759
425.50 1.757
425.60 1.754
425.70 1.751
425.80 1.749
425.90 1.746
426.00 1.743
426.10 1.74
426.20 1.737
426.30 1.734
426.40 1.731
426.50 1.728
426.60 1.725
426.70 1.722
426.80 1.719
426.90 1.716
427.00 1.713
427.10 1.71
427.20 1.707
427.30 1.703
427.40 1.7
427.50 1.697
427.60 1.693
427.70 1.69
427.80 1.686
427.90 1.683
428.00 1.679
428.10 1.675
428.20 1.672
428.30 1.668
428.40 1.664
428.50 1.66
428.60 1.656
428.70 1.652
428.80 1.648
428.90 1.644
429.00 1.64
429.10 1.636
429.20 1.632
429.30 1.628
429.40 1.623
429.50 1.619
429.60 1.615
429.70 1.61
429.80 1.606
429.90 1.601
430.00 1.596
430.10 1.592
430.20 1.587
430.30 1.582
430.40 1.577
430.50 1.572
430.60 1.567
430.70 1.562
430.80 1.557
430.90 1.552
431.00 1.547
431.10 1.541
431.20 1.536
431.30 1.531
431.40 1.525
431.50 1.519
431.60 1.514
431.70 1.508
431.80 1.503
431.90 1.497
432.00 1.491
432.10 1.485
432.20 1.479
432.30 1.473
432.40 1.467
432.50 1.461
432.60 1.455
432.70 1.449
432.80 1.443
432.90 1.436
433.00 1.43
433.10 1.424
433.20 1.417
433.30 1.41
433.40 1.403
433.50 1.396
433.60 1.389
433.70 1.38
433.80 1.371
433.90 1.361
434.00 1.353
434.10 1.352
434.20 1.359
434.30 1.367
434.40 1.374
434.50 1.38
434.60 1.385
434.70 1.391
434.80 1.395
434.90 1.4
435.00 1.404
435.10 1.408
435.20 1.412
435.30 1.416
435.40 1.42
435.50 1.424
435.60 1.428
435.70 1.432
435.80 1.435
435.90 1.439
436.00 1.443
436.10 1.446
436.20 1.45
436.30 1.453
436.40 1.456
436.50 1.459
436.60 1.463
436.70 1.466
436.80 1.469
436.90 1.472
437.00 1.474
437.10 1.477
437.20 1.48
437.30 1.483
437.40 1.485
437.50 1.488
437.60 1.49
437.70 1.493
437.80 1.495
437.90 1.497
438.00 1.499
438.10 1.501
438.20 1.504
438.30 1.506
438.40 1.507
438.50 1.509
438.60 1.511
438.70 1.513
438.80 1.515
438.90 1.516
439.00 1.518
439.10 1.519
439.20 1.521
439.30 1.522
439.40 1.523
439.50 1.525
439.60 1.526
439.70 1.527
439.80 1.528
439.90 1.529
440.00 1.53
440.10 1.531
440.20 1.532
440.30 1.533
440.40 1.534
440.50 1.535
440.60 1.536
440.70 1.536
440.80 1.537
440.90 1.538
441.00 1.538
441.10 1.539
441.20 1.539
441.30 1.54
441.40 1.54
441.50 1.54
441.60 1.541
441.70 1.541
441.80 1.541
441.90 1.542
442.00 1.542
442.10 1.542
442.20 1.542
442.30 1.542
442.40 1.542
442.50 1.542
442.60 1.542
442.70 1.542
442.80 1.542
442.90 1.542
443.00 1.542
443.10 1.542
443.20 1.542
443.30 1.542
443.40 1.542
443.50 1.541
443.60 1.541
443.70 1.541
443.80 1.541
443.90 1.54
444.00 1.54
444.10 1.54
444.20 1.539
444.30 1.539
444.40 1.539
444.50 1.538
444.60 1.538
444.70 1.537
444.80 1.537
444.90 1.536
445.00 1.536
445.10 1.535
445.20 1.535
445.30 1.534
445.40 1.534
445.50 1.533
445.60 1.533
445.70 1.532
445.80 1.531
445.90 1.531
446.00 1.53
446.10 1.529
446.20 1.529
446.30 1.528
446.40 1.527
446.50 1.527
446.60 1.526
446.70 1.525
446.80 1.524
446.90 1.524
447.00 1.523
447.10 1.522
447.20 1.521
447.30 1.521
447.40 1.52
447.50 1.519
447.60 1.518
447.70 1.517
447.80 1.516
447.90 1.516
448.00 1.515
448.10 1.514
448.20 1.513
448.30 1.512
448.40 1.511
448.50 1.51
448.60 1.509
448.70 1.509
448.80 1.508
448.90 1.507
449.00 1.506
449.10 1.505
449.20 1.504
449.30 1.503
449.40 1.502
449.50 1.501
449.60 1.5
449.70 1.499
449.80 1.498
449.90 1.497
450.00 1.496
450.10 1.495
450.20 1.494
450.30 1.493
450.40 1.492
450.50 1.491
450.60 1.49
450.70 1.489
450.80 1.488
450.90 1.487
451.00 1.486
451.10 1.485
451.20 1.484
451.30 1.483
451.40 1.482
451.50 1.481
451.60 1.48
451.70 1.479
451.80 1.478
451.90 1.477
452.00 1.476
452.10 1.475
452.20 1.474
452.30 1.473
452.40 1.471
452.50 1.47
452.60 1.469
452.70 1.468
452.80 1.467
452.90 1.466
453.00 1.465
453.10 1.464
453.20 1.463
453.30 1.462
453.40 1.461
453.50 1.46
453.60 1.458
453.70 1.457
453.80 1.456
453.90 1.455
454.00 1.454
454.10 1.453
454.20 1.452
454.30 1.451
454.40 1.45
454.50 1.448
454.60 1.447
454.70 1.446
454.80 1.445
454.90 1.444
455.00 1.443
455.10 1.442
455.20 1.441
455.30 1.44
455.40 1.438
455.50 1.437
455.60 1.436
455.70 1.435
455.80 1.434
455.90 1.433
456.00 1.432
456.10 1.43
456.20 1.429
456.30 1.428
456.40 1.427
456.50 1.426
456.60 1.425
456.70 1.424
456.80 1.423
456.90 1.421
457.00 1.42
457.10 1.419
457.20 1.418
457.30 1.417
457.40 1.416
457.50 1.415
457.60 1.413
457.70 1.412
457.80 1.411
457.90 1.41
458.00 1.409
458.10 1.408
458.20 1.406
458.30 1.405
458.40 1.404
458.50 1.403
458.60 1.402
458.70 1.401
458.80 1.4
458.90 1.398
459.00 1.397
459.10 1.396
459.20 1.395
459.30 1.394
459.40 1.393
459.50 1.391
459.60 1.39
459.70 1.389
459.80 1.388
459.90 1.387
460.00 1.386
460.10 1.384
460.20 1.383
460.30 1.382
460.40 1.381
460.50 1.38
460.60 1.379
460.70 1.377
460.80 1.376
460.90 1.375
461.00 1.374
461.10 1.373
461.20 1.372
461.30 1.37
461.40 1.369
461.50 1.368
461.60 1.367
461.70 1.366
461.80 1.365
461.90 1.363
462.00 1.362
462.10 1.361
462.20 1.36
462.30 1.359
462.40 1.358
462.50 1.356
462.60 1.355
462.70 1.354
462.80 1.353
462.90 1.352
463.00 1.35
463.10 1.349
463.20 1.348
463.30 1.347
463.40 1.346
463.50 1.345
463.60 1.343
463.70 1.342
463.80 1.341
463.90 1.34
464.00 1.339
464.10 1.337
464.20 1.336
464.30 1.335
464.40 1.334
464.50 1.333
464.60 1.331
464.70 1.33
464.80 1.329
464.90 1.328
465.00 1.327
465.10 1.325
465.20 1.324
465.30 1.323
465.40 1.322
465.50 1.321
465.60 1.319
465.70 1.318
465.80 1.317
465.90 1.316
466.00 1.315
466.10 1.313
466.20 1.312
466.30 1.311
466.40 1.31
466.50 1.308
466.60 1.307
466.70 1.306
466.80 1.305
466.90 1.304
467.00 1.302
467.10 1.301
467.20 1.3
467.30 1.299
467.40 1.297
467.50 1.296
467.60 1.295
467.70 1.294
467.80 1.292
467.90 1.291
468.00 1.29
468.10 1.289
468.20 1.287
468.30 1.286
468.40 1.285
468.50 1.284
468.60 1.282
468.70 1.281
468.80 1.28
468.90 1.278
469.00 1.277
469.10 1.276
469.20 1.275
469.30 1.273
469.40 1.272
469.50 1.271
469.60 1.269
469.70 1.268
469.80 1.267
469.90 1.266
470.00 1.264
470.10 1.263
470.20 1.262
470.30 1.26
470.40 1.259
470.50 1.258
470.60 1.256
470.70 1.255
470.80 1.254
470.90 1.252
471.00 1.251
471.10 1.25
471.20 1.248
471.30 1.247
471.40 1.245
471.50 1.244
471.60 1.243
471.70 1.241
471.80 1.24
471.90 1.238
472.00 1.237
472.10 1.236
472.20 1.234
472.30 1.233
472.40 1.231
472.50 1.23
472.60 1.228
472.70 1.227
472.80 1.226
472.90 1.224
473.00 1.223
473.10 1.221
473.20 1.22
473.30 1.218
473.40 1.217
473.50 1.215
473.60 1.214
473.70 1.212
473.80 1.211
473.90 1.209
474.00 1.208
474.10 1.206
474.20 1.204
474.30 1.203
474.40 1.201
474.50 1.2
474.60 1.198
474.70 1.196
474.80 1.195
474.90 1.193
475.00 1.192
475.10 1.19
475.20 1.188
475.30 1.187
475.40 1.185
475.50 1.183
475.60 1.181
475.70 1.18
475.80 1.178
475.90 1.176
476.00 1.174
476.10 1.173
476.20 1.171
476.30 1.169
476.40 1.167
476.50 1.165
476.60 1.163
476.70 1.161
476.80 1.16
476.90 1.158
477.00 1.156
477.10 1.154
477.20 1.152
477.30 1.15
477.40 1.148
477.50 1.146
477.60 1.144
477.70 1.142
477.80 1.14
477.90 1.138
478.00 1.136
478.10 1.133
478.20 1.131
478.30 1.129
478.40 1.127
478.50 1.124
478.60 1.122
478.70 1.12
478.80 1.118
478.90 1.115
479.00 1.113
479.10 1.111
479.20 1.108
479.30 1.106
479.40 1.103
479.50 1.101
479.60 1.098
479.70 1.096
479.80 1.093
479.90 1.09
480.00 1.088
480.10 1.085
480.20 1.083
480.30 1.08
480.40 1.077
480.50 1.074
480.60 1.071
480.70 1.068
480.80 1.065
480.90 1.062
481.00 1.06
481.10 1.057
481.20 1.054
481.30 1.05
481.40 1.047
481.50 1.044
481.60 1.04
481.70 1.037
481.80 1.034
481.90 1.031
482.00 1.027
482.10 1.024
482.20 1.02
482.30 1.017
482.40 1.013
482.50 1.009
482.60 1.005
482.70 1.001
482.80 0.9976
482.90 0.9938
483.00 0.9901
483.10 0.9863
483.20 0.9821
483.30 0.9778
483.40 0.9734
483.50 0.969
483.60 0.9646
483.70 0.9603
483.80 0.9559
483.90 0.9516
484.00 0.9472
484.10 0.9429
484.20 0.9382
484.30 0.9333
484.40 0.9284
484.50 0.9236
484.60 0.9187
484.70 0.9136
484.80 0.9085
484.90 0.9033
485.00 0.8981
485.10 0.8929
485.20 0.8876
485.30 0.8823
485.40 0.877
485.50 0.8717
485.60 0.8668
485.70 0.862
485.80 0.859
485.90 0.8569
486.00 0.8597
486.10 0.8748
486.20 0.8678
486.30 0.8554
486.40 0.8546
486.50 0.8554
486.60 0.858
486.70 0.8616
486.80 0.8654
486.90 0.8694
487.00 0.8735
487.10 0.8775
487.20 0.8814
487.30 0.8853
487.40 0.8891
487.50 0.893
487.60 0.8968
487.70 0.9004
487.80 0.9039
487.90 0.9073
488.00 0.9107
488.10 0.9142
488.20 0.9173
488.30 0.9201
488.40 0.923
488.50 0.9259
488.60 0.9288
488.70 0.9316
488.80 0.9345
488.90 0.9374
489.00 0.9402
489.10 0.9431
489.20 0.9455
489.30 0.9477
489.40 0.9499
489.50 0.9521
489.60 0.9543
489.70 0.9565
489.80 0.9587
489.90 0.9609
490.00 0.9631
490.10 0.9653
490.20 0.9671
490.30 0.9687
490.40 0.9704
490.50 0.972
490.60 0.9737
490.70 0.9753
490.80 0.9769
490.90 0.9786
491.00 0.9802
491.10 0.9818
491.20 0.9831
491.30 0.9843
491.40 0.9855
491.50 0.9867
491.60 0.9878
491.70 0.989
491.80 0.9902
491.90 0.9913
492.00 0.9925
492.10 0.9937
492.20 0.9946
492.30 0.9954
492.40 0.9962
492.50 0.997
492.60 0.9978
492.70 0.9986
492.80 0.9994
492.90 1
493.00 1.001
493.10 1.002
493.20 1.002
493.30 1.003
493.40 1.003
493.50 1.004
493.60 1.004
493.70 1.005
493.80 1.005
493.90 1.006
494.00 1.006
494.10 1.007
494.20 1.007
494.30 1.007
494.40 1.008
494.50 1.008
494.60 1.008
494.70 1.008
494.80 1.009
494.90 1.009
495.00 1.009
495.10 1.009
495.20 1.009
495.30 1.009
495.40 1.01
495.50 1.01
495.60 1.01
495.70 1.01
495.80 1.01
495.90 1.01
496.00 1.01
496.10 1.01
496.20 1.01
496.30 1.01
496.40 1.01
496.50 1.01
496.60 1.009
496.70 1.009
496.80 1.009
496.90 1.009
497.00 1.009
497.10 1.009
497.20 1.009
497.30 1.008
497.40 1.008
497.50 1.008
497.60 1.008
497.70 1.008
497.80 1.007
497.90 1.007
498.00 1.007
498.10 1.007
498.20 1.006
498.30 1.006
498.40 1.006
498.50 1.005
498.60 1.005
498.70 1.005
498.80 1.004
498.90 1.004
499.00 1.004
499.10 1.004
499.20 1.003
499.30 1.003
499.40 1.002
499.50 1.002
499.60 1.002
499.70 1.001
499.80 1.001
499.90 1
500.00 1
500.10 0.9996
500.20 0.9992
500.30 0.9987
500.40 0.9983
500.50 0.9978
500.60 0.9973
500.70 0.9969
500.80 0.9964
500.90 0.996
501.00 0.9955
501.10 0.9951
501.20 0.9946
501.30 0.9941
501.40 0.9936
501.50 0.9931
501.60 0.9926
501.70 0.9921
501.80 0.9916
501.90 0.9911
502.00 0.9906
502.10 0.9901
502.20 0.9896
502.30 0.989
502.40 0.9885
502.50 0.9879
502.60 0.9874
502.70 0.9869
502.80 0.9863
502.90 0.9858
503.00 0.9853
503.10 0.9847
503.20 0.9842
503.30 0.9836
503.40 0.983
503.50 0.9825
503.60 0.9819
503.70 0.9813
503.80 0.9808
503.90 0.9802
504.00 0.9796
504.10 0.9791
504.20 0.9785
504.30 0.9779
504.40 0.9773
504.50 0.9767
504.60 0.9761
504.70 0.9756
504.80 0.975
504.90 0.9744
505.00 0.9738
505.10 0.9732
505.20 0.9726
505.30 0.972
505.40 0.9714
505.50 0.9708
505.60 0.9702
505.70 0.9696
505.80 0.969
505.90 0.9684
506.00 0.9678
506.10 0.9672
506.20 0.9666
506.30 0.9659
506.40 0.9653
506.50 0.9647
506.60 0.9641
506.70 0.9635
506.80 0.9629
506.90 0.9622
507.00 0.9616
507.10 0.961
507.20 0.9604
507.30 0.9598
507.40 0.9591
507.50 0.9585
507.60 0.9579
507.70 0.9573
507.80 0.9566
507.90 0.956
508.00 0.9554
508.10 0.9548
508.20 0.9541
508.30 0.9535
508.40 0.9529
508.50 0.9522
508.60 0.9516
508.70 0.951
508.80 0.9503
508.90 0.9497
509.00 0.9491
509.10 0.9484
509.20 0.9478
509.30 0.9472
509.40 0.9465
509.50 0.9459
509.60 0.9452
509.70 0.9446
509.80 0.944
509.90 0.9433
510.00 0.9427
510.10 0.9421
510.20 0.9414
510.30 0.9408
510.40 0.9401
510.50 0.9395
510.60 0.9388
510.70 0.9382
510.80 0.9376
510.90 0.9369
511.00 0.9363
511.10 0.9357
511.20 0.935
511.30 0.9344
511.40 0.9337
511.50 0.9331
511.60 0.9324
511.70 0.9318
511.80 0.9312
511.90 0.9305
512.00 0.9299
512.10 0.9292
512.20 0.9286
512.30 0.9279
512.40 0.9273
512.50 0.9267
512.60 0.926
512.70 0.9254
512.80 0.9247
512.90 0.9241
513.00 0.9235
513.10 0.9228
513.20 0.9222
513.30 0.9215
513.40 0.9209
513.50 0.9202
513.60 0.9196
513.70 0.919
513.80 0.9183
513.90 0.9177
514.00 0.917
514.10 0.9164
514.20 0.9158
514.30 0.9151
514.40 0.9145
514.50 0.9138
514.60 0.9132
514.70 0.9125
514.80 0.9119
514.90 0.9113
515.00 0.9106
515.10 0.91
515.20 0.9094
515.30 0.9087
515.40 0.9081
515.50 0.9074
515.60 0.9068
515.70 0.9062
515.80 0.9055
515.90 0.9049
516.00 0.9042
516.10 0.9036
516.20 0.903
516.30 0.9023
516.40 0.9017
516.50 0.9011
516.60 0.9004
516.70 0.8998
516.80 0.8992
516.90 0.8985
517.00 0.8979
517.10 0.8972
517.20 0.8966
517.30 0.896
517.40 0.8953
517.50 0.8947
517.60 0.8941
517.70 0.8934
517.80 0.8928
517.90 0.8922
518.00 0.8916
518.10 0.8909
518.20 0.8903
518.30 0.8897
518.40 0.889
518.50 0.8884
518.60 0.8878
518.70 0.8871
518.80 0.8865
518.90 0.8859
519.00 0.8853
519.10 0.8846
519.20 0.884
519.30 0.8834
519.40 0.8827
519.50 0.8821
519.60 0.8815
519.70 0.8809
519.80 0.8802
519.90 0.8796
520.00 0.879
520.10 0.8784
520.20 0.8777
520.30 0.8771
520.40 0.8765
520.50 0.8759
520.60 0.8752
520.70 0.8746
520.80 0.874
520.90 0.8734
521.00 0.8728
521.10 0.8721
521.20 0.8715
521.30 0.8709
521.40 0.8703
521.50 0.8697
521.60 0.869
521.70 0.8684
521.80 0.8678
521.90 0.8672
522.00 0.8666
522.10 0.866
522.20 0.8653
522.30 0.8647
522.40 0.8641
522.50 0.8635
522.60 0.8629
522.70 0.8623
522.80 0.8616
522.90 0.861
523.00 0.8604
523.10 0.8598
523.20 0.8592
523.30 0.8586
523.40 0.858
523.50 0.8574
523.60 0.8568
523.70 0.8561
523.80 0.8555
523.90 0.8549
524.00 0.8543
524.10 0.8537
524.20 0.8531
524.30 0.8525
524.40 0.8519
524.50 0.8513
524.60 0.8507
524.70 0.8501
524.80 0.8495
524.90 0.8489
525.00 0.8483
525.10 0.8477
525.20 0.847
525.30 0.8464
525.40 0.8458
525.50 0.8452
525.60 0.8446
525.70 0.844
525.80 0.8434
525.90 0.8428
526.00 0.8422
526.10 0.8416
526.20 0.841
526.30 0.8404
526.40 0.8398
526.50 0.8392
526.60 0.8386
526.70 0.8381
526.80 0.8375
526.90 0.8369
527.00 0.8363
527.10 0.8357
527.20 0.8351
527.30 0.8345
527.40 0.8339
527.50 0.8333
527.60 0.8327
527.70 0.8321
527.80 0.8315
527.90 0.8309
528.00 0.8303
528.10 0.8297
528.20 0.8292
528.30 0.8286
528.40 0.828
528.50 0.8274
528.60 0.8268
528.70 0.8262
528.80 0.8256
528.90 0.825
529.00 0.8245
529.10 0.8239
529.20 0.8233
529.30 0.8227
529.40 0.8221
529.50 0.8215
529.60 0.821
529.70 0.8204
529.80 0.8198
529.90 0.8192
530.00 0.8186
530.10 0.818
530.20 0.8175
530.30 0.8169
530.40 0.8163
530.50 0.8157
530.60 0.8151
530.70 0.8146
530.80 0.814
530.90 0.8134
531.00 0.8128
531.10 0.8123
531.20 0.8117
531.30 0.8111
531.40 0.8105
531.50 0.81
531.60 0.8094
531.70 0.8088
531.80 0.8082
531.90 0.8077
532.00 0.8071
532.10 0.8065
532.20 0.806
532.30 0.8054
532.40 0.8048
532.50 0.8042
532.60 0.8037
532.70 0.8031
532.80 0.8025
532.90 0.802
533.00 0.8014
533.10 0.8008
533.20 0.8003
533.30 0.7997
533.40 0.7991
533.50 0.7986
533.60 0.798
533.70 0.7974
533.80 0.7969
533.90 0.7963
534.00 0.7958
534.10 0.7952
534.20 0.7946
534.30 0.7941
534.40 0.7935
534.50 0.7929
534.60 0.7924
534.70 0.7918
534.80 0.7913
534.90 0.7907
535.00 0.7902
535.10 0.7896
535.20 0.789
535.30 0.7885
535.40 0.7879
535.50 0.7874
535.60 0.7868
535.70 0.7863
535.80 0.7857
535.90 0.7851
536.00 0.7846
536.10 0.784
536.20 0.7835
536.30 0.7829
536.40 0.7824
536.50 0.7818
536.60 0.7813
536.70 0.7807
536.80 0.7802
536.90 0.7796
537.00 0.7791
537.10 0.7785
537.20 0.778
537.30 0.7774
537.40 0.7769
537.50 0.7763
537.60 0.7758
537.70 0.7753
537.80 0.7747
537.90 0.7742
538.00 0.7736
538.10 0.7731
538.20 0.7725
538.30 0.772
538.40 0.7714
538.50 0.7709
538.60 0.7704
538.70 0.7698
538.80 0.7693
538.90 0.7687
539.00 0.7682
539.10 0.7677
539.20 0.7671
539.30 0.7666
539.40 0.766
539.50 0.7655
539.60 0.765
539.70 0.7644
539.80 0.7639
539.90 0.7634
540.00 0.7628
540.10 0.7623
540.20 0.7618
540.30 0.7612
540.40 0.7607
540.50 0.7602
540.60 0.7596
540.70 0.7591
540.80 0.7586
540.90 0.758
541.00 0.7575
541.10 0.757
541.20 0.7564
541.30 0.7559
541.40 0.7554
541.50 0.7549
541.60 0.7543
541.70 0.7538
541.80 0.7533
541.90 0.7527
542.00 0.7522
542.10 0.7517
542.20 0.7512
542.30 0.7506
542.40 0.7501
542.50 0.7496
542.60 0.7491
542.70 0.7485
542.80 0.748
542.90 0.7475
543.00 0.747
543.10 0.7465
543.20 0.7459
543.30 0.7454
543.40 0.7449
543.50 0.7444
543.60 0.7439
543.70 0.7433
543.80 0.7428
543.90 0.7423
544.00 0.7418
544.10 0.7413
544.20 0.7407
544.30 0.7402
544.40 0.7397
544.50 0.7392
544.60 0.7387
544.70 0.7382
544.80 0.7377
544.90 0.7371
545.00 0.7366
545.10 0.7361
545.20 0.7356
545.30 0.7351
545.40 0.7346
545.50 0.7341
545.60 0.7336
545.70 0.733
545.80 0.7325
545.90 0.732
546.00 0.7315
546.10 0.731
546.20 0.7305
546.30 0.73
546.40 0.7295
546.50 0.729
546.60 0.7285
546.70 0.728
546.80 0.7275
546.90 0.727
547.00 0.7265
547.10 0.726
547.20 0.7254
547.30 0.7249
547.40 0.7244
547.50 0.7239
547.60 0.7234
547.70 0.7229
547.80 0.7224
547.90 0.7219
548.00 0.7214
548.10 0.7209
548.20 0.7204
548.30 0.7199
548.40 0.7194
548.50 0.7189
548.60 0.7184
548.70 0.7179
548.80 0.7174
548.90 0.7169
549.00 0.7165
549.10 0.716
549.20 0.7155
549.30 0.715
549.40 0.7145
549.50 0.714
549.60 0.7135
549.70 0.713
549.80 0.7125
549.90 0.712
550.00 0.7115
550.10 0.711
550.20 0.7105
550.30 0.71
550.40 0.7096
550.50 0.7091
550.60 0.7086
550.70 0.7081
550.80 0.7076
550.90 0.7071
551.00 0.7066
551.10 0.7061
551.20 0.7056
551.30 0.7052
551.40 0.7047
551.50 0.7042
551.60 0.7037
551.70 0.7032
551.80 0.7027
551.90 0.7022
552.00 0.7018
552.10 0.7013
552.20 0.7008
552.30 0.7003
552.40 0.6998
552.50 0.6994
552.60 0.6989
552.70 0.6984
552.80 0.6979
552.90 0.6974
553.00 0.6969
553.10 0.6965
553.20 0.696
553.30 0.6955
553.40 0.695
553.50 0.6946
553.60 0.6941
553.70 0.6936
553.80 0.6931
553.90 0.6927
554.00 0.6922
554.10 0.6917
554.20 0.6912
554.30 0.6907
554.40 0.6903
554.50 0.6898
554.60 0.6893
554.70 0.6889
554.80 0.6884
554.90 0.6879
555.00 0.6874
555.10 0.687
555.20 0.6865
555.30 0.686
555.40 0.6856
555.50 0.6851
555.60 0.6846
555.70 0.6842
555.80 0.6837
555.90 0.6832
556.00 0.6827
556.10 0.6823
556.20 0.6818
556.30 0.6813
556.40 0.6809
556.50 0.6804
556.60 0.6799
556.70 0.6795
556.80 0.679
556.90 0.6786
557.00 0.6781
557.10 0.6776
557.20 0.6772
557.30 0.6767
557.40 0.6762
557.50 0.6758
557.60 0.6753
557.70 0.6749
557.80 0.6744
557.90 0.6739
558.00 0.6735
558.10 0.673
558.20 0.6726
558.30 0.6721
558.40 0.6716
558.50 0.6712
558.60 0.6707
558.70 0.6703
558.80 0.6698
558.90 0.6694
559.00 0.6689
559.10 0.6684
559.20 0.668
559.30 0.6675
559.40 0.6671
559.50 0.6666
559.60 0.6662
559.70 0.6657
559.80 0.6653
559.90 0.6648
560.00 0.6644
560.10 0.6639
560.20 0.6635
560.30 0.663
560.40 0.6626
560.50 0.6621
560.60 0.6617
560.70 0.6612
560.80 0.6608
560.90 0.6603
561.00 0.6599
561.10 0.6594
561.20 0.659
561.30 0.6585
561.40 0.6581
561.50 0.6576
561.60 0.6572
561.70 0.6567
561.80 0.6563
561.90 0.6558
562.00 0.6554
562.10 0.655
562.20 0.6545
562.30 0.6541
562.40 0.6536
562.50 0.6532
562.60 0.6527
562.70 0.6523
562.80 0.6519
562.90 0.6514
563.00 0.651
563.10 0.6505
563.20 0.6501
563.30 0.6497
563.40 0.6492
563.50 0.6488
563.60 0.6483
563.70 0.6479
563.80 0.6475
563.90 0.647
564.00 0.6466
564.10 0.6461
564.20 0.6457
564.30 0.6453
564.40 0.6448
564.50 0.6444
564.60 0.644
564.70 0.6435
564.80 0.6431
564.90 0.6427
565.00 0.6422
565.10 0.6418
565.20 0.6414
565.30 0.6409
565.40 0.6405
565.50 0.6401
565.60 0.6396
565.70 0.6392
565.80 0.6388
565.90 0.6383
566.00 0.6379
566.10 0.6375
566.20 0.6371
566.30 0.6366
566.40 0.6362
566.50 0.6358
566.60 0.6353
566.70 0.6349
566.80 0.6345
566.90 0.6341
567.00 0.6336
567.10 0.6332
567.20 0.6328
567.30 0.6324
567.40 0.6319
567.50 0.6315
567.60 0.6311
567.70 0.6307
567.80 0.6302
567.90 0.6298
568.00 0.6294
568.10 0.629
568.20 0.6285
568.30 0.6281
568.40 0.6277
568.50 0.6273
568.60 0.6269
568.70 0.6264
568.80 0.626
568.90 0.6256
569.00 0.6252
569.10 0.6248
569.20 0.6243
569.30 0.6239
569.40 0.6235
569.50 0.6231
569.60 0.6227
569.70 0.6222
569.80 0.6218
569.90 0.6214
570.00 0.621
570.10 0.6206
570.20 0.6202
570.30 0.6198
570.40 0.6193
570.50 0.6189
570.60 0.6185
570.70 0.6181
570.80 0.6177
570.90 0.6173
571.00 0.6169
571.10 0.6164
571.20 0.616
571.30 0.6156
571.40 0.6152
571.50 0.6148
571.60 0.6144
571.70 0.614
571.80 0.6136
571.90 0.6132
572.00 0.6128
572.10 0.6123
572.20 0.6119
572.30 0.6115
572.40 0.6111
572.50 0.6107
572.60 0.6103
572.70 0.6099
572.80 0.6095
572.90 0.6091
573.00 0.6087
573.10 0.6083
573.20 0.6079
573.30 0.6075
573.40 0.6071
573.50 0.6067
573.60 0.6062
573.70 0.6058
573.80 0.6054
573.90 0.605
574.00 0.6046
574.10 0.6042
574.20 0.6038
574.30 0.6034
574.40 0.603
574.50 0.6026
574.60 0.6022
574.70 0.6018
574.80 0.6014
574.90 0.601
575.00 0.6006
575.10 0.6002
575.20 0.5998
575.30 0.5994
575.40 0.599
575.50 0.5986
575.60 0.5982
575.70 0.5978
575.80 0.5974
575.90 0.5971
576.00 0.5967
576.10 0.5963
576.20 0.5959
576.30 0.5955
576.40 0.5951
576.50 0.5947
576.60 0.5943
576.70 0.5939
576.80 0.5935
576.90 0.5931
577.00 0.5927
577.10 0.5923
577.20 0.5919
577.30 0.5915
577.40 0.5911
577.50 0.5908
577.60 0.5904
577.70 0.59
577.80 0.5896
577.90 0.5892
578.00 0.5888
578.10 0.5884
578.20 0.588
578.30 0.5876
578.40 0.5872
578.50 0.5869
578.60 0.5865
578.70 0.5861
578.80 0.5857
578.90 0.5853
579.00 0.5849
579.10 0.5845
579.20 0.5842
579.30 0.5838
579.40 0.5834
579.50 0.583
579.60 0.5826
579.70 0.5822
579.80 0.5818
579.90 0.5815
580.00 0.5811
580.10 0.5807
580.20 0.5803
580.30 0.5799
580.40 0.5795
580.50 0.5792
580.60 0.5788
580.70 0.5784
580.80 0.578
580.90 0.5776
581.00 0.5773
581.10 0.5769
581.20 0.5765
581.30 0.5761
581.40 0.5757
581.50 0.5754
581.60 0.575
581.70 0.5746
581.80 0.5742
581.90 0.5739
582.00 0.5735
582.10 0.5731
582.20 0.5727
582.30 0.5723
582.40 0.572
582.50 0.5716
582.60 0.5712
582.70 0.5708
582.80 0.5705
582.90 0.5701
583.00 0.5697
583.10 0.5693
583.20 0.569
583.30 0.5686
583.40 0.5682
583.50 0.5679
583.60 0.5675
583.70 0.5671
583.80 0.5667
583.90 0.5664
584.00 0.566
584.10 0.5656
584.20 0.5653
584.30 0.5649
584.40 0.5645
584.50 0.5641
584.60 0.5638
584.70 0.5634
584.80 0.563
584.90 0.5627
585.00 0.5623
585.10 0.5619
585.20 0.5616
585.30 0.5612
585.40 0.5608
585.50 0.5605
585.60 0.5601
585.70 0.5597
585.80 0.5594
585.90 0.559
586.00 0.5586
586.10 0.5583
586.20 0.5579
586.30 0.5575
586.40 0.5572
586.50 0.5568
586.60 0.5565
586.70 0.5561
586.80 0.5557
586.90 0.5554
587.00 0.555
587.10 0.5546
587.20 0.5543
587.30 0.5539
587.40 0.5536
587.50 0.5532
587.60 0.5528
587.70 0.5525
587.80 0.5521
587.90 0.5518
588.00 0.5514
588.10 0.551
588.20 0.5507
588.30 0.5503
588.40 0.55
588.50 0.5496
588.60 0.5492
588.70 0.5489
588.80 0.5485
588.90 0.5482
589.00 0.5478
589.10 0.5475
589.20 0.5471
589.30 0.5467
589.40 0.5464
589.50 0.546
589.60 0.5457
589.70 0.5453
589.80 0.545
589.90 0.5446
590.00 0.5443
590.10 0.5439
590.20 0.5436
590.30 0.5432
590.40 0.5429
590.50 0.5425
590.60 0.5422
590.70 0.5418
590.80 0.5414
590.90 0.5411
591.00 0.5407
591.10 0.5404
591.20 0.54
591.30 0.5397
591.40 0.5393
591.50 0.539
591.60 0.5386
591.70 0.5383
591.80 0.5379
591.90 0.5376
592.00 0.5373
592.10 0.5369
592.20 0.5366
592.30 0.5362
592.40 0.5359
592.50 0.5355
592.60 0.5352
592.70 0.5348
592.80 0.5345
592.90 0.5341
593.00 0.5338
593.10 0.5334
593.20 0.5331
593.30 0.5327
593.40 0.5324
593.50 0.5321
593.60 0.5317
593.70 0.5314
593.80 0.531
593.90 0.5307
594.00 0.5303
594.10 0.53
594.20 0.5297
594.30 0.5293
594.40 0.529
594.50 0.5286
594.60 0.5283
594.70 0.528
594.80 0.5276
594.90 0.5273
595.00 0.5269
595.10 0.5266
595.20 0.5262
595.30 0.5259
595.40 0.5256
595.50 0.5252
595.60 0.5249
595.70 0.5246
595.80 0.5242
595.90 0.5239
596.00 0.5235
596.10 0.5232
596.20 0.5229
596.30 0.5225
596.40 0.5222
596.50 0.5219
596.60 0.5215
596.70 0.5212
596.80 0.5209
596.90 0.5205
597.00 0.5202
597.10 0.5198
597.20 0.5195
597.30 0.5192
597.40 0.5188
597.50 0.5185
597.60 0.5182
597.70 0.5178
597.80 0.5175
597.90 0.5172
598.00 0.5168
598.10 0.5165
598.20 0.5162
598.30 0.5159
598.40 0.5155
598.50 0.5152
598.60 0.5149
598.70 0.5145
598.80 0.5142
598.90 0.5139
599.00 0.5135
599.10 0.5132
599.20 0.5129
599.30 0.5126
599.40 0.5122
599.50 0.5119
599.60 0.5116
599.70 0.5112
599.80 0.5109
599.90 0.5106
600.00 0.5103
600.10 0.5099
600.20 0.5096
600.30 0.5093
600.40 0.5089
600.50 0.5086
600.60 0.5083
600.70 0.508
600.80 0.5076
600.90 0.5073
601.00 0.507
601.10 0.5067
601.20 0.5063
601.30 0.506
601.40 0.5057
601.50 0.5054
601.60 0.5051
601.70 0.5047
601.80 0.5044
601.90 0.5041
602.00 0.5038
602.10 0.5034
602.20 0.5031
602.30 0.5028
602.40 0.5025
602.50 0.5022
602.60 0.5018
602.70 0.5015
602.80 0.5012
602.90 0.5009
603.00 0.5005
603.10 0.5002
603.20 0.4999
603.30 0.4996
603.40 0.4993
603.50 0.499
603.60 0.4986
603.70 0.4983
603.80 0.498
603.90 0.4977
604.00 0.4974
604.10 0.497
604.20 0.4967
604.30 0.4964
604.40 0.4961
604.50 0.4958
604.60 0.4955
604.70 0.4951
604.80 0.4948
604.90 0.4945
605.00 0.4942
605.10 0.4939
605.20 0.4936
605.30 0.4933
605.40 0.4929
605.50 0.4926
605.60 0.4923
605.70 0.492
605.80 0.4917
605.90 0.4914
606.00 0.4911
606.10 0.4908
606.20 0.4904
606.30 0.4901
606.40 0.4898
606.50 0.4895
606.60 0.4892
606.70 0.4889
606.80 0.4886
606.90 0.4883
607.00 0.4879
607.10 0.4876
607.20 0.4873
607.30 0.487
607.40 0.4867
607.50 0.4864
607.60 0.4861
607.70 0.4858
607.80 0.4855
607.90 0.4852
608.00 0.4849
608.10 0.4845
608.20 0.4842
608.30 0.4839
608.40 0.4836
608.50 0.4833
608.60 0.483
608.70 0.4827
608.80 0.4824
608.90 0.4821
609.00 0.4818
609.10 0.4815
609.20 0.4812
609.30 0.4809
609.40 0.4806
609.50 0.4803
609.60 0.4799
609.70 0.4796
609.80 0.4793
609.90 0.479
610.00 0.4787
610.10 0.4784
610.20 0.4781
610.30 0.4778
610.40 0.4775
610.50 0.4772
610.60 0.4769
610.70 0.4766
610.80 0.4763
610.90 0.476
611.00 0.4757
611.10 0.4754
611.20 0.4751
611.30 0.4748
611.40 0.4745
611.50 0.4742
611.60 0.4739
611.70 0.4736
611.80 0.4733
611.90 0.473
612.00 0.4727
612.10 0.4724
612.20 0.4721
612.30 0.4718
612.40 0.4715
612.50 0.4712
612.60 0.4709
612.70 0.4706
612.80 0.4703
612.90 0.47
613.00 0.4697
613.10 0.4694
613.20 0.4691
613.30 0.4688
613.40 0.4685
613.50 0.4682
613.60 0.4679
613.70 0.4676
613.80 0.4673
613.90 0.467
614.00 0.4667
614.10 0.4664
614.20 0.4661
614.30 0.4659
614.40 0.4656
614.50 0.4653
614.60 0.465
614.70 0.4647
614.80 0.4644
614.90 0.4641
615.00 0.4638
615.10 0.4635
615.20 0.4632
615.30 0.4629
615.40 0.4626
615.50 0.4623
615.60 0.462
615.70 0.4617
615.80 0.4614
615.90 0.4612
616.00 0.4609
616.10 0.4606
616.20 0.4603
616.30 0.46
616.40 0.4597
616.50 0.4594
616.60 0.4591
616.70 0.4588
616.80 0.4585
616.90 0.4582
617.00 0.458
617.10 0.4577
617.20 0.4574
617.30 0.4571
617.40 0.4568
617.50 0.4565
617.60 0.4562
617.70 0.4559
617.80 0.4556
617.90 0.4554
618.00 0.4551
618.10 0.4548
618.20 0.4545
618.30 0.4542
618.40 0.4539
618.50 0.4536
618.60 0.4533
618.70 0.4531
618.80 0.4528
618.90 0.4525
619.00 0.4522
619.10 0.4519
619.20 0.4516
619.30 0.4513
619.40 0.451
619.50 0.4508
619.60 0.4505
619.70 0.4502
619.80 0.4499
619.90 0.4496
620.00 0.4493
620.10 0.449
620.20 0.4488
620.30 0.4485
620.40 0.4482
620.50 0.4479
620.60 0.4476
620.70 0.4473
620.80 0.4471
620.90 0.4468
621.00 0.4465
621.10 0.4462
621.20 0.4459
621.30 0.4456
621.40 0.4454
621.50 0.4451
621.60 0.4448
621.70 0.4445
621.80 0.4442
621.90 0.4439
622.00 0.4437
622.10 0.4434
622.20 0.4431
622.30 0.4428
622.40 0.4425
622.50 0.4423
622.60 0.442
622.70 0.4417
622.80 0.4414
622.90 0.4411
623.00 0.4409
623.10 0.4406
623.20 0.4403
623.30 0.44
623.40 0.4397
623.50 0.4394
623.60 0.4392
623.70 0.4389
623.80 0.4386
623.90 0.4383
624.00 0.4381
624.10 0.4378
624.20 0.4375
624.30 0.4372
624.40 0.4369
624.50 0.4367
624.60 0.4364
624.70 0.4361
624.80 0.4358
624.90 0.4355
625.00 0.4353
625.10 0.435
625.20 0.4347
625.30 0.4344
625.40 0.4342
625.50 0.4339
625.60 0.4336
625.70 0.4333
625.80 0.433
625.90 0.4328
626.00 0.4325
626.10 0.4322
626.20 0.4319
626.30 0.4317
626.40 0.4314
626.50 0.4311
626.60 0.4308
626.70 0.4305
626.80 0.4303
626.90 0.43
627.00 0.4297
627.10 0.4294
627.20 0.4292
627.30 0.4289
627.40 0.4286
627.50 0.4283
627.60 0.4281
627.70 0.4278
627.80 0.4275
627.90 0.4272
628.00 0.427
628.10 0.4267
628.20 0.4264
628.30 0.4261
628.40 0.4259
628.50 0.4256
628.60 0.4253
628.70 0.425
628.80 0.4247
628.90 0.4245
629.00 0.4242
629.10 0.4239
629.20 0.4236
629.30 0.4234
629.40 0.4231
629.50 0.4228
629.60 0.4225
629.70 0.4223
629.80 0.422
629.90 0.4217
630.00 0.4214
630.10 0.4212
630.20 0.4209
630.30 0.4206
630.40 0.4203
630.50 0.4201
630.60 0.4198
630.70 0.4195
630.80 0.4192
630.90 0.419
631.00 0.4187
631.10 0.4184
631.20 0.4181
631.30 0.4179
631.40 0.4176
631.50 0.4173
631.60 0.417
631.70 0.4168
631.80 0.4165
631.90 0.4162
632.00 0.4159
632.10 0.4157
632.20 0.4154
632.30 0.4151
632.40 0.4148
632.50 0.4145
632.60 0.4143
632.70 0.414
632.80 0.4137
632.90 0.4134
633.00 0.4132
633.10 0.4129
633.20 0.4126
633.30 0.4123
633.40 0.4121
633.50 0.4118
633.60 0.4115
633.70 0.4112
633.80 0.4109
633.90 0.4107
634.00 0.4104
634.10 0.4101
634.20 0.4098
634.30 0.4096
634.40 0.4093
634.50 0.409
634.60 0.4087
634.70 0.4084
634.80 0.4082
634.90 0.4079
635.00 0.4076
635.10 0.4073
635.20 0.407
635.30 0.4068
635.40 0.4065
635.50 0.4062
635.60 0.4059
635.70 0.4056
635.80 0.4053
635.90 0.4051
636.00 0.4048
636.10 0.4045
636.20 0.4042
636.30 0.4039
636.40 0.4036
636.50 0.4034
636.60 0.4031
636.70 0.4028
636.80 0.4025
636.90 0.4022
637.00 0.4019
637.10 0.4016
637.20 0.4014
637.30 0.4011
637.40 0.4008
637.50 0.4005
637.60 0.4002
637.70 0.3999
637.80 0.3996
637.90 0.3993
638.00 0.399
638.10 0.3987
638.20 0.3984
638.30 0.3982
638.40 0.3979
638.50 0.3976
638.60 0.3973
638.70 0.397
638.80 0.3967
638.90 0.3964
639.00 0.3961
639.10 0.3958
639.20 0.3955
639.30 0.3952
639.40 0.3949
639.50 0.3946
639.60 0.3943
639.70 0.394
639.80 0.3937
639.90 0.3934
640.00 0.3931
640.10 0.3928
640.20 0.3925
640.30 0.3922
640.40 0.3918
640.50 0.3915
640.60 0.3912
640.70 0.3909
640.80 0.3906
640.90 0.3903
641.00 0.39
641.10 0.3897
641.20 0.3893
641.30 0.389
641.40 0.3887
641.50 0.3884
641.60 0.3881
641.70 0.3877
641.80 0.3874
641.90 0.3871
642.00 0.3868
642.10 0.3864
642.20 0.3861
642.30 0.3858
642.40 0.3854
642.50 0.3851
642.60 0.3848
642.70 0.3844
642.80 0.3841
642.90 0.3837
643.00 0.3834
643.10 0.3831
643.20 0.3827
643.30 0.3824
643.40 0.382
643.50 0.3817
643.60 0.3813
643.70 0.381
643.80 0.3806
643.90 0.3802
644.00 0.3799
644.10 0.3795
644.20 0.3792
644.30 0.3788
644.40 0.3784
644.50 0.378
644.60 0.3777
644.70 0.3773
644.80 0.3769
644.90 0.3765
645.00 0.3761
645.10 0.3758
645.20 0.3754
645.30 0.375
645.40 0.3746
645.50 0.3742
645.60 0.3738
645.70 0.3734
645.80 0.3729
645.90 0.3725
646.00 0.3721
646.10 0.3717
646.20 0.3713
646.30 0.3709
646.40 0.3705
646.50 0.37
646.60 0.3696
646.70 0.3691
646.80 0.3687
646.90 0.3682
647.00 0.3678
647.10 0.3673
647.20 0.3669
647.30 0.3664
647.40 0.3659
647.50 0.3655
647.60 0.365
647.70 0.3645
647.80 0.364
647.90 0.3635
648.00 0.363
648.10 0.3625
648.20 0.362
648.30 0.3615
648.40 0.361
648.50 0.3604
648.60 0.3599
648.70 0.3593
648.80 0.3588
648.90 0.3582
649.00 0.3577
649.10 0.3571
649.20 0.3566
649.30 0.356
649.40 0.3554
649.50 0.3548
649.60 0.3542
649.70 0.3536
649.80 0.3529
649.90 0.3523
650.00 0.3517
650.10 0.3511
650.20 0.3505
650.30 0.3498
650.40 0.3491
650.50 0.3484
650.60 0.3477
650.70 0.347
650.80 0.3463
650.90 0.3456
651.00 0.3449
651.10 0.3442
651.20 0.3435
651.30 0.3428
651.40 0.3419
651.50 0.3411
651.60 0.3403
651.70 0.3395
651.80 0.3387
651.90 0.3379
652.00 0.3371
652.10 0.3363
652.20 0.3354
652.30 0.3346
652.40 0.3337
652.50 0.3327
652.60 0.3318
652.70 0.3308
652.80 0.3299
652.90 0.3289
653.00 0.328
653.10 0.327
653.20 0.3261
653.30 0.3251
653.40 0.324
653.50 0.3229
653.60 0.3218
653.70 0.3207
653.80 0.3196
653.90 0.3185
654.00 0.3174
654.10 0.3163
654.20 0.3152
654.30 0.3141
654.40 0.3129
654.50 0.3116
654.60 0.3104
654.70 0.3091
654.80 0.3079
654.90 0.3066
655.00 0.3052
655.10 0.3039
655.20 0.3026
655.30 0.3012
655.40 0.2998
655.50 0.2985
655.60 0.297
655.70 0.2956
655.80 0.2942
655.90 0.2929
656.00 0.2917
656.10 0.2906
656.20 0.2928
656.30 0.3011
656.40 0.2907
656.50 0.2903
656.60 0.2911
656.70 0.292
656.80 0.2931
656.90 0.2942
657.00 0.2953
657.10 0.2963
657.20 0.2974
657.30 0.2984
657.40 0.2994
657.50 0.3004
657.60 0.3014
657.70 0.3024
657.80 0.3033
657.90 0.3042
658.00 0.3051
658.10 0.306
658.20 0.3068
658.30 0.3077
658.40 0.3084
658.50 0.3091
658.60 0.3099
658.70 0.3106
658.80 0.3113
658.90 0.3121
659.00 0.3128
659.10 0.3135
659.20 0.3142
659.30 0.3149
659.40 0.3155
659.50 0.316
659.60 0.3166
659.70 0.3172
659.80 0.3177
659.90 0.3183
660.00 0.3188
660.10 0.3194
660.20 0.3199
660.30 0.3205
660.40 0.3209
660.50 0.3213
660.60 0.3217
660.70 0.3221
660.80 0.3225
660.90 0.3229
661.00 0.3233
661.10 0.3237
661.20 0.3241
661.30 0.3245
661.40 0.3248
661.50 0.3251
661.60 0.3254
661.70 0.3257
661.80 0.326
661.90 0.3263
662.00 0.3266
662.10 0.3269
662.20 0.3272
662.30 0.3274
662.40 0.3276
662.50 0.3278
662.60 0.328
662.70 0.3282
662.80 0.3284
662.90 0.3286
663.00 0.3288
663.10 0.329
663.20 0.3292
663.30 0.3294
663.40 0.3295
663.50 0.3296
663.60 0.3297
663.70 0.3298
663.80 0.33
663.90 0.3301
664.00 0.3302
664.10 0.3303
664.20 0.3304
664.30 0.3306
664.40 0.3306
664.50 0.3307
664.60 0.3307
664.70 0.3308
664.80 0.3308
664.90 0.3309
665.00 0.331
665.10 0.331
665.20 0.3311
665.30 0.3311
665.40 0.3311
665.50 0.3312
665.60 0.3312
665.70 0.3312
665.80 0.3312
665.90 0.3312
666.00 0.3312
666.10 0.3312
666.20 0.3312
666.30 0.3312
666.40 0.3312
666.50 0.3312
666.60 0.3311
666.70 0.3311
666.80 0.3311
666.90 0.3311
667.00 0.331
667.10 0.331
667.20 0.331
667.30 0.331
667.40 0.3309
667.50 0.3308
667.60 0.3308
667.70 0.3307
667.80 0.3307
667.90 0.3306
668.00 0.3306
668.10 0.3305
668.20 0.3304
668.30 0.3304
668.40 0.3303
668.50 0.3302
668.60 0.3301
668.70 0.3301
668.80 0.33
668.90 0.3299
669.00 0.3298
669.10 0.3297
669.20 0.3297
669.30 0.3296
669.40 0.3295
669.50 0.3294
669.60 0.3293
669.70 0.3292
669.80 0.3291
669.90 0.329
670.00 0.3289
670.10 0.3288
670.20 0.3287
670.30 0.3286
670.40 0.3285
670.50 0.3283
670.60 0.3282
670.70 0.3281
670.80 0.328
670.90 0.3279
671.00 0.3278
671.10 0.3277
671.20 0.3276
671.30 0.3274
671.40 0.3273
671.50 0.3272
671.60 0.3271
671.70 0.3269
671.80 0.3268
671.90 0.3267
672.00 0.3266
672.10 0.3264
672.20 0.3263
672.30 0.3262
672.40 0.326
672.50 0.3259
672.60 0.3258
672.70 0.3256
672.80 0.3255
672.90 0.3254
673.00 0.3252
673.10 0.3251
673.20 0.325
673.30 0.3248
673.40 0.3247
673.50 0.3246
673.60 0.3244
673.70 0.3243
673.80 0.3241
673.90 0.324
674.00 0.3239
674.10 0.3237
674.20 0.3236
674.30 0.3234
674.40 0.3233
674.50 0.3231
674.60 0.323
674.70 0.3228
674.80 0.3227
674.90 0.3225
675.00 0.3224
675.10 0.3222
675.20 0.3221
675.30 0.322
675.40 0.3218
675.50 0.3217
675.60 0.3215
675.70 0.3213
675.80 0.3212
675.90 0.321
676.00 0.3209
676.10 0.3207
676.20 0.3206
676.30 0.3204
676.40 0.3203
676.50 0.3201
676.60 0.32
676.70 0.3198
676.80 0.3197
676.90 0.3195
677.00 0.3194
677.10 0.3192
677.20 0.319
677.30 0.3189
677.40 0.3187
677.50 0.3186
677.60 0.3184
677.70 0.3183
677.80 0.3181
677.90 0.3179
678.00 0.3178
678.10 0.3176
678.20 0.3175
678.30 0.3173
678.40 0.3172
678.50 0.317
678.60 0.3168
678.70 0.3167
678.80 0.3165
678.90 0.3164
679.00 0.3162
679.10 0.316
679.20 0.3159
679.30 0.3157
679.40 0.3156
679.50 0.3154
679.60 0.3152
679.70 0.3151
679.80 0.3149
679.90 0.3148
680.00 0.3146
680.10 0.3144
680.20 0.3143
680.30 0.3141
680.40 0.314
680.50 0.3138
680.60 0.3136
680.70 0.3135
680.80 0.3133
680.90 0.3131
681.00 0.313
681.10 0.3128
681.20 0.3127
681.30 0.3125
681.40 0.3123
681.50 0.3122
681.60 0.312
681.70 0.3118
681.80 0.3117
681.90 0.3115
682.00 0.3114
682.10 0.3112
682.20 0.311
682.30 0.3109
682.40 0.3107
682.50 0.3105
682.60 0.3104
682.70 0.3102
682.80 0.3101
682.90 0.3099
683.00 0.3097
683.10 0.3096
683.20 0.3094
683.30 0.3092
683.40 0.3091
683.50 0.3089
683.60 0.3087
683.70 0.3086
683.80 0.3084
683.90 0.3083
684.00 0.3081
684.10 0.3079
684.20 0.3078
684.30 0.3076
684.40 0.3074
684.50 0.3073
684.60 0.3071
684.70 0.307
684.80 0.3068
684.90 0.3066
685.00 0.3065
685.10 0.3063
685.20 0.3061
685.30 0.306
685.40 0.3058
685.50 0.3056
685.60 0.3055
685.70 0.3053
685.80 0.3052
685.90 0.305
686.00 0.3048
686.10 0.3047
686.20 0.3045
686.30 0.3043
686.40 0.3042
686.50 0.304
686.60 0.3039
686.70 0.3037
686.80 0.3035
686.90 0.3034
687.00 0.3032
687.10 0.303
687.20 0.3029
687.30 0.3027
687.40 0.3025
687.50 0.3024
687.60 0.3022
687.70 0.3021
687.80 0.3019
687.90 0.3017
688.00 0.3016
688.10 0.3014
688.20 0.3012
688.30 0.3011
688.40 0.3009
688.50 0.3008
688.60 0.3006
688.70 0.3004
688.80 0.3003
688.90 0.3001
689.00 0.3
689.10 0.2998
689.20 0.2996
689.30 0.2995
689.40 0.2993
689.50 0.2991
689.60 0.299
689.70 0.2988
689.80 0.2987
689.90 0.2985
690.00 0.2983
690.10 0.2982
690.20 0.298
690.30 0.2978
690.40 0.2977
690.50 0.2975
690.60 0.2974
690.70 0.2972
690.80 0.297
690.90 0.2969
691.00 0.2967
691.10 0.2966
691.20 0.2964
691.30 0.2962
691.40 0.2961
691.50 0.2959
691.60 0.2958
691.70 0.2956
691.80 0.2954
691.90 0.2953
692.00 0.2951
692.10 0.295
692.20 0.2948
692.30 0.2946
692.40 0.2945
692.50 0.2943
692.60 0.2942
692.70 0.294
692.80 0.2938
692.90 0.2937
693.00 0.2935
693.10 0.2934
693.20 0.2932
693.30 0.293
693.40 0.2929
693.50 0.2927
693.60 0.2926
693.70 0.2924
693.80 0.2923
693.90 0.2921
694.00 0.2919
694.10 0.2918
694.20 0.2916
694.30 0.2915
694.40 0.2913
694.50 0.2911
694.60 0.291
694.70 0.2908
694.80 0.2907
694.90 0.2905
695.00 0.2904
695.10 0.2902
695.20 0.29
695.30 0.2899
695.40 0.2897
695.50 0.2896
695.60 0.2894
695.70 0.2893
695.80 0.2891
695.90 0.2889
696.00 0.2888
696.10 0.2886
696.20 0.2885
696.30 0.2883
696.40 0.2882
696.50 0.288
696.60 0.2878
696.70 0.2877
696.80 0.2875
696.90 0.2874
697.00 0.2872
697.10 0.2871
697.20 0.2869
697.30 0.2868
697.40 0.2866
697.50 0.2864
697.60 0.2863
697.70 0.2861
697.80 0.286
697.90 0.2858
698.00 0.2857
698.10 0.2855
698.20 0.2854
698.30 0.2852
698.40 0.285
698.50 0.2849
698.60 0.2847
698.70 0.2846
698.80 0.2844
698.90 0.2843
699.00 0.2841
699.10 0.284
699.20 0.2838
699.30 0.2837
699.40 0.2835
699.50 0.2833
699.60 0.2832
699.70 0.283
699.80 0.2829
699.90 0.2827
700.00 0.2826
700.10 0.2824
700.20 0.2823
700.30 0.2821
700.40 0.282
700.50 0.2818
700.60 0.2817
700.70 0.2815
700.80 0.2814
700.90 0.2812
701.00 0.2811
701.10 0.2809
701.20 0.2807
701.30 0.2806
701.40 0.2804
701.50 0.2803
701.60 0.2801
701.70 0.28
701.80 0.2798
701.90 0.2797
702.00 0.2795
702.10 0.2794
702.20 0.2792
702.30 0.2791
702.40 0.2789
702.50 0.2788
702.60 0.2786
702.70 0.2785
702.80 0.2783
702.90 0.2782
703.00 0.278
703.10 0.2779
703.20 0.2777
703.30 0.2776
703.40 0.2774
703.50 0.2773
703.60 0.2771
703.70 0.277
703.80 0.2768
703.90 0.2767
704.00 0.2765
704.10 0.2764
704.20 0.2762
704.30 0.2761
704.40 0.2759
704.50 0.2758
704.60 0.2756
704.70 0.2755
704.80 0.2753
704.90 0.2752
705.00 0.275
705.10 0.2749
705.20 0.2747
705.30 0.2746
705.40 0.2744
705.50 0.2743
705.60 0.2741
705.70 0.274
705.80 0.2738
705.90 0.2737
706.00 0.2735
706.10 0.2734
706.20 0.2732
706.30 0.2731
706.40 0.273
706.50 0.2728
706.60 0.2727
706.70 0.2725
706.80 0.2724
706.90 0.2722
707.00 0.2721
707.10 0.2719
707.20 0.2718
707.30 0.2716
707.40 0.2715
707.50 0.2713
707.60 0.2712
707.70 0.271
707.80 0.2709
707.90 0.2708
708.00 0.2706
708.10 0.2705
708.20 0.2703
708.30 0.2702
708.40 0.27
708.50 0.2699
708.60 0.2697
708.70 0.2696
708.80 0.2694
708.90 0.2693
709.00 0.2691
709.10 0.269
709.20 0.2689
709.30 0.2687
709.40 0.2686
709.50 0.2684
709.60 0.2683
709.70 0.2681
709.80 0.268
709.90 0.2678
710.00 0.2677
710.10 0.2676
710.20 0.2674
710.30 0.2673
710.40 0.2671
710.50 0.267
710.60 0.2668
710.70 0.2667
710.80 0.2665
710.90 0.2664
711.00 0.2663
711.10 0.2661
711.20 0.266
711.30 0.2658
711.40 0.2657
711.50 0.2655
711.60 0.2654
711.70 0.2653
711.80 0.2651
711.90 0.265
712.00 0.2648
712.10 0.2647
712.20 0.2646
712.30 0.2644
712.40 0.2643
712.50 0.2641
712.60 0.264
712.70 0.2638
712.80 0.2637
712.90 0.2636
713.00 0.2634
713.10 0.2633
713.20 0.2631
713.30 0.263
713.40 0.2628
713.50 0.2627
713.60 0.2626
713.70 0.2624
713.80 0.2623
713.90 0.2621
714.00 0.262
714.10 0.2619
714.20 0.2617
714.30 0.2616
714.40 0.2614
714.50 0.2613
714.60 0.2612
714.70 0.261
714.80 0.2609
714.90 0.2607
715.00 0.2606
715.10 0.2605
715.20 0.2603
715.30 0.2602
715.40 0.26
715.50 0.2599
715.60 0.2598
715.70 0.2596
715.80 0.2595
715.90 0.2593
716.00 0.2592
716.10 0.2591
716.20 0.2589
716.30 0.2588
716.40 0.2587
716.50 0.2585
716.60 0.2584
716.70 0.2582
716.80 0.2581
716.90 0.258
717.00 0.2578
717.10 0.2577
717.20 0.2576
717.30 0.2574
717.40 0.2573
717.50 0.2571
717.60 0.257
717.70 0.2569
717.80 0.2567
717.90 0.2566
718.00 0.2565
718.10 0.2563
718.20 0.2562
718.30 0.256
718.40 0.2559
718.50 0.2558
718.60 0.2556
718.70 0.2555
718.80 0.2554
718.90 0.2552
719.00 0.2551
719.10 0.2549
719.20 0.2548
719.30 0.2547
719.40 0.2545
719.50 0.2544
719.60 0.2543
719.70 0.2541
719.80 0.254
719.90 0.2539
720.00 0.2537
720.10 0.2536
720.20 0.2535
720.30 0.2533
720.40 0.2532
720.50 0.2531
720.60 0.2529
720.70 0.2528
720.80 0.2526
720.90 0.2525
721.00 0.2524
721.10 0.2522
721.20 0.2521
721.30 0.252
721.40 0.2518
721.50 0.2517
721.60 0.2516
721.70 0.2514
721.80 0.2513
721.90 0.2512
722.00 0.251
722.10 0.2509
722.20 0.2508
722.30 0.2506
722.40 0.2505
722.50 0.2504
722.60 0.2502
722.70 0.2501
722.80 0.25
722.90 0.2498
723.00 0.2497
723.10 0.2496
723.20 0.2494
723.30 0.2493
723.40 0.2492
723.50 0.249
723.60 0.2489
723.70 0.2488
723.80 0.2487
723.90 0.2485
724.00 0.2484
724.10 0.2483
724.20 0.2481
724.30 0.248
724.40 0.2479
724.50 0.2477
724.60 0.2476
724.70 0.2475
724.80 0.2473
724.90 0.2472
725.00 0.2471
725.10 0.2469
725.20 0.2468
725.30 0.2467
725.40 0.2465
725.50 0.2464
725.60 0.2463
725.70 0.2462
725.80 0.246
725.90 0.2459
726.00 0.2458
726.10 0.2456
726.20 0.2455
726.30 0.2454
726.40 0.2453
726.50 0.2451
726.60 0.245
726.70 0.2449
726.80 0.2447
726.90 0.2446
727.00 0.2445
727.10 0.2443
727.20 0.2442
727.30 0.2441
727.40 0.244
727.50 0.2438
727.60 0.2437
727.70 0.2436
727.80 0.2434
727.90 0.2433
728.00 0.2432
728.10 0.2431
728.20 0.2429
728.30 0.2428
728.40 0.2427
728.50 0.2425
728.60 0.2424
728.70 0.2423
728.80 0.2422
728.90 0.242
729.00 0.2419
729.10 0.2418
729.20 0.2417
729.30 0.2415
729.40 0.2414
729.50 0.2413
729.60 0.2411
729.70 0.241
729.80 0.2409
729.90 0.2408
730.00 0.2406
730.10 0.2405
730.20 0.2404
730.30 0.2403
730.40 0.2401
730.50 0.24
730.60 0.2399
730.70 0.2398
730.80 0.2396
730.90 0.2395
731.00 0.2394
731.10 0.2393
731.20 0.2391
731.30 0.239
731.40 0.2389
731.50 0.2388
731.60 0.2386
731.70 0.2385
731.80 0.2384
731.90 0.2383
732.00 0.2381
732.10 0.238
732.20 0.2379
732.30 0.2378
732.40 0.2376
732.50 0.2375
732.60 0.2374
732.70 0.2373
732.80 0.2371
732.90 0.237
733.00 0.2369
733.10 0.2368
733.20 0.2366
733.30 0.2365
733.40 0.2364
733.50 0.2363
733.60 0.2361
733.70 0.236
733.80 0.2359
733.90 0.2358
734.00 0.2357
734.10 0.2355
734.20 0.2354
734.30 0.2353
734.40 0.2352
734.50 0.235
734.60 0.2349
734.70 0.2348
734.80 0.2347
734.90 0.2345
735.00 0.2344
735.10 0.2343
735.20 0.2342
735.30 0.2341
735.40 0.2339
735.50 0.2338
735.60 0.2337
735.70 0.2336
735.80 0.2334
735.90 0.2333
736.00 0.2332
736.10 0.2331
736.20 0.233
736.30 0.2328
736.40 0.2327
736.50 0.2326
736.60 0.2325
736.70 0.2323
736.80 0.2322
736.90 0.2321
737.00 0.232
737.10 0.2319
737.20 0.2317
737.30 0.2316
737.40 0.2315
737.50 0.2314
737.60 0.2313
737.70 0.2311
737.80 0.231
737.90 0.2309
738.00 0.2308
738.10 0.2306
738.20 0.2305
738.30 0.2304
738.40 0.2303
738.50 0.2302
738.60 0.23
738.70 0.2299
738.80 0.2298
738.90 0.2297
739.00 0.2296
739.10 0.2294
739.20 0.2293
739.30 0.2292
739.40 0.2291
739.50 0.229
739.60 0.2288
739.70 0.2287
739.80 0.2286
739.90 0.2285
740.00 0.2284
740.10 0.2282
740.20 0.2281
740.30 0.228
740.40 0.2279
740.50 0.2278
740.60 0.2277
740.70 0.2275
740.80 0.2274
740.90 0.2273
741.00 0.2272
741.10 0.2271
741.20 0.2269
741.30 0.2268
741.40 0.2267
741.50 0.2266
741.60 0.2265
741.70 0.2264
741.80 0.2262
741.90 0.2261
742.00 0.226
742.10 0.2259
742.20 0.2258
742.30 0.2257
742.40 0.2255
742.50 0.2254
742.60 0.2253
742.70 0.2252
742.80 0.2251
742.90 0.225
743.00 0.2249
743.10 0.2247
743.20 0.2246
743.30 0.2245
743.40 0.2244
743.50 0.2243
743.60 0.2242
743.70 0.224
743.80 0.2239
743.90 0.2238
744.00 0.2237
744.10 0.2236
744.20 0.2235
744.30 0.2233
744.40 0.2232
744.50 0.2231
744.60 0.223
744.70 0.2229
744.80 0.2228
744.90 0.2227
745.00 0.2225
745.10 0.2224
745.20 0.2223
745.30 0.2222
745.40 0.2221
745.50 0.222
745.60 0.2219
745.70 0.2217
745.80 0.2216
745.90 0.2215
746.00 0.2214
746.10 0.2213
746.20 0.2212
746.30 0.221
746.40 0.2209
746.50 0.2208
746.60 0.2207
746.70 0.2206
746.80 0.2205
746.90 0.2204
747.00 0.2202
747.10 0.2201
747.20 0.22
747.30 0.2199
747.40 0.2198
747.50 0.2197
747.60 0.2196
747.70 0.2195
747.80 0.2193
747.90 0.2192
748.00 0.2191
748.10 0.219
748.20 0.2189
748.30 0.2188
748.40 0.2187
748.50 0.2185
748.60 0.2184
748.70 0.2183
748.80 0.2182
748.90 0.2181
749.00 0.218
749.10 0.2179
749.20 0.2178
749.30 0.2176
749.40 0.2175
749.50 0.2174
749.60 0.2173
749.70 0.2172
749.80 0.2171
749.90 0.217
750.00 0.2169
750.10 0.2167
750.20 0.2166
750.30 0.2165
750.40 0.2164
750.50 0.2163
750.60 0.2162
750.70 0.2161
750.80 0.216
750.90 0.2159
751.00 0.2158
751.10 0.2156
751.20 0.2155
751.30 0.2154
751.40 0.2153
751.50 0.2152
751.60 0.2151
751.70 0.215
751.80 0.2149
751.90 0.2148
752.00 0.2147
752.10 0.2145
752.20 0.2144
752.30 0.2143
752.40 0.2142
752.50 0.2141
752.60 0.214
752.70 0.2139
752.80 0.2138
752.90 0.2137
753.00 0.2136
753.10 0.2135
753.20 0.2133
753.30 0.2132
753.40 0.2131
753.50 0.213
753.60 0.2129
753.70 0.2128
753.80 0.2127
753.90 0.2126
754.00 0.2125
754.10 0.2124
754.20 0.2123
754.30 0.2122
754.40 0.212
754.50 0.2119
754.60 0.2118
754.70 0.2117
754.80 0.2116
754.90 0.2115
755.00 0.2114
755.10 0.2113
755.20 0.2112
755.30 0.2111
755.40 0.211
755.50 0.2109
755.60 0.2107
755.70 0.2106
755.80 0.2105
755.90 0.2104
756.00 0.2103
756.10 0.2102
756.20 0.2101
756.30 0.21
756.40 0.2099
756.50 0.2098
756.60 0.2097
756.70 0.2096
756.80 0.2095
756.90 0.2094
757.00 0.2092
757.10 0.2091
757.20 0.209
757.30 0.2089
757.40 0.2088
757.50 0.2087
757.60 0.2086
757.70 0.2085
757.80 0.2084
757.90 0.2083
758.00 0.2082
758.10 0.2081
758.20 0.208
758.30 0.2079
758.40 0.2078
758.50 0.2076
758.60 0.2075
758.70 0.2074
758.80 0.2073
758.90 0.2072
759.00 0.2071
759.10 0.207
759.20 0.2069
759.30 0.2068
759.40 0.2067
759.50 0.2066
759.60 0.2065
759.70 0.2064
759.80 0.2063
759.90 0.2062
760.00 0.2061
760.10 0.206
760.20 0.2059
760.30 0.2058
760.40 0.2056
760.50 0.2055
760.60 0.2054
760.70 0.2053
760.80 0.2052
760.90 0.2051
761.00 0.205
761.10 0.2049
761.20 0.2048
761.30 0.2047
761.40 0.2046
761.50 0.2045
761.60 0.2044
761.70 0.2043
761.80 0.2042
761.90 0.2041
762.00 0.204
762.10 0.2039
762.20 0.2038
762.30 0.2037
762.40 0.2036
762.50 0.2035
762.60 0.2034
762.70 0.2033
762.80 0.2032
762.90 0.2031
763.00 0.203
763.10 0.2029
763.20 0.2028
763.30 0.2027
763.40 0.2026
763.50 0.2025
763.60 0.2024
763.70 0.2023
763.80 0.2022
763.90 0.2021
764.00 0.202
764.10 0.2019
764.20 0.2018
764.30 0.2016
764.40 0.2015
764.50 0.2014
764.60 0.2013
764.70 0.2012
764.80 0.2011
764.90 0.201
765.00 0.2009
765.10 0.2008
765.20 0.2007
765.30 0.2006
765.40 0.2005
765.50 0.2004
765.60 0.2003
765.70 0.2002
765.80 0.2001
765.90 0.2
766.00 0.1999
766.10 0.1998
766.20 0.1997
766.30 0.1996
766.40 0.1995
766.50 0.1994
766.60 0.1993
766.70 0.1992
766.80 0.1991
766.90 0.199
767.00 0.1989
767.10 0.1988
767.20 0.1987
767.30 0.1986
767.40 0.1985
767.50 0.1984
767.60 0.1983
767.70 0.1982
767.80 0.1981
767.90 0.198
768.00 0.1979
768.10 0.1978
768.20 0.1977
768.30 0.1976
768.40 0.1975
768.50 0.1974
768.60 0.1973
768.70 0.1972
768.80 0.1971
768.90 0.197
769.00 0.1969
769.10 0.1968
769.20 0.1967
769.30 0.1966
769.40 0.1965
769.50 0.1964
769.60 0.1963
769.70 0.1962
769.80 0.1961
769.90 0.196
770.00 0.1959
770.10 0.1958
770.20 0.1957
770.30 0.1956
770.40 0.1955
770.50 0.1954
770.60 0.1953
770.70 0.1953
770.80 0.1952
770.90 0.1951
771.00 0.195
771.10 0.1949
771.20 0.1948
771.30 0.1947
771.40 0.1946
771.50 0.1945
771.60 0.1944
771.70 0.1943
771.80 0.1942
771.90 0.1941
772.00 0.194
772.10 0.1939
772.20 0.1938
772.30 0.1937
772.40 0.1936
772.50 0.1935
772.60 0.1934
772.70 0.1933
772.80 0.1932
772.90 0.1931
773.00 0.193
773.10 0.1929
773.20 0.1928
773.30 0.1927
773.40 0.1926
773.50 0.1926
773.60 0.1925
773.70 0.1924
773.80 0.1923
773.90 0.1922
774.00 0.1921
774.10 0.192
774.20 0.1919
774.30 0.1918
774.40 0.1917
774.50 0.1916
774.60 0.1915
774.70 0.1914
774.80 0.1913
774.90 0.1912
775.00 0.1911
775.10 0.191
775.20 0.1909
775.30 0.1908
775.40 0.1907
775.50 0.1906
775.60 0.1905
775.70 0.1905
775.80 0.1904
775.90 0.1903
776.00 0.1902
776.10 0.1901
776.20 0.19
776.30 0.1899
776.40 0.1898
776.50 0.1897
776.60 0.1896
776.70 0.1895
776.80 0.1894
776.90 0.1893
777.00 0.1892
777.10 0.1891
777.20 0.189
777.30 0.1889
777.40 0.1888
777.50 0.1888
777.60 0.1887
777.70 0.1886
777.80 0.1885
777.90 0.1884
778.00 0.1883
778.10 0.1882
778.20 0.1881
778.30 0.188
778.40 0.1879
778.50 0.1878
778.60 0.1877
778.70 0.1876
778.80 0.1875
778.90 0.1874
779.00 0.1873
779.10 0.1873
779.20 0.1872
779.30 0.1871
779.40 0.187
779.50 0.1869
779.60 0.1868
779.70 0.1867
779.80 0.1866
779.90 0.1865
780.00 0.1864
780.10 0.1863
780.20 0.1862
780.30 0.1861
780.40 0.186
780.50 0.186
780.60 0.1859
780.70 0.1858
780.80 0.1857
780.90 0.1856
781.00 0.1855
781.10 0.1854
781.20 0.1853
781.30 0.1852
781.40 0.1851
781.50 0.185
781.60 0.185
781.70 0.1849
781.80 0.1848
781.90 0.1847
782.00 0.1846
782.10 0.1845
782.20 0.1844
782.30 0.1843
782.40 0.1842
782.50 0.1841
782.60 0.184
782.70 0.184
782.80 0.1839
782.90 0.1838
783.00 0.1837
783.10 0.1836
783.20 0.1835
783.30 0.1834
783.40 0.1833
783.50 0.1832
783.60 0.1831
783.70 0.1831
783.80 0.183
783.90 0.1829
784.00 0.1828
784.10 0.1827
784.20 0.1826
784.30 0.1825
784.40 0.1824
784.50 0.1823
784.60 0.1822
784.70 0.1822
784.80 0.1821
784.90 0.182
785.00 0.1819
785.10 0.1818
785.20 0.1817
785.30 0.1816
785.40 0.1815
785.50 0.1814
785.60 0.1814
785.70 0.1813
785.80 0.1812
785.90 0.1811
786.00 0.181
786.10 0.1809
786.20 0.1808
786.30 0.1807
786.40 0.1806
786.50 0.1806
786.60 0.1805
786.70 0.1804
786.80 0.1803
786.90 0.1802
787.00 0.1801
787.10 0.18
787.20 0.1799
787.30 0.1798
787.40 0.1798
787.50 0.1797
787.60 0.1796
787.70 0.1795
787.80 0.1794
787.90 0.1793
788.00 0.1792
788.10 0.1791
788.20 0.179
788.30 0.179
788.40 0.1789
788.50 0.1788
788.60 0.1787
788.70 0.1786
788.80 0.1785
788.90 0.1784
789.00 0.1783
789.10 0.1783
789.20 0.1782
789.30 0.1781
789.40 0.178
789.50 0.1779
789.60 0.1778
789.70 0.1777
789.80 0.1776
789.90 0.1776
790.00 0.1775
790.10 0.1774
790.20 0.1773
790.30 0.1772
790.40 0.1771
790.50 0.177
790.60 0.177
790.70 0.1769
790.80 0.1768
790.90 0.1767
791.00 0.1766
791.10 0.1765
791.20 0.1764
791.30 0.1764
791.40 0.1763
791.50 0.1762
791.60 0.1761
791.70 0.176
791.80 0.1759
791.90 0.1758
792.00 0.1758
792.10 0.1757
792.20 0.1756
792.30 0.1755
792.40 0.1754
792.50 0.1753
792.60 0.1752
792.70 0.1752
792.80 0.1751
792.90 0.175
793.00 0.1749
793.10 0.1748
793.20 0.1747
793.30 0.1746
793.40 0.1746
793.50 0.1745
793.60 0.1744
793.70 0.1743
793.80 0.1742
793.90 0.1741
794.00 0.1741
794.10 0.174
794.20 0.1739
794.30 0.1738
794.40 0.1737
794.50 0.1736
794.60 0.1736
794.70 0.1735
794.80 0.1734
794.90 0.1733
795.00 0.1732
795.10 0.1731
795.20 0.173
795.30 0.173
795.40 0.1729
795.50 0.1728
795.60 0.1727
795.70 0.1726
795.80 0.1725
795.90 0.1725
796.00 0.1724
796.10 0.1723
796.20 0.1722
796.30 0.1721
796.40 0.172
796.50 0.172
796.60 0.1719
796.70 0.1718
796.80 0.1717
796.90 0.1716
797.00 0.1715
797.10 0.1715
797.20 0.1714
797.30 0.1713
797.40 0.1712
797.50 0.1711
797.60 0.171
797.70 0.171
797.80 0.1709
797.90 0.1708
798.00 0.1707
798.10 0.1706
798.20 0.1705
798.30 0.1705
798.40 0.1704
798.50 0.1703
798.60 0.1702
798.70 0.1701
798.80 0.17
798.90 0.17
799.00 0.1699
799.10 0.1698
799.20 0.1697
799.30 0.1696
799.40 0.1695
799.50 0.1695
799.60 0.1694
799.70 0.1693
799.80 0.1692
799.90 0.1691
800.00 0.1691
800.10 0.169
800.20 0.1689
800.30 0.1688
800.40 0.1687
800.50 0.1686
800.60 0.1686
800.70 0.1685
800.80 0.1684
800.90 0.1683
801.00 0.1682
801.10 0.1682
801.20 0.1681
801.30 0.168
801.40 0.1679
801.50 0.1678
801.60 0.1678
801.70 0.1677
801.80 0.1676
801.90 0.1675
802.00 0.1674
802.10 0.1674
802.20 0.1673
802.30 0.1672
802.40 0.1671
802.50 0.167
802.60 0.167
802.70 0.1669
802.80 0.1668
802.90 0.1667
803.00 0.1666
803.10 0.1666
803.20 0.1665
803.30 0.1664
803.40 0.1663
803.50 0.1662
803.60 0.1662
803.70 0.1661
803.80 0.166
803.90 0.1659
804.00 0.1658
804.10 0.1658
804.20 0.1657
804.30 0.1656
804.40 0.1655
804.50 0.1654
804.60 0.1654
804.70 0.1653
804.80 0.1652
804.90 0.1651
805.00 0.165
805.10 0.165
805.20 0.1649
805.30 0.1648
805.40 0.1647
805.50 0.1647
805.60 0.1646
805.70 0.1645
805.80 0.1644
805.90 0.1643
806.00 0.1643
806.10 0.1642
806.20 0.1641
806.30 0.164
806.40 0.1639
806.50 0.1639
806.60 0.1638
806.70 0.1637
806.80 0.1636
806.90 0.1635
807.00 0.1635
807.10 0.1634
807.20 0.1633
807.30 0.1632
807.40 0.1632
807.50 0.1631
807.60 0.163
807.70 0.1629
807.80 0.1628
807.90 0.1628
808.00 0.1627
808.10 0.1626
808.20 0.1625
808.30 0.1625
808.40 0.1624
808.50 0.1623
808.60 0.1622
808.70 0.1621
808.80 0.1621
808.90 0.162
809.00 0.1619
809.10 0.1618
809.20 0.1617
809.30 0.1617
809.40 0.1616
809.50 0.1615
809.60 0.1614
809.70 0.1614
809.80 0.1613
809.90 0.1612
810.00 0.1611
810.10 0.1611
810.20 0.161
810.30 0.1609
810.40 0.1608
810.50 0.1607
810.60 0.1607
810.70 0.1606
810.80 0.1605
810.90 0.1604
811.00 0.1604
811.10 0.1603
811.20 0.1602
811.30 0.1601
811.40 0.1601
811.50 0.16
811.60 0.1599
811.70 0.1598
811.80 0.1598
811.90 0.1597
812.00 0.1596
812.10 0.1595
812.20 0.1595
812.30 0.1594
812.40 0.1593
812.50 0.1592
812.60 0.1592
812.70 0.1591
812.80 0.159
812.90 0.1589
813.00 0.1589
813.10 0.1588
813.20 0.1587
813.30 0.1586
813.40 0.1586
813.50 0.1585
813.60 0.1584
813.70 0.1583
813.80 0.1583
813.90 0.1582
814.00 0.1581
814.10 0.158
814.20 0.158
814.30 0.1579
814.40 0.1578
814.50 0.1577
814.60 0.1577
814.70 0.1576
814.80 0.1575
814.90 0.1574
815.00 0.1574
815.10 0.1573
815.20 0.1572
815.30 0.1571
815.40 0.1571
815.50 0.157
815.60 0.1569
815.70 0.1568
815.80 0.1568
815.90 0.1567
816.00 0.1566
816.10 0.1565
816.20 0.1565
816.30 0.1564
816.40 0.1563
816.50 0.1562
816.60 0.1562
816.70 0.1561
816.80 0.156
816.90 0.1559
817.00 0.1559
817.10 0.1558
817.20 0.1557
817.30 0.1556
817.40 0.1556
817.50 0.1555
817.60 0.1554
817.70 0.1554
817.80 0.1553
817.90 0.1552
818.00 0.1551
818.10 0.1551
818.20 0.155
818.30 0.1549
818.40 0.1548
818.50 0.1548
818.60 0.1547
818.70 0.1546
818.80 0.1545
818.90 0.1545
819.00 0.1544
819.10 0.1543
819.20 0.1543
819.30 0.1542
819.40 0.1541
819.50 0.154
819.60 0.154
819.70 0.1539
819.80 0.1538
819.90 0.1537
820.00 0.1537
820.10 0.1536
820.20 0.1535
820.30 0.1534
820.40 0.1534
820.50 0.1533
820.60 0.1532
820.70 0.1532
820.80 0.1531
820.90 0.153
821.00 0.1529
821.10 0.1529
821.20 0.1528
821.30 0.1527
821.40 0.1527
821.50 0.1526
821.60 0.1525
821.70 0.1524
821.80 0.1524
821.90 0.1523
822.00 0.1522
822.10 0.1522
822.20 0.1521
822.30 0.152
822.40 0.1519
822.50 0.1519
822.60 0.1518
822.70 0.1517
822.80 0.1517
822.90 0.1516
823.00 0.1515
823.10 0.1514
823.20 0.1514
823.30 0.1513
823.40 0.1512
823.50 0.1512
823.60 0.1511
823.70 0.151
823.80 0.1509
823.90 0.1509
824.00 0.1508
824.10 0.1507
824.20 0.1507
824.30 0.1506
824.40 0.1505
824.50 0.1505
824.60 0.1504
824.70 0.1503
824.80 0.1502
824.90 0.1502
825.00 0.1501
825.10 0.15
825.20 0.15
825.30 0.1499
825.40 0.1498
825.50 0.1497
825.60 0.1497
825.70 0.1496
825.80 0.1495
825.90 0.1495
826.00 0.1494
826.10 0.1493
826.20 0.1493
826.30 0.1492
826.40 0.1491
826.50 0.149
826.60 0.149
826.70 0.1489
826.80 0.1488
826.90 0.1488
827.00 0.1487
827.10 0.1486
827.20 0.1486
827.30 0.1485
827.40 0.1484
827.50 0.1483
827.60 0.1483
827.70 0.1482
827.80 0.1481
827.90 0.1481
828.00 0.148
828.10 0.1479
828.20 0.1479
828.30 0.1478
828.40 0.1477
828.50 0.1477
828.60 0.1476
828.70 0.1475
828.80 0.1475
828.90 0.1474
829.00 0.1473
829.10 0.1472
829.20 0.1472
829.30 0.1471
829.40 0.147
829.50 0.147
829.60 0.1469
829.70 0.1468
829.80 0.1468
829.90 0.1467
830.00 0.1466
830.10 0.1466
830.20 0.1465
830.30 0.1464
830.40 0.1464
830.50 0.1463
830.60 0.1462
830.70 0.1462
830.80 0.1461
830.90 0.146
831.00 0.1459
831.10 0.1459
831.20 0.1458
831.30 0.1457
831.40 0.1457
831.50 0.1456
831.60 0.1455
831.70 0.1455
831.80 0.1454
831.90 0.1453
832.00 0.1453
832.10 0.1452
832.20 0.1451
832.30 0.1451
832.40 0.145
832.50 0.1449
832.60 0.1449
832.70 0.1448
832.80 0.1447
832.90 0.1447
833.00 0.1446
833.10 0.1445
833.20 0.1445
833.30 0.1444
833.40 0.1443
833.50 0.1443
833.60 0.1442
833.70 0.1441
833.80 0.1441
833.90 0.144
834.00 0.1439
834.10 0.1439
834.20 0.1438
834.30 0.1437
834.40 0.1437
834.50 0.1436
834.60 0.1435
834.70 0.1435
834.80 0.1434
834.90 0.1433
835.00 0.1433
835.10 0.1432
835.20 0.1431
835.30 0.1431
835.40 0.143
835.50 0.1429
835.60 0.1429
835.70 0.1428
835.80 0.1427
835.90 0.1427
836.00 0.1426
836.10 0.1425
836.20 0.1425
836.30 0.1424
836.40 0.1423
836.50 0.1423
836.60 0.1422
836.70 0.1421
836.80 0.1421
836.90 0.142
837.00 0.1419
837.10 0.1419
837.20 0.1418
837.30 0.1417
837.40 0.1417
837.50 0.1416
837.60 0.1415
837.70 0.1415
837.80 0.1414
837.90 0.1413
838.00 0.1413
838.10 0.1412
838.20 0.1411
838.30 0.1411
838.40 0.141
838.50 0.1409
838.60 0.1409
838.70 0.1408
838.80 0.1408
838.90 0.1407
839.00 0.1406
839.10 0.1406
839.20 0.1405
839.30 0.1404
839.40 0.1404
839.50 0.1403
839.60 0.1402
839.70 0.1402
839.80 0.1401
839.90 0.14
840.00 0.14
840.10 0.1399
840.20 0.1398
840.30 0.1398
840.40 0.1397
840.50 0.1397
840.60 0.1396
840.70 0.1395
840.80 0.1395
840.90 0.1394
841.00 0.1393
841.10 0.1393
841.20 0.1392
841.30 0.1391
841.40 0.1391
841.50 0.139
841.60 0.1389
841.70 0.1389
841.80 0.1388
841.90 0.1387
842.00 0.1387
842.10 0.1386
842.20 0.1386
842.30 0.1385
842.40 0.1384
842.50 0.1384
842.60 0.1383
842.70 0.1382
842.80 0.1382
842.90 0.1381
843.00 0.138
843.10 0.138
843.20 0.1379
843.30 0.1379
843.40 0.1378
843.50 0.1377
843.60 0.1377
843.70 0.1376
843.80 0.1375
843.90 0.1375
844.00 0.1374
844.10 0.1373
844.20 0.1373
844.30 0.1372
844.40 0.1372
844.50 0.1371
844.60 0.137
844.70 0.137
844.80 0.1369
844.90 0.1368
845.00 0.1368
845.10 0.1367
845.20 0.1366
845.30 0.1366
845.40 0.1365
845.50 0.1365
845.60 0.1364
845.70 0.1363
845.80 0.1363
845.90 0.1362
846.00 0.1361
846.10 0.1361
846.20 0.136
846.30 0.136
846.40 0.1359
846.50 0.1358
846.60 0.1358
846.70 0.1357
846.80 0.1356
846.90 0.1356
847.00 0.1355
847.10 0.1355
847.20 0.1354
847.30 0.1353
847.40 0.1353
847.50 0.1352
847.60 0.1351
847.70 0.1351
847.80 0.135
847.90 0.135
848.00 0.1349
848.10 0.1348
848.20 0.1348
848.30 0.1347
848.40 0.1346
848.50 0.1346
848.60 0.1345
848.70 0.1345
848.80 0.1344
848.90 0.1343
849.00 0.1343
849.10 0.1342
849.20 0.1341
849.30 0.1341
849.40 0.134
849.50 0.134
849.60 0.1339
849.70 0.1338
849.80 0.1338
849.90 0.1337
850.00 0.1337
850.10 0.1336
850.20 0.1335
850.30 0.1335
850.40 0.1334
850.50 0.1333
850.60 0.1333
850.70 0.1332
850.80 0.1332
850.90 0.1331
851.00 0.133
851.10 0.133
851.20 0.1329
851.30 0.1329
851.40 0.1328
851.50 0.1327
851.60 0.1327
851.70 0.1326
851.80 0.1325
851.90 0.1325
852.00 0.1324
852.10 0.1324
852.20 0.1323
852.30 0.1322
852.40 0.1322
852.50 0.1321
852.60 0.1321
852.70 0.132
852.80 0.1319
852.90 0.1319
853.00 0.1318
853.10 0.1318
853.20 0.1317
853.30 0.1316
853.40 0.1316
853.50 0.1315
853.60 0.1315
853.70 0.1314
853.80 0.1313
853.90 0.1313
854.00 0.1312
854.10 0.1312
854.20 0.1311
854.30 0.131
854.40 0.131
854.50 0.1309
854.60 0.1309
854.70 0.1308
854.80 0.1307
854.90 0.1307
855.00 0.1306
855.10 0.1306
855.20 0.1305
855.30 0.1304
855.40 0.1304
855.50 0.1303
855.60 0.1303
855.70 0.1302
855.80 0.1301
855.90 0.1301
856.00 0.13
856.10 0.13
856.20 0.1299
856.30 0.1298
856.40 0.1298
856.50 0.1297
856.60 0.1297
856.70 0.1296
856.80 0.1296
856.90 0.1295
857.00 0.1294
857.10 0.1294
857.20 0.1293
857.30 0.1293
857.40 0.1292
857.50 0.1291
857.60 0.1291
857.70 0.129
857.80 0.129
857.90 0.1289
858.00 0.1289
858.10 0.1288
858.20 0.1287
858.30 0.1287
858.40 0.1286
858.50 0.1286
858.60 0.1285
858.70 0.1285
858.80 0.1284
858.90 0.1283
859.00 0.1283
859.10 0.1282
859.20 0.1282
859.30 0.1281
859.40 0.1281
859.50 0.128
859.60 0.1279
859.70 0.1279
859.80 0.1278
859.90 0.1278
860.00 0.1277
860.10 0.1277
860.20 0.1276
860.30 0.1275
860.40 0.1275
860.50 0.1274
860.60 0.1274
860.70 0.1273
860.80 0.1273
860.90 0.1272
861.00 0.1272
861.10 0.1271
861.20 0.127
861.30 0.127
861.40 0.1269
861.50 0.1269
861.60 0.1268
861.70 0.1268
861.80 0.1267
861.90 0.1266
862.00 0.1266
862.10 0.1265
862.20 0.1265
862.30 0.1264
862.40 0.1264
862.50 0.1263
862.60 0.1262
862.70 0.1262
862.80 0.1261
862.90 0.1261
863.00 0.126
863.10 0.126
863.20 0.1259
863.30 0.1258
863.40 0.1258
863.50 0.1257
863.60 0.1257
863.70 0.1256
863.80 0.1256
863.90 0.1255
864.00 0.1254
864.10 0.1254
864.20 0.1253
864.30 0.1253
864.40 0.1252
864.50 0.1252
864.60 0.1251
864.70 0.125
864.80 0.125
864.90 0.1249
865.00 0.1249
865.10 0.1248
865.20 0.1248
865.30 0.1247
865.40 0.1247
865.50 0.1246
865.60 0.1245
865.70 0.1245
865.80 0.1244
865.90 0.1244
866.00 0.1243
866.10 0.1243
866.20 0.1242
866.30 0.1241
866.40 0.1241
866.50 0.124
866.60 0.124
866.70 0.1239
866.80 0.1239
866.90 0.1238
867.00 0.1237
867.10 0.1237
867.20 0.1236
867.30 0.1236
867.40 0.1235
867.50 0.1235
867.60 0.1234
867.70 0.1234
867.80 0.1233
867.90 0.1233
868.00 0.1232
868.10 0.1231
868.20 0.1231
868.30 0.123
868.40 0.123
868.50 0.1229
868.60 0.1229
868.70 0.1228
868.80 0.1228
868.90 0.1227
869.00 0.1226
869.10 0.1226
869.20 0.1225
869.30 0.1225
869.40 0.1224
869.50 0.1224
869.60 0.1223
869.70 0.1223
869.80 0.1222
869.90 0.1222
870.00 0.1221
870.10 0.122
870.20 0.122
870.30 0.1219
870.40 0.1219
870.50 0.1218
870.60 0.1218
870.70 0.1217
870.80 0.1217
870.90 0.1216
871.00 0.1216
871.10 0.1215
871.20 0.1214
871.30 0.1214
871.40 0.1213
871.50 0.1213
871.60 0.1212
871.70 0.1212
871.80 0.1211
871.90 0.1211
872.00 0.121
872.10 0.121
872.20 0.1209
872.30 0.1209
872.40 0.1208
872.50 0.1207
872.60 0.1207
872.70 0.1206
872.80 0.1206
872.90 0.1205
873.00 0.1205
873.10 0.1204
873.20 0.1204
873.30 0.1203
873.40 0.1203
873.50 0.1202
873.60 0.1201
873.70 0.1201
873.80 0.12
873.90 0.12
874.00 0.1199
874.10 0.1199
874.20 0.1198
874.30 0.1198
874.40 0.1197
874.50 0.1197
874.60 0.1196
874.70 0.1196
874.80 0.1195
874.90 0.1195
875.00 0.1194
875.10 0.1193
875.20 0.1193
875.30 0.1192
875.40 0.1192
875.50 0.1191
875.60 0.1191
875.70 0.119
875.80 0.119
875.90 0.1189
876.00 0.1189
876.10 0.1188
876.20 0.1188
876.30 0.1187
876.40 0.1187
876.50 0.1186
876.60 0.1185
876.70 0.1185
876.80 0.1184
876.90 0.1184
877.00 0.1183
877.10 0.1183
877.20 0.1182
877.30 0.1182
877.40 0.1181
877.50 0.1181
877.60 0.118
877.70 0.118
877.80 0.1179
877.90 0.1179
878.00 0.1178
878.10 0.1178
878.20 0.1177
878.30 0.1177
878.40 0.1176
878.50 0.1176
878.60 0.1175
878.70 0.1174
878.80 0.1174
878.90 0.1173
879.00 0.1173
879.10 0.1172
879.20 0.1172
879.30 0.1171
879.40 0.1171
879.50 0.117
879.60 0.117
879.70 0.1169
879.80 0.1169
879.90 0.1168
880.00 0.1168
880.10 0.1167
880.20 0.1167
880.30 0.1166
880.40 0.1166
880.50 0.1165
880.60 0.1165
880.70 0.1164
880.80 0.1164
880.90 0.1163
881.00 0.1163
881.10 0.1162
881.20 0.1162
881.30 0.1161
881.40 0.1161
881.50 0.116
881.60 0.116
881.70 0.1159
881.80 0.1158
881.90 0.1158
882.00 0.1157
882.10 0.1157
882.20 0.1156
882.30 0.1156
882.40 0.1155
882.50 0.1155
882.60 0.1154
882.70 0.1154
882.80 0.1153
882.90 0.1153
883.00 0.1152
883.10 0.1152
883.20 0.1151
883.30 0.1151
883.40 0.115
883.50 0.115
883.60 0.1149
883.70 0.1149
883.80 0.1148
883.90 0.1148
884.00 0.1147
884.10 0.1147
884.20 0.1146
884.30 0.1146
884.40 0.1145
884.50 0.1145
884.60 0.1144
884.70 0.1144
884.80 0.1143
884.90 0.1143
885.00 0.1142
885.10 0.1142
885.20 0.1141
885.30 0.1141
885.40 0.114
885.50 0.114
885.60 0.1139
885.70 0.1139
885.80 0.1138
885.90 0.1138
886.00 0.1137
886.10 0.1137
886.20 0.1136
886.30 0.1136
886.40 0.1135
886.50 0.1135
886.60 0.1134
886.70 0.1134
886.80 0.1133
886.90 0.1133
887.00 0.1132
887.10 0.1132
887.20 0.1131
887.30 0.1131
887.40 0.113
887.50 0.113
887.60 0.1129
887.70 0.1129
887.80 0.1128
887.90 0.1128
888.00 0.1127
888.10 0.1127
888.20 0.1126
888.30 0.1126
888.40 0.1125
888.50 0.1125
888.60 0.1124
888.70 0.1124
888.80 0.1123
888.90 0.1123
889.00 0.1122
889.10 0.1122
889.20 0.1121
889.30 0.1121
889.40 0.112
889.50 0.112
889.60 0.1119
889.70 0.1119
889.80 0.1118
889.90 0.1118
890.00 0.1117
890.10 0.1117
890.20 0.1117
890.30 0.1116
890.40 0.1116
890.50 0.1115
890.60 0.1115
890.70 0.1114
890.80 0.1114
890.90 0.1113
891.00 0.1113
891.10 0.1112
891.20 0.1112
891.30 0.1111
891.40 0.1111
891.50 0.111
891.60 0.111
891.70 0.1109
891.80 0.1109
891.90 0.1108
892.00 0.1108
892.10 0.1107
892.20 0.1107
892.30 0.1106
892.40 0.1106
892.50 0.1105
892.60 0.1105
892.70 0.1104
892.80 0.1104
892.90 0.1103
893.00 0.1103
893.10 0.1102
893.20 0.1102
893.30 0.1102
893.40 0.1101
893.50 0.1101
893.60 0.11
893.70 0.11
893.80 0.1099
893.90 0.1099
894.00 0.1098
894.10 0.1098
894.20 0.1097
894.30 0.1097
894.40 0.1096
894.50 0.1096
894.60 0.1095
894.70 0.1095
894.80 0.1094
894.90 0.1094
895.00 0.1093
895.10 0.1093
895.20 0.1092
895.30 0.1092
895.40 0.1092
895.50 0.1091
895.60 0.1091
895.70 0.109
895.80 0.109
895.90 0.1089
896.00 0.1089
896.10 0.1088
896.20 0.1088
896.30 0.1087
896.40 0.1087
896.50 0.1086
896.60 0.1086
896.70 0.1085
896.80 0.1085
896.90 0.1084
897.00 0.1084
897.10 0.1084
897.20 0.1083
897.30 0.1083
897.40 0.1082
897.50 0.1082
897.60 0.1081
897.70 0.1081
897.80 0.108
897.90 0.108
898.00 0.1079
898.10 0.1079
898.20 0.1078
898.30 0.1078
898.40 0.1077
898.50 0.1077
898.60 0.1077
898.70 0.1076
898.80 0.1076
898.90 0.1075
899.00 0.1075
899.10 0.1074
899.20 0.1074
899.30 0.1073
899.40 0.1073
899.50 0.1072
899.60 0.1072
899.70 0.1071
899.80 0.1071
899.90 0.1071
900.00 0.107
900.10 0.107
900.20 0.1069
900.30 0.1069
900.40 0.1068
900.50 0.1068
900.60 0.1067
900.70 0.1067
900.80 0.1066
900.90 0.1066
901.00 0.1065
901.10 0.1065
901.20 0.1065
901.30 0.1064
901.40 0.1064
901.50 0.1063
901.60 0.1063
901.70 0.1062
901.80 0.1062
901.90 0.1061
902.00 0.1061
902.10 0.106
902.20 0.106
902.30 0.1059
902.40 0.1059
902.50 0.1059
902.60 0.1058
902.70 0.1058
902.80 0.1057
902.90 0.1057
903.00 0.1056
903.10 0.1056
903.20 0.1055
903.30 0.1055
903.40 0.1055
903.50 0.1054
903.60 0.1054
903.70 0.1053
903.80 0.1053
903.90 0.1052
904.00 0.1052
904.10 0.1051
904.20 0.1051
904.30 0.105
904.40 0.105
904.50 0.105
904.60 0.1049
904.70 0.1049
904.80 0.1048
904.90 0.1048
905.00 0.1047
905.10 0.1047
905.20 0.1046
905.30 0.1046
905.40 0.1046
905.50 0.1045
905.60 0.1045
905.70 0.1044
905.80 0.1044
905.90 0.1043
906.00 0.1043
906.10 0.1042
906.20 0.1042
906.30 0.1041
906.40 0.1041
906.50 0.1041
906.60 0.104
906.70 0.104
906.80 0.1039
906.90 0.1039
907.00 0.1038
907.10 0.1038
907.20 0.1037
907.30 0.1037
907.40 0.1037
907.50 0.1036
907.60 0.1036
907.70 0.1035
907.80 0.1035
907.90 0.1034
908.00 0.1034
908.10 0.1034
908.20 0.1033
908.30 0.1033
908.40 0.1032
908.50 0.1032
908.60 0.1031
908.70 0.1031
908.80 0.103
908.90 0.103
909.00 0.103
909.10 0.1029
909.20 0.1029
909.30 0.1028
909.40 0.1028
909.50 0.1027
909.60 0.1027
909.70 0.1027
909.80 0.1026
909.90 0.1026
910.00 0.1025
910.10 0.1025
910.20 0.1024
910.30 0.1024
910.40 0.1023
910.50 0.1023
910.60 0.1023
910.70 0.1022
910.80 0.1022
910.90 0.1021
911.00 0.1021
911.10 0.102
911.20 0.102
911.30 0.102
911.40 0.1019
911.50 0.1019
911.60 0.1018
911.70 0.1018
911.80 0.1017
911.90 0.1017
912.00 0.1017
912.10 0.1016
912.20 0.1016
912.30 0.1015
912.40 0.1015
912.50 0.1014
912.60 0.1014
912.70 0.1014
912.80 0.1013
912.90 0.1013
913.00 0.1012
913.10 0.1012
913.20 0.1011
913.30 0.1011
913.40 0.1011
913.50 0.101
913.60 0.101
913.70 0.1009
913.80 0.1009
913.90 0.1008
914.00 0.1008
914.10 0.1008
914.20 0.1007
914.30 0.1007
914.40 0.1006
914.50 0.1006
914.60 0.1005
914.70 0.1005
914.80 0.1005
914.90 0.1004
915.00 0.1004
915.10 0.1003
915.20 0.1003
915.30 0.1002
915.40 0.1002
915.50 0.1002
915.60 0.1001
915.70 0.1001
915.80 0.1
915.90 0.09999
916.00 0.09995
916.10 0.09991
916.20 0.09986
916.30 0.09982
916.40 0.09978
916.50 0.09974
916.60 0.09969
916.70 0.09965
916.80 0.09961
916.90 0.09957
917.00 0.09953
917.10 0.09948
917.20 0.09944
917.30 0.0994
917.40 0.09936
917.50 0.09932
917.60 0.09928
917.70 0.09923
917.80 0.09919
917.90 0.09915
918.00 0.09911
918.10 0.09907
918.20 0.09903
918.30 0.09898
918.40 0.09894
918.50 0.0989
918.60 0.09886
918.70 0.09882
918.80 0.09878
918.90 0.09874
919.00 0.09869
919.10 0.09865
919.20 0.09861
919.30 0.09857
919.40 0.09853
919.50 0.09849
919.60 0.09845
919.70 0.0984
919.80 0.09836
919.90 0.09832
920.00 0.09828
920.10 0.09824
920.20 0.0982
920.30 0.09816
920.40 0.09812
920.50 0.09807
920.60 0.09803
920.70 0.09799
920.80 0.09795
920.90 0.09791
921.00 0.09787
921.10 0.09783
921.20 0.09779
921.30 0.09775
921.40 0.0977
921.50 0.09766
921.60 0.09762
921.70 0.09758
921.80 0.09754
921.90 0.0975
922.00 0.09746
922.10 0.09742
922.20 0.09738
922.30 0.09734
922.40 0.0973
922.50 0.09726
922.60 0.09722
922.70 0.09718
922.80 0.09713
922.90 0.09709
923.00 0.09705
923.10 0.09701
923.20 0.09697
923.30 0.09693
923.40 0.09689
923.50 0.09685
923.60 0.09681
923.70 0.09677
923.80 0.09673
923.90 0.09669
924.00 0.09665
924.10 0.09661
924.20 0.09657
924.30 0.09653
924.40 0.09649
924.50 0.09645
924.60 0.09641
924.70 0.09637
924.80 0.09633
924.90 0.09629
925.00 0.09625
925.10 0.09621
925.20 0.09617
925.30 0.09613
925.40 0.09609
925.50 0.09605
925.60 0.09601
925.70 0.09597
925.80 0.09593
925.90 0.09589
926.00 0.09585
926.10 0.09581
926.20 0.09577
926.30 0.09573
926.40 0.09569
926.50 0.09565
926.60 0.09561
926.70 0.09557
926.80 0.09553
926.90 0.09549
927.00 0.09545
927.10 0.09541
927.20 0.09537
927.30 0.09533
927.40 0.09529
927.50 0.09526
927.60 0.09522
927.70 0.09518
927.80 0.09514
927.90 0.0951
928.00 0.09506
928.10 0.09502
928.20 0.09498
928.30 0.09494
928.40 0.0949
928.50 0.09486
928.60 0.09482
928.70 0.09478
928.80 0.09475
928.90 0.09471
929.00 0.09467
929.10 0.09463
929.20 0.09459
929.30 0.09455
929.40 0.09451
929.50 0.09447
929.60 0.09443
929.70 0.09439
929.80 0.09436
929.90 0.09432
930.00 0.09428
930.10 0.09424
930.20 0.0942
930.30 0.09416
930.40 0.09412
930.50 0.09408
930.60 0.09404
930.70 0.09401
930.80 0.09397
930.90 0.09393
931.00 0.09389
931.10 0.09385
931.20 0.09381
931.30 0.09377
931.40 0.09373
931.50 0.09369
931.60 0.09366
931.70 0.09362
931.80 0.09358
931.90 0.09354
932.00 0.0935
932.10 0.09346
932.20 0.09342
932.30 0.09339
932.40 0.09335
932.50 0.09331
932.60 0.09327
932.70 0.09323
932.80 0.09319
932.90 0.09316
933.00 0.09312
933.10 0.09308
933.20 0.09304
933.30 0.093
933.40 0.09296
933.50 0.09293
933.60 0.09289
933.70 0.09285
933.80 0.09281
933.90 0.09277
934.00 0.09273
934.10 0.0927
934.20 0.09266
934.30 0.09262
934.40 0.09258
934.50 0.09254
934.60 0.0925
934.70 0.09247
934.80 0.09243
934.90 0.09239
935.00 0.09235
935.10 0.09231
935.20 0.09228
935.30 0.09224
935.40 0.0922
935.50 0.09216
935.60 0.09212
935.70 0.09209
935.80 0.09205
935.90 0.09201
936.00 0.09197
936.10 0.09193
936.20 0.0919
936.30 0.09186
936.40 0.09182
936.50 0.09178
936.60 0.09175
936.70 0.09171
936.80 0.09167
936.90 0.09163
937.00 0.09159
937.10 0.09156
937.20 0.09152
937.30 0.09148
937.40 0.09144
937.50 0.09141
937.60 0.09137
937.70 0.09133
937.80 0.09129
937.90 0.09126
938.00 0.09122
938.10 0.09118
938.20 0.09114
938.30 0.0911
938.40 0.09107
938.50 0.09103
938.60 0.09099
938.70 0.09095
938.80 0.09092
938.90 0.09088
939.00 0.09084
939.10 0.0908
939.20 0.09077
939.30 0.09073
939.40 0.09069
939.50 0.09066
939.60 0.09062
939.70 0.09058
939.80 0.09054
939.90 0.09051
940.00 0.09047
940.10 0.09043
940.20 0.09039
940.30 0.09036
940.40 0.09032
940.50 0.09028
940.60 0.09024
940.70 0.09021
940.80 0.09017
940.90 0.09013
941.00 0.0901
941.10 0.09006
941.20 0.09002
941.30 0.08998
941.40 0.08995
941.50 0.08991
941.60 0.08987
941.70 0.08984
941.80 0.0898
941.90 0.08976
942.00 0.08973
942.10 0.08969
942.20 0.08965
942.30 0.08961
942.40 0.08958
942.50 0.08954
942.60 0.0895
942.70 0.08947
942.80 0.08943
942.90 0.08939
943.00 0.08936
943.10 0.08932
943.20 0.08928
943.30 0.08925
943.40 0.08921
943.50 0.08917
943.60 0.08914
943.70 0.0891
943.80 0.08906
943.90 0.08902
944.00 0.08899
944.10 0.08895
944.20 0.08891
944.30 0.08888
944.40 0.08884
944.50 0.0888
944.60 0.08877
944.70 0.08873
944.80 0.08869
944.90 0.08866
945.00 0.08862
945.10 0.08859
945.20 0.08855
945.30 0.08851
945.40 0.08848
945.50 0.08844
945.60 0.0884
945.70 0.08837
945.80 0.08833
945.90 0.08829
946.00 0.08826
946.10 0.08822
946.20 0.08818
946.30 0.08815
946.40 0.08811
946.50 0.08807
946.60 0.08804
946.70 0.088
946.80 0.08797
946.90 0.08793
947.00 0.08789
947.10 0.08786
947.20 0.08782
947.30 0.08778
947.40 0.08775
947.50 0.08771
947.60 0.08768
947.70 0.08764
947.80 0.0876
947.90 0.08757
948.00 0.08753
948.10 0.0875
948.20 0.08746
948.30 0.08742
948.40 0.08739
948.50 0.08735
948.60 0.08732
948.70 0.08728
948.80 0.08724
948.90 0.08721
949.00 0.08717
949.10 0.08714
949.20 0.0871
949.30 0.08707
949.40 0.08703
949.50 0.08699
949.60 0.08696
949.70 0.08692
949.80 0.08689
949.90 0.08685
950.00 0.08682
950.10 0.08678
950.20 0.08674
950.30 0.08671
950.40 0.08667
950.50 0.08664
950.60 0.0866
950.70 0.08657
950.80 0.08653
950.90 0.0865
951.00 0.08646
951.10 0.08642
951.20 0.08639
951.30 0.08635
951.40 0.08632
951.50 0.08628
951.60 0.08625
951.70 0.08621
951.80 0.08618
951.90 0.08614
952.00 0.08611
952.10 0.08607
952.20 0.08604
952.30 0.086
952.40 0.08597
952.50 0.08593
952.60 0.0859
952.70 0.08586
952.80 0.08583
952.90 0.08579
953.00 0.08576
953.10 0.08572
953.20 0.08569
953.30 0.08565
953.40 0.08562
953.50 0.08558
953.60 0.08555
953.70 0.08551
953.80 0.08548
953.90 0.08545
954.00 0.08541
954.10 0.08538
954.20 0.08534
954.30 0.08531
954.40 0.08527
954.50 0.08524
954.60 0.08521
954.70 0.08517
954.80 0.08514
954.90 0.0851
955.00 0.08507
955.10 0.08504
955.20 0.085
955.30 0.08497
955.40 0.08494
955.50 0.0849
955.60 0.08487
955.70 0.08483
955.80 0.0848
955.90 0.08477
956.00 0.08473
956.10 0.0847
956.20 0.08467
956.30 0.08463
956.40 0.0846
956.50 0.08457
956.60 0.08453
956.70 0.0845
956.80 0.08447
956.90 0.08443
957.00 0.0844
957.10 0.08437
957.20 0.08433
957.30 0.0843
957.40 0.08427
957.50 0.08423
957.60 0.0842
957.70 0.08417
957.80 0.08414
957.90 0.0841
958.00 0.08407
958.10 0.08404
958.20 0.084
958.30 0.08397
958.40 0.08394
958.50 0.08391
958.60 0.08387
958.70 0.08384
958.80 0.08381
958.90 0.08377
959.00 0.08374
959.10 0.08371
959.20 0.08368
959.30 0.08364
959.40 0.08361
959.50 0.08358
959.60 0.08355
959.70 0.08351
959.80 0.08348
959.90 0.08345
960.00 0.08342
960.10 0.08338
960.20 0.08335
960.30 0.08332
960.40 0.08328
960.50 0.08325
960.60 0.08322
960.70 0.08319
960.80 0.08316
960.90 0.08312
961.00 0.08309
961.10 0.08306
961.20 0.08303
961.30 0.08299
961.40 0.08296
961.50 0.08293
961.60 0.0829
961.70 0.08286
961.80 0.08283
961.90 0.0828
962.00 0.08277
962.10 0.08273
962.20 0.0827
962.30 0.08267
962.40 0.08264
962.50 0.08261
962.60 0.08257
962.70 0.08254
962.80 0.08251
962.90 0.08248
963.00 0.08245
963.10 0.08241
963.20 0.08238
963.30 0.08235
963.40 0.08232
963.50 0.08228
963.60 0.08225
963.70 0.08222
963.80 0.08219
963.90 0.08216
964.00 0.08212
964.10 0.08209
964.20 0.08206
964.30 0.08203
964.40 0.082
964.50 0.08196
964.60 0.08193
964.70 0.0819
964.80 0.08187
964.90 0.08184
965.00 0.0818
965.10 0.08177
965.20 0.08174
965.30 0.08171
965.40 0.08168
965.50 0.08164
965.60 0.08161
965.70 0.08158
965.80 0.08155
965.90 0.08152
966.00 0.08148
966.10 0.08145
966.20 0.08142
966.30 0.08139
966.40 0.08136
966.50 0.08133
966.60 0.08129
966.70 0.08126
966.80 0.08123
966.90 0.0812
967.00 0.08117
967.10 0.08113
967.20 0.0811
967.30 0.08107
967.40 0.08104
967.50 0.08101
967.60 0.08098
967.70 0.08094
967.80 0.08091
967.90 0.08088
968.00 0.08085
968.10 0.08082
968.20 0.08078
968.30 0.08075
968.40 0.08072
968.50 0.08069
968.60 0.08066
968.70 0.08063
968.80 0.08059
968.90 0.08056
969.00 0.08053
969.10 0.0805
969.20 0.08047
969.30 0.08044
969.40 0.0804
969.50 0.08037
969.60 0.08034
969.70 0.08031
969.80 0.08028
969.90 0.08025
970.00 0.08021
970.10 0.08018
970.20 0.08015
970.30 0.08012
970.40 0.08009
970.50 0.08006
970.60 0.08003
970.70 0.07999
970.80 0.07996
970.90 0.07993
971.00 0.0799
971.10 0.07987
971.20 0.07984
971.30 0.0798
971.40 0.07977
971.50 0.07974
971.60 0.07971
971.70 0.07968
971.80 0.07965
971.90 0.07962
972.00 0.07958
972.10 0.07955
972.20 0.07952
972.30 0.07949
972.40 0.07946
972.50 0.07943
972.60 0.0794
972.70 0.07936
972.80 0.07933
972.90 0.0793
973.00 0.07927
973.10 0.07924
973.20 0.07921
973.30 0.07917
973.40 0.07914
973.50 0.07911
973.60 0.07908
973.70 0.07905
973.80 0.07902
973.90 0.07899
974.00 0.07896
974.10 0.07892
974.20 0.07889
974.30 0.07886
974.40 0.07883
974.50 0.0788
974.60 0.07877
974.70 0.07874
974.80 0.0787
974.90 0.07867
975.00 0.07864
975.10 0.07861
975.20 0.07858
975.30 0.07855
975.40 0.07852
975.50 0.07848
975.60 0.07845
975.70 0.07842
975.80 0.07839
975.90 0.07836
976.00 0.07833
976.10 0.0783
976.20 0.07827
976.30 0.07823
976.40 0.0782
976.50 0.07817
976.60 0.07814
976.70 0.07811
976.80 0.07808
976.90 0.07805
977.00 0.07802
977.10 0.07798
977.20 0.07795
977.30 0.07792
977.40 0.07789
977.50 0.07786
977.60 0.07783
977.70 0.0778
977.80 0.07776
977.90 0.07773
978.00 0.0777
978.10 0.07767
978.20 0.07764
978.30 0.07761
978.40 0.07758
978.50 0.07755
978.60 0.07751
978.70 0.07748
978.80 0.07745
978.90 0.07742
979.00 0.07739
979.10 0.07736
979.20 0.07733
979.30 0.0773
979.40 0.07726
979.50 0.07723
979.60 0.0772
979.70 0.07717
979.80 0.07714
979.90 0.07711
980.00 0.07708
980.10 0.07705
980.20 0.07702
980.30 0.07698
980.40 0.07695
980.50 0.07692
980.60 0.07689
980.70 0.07686
980.80 0.07683
980.90 0.0768
981.00 0.07677
981.10 0.07674
981.20 0.0767
981.30 0.07667
981.40 0.07664
981.50 0.07661
981.60 0.07658
981.70 0.07655
981.80 0.07652
981.90 0.07649
982.00 0.07646
982.10 0.07643
982.20 0.0764
982.30 0.07636
982.40 0.07633
982.50 0.0763
982.60 0.07627
982.70 0.07624
982.80 0.07621
982.90 0.07618
983.00 0.07615
983.10 0.07611
983.20 0.07608
983.30 0.07605
983.40 0.07602
983.50 0.07599
983.60 0.07596
983.70 0.07593
983.80 0.0759
983.90 0.07587
984.00 0.07584
984.10 0.0758
984.20 0.07577
984.30 0.07574
984.40 0.07571
984.50 0.07568
984.60 0.07565
984.70 0.07562
984.80 0.07559
984.90 0.07556
985.00 0.07553
985.10 0.07549
985.20 0.07546
985.30 0.07543
985.40 0.0754
985.50 0.07537
985.60 0.07534
985.70 0.07531
985.80 0.07528
985.90 0.07525
986.00 0.07522
986.10 0.07518
986.20 0.07515
986.30 0.07512
986.40 0.07509
986.50 0.07506
986.60 0.07503
986.70 0.075
986.80 0.07497
986.90 0.07494
987.00 0.07491
987.10 0.07488
987.20 0.07484
987.30 0.07481
987.40 0.07478
987.50 0.07475
987.60 0.07472
987.70 0.07469
987.80 0.07466
987.90 0.07463
988.00 0.0746
988.10 0.07457
988.20 0.07454
988.30 0.0745
988.40 0.07447
988.50 0.07444
988.60 0.07441
988.70 0.07438
988.80 0.07435
988.90 0.07432
989.00 0.07429
989.10 0.07426
989.20 0.07423
989.30 0.07419
989.40 0.07416
989.50 0.07413
989.60 0.0741
989.70 0.07407
989.80 0.07404
989.90 0.07401
990.00 0.07398
990.10 0.07395
990.20 0.07392
990.30 0.07389
990.40 0.07386
990.50 0.07382
990.60 0.07379
990.70 0.07376
990.80 0.07373
990.90 0.0737
991.00 0.07367
991.10 0.07364
991.20 0.07361
991.30 0.07358
991.40 0.07355
991.50 0.07352
991.60 0.07349
991.70 0.07345
991.80 0.07342
991.90 0.07339
992.00 0.07336
992.10 0.07333
992.20 0.0733
992.30 0.07327
992.40 0.07324
992.50 0.07321
992.60 0.07318
992.70 0.07315
992.80 0.07312
992.90 0.07309
993.00 0.07305
993.10 0.07302
993.20 0.07299
993.30 0.07296
993.40 0.07293
993.50 0.0729
993.60 0.07287
993.70 0.07284
993.80 0.07281
993.90 0.07278
994.00 0.07275
994.10 0.07272
994.20 0.07269
994.30 0.07266
994.40 0.07263
994.50 0.07259
994.60 0.07256
994.70 0.07253
994.80 0.0725
994.90 0.07247
995.00 0.07244
995.10 0.07241
995.20 0.07238
995.30 0.07235
995.40 0.07232
995.50 0.07229
995.60 0.07226
995.70 0.07223
995.80 0.0722
995.90 0.07217
996.00 0.07214
996.10 0.07211
996.20 0.07208
996.30 0.07204
996.40 0.07201
996.50 0.07198
996.60 0.07195
996.70 0.07192
996.80 0.07189
996.90 0.07186
997.00 0.07183
997.10 0.0718
997.20 0.07177
997.30 0.07174
997.40 0.07171
997.50 0.07168
997.60 0.07165
997.70 0.07162
997.80 0.07159
997.90 0.07156
998.00 0.07153
998.10 0.0715
998.20 0.07147
998.30 0.07144
998.40 0.07141
998.50 0.07138
998.60 0.07135
998.70 0.07132
998.80 0.07129
998.90 0.07126
999.00 0.07123
999.10 0.0712
999.20 0.07117
999.30 0.07114
999.40 0.07111
999.50 0.07108
999.60 0.07105
999.70 0.07102
999.80 0.07099
999.90 0.07096
1000.00 0.07093
1000.10 0.0709
1000.20 0.07087
1000.30 0.07084
1000.40 0.07081
1000.50 0.07078
1000.60 0.07075
1000.70 0.07072
1000.80 0.07069
1000.90 0.07066
1001.00 0.07063
1001.10 0.0706
1001.20 0.07057
1001.30 0.07054
1001.40 0.07051
1001.50 0.07048
1001.60 0.07045
1001.70 0.07042
1001.80 0.0704
1001.90 0.07037
1002.00 0.07034
1002.10 0.07031
1002.20 0.07028
1002.30 0.07026
1002.40 0.07023
1002.50 0.0702
1002.60 0.07017
1002.70 0.07015
1002.80 0.07012
1002.90 0.07009
1003.00 0.07006
1003.10 0.07004
1003.20 0.07001
1003.30 0.06998
1003.40 0.06996
1003.50 0.06993
1003.60 0.0699
1003.70 0.06988
1003.80 0.06985
1003.90 0.06983
1004.00 0.0698
1004.10 0.06977
1004.20 0.06975
1004.30 0.06972
1004.40 0.0697
1004.50 0.06967
1004.60 0.06965
1004.70 0.06962
1004.80 0.0696
1004.90 0.06957
1005.00 0.06955
1005.10 0.06952
1005.20 0.06949
1005.30 0.06946
1005.40 0.06944
1005.50 0.06941
1005.60 0.06938
1005.70 0.06936
1005.80 0.06933
1005.90 0.0693
1006.00 0.06927
1006.10 0.06925
1006.20 0.06922
1006.30 0.06919
1006.40 0.06917
1006.50 0.06914
1006.60 0.06912
1006.70 0.06909
1006.80 0.06906
1006.90 0.06904
1007.00 0.06901
1007.10 0.06899
1007.20 0.06896
1007.30 0.06894
1007.40 0.06891
1007.50 0.06889
1007.60 0.06886
1007.70 0.06884
1007.80 0.06881
1007.90 0.06879
1008.00 0.06877
1008.10 0.06874
1008.20 0.06872
1008.30 0.06869
1008.40 0.06867
1008.50 0.06865
1008.60 0.06862
1008.70 0.0686
1008.80 0.06857
1008.90 0.06855
1009.00 0.06853
1009.10 0.0685
1009.20 0.06848
1009.30 0.06845
1009.40 0.06843
1009.50 0.06841
1009.60 0.06838
1009.70 0.06836
1009.80 0.06834
1009.90 0.06831
1010.00 0.06829
1010.10 0.06827
1010.20 0.06824
1010.30 0.06822
1010.40 0.0682
1010.50 0.06817
1010.60 0.06815
1010.70 0.06813
1010.80 0.0681
1010.90 0.06808
1011.00 0.06806
1011.10 0.06803
1011.20 0.06801
1011.30 0.06799
1011.40 0.06797
1011.50 0.06794
1011.60 0.06792
1011.70 0.0679
1011.80 0.06787
1011.90 0.06785
1012.00 0.06783
1012.10 0.06781
1012.20 0.06778
1012.30 0.06776
1012.40 0.06774
1012.50 0.06771
1012.60 0.06769
1012.70 0.06767
1012.80 0.06765
1012.90 0.06762
1013.00 0.0676
1013.10 0.06758
1013.20 0.06756
1013.30 0.06753
1013.40 0.06751
1013.50 0.06749
1013.60 0.06746
1013.70 0.06744
1013.80 0.06742
1013.90 0.0674
1014.00 0.06737
1014.10 0.06735
1014.20 0.06733
1014.30 0.06731
1014.40 0.06728
1014.50 0.06726
1014.60 0.06724
1014.70 0.06722
1014.80 0.06719
1014.90 0.06717
1015.00 0.06715
1015.10 0.06713
1015.20 0.0671
1015.30 0.06708
1015.40 0.06706
1015.50 0.06704
1015.60 0.06701
1015.70 0.06699
1015.80 0.06697
1015.90 0.06694
1016.00 0.06692
1016.10 0.0669
1016.20 0.06688
1016.30 0.06685
1016.40 0.06683
1016.50 0.06681
1016.60 0.06679
1016.70 0.06676
1016.80 0.06674
1016.90 0.06672
1017.00 0.0667
1017.10 0.06667
1017.20 0.06665
1017.30 0.06663
1017.40 0.06661
1017.50 0.06658
1017.60 0.06656
1017.70 0.06654
1017.80 0.06652
1017.90 0.06649
1018.00 0.06647
1018.10 0.06645
1018.20 0.06643
1018.30 0.0664
1018.40 0.06638
1018.50 0.06636
1018.60 0.06634
1018.70 0.06631
1018.80 0.06629
1018.90 0.06627
1019.00 0.06625
1019.10 0.06622
1019.20 0.0662
1019.30 0.06618
1019.40 0.06615
1019.50 0.06613
1019.60 0.06611
1019.70 0.06609
1019.80 0.06606
1019.90 0.06604
1020.00 0.06602
1020.10 0.066
1020.20 0.06597
1020.30 0.06595
1020.40 0.06593
1020.50 0.06591
1020.60 0.06588
1020.70 0.06586
1020.80 0.06584
1020.90 0.06582
1021.00 0.06579
1021.10 0.06577
1021.20 0.06575
1021.30 0.06573
1021.40 0.0657
1021.50 0.06568
1021.60 0.06566
1021.70 0.06564
1021.80 0.06561
1021.90 0.06559
1022.00 0.06557
1022.10 0.06554
1022.20 0.06552
1022.30 0.0655
1022.40 0.06548
1022.50 0.06545
1022.60 0.06543
1022.70 0.06541
1022.80 0.06539
1022.90 0.06536
1023.00 0.06534
1023.10 0.06532
1023.20 0.0653
1023.30 0.06527
1023.40 0.06525
1023.50 0.06523
1023.60 0.0652
1023.70 0.06518
1023.80 0.06516
1023.90 0.06514
1024.00 0.06511
1024.10 0.06509
1024.20 0.06507
1024.30 0.06505
1024.40 0.06502
1024.50 0.065
1024.60 0.06498
1024.70 0.06496
1024.80 0.06493
1024.90 0.06491
1025.00 0.06489
1025.10 0.06486
1025.20 0.06484
1025.30 0.06482
1025.40 0.0648
1025.50 0.06477
1025.60 0.06475
1025.70 0.06473
1025.80 0.06471
1025.90 0.06468
1026.00 0.06466
1026.10 0.06464
1026.20 0.06461
1026.30 0.06459
1026.40 0.06457
1026.50 0.06455
1026.60 0.06452
1026.70 0.0645
1026.80 0.06448
1026.90 0.06446
1027.00 0.06443
1027.10 0.06441
1027.20 0.06439
1027.30 0.06437
1027.40 0.06434
1027.50 0.06432
1027.60 0.0643
1027.70 0.06427
1027.80 0.06425
1027.90 0.06423
1028.00 0.0642
1028.10 0.06418
1028.20 0.06416
1028.30 0.06414
1028.40 0.06411
1028.50 0.06409
1028.60 0.06407
1028.70 0.06405
1028.80 0.06402
1028.90 0.064
1029.00 0.06398
1029.10 0.06395
1029.20 0.06393
1029.30 0.06391
1029.40 0.06389
1029.50 0.06386
1029.60 0.06384
1029.70 0.06382
1029.80 0.06379
1029.90 0.06377
1030.00 0.06375
1030.10 0.06373
1030.20 0.0637
1030.30 0.06368
1030.40 0.06366
1030.50 0.06364
1030.60 0.06361
1030.70 0.06359
1030.80 0.06357
1030.90 0.06355
1031.00 0.06352
1031.10 0.0635
1031.20 0.06348
1031.30 0.06345
1031.40 0.06343
1031.50 0.06341
1031.60 0.06339
1031.70 0.06336
1031.80 0.06334
1031.90 0.06332
1032.00 0.0633
1032.10 0.06327
1032.20 0.06325
1032.30 0.06323
1032.40 0.06321
1032.50 0.06318
1032.60 0.06316
1032.70 0.06314
1032.80 0.06311
1032.90 0.06309
1033.00 0.06307
1033.10 0.06305
1033.20 0.06302
1033.30 0.063
1033.40 0.06298
1033.50 0.06295
1033.60 0.06293
1033.70 0.06291
1033.80 0.06289
1033.90 0.06286
1034.00 0.06284
1034.10 0.06282
1034.20 0.06279
1034.30 0.06277
1034.40 0.06275
1034.50 0.06273
1034.60 0.0627
1034.70 0.06268
1034.80 0.06266
1034.90 0.06264
1035.00 0.06261
1035.10 0.06259
1035.20 0.06257
1035.30 0.06254
1035.40 0.06252
1035.50 0.0625
1035.60 0.06248
1035.70 0.06245
1035.80 0.06243
1035.90 0.06241
1036.00 0.06239
1036.10 0.06236
1036.20 0.06234
1036.30 0.06232
1036.40 0.0623
1036.50 0.06227
1036.60 0.06225
1036.70 0.06223
1036.80 0.06221
1036.90 0.06218
1037.00 0.06216
1037.10 0.06214
1037.20 0.06211
1037.30 0.06209
1037.40 0.06207
1037.50 0.06205
1037.60 0.06202
1037.70 0.062
1037.80 0.06198
1037.90 0.06196
1038.00 0.06193
1038.10 0.06191
1038.20 0.06189
1038.30 0.06186
1038.40 0.06184
1038.50 0.06182
1038.60 0.0618
1038.70 0.06177
1038.80 0.06175
1038.90 0.06173
1039.00 0.06171
1039.10 0.06168
1039.20 0.06166
1039.30 0.06164
1039.40 0.06161
1039.50 0.06159
1039.60 0.06157
1039.70 0.06155
1039.80 0.06152
1039.90 0.0615
1040.00 0.06148
1040.10 0.06146
1040.20 0.06143
1040.30 0.06141
1040.40 0.06139
1040.50 0.06137
1040.60 0.06134
1040.70 0.06132
1040.80 0.0613
1040.90 0.06128
1041.00 0.06125
1041.10 0.06123
1041.20 0.06121
1041.30 0.06119
1041.40 0.06116
1041.50 0.06114
1041.60 0.06112
1041.70 0.0611
1041.80 0.06107
1041.90 0.06105
1042.00 0.06103
1042.10 0.06101
1042.20 0.06098
1042.30 0.06096
1042.40 0.06094
1042.50 0.06091
1042.60 0.06089
1042.70 0.06087
1042.80 0.06085
1042.90 0.06082
1043.00 0.0608
1043.10 0.06078
1043.20 0.06076
1043.30 0.06073
1043.40 0.06071
1043.50 0.06069
1043.60 0.06066
1043.70 0.06064
1043.80 0.06062
1043.90 0.0606
1044.00 0.06057
1044.10 0.06055
1044.20 0.06053
1044.30 0.06051
1044.40 0.06048
1044.50 0.06046
1044.60 0.06044
1044.70 0.06042
1044.80 0.06039
1044.90 0.06037
1045.00 0.06035
1045.10 0.06033
1045.20 0.0603
1045.30 0.06028
1045.40 0.06026
1045.50 0.06024
1045.60 0.06021
1045.70 0.06019
1045.80 0.06017
1045.90 0.06015
1046.00 0.06012
1046.10 0.0601
1046.20 0.06008
1046.30 0.06006
1046.40 0.06003
1046.50 0.06001
1046.60 0.05999
1046.70 0.05997
1046.80 0.05994
1046.90 0.05992
1047.00 0.0599
1047.10 0.05988
1047.20 0.05985
1047.30 0.05983
1047.40 0.05981
1047.50 0.05979
1047.60 0.05976
1047.70 0.05974
1047.80 0.05972
1047.90 0.0597
1048.00 0.05967
1048.10 0.05965
1048.20 0.05963
1048.30 0.05961
1048.40 0.05958
1048.50 0.05956
1048.60 0.05954
1048.70 0.05952
1048.80 0.05949
1048.90 0.05947
1049.00 0.05945
1049.10 0.05942
1049.20 0.0594
1049.30 0.05938
1049.40 0.05936
1049.50 0.05933
1049.60 0.05931
1049.70 0.05929
1049.80 0.05927
1049.90 0.05925
1050.00 0.05922
1050.10 0.0592
1050.20 0.05918
1050.30 0.05916
1050.40 0.05913
1050.50 0.05911
1050.60 0.05909
1050.70 0.05907
1050.80 0.05904
1050.90 0.05902
1051.00 0.059
1051.10 0.05898
1051.20 0.05895
1051.30 0.05893
1051.40 0.05891
1051.50 0.05889
1051.60 0.05886
1051.70 0.05884
1051.80 0.05882
1051.90 0.0588
1052.00 0.05878
1052.10 0.05875
1052.20 0.05873
1052.30 0.05871
1052.40 0.05868
1052.50 0.05866
1052.60 0.05864
1052.70 0.05862
1052.80 0.05859
1052.90 0.05857
1053.00 0.05855
1053.10 0.05853
1053.20 0.0585
1053.30 0.05848
1053.40 0.05846
1053.50 0.05844
1053.60 0.05841
1053.70 0.05839
1053.80 0.05837
1053.90 0.05835
1054.00 0.05832
1054.10 0.0583
1054.20 0.05828
1054.30 0.05826
1054.40 0.05823
1054.50 0.05821
1054.60 0.05819
1054.70 0.05817
1054.80 0.05814
1054.90 0.05812
1055.00 0.0581
1055.10 0.05808
1055.20 0.05805
1055.30 0.05803
1055.40 0.05801
1055.50 0.05799
1055.60 0.05797
1055.70 0.05794
1055.80 0.05792
1055.90 0.0579
1056.00 0.05788
1056.10 0.05785
1056.20 0.05783
1056.30 0.05781
1056.40 0.05779
1056.50 0.05776
1056.60 0.05774
1056.70 0.05772
1056.80 0.0577
1056.90 0.05768
1057.00 0.05765
1057.10 0.05763
1057.20 0.05761
1057.30 0.05759
1057.40 0.05756
1057.50 0.05754
1057.60 0.05752
1057.70 0.05749
1057.80 0.05747
1057.90 0.05745
1058.00 0.05743
1058.10 0.0574
1058.20 0.05738
1058.30 0.05736
1058.40 0.05734
1058.50 0.05731
1058.60 0.05729
1058.70 0.05727
1058.80 0.05725
1058.90 0.05722
1059.00 0.0572
1059.10 0.05718
1059.20 0.05716
1059.30 0.05713
1059.40 0.05711
1059.50 0.05709
1059.60 0.05707
1059.70 0.05704
1059.80 0.05702
1059.90 0.057
1060.00 0.05698
1060.10 0.05695
1060.20 0.05693
1060.30 0.05691
1060.40 0.05689
1060.50 0.05686
1060.60 0.05684
1060.70 0.05682
1060.80 0.0568
1060.90 0.05677
1061.00 0.05675
1061.10 0.05673
1061.20 0.05671
1061.30 0.05669
1061.40 0.05666
1061.50 0.05664
1061.60 0.05662
1061.70 0.0566
1061.80 0.05657
1061.90 0.05655
1062.00 0.05653
1062.10 0.05651
1062.20 0.05648
1062.30 0.05646
1062.40 0.05644
1062.50 0.05642
1062.60 0.05639
1062.70 0.05637
1062.80 0.05635
1062.90 0.05632
1063.00 0.0563
1063.10 0.05628
1063.20 0.05626
1063.30 0.05623
1063.40 0.05621
1063.50 0.05619
1063.60 0.05617
1063.70 0.05614
1063.80 0.05612
1063.90 0.0561
1064.00 0.05607
1064.10 0.05605
1064.20 0.05603
1064.30 0.05601
1064.40 0.05598
1064.50 0.05596
1064.60 0.05594
1064.70 0.05592
1064.80 0.05589
1064.90 0.05587
1065.00 0.05585
1065.10 0.05583
1065.20 0.0558
1065.30 0.05578
1065.40 0.05576
1065.50 0.05574
1065.60 0.05571
1065.70 0.05569
1065.80 0.05567
1065.90 0.05565
1066.00 0.05562
1066.10 0.0556
1066.20 0.05558
1066.30 0.05556
1066.40 0.05553
1066.50 0.05551
1066.60 0.05549
1066.70 0.05547
1066.80 0.05544
1066.90 0.05542
1067.00 0.0554
1067.10 0.05538
1067.20 0.05535
1067.30 0.05533
1067.40 0.05531
1067.50 0.05528
1067.60 0.05526
1067.70 0.05524
1067.80 0.05521
1067.90 0.05519
1068.00 0.05517
1068.10 0.05515
1068.20 0.05512
1068.30 0.0551
1068.40 0.05508
1068.50 0.05505
1068.60 0.05503
1068.70 0.05501
1068.80 0.05498
1068.90 0.05496
1069.00 0.05494
1069.10 0.05492
1069.20 0.05489
1069.30 0.05487
1069.40 0.05485
1069.50 0.05482
1069.60 0.0548
1069.70 0.05478
1069.80 0.05476
1069.90 0.05473
1070.00 0.05471
1070.10 0.05469
1070.20 0.05466
1070.30 0.05464
1070.40 0.05462
1070.50 0.0546
1070.60 0.05457
1070.70 0.05455
1070.80 0.05453
1070.90 0.0545
1071.00 0.05448
1071.10 0.05446
1071.20 0.05444
1071.30 0.05441
1071.40 0.05439
1071.50 0.05437
1071.60 0.05434
1071.70 0.05432
1071.80 0.0543
1071.90 0.05428
1072.00 0.05425
1072.10 0.05423
1072.20 0.05421
1072.30 0.05418
1072.40 0.05416
1072.50 0.05414
1072.60 0.05411
1072.70 0.05409
1072.80 0.05407
1072.90 0.05405
1073.00 0.05402
1073.10 0.054
1073.20 0.05398
1073.30 0.05395
1073.40 0.05393
1073.50 0.05391
1073.60 0.05388
1073.70 0.05386
1073.80 0.05384
1073.90 0.05381
1074.00 0.05379
1074.10 0.05377
1074.20 0.05374
1074.30 0.05372
1074.40 0.05369
1074.50 0.05367
1074.60 0.05365
1074.70 0.05362
1074.80 0.0536
1074.90 0.05358
1075.00 0.05355
1075.10 0.05353
1075.20 0.05351
1075.30 0.05348
1075.40 0.05346
1075.50 0.05344
1075.60 0.05341
1075.70 0.05339
1075.80 0.05337
1075.90 0.05334
1076.00 0.05332
1076.10 0.0533
1076.20 0.05327
1076.30 0.05325
1076.40 0.05323
1076.50 0.0532
1076.60 0.05318
1076.70 0.05316
1076.80 0.05313
1076.90 0.05311
1077.00 0.05309
1077.10 0.05306
1077.20 0.05304
1077.30 0.05302
1077.40 0.05299
1077.50 0.05297
1077.60 0.05295
1077.70 0.05292
1077.80 0.0529
1077.90 0.05287
1078.00 0.05285
1078.10 0.05283
1078.20 0.0528
1078.30 0.05278
1078.40 0.05276
1078.50 0.05273
1078.60 0.05271
1078.70 0.05268
1078.80 0.05266
1078.90 0.05264
1079.00 0.05261
1079.10 0.05259
1079.20 0.05257
1079.30 0.05254
1079.40 0.05252
1079.50 0.05249
1079.60 0.05247
1079.70 0.05245
1079.80 0.05242
1079.90 0.0524
1080.00 0.05237
1080.10 0.05235
1080.20 0.05233
1080.30 0.0523
1080.40 0.05228
1080.50 0.05225
1080.60 0.05223
1080.70 0.05221
1080.80 0.05218
1080.90 0.05216
1081.00 0.05213
1081.10 0.05211
1081.20 0.05209
1081.30 0.05206
1081.40 0.05204
1081.50 0.05201
1081.60 0.05199
1081.70 0.05197
1081.80 0.05194
1081.90 0.05192
1082.00 0.05189
1082.10 0.05187
1082.20 0.05185
1082.30 0.05182
1082.40 0.0518
1082.50 0.05177
1082.60 0.05175
1082.70 0.05172
1082.80 0.0517
1082.90 0.05168
1083.00 0.05165
1083.10 0.05163
1083.20 0.0516
1083.30 0.05158
1083.40 0.05156
1083.50 0.05153
1083.60 0.05151
1083.70 0.05148
1083.80 0.05146
1083.90 0.05143
1084.00 0.05141
1084.10 0.05138
1084.20 0.05136
1084.30 0.05134
1084.40 0.05131
1084.50 0.05129
1084.60 0.05126
1084.70 0.05124
1084.80 0.05121
1084.90 0.05119
1085.00 0.05116
1085.10 0.05114
1085.20 0.05111
1085.30 0.05109
1085.40 0.05107
1085.50 0.05104
1085.60 0.05102
1085.70 0.05099
1085.80 0.05097
1085.90 0.05094
1086.00 0.05092
1086.10 0.05089
1086.20 0.05087
1086.30 0.05084
1086.40 0.05082
1086.50 0.0508
1086.60 0.05077
1086.70 0.05075
1086.80 0.05072
1086.90 0.0507
1087.00 0.05067
1087.10 0.05065
1087.20 0.05062
1087.30 0.0506
1087.40 0.05057
1087.50 0.05055
1087.60 0.05052
1087.70 0.0505
1087.80 0.05047
1087.90 0.05045
1088.00 0.05042
1088.10 0.0504
1088.20 0.05037
1088.30 0.05035
1088.40 0.05032
1088.50 0.0503
1088.60 0.05027
1088.70 0.05024
1088.80 0.05022
1088.90 0.05019
1089.00 0.05017
1089.10 0.05014
1089.20 0.05012
1089.30 0.05009
1089.40 0.05007
1089.50 0.05004
1089.60 0.05001
1089.70 0.04999
1089.80 0.04996
1089.90 0.04994
1090.00 0.04991
1090.10 0.04989
1090.20 0.04986
1090.30 0.04983
1090.40 0.04981
1090.50 0.04978
1090.60 0.04976
1090.70 0.04973
1090.80 0.0497
1090.90 0.04968
1091.00 0.04965
1091.10 0.04962
1091.20 0.0496
1091.30 0.04957
1091.40 0.04954
1091.50 0.04952
1091.60 0.04949
1091.70 0.04946
1091.80 0.04944
1091.90 0.04941
1092.00 0.04938
1092.10 0.04935
1092.20 0.04933
1092.30 0.0493
1092.40 0.04927
1092.50 0.04924
1092.60 0.04922
1092.70 0.04919
1092.80 0.04916
1092.90 0.04913
1093.00 0.04911
1093.10 0.04908
1093.20 0.04905
1093.30 0.04902
1093.40 0.049
1093.50 0.04897
1093.60 0.04895
1093.70 0.04893
1093.80 0.04891
1093.90 0.0489
1094.00 0.0489
1094.10 0.0489
1094.20 0.04889
1094.30 0.04889
1094.40 0.04888
1094.50 0.04888
1094.60 0.04887
1094.70 0.04886
1094.80 0.04886
1094.90 0.04885
1095.00 0.04885
1095.10 0.04884
1095.20 0.04883
1095.30 0.04882
1095.40 0.04882
1095.50 0.04881
1095.60 0.0488
1095.70 0.0488
1095.80 0.04879
1095.90 0.04878
1096.00 0.04878
1096.10 0.04877
1096.20 0.04876
1096.30 0.04876
1096.40 0.04875
1096.50 0.04874
1096.60 0.04873
1096.70 0.04873
1096.80 0.04872
1096.90 0.04871
1097.00 0.0487
1097.10 0.04869
1097.20 0.04868
1097.30 0.04868
1097.40 0.04867
1097.50 0.04866
1097.60 0.04865
1097.70 0.04864
1097.80 0.04863
1097.90 0.04862
1098.00 0.04862
1098.10 0.04861
1098.20 0.0486
1098.30 0.04859
1098.40 0.04858
1098.50 0.04857
1098.60 0.04856
1098.70 0.04855
1098.80 0.04854
1098.90 0.04853
1099.00 0.04852
1099.10 0.04851
1099.20 0.0485
1099.30 0.04849
1099.40 0.04848
1099.50 0.04847
1099.60 0.04846
1099.70 0.04846
1099.80 0.04845
1099.90 0.04844
1100.00 0.04843
1100.10 0.04842
1100.20 0.04841
1100.30 0.0484
1100.40 0.04839
1100.50 0.04838
1100.60 0.04837
1100.70 0.04836
1100.80 0.04835
1100.90 0.04834
1101.00 0.04833
1101.10 0.04832
1101.20 0.04831
1101.30 0.0483
1101.40 0.04829
1101.50 0.04828
1101.60 0.04826
1101.70 0.04825
1101.80 0.04824
1101.90 0.04823
1102.00 0.04822
1102.10 0.04821
1102.20 0.0482
1102.30 0.04819
1102.40 0.04818
1102.50 0.04817
1102.60 0.04816
1102.70 0.04815
1102.80 0.04814
1102.90 0.04813
1103.00 0.04812
1103.10 0.04811
1103.20 0.0481
1103.30 0.04809
1103.40 0.04807
1103.50 0.04806
1103.60 0.04805
1103.70 0.04804
1103.80 0.04803
1103.90 0.04802
1104.00 0.04801
1104.10 0.048
1104.20 0.04799
1104.30 0.04797
1104.40 0.04796
1104.50 0.04795
1104.60 0.04794
1104.70 0.04793
1104.80 0.04792
1104.90 0.04791
1105.00 0.0479
1105.10 0.04789
1105.20 0.04788
1105.30 0.04786
1105.40 0.04785
1105.50 0.04784
1105.60 0.04783
1105.70 0.04782
1105.80 0.04781
1105.90 0.0478
1106.00 0.04778
1106.10 0.04777
1106.20 0.04776
1106.30 0.04775
1106.40 0.04774
1106.50 0.04773
1106.60 0.04772
1106.70 0.0477
1106.80 0.04769
1106.90 0.04768
1107.00 0.04767
1107.10 0.04766
1107.20 0.04765
1107.30 0.04763
1107.40 0.04762
1107.50 0.04761
1107.60 0.0476
1107.70 0.04759
1107.80 0.04758
1107.90 0.04756
1108.00 0.04755
1108.10 0.04754
1108.20 0.04753
1108.30 0.04752
1108.40 0.0475
1108.50 0.04749
1108.60 0.04748
1108.70 0.04747
1108.80 0.04746
1108.90 0.04744
1109.00 0.04743
1109.10 0.04742
1109.20 0.04741
1109.30 0.0474
1109.40 0.04738
1109.50 0.04737
1109.60 0.04736
1109.70 0.04735
1109.80 0.04734
1109.90 0.04732
1110.00 0.04731
1110.10 0.0473
1110.20 0.04729
1110.30 0.04727
1110.40 0.04726
1110.50 0.04725
1110.60 0.04724
1110.70 0.04722
1110.80 0.04721
1110.90 0.0472
1111.00 0.04719
1111.10 0.04718
1111.20 0.04716
1111.30 0.04715
1111.40 0.04714
1111.50 0.04713
1111.60 0.04711
1111.70 0.0471
1111.80 0.04709
1111.90 0.04708
1112.00 0.04706
1112.10 0.04705
1112.20 0.04704
1112.30 0.04703
1112.40 0.04701
1112.50 0.047
1112.60 0.04699
1112.70 0.04698
1112.80 0.04696
1112.90 0.04695
1113.00 0.04694
1113.10 0.04692
1113.20 0.04691
1113.30 0.0469
1113.40 0.04689
1113.50 0.04687
1113.60 0.04686
1113.70 0.04685
1113.80 0.04683
1113.90 0.04682
1114.00 0.04681
1114.10 0.0468
1114.20 0.04678
1114.30 0.04677
1114.40 0.04676
1114.50 0.04674
1114.60 0.04673
1114.70 0.04672
1114.80 0.0467
1114.90 0.04669
1115.00 0.04668
1115.10 0.04666
1115.20 0.04665
1115.30 0.04664
1115.40 0.04663
1115.50 0.04661
1115.60 0.0466
1115.70 0.04659
1115.80 0.04657
1115.90 0.04656
1116.00 0.04655
1116.10 0.04653
1116.20 0.04652
1116.30 0.04651
1116.40 0.04649
1116.50 0.04648
1116.60 0.04647
1116.70 0.04646
1116.80 0.04644
1116.90 0.04643
1117.00 0.04642
1117.10 0.0464
1117.20 0.04639
1117.30 0.04638
1117.40 0.04636
1117.50 0.04635
1117.60 0.04633
1117.70 0.04632
1117.80 0.04631
1117.90 0.04629
1118.00 0.04628
1118.10 0.04627
1118.20 0.04625
1118.30 0.04624
1118.40 0.04623
1118.50 0.04621
1118.60 0.0462
1118.70 0.04619
1118.80 0.04617
1118.90 0.04616
1119.00 0.04614
1119.10 0.04613
1119.20 0.04612
1119.30 0.0461
1119.40 0.04609
1119.50 0.04608
1119.60 0.04606
1119.70 0.04605
1119.80 0.04604
1119.90 0.04602
1120.00 0.04601
1120.10 0.046
1120.20 0.04598
1120.30 0.04597
1120.40 0.04595
1120.50 0.04594
1120.60 0.04593
1120.70 0.04591
1120.80 0.0459
1120.90 0.04589
1121.00 0.04587
1121.10 0.04586
1121.20 0.04585
1121.30 0.04583
1121.40 0.04582
1121.50 0.04581
1121.60 0.04579
1121.70 0.04578
1121.80 0.04577
1121.90 0.04575
1122.00 0.04574
1122.10 0.04572
1122.20 0.04571
1122.30 0.0457
1122.40 0.04568
1122.50 0.04567
1122.60 0.04565
1122.70 0.04564
1122.80 0.04563
1122.90 0.04561
1123.00 0.0456
1123.10 0.04558
1123.20 0.04557
1123.30 0.04556
1123.40 0.04554
1123.50 0.04553
1123.60 0.04551
1123.70 0.0455
1123.80 0.04549
1123.90 0.04547
1124.00 0.04546
1124.10 0.04544
1124.20 0.04543
1124.30 0.04542
1124.40 0.0454
1124.50 0.04539
1124.60 0.04538
1124.70 0.04536
1124.80 0.04535
1124.90 0.04533
1125.00 0.04532
1125.10 0.04531
1125.20 0.04529
1125.30 0.04528
1125.40 0.04526
1125.50 0.04525
1125.60 0.04524
1125.70 0.04522
1125.80 0.04521
1125.90 0.04519
1126.00 0.04518
1126.10 0.04517
1126.20 0.04515
1126.30 0.04514
1126.40 0.04513
1126.50 0.04511
1126.60 0.0451
1126.70 0.04508
1126.80 0.04507
1126.90 0.04506
1127.00 0.04504
1127.10 0.04503
1127.20 0.04501
1127.30 0.045
1127.40 0.04499
1127.50 0.04497
1127.60 0.04496
1127.70 0.04494
1127.80 0.04493
1127.90 0.04491
1128.00 0.0449
1128.10 0.04489
1128.20 0.04487
1128.30 0.04486
1128.40 0.04484
1128.50 0.04483
1128.60 0.04481
1128.70 0.0448
1128.80 0.04479
1128.90 0.04477
1129.00 0.04476
1129.10 0.04474
1129.20 0.04473
1129.30 0.04472
1129.40 0.0447
1129.50 0.04469
1129.60 0.04467
1129.70 0.04466
1129.80 0.04465
1129.90 0.04463
1130.00 0.04462
1130.10 0.0446
1130.20 0.04459
1130.30 0.04457
1130.40 0.04456
1130.50 0.04455
1130.60 0.04453
1130.70 0.04452
1130.80 0.0445
1130.90 0.04449
1131.00 0.04448
1131.10 0.04446
1131.20 0.04445
1131.30 0.04443
1131.40 0.04442
1131.50 0.04441
1131.60 0.04439
1131.70 0.04438
1131.80 0.04436
1131.90 0.04435
1132.00 0.04434
1132.10 0.04432
1132.20 0.04431
1132.30 0.04429
1132.40 0.04428
1132.50 0.04426
1132.60 0.04425
1132.70 0.04424
1132.80 0.04422
1132.90 0.04421
1133.00 0.04419
1133.10 0.04418
1133.20 0.04416
1133.30 0.04415
1133.40 0.04414
1133.50 0.04412
1133.60 0.04411
1133.70 0.04409
1133.80 0.04408
1133.90 0.04406
1134.00 0.04405
1134.10 0.04404
1134.20 0.04402
1134.30 0.04401
1134.40 0.04399
1134.50 0.04398
1134.60 0.04397
1134.70 0.04395
1134.80 0.04394
1134.90 0.04392
1135.00 0.04391
1135.10 0.04389
1135.20 0.04388
1135.30 0.04387
1135.40 0.04385
1135.50 0.04384
1135.60 0.04382
1135.70 0.04381
1135.80 0.0438
1135.90 0.04378
1136.00 0.04377
1136.10 0.04375
1136.20 0.04374
1136.30 0.04372
1136.40 0.04371
1136.50 0.0437
1136.60 0.04368
1136.70 0.04367
1136.80 0.04365
1136.90 0.04364
1137.00 0.04363
1137.10 0.04361
1137.20 0.0436
1137.30 0.04358
1137.40 0.04357
1137.50 0.04355
1137.60 0.04354
1137.70 0.04353
1137.80 0.04351
1137.90 0.0435
1138.00 0.04348
1138.10 0.04347
1138.20 0.04346
1138.30 0.04344
1138.40 0.04343
1138.50 0.04341
1138.60 0.0434
1138.70 0.04338
1138.80 0.04337
1138.90 0.04336
1139.00 0.04334
1139.10 0.04333
1139.20 0.04331
1139.30 0.0433
1139.40 0.04329
1139.50 0.04327
1139.60 0.04326
1139.70 0.04324
1139.80 0.04323
1139.90 0.04321
1140.00 0.0432
1140.10 0.04319
1140.20 0.04317
1140.30 0.04316
1140.40 0.04314
1140.50 0.04313
1140.60 0.04312
1140.70 0.0431
1140.80 0.04309
1140.90 0.04307
1141.00 0.04306
1141.10 0.04305
1141.20 0.04303
1141.30 0.04302
1141.40 0.043
1141.50 0.04299
1141.60 0.04298
1141.70 0.04296
1141.80 0.04295
1141.90 0.04293
1142.00 0.04292
1142.10 0.0429
1142.20 0.04289
1142.30 0.04288
1142.40 0.04286
1142.50 0.04285
1142.60 0.04283
1142.70 0.04282
1142.80 0.04281
1142.90 0.04279
1143.00 0.04278
1143.10 0.04276
1143.20 0.04275
1143.30 0.04274
1143.40 0.04272
1143.50 0.04271
1143.60 0.04269
1143.70 0.04268
1143.80 0.04267
1143.90 0.04265
1144.00 0.04264
1144.10 0.04262
1144.20 0.04261
1144.30 0.04259
1144.40 0.04258
1144.50 0.04257
1144.60 0.04255
1144.70 0.04254
1144.80 0.04252
1144.90 0.04251
1145.00 0.0425
1145.10 0.04248
1145.20 0.04247
1145.30 0.04245
1145.40 0.04244
1145.50 0.04243
1145.60 0.04241
1145.70 0.0424
1145.80 0.04238
1145.90 0.04237
1146.00 0.04236
1146.10 0.04234
1146.20 0.04233
1146.30 0.04231
1146.40 0.0423
1146.50 0.04229
1146.60 0.04227
1146.70 0.04226
1146.80 0.04224
1146.90 0.04223
1147.00 0.04222
1147.10 0.0422
1147.20 0.04219
1147.30 0.04218
1147.40 0.04216
1147.50 0.04215
1147.60 0.04213
1147.70 0.04212
1147.80 0.04211
1147.90 0.04209
1148.00 0.04208
1148.10 0.04206
1148.20 0.04205
1148.30 0.04204
1148.40 0.04202
1148.50 0.04201
1148.60 0.04199
1148.70 0.04198
1148.80 0.04197
1148.90 0.04195
1149.00 0.04194
1149.10 0.04192
1149.20 0.04191
1149.30 0.0419
1149.40 0.04188
1149.50 0.04187
1149.60 0.04185
1149.70 0.04184
1149.80 0.04183
1149.90 0.04181
1150.00 0.0418
1150.10 0.04179
1150.20 0.04177
1150.30 0.04176
1150.40 0.04174
1150.50 0.04173
1150.60 0.04172
1150.70 0.0417
1150.80 0.04169
1150.90 0.04167
1151.00 0.04166
1151.10 0.04165
1151.20 0.04163
1151.30 0.04162
1151.40 0.04161
1151.50 0.04159
1151.60 0.04158
1151.70 0.04156
1151.80 0.04155
1151.90 0.04154
1152.00 0.04152
1152.10 0.04151
1152.20 0.0415
1152.30 0.04148
1152.40 0.04147
1152.50 0.04145
1152.60 0.04144
1152.70 0.04143
1152.80 0.04141
1152.90 0.0414
1153.00 0.04139
1153.10 0.04137
1153.20 0.04136
1153.30 0.04134
1153.40 0.04133
1153.50 0.04132
1153.60 0.0413
1153.70 0.04129
1153.80 0.04128
1153.90 0.04126
1154.00 0.04125
1154.10 0.04123
1154.20 0.04122
1154.30 0.04121
1154.40 0.04119
1154.50 0.04118
1154.60 0.04117
1154.70 0.04115
1154.80 0.04114
1154.90 0.04112
1155.00 0.04111
1155.10 0.0411
1155.20 0.04108
1155.30 0.04107
1155.40 0.04106
1155.50 0.04104
1155.60 0.04103
1155.70 0.04102
1155.80 0.041
1155.90 0.04099
1156.00 0.04097
1156.10 0.04096
1156.20 0.04095
1156.30 0.04093
1156.40 0.04092
1156.50 0.04091
1156.60 0.04089
1156.70 0.04088
1156.80 0.04087
1156.90 0.04085
1157.00 0.04084
1157.10 0.04082
1157.20 0.04081
1157.30 0.0408
1157.40 0.04078
1157.50 0.04077
1157.60 0.04076
1157.70 0.04074
1157.80 0.04073
1157.90 0.04072
1158.00 0.0407
1158.10 0.04069
1158.20 0.04068
1158.30 0.04066
1158.40 0.04065
1158.50 0.04063
1158.60 0.04062
1158.70 0.04061
1158.80 0.04059
1158.90 0.04058
1159.00 0.04057
1159.10 0.04055
1159.20 0.04054
1159.30 0.04053
1159.40 0.04051
1159.50 0.0405
1159.60 0.04049
1159.70 0.04047
1159.80 0.04046
1159.90 0.04045
1160.00 0.04043
1160.10 0.04042
1160.20 0.04041
1160.30 0.04039
1160.40 0.04038
1160.50 0.04036
1160.60 0.04035
1160.70 0.04034
1160.80 0.04032
1160.90 0.04031
1161.00 0.0403
1161.10 0.04028
1161.20 0.04027
1161.30 0.04026
1161.40 0.04024
1161.50 0.04023
1161.60 0.04022
1161.70 0.0402
1161.80 0.04019
1161.90 0.04018
1162.00 0.04016
1162.10 0.04015
1162.20 0.04014
1162.30 0.04012
1162.40 0.04011
1162.50 0.0401
1162.60 0.04008
1162.70 0.04007
1162.80 0.04006
1162.90 0.04004
1163.00 0.04003
1163.10 0.04002
1163.20 0.04
1163.30 0.03999
1163.40 0.03998
1163.50 0.03996
1163.60 0.03995
1163.70 0.03994
1163.80 0.03992
1163.90 0.03991
1164.00 0.0399
1164.10 0.03988
1164.20 0.03987
1164.30 0.03986
1164.40 0.03984
1164.50 0.03983
1164.60 0.03982
1164.70 0.0398
1164.80 0.03979
1164.90 0.03978
1165.00 0.03976
1165.10 0.03975
1165.20 0.03974
1165.30 0.03972
1165.40 0.03971
1165.50 0.0397
1165.60 0.03968
1165.70 0.03967
1165.80 0.03966
1165.90 0.03965
1166.00 0.03963
1166.10 0.03962
1166.20 0.03961
1166.30 0.03959
1166.40 0.03958
1166.50 0.03957
1166.60 0.03955
1166.70 0.03954
1166.80 0.03953
1166.90 0.03951
1167.00 0.0395
1167.10 0.03949
1167.20 0.03947
1167.30 0.03946
1167.40 0.03945
1167.50 0.03943
1167.60 0.03942
1167.70 0.03941
1167.80 0.03939
1167.90 0.03938
1168.00 0.03937
1168.10 0.03936
1168.20 0.03934
1168.30 0.03933
1168.40 0.03932
1168.50 0.0393
1168.60 0.03929
1168.70 0.03928
1168.80 0.03926
1168.90 0.03925
1169.00 0.03924
1169.10 0.03922
1169.20 0.03921
1169.30 0.0392
1169.40 0.03919
1169.50 0.03917
1169.60 0.03916
1169.70 0.03915
1169.80 0.03913
1169.90 0.03912
1170.00 0.03911
1170.10 0.03909
1170.20 0.03908
1170.30 0.03907
1170.40 0.03906
1170.50 0.03904
1170.60 0.03903
1170.70 0.03902
1170.80 0.039
1170.90 0.03899
1171.00 0.03898
1171.10 0.03896
1171.20 0.03895
1171.30 0.03894
1171.40 0.03893
1171.50 0.03891
1171.60 0.0389
1171.70 0.03889
1171.80 0.03887
1171.90 0.03886
1172.00 0.03885
1172.10 0.03883
1172.20 0.03882
1172.30 0.03881
1172.40 0.0388
1172.50 0.03878
1172.60 0.03877
1172.70 0.03876
1172.80 0.03874
1172.90 0.03873
1173.00 0.03872
1173.10 0.03871
1173.20 0.03869
1173.30 0.03868
1173.40 0.03867
1173.50 0.03865
1173.60 0.03864
1173.70 0.03863
1173.80 0.03862
1173.90 0.0386
1174.00 0.03859
1174.10 0.03858
1174.20 0.03856
1174.30 0.03855
1174.40 0.03854
1174.50 0.03853
1174.60 0.03851
1174.70 0.0385
1174.80 0.03849
1174.90 0.03847
1175.00 0.03846
1175.10 0.03845
1175.20 0.03844
1175.30 0.03842
1175.40 0.03841
1175.50 0.0384
1175.60 0.03839
1175.70 0.03837
1175.80 0.03836
1175.90 0.03835
1176.00 0.03833
1176.10 0.03832
1176.20 0.03831
1176.30 0.0383
1176.40 0.03828
1176.50 0.03827
1176.60 0.03826
1176.70 0.03824
1176.80 0.03823
1176.90 0.03822
1177.00 0.03821
1177.10 0.03819
1177.20 0.03818
1177.30 0.03817
1177.40 0.03816
1177.50 0.03814
1177.60 0.03813
1177.70 0.03812
1177.80 0.03811
1177.90 0.03809
1178.00 0.03808
1178.10 0.03807
1178.20 0.03805
1178.30 0.03804
1178.40 0.03803
1178.50 0.03802
1178.60 0.038
1178.70 0.03799
1178.80 0.03798
1178.90 0.03797
1179.00 0.03795
1179.10 0.03794
1179.20 0.03793
1179.30 0.03792
1179.40 0.0379
1179.50 0.03789
1179.60 0.03788
1179.70 0.03787
1179.80 0.03785
1179.90 0.03784
1180.00 0.03783
1180.10 0.03782
1180.20 0.0378
1180.30 0.03779
1180.40 0.03778
1180.50 0.03777
1180.60 0.03775
1180.70 0.03774
1180.80 0.03773
1180.90 0.03771
1181.00 0.0377
1181.10 0.03769
1181.20 0.03768
1181.30 0.03766
1181.40 0.03765
1181.50 0.03764
1181.60 0.03763
1181.70 0.03761
1181.80 0.0376
1181.90 0.03759
1182.00 0.03758
1182.10 0.03756
1182.20 0.03755
1182.30 0.03754
1182.40 0.03753
1182.50 0.03752
1182.60 0.0375
1182.70 0.03749
1182.80 0.03748
1182.90 0.03747
1183.00 0.03745
1183.10 0.03744
1183.20 0.03743
1183.30 0.03742
1183.40 0.0374
1183.50 0.03739
1183.60 0.03738
1183.70 0.03737
1183.80 0.03735
1183.90 0.03734
1184.00 0.03733
1184.10 0.03732
1184.20 0.0373
1184.30 0.03729
1184.40 0.03728
1184.50 0.03727
1184.60 0.03725
1184.70 0.03724
1184.80 0.03723
1184.90 0.03722
1185.00 0.03721
1185.10 0.03719
1185.20 0.03718
1185.30 0.03717
1185.40 0.03716
1185.50 0.03714
1185.60 0.03713
1185.70 0.03712
1185.80 0.03711
1185.90 0.03709
1186.00 0.03708
1186.10 0.03707
1186.20 0.03706
1186.30 0.03705
1186.40 0.03703
1186.50 0.03702
1186.60 0.03701
1186.70 0.037
1186.80 0.03698
1186.90 0.03697
1187.00 0.03696
1187.10 0.03695
1187.20 0.03693
1187.30 0.03692
1187.40 0.03691
1187.50 0.0369
1187.60 0.03689
1187.70 0.03687
1187.80 0.03686
1187.90 0.03685
1188.00 0.03684
1188.10 0.03682
1188.20 0.03681
1188.30 0.0368
1188.40 0.03679
1188.50 0.03678
1188.60 0.03676
1188.70 0.03675
1188.80 0.03674
1188.90 0.03673
1189.00 0.03672
1189.10 0.0367
1189.20 0.03669
1189.30 0.03668
1189.40 0.03667
1189.50 0.03665
1189.60 0.03664
1189.70 0.03663
1189.80 0.03662
1189.90 0.03661
1190.00 0.03659
1190.10 0.03658
1190.20 0.03657
1190.30 0.03656
1190.40 0.03655
1190.50 0.03653
1190.60 0.03652
1190.70 0.03651
1190.80 0.0365
1190.90 0.03648
1191.00 0.03647
1191.10 0.03646
1191.20 0.03645
1191.30 0.03644
1191.40 0.03642
1191.50 0.03641
1191.60 0.0364
1191.70 0.03639
1191.80 0.03638
1191.90 0.03636
1192.00 0.03635
1192.10 0.03634
1192.20 0.03633
1192.30 0.03632
1192.40 0.0363
1192.50 0.03629
1192.60 0.03628
1192.70 0.03627
1192.80 0.03626
1192.90 0.03624
1193.00 0.03623
1193.10 0.03622
1193.20 0.03621
1193.30 0.0362
1193.40 0.03618
1193.50 0.03617
1193.60 0.03616
1193.70 0.03615
1193.80 0.03614
1193.90 0.03612
1194.00 0.03611
1194.10 0.0361
1194.20 0.03609
1194.30 0.03608
1194.40 0.03606
1194.50 0.03605
1194.60 0.03604
1194.70 0.03603
1194.80 0.03602
1194.90 0.036
1195.00 0.03599
1195.10 0.03598
1195.20 0.03597
1195.30 0.03596
1195.40 0.03594
1195.50 0.03593
1195.60 0.03592
1195.70 0.03591
1195.80 0.0359
1195.90 0.03589
1196.00 0.03587
1196.10 0.03586
1196.20 0.03585
1196.30 0.03584
1196.40 0.03583
1196.50 0.03581
1196.60 0.0358
1196.70 0.03579
1196.80 0.03578
1196.90 0.03577
1197.00 0.03575
1197.10 0.03574
1197.20 0.03573
1197.30 0.03572
1197.40 0.03571
1197.50 0.0357
1197.60 0.03568
1197.70 0.03567
1197.80 0.03566
1197.90 0.03565
1198.00 0.03564
1198.10 0.03563
1198.20 0.03561
1198.30 0.0356
1198.40 0.03559
1198.50 0.03558
1198.60 0.03557
1198.70 0.03555
1198.80 0.03554
1198.90 0.03553
1199.00 0.03552
1199.10 0.03551
1199.20 0.0355
1199.30 0.03548
1199.40 0.03547
1199.50 0.03546
1199.60 0.03545
1199.70 0.03544
1199.80 0.03543
1199.90 0.03541
1200.00 0
