# Version 2.1 - nm, norm@500 to 1, cut digits, bergeron_13000_90.dat_13000
# Wavelength(nm)  Flambda(ergs/cm^s/s/nm)
300.00 2.345
300.10 2.343
300.20 2.342
300.30 2.34
300.40 2.338
300.50 2.337
300.60 2.335
300.70 2.334
300.80 2.332
300.90 2.331
301.00 2.329
301.10 2.328
301.20 2.326
301.30 2.325
301.40 2.323
301.50 2.322
301.60 2.32
301.70 2.319
301.80 2.317
301.90 2.315
302.00 2.314
302.10 2.312
302.20 2.311
302.30 2.309
302.40 2.308
302.50 2.306
302.60 2.305
302.70 2.303
302.80 2.302
302.90 2.3
303.00 2.299
303.10 2.297
303.20 2.296
303.30 2.294
303.40 2.293
303.50 2.291
303.60 2.29
303.70 2.288
303.80 2.287
303.90 2.285
304.00 2.284
304.10 2.282
304.20 2.281
304.30 2.279
304.40 2.278
304.50 2.276
304.60 2.275
304.70 2.273
304.80 2.272
304.90 2.27
305.00 2.269
305.10 2.267
305.20 2.266
305.30 2.264
305.40 2.263
305.50 2.261
305.60 2.26
305.70 2.258
305.80 2.257
305.90 2.255
306.00 2.254
306.10 2.252
306.20 2.251
306.30 2.249
306.40 2.248
306.50 2.246
306.60 2.245
306.70 2.243
306.80 2.242
306.90 2.241
307.00 2.239
307.10 2.238
307.20 2.236
307.30 2.235
307.40 2.233
307.50 2.232
307.60 2.23
307.70 2.229
307.80 2.227
307.90 2.226
308.00 2.224
308.10 2.223
308.20 2.221
308.30 2.22
308.40 2.219
308.50 2.217
308.60 2.216
308.70 2.214
308.80 2.213
308.90 2.211
309.00 2.21
309.10 2.208
309.20 2.207
309.30 2.205
309.40 2.204
309.50 2.203
309.60 2.201
309.70 2.2
309.80 2.198
309.90 2.197
310.00 2.195
310.10 2.194
310.20 2.192
310.30 2.191
310.40 2.19
310.50 2.188
310.60 2.187
310.70 2.185
310.80 2.184
310.90 2.182
311.00 2.181
311.10 2.18
311.20 2.178
311.30 2.177
311.40 2.175
311.50 2.174
311.60 2.172
311.70 2.171
311.80 2.17
311.90 2.168
312.00 2.167
312.10 2.165
312.20 2.164
312.30 2.162
312.40 2.161
312.50 2.16
312.60 2.158
312.70 2.157
312.80 2.155
312.90 2.154
313.00 2.153
313.10 2.151
313.20 2.15
313.30 2.148
313.40 2.147
313.50 2.146
313.60 2.144
313.70 2.143
313.80 2.141
313.90 2.14
314.00 2.139
314.10 2.137
314.20 2.136
314.30 2.134
314.40 2.133
314.50 2.132
314.60 2.13
314.70 2.129
314.80 2.127
314.90 2.126
315.00 2.125
315.10 2.123
315.20 2.122
315.30 2.12
315.40 2.119
315.50 2.118
315.60 2.116
315.70 2.115
315.80 2.113
315.90 2.112
316.00 2.111
316.10 2.109
316.20 2.108
316.30 2.107
316.40 2.105
316.50 2.104
316.60 2.102
316.70 2.101
316.80 2.1
316.90 2.098
317.00 2.097
317.10 2.096
317.20 2.094
317.30 2.093
317.40 2.091
317.50 2.09
317.60 2.089
317.70 2.087
317.80 2.086
317.90 2.085
318.00 2.083
318.10 2.082
318.20 2.081
318.30 2.079
318.40 2.078
318.50 2.077
318.60 2.075
318.70 2.074
318.80 2.072
318.90 2.071
319.00 2.07
319.10 2.068
319.20 2.067
319.30 2.066
319.40 2.064
319.50 2.063
319.60 2.062
319.70 2.06
319.80 2.059
319.90 2.058
320.00 2.056
320.10 2.055
320.20 2.054
320.30 2.052
320.40 2.051
320.50 2.05
320.60 2.048
320.70 2.047
320.80 2.046
320.90 2.044
321.00 2.043
321.10 2.042
321.20 2.04
321.30 2.039
321.40 2.038
321.50 2.036
321.60 2.035
321.70 2.034
321.80 2.032
321.90 2.031
322.00 2.03
322.10 2.028
322.20 2.027
322.30 2.026
322.40 2.024
322.50 2.023
322.60 2.022
322.70 2.02
322.80 2.019
322.90 2.018
323.00 2.016
323.10 2.015
323.20 2.014
323.30 2.013
323.40 2.011
323.50 2.01
323.60 2.009
323.70 2.007
323.80 2.006
323.90 2.005
324.00 2.003
324.10 2.002
324.20 2.001
324.30 1.999
324.40 1.998
324.50 1.997
324.60 1.996
324.70 1.994
324.80 1.993
324.90 1.992
325.00 1.99
325.10 1.989
325.20 1.988
325.30 1.987
325.40 1.985
325.50 1.984
325.60 1.983
325.70 1.981
325.80 1.98
325.90 1.979
326.00 1.978
326.10 1.976
326.20 1.975
326.30 1.974
326.40 1.972
326.50 1.971
326.60 1.97
326.70 1.969
326.80 1.967
326.90 1.966
327.00 1.965
327.10 1.963
327.20 1.962
327.30 1.961
327.40 1.96
327.50 1.958
327.60 1.957
327.70 1.956
327.80 1.955
327.90 1.953
328.00 1.952
328.10 1.951
328.20 1.95
328.30 1.948
328.40 1.947
328.50 1.946
328.60 1.944
328.70 1.943
328.80 1.942
328.90 1.941
329.00 1.939
329.10 1.938
329.20 1.937
329.30 1.936
329.40 1.934
329.50 1.933
329.60 1.932
329.70 1.931
329.80 1.929
329.90 1.928
330.00 1.927
330.10 1.926
330.20 1.924
330.30 1.923
330.40 1.922
330.50 1.921
330.60 1.919
330.70 1.918
330.80 1.917
330.90 1.916
331.00 1.914
331.10 1.913
331.20 1.912
331.30 1.911
331.40 1.909
331.50 1.908
331.60 1.907
331.70 1.906
331.80 1.905
331.90 1.903
332.00 1.902
332.10 1.901
332.20 1.9
332.30 1.898
332.40 1.897
332.50 1.896
332.60 1.895
332.70 1.894
332.80 1.892
332.90 1.891
333.00 1.89
333.10 1.889
333.20 1.887
333.30 1.886
333.40 1.885
333.50 1.884
333.60 1.883
333.70 1.881
333.80 1.88
333.90 1.879
334.00 1.878
334.10 1.876
334.20 1.875
334.30 1.874
334.40 1.873
334.50 1.872
334.60 1.87
334.70 1.869
334.80 1.868
334.90 1.867
335.00 1.866
335.10 1.864
335.20 1.863
335.30 1.862
335.40 1.861
335.50 1.86
335.60 1.858
335.70 1.857
335.80 1.856
335.90 1.855
336.00 1.854
336.10 1.852
336.20 1.851
336.30 1.85
336.40 1.849
336.50 1.848
336.60 1.846
336.70 1.845
336.80 1.844
336.90 1.843
337.00 1.842
337.10 1.841
337.20 1.839
337.30 1.838
337.40 1.837
337.50 1.836
337.60 1.835
337.70 1.833
337.80 1.832
337.90 1.831
338.00 1.83
338.10 1.829
338.20 1.828
338.30 1.826
338.40 1.825
338.50 1.824
338.60 1.823
338.70 1.822
338.80 1.821
338.90 1.819
339.00 1.818
339.10 1.817
339.20 1.816
339.30 1.815
339.40 1.813
339.50 1.812
339.60 1.811
339.70 1.81
339.80 1.809
339.90 1.808
340.00 1.807
340.10 1.805
340.20 1.804
340.30 1.803
340.40 1.802
340.50 1.801
340.60 1.8
340.70 1.798
340.80 1.797
340.90 1.796
341.00 1.795
341.10 1.794
341.20 1.793
341.30 1.792
341.40 1.79
341.50 1.789
341.60 1.788
341.70 1.787
341.80 1.786
341.90 1.785
342.00 1.783
342.10 1.782
342.20 1.781
342.30 1.78
342.40 1.779
342.50 1.778
342.60 1.777
342.70 1.775
342.80 1.774
342.90 1.773
343.00 1.772
343.10 1.771
343.20 1.77
343.30 1.769
343.40 1.768
343.50 1.766
343.60 1.765
343.70 1.764
343.80 1.763
343.90 1.762
344.00 1.761
344.10 1.76
344.20 1.759
344.30 1.757
344.40 1.756
344.50 1.755
344.60 1.754
344.70 1.753
344.80 1.752
344.90 1.751
345.00 1.75
345.10 1.748
345.20 1.747
345.30 1.746
345.40 1.745
345.50 1.744
345.60 1.743
345.70 1.742
345.80 1.741
345.90 1.74
346.00 1.738
346.10 1.737
346.20 1.736
346.30 1.735
346.40 1.734
346.50 1.733
346.60 1.732
346.70 1.731
346.80 1.73
346.90 1.728
347.00 1.727
347.10 1.726
347.20 1.725
347.30 1.724
347.40 1.723
347.50 1.722
347.60 1.721
347.70 1.72
347.80 1.719
347.90 1.717
348.00 1.716
348.10 1.715
348.20 1.714
348.30 1.713
348.40 1.712
348.50 1.711
348.60 1.71
348.70 1.709
348.80 1.708
348.90 1.707
349.00 1.705
349.10 1.704
349.20 1.703
349.30 1.702
349.40 1.701
349.50 1.7
349.60 1.699
349.70 1.698
349.80 1.697
349.90 1.696
350.00 1.695
350.10 1.694
350.20 1.692
350.30 1.691
350.40 1.69
350.50 1.689
350.60 1.688
350.70 1.687
350.80 1.686
350.90 1.685
351.00 1.684
351.10 1.683
351.20 1.682
351.30 1.681
351.40 1.68
351.50 1.679
351.60 1.677
351.70 1.676
351.80 1.675
351.90 1.674
352.00 1.673
352.10 1.672
352.20 1.671
352.30 1.67
352.40 1.669
352.50 1.668
352.60 1.667
352.70 1.666
352.80 1.665
352.90 1.664
353.00 1.663
353.10 1.662
353.20 1.661
353.30 1.659
353.40 1.658
353.50 1.657
353.60 1.656
353.70 1.655
353.80 1.654
353.90 1.653
354.00 1.652
354.10 1.651
354.20 1.65
354.30 1.649
354.40 1.648
354.50 1.647
354.60 1.646
354.70 1.645
354.80 1.644
354.90 1.643
355.00 1.642
355.10 1.641
355.20 1.64
355.30 1.639
355.40 1.638
355.50 1.636
355.60 1.635
355.70 1.634
355.80 1.633
355.90 1.632
356.00 1.631
356.10 1.63
356.20 1.629
356.30 1.628
356.40 1.627
356.50 1.626
356.60 1.625
356.70 1.624
356.80 1.623
356.90 1.622
357.00 1.621
357.10 1.62
357.20 1.619
357.30 1.618
357.40 1.617
357.50 1.616
357.60 1.615
357.70 1.614
357.80 1.613
357.90 1.612
358.00 1.611
358.10 1.61
358.20 1.609
358.30 1.608
358.40 1.607
358.50 1.606
358.60 1.605
358.70 1.604
358.80 1.603
358.90 1.602
359.00 1.601
359.10 1.6
359.20 1.599
359.30 1.598
359.40 1.597
359.50 1.596
359.60 1.595
359.70 1.594
359.80 1.593
359.90 1.592
360.00 1.591
360.10 1.59
360.20 1.589
360.30 1.588
360.40 1.587
360.50 1.586
360.60 1.585
360.70 1.584
360.80 1.583
360.90 1.582
361.00 1.581
361.10 1.58
361.20 1.579
361.30 1.578
361.40 1.577
361.50 1.576
361.60 1.575
361.70 1.574
361.80 1.573
361.90 1.572
362.00 1.571
362.10 1.57
362.20 1.569
362.30 1.568
362.40 1.567
362.50 1.566
362.60 1.565
362.70 1.564
362.80 1.563
362.90 1.562
363.00 1.561
363.10 1.56
363.20 1.559
363.30 1.557
363.40 1.556
363.50 1.555
363.60 1.554
363.70 1.553
363.80 1.552
363.90 1.551
364.00 1.549
364.10 1.548
364.20 1.547
364.30 1.546
364.40 1.545
364.50 1.544
364.60 1.542
364.70 1.541
364.80 1.54
364.90 1.539
365.00 1.538
365.10 1.537
365.20 1.535
365.30 1.534
365.40 1.533
365.50 1.532
365.60 1.531
365.70 1.53
365.80 1.528
365.90 1.527
366.00 1.526
366.10 1.525
366.20 1.524
366.30 1.523
366.40 1.522
366.50 1.521
366.60 1.52
366.70 1.519
366.80 1.518
366.90 1.517
367.00 1.516
367.10 1.515
367.20 1.514
367.30 1.513
367.40 1.512
367.50 1.511
367.60 1.51
367.70 1.509
367.80 1.508
367.90 1.507
368.00 1.506
368.10 1.505
368.20 1.504
368.30 1.503
368.40 1.502
368.50 1.501
368.60 1.5
368.70 1.499
368.80 1.498
368.90 1.497
369.00 1.496
369.10 1.495
369.20 1.494
369.30 1.493
369.40 1.492
369.50 1.491
369.60 1.49
369.70 1.489
369.80 1.488
369.90 1.487
370.00 1.486
370.10 1.485
370.20 1.484
370.30 1.483
370.40 1.482
370.50 1.481
370.60 1.481
370.70 1.48
370.80 1.479
370.90 1.478
371.00 1.477
371.10 1.476
371.20 1.475
371.30 1.474
371.40 1.473
371.50 1.473
371.60 1.472
371.70 1.471
371.80 1.47
371.90 1.469
372.00 1.468
372.10 1.468
372.20 1.467
372.30 1.466
372.40 1.466
372.50 1.465
372.60 1.464
372.70 1.464
372.80 1.463
372.90 1.462
373.00 1.462
373.10 1.461
373.20 1.461
373.30 1.46
373.40 1.459
373.50 1.459
373.60 1.458
373.70 1.457
373.80 1.457
373.90 1.456
374.00 1.455
374.10 1.455
374.20 1.455
374.30 1.454
374.40 1.454
374.50 1.453
374.60 1.453
374.70 1.452
374.80 1.452
374.90 1.452
375.00 1.451
375.10 1.451
375.20 1.45
375.30 1.45
375.40 1.449
375.50 1.449
375.60 1.449
375.70 1.448
375.80 1.448
375.90 1.447
376.00 1.447
376.10 1.446
376.20 1.446
376.30 1.445
376.40 1.445
376.50 1.445
376.60 1.444
376.70 1.444
376.80 1.443
376.90 1.443
377.00 1.442
377.10 1.441
377.20 1.441
377.30 1.44
377.40 1.439
377.50 1.438
377.60 1.437
377.70 1.437
377.80 1.436
377.90 1.435
378.00 1.434
378.10 1.432
378.20 1.431
378.30 1.429
378.40 1.427
378.50 1.425
378.60 1.423
378.70 1.421
378.80 1.419
378.90 1.418
379.00 1.416
379.10 1.415
379.20 1.413
379.30 1.412
379.40 1.411
379.50 1.41
379.60 1.408
379.70 1.407
379.80 1.406
379.90 1.404
380.00 1.403
380.10 1.404
380.20 1.405
380.30 1.406
380.40 1.407
380.50 1.408
380.60 1.409
380.70 1.41
380.80 1.411
380.90 1.412
381.00 1.413
381.10 1.413
381.20 1.413
381.30 1.413
381.40 1.413
381.50 1.413
381.60 1.412
381.70 1.411
381.80 1.41
381.90 1.408
382.00 1.407
382.10 1.404
382.20 1.402
382.30 1.398
382.40 1.394
382.50 1.39
382.60 1.386
382.70 1.382
382.80 1.377
382.90 1.373
383.00 1.369
383.10 1.365
383.20 1.361
383.30 1.359
383.40 1.356
383.50 1.353
383.60 1.353
383.70 1.356
383.80 1.359
383.90 1.361
384.00 1.365
384.10 1.37
384.20 1.375
384.30 1.379
384.40 1.384
384.50 1.389
384.60 1.392
384.70 1.396
384.80 1.399
384.90 1.401
385.00 1.403
385.10 1.405
385.20 1.406
385.30 1.407
385.40 1.408
385.50 1.408
385.60 1.408
385.70 1.408
385.80 1.408
385.90 1.407
386.00 1.406
386.10 1.405
386.20 1.404
386.30 1.402
386.40 1.4
386.50 1.398
386.60 1.395
386.70 1.392
386.80 1.389
386.90 1.386
387.00 1.382
387.10 1.378
387.20 1.374
387.30 1.369
387.40 1.364
387.50 1.358
387.60 1.352
387.70 1.346
387.80 1.339
387.90 1.331
388.00 1.323
388.10 1.313
388.20 1.303
388.30 1.292
388.40 1.28
388.50 1.27
388.60 1.261
388.70 1.255
388.80 1.25
388.90 1.246
389.00 1.249
389.10 1.254
389.20 1.26
389.30 1.269
389.40 1.28
389.50 1.292
389.60 1.303
389.70 1.313
389.80 1.323
389.90 1.332
390.00 1.34
390.10 1.348
390.20 1.354
390.30 1.361
390.40 1.367
390.50 1.372
390.60 1.377
390.70 1.382
390.80 1.386
390.90 1.391
391.00 1.394
391.10 1.398
391.20 1.401
391.30 1.404
391.40 1.407
391.50 1.409
391.60 1.411
391.70 1.413
391.80 1.414
391.90 1.415
392.00 1.416
392.10 1.417
392.20 1.417
392.30 1.417
392.40 1.417
392.50 1.416
392.60 1.415
392.70 1.414
392.80 1.413
392.90 1.411
393.00 1.409
393.10 1.407
393.20 1.404
393.30 1.401
393.40 1.398
393.50 1.394
393.60 1.39
393.70 1.386
393.80 1.382
393.90 1.377
394.00 1.372
394.10 1.366
394.20 1.36
394.30 1.354
394.40 1.347
394.50 1.34
394.60 1.333
394.70 1.325
394.80 1.317
394.90 1.308
395.00 1.299
395.10 1.289
395.20 1.279
395.30 1.269
395.40 1.258
395.50 1.247
395.60 1.235
395.70 1.223
395.80 1.21
395.90 1.197
396.00 1.182
396.10 1.168
396.20 1.152
396.30 1.134
396.40 1.116
396.50 1.093
396.60 1.07
396.70 1.047
396.80 1.029
396.90 1.013
397.00 0.9971
397.10 1.012
397.20 1.027
397.30 1.043
397.40 1.066
397.50 1.088
397.60 1.111
397.70 1.129
397.80 1.147
397.90 1.163
398.00 1.177
398.10 1.191
398.20 1.205
398.30 1.218
398.40 1.23
398.50 1.242
398.60 1.253
398.70 1.264
398.80 1.275
398.90 1.285
399.00 1.295
399.10 1.305
399.20 1.314
399.30 1.322
399.40 1.331
399.50 1.339
399.60 1.346
399.70 1.354
399.80 1.361
399.90 1.368
400.00 1.374
400.10 1.38
400.20 1.386
400.30 1.392
400.40 1.397
400.50 1.403
400.60 1.407
400.70 1.412
400.80 1.416
400.90 1.421
401.00 1.425
401.10 1.428
401.20 1.432
401.30 1.435
401.40 1.438
401.50 1.441
401.60 1.443
401.70 1.446
401.80 1.448
401.90 1.45
402.00 1.452
402.10 1.453
402.20 1.455
402.30 1.456
402.40 1.457
402.50 1.458
402.60 1.458
402.70 1.458
402.80 1.459
402.90 1.459
403.00 1.458
403.10 1.458
403.20 1.457
403.30 1.456
403.40 1.455
403.50 1.454
403.60 1.452
403.70 1.451
403.80 1.449
403.90 1.447
404.00 1.444
404.10 1.442
404.20 1.439
404.30 1.436
404.40 1.433
404.50 1.429
404.60 1.426
404.70 1.422
404.80 1.418
404.90 1.413
405.00 1.409
405.10 1.404
405.20 1.399
405.30 1.394
405.40 1.389
405.50 1.383
405.60 1.377
405.70 1.371
405.80 1.365
405.90 1.358
406.00 1.351
406.10 1.344
406.20 1.337
406.30 1.329
406.40 1.321
406.50 1.313
406.60 1.305
406.70 1.296
406.80 1.287
406.90 1.278
407.00 1.268
407.10 1.258
407.20 1.248
407.30 1.237
407.40 1.226
407.50 1.215
407.60 1.203
407.70 1.191
407.80 1.179
407.90 1.166
408.00 1.153
408.10 1.139
408.20 1.125
408.30 1.11
408.40 1.095
408.50 1.079
408.60 1.063
408.70 1.047
408.80 1.03
408.90 1.013
409.00 0.9954
409.10 0.9772
409.20 0.9586
409.30 0.9396
409.40 0.9197
409.50 0.8988
409.60 0.8769
409.70 0.8516
409.80 0.8249
409.90 0.7967
410.00 0.774
410.10 0.7581
410.20 0.749
410.30 0.7645
410.40 0.7848
410.50 0.81
410.60 0.8369
410.70 0.8619
410.80 0.8851
410.90 0.9054
411.00 0.9248
411.10 0.9435
411.20 0.9613
411.30 0.9787
411.40 0.9958
411.50 1.012
411.60 1.028
411.70 1.044
411.80 1.059
411.90 1.074
412.00 1.088
412.10 1.102
412.20 1.116
412.30 1.129
412.40 1.141
412.50 1.153
412.60 1.165
412.70 1.177
412.80 1.188
412.90 1.198
413.00 1.208
413.10 1.218
413.20 1.228
413.30 1.238
413.40 1.247
413.50 1.255
413.60 1.264
413.70 1.272
413.80 1.28
413.90 1.288
414.00 1.296
414.10 1.303
414.20 1.31
414.30 1.317
414.40 1.324
414.50 1.331
414.60 1.337
414.70 1.343
414.80 1.349
414.90 1.355
415.00 1.361
415.10 1.366
415.20 1.372
415.30 1.377
415.40 1.382
415.50 1.387
415.60 1.392
415.70 1.397
415.80 1.401
415.90 1.406
416.00 1.41
416.10 1.414
416.20 1.418
416.30 1.422
416.40 1.425
416.50 1.429
416.60 1.432
416.70 1.436
416.80 1.439
416.90 1.442
417.00 1.445
417.10 1.448
417.20 1.451
417.30 1.453
417.40 1.456
417.50 1.458
417.60 1.461
417.70 1.463
417.80 1.465
417.90 1.467
418.00 1.469
418.10 1.471
418.20 1.473
418.30 1.474
418.40 1.476
418.50 1.478
418.60 1.479
418.70 1.48
418.80 1.482
418.90 1.483
419.00 1.484
419.10 1.485
419.20 1.486
419.30 1.487
419.40 1.488
419.50 1.489
419.60 1.49
419.70 1.49
419.80 1.491
419.90 1.491
420.00 1.492
420.10 1.492
420.20 1.492
420.30 1.493
420.40 1.493
420.50 1.493
420.60 1.493
420.70 1.493
420.80 1.493
420.90 1.493
421.00 1.492
421.10 1.492
421.20 1.492
421.30 1.491
421.40 1.491
421.50 1.49
421.60 1.489
421.70 1.489
421.80 1.488
421.90 1.487
422.00 1.486
422.10 1.485
422.20 1.484
422.30 1.483
422.40 1.482
422.50 1.481
422.60 1.48
422.70 1.478
422.80 1.477
422.90 1.475
423.00 1.474
423.10 1.472
423.20 1.471
423.30 1.469
423.40 1.467
423.50 1.465
423.60 1.463
423.70 1.461
423.80 1.459
423.90 1.457
424.00 1.455
424.10 1.453
424.20 1.45
424.30 1.448
424.40 1.445
424.50 1.443
424.60 1.44
424.70 1.438
424.80 1.435
424.90 1.432
425.00 1.429
425.10 1.426
425.20 1.423
425.30 1.42
425.40 1.417
425.50 1.413
425.60 1.41
425.70 1.407
425.80 1.403
425.90 1.4
426.00 1.396
426.10 1.392
426.20 1.387
426.30 1.383
426.40 1.379
426.50 1.375
426.60 1.371
426.70 1.367
426.80 1.362
426.90 1.358
427.00 1.353
427.10 1.349
427.20 1.344
427.30 1.339
427.40 1.334
427.50 1.329
427.60 1.324
427.70 1.319
427.80 1.313
427.90 1.308
428.00 1.302
428.10 1.297
428.20 1.291
428.30 1.285
428.40 1.279
428.50 1.273
428.60 1.266
428.70 1.26
428.80 1.253
428.90 1.246
429.00 1.24
429.10 1.233
429.20 1.226
429.30 1.218
429.40 1.211
429.50 1.203
429.60 1.196
429.70 1.188
429.80 1.18
429.90 1.172
430.00 1.163
430.10 1.155
430.20 1.146
430.30 1.137
430.40 1.128
430.50 1.119
430.60 1.109
430.70 1.1
430.80 1.09
430.90 1.08
431.00 1.069
431.10 1.059
431.20 1.048
431.30 1.036
431.40 1.025
431.50 1.013
431.60 1.001
431.70 0.9889
431.80 0.9763
431.90 0.9632
432.00 0.9497
432.10 0.936
432.20 0.9215
432.30 0.9067
432.40 0.8915
432.50 0.8755
432.60 0.8591
432.70 0.8422
432.80 0.8245
432.90 0.8067
433.00 0.7888
433.10 0.7711
433.20 0.7537
433.30 0.7364
433.40 0.719
433.50 0.7008
433.60 0.6818
433.70 0.6576
433.80 0.629
433.90 0.5961
434.00 0.5569
434.10 0.5577
434.20 0.5983
434.30 0.6303
434.40 0.6579
434.50 0.6812
434.60 0.6994
434.70 0.7168
434.80 0.7336
434.90 0.7501
435.00 0.7668
435.10 0.7837
435.20 0.8008
435.30 0.8176
435.40 0.8343
435.50 0.8502
435.60 0.8656
435.70 0.8805
435.80 0.8946
435.90 0.9083
436.00 0.9216
436.10 0.9342
436.20 0.9465
436.30 0.9584
436.40 0.9698
436.50 0.9809
436.60 0.9918
436.70 1.002
436.80 1.012
436.90 1.022
437.00 1.032
437.10 1.041
437.20 1.05
437.30 1.059
437.40 1.067
437.50 1.076
437.60 1.084
437.70 1.092
437.80 1.099
437.90 1.107
438.00 1.114
438.10 1.121
438.20 1.128
438.30 1.135
438.40 1.141
438.50 1.148
438.60 1.154
438.70 1.16
438.80 1.166
438.90 1.172
439.00 1.178
439.10 1.183
439.20 1.189
439.30 1.194
439.40 1.199
439.50 1.204
439.60 1.209
439.70 1.214
439.80 1.218
439.90 1.223
440.00 1.227
440.10 1.231
440.20 1.236
440.30 1.24
440.40 1.244
440.50 1.248
440.60 1.251
440.70 1.255
440.80 1.259
440.90 1.262
441.00 1.265
441.10 1.269
441.20 1.272
441.30 1.275
441.40 1.278
441.50 1.281
441.60 1.284
441.70 1.287
441.80 1.29
441.90 1.292
442.00 1.295
442.10 1.297
442.20 1.3
442.30 1.302
442.40 1.305
442.50 1.307
442.60 1.309
442.70 1.311
442.80 1.313
442.90 1.315
443.00 1.317
443.10 1.319
443.20 1.321
443.30 1.323
443.40 1.325
443.50 1.326
443.60 1.328
443.70 1.33
443.80 1.331
443.90 1.333
444.00 1.334
444.10 1.336
444.20 1.337
444.30 1.339
444.40 1.34
444.50 1.341
444.60 1.342
444.70 1.344
444.80 1.345
444.90 1.346
445.00 1.347
445.10 1.348
445.20 1.349
445.30 1.35
445.40 1.351
445.50 1.352
445.60 1.352
445.70 1.353
445.80 1.354
445.90 1.355
446.00 1.356
446.10 1.356
446.20 1.357
446.30 1.358
446.40 1.358
446.50 1.359
446.60 1.359
446.70 1.36
446.80 1.36
446.90 1.361
447.00 1.361
447.10 1.362
447.20 1.362
447.30 1.362
447.40 1.363
447.50 1.363
447.60 1.363
447.70 1.364
447.80 1.364
447.90 1.364
448.00 1.364
448.10 1.365
448.20 1.365
448.30 1.365
448.40 1.365
448.50 1.365
448.60 1.365
448.70 1.365
448.80 1.366
448.90 1.366
449.00 1.366
449.10 1.366
449.20 1.366
449.30 1.366
449.40 1.366
449.50 1.366
449.60 1.366
449.70 1.366
449.80 1.366
449.90 1.366
450.00 1.365
450.10 1.365
450.20 1.365
450.30 1.365
450.40 1.365
450.50 1.365
450.60 1.365
450.70 1.364
450.80 1.364
450.90 1.364
451.00 1.364
451.10 1.363
451.20 1.363
451.30 1.363
451.40 1.362
451.50 1.362
451.60 1.362
451.70 1.362
451.80 1.361
451.90 1.361
452.00 1.361
452.10 1.36
452.20 1.36
452.30 1.359
452.40 1.359
452.50 1.359
452.60 1.358
452.70 1.358
452.80 1.357
452.90 1.357
453.00 1.356
453.10 1.356
453.20 1.356
453.30 1.355
453.40 1.355
453.50 1.354
453.60 1.354
453.70 1.353
453.80 1.353
453.90 1.352
454.00 1.352
454.10 1.351
454.20 1.351
454.30 1.35
454.40 1.35
454.50 1.349
454.60 1.348
454.70 1.348
454.80 1.347
454.90 1.347
455.00 1.346
455.10 1.345
455.20 1.345
455.30 1.344
455.40 1.344
455.50 1.343
455.60 1.342
455.70 1.342
455.80 1.341
455.90 1.34
456.00 1.34
456.10 1.339
456.20 1.338
456.30 1.338
456.40 1.337
456.50 1.336
456.60 1.336
456.70 1.335
456.80 1.335
456.90 1.334
457.00 1.333
457.10 1.333
457.20 1.332
457.30 1.331
457.40 1.331
457.50 1.33
457.60 1.329
457.70 1.328
457.80 1.328
457.90 1.327
458.00 1.326
458.10 1.325
458.20 1.325
458.30 1.324
458.40 1.323
458.50 1.322
458.60 1.322
458.70 1.321
458.80 1.32
458.90 1.319
459.00 1.318
459.10 1.317
459.20 1.317
459.30 1.316
459.40 1.315
459.50 1.314
459.60 1.313
459.70 1.313
459.80 1.312
459.90 1.311
460.00 1.31
460.10 1.309
460.20 1.308
460.30 1.307
460.40 1.307
460.50 1.306
460.60 1.305
460.70 1.304
460.80 1.303
460.90 1.302
461.00 1.301
461.10 1.3
461.20 1.299
461.30 1.298
461.40 1.298
461.50 1.297
461.60 1.296
461.70 1.295
461.80 1.294
461.90 1.293
462.00 1.292
462.10 1.291
462.20 1.29
462.30 1.289
462.40 1.288
462.50 1.287
462.60 1.286
462.70 1.285
462.80 1.284
462.90 1.283
463.00 1.282
463.10 1.281
463.20 1.28
463.30 1.279
463.40 1.278
463.50 1.277
463.60 1.276
463.70 1.275
463.80 1.274
463.90 1.273
464.00 1.272
464.10 1.271
464.20 1.27
464.30 1.269
464.40 1.268
464.50 1.267
464.60 1.266
464.70 1.265
464.80 1.264
464.90 1.262
465.00 1.261
465.10 1.26
465.20 1.259
465.30 1.258
465.40 1.257
465.50 1.256
465.60 1.255
465.70 1.254
465.80 1.252
465.90 1.251
466.00 1.25
466.10 1.249
466.20 1.248
466.30 1.247
466.40 1.245
466.50 1.244
466.60 1.243
466.70 1.242
466.80 1.241
466.90 1.239
467.00 1.238
467.10 1.237
467.20 1.236
467.30 1.234
467.40 1.233
467.50 1.232
467.60 1.231
467.70 1.229
467.80 1.228
467.90 1.227
468.00 1.225
468.10 1.224
468.20 1.223
468.30 1.221
468.40 1.22
468.50 1.219
468.60 1.217
468.70 1.216
468.80 1.215
468.90 1.213
469.00 1.212
469.10 1.211
469.20 1.209
469.30 1.208
469.40 1.206
469.50 1.205
469.60 1.203
469.70 1.202
469.80 1.2
469.90 1.199
470.00 1.197
470.10 1.196
470.20 1.195
470.30 1.193
470.40 1.192
470.50 1.19
470.60 1.189
470.70 1.187
470.80 1.186
470.90 1.184
471.00 1.183
471.10 1.181
471.20 1.179
471.30 1.178
471.40 1.176
471.50 1.174
471.60 1.173
471.70 1.171
471.80 1.169
471.90 1.168
472.00 1.166
472.10 1.164
472.20 1.163
472.30 1.161
472.40 1.159
472.50 1.157
472.60 1.155
472.70 1.153
472.80 1.152
472.90 1.15
473.00 1.148
473.10 1.146
473.20 1.144
473.30 1.142
473.40 1.14
473.50 1.138
473.60 1.136
473.70 1.134
473.80 1.132
473.90 1.13
474.00 1.128
474.10 1.126
474.20 1.124
474.30 1.122
474.40 1.12
474.50 1.117
474.60 1.115
474.70 1.113
474.80 1.111
474.90 1.109
475.00 1.106
475.10 1.104
475.20 1.102
475.30 1.099
475.40 1.097
475.50 1.094
475.60 1.092
475.70 1.089
475.80 1.087
475.90 1.085
476.00 1.082
476.10 1.08
476.20 1.077
476.30 1.074
476.40 1.072
476.50 1.069
476.60 1.066
476.70 1.063
476.80 1.061
476.90 1.058
477.00 1.055
477.10 1.053
477.20 1.05
477.30 1.046
477.40 1.043
477.50 1.04
477.60 1.037
477.70 1.034
477.80 1.031
477.90 1.028
478.00 1.025
478.10 1.022
478.20 1.019
478.30 1.015
478.40 1.012
478.50 1.008
478.60 1.005
478.70 1.001
478.80 0.9978
478.90 0.9943
479.00 0.9909
479.10 0.9874
479.20 0.9836
479.30 0.9796
479.40 0.9756
479.50 0.9716
479.60 0.9677
479.70 0.9637
479.80 0.9597
479.90 0.9557
480.00 0.9518
480.10 0.9478
480.20 0.9435
480.30 0.9389
480.40 0.9344
480.50 0.9299
480.60 0.9254
480.70 0.9208
480.80 0.9163
480.90 0.9118
481.00 0.9073
481.10 0.9028
481.20 0.8977
481.30 0.8924
481.40 0.887
481.50 0.8816
481.60 0.8763
481.70 0.8709
481.80 0.8656
481.90 0.8602
482.00 0.8549
482.10 0.8496
482.20 0.8434
482.30 0.8369
482.40 0.8304
482.50 0.8239
482.60 0.8174
482.70 0.8109
482.80 0.8044
482.90 0.7979
483.00 0.7914
483.10 0.7849
483.20 0.7771
483.30 0.7687
483.40 0.7602
483.50 0.7518
483.60 0.7434
483.70 0.735
483.80 0.7266
483.90 0.7182
484.00 0.7098
484.10 0.7014
484.20 0.6915
484.30 0.6808
484.40 0.6701
484.50 0.6595
484.60 0.6489
484.70 0.6372
484.80 0.6251
484.90 0.613
485.00 0.6009
485.10 0.5888
485.20 0.5769
485.30 0.565
485.40 0.5533
485.50 0.5417
485.60 0.5294
485.70 0.5169
485.80 0.5001
485.90 0.4813
486.00 0.4521
486.10 0.3997
486.20 0.4174
486.30 0.4642
486.40 0.4865
486.50 0.5051
486.60 0.5193
486.70 0.5314
486.80 0.5428
486.90 0.554
487.00 0.5652
487.10 0.5764
487.20 0.5878
487.30 0.5993
487.40 0.6108
487.50 0.6222
487.60 0.6336
487.70 0.644
487.80 0.6539
487.90 0.6638
488.00 0.6736
488.10 0.6835
488.20 0.6918
488.30 0.6993
488.40 0.7069
488.50 0.7144
488.60 0.7219
488.70 0.7295
488.80 0.737
488.90 0.7445
489.00 0.752
489.10 0.7595
489.20 0.7656
489.30 0.7711
489.40 0.7766
489.50 0.7821
489.60 0.7876
489.70 0.7931
489.80 0.7986
489.90 0.8041
490.00 0.8095
490.10 0.815
490.20 0.8196
490.30 0.8239
490.40 0.8282
490.50 0.8324
490.60 0.8366
490.70 0.8409
490.80 0.8451
490.90 0.8494
491.00 0.8536
491.10 0.8578
491.20 0.8614
491.30 0.8648
491.40 0.8681
491.50 0.8715
491.60 0.8748
491.70 0.8781
491.80 0.8814
491.90 0.8848
492.00 0.8881
492.10 0.8914
492.20 0.8943
492.30 0.897
492.40 0.8998
492.50 0.9025
492.60 0.9052
492.70 0.9079
492.80 0.9106
492.90 0.9133
493.00 0.916
493.10 0.9188
493.20 0.9211
493.30 0.9233
493.40 0.9255
493.50 0.9277
493.60 0.9299
493.70 0.9321
493.80 0.9342
493.90 0.9364
494.00 0.9386
494.10 0.9408
494.20 0.9426
494.30 0.9444
494.40 0.9461
494.50 0.9478
494.60 0.9495
494.70 0.9513
494.80 0.953
494.90 0.9547
495.00 0.9564
495.10 0.9581
495.20 0.9596
495.30 0.9609
495.40 0.9623
495.50 0.9637
495.60 0.965
495.70 0.9664
495.80 0.9677
495.90 0.9691
496.00 0.9704
496.10 0.9717
496.20 0.9729
496.30 0.974
496.40 0.975
496.50 0.9761
496.60 0.9771
496.70 0.9782
496.80 0.9792
496.90 0.9803
497.00 0.9813
497.10 0.9824
497.20 0.9832
497.30 0.984
497.40 0.9848
497.50 0.9856
497.60 0.9864
497.70 0.9872
497.80 0.988
497.90 0.9888
498.00 0.9896
498.10 0.9904
498.20 0.9911
498.30 0.9916
498.40 0.9922
498.50 0.9928
498.60 0.9934
498.70 0.994
498.80 0.9946
498.90 0.9951
499.00 0.9957
499.10 0.9963
499.20 0.9968
499.30 0.9972
499.40 0.9976
499.50 0.998
499.60 0.9984
499.70 0.9988
499.80 0.9992
499.90 0.9996
500.00 1
500.10 1
500.20 1.001
500.30 1.001
500.40 1.001
500.50 1.001
500.60 1.002
500.70 1.002
500.80 1.002
500.90 1.003
501.00 1.003
501.10 1.003
501.20 1.003
501.30 1.003
501.40 1.003
501.50 1.004
501.60 1.004
501.70 1.004
501.80 1.004
501.90 1.004
502.00 1.004
502.10 1.004
502.20 1.005
502.30 1.005
502.40 1.005
502.50 1.005
502.60 1.005
502.70 1.005
502.80 1.005
502.90 1.005
503.00 1.005
503.10 1.005
503.20 1.005
503.30 1.005
503.40 1.005
503.50 1.005
503.60 1.005
503.70 1.005
503.80 1.005
503.90 1.005
504.00 1.005
504.10 1.005
504.20 1.004
504.30 1.004
504.40 1.004
504.50 1.004
504.60 1.004
504.70 1.004
504.80 1.004
504.90 1.004
505.00 1.004
505.10 1.003
505.20 1.003
505.30 1.003
505.40 1.003
505.50 1.003
505.60 1.003
505.70 1.002
505.80 1.002
505.90 1.002
506.00 1.002
506.10 1.002
506.20 1.001
506.30 1.001
506.40 1.001
506.50 1.001
506.60 1
506.70 1
506.80 1
506.90 0.9998
507.00 0.9996
507.10 0.9993
507.20 0.9991
507.30 0.9988
507.40 0.9985
507.50 0.9983
507.60 0.998
507.70 0.9977
507.80 0.9974
507.90 0.9972
508.00 0.9969
508.10 0.9966
508.20 0.9963
508.30 0.996
508.40 0.9957
508.50 0.9954
508.60 0.9951
508.70 0.9947
508.80 0.9944
508.90 0.9941
509.00 0.9938
509.10 0.9935
509.20 0.9932
509.30 0.9928
509.40 0.9925
509.50 0.9921
509.60 0.9918
509.70 0.9914
509.80 0.9911
509.90 0.9907
510.00 0.9904
510.10 0.9901
510.20 0.9897
510.30 0.9893
510.40 0.989
510.50 0.9886
510.60 0.9882
510.70 0.9878
510.80 0.9875
510.90 0.9871
511.00 0.9867
511.10 0.9864
511.20 0.986
511.30 0.9856
511.40 0.9852
511.50 0.9848
511.60 0.9844
511.70 0.984
511.80 0.9836
511.90 0.9832
512.00 0.9828
512.10 0.9824
512.20 0.982
512.30 0.9816
512.40 0.9812
512.50 0.9808
512.60 0.9804
512.70 0.98
512.80 0.9796
512.90 0.9792
513.00 0.9787
513.10 0.9783
513.20 0.9779
513.30 0.9775
513.40 0.9771
513.50 0.9766
513.60 0.9762
513.70 0.9758
513.80 0.9754
513.90 0.9749
514.00 0.9745
514.10 0.9741
514.20 0.9736
514.30 0.9732
514.40 0.9728
514.50 0.9723
514.60 0.9719
514.70 0.9714
514.80 0.971
514.90 0.9706
515.00 0.9701
515.10 0.9697
515.20 0.9693
515.30 0.9688
515.40 0.9684
515.50 0.9679
515.60 0.9675
515.70 0.967
515.80 0.9666
515.90 0.9661
516.00 0.9657
516.10 0.9652
516.20 0.9648
516.30 0.9643
516.40 0.9638
516.50 0.9634
516.60 0.9629
516.70 0.9625
516.80 0.962
516.90 0.9616
517.00 0.9611
517.10 0.9606
517.20 0.9602
517.30 0.9597
517.40 0.9593
517.50 0.9588
517.60 0.9583
517.70 0.9579
517.80 0.9574
517.90 0.9569
518.00 0.9565
518.10 0.956
518.20 0.9555
518.30 0.9551
518.40 0.9546
518.50 0.9541
518.60 0.9537
518.70 0.9532
518.80 0.9527
518.90 0.9523
519.00 0.9518
519.10 0.9513
519.20 0.9508
519.30 0.9504
519.40 0.9499
519.50 0.9494
519.60 0.9489
519.70 0.9485
519.80 0.948
519.90 0.9475
520.00 0.947
520.10 0.9466
520.20 0.9461
520.30 0.9456
520.40 0.9451
520.50 0.9447
520.60 0.9442
520.70 0.9437
520.80 0.9432
520.90 0.9427
521.00 0.9423
521.10 0.9418
521.20 0.9413
521.30 0.9408
521.40 0.9404
521.50 0.9399
521.60 0.9394
521.70 0.9389
521.80 0.9384
521.90 0.9379
522.00 0.9375
522.10 0.937
522.20 0.9365
522.30 0.936
522.40 0.9355
522.50 0.935
522.60 0.9346
522.70 0.9341
522.80 0.9336
522.90 0.9331
523.00 0.9326
523.10 0.9321
523.20 0.9317
523.30 0.9312
523.40 0.9307
523.50 0.9302
523.60 0.9297
523.70 0.9292
523.80 0.9287
523.90 0.9283
524.00 0.9278
524.10 0.9273
524.20 0.9268
524.30 0.9263
524.40 0.9258
524.50 0.9253
524.60 0.9249
524.70 0.9244
524.80 0.9239
524.90 0.9234
525.00 0.9229
525.10 0.9224
525.20 0.9219
525.30 0.9214
525.40 0.921
525.50 0.9205
525.60 0.92
525.70 0.9195
525.80 0.919
525.90 0.9185
526.00 0.918
526.10 0.9176
526.20 0.9171
526.30 0.9166
526.40 0.9161
526.50 0.9156
526.60 0.9151
526.70 0.9146
526.80 0.9141
526.90 0.9136
527.00 0.9132
527.10 0.9127
527.20 0.9122
527.30 0.9117
527.40 0.9112
527.50 0.9107
527.60 0.9102
527.70 0.9097
527.80 0.9092
527.90 0.9088
528.00 0.9083
528.10 0.9078
528.20 0.9073
528.30 0.9068
528.40 0.9063
528.50 0.9058
528.60 0.9053
528.70 0.9049
528.80 0.9044
528.90 0.9039
529.00 0.9034
529.10 0.9029
529.20 0.9024
529.30 0.9019
529.40 0.9014
529.50 0.901
529.60 0.9005
529.70 0.9
529.80 0.8995
529.90 0.899
530.00 0.8985
530.10 0.898
530.20 0.8976
530.30 0.8971
530.40 0.8966
530.50 0.8961
530.60 0.8956
530.70 0.8951
530.80 0.8946
530.90 0.8942
531.00 0.8937
531.10 0.8932
531.20 0.8927
531.30 0.8922
531.40 0.8917
531.50 0.8912
531.60 0.8908
531.70 0.8903
531.80 0.8898
531.90 0.8893
532.00 0.8888
532.10 0.8883
532.20 0.8879
532.30 0.8874
532.40 0.8869
532.50 0.8864
532.60 0.8859
532.70 0.8854
532.80 0.885
532.90 0.8845
533.00 0.884
533.10 0.8835
533.20 0.883
533.30 0.8825
533.40 0.8821
533.50 0.8816
533.60 0.8811
533.70 0.8806
533.80 0.8801
533.90 0.8797
534.00 0.8792
534.10 0.8787
534.20 0.8782
534.30 0.8777
534.40 0.8773
534.50 0.8768
534.60 0.8763
534.70 0.8758
534.80 0.8753
534.90 0.8749
535.00 0.8744
535.10 0.8739
535.20 0.8734
535.30 0.8729
535.40 0.8725
535.50 0.872
535.60 0.8715
535.70 0.871
535.80 0.8706
535.90 0.8701
536.00 0.8696
536.10 0.8691
536.20 0.8687
536.30 0.8682
536.40 0.8677
536.50 0.8672
536.60 0.8668
536.70 0.8663
536.80 0.8658
536.90 0.8653
537.00 0.8649
537.10 0.8644
537.20 0.8639
537.30 0.8634
537.40 0.863
537.50 0.8625
537.60 0.862
537.70 0.8615
537.80 0.8611
537.90 0.8606
538.00 0.8601
538.10 0.8596
538.20 0.8592
538.30 0.8587
538.40 0.8582
538.50 0.8578
538.60 0.8573
538.70 0.8568
538.80 0.8563
538.90 0.8559
539.00 0.8554
539.10 0.8549
539.20 0.8545
539.30 0.854
539.40 0.8535
539.50 0.8531
539.60 0.8526
539.70 0.8521
539.80 0.8516
539.90 0.8512
540.00 0.8507
540.10 0.8502
540.20 0.8498
540.30 0.8493
540.40 0.8488
540.50 0.8484
540.60 0.8479
540.70 0.8474
540.80 0.847
540.90 0.8465
541.00 0.846
541.10 0.8456
541.20 0.8451
541.30 0.8447
541.40 0.8442
541.50 0.8437
541.60 0.8433
541.70 0.8428
541.80 0.8423
541.90 0.8419
542.00 0.8414
542.10 0.8409
542.20 0.8405
542.30 0.84
542.40 0.8396
542.50 0.8391
542.60 0.8386
542.70 0.8382
542.80 0.8377
542.90 0.8372
543.00 0.8368
543.10 0.8363
543.20 0.8359
543.30 0.8354
543.40 0.8349
543.50 0.8345
543.60 0.834
543.70 0.8336
543.80 0.8331
543.90 0.8326
544.00 0.8322
544.10 0.8317
544.20 0.8313
544.30 0.8308
544.40 0.8304
544.50 0.8299
544.60 0.8294
544.70 0.829
544.80 0.8285
544.90 0.8281
545.00 0.8276
545.10 0.8272
545.20 0.8267
545.30 0.8263
545.40 0.8258
545.50 0.8253
545.60 0.8249
545.70 0.8244
545.80 0.824
545.90 0.8235
546.00 0.8231
546.10 0.8226
546.20 0.8223
546.30 0.822
546.40 0.8217
546.50 0.8214
546.60 0.821
546.70 0.8207
546.80 0.8204
546.90 0.8201
547.00 0.8198
547.10 0.8195
547.20 0.8191
547.30 0.8186
547.40 0.8182
547.50 0.8177
547.60 0.8173
547.70 0.8168
547.80 0.8164
547.90 0.8159
548.00 0.8155
548.10 0.815
548.20 0.8145
548.30 0.8141
548.40 0.8136
548.50 0.8132
548.60 0.8127
548.70 0.8123
548.80 0.8118
548.90 0.8114
549.00 0.8109
549.10 0.8105
549.20 0.81
549.30 0.8096
549.40 0.8091
549.50 0.8087
549.60 0.8082
549.70 0.8078
549.80 0.8073
549.90 0.8069
550.00 0.8064
550.10 0.806
550.20 0.8055
550.30 0.8051
550.40 0.8046
550.50 0.8042
550.60 0.8037
550.70 0.8033
550.80 0.8028
550.90 0.8024
551.00 0.8019
551.10 0.8015
551.20 0.801
551.30 0.8006
551.40 0.8001
551.50 0.7997
551.60 0.7993
551.70 0.7988
551.80 0.7984
551.90 0.7979
552.00 0.7975
552.10 0.797
552.20 0.7966
552.30 0.7962
552.40 0.7957
552.50 0.7953
552.60 0.7948
552.70 0.7944
552.80 0.7939
552.90 0.7935
553.00 0.7931
553.10 0.7926
553.20 0.7922
553.30 0.7917
553.40 0.7913
553.50 0.7909
553.60 0.7904
553.70 0.79
553.80 0.7896
553.90 0.7891
554.00 0.7887
554.10 0.7882
554.20 0.7878
554.30 0.7874
554.40 0.7869
554.50 0.7865
554.60 0.7861
554.70 0.7856
554.80 0.7852
554.90 0.7848
555.00 0.7843
555.10 0.7839
555.20 0.7834
555.30 0.783
555.40 0.7826
555.50 0.7821
555.60 0.7817
555.70 0.7813
555.80 0.7809
555.90 0.7804
556.00 0.78
556.10 0.7796
556.20 0.7791
556.30 0.7787
556.40 0.7783
556.50 0.7778
556.60 0.7774
556.70 0.777
556.80 0.7765
556.90 0.7761
557.00 0.7757
557.10 0.7753
557.20 0.7748
557.30 0.7744
557.40 0.774
557.50 0.7735
557.60 0.7731
557.70 0.7727
557.80 0.7723
557.90 0.7718
558.00 0.7714
558.10 0.771
558.20 0.7706
558.30 0.7701
558.40 0.7697
558.50 0.7693
558.60 0.7689
558.70 0.7684
558.80 0.768
558.90 0.7676
559.00 0.7672
559.10 0.7667
559.20 0.7663
559.30 0.7659
559.40 0.7655
559.50 0.7651
559.60 0.7646
559.70 0.7642
559.80 0.7638
559.90 0.7634
560.00 0.763
560.10 0.7625
560.20 0.7621
560.30 0.7617
560.40 0.7613
560.50 0.7609
560.60 0.7604
560.70 0.76
560.80 0.7596
560.90 0.7592
561.00 0.7588
561.10 0.7584
561.20 0.7579
561.30 0.7575
561.40 0.7571
561.50 0.7567
561.60 0.7563
561.70 0.7559
561.80 0.7554
561.90 0.755
562.00 0.7546
562.10 0.7542
562.20 0.7538
562.30 0.7534
562.40 0.753
562.50 0.7525
562.60 0.7521
562.70 0.7517
562.80 0.7513
562.90 0.7509
563.00 0.7505
563.10 0.7501
563.20 0.7497
563.30 0.7492
563.40 0.7488
563.50 0.7484
563.60 0.748
563.70 0.7476
563.80 0.7472
563.90 0.7468
564.00 0.7464
564.10 0.746
564.20 0.7456
564.30 0.7451
564.40 0.7447
564.50 0.7443
564.60 0.7439
564.70 0.7435
564.80 0.7431
564.90 0.7427
565.00 0.7423
565.10 0.7419
565.20 0.7415
565.30 0.7411
565.40 0.7407
565.50 0.7403
565.60 0.7399
565.70 0.7395
565.80 0.739
565.90 0.7386
566.00 0.7382
566.10 0.7378
566.20 0.7374
566.30 0.737
566.40 0.7366
566.50 0.7362
566.60 0.7358
566.70 0.7354
566.80 0.735
566.90 0.7346
567.00 0.7342
567.10 0.7338
567.20 0.7334
567.30 0.733
567.40 0.7326
567.50 0.7322
567.60 0.7318
567.70 0.7314
567.80 0.731
567.90 0.7306
568.00 0.7302
568.10 0.7298
568.20 0.7294
568.30 0.729
568.40 0.7286
568.50 0.7282
568.60 0.7278
568.70 0.7274
568.80 0.727
568.90 0.7266
569.00 0.7262
569.10 0.7258
569.20 0.7255
569.30 0.7251
569.40 0.7247
569.50 0.7243
569.60 0.7239
569.70 0.7235
569.80 0.7231
569.90 0.7227
570.00 0.7223
570.10 0.7219
570.20 0.7215
570.30 0.7211
570.40 0.7207
570.50 0.7203
570.60 0.7199
570.70 0.7196
570.80 0.7192
570.90 0.7188
571.00 0.7184
571.10 0.718
571.20 0.7176
571.30 0.7172
571.40 0.7168
571.50 0.7164
571.60 0.716
571.70 0.7157
571.80 0.7153
571.90 0.7149
572.00 0.7145
572.10 0.7141
572.20 0.7137
572.30 0.7133
572.40 0.7129
572.50 0.7126
572.60 0.7122
572.70 0.7118
572.80 0.7114
572.90 0.711
573.00 0.7106
573.10 0.7102
573.20 0.7099
573.30 0.7095
573.40 0.7091
573.50 0.7087
573.60 0.7083
573.70 0.7079
573.80 0.7075
573.90 0.7072
574.00 0.7068
574.10 0.7064
574.20 0.706
574.30 0.7056
574.40 0.7052
574.50 0.7049
574.60 0.7045
574.70 0.7041
574.80 0.7037
574.90 0.7033
575.00 0.703
575.10 0.7026
575.20 0.7022
575.30 0.7018
575.40 0.7014
575.50 0.7011
575.60 0.7007
575.70 0.7003
575.80 0.6999
575.90 0.6995
576.00 0.6992
576.10 0.6988
576.20 0.6984
576.30 0.698
576.40 0.6977
576.50 0.6973
576.60 0.6969
576.70 0.6965
576.80 0.6962
576.90 0.6958
577.00 0.6954
577.10 0.695
577.20 0.6947
577.30 0.6943
577.40 0.6939
577.50 0.6935
577.60 0.6932
577.70 0.6928
577.80 0.6924
577.90 0.692
578.00 0.6917
578.10 0.6913
578.20 0.6909
578.30 0.6905
578.40 0.6902
578.50 0.6898
578.60 0.6894
578.70 0.6891
578.80 0.6887
578.90 0.6883
579.00 0.6879
579.10 0.6876
579.20 0.6872
579.30 0.6868
579.40 0.6865
579.50 0.6861
579.60 0.6857
579.70 0.6853
579.80 0.685
579.90 0.6846
580.00 0.6842
580.10 0.6839
580.20 0.6835
580.30 0.6831
580.40 0.6828
580.50 0.6824
580.60 0.682
580.70 0.6817
580.80 0.6813
580.90 0.6809
581.00 0.6806
581.10 0.6802
581.20 0.6798
581.30 0.6795
581.40 0.6791
581.50 0.6787
581.60 0.6784
581.70 0.678
581.80 0.6777
581.90 0.6773
582.00 0.6769
582.10 0.6766
582.20 0.6762
582.30 0.6758
582.40 0.6755
582.50 0.6751
582.60 0.6748
582.70 0.6744
582.80 0.674
582.90 0.6737
583.00 0.6733
583.10 0.6729
583.20 0.6726
583.30 0.6722
583.40 0.6719
583.50 0.6715
583.60 0.6711
583.70 0.6708
583.80 0.6704
583.90 0.6701
584.00 0.6697
584.10 0.6693
584.20 0.669
584.30 0.6686
584.40 0.6683
584.50 0.6679
584.60 0.6676
584.70 0.6672
584.80 0.6668
584.90 0.6665
585.00 0.6661
585.10 0.6658
585.20 0.6654
585.30 0.6651
585.40 0.6647
585.50 0.6644
585.60 0.664
585.70 0.6636
585.80 0.6633
585.90 0.6629
586.00 0.6626
586.10 0.6622
586.20 0.6619
586.30 0.6615
586.40 0.6612
586.50 0.6608
586.60 0.6605
586.70 0.6601
586.80 0.6598
586.90 0.6594
587.00 0.6591
587.10 0.6587
587.20 0.6583
587.30 0.658
587.40 0.6576
587.50 0.6573
587.60 0.6569
587.70 0.6566
587.80 0.6562
587.90 0.6559
588.00 0.6555
588.10 0.6552
588.20 0.6548
588.30 0.6545
588.40 0.6541
588.50 0.6538
588.60 0.6535
588.70 0.6531
588.80 0.6528
588.90 0.6524
589.00 0.6521
589.10 0.6517
589.20 0.6514
589.30 0.651
589.40 0.6507
589.50 0.6503
589.60 0.65
589.70 0.6496
589.80 0.6493
589.90 0.6489
590.00 0.6486
590.10 0.6483
590.20 0.6479
590.30 0.6476
590.40 0.6472
590.50 0.6469
590.60 0.6465
590.70 0.6462
590.80 0.6458
590.90 0.6455
591.00 0.6452
591.10 0.6448
591.20 0.6445
591.30 0.6441
591.40 0.6438
591.50 0.6434
591.60 0.6431
591.70 0.6428
591.80 0.6424
591.90 0.6421
592.00 0.6417
592.10 0.6414
592.20 0.6411
592.30 0.6407
592.40 0.6404
592.50 0.64
592.60 0.6397
592.70 0.6394
592.80 0.639
592.90 0.6387
593.00 0.6384
593.10 0.638
593.20 0.6377
593.30 0.6373
593.40 0.637
593.50 0.6367
593.60 0.6363
593.70 0.636
593.80 0.6356
593.90 0.6353
594.00 0.635
594.10 0.6346
594.20 0.6343
594.30 0.634
594.40 0.6336
594.50 0.6333
594.60 0.633
594.70 0.6326
594.80 0.6323
594.90 0.632
595.00 0.6316
595.10 0.6313
595.20 0.631
595.30 0.6306
595.40 0.6303
595.50 0.63
595.60 0.6296
595.70 0.6293
595.80 0.629
595.90 0.6286
596.00 0.6283
596.10 0.628
596.20 0.6274
596.30 0.6268
596.40 0.6262
596.50 0.6256
596.60 0.625
596.70 0.6244
596.80 0.6237
596.90 0.6231
597.00 0.6225
597.10 0.6219
597.20 0.6215
597.30 0.6211
597.40 0.6208
597.50 0.6205
597.60 0.6201
597.70 0.6198
597.80 0.6195
597.90 0.6191
598.00 0.6188
598.10 0.6185
598.20 0.6181
598.30 0.6178
598.40 0.6174
598.50 0.6171
598.60 0.6168
598.70 0.6164
598.80 0.6161
598.90 0.6158
599.00 0.6154
599.10 0.6151
599.20 0.6148
599.30 0.6144
599.40 0.6141
599.50 0.6138
599.60 0.6134
599.70 0.6131
599.80 0.6128
599.90 0.6124
600.00 0.6121
600.10 0.6118
600.20 0.6114
600.30 0.6111
600.40 0.6108
600.50 0.6104
600.60 0.6101
600.70 0.6098
600.80 0.6094
600.90 0.6091
601.00 0.6088
601.10 0.6085
601.20 0.6081
601.30 0.6078
601.40 0.6075
601.50 0.6071
601.60 0.6068
601.70 0.6065
601.80 0.6061
601.90 0.6058
602.00 0.6055
602.10 0.6051
602.20 0.6048
602.30 0.6045
602.40 0.6042
602.50 0.6038
602.60 0.6035
602.70 0.6032
602.80 0.6028
602.90 0.6025
603.00 0.6022
603.10 0.6019
603.20 0.6015
603.30 0.6012
603.40 0.6009
603.50 0.6005
603.60 0.6002
603.70 0.5999
603.80 0.5996
603.90 0.5992
604.00 0.5989
604.10 0.5986
604.20 0.5983
604.30 0.5979
604.40 0.5976
604.50 0.5973
604.60 0.597
604.70 0.5966
604.80 0.5963
604.90 0.596
605.00 0.5956
605.10 0.5953
605.20 0.595
605.30 0.5947
605.40 0.5943
605.50 0.594
605.60 0.5937
605.70 0.5934
605.80 0.593
605.90 0.5927
606.00 0.5924
606.10 0.5921
606.20 0.5918
606.30 0.5914
606.40 0.5911
606.50 0.5908
606.60 0.5905
606.70 0.5901
606.80 0.5898
606.90 0.5895
607.00 0.5892
607.10 0.5888
607.20 0.5885
607.30 0.5882
607.40 0.5879
607.50 0.5875
607.60 0.5872
607.70 0.5869
607.80 0.5866
607.90 0.5863
608.00 0.5859
608.10 0.5856
608.20 0.5853
608.30 0.585
608.40 0.5846
608.50 0.5843
608.60 0.584
608.70 0.5837
608.80 0.5834
608.90 0.583
609.00 0.5827
609.10 0.5824
609.20 0.5821
609.30 0.5818
609.40 0.5814
609.50 0.5811
609.60 0.5808
609.70 0.5805
609.80 0.5802
609.90 0.5798
610.00 0.5795
610.10 0.5792
610.20 0.5789
610.30 0.5786
610.40 0.5782
610.50 0.5779
610.60 0.5776
610.70 0.5773
610.80 0.577
610.90 0.5766
611.00 0.5763
611.10 0.576
611.20 0.5757
611.30 0.5754
611.40 0.575
611.50 0.5747
611.60 0.5744
611.70 0.5741
611.80 0.5738
611.90 0.5734
612.00 0.5731
612.10 0.5728
612.20 0.5725
612.30 0.5722
612.40 0.5719
612.50 0.5715
612.60 0.5712
612.70 0.5709
612.80 0.5706
612.90 0.5703
613.00 0.5699
613.10 0.5696
613.20 0.5693
613.30 0.569
613.40 0.5687
613.50 0.5684
613.60 0.568
613.70 0.5677
613.80 0.5674
613.90 0.5671
614.00 0.5668
614.10 0.5664
614.20 0.5661
614.30 0.5658
614.40 0.5655
614.50 0.5652
614.60 0.5649
614.70 0.5645
614.80 0.5642
614.90 0.5639
615.00 0.5636
615.10 0.5633
615.20 0.5629
615.30 0.5626
615.40 0.5623
615.50 0.562
615.60 0.5617
615.70 0.5614
615.80 0.561
615.90 0.5607
616.00 0.5604
616.10 0.5601
616.20 0.5598
616.30 0.5594
616.40 0.5591
616.50 0.5588
616.60 0.5585
616.70 0.5582
616.80 0.5579
616.90 0.5575
617.00 0.5572
617.10 0.5569
617.20 0.5566
617.30 0.5563
617.40 0.5559
617.50 0.5556
617.60 0.5553
617.70 0.555
617.80 0.5547
617.90 0.5544
618.00 0.554
618.10 0.5537
618.20 0.5534
618.30 0.5531
618.40 0.5528
618.50 0.5524
618.60 0.5521
618.70 0.5518
618.80 0.5515
618.90 0.5512
619.00 0.5508
619.10 0.5505
619.20 0.5502
619.30 0.5499
619.40 0.5496
619.50 0.5492
619.60 0.5489
619.70 0.5486
619.80 0.5483
619.90 0.548
620.00 0.5477
620.10 0.5473
620.20 0.547
620.30 0.5467
620.40 0.5464
620.50 0.546
620.60 0.5457
620.70 0.5454
620.80 0.5451
620.90 0.5448
621.00 0.5444
621.10 0.5441
621.20 0.5438
621.30 0.5435
621.40 0.5432
621.50 0.5428
621.60 0.5425
621.70 0.5422
621.80 0.5419
621.90 0.5415
622.00 0.5412
622.10 0.5409
622.20 0.5406
622.30 0.5402
622.40 0.5399
622.50 0.5396
622.60 0.5393
622.70 0.5389
622.80 0.5386
622.90 0.5383
623.00 0.538
623.10 0.5377
623.20 0.5373
623.30 0.537
623.40 0.5367
623.50 0.5363
623.60 0.536
623.70 0.5357
623.80 0.5354
623.90 0.535
624.00 0.5347
624.10 0.5344
624.20 0.5341
624.30 0.5337
624.40 0.5334
624.50 0.5331
624.60 0.5327
624.70 0.5324
624.80 0.5321
624.90 0.5318
625.00 0.5314
625.10 0.5311
625.20 0.5308
625.30 0.5304
625.40 0.5301
625.50 0.5298
625.60 0.5294
625.70 0.5291
625.80 0.5288
625.90 0.5284
626.00 0.5281
626.10 0.5278
626.20 0.5275
626.30 0.5271
626.40 0.5268
626.50 0.5264
626.60 0.5261
626.70 0.5258
626.80 0.5254
626.90 0.5251
627.00 0.5248
627.10 0.5244
627.20 0.5241
627.30 0.5238
627.40 0.5234
627.50 0.5231
627.60 0.5227
627.70 0.5224
627.80 0.5221
627.90 0.5217
628.00 0.5214
628.10 0.521
628.20 0.5207
628.30 0.5204
628.40 0.52
628.50 0.5197
628.60 0.5193
628.70 0.519
628.80 0.5186
628.90 0.5183
629.00 0.518
629.10 0.5176
629.20 0.5173
629.30 0.5169
629.40 0.5166
629.50 0.5162
629.60 0.5159
629.70 0.5155
629.80 0.5152
629.90 0.5148
630.00 0.5145
630.10 0.5141
630.20 0.5138
630.30 0.5134
630.40 0.5131
630.50 0.5127
630.60 0.5123
630.70 0.512
630.80 0.5116
630.90 0.5113
631.00 0.5109
631.10 0.5106
631.20 0.5102
631.30 0.5098
631.40 0.5095
631.50 0.5091
631.60 0.5087
631.70 0.5084
631.80 0.508
631.90 0.5076
632.00 0.5073
632.10 0.5069
632.20 0.5066
632.30 0.5062
632.40 0.5058
632.50 0.5054
632.60 0.5051
632.70 0.5047
632.80 0.5043
632.90 0.5039
633.00 0.5036
633.10 0.5032
633.20 0.5028
633.30 0.5024
633.40 0.5021
633.50 0.5017
633.60 0.5013
633.70 0.5009
633.80 0.5005
633.90 0.5001
634.00 0.4997
634.10 0.4994
634.20 0.499
634.30 0.4986
634.40 0.4982
634.50 0.4978
634.60 0.4974
634.70 0.497
634.80 0.4966
634.90 0.4962
635.00 0.4958
635.10 0.4954
635.20 0.495
635.30 0.4946
635.40 0.4942
635.50 0.4938
635.60 0.4934
635.70 0.4929
635.80 0.4925
635.90 0.4921
636.00 0.4917
636.10 0.4913
636.20 0.4909
636.30 0.4905
636.40 0.49
636.50 0.4896
636.60 0.4892
636.70 0.4887
636.80 0.4883
636.90 0.4879
637.00 0.4875
637.10 0.487
637.20 0.4866
637.30 0.4862
637.40 0.4857
637.50 0.4853
637.60 0.4848
637.70 0.4844
637.80 0.4839
637.90 0.4835
638.00 0.483
638.10 0.4826
638.20 0.4821
638.30 0.4817
638.40 0.4812
638.50 0.4807
638.60 0.4802
638.70 0.4798
638.80 0.4793
638.90 0.4788
639.00 0.4783
639.10 0.4779
639.20 0.4774
639.30 0.4769
639.40 0.4764
639.50 0.4759
639.60 0.4754
639.70 0.4749
639.80 0.4744
639.90 0.4739
640.00 0.4734
640.10 0.4729
640.20 0.4724
640.30 0.4719
640.40 0.4713
640.50 0.4708
640.60 0.4703
640.70 0.4697
640.80 0.4692
640.90 0.4687
641.00 0.4681
641.10 0.4676
641.20 0.467
641.30 0.4665
641.40 0.4659
641.50 0.4654
641.60 0.4648
641.70 0.4642
641.80 0.4636
641.90 0.4631
642.00 0.4625
642.10 0.4619
642.20 0.4613
642.30 0.4608
642.40 0.4602
642.50 0.4595
642.60 0.4589
642.70 0.4583
642.80 0.4577
642.90 0.4571
643.00 0.4565
643.10 0.4559
643.20 0.4553
643.30 0.4547
643.40 0.454
643.50 0.4533
643.60 0.4527
643.70 0.452
643.80 0.4514
643.90 0.4507
644.00 0.4501
644.10 0.4494
644.20 0.4487
644.30 0.4481
644.40 0.4474
644.50 0.4466
644.60 0.4459
644.70 0.4452
644.80 0.4445
644.90 0.4438
645.00 0.4431
645.10 0.4424
645.20 0.4417
645.30 0.4409
645.40 0.4402
645.50 0.4394
645.60 0.4386
645.70 0.4378
645.80 0.437
645.90 0.4363
646.00 0.4355
646.10 0.4347
646.20 0.4339
646.30 0.4331
646.40 0.4323
646.50 0.4314
646.60 0.4306
646.70 0.4297
646.80 0.4289
646.90 0.428
647.00 0.4272
647.10 0.4263
647.20 0.4254
647.30 0.4246
647.40 0.4236
647.50 0.4226
647.60 0.4217
647.70 0.4207
647.80 0.4197
647.90 0.4188
648.00 0.4178
648.10 0.4168
648.20 0.4159
648.30 0.4149
648.40 0.4138
648.50 0.4127
648.60 0.4115
648.70 0.4104
648.80 0.4093
648.90 0.4082
649.00 0.4071
649.10 0.406
649.20 0.4049
649.30 0.4037
649.40 0.4024
649.50 0.4011
649.60 0.3999
649.70 0.3986
649.80 0.3973
649.90 0.396
650.00 0.3947
650.10 0.3934
650.20 0.3921
650.30 0.3908
650.40 0.3893
650.50 0.3878
650.60 0.3863
650.70 0.3848
650.80 0.3834
650.90 0.3819
651.00 0.3804
651.10 0.3789
651.20 0.3774
651.30 0.3759
651.40 0.3741
651.50 0.3724
651.60 0.3706
651.70 0.3689
651.80 0.3671
651.90 0.3653
652.00 0.3636
652.10 0.3618
652.20 0.3601
652.30 0.3582
652.40 0.3561
652.50 0.354
652.60 0.3518
652.70 0.3497
652.80 0.3475
652.90 0.3454
653.00 0.3433
653.10 0.3411
653.20 0.339
653.30 0.3368
653.40 0.3341
653.50 0.3314
653.60 0.3287
653.70 0.326
653.80 0.3233
653.90 0.3206
654.00 0.3179
654.10 0.3152
654.20 0.3126
654.30 0.3098
654.40 0.3067
654.50 0.3037
654.60 0.3006
654.70 0.2975
654.80 0.2944
654.90 0.2913
655.00 0.2881
655.10 0.2849
655.20 0.2817
655.30 0.2785
655.40 0.2752
655.50 0.2718
655.60 0.2681
655.70 0.2642
655.80 0.2595
655.90 0.254
656.00 0.2454
656.10 0.2357
656.20 0.2131
656.30 0.1969
656.40 0.2238
656.50 0.2397
656.60 0.2481
656.70 0.2557
656.80 0.2602
656.90 0.2645
657.00 0.268
657.10 0.2715
657.20 0.2745
657.30 0.2776
657.40 0.2805
657.50 0.2834
657.60 0.2863
657.70 0.2892
657.80 0.2921
657.90 0.2949
658.00 0.2977
658.10 0.3005
658.20 0.3033
658.30 0.306
658.40 0.3083
658.50 0.3107
658.60 0.3131
658.70 0.3154
658.80 0.3178
658.90 0.3202
659.00 0.3225
659.10 0.3249
659.20 0.3273
659.30 0.3295
659.40 0.3313
659.50 0.3331
659.60 0.3349
659.70 0.3366
659.80 0.3384
659.90 0.3402
660.00 0.342
660.10 0.3438
660.20 0.3455
660.30 0.3472
660.40 0.3486
660.50 0.35
660.60 0.3514
660.70 0.3527
660.80 0.3541
660.90 0.3555
661.00 0.3569
661.10 0.3582
661.20 0.3596
661.30 0.3609
661.40 0.362
661.50 0.3631
661.60 0.3642
661.70 0.3653
661.80 0.3663
661.90 0.3674
662.00 0.3685
662.10 0.3696
662.20 0.3706
662.30 0.3717
662.40 0.3726
662.50 0.3734
662.60 0.3743
662.70 0.3752
662.80 0.376
662.90 0.3769
663.00 0.3778
663.10 0.3786
663.20 0.3795
663.30 0.3803
663.40 0.381
663.50 0.3817
663.60 0.3824
663.70 0.3831
663.80 0.3837
663.90 0.3844
664.00 0.3851
664.10 0.3858
664.20 0.3864
664.30 0.3871
664.40 0.3876
664.50 0.3881
664.60 0.3887
664.70 0.3892
664.80 0.3897
664.90 0.3902
665.00 0.3907
665.10 0.3913
665.20 0.3918
665.30 0.3923
665.40 0.3927
665.50 0.3931
665.60 0.3935
665.70 0.3939
665.80 0.3943
665.90 0.3947
666.00 0.3951
666.10 0.3955
666.20 0.3959
666.30 0.3963
666.40 0.3966
666.50 0.397
666.60 0.3973
666.70 0.3976
666.80 0.3979
666.90 0.3982
667.00 0.3986
667.10 0.3989
667.20 0.3992
667.30 0.3995
667.40 0.3998
667.50 0.4
667.60 0.4003
667.70 0.4005
667.80 0.4007
667.90 0.401
668.00 0.4012
668.10 0.4015
668.20 0.4017
668.30 0.402
668.40 0.4022
668.50 0.4023
668.60 0.4025
668.70 0.4027
668.80 0.4029
668.90 0.4031
669.00 0.4033
669.10 0.4035
669.20 0.4037
669.30 0.4038
669.40 0.404
669.50 0.4041
669.60 0.4042
669.70 0.4044
669.80 0.4045
669.90 0.4046
670.00 0.4048
670.10 0.4049
670.20 0.4051
670.30 0.4052
670.40 0.4053
670.50 0.4054
670.60 0.4055
670.70 0.4056
670.80 0.4057
670.90 0.4057
671.00 0.4058
671.10 0.4059
671.20 0.406
671.30 0.4061
671.40 0.4062
671.50 0.4062
671.60 0.4063
671.70 0.4063
671.80 0.4064
671.90 0.4065
672.00 0.4065
672.10 0.4066
672.20 0.4066
672.30 0.4067
672.40 0.4067
672.50 0.4067
672.60 0.4067
672.70 0.4068
672.80 0.4068
672.90 0.4068
673.00 0.4068
673.10 0.4068
673.20 0.4069
673.30 0.4069
673.40 0.4069
673.50 0.4069
673.60 0.4069
673.70 0.4069
673.80 0.4068
673.90 0.4068
674.00 0.4068
674.10 0.4068
674.20 0.4068
674.30 0.4068
674.40 0.4068
674.50 0.4067
674.60 0.4067
674.70 0.4067
674.80 0.4066
674.90 0.4066
675.00 0.4066
675.10 0.4065
675.20 0.4065
675.30 0.4065
675.40 0.4064
675.50 0.4064
675.60 0.4063
675.70 0.4063
675.80 0.4062
675.90 0.4062
676.00 0.4061
676.10 0.4061
676.20 0.406
676.30 0.4059
676.40 0.4059
676.50 0.4058
676.60 0.4057
676.70 0.4057
676.80 0.4056
676.90 0.4055
677.00 0.4055
677.10 0.4054
677.20 0.4053
677.30 0.4052
677.40 0.4052
677.50 0.4051
677.60 0.405
677.70 0.4049
677.80 0.4048
677.90 0.4047
678.00 0.4047
678.10 0.4046
678.20 0.4045
678.30 0.4044
678.40 0.4043
678.50 0.4042
678.60 0.4041
678.70 0.404
678.80 0.4039
678.90 0.4038
679.00 0.4037
679.10 0.4036
679.20 0.4035
679.30 0.4034
679.40 0.4033
679.50 0.4032
679.60 0.4031
679.70 0.403
679.80 0.4029
679.90 0.4028
680.00 0.4027
680.10 0.4026
680.20 0.4025
680.30 0.4023
680.40 0.4022
680.50 0.4021
680.60 0.402
680.70 0.4019
680.80 0.4018
680.90 0.4016
681.00 0.4015
681.10 0.4014
681.20 0.4013
681.30 0.4012
681.40 0.4011
681.50 0.4009
681.60 0.4008
681.70 0.4007
681.80 0.4006
681.90 0.4004
682.00 0.4003
682.10 0.4002
682.20 0.4001
682.30 0.3999
682.40 0.3998
682.50 0.3997
682.60 0.3995
682.70 0.3994
682.80 0.3993
682.90 0.3991
683.00 0.399
683.10 0.3989
683.20 0.3988
683.30 0.3986
683.40 0.3985
683.50 0.3983
683.60 0.3982
683.70 0.3981
683.80 0.3979
683.90 0.3978
684.00 0.3977
684.10 0.3975
684.20 0.3974
684.30 0.3973
684.40 0.3971
684.50 0.397
684.60 0.3968
684.70 0.3967
684.80 0.3965
684.90 0.3964
685.00 0.3963
685.10 0.3961
685.20 0.396
685.30 0.3958
685.40 0.3957
685.50 0.3956
685.60 0.3954
685.70 0.3953
685.80 0.3951
685.90 0.395
686.00 0.3948
686.10 0.3947
686.20 0.3945
686.30 0.3944
686.40 0.3942
686.50 0.3941
686.60 0.3939
686.70 0.3938
686.80 0.3936
686.90 0.3935
687.00 0.3933
687.10 0.3932
687.20 0.393
687.30 0.3929
687.40 0.3927
687.50 0.3926
687.60 0.3924
687.70 0.3923
687.80 0.3921
687.90 0.392
688.00 0.3918
688.10 0.3917
688.20 0.3915
688.30 0.3914
688.40 0.3912
688.50 0.3911
688.60 0.3909
688.70 0.3908
688.80 0.3906
688.90 0.3905
689.00 0.3903
689.10 0.3902
689.20 0.39
689.30 0.3898
689.40 0.3897
689.50 0.3895
689.60 0.3893
689.70 0.3892
689.80 0.389
689.90 0.3889
690.00 0.3887
690.10 0.3885
690.20 0.3884
690.30 0.3882
690.40 0.388
690.50 0.3879
690.60 0.3877
690.70 0.3875
690.80 0.3874
690.90 0.3872
691.00 0.387
691.10 0.3869
691.20 0.3867
691.30 0.3865
691.40 0.3864
691.50 0.3862
691.60 0.3861
691.70 0.3859
691.80 0.3857
691.90 0.3856
692.00 0.3854
692.10 0.3852
692.20 0.3851
692.30 0.3849
692.40 0.3847
692.50 0.3846
692.60 0.3844
692.70 0.3843
692.80 0.3841
692.90 0.3839
693.00 0.3838
693.10 0.3836
693.20 0.3834
693.30 0.3833
693.40 0.3831
693.50 0.383
693.60 0.3828
693.70 0.3826
693.80 0.3825
693.90 0.3823
694.00 0.3821
694.10 0.382
694.20 0.3818
694.30 0.3817
694.40 0.3815
694.50 0.3813
694.60 0.3812
694.70 0.381
694.80 0.3809
694.90 0.3807
695.00 0.3805
695.10 0.3804
695.20 0.3802
695.30 0.3801
695.40 0.3799
695.50 0.3797
695.60 0.3796
695.70 0.3794
695.80 0.3792
695.90 0.3791
696.00 0.3789
696.10 0.3788
696.20 0.3786
696.30 0.3784
696.40 0.3783
696.50 0.3781
696.60 0.378
696.70 0.3778
696.80 0.3776
696.90 0.3775
697.00 0.3773
697.10 0.3772
697.20 0.377
697.30 0.3768
697.40 0.3767
697.50 0.3765
697.60 0.3764
697.70 0.3762
697.80 0.3761
697.90 0.3759
698.00 0.3757
698.10 0.3756
698.20 0.3754
698.30 0.3753
698.40 0.3751
698.50 0.3749
698.60 0.3748
698.70 0.3746
698.80 0.3745
698.90 0.3743
699.00 0.3742
699.10 0.374
699.20 0.3738
699.30 0.3737
699.40 0.3735
699.50 0.3734
699.60 0.3732
699.70 0.373
699.80 0.3729
699.90 0.3727
700.00 0.3726
700.10 0.3724
700.20 0.3723
700.30 0.3721
700.40 0.372
700.50 0.3718
700.60 0.3717
700.70 0.3715
700.80 0.3714
700.90 0.3713
701.00 0.3711
701.10 0.371
701.20 0.3708
701.30 0.3707
701.40 0.3705
701.50 0.3704
701.60 0.3702
701.70 0.3701
701.80 0.3699
701.90 0.3698
702.00 0.3696
702.10 0.3695
702.20 0.3694
702.30 0.3692
702.40 0.3691
702.50 0.3689
702.60 0.3688
702.70 0.3686
702.80 0.3685
702.90 0.3683
703.00 0.3682
703.10 0.3681
703.20 0.3679
703.30 0.3678
703.40 0.3676
703.50 0.3675
703.60 0.3673
703.70 0.3672
703.80 0.367
703.90 0.3669
704.00 0.3668
704.10 0.3666
704.20 0.3665
704.30 0.3663
704.40 0.3662
704.50 0.366
704.60 0.3659
704.70 0.3657
704.80 0.3656
704.90 0.3655
705.00 0.3653
705.10 0.3652
705.20 0.365
705.30 0.3648
705.40 0.3647
705.50 0.3645
705.60 0.3643
705.70 0.3642
705.80 0.364
705.90 0.3638
706.00 0.3637
706.10 0.3635
706.20 0.3634
706.30 0.3632
706.40 0.363
706.50 0.3629
706.60 0.3627
706.70 0.3625
706.80 0.3624
706.90 0.3622
707.00 0.362
707.10 0.3619
707.20 0.3617
707.30 0.3616
707.40 0.3614
707.50 0.3612
707.60 0.3611
707.70 0.3609
707.80 0.3608
707.90 0.3606
708.00 0.3604
708.10 0.3603
708.20 0.3601
708.30 0.3599
708.40 0.3598
708.50 0.3596
708.60 0.3595
708.70 0.3593
708.80 0.3591
708.90 0.359
709.00 0.3588
709.10 0.3587
709.20 0.3585
709.30 0.3583
709.40 0.3582
709.50 0.358
709.60 0.3579
709.70 0.3577
709.80 0.3575
709.90 0.3574
710.00 0.3572
710.10 0.357
710.20 0.3569
710.30 0.3567
710.40 0.3566
710.50 0.3564
710.60 0.3562
710.70 0.3561
710.80 0.3559
710.90 0.3558
711.00 0.3556
711.10 0.3554
711.20 0.3553
711.30 0.3551
711.40 0.355
711.50 0.3548
711.60 0.3546
711.70 0.3545
711.80 0.3543
711.90 0.3542
712.00 0.354
712.10 0.3538
712.20 0.3537
712.30 0.3535
712.40 0.3534
712.50 0.3532
712.60 0.353
712.70 0.3529
712.80 0.3527
712.90 0.3526
713.00 0.3524
713.10 0.3522
713.20 0.3521
713.30 0.3519
713.40 0.3518
713.50 0.3516
713.60 0.3515
713.70 0.3513
713.80 0.3511
713.90 0.351
714.00 0.3508
714.10 0.3507
714.20 0.3505
714.30 0.3503
714.40 0.3502
714.50 0.35
714.60 0.3499
714.70 0.3497
714.80 0.3496
714.90 0.3494
715.00 0.3492
715.10 0.3491
715.20 0.349
715.30 0.3488
715.40 0.3487
715.50 0.3485
715.60 0.3484
715.70 0.3482
715.80 0.3481
715.90 0.3479
716.00 0.3478
716.10 0.3476
716.20 0.3475
716.30 0.3473
716.40 0.3472
716.50 0.3471
716.60 0.3469
716.70 0.3468
716.80 0.3466
716.90 0.3465
717.00 0.3463
717.10 0.3462
717.20 0.346
717.30 0.3459
717.40 0.3458
717.50 0.3456
717.60 0.3455
717.70 0.3453
717.80 0.3452
717.90 0.345
718.00 0.3449
718.10 0.3447
718.20 0.3446
718.30 0.3445
718.40 0.3443
718.50 0.3442
718.60 0.344
718.70 0.3439
718.80 0.3437
718.90 0.3436
719.00 0.3434
719.10 0.3433
719.20 0.3432
719.30 0.343
719.40 0.3429
719.50 0.3427
719.60 0.3426
719.70 0.3424
719.80 0.3423
719.90 0.3422
720.00 0.342
720.10 0.3419
720.20 0.3417
720.30 0.3415
720.40 0.3414
720.50 0.3412
720.60 0.3411
720.70 0.3409
720.80 0.3408
720.90 0.3406
721.00 0.3404
721.10 0.3403
721.20 0.3401
721.30 0.34
721.40 0.3398
721.50 0.3397
721.60 0.3395
721.70 0.3394
721.80 0.3392
721.90 0.339
722.00 0.3389
722.10 0.3387
722.20 0.3386
722.30 0.3384
722.40 0.3383
722.50 0.3381
722.60 0.338
722.70 0.3378
722.80 0.3377
722.90 0.3375
723.00 0.3373
723.10 0.3372
723.20 0.337
723.30 0.3369
723.40 0.3367
723.50 0.3366
723.60 0.3364
723.70 0.3363
723.80 0.3361
723.90 0.336
724.00 0.3358
724.10 0.3356
724.20 0.3355
724.30 0.3353
724.40 0.3352
724.50 0.335
724.60 0.3349
724.70 0.3347
724.80 0.3346
724.90 0.3344
725.00 0.3343
725.10 0.3341
725.20 0.334
725.30 0.3338
725.40 0.3337
725.50 0.3335
725.60 0.3334
725.70 0.3332
725.80 0.3331
725.90 0.3329
726.00 0.3327
726.10 0.3326
726.20 0.3324
726.30 0.3323
726.40 0.3321
726.50 0.332
726.60 0.3318
726.70 0.3317
726.80 0.3315
726.90 0.3314
727.00 0.3312
727.10 0.3311
727.20 0.3309
727.30 0.3308
727.40 0.3306
727.50 0.3305
727.60 0.3303
727.70 0.3302
727.80 0.33
727.90 0.3299
728.00 0.3297
728.10 0.3296
728.20 0.3294
728.30 0.3293
728.40 0.3291
728.50 0.329
728.60 0.3288
728.70 0.3287
728.80 0.3285
728.90 0.3284
729.00 0.3282
729.10 0.3281
729.20 0.3279
729.30 0.3278
729.40 0.3276
729.50 0.3275
729.60 0.3273
729.70 0.3272
729.80 0.327
729.90 0.3269
730.00 0.3267
730.10 0.3266
730.20 0.3264
730.30 0.3263
730.40 0.3261
730.50 0.326
730.60 0.3259
730.70 0.3257
730.80 0.3256
730.90 0.3254
731.00 0.3253
731.10 0.3251
731.20 0.325
731.30 0.3248
731.40 0.3247
731.50 0.3245
731.60 0.3244
731.70 0.3242
731.80 0.3241
731.90 0.3239
732.00 0.3238
732.10 0.3237
732.20 0.3235
732.30 0.3234
732.40 0.3232
732.50 0.3231
732.60 0.3229
732.70 0.3228
732.80 0.3226
732.90 0.3225
733.00 0.3223
733.10 0.3222
733.20 0.322
733.30 0.3219
733.40 0.3218
733.50 0.3216
733.60 0.3215
733.70 0.3213
733.80 0.3212
733.90 0.321
734.00 0.3209
734.10 0.3207
734.20 0.3206
734.30 0.3205
734.40 0.3203
734.50 0.3202
734.60 0.32
734.70 0.3199
734.80 0.3197
734.90 0.3196
735.00 0.3194
735.10 0.3193
735.20 0.3191
735.30 0.319
735.40 0.3189
735.50 0.3187
735.60 0.3186
735.70 0.3184
735.80 0.3183
735.90 0.3181
736.00 0.318
736.10 0.3179
736.20 0.3177
736.30 0.3176
736.40 0.3174
736.50 0.3173
736.60 0.3171
736.70 0.317
736.80 0.3169
736.90 0.3167
737.00 0.3166
737.10 0.3164
737.20 0.3163
737.30 0.3161
737.40 0.316
737.50 0.3158
737.60 0.3157
737.70 0.3156
737.80 0.3154
737.90 0.3153
738.00 0.3151
738.10 0.315
738.20 0.3149
738.30 0.3147
738.40 0.3146
738.50 0.3144
738.60 0.3143
738.70 0.3141
738.80 0.314
738.90 0.3139
739.00 0.3137
739.10 0.3136
739.20 0.3134
739.30 0.3133
739.40 0.3131
739.50 0.313
739.60 0.3129
739.70 0.3127
739.80 0.3126
739.90 0.3124
740.00 0.3123
740.10 0.3122
740.20 0.312
740.30 0.3119
740.40 0.3117
740.50 0.3116
740.60 0.3115
740.70 0.3113
740.80 0.3112
740.90 0.311
741.00 0.3109
741.10 0.3108
741.20 0.3106
741.30 0.3105
741.40 0.3104
741.50 0.3102
741.60 0.3101
741.70 0.3099
741.80 0.3098
741.90 0.3097
742.00 0.3095
742.10 0.3094
742.20 0.3092
742.30 0.3091
742.40 0.309
742.50 0.3088
742.60 0.3087
742.70 0.3086
742.80 0.3084
742.90 0.3083
743.00 0.3081
743.10 0.308
743.20 0.3079
743.30 0.3077
743.40 0.3076
743.50 0.3075
743.60 0.3073
743.70 0.3072
743.80 0.307
743.90 0.3069
744.00 0.3068
744.10 0.3066
744.20 0.3065
744.30 0.3064
744.40 0.3062
744.50 0.3061
744.60 0.3059
744.70 0.3058
744.80 0.3057
744.90 0.3055
745.00 0.3054
745.10 0.3053
745.20 0.3051
745.30 0.305
745.40 0.3048
745.50 0.3047
745.60 0.3046
745.70 0.3044
745.80 0.3043
745.90 0.3042
746.00 0.304
746.10 0.3039
746.20 0.3038
746.30 0.3036
746.40 0.3035
746.50 0.3034
746.60 0.3032
746.70 0.3031
746.80 0.3029
746.90 0.3028
747.00 0.3027
747.10 0.3025
747.20 0.3024
747.30 0.3023
747.40 0.3021
747.50 0.302
747.60 0.3019
747.70 0.3017
747.80 0.3016
747.90 0.3015
748.00 0.3013
748.10 0.3012
748.20 0.3011
748.30 0.3009
748.40 0.3008
748.50 0.3007
748.60 0.3005
748.70 0.3004
748.80 0.3002
748.90 0.3001
749.00 0.3
749.10 0.2998
749.20 0.2997
749.30 0.2996
749.40 0.2994
749.50 0.2993
749.60 0.2992
749.70 0.299
749.80 0.2989
749.90 0.2988
750.00 0.2986
750.10 0.2985
750.20 0.2984
750.30 0.2982
750.40 0.2981
750.50 0.298
750.60 0.2979
750.70 0.2977
750.80 0.2976
750.90 0.2975
751.00 0.2973
751.10 0.2972
751.20 0.2971
751.30 0.2969
751.40 0.2968
751.50 0.2967
751.60 0.2965
751.70 0.2964
751.80 0.2963
751.90 0.2961
752.00 0.296
752.10 0.2959
752.20 0.2957
752.30 0.2956
752.40 0.2955
752.50 0.2954
752.60 0.2952
752.70 0.2951
752.80 0.295
752.90 0.2948
753.00 0.2947
753.10 0.2946
753.20 0.2944
753.30 0.2943
753.40 0.2942
753.50 0.2941
753.60 0.2939
753.70 0.2938
753.80 0.2937
753.90 0.2935
754.00 0.2934
754.10 0.2933
754.20 0.2931
754.30 0.293
754.40 0.2929
754.50 0.2928
754.60 0.2926
754.70 0.2925
754.80 0.2924
754.90 0.2922
755.00 0.2921
755.10 0.292
755.20 0.2918
755.30 0.2917
755.40 0.2916
755.50 0.2915
755.60 0.2913
755.70 0.2912
755.80 0.2911
755.90 0.2909
756.00 0.2908
756.10 0.2907
756.20 0.2906
756.30 0.2904
756.40 0.2903
756.50 0.2902
756.60 0.29
756.70 0.2899
756.80 0.2898
756.90 0.2897
757.00 0.2895
757.10 0.2894
757.20 0.2893
757.30 0.2891
757.40 0.289
757.50 0.2889
757.60 0.2888
757.70 0.2886
757.80 0.2885
757.90 0.2884
758.00 0.2883
758.10 0.2881
758.20 0.288
758.30 0.2879
758.40 0.2877
758.50 0.2876
758.60 0.2875
758.70 0.2874
758.80 0.2872
758.90 0.2871
759.00 0.287
759.10 0.2869
759.20 0.2867
759.30 0.2866
759.40 0.2865
759.50 0.2863
759.60 0.2862
759.70 0.2861
759.80 0.286
759.90 0.2858
760.00 0.2857
760.10 0.2856
760.20 0.2855
760.30 0.2853
760.40 0.2852
760.50 0.2851
760.60 0.285
760.70 0.2848
760.80 0.2847
760.90 0.2846
761.00 0.2845
761.10 0.2843
761.20 0.2842
761.30 0.2841
761.40 0.284
761.50 0.2838
761.60 0.2837
761.70 0.2836
761.80 0.2835
761.90 0.2833
762.00 0.2832
762.10 0.2831
762.20 0.283
762.30 0.2829
762.40 0.2827
762.50 0.2826
762.60 0.2825
762.70 0.2824
762.80 0.2822
762.90 0.2821
763.00 0.282
763.10 0.2819
763.20 0.2817
763.30 0.2816
763.40 0.2815
763.50 0.2814
763.60 0.2812
763.70 0.2811
763.80 0.281
763.90 0.2809
764.00 0.2808
764.10 0.2806
764.20 0.2805
764.30 0.2804
764.40 0.2803
764.50 0.2801
764.60 0.28
764.70 0.2799
764.80 0.2798
764.90 0.2796
765.00 0.2795
765.10 0.2794
765.20 0.2793
765.30 0.2792
765.40 0.279
765.50 0.2789
765.60 0.2788
765.70 0.2787
765.80 0.2785
765.90 0.2784
766.00 0.2783
766.10 0.2782
766.20 0.2781
766.30 0.2779
766.40 0.2778
766.50 0.2777
766.60 0.2776
766.70 0.2775
766.80 0.2773
766.90 0.2772
767.00 0.2771
767.10 0.277
767.20 0.2768
767.30 0.2767
767.40 0.2766
767.50 0.2765
767.60 0.2764
767.70 0.2762
767.80 0.2761
767.90 0.276
768.00 0.2759
768.10 0.2758
768.20 0.2756
768.30 0.2755
768.40 0.2754
768.50 0.2753
768.60 0.2752
768.70 0.275
768.80 0.2749
768.90 0.2748
769.00 0.2747
769.10 0.2746
769.20 0.2744
769.30 0.2743
769.40 0.2742
769.50 0.2741
769.60 0.274
769.70 0.2738
769.80 0.2737
769.90 0.2736
770.00 0.2735
770.10 0.2734
770.20 0.2732
770.30 0.2731
770.40 0.273
770.50 0.2729
770.60 0.2728
770.70 0.2726
770.80 0.2725
770.90 0.2724
771.00 0.2723
771.10 0.2722
771.20 0.2721
771.30 0.2719
771.40 0.2718
771.50 0.2717
771.60 0.2716
771.70 0.2715
771.80 0.2713
771.90 0.2712
772.00 0.2711
772.10 0.271
772.20 0.2709
772.30 0.2708
772.40 0.2706
772.50 0.2705
772.60 0.2704
772.70 0.2703
772.80 0.2702
772.90 0.2701
773.00 0.2699
773.10 0.2698
773.20 0.2697
773.30 0.2696
773.40 0.2695
773.50 0.2694
773.60 0.2692
773.70 0.2691
773.80 0.269
773.90 0.2689
774.00 0.2688
774.10 0.2687
774.20 0.2685
774.30 0.2684
774.40 0.2683
774.50 0.2682
774.60 0.2681
774.70 0.268
774.80 0.2678
774.90 0.2677
775.00 0.2676
775.10 0.2675
775.20 0.2674
775.30 0.2673
775.40 0.2671
775.50 0.267
775.60 0.2669
775.70 0.2668
775.80 0.2667
775.90 0.2666
776.00 0.2665
776.10 0.2663
776.20 0.2662
776.30 0.2661
776.40 0.266
776.50 0.2659
776.60 0.2658
776.70 0.2656
776.80 0.2655
776.90 0.2654
777.00 0.2653
777.10 0.2652
777.20 0.2651
777.30 0.265
777.40 0.2648
777.50 0.2647
777.60 0.2646
777.70 0.2645
777.80 0.2644
777.90 0.2643
778.00 0.2642
778.10 0.264
778.20 0.2639
778.30 0.2638
778.40 0.2637
778.50 0.2636
778.60 0.2635
778.70 0.2634
778.80 0.2632
778.90 0.2631
779.00 0.263
779.10 0.2629
779.20 0.2628
779.30 0.2627
779.40 0.2626
779.50 0.2624
779.60 0.2623
779.70 0.2622
779.80 0.2621
779.90 0.262
780.00 0.2619
780.10 0.2618
780.20 0.2617
780.30 0.2615
780.40 0.2614
780.50 0.2613
780.60 0.2612
780.70 0.2611
780.80 0.261
780.90 0.2609
781.00 0.2608
781.10 0.2606
781.20 0.2605
781.30 0.2604
781.40 0.2603
781.50 0.2602
781.60 0.2601
781.70 0.26
781.80 0.2599
781.90 0.2597
782.00 0.2596
782.10 0.2595
782.20 0.2594
782.30 0.2593
782.40 0.2592
782.50 0.2591
782.60 0.259
782.70 0.2589
782.80 0.2587
782.90 0.2586
783.00 0.2585
783.10 0.2584
783.20 0.2583
783.30 0.2582
783.40 0.2581
783.50 0.258
783.60 0.2579
783.70 0.2577
783.80 0.2576
783.90 0.2575
784.00 0.2574
784.10 0.2573
784.20 0.2572
784.30 0.2571
784.40 0.257
784.50 0.2569
784.60 0.2568
784.70 0.2566
784.80 0.2565
784.90 0.2564
785.00 0.2563
785.10 0.2562
785.20 0.2561
785.30 0.256
785.40 0.2559
785.50 0.2558
785.60 0.2557
785.70 0.2555
785.80 0.2554
785.90 0.2553
786.00 0.2552
786.10 0.2551
786.20 0.255
786.30 0.2549
786.40 0.2548
786.50 0.2547
786.60 0.2546
786.70 0.2545
786.80 0.2543
786.90 0.2542
787.00 0.2541
787.10 0.254
787.20 0.2539
787.30 0.2538
787.40 0.2537
787.50 0.2536
787.60 0.2535
787.70 0.2534
787.80 0.2533
787.90 0.2531
788.00 0.253
788.10 0.2529
788.20 0.2528
788.30 0.2527
788.40 0.2526
788.50 0.2525
788.60 0.2524
788.70 0.2523
788.80 0.2522
788.90 0.2521
789.00 0.252
789.10 0.2518
789.20 0.2517
789.30 0.2516
789.40 0.2515
789.50 0.2514
789.60 0.2513
789.70 0.2512
789.80 0.2511
789.90 0.251
790.00 0.2509
790.10 0.2508
790.20 0.2507
790.30 0.2506
790.40 0.2505
790.50 0.2503
790.60 0.2502
790.70 0.2501
790.80 0.25
790.90 0.2499
791.00 0.2498
791.10 0.2497
791.20 0.2496
791.30 0.2495
791.40 0.2494
791.50 0.2493
791.60 0.2492
791.70 0.2491
791.80 0.249
791.90 0.2489
792.00 0.2488
792.10 0.2486
792.20 0.2485
792.30 0.2484
792.40 0.2483
792.50 0.2482
792.60 0.2481
792.70 0.248
792.80 0.2479
792.90 0.2478
793.00 0.2477
793.10 0.2476
793.20 0.2475
793.30 0.2474
793.40 0.2473
793.50 0.2472
793.60 0.2471
793.70 0.247
793.80 0.2469
793.90 0.2468
794.00 0.2466
794.10 0.2465
794.20 0.2464
794.30 0.2463
794.40 0.2462
794.50 0.2461
794.60 0.246
794.70 0.2459
794.80 0.2458
794.90 0.2457
795.00 0.2456
795.10 0.2455
795.20 0.2454
795.30 0.2453
795.40 0.2452
795.50 0.2451
795.60 0.245
795.70 0.2449
795.80 0.2448
795.90 0.2447
796.00 0.2446
796.10 0.2445
796.20 0.2444
796.30 0.2443
796.40 0.2441
796.50 0.244
796.60 0.2439
796.70 0.2438
796.80 0.2437
796.90 0.2436
797.00 0.2435
797.10 0.2434
797.20 0.2433
797.30 0.2432
797.40 0.2431
797.50 0.243
797.60 0.2429
797.70 0.2428
797.80 0.2427
797.90 0.2426
798.00 0.2425
798.10 0.2424
798.20 0.2423
798.30 0.2422
798.40 0.2421
798.50 0.242
798.60 0.2419
798.70 0.2418
798.80 0.2417
798.90 0.2416
799.00 0.2415
799.10 0.2414
799.20 0.2413
799.30 0.2412
799.40 0.2411
799.50 0.241
799.60 0.2409
799.70 0.2407
799.80 0.2406
799.90 0.2405
800.00 0.2404
800.10 0.2403
800.20 0.2402
800.30 0.2401
800.40 0.24
800.50 0.2399
800.60 0.2398
800.70 0.2397
800.80 0.2396
800.90 0.2395
801.00 0.2394
801.10 0.2393
801.20 0.2392
801.30 0.2391
801.40 0.239
801.50 0.2389
801.60 0.2388
801.70 0.2387
801.80 0.2386
801.90 0.2385
802.00 0.2384
802.10 0.2383
802.20 0.2382
802.30 0.2381
802.40 0.238
802.50 0.2379
802.60 0.2378
802.70 0.2377
802.80 0.2376
802.90 0.2375
803.00 0.2374
803.10 0.2373
803.20 0.2372
803.30 0.2371
803.40 0.237
803.50 0.2369
803.60 0.2368
803.70 0.2367
803.80 0.2366
803.90 0.2365
804.00 0.2364
804.10 0.2363
804.20 0.2362
804.30 0.2361
804.40 0.236
804.50 0.2359
804.60 0.2358
804.70 0.2357
804.80 0.2356
804.90 0.2355
805.00 0.2354
805.10 0.2353
805.20 0.2352
805.30 0.2351
805.40 0.235
805.50 0.2349
805.60 0.2348
805.70 0.2347
805.80 0.2346
805.90 0.2345
806.00 0.2345
806.10 0.2344
806.20 0.2343
806.30 0.2342
806.40 0.2341
806.50 0.234
806.60 0.2339
806.70 0.2338
806.80 0.2337
806.90 0.2336
807.00 0.2335
807.10 0.2334
807.20 0.2333
807.30 0.2332
807.40 0.2331
807.50 0.233
807.60 0.2329
807.70 0.2328
807.80 0.2327
807.90 0.2326
808.00 0.2325
808.10 0.2324
808.20 0.2323
808.30 0.2322
808.40 0.2321
808.50 0.232
808.60 0.2319
808.70 0.2318
808.80 0.2317
808.90 0.2316
809.00 0.2315
809.10 0.2314
809.20 0.2313
809.30 0.2312
809.40 0.2311
809.50 0.231
809.60 0.2309
809.70 0.2308
809.80 0.2307
809.90 0.2306
810.00 0.2305
810.10 0.2304
810.20 0.2303
810.30 0.2303
810.40 0.2302
810.50 0.2301
810.60 0.23
810.70 0.2299
810.80 0.2298
810.90 0.2297
811.00 0.2296
811.10 0.2295
811.20 0.2294
811.30 0.2293
811.40 0.2292
811.50 0.2291
811.60 0.229
811.70 0.2289
811.80 0.2288
811.90 0.2287
812.00 0.2286
812.10 0.2285
812.20 0.2284
812.30 0.2283
812.40 0.2282
812.50 0.2282
812.60 0.2281
812.70 0.228
812.80 0.2279
812.90 0.2278
813.00 0.2277
813.10 0.2276
813.20 0.2275
813.30 0.2274
813.40 0.2273
813.50 0.2272
813.60 0.2271
813.70 0.227
813.80 0.2269
813.90 0.2268
814.00 0.2267
814.10 0.2266
814.20 0.2265
814.30 0.2264
814.40 0.2264
814.50 0.2263
814.60 0.2262
814.70 0.2261
814.80 0.226
814.90 0.2259
815.00 0.2258
815.10 0.2257
815.20 0.2256
815.30 0.2255
815.40 0.2254
815.50 0.2253
815.60 0.2252
815.70 0.2251
815.80 0.225
815.90 0.2249
816.00 0.2249
816.10 0.2248
816.20 0.2247
816.30 0.2246
816.40 0.2245
816.50 0.2244
816.60 0.2243
816.70 0.2242
816.80 0.2241
816.90 0.224
817.00 0.2239
817.10 0.2238
817.20 0.2237
817.30 0.2236
817.40 0.2235
817.50 0.2235
817.60 0.2234
817.70 0.2233
817.80 0.2232
817.90 0.2231
818.00 0.223
818.10 0.2229
818.20 0.2228
818.30 0.2227
818.40 0.2226
818.50 0.2225
818.60 0.2224
818.70 0.2223
818.80 0.2222
818.90 0.2222
819.00 0.2221
819.10 0.222
819.20 0.2219
819.30 0.2218
819.40 0.2217
819.50 0.2216
819.60 0.2215
819.70 0.2214
819.80 0.2213
819.90 0.2212
820.00 0.2211
820.10 0.2211
820.20 0.221
820.30 0.2209
820.40 0.2208
820.50 0.2207
820.60 0.2206
820.70 0.2205
820.80 0.2204
820.90 0.2203
821.00 0.2202
821.10 0.2202
821.20 0.2201
821.30 0.22
821.40 0.2199
821.50 0.2198
821.60 0.2197
821.70 0.2196
821.80 0.2195
821.90 0.2194
822.00 0.2193
822.10 0.2192
822.20 0.2192
822.30 0.2191
822.40 0.219
822.50 0.2189
822.60 0.2188
822.70 0.2187
822.80 0.2186
822.90 0.2185
823.00 0.2184
823.10 0.2183
823.20 0.2183
823.30 0.2182
823.40 0.2181
823.50 0.218
823.60 0.2179
823.70 0.2178
823.80 0.2177
823.90 0.2176
824.00 0.2175
824.10 0.2174
824.20 0.2174
824.30 0.2173
824.40 0.2172
824.50 0.2171
824.60 0.217
824.70 0.2169
824.80 0.2168
824.90 0.2167
825.00 0.2166
825.10 0.2166
825.20 0.2165
825.30 0.2164
825.40 0.2163
825.50 0.2162
825.60 0.2161
825.70 0.216
825.80 0.2159
825.90 0.2158
826.00 0.2157
826.10 0.2157
826.20 0.2156
826.30 0.2155
826.40 0.2154
826.50 0.2153
826.60 0.2152
826.70 0.2151
826.80 0.215
826.90 0.2149
827.00 0.2149
827.10 0.2148
827.20 0.2147
827.30 0.2146
827.40 0.2145
827.50 0.2144
827.60 0.2143
827.70 0.2142
827.80 0.2142
827.90 0.2141
828.00 0.214
828.10 0.2139
828.20 0.2138
828.30 0.2137
828.40 0.2136
828.50 0.2135
828.60 0.2135
828.70 0.2134
828.80 0.2133
828.90 0.2132
829.00 0.2131
829.10 0.213
829.20 0.2129
829.30 0.2128
829.40 0.2128
829.50 0.2127
829.60 0.2126
829.70 0.2125
829.80 0.2124
829.90 0.2123
830.00 0.2122
830.10 0.2121
830.20 0.2121
830.30 0.212
830.40 0.2119
830.50 0.2118
830.60 0.2117
830.70 0.2116
830.80 0.2115
830.90 0.2114
831.00 0.2114
831.10 0.2113
831.20 0.2112
831.30 0.2111
831.40 0.211
831.50 0.2109
831.60 0.2108
831.70 0.2108
831.80 0.2107
831.90 0.2106
832.00 0.2105
832.10 0.2104
832.20 0.2103
832.30 0.2102
832.40 0.2102
832.50 0.2101
832.60 0.21
832.70 0.2099
832.80 0.2098
832.90 0.2097
833.00 0.2096
833.10 0.2096
833.20 0.2095
833.30 0.2094
833.40 0.2093
833.50 0.2092
833.60 0.2091
833.70 0.209
833.80 0.209
833.90 0.2089
834.00 0.2088
834.10 0.2087
834.20 0.2086
834.30 0.2085
834.40 0.2084
834.50 0.2084
834.60 0.2083
834.70 0.2082
834.80 0.2081
834.90 0.208
835.00 0.2079
835.10 0.2078
835.20 0.2078
835.30 0.2077
835.40 0.2076
835.50 0.2075
835.60 0.2074
835.70 0.2073
835.80 0.2073
835.90 0.2072
836.00 0.2071
836.10 0.207
836.20 0.2069
836.30 0.2068
836.40 0.2067
836.50 0.2067
836.60 0.2066
836.70 0.2065
836.80 0.2064
836.90 0.2063
837.00 0.2062
837.10 0.2062
837.20 0.2061
837.30 0.206
837.40 0.2059
837.50 0.2058
837.60 0.2057
837.70 0.2057
837.80 0.2056
837.90 0.2055
838.00 0.2054
838.10 0.2053
838.20 0.2052
838.30 0.2052
838.40 0.2051
838.50 0.205
838.60 0.2049
838.70 0.2048
838.80 0.2047
838.90 0.2047
839.00 0.2046
839.10 0.2045
839.20 0.2044
839.30 0.2043
839.40 0.2042
839.50 0.2042
839.60 0.2041
839.70 0.204
839.80 0.2039
839.90 0.2038
840.00 0.2037
840.10 0.2037
840.20 0.2036
840.30 0.2035
840.40 0.2034
840.50 0.2033
840.60 0.2032
840.70 0.2032
840.80 0.2031
840.90 0.203
841.00 0.2029
841.10 0.2028
841.20 0.2027
841.30 0.2027
841.40 0.2026
841.50 0.2025
841.60 0.2024
841.70 0.2023
841.80 0.2023
841.90 0.2022
842.00 0.2021
842.10 0.202
842.20 0.2019
842.30 0.2018
842.40 0.2018
842.50 0.2017
842.60 0.2016
842.70 0.2015
842.80 0.2014
842.90 0.2014
843.00 0.2013
843.10 0.2012
843.20 0.2011
843.30 0.201
843.40 0.2009
843.50 0.2009
843.60 0.2008
843.70 0.2007
843.80 0.2006
843.90 0.2005
844.00 0.2005
844.10 0.2004
844.20 0.2003
844.30 0.2002
844.40 0.2001
844.50 0.2001
844.60 0.2
844.70 0.1999
844.80 0.1998
844.90 0.1997
845.00 0.1997
845.10 0.1996
845.20 0.1995
845.30 0.1994
845.40 0.1993
845.50 0.1992
845.60 0.1992
845.70 0.1991
845.80 0.199
845.90 0.1989
846.00 0.1988
846.10 0.1988
846.20 0.1987
846.30 0.1986
846.40 0.1985
846.50 0.1984
846.60 0.1984
846.70 0.1983
846.80 0.1982
846.90 0.1981
847.00 0.198
847.10 0.198
847.20 0.1979
847.30 0.1978
847.40 0.1977
847.50 0.1977
847.60 0.1976
847.70 0.1975
847.80 0.1974
847.90 0.1973
848.00 0.1973
848.10 0.1972
848.20 0.1971
848.30 0.197
848.40 0.1969
848.50 0.1969
848.60 0.1968
848.70 0.1967
848.80 0.1966
848.90 0.1966
849.00 0.1965
849.10 0.1964
849.20 0.1963
849.30 0.1962
849.40 0.1962
849.50 0.1961
849.60 0.196
849.70 0.1959
849.80 0.1959
849.90 0.1958
850.00 0.1957
850.10 0.1956
850.20 0.1955
850.30 0.1955
850.40 0.1954
850.50 0.1953
850.60 0.1952
850.70 0.1952
850.80 0.1951
850.90 0.195
851.00 0.1949
851.10 0.1948
851.20 0.1948
851.30 0.1947
851.40 0.1946
851.50 0.1945
851.60 0.1945
851.70 0.1944
851.80 0.1943
851.90 0.1942
852.00 0.1941
852.10 0.1941
852.20 0.194
852.30 0.1939
852.40 0.1938
852.50 0.1938
852.60 0.1937
852.70 0.1936
852.80 0.1935
852.90 0.1935
853.00 0.1934
853.10 0.1933
853.20 0.1932
853.30 0.1932
853.40 0.1931
853.50 0.193
853.60 0.1929
853.70 0.1928
853.80 0.1928
853.90 0.1927
854.00 0.1926
854.10 0.1925
854.20 0.1925
854.30 0.1924
854.40 0.1923
854.50 0.1922
854.60 0.1922
854.70 0.1921
854.80 0.192
854.90 0.1919
855.00 0.1919
855.10 0.1918
855.20 0.1917
855.30 0.1916
855.40 0.1916
855.50 0.1915
855.60 0.1914
855.70 0.1913
855.80 0.1913
855.90 0.1912
856.00 0.1911
856.10 0.191
856.20 0.191
856.30 0.1909
856.40 0.1908
856.50 0.1907
856.60 0.1907
856.70 0.1906
856.80 0.1905
856.90 0.1904
857.00 0.1904
857.10 0.1903
857.20 0.1902
857.30 0.1901
857.40 0.1901
857.50 0.19
857.60 0.1899
857.70 0.1898
857.80 0.1898
857.90 0.1897
858.00 0.1896
858.10 0.1895
858.20 0.1895
858.30 0.1894
858.40 0.1893
858.50 0.1893
858.60 0.1892
858.70 0.1891
858.80 0.189
858.90 0.189
859.00 0.1889
859.10 0.1888
859.20 0.1887
859.30 0.1887
859.40 0.1886
859.50 0.1885
859.60 0.1884
859.70 0.1884
859.80 0.1883
859.90 0.1882
860.00 0.1882
860.10 0.1881
860.20 0.188
860.30 0.1879
860.40 0.1879
860.50 0.1878
860.60 0.1877
860.70 0.1876
860.80 0.1876
860.90 0.1875
861.00 0.1874
861.10 0.1874
861.20 0.1873
861.30 0.1872
861.40 0.1871
861.50 0.1871
861.60 0.187
861.70 0.1869
861.80 0.1868
861.90 0.1868
862.00 0.1867
862.10 0.1866
862.20 0.1866
862.30 0.1865
862.40 0.1864
862.50 0.1863
862.60 0.1863
862.70 0.1862
862.80 0.1861
862.90 0.1861
863.00 0.186
863.10 0.1859
863.20 0.1858
863.30 0.1858
863.40 0.1857
863.50 0.1856
863.60 0.1856
863.70 0.1855
863.80 0.1854
863.90 0.1853
864.00 0.1853
864.10 0.1852
864.20 0.1851
864.30 0.1851
864.40 0.185
864.50 0.1849
864.60 0.1848
864.70 0.1848
864.80 0.1847
864.90 0.1846
865.00 0.1846
865.10 0.1845
865.20 0.1844
865.30 0.1843
865.40 0.1843
865.50 0.1842
865.60 0.1841
865.70 0.1841
865.80 0.184
865.90 0.1839
866.00 0.1839
866.10 0.1838
866.20 0.1837
866.30 0.1836
866.40 0.1836
866.50 0.1835
866.60 0.1834
866.70 0.1834
866.80 0.1833
866.90 0.1832
867.00 0.1831
867.10 0.1831
867.20 0.183
867.30 0.1829
867.40 0.1829
867.50 0.1828
867.60 0.1827
867.70 0.1827
867.80 0.1826
867.90 0.1825
868.00 0.1825
868.10 0.1824
868.20 0.1823
868.30 0.1823
868.40 0.1822
868.50 0.1821
868.60 0.1821
868.70 0.182
868.80 0.1819
868.90 0.1819
869.00 0.1818
869.10 0.1817
869.20 0.1817
869.30 0.1816
869.40 0.1815
869.50 0.1815
869.60 0.1814
869.70 0.1813
869.80 0.1813
869.90 0.1812
870.00 0.1811
870.10 0.1811
870.20 0.181
870.30 0.1809
870.40 0.1809
870.50 0.1808
870.60 0.1807
870.70 0.1807
870.80 0.1806
870.90 0.1805
871.00 0.1805
871.10 0.1804
871.20 0.1803
871.30 0.1803
871.40 0.1802
871.50 0.1801
871.60 0.1801
871.70 0.18
871.80 0.1799
871.90 0.1799
872.00 0.1798
872.10 0.1797
872.20 0.1797
872.30 0.1796
872.40 0.1796
872.50 0.1795
872.60 0.1794
872.70 0.1794
872.80 0.1793
872.90 0.1792
873.00 0.1792
873.10 0.1791
873.20 0.179
873.30 0.179
873.40 0.1789
873.50 0.1788
873.60 0.1788
873.70 0.1787
873.80 0.1786
873.90 0.1786
874.00 0.1785
874.10 0.1784
874.20 0.1784
874.30 0.1783
874.40 0.1782
874.50 0.1782
874.60 0.1781
874.70 0.178
874.80 0.178
874.90 0.1779
875.00 0.1778
875.10 0.1778
875.20 0.1777
875.30 0.1777
875.40 0.1776
875.50 0.1775
875.60 0.1775
875.70 0.1774
875.80 0.1773
875.90 0.1773
876.00 0.1772
876.10 0.1771
876.20 0.1771
876.30 0.177
876.40 0.1769
876.50 0.1769
876.60 0.1768
876.70 0.1767
876.80 0.1767
876.90 0.1766
877.00 0.1766
877.10 0.1765
877.20 0.1764
877.30 0.1764
877.40 0.1763
877.50 0.1762
877.60 0.1762
877.70 0.1761
877.80 0.1761
877.90 0.176
878.00 0.1759
878.10 0.1759
878.20 0.1758
878.30 0.1758
878.40 0.1757
878.50 0.1756
878.60 0.1756
878.70 0.1755
878.80 0.1754
878.90 0.1754
879.00 0.1753
879.10 0.1753
879.20 0.1752
879.30 0.1751
879.40 0.1751
879.50 0.175
879.60 0.175
879.70 0.1749
879.80 0.1748
879.90 0.1748
880.00 0.1747
880.10 0.1747
880.20 0.1746
880.30 0.1745
880.40 0.1745
880.50 0.1744
880.60 0.1744
880.70 0.1743
880.80 0.1742
880.90 0.1742
881.00 0.1741
881.10 0.174
881.20 0.174
881.30 0.1739
881.40 0.1739
881.50 0.1738
881.60 0.1737
881.70 0.1737
881.80 0.1736
881.90 0.1736
882.00 0.1735
882.10 0.1734
882.20 0.1734
882.30 0.1733
882.40 0.1732
882.50 0.1732
882.60 0.1731
882.70 0.173
882.80 0.173
882.90 0.1729
883.00 0.1728
883.10 0.1728
883.20 0.1727
883.30 0.1726
883.40 0.1726
883.50 0.1725
883.60 0.1724
883.70 0.1724
883.80 0.1723
883.90 0.1722
884.00 0.1721
884.10 0.1721
884.20 0.172
884.30 0.1719
884.40 0.1719
884.50 0.1718
884.60 0.1717
884.70 0.1717
884.80 0.1716
884.90 0.1715
885.00 0.1715
885.10 0.1714
885.20 0.1713
885.30 0.1713
885.40 0.1712
885.50 0.1711
885.60 0.1711
885.70 0.171
885.80 0.1709
885.90 0.1709
886.00 0.1708
886.10 0.1707
886.20 0.1707
886.30 0.1706
886.40 0.1705
886.50 0.1705
886.60 0.1704
886.70 0.1703
886.80 0.1703
886.90 0.1702
887.00 0.1701
887.10 0.1701
887.20 0.17
887.30 0.17
887.40 0.1699
887.50 0.1699
887.60 0.1698
887.70 0.1698
887.80 0.1697
887.90 0.1697
888.00 0.1696
888.10 0.1696
888.20 0.1695
888.30 0.1695
888.40 0.1694
888.50 0.1694
888.60 0.1693
888.70 0.1693
888.80 0.1692
888.90 0.1692
889.00 0.1691
889.10 0.1691
889.20 0.169
889.30 0.169
889.40 0.1689
889.50 0.1689
889.60 0.1688
889.70 0.1688
889.80 0.1687
889.90 0.1687
890.00 0.1686
890.10 0.1686
890.20 0.1685
890.30 0.1685
890.40 0.1684
890.50 0.1684
890.60 0.1683
890.70 0.1683
890.80 0.1682
890.90 0.1682
891.00 0.1681
891.10 0.1681
891.20 0.168
891.30 0.168
891.40 0.1679
891.50 0.1679
891.60 0.1678
891.70 0.1678
891.80 0.1677
891.90 0.1677
892.00 0.1676
892.10 0.1676
892.20 0.1675
892.30 0.1675
892.40 0.1674
892.50 0.1674
892.60 0.1673
892.70 0.1672
892.80 0.1672
892.90 0.1671
893.00 0.1671
893.10 0.167
893.20 0.167
893.30 0.1669
893.40 0.1668
893.50 0.1668
893.60 0.1667
893.70 0.1667
893.80 0.1666
893.90 0.1666
894.00 0.1665
894.10 0.1664
894.20 0.1664
894.30 0.1663
894.40 0.1663
894.50 0.1662
894.60 0.1662
894.70 0.1661
894.80 0.166
894.90 0.166
895.00 0.1659
895.10 0.1659
895.20 0.1658
895.30 0.1658
895.40 0.1657
895.50 0.1656
895.60 0.1656
895.70 0.1655
895.80 0.1655
895.90 0.1654
896.00 0.1654
896.10 0.1653
896.20 0.1652
896.30 0.1652
896.40 0.1651
896.50 0.1651
896.60 0.165
896.70 0.165
896.80 0.1649
896.90 0.1649
897.00 0.1648
897.10 0.1647
897.20 0.1646
897.30 0.1646
897.40 0.1645
897.50 0.1644
897.60 0.1643
897.70 0.1642
897.80 0.1642
897.90 0.1641
898.00 0.164
898.10 0.1639
898.20 0.1638
898.30 0.1637
898.40 0.1637
898.50 0.1636
898.60 0.1635
898.70 0.1634
898.80 0.1633
898.90 0.1633
899.00 0.1632
899.10 0.1631
899.20 0.163
899.30 0.1629
899.40 0.1629
899.50 0.1628
899.60 0.1627
899.70 0.1626
899.80 0.1625
899.90 0.1625
900.00 0.1624
900.10 0.1623
900.20 0.1622
900.30 0.1621
900.40 0.1621
900.50 0.162
900.60 0.1619
900.70 0.1618
900.80 0.1617
900.90 0.1617
901.00 0.1616
901.10 0.1615
901.20 0.1614
901.30 0.1613
901.40 0.1613
901.50 0.1612
901.60 0.1611
901.70 0.161
901.80 0.1609
901.90 0.1609
902.00 0.1608
902.10 0.1607
902.20 0.1607
902.30 0.1607
902.40 0.1606
902.50 0.1606
902.60 0.1606
902.70 0.1605
902.80 0.1605
902.90 0.1605
903.00 0.1604
903.10 0.1604
903.20 0.1604
903.30 0.1603
903.40 0.1603
903.50 0.1603
903.60 0.1602
903.70 0.1602
903.80 0.1602
903.90 0.1601
904.00 0.1601
904.10 0.1601
904.20 0.16
904.30 0.16
904.40 0.16
904.50 0.1599
904.60 0.1599
904.70 0.1599
904.80 0.1598
904.90 0.1598
905.00 0.1598
905.10 0.1598
905.20 0.1597
905.30 0.1597
905.40 0.1597
905.50 0.1596
905.60 0.1596
905.70 0.1596
905.80 0.1595
905.90 0.1595
906.00 0.1595
906.10 0.1594
906.20 0.1594
906.30 0.1594
906.40 0.1593
906.50 0.1593
906.60 0.1593
906.70 0.1592
906.80 0.1592
906.90 0.1592
907.00 0.1591
907.10 0.1591
907.20 0.159
907.30 0.159
907.40 0.1589
907.50 0.1589
907.60 0.1589
907.70 0.1588
907.80 0.1588
907.90 0.1587
908.00 0.1587
908.10 0.1586
908.20 0.1586
908.30 0.1586
908.40 0.1585
908.50 0.1585
908.60 0.1584
908.70 0.1584
908.80 0.1583
908.90 0.1583
909.00 0.1582
909.10 0.1582
909.20 0.1582
909.30 0.1581
909.40 0.1581
909.50 0.158
909.60 0.158
909.70 0.1579
909.80 0.1579
909.90 0.1579
910.00 0.1578
910.10 0.1578
910.20 0.1577
910.30 0.1577
910.40 0.1576
910.50 0.1576
910.60 0.1575
910.70 0.1575
910.80 0.1575
910.90 0.1574
911.00 0.1574
911.10 0.1573
911.20 0.1573
911.30 0.1572
911.40 0.1572
911.50 0.1572
911.60 0.1571
911.70 0.1571
911.80 0.157
911.90 0.157
912.00 0.1569
912.10 0.1569
912.20 0.1568
912.30 0.1568
912.40 0.1567
912.50 0.1566
912.60 0.1566
912.70 0.1565
912.80 0.1564
912.90 0.1564
913.00 0.1563
913.10 0.1563
913.20 0.1562
913.30 0.1561
913.40 0.1561
913.50 0.156
913.60 0.156
913.70 0.1559
913.80 0.1558
913.90 0.1558
914.00 0.1557
914.10 0.1556
914.20 0.1556
914.30 0.1555
914.40 0.1555
914.50 0.1554
914.60 0.1553
914.70 0.1553
914.80 0.1552
914.90 0.1552
915.00 0.1551
915.10 0.155
915.20 0.155
915.30 0.1549
915.40 0.1548
915.50 0.1548
915.60 0.1547
915.70 0.1547
915.80 0.1546
915.90 0.1545
916.00 0.1545
916.10 0.1544
916.20 0.1544
916.30 0.1543
916.40 0.1542
916.50 0.1542
916.60 0.1541
916.70 0.1541
916.80 0.154
916.90 0.1539
917.00 0.1539
917.10 0.1538
917.20 0.1537
917.30 0.1536
917.40 0.1535
917.50 0.1534
917.60 0.1534
917.70 0.1533
917.80 0.1532
917.90 0.1531
918.00 0.153
918.10 0.1529
918.20 0.1529
918.30 0.1528
918.40 0.1527
918.50 0.1526
918.60 0.1525
918.70 0.1524
918.80 0.1523
918.90 0.1523
919.00 0.1522
919.10 0.1521
919.20 0.152
919.30 0.1519
919.40 0.1518
919.50 0.1518
919.60 0.1517
919.70 0.1516
919.80 0.1515
919.90 0.1514
920.00 0.1513
920.10 0.1513
920.20 0.1512
920.30 0.1511
920.40 0.151
920.50 0.1509
920.60 0.1508
920.70 0.1508
920.80 0.1507
920.90 0.1506
921.00 0.1505
921.10 0.1504
921.20 0.1503
921.30 0.1503
921.40 0.1502
921.50 0.1501
921.60 0.15
921.70 0.1499
921.80 0.1498
921.90 0.1498
922.00 0.1497
922.10 0.1496
922.20 0.1495
922.30 0.1494
922.40 0.1493
922.50 0.1493
922.60 0.1492
922.70 0.1491
922.80 0.149
922.90 0.1489
923.00 0.1488
923.10 0.1488
923.20 0.1487
923.30 0.1486
923.40 0.1485
923.50 0.1484
923.60 0.1484
923.70 0.1483
923.80 0.1482
923.90 0.1481
924.00 0.148
924.10 0.1479
924.20 0.1479
924.30 0.1478
924.40 0.1477
924.50 0.1476
924.60 0.1475
924.70 0.1475
924.80 0.1474
924.90 0.1473
925.00 0.1472
925.10 0.1471
925.20 0.147
925.30 0.147
925.40 0.1469
925.50 0.1468
925.60 0.1467
925.70 0.1466
925.80 0.1466
925.90 0.1465
926.00 0.1464
926.10 0.1463
926.20 0.1462
926.30 0.1461
926.40 0.1461
926.50 0.146
926.60 0.1459
926.70 0.1458
926.80 0.1457
926.90 0.1457
927.00 0.1456
927.10 0.1456
927.20 0.1456
927.30 0.1456
927.40 0.1456
927.50 0.1456
927.60 0.1456
927.70 0.1456
927.80 0.1456
927.90 0.1456
928.00 0.1456
928.10 0.1456
928.20 0.1456
928.30 0.1456
928.40 0.1456
928.50 0.1456
928.60 0.1456
928.70 0.1456
928.80 0.1456
928.90 0.1456
929.00 0.1456
929.10 0.1456
929.20 0.1456
929.30 0.1456
929.40 0.1456
929.50 0.1456
929.60 0.1456
929.70 0.1456
929.80 0.1456
929.90 0.1456
930.00 0.1457
930.10 0.1457
930.20 0.1457
930.30 0.1457
930.40 0.1457
930.50 0.1457
930.60 0.1457
930.70 0.1457
930.80 0.1457
930.90 0.1457
931.00 0.1457
931.10 0.1457
931.20 0.1457
931.30 0.1457
931.40 0.1457
931.50 0.1457
931.60 0.1457
931.70 0.1457
931.80 0.1457
931.90 0.1457
932.00 0.1457
932.10 0.1457
932.20 0.1457
932.30 0.1456
932.40 0.1456
932.50 0.1456
932.60 0.1456
932.70 0.1455
932.80 0.1455
932.90 0.1455
933.00 0.1455
933.10 0.1455
933.20 0.1454
933.30 0.1454
933.40 0.1454
933.50 0.1454
933.60 0.1453
933.70 0.1453
933.80 0.1453
933.90 0.1453
934.00 0.1453
934.10 0.1452
934.20 0.1452
934.30 0.1452
934.40 0.1452
934.50 0.1451
934.60 0.1451
934.70 0.1451
934.80 0.145
934.90 0.145
935.00 0.1449
935.10 0.1449
935.20 0.1449
935.30 0.1448
935.40 0.1448
935.50 0.1448
935.60 0.1447
935.70 0.1447
935.80 0.1447
935.90 0.1446
936.00 0.1446
936.10 0.1446
936.20 0.1445
936.30 0.1445
936.40 0.1445
936.50 0.1444
936.60 0.1444
936.70 0.1444
936.80 0.1443
936.90 0.1443
937.00 0.1442
937.10 0.1442
937.20 0.1442
937.30 0.1441
937.40 0.1441
937.50 0.144
937.60 0.144
937.70 0.1439
937.80 0.1439
937.90 0.1439
938.00 0.1438
938.10 0.1438
938.20 0.1437
938.30 0.1437
938.40 0.1436
938.50 0.1436
938.60 0.1435
938.70 0.1435
938.80 0.1434
938.90 0.1434
939.00 0.1433
939.10 0.1433
939.20 0.1432
939.30 0.1432
939.40 0.1431
939.50 0.1431
939.60 0.143
939.70 0.143
939.80 0.1429
939.90 0.1429
940.00 0.1428
940.10 0.1428
940.20 0.1427
940.30 0.1427
940.40 0.1426
940.50 0.1425
940.60 0.1425
940.70 0.1424
940.80 0.1424
940.90 0.1423
941.00 0.1422
941.10 0.1422
941.20 0.1421
941.30 0.1421
941.40 0.142
941.50 0.1419
941.60 0.1419
941.70 0.1418
941.80 0.1417
941.90 0.1417
942.00 0.1416
942.10 0.1416
942.20 0.1415
942.30 0.1414
942.40 0.1413
942.50 0.1413
942.60 0.1412
942.70 0.1411
942.80 0.141
942.90 0.141
943.00 0.1409
943.10 0.1408
943.20 0.1407
943.30 0.1407
943.40 0.1406
943.50 0.1405
943.60 0.1404
943.70 0.1403
943.80 0.1403
943.90 0.1402
944.00 0.1401
944.10 0.14
944.20 0.14
944.30 0.1399
944.40 0.1398
944.50 0.1397
944.60 0.1396
944.70 0.1395
944.80 0.1394
944.90 0.1393
945.00 0.1392
945.10 0.1391
945.20 0.139
945.30 0.1389
945.40 0.1388
945.50 0.1387
945.60 0.1386
945.70 0.1385
945.80 0.1384
945.90 0.1383
946.00 0.1382
946.10 0.138
946.20 0.1379
946.30 0.1378
946.40 0.1377
946.50 0.1376
946.60 0.1375
946.70 0.1374
946.80 0.1373
946.90 0.1372
947.00 0.137
947.10 0.1369
947.20 0.1368
947.30 0.1367
947.40 0.1365
947.50 0.1364
947.60 0.1362
947.70 0.1361
947.80 0.1359
947.90 0.1358
948.00 0.1356
948.10 0.1355
948.20 0.1354
948.30 0.1352
948.40 0.1351
948.50 0.1349
948.60 0.1348
948.70 0.1346
948.80 0.1345
948.90 0.1343
949.00 0.1342
949.10 0.1341
949.20 0.1339
949.30 0.1338
949.40 0.1336
949.50 0.1335
949.60 0.1333
949.70 0.1331
949.80 0.133
949.90 0.1328
950.00 0.1327
950.10 0.1325
950.20 0.1324
950.30 0.1322
950.40 0.1321
950.50 0.1319
950.60 0.1317
950.70 0.1316
950.80 0.1314
950.90 0.1313
951.00 0.1311
951.10 0.131
951.20 0.1308
951.30 0.1307
951.40 0.1305
951.50 0.1304
951.60 0.1303
951.70 0.1301
951.80 0.13
951.90 0.1299
952.00 0.1297
952.10 0.1297
952.20 0.1296
952.30 0.1295
952.40 0.1294
952.50 0.1293
952.60 0.1292
952.70 0.1291
952.80 0.129
952.90 0.129
953.00 0.129
953.10 0.129
953.20 0.129
953.30 0.129
953.40 0.129
953.50 0.129
953.60 0.1293
953.70 0.1297
953.80 0.1301
953.90 0.1304
954.00 0.1307
954.10 0.131
954.20 0.1313
954.30 0.1302
954.40 0.1289
954.50 0.1286
954.60 0.1282
954.70 0.1279
954.80 0.1275
954.90 0.127
955.00 0.1266
955.10 0.1262
955.20 0.1261
955.30 0.126
955.40 0.1258
955.50 0.1257
955.60 0.1256
955.70 0.1254
955.80 0.1253
955.90 0.1253
956.00 0.1252
956.10 0.1252
956.20 0.1252
956.30 0.1251
956.40 0.1251
956.50 0.125
956.60 0.125
956.70 0.125
956.80 0.1249
956.90 0.1249
957.00 0.1248
957.10 0.1249
957.20 0.1249
957.30 0.1249
957.40 0.125
957.50 0.1251
957.60 0.1251
957.70 0.1252
957.80 0.1252
957.90 0.1253
958.00 0.1253
958.10 0.1254
958.20 0.1255
958.30 0.1255
958.40 0.1256
958.50 0.1256
958.60 0.1257
958.70 0.1257
958.80 0.1258
958.90 0.1259
959.00 0.1259
959.10 0.126
959.20 0.126
959.30 0.1261
959.40 0.1261
959.50 0.1262
959.60 0.1263
959.70 0.1263
959.80 0.1264
959.90 0.1264
960.00 0.1265
960.10 0.1266
960.20 0.1266
960.30 0.1267
960.40 0.1267
960.50 0.1268
960.60 0.1269
960.70 0.1269
960.80 0.127
960.90 0.127
961.00 0.1271
961.10 0.1272
961.20 0.1272
961.30 0.1273
961.40 0.1273
961.50 0.1274
961.60 0.1274
961.70 0.1275
961.80 0.1275
961.90 0.1276
962.00 0.1276
962.10 0.1276
962.20 0.1277
962.30 0.1277
962.40 0.1278
962.50 0.1278
962.60 0.1278
962.70 0.1279
962.80 0.1279
962.90 0.128
963.00 0.128
963.10 0.128
963.20 0.1281
963.30 0.1281
963.40 0.1281
963.50 0.1282
963.60 0.1282
963.70 0.1282
963.80 0.1283
963.90 0.1283
964.00 0.1283
964.10 0.1283
964.20 0.1284
964.30 0.1284
964.40 0.1284
964.50 0.1284
964.60 0.1284
964.70 0.1285
964.80 0.1285
964.90 0.1285
965.00 0.1285
965.10 0.1285
965.20 0.1285
965.30 0.1285
965.40 0.1286
965.50 0.1286
965.60 0.1286
965.70 0.1286
965.80 0.1286
965.90 0.1286
966.00 0.1286
966.10 0.1287
966.20 0.1287
966.30 0.1287
966.40 0.1287
966.50 0.1287
966.60 0.1287
966.70 0.1287
966.80 0.1287
966.90 0.1287
967.00 0.1287
967.10 0.1287
967.20 0.1287
967.30 0.1287
967.40 0.1287
967.50 0.1287
967.60 0.1287
967.70 0.1287
967.80 0.1287
967.90 0.1287
968.00 0.1287
968.10 0.1287
968.20 0.1287
968.30 0.1287
968.40 0.1287
968.50 0.1287
968.60 0.1287
968.70 0.1286
968.80 0.1286
968.90 0.1286
969.00 0.1286
969.10 0.1286
969.20 0.1286
969.30 0.1286
969.40 0.1286
969.50 0.1286
969.60 0.1285
969.70 0.1285
969.80 0.1285
969.90 0.1285
970.00 0.1285
970.10 0.1285
970.20 0.1285
970.30 0.1285
970.40 0.1284
970.50 0.1284
970.60 0.1284
970.70 0.1284
970.80 0.1284
970.90 0.1283
971.00 0.1283
971.10 0.1283
971.20 0.1283
971.30 0.1283
971.40 0.1282
971.50 0.1282
971.60 0.1282
971.70 0.1282
971.80 0.1282
971.90 0.1281
972.00 0.1281
972.10 0.1281
972.20 0.1281
972.30 0.128
972.40 0.128
972.50 0.128
972.60 0.128
972.70 0.1279
972.80 0.1279
972.90 0.1279
973.00 0.1279
973.10 0.1278
973.20 0.1278
973.30 0.1278
973.40 0.1277
973.50 0.1277
973.60 0.1277
973.70 0.1277
973.80 0.1276
973.90 0.1276
974.00 0.1276
974.10 0.1276
974.20 0.1275
974.30 0.1275
974.40 0.1275
974.50 0.1274
974.60 0.1274
974.70 0.1274
974.80 0.1273
974.90 0.1273
975.00 0.1273
975.10 0.1272
975.20 0.1272
975.30 0.1272
975.40 0.1271
975.50 0.1271
975.60 0.127
975.70 0.127
975.80 0.127
975.90 0.1269
976.00 0.1269
976.10 0.1269
976.20 0.1268
976.30 0.1268
976.40 0.1268
976.50 0.1267
976.60 0.1267
976.70 0.1267
976.80 0.1266
976.90 0.1266
977.00 0.1266
977.10 0.1265
977.20 0.1265
977.30 0.1264
977.40 0.1264
977.50 0.1263
977.60 0.1263
977.70 0.1263
977.80 0.1262
977.90 0.1262
978.00 0.1261
978.10 0.1261
978.20 0.126
978.30 0.126
978.40 0.1259
978.50 0.1259
978.60 0.1259
978.70 0.1258
978.80 0.1258
978.90 0.1257
979.00 0.1257
979.10 0.1256
979.20 0.1256
979.30 0.1255
979.40 0.1255
979.50 0.1255
979.60 0.1254
979.70 0.1254
979.80 0.1253
979.90 0.1253
980.00 0.1252
980.10 0.1252
980.20 0.1251
980.30 0.1251
980.40 0.1251
980.50 0.125
980.60 0.125
980.70 0.1249
980.80 0.1249
980.90 0.1248
981.00 0.1248
981.10 0.1247
981.20 0.1247
981.30 0.1247
981.40 0.1246
981.50 0.1246
981.60 0.1245
981.70 0.1245
981.80 0.1244
981.90 0.1244
982.00 0.1244
982.10 0.1243
982.20 0.1242
982.30 0.1242
982.40 0.1241
982.50 0.1241
982.60 0.124
982.70 0.124
982.80 0.1239
982.90 0.1239
983.00 0.1238
983.10 0.1237
983.20 0.1237
983.30 0.1236
983.40 0.1236
983.50 0.1235
983.60 0.1235
983.70 0.1234
983.80 0.1234
983.90 0.1233
984.00 0.1232
984.10 0.1232
984.20 0.1231
984.30 0.1231
984.40 0.123
984.50 0.123
984.60 0.1229
984.70 0.1229
984.80 0.1228
984.90 0.1227
985.00 0.1227
985.10 0.1226
985.20 0.1225
985.30 0.1225
985.40 0.1224
985.50 0.1223
985.60 0.1223
985.70 0.1222
985.80 0.1221
985.90 0.1221
986.00 0.122
986.10 0.1219
986.20 0.1219
986.30 0.1218
986.40 0.1217
986.50 0.1217
986.60 0.1216
986.70 0.1215
986.80 0.1215
986.90 0.1214
987.00 0.1213
987.10 0.1213
987.20 0.1212
987.30 0.1211
987.40 0.121
987.50 0.121
987.60 0.1209
987.70 0.1208
987.80 0.1207
987.90 0.1206
988.00 0.1206
988.10 0.1205
988.20 0.1204
988.30 0.1203
988.40 0.1203
988.50 0.1202
988.60 0.1201
988.70 0.12
988.80 0.1199
988.90 0.1198
989.00 0.1197
989.10 0.1196
989.20 0.1196
989.30 0.1195
989.40 0.1194
989.50 0.1193
989.60 0.1192
989.70 0.1191
989.80 0.119
989.90 0.1189
990.00 0.1188
990.10 0.1187
990.20 0.1186
990.30 0.1185
990.40 0.1185
990.50 0.1184
990.60 0.1183
990.70 0.1182
990.80 0.1181
990.90 0.118
991.00 0.1178
991.10 0.1177
991.20 0.1176
991.30 0.1175
991.40 0.1174
991.50 0.1173
991.60 0.1172
991.70 0.1171
991.80 0.117
991.90 0.1169
992.00 0.1168
992.10 0.1166
992.20 0.1165
992.30 0.1164
992.40 0.1163
992.50 0.1161
992.60 0.116
992.70 0.1159
992.80 0.1158
992.90 0.1156
993.00 0.1155
993.10 0.1153
993.20 0.1152
993.30 0.1151
993.40 0.1149
993.50 0.1148
993.60 0.1146
993.70 0.1145
993.80 0.1144
993.90 0.1142
994.00 0.1141
994.10 0.1139
994.20 0.1138
994.30 0.1137
994.40 0.1135
994.50 0.1134
994.60 0.1133
994.70 0.1131
994.80 0.1129
994.90 0.1128
995.00 0.1126
995.10 0.1125
995.20 0.1123
995.30 0.1121
995.40 0.112
995.50 0.1118
995.60 0.1116
995.70 0.1115
995.80 0.1113
995.90 0.1111
996.00 0.1109
996.10 0.1108
996.20 0.1106
996.30 0.1104
996.40 0.1102
996.50 0.11
996.60 0.1099
996.70 0.1097
996.80 0.1095
996.90 0.1093
997.00 0.1091
997.10 0.109
997.20 0.1088
997.30 0.1086
997.40 0.1084
997.50 0.1082
997.60 0.108
997.70 0.1078
997.80 0.1076
997.90 0.1074
998.00 0.1072
998.10 0.107
998.20 0.1068
998.30 0.1065
998.40 0.1063
998.50 0.1061
998.60 0.1059
998.70 0.1057
998.80 0.1055
998.90 0.1053
999.00 0.1051
999.10 0.1049
999.20 0.1047
999.30 0.1045
999.40 0.1043
999.50 0.1041
999.60 0.1039
999.70 0.1037
999.80 0.1035
999.90 0.1032
1000.00 0.103
1000.10 0.1028
1000.20 0.1026
1000.30 0.1024
1000.40 0.1022
1000.50 0.102
1000.60 0.1018
1000.70 0.1016
1000.80 0.1014
1000.90 0.1012
1001.00 0.101
1001.10 0.1008
1001.20 0.1006
1001.30 0.1004
1001.40 0.1002
1001.50 0.09999
1001.60 0.09979
1001.70 0.09961
1001.80 0.09944
1001.90 0.09926
1002.00 0.09909
1002.10 0.09897
1002.20 0.09884
1002.30 0.09872
1002.40 0.0986
1002.50 0.09847
1002.60 0.09835
1002.70 0.09822
1002.80 0.0981
1002.90 0.09798
1003.00 0.09785
1003.10 0.09773
1003.20 0.0978
1003.30 0.09792
1003.40 0.09804
1003.50 0.09817
1003.60 0.09829
1003.70 0.09841
1003.80 0.09854
1003.90 0.09883
1004.00 0.09917
1004.10 0.09951
1004.20 0.09985
1004.30 0.1003
1004.40 0.1007
1004.50 0.1012
1004.60 0.1015
1004.70 0.09834
1004.80 0.09791
1004.90 0.09745
1005.00 0.09699
1005.10 0.09662
1005.20 0.09628
1005.30 0.09594
1005.40 0.0956
1005.50 0.09541
1005.60 0.09527
1005.70 0.09514
1005.80 0.095
1005.90 0.09486
1006.00 0.09472
1006.10 0.09459
1006.20 0.09456
1006.30 0.09457
1006.40 0.09458
1006.50 0.09459
1006.60 0.0946
1006.70 0.09461
1006.80 0.09462
1006.90 0.09463
1007.00 0.09464
1007.10 0.09469
1007.20 0.09474
1007.30 0.09479
1007.40 0.09484
1007.50 0.09489
1007.60 0.09493
1007.70 0.09502
1007.80 0.09512
1007.90 0.09521
1008.00 0.09531
1008.10 0.09541
1008.20 0.0955
1008.30 0.0956
1008.40 0.0957
1008.50 0.09579
1008.60 0.09589
1008.70 0.09599
1008.80 0.09608
1008.90 0.09618
1009.00 0.09628
1009.10 0.09637
1009.20 0.09647
1009.30 0.09657
1009.40 0.09666
1009.50 0.09676
1009.60 0.09686
1009.70 0.09695
1009.80 0.09705
1009.90 0.09715
1010.00 0.09725
1010.10 0.09735
1010.20 0.09745
1010.30 0.09755
1010.40 0.09765
1010.50 0.09775
1010.60 0.09784
1010.70 0.09794
1010.80 0.09804
1010.90 0.09814
1011.00 0.09824
1011.10 0.09834
1011.20 0.09844
1011.30 0.09854
1011.40 0.09863
1011.50 0.09873
1011.60 0.09883
1011.70 0.09892
1011.80 0.09901
1011.90 0.0991
1012.00 0.09919
1012.10 0.09926
1012.20 0.09934
1012.30 0.09942
1012.40 0.0995
1012.50 0.09958
1012.60 0.09966
1012.70 0.09974
1012.80 0.09982
1012.90 0.09989
1013.00 0.09997
1013.10 0.1001
1013.20 0.1001
1013.30 0.1002
1013.40 0.1003
1013.50 0.1004
1013.60 0.1004
1013.70 0.1005
1013.80 0.1006
1013.90 0.1006
1014.00 0.1007
1014.10 0.1008
1014.20 0.1008
1014.30 0.1009
1014.40 0.101
1014.50 0.101
1014.60 0.1011
1014.70 0.1012
1014.80 0.1012
1014.90 0.1013
1015.00 0.1013
1015.10 0.1014
1015.20 0.1014
1015.30 0.1015
1015.40 0.1015
1015.50 0.1016
1015.60 0.1016
1015.70 0.1017
1015.80 0.1017
1015.90 0.1018
1016.00 0.1019
1016.10 0.1019
1016.20 0.102
1016.30 0.102
1016.40 0.1021
1016.50 0.1021
1016.60 0.1022
1016.70 0.1022
1016.80 0.1023
1016.90 0.1023
1017.00 0.1023
1017.10 0.1024
1017.20 0.1024
1017.30 0.1025
1017.40 0.1025
1017.50 0.1025
1017.60 0.1026
1017.70 0.1026
1017.80 0.1026
1017.90 0.1027
1018.00 0.1027
1018.10 0.1028
1018.20 0.1028
1018.30 0.1028
1018.40 0.1029
1018.50 0.1029
1018.60 0.1029
1018.70 0.103
1018.80 0.103
1018.90 0.103
1019.00 0.1031
1019.10 0.1031
1019.20 0.1031
1019.30 0.1031
1019.40 0.1032
1019.50 0.1032
1019.60 0.1032
1019.70 0.1032
1019.80 0.1033
1019.90 0.1033
1020.00 0.1033
1020.10 0.1033
1020.20 0.1034
1020.30 0.1034
1020.40 0.1034
1020.50 0.1034
1020.60 0.1035
1020.70 0.1035
1020.80 0.1035
1020.90 0.1035
1021.00 0.1035
1021.10 0.1036
1021.20 0.1036
1021.30 0.1036
1021.40 0.1036
1021.50 0.1036
1021.60 0.1037
1021.70 0.1037
1021.80 0.1037
1021.90 0.1037
1022.00 0.1037
1022.10 0.1037
1022.20 0.1037
1022.30 0.1037
1022.40 0.1038
1022.50 0.1038
1022.60 0.1038
1022.70 0.1038
1022.80 0.1038
1022.90 0.1038
1023.00 0.1038
1023.10 0.1038
1023.20 0.1038
1023.30 0.1038
1023.40 0.1038
1023.50 0.1039
1023.60 0.1039
1023.70 0.1039
1023.80 0.1039
1023.90 0.1039
1024.00 0.1039
1024.10 0.1039
1024.20 0.1039
1024.30 0.1039
1024.40 0.1039
1024.50 0.1039
1024.60 0.104
1024.70 0.104
1024.80 0.104
1024.90 0.104
1025.00 0.104
1025.10 0.104
1025.20 0.104
1025.30 0.104
1025.40 0.104
1025.50 0.104
1025.60 0.104
1025.70 0.104
1025.80 0.104
1025.90 0.104
1026.00 0.104
1026.10 0.104
1026.20 0.104
1026.30 0.104
1026.40 0.104
1026.50 0.104
1026.60 0.104
1026.70 0.104
1026.80 0.104
1026.90 0.104
1027.00 0.104
1027.10 0.104
1027.20 0.1039
1027.30 0.1039
1027.40 0.1039
1027.50 0.1039
1027.60 0.1039
1027.70 0.1039
1027.80 0.1039
1027.90 0.1039
1028.00 0.1039
1028.10 0.1039
1028.20 0.1038
1028.30 0.1038
1028.40 0.1038
1028.50 0.1038
1028.60 0.1038
1028.70 0.1038
1028.80 0.1038
1028.90 0.1038
1029.00 0.1038
1029.10 0.1038
1029.20 0.1038
1029.30 0.1037
1029.40 0.1037
1029.50 0.1037
1029.60 0.1037
1029.70 0.1037
1029.80 0.1037
1029.90 0.1037
1030.00 0.1037
1030.10 0.1037
1030.20 0.1037
1030.30 0.1036
1030.40 0.1036
1030.50 0.1036
1030.60 0.1036
1030.70 0.1036
1030.80 0.1036
1030.90 0.1036
1031.00 0.1036
1031.10 0.1036
1031.20 0.1036
1031.30 0.1035
1031.40 0.1035
1031.50 0.1035
1031.60 0.1035
1031.70 0.1035
1031.80 0.1035
1031.90 0.1035
1032.00 0.1035
1032.10 0.1035
1032.20 0.1034
1032.30 0.1034
1032.40 0.1034
1032.50 0.1034
1032.60 0.1034
1032.70 0.1033
1032.80 0.1033
1032.90 0.1033
1033.00 0.1033
1033.10 0.1033
1033.20 0.1033
1033.30 0.1032
1033.40 0.1032
1033.50 0.1032
1033.60 0.1032
1033.70 0.1032
1033.80 0.1031
1033.90 0.1031
1034.00 0.1031
1034.10 0.1031
1034.20 0.1031
1034.30 0.103
1034.40 0.103
1034.50 0.103
1034.60 0.103
1034.70 0.103
1034.80 0.1029
1034.90 0.1029
1035.00 0.1029
1035.10 0.1029
1035.20 0.1029
1035.30 0.1029
1035.40 0.1028
1035.50 0.1028
1035.60 0.1028
1035.70 0.1028
1035.80 0.1028
1035.90 0.1027
1036.00 0.1027
1036.10 0.1027
1036.20 0.1027
1036.30 0.1027
1036.40 0.1026
1036.50 0.1026
1036.60 0.1026
1036.70 0.1026
1036.80 0.1026
1036.90 0.1025
1037.00 0.1025
1037.10 0.1025
1037.20 0.1025
1037.30 0.1025
1037.40 0.1024
1037.50 0.1024
1037.60 0.1024
1037.70 0.1024
1037.80 0.1023
1037.90 0.1023
1038.00 0.1023
1038.10 0.1022
1038.20 0.1022
1038.30 0.1022
1038.40 0.1022
1038.50 0.1021
1038.60 0.1021
1038.70 0.1021
1038.80 0.1021
1038.90 0.102
1039.00 0.102
1039.10 0.102
1039.20 0.102
1039.30 0.1019
1039.40 0.1019
1039.50 0.1019
1039.60 0.1019
1039.70 0.1018
1039.80 0.1018
1039.90 0.1018
1040.00 0.1018
1040.10 0.1017
1040.20 0.1017
1040.30 0.1017
1040.40 0.1017
1040.50 0.1016
1040.60 0.1016
1040.70 0.1016
1040.80 0.1016
1040.90 0.1015
1041.00 0.1015
1041.10 0.1015
1041.20 0.1015
1041.30 0.1014
1041.40 0.1014
1041.50 0.1014
1041.60 0.1014
1041.70 0.1013
1041.80 0.1013
1041.90 0.1013
1042.00 0.1013
1042.10 0.1012
1042.20 0.1012
1042.30 0.1012
1042.40 0.1011
1042.50 0.1011
1042.60 0.1011
1042.70 0.101
1042.80 0.101
1042.90 0.101
1043.00 0.101
1043.10 0.1009
1043.20 0.1009
1043.30 0.1009
1043.40 0.1008
1043.50 0.1008
1043.60 0.1008
1043.70 0.1007
1043.80 0.1007
1043.90 0.1007
1044.00 0.1006
1044.10 0.1006
1044.20 0.1006
1044.30 0.1006
1044.40 0.1005
1044.50 0.1005
1044.60 0.1005
1044.70 0.1004
1044.80 0.1004
1044.90 0.1004
1045.00 0.1003
1045.10 0.1003
1045.20 0.1003
1045.30 0.1002
1045.40 0.1002
1045.50 0.1002
1045.60 0.1002
1045.70 0.1001
1045.80 0.1001
1045.90 0.1001
1046.00 0.1
1046.10 0.1
1046.20 0.09997
1046.30 0.09994
1046.40 0.09991
1046.50 0.09988
1046.60 0.09985
1046.70 0.09982
1046.80 0.09979
1046.90 0.09976
1047.00 0.09973
1047.10 0.0997
1047.20 0.09966
1047.30 0.09963
1047.40 0.09959
1047.50 0.09956
1047.60 0.09952
1047.70 0.09949
1047.80 0.09946
1047.90 0.09942
1048.00 0.09939
1048.10 0.09935
1048.20 0.09932
1048.30 0.09928
1048.40 0.09925
1048.50 0.09921
1048.60 0.09918
1048.70 0.09915
1048.80 0.09911
1048.90 0.09908
1049.00 0.09904
1049.10 0.09901
1049.20 0.09897
1049.30 0.09894
1049.40 0.0989
1049.50 0.09887
1049.60 0.09884
1049.70 0.0988
1049.80 0.09877
1049.90 0.09873
1050.00 0.0987
1050.10 0.09866
1050.20 0.09863
1050.30 0.0986
1050.40 0.09856
1050.50 0.09853
1050.60 0.09849
1050.70 0.09846
1050.80 0.09842
1050.90 0.09839
1051.00 0.09836
1051.10 0.09832
1051.20 0.09829
1051.30 0.09825
1051.40 0.09822
1051.50 0.09819
1051.60 0.09815
1051.70 0.09812
1051.80 0.09808
1051.90 0.09805
1052.00 0.09802
1052.10 0.09798
1052.20 0.09794
1052.30 0.0979
1052.40 0.09786
1052.50 0.09782
1052.60 0.09778
1052.70 0.09774
1052.80 0.0977
1052.90 0.09766
1053.00 0.09762
1053.10 0.09759
1053.20 0.09755
1053.30 0.09751
1053.40 0.09747
1053.50 0.09743
1053.60 0.09739
1053.70 0.09735
1053.80 0.09731
1053.90 0.09727
1054.00 0.09723
1054.10 0.0972
1054.20 0.09716
1054.30 0.09712
1054.40 0.09708
1054.50 0.09704
1054.60 0.097
1054.70 0.09696
1054.80 0.09692
1054.90 0.09688
1055.00 0.09685
1055.10 0.09681
1055.20 0.09677
1055.30 0.09673
1055.40 0.09669
1055.50 0.09665
1055.60 0.09661
1055.70 0.09657
1055.80 0.09654
1055.90 0.0965
1056.00 0.09646
1056.10 0.09642
1056.20 0.09638
1056.30 0.09634
1056.40 0.0963
1056.50 0.09626
1056.60 0.09623
1056.70 0.09619
1056.80 0.09615
1056.90 0.09611
1057.00 0.09607
1057.10 0.09603
1057.20 0.09598
1057.30 0.09594
1057.40 0.0959
1057.50 0.09585
1057.60 0.09581
1057.70 0.09576
1057.80 0.09572
1057.90 0.09568
1058.00 0.09563
1058.10 0.09559
1058.20 0.09554
1058.30 0.0955
1058.40 0.09546
1058.50 0.09541
1058.60 0.09537
1058.70 0.09532
1058.80 0.09528
1058.90 0.09524
1059.00 0.09519
1059.10 0.09515
1059.20 0.09511
1059.30 0.09506
1059.40 0.09502
1059.50 0.09498
1059.60 0.09493
1059.70 0.09489
1059.80 0.09484
1059.90 0.0948
1060.00 0.09476
1060.10 0.09471
1060.20 0.09467
1060.30 0.09463
1060.40 0.09458
1060.50 0.09454
1060.60 0.0945
1060.70 0.09445
1060.80 0.09441
1060.90 0.09437
1061.00 0.09432
1061.10 0.09428
1061.20 0.09423
1061.30 0.09419
1061.40 0.09415
1061.50 0.0941
1061.60 0.09406
1061.70 0.09402
1061.80 0.09397
1061.90 0.09393
1062.00 0.09389
1062.10 0.09384
1062.20 0.09379
1062.30 0.09374
1062.40 0.09369
1062.50 0.09363
1062.60 0.09358
1062.70 0.09353
1062.80 0.09348
1062.90 0.09343
1063.00 0.09338
1063.10 0.09333
1063.20 0.09328
1063.30 0.09323
1063.40 0.09318
1063.50 0.09313
1063.60 0.09308
1063.70 0.09303
1063.80 0.09298
1063.90 0.09293
1064.00 0.09288
1064.10 0.09283
1064.20 0.09278
1064.30 0.09273
1064.40 0.09268
1064.50 0.09263
1064.60 0.09258
1064.70 0.09253
1064.80 0.09248
1064.90 0.09243
1065.00 0.09238
1065.10 0.09233
1065.20 0.09228
1065.30 0.09223
1065.40 0.09218
1065.50 0.09213
1065.60 0.09208
1065.70 0.09203
1065.80 0.09198
1065.90 0.09193
1066.00 0.09188
1066.10 0.09183
1066.20 0.09178
1066.30 0.09173
1066.40 0.09168
1066.50 0.09163
1066.60 0.09158
1066.70 0.09153
1066.80 0.09148
1066.90 0.09143
1067.00 0.09138
1067.10 0.09132
1067.20 0.09126
1067.30 0.0912
1067.40 0.09114
1067.50 0.09108
1067.60 0.09102
1067.70 0.09095
1067.80 0.09089
1067.90 0.09083
1068.00 0.09077
1068.10 0.09071
1068.20 0.09065
1068.30 0.09059
1068.40 0.09053
1068.50 0.09047
1068.60 0.09041
1068.70 0.09035
1068.80 0.09029
1068.90 0.09023
1069.00 0.09017
1069.10 0.09011
1069.20 0.09005
1069.30 0.08999
1069.40 0.08993
1069.50 0.08987
1069.60 0.08982
1069.70 0.08976
1069.80 0.0897
1069.90 0.08964
1070.00 0.08958
1070.10 0.08952
1070.20 0.08946
1070.30 0.0894
1070.40 0.08934
1070.50 0.08928
1070.60 0.08922
1070.70 0.08916
1070.80 0.0891
1070.90 0.08904
1071.00 0.08898
1071.10 0.08892
1071.20 0.08886
1071.30 0.0888
1071.40 0.08874
1071.50 0.08868
1071.60 0.08862
1071.70 0.08856
1071.80 0.0885
1071.90 0.08845
1072.00 0.08839
1072.10 0.08832
1072.20 0.08825
1072.30 0.08818
1072.40 0.08812
1072.50 0.08805
1072.60 0.08798
1072.70 0.08791
1072.80 0.08785
1072.90 0.08778
1073.00 0.08771
1073.10 0.08764
1073.20 0.08758
1073.30 0.08751
1073.40 0.08744
1073.50 0.08737
1073.60 0.08729
1073.70 0.08722
1073.80 0.08714
1073.90 0.08707
1074.00 0.08699
1074.10 0.08691
1074.20 0.08684
1074.30 0.08676
1074.40 0.08668
1074.50 0.08661
1074.60 0.08653
1074.70 0.08646
1074.80 0.08638
1074.90 0.0863
1075.00 0.08623
1075.10 0.08615
1075.20 0.08608
1075.30 0.086
1075.40 0.08593
1075.50 0.08585
1075.60 0.08577
1075.70 0.0857
1075.80 0.08562
1075.90 0.08555
1076.00 0.08547
1076.10 0.0854
1076.20 0.08532
1076.30 0.08524
1076.40 0.08517
1076.50 0.08509
1076.60 0.08502
1076.70 0.08494
1076.80 0.08487
1076.90 0.08479
1077.00 0.08472
1077.10 0.08463
1077.20 0.08455
1077.30 0.08446
1077.40 0.08438
1077.50 0.08429
1077.60 0.0842
1077.70 0.08412
1077.80 0.08403
1077.90 0.08394
1078.00 0.08385
1078.10 0.08376
1078.20 0.08367
1078.30 0.08358
1078.40 0.08349
1078.50 0.0834
1078.60 0.08331
1078.70 0.08322
1078.80 0.08313
1078.90 0.08304
1079.00 0.08296
1079.10 0.08287
1079.20 0.08278
1079.30 0.08269
1079.40 0.0826
1079.50 0.08251
1079.60 0.08241
1079.70 0.08231
1079.80 0.08221
1079.90 0.08211
1080.00 0.08201
1080.10 0.08191
1080.20 0.08181
1080.30 0.08171
1080.40 0.08161
1080.50 0.08151
1080.60 0.08141
1080.70 0.08131
1080.80 0.08121
1080.90 0.08111
1081.00 0.08101
1081.10 0.08091
1081.20 0.08081
1081.30 0.08071
1081.40 0.08062
1081.50 0.08051
1081.60 0.08041
1081.70 0.0803
1081.80 0.08019
1081.90 0.08008
1082.00 0.07998
1082.10 0.07986
1082.20 0.07975
1082.30 0.07963
1082.40 0.07952
1082.50 0.0794
1082.60 0.07929
1082.70 0.07917
1082.80 0.07906
1082.90 0.07894
1083.00 0.07883
1083.10 0.07871
1083.20 0.0786
1083.30 0.07849
1083.40 0.07837
1083.50 0.07825
1083.60 0.07813
1083.70 0.078
1083.80 0.07788
1083.90 0.07775
1084.00 0.07763
1084.10 0.07751
1084.20 0.07738
1084.30 0.07726
1084.40 0.07713
1084.50 0.077
1084.60 0.07687
1084.70 0.07673
1084.80 0.07659
1084.90 0.07645
1085.00 0.07631
1085.10 0.07617
1085.20 0.07603
1085.30 0.0759
1085.40 0.07576
1085.50 0.07562
1085.60 0.07548
1085.70 0.07534
1085.80 0.07521
1085.90 0.07507
1086.00 0.07493
1086.10 0.07479
1086.20 0.07465
1086.30 0.07452
1086.40 0.07438
1086.50 0.07424
1086.60 0.07409
1086.70 0.07393
1086.80 0.07378
1086.90 0.07363
1087.00 0.07348
1087.10 0.07332
1087.20 0.07316
1087.30 0.073
1087.40 0.07284
1087.50 0.07268
1087.60 0.07252
1087.70 0.07236
1087.80 0.0722
1087.90 0.07204
1088.00 0.07188
1088.10 0.07172
1088.20 0.07156
1088.30 0.0714
1088.40 0.07124
1088.50 0.07108
1088.60 0.07091
1088.70 0.07074
1088.80 0.07057
1088.90 0.0704
1089.00 0.07023
1089.10 0.07006
1089.20 0.06989
1089.30 0.06972
1089.40 0.06956
1089.50 0.06939
1089.60 0.06922
1089.70 0.06905
1089.80 0.06888
1089.90 0.06871
1090.00 0.06855
1090.10 0.06838
1090.20 0.06821
1090.30 0.06804
1090.40 0.06787
1090.50 0.06771
1090.60 0.06757
1090.70 0.06743
1090.80 0.06728
1090.90 0.06714
1091.00 0.067
1091.10 0.06685
1091.20 0.06671
1091.30 0.06657
1091.40 0.06643
1091.50 0.06628
1091.60 0.06614
1091.70 0.066
1091.80 0.06585
1091.90 0.06571
1092.00 0.06557
1092.10 0.06551
1092.20 0.06546
1092.30 0.0654
1092.40 0.06534
1092.50 0.06528
1092.60 0.06522
1092.70 0.0652
1092.80 0.06524
1092.90 0.06529
1093.00 0.06533
1093.10 0.06545
1093.20 0.06571
1093.30 0.066
1093.40 0.06634
1093.50 0.06644
1093.60 0.0661
1093.70 0.06572
1093.80 0.06542
1093.90 0.06519
1094.00 0.06511
1094.10 0.06502
1094.20 0.06494
1094.30 0.06489
1094.40 0.06491
1094.50 0.06494
1094.60 0.06496
1094.70 0.06498
1094.80 0.065
1094.90 0.06503
1095.00 0.06507
1095.10 0.06517
1095.20 0.06528
1095.30 0.06538
1095.40 0.06548
1095.50 0.06558
1095.60 0.06568
1095.70 0.06578
1095.80 0.06588
1095.90 0.06598
1096.00 0.06608
1096.10 0.06619
1096.20 0.06629
1096.30 0.06639
1096.40 0.06649
1096.50 0.0666
1096.60 0.06672
1096.70 0.06684
1096.80 0.06697
1096.90 0.06709
1097.00 0.06721
1097.10 0.06733
1097.20 0.06746
1097.30 0.06758
1097.40 0.0677
1097.50 0.06782
1097.60 0.06794
1097.70 0.06806
1097.80 0.06819
1097.90 0.06831
1098.00 0.06843
1098.10 0.06855
1098.20 0.06867
1098.30 0.06879
1098.40 0.06892
1098.50 0.06903
1098.60 0.06914
1098.70 0.06925
1098.80 0.06936
1098.90 0.06946
1099.00 0.06957
1099.10 0.06968
1099.20 0.06979
1099.30 0.06989
1099.40 0.07
1099.50 0.07011
1099.60 0.07021
1099.70 0.07032
1099.80 0.07043
1099.90 0.07054
1100.00 0.07064
1100.10 0.07075
1100.20 0.07086
1100.30 0.07096
1100.40 0.07107
1100.50 0.07117
1100.60 0.07126
1100.70 0.07135
1100.80 0.07144
1100.90 0.07153
1101.00 0.07161
1101.10 0.0717
1101.20 0.07179
1101.30 0.07188
1101.40 0.07196
1101.50 0.07205
1101.60 0.07214
1101.70 0.07223
1101.80 0.07232
1101.90 0.0724
1102.00 0.07249
1102.10 0.07257
1102.20 0.07265
1102.30 0.07272
1102.40 0.0728
1102.50 0.07288
1102.60 0.07295
1102.70 0.07302
1102.80 0.07309
1102.90 0.07316
1103.00 0.07323
1103.10 0.0733
1103.20 0.07337
1103.30 0.07344
1103.40 0.07351
1103.50 0.07358
1103.60 0.07363
1103.70 0.07369
1103.80 0.07375
1103.90 0.07381
1104.00 0.07387
1104.10 0.07392
1104.20 0.07398
1104.30 0.07404
1104.40 0.0741
1104.50 0.07415
1104.60 0.07421
1104.70 0.07427
1104.80 0.07433
1104.90 0.07438
1105.00 0.07444
1105.10 0.0745
1105.20 0.07456
1105.30 0.07461
1105.40 0.07467
1105.50 0.07472
1105.60 0.07477
1105.70 0.07482
1105.80 0.07486
1105.90 0.07491
1106.00 0.07495
1106.10 0.075
1106.20 0.07504
1106.30 0.07509
1106.40 0.07513
1106.50 0.07518
1106.60 0.07522
1106.70 0.07527
1106.80 0.07531
1106.90 0.07535
1107.00 0.0754
1107.10 0.07544
1107.20 0.07548
1107.30 0.07552
1107.40 0.07555
1107.50 0.07559
1107.60 0.07562
1107.70 0.07565
1107.80 0.07569
1107.90 0.07572
1108.00 0.07575
1108.10 0.07578
1108.20 0.07582
1108.30 0.07585
1108.40 0.07588
1108.50 0.07591
1108.60 0.07595
1108.70 0.07598
1108.80 0.07601
1108.90 0.07604
1109.00 0.07607
1109.10 0.07611
1109.20 0.07614
1109.30 0.07617
1109.40 0.0762
1109.50 0.07623
1109.60 0.07625
1109.70 0.07628
1109.80 0.0763
1109.90 0.07632
1110.00 0.07634
1110.10 0.07637
1110.20 0.07639
1110.30 0.07641
1110.40 0.07643
1110.50 0.07645
1110.60 0.07648
1110.70 0.0765
1110.80 0.07652
1110.90 0.07654
1111.00 0.07656
1111.10 0.07659
1111.20 0.07661
1111.30 0.07663
1111.40 0.07665
1111.50 0.07667
1111.60 0.0767
1111.70 0.07672
1111.80 0.07674
1111.90 0.07676
1112.00 0.07678
1112.10 0.0768
1112.20 0.07681
1112.30 0.07683
1112.40 0.07684
1112.50 0.07686
1112.60 0.07687
1112.70 0.07689
1112.80 0.0769
1112.90 0.07692
1113.00 0.07693
1113.10 0.07695
1113.20 0.07696
1113.30 0.07698
1113.40 0.07699
1113.50 0.07701
1113.60 0.07701
1113.70 0.07702
1113.80 0.07703
1113.90 0.07704
1114.00 0.07704
1114.10 0.07705
1114.20 0.07706
1114.30 0.07706
1114.40 0.07707
1114.50 0.07708
1114.60 0.07709
1114.70 0.07709
1114.80 0.0771
1114.90 0.07711
1115.00 0.07712
1115.10 0.07712
1115.20 0.07713
1115.30 0.07714
1115.40 0.07715
1115.50 0.07715
1115.60 0.07716
1115.70 0.07717
1115.80 0.07718
1115.90 0.07718
1116.00 0.07719
1116.10 0.0772
1116.20 0.07721
1116.30 0.07721
1116.40 0.07722
1116.50 0.07723
1116.60 0.07724
1116.70 0.07724
1116.80 0.07725
1116.90 0.07726
1117.00 0.07726
1117.10 0.07726
1117.20 0.07726
1117.30 0.07726
1117.40 0.07726
1117.50 0.07726
1117.60 0.07725
1117.70 0.07725
1117.80 0.07725
1117.90 0.07725
1118.00 0.07725
1118.10 0.07724
1118.20 0.07724
1118.30 0.07724
1118.40 0.07724
1118.50 0.07724
1118.60 0.07724
1118.70 0.07723
1118.80 0.07723
1118.90 0.07723
1119.00 0.07723
1119.10 0.07723
1119.20 0.07722
1119.30 0.07722
1119.40 0.07722
1119.50 0.07722
1119.60 0.07722
1119.70 0.07721
1119.80 0.07721
1119.90 0.07721
1120.00 0.07721
1120.10 0.07721
1120.20 0.07721
1120.30 0.0772
1120.40 0.0772
1120.50 0.0772
1120.60 0.0772
1120.70 0.0772
1120.80 0.07719
1120.90 0.07719
1121.00 0.07719
1121.10 0.07719
1121.20 0.07719
1121.30 0.07719
1121.40 0.07718
1121.50 0.07718
1121.60 0.07718
1121.70 0.07718
1121.80 0.07718
1121.90 0.07717
1122.00 0.07717
1122.10 0.07716
1122.20 0.07715
1122.30 0.07714
1122.40 0.07714
1122.50 0.07713
1122.60 0.07712
1122.70 0.07711
1122.80 0.0771
1122.90 0.07709
1123.00 0.07708
1123.10 0.07707
1123.20 0.07706
1123.30 0.07705
1123.40 0.07704
1123.50 0.07703
1123.60 0.07703
1123.70 0.07702
1123.80 0.07701
1123.90 0.077
1124.00 0.07699
1124.10 0.07698
1124.20 0.07697
1124.30 0.07696
1124.40 0.07695
1124.50 0.07694
1124.60 0.07693
1124.70 0.07692
1124.80 0.07692
1124.90 0.07691
1125.00 0.0769
1125.10 0.07689
1125.20 0.07688
1125.30 0.07687
1125.40 0.07686
1125.50 0.07685
1125.60 0.07684
1125.70 0.07683
1125.80 0.07682
1125.90 0.07682
1126.00 0.07681
1126.10 0.0768
1126.20 0.07679
1126.30 0.07678
1126.40 0.07677
1126.50 0.07676
1126.60 0.07675
1126.70 0.07674
1126.80 0.07673
1126.90 0.07672
1127.00 0.07672
1127.10 0.0767
1127.20 0.07669
1127.30 0.07667
1127.40 0.07666
1127.50 0.07665
1127.60 0.07663
1127.70 0.07662
1127.80 0.07661
1127.90 0.07659
1128.00 0.07658
1128.10 0.07656
1128.20 0.07655
1128.30 0.07654
1128.40 0.07652
1128.50 0.07651
1128.60 0.0765
1128.70 0.07648
1128.80 0.07647
1128.90 0.07646
1129.00 0.07644
1129.10 0.07643
1129.20 0.07641
1129.30 0.0764
1129.40 0.07639
1129.50 0.07637
1129.60 0.07636
1129.70 0.07635
1129.80 0.07633
1129.90 0.07632
1130.00 0.0763
1130.10 0.07629
1130.20 0.07628
1130.30 0.07626
1130.40 0.07625
1130.50 0.07624
1130.60 0.07622
1130.70 0.07621
1130.80 0.0762
1130.90 0.07618
1131.00 0.07617
1131.10 0.07616
1131.20 0.07614
1131.30 0.07613
1131.40 0.07611
1131.50 0.0761
1131.60 0.07609
1131.70 0.07607
1131.80 0.07606
1131.90 0.07605
1132.00 0.07603
1132.10 0.07602
1132.20 0.076
1132.30 0.07598
1132.40 0.07597
1132.50 0.07595
1132.60 0.07593
1132.70 0.07592
1132.80 0.0759
1132.90 0.07588
1133.00 0.07587
1133.10 0.07585
1133.20 0.07583
1133.30 0.07582
1133.40 0.0758
1133.50 0.07578
1133.60 0.07577
1133.70 0.07575
1133.80 0.07573
1133.90 0.07572
1134.00 0.0757
1134.10 0.07568
1134.20 0.07567
1134.30 0.07565
1134.40 0.07563
1134.50 0.07562
1134.60 0.0756
1134.70 0.07558
1134.80 0.07557
1134.90 0.07555
1135.00 0.07553
1135.10 0.07552
1135.20 0.0755
1135.30 0.07548
1135.40 0.07547
1135.50 0.07545
1135.60 0.07543
1135.70 0.07542
1135.80 0.0754
1135.90 0.07538
1136.00 0.07537
1136.10 0.07535
1136.20 0.07533
1136.30 0.07532
1136.40 0.0753
1136.50 0.07528
1136.60 0.07527
1136.70 0.07525
1136.80 0.07523
1136.90 0.07522
1137.00 0.0752
1137.10 0.07518
1137.20 0.07516
1137.30 0.07515
1137.40 0.07513
1137.50 0.07511
1137.60 0.07509
1137.70 0.07507
1137.80 0.07505
1137.90 0.07504
1138.00 0.07502
1138.10 0.075
1138.20 0.07498
1138.30 0.07496
1138.40 0.07494
1138.50 0.07492
1138.60 0.07491
1138.70 0.07489
1138.80 0.07487
1138.90 0.07485
1139.00 0.07483
1139.10 0.07481
1139.20 0.0748
1139.30 0.07478
1139.40 0.07476
1139.50 0.07474
1139.60 0.07472
1139.70 0.0747
1139.80 0.07469
1139.90 0.07467
1140.00 0.07465
1140.10 0.07463
1140.20 0.07461
1140.30 0.07459
1140.40 0.07458
1140.50 0.07456
1140.60 0.07454
1140.70 0.07452
1140.80 0.0745
1140.90 0.07448
1141.00 0.07447
1141.10 0.07445
1141.20 0.07443
1141.30 0.07441
1141.40 0.07439
1141.50 0.07438
1141.60 0.07436
1141.70 0.07434
1141.80 0.07432
1141.90 0.0743
1142.00 0.07428
1142.10 0.07426
1142.20 0.07424
1142.30 0.07423
1142.40 0.07421
1142.50 0.07419
1142.60 0.07417
1142.70 0.07415
1142.80 0.07413
1142.90 0.07411
1143.00 0.07409
1143.10 0.07407
1143.20 0.07405
1143.30 0.07403
1143.40 0.07401
1143.50 0.07399
1143.60 0.07397
1143.70 0.07395
1143.80 0.07393
1143.90 0.07391
1144.00 0.07389
1144.10 0.07387
1144.20 0.07385
1144.30 0.07383
1144.40 0.07381
1144.50 0.07379
1144.60 0.07377
1144.70 0.07375
1144.80 0.07374
1144.90 0.07372
1145.00 0.0737
1145.10 0.07368
1145.20 0.07366
1145.30 0.07364
1145.40 0.07362
1145.50 0.0736
1145.60 0.07358
1145.70 0.07356
1145.80 0.07354
1145.90 0.07352
1146.00 0.0735
1146.10 0.07348
1146.20 0.07346
1146.30 0.07344
1146.40 0.07342
1146.50 0.0734
1146.60 0.07338
1146.70 0.07336
1146.80 0.07335
1146.90 0.07333
1147.00 0.07331
1147.10 0.07329
1147.20 0.07327
1147.30 0.07325
1147.40 0.07323
1147.50 0.07321
1147.60 0.07319
1147.70 0.07317
1147.80 0.07315
1147.90 0.07312
1148.00 0.0731
1148.10 0.07308
1148.20 0.07306
1148.30 0.07304
1148.40 0.07302
1148.50 0.073
1148.60 0.07298
1148.70 0.07296
1148.80 0.07294
1148.90 0.07292
1149.00 0.0729
1149.10 0.07288
1149.20 0.07286
1149.30 0.07284
1149.40 0.07282
1149.50 0.0728
1149.60 0.07278
1149.70 0.07276
1149.80 0.07274
1149.90 0.07272
1150.00 0.0727
1150.10 0.07268
1150.20 0.07266
1150.30 0.07264
1150.40 0.07262
1150.50 0.0726
1150.60 0.07258
1150.70 0.07256
1150.80 0.07254
1150.90 0.07252
1151.00 0.0725
1151.10 0.07248
1151.20 0.07246
1151.30 0.07244
1151.40 0.07242
1151.50 0.0724
1151.60 0.07238
1151.70 0.07236
1151.80 0.07234
1151.90 0.07232
1152.00 0.0723
1152.10 0.07228
1152.20 0.07226
1152.30 0.07224
1152.40 0.07222
1152.50 0.0722
1152.60 0.07218
1152.70 0.07216
1152.80 0.07214
1152.90 0.07212
1153.00 0.0721
1153.10 0.07207
1153.20 0.07205
1153.30 0.07203
1153.40 0.07201
1153.50 0.07199
1153.60 0.07197
1153.70 0.07195
1153.80 0.07193
1153.90 0.07191
1154.00 0.07189
1154.10 0.07187
1154.20 0.07185
1154.30 0.07183
1154.40 0.07181
1154.50 0.07179
1154.60 0.07177
1154.70 0.07174
1154.80 0.07172
1154.90 0.0717
1155.00 0.07168
1155.10 0.07166
1155.20 0.07164
1155.30 0.07162
1155.40 0.0716
1155.50 0.07158
1155.60 0.07156
1155.70 0.07154
1155.80 0.07152
1155.90 0.0715
1156.00 0.07148
1156.10 0.07146
1156.20 0.07144
1156.30 0.07142
1156.40 0.0714
1156.50 0.07138
1156.60 0.07135
1156.70 0.07133
1156.80 0.07131
1156.90 0.07129
1157.00 0.07127
1157.10 0.07125
1157.20 0.07123
1157.30 0.07121
1157.40 0.07119
1157.50 0.07117
1157.60 0.07115
1157.70 0.07113
1157.80 0.07111
1157.90 0.07109
1158.00 0.07106
1158.10 0.07104
1158.20 0.07102
1158.30 0.071
1158.40 0.07098
1158.50 0.07096
1158.60 0.07094
1158.70 0.07092
1158.80 0.0709
1158.90 0.07088
1159.00 0.07086
1159.10 0.07084
1159.20 0.07082
1159.30 0.0708
1159.40 0.07077
1159.50 0.07075
1159.60 0.07073
1159.70 0.07071
1159.80 0.07069
1159.90 0.07067
1160.00 0.07065
1160.10 0.07063
1160.20 0.07061
1160.30 0.07059
1160.40 0.07057
1160.50 0.07055
1160.60 0.07053
1160.70 0.07051
1160.80 0.07049
1160.90 0.07046
1161.00 0.07044
1161.10 0.07042
1161.20 0.0704
1161.30 0.07038
1161.40 0.07036
1161.50 0.07034
1161.60 0.07032
1161.70 0.0703
1161.80 0.07028
1161.90 0.07026
1162.00 0.07024
1162.10 0.07022
1162.20 0.0702
1162.30 0.07018
1162.40 0.07016
1162.50 0.07013
1162.60 0.07011
1162.70 0.07009
1162.80 0.07007
1162.90 0.07005
1163.00 0.07003
1163.10 0.07001
1163.20 0.06999
1163.30 0.06997
1163.40 0.06995
1163.50 0.06993
1163.60 0.06991
1163.70 0.06989
1163.80 0.06987
1163.90 0.06985
1164.00 0.06982
1164.10 0.0698
1164.20 0.06978
1164.30 0.06976
1164.40 0.06974
1164.50 0.06972
1164.60 0.0697
1164.70 0.06968
1164.80 0.06966
1164.90 0.06964
1165.00 0.06962
1165.10 0.0696
1165.20 0.06958
1165.30 0.06956
1165.40 0.06954
1165.50 0.06952
1165.60 0.0695
1165.70 0.06948
1165.80 0.06945
1165.90 0.06943
1166.00 0.06941
1166.10 0.06939
1166.20 0.06937
1166.30 0.06935
1166.40 0.06933
1166.50 0.06931
1166.60 0.06929
1166.70 0.06927
1166.80 0.06925
1166.90 0.06923
1167.00 0.06921
1167.10 0.06919
1167.20 0.06917
1167.30 0.06915
1167.40 0.06913
1167.50 0.06911
1167.60 0.06908
1167.70 0.06906
1167.80 0.06904
1167.90 0.06902
1168.00 0.069
1168.10 0.06898
1168.20 0.06896
1168.30 0.06894
1168.40 0.06892
1168.50 0.0689
1168.60 0.06888
1168.70 0.06886
1168.80 0.06884
1168.90 0.06882
1169.00 0.06879
1169.10 0.06877
1169.20 0.06875
1169.30 0.06873
1169.40 0.06871
1169.50 0.06869
1169.60 0.06867
1169.70 0.06865
1169.80 0.06863
1169.90 0.06861
1170.00 0.06859
1170.10 0.06857
1170.20 0.06855
1170.30 0.06853
1170.40 0.06851
1170.50 0.06849
1170.60 0.06846
1170.70 0.06844
1170.80 0.06842
1170.90 0.0684
1171.00 0.06838
1171.10 0.06836
1171.20 0.06834
1171.30 0.06832
1171.40 0.0683
1171.50 0.06828
1171.60 0.06826
1171.70 0.06824
1171.80 0.06822
1171.90 0.0682
1172.00 0.06818
1172.10 0.06816
1172.20 0.06814
1172.30 0.06812
1172.40 0.06809
1172.50 0.06807
1172.60 0.06805
1172.70 0.06803
1172.80 0.06801
1172.90 0.06799
1173.00 0.06797
1173.10 0.06795
1173.20 0.06793
1173.30 0.06791
1173.40 0.06789
1173.50 0.06787
1173.60 0.06785
1173.70 0.06783
1173.80 0.06781
1173.90 0.06779
1174.00 0.06777
1174.10 0.06775
1174.20 0.06773
1174.30 0.0677
1174.40 0.06768
1174.50 0.06766
1174.60 0.06764
1174.70 0.06762
1174.80 0.0676
1174.90 0.06758
1175.00 0.06756
1175.10 0.06754
1175.20 0.06752
1175.30 0.0675
1175.40 0.06748
1175.50 0.06746
1175.60 0.06744
1175.70 0.06742
1175.80 0.0674
1175.90 0.06738
1176.00 0.06736
1176.10 0.06734
1176.20 0.06732
1176.30 0.0673
1176.40 0.06728
1176.50 0.06726
1176.60 0.06724
1176.70 0.06722
1176.80 0.06719
1176.90 0.06717
1177.00 0.06715
1177.10 0.06713
1177.20 0.06711
1177.30 0.06709
1177.40 0.06707
1177.50 0.06705
1177.60 0.06703
1177.70 0.06701
1177.80 0.06699
1177.90 0.06697
1178.00 0.06695
1178.10 0.06693
1178.20 0.06691
1178.30 0.06689
1178.40 0.06687
1178.50 0.06685
1178.60 0.06683
1178.70 0.06681
1178.80 0.06679
1178.90 0.06677
1179.00 0.06675
1179.10 0.06673
1179.20 0.06671
1179.30 0.06669
1179.40 0.06666
1179.50 0.06664
1179.60 0.06662
1179.70 0.0666
1179.80 0.06658
1179.90 0.06656
1180.00 0.06654
1180.10 0.06652
1180.20 0.0665
1180.30 0.06648
1180.40 0.06646
1180.50 0.06644
1180.60 0.06642
1180.70 0.0664
1180.80 0.06638
1180.90 0.06636
1181.00 0.06634
1181.10 0.06632
1181.20 0.0663
1181.30 0.06628
1181.40 0.06626
1181.50 0.06624
1181.60 0.06622
1181.70 0.0662
1181.80 0.06618
1181.90 0.06616
1182.00 0.06614
1182.10 0.06612
1182.20 0.0661
1182.30 0.06608
1182.40 0.06606
1182.50 0.06604
1182.60 0.06602
1182.70 0.066
1182.80 0.06598
1182.90 0.06596
1183.00 0.06594
1183.10 0.06592
1183.20 0.0659
1183.30 0.06588
1183.40 0.06586
1183.50 0.06584
1183.60 0.06582
1183.70 0.0658
1183.80 0.06578
1183.90 0.06576
1184.00 0.06573
1184.10 0.06571
1184.20 0.06569
1184.30 0.06567
1184.40 0.06565
1184.50 0.06563
1184.60 0.06561
1184.70 0.06559
1184.80 0.06557
1184.90 0.06555
1185.00 0.06553
1185.10 0.06551
1185.20 0.06549
1185.30 0.06547
1185.40 0.06545
1185.50 0.06543
1185.60 0.06541
1185.70 0.06539
1185.80 0.06537
1185.90 0.06535
1186.00 0.06533
1186.10 0.06531
1186.20 0.06529
1186.30 0.06527
1186.40 0.06525
1186.50 0.06523
1186.60 0.06521
1186.70 0.06519
1186.80 0.06517
1186.90 0.06515
1187.00 0.06513
1187.10 0.06511
1187.20 0.06509
1187.30 0.06507
1187.40 0.06505
1187.50 0.06503
1187.60 0.06501
1187.70 0.06499
1187.80 0.06497
1187.90 0.06495
1188.00 0.06493
1188.10 0.06491
1188.20 0.06489
1188.30 0.06487
1188.40 0.06485
1188.50 0.06483
1188.60 0.06481
1188.70 0.06479
1188.80 0.06477
1188.90 0.06475
1189.00 0.06473
1189.10 0.06471
1189.20 0.06469
1189.30 0.06467
1189.40 0.06465
1189.50 0.06463
1189.60 0.06461
1189.70 0.06459
1189.80 0.06457
1189.90 0.06455
1190.00 0.06453
1190.10 0.06451
1190.20 0.06449
1190.30 0.06447
1190.40 0.06445
1190.50 0.06444
1190.60 0.06442
1190.70 0.0644
1190.80 0.06438
1190.90 0.06436
1191.00 0.06434
1191.10 0.06432
1191.20 0.0643
1191.30 0.06428
1191.40 0.06426
1191.50 0.06424
1191.60 0.06422
1191.70 0.0642
1191.80 0.06418
1191.90 0.06416
1192.00 0.06414
1192.10 0.06412
1192.20 0.0641
1192.30 0.06408
1192.40 0.06406
1192.50 0.06404
1192.60 0.06402
1192.70 0.064
1192.80 0.06398
1192.90 0.06396
1193.00 0.06394
1193.10 0.06392
1193.20 0.0639
1193.30 0.06388
1193.40 0.06386
1193.50 0.06384
1193.60 0.06382
1193.70 0.0638
1193.80 0.06378
1193.90 0.06376
1194.00 0.06374
1194.10 0.06372
1194.20 0.0637
1194.30 0.06368
1194.40 0.06366
1194.50 0.06364
1194.60 0.06362
1194.70 0.0636
1194.80 0.06358
1194.90 0.06356
1195.00 0.06354
1195.10 0.06352
1195.20 0.0635
1195.30 0.06348
1195.40 0.06346
1195.50 0.06345
1195.60 0.06343
1195.70 0.06341
1195.80 0.06339
1195.90 0.06337
1196.00 0.06335
1196.10 0.06333
1196.20 0.06331
1196.30 0.06329
1196.40 0.06327
1196.50 0.06325
1196.60 0.06323
1196.70 0.06321
1196.80 0.06319
1196.90 0.06317
1197.00 0.06315
1197.10 0.06313
1197.20 0.06311
1197.30 0.06309
1197.40 0.06307
1197.50 0.06305
1197.60 0.06303
1197.70 0.06301
1197.80 0.06299
1197.90 0.06297
1198.00 0.06295
1198.10 0.06293
1198.20 0.06291
1198.30 0.06289
1198.40 0.06287
1198.50 0.06285
1198.60 0.06283
1198.70 0.06281
1198.80 0.0628
1198.90 0.06278
1199.00 0.06276
1199.10 0.06274
1199.20 0.06272
1199.30 0.0627
1199.40 0.06268
1199.50 0.06266
1199.60 0.06264
1199.70 0.06262
1199.80 0.0626
1199.90 0.06258
1200.00 0
