# Version 2.1 - nm, norm@500 to 1, cut digits, bergeron_1500_65.dat_1500
# Wavelength(nm)  Flambda(ergs/cm^s/s/nm)
300.00 0.006398
300.10 0.006431
300.20 0.006465
300.30 0.006499
300.40 0.006534
300.50 0.006568
300.60 0.006602
300.70 0.006637
300.80 0.006671
300.90 0.006705
301.00 0.006739
301.10 0.006773
301.20 0.006807
301.30 0.006841
301.40 0.006875
301.50 0.006909
301.60 0.006943
301.70 0.006977
301.80 0.007011
301.90 0.007045
302.00 0.00708
302.10 0.007115
302.20 0.007152
302.30 0.007189
302.40 0.007226
302.50 0.007263
302.60 0.0073
302.70 0.007337
302.80 0.007374
302.90 0.007411
303.00 0.007447
303.10 0.007484
303.20 0.007521
303.30 0.007557
303.40 0.007594
303.50 0.00763
303.60 0.007667
303.70 0.007703
303.80 0.007739
303.90 0.007776
304.00 0.007813
304.10 0.007853
304.20 0.007892
304.30 0.007932
304.40 0.007972
304.50 0.008012
304.60 0.008051
304.70 0.008091
304.80 0.008131
304.90 0.00817
305.00 0.00821
305.10 0.008249
305.20 0.008289
305.30 0.008328
305.40 0.008367
305.50 0.008407
305.60 0.008446
305.70 0.008485
305.80 0.008524
305.90 0.008563
306.00 0.008605
306.10 0.008647
306.20 0.008688
306.30 0.008731
306.40 0.008774
306.50 0.008817
306.60 0.00886
306.70 0.008903
306.80 0.008945
306.90 0.008988
307.00 0.00903
307.10 0.009073
307.20 0.009115
307.30 0.009158
307.40 0.0092
307.50 0.009242
307.60 0.009284
307.70 0.009326
307.80 0.009368
307.90 0.009411
308.00 0.009455
308.10 0.0095
308.20 0.009545
308.30 0.009591
308.40 0.009637
308.50 0.009683
308.60 0.009729
308.70 0.009775
308.80 0.009821
308.90 0.009867
309.00 0.009913
309.10 0.009958
309.20 0.01
309.30 0.01005
309.40 0.0101
309.50 0.01014
309.60 0.01019
309.70 0.01023
309.80 0.01028
309.90 0.01032
310.00 0.01037
310.10 0.01042
310.20 0.01047
310.30 0.01052
310.40 0.01057
310.50 0.01062
310.60 0.01067
310.70 0.01071
310.80 0.01076
310.90 0.01081
311.00 0.01086
311.10 0.01091
311.20 0.01096
311.30 0.01101
311.40 0.01106
311.50 0.01111
311.60 0.01116
311.70 0.01121
311.80 0.01126
311.90 0.0113
312.00 0.01135
312.10 0.0114
312.20 0.01145
312.30 0.0115
312.40 0.01156
312.50 0.01161
312.60 0.01166
312.70 0.01172
312.80 0.01177
312.90 0.01182
313.00 0.01188
313.10 0.01193
313.20 0.01198
313.30 0.01203
313.40 0.01209
313.50 0.01214
313.60 0.01219
313.70 0.01224
313.80 0.0123
313.90 0.01235
314.00 0.01241
314.10 0.01246
314.20 0.01252
314.30 0.01257
314.40 0.01263
314.50 0.01269
314.60 0.01274
314.70 0.0128
314.80 0.01286
314.90 0.01291
315.00 0.01297
315.10 0.01303
315.20 0.01308
315.30 0.01314
315.40 0.0132
315.50 0.01325
315.60 0.01331
315.70 0.01336
315.80 0.01342
315.90 0.01348
316.00 0.01353
316.10 0.01359
316.20 0.01365
316.30 0.01371
316.40 0.01378
316.50 0.01384
316.60 0.0139
316.70 0.01396
316.80 0.01402
316.90 0.01408
317.00 0.01414
317.10 0.0142
317.20 0.01426
317.30 0.01432
317.40 0.01438
317.50 0.01444
317.60 0.0145
317.70 0.01456
317.80 0.01462
317.90 0.01468
318.00 0.01475
318.10 0.01481
318.20 0.01487
318.30 0.01494
318.40 0.015
318.50 0.01507
318.60 0.01513
318.70 0.0152
318.80 0.01526
318.90 0.01533
319.00 0.01539
319.10 0.01546
319.20 0.01552
319.30 0.01559
319.40 0.01565
319.50 0.01571
319.60 0.01578
319.70 0.01584
319.80 0.01591
319.90 0.01597
320.00 0.01604
320.10 0.01611
320.20 0.01618
320.30 0.01625
320.40 0.01632
320.50 0.01638
320.60 0.01645
320.70 0.01652
320.80 0.01659
320.90 0.01666
321.00 0.01673
321.10 0.0168
321.20 0.01687
321.30 0.01694
321.40 0.01701
321.50 0.01708
321.60 0.01715
321.70 0.01721
321.80 0.01728
321.90 0.01735
322.00 0.01742
322.10 0.0175
322.20 0.01757
322.30 0.01764
322.40 0.01772
322.50 0.01779
322.60 0.01787
322.70 0.01794
322.80 0.01801
322.90 0.01809
323.00 0.01816
323.10 0.01824
323.20 0.01831
323.30 0.01838
323.40 0.01846
323.50 0.01853
323.60 0.0186
323.70 0.01868
323.80 0.01875
323.90 0.01882
324.00 0.0189
324.10 0.01898
324.20 0.01906
324.30 0.01914
324.40 0.01921
324.50 0.01929
324.60 0.01937
324.70 0.01945
324.80 0.01953
324.90 0.01961
325.00 0.01969
325.10 0.01977
325.20 0.01985
325.30 0.01992
325.40 0.02
325.50 0.02008
325.60 0.02016
325.70 0.02024
325.80 0.02032
325.90 0.0204
326.00 0.02048
326.10 0.02056
326.20 0.02064
326.30 0.02073
326.40 0.02081
326.50 0.0209
326.60 0.02098
326.70 0.02106
326.80 0.02115
326.90 0.02123
327.00 0.02132
327.10 0.0214
327.20 0.02148
327.30 0.02157
327.40 0.02165
327.50 0.02173
327.60 0.02182
327.70 0.0219
327.80 0.02198
327.90 0.02207
328.00 0.02216
328.10 0.02224
328.20 0.02233
328.30 0.02242
328.40 0.02251
328.50 0.0226
328.60 0.02269
328.70 0.02278
328.80 0.02287
328.90 0.02296
329.00 0.02305
329.10 0.02314
329.20 0.02323
329.30 0.02332
329.40 0.02341
329.50 0.02349
329.60 0.02358
329.70 0.02367
329.80 0.02376
329.90 0.02385
330.00 0.02394
330.10 0.02403
330.20 0.02413
330.30 0.02422
330.40 0.02432
330.50 0.02442
330.60 0.02451
330.70 0.02461
330.80 0.0247
330.90 0.0248
331.00 0.02489
331.10 0.02499
331.20 0.02508
331.30 0.02518
331.40 0.02527
331.50 0.02536
331.60 0.02546
331.70 0.02555
331.80 0.02565
331.90 0.02574
332.00 0.02583
332.10 0.02594
332.20 0.02604
332.30 0.02614
332.40 0.02624
332.50 0.02634
332.60 0.02644
332.70 0.02655
332.80 0.02665
332.90 0.02675
333.00 0.02685
333.10 0.02695
333.20 0.02705
333.30 0.02715
333.40 0.02725
333.50 0.02735
333.60 0.02745
333.70 0.02755
333.80 0.02765
333.90 0.02775
334.00 0.02785
334.10 0.02796
334.20 0.02807
334.30 0.02818
334.40 0.02828
334.50 0.02839
334.60 0.0285
334.70 0.02861
334.80 0.02871
334.90 0.02882
335.00 0.02893
335.10 0.02903
335.20 0.02914
335.30 0.02925
335.40 0.02935
335.50 0.02946
335.60 0.02957
335.70 0.02967
335.80 0.02978
335.90 0.02988
336.00 0.02999
336.10 0.0301
336.20 0.03022
336.30 0.03033
336.40 0.03045
336.50 0.03056
336.60 0.03068
336.70 0.03079
336.80 0.0309
336.90 0.03102
337.00 0.03113
337.10 0.03124
337.20 0.03136
337.30 0.03147
337.40 0.03158
337.50 0.03169
337.60 0.03181
337.70 0.03192
337.80 0.03203
337.90 0.03214
338.00 0.03226
338.10 0.03238
338.20 0.0325
338.30 0.03262
338.40 0.03274
338.50 0.03286
338.60 0.03298
338.70 0.0331
338.80 0.03322
338.90 0.03334
339.00 0.03346
339.10 0.03358
339.20 0.0337
339.30 0.03382
339.40 0.03394
339.50 0.03406
339.60 0.03418
339.70 0.0343
339.80 0.03442
339.90 0.03454
340.00 0.03465
340.10 0.03478
340.20 0.03491
340.30 0.03504
340.40 0.03517
340.50 0.03529
340.60 0.03542
340.70 0.03555
340.80 0.03568
340.90 0.0358
341.00 0.03593
341.10 0.03606
341.20 0.03618
341.30 0.03631
341.40 0.03644
341.50 0.03656
341.60 0.03669
341.70 0.03681
341.80 0.03694
341.90 0.03707
342.00 0.03719
342.10 0.03733
342.20 0.03746
342.30 0.0376
342.40 0.03773
342.50 0.03787
342.60 0.038
342.70 0.03814
342.80 0.03827
342.90 0.0384
343.00 0.03854
343.10 0.03867
343.20 0.03881
343.30 0.03894
343.40 0.03907
343.50 0.03921
343.60 0.03934
343.70 0.03947
343.80 0.03961
343.90 0.03974
344.00 0.03987
344.10 0.04001
344.20 0.04016
344.30 0.0403
344.40 0.04044
344.50 0.04058
344.60 0.04073
344.70 0.04087
344.80 0.04101
344.90 0.04115
345.00 0.04129
345.10 0.04143
345.20 0.04157
345.30 0.04172
345.40 0.04186
345.50 0.042
345.60 0.04214
345.70 0.04228
345.80 0.04242
345.90 0.04256
346.00 0.0427
346.10 0.04285
346.20 0.043
346.30 0.04315
346.40 0.0433
346.50 0.04345
346.60 0.0436
346.70 0.04375
346.80 0.0439
346.90 0.04405
347.00 0.0442
347.10 0.04435
347.20 0.04449
347.30 0.04464
347.40 0.04479
347.50 0.04494
347.60 0.04509
347.70 0.04524
347.80 0.04538
347.90 0.04553
348.00 0.04568
348.10 0.04584
348.20 0.046
348.30 0.04615
348.40 0.04631
348.50 0.04647
348.60 0.04663
348.70 0.04679
348.80 0.04694
348.90 0.0471
349.00 0.04726
349.10 0.04741
349.20 0.04757
349.30 0.04773
349.40 0.04788
349.50 0.04804
349.60 0.0482
349.70 0.04835
349.80 0.04851
349.90 0.04866
350.00 0.04882
350.10 0.04898
350.20 0.04915
350.30 0.04932
350.40 0.04948
350.50 0.04965
350.60 0.04982
350.70 0.04998
350.80 0.05015
350.90 0.05031
351.00 0.05048
351.10 0.05064
351.20 0.05081
351.30 0.05097
351.40 0.05114
351.50 0.0513
351.60 0.05147
351.70 0.05163
351.80 0.05179
351.90 0.05196
352.00 0.05212
352.10 0.05229
352.20 0.05247
352.30 0.05265
352.40 0.05282
352.50 0.053
352.60 0.05317
352.70 0.05334
352.80 0.05352
352.90 0.05369
353.00 0.05387
353.10 0.05404
353.20 0.05421
353.30 0.05439
353.40 0.05456
353.50 0.05473
353.60 0.05491
353.70 0.05508
353.80 0.05525
353.90 0.05542
354.00 0.05559
354.10 0.05578
354.20 0.05596
354.30 0.05615
354.40 0.05633
354.50 0.05651
354.60 0.0567
354.70 0.05688
354.80 0.05706
354.90 0.05725
355.00 0.05743
355.10 0.05761
355.20 0.05779
355.30 0.05797
355.40 0.05816
355.50 0.05834
355.60 0.05852
355.70 0.0587
355.80 0.05888
355.90 0.05906
356.00 0.05924
356.10 0.05944
356.20 0.05963
356.30 0.05982
356.40 0.06001
356.50 0.06021
356.60 0.0604
356.70 0.06059
356.80 0.06078
356.90 0.06097
357.00 0.06117
357.10 0.06136
357.20 0.06155
357.30 0.06174
357.40 0.06193
357.50 0.06212
357.60 0.06231
357.70 0.0625
357.80 0.06269
357.90 0.06288
358.00 0.06307
358.10 0.06327
358.20 0.06347
358.30 0.06367
358.40 0.06388
358.50 0.06408
358.60 0.06428
358.70 0.06448
358.80 0.06468
358.90 0.06488
359.00 0.06508
359.10 0.06529
359.20 0.06549
359.30 0.06569
359.40 0.06589
359.50 0.06609
359.60 0.06628
359.70 0.06648
359.80 0.06668
359.90 0.06688
360.00 0.06708
360.10 0.06729
360.20 0.0675
360.30 0.06772
360.40 0.06793
360.50 0.06814
360.60 0.06835
360.70 0.06856
360.80 0.06877
360.90 0.06898
361.00 0.06919
361.10 0.0694
361.20 0.06961
361.30 0.06982
361.40 0.07003
361.50 0.07024
361.60 0.07045
361.70 0.07066
361.80 0.07087
361.90 0.07108
362.00 0.07128
362.10 0.0715
362.20 0.07172
362.30 0.07194
362.40 0.07216
362.50 0.07237
362.60 0.07259
362.70 0.07281
362.80 0.07302
362.90 0.07324
363.00 0.07346
363.10 0.07368
363.20 0.07391
363.30 0.07413
363.40 0.07436
363.50 0.07458
363.60 0.0748
363.70 0.07503
363.80 0.07525
363.90 0.07547
364.00 0.0757
364.10 0.07592
364.20 0.07614
364.30 0.07636
364.40 0.07659
364.50 0.07681
364.60 0.07704
364.70 0.07728
364.80 0.07751
364.90 0.07774
365.00 0.07797
365.10 0.07821
365.20 0.07844
365.30 0.07867
365.40 0.0789
365.50 0.07913
365.60 0.07936
365.70 0.07959
365.80 0.07982
365.90 0.08005
366.00 0.08028
366.10 0.08052
366.20 0.08077
366.30 0.08101
366.40 0.08125
366.50 0.08149
366.60 0.08173
366.70 0.08197
366.80 0.08221
366.90 0.08246
367.00 0.0827
367.10 0.08294
367.20 0.08318
367.30 0.08341
367.40 0.08365
367.50 0.08389
367.60 0.08413
367.70 0.08437
367.80 0.08461
367.90 0.08485
368.00 0.08508
368.10 0.08534
368.20 0.08559
368.30 0.08584
368.40 0.0861
368.50 0.08635
368.60 0.0866
368.70 0.08685
368.80 0.0871
368.90 0.08735
369.00 0.08761
369.10 0.08786
369.20 0.08811
369.30 0.08836
369.40 0.08861
369.50 0.08886
369.60 0.08911
369.70 0.08935
369.80 0.0896
369.90 0.08985
370.00 0.0901
370.10 0.09036
370.20 0.09063
370.30 0.09089
370.40 0.09115
370.50 0.09142
370.60 0.09168
370.70 0.09194
370.80 0.09221
370.90 0.09247
371.00 0.09273
371.10 0.09299
371.20 0.09325
371.30 0.09351
371.40 0.09377
371.50 0.09403
371.60 0.09429
371.70 0.09455
371.80 0.09481
371.90 0.09507
372.00 0.09533
372.10 0.0956
372.20 0.09588
372.30 0.09615
372.40 0.09643
372.50 0.0967
372.60 0.09698
372.70 0.09725
372.80 0.09752
372.90 0.0978
373.00 0.09807
373.10 0.09834
373.20 0.09861
373.30 0.09889
373.40 0.09916
373.50 0.09943
373.60 0.0997
373.70 0.09997
373.80 0.1002
373.90 0.1005
374.00 0.1008
374.10 0.1011
374.20 0.1014
374.30 0.1016
374.40 0.1019
374.50 0.1022
374.60 0.1025
374.70 0.1028
374.80 0.1031
374.90 0.1033
375.00 0.1036
375.10 0.1039
375.20 0.1042
375.30 0.1045
375.40 0.1048
375.50 0.105
375.60 0.1053
375.70 0.1056
375.80 0.1059
375.90 0.1062
376.00 0.1065
376.10 0.1067
376.20 0.107
376.30 0.1073
376.40 0.1076
376.50 0.1079
376.60 0.1082
376.70 0.1085
376.80 0.1088
376.90 0.1091
377.00 0.1094
377.10 0.1097
377.20 0.11
377.30 0.1103
377.40 0.1106
377.50 0.1109
377.60 0.1112
377.70 0.1115
377.80 0.1118
377.90 0.1121
378.00 0.1124
378.10 0.1127
378.20 0.113
378.30 0.1133
378.40 0.1136
378.50 0.1139
378.60 0.1142
378.70 0.1145
378.80 0.1148
378.90 0.1151
379.00 0.1154
379.10 0.1157
379.20 0.116
379.30 0.1163
379.40 0.1166
379.50 0.117
379.60 0.1173
379.70 0.1176
379.80 0.1179
379.90 0.1182
380.00 0.1185
380.10 0.1188
380.20 0.1191
380.30 0.1195
380.40 0.1198
380.50 0.1201
380.60 0.1204
380.70 0.1207
380.80 0.121
380.90 0.1214
381.00 0.1217
381.10 0.122
381.20 0.1223
381.30 0.1226
381.40 0.1229
381.50 0.1233
381.60 0.1236
381.70 0.1239
381.80 0.1242
381.90 0.1246
382.00 0.1249
382.10 0.1252
382.20 0.1255
382.30 0.1259
382.40 0.1262
382.50 0.1265
382.60 0.1269
382.70 0.1272
382.80 0.1275
382.90 0.1278
383.00 0.1282
383.10 0.1285
383.20 0.1288
383.30 0.1292
383.40 0.1295
383.50 0.1298
383.60 0.1302
383.70 0.1305
383.80 0.1308
383.90 0.1312
384.00 0.1315
384.10 0.1318
384.20 0.1322
384.30 0.1325
384.40 0.1329
384.50 0.1332
384.60 0.1335
384.70 0.1339
384.80 0.1342
384.90 0.1346
385.00 0.1349
385.10 0.1353
385.20 0.1356
385.30 0.1359
385.40 0.1363
385.50 0.1366
385.60 0.137
385.70 0.1373
385.80 0.1377
385.90 0.138
386.00 0.1384
386.10 0.1387
386.20 0.1391
386.30 0.1394
386.40 0.1398
386.50 0.1401
386.60 0.1405
386.70 0.1408
386.80 0.1412
386.90 0.1416
387.00 0.1419
387.10 0.1423
387.20 0.1426
387.30 0.143
387.40 0.1433
387.50 0.1437
387.60 0.1441
387.70 0.1444
387.80 0.1448
387.90 0.1451
388.00 0.1455
388.10 0.1459
388.20 0.1462
388.30 0.1466
388.40 0.147
388.50 0.1473
388.60 0.1477
388.70 0.1481
388.80 0.1484
388.90 0.1488
389.00 0.1492
389.10 0.1495
389.20 0.1499
389.30 0.1503
389.40 0.1506
389.50 0.151
389.60 0.1514
389.70 0.1518
389.80 0.1521
389.90 0.1525
390.00 0.1529
390.10 0.1533
390.20 0.1536
390.30 0.154
390.40 0.1544
390.50 0.1548
390.60 0.1552
390.70 0.1555
390.80 0.1559
390.90 0.1563
391.00 0.1567
391.10 0.1571
391.20 0.1574
391.30 0.1578
391.40 0.1582
391.50 0.1586
391.60 0.159
391.70 0.1594
391.80 0.1598
391.90 0.1601
392.00 0.1605
392.10 0.1609
392.20 0.1613
392.30 0.1617
392.40 0.1621
392.50 0.1625
392.60 0.1629
392.70 0.1633
392.80 0.1637
392.90 0.1641
393.00 0.1645
393.10 0.1648
393.20 0.1652
393.30 0.1656
393.40 0.166
393.50 0.1664
393.60 0.1668
393.70 0.1672
393.80 0.1676
393.90 0.168
394.00 0.1684
394.10 0.1688
394.20 0.1692
394.30 0.1696
394.40 0.17
394.50 0.1705
394.60 0.1709
394.70 0.1713
394.80 0.1717
394.90 0.1721
395.00 0.1725
395.10 0.1729
395.20 0.1733
395.30 0.1737
395.40 0.1741
395.50 0.1745
395.60 0.175
395.70 0.1754
395.80 0.1758
395.90 0.1762
396.00 0.1766
396.10 0.177
396.20 0.1774
396.30 0.1779
396.40 0.1783
396.50 0.1787
396.60 0.1791
396.70 0.1795
396.80 0.18
396.90 0.1804
397.00 0.1808
397.10 0.1812
397.20 0.1816
397.30 0.1821
397.40 0.1825
397.50 0.1829
397.60 0.1833
397.70 0.1838
397.80 0.1842
397.90 0.1846
398.00 0.1851
398.10 0.1855
398.20 0.1859
398.30 0.1863
398.40 0.1868
398.50 0.1872
398.60 0.1876
398.70 0.1881
398.80 0.1885
398.90 0.1889
399.00 0.1894
399.10 0.1898
399.20 0.1903
399.30 0.1907
399.40 0.1911
399.50 0.1916
399.60 0.192
399.70 0.1924
399.80 0.1929
399.90 0.1933
400.00 0.1938
400.10 0.1942
400.20 0.1947
400.30 0.1951
400.40 0.1956
400.50 0.196
400.60 0.1964
400.70 0.1969
400.80 0.1973
400.90 0.1978
401.00 0.1982
401.10 0.1987
401.20 0.1991
401.30 0.1996
401.40 0.2
401.50 0.2005
401.60 0.2009
401.70 0.2014
401.80 0.2019
401.90 0.2023
402.00 0.2028
402.10 0.2032
402.20 0.2037
402.30 0.2041
402.40 0.2046
402.50 0.2051
402.60 0.2055
402.70 0.206
402.80 0.2064
402.90 0.2069
403.00 0.2074
403.10 0.2078
403.20 0.2083
403.30 0.2088
403.40 0.2092
403.50 0.2097
403.60 0.2102
403.70 0.2106
403.80 0.2111
403.90 0.2116
404.00 0.212
404.10 0.2125
404.20 0.213
404.30 0.2135
404.40 0.2139
404.50 0.2144
404.60 0.2149
404.70 0.2154
404.80 0.2158
404.90 0.2163
405.00 0.2168
405.10 0.2173
405.20 0.2178
405.30 0.2182
405.40 0.2187
405.50 0.2192
405.60 0.2197
405.70 0.2202
405.80 0.2206
405.90 0.2211
406.00 0.2216
406.10 0.2221
406.20 0.2226
406.30 0.2231
406.40 0.2236
406.50 0.224
406.60 0.2245
406.70 0.225
406.80 0.2255
406.90 0.226
407.00 0.2265
407.10 0.227
407.20 0.2275
407.30 0.228
407.40 0.2285
407.50 0.229
407.60 0.2295
407.70 0.23
407.80 0.2305
407.90 0.231
408.00 0.2315
408.10 0.232
408.20 0.2325
408.30 0.233
408.40 0.2335
408.50 0.234
408.60 0.2345
408.70 0.235
408.80 0.2355
408.90 0.236
409.00 0.2365
409.10 0.237
409.20 0.2375
409.30 0.238
409.40 0.2385
409.50 0.239
409.60 0.2395
409.70 0.2401
409.80 0.2406
409.90 0.2411
410.00 0.2416
410.10 0.2421
410.20 0.2426
410.30 0.2431
410.40 0.2437
410.50 0.2442
410.60 0.2447
410.70 0.2452
410.80 0.2457
410.90 0.2462
411.00 0.2468
411.10 0.2473
411.20 0.2478
411.30 0.2483
411.40 0.2489
411.50 0.2494
411.60 0.2499
411.70 0.2504
411.80 0.251
411.90 0.2515
412.00 0.252
412.10 0.2525
412.20 0.2531
412.30 0.2536
412.40 0.2541
412.50 0.2547
412.60 0.2552
412.70 0.2557
412.80 0.2563
412.90 0.2568
413.00 0.2573
413.10 0.2579
413.20 0.2584
413.30 0.259
413.40 0.2595
413.50 0.26
413.60 0.2606
413.70 0.2611
413.80 0.2617
413.90 0.2622
414.00 0.2627
414.10 0.2633
414.20 0.2638
414.30 0.2644
414.40 0.2649
414.50 0.2655
414.60 0.266
414.70 0.2666
414.80 0.2671
414.90 0.2677
415.00 0.2682
415.10 0.2688
415.20 0.2693
415.30 0.2699
415.40 0.2704
415.50 0.271
415.60 0.2715
415.70 0.2721
415.80 0.2726
415.90 0.2732
416.00 0.2738
416.10 0.2743
416.20 0.2749
416.30 0.2754
416.40 0.276
416.50 0.2766
416.60 0.2771
416.70 0.2777
416.80 0.2782
416.90 0.2788
417.00 0.2794
417.10 0.2799
417.20 0.2805
417.30 0.2811
417.40 0.2816
417.50 0.2822
417.60 0.2828
417.70 0.2833
417.80 0.2839
417.90 0.2845
418.00 0.2851
418.10 0.2856
418.20 0.2862
418.30 0.2868
418.40 0.2874
418.50 0.2879
418.60 0.2885
418.70 0.2891
418.80 0.2897
418.90 0.2902
419.00 0.2908
419.10 0.2914
419.20 0.292
419.30 0.2926
419.40 0.2932
419.50 0.2937
419.60 0.2943
419.70 0.2949
419.80 0.2955
419.90 0.2961
420.00 0.2967
420.10 0.2973
420.20 0.2978
420.30 0.2984
420.40 0.299
420.50 0.2996
420.60 0.3002
420.70 0.3008
420.80 0.3014
420.90 0.302
421.00 0.3026
421.10 0.3032
421.20 0.3038
421.30 0.3044
421.40 0.305
421.50 0.3056
421.60 0.3062
421.70 0.3068
421.80 0.3074
421.90 0.308
422.00 0.3086
422.10 0.3092
422.20 0.3098
422.30 0.3104
422.40 0.311
422.50 0.3116
422.60 0.3122
422.70 0.3128
422.80 0.3134
422.90 0.314
423.00 0.3146
423.10 0.3153
423.20 0.3159
423.30 0.3165
423.40 0.3171
423.50 0.3177
423.60 0.3183
423.70 0.3189
423.80 0.3196
423.90 0.3202
424.00 0.3208
424.10 0.3214
424.20 0.322
424.30 0.3227
424.40 0.3233
424.50 0.3239
424.60 0.3245
424.70 0.3251
424.80 0.3258
424.90 0.3264
425.00 0.327
425.10 0.3276
425.20 0.3283
425.30 0.3289
425.40 0.3295
425.50 0.3301
425.60 0.3308
425.70 0.3314
425.80 0.332
425.90 0.3327
426.00 0.3333
426.10 0.3339
426.20 0.3346
426.30 0.3352
426.40 0.3359
426.50 0.3365
426.60 0.3371
426.70 0.3378
426.80 0.3384
426.90 0.339
427.00 0.3397
427.10 0.3403
427.20 0.341
427.30 0.3416
427.40 0.3422
427.50 0.3429
427.60 0.3435
427.70 0.3442
427.80 0.3448
427.90 0.3455
428.00 0.3461
428.10 0.3468
428.20 0.3474
428.30 0.3481
428.40 0.3487
428.50 0.3494
428.60 0.35
428.70 0.3507
428.80 0.3513
428.90 0.352
429.00 0.3526
429.10 0.3533
429.20 0.3539
429.30 0.3546
429.40 0.3553
429.50 0.3559
429.60 0.3566
429.70 0.3573
429.80 0.3579
429.90 0.3586
430.00 0.3592
430.10 0.3599
430.20 0.3606
430.30 0.3612
430.40 0.3619
430.50 0.3626
430.60 0.3632
430.70 0.3639
430.80 0.3646
430.90 0.3652
431.00 0.3659
431.10 0.3666
431.20 0.3673
431.30 0.3679
431.40 0.3686
431.50 0.3693
431.60 0.3699
431.70 0.3706
431.80 0.3713
431.90 0.372
432.00 0.3726
432.10 0.3733
432.20 0.374
432.30 0.3747
432.40 0.3754
432.50 0.3761
432.60 0.3767
432.70 0.3774
432.80 0.3781
432.90 0.3788
433.00 0.3795
433.10 0.3802
433.20 0.3809
433.30 0.3815
433.40 0.3822
433.50 0.3829
433.60 0.3836
433.70 0.3843
433.80 0.385
433.90 0.3857
434.00 0.3864
434.10 0.3871
434.20 0.3878
434.30 0.3885
434.40 0.3892
434.50 0.3899
434.60 0.3906
434.70 0.3913
434.80 0.392
434.90 0.3927
435.00 0.3934
435.10 0.3941
435.20 0.3948
435.30 0.3955
435.40 0.3962
435.50 0.3969
435.60 0.3976
435.70 0.3983
435.80 0.399
435.90 0.3997
436.00 0.4004
436.10 0.4011
436.20 0.4018
436.30 0.4025
436.40 0.4032
436.50 0.404
436.60 0.4047
436.70 0.4054
436.80 0.4061
436.90 0.4068
437.00 0.4075
437.10 0.4082
437.20 0.409
437.30 0.4097
437.40 0.4104
437.50 0.4111
437.60 0.4119
437.70 0.4126
437.80 0.4133
437.90 0.414
438.00 0.4147
438.10 0.4155
438.20 0.4162
438.30 0.4169
438.40 0.4176
438.50 0.4184
438.60 0.4191
438.70 0.4198
438.80 0.4206
438.90 0.4213
439.00 0.422
439.10 0.4228
439.20 0.4235
439.30 0.4242
439.40 0.425
439.50 0.4257
439.60 0.4264
439.70 0.4272
439.80 0.4279
439.90 0.4286
440.00 0.4294
440.10 0.4301
440.20 0.4308
440.30 0.4316
440.40 0.4323
440.50 0.4331
440.60 0.4338
440.70 0.4346
440.80 0.4353
440.90 0.4361
441.00 0.4368
441.10 0.4376
441.20 0.4383
441.30 0.4391
441.40 0.4398
441.50 0.4406
441.60 0.4413
441.70 0.4421
441.80 0.4428
441.90 0.4436
442.00 0.4443
442.10 0.4451
442.20 0.4458
442.30 0.4466
442.40 0.4473
442.50 0.4481
442.60 0.4488
442.70 0.4496
442.80 0.4504
442.90 0.4512
443.00 0.4519
443.10 0.4527
443.20 0.4534
443.30 0.4542
443.40 0.455
443.50 0.4557
443.60 0.4565
443.70 0.4573
443.80 0.458
443.90 0.4588
444.00 0.4596
444.10 0.4603
444.20 0.4611
444.30 0.4619
444.40 0.4626
444.50 0.4634
444.60 0.4642
444.70 0.465
444.80 0.4657
444.90 0.4665
445.00 0.4673
445.10 0.4681
445.20 0.4689
445.30 0.4696
445.40 0.4704
445.50 0.4712
445.60 0.472
445.70 0.4728
445.80 0.4735
445.90 0.4743
446.00 0.4751
446.10 0.4759
446.20 0.4767
446.30 0.4775
446.40 0.4782
446.50 0.479
446.60 0.4798
446.70 0.4806
446.80 0.4814
446.90 0.4822
447.00 0.483
447.10 0.4838
447.20 0.4846
447.30 0.4854
447.40 0.4862
447.50 0.487
447.60 0.4878
447.70 0.4886
447.80 0.4894
447.90 0.4901
448.00 0.4909
448.10 0.4917
448.20 0.4926
448.30 0.4933
448.40 0.4941
448.50 0.495
448.60 0.4958
448.70 0.4966
448.80 0.4974
448.90 0.4982
449.00 0.499
449.10 0.4998
449.20 0.5006
449.30 0.5014
449.40 0.5022
449.50 0.503
449.60 0.5038
449.70 0.5046
449.80 0.5055
449.90 0.5063
450.00 0.5071
450.10 0.5079
450.20 0.5087
450.30 0.5095
450.40 0.5104
450.50 0.5112
450.60 0.512
450.70 0.5128
450.80 0.5136
450.90 0.5144
451.00 0.5153
451.10 0.5161
451.20 0.5169
451.30 0.5177
451.40 0.5186
451.50 0.5194
451.60 0.5202
451.70 0.521
451.80 0.5219
451.90 0.5227
452.00 0.5235
452.10 0.5244
452.20 0.5252
452.30 0.526
452.40 0.5269
452.50 0.5277
452.60 0.5285
452.70 0.5294
452.80 0.5302
452.90 0.531
453.00 0.5319
453.10 0.5327
453.20 0.5335
453.30 0.5344
453.40 0.5352
453.50 0.5361
453.60 0.5369
453.70 0.5377
453.80 0.5386
453.90 0.5394
454.00 0.5403
454.10 0.5411
454.20 0.542
454.30 0.5428
454.40 0.5436
454.50 0.5445
454.60 0.5454
454.70 0.5462
454.80 0.5471
454.90 0.5479
455.00 0.5488
455.10 0.5496
455.20 0.5505
455.30 0.5513
455.40 0.5522
455.50 0.553
455.60 0.5539
455.70 0.5547
455.80 0.5556
455.90 0.5564
456.00 0.5573
456.10 0.5582
456.20 0.559
456.30 0.5599
456.40 0.5607
456.50 0.5616
456.60 0.5625
456.70 0.5633
456.80 0.5642
456.90 0.5651
457.00 0.5659
457.10 0.5668
457.20 0.5677
457.30 0.5685
457.40 0.5694
457.50 0.5703
457.60 0.5711
457.70 0.572
457.80 0.5729
457.90 0.5738
458.00 0.5746
458.10 0.5755
458.20 0.5764
458.30 0.5773
458.40 0.5781
458.50 0.579
458.60 0.5799
458.70 0.5808
458.80 0.5817
458.90 0.5825
459.00 0.5834
459.10 0.5843
459.20 0.5852
459.30 0.586
459.40 0.5869
459.50 0.5878
459.60 0.5887
459.70 0.5896
459.80 0.5905
459.90 0.5914
460.00 0.5922
460.10 0.5931
460.20 0.594
460.30 0.5949
460.40 0.5958
460.50 0.5967
460.60 0.5976
460.70 0.5985
460.80 0.5993
460.90 0.6002
461.00 0.6011
461.10 0.602
461.20 0.6029
461.30 0.6038
461.40 0.6047
461.50 0.6056
461.60 0.6065
461.70 0.6074
461.80 0.6083
461.90 0.6092
462.00 0.6101
462.10 0.611
462.20 0.6119
462.30 0.6128
462.40 0.6137
462.50 0.6146
462.60 0.6156
462.70 0.6165
462.80 0.6174
462.90 0.6183
463.00 0.6192
463.10 0.6201
463.20 0.621
463.30 0.6219
463.40 0.6228
463.50 0.6237
463.60 0.6247
463.70 0.6256
463.80 0.6265
463.90 0.6274
464.00 0.6283
464.10 0.6292
464.20 0.6301
464.30 0.6311
464.40 0.632
464.50 0.6329
464.60 0.6338
464.70 0.6347
464.80 0.6357
464.90 0.6366
465.00 0.6375
465.10 0.6384
465.20 0.6393
465.30 0.6403
465.40 0.6412
465.50 0.6421
465.60 0.6431
465.70 0.644
465.80 0.6449
465.90 0.6458
466.00 0.6468
466.10 0.6477
466.20 0.6486
466.30 0.6496
466.40 0.6505
466.50 0.6514
466.60 0.6524
466.70 0.6533
466.80 0.6542
466.90 0.6552
467.00 0.6561
467.10 0.657
467.20 0.658
467.30 0.6589
467.40 0.6599
467.50 0.6608
467.60 0.6617
467.70 0.6627
467.80 0.6636
467.90 0.6646
468.00 0.6655
468.10 0.6664
468.20 0.6674
468.30 0.6683
468.40 0.6693
468.50 0.6703
468.60 0.6712
468.70 0.6722
468.80 0.6731
468.90 0.674
469.00 0.675
469.10 0.6759
469.20 0.6769
469.30 0.6779
469.40 0.6788
469.50 0.6798
469.60 0.6807
469.70 0.6817
469.80 0.6826
469.90 0.6836
470.00 0.6845
470.10 0.6855
470.20 0.6865
470.30 0.6874
470.40 0.6884
470.50 0.6893
470.60 0.6903
470.70 0.6913
470.80 0.6922
470.90 0.6932
471.00 0.6941
471.10 0.6951
471.20 0.6961
471.30 0.697
471.40 0.698
471.50 0.699
471.60 0.7
471.70 0.7009
471.80 0.7019
471.90 0.7029
472.00 0.7038
472.10 0.7048
472.20 0.7058
472.30 0.7067
472.40 0.7077
472.50 0.7087
472.60 0.7097
472.70 0.7107
472.80 0.7116
472.90 0.7126
473.00 0.7136
473.10 0.7145
473.20 0.7155
473.30 0.7165
473.40 0.7175
473.50 0.7185
473.60 0.7195
473.70 0.7204
473.80 0.7214
473.90 0.7224
474.00 0.7234
474.10 0.7244
474.20 0.7254
474.30 0.7263
474.40 0.7273
474.50 0.7283
474.60 0.7293
474.70 0.7303
474.80 0.7313
474.90 0.7323
475.00 0.7333
475.10 0.7342
475.20 0.7352
475.30 0.7362
475.40 0.7372
475.50 0.7382
475.60 0.7392
475.70 0.7402
475.80 0.7412
475.90 0.7422
476.00 0.7432
476.10 0.7442
476.20 0.7452
476.30 0.7462
476.40 0.7472
476.50 0.7482
476.60 0.7492
476.70 0.7502
476.80 0.7512
476.90 0.7522
477.00 0.7532
477.10 0.7542
477.20 0.7552
477.30 0.7562
477.40 0.7572
477.50 0.7582
477.60 0.7592
477.70 0.7602
477.80 0.7613
477.90 0.7623
478.00 0.7633
478.10 0.7643
478.20 0.7653
478.30 0.7663
478.40 0.7673
478.50 0.7683
478.60 0.7694
478.70 0.7704
478.80 0.7714
478.90 0.7724
479.00 0.7734
479.10 0.7744
479.20 0.7754
479.30 0.7765
479.40 0.7775
479.50 0.7785
479.60 0.7795
479.70 0.7806
479.80 0.7816
479.90 0.7826
480.00 0.7836
480.10 0.7846
480.20 0.7857
480.30 0.7867
480.40 0.7877
480.50 0.7888
480.60 0.7898
480.70 0.7908
480.80 0.7918
480.90 0.7929
481.00 0.7939
481.10 0.7949
481.20 0.7959
481.30 0.797
481.40 0.798
481.50 0.799
481.60 0.8001
481.70 0.8011
481.80 0.8021
481.90 0.8032
482.00 0.8042
482.10 0.8052
482.20 0.8063
482.30 0.8073
482.40 0.8084
482.50 0.8094
482.60 0.8104
482.70 0.8115
482.80 0.8125
482.90 0.8136
483.00 0.8146
483.10 0.8156
483.20 0.8167
483.30 0.8177
483.40 0.8188
483.50 0.8198
483.60 0.8209
483.70 0.8219
483.80 0.823
483.90 0.824
484.00 0.825
484.10 0.8261
484.20 0.8271
484.30 0.8282
484.40 0.8292
484.50 0.8303
484.60 0.8313
484.70 0.8324
484.80 0.8334
484.90 0.8345
485.00 0.8355
485.10 0.8366
485.20 0.8376
485.30 0.8387
485.40 0.8398
485.50 0.8408
485.60 0.8419
485.70 0.8429
485.80 0.844
485.90 0.8451
486.00 0.8461
486.10 0.8472
486.20 0.8482
486.30 0.8493
486.40 0.8504
486.50 0.8514
486.60 0.8525
486.70 0.8536
486.80 0.8546
486.90 0.8557
487.00 0.8567
487.10 0.8578
487.20 0.8589
487.30 0.8599
487.40 0.861
487.50 0.8621
487.60 0.8632
487.70 0.8642
487.80 0.8653
487.90 0.8664
488.00 0.8674
488.10 0.8685
488.20 0.8696
488.30 0.8707
488.40 0.8717
488.50 0.8728
488.60 0.8739
488.70 0.875
488.80 0.876
488.90 0.8771
489.00 0.8782
489.10 0.8793
489.20 0.8803
489.30 0.8814
489.40 0.8825
489.50 0.8836
489.60 0.8847
489.70 0.8857
489.80 0.8868
489.90 0.8879
490.00 0.889
490.10 0.8901
490.20 0.8911
490.30 0.8922
490.40 0.8933
490.50 0.8944
490.60 0.8955
490.70 0.8966
490.80 0.8977
490.90 0.8988
491.00 0.8998
491.10 0.9009
491.20 0.902
491.30 0.9031
491.40 0.9042
491.50 0.9053
491.60 0.9064
491.70 0.9075
491.80 0.9086
491.90 0.9097
492.00 0.9108
492.10 0.9118
492.20 0.9129
492.30 0.914
492.40 0.9151
492.50 0.9162
492.60 0.9173
492.70 0.9184
492.80 0.9195
492.90 0.9206
493.00 0.9217
493.10 0.9228
493.20 0.9239
493.30 0.925
493.40 0.9261
493.50 0.9272
493.60 0.9283
493.70 0.9294
493.80 0.9305
493.90 0.9316
494.00 0.9327
494.10 0.9338
494.20 0.935
494.30 0.9361
494.40 0.9372
494.50 0.9383
494.60 0.9394
494.70 0.9405
494.80 0.9416
494.90 0.9427
495.00 0.9438
495.10 0.945
495.20 0.9461
495.30 0.9472
495.40 0.9483
495.50 0.9494
495.60 0.9505
495.70 0.9516
495.80 0.9528
495.90 0.9539
496.00 0.955
496.10 0.9561
496.20 0.9572
496.30 0.9583
496.40 0.9594
496.50 0.9606
496.60 0.9617
496.70 0.9628
496.80 0.9639
496.90 0.965
497.00 0.9662
497.10 0.9673
497.20 0.9684
497.30 0.9695
497.40 0.9706
497.50 0.9718
497.60 0.9729
497.70 0.974
497.80 0.9751
497.90 0.9763
498.00 0.9774
498.10 0.9785
498.20 0.9796
498.30 0.9808
498.40 0.9819
498.50 0.983
498.60 0.9841
498.70 0.9853
498.80 0.9864
498.90 0.9875
499.00 0.9887
499.10 0.9898
499.20 0.9909
499.30 0.9921
499.40 0.9932
499.50 0.9943
499.60 0.9955
499.70 0.9966
499.80 0.9977
499.90 0.9989
500.00 1
500.10 1.001
500.20 1.002
500.30 1.003
500.40 1.005
500.50 1.006
500.60 1.007
500.70 1.008
500.80 1.009
500.90 1.01
501.00 1.011
501.10 1.013
501.20 1.014
501.30 1.015
501.40 1.016
501.50 1.017
501.60 1.018
501.70 1.019
501.80 1.021
501.90 1.022
502.00 1.023
502.10 1.024
502.20 1.025
502.30 1.026
502.40 1.027
502.50 1.029
502.60 1.03
502.70 1.031
502.80 1.032
502.90 1.033
503.00 1.034
503.10 1.035
503.20 1.037
503.30 1.038
503.40 1.039
503.50 1.04
503.60 1.041
503.70 1.042
503.80 1.043
503.90 1.045
504.00 1.046
504.10 1.047
504.20 1.048
504.30 1.049
504.40 1.05
504.50 1.052
504.60 1.053
504.70 1.054
504.80 1.055
504.90 1.056
505.00 1.057
505.10 1.059
505.20 1.06
505.30 1.061
505.40 1.062
505.50 1.063
505.60 1.064
505.70 1.065
505.80 1.067
505.90 1.068
506.00 1.069
506.10 1.07
506.20 1.071
506.30 1.072
506.40 1.074
506.50 1.075
506.60 1.076
506.70 1.077
506.80 1.078
506.90 1.079
507.00 1.081
507.10 1.082
507.20 1.083
507.30 1.084
507.40 1.085
507.50 1.086
507.60 1.088
507.70 1.089
507.80 1.09
507.90 1.091
508.00 1.092
508.10 1.093
508.20 1.095
508.30 1.096
508.40 1.097
508.50 1.098
508.60 1.099
508.70 1.101
508.80 1.102
508.90 1.103
509.00 1.104
509.10 1.105
509.20 1.106
509.30 1.108
509.40 1.109
509.50 1.11
509.60 1.111
509.70 1.112
509.80 1.113
509.90 1.115
510.00 1.116
510.10 1.117
510.20 1.118
510.30 1.119
510.40 1.121
510.50 1.122
510.60 1.123
510.70 1.124
510.80 1.125
510.90 1.126
511.00 1.128
511.10 1.129
511.20 1.13
511.30 1.131
511.40 1.132
511.50 1.134
511.60 1.135
511.70 1.136
511.80 1.137
511.90 1.138
512.00 1.14
512.10 1.141
512.20 1.142
512.30 1.143
512.40 1.144
512.50 1.145
512.60 1.147
512.70 1.148
512.80 1.149
512.90 1.15
513.00 1.151
513.10 1.153
513.20 1.154
513.30 1.155
513.40 1.156
513.50 1.157
513.60 1.159
513.70 1.16
513.80 1.161
513.90 1.162
514.00 1.163
514.10 1.165
514.20 1.166
514.30 1.167
514.40 1.168
514.50 1.169
514.60 1.171
514.70 1.172
514.80 1.173
514.90 1.174
515.00 1.175
515.10 1.177
515.20 1.178
515.30 1.179
515.40 1.18
515.50 1.181
515.60 1.183
515.70 1.184
515.80 1.185
515.90 1.186
516.00 1.187
516.10 1.189
516.20 1.19
516.30 1.191
516.40 1.192
516.50 1.193
516.60 1.195
516.70 1.196
516.80 1.197
516.90 1.198
517.00 1.199
517.10 1.201
517.20 1.202
517.30 1.203
517.40 1.204
517.50 1.205
517.60 1.207
517.70 1.208
517.80 1.209
517.90 1.21
518.00 1.211
518.10 1.213
518.20 1.214
518.30 1.215
518.40 1.216
518.50 1.217
518.60 1.219
518.70 1.22
518.80 1.221
518.90 1.222
519.00 1.224
519.10 1.225
519.20 1.226
519.30 1.227
519.40 1.228
519.50 1.23
519.60 1.231
519.70 1.232
519.80 1.233
519.90 1.234
520.00 1.236
520.10 1.237
520.20 1.238
520.30 1.239
520.40 1.24
520.50 1.242
520.60 1.243
520.70 1.244
520.80 1.245
520.90 1.247
521.00 1.248
521.10 1.249
521.20 1.25
521.30 1.251
521.40 1.253
521.50 1.254
521.60 1.255
521.70 1.256
521.80 1.258
521.90 1.259
522.00 1.26
522.10 1.261
522.20 1.262
522.30 1.264
522.40 1.265
522.50 1.266
522.60 1.267
522.70 1.268
522.80 1.27
522.90 1.271
523.00 1.272
523.10 1.273
523.20 1.275
523.30 1.276
523.40 1.277
523.50 1.278
523.60 1.279
523.70 1.281
523.80 1.282
523.90 1.283
524.00 1.284
524.10 1.286
524.20 1.287
524.30 1.288
524.40 1.289
524.50 1.29
524.60 1.292
524.70 1.293
524.80 1.294
524.90 1.295
525.00 1.297
525.10 1.298
525.20 1.299
525.30 1.3
525.40 1.301
525.50 1.303
525.60 1.304
525.70 1.305
525.80 1.306
525.90 1.308
526.00 1.309
526.10 1.31
526.20 1.311
526.30 1.313
526.40 1.314
526.50 1.315
526.60 1.316
526.70 1.317
526.80 1.319
526.90 1.32
527.00 1.321
527.10 1.322
527.20 1.324
527.30 1.325
527.40 1.326
527.50 1.327
527.60 1.329
527.70 1.33
527.80 1.331
527.90 1.332
528.00 1.333
528.10 1.335
528.20 1.336
528.30 1.337
528.40 1.338
528.50 1.34
528.60 1.341
528.70 1.342
528.80 1.343
528.90 1.344
529.00 1.346
529.10 1.347
529.20 1.348
529.30 1.349
529.40 1.351
529.50 1.352
529.60 1.353
529.70 1.354
529.80 1.356
529.90 1.357
530.00 1.358
530.10 1.359
530.20 1.36
530.30 1.362
530.40 1.363
530.50 1.364
530.60 1.365
530.70 1.367
530.80 1.368
530.90 1.369
531.00 1.37
531.10 1.372
531.20 1.373
531.30 1.374
531.40 1.375
531.50 1.377
531.60 1.378
531.70 1.379
531.80 1.38
531.90 1.381
532.00 1.383
532.10 1.384
532.20 1.385
532.30 1.386
532.40 1.388
532.50 1.389
532.60 1.39
532.70 1.391
532.80 1.393
532.90 1.394
533.00 1.395
533.10 1.396
533.20 1.397
533.30 1.399
533.40 1.4
533.50 1.401
533.60 1.402
533.70 1.404
533.80 1.405
533.90 1.406
534.00 1.407
534.10 1.409
534.20 1.41
534.30 1.411
534.40 1.412
534.50 1.414
534.60 1.415
534.70 1.416
534.80 1.417
534.90 1.418
535.00 1.42
535.10 1.421
535.20 1.422
535.30 1.423
535.40 1.425
535.50 1.426
535.60 1.427
535.70 1.428
535.80 1.43
535.90 1.431
536.00 1.432
536.10 1.433
536.20 1.435
536.30 1.436
536.40 1.437
536.50 1.438
536.60 1.439
536.70 1.441
536.80 1.442
536.90 1.443
537.00 1.444
537.10 1.446
537.20 1.447
537.30 1.448
537.40 1.449
537.50 1.451
537.60 1.452
537.70 1.453
537.80 1.454
537.90 1.455
538.00 1.457
538.10 1.458
538.20 1.459
538.30 1.46
538.40 1.462
538.50 1.463
538.60 1.464
538.70 1.465
538.80 1.467
538.90 1.468
539.00 1.469
539.10 1.47
539.20 1.471
539.30 1.473
539.40 1.474
539.50 1.475
539.60 1.476
539.70 1.478
539.80 1.479
539.90 1.48
540.00 1.481
540.10 1.483
540.20 1.484
540.30 1.485
540.40 1.486
540.50 1.487
540.60 1.489
540.70 1.49
540.80 1.491
540.90 1.492
541.00 1.494
541.10 1.495
541.20 1.496
541.30 1.497
541.40 1.499
541.50 1.5
541.60 1.501
541.70 1.502
541.80 1.503
541.90 1.505
542.00 1.506
542.10 1.507
542.20 1.508
542.30 1.51
542.40 1.511
542.50 1.512
542.60 1.513
542.70 1.514
542.80 1.516
542.90 1.517
543.00 1.518
543.10 1.519
543.20 1.521
543.30 1.522
543.40 1.523
543.50 1.524
543.60 1.525
543.70 1.527
543.80 1.528
543.90 1.529
544.00 1.53
544.10 1.532
544.20 1.533
544.30 1.534
544.40 1.535
544.50 1.536
544.60 1.538
544.70 1.539
544.80 1.54
544.90 1.541
545.00 1.543
545.10 1.544
545.20 1.545
545.30 1.546
545.40 1.547
545.50 1.549
545.60 1.55
545.70 1.551
545.80 1.552
545.90 1.553
546.00 1.555
546.10 1.556
546.20 1.557
546.30 1.558
546.40 1.56
546.50 1.561
546.60 1.562
546.70 1.563
546.80 1.564
546.90 1.566
547.00 1.567
547.10 1.568
547.20 1.569
547.30 1.57
547.40 1.572
547.50 1.573
547.60 1.574
547.70 1.575
547.80 1.577
547.90 1.578
548.00 1.579
548.10 1.58
548.20 1.581
548.30 1.583
548.40 1.584
548.50 1.585
548.60 1.586
548.70 1.587
548.80 1.589
548.90 1.59
549.00 1.591
549.10 1.592
549.20 1.593
549.30 1.595
549.40 1.596
549.50 1.597
549.60 1.598
549.70 1.599
549.80 1.601
549.90 1.602
550.00 1.603
550.10 1.604
550.20 1.605
550.30 1.607
550.40 1.608
550.50 1.609
550.60 1.61
550.70 1.611
550.80 1.613
550.90 1.614
551.00 1.615
551.10 1.616
551.20 1.617
551.30 1.619
551.40 1.62
551.50 1.621
551.60 1.622
551.70 1.623
551.80 1.624
551.90 1.626
552.00 1.627
552.10 1.628
552.20 1.629
552.30 1.63
552.40 1.632
552.50 1.633
552.60 1.634
552.70 1.635
552.80 1.636
552.90 1.638
553.00 1.639
553.10 1.64
553.20 1.641
553.30 1.642
553.40 1.643
553.50 1.645
553.60 1.646
553.70 1.647
553.80 1.648
553.90 1.649
554.00 1.65
554.10 1.652
554.20 1.653
554.30 1.654
554.40 1.655
554.50 1.656
554.60 1.657
554.70 1.659
554.80 1.66
554.90 1.661
555.00 1.662
555.10 1.663
555.20 1.664
555.30 1.666
555.40 1.667
555.50 1.668
555.60 1.669
555.70 1.67
555.80 1.671
555.90 1.673
556.00 1.674
556.10 1.675
556.20 1.676
556.30 1.677
556.40 1.678
556.50 1.679
556.60 1.681
556.70 1.682
556.80 1.683
556.90 1.684
557.00 1.685
557.10 1.686
557.20 1.688
557.30 1.689
557.40 1.69
557.50 1.691
557.60 1.692
557.70 1.693
557.80 1.694
557.90 1.696
558.00 1.697
558.10 1.698
558.20 1.699
558.30 1.7
558.40 1.701
558.50 1.702
558.60 1.703
558.70 1.705
558.80 1.706
558.90 1.707
559.00 1.708
559.10 1.709
559.20 1.71
559.30 1.711
559.40 1.713
559.50 1.714
559.60 1.715
559.70 1.716
559.80 1.717
559.90 1.718
560.00 1.719
560.10 1.72
560.20 1.722
560.30 1.723
560.40 1.724
560.50 1.725
560.60 1.726
560.70 1.727
560.80 1.728
560.90 1.729
561.00 1.731
561.10 1.732
561.20 1.733
561.30 1.734
561.40 1.735
561.50 1.736
561.60 1.737
561.70 1.738
561.80 1.74
561.90 1.741
562.00 1.742
562.10 1.743
562.20 1.744
562.30 1.745
562.40 1.746
562.50 1.747
562.60 1.748
562.70 1.749
562.80 1.751
562.90 1.752
563.00 1.753
563.10 1.754
563.20 1.755
563.30 1.756
563.40 1.757
563.50 1.758
563.60 1.759
563.70 1.76
563.80 1.762
563.90 1.763
564.00 1.764
564.10 1.765
564.20 1.766
564.30 1.767
564.40 1.768
564.50 1.769
564.60 1.77
564.70 1.771
564.80 1.772
564.90 1.773
565.00 1.775
565.10 1.776
565.20 1.777
565.30 1.778
565.40 1.779
565.50 1.78
565.60 1.781
565.70 1.782
565.80 1.783
565.90 1.784
566.00 1.785
566.10 1.786
566.20 1.787
566.30 1.788
566.40 1.789
566.50 1.79
566.60 1.792
566.70 1.793
566.80 1.794
566.90 1.795
567.00 1.796
567.10 1.797
567.20 1.798
567.30 1.799
567.40 1.8
567.50 1.801
567.60 1.802
567.70 1.803
567.80 1.804
567.90 1.805
568.00 1.806
568.10 1.807
568.20 1.808
568.30 1.809
568.40 1.81
568.50 1.811
568.60 1.812
568.70 1.813
568.80 1.814
568.90 1.815
569.00 1.816
569.10 1.817
569.20 1.818
569.30 1.819
569.40 1.82
569.50 1.821
569.60 1.822
569.70 1.823
569.80 1.824
569.90 1.825
570.00 1.826
570.10 1.827
570.20 1.828
570.30 1.829
570.40 1.83
570.50 1.831
570.60 1.832
570.70 1.833
570.80 1.834
570.90 1.835
571.00 1.836
571.10 1.837
571.20 1.838
571.30 1.839
571.40 1.84
571.50 1.841
571.60 1.842
571.70 1.843
571.80 1.844
571.90 1.845
572.00 1.846
572.10 1.847
572.20 1.848
572.30 1.849
572.40 1.849
572.50 1.85
572.60 1.851
572.70 1.852
572.80 1.853
572.90 1.854
573.00 1.855
573.10 1.856
573.20 1.857
573.30 1.858
573.40 1.859
573.50 1.86
573.60 1.861
573.70 1.862
573.80 1.863
573.90 1.863
574.00 1.864
574.10 1.865
574.20 1.866
574.30 1.867
574.40 1.868
574.50 1.869
574.60 1.87
574.70 1.871
574.80 1.872
574.90 1.873
575.00 1.874
575.10 1.874
575.20 1.875
575.30 1.876
575.40 1.877
575.50 1.878
575.60 1.879
575.70 1.88
575.80 1.881
575.90 1.882
576.00 1.883
576.10 1.884
576.20 1.884
576.30 1.885
576.40 1.886
576.50 1.887
576.60 1.888
576.70 1.889
576.80 1.89
576.90 1.891
577.00 1.892
577.10 1.892
577.20 1.893
577.30 1.894
577.40 1.895
577.50 1.896
577.60 1.897
577.70 1.898
577.80 1.899
577.90 1.899
578.00 1.9
578.10 1.901
578.20 1.902
578.30 1.903
578.40 1.904
578.50 1.905
578.60 1.906
578.70 1.906
578.80 1.907
578.90 1.908
579.00 1.909
579.10 1.91
579.20 1.911
579.30 1.912
579.40 1.912
579.50 1.913
579.60 1.914
579.70 1.915
579.80 1.916
579.90 1.917
580.00 1.918
580.10 1.918
580.20 1.919
580.30 1.92
580.40 1.921
580.50 1.922
580.60 1.923
580.70 1.924
580.80 1.924
580.90 1.925
581.00 1.926
581.10 1.927
581.20 1.928
581.30 1.928
581.40 1.929
581.50 1.93
581.60 1.931
581.70 1.932
581.80 1.933
581.90 1.933
582.00 1.934
582.10 1.935
582.20 1.936
582.30 1.937
582.40 1.937
582.50 1.938
582.60 1.939
582.70 1.94
582.80 1.941
582.90 1.942
583.00 1.942
583.10 1.943
583.20 1.944
583.30 1.945
583.40 1.946
583.50 1.946
583.60 1.947
583.70 1.948
583.80 1.949
583.90 1.949
584.00 1.95
584.10 1.951
584.20 1.952
584.30 1.953
584.40 1.953
584.50 1.954
584.60 1.955
584.70 1.955
584.80 1.956
584.90 1.957
585.00 1.958
585.10 1.958
585.20 1.959
585.30 1.96
585.40 1.961
585.50 1.961
585.60 1.962
585.70 1.963
585.80 1.963
585.90 1.964
586.00 1.965
586.10 1.966
586.20 1.966
586.30 1.967
586.40 1.968
586.50 1.968
586.60 1.969
586.70 1.97
586.80 1.97
586.90 1.971
587.00 1.972
587.10 1.972
587.20 1.973
587.30 1.974
587.40 1.974
587.50 1.975
587.60 1.975
587.70 1.976
587.80 1.977
587.90 1.977
588.00 1.978
588.10 1.979
588.20 1.979
588.30 1.98
588.40 1.981
588.50 1.981
588.60 1.982
588.70 1.982
588.80 1.983
588.90 1.984
589.00 1.984
589.10 1.985
589.20 1.985
589.30 1.986
589.40 1.987
589.50 1.987
589.60 1.988
589.70 1.988
589.80 1.989
589.90 1.989
590.00 1.99
590.10 1.99
590.20 1.991
590.30 1.992
590.40 1.992
590.50 1.993
590.60 1.993
590.70 1.994
590.80 1.994
590.90 1.995
591.00 1.995
591.10 1.996
591.20 1.996
591.30 1.997
591.40 1.998
591.50 1.998
591.60 1.999
591.70 1.999
591.80 2
591.90 2
592.00 2.001
592.10 2.001
592.20 2.002
592.30 2.002
592.40 2.003
592.50 2.003
592.60 2.004
592.70 2.004
592.80 2.005
592.90 2.005
593.00 2.006
593.10 2.006
593.20 2.007
593.30 2.007
593.40 2.008
593.50 2.008
593.60 2.009
593.70 2.009
593.80 2.01
593.90 2.01
594.00 2.011
594.10 2.011
594.20 2.011
594.30 2.012
594.40 2.012
594.50 2.013
594.60 2.013
594.70 2.014
594.80 2.014
594.90 2.015
595.00 2.015
595.10 2.015
595.20 2.016
595.30 2.016
595.40 2.017
595.50 2.017
595.60 2.018
595.70 2.018
595.80 2.018
595.90 2.019
596.00 2.019
596.10 2.02
596.20 2.02
596.30 2.02
596.40 2.021
596.50 2.021
596.60 2.022
596.70 2.022
596.80 2.022
596.90 2.023
597.00 2.023
597.10 2.024
597.20 2.024
597.30 2.024
597.40 2.025
597.50 2.025
597.60 2.025
597.70 2.026
597.80 2.026
597.90 2.026
598.00 2.027
598.10 2.027
598.20 2.027
598.30 2.028
598.40 2.028
598.50 2.028
598.60 2.029
598.70 2.029
598.80 2.029
598.90 2.03
599.00 2.03
599.10 2.03
599.20 2.031
599.30 2.031
599.40 2.031
599.50 2.032
599.60 2.032
599.70 2.032
599.80 2.032
599.90 2.033
600.00 2.033
600.10 2.033
600.20 2.033
600.30 2.034
600.40 2.034
600.50 2.034
600.60 2.034
600.70 2.035
600.80 2.035
600.90 2.035
601.00 2.035
601.10 2.036
601.20 2.036
601.30 2.036
601.40 2.036
601.50 2.036
601.60 2.037
601.70 2.037
601.80 2.037
601.90 2.037
602.00 2.037
602.10 2.038
602.20 2.038
602.30 2.038
602.40 2.038
602.50 2.038
602.60 2.039
602.70 2.039
602.80 2.039
602.90 2.039
603.00 2.039
603.10 2.039
603.20 2.04
603.30 2.04
603.40 2.04
603.50 2.04
603.60 2.04
603.70 2.04
603.80 2.04
603.90 2.04
604.00 2.041
604.10 2.041
604.20 2.041
604.30 2.041
604.40 2.041
604.50 2.041
604.60 2.041
604.70 2.041
604.80 2.041
604.90 2.041
605.00 2.041
605.10 2.041
605.20 2.042
605.30 2.042
605.40 2.042
605.50 2.042
605.60 2.042
605.70 2.042
605.80 2.042
605.90 2.042
606.00 2.042
606.10 2.042
606.20 2.042
606.30 2.042
606.40 2.042
606.50 2.042
606.60 2.042
606.70 2.042
606.80 2.042
606.90 2.042
607.00 2.042
607.10 2.042
607.20 2.042
607.30 2.042
607.40 2.042
607.50 2.042
607.60 2.042
607.70 2.042
607.80 2.042
607.90 2.042
608.00 2.042
608.10 2.042
608.20 2.042
608.30 2.041
608.40 2.041
608.50 2.041
608.60 2.041
608.70 2.041
608.80 2.041
608.90 2.041
609.00 2.041
609.10 2.041
609.20 2.041
609.30 2.04
609.40 2.04
609.50 2.04
609.60 2.04
609.70 2.04
609.80 2.04
609.90 2.04
610.00 2.04
610.10 2.039
610.20 2.039
610.30 2.039
610.40 2.039
610.50 2.039
610.60 2.039
610.70 2.038
610.80 2.038
610.90 2.038
611.00 2.038
611.10 2.038
611.20 2.038
611.30 2.037
611.40 2.037
611.50 2.037
611.60 2.037
611.70 2.036
611.80 2.036
611.90 2.036
612.00 2.036
612.10 2.036
612.20 2.035
612.30 2.035
612.40 2.035
612.50 2.034
612.60 2.034
612.70 2.034
612.80 2.034
612.90 2.033
613.00 2.033
613.10 2.033
613.20 2.033
613.30 2.032
613.40 2.032
613.50 2.032
613.60 2.031
613.70 2.031
613.80 2.031
613.90 2.03
614.00 2.03
614.10 2.03
614.20 2.029
614.30 2.029
614.40 2.029
614.50 2.028
614.60 2.028
614.70 2.027
614.80 2.027
614.90 2.027
615.00 2.026
615.10 2.026
615.20 2.026
615.30 2.025
615.40 2.025
615.50 2.024
615.60 2.024
615.70 2.023
615.80 2.023
615.90 2.023
616.00 2.022
616.10 2.022
616.20 2.021
616.30 2.021
616.40 2.02
616.50 2.02
616.60 2.019
616.70 2.019
616.80 2.018
616.90 2.018
617.00 2.017
617.10 2.017
617.20 2.016
617.30 2.016
617.40 2.015
617.50 2.015
617.60 2.014
617.70 2.014
617.80 2.013
617.90 2.013
618.00 2.012
618.10 2.012
618.20 2.011
618.30 2.01
618.40 2.01
618.50 2.009
618.60 2.009
618.70 2.008
618.80 2.008
618.90 2.007
619.00 2.006
619.10 2.006
619.20 2.005
619.30 2.005
619.40 2.004
619.50 2.003
619.60 2.003
619.70 2.002
619.80 2.001
619.90 2.001
620.00 2
620.10 2
620.20 1.999
620.30 1.998
620.40 1.998
620.50 1.997
620.60 1.996
620.70 1.995
620.80 1.995
620.90 1.994
621.00 1.993
621.10 1.993
621.20 1.992
621.30 1.991
621.40 1.991
621.50 1.99
621.60 1.989
621.70 1.989
621.80 1.988
621.90 1.987
622.00 1.986
622.10 1.986
622.20 1.985
622.30 1.984
622.40 1.984
622.50 1.983
622.60 1.982
622.70 1.981
622.80 1.981
622.90 1.98
623.00 1.979
623.10 1.978
623.20 1.978
623.30 1.977
623.40 1.976
623.50 1.975
623.60 1.974
623.70 1.973
623.80 1.973
623.90 1.972
624.00 1.971
624.10 1.97
624.20 1.969
624.30 1.969
624.40 1.968
624.50 1.967
624.60 1.966
624.70 1.965
624.80 1.964
624.90 1.964
625.00 1.963
625.10 1.962
625.20 1.961
625.30 1.96
625.40 1.959
625.50 1.958
625.60 1.957
625.70 1.956
625.80 1.955
625.90 1.954
626.00 1.954
626.10 1.953
626.20 1.952
626.30 1.951
626.40 1.95
626.50 1.949
626.60 1.948
626.70 1.947
626.80 1.946
626.90 1.945
627.00 1.944
627.10 1.943
627.20 1.942
627.30 1.941
627.40 1.94
627.50 1.939
627.60 1.938
627.70 1.937
627.80 1.936
627.90 1.935
628.00 1.934
628.10 1.933
628.20 1.932
628.30 1.931
628.40 1.929
628.50 1.928
628.60 1.927
628.70 1.926
628.80 1.925
628.90 1.924
629.00 1.923
629.10 1.922
629.20 1.921
629.30 1.92
629.40 1.919
629.50 1.918
629.60 1.917
629.70 1.915
629.80 1.914
629.90 1.913
630.00 1.912
630.10 1.911
630.20 1.91
630.30 1.909
630.40 1.908
630.50 1.906
630.60 1.905
630.70 1.904
630.80 1.903
630.90 1.902
631.00 1.901
631.10 1.9
631.20 1.898
631.30 1.897
631.40 1.896
631.50 1.895
631.60 1.894
631.70 1.892
631.80 1.891
631.90 1.89
632.00 1.889
632.10 1.887
632.20 1.886
632.30 1.885
632.40 1.884
632.50 1.883
632.60 1.881
632.70 1.88
632.80 1.879
632.90 1.877
633.00 1.876
633.10 1.875
633.20 1.874
633.30 1.872
633.40 1.871
633.50 1.87
633.60 1.868
633.70 1.867
633.80 1.866
633.90 1.864
634.00 1.863
634.10 1.862
634.20 1.861
634.30 1.859
634.40 1.858
634.50 1.856
634.60 1.855
634.70 1.854
634.80 1.852
634.90 1.851
635.00 1.85
635.10 1.848
635.20 1.847
635.30 1.846
635.40 1.844
635.50 1.843
635.60 1.841
635.70 1.84
635.80 1.838
635.90 1.837
636.00 1.836
636.10 1.834
636.20 1.833
636.30 1.831
636.40 1.83
636.50 1.829
636.60 1.827
636.70 1.826
636.80 1.824
636.90 1.823
637.00 1.821
637.10 1.82
637.20 1.818
637.30 1.817
637.40 1.815
637.50 1.814
637.60 1.812
637.70 1.811
637.80 1.81
637.90 1.808
638.00 1.807
638.10 1.805
638.20 1.804
638.30 1.802
638.40 1.801
638.50 1.799
638.60 1.798
638.70 1.796
638.80 1.795
638.90 1.793
639.00 1.792
639.10 1.79
639.20 1.789
639.30 1.787
639.40 1.785
639.50 1.784
639.60 1.782
639.70 1.781
639.80 1.779
639.90 1.777
640.00 1.776
640.10 1.774
640.20 1.773
640.30 1.771
640.40 1.769
640.50 1.768
640.60 1.766
640.70 1.764
640.80 1.763
640.90 1.761
641.00 1.76
641.10 1.758
641.20 1.756
641.30 1.755
641.40 1.753
641.50 1.751
641.60 1.75
641.70 1.748
641.80 1.746
641.90 1.744
642.00 1.743
642.10 1.741
642.20 1.739
642.30 1.738
642.40 1.736
642.50 1.734
642.60 1.732
642.70 1.731
642.80 1.729
642.90 1.727
643.00 1.725
643.10 1.723
643.20 1.722
643.30 1.72
643.40 1.718
643.50 1.716
643.60 1.715
643.70 1.713
643.80 1.711
643.90 1.709
644.00 1.707
644.10 1.706
644.20 1.704
644.30 1.702
644.40 1.7
644.50 1.698
644.60 1.697
644.70 1.695
644.80 1.693
644.90 1.691
645.00 1.689
645.10 1.688
645.20 1.686
645.30 1.684
645.40 1.682
645.50 1.68
645.60 1.678
645.70 1.677
645.80 1.675
645.90 1.673
646.00 1.671
646.10 1.669
646.20 1.667
646.30 1.666
646.40 1.664
646.50 1.662
646.60 1.66
646.70 1.658
646.80 1.656
646.90 1.655
647.00 1.653
647.10 1.651
647.20 1.649
647.30 1.647
647.40 1.645
647.50 1.643
647.60 1.642
647.70 1.64
647.80 1.638
647.90 1.636
648.00 1.634
648.10 1.632
648.20 1.63
648.30 1.628
648.40 1.626
648.50 1.625
648.60 1.623
648.70 1.621
648.80 1.619
648.90 1.617
649.00 1.615
649.10 1.613
649.20 1.611
649.30 1.609
649.40 1.607
649.50 1.605
649.60 1.603
649.70 1.601
649.80 1.599
649.90 1.598
650.00 1.596
650.10 1.594
650.20 1.592
650.30 1.59
650.40 1.588
650.50 1.586
650.60 1.584
650.70 1.582
650.80 1.58
650.90 1.578
651.00 1.576
651.10 1.574
651.20 1.572
651.30 1.57
651.40 1.568
651.50 1.566
651.60 1.564
651.70 1.562
651.80 1.56
651.90 1.558
652.00 1.556
652.10 1.554
652.20 1.552
652.30 1.55
652.40 1.548
652.50 1.546
652.60 1.544
652.70 1.542
652.80 1.54
652.90 1.538
653.00 1.536
653.10 1.534
653.20 1.532
653.30 1.53
653.40 1.527
653.50 1.525
653.60 1.523
653.70 1.521
653.80 1.519
653.90 1.517
654.00 1.515
654.10 1.513
654.20 1.511
654.30 1.509
654.40 1.507
654.50 1.505
654.60 1.503
654.70 1.501
654.80 1.499
654.90 1.497
655.00 1.495
655.10 1.493
655.20 1.49
655.30 1.488
655.40 1.486
655.50 1.484
655.60 1.482
655.70 1.48
655.80 1.478
655.90 1.476
656.00 1.474
656.10 1.472
656.20 1.47
656.30 1.468
656.40 1.466
656.50 1.463
656.60 1.461
656.70 1.459
656.80 1.457
656.90 1.455
657.00 1.453
657.10 1.451
657.20 1.449
657.30 1.447
657.40 1.445
657.50 1.443
657.60 1.44
657.70 1.438
657.80 1.436
657.90 1.434
658.00 1.432
658.10 1.43
658.20 1.428
658.30 1.426
658.40 1.424
658.50 1.421
658.60 1.419
658.70 1.417
658.80 1.415
658.90 1.413
659.00 1.411
659.10 1.409
659.20 1.407
659.30 1.404
659.40 1.402
659.50 1.4
659.60 1.398
659.70 1.396
659.80 1.394
659.90 1.392
660.00 1.39
660.10 1.387
660.20 1.385
660.30 1.383
660.40 1.381
660.50 1.379
660.60 1.377
660.70 1.375
660.80 1.372
660.90 1.37
661.00 1.368
661.10 1.366
661.20 1.364
661.30 1.362
661.40 1.36
661.50 1.357
661.60 1.355
661.70 1.353
661.80 1.351
661.90 1.349
662.00 1.347
662.10 1.344
662.20 1.342
662.30 1.34
662.40 1.338
662.50 1.336
662.60 1.334
662.70 1.331
662.80 1.329
662.90 1.327
663.00 1.325
663.10 1.323
663.20 1.321
663.30 1.319
663.40 1.316
663.50 1.314
663.60 1.312
663.70 1.31
663.80 1.308
663.90 1.306
664.00 1.303
664.10 1.301
664.20 1.299
664.30 1.297
664.40 1.295
664.50 1.293
664.60 1.29
664.70 1.288
664.80 1.286
664.90 1.284
665.00 1.282
665.10 1.28
665.20 1.277
665.30 1.275
665.40 1.273
665.50 1.271
665.60 1.269
665.70 1.267
665.80 1.264
665.90 1.262
666.00 1.26
666.10 1.258
666.20 1.256
666.30 1.253
666.40 1.251
666.50 1.249
666.60 1.247
666.70 1.245
666.80 1.243
666.90 1.24
667.00 1.238
667.10 1.236
667.20 1.234
667.30 1.232
667.40 1.23
667.50 1.227
667.60 1.225
667.70 1.223
667.80 1.221
667.90 1.219
668.00 1.216
668.10 1.214
668.20 1.212
668.30 1.21
668.40 1.208
668.50 1.206
668.60 1.203
668.70 1.201
668.80 1.199
668.90 1.197
669.00 1.195
669.10 1.193
669.20 1.19
669.30 1.188
669.40 1.186
669.50 1.184
669.60 1.182
669.70 1.179
669.80 1.177
669.90 1.175
670.00 1.173
670.10 1.171
670.20 1.169
670.30 1.166
670.40 1.164
670.50 1.162
670.60 1.16
670.70 1.158
670.80 1.156
670.90 1.153
671.00 1.151
671.10 1.149
671.20 1.147
671.30 1.145
671.40 1.143
671.50 1.14
671.60 1.138
671.70 1.136
671.80 1.134
671.90 1.132
672.00 1.129
672.10 1.127
672.20 1.125
672.30 1.123
672.40 1.121
672.50 1.119
672.60 1.116
672.70 1.114
672.80 1.112
672.90 1.11
673.00 1.108
673.10 1.106
673.20 1.103
673.30 1.101
673.40 1.099
673.50 1.097
673.60 1.095
673.70 1.093
673.80 1.09
673.90 1.088
674.00 1.086
674.10 1.084
674.20 1.082
674.30 1.08
674.40 1.078
674.50 1.075
674.60 1.073
674.70 1.071
674.80 1.069
674.90 1.067
675.00 1.065
675.10 1.062
675.20 1.06
675.30 1.058
675.40 1.056
675.50 1.054
675.60 1.052
675.70 1.05
675.80 1.047
675.90 1.045
676.00 1.043
676.10 1.041
676.20 1.039
676.30 1.037
676.40 1.035
676.50 1.032
676.60 1.03
676.70 1.028
676.80 1.026
676.90 1.024
677.00 1.022
677.10 1.02
677.20 1.017
677.30 1.015
677.40 1.013
677.50 1.011
677.60 1.009
677.70 1.007
677.80 1.005
677.90 1.003
678.00 1.001
678.10 0.9984
678.20 0.9963
678.30 0.9942
678.40 0.9921
678.50 0.9899
678.60 0.9878
678.70 0.9857
678.80 0.9836
678.90 0.9815
679.00 0.9794
679.10 0.9772
679.20 0.9751
679.30 0.973
679.40 0.9709
679.50 0.9688
679.60 0.9667
679.70 0.9646
679.80 0.9625
679.90 0.9604
680.00 0.9583
680.10 0.9562
680.20 0.9541
680.30 0.952
680.40 0.9499
680.50 0.9478
680.60 0.9457
680.70 0.9436
680.80 0.9415
680.90 0.9394
681.00 0.9373
681.10 0.9352
681.20 0.9331
681.30 0.931
681.40 0.9289
681.50 0.9268
681.60 0.9248
681.70 0.9227
681.80 0.9206
681.90 0.9185
682.00 0.9164
682.10 0.9143
682.20 0.9123
682.30 0.9102
682.40 0.9081
682.50 0.906
682.60 0.904
682.70 0.9019
682.80 0.8998
682.90 0.8977
683.00 0.8957
683.10 0.8936
683.20 0.8915
683.30 0.8895
683.40 0.8874
683.50 0.8853
683.60 0.8833
683.70 0.8812
683.80 0.8792
683.90 0.8771
684.00 0.8751
684.10 0.873
684.20 0.871
684.30 0.8689
684.40 0.8669
684.50 0.8648
684.60 0.8628
684.70 0.8608
684.80 0.8587
684.90 0.8567
685.00 0.8547
685.10 0.8526
685.20 0.8506
685.30 0.8486
685.40 0.8465
685.50 0.8445
685.60 0.8425
685.70 0.8405
685.80 0.8385
685.90 0.8364
686.00 0.8344
686.10 0.8324
686.20 0.8304
686.30 0.8284
686.40 0.8264
686.50 0.8244
686.60 0.8224
686.70 0.8204
686.80 0.8184
686.90 0.8164
687.00 0.8144
687.10 0.8124
687.20 0.8104
687.30 0.8084
687.40 0.8064
687.50 0.8044
687.60 0.8024
687.70 0.8004
687.80 0.7985
687.90 0.7965
688.00 0.7945
688.10 0.7925
688.20 0.7905
688.30 0.7886
688.40 0.7866
688.50 0.7846
688.60 0.7827
688.70 0.7807
688.80 0.7788
688.90 0.7768
689.00 0.7748
689.10 0.7729
689.20 0.7709
689.30 0.769
689.40 0.7671
689.50 0.7652
689.60 0.7633
689.70 0.7613
689.80 0.7594
689.90 0.7575
690.00 0.7556
690.10 0.7537
690.20 0.7518
690.30 0.7499
690.40 0.748
690.50 0.7461
690.60 0.7442
690.70 0.7423
690.80 0.7404
690.90 0.7385
691.00 0.7366
691.10 0.7348
691.20 0.7329
691.30 0.731
691.40 0.7291
691.50 0.7272
691.60 0.7253
691.70 0.7234
691.80 0.7215
691.90 0.7197
692.00 0.7178
692.10 0.7159
692.20 0.714
692.30 0.7121
692.40 0.7102
692.50 0.7084
692.60 0.7065
692.70 0.7046
692.80 0.7027
692.90 0.7009
693.00 0.699
693.10 0.6971
693.20 0.6953
693.30 0.6934
693.40 0.6915
693.50 0.6897
693.60 0.6878
693.70 0.6859
693.80 0.6841
693.90 0.6822
694.00 0.6803
694.10 0.6785
694.20 0.6766
694.30 0.6747
694.40 0.6729
694.50 0.671
694.60 0.6692
694.70 0.6673
694.80 0.6655
694.90 0.6636
695.00 0.6618
695.10 0.66
695.20 0.6583
695.30 0.6565
695.40 0.6548
695.50 0.653
695.60 0.6512
695.70 0.6495
695.80 0.6478
695.90 0.646
696.00 0.6443
696.10 0.6425
696.20 0.6408
696.30 0.639
696.40 0.6373
696.50 0.6355
696.60 0.6338
696.70 0.6321
696.80 0.6303
696.90 0.6286
697.00 0.6268
697.10 0.6251
697.20 0.6234
697.30 0.6216
697.40 0.6199
697.50 0.6182
697.60 0.6164
697.70 0.6147
697.80 0.613
697.90 0.6113
698.00 0.6095
698.10 0.6078
698.20 0.6061
698.30 0.6044
698.40 0.6026
698.50 0.6009
698.60 0.5992
698.70 0.5975
698.80 0.5957
698.90 0.594
699.00 0.5923
699.10 0.5906
699.20 0.5889
699.30 0.5872
699.40 0.5854
699.50 0.5837
699.60 0.582
699.70 0.5803
699.80 0.5786
699.90 0.5769
700.00 0.5752
700.10 0.5736
700.20 0.572
700.30 0.5704
700.40 0.5688
700.50 0.5672
700.60 0.5656
700.70 0.564
700.80 0.5624
700.90 0.5608
701.00 0.5593
701.10 0.5577
701.20 0.5561
701.30 0.5545
701.40 0.5529
701.50 0.5513
701.60 0.5497
701.70 0.5482
701.80 0.5466
701.90 0.545
702.00 0.5434
702.10 0.5418
702.20 0.5402
702.30 0.5387
702.40 0.5371
702.50 0.5355
702.60 0.5339
702.70 0.5324
702.80 0.5308
702.90 0.5292
703.00 0.5277
703.10 0.5261
703.20 0.5245
703.30 0.5229
703.40 0.5214
703.50 0.5198
703.60 0.5182
703.70 0.5167
703.80 0.5151
703.90 0.5135
704.00 0.512
704.10 0.5104
704.20 0.5089
704.30 0.5073
704.40 0.5057
704.50 0.5042
704.60 0.5026
704.70 0.5011
704.80 0.4995
704.90 0.498
705.00 0.4964
705.10 0.495
705.20 0.4936
705.30 0.4921
705.40 0.4907
705.50 0.4893
705.60 0.4879
705.70 0.4865
705.80 0.485
705.90 0.4836
706.00 0.4822
706.10 0.4808
706.20 0.4794
706.30 0.478
706.40 0.4766
706.50 0.4752
706.60 0.4737
706.70 0.4723
706.80 0.4709
706.90 0.4695
707.00 0.4681
707.10 0.4667
707.20 0.4653
707.30 0.4639
707.40 0.4625
707.50 0.4611
707.60 0.4597
707.70 0.4583
707.80 0.4569
707.90 0.4555
708.00 0.4541
708.10 0.4527
708.20 0.4513
708.30 0.4499
708.40 0.4485
708.50 0.4471
708.60 0.4457
708.70 0.4443
708.80 0.4429
708.90 0.4415
709.00 0.4401
709.10 0.4388
709.20 0.4374
709.30 0.436
709.40 0.4346
709.50 0.4332
709.60 0.4318
709.70 0.4304
709.80 0.429
709.90 0.4277
710.00 0.4263
710.10 0.425
710.20 0.4238
710.30 0.4225
710.40 0.4213
710.50 0.42
710.60 0.4188
710.70 0.4176
710.80 0.4163
710.90 0.4151
711.00 0.4138
711.10 0.4126
711.20 0.4113
711.30 0.4101
711.40 0.4089
711.50 0.4076
711.60 0.4064
711.70 0.4051
711.80 0.4039
711.90 0.4027
712.00 0.4014
712.10 0.4002
712.20 0.399
712.30 0.3977
712.40 0.3965
712.50 0.3953
712.60 0.394
712.70 0.3928
712.80 0.3916
712.90 0.3904
713.00 0.3891
713.10 0.3879
713.20 0.3867
713.30 0.3854
713.40 0.3842
713.50 0.383
713.60 0.3818
713.70 0.3805
713.80 0.3793
713.90 0.3781
714.00 0.3769
714.10 0.3757
714.20 0.3744
714.30 0.3732
714.40 0.372
714.50 0.3708
714.60 0.3696
714.70 0.3683
714.80 0.3671
714.90 0.3659
715.00 0.3647
715.10 0.3636
715.20 0.3625
715.30 0.3615
715.40 0.3604
715.50 0.3593
715.60 0.3583
715.70 0.3572
715.80 0.3561
715.90 0.355
716.00 0.354
716.10 0.3529
716.20 0.3518
716.30 0.3508
716.40 0.3497
716.50 0.3486
716.60 0.3476
716.70 0.3465
716.80 0.3454
716.90 0.3444
717.00 0.3433
717.10 0.3422
717.20 0.3412
717.30 0.3401
717.40 0.3391
717.50 0.338
717.60 0.3369
717.70 0.3359
717.80 0.3348
717.90 0.3338
718.00 0.3327
718.10 0.3316
718.20 0.3306
718.30 0.3295
718.40 0.3285
718.50 0.3274
718.60 0.3264
718.70 0.3253
718.80 0.3243
718.90 0.3232
719.00 0.3222
719.10 0.3211
719.20 0.3201
719.30 0.319
719.40 0.318
719.50 0.3169
719.60 0.3159
719.70 0.3148
719.80 0.3138
719.90 0.3127
720.00 0.3117
720.10 0.3108
720.20 0.3099
720.30 0.3089
720.40 0.308
720.50 0.3071
720.60 0.3062
720.70 0.3053
720.80 0.3044
720.90 0.3035
721.00 0.3026
721.10 0.3017
721.20 0.3008
721.30 0.2999
721.40 0.299
721.50 0.2981
721.60 0.2972
721.70 0.2963
721.80 0.2954
721.90 0.2945
722.00 0.2936
722.10 0.2927
722.20 0.2918
722.30 0.2909
722.40 0.29
722.50 0.2891
722.60 0.2882
722.70 0.2873
722.80 0.2864
722.90 0.2855
723.00 0.2846
723.10 0.2837
723.20 0.2828
723.30 0.2819
723.40 0.281
723.50 0.2801
723.60 0.2792
723.70 0.2784
723.80 0.2775
723.90 0.2766
724.00 0.2757
724.10 0.2748
724.20 0.2739
724.30 0.273
724.40 0.2721
724.50 0.2712
724.60 0.2704
724.70 0.2695
724.80 0.2686
724.90 0.2677
725.00 0.2668
725.10 0.2661
725.20 0.2653
725.30 0.2645
725.40 0.2638
725.50 0.263
725.60 0.2623
725.70 0.2615
725.80 0.2608
725.90 0.26
726.00 0.2593
726.10 0.2585
726.20 0.2578
726.30 0.257
726.40 0.2563
726.50 0.2555
726.60 0.2548
726.70 0.254
726.80 0.2533
726.90 0.2525
727.00 0.2518
727.10 0.251
727.20 0.2503
727.30 0.2495
727.40 0.2488
727.50 0.2481
727.60 0.2473
727.70 0.2466
727.80 0.2458
727.90 0.2451
728.00 0.2443
728.10 0.2436
728.20 0.2428
728.30 0.2421
728.40 0.2414
728.50 0.2406
728.60 0.2399
728.70 0.2391
728.80 0.2384
728.90 0.2377
729.00 0.2369
729.10 0.2362
729.20 0.2354
729.30 0.2347
729.40 0.234
729.50 0.2332
729.60 0.2325
729.70 0.2318
729.80 0.231
729.90 0.2303
730.00 0.2295
730.10 0.229
730.20 0.2285
730.30 0.2279
730.40 0.2274
730.50 0.2269
730.60 0.2263
730.70 0.2258
730.80 0.2253
730.90 0.2248
731.00 0.2242
731.10 0.2237
731.20 0.2232
731.30 0.2226
731.40 0.2221
731.50 0.2216
731.60 0.2211
731.70 0.2205
731.80 0.22
731.90 0.2195
732.00 0.2189
732.10 0.2184
732.20 0.2179
732.30 0.2174
732.40 0.2168
732.50 0.2163
732.60 0.2158
732.70 0.2153
732.80 0.2147
732.90 0.2142
733.00 0.2137
733.10 0.2132
733.20 0.2126
733.30 0.2121
733.40 0.2116
733.50 0.2111
733.60 0.2105
733.70 0.21
733.80 0.2095
733.90 0.209
734.00 0.2085
734.10 0.2079
734.20 0.2074
734.30 0.2069
734.40 0.2064
734.50 0.2059
734.60 0.2053
734.70 0.2048
734.80 0.2043
734.90 0.2038
735.00 0.2033
735.10 0.2027
735.20 0.2022
735.30 0.2017
735.40 0.2012
735.50 0.2007
735.60 0.2001
735.70 0.1996
735.80 0.1991
735.90 0.1986
736.00 0.1981
736.10 0.1976
736.20 0.1971
736.30 0.1965
736.40 0.196
736.50 0.1955
736.60 0.195
736.70 0.1945
736.80 0.194
736.90 0.1934
737.00 0.1929
737.10 0.1924
737.20 0.1919
737.30 0.1914
737.40 0.1909
737.50 0.1904
737.60 0.1899
737.70 0.1894
737.80 0.1888
737.90 0.1883
738.00 0.1878
738.10 0.1873
738.20 0.1868
738.30 0.1863
738.40 0.1858
738.50 0.1853
738.60 0.1848
738.70 0.1843
738.80 0.1837
738.90 0.1832
739.00 0.1827
739.10 0.1822
739.20 0.1817
739.30 0.1812
739.40 0.1807
739.50 0.1802
739.60 0.1797
739.70 0.1792
739.80 0.1787
739.90 0.1782
740.00 0.1777
740.10 0.1773
740.20 0.177
740.30 0.1767
740.40 0.1764
740.50 0.1761
740.60 0.1758
740.70 0.1755
740.80 0.1752
740.90 0.1748
741.00 0.1745
741.10 0.1742
741.20 0.1739
741.30 0.1736
741.40 0.1733
741.50 0.173
741.60 0.1727
741.70 0.1724
741.80 0.172
741.90 0.1717
742.00 0.1714
742.10 0.1711
742.20 0.1708
742.30 0.1705
742.40 0.1702
742.50 0.1699
742.60 0.1696
742.70 0.1693
742.80 0.169
742.90 0.1686
743.00 0.1683
743.10 0.168
743.20 0.1677
743.30 0.1674
743.40 0.1671
743.50 0.1668
743.60 0.1665
743.70 0.1662
743.80 0.1659
743.90 0.1656
744.00 0.1653
744.10 0.165
744.20 0.1646
744.30 0.1643
744.40 0.164
744.50 0.1637
744.60 0.1634
744.70 0.1631
744.80 0.1628
744.90 0.1625
745.00 0.1622
745.10 0.1619
745.20 0.1616
745.30 0.1613
745.40 0.161
745.50 0.1607
745.60 0.1604
745.70 0.1601
745.80 0.1598
745.90 0.1595
746.00 0.1592
746.10 0.1588
746.20 0.1585
746.30 0.1582
746.40 0.1579
746.50 0.1576
746.60 0.1573
746.70 0.157
746.80 0.1567
746.90 0.1564
747.00 0.1561
747.10 0.1558
747.20 0.1555
747.30 0.1552
747.40 0.1549
747.50 0.1546
747.60 0.1543
747.70 0.154
747.80 0.1537
747.90 0.1534
748.00 0.1531
748.10 0.1528
748.20 0.1525
748.30 0.1522
748.40 0.1519
748.50 0.1516
748.60 0.1513
748.70 0.151
748.80 0.1507
748.90 0.1504
749.00 0.1501
749.10 0.1498
749.20 0.1495
749.30 0.1492
749.40 0.1489
749.50 0.1486
749.60 0.1483
749.70 0.148
749.80 0.1477
749.90 0.1474
750.00 0.1471
750.10 0.1469
750.20 0.1468
750.30 0.1466
750.40 0.1464
750.50 0.1462
750.60 0.146
750.70 0.1459
750.80 0.1457
750.90 0.1455
751.00 0.1453
751.10 0.1451
751.20 0.145
751.30 0.1448
751.40 0.1446
751.50 0.1444
751.60 0.1442
751.70 0.1441
751.80 0.1439
751.90 0.1437
752.00 0.1435
752.10 0.1433
752.20 0.1432
752.30 0.143
752.40 0.1428
752.50 0.1426
752.60 0.1424
752.70 0.1423
752.80 0.1421
752.90 0.1419
753.00 0.1417
753.10 0.1415
753.20 0.1414
753.30 0.1412
753.40 0.141
753.50 0.1408
753.60 0.1407
753.70 0.1405
753.80 0.1403
753.90 0.1401
754.00 0.1399
754.10 0.1398
754.20 0.1396
754.30 0.1394
754.40 0.1392
754.50 0.1391
754.60 0.1389
754.70 0.1387
754.80 0.1385
754.90 0.1383
755.00 0.1382
755.10 0.138
755.20 0.1378
755.30 0.1376
755.40 0.1375
755.50 0.1373
755.60 0.1371
755.70 0.1369
755.80 0.1368
755.90 0.1366
756.00 0.1364
756.10 0.1362
756.20 0.1361
756.30 0.1359
756.40 0.1357
756.50 0.1355
756.60 0.1353
756.70 0.1352
756.80 0.135
756.90 0.1348
757.00 0.1346
757.10 0.1345
757.20 0.1343
757.30 0.1341
757.40 0.1339
757.50 0.1338
757.60 0.1336
757.70 0.1334
757.80 0.1332
757.90 0.1331
758.00 0.1329
758.10 0.1327
758.20 0.1326
758.30 0.1324
758.40 0.1322
758.50 0.132
758.60 0.1319
758.70 0.1317
758.80 0.1315
758.90 0.1313
759.00 0.1312
759.10 0.131
759.20 0.1308
759.30 0.1306
759.40 0.1305
759.50 0.1303
759.60 0.1301
759.70 0.1299
759.80 0.1298
759.90 0.1296
760.00 0.1294
760.10 0.1293
760.20 0.1292
760.30 0.1291
760.40 0.129
760.50 0.1289
760.60 0.1288
760.70 0.1287
760.80 0.1286
760.90 0.1285
761.00 0.1284
761.10 0.1283
761.20 0.1282
761.30 0.1281
761.40 0.128
761.50 0.1279
761.60 0.1278
761.70 0.1277
761.80 0.1276
761.90 0.1274
762.00 0.1273
762.10 0.1272
762.20 0.1271
762.30 0.127
762.40 0.1269
762.50 0.1268
762.60 0.1267
762.70 0.1266
762.80 0.1265
762.90 0.1264
763.00 0.1263
763.10 0.1262
763.20 0.1261
763.30 0.126
763.40 0.1259
763.50 0.1258
763.60 0.1257
763.70 0.1256
763.80 0.1255
763.90 0.1254
764.00 0.1253
764.10 0.1252
764.20 0.1251
764.30 0.125
764.40 0.1249
764.50 0.1248
764.60 0.1247
764.70 0.1246
764.80 0.1245
764.90 0.1244
765.00 0.1242
765.10 0.1241
765.20 0.124
765.30 0.1239
765.40 0.1238
765.50 0.1237
765.60 0.1236
765.70 0.1235
765.80 0.1234
765.90 0.1233
766.00 0.1232
766.10 0.1231
766.20 0.123
766.30 0.1229
766.40 0.1228
766.50 0.1227
766.60 0.1226
766.70 0.1225
766.80 0.1224
766.90 0.1223
767.00 0.1222
767.10 0.1221
767.20 0.122
767.30 0.1219
767.40 0.1218
767.50 0.1217
767.60 0.1216
767.70 0.1215
767.80 0.1214
767.90 0.1213
768.00 0.1212
768.10 0.1211
768.20 0.121
768.30 0.1209
768.40 0.1208
768.50 0.1207
768.60 0.1206
768.70 0.1205
768.80 0.1204
768.90 0.1203
769.00 0.1202
769.10 0.1201
769.20 0.12
769.30 0.1199
769.40 0.1198
769.50 0.1197
769.60 0.1196
769.70 0.1195
769.80 0.1194
769.90 0.1193
770.00 0.1192
770.10 0.1191
770.20 0.1191
770.30 0.119
770.40 0.119
770.50 0.1189
770.60 0.1189
770.70 0.1188
770.80 0.1188
770.90 0.1187
771.00 0.1186
771.10 0.1186
771.20 0.1185
771.30 0.1185
771.40 0.1184
771.50 0.1184
771.60 0.1183
771.70 0.1183
771.80 0.1182
771.90 0.1182
772.00 0.1181
772.10 0.118
772.20 0.118
772.30 0.1179
772.40 0.1179
772.50 0.1178
772.60 0.1178
772.70 0.1177
772.80 0.1177
772.90 0.1176
773.00 0.1176
773.10 0.1175
773.20 0.1175
773.30 0.1174
773.40 0.1173
773.50 0.1173
773.60 0.1172
773.70 0.1172
773.80 0.1171
773.90 0.1171
774.00 0.117
774.10 0.117
774.20 0.1169
774.30 0.1169
774.40 0.1168
774.50 0.1167
774.60 0.1167
774.70 0.1166
774.80 0.1166
774.90 0.1165
775.00 0.1165
775.10 0.1164
775.20 0.1164
775.30 0.1163
775.40 0.1163
775.50 0.1162
775.60 0.1162
775.70 0.1161
775.80 0.1161
775.90 0.116
776.00 0.1159
776.10 0.1159
776.20 0.1158
776.30 0.1158
776.40 0.1157
776.50 0.1157
776.60 0.1156
776.70 0.1156
776.80 0.1155
776.90 0.1155
777.00 0.1154
777.10 0.1154
777.20 0.1153
777.30 0.1153
777.40 0.1152
777.50 0.1151
777.60 0.1151
777.70 0.115
777.80 0.115
777.90 0.1149
778.00 0.1149
778.10 0.1148
778.20 0.1148
778.30 0.1147
778.40 0.1147
778.50 0.1146
778.60 0.1146
778.70 0.1145
778.80 0.1145
778.90 0.1144
779.00 0.1144
779.10 0.1143
779.20 0.1143
779.30 0.1142
779.40 0.1141
779.50 0.1141
779.60 0.114
779.70 0.114
779.80 0.1139
779.90 0.1139
780.00 0.1138
780.10 0.1139
780.20 0.1139
780.30 0.1139
780.40 0.114
780.50 0.114
780.60 0.114
780.70 0.1141
780.80 0.1141
780.90 0.1141
781.00 0.1142
781.10 0.1142
781.20 0.1143
781.30 0.1143
781.40 0.1143
781.50 0.1144
781.60 0.1144
781.70 0.1144
781.80 0.1145
781.90 0.1145
782.00 0.1145
782.10 0.1146
782.20 0.1146
782.30 0.1146
782.40 0.1147
782.50 0.1147
782.60 0.1147
782.70 0.1148
782.80 0.1148
782.90 0.1148
783.00 0.1149
783.10 0.1149
783.20 0.1149
783.30 0.115
783.40 0.115
783.50 0.1151
783.60 0.1151
783.70 0.1151
783.80 0.1152
783.90 0.1152
784.00 0.1152
784.10 0.1153
784.20 0.1153
784.30 0.1153
784.40 0.1154
784.50 0.1154
784.60 0.1154
784.70 0.1155
784.80 0.1155
784.90 0.1155
785.00 0.1156
785.10 0.1156
785.20 0.1156
785.30 0.1157
785.40 0.1157
785.50 0.1157
785.60 0.1158
785.70 0.1158
785.80 0.1158
785.90 0.1159
786.00 0.1159
786.10 0.1159
786.20 0.116
786.30 0.116
786.40 0.116
786.50 0.1161
786.60 0.1161
786.70 0.1161
786.80 0.1162
786.90 0.1162
787.00 0.1162
787.10 0.1163
787.20 0.1163
787.30 0.1163
787.40 0.1164
787.50 0.1164
787.60 0.1165
787.70 0.1165
787.80 0.1165
787.90 0.1166
788.00 0.1166
788.10 0.1166
788.20 0.1167
788.30 0.1167
788.40 0.1167
788.50 0.1168
788.60 0.1168
788.70 0.1168
788.80 0.1169
788.90 0.1169
789.00 0.1169
789.10 0.117
789.20 0.117
789.30 0.117
789.40 0.1171
789.50 0.1171
789.60 0.1171
789.70 0.1172
789.80 0.1172
789.90 0.1172
790.00 0.1173
790.10 0.1173
790.20 0.1174
790.30 0.1175
790.40 0.1176
790.50 0.1177
790.60 0.1178
790.70 0.1178
790.80 0.1179
790.90 0.118
791.00 0.1181
791.10 0.1182
791.20 0.1183
791.30 0.1183
791.40 0.1184
791.50 0.1185
791.60 0.1186
791.70 0.1187
791.80 0.1188
791.90 0.1188
792.00 0.1189
792.10 0.119
792.20 0.1191
792.30 0.1192
792.40 0.1193
792.50 0.1194
792.60 0.1194
792.70 0.1195
792.80 0.1196
792.90 0.1197
793.00 0.1198
793.10 0.1199
793.20 0.1199
793.30 0.12
793.40 0.1201
793.50 0.1202
793.60 0.1203
793.70 0.1203
793.80 0.1204
793.90 0.1205
794.00 0.1206
794.10 0.1207
794.20 0.1208
794.30 0.1208
794.40 0.1209
794.50 0.121
794.60 0.1211
794.70 0.1212
794.80 0.1213
794.90 0.1213
795.00 0.1214
795.10 0.1215
795.20 0.1216
795.30 0.1217
795.40 0.1218
795.50 0.1218
795.60 0.1219
795.70 0.122
795.80 0.1221
795.90 0.1222
796.00 0.1222
796.10 0.1223
796.20 0.1224
796.30 0.1225
796.40 0.1226
796.50 0.1227
796.60 0.1227
796.70 0.1228
796.80 0.1229
796.90 0.123
797.00 0.1231
797.10 0.1231
797.20 0.1232
797.30 0.1233
797.40 0.1234
797.50 0.1235
797.60 0.1235
797.70 0.1236
797.80 0.1237
797.90 0.1238
798.00 0.1239
798.10 0.124
798.20 0.124
798.30 0.1241
798.40 0.1242
798.50 0.1243
798.60 0.1244
798.70 0.1244
798.80 0.1245
798.90 0.1246
799.00 0.1247
799.10 0.1248
799.20 0.1248
799.30 0.1249
799.40 0.125
799.50 0.1251
799.60 0.1252
799.70 0.1252
799.80 0.1253
799.90 0.1254
800.00 0.1255
800.10 0.1255
800.20 0.1256
800.30 0.1256
800.40 0.1257
800.50 0.1257
800.60 0.1257
800.70 0.1258
800.80 0.1258
800.90 0.1259
801.00 0.1259
801.10 0.126
801.20 0.126
801.30 0.126
801.40 0.1261
801.50 0.1261
801.60 0.1262
801.70 0.1262
801.80 0.1263
801.90 0.1263
802.00 0.1263
802.10 0.1264
802.20 0.1264
802.30 0.1265
802.40 0.1265
802.50 0.1266
802.60 0.1266
802.70 0.1267
802.80 0.1267
802.90 0.1267
803.00 0.1268
803.10 0.1268
803.20 0.1269
803.30 0.1269
803.40 0.127
803.50 0.127
803.60 0.127
803.70 0.1271
803.80 0.1271
803.90 0.1272
804.00 0.1272
804.10 0.1273
804.20 0.1273
804.30 0.1273
804.40 0.1274
804.50 0.1274
804.60 0.1275
804.70 0.1275
804.80 0.1276
804.90 0.1276
805.00 0.1276
805.10 0.1277
805.20 0.1277
805.30 0.1278
805.40 0.1278
805.50 0.1278
805.60 0.1279
805.70 0.1279
805.80 0.128
805.90 0.128
806.00 0.1281
806.10 0.1281
806.20 0.1281
806.30 0.1282
806.40 0.1282
806.50 0.1283
806.60 0.1283
806.70 0.1284
806.80 0.1284
806.90 0.1284
807.00 0.1285
807.10 0.1285
807.20 0.1286
807.30 0.1286
807.40 0.1286
807.50 0.1287
807.60 0.1287
807.70 0.1288
807.80 0.1288
807.90 0.1289
808.00 0.1289
808.10 0.1289
808.20 0.129
808.30 0.129
808.40 0.1291
808.50 0.1291
808.60 0.1292
808.70 0.1292
808.80 0.1292
808.90 0.1293
809.00 0.1293
809.10 0.1294
809.20 0.1294
809.30 0.1294
809.40 0.1295
809.50 0.1295
809.60 0.1296
809.70 0.1296
809.80 0.1296
809.90 0.1297
810.00 0.1297
810.10 0.1298
810.20 0.1298
810.30 0.1298
810.40 0.1298
810.50 0.1298
810.60 0.1299
810.70 0.1299
810.80 0.1299
810.90 0.1299
811.00 0.13
811.10 0.13
811.20 0.13
811.30 0.13
811.40 0.1301
811.50 0.1301
811.60 0.1301
811.70 0.1301
811.80 0.1302
811.90 0.1302
812.00 0.1302
812.10 0.1302
812.20 0.1303
812.30 0.1303
812.40 0.1303
812.50 0.1303
812.60 0.1303
812.70 0.1304
812.80 0.1304
812.90 0.1304
813.00 0.1304
813.10 0.1305
813.20 0.1305
813.30 0.1305
813.40 0.1305
813.50 0.1306
813.60 0.1306
813.70 0.1306
813.80 0.1306
813.90 0.1306
814.00 0.1307
814.10 0.1307
814.20 0.1307
814.30 0.1307
814.40 0.1308
814.50 0.1308
814.60 0.1308
814.70 0.1308
814.80 0.1309
814.90 0.1309
815.00 0.1309
815.10 0.1309
815.20 0.131
815.30 0.131
815.40 0.131
815.50 0.131
815.60 0.131
815.70 0.1311
815.80 0.1311
815.90 0.1311
816.00 0.1311
816.10 0.1312
816.20 0.1312
816.30 0.1312
816.40 0.1312
816.50 0.1312
816.60 0.1313
816.70 0.1313
816.80 0.1313
816.90 0.1313
817.00 0.1314
817.10 0.1314
817.20 0.1314
817.30 0.1314
817.40 0.1315
817.50 0.1315
817.60 0.1315
817.70 0.1315
817.80 0.1315
817.90 0.1316
818.00 0.1316
818.10 0.1316
818.20 0.1316
818.30 0.1317
818.40 0.1317
818.50 0.1317
818.60 0.1317
818.70 0.1317
818.80 0.1318
818.90 0.1318
819.00 0.1318
819.10 0.1318
819.20 0.1319
819.30 0.1319
819.40 0.1319
819.50 0.1319
819.60 0.132
819.70 0.132
819.80 0.132
819.90 0.132
820.00 0.132
820.10 0.1321
820.20 0.1321
820.30 0.1322
820.40 0.1322
820.50 0.1323
820.60 0.1324
820.70 0.1324
820.80 0.1325
820.90 0.1326
821.00 0.1326
821.10 0.1327
821.20 0.1328
821.30 0.1328
821.40 0.1329
821.50 0.133
821.60 0.133
821.70 0.1331
821.80 0.1331
821.90 0.1332
822.00 0.1333
822.10 0.1334
822.20 0.1335
822.30 0.1335
822.40 0.1336
822.50 0.1337
822.60 0.1338
822.70 0.1339
822.80 0.134
822.90 0.1341
823.00 0.1342
823.10 0.1343
823.20 0.1344
823.30 0.1345
823.40 0.1345
823.50 0.1346
823.60 0.1347
823.70 0.1348
823.80 0.1349
823.90 0.135
824.00 0.1351
824.10 0.1352
824.20 0.1353
824.30 0.1354
824.40 0.1354
824.50 0.1355
824.60 0.1356
824.70 0.1357
824.80 0.1358
824.90 0.1359
825.00 0.136
825.10 0.1361
825.20 0.1362
825.30 0.1363
825.40 0.1363
825.50 0.1364
825.60 0.1365
825.70 0.1366
825.80 0.1367
825.90 0.1368
826.00 0.1369
826.10 0.137
826.20 0.1371
826.30 0.1372
826.40 0.1372
826.50 0.1373
826.60 0.1374
826.70 0.1375
826.80 0.1376
826.90 0.1377
827.00 0.1378
827.10 0.1379
827.20 0.138
827.30 0.1381
827.40 0.1382
827.50 0.1383
827.60 0.1384
827.70 0.1385
827.80 0.1386
827.90 0.1387
828.00 0.1388
828.10 0.1389
828.20 0.1391
828.30 0.1392
828.40 0.1393
828.50 0.1394
828.60 0.1395
828.70 0.1396
828.80 0.1397
828.90 0.1398
829.00 0.1399
829.10 0.14
829.20 0.1401
829.30 0.1402
829.40 0.1403
829.50 0.1404
829.60 0.1405
829.70 0.1406
829.80 0.1407
829.90 0.1409
830.00 0.141
830.10 0.1411
830.20 0.1412
830.30 0.1413
830.40 0.1414
830.50 0.1415
830.60 0.1416
830.70 0.1417
830.80 0.1418
830.90 0.1419
831.00 0.142
831.10 0.1421
831.20 0.1422
831.30 0.1423
831.40 0.1424
831.50 0.1425
831.60 0.1426
831.70 0.1427
831.80 0.1428
831.90 0.1429
832.00 0.143
832.10 0.1431
832.20 0.1432
832.30 0.1433
832.40 0.1434
832.50 0.1434
832.60 0.1435
832.70 0.1436
832.80 0.1437
832.90 0.1438
833.00 0.1438
833.10 0.1439
833.20 0.144
833.30 0.1441
833.40 0.1441
833.50 0.1442
833.60 0.1443
833.70 0.1444
833.80 0.1445
833.90 0.1445
834.00 0.1446
834.10 0.1447
834.20 0.1448
834.30 0.1448
834.40 0.1449
834.50 0.145
834.60 0.1451
834.70 0.1452
834.80 0.1452
834.90 0.1453
835.00 0.1454
835.10 0.1455
835.20 0.1455
835.30 0.1456
835.40 0.1457
835.50 0.1458
835.60 0.1459
835.70 0.1459
835.80 0.146
835.90 0.1461
836.00 0.1462
836.10 0.1462
836.20 0.1463
836.30 0.1464
836.40 0.1465
836.50 0.1465
836.60 0.1466
836.70 0.1467
836.80 0.1468
836.90 0.1469
837.00 0.1469
837.10 0.147
837.20 0.1471
837.30 0.1471
837.40 0.1472
837.50 0.1472
837.60 0.1473
837.70 0.1474
837.80 0.1474
837.90 0.1475
838.00 0.1475
838.10 0.1476
838.20 0.1477
838.30 0.1477
838.40 0.1478
838.50 0.1478
838.60 0.1479
838.70 0.1479
838.80 0.148
838.90 0.1481
839.00 0.1481
839.10 0.1482
839.20 0.1482
839.30 0.1483
839.40 0.1484
839.50 0.1484
839.60 0.1485
839.70 0.1485
839.80 0.1486
839.90 0.1487
840.00 0.1487
840.10 0.1488
840.20 0.1488
840.30 0.1489
840.40 0.149
840.50 0.149
840.60 0.1491
840.70 0.1491
840.80 0.1492
840.90 0.1492
841.00 0.1493
841.10 0.1494
841.20 0.1494
841.30 0.1495
841.40 0.1495
841.50 0.1496
841.60 0.1497
841.70 0.1497
841.80 0.1498
841.90 0.1498
842.00 0.1499
842.10 0.1499
842.20 0.15
842.30 0.15
842.40 0.1501
842.50 0.1501
842.60 0.1501
842.70 0.1502
842.80 0.1502
842.90 0.1503
843.00 0.1503
843.10 0.1503
843.20 0.1504
843.30 0.1504
843.40 0.1505
843.50 0.1505
843.60 0.1505
843.70 0.1506
843.80 0.1506
843.90 0.1507
844.00 0.1507
844.10 0.1507
844.20 0.1508
844.30 0.1508
844.40 0.1509
844.50 0.1509
844.60 0.1509
844.70 0.151
844.80 0.151
844.90 0.1511
845.00 0.1511
845.10 0.1512
845.20 0.1512
845.30 0.1512
845.40 0.1513
845.50 0.1513
845.60 0.1514
845.70 0.1514
845.80 0.1514
845.90 0.1515
846.00 0.1515
846.10 0.1516
846.20 0.1516
846.30 0.1516
846.40 0.1517
846.50 0.1517
846.60 0.1518
846.70 0.1518
846.80 0.1518
846.90 0.1519
847.00 0.1519
847.10 0.152
847.20 0.152
847.30 0.1521
847.40 0.1521
847.50 0.1521
847.60 0.1522
847.70 0.1522
847.80 0.1523
847.90 0.1523
848.00 0.1524
848.10 0.1524
848.20 0.1525
848.30 0.1525
848.40 0.1526
848.50 0.1526
848.60 0.1527
848.70 0.1527
848.80 0.1528
848.90 0.1528
849.00 0.1528
849.10 0.1529
849.20 0.1529
849.30 0.153
849.40 0.153
849.50 0.1531
849.60 0.1531
849.70 0.1532
849.80 0.1532
849.90 0.1533
850.00 0.1533
850.10 0.1534
850.20 0.1534
850.30 0.1535
850.40 0.1535
850.50 0.1535
850.60 0.1536
850.70 0.1536
850.80 0.1537
850.90 0.1537
851.00 0.1538
851.10 0.1538
851.20 0.1539
851.30 0.1539
851.40 0.154
851.50 0.154
851.60 0.1541
851.70 0.1541
851.80 0.1541
851.90 0.1542
852.00 0.1542
852.10 0.1543
852.20 0.1544
852.30 0.1544
852.40 0.1545
852.50 0.1545
852.60 0.1546
852.70 0.1546
852.80 0.1547
852.90 0.1548
853.00 0.1548
853.10 0.1549
853.20 0.1549
853.30 0.155
853.40 0.155
853.50 0.1551
853.60 0.1552
853.70 0.1552
853.80 0.1553
853.90 0.1553
854.00 0.1554
854.10 0.1554
854.20 0.1555
854.30 0.1556
854.40 0.1556
854.50 0.1557
854.60 0.1557
854.70 0.1558
854.80 0.1558
854.90 0.1559
855.00 0.156
855.10 0.156
855.20 0.1561
855.30 0.1561
855.40 0.1562
855.50 0.1562
855.60 0.1563
855.70 0.1564
855.80 0.1564
855.90 0.1565
856.00 0.1565
856.10 0.1566
856.20 0.1566
856.30 0.1567
856.40 0.1568
856.50 0.1568
856.60 0.1569
856.70 0.1569
856.80 0.157
856.90 0.157
857.00 0.1571
857.10 0.1572
857.20 0.1572
857.30 0.1573
857.40 0.1574
857.50 0.1574
857.60 0.1575
857.70 0.1576
857.80 0.1576
857.90 0.1577
858.00 0.1578
858.10 0.1578
858.20 0.1579
858.30 0.158
858.40 0.1581
858.50 0.1581
858.60 0.1582
858.70 0.1583
858.80 0.1583
858.90 0.1584
859.00 0.1585
859.10 0.1585
859.20 0.1586
859.30 0.1587
859.40 0.1587
859.50 0.1588
859.60 0.1589
859.70 0.1589
859.80 0.159
859.90 0.1591
860.00 0.1591
860.10 0.1592
860.20 0.1593
860.30 0.1593
860.40 0.1594
860.50 0.1595
860.60 0.1596
860.70 0.1596
860.80 0.1597
860.90 0.1598
861.00 0.1598
861.10 0.1599
861.20 0.16
861.30 0.16
861.40 0.1601
861.50 0.1602
861.60 0.1602
861.70 0.1603
861.80 0.1604
861.90 0.1604
862.00 0.1605
862.10 0.1606
862.20 0.1607
862.30 0.1608
862.40 0.1608
862.50 0.1609
862.60 0.161
862.70 0.1611
862.80 0.1612
862.90 0.1613
863.00 0.1614
863.10 0.1615
863.20 0.1615
863.30 0.1616
863.40 0.1617
863.50 0.1618
863.60 0.1619
863.70 0.162
863.80 0.1621
863.90 0.1622
864.00 0.1622
864.10 0.1623
864.20 0.1624
864.30 0.1625
864.40 0.1626
864.50 0.1627
864.60 0.1628
864.70 0.1629
864.80 0.1629
864.90 0.163
865.00 0.1631
865.10 0.1632
865.20 0.1633
865.30 0.1634
865.40 0.1635
865.50 0.1636
865.60 0.1636
865.70 0.1637
865.80 0.1638
865.90 0.1639
866.00 0.164
866.10 0.1641
866.20 0.1642
866.30 0.1642
866.40 0.1643
866.50 0.1644
866.60 0.1645
866.70 0.1646
866.80 0.1647
866.90 0.1648
867.00 0.1648
867.10 0.1649
867.20 0.165
867.30 0.1651
867.40 0.1651
867.50 0.1652
867.60 0.1653
867.70 0.1654
867.80 0.1654
867.90 0.1655
868.00 0.1656
868.10 0.1657
868.20 0.1657
868.30 0.1658
868.40 0.1659
868.50 0.166
868.60 0.166
868.70 0.1661
868.80 0.1662
868.90 0.1663
869.00 0.1663
869.10 0.1664
869.20 0.1665
869.30 0.1666
869.40 0.1666
869.50 0.1667
869.60 0.1668
869.70 0.1669
869.80 0.1669
869.90 0.167
870.00 0.1671
870.10 0.1672
870.20 0.1672
870.30 0.1673
870.40 0.1674
870.50 0.1674
870.60 0.1675
870.70 0.1676
870.80 0.1677
870.90 0.1677
871.00 0.1678
871.10 0.1679
871.20 0.168
871.30 0.168
871.40 0.1681
871.50 0.1682
871.60 0.1683
871.70 0.1683
871.80 0.1684
871.90 0.1685
872.00 0.1685
872.10 0.1686
872.20 0.1687
872.30 0.1687
872.40 0.1688
872.50 0.1689
872.60 0.1689
872.70 0.169
872.80 0.1691
872.90 0.1691
873.00 0.1692
873.10 0.1692
873.20 0.1693
873.30 0.1694
873.40 0.1694
873.50 0.1695
873.60 0.1696
873.70 0.1696
873.80 0.1697
873.90 0.1697
874.00 0.1698
874.10 0.1699
874.20 0.1699
874.30 0.17
874.40 0.1701
874.50 0.1701
874.60 0.1702
874.70 0.1702
874.80 0.1703
874.90 0.1704
875.00 0.1704
875.10 0.1705
875.20 0.1705
875.30 0.1706
875.40 0.1707
875.50 0.1707
875.60 0.1708
875.70 0.1709
875.80 0.1709
875.90 0.171
876.00 0.171
876.10 0.1711
876.20 0.1712
876.30 0.1712
876.40 0.1713
876.50 0.1714
876.60 0.1714
876.70 0.1715
876.80 0.1715
876.90 0.1716
877.00 0.1717
877.10 0.1717
877.20 0.1717
877.30 0.1717
877.40 0.1717
877.50 0.1717
877.60 0.1718
877.70 0.1718
877.80 0.1718
877.90 0.1718
878.00 0.1718
878.10 0.1718
878.20 0.1718
878.30 0.1719
878.40 0.1719
878.50 0.1719
878.60 0.1719
878.70 0.1719
878.80 0.1719
878.90 0.1719
879.00 0.172
879.10 0.172
879.20 0.172
879.30 0.172
879.40 0.172
879.50 0.172
879.60 0.1721
879.70 0.1721
879.80 0.1721
879.90 0.1721
880.00 0.1721
880.10 0.1721
880.20 0.1721
880.30 0.1722
880.40 0.1722
880.50 0.1722
880.60 0.1722
880.70 0.1722
880.80 0.1722
880.90 0.1722
881.00 0.1723
881.10 0.1723
881.20 0.1723
881.30 0.1723
881.40 0.1723
881.50 0.1723
881.60 0.1724
881.70 0.1724
881.80 0.1724
881.90 0.1724
882.00 0.1724
882.10 0.1724
882.20 0.1724
882.30 0.1724
882.40 0.1724
882.50 0.1723
882.60 0.1723
882.70 0.1723
882.80 0.1723
882.90 0.1723
883.00 0.1723
883.10 0.1723
883.20 0.1722
883.30 0.1722
883.40 0.1722
883.50 0.1722
883.60 0.1722
883.70 0.1722
883.80 0.1721
883.90 0.1721
884.00 0.1721
884.10 0.1721
884.20 0.1721
884.30 0.1721
884.40 0.1721
884.50 0.172
884.60 0.172
884.70 0.172
884.80 0.172
884.90 0.172
885.00 0.172
885.10 0.172
885.20 0.1719
885.30 0.1719
885.40 0.1719
885.50 0.1719
885.60 0.1719
885.70 0.1719
885.80 0.1719
885.90 0.1718
886.00 0.1718
886.10 0.1718
886.20 0.1718
886.30 0.1718
886.40 0.1718
886.50 0.1718
886.60 0.1717
886.70 0.1717
886.80 0.1717
886.90 0.1717
887.00 0.1717
887.10 0.1716
887.20 0.1716
887.30 0.1716
887.40 0.1715
887.50 0.1715
887.60 0.1714
887.70 0.1714
887.80 0.1713
887.90 0.1713
888.00 0.1712
888.10 0.1712
888.20 0.1712
888.30 0.1711
888.40 0.1711
888.50 0.171
888.60 0.171
888.70 0.1709
888.80 0.1709
888.90 0.1709
889.00 0.1708
889.10 0.1708
889.20 0.1707
889.30 0.1707
889.40 0.1706
889.50 0.1706
889.60 0.1705
889.70 0.1705
889.80 0.1705
889.90 0.1704
890.00 0.1704
890.10 0.1703
890.20 0.1703
890.30 0.1702
890.40 0.1702
890.50 0.1702
890.60 0.1701
890.70 0.1701
890.80 0.17
890.90 0.17
891.00 0.1699
891.10 0.1699
891.20 0.1699
891.30 0.1698
891.40 0.1698
891.50 0.1697
891.60 0.1697
891.70 0.1696
891.80 0.1696
891.90 0.1696
892.00 0.1695
892.10 0.1695
892.20 0.1694
892.30 0.1694
892.40 0.1693
892.50 0.1693
892.60 0.1692
892.70 0.1692
892.80 0.1691
892.90 0.1691
893.00 0.169
893.10 0.1689
893.20 0.1689
893.30 0.1688
893.40 0.1688
893.50 0.1687
893.60 0.1687
893.70 0.1686
893.80 0.1686
893.90 0.1685
894.00 0.1685
894.10 0.1684
894.20 0.1684
894.30 0.1683
894.40 0.1683
894.50 0.1682
894.60 0.1682
894.70 0.1681
894.80 0.1681
894.90 0.168
895.00 0.168
895.10 0.1679
895.20 0.1679
895.30 0.1678
895.40 0.1678
895.50 0.1677
895.60 0.1677
895.70 0.1676
895.80 0.1676
895.90 0.1675
896.00 0.1675
896.10 0.1674
896.20 0.1674
896.30 0.1673
896.40 0.1673
896.50 0.1672
896.60 0.1672
896.70 0.1671
896.80 0.1671
896.90 0.167
897.00 0.167
897.10 0.1669
897.20 0.1669
897.30 0.1668
897.40 0.1667
897.50 0.1666
897.60 0.1666
897.70 0.1665
897.80 0.1664
897.90 0.1664
898.00 0.1663
898.10 0.1662
898.20 0.1662
898.30 0.1661
898.40 0.166
898.50 0.166
898.60 0.1659
898.70 0.1658
898.80 0.1658
898.90 0.1657
899.00 0.1656
899.10 0.1656
899.20 0.1655
899.30 0.1654
899.40 0.1653
899.50 0.1653
899.60 0.1652
899.70 0.1651
899.80 0.1651
899.90 0.165
900.00 0.1649
900.10 0.1649
900.20 0.1648
900.30 0.1647
900.40 0.1647
900.50 0.1646
900.60 0.1645
900.70 0.1645
900.80 0.1644
900.90 0.1643
901.00 0.1643
901.10 0.1642
901.20 0.1641
901.30 0.1641
901.40 0.164
901.50 0.1639
901.60 0.1639
901.70 0.1638
901.80 0.1637
901.90 0.1637
902.00 0.1636
902.10 0.1635
902.20 0.1634
902.30 0.1633
902.40 0.1632
902.50 0.1632
902.60 0.1631
902.70 0.163
902.80 0.1629
902.90 0.1628
903.00 0.1627
903.10 0.1627
903.20 0.1626
903.30 0.1625
903.40 0.1624
903.50 0.1623
903.60 0.1622
903.70 0.1622
903.80 0.1621
903.90 0.162
904.00 0.1619
904.10 0.1618
904.20 0.1617
904.30 0.1617
904.40 0.1616
904.50 0.1615
904.60 0.1614
904.70 0.1613
904.80 0.1612
904.90 0.1611
905.00 0.1611
905.10 0.161
905.20 0.1609
905.30 0.1608
905.40 0.1607
905.50 0.1606
905.60 0.1606
905.70 0.1605
905.80 0.1604
905.90 0.1603
906.00 0.1602
906.10 0.1602
906.20 0.1601
906.30 0.16
906.40 0.1599
906.50 0.1598
906.60 0.1597
906.70 0.1597
906.80 0.1596
906.90 0.1595
907.00 0.1594
907.10 0.1593
907.20 0.1592
907.30 0.1591
907.40 0.159
907.50 0.1589
907.60 0.1588
907.70 0.1587
907.80 0.1586
907.90 0.1585
908.00 0.1584
908.10 0.1583
908.20 0.1582
908.30 0.1581
908.40 0.1579
908.50 0.1578
908.60 0.1577
908.70 0.1576
908.80 0.1575
908.90 0.1574
909.00 0.1573
909.10 0.1572
909.20 0.1571
909.30 0.157
909.40 0.1569
909.50 0.1568
909.60 0.1567
909.70 0.1566
909.80 0.1565
909.90 0.1564
910.00 0.1563
910.10 0.1562
910.20 0.1561
910.30 0.156
910.40 0.1559
910.50 0.1558
910.60 0.1557
910.70 0.1556
910.80 0.1555
910.90 0.1554
911.00 0.1553
911.10 0.1552
911.20 0.1551
911.30 0.155
911.40 0.1549
911.50 0.1548
911.60 0.1547
911.70 0.1545
911.80 0.1544
911.90 0.1543
912.00 0.1542
912.10 0.1541
912.20 0.154
912.30 0.1539
912.40 0.1538
912.50 0.1536
912.60 0.1535
912.70 0.1534
912.80 0.1533
912.90 0.1532
913.00 0.153
913.10 0.1529
913.20 0.1528
913.30 0.1527
913.40 0.1526
913.50 0.1524
913.60 0.1523
913.70 0.1522
913.80 0.1521
913.90 0.152
914.00 0.1518
914.10 0.1517
914.20 0.1516
914.30 0.1515
914.40 0.1514
914.50 0.1512
914.60 0.1511
914.70 0.151
914.80 0.1509
914.90 0.1508
915.00 0.1507
915.10 0.1505
915.20 0.1504
915.30 0.1503
915.40 0.1502
915.50 0.1501
915.60 0.1499
915.70 0.1498
915.80 0.1497
915.90 0.1496
916.00 0.1495
916.10 0.1493
916.20 0.1492
916.30 0.1491
916.40 0.149
916.50 0.1489
916.60 0.1488
916.70 0.1486
916.80 0.1485
916.90 0.1484
917.00 0.1483
917.10 0.1481
917.20 0.148
917.30 0.1479
917.40 0.1477
917.50 0.1476
917.60 0.1475
917.70 0.1473
917.80 0.1472
917.90 0.147
918.00 0.1469
918.10 0.1468
918.20 0.1466
918.30 0.1465
918.40 0.1464
918.50 0.1462
918.60 0.1461
918.70 0.1459
918.80 0.1458
918.90 0.1457
919.00 0.1455
919.10 0.1454
919.20 0.1453
919.30 0.1451
919.40 0.145
919.50 0.1448
919.60 0.1447
919.70 0.1446
919.80 0.1444
919.90 0.1443
920.00 0.1442
920.10 0.144
920.20 0.1439
920.30 0.1438
920.40 0.1436
920.50 0.1435
920.60 0.1433
920.70 0.1432
920.80 0.1431
920.90 0.1429
921.00 0.1428
921.10 0.1427
921.20 0.1425
921.30 0.1424
921.40 0.1423
921.50 0.1421
921.60 0.142
921.70 0.1418
921.80 0.1417
921.90 0.1416
922.00 0.1414
922.10 0.1413
922.20 0.1411
922.30 0.141
922.40 0.1408
922.50 0.1407
922.60 0.1405
922.70 0.1404
922.80 0.1402
922.90 0.1401
923.00 0.1399
923.10 0.1398
923.20 0.1396
923.30 0.1395
923.40 0.1393
923.50 0.1392
923.60 0.139
923.70 0.1389
923.80 0.1387
923.90 0.1386
924.00 0.1385
924.10 0.1383
924.20 0.1382
924.30 0.138
924.40 0.1379
924.50 0.1377
924.60 0.1376
924.70 0.1374
924.80 0.1373
924.90 0.1371
925.00 0.137
925.10 0.1368
925.20 0.1367
925.30 0.1365
925.40 0.1364
925.50 0.1362
925.60 0.1361
925.70 0.1359
925.80 0.1358
925.90 0.1356
926.00 0.1355
926.10 0.1353
926.20 0.1352
926.30 0.135
926.40 0.1349
926.50 0.1348
926.60 0.1346
926.70 0.1345
926.80 0.1343
926.90 0.1342
927.00 0.134
927.10 0.1339
927.20 0.1337
927.30 0.1335
927.40 0.1334
927.50 0.1332
927.60 0.1331
927.70 0.1329
927.80 0.1327
927.90 0.1326
928.00 0.1324
928.10 0.1323
928.20 0.1321
928.30 0.1319
928.40 0.1318
928.50 0.1316
928.60 0.1315
928.70 0.1313
928.80 0.1311
928.90 0.131
929.00 0.1308
929.10 0.1307
929.20 0.1305
929.30 0.1303
929.40 0.1302
929.50 0.13
929.60 0.1299
929.70 0.1297
929.80 0.1295
929.90 0.1294
930.00 0.1292
930.10 0.1291
930.20 0.1289
930.30 0.1287
930.40 0.1286
930.50 0.1284
930.60 0.1283
930.70 0.1281
930.80 0.128
930.90 0.1278
931.00 0.1276
931.10 0.1275
931.20 0.1273
931.30 0.1272
931.40 0.127
931.50 0.1269
931.60 0.1267
931.70 0.1265
931.80 0.1264
931.90 0.1262
932.00 0.1261
932.10 0.1259
932.20 0.1257
932.30 0.1256
932.40 0.1254
932.50 0.1253
932.60 0.1251
932.70 0.1249
932.80 0.1248
932.90 0.1246
933.00 0.1245
933.10 0.1243
933.20 0.1241
933.30 0.124
933.40 0.1238
933.50 0.1236
933.60 0.1235
933.70 0.1233
933.80 0.1232
933.90 0.123
934.00 0.1228
934.10 0.1227
934.20 0.1225
934.30 0.1224
934.40 0.1222
934.50 0.122
934.60 0.1219
934.70 0.1217
934.80 0.1216
934.90 0.1214
935.00 0.1212
935.10 0.1211
935.20 0.1209
935.30 0.1207
935.40 0.1206
935.50 0.1204
935.60 0.1203
935.70 0.1201
935.80 0.1199
935.90 0.1198
936.00 0.1196
936.10 0.1194
936.20 0.1193
936.30 0.1191
936.40 0.119
936.50 0.1188
936.60 0.1186
936.70 0.1185
936.80 0.1183
936.90 0.1182
937.00 0.118
937.10 0.1178
937.20 0.1177
937.30 0.1175
937.40 0.1173
937.50 0.1172
937.60 0.117
937.70 0.1169
937.80 0.1167
937.90 0.1165
938.00 0.1164
938.10 0.1162
938.20 0.116
938.30 0.1159
938.40 0.1157
938.50 0.1155
938.60 0.1154
938.70 0.1152
938.80 0.1151
938.90 0.1149
939.00 0.1147
939.10 0.1146
939.20 0.1144
939.30 0.1142
939.40 0.1141
939.50 0.1139
939.60 0.1137
939.70 0.1136
939.80 0.1134
939.90 0.1132
940.00 0.1131
940.10 0.1129
940.20 0.1127
940.30 0.1126
940.40 0.1124
940.50 0.1122
940.60 0.1121
940.70 0.1119
940.80 0.1118
940.90 0.1116
941.00 0.1114
941.10 0.1113
941.20 0.1111
941.30 0.111
941.40 0.1108
941.50 0.1106
941.60 0.1105
941.70 0.1103
941.80 0.1102
941.90 0.11
942.00 0.1098
942.10 0.1097
942.20 0.1095
942.30 0.1093
942.40 0.1092
942.50 0.109
942.60 0.1089
942.70 0.1087
942.80 0.1085
942.90 0.1084
943.00 0.1082
943.10 0.1081
943.20 0.1079
943.30 0.1077
943.40 0.1076
943.50 0.1074
943.60 0.1073
943.70 0.1071
943.80 0.1069
943.90 0.1068
944.00 0.1066
944.10 0.1065
944.20 0.1063
944.30 0.1062
944.40 0.106
944.50 0.1058
944.60 0.1057
944.70 0.1055
944.80 0.1054
944.90 0.1052
945.00 0.105
945.10 0.1049
945.20 0.1047
945.30 0.1046
945.40 0.1044
945.50 0.1042
945.60 0.1041
945.70 0.1039
945.80 0.1038
945.90 0.1036
946.00 0.1035
946.10 0.1033
946.20 0.1031
946.30 0.103
946.40 0.1028
946.50 0.1027
946.60 0.1025
946.70 0.1023
946.80 0.1022
946.90 0.102
947.00 0.1019
947.10 0.1017
947.20 0.1016
947.30 0.1014
947.40 0.1013
947.50 0.1011
947.60 0.1009
947.70 0.1008
947.80 0.1006
947.90 0.1005
948.00 0.1003
948.10 0.1002
948.20 0.1
948.30 0.09986
948.40 0.0997
948.50 0.09955
948.60 0.09939
948.70 0.09924
948.80 0.09908
948.90 0.09893
949.00 0.09877
949.10 0.09862
949.20 0.09846
949.30 0.09831
949.40 0.09815
949.50 0.098
949.60 0.09784
949.70 0.09769
949.80 0.09753
949.90 0.09738
950.00 0.09722
950.10 0.09707
950.20 0.09691
950.30 0.09676
950.40 0.0966
950.50 0.09645
950.60 0.09629
950.70 0.09614
950.80 0.09598
950.90 0.09583
951.00 0.09567
951.10 0.09552
951.20 0.09536
951.30 0.09521
951.40 0.09506
951.50 0.0949
951.60 0.09475
951.70 0.0946
951.80 0.09444
951.90 0.09429
952.00 0.09414
952.10 0.09398
952.20 0.09383
952.30 0.09368
952.40 0.09352
952.50 0.09337
952.60 0.09322
952.70 0.09306
952.80 0.09291
952.90 0.09276
953.00 0.09261
953.10 0.09245
953.20 0.0923
953.30 0.09215
953.40 0.092
953.50 0.09184
953.60 0.09169
953.70 0.09154
953.80 0.09139
953.90 0.09124
954.00 0.09109
954.10 0.09093
954.20 0.09078
954.30 0.09063
954.40 0.09048
954.50 0.09033
954.60 0.09018
954.70 0.09002
954.80 0.08987
954.90 0.08972
955.00 0.08957
955.10 0.08942
955.20 0.08927
955.30 0.08912
955.40 0.08897
955.50 0.08882
955.60 0.08867
955.70 0.08851
955.80 0.08836
955.90 0.08821
956.00 0.08806
956.10 0.08791
956.20 0.08776
956.30 0.08761
956.40 0.08746
956.50 0.0873
956.60 0.08715
956.70 0.087
956.80 0.08685
956.90 0.0867
957.00 0.08655
957.10 0.0864
957.20 0.08625
957.30 0.0861
957.40 0.08595
957.50 0.08581
957.60 0.08566
957.70 0.08551
957.80 0.08536
957.90 0.08521
958.00 0.08507
958.10 0.08492
958.20 0.08477
958.30 0.08462
958.40 0.08447
958.50 0.08433
958.60 0.08418
958.70 0.08403
958.80 0.08389
958.90 0.08374
959.00 0.08359
959.10 0.08344
959.20 0.0833
959.30 0.08315
959.40 0.083
959.50 0.08286
959.60 0.08271
959.70 0.08256
959.80 0.08242
959.90 0.08227
960.00 0.08213
960.10 0.08198
960.20 0.08183
960.30 0.08169
960.40 0.08154
960.50 0.0814
960.60 0.08125
960.70 0.08111
960.80 0.08096
960.90 0.08082
961.00 0.08067
961.10 0.08052
961.20 0.08038
961.30 0.08023
961.40 0.08009
961.50 0.07995
961.60 0.0798
961.70 0.07966
961.80 0.07951
961.90 0.07937
962.00 0.07922
962.10 0.07908
962.20 0.07894
962.30 0.07879
962.40 0.07865
962.50 0.07851
962.60 0.07836
962.70 0.07822
962.80 0.07808
962.90 0.07793
963.00 0.07779
963.10 0.07765
963.20 0.0775
963.30 0.07736
963.40 0.07722
963.50 0.07708
963.60 0.07694
963.70 0.07679
963.80 0.07665
963.90 0.07651
964.00 0.07637
964.10 0.07623
964.20 0.07609
964.30 0.07594
964.40 0.0758
964.50 0.07566
964.60 0.07551
964.70 0.07537
964.80 0.07522
964.90 0.07508
965.00 0.07494
965.10 0.07479
965.20 0.07465
965.30 0.0745
965.40 0.07436
965.50 0.07422
965.60 0.07407
965.70 0.07393
965.80 0.07378
965.90 0.07364
966.00 0.0735
966.10 0.07335
966.20 0.07321
966.30 0.07307
966.40 0.07293
966.50 0.07279
966.60 0.07265
966.70 0.07251
966.80 0.07237
966.90 0.07224
967.00 0.0721
967.10 0.07196
967.20 0.07182
967.30 0.07169
967.40 0.07155
967.50 0.07141
967.60 0.07128
967.70 0.07114
967.80 0.071
967.90 0.07086
968.00 0.07073
968.10 0.07059
968.20 0.07045
968.30 0.07032
968.40 0.07018
968.50 0.07005
968.60 0.06992
968.70 0.06978
968.80 0.06965
968.90 0.06951
969.00 0.06938
969.10 0.06925
969.20 0.06911
969.30 0.06898
969.40 0.06884
969.50 0.06871
969.60 0.06858
969.70 0.06844
969.80 0.06831
969.90 0.06818
970.00 0.06804
970.10 0.06791
970.20 0.06778
970.30 0.06764
970.40 0.06751
970.50 0.06738
970.60 0.06725
970.70 0.06712
970.80 0.06699
970.90 0.06685
971.00 0.06672
971.10 0.06659
971.20 0.06646
971.30 0.06633
971.40 0.0662
971.50 0.06607
971.60 0.06594
971.70 0.06581
971.80 0.06568
971.90 0.06555
972.00 0.06542
972.10 0.06529
972.20 0.06516
972.30 0.06503
972.40 0.0649
972.50 0.06478
972.60 0.06465
972.70 0.06452
972.80 0.06439
972.90 0.06427
973.00 0.06414
973.10 0.06401
973.20 0.06388
973.30 0.06376
973.40 0.06363
973.50 0.0635
973.60 0.06337
973.70 0.06325
973.80 0.06312
973.90 0.06299
974.00 0.06287
974.10 0.06274
974.20 0.06261
974.30 0.06248
974.40 0.06236
974.50 0.06223
974.60 0.06211
974.70 0.06198
974.80 0.06186
974.90 0.06173
975.00 0.0616
975.10 0.06148
975.20 0.06135
975.30 0.06123
975.40 0.0611
975.50 0.06098
975.60 0.06085
975.70 0.06073
975.80 0.0606
975.90 0.06048
976.00 0.06035
976.10 0.06023
976.20 0.0601
976.30 0.05998
976.40 0.05985
976.50 0.05973
976.60 0.0596
976.70 0.05948
976.80 0.05936
976.90 0.05923
977.00 0.05911
977.10 0.05899
977.20 0.05887
977.30 0.05875
977.40 0.05864
977.50 0.05852
977.60 0.0584
977.70 0.05828
977.80 0.05817
977.90 0.05805
978.00 0.05793
978.10 0.05782
978.20 0.0577
978.30 0.05758
978.40 0.05747
978.50 0.05735
978.60 0.05723
978.70 0.05711
978.80 0.057
978.90 0.05688
979.00 0.05676
979.10 0.05665
979.20 0.05653
979.30 0.05641
979.40 0.0563
979.50 0.05618
979.60 0.05607
979.70 0.05595
979.80 0.05583
979.90 0.05572
980.00 0.0556
980.10 0.05548
980.20 0.05537
980.30 0.05525
980.40 0.05514
980.50 0.05502
980.60 0.0549
980.70 0.05479
980.80 0.05467
980.90 0.05456
981.00 0.05444
981.10 0.05433
981.20 0.05421
981.30 0.05409
981.40 0.05398
981.50 0.05386
981.60 0.05375
981.70 0.05363
981.80 0.05352
981.90 0.0534
982.00 0.05329
982.10 0.05318
982.20 0.05307
982.30 0.05296
982.40 0.05285
982.50 0.05274
982.60 0.05263
982.70 0.05252
982.80 0.05241
982.90 0.0523
983.00 0.05219
983.10 0.05208
983.20 0.05197
983.30 0.05186
983.40 0.05175
983.50 0.05164
983.60 0.05153
983.70 0.05142
983.80 0.05131
983.90 0.0512
984.00 0.05109
984.10 0.05098
984.20 0.05087
984.30 0.05076
984.40 0.05065
984.50 0.05054
984.60 0.05044
984.70 0.05033
984.80 0.05023
984.90 0.05013
985.00 0.05003
985.10 0.04992
985.20 0.04982
985.30 0.04972
985.40 0.04962
985.50 0.04952
985.60 0.04942
985.70 0.04932
985.80 0.04921
985.90 0.04911
986.00 0.04901
986.10 0.04891
986.20 0.04881
986.30 0.04871
986.40 0.04861
986.50 0.04851
986.60 0.04841
986.70 0.0483
986.80 0.0482
986.90 0.0481
987.00 0.048
987.10 0.0479
987.20 0.04779
987.30 0.04769
987.40 0.04758
987.50 0.04748
987.60 0.04737
987.70 0.04727
987.80 0.04716
987.90 0.04706
988.00 0.04695
988.10 0.04685
988.20 0.04674
988.30 0.04664
988.40 0.04653
988.50 0.04643
988.60 0.04632
988.70 0.04622
988.80 0.04611
988.90 0.04601
989.00 0.04591
989.10 0.0458
989.20 0.0457
989.30 0.04559
989.40 0.04549
989.50 0.04539
989.60 0.04528
989.70 0.04518
989.80 0.04508
989.90 0.04497
990.00 0.04487
990.10 0.04476
990.20 0.04466
990.30 0.04456
990.40 0.04445
990.50 0.04435
990.60 0.04425
990.70 0.04415
990.80 0.04404
990.90 0.04394
991.00 0.04384
991.10 0.04374
991.20 0.04363
991.30 0.04353
991.40 0.04343
991.50 0.04333
991.60 0.04322
991.70 0.04312
991.80 0.04302
991.90 0.04292
992.00 0.04281
992.10 0.04271
992.20 0.04261
992.30 0.04251
992.40 0.04241
992.50 0.04231
992.60 0.04221
992.70 0.0421
992.80 0.042
992.90 0.0419
993.00 0.0418
993.10 0.0417
993.20 0.0416
993.30 0.0415
993.40 0.0414
993.50 0.0413
993.60 0.0412
993.70 0.0411
993.80 0.041
993.90 0.0409
994.00 0.0408
994.10 0.0407
994.20 0.0406
994.30 0.0405
994.40 0.0404
994.50 0.04029
994.60 0.04019
994.70 0.04008
994.80 0.03995
994.90 0.03983
995.00 0.0397
995.10 0.03958
995.20 0.03945
995.30 0.03933
995.40 0.03921
995.50 0.03908
995.60 0.03896
995.70 0.03885
995.80 0.03876
995.90 0.03866
996.00 0.03857
996.10 0.03847
996.20 0.03838
996.30 0.03828
996.40 0.03819
996.50 0.03809
996.60 0.038
996.70 0.0379
996.80 0.03781
996.90 0.03771
997.00 0.03762
997.10 0.03753
997.20 0.03743
997.30 0.03734
997.40 0.03725
997.50 0.03716
997.60 0.03706
997.70 0.03697
997.80 0.03689
997.90 0.0368
998.00 0.03671
998.10 0.03662
998.20 0.03653
998.30 0.03644
998.40 0.03635
998.50 0.03626
998.60 0.03617
998.70 0.03608
998.80 0.036
998.90 0.03591
999.00 0.03582
999.10 0.03573
999.20 0.03564
999.30 0.03555
999.40 0.03546
999.50 0.03537
999.60 0.03529
999.70 0.0352
999.80 0.03512
999.90 0.03503
1000.00 0.03495
1000.10 0.03487
1000.20 0.03478
1000.30 0.0347
1000.40 0.03461
1000.50 0.03453
1000.60 0.03445
1000.70 0.03436
1000.80 0.03428
1000.90 0.0342
1001.00 0.03411
1001.10 0.03403
1001.20 0.03394
1001.30 0.03386
1001.40 0.03378
1001.50 0.03369
1001.60 0.03361
1001.70 0.03353
1001.80 0.03345
1001.90 0.03337
1002.00 0.03329
1002.10 0.03321
1002.20 0.03313
1002.30 0.03305
1002.40 0.03297
1002.50 0.03289
1002.60 0.03281
1002.70 0.03273
1002.80 0.03265
1002.90 0.03257
1003.00 0.0325
1003.10 0.03242
1003.20 0.03234
1003.30 0.03226
1003.40 0.03219
1003.50 0.03211
1003.60 0.03203
1003.70 0.03195
1003.80 0.03188
1003.90 0.0318
1004.00 0.03173
1004.10 0.03165
1004.20 0.03157
1004.30 0.0315
1004.40 0.03142
1004.50 0.03135
1004.60 0.03127
1004.70 0.0312
1004.80 0.03113
1004.90 0.03102
1005.00 0.03092
1005.10 0.03084
1005.20 0.03077
1005.30 0.03069
1005.40 0.03062
1005.50 0.03055
1005.60 0.03048
1005.70 0.03041
1005.80 0.03033
1005.90 0.03026
1006.00 0.03019
1006.10 0.03012
1006.20 0.03005
1006.30 0.02998
1006.40 0.02991
1006.50 0.02984
1006.60 0.02977
1006.70 0.0297
1006.80 0.02963
1006.90 0.02956
1007.00 0.02949
1007.10 0.02943
1007.20 0.02936
1007.30 0.02929
1007.40 0.02922
1007.50 0.02916
1007.60 0.02909
1007.70 0.02902
1007.80 0.02896
1007.90 0.02889
1008.00 0.02883
1008.10 0.02877
1008.20 0.0287
1008.30 0.02864
1008.40 0.02857
1008.50 0.02851
1008.60 0.02844
1008.70 0.02838
1008.80 0.02831
1008.90 0.02825
1009.00 0.02819
1009.10 0.02812
1009.20 0.02806
1009.30 0.02799
1009.40 0.02793
1009.50 0.02786
1009.60 0.0278
1009.70 0.02774
1009.80 0.02768
1009.90 0.02762
1010.00 0.02756
1010.10 0.0275
1010.20 0.02744
1010.30 0.02738
1010.40 0.02732
1010.50 0.02726
1010.60 0.0272
1010.70 0.02714
1010.80 0.02708
1010.90 0.02702
1011.00 0.02696
1011.10 0.0269
1011.20 0.02684
1011.30 0.02678
1011.40 0.02672
1011.50 0.02666
1011.60 0.0266
1011.70 0.02654
1011.80 0.02649
1011.90 0.02643
1012.00 0.02637
1012.10 0.02631
1012.20 0.02626
1012.30 0.0262
1012.40 0.02615
1012.50 0.02609
1012.60 0.02604
1012.70 0.02598
1012.80 0.02593
1012.90 0.02587
1013.00 0.02582
1013.10 0.02576
1013.20 0.02571
1013.30 0.02565
1013.40 0.0256
1013.50 0.02554
1013.60 0.02549
1013.70 0.02543
1013.80 0.02538
1013.90 0.02533
1014.00 0.02527
1014.10 0.02522
1014.20 0.02517
1014.30 0.02512
1014.40 0.02506
1014.50 0.02501
1014.60 0.02496
1014.70 0.02491
1014.80 0.02487
1014.90 0.02482
1015.00 0.02478
1015.10 0.02473
1015.20 0.02469
1015.30 0.02464
1015.40 0.0246
1015.50 0.02455
1015.60 0.0245
1015.70 0.02446
1015.80 0.02441
1015.90 0.02437
1016.00 0.02432
1016.10 0.02428
1016.20 0.02423
1016.30 0.02419
1016.40 0.02414
1016.50 0.0241
1016.60 0.02405
1016.70 0.02401
1016.80 0.02396
1016.90 0.02391
1017.00 0.02386
1017.10 0.02381
1017.20 0.02376
1017.30 0.02371
1017.40 0.02367
1017.50 0.02362
1017.60 0.02357
1017.70 0.02352
1017.80 0.02347
1017.90 0.02343
1018.00 0.02338
1018.10 0.02333
1018.20 0.02328
1018.30 0.02323
1018.40 0.02319
1018.50 0.02314
1018.60 0.02309
1018.70 0.02304
1018.80 0.023
1018.90 0.02295
1019.00 0.02291
1019.10 0.02286
1019.20 0.02281
1019.30 0.02277
1019.40 0.02272
1019.50 0.02268
1019.60 0.02263
1019.70 0.02258
1019.80 0.02254
1019.90 0.02249
1020.00 0.02244
1020.10 0.0224
1020.20 0.02235
1020.30 0.02231
1020.40 0.02226
1020.50 0.02221
1020.60 0.02217
1020.70 0.02212
1020.80 0.02208
1020.90 0.02203
1021.00 0.02199
1021.10 0.02195
1021.20 0.0219
1021.30 0.02186
1021.40 0.02181
1021.50 0.02177
1021.60 0.02172
1021.70 0.02168
1021.80 0.02163
1021.90 0.02159
1022.00 0.02155
1022.10 0.0215
1022.20 0.02146
1022.30 0.02142
1022.40 0.02138
1022.50 0.02133
1022.60 0.02129
1022.70 0.02125
1022.80 0.0212
1022.90 0.02116
1023.00 0.02112
1023.10 0.02108
1023.20 0.02103
1023.30 0.02099
1023.40 0.02095
1023.50 0.02091
1023.60 0.02086
1023.70 0.02082
1023.80 0.02078
1023.90 0.02074
1024.00 0.02069
1024.10 0.02065
1024.20 0.02061
1024.30 0.02057
1024.40 0.02052
1024.50 0.02048
1024.60 0.02044
1024.70 0.0204
1024.80 0.02036
1024.90 0.02031
1025.00 0.02027
1025.10 0.02023
1025.20 0.02019
1025.30 0.02015
1025.40 0.0201
1025.50 0.02006
1025.60 0.02002
1025.70 0.01998
1025.80 0.01994
1025.90 0.0199
1026.00 0.01985
1026.10 0.01981
1026.20 0.01977
1026.30 0.01973
1026.40 0.01969
1026.50 0.01965
1026.60 0.0196
1026.70 0.01956
1026.80 0.01952
1026.90 0.01948
1027.00 0.01944
1027.10 0.0194
1027.20 0.01936
1027.30 0.01933
1027.40 0.01929
1027.50 0.01925
1027.60 0.01922
1027.70 0.01918
1027.80 0.01914
1027.90 0.01911
1028.00 0.01907
1028.10 0.01903
1028.20 0.019
1028.30 0.01896
1028.40 0.01892
1028.50 0.01889
1028.60 0.01885
1028.70 0.01881
1028.80 0.01878
1028.90 0.01874
1029.00 0.01871
1029.10 0.01867
1029.20 0.01863
1029.30 0.0186
1029.40 0.01856
1029.50 0.01852
1029.60 0.01849
1029.70 0.01845
1029.80 0.01841
1029.90 0.01838
1030.00 0.01834
1030.10 0.0183
1030.20 0.01827
1030.30 0.01823
1030.40 0.0182
1030.50 0.01816
1030.60 0.01812
1030.70 0.01809
1030.80 0.01805
1030.90 0.01801
1031.00 0.01798
1031.10 0.01794
1031.20 0.01791
1031.30 0.01787
1031.40 0.01783
1031.50 0.0178
1031.60 0.01776
1031.70 0.01772
1031.80 0.01769
1031.90 0.01765
1032.00 0.01762
1032.10 0.01758
1032.20 0.01755
1032.30 0.01752
1032.40 0.01749
1032.50 0.01745
1032.60 0.01742
1032.70 0.01739
1032.80 0.01736
1032.90 0.01732
1033.00 0.01729
1033.10 0.01726
1033.20 0.01723
1033.30 0.0172
1033.40 0.01716
1033.50 0.01713
1033.60 0.0171
1033.70 0.01707
1033.80 0.01703
1033.90 0.017
1034.00 0.01697
1034.10 0.01694
1034.20 0.0169
1034.30 0.01687
1034.40 0.01684
1034.50 0.01681
1034.60 0.01678
1034.70 0.01674
1034.80 0.01671
1034.90 0.01668
1035.00 0.01665
1035.10 0.01662
1035.20 0.01658
1035.30 0.01655
1035.40 0.01652
1035.50 0.01649
1035.60 0.01646
1035.70 0.01642
1035.80 0.01639
1035.90 0.01636
1036.00 0.01633
1036.10 0.0163
1036.20 0.01626
1036.30 0.01623
1036.40 0.0162
1036.50 0.01617
1036.60 0.01614
1036.70 0.0161
1036.80 0.01607
1036.90 0.01604
1037.00 0.01601
1037.10 0.01598
1037.20 0.01595
1037.30 0.01593
1037.40 0.0159
1037.50 0.01587
1037.60 0.01584
1037.70 0.01582
1037.80 0.01579
1037.90 0.01576
1038.00 0.01573
1038.10 0.01571
1038.20 0.01568
1038.30 0.01565
1038.40 0.01562
1038.50 0.0156
1038.60 0.01557
1038.70 0.01554
1038.80 0.01551
1038.90 0.01549
1039.00 0.01546
1039.10 0.01543
1039.20 0.01541
1039.30 0.01538
1039.40 0.01535
1039.50 0.01532
1039.60 0.0153
1039.70 0.01527
1039.80 0.01524
1039.90 0.01521
1040.00 0.01519
1040.10 0.01516
1040.20 0.01513
1040.30 0.01511
1040.40 0.01508
1040.50 0.01505
1040.60 0.01502
1040.70 0.015
1040.80 0.01497
1040.90 0.01494
1041.00 0.01492
1041.10 0.01489
1041.20 0.01486
1041.30 0.01483
1041.40 0.01481
1041.50 0.01478
1041.60 0.01475
1041.70 0.01473
1041.80 0.0147
1041.90 0.01467
1042.00 0.01465
1042.10 0.01462
1042.20 0.0146
1042.30 0.01458
1042.40 0.01455
1042.50 0.01453
1042.60 0.01451
1042.70 0.01448
1042.80 0.01446
1042.90 0.01444
1043.00 0.01441
1043.10 0.01439
1043.20 0.01437
1043.30 0.01434
1043.40 0.01432
1043.50 0.0143
1043.60 0.01427
1043.70 0.01425
1043.80 0.01423
1043.90 0.0142
1044.00 0.01418
1044.10 0.01416
1044.20 0.01413
1044.30 0.01411
1044.40 0.01409
1044.50 0.01406
1044.60 0.01404
1044.70 0.01402
1044.80 0.01399
1044.90 0.01397
1045.00 0.01395
1045.10 0.01393
1045.20 0.0139
1045.30 0.01388
1045.40 0.01386
1045.50 0.01383
1045.60 0.01381
1045.70 0.01379
1045.80 0.01376
1045.90 0.01374
1046.00 0.01372
1046.10 0.01369
1046.20 0.01367
1046.30 0.01365
1046.40 0.01363
1046.50 0.0136
1046.60 0.01358
1046.70 0.01356
1046.80 0.01353
1046.90 0.01351
1047.00 0.01349
1047.10 0.01347
1047.20 0.01345
1047.30 0.01343
1047.40 0.01341
1047.50 0.01339
1047.60 0.01337
1047.70 0.01335
1047.80 0.01333
1047.90 0.01331
1048.00 0.01329
1048.10 0.01327
1048.20 0.01325
1048.30 0.01323
1048.40 0.01321
1048.50 0.01319
1048.60 0.01317
1048.70 0.01316
1048.80 0.01314
1048.90 0.01312
1049.00 0.0131
1049.10 0.01308
1049.20 0.01306
1049.30 0.01304
1049.40 0.01302
1049.50 0.013
1049.60 0.01298
1049.70 0.01296
1049.80 0.01294
1049.90 0.01292
1050.00 0.0129
1050.10 0.01288
1050.20 0.01286
1050.30 0.01284
1050.40 0.01282
1050.50 0.01281
1050.60 0.01279
1050.70 0.01277
1050.80 0.01275
1050.90 0.01273
1051.00 0.01271
1051.10 0.01269
1051.20 0.01267
1051.30 0.01265
1051.40 0.01263
1051.50 0.01261
1051.60 0.01259
1051.70 0.01257
1051.80 0.01255
1051.90 0.01253
1052.00 0.01252
1052.10 0.0125
1052.20 0.01248
1052.30 0.01246
1052.40 0.01245
1052.50 0.01243
1052.60 0.01241
1052.70 0.01239
1052.80 0.01237
1052.90 0.01236
1053.00 0.01234
1053.10 0.01232
1053.20 0.0123
1053.30 0.01229
1053.40 0.01227
1053.50 0.01225
1053.60 0.01223
1053.70 0.01222
1053.80 0.0122
1053.90 0.01218
1054.00 0.01216
1054.10 0.01215
1054.20 0.01213
1054.30 0.01211
1054.40 0.01209
1054.50 0.01208
1054.60 0.01206
1054.70 0.01204
1054.80 0.01202
1054.90 0.01201
1055.00 0.01199
1055.10 0.01197
1055.20 0.01195
1055.30 0.01194
1055.40 0.01192
1055.50 0.0119
1055.60 0.01188
1055.70 0.01187
1055.80 0.01185
1055.90 0.01183
1056.00 0.01181
1056.10 0.0118
1056.20 0.01178
1056.30 0.01176
1056.40 0.01174
1056.50 0.01173
1056.60 0.01171
1056.70 0.01169
1056.80 0.01167
1056.90 0.01166
1057.00 0.01164
1057.10 0.01162
1057.20 0.01161
1057.30 0.01159
1057.40 0.01158
1057.50 0.01156
1057.60 0.01155
1057.70 0.01153
1057.80 0.01152
1057.90 0.0115
1058.00 0.01148
1058.10 0.01147
1058.20 0.01145
1058.30 0.01144
1058.40 0.01142
1058.50 0.01141
1058.60 0.01139
1058.70 0.01138
1058.80 0.01136
1058.90 0.01135
1059.00 0.01133
1059.10 0.01131
1059.20 0.0113
1059.30 0.01128
1059.40 0.01127
1059.50 0.01125
1059.60 0.01124
1059.70 0.01122
1059.80 0.01121
1059.90 0.01119
1060.00 0.01118
1060.10 0.01116
1060.20 0.01114
1060.30 0.01113
1060.40 0.01111
1060.50 0.0111
1060.60 0.01108
1060.70 0.01107
1060.80 0.01105
1060.90 0.01104
1061.00 0.01102
1061.10 0.01101
1061.20 0.01099
1061.30 0.01098
1061.40 0.01096
1061.50 0.01094
1061.60 0.01093
1061.70 0.01091
1061.80 0.0109
1061.90 0.01088
1062.00 0.01087
1062.10 0.01085
1062.20 0.01084
1062.30 0.01083
1062.40 0.01081
1062.50 0.0108
1062.60 0.01079
1062.70 0.01077
1062.80 0.01076
1062.90 0.01075
1063.00 0.01073
1063.10 0.01072
1063.20 0.01071
1063.30 0.01069
1063.40 0.01068
1063.50 0.01067
1063.60 0.01065
1063.70 0.01064
1063.80 0.01063
1063.90 0.01061
1064.00 0.0106
1064.10 0.01059
1064.20 0.01057
1064.30 0.01056
1064.40 0.01055
1064.50 0.01053
1064.60 0.01052
1064.70 0.01051
1064.80 0.01049
1064.90 0.01048
1065.00 0.01047
1065.10 0.01045
1065.20 0.01044
1065.30 0.01043
1065.40 0.01041
1065.50 0.0104
1065.60 0.01039
1065.70 0.01037
1065.80 0.01036
1065.90 0.01035
1066.00 0.01034
1066.10 0.01032
1066.20 0.01031
1066.30 0.0103
1066.40 0.01028
1066.50 0.01027
1066.60 0.01026
1066.70 0.01024
1066.80 0.01023
1066.90 0.01022
1067.00 0.0102
1067.10 0.01019
1067.20 0.01018
1067.30 0.01017
1067.40 0.01015
1067.50 0.01014
1067.60 0.01013
1067.70 0.01012
1067.80 0.01011
1067.90 0.01009
1068.00 0.01008
1068.10 0.01007
1068.20 0.01006
1068.30 0.01004
1068.40 0.01003
1068.50 0.01002
1068.60 0.01001
1068.70 0.009995
1068.80 0.009983
1068.90 0.009971
1069.00 0.009958
1069.10 0.009946
1069.20 0.009934
1069.30 0.009922
1069.40 0.00991
1069.50 0.009898
1069.60 0.009885
1069.70 0.009873
1069.80 0.009861
1069.90 0.009849
1070.00 0.009837
1070.10 0.009825
1070.20 0.009813
1070.30 0.0098
1070.40 0.009788
1070.50 0.009776
1070.60 0.009764
1070.70 0.009752
1070.80 0.00974
1070.90 0.009728
1071.00 0.009716
1071.10 0.009703
1071.20 0.009691
1071.30 0.009679
1071.40 0.009667
1071.50 0.009655
1071.60 0.009643
1071.70 0.009631
1071.80 0.009619
1071.90 0.009607
1072.00 0.009595
1072.10 0.009585
1072.20 0.009575
1072.30 0.009566
1072.40 0.009556
1072.50 0.009547
1072.60 0.009537
1072.70 0.009527
1072.80 0.009518
1072.90 0.009508
1073.00 0.009498
1073.10 0.009489
1073.20 0.009479
1073.30 0.00947
1073.40 0.00946
1073.50 0.009451
1073.60 0.009442
1073.70 0.009434
1073.80 0.009426
1073.90 0.009417
1074.00 0.009409
1074.10 0.009401
1074.20 0.009392
1074.30 0.009384
1074.40 0.009376
1074.50 0.009367
1074.60 0.009359
1074.70 0.009351
1074.80 0.009342
1074.90 0.009334
1075.00 0.009326
1075.10 0.009317
1075.20 0.009309
1075.30 0.009301
1075.40 0.009292
1075.50 0.009284
1075.60 0.009276
1075.70 0.009268
1075.80 0.009259
1075.90 0.009251
1076.00 0.009243
1076.10 0.009234
1076.20 0.009226
1076.30 0.009218
1076.40 0.00921
1076.50 0.009201
1076.60 0.009193
1076.70 0.009185
1076.80 0.009176
1076.90 0.009168
1077.00 0.00916
1077.10 0.009153
1077.20 0.009145
1077.30 0.009138
1077.40 0.009131
1077.50 0.009124
1077.60 0.009117
1077.70 0.00911
1077.80 0.009104
1077.90 0.009097
1078.00 0.00909
1078.10 0.009083
1078.20 0.009077
1078.30 0.00907
1078.40 0.009063
1078.50 0.009057
1078.60 0.00905
1078.70 0.009043
1078.80 0.009037
1078.90 0.00903
1079.00 0.009023
1079.10 0.009017
1079.20 0.00901
1079.30 0.009003
1079.40 0.008997
1079.50 0.008991
1079.60 0.008986
1079.70 0.00898
1079.80 0.008975
1079.90 0.00897
1080.00 0.008965
1080.10 0.00896
1080.20 0.008955
1080.30 0.00895
1080.40 0.008945
1080.50 0.00894
1080.60 0.008935
1080.70 0.00893
1080.80 0.008925
1080.90 0.00892
1081.00 0.008915
1081.10 0.00891
1081.20 0.008905
1081.30 0.0089
1081.40 0.008895
1081.50 0.00889
1081.60 0.008884
1081.70 0.008879
1081.80 0.008874
1081.90 0.008869
1082.00 0.008864
1082.10 0.008859
1082.20 0.008854
1082.30 0.008849
1082.40 0.008845
1082.50 0.00884
1082.60 0.008835
1082.70 0.00883
1082.80 0.008826
1082.90 0.008821
1083.00 0.008816
1083.10 0.008811
1083.20 0.008806
1083.30 0.008802
1083.40 0.008797
1083.50 0.008792
1083.60 0.008788
1083.70 0.008784
1083.80 0.008779
1083.90 0.008775
1084.00 0.008771
1084.10 0.008766
1084.20 0.008762
1084.30 0.008758
1084.40 0.008753
1084.50 0.008749
1084.60 0.008746
1084.70 0.008742
1084.80 0.008738
1084.90 0.008734
1085.00 0.008731
1085.10 0.008727
1085.20 0.008723
1085.30 0.008719
1085.40 0.008716
1085.50 0.008712
1085.60 0.008708
1085.70 0.008705
1085.80 0.008701
1085.90 0.008697
1086.00 0.008693
1086.10 0.00869
1086.20 0.008686
1086.30 0.008682
1086.40 0.008679
1086.50 0.008675
1086.60 0.008672
1086.70 0.008668
1086.80 0.008665
1086.90 0.008662
1087.00 0.008658
1087.10 0.008655
1087.20 0.008653
1087.30 0.00865
1087.40 0.008647
1087.50 0.008644
1087.60 0.008641
1087.70 0.008638
1087.80 0.008635
1087.90 0.008632
1088.00 0.008629
1088.10 0.008627
1088.20 0.008624
1088.30 0.008621
1088.40 0.008618
1088.50 0.008615
1088.60 0.008613
1088.70 0.008611
1088.80 0.008608
1088.90 0.008606
1089.00 0.008604
1089.10 0.008601
1089.20 0.008599
1089.30 0.008597
1089.40 0.008595
1089.50 0.008592
1089.60 0.00859
1089.70 0.008588
1089.80 0.008585
1089.90 0.008583
1090.00 0.008581
1090.10 0.008578
1090.20 0.008576
1090.30 0.008574
1090.40 0.008572
1090.50 0.008569
1090.60 0.008568
1090.70 0.008566
1090.80 0.008564
1090.90 0.008563
1091.00 0.008561
1091.10 0.008559
1091.20 0.008558
1091.30 0.008556
1091.40 0.008554
1091.50 0.008553
1091.60 0.008551
1091.70 0.008549
1091.80 0.008548
1091.90 0.008546
1092.00 0.008544
1092.10 0.008543
1092.20 0.008542
1092.30 0.008541
1092.40 0.008539
1092.50 0.008538
1092.60 0.008537
1092.70 0.008539
1092.80 0.008547
1092.90 0.008555
1093.00 0.008563
1093.10 0.008569
1093.20 0.008568
1093.30 0.008567
1093.40 0.008566
1093.50 0.008565
1093.60 0.008564
1093.70 0.008563
1093.80 0.008562
1093.90 0.008561
1094.00 0.00856
1094.10 0.008559
1094.20 0.008558
1094.30 0.008557
1094.40 0.008556
1094.50 0.008555
1094.60 0.008555
1094.70 0.008554
1094.80 0.008553
1094.90 0.008552
1095.00 0.008551
1095.10 0.008551
1095.20 0.00855
1095.30 0.008549
1095.40 0.008548
1095.50 0.008548
1095.60 0.008547
1095.70 0.008546
1095.80 0.008546
1095.90 0.008545
1096.00 0.008544
1096.10 0.008543
1096.20 0.008543
1096.30 0.008542
1096.40 0.008541
1096.50 0.008541
1096.60 0.00854
1096.70 0.00854
1096.80 0.008539
1096.90 0.008539
1097.00 0.008538
1097.10 0.008538
1097.20 0.008537
1097.30 0.008537
1097.40 0.008536
1097.50 0.008536
1097.60 0.008536
1097.70 0.008535
1097.80 0.008535
1097.90 0.008534
1098.00 0.008534
1098.10 0.008533
1098.20 0.008533
1098.30 0.008533
1098.40 0.008532
1098.50 0.008532
1098.60 0.008532
1098.70 0.008531
1098.80 0.008531
1098.90 0.008531
1099.00 0.008531
1099.10 0.008531
1099.20 0.00853
1099.30 0.00853
1099.40 0.00853
1099.50 0.00853
1099.60 0.008529
1099.70 0.008529
1099.80 0.008529
1099.90 0.008529
1100.00 0.008529
1100.10 0.008528
1100.20 0.008528
1100.30 0.008528
1100.40 0.008528
1100.50 0.008528
1100.60 0.008528
1100.70 0.008528
1100.80 0.008528
1100.90 0.008528
1101.00 0.008528
1101.10 0.008528
1101.20 0.008528
1101.30 0.008528
1101.40 0.008528
1101.50 0.008528
1101.60 0.008528
1101.70 0.008528
1101.80 0.008528
1101.90 0.008528
1102.00 0.008528
1102.10 0.008529
1102.20 0.008529
1102.30 0.008529
1102.40 0.008529
1102.50 0.008529
1102.60 0.00853
1102.70 0.00853
1102.80 0.00853
1102.90 0.00853
1103.00 0.008531
1103.10 0.008531
1103.20 0.008531
1103.30 0.008531
1103.40 0.008532
1103.50 0.008532
1103.60 0.008532
1103.70 0.008532
1103.80 0.008532
1103.90 0.008532
1104.00 0.008532
1104.10 0.008532
1104.20 0.008532
1104.30 0.008532
1104.40 0.008532
1104.50 0.008532
1104.60 0.008532
1104.70 0.008532
1104.80 0.008533
1104.90 0.008533
1105.00 0.008533
1105.10 0.008533
1105.20 0.008533
1105.30 0.008533
1105.40 0.008533
1105.50 0.008533
1105.60 0.008534
1105.70 0.008535
1105.80 0.008535
1105.90 0.008536
1106.00 0.008537
1106.10 0.008538
1106.20 0.008538
1106.30 0.008539
1106.40 0.00854
1106.50 0.008541
1106.60 0.008541
1106.70 0.008542
1106.80 0.008543
1106.90 0.008544
1107.00 0.008545
1107.10 0.008545
1107.20 0.008546
1107.30 0.008547
1107.40 0.008548
1107.50 0.008549
1107.60 0.00855
1107.70 0.008551
1107.80 0.008552
1107.90 0.008554
1108.00 0.008555
1108.10 0.008556
1108.20 0.008557
1108.30 0.008558
1108.40 0.008559
1108.50 0.00856
1108.60 0.008561
1108.70 0.008562
1108.80 0.008563
1108.90 0.008565
1109.00 0.008566
1109.10 0.008567
1109.20 0.008568
1109.30 0.008569
1109.40 0.00857
1109.50 0.008571
1109.60 0.008573
1109.70 0.008574
1109.80 0.008576
1109.90 0.008577
1110.00 0.008579
1110.10 0.00858
1110.20 0.008582
1110.30 0.008583
1110.40 0.008585
1110.50 0.008587
1110.60 0.008588
1110.70 0.00859
1110.80 0.008591
1110.90 0.008593
1111.00 0.008594
1111.10 0.008596
1111.20 0.008597
1111.30 0.008599
1111.40 0.0086
1111.50 0.008602
1111.60 0.008603
1111.70 0.008605
1111.80 0.008606
1111.90 0.008608
1112.00 0.008609
1112.10 0.008611
1112.20 0.008613
1112.30 0.008615
1112.40 0.008617
1112.50 0.008618
1112.60 0.00862
1112.70 0.008622
1112.80 0.008624
1112.90 0.008626
1113.00 0.008628
1113.10 0.008629
1113.20 0.008631
1113.30 0.008633
1113.40 0.008635
1113.50 0.008637
1113.60 0.008639
1113.70 0.008641
1113.80 0.008644
1113.90 0.008646
1114.00 0.008648
1114.10 0.008651
1114.20 0.008653
1114.30 0.008655
1114.40 0.008657
1114.50 0.00866
1114.60 0.008662
1114.70 0.008664
1114.80 0.008667
1114.90 0.008669
1115.00 0.008671
1115.10 0.008673
1115.20 0.008676
1115.30 0.008678
1115.40 0.00868
1115.50 0.008683
1115.60 0.008685
1115.70 0.008687
1115.80 0.008689
1115.90 0.008692
1116.00 0.008694
1116.10 0.008696
1116.20 0.008699
1116.30 0.008701
1116.40 0.008703
1116.50 0.008705
1116.60 0.008708
1116.70 0.00871
1116.80 0.008712
1116.90 0.008714
1117.00 0.008717
1117.10 0.008719
1117.20 0.008722
1117.30 0.008725
1117.40 0.008728
1117.50 0.008731
1117.60 0.008733
1117.70 0.008736
1117.80 0.008739
1117.90 0.008742
1118.00 0.008744
1118.10 0.008747
1118.20 0.00875
1118.30 0.008753
1118.40 0.008755
1118.50 0.008758
1118.60 0.008761
1118.70 0.008764
1118.80 0.008766
1118.90 0.008769
1119.00 0.008772
1119.10 0.008775
1119.20 0.008777
1119.30 0.00878
1119.40 0.008783
1119.50 0.008786
1119.60 0.008788
1119.70 0.008791
1119.80 0.008794
1119.90 0.008797
1120.00 0.008799
1120.10 0.008802
1120.20 0.008805
1120.30 0.008808
1120.40 0.00881
1120.50 0.008813
1120.60 0.008816
1120.70 0.008819
1120.80 0.008821
1120.90 0.008824
1121.00 0.008827
1121.10 0.008829
1121.20 0.008832
1121.30 0.008835
1121.40 0.008838
1121.50 0.00884
1121.60 0.008843
1121.70 0.008846
1121.80 0.008849
1121.90 0.008851
1122.00 0.008854
1122.10 0.008859
1122.20 0.008864
1122.30 0.008869
1122.40 0.008874
1122.50 0.008879
1122.60 0.008884
1122.70 0.00889
1122.80 0.008895
1122.90 0.0089
1123.00 0.008905
1123.10 0.00891
1123.20 0.008915
1123.30 0.00892
1123.40 0.008925
1123.50 0.00893
1123.60 0.008935
1123.70 0.00894
1123.80 0.008945
1123.90 0.00895
1124.00 0.008955
1124.10 0.00896
1124.20 0.008965
1124.30 0.00897
1124.40 0.008975
1124.50 0.008981
1124.60 0.008986
1124.70 0.008991
1124.80 0.008996
1124.90 0.009001
1125.00 0.009006
1125.10 0.009011
1125.20 0.009016
1125.30 0.009021
1125.40 0.009026
1125.50 0.009031
1125.60 0.009036
1125.70 0.009041
1125.80 0.009046
1125.90 0.009051
1126.00 0.009056
1126.10 0.009061
1126.20 0.009066
1126.30 0.009071
1126.40 0.009076
1126.50 0.009081
1126.60 0.009086
1126.70 0.009091
1126.80 0.009096
1126.90 0.009101
1127.00 0.009106
1127.10 0.009113
1127.20 0.009121
1127.30 0.009128
1127.40 0.009136
1127.50 0.009143
1127.60 0.009151
1127.70 0.009158
1127.80 0.009165
1127.90 0.009173
1128.00 0.00918
1128.10 0.009188
1128.20 0.009195
1128.30 0.009203
1128.40 0.00921
1128.50 0.009217
1128.60 0.009225
1128.70 0.009232
1128.80 0.00924
1128.90 0.009247
1129.00 0.009255
1129.10 0.009262
1129.20 0.009269
1129.30 0.009277
1129.40 0.009284
1129.50 0.009292
1129.60 0.009299
1129.70 0.009306
1129.80 0.009314
1129.90 0.009321
1130.00 0.009328
1130.10 0.009336
1130.20 0.009343
1130.30 0.009351
1130.40 0.009358
1130.50 0.009365
1130.60 0.009373
1130.70 0.00938
1130.80 0.009387
1130.90 0.009395
1131.00 0.009402
1131.10 0.009409
1131.20 0.009417
1131.30 0.009424
1131.40 0.009431
1131.50 0.009439
1131.60 0.009446
1131.70 0.009454
1131.80 0.009461
1131.90 0.009468
1132.00 0.009475
1132.10 0.009484
1132.20 0.009492
1132.30 0.0095
1132.40 0.009508
1132.50 0.009516
1132.60 0.009524
1132.70 0.009532
1132.80 0.00954
1132.90 0.009548
1133.00 0.009556
1133.10 0.009564
1133.20 0.009572
1133.30 0.00958
1133.40 0.009588
1133.50 0.009596
1133.60 0.009604
1133.70 0.009612
1133.80 0.00962
1133.90 0.009627
1134.00 0.009635
1134.10 0.009643
1134.20 0.009651
1134.30 0.009659
1134.40 0.009667
1134.50 0.009675
1134.60 0.009683
1134.70 0.009691
1134.80 0.009699
1134.90 0.009707
1135.00 0.009715
1135.10 0.009723
1135.20 0.009731
1135.30 0.009739
1135.40 0.009747
1135.50 0.009755
1135.60 0.009763
1135.70 0.009771
1135.80 0.009778
1135.90 0.009786
1136.00 0.009794
1136.10 0.009802
1136.20 0.00981
1136.30 0.009818
1136.40 0.009826
1136.50 0.009834
1136.60 0.009842
1136.70 0.00985
1136.80 0.009857
1136.90 0.009865
1137.00 0.009873
1137.10 0.009882
1137.20 0.009891
1137.30 0.009901
1137.40 0.00991
1137.50 0.009919
1137.60 0.009928
1137.70 0.009937
1137.80 0.009946
1137.90 0.009955
1138.00 0.009965
1138.10 0.009974
1138.20 0.009983
1138.30 0.009992
1138.40 0.01
1138.50 0.01001
1138.60 0.01002
1138.70 0.01003
1138.80 0.01004
1138.90 0.01005
1139.00 0.01006
1139.10 0.01006
1139.20 0.01007
1139.30 0.01008
1139.40 0.01009
1139.50 0.0101
1139.60 0.01011
1139.70 0.01012
1139.80 0.01013
1139.90 0.01014
1140.00 0.01015
1140.10 0.01016
1140.20 0.01016
1140.30 0.01017
1140.40 0.01018
1140.50 0.01019
1140.60 0.0102
1140.70 0.01021
1140.80 0.01022
1140.90 0.01023
1141.00 0.01024
1141.10 0.01025
1141.20 0.01025
1141.30 0.01026
1141.40 0.01027
1141.50 0.01028
1141.60 0.01029
1141.70 0.0103
1141.80 0.01031
1141.90 0.01032
1142.00 0.01033
1142.10 0.01034
1142.20 0.01035
1142.30 0.01036
1142.40 0.01037
1142.50 0.01038
1142.60 0.01039
1142.70 0.0104
1142.80 0.01041
1142.90 0.01043
1143.00 0.01044
1143.10 0.01045
1143.20 0.01046
1143.30 0.01047
1143.40 0.01048
1143.50 0.01049
1143.60 0.0105
1143.70 0.01051
1143.80 0.01052
1143.90 0.01053
1144.00 0.01054
1144.10 0.01056
1144.20 0.01057
1144.30 0.01058
1144.40 0.01059
1144.50 0.0106
1144.60 0.01061
1144.70 0.01062
1144.80 0.01063
1144.90 0.01064
1145.00 0.01065
1145.10 0.01066
1145.20 0.01068
1145.30 0.01069
1145.40 0.0107
1145.50 0.01071
1145.60 0.01072
1145.70 0.01073
1145.80 0.01074
1145.90 0.01075
1146.00 0.01076
1146.10 0.01077
1146.20 0.01078
1146.30 0.01079
1146.40 0.0108
1146.50 0.01082
1146.60 0.01083
1146.70 0.01084
1146.80 0.01085
1146.90 0.01086
1147.00 0.01087
1147.10 0.01088
1147.20 0.01089
1147.30 0.0109
1147.40 0.01091
1147.50 0.01092
1147.60 0.01093
1147.70 0.01094
1147.80 0.01095
1147.90 0.01096
1148.00 0.01097
1148.10 0.01098
1148.20 0.01099
1148.30 0.011
1148.40 0.01101
1148.50 0.01102
1148.60 0.01103
1148.70 0.01104
1148.80 0.01105
1148.90 0.01106
1149.00 0.01107
1149.10 0.01108
1149.20 0.01109
1149.30 0.0111
1149.40 0.01111
1149.50 0.01112
1149.60 0.01113
1149.70 0.01114
1149.80 0.01115
1149.90 0.01116
1150.00 0.01117
1150.10 0.01118
1150.20 0.01119
1150.30 0.0112
1150.40 0.01121
1150.50 0.01122
1150.60 0.01123
1150.70 0.01124
1150.80 0.01125
1150.90 0.01126
1151.00 0.01127
1151.10 0.01128
1151.20 0.01129
1151.30 0.0113
1151.40 0.01131
1151.50 0.01132
1151.60 0.01133
1151.70 0.01134
1151.80 0.01135
1151.90 0.01135
1152.00 0.01136
1152.10 0.01138
1152.20 0.01139
1152.30 0.0114
1152.40 0.01141
1152.50 0.01142
1152.60 0.01143
1152.70 0.01144
1152.80 0.01145
1152.90 0.01146
1153.00 0.01147
1153.10 0.01148
1153.20 0.01149
1153.30 0.0115
1153.40 0.01152
1153.50 0.01153
1153.60 0.01154
1153.70 0.01155
1153.80 0.01156
1153.90 0.01157
1154.00 0.01158
1154.10 0.01159
1154.20 0.0116
1154.30 0.01161
1154.40 0.01162
1154.50 0.01163
1154.60 0.01164
1154.70 0.01166
1154.80 0.01167
1154.90 0.01168
1155.00 0.01169
1155.10 0.0117
1155.20 0.01171
1155.30 0.01172
1155.40 0.01173
1155.50 0.01174
1155.60 0.01175
1155.70 0.01176
1155.80 0.01177
1155.90 0.01178
1156.00 0.01179
1156.10 0.0118
1156.20 0.01182
1156.30 0.01183
1156.40 0.01184
1156.50 0.01185
1156.60 0.01186
1156.70 0.01187
1156.80 0.01188
1156.90 0.01189
1157.00 0.0119
1157.10 0.01191
1157.20 0.01192
1157.30 0.01193
1157.40 0.01194
1157.50 0.01195
1157.60 0.01196
1157.70 0.01197
1157.80 0.01197
1157.90 0.01198
1158.00 0.01199
1158.10 0.012
1158.20 0.01201
1158.30 0.01202
1158.40 0.01203
1158.50 0.01204
1158.60 0.01205
1158.70 0.01206
1158.80 0.01207
1158.90 0.01208
1159.00 0.01209
1159.10 0.0121
1159.20 0.01211
1159.30 0.01211
1159.40 0.01212
1159.50 0.01213
1159.60 0.01214
1159.70 0.01215
1159.80 0.01216
1159.90 0.01217
1160.00 0.01218
1160.10 0.01219
1160.20 0.0122
1160.30 0.01221
1160.40 0.01222
1160.50 0.01223
1160.60 0.01223
1160.70 0.01224
1160.80 0.01225
1160.90 0.01226
1161.00 0.01227
1161.10 0.01228
1161.20 0.01229
1161.30 0.0123
1161.40 0.01231
1161.50 0.01232
1161.60 0.01233
1161.70 0.01234
1161.80 0.01234
1161.90 0.01235
1162.00 0.01236
1162.10 0.01237
1162.20 0.01238
1162.30 0.01239
1162.40 0.0124
1162.50 0.0124
1162.60 0.01241
1162.70 0.01242
1162.80 0.01243
1162.90 0.01244
1163.00 0.01245
1163.10 0.01245
1163.20 0.01246
1163.30 0.01247
1163.40 0.01248
1163.50 0.01249
1163.60 0.0125
1163.70 0.0125
1163.80 0.01251
1163.90 0.01252
1164.00 0.01253
1164.10 0.01254
1164.20 0.01255
1164.30 0.01255
1164.40 0.01256
1164.50 0.01257
1164.60 0.01258
1164.70 0.01259
1164.80 0.01259
1164.90 0.0126
1165.00 0.01261
1165.10 0.01262
1165.20 0.01263
1165.30 0.01264
1165.40 0.01264
1165.50 0.01265
1165.60 0.01266
1165.70 0.01267
1165.80 0.01268
1165.90 0.01268
1166.00 0.01269
1166.10 0.0127
1166.20 0.01271
1166.30 0.01272
1166.40 0.01273
1166.50 0.01273
1166.60 0.01274
1166.70 0.01275
1166.80 0.01276
1166.90 0.01277
1167.00 0.01277
1167.10 0.01278
1167.20 0.01279
1167.30 0.0128
1167.40 0.01281
1167.50 0.01282
1167.60 0.01283
1167.70 0.01283
1167.80 0.01284
1167.90 0.01285
1168.00 0.01286
1168.10 0.01287
1168.20 0.01288
1168.30 0.01289
1168.40 0.01289
1168.50 0.0129
1168.60 0.01291
1168.70 0.01292
1168.80 0.01293
1168.90 0.01294
1169.00 0.01294
1169.10 0.01295
1169.20 0.01296
1169.30 0.01297
1169.40 0.01298
1169.50 0.01299
1169.60 0.013
1169.70 0.013
1169.80 0.01301
1169.90 0.01302
1170.00 0.01303
1170.10 0.01304
1170.20 0.01305
1170.30 0.01305
1170.40 0.01306
1170.50 0.01307
1170.60 0.01308
1170.70 0.01309
1170.80 0.0131
1170.90 0.01311
1171.00 0.01311
1171.10 0.01312
1171.20 0.01313
1171.30 0.01314
1171.40 0.01315
1171.50 0.01316
1171.60 0.01316
1171.70 0.01317
1171.80 0.01318
1171.90 0.01319
1172.00 0.0132
1172.10 0.0132
1172.20 0.01321
1172.30 0.01321
1172.40 0.01322
1172.50 0.01322
1172.60 0.01322
1172.70 0.01323
1172.80 0.01323
1172.90 0.01324
1173.00 0.01324
1173.10 0.01325
1173.20 0.01325
1173.30 0.01326
1173.40 0.01326
1173.50 0.01327
1173.60 0.01327
1173.70 0.01327
1173.80 0.01328
1173.90 0.01328
1174.00 0.01329
1174.10 0.01329
1174.20 0.0133
1174.30 0.0133
1174.40 0.01331
1174.50 0.01331
1174.60 0.01331
1174.70 0.01332
1174.80 0.01332
1174.90 0.01333
1175.00 0.01333
1175.10 0.01334
1175.20 0.01334
1175.30 0.01335
1175.40 0.01335
1175.50 0.01335
1175.60 0.01336
1175.70 0.01336
1175.80 0.01337
1175.90 0.01337
1176.00 0.01338
1176.10 0.01338
1176.20 0.01339
1176.30 0.01339
1176.40 0.01339
1176.50 0.0134
1176.60 0.0134
1176.70 0.01341
1176.80 0.01341
1176.90 0.01342
1177.00 0.01342
1177.10 0.01342
1177.20 0.01342
1177.30 0.01343
1177.40 0.01343
1177.50 0.01343
1177.60 0.01343
1177.70 0.01343
1177.80 0.01344
1177.90 0.01344
1178.00 0.01344
1178.10 0.01344
1178.20 0.01344
1178.30 0.01344
1178.40 0.01345
1178.50 0.01345
1178.60 0.01345
1178.70 0.01345
1178.80 0.01345
1178.90 0.01345
1179.00 0.01346
1179.10 0.01346
1179.20 0.01346
1179.30 0.01346
1179.40 0.01346
1179.50 0.01346
1179.60 0.01347
1179.70 0.01347
1179.80 0.01347
1179.90 0.01347
1180.00 0.01347
1180.10 0.01347
1180.20 0.01348
1180.30 0.01348
1180.40 0.01348
1180.50 0.01348
1180.60 0.01348
1180.70 0.01349
1180.80 0.01349
1180.90 0.01349
1181.00 0.01349
1181.10 0.01349
1181.20 0.01349
1181.30 0.0135
1181.40 0.0135
1181.50 0.0135
1181.60 0.0135
1181.70 0.0135
1181.80 0.0135
1181.90 0.01351
1182.00 0.01351
1182.10 0.0135
1182.20 0.0135
1182.30 0.0135
1182.40 0.0135
1182.50 0.01349
1182.60 0.01349
1182.70 0.01349
1182.80 0.01349
1182.90 0.01348
1183.00 0.01348
1183.10 0.01348
1183.20 0.01348
1183.30 0.01347
1183.40 0.01347
1183.50 0.01347
1183.60 0.01347
1183.70 0.01346
1183.80 0.01346
1183.90 0.01346
1184.00 0.01346
1184.10 0.01345
1184.20 0.01345
1184.30 0.01345
1184.40 0.01345
1184.50 0.01344
1184.60 0.01344
1184.70 0.01344
1184.80 0.01344
1184.90 0.01343
1185.00 0.01343
1185.10 0.01343
1185.20 0.01343
1185.30 0.01342
1185.40 0.01342
1185.50 0.01342
1185.60 0.01342
1185.70 0.01341
1185.80 0.01341
1185.90 0.01341
1186.00 0.01341
1186.10 0.0134
1186.20 0.0134
1186.30 0.0134
1186.40 0.0134
1186.50 0.01339
1186.60 0.01339
1186.70 0.01339
1186.80 0.01339
1186.90 0.01338
1187.00 0.01338
1187.10 0.01338
1187.20 0.01338
1187.30 0.01338
1187.40 0.01338
1187.50 0.01338
1187.60 0.01337
1187.70 0.01337
1187.80 0.01337
1187.90 0.01337
1188.00 0.01337
1188.10 0.01337
1188.20 0.01337
1188.30 0.01337
1188.40 0.01336
1188.50 0.01336
1188.60 0.01336
1188.70 0.01336
1188.80 0.01336
1188.90 0.01336
1189.00 0.01336
1189.10 0.01336
1189.20 0.01336
1189.30 0.01335
1189.40 0.01335
1189.50 0.01335
1189.60 0.01335
1189.70 0.01335
1189.80 0.01335
1189.90 0.01335
1190.00 0.01335
1190.10 0.01334
1190.20 0.01334
1190.30 0.01334
1190.40 0.01334
1190.50 0.01334
1190.60 0.01334
1190.70 0.01334
1190.80 0.01334
1190.90 0.01334
1191.00 0.01333
1191.10 0.01333
1191.20 0.01333
1191.30 0.01333
1191.40 0.01333
1191.50 0.01333
1191.60 0.01333
1191.70 0.01333
1191.80 0.01333
1191.90 0.01332
1192.00 0.01332
1192.10 0.01332
1192.20 0.01332
1192.30 0.01332
1192.40 0.01332
1192.50 0.01331
1192.60 0.01331
1192.70 0.01331
1192.80 0.01331
1192.90 0.01331
1193.00 0.01331
1193.10 0.0133
1193.20 0.0133
1193.30 0.0133
1193.40 0.0133
1193.50 0.0133
1193.60 0.0133
1193.70 0.01329
1193.80 0.01329
1193.90 0.01329
1194.00 0.01329
1194.10 0.01329
1194.20 0.01328
1194.30 0.01328
1194.40 0.01328
1194.50 0.01328
1194.60 0.01328
1194.70 0.01328
1194.80 0.01327
1194.90 0.01327
1195.00 0.01327
1195.10 0.01327
1195.20 0.01327
1195.30 0.01327
1195.40 0.01326
1195.50 0.01326
1195.60 0.01326
1195.70 0.01326
1195.80 0.01326
1195.90 0.01326
1196.00 0.01325
1196.10 0.01325
1196.20 0.01325
1196.30 0.01325
1196.40 0.01325
1196.50 0.01324
1196.60 0.01324
1196.70 0.01324
1196.80 0.01324
1196.90 0.01324
1197.00 0.01324
1197.10 0.01323
1197.20 0.01323
1197.30 0.01322
1197.40 0.01322
1197.50 0.01321
1197.60 0.01321
1197.70 0.01321
1197.80 0.0132
1197.90 0.0132
1198.00 0.01319
1198.10 0.01319
1198.20 0.01319
1198.30 0.01318
1198.40 0.01318
1198.50 0.01317
1198.60 0.01317
1198.70 0.01316
1198.80 0.01316
1198.90 0.01316
1199.00 0.01315
1199.10 0.01315
1199.20 0.01314
1199.30 0.01314
1199.40 0.01313
1199.50 0.01313
1199.60 0.01313
1199.70 0.01312
1199.80 0.01312
1199.90 0.01311
1200.00 0
