# Version 2.1 - nm, norm@500 to 1, cut digits, bergeron_85000_65.dat_85000
# Wavelength(nm)  Flambda(ergs/cm^s/s/nm)
300.00 6.703
300.10 6.694
300.20 6.686
300.30 6.678
300.40 6.669
300.50 6.661
300.60 6.653
300.70 6.644
300.80 6.636
300.90 6.628
301.00 6.62
301.10 6.612
301.20 6.603
301.30 6.595
301.40 6.587
301.50 6.579
301.60 6.571
301.70 6.563
301.80 6.554
301.90 6.546
302.00 6.538
302.10 6.53
302.20 6.522
302.30 6.514
302.40 6.506
302.50 6.498
302.60 6.49
302.70 6.482
302.80 6.474
302.90 6.466
303.00 6.458
303.10 6.45
303.20 6.442
303.30 6.434
303.40 6.426
303.50 6.418
303.60 6.41
303.70 6.402
303.80 6.395
303.90 6.387
304.00 6.379
304.10 6.371
304.20 6.363
304.30 6.355
304.40 6.348
304.50 6.34
304.60 6.332
304.70 6.324
304.80 6.317
304.90 6.309
305.00 6.301
305.10 6.293
305.20 6.286
305.30 6.278
305.40 6.27
305.50 6.263
305.60 6.255
305.70 6.247
305.80 6.24
305.90 6.232
306.00 6.224
306.10 6.217
306.20 6.209
306.30 6.202
306.40 6.194
306.50 6.187
306.60 6.179
306.70 6.172
306.80 6.164
306.90 6.156
307.00 6.149
307.10 6.141
307.20 6.134
307.30 6.127
307.40 6.119
307.50 6.112
307.60 6.104
307.70 6.097
307.80 6.089
307.90 6.082
308.00 6.075
308.10 6.067
308.20 6.06
308.30 6.053
308.40 6.045
308.50 6.038
308.60 6.031
308.70 6.023
308.80 6.016
308.90 6.009
309.00 6.001
309.10 5.994
309.20 5.987
309.30 5.98
309.40 5.972
309.50 5.965
309.60 5.958
309.70 5.951
309.80 5.944
309.90 5.936
310.00 5.929
310.10 5.922
310.20 5.915
310.30 5.908
310.40 5.901
310.50 5.894
310.60 5.887
310.70 5.879
310.80 5.872
310.90 5.865
311.00 5.858
311.10 5.851
311.20 5.844
311.30 5.837
311.40 5.83
311.50 5.823
311.60 5.816
311.70 5.809
311.80 5.802
311.90 5.795
312.00 5.788
312.10 5.781
312.20 5.774
312.30 5.768
312.40 5.761
312.50 5.754
312.60 5.747
312.70 5.74
312.80 5.733
312.90 5.726
313.00 5.719
313.10 5.713
313.20 5.706
313.30 5.699
313.40 5.692
313.50 5.685
313.60 5.679
313.70 5.672
313.80 5.665
313.90 5.658
314.00 5.651
314.10 5.645
314.20 5.638
314.30 5.631
314.40 5.625
314.50 5.618
314.60 5.611
314.70 5.605
314.80 5.598
314.90 5.591
315.00 5.585
315.10 5.578
315.20 5.571
315.30 5.565
315.40 5.558
315.50 5.552
315.60 5.545
315.70 5.538
315.80 5.532
315.90 5.525
316.00 5.519
316.10 5.512
316.20 5.506
316.30 5.499
316.40 5.493
316.50 5.486
316.60 5.48
316.70 5.473
316.80 5.467
316.90 5.46
317.00 5.454
317.10 5.447
317.20 5.441
317.30 5.434
317.40 5.428
317.50 5.422
317.60 5.415
317.70 5.409
317.80 5.402
317.90 5.396
318.00 5.39
318.10 5.383
318.20 5.377
318.30 5.371
318.40 5.364
318.50 5.358
318.60 5.352
318.70 5.346
318.80 5.339
318.90 5.333
319.00 5.327
319.10 5.32
319.20 5.314
319.30 5.308
319.40 5.302
319.50 5.296
319.60 5.289
319.70 5.283
319.80 5.277
319.90 5.271
320.00 5.265
320.10 5.258
320.20 5.252
320.30 5.246
320.40 5.24
320.50 5.234
320.60 5.228
320.70 5.222
320.80 5.216
320.90 5.209
321.00 5.203
321.10 5.197
321.20 5.191
321.30 5.185
321.40 5.179
321.50 5.173
321.60 5.167
321.70 5.161
321.80 5.155
321.90 5.149
322.00 5.143
322.10 5.137
322.20 5.131
322.30 5.125
322.40 5.119
322.50 5.113
322.60 5.107
322.70 5.101
322.80 5.095
322.90 5.09
323.00 5.084
323.10 5.078
323.20 5.072
323.30 5.066
323.40 5.06
323.50 5.054
323.60 5.048
323.70 5.042
323.80 5.037
323.90 5.031
324.00 5.025
324.10 5.019
324.20 5.013
324.30 5.008
324.40 5.002
324.50 4.996
324.60 4.99
324.70 4.984
324.80 4.979
324.90 4.973
325.00 4.967
325.10 4.962
325.20 4.956
325.30 4.95
325.40 4.944
325.50 4.939
325.60 4.933
325.70 4.927
325.80 4.922
325.90 4.916
326.00 4.91
326.10 4.905
326.20 4.899
326.30 4.893
326.40 4.888
326.50 4.882
326.60 4.877
326.70 4.871
326.80 4.865
326.90 4.86
327.00 4.854
327.10 4.849
327.20 4.843
327.30 4.838
327.40 4.832
327.50 4.826
327.60 4.821
327.70 4.815
327.80 4.81
327.90 4.804
328.00 4.799
328.10 4.793
328.20 4.788
328.30 4.782
328.40 4.777
328.50 4.772
328.60 4.766
328.70 4.761
328.80 4.755
328.90 4.75
329.00 4.744
329.10 4.739
329.20 4.734
329.30 4.728
329.40 4.723
329.50 4.717
329.60 4.712
329.70 4.707
329.80 4.701
329.90 4.696
330.00 4.691
330.10 4.685
330.20 4.68
330.30 4.675
330.40 4.669
330.50 4.664
330.60 4.659
330.70 4.654
330.80 4.648
330.90 4.643
331.00 4.638
331.10 4.632
331.20 4.627
331.30 4.622
331.40 4.617
331.50 4.612
331.60 4.606
331.70 4.601
331.80 4.596
331.90 4.591
332.00 4.585
332.10 4.58
332.20 4.575
332.30 4.57
332.40 4.565
332.50 4.56
332.60 4.555
332.70 4.549
332.80 4.544
332.90 4.539
333.00 4.534
333.10 4.529
333.20 4.524
333.30 4.519
333.40 4.514
333.50 4.508
333.60 4.503
333.70 4.498
333.80 4.493
333.90 4.488
334.00 4.483
334.10 4.478
334.20 4.473
334.30 4.468
334.40 4.463
334.50 4.458
334.60 4.453
334.70 4.448
334.80 4.443
334.90 4.438
335.00 4.433
335.10 4.428
335.20 4.423
335.30 4.418
335.40 4.413
335.50 4.408
335.60 4.403
335.70 4.398
335.80 4.394
335.90 4.389
336.00 4.384
336.10 4.379
336.20 4.374
336.30 4.369
336.40 4.364
336.50 4.359
336.60 4.354
336.70 4.35
336.80 4.345
336.90 4.34
337.00 4.335
337.10 4.33
337.20 4.325
337.30 4.321
337.40 4.316
337.50 4.311
337.60 4.306
337.70 4.301
337.80 4.297
337.90 4.292
338.00 4.287
338.10 4.282
338.20 4.277
338.30 4.273
338.40 4.268
338.50 4.263
338.60 4.259
338.70 4.254
338.80 4.249
338.90 4.244
339.00 4.24
339.10 4.235
339.20 4.23
339.30 4.226
339.40 4.221
339.50 4.216
339.60 4.212
339.70 4.207
339.80 4.202
339.90 4.198
340.00 4.193
340.10 4.188
340.20 4.184
340.30 4.179
340.40 4.174
340.50 4.17
340.60 4.165
340.70 4.161
340.80 4.156
340.90 4.152
341.00 4.147
341.10 4.142
341.20 4.138
341.30 4.133
341.40 4.129
341.50 4.124
341.60 4.12
341.70 4.115
341.80 4.111
341.90 4.106
342.00 4.101
342.10 4.097
342.20 4.092
342.30 4.088
342.40 4.084
342.50 4.079
342.60 4.075
342.70 4.07
342.80 4.066
342.90 4.061
343.00 4.057
343.10 4.052
343.20 4.048
343.30 4.043
343.40 4.039
343.50 4.035
343.60 4.03
343.70 4.026
343.80 4.021
343.90 4.017
344.00 4.012
344.10 4.008
344.20 4.004
344.30 3.999
344.40 3.995
344.50 3.991
344.60 3.986
344.70 3.982
344.80 3.978
344.90 3.973
345.00 3.969
345.10 3.965
345.20 3.96
345.30 3.956
345.40 3.952
345.50 3.947
345.60 3.943
345.70 3.939
345.80 3.934
345.90 3.93
346.00 3.926
346.10 3.922
346.20 3.917
346.30 3.913
346.40 3.909
346.50 3.905
346.60 3.9
346.70 3.896
346.80 3.892
346.90 3.888
347.00 3.884
347.10 3.879
347.20 3.875
347.30 3.871
347.40 3.867
347.50 3.863
347.60 3.858
347.70 3.854
347.80 3.85
347.90 3.846
348.00 3.842
348.10 3.837
348.20 3.833
348.30 3.829
348.40 3.825
348.50 3.821
348.60 3.817
348.70 3.813
348.80 3.809
348.90 3.805
349.00 3.8
349.10 3.796
349.20 3.792
349.30 3.788
349.40 3.784
349.50 3.78
349.60 3.776
349.70 3.772
349.80 3.768
349.90 3.764
350.00 3.76
350.10 3.756
350.20 3.752
350.30 3.748
350.40 3.744
350.50 3.74
350.60 3.736
350.70 3.731
350.80 3.727
350.90 3.723
351.00 3.72
351.10 3.716
351.20 3.712
351.30 3.708
351.40 3.704
351.50 3.7
351.60 3.696
351.70 3.692
351.80 3.688
351.90 3.684
352.00 3.68
352.10 3.676
352.20 3.672
352.30 3.668
352.40 3.664
352.50 3.66
352.60 3.656
352.70 3.652
352.80 3.649
352.90 3.645
353.00 3.641
353.10 3.637
353.20 3.633
353.30 3.629
353.40 3.625
353.50 3.621
353.60 3.617
353.70 3.614
353.80 3.61
353.90 3.606
354.00 3.602
354.10 3.598
354.20 3.594
354.30 3.591
354.40 3.587
354.50 3.583
354.60 3.579
354.70 3.575
354.80 3.572
354.90 3.568
355.00 3.564
355.10 3.56
355.20 3.556
355.30 3.553
355.40 3.549
355.50 3.545
355.60 3.541
355.70 3.538
355.80 3.534
355.90 3.53
356.00 3.526
356.10 3.523
356.20 3.519
356.30 3.515
356.40 3.512
356.50 3.508
356.60 3.504
356.70 3.5
356.80 3.497
356.90 3.493
357.00 3.489
357.10 3.486
357.20 3.482
357.30 3.478
357.40 3.475
357.50 3.471
357.60 3.467
357.70 3.464
357.80 3.46
357.90 3.456
358.00 3.453
358.10 3.449
358.20 3.445
358.30 3.442
358.40 3.438
358.50 3.435
358.60 3.431
358.70 3.427
358.80 3.424
358.90 3.42
359.00 3.417
359.10 3.413
359.20 3.409
359.30 3.406
359.40 3.402
359.50 3.399
359.60 3.395
359.70 3.392
359.80 3.388
359.90 3.384
360.00 3.381
360.10 3.377
360.20 3.374
360.30 3.37
360.40 3.367
360.50 3.363
360.60 3.36
360.70 3.356
360.80 3.353
360.90 3.349
361.00 3.346
361.10 3.342
361.20 3.339
361.30 3.335
361.40 3.332
361.50 3.328
361.60 3.325
361.70 3.321
361.80 3.318
361.90 3.314
362.00 3.311
362.10 3.308
362.20 3.304
362.30 3.301
362.40 3.297
362.50 3.294
362.60 3.29
362.70 3.287
362.80 3.284
362.90 3.28
363.00 3.277
363.10 3.273
363.20 3.27
363.30 3.267
363.40 3.263
363.50 3.26
363.60 3.256
363.70 3.253
363.80 3.25
363.90 3.246
364.00 3.243
364.10 3.24
364.20 3.236
364.30 3.233
364.40 3.229
364.50 3.226
364.60 3.223
364.70 3.219
364.80 3.216
364.90 3.213
365.00 3.21
365.10 3.206
365.20 3.203
365.30 3.2
365.40 3.196
365.50 3.193
365.60 3.19
365.70 3.186
365.80 3.183
365.90 3.18
366.00 3.177
366.10 3.173
366.20 3.17
366.30 3.167
366.40 3.163
366.50 3.16
366.60 3.157
366.70 3.153
366.80 3.15
366.90 3.147
367.00 3.143
367.10 3.14
367.20 3.137
367.30 3.133
367.40 3.13
367.50 3.127
367.60 3.123
367.70 3.12
367.80 3.117
367.90 3.114
368.00 3.11
368.10 3.107
368.20 3.104
368.30 3.101
368.40 3.097
368.50 3.094
368.60 3.091
368.70 3.088
368.80 3.084
368.90 3.081
369.00 3.078
369.10 3.075
369.20 3.072
369.30 3.068
369.40 3.065
369.50 3.062
369.60 3.059
369.70 3.055
369.80 3.052
369.90 3.049
370.00 3.046
370.10 3.043
370.20 3.04
370.30 3.036
370.40 3.033
370.50 3.03
370.60 3.027
370.70 3.024
370.80 3.021
370.90 3.018
371.00 3.015
371.10 3.011
371.20 3.008
371.30 3.005
371.40 3.002
371.50 2.999
371.60 2.996
371.70 2.993
371.80 2.99
371.90 2.987
372.00 2.983
372.10 2.98
372.20 2.977
372.30 2.975
372.40 2.972
372.50 2.969
372.60 2.966
372.70 2.963
372.80 2.96
372.90 2.957
373.00 2.954
373.10 2.951
373.20 2.948
373.30 2.945
373.40 2.942
373.50 2.939
373.60 2.936
373.70 2.933
373.80 2.93
373.90 2.927
374.00 2.924
374.10 2.921
374.20 2.919
374.30 2.916
374.40 2.913
374.50 2.91
374.60 2.907
374.70 2.905
374.80 2.902
374.90 2.899
375.00 2.896
375.10 2.893
375.20 2.891
375.30 2.888
375.40 2.885
375.50 2.882
375.60 2.88
375.70 2.877
375.80 2.874
375.90 2.871
376.00 2.868
376.10 2.865
376.20 2.862
376.30 2.859
376.40 2.856
376.50 2.853
376.60 2.85
376.70 2.847
376.80 2.843
376.90 2.84
377.00 2.837
377.10 2.835
377.20 2.833
377.30 2.831
377.40 2.829
377.50 2.827
377.60 2.824
377.70 2.822
377.80 2.82
377.90 2.818
378.00 2.816
378.10 2.813
378.20 2.81
378.30 2.807
378.40 2.804
378.50 2.801
378.60 2.797
378.70 2.794
378.80 2.791
378.90 2.788
379.00 2.785
379.10 2.782
379.20 2.778
379.30 2.775
379.40 2.772
379.50 2.768
379.60 2.765
379.70 2.762
379.80 2.758
379.90 2.755
380.00 2.752
380.10 2.751
380.20 2.75
380.30 2.749
380.40 2.748
380.50 2.747
380.60 2.745
380.70 2.744
380.80 2.743
380.90 2.742
381.00 2.741
381.10 2.739
381.20 2.737
381.30 2.734
381.40 2.732
381.50 2.73
381.60 2.727
381.70 2.724
381.80 2.721
381.90 2.717
382.00 2.713
382.10 2.709
382.20 2.705
382.30 2.699
382.40 2.694
382.50 2.688
382.60 2.682
382.70 2.677
382.80 2.671
382.90 2.665
383.00 2.66
383.10 2.654
383.20 2.649
383.30 2.642
383.40 2.635
383.50 2.63
383.60 2.628
383.70 2.629
383.80 2.632
383.90 2.634
384.00 2.636
384.10 2.638
384.20 2.64
384.30 2.641
384.40 2.643
384.50 2.644
384.60 2.644
384.70 2.645
384.80 2.645
384.90 2.645
385.00 2.645
385.10 2.644
385.20 2.644
385.30 2.643
385.40 2.642
385.50 2.64
385.60 2.639
385.70 2.637
385.80 2.635
385.90 2.633
386.00 2.631
386.10 2.628
386.20 2.625
386.30 2.622
386.40 2.619
386.50 2.616
386.60 2.612
386.70 2.608
386.80 2.604
386.90 2.6
387.00 2.595
387.10 2.59
387.20 2.585
387.30 2.579
387.40 2.573
387.50 2.567
387.60 2.56
387.70 2.553
387.80 2.545
387.90 2.537
388.00 2.529
388.10 2.52
388.20 2.51
388.30 2.5
388.40 2.49
388.50 2.479
388.60 2.467
388.70 2.456
388.80 2.448
388.90 2.442
389.00 2.443
389.10 2.447
389.20 2.453
389.30 2.46
389.40 2.467
389.50 2.473
389.60 2.478
389.70 2.483
389.80 2.488
389.90 2.492
390.00 2.495
390.10 2.499
390.20 2.501
390.30 2.503
390.40 2.505
390.50 2.507
390.60 2.508
390.70 2.509
390.80 2.51
390.90 2.511
391.00 2.511
391.10 2.511
391.20 2.511
391.30 2.51
391.40 2.51
391.50 2.509
391.60 2.508
391.70 2.507
391.80 2.506
391.90 2.505
392.00 2.503
392.10 2.502
392.20 2.5
392.30 2.498
392.40 2.497
392.50 2.495
392.60 2.493
392.70 2.49
392.80 2.488
392.90 2.486
393.00 2.483
393.10 2.481
393.20 2.478
393.30 2.475
393.40 2.473
393.50 2.47
393.60 2.467
393.70 2.464
393.80 2.46
393.90 2.457
394.00 2.453
394.10 2.45
394.20 2.446
394.30 2.442
394.40 2.437
394.50 2.433
394.60 2.428
394.70 2.423
394.80 2.418
394.90 2.413
395.00 2.407
395.10 2.401
395.20 2.395
395.30 2.388
395.40 2.38
395.50 2.373
395.60 2.364
395.70 2.355
395.80 2.346
395.90 2.336
396.00 2.325
396.10 2.314
396.20 2.301
396.30 2.288
396.40 2.274
396.50 2.258
396.60 2.242
396.70 2.225
396.80 2.205
396.90 2.186
397.00 2.167
397.10 2.18
397.20 2.194
397.30 2.21
397.40 2.223
397.50 2.236
397.60 2.247
397.70 2.257
397.80 2.266
397.90 2.274
398.00 2.281
398.10 2.288
398.20 2.294
398.30 2.299
398.40 2.303
398.50 2.307
398.60 2.311
398.70 2.314
398.80 2.316
398.90 2.318
399.00 2.32
399.10 2.321
399.20 2.322
399.30 2.323
399.40 2.324
399.50 2.324
399.60 2.324
399.70 2.324
399.80 2.324
399.90 2.323
400.00 2.323
400.10 2.322
400.20 2.321
400.30 2.32
400.40 2.319
400.50 2.318
400.60 2.317
400.70 2.315
400.80 2.314
400.90 2.312
401.00 2.311
401.10 2.309
401.20 2.308
401.30 2.306
401.40 2.305
401.50 2.303
401.60 2.301
401.70 2.299
401.80 2.297
401.90 2.296
402.00 2.294
402.10 2.292
402.20 2.29
402.30 2.288
402.40 2.286
402.50 2.284
402.60 2.282
402.70 2.28
402.80 2.278
402.90 2.276
403.00 2.274
403.10 2.272
403.20 2.27
403.30 2.268
403.40 2.266
403.50 2.264
403.60 2.261
403.70 2.259
403.80 2.257
403.90 2.255
404.00 2.253
404.10 2.251
404.20 2.248
404.30 2.246
404.40 2.244
404.50 2.242
404.60 2.239
404.70 2.237
404.80 2.235
404.90 2.233
405.00 2.23
405.10 2.228
405.20 2.225
405.30 2.223
405.40 2.221
405.50 2.218
405.60 2.216
405.70 2.213
405.80 2.211
405.90 2.208
406.00 2.205
406.10 2.203
406.20 2.2
406.30 2.197
406.40 2.194
406.50 2.192
406.60 2.189
406.70 2.186
406.80 2.182
406.90 2.179
407.00 2.176
407.10 2.172
407.20 2.169
407.30 2.165
407.40 2.161
407.50 2.157
407.60 2.153
407.70 2.148
407.80 2.144
407.90 2.139
408.00 2.133
408.10 2.128
408.20 2.122
408.30 2.115
408.40 2.109
408.50 2.101
408.60 2.094
408.70 2.085
408.80 2.076
408.90 2.066
409.00 2.056
409.10 2.044
409.20 2.032
409.30 2.019
409.40 2.004
409.50 1.988
409.60 1.971
409.70 1.951
409.80 1.929
409.90 1.905
410.00 1.876
410.10 1.856
410.20 1.846
410.30 1.863
410.40 1.884
410.50 1.908
410.60 1.927
410.70 1.943
410.80 1.958
410.90 1.971
411.00 1.982
411.10 1.993
411.20 2.001
411.30 2.009
411.40 2.017
411.50 2.023
411.60 2.028
411.70 2.033
411.80 2.037
411.90 2.041
412.00 2.044
412.10 2.046
412.20 2.048
412.30 2.05
412.40 2.051
412.50 2.053
412.60 2.053
412.70 2.054
412.80 2.054
412.90 2.054
413.00 2.054
413.10 2.054
413.20 2.054
413.30 2.053
413.40 2.053
413.50 2.052
413.60 2.051
413.70 2.05
413.80 2.049
413.90 2.048
414.00 2.047
414.10 2.046
414.20 2.045
414.30 2.044
414.40 2.042
414.50 2.041
414.60 2.04
414.70 2.038
414.80 2.037
414.90 2.035
415.00 2.034
415.10 2.032
415.20 2.031
415.30 2.029
415.40 2.027
415.50 2.026
415.60 2.024
415.70 2.023
415.80 2.021
415.90 2.019
416.00 2.018
416.10 2.016
416.20 2.014
416.30 2.013
416.40 2.011
416.50 2.009
416.60 2.008
416.70 2.006
416.80 2.004
416.90 2.002
417.00 2.001
417.10 1.999
417.20 1.997
417.30 1.995
417.40 1.994
417.50 1.992
417.60 1.99
417.70 1.989
417.80 1.987
417.90 1.985
418.00 1.983
418.10 1.982
418.20 1.98
418.30 1.978
418.40 1.976
418.50 1.975
418.60 1.973
418.70 1.971
418.80 1.969
418.90 1.968
419.00 1.966
419.10 1.964
419.20 1.962
419.30 1.961
419.40 1.959
419.50 1.957
419.60 1.955
419.70 1.954
419.80 1.952
419.90 1.95
420.00 1.948
420.10 1.947
420.20 1.945
420.30 1.943
420.40 1.941
420.50 1.94
420.60 1.938
420.70 1.936
420.80 1.934
420.90 1.933
421.00 1.931
421.10 1.929
421.20 1.927
421.30 1.926
421.40 1.924
421.50 1.922
421.60 1.92
421.70 1.919
421.80 1.917
421.90 1.915
422.00 1.913
422.10 1.912
422.20 1.91
422.30 1.908
422.40 1.907
422.50 1.905
422.60 1.903
422.70 1.901
422.80 1.9
422.90 1.898
423.00 1.896
423.10 1.894
423.20 1.893
423.30 1.891
423.40 1.889
423.50 1.888
423.60 1.886
423.70 1.884
423.80 1.882
423.90 1.881
424.00 1.879
424.10 1.877
424.20 1.876
424.30 1.874
424.40 1.872
424.50 1.871
424.60 1.869
424.70 1.867
424.80 1.865
424.90 1.864
425.00 1.862
425.10 1.86
425.20 1.859
425.30 1.857
425.40 1.855
425.50 1.853
425.60 1.852
425.70 1.85
425.80 1.848
425.90 1.847
426.00 1.845
426.10 1.843
426.20 1.841
426.30 1.84
426.40 1.838
426.50 1.836
426.60 1.835
426.70 1.833
426.80 1.831
426.90 1.829
427.00 1.828
427.10 1.826
427.20 1.824
427.30 1.823
427.40 1.821
427.50 1.819
427.60 1.817
427.70 1.816
427.80 1.814
427.90 1.812
428.00 1.81
428.10 1.809
428.20 1.807
428.30 1.805
428.40 1.803
428.50 1.801
428.60 1.8
428.70 1.798
428.80 1.796
428.90 1.794
429.00 1.792
429.10 1.79
429.20 1.789
429.30 1.787
429.40 1.785
429.50 1.783
429.60 1.781
429.70 1.779
429.80 1.777
429.90 1.775
430.00 1.773
430.10 1.771
430.20 1.768
430.30 1.766
430.40 1.764
430.50 1.762
430.60 1.759
430.70 1.757
430.80 1.754
430.90 1.752
431.00 1.749
431.10 1.746
431.20 1.743
431.30 1.74
431.40 1.737
431.50 1.734
431.60 1.73
431.70 1.726
431.80 1.722
431.90 1.718
432.00 1.713
432.10 1.709
432.20 1.703
432.30 1.698
432.40 1.692
432.50 1.685
432.60 1.677
432.70 1.67
432.80 1.661
432.90 1.652
433.00 1.642
433.10 1.63
433.20 1.618
433.30 1.604
433.40 1.589
433.50 1.572
433.60 1.553
433.70 1.53
433.80 1.501
433.90 1.467
434.00 1.433
434.10 1.433
434.20 1.466
434.30 1.497
434.40 1.522
434.50 1.543
434.60 1.558
434.70 1.572
434.80 1.585
434.90 1.595
435.00 1.605
435.10 1.613
435.20 1.62
435.30 1.627
435.40 1.632
435.50 1.637
435.60 1.641
435.70 1.645
435.80 1.648
435.90 1.65
436.00 1.652
436.10 1.654
436.20 1.656
436.30 1.657
436.40 1.658
436.50 1.658
436.60 1.659
436.70 1.659
436.80 1.659
436.90 1.659
437.00 1.659
437.10 1.659
437.20 1.658
437.30 1.658
437.40 1.657
437.50 1.657
437.60 1.656
437.70 1.655
437.80 1.654
437.90 1.653
438.00 1.652
438.10 1.652
438.20 1.651
438.30 1.65
438.40 1.648
438.50 1.647
438.60 1.646
438.70 1.645
438.80 1.644
438.90 1.643
439.00 1.642
439.10 1.641
439.20 1.639
439.30 1.638
439.40 1.637
439.50 1.636
439.60 1.634
439.70 1.633
439.80 1.632
439.90 1.631
440.00 1.629
440.10 1.628
440.20 1.627
440.30 1.625
440.40 1.624
440.50 1.623
440.60 1.622
440.70 1.62
440.80 1.619
440.90 1.618
441.00 1.616
441.10 1.615
441.20 1.614
441.30 1.612
441.40 1.611
441.50 1.61
441.60 1.608
441.70 1.607
441.80 1.606
441.90 1.604
442.00 1.603
442.10 1.602
442.20 1.6
442.30 1.599
442.40 1.598
442.50 1.596
442.60 1.595
442.70 1.594
442.80 1.592
442.90 1.591
443.00 1.59
443.10 1.588
443.20 1.587
443.30 1.586
443.40 1.584
443.50 1.583
443.60 1.582
443.70 1.58
443.80 1.579
443.90 1.578
444.00 1.576
444.10 1.575
444.20 1.574
444.30 1.572
444.40 1.571
444.50 1.57
444.60 1.568
444.70 1.567
444.80 1.566
444.90 1.564
445.00 1.563
445.10 1.562
445.20 1.56
445.30 1.559
445.40 1.558
445.50 1.556
445.60 1.555
445.70 1.554
445.80 1.552
445.90 1.551
446.00 1.55
446.10 1.548
446.20 1.547
446.30 1.546
446.40 1.544
446.50 1.543
446.60 1.542
446.70 1.54
446.80 1.539
446.90 1.538
447.00 1.536
447.10 1.535
447.20 1.534
447.30 1.533
447.40 1.531
447.50 1.53
447.60 1.529
447.70 1.527
447.80 1.526
447.90 1.525
448.00 1.523
448.10 1.522
448.20 1.521
448.30 1.52
448.40 1.518
448.50 1.517
448.60 1.516
448.70 1.514
448.80 1.513
448.90 1.512
449.00 1.511
449.10 1.509
449.20 1.508
449.30 1.507
449.40 1.505
449.50 1.504
449.60 1.503
449.70 1.502
449.80 1.5
449.90 1.499
450.00 1.498
450.10 1.497
450.20 1.495
450.30 1.494
450.40 1.493
450.50 1.491
450.60 1.49
450.70 1.489
450.80 1.488
450.90 1.486
451.00 1.485
451.10 1.484
451.20 1.483
451.30 1.481
451.40 1.48
451.50 1.479
451.60 1.478
451.70 1.476
451.80 1.475
451.90 1.474
452.00 1.473
452.10 1.471
452.20 1.47
452.30 1.469
452.40 1.468
452.50 1.466
452.60 1.465
452.70 1.464
452.80 1.463
452.90 1.462
453.00 1.46
453.10 1.459
453.20 1.458
453.30 1.457
453.40 1.455
453.50 1.454
453.60 1.453
453.70 1.452
453.80 1.45
453.90 1.449
454.00 1.448
454.10 1.447
454.20 1.446
454.30 1.444
454.40 1.443
454.50 1.442
454.60 1.441
454.70 1.44
454.80 1.438
454.90 1.437
455.00 1.436
455.10 1.435
455.20 1.433
455.30 1.432
455.40 1.431
455.50 1.43
455.60 1.429
455.70 1.427
455.80 1.426
455.90 1.425
456.00 1.424
456.10 1.423
456.20 1.421
456.30 1.42
456.40 1.419
456.50 1.418
456.60 1.417
456.70 1.416
456.80 1.414
456.90 1.413
457.00 1.412
457.10 1.411
457.20 1.41
457.30 1.408
457.40 1.407
457.50 1.406
457.60 1.405
457.70 1.404
457.80 1.403
457.90 1.401
458.00 1.4
458.10 1.399
458.20 1.398
458.30 1.397
458.40 1.396
458.50 1.394
458.60 1.393
458.70 1.392
458.80 1.391
458.90 1.39
459.00 1.389
459.10 1.387
459.20 1.386
459.30 1.385
459.40 1.384
459.50 1.383
459.60 1.382
459.70 1.38
459.80 1.379
459.90 1.378
460.00 1.377
460.10 1.376
460.20 1.375
460.30 1.374
460.40 1.372
460.50 1.371
460.60 1.37
460.70 1.369
460.80 1.368
460.90 1.367
461.00 1.366
461.10 1.364
461.20 1.363
461.30 1.362
461.40 1.361
461.50 1.36
461.60 1.359
461.70 1.358
461.80 1.357
461.90 1.355
462.00 1.354
462.10 1.353
462.20 1.352
462.30 1.351
462.40 1.35
462.50 1.349
462.60 1.348
462.70 1.346
462.80 1.345
462.90 1.344
463.00 1.343
463.10 1.342
463.20 1.341
463.30 1.34
463.40 1.339
463.50 1.338
463.60 1.336
463.70 1.335
463.80 1.334
463.90 1.333
464.00 1.332
464.10 1.331
464.20 1.33
464.30 1.329
464.40 1.328
464.50 1.327
464.60 1.325
464.70 1.324
464.80 1.323
464.90 1.322
465.00 1.321
465.10 1.32
465.20 1.319
465.30 1.318
465.40 1.317
465.50 1.316
465.60 1.315
465.70 1.314
465.80 1.312
465.90 1.311
466.00 1.31
466.10 1.309
466.20 1.308
466.30 1.307
466.40 1.306
466.50 1.305
466.60 1.304
466.70 1.303
466.80 1.302
466.90 1.301
467.00 1.3
467.10 1.298
467.20 1.297
467.30 1.296
467.40 1.295
467.50 1.294
467.60 1.293
467.70 1.292
467.80 1.291
467.90 1.29
468.00 1.289
468.10 1.288
468.20 1.287
468.30 1.286
468.40 1.285
468.50 1.284
468.60 1.283
468.70 1.282
468.80 1.28
468.90 1.279
469.00 1.278
469.10 1.277
469.20 1.276
469.30 1.275
469.40 1.274
469.50 1.273
469.60 1.272
469.70 1.271
469.80 1.27
469.90 1.269
470.00 1.268
470.10 1.267
470.20 1.266
470.30 1.265
470.40 1.264
470.50 1.263
470.60 1.262
470.70 1.261
470.80 1.26
470.90 1.259
471.00 1.258
471.10 1.257
471.20 1.256
471.30 1.255
471.40 1.253
471.50 1.252
471.60 1.251
471.70 1.25
471.80 1.249
471.90 1.248
472.00 1.247
472.10 1.246
472.20 1.245
472.30 1.244
472.40 1.243
472.50 1.242
472.60 1.241
472.70 1.24
472.80 1.239
472.90 1.238
473.00 1.237
473.10 1.236
473.20 1.235
473.30 1.234
473.40 1.233
473.50 1.232
473.60 1.231
473.70 1.23
473.80 1.229
473.90 1.228
474.00 1.227
474.10 1.226
474.20 1.225
474.30 1.224
474.40 1.223
474.50 1.222
474.60 1.221
474.70 1.22
474.80 1.219
474.90 1.218
475.00 1.217
475.10 1.216
475.20 1.215
475.30 1.214
475.40 1.213
475.50 1.212
475.60 1.211
475.70 1.21
475.80 1.209
475.90 1.208
476.00 1.207
476.10 1.206
476.20 1.205
476.30 1.204
476.40 1.203
476.50 1.202
476.60 1.201
476.70 1.2
476.80 1.199
476.90 1.198
477.00 1.197
477.10 1.196
477.20 1.195
477.30 1.194
477.40 1.193
477.50 1.192
477.60 1.191
477.70 1.19
477.80 1.189
477.90 1.188
478.00 1.187
478.10 1.186
478.20 1.185
478.30 1.184
478.40 1.183
478.50 1.182
478.60 1.181
478.70 1.18
478.80 1.179
478.90 1.178
479.00 1.177
479.10 1.176
479.20 1.175
479.30 1.174
479.40 1.173
479.50 1.172
479.60 1.171
479.70 1.17
479.80 1.169
479.90 1.168
480.00 1.167
480.10 1.166
480.20 1.165
480.30 1.164
480.40 1.163
480.50 1.162
480.60 1.161
480.70 1.16
480.80 1.159
480.90 1.158
481.00 1.157
481.10 1.156
481.20 1.154
481.30 1.153
481.40 1.152
481.50 1.151
481.60 1.15
481.70 1.149
481.80 1.147
481.90 1.146
482.00 1.145
482.10 1.144
482.20 1.143
482.30 1.141
482.40 1.14
482.50 1.138
482.60 1.137
482.70 1.135
482.80 1.134
482.90 1.132
483.00 1.131
483.10 1.13
483.20 1.128
483.30 1.125
483.40 1.123
483.50 1.121
483.60 1.119
483.70 1.117
483.80 1.114
483.90 1.112
484.00 1.11
484.10 1.108
484.20 1.105
484.30 1.101
484.40 1.098
484.50 1.094
484.60 1.09
484.70 1.085
484.80 1.08
484.90 1.074
485.00 1.069
485.10 1.063
485.20 1.056
485.30 1.048
485.40 1.039
485.50 1.03
485.60 1.018
485.70 1.005
485.80 0.9851
485.90 0.9627
486.00 0.9285
486.10 0.9009
486.20 0.9017
486.30 0.9406
486.40 0.966
486.50 0.9871
486.60 1.002
486.70 1.013
486.80 1.023
486.90 1.031
487.00 1.037
487.10 1.043
487.20 1.048
487.30 1.052
487.40 1.056
487.50 1.059
487.60 1.063
487.70 1.066
487.80 1.067
487.90 1.069
488.00 1.071
488.10 1.073
488.20 1.074
488.30 1.074
488.40 1.074
488.50 1.075
488.60 1.075
488.70 1.076
488.80 1.076
488.90 1.077
489.00 1.077
489.10 1.077
489.20 1.077
489.30 1.077
489.40 1.077
489.50 1.076
489.60 1.076
489.70 1.075
489.80 1.075
489.90 1.075
490.00 1.074
490.10 1.074
490.20 1.074
490.30 1.073
490.40 1.072
490.50 1.072
490.60 1.071
490.70 1.071
490.80 1.07
490.90 1.069
491.00 1.069
491.10 1.068
491.20 1.067
491.30 1.067
491.40 1.066
491.50 1.065
491.60 1.065
491.70 1.064
491.80 1.063
491.90 1.062
492.00 1.062
492.10 1.061
492.20 1.06
492.30 1.06
492.40 1.059
492.50 1.058
492.60 1.057
492.70 1.057
492.80 1.056
492.90 1.055
493.00 1.054
493.10 1.054
493.20 1.053
493.30 1.052
493.40 1.051
493.50 1.05
493.60 1.05
493.70 1.049
493.80 1.048
493.90 1.047
494.00 1.047
494.10 1.046
494.20 1.045
494.30 1.044
494.40 1.043
494.50 1.043
494.60 1.042
494.70 1.041
494.80 1.04
494.90 1.04
495.00 1.039
495.10 1.038
495.20 1.037
495.30 1.036
495.40 1.036
495.50 1.035
495.60 1.034
495.70 1.033
495.80 1.033
495.90 1.032
496.00 1.031
496.10 1.03
496.20 1.029
496.30 1.029
496.40 1.028
496.50 1.027
496.60 1.026
496.70 1.025
496.80 1.025
496.90 1.024
497.00 1.023
497.10 1.022
497.20 1.022
497.30 1.021
497.40 1.02
497.50 1.019
497.60 1.018
497.70 1.018
497.80 1.017
497.90 1.016
498.00 1.015
498.10 1.015
498.20 1.014
498.30 1.013
498.40 1.012
498.50 1.012
498.60 1.011
498.70 1.01
498.80 1.009
498.90 1.008
499.00 1.008
499.10 1.007
499.20 1.006
499.30 1.005
499.40 1.005
499.50 1.004
499.60 1.003
499.70 1.002
499.80 1.002
499.90 1.001
500.00 1
500.10 0.9992
500.20 0.9985
500.30 0.9977
500.40 0.997
500.50 0.9962
500.60 0.9954
500.70 0.9947
500.80 0.9939
500.90 0.9932
501.00 0.9924
501.10 0.9916
501.20 0.9909
501.30 0.9901
501.40 0.9894
501.50 0.9886
501.60 0.9879
501.70 0.9871
501.80 0.9864
501.90 0.9856
502.00 0.9849
502.10 0.9841
502.20 0.9834
502.30 0.9826
502.40 0.9819
502.50 0.9811
502.60 0.9804
502.70 0.9796
502.80 0.9789
502.90 0.9781
503.00 0.9774
503.10 0.9767
503.20 0.9759
503.30 0.9752
503.40 0.9744
503.50 0.9737
503.60 0.9729
503.70 0.9722
503.80 0.9715
503.90 0.9707
504.00 0.97
504.10 0.9692
504.20 0.9685
504.30 0.9678
504.40 0.967
504.50 0.9663
504.60 0.9656
504.70 0.9648
504.80 0.9641
504.90 0.9634
505.00 0.9626
505.10 0.9619
505.20 0.9612
505.30 0.9605
505.40 0.9597
505.50 0.959
505.60 0.9583
505.70 0.9575
505.80 0.9568
505.90 0.9561
506.00 0.9554
506.10 0.9546
506.20 0.9539
506.30 0.9532
506.40 0.9525
506.50 0.9518
506.60 0.951
506.70 0.9503
506.80 0.9496
506.90 0.9489
507.00 0.9482
507.10 0.9475
507.20 0.9467
507.30 0.946
507.40 0.9453
507.50 0.9446
507.60 0.9439
507.70 0.9432
507.80 0.9424
507.90 0.9417
508.00 0.941
508.10 0.9403
508.20 0.9396
508.30 0.9389
508.40 0.9382
508.50 0.9375
508.60 0.9368
508.70 0.9361
508.80 0.9354
508.90 0.9347
509.00 0.934
509.10 0.9333
509.20 0.9326
509.30 0.9319
509.40 0.9311
509.50 0.9304
509.60 0.9297
509.70 0.929
509.80 0.9283
509.90 0.9276
510.00 0.927
510.10 0.9263
510.20 0.9256
510.30 0.9249
510.40 0.9242
510.50 0.9235
510.60 0.9228
510.70 0.9221
510.80 0.9214
510.90 0.9207
511.00 0.92
511.10 0.9193
511.20 0.9186
511.30 0.9179
511.40 0.9172
511.50 0.9166
511.60 0.9159
511.70 0.9152
511.80 0.9145
511.90 0.9138
512.00 0.9131
512.10 0.9124
512.20 0.9118
512.30 0.9111
512.40 0.9104
512.50 0.9097
512.60 0.909
512.70 0.9083
512.80 0.9077
512.90 0.907
513.00 0.9063
513.10 0.9056
513.20 0.905
513.30 0.9043
513.40 0.9036
513.50 0.9029
513.60 0.9023
513.70 0.9016
513.80 0.9009
513.90 0.9002
514.00 0.8996
514.10 0.8989
514.20 0.8982
514.30 0.8975
514.40 0.8969
514.50 0.8962
514.60 0.8955
514.70 0.8949
514.80 0.8942
514.90 0.8935
515.00 0.8929
515.10 0.8922
515.20 0.8915
515.30 0.8909
515.40 0.8902
515.50 0.8895
515.60 0.8889
515.70 0.8882
515.80 0.8876
515.90 0.8869
516.00 0.8862
516.10 0.8856
516.20 0.8849
516.30 0.8843
516.40 0.8836
516.50 0.8829
516.60 0.8823
516.70 0.8816
516.80 0.881
516.90 0.8803
517.00 0.8797
517.10 0.879
517.20 0.8784
517.30 0.8777
517.40 0.8771
517.50 0.8764
517.60 0.8758
517.70 0.8751
517.80 0.8745
517.90 0.8738
518.00 0.8732
518.10 0.8725
518.20 0.8719
518.30 0.8712
518.40 0.8706
518.50 0.8699
518.60 0.8693
518.70 0.8686
518.80 0.868
518.90 0.8674
519.00 0.8667
519.10 0.8661
519.20 0.8654
519.30 0.8648
519.40 0.8642
519.50 0.8635
519.60 0.8629
519.70 0.8622
519.80 0.8616
519.90 0.861
520.00 0.8603
520.10 0.8597
520.20 0.8591
520.30 0.8584
520.40 0.8578
520.50 0.8572
520.60 0.8565
520.70 0.8559
520.80 0.8553
520.90 0.8546
521.00 0.854
521.10 0.8534
521.20 0.8527
521.30 0.8521
521.40 0.8515
521.50 0.8509
521.60 0.8502
521.70 0.8496
521.80 0.849
521.90 0.8484
522.00 0.8477
522.10 0.8471
522.20 0.8465
522.30 0.8459
522.40 0.8452
522.50 0.8446
522.60 0.844
522.70 0.8434
522.80 0.8428
522.90 0.8421
523.00 0.8415
523.10 0.8409
523.20 0.8403
523.30 0.8397
523.40 0.8391
523.50 0.8384
523.60 0.8378
523.70 0.8372
523.80 0.8366
523.90 0.836
524.00 0.8354
524.10 0.8348
524.20 0.8341
524.30 0.8335
524.40 0.8329
524.50 0.8323
524.60 0.8317
524.70 0.8311
524.80 0.8305
524.90 0.8299
525.00 0.8293
525.10 0.8287
525.20 0.828
525.30 0.8274
525.40 0.8268
525.50 0.8262
525.60 0.8256
525.70 0.825
525.80 0.8244
525.90 0.8238
526.00 0.8232
526.10 0.8226
526.20 0.822
526.30 0.8214
526.40 0.8208
526.50 0.8202
526.60 0.8196
526.70 0.819
526.80 0.8184
526.90 0.8178
527.00 0.8172
527.10 0.8166
527.20 0.816
527.30 0.8154
527.40 0.8149
527.50 0.8143
527.60 0.8137
527.70 0.8131
527.80 0.8125
527.90 0.8119
528.00 0.8113
528.10 0.8107
528.20 0.8101
528.30 0.8095
528.40 0.8089
528.50 0.8084
528.60 0.8078
528.70 0.8072
528.80 0.8066
528.90 0.806
529.00 0.8054
529.10 0.8048
529.20 0.8042
529.30 0.8037
529.40 0.8031
529.50 0.8025
529.60 0.8019
529.70 0.8013
529.80 0.8008
529.90 0.8002
530.00 0.7996
530.10 0.799
530.20 0.7984
530.30 0.7978
530.40 0.7973
530.50 0.7967
530.60 0.7961
530.70 0.7955
530.80 0.795
530.90 0.7944
531.00 0.7938
531.10 0.7932
531.20 0.7927
531.30 0.7921
531.40 0.7915
531.50 0.7909
531.60 0.7904
531.70 0.7898
531.80 0.7892
531.90 0.7887
532.00 0.7881
532.10 0.7875
532.20 0.787
532.30 0.7864
532.40 0.7858
532.50 0.7852
532.60 0.7847
532.70 0.7841
532.80 0.7835
532.90 0.783
533.00 0.7824
533.10 0.7819
533.20 0.7813
533.30 0.7807
533.40 0.7802
533.50 0.7796
533.60 0.779
533.70 0.7785
533.80 0.7779
533.90 0.7774
534.00 0.7768
534.10 0.7762
534.20 0.7757
534.30 0.7751
534.40 0.7746
534.50 0.774
534.60 0.7734
534.70 0.7729
534.80 0.7723
534.90 0.7718
535.00 0.7712
535.10 0.7707
535.20 0.7701
535.30 0.7696
535.40 0.769
535.50 0.7685
535.60 0.7679
535.70 0.7674
535.80 0.7668
535.90 0.7663
536.00 0.7657
536.10 0.7652
536.20 0.7646
536.30 0.7641
536.40 0.7635
536.50 0.763
536.60 0.7624
536.70 0.7619
536.80 0.7613
536.90 0.7608
537.00 0.7602
537.10 0.7597
537.20 0.7591
537.30 0.7586
537.40 0.7581
537.50 0.7575
537.60 0.757
537.70 0.7564
537.80 0.7559
537.90 0.7554
538.00 0.7548
538.10 0.7543
538.20 0.7537
538.30 0.7532
538.40 0.7527
538.50 0.7521
538.60 0.7516
538.70 0.7511
538.80 0.7505
538.90 0.75
539.00 0.7494
539.10 0.7489
539.20 0.7484
539.30 0.7478
539.40 0.7473
539.50 0.7468
539.60 0.7462
539.70 0.7457
539.80 0.7452
539.90 0.7447
540.00 0.7441
540.10 0.7436
540.20 0.7431
540.30 0.7425
540.40 0.742
540.50 0.7415
540.60 0.7409
540.70 0.7404
540.80 0.7399
540.90 0.7394
541.00 0.7388
541.10 0.7383
541.20 0.7378
541.30 0.7373
541.40 0.7367
541.50 0.7362
541.60 0.7357
541.70 0.7352
541.80 0.7346
541.90 0.7341
542.00 0.7336
542.10 0.7331
542.20 0.7326
542.30 0.732
542.40 0.7315
542.50 0.731
542.60 0.7305
542.70 0.73
542.80 0.7295
542.90 0.7289
543.00 0.7284
543.10 0.7279
543.20 0.7274
543.30 0.7269
543.40 0.7264
543.50 0.7258
543.60 0.7253
543.70 0.7248
543.80 0.7243
543.90 0.7238
544.00 0.7233
544.10 0.7228
544.20 0.7223
544.30 0.7218
544.40 0.7212
544.50 0.7207
544.60 0.7202
544.70 0.7197
544.80 0.7192
544.90 0.7187
545.00 0.7182
545.10 0.7177
545.20 0.7172
545.30 0.7167
545.40 0.7162
545.50 0.7157
545.60 0.7152
545.70 0.7147
545.80 0.7141
545.90 0.7136
546.00 0.7131
546.10 0.7126
546.20 0.7121
546.30 0.7116
546.40 0.7111
546.50 0.7106
546.60 0.7101
546.70 0.7096
546.80 0.7091
546.90 0.7086
547.00 0.7081
547.10 0.7076
547.20 0.7071
547.30 0.7066
547.40 0.7061
547.50 0.7056
547.60 0.7052
547.70 0.7047
547.80 0.7042
547.90 0.7037
548.00 0.7032
548.10 0.7027
548.20 0.7022
548.30 0.7017
548.40 0.7012
548.50 0.7007
548.60 0.7002
548.70 0.6997
548.80 0.6992
548.90 0.6987
549.00 0.6983
549.10 0.6978
549.20 0.6973
549.30 0.6968
549.40 0.6963
549.50 0.6958
549.60 0.6953
549.70 0.6948
549.80 0.6944
549.90 0.6939
550.00 0.6934
550.10 0.6929
550.20 0.6924
550.30 0.6919
550.40 0.6914
550.50 0.691
550.60 0.6905
550.70 0.69
550.80 0.6895
550.90 0.689
551.00 0.6886
551.10 0.6881
551.20 0.6876
551.30 0.6871
551.40 0.6866
551.50 0.6862
551.60 0.6857
551.70 0.6852
551.80 0.6847
551.90 0.6842
552.00 0.6838
552.10 0.6833
552.20 0.6828
552.30 0.6823
552.40 0.6819
552.50 0.6814
552.60 0.6809
552.70 0.6804
552.80 0.68
552.90 0.6795
553.00 0.679
553.10 0.6785
553.20 0.6781
553.30 0.6776
553.40 0.6771
553.50 0.6767
553.60 0.6762
553.70 0.6757
553.80 0.6752
553.90 0.6748
554.00 0.6743
554.10 0.6738
554.20 0.6734
554.30 0.6729
554.40 0.6724
554.50 0.672
554.60 0.6715
554.70 0.671
554.80 0.6706
554.90 0.6701
555.00 0.6696
555.10 0.6692
555.20 0.6687
555.30 0.6683
555.40 0.6678
555.50 0.6673
555.60 0.6669
555.70 0.6664
555.80 0.6659
555.90 0.6655
556.00 0.665
556.10 0.6646
556.20 0.6641
556.30 0.6636
556.40 0.6632
556.50 0.6627
556.60 0.6623
556.70 0.6618
556.80 0.6613
556.90 0.6609
557.00 0.6604
557.10 0.66
557.20 0.6595
557.30 0.6591
557.40 0.6586
557.50 0.6582
557.60 0.6577
557.70 0.6572
557.80 0.6568
557.90 0.6563
558.00 0.6559
558.10 0.6554
558.20 0.655
558.30 0.6545
558.40 0.6541
558.50 0.6536
558.60 0.6532
558.70 0.6527
558.80 0.6523
558.90 0.6518
559.00 0.6514
559.10 0.6509
559.20 0.6505
559.30 0.65
559.40 0.6496
559.50 0.6491
559.60 0.6487
559.70 0.6483
559.80 0.6478
559.90 0.6474
560.00 0.6469
560.10 0.6465
560.20 0.646
560.30 0.6456
560.40 0.6451
560.50 0.6447
560.60 0.6443
560.70 0.6438
560.80 0.6434
560.90 0.6429
561.00 0.6425
561.10 0.642
561.20 0.6416
561.30 0.6412
561.40 0.6407
561.50 0.6403
561.60 0.6398
561.70 0.6394
561.80 0.639
561.90 0.6385
562.00 0.6381
562.10 0.6377
562.20 0.6372
562.30 0.6368
562.40 0.6363
562.50 0.6359
562.60 0.6355
562.70 0.635
562.80 0.6346
562.90 0.6342
563.00 0.6337
563.10 0.6333
563.20 0.6329
563.30 0.6324
563.40 0.632
563.50 0.6316
563.60 0.6311
563.70 0.6307
563.80 0.6303
563.90 0.6299
564.00 0.6294
564.10 0.629
564.20 0.6286
564.30 0.6281
564.40 0.6277
564.50 0.6273
564.60 0.6268
564.70 0.6264
564.80 0.626
564.90 0.6256
565.00 0.6251
565.10 0.6247
565.20 0.6243
565.30 0.6239
565.40 0.6234
565.50 0.623
565.60 0.6226
565.70 0.6222
565.80 0.6217
565.90 0.6213
566.00 0.6209
566.10 0.6205
566.20 0.6201
566.30 0.6196
566.40 0.6192
566.50 0.6188
566.60 0.6184
566.70 0.6179
566.80 0.6175
566.90 0.6171
567.00 0.6167
567.10 0.6163
567.20 0.6159
567.30 0.6154
567.40 0.615
567.50 0.6146
567.60 0.6142
567.70 0.6138
567.80 0.6133
567.90 0.6129
568.00 0.6125
568.10 0.6121
568.20 0.6117
568.30 0.6113
568.40 0.6109
568.50 0.6104
568.60 0.61
568.70 0.6096
568.80 0.6092
568.90 0.6088
569.00 0.6084
569.10 0.608
569.20 0.6076
569.30 0.6071
569.40 0.6067
569.50 0.6063
569.60 0.6059
569.70 0.6055
569.80 0.6051
569.90 0.6047
570.00 0.6043
570.10 0.6039
570.20 0.6035
570.30 0.6031
570.40 0.6026
570.50 0.6022
570.60 0.6018
570.70 0.6014
570.80 0.601
570.90 0.6006
571.00 0.6002
571.10 0.5998
571.20 0.5994
571.30 0.599
571.40 0.5986
571.50 0.5982
571.60 0.5978
571.70 0.5974
571.80 0.597
571.90 0.5966
572.00 0.5962
572.10 0.5958
572.20 0.5954
572.30 0.595
572.40 0.5946
572.50 0.5942
572.60 0.5938
572.70 0.5934
572.80 0.593
572.90 0.5926
573.00 0.5922
573.10 0.5918
573.20 0.5914
573.30 0.591
573.40 0.5906
573.50 0.5902
573.60 0.5898
573.70 0.5894
573.80 0.589
573.90 0.5886
574.00 0.5882
574.10 0.5878
574.20 0.5874
574.30 0.587
574.40 0.5866
574.50 0.5862
574.60 0.5859
574.70 0.5855
574.80 0.5851
574.90 0.5847
575.00 0.5843
575.10 0.5839
575.20 0.5835
575.30 0.5831
575.40 0.5827
575.50 0.5823
575.60 0.5819
575.70 0.5815
575.80 0.5812
575.90 0.5808
576.00 0.5804
576.10 0.58
576.20 0.5796
576.30 0.5792
576.40 0.5788
576.50 0.5784
576.60 0.5781
576.70 0.5777
576.80 0.5773
576.90 0.5769
577.00 0.5765
577.10 0.5761
577.20 0.5757
577.30 0.5754
577.40 0.575
577.50 0.5746
577.60 0.5742
577.70 0.5738
577.80 0.5734
577.90 0.5731
578.00 0.5727
578.10 0.5723
578.20 0.5719
578.30 0.5715
578.40 0.5712
578.50 0.5708
578.60 0.5704
578.70 0.57
578.80 0.5696
578.90 0.5693
579.00 0.5689
579.10 0.5685
579.20 0.5681
579.30 0.5677
579.40 0.5674
579.50 0.567
579.60 0.5666
579.70 0.5662
579.80 0.5659
579.90 0.5655
580.00 0.5651
580.10 0.5647
580.20 0.5644
580.30 0.564
580.40 0.5636
580.50 0.5632
580.60 0.5629
580.70 0.5625
580.80 0.5621
580.90 0.5617
581.00 0.5614
581.10 0.561
581.20 0.5606
581.30 0.5603
581.40 0.5599
581.50 0.5595
581.60 0.5591
581.70 0.5588
581.80 0.5584
581.90 0.558
582.00 0.5577
582.10 0.5573
582.20 0.5569
582.30 0.5565
582.40 0.5562
582.50 0.5558
582.60 0.5554
582.70 0.5551
582.80 0.5547
582.90 0.5543
583.00 0.554
583.10 0.5536
583.20 0.5532
583.30 0.5529
583.40 0.5525
583.50 0.5522
583.60 0.5518
583.70 0.5514
583.80 0.5511
583.90 0.5507
584.00 0.5503
584.10 0.55
584.20 0.5496
584.30 0.5492
584.40 0.5489
584.50 0.5485
584.60 0.5482
584.70 0.5478
584.80 0.5474
584.90 0.5471
585.00 0.5467
585.10 0.5464
585.20 0.546
585.30 0.5456
585.40 0.5453
585.50 0.5449
585.60 0.5446
585.70 0.5442
585.80 0.5438
585.90 0.5435
586.00 0.5431
586.10 0.5428
586.20 0.5424
586.30 0.5421
586.40 0.5417
586.50 0.5413
586.60 0.541
586.70 0.5406
586.80 0.5403
586.90 0.5399
587.00 0.5396
587.10 0.5392
587.20 0.5389
587.30 0.5385
587.40 0.5382
587.50 0.5378
587.60 0.5374
587.70 0.5371
587.80 0.5367
587.90 0.5364
588.00 0.536
588.10 0.5357
588.20 0.5353
588.30 0.535
588.40 0.5346
588.50 0.5343
588.60 0.5339
588.70 0.5336
588.80 0.5332
588.90 0.5329
589.00 0.5325
589.10 0.5322
589.20 0.5318
589.30 0.5315
589.40 0.5311
589.50 0.5308
589.60 0.5304
589.70 0.5301
589.80 0.5298
589.90 0.5294
590.00 0.5291
590.10 0.5287
590.20 0.5284
590.30 0.528
590.40 0.5277
590.50 0.5273
590.60 0.527
590.70 0.5266
590.80 0.5263
590.90 0.526
591.00 0.5256
591.10 0.5253
591.20 0.5249
591.30 0.5246
591.40 0.5242
591.50 0.5239
591.60 0.5236
591.70 0.5232
591.80 0.5229
591.90 0.5225
592.00 0.5222
592.10 0.5219
592.20 0.5215
592.30 0.5212
592.40 0.5208
592.50 0.5205
592.60 0.5202
592.70 0.5198
592.80 0.5195
592.90 0.5192
593.00 0.5188
593.10 0.5185
593.20 0.5181
593.30 0.5178
593.40 0.5175
593.50 0.5171
593.60 0.5168
593.70 0.5165
593.80 0.5161
593.90 0.5158
594.00 0.5155
594.10 0.5151
594.20 0.5148
594.30 0.5145
594.40 0.5141
594.50 0.5138
594.60 0.5135
594.70 0.5131
594.80 0.5128
594.90 0.5125
595.00 0.5121
595.10 0.5118
595.20 0.5115
595.30 0.5111
595.40 0.5108
595.50 0.5105
595.60 0.5101
595.70 0.5098
595.80 0.5095
595.90 0.5091
596.00 0.5088
596.10 0.5085
596.20 0.5082
596.30 0.5078
596.40 0.5075
596.50 0.5072
596.60 0.5068
596.70 0.5065
596.80 0.5062
596.90 0.5059
597.00 0.5055
597.10 0.5052
597.20 0.5049
597.30 0.5046
597.40 0.5042
597.50 0.5039
597.60 0.5036
597.70 0.5033
597.80 0.5029
597.90 0.5026
598.00 0.5023
598.10 0.502
598.20 0.5016
598.30 0.5013
598.40 0.501
598.50 0.5007
598.60 0.5003
598.70 0.5
598.80 0.4997
598.90 0.4994
599.00 0.4991
599.10 0.4987
599.20 0.4984
599.30 0.4981
599.40 0.4978
599.50 0.4975
599.60 0.4971
599.70 0.4968
599.80 0.4965
599.90 0.4962
600.00 0.4959
600.10 0.4955
600.20 0.4952
600.30 0.4949
600.40 0.4946
600.50 0.4943
600.60 0.4939
600.70 0.4936
600.80 0.4933
600.90 0.493
601.00 0.4927
601.10 0.4924
601.20 0.492
601.30 0.4917
601.40 0.4914
601.50 0.4911
601.60 0.4908
601.70 0.4905
601.80 0.4902
601.90 0.4898
602.00 0.4895
602.10 0.4892
602.20 0.4889
602.30 0.4886
602.40 0.4883
602.50 0.488
602.60 0.4877
602.70 0.4873
602.80 0.487
602.90 0.4867
603.00 0.4864
603.10 0.4861
603.20 0.4858
603.30 0.4855
603.40 0.4852
603.50 0.4849
603.60 0.4845
603.70 0.4842
603.80 0.4839
603.90 0.4836
604.00 0.4833
604.10 0.483
604.20 0.4827
604.30 0.4824
604.40 0.4821
604.50 0.4818
604.60 0.4815
604.70 0.4811
604.80 0.4808
604.90 0.4805
605.00 0.4802
605.10 0.4799
605.20 0.4796
605.30 0.4793
605.40 0.479
605.50 0.4787
605.60 0.4784
605.70 0.4781
605.80 0.4778
605.90 0.4775
606.00 0.4772
606.10 0.4769
606.20 0.4766
606.30 0.4763
606.40 0.476
606.50 0.4757
606.60 0.4754
606.70 0.4751
606.80 0.4748
606.90 0.4745
607.00 0.4742
607.10 0.4739
607.20 0.4735
607.30 0.4732
607.40 0.4729
607.50 0.4726
607.60 0.4723
607.70 0.472
607.80 0.4717
607.90 0.4714
608.00 0.4711
608.10 0.4708
608.20 0.4706
608.30 0.4703
608.40 0.47
608.50 0.4697
608.60 0.4694
608.70 0.4691
608.80 0.4688
608.90 0.4685
609.00 0.4682
609.10 0.4679
609.20 0.4676
609.30 0.4673
609.40 0.467
609.50 0.4667
609.60 0.4664
609.70 0.4661
609.80 0.4658
609.90 0.4655
610.00 0.4652
610.10 0.4649
610.20 0.4646
610.30 0.4643
610.40 0.464
610.50 0.4637
610.60 0.4635
610.70 0.4632
610.80 0.4629
610.90 0.4626
611.00 0.4623
611.10 0.462
611.20 0.4617
611.30 0.4614
611.40 0.4611
611.50 0.4608
611.60 0.4605
611.70 0.4602
611.80 0.46
611.90 0.4597
612.00 0.4594
612.10 0.4591
612.20 0.4588
612.30 0.4585
612.40 0.4582
612.50 0.4579
612.60 0.4576
612.70 0.4574
612.80 0.4571
612.90 0.4568
613.00 0.4565
613.10 0.4562
613.20 0.4559
613.30 0.4556
613.40 0.4553
613.50 0.4551
613.60 0.4548
613.70 0.4545
613.80 0.4542
613.90 0.4539
614.00 0.4536
614.10 0.4533
614.20 0.4531
614.30 0.4528
614.40 0.4525
614.50 0.4522
614.60 0.4519
614.70 0.4516
614.80 0.4514
614.90 0.4511
615.00 0.4508
615.10 0.4505
615.20 0.4502
615.30 0.4499
615.40 0.4497
615.50 0.4494
615.60 0.4491
615.70 0.4488
615.80 0.4485
615.90 0.4482
616.00 0.448
616.10 0.4477
616.20 0.4474
616.30 0.4471
616.40 0.4468
616.50 0.4466
616.60 0.4463
616.70 0.446
616.80 0.4457
616.90 0.4454
617.00 0.4452
617.10 0.4449
617.20 0.4446
617.30 0.4443
617.40 0.4441
617.50 0.4438
617.60 0.4435
617.70 0.4432
617.80 0.4429
617.90 0.4427
618.00 0.4424
618.10 0.4421
618.20 0.4418
618.30 0.4416
618.40 0.4413
618.50 0.441
618.60 0.4407
618.70 0.4405
618.80 0.4402
618.90 0.4399
619.00 0.4396
619.10 0.4394
619.20 0.4391
619.30 0.4388
619.40 0.4385
619.50 0.4383
619.60 0.438
619.70 0.4377
619.80 0.4375
619.90 0.4372
620.00 0.4369
620.10 0.4366
620.20 0.4364
620.30 0.4361
620.40 0.4358
620.50 0.4356
620.60 0.4353
620.70 0.435
620.80 0.4347
620.90 0.4345
621.00 0.4342
621.10 0.4339
621.20 0.4337
621.30 0.4334
621.40 0.4331
621.50 0.4329
621.60 0.4326
621.70 0.4323
621.80 0.432
621.90 0.4318
622.00 0.4315
622.10 0.4312
622.20 0.431
622.30 0.4307
622.40 0.4304
622.50 0.4302
622.60 0.4299
622.70 0.4296
622.80 0.4294
622.90 0.4291
623.00 0.4288
623.10 0.4286
623.20 0.4283
623.30 0.428
623.40 0.4278
623.50 0.4275
623.60 0.4272
623.70 0.427
623.80 0.4267
623.90 0.4265
624.00 0.4262
624.10 0.4259
624.20 0.4257
624.30 0.4254
624.40 0.4251
624.50 0.4249
624.60 0.4246
624.70 0.4243
624.80 0.4241
624.90 0.4238
625.00 0.4236
625.10 0.4233
625.20 0.423
625.30 0.4228
625.40 0.4225
625.50 0.4223
625.60 0.422
625.70 0.4217
625.80 0.4215
625.90 0.4212
626.00 0.421
626.10 0.4207
626.20 0.4204
626.30 0.4202
626.40 0.4199
626.50 0.4197
626.60 0.4194
626.70 0.4191
626.80 0.4189
626.90 0.4186
627.00 0.4184
627.10 0.4181
627.20 0.4179
627.30 0.4176
627.40 0.4173
627.50 0.4171
627.60 0.4168
627.70 0.4166
627.80 0.4163
627.90 0.4161
628.00 0.4158
628.10 0.4155
628.20 0.4153
628.30 0.415
628.40 0.4148
628.50 0.4145
628.60 0.4143
628.70 0.414
628.80 0.4138
628.90 0.4135
629.00 0.4132
629.10 0.413
629.20 0.4127
629.30 0.4125
629.40 0.4122
629.50 0.412
629.60 0.4117
629.70 0.4115
629.80 0.4112
629.90 0.411
630.00 0.4107
630.10 0.4105
630.20 0.4102
630.30 0.41
630.40 0.4097
630.50 0.4095
630.60 0.4092
630.70 0.409
630.80 0.4087
630.90 0.4085
631.00 0.4082
631.10 0.408
631.20 0.4077
631.30 0.4075
631.40 0.4072
631.50 0.407
631.60 0.4067
631.70 0.4065
631.80 0.4062
631.90 0.406
632.00 0.4057
632.10 0.4055
632.20 0.4052
632.30 0.405
632.40 0.4047
632.50 0.4045
632.60 0.4042
632.70 0.404
632.80 0.4037
632.90 0.4035
633.00 0.4032
633.10 0.403
633.20 0.4028
633.30 0.4025
633.40 0.4023
633.50 0.402
633.60 0.4018
633.70 0.4015
633.80 0.4013
633.90 0.401
634.00 0.4008
634.10 0.4005
634.20 0.4003
634.30 0.4001
634.40 0.3998
634.50 0.3996
634.60 0.3993
634.70 0.3991
634.80 0.3988
634.90 0.3986
635.00 0.3984
635.10 0.3981
635.20 0.3979
635.30 0.3976
635.40 0.3974
635.50 0.3971
635.60 0.3969
635.70 0.3967
635.80 0.3964
635.90 0.3962
636.00 0.3959
636.10 0.3957
636.20 0.3955
636.30 0.3952
636.40 0.395
636.50 0.3947
636.60 0.3945
636.70 0.3943
636.80 0.394
636.90 0.3938
637.00 0.3935
637.10 0.3933
637.20 0.3931
637.30 0.3928
637.40 0.3926
637.50 0.3923
637.60 0.3921
637.70 0.3919
637.80 0.3916
637.90 0.3914
638.00 0.3911
638.10 0.3909
638.20 0.3907
638.30 0.3904
638.40 0.3902
638.50 0.39
638.60 0.3897
638.70 0.3895
638.80 0.3893
638.90 0.389
639.00 0.3888
639.10 0.3885
639.20 0.3883
639.30 0.3881
639.40 0.3878
639.50 0.3876
639.60 0.3874
639.70 0.3871
639.80 0.3869
639.90 0.3867
640.00 0.3864
640.10 0.3862
640.20 0.386
640.30 0.3857
640.40 0.3855
640.50 0.3853
640.60 0.385
640.70 0.3848
640.80 0.3846
640.90 0.3843
641.00 0.3841
641.10 0.3839
641.20 0.3836
641.30 0.3834
641.40 0.3832
641.50 0.3829
641.60 0.3827
641.70 0.3825
641.80 0.3822
641.90 0.382
642.00 0.3818
642.10 0.3815
642.20 0.3813
642.30 0.3811
642.40 0.3808
642.50 0.3806
642.60 0.3804
642.70 0.3802
642.80 0.3799
642.90 0.3797
643.00 0.3795
643.10 0.3792
643.20 0.379
643.30 0.3788
643.40 0.3785
643.50 0.3783
643.60 0.3781
643.70 0.3779
643.80 0.3776
643.90 0.3774
644.00 0.3772
644.10 0.3769
644.20 0.3767
644.30 0.3765
644.40 0.3763
644.50 0.376
644.60 0.3758
644.70 0.3756
644.80 0.3753
644.90 0.3751
645.00 0.3749
645.10 0.3747
645.20 0.3744
645.30 0.3742
645.40 0.374
645.50 0.3737
645.60 0.3735
645.70 0.3733
645.80 0.3731
645.90 0.3728
646.00 0.3726
646.10 0.3724
646.20 0.3721
646.30 0.3719
646.40 0.3717
646.50 0.3715
646.60 0.3712
646.70 0.371
646.80 0.3708
646.90 0.3706
647.00 0.3703
647.10 0.3701
647.20 0.3699
647.30 0.3696
647.40 0.3694
647.50 0.3692
647.60 0.369
647.70 0.3687
647.80 0.3685
647.90 0.3683
648.00 0.368
648.10 0.3678
648.20 0.3676
648.30 0.3674
648.40 0.3671
648.50 0.3669
648.60 0.3667
648.70 0.3664
648.80 0.3662
648.90 0.366
649.00 0.3657
649.10 0.3655
649.20 0.3653
649.30 0.365
649.40 0.3648
649.50 0.3646
649.60 0.3643
649.70 0.3641
649.80 0.3638
649.90 0.3636
650.00 0.3634
650.10 0.3631
650.20 0.3629
650.30 0.3627
650.40 0.3624
650.50 0.3622
650.60 0.3619
650.70 0.3617
650.80 0.3614
650.90 0.3612
651.00 0.3609
651.10 0.3607
651.20 0.3604
651.30 0.3601
651.40 0.3599
651.50 0.3596
651.60 0.3593
651.70 0.359
651.80 0.3587
651.90 0.3585
652.00 0.3582
652.10 0.3579
652.20 0.3576
652.30 0.3573
652.40 0.357
652.50 0.3566
652.60 0.3563
652.70 0.3559
652.80 0.3556
652.90 0.3552
653.00 0.3549
653.10 0.3545
653.20 0.3542
653.30 0.3538
653.40 0.3532
653.50 0.3527
653.60 0.3521
653.70 0.3515
653.80 0.351
653.90 0.3504
654.00 0.3498
654.10 0.3493
654.20 0.3487
654.30 0.3481
654.40 0.3471
654.50 0.3461
654.60 0.3452
654.70 0.3442
654.80 0.3431
654.90 0.3415
655.00 0.3399
655.10 0.3383
655.20 0.3367
655.30 0.3349
655.40 0.3324
655.50 0.3298
655.60 0.3265
655.70 0.3228
655.80 0.3177
655.90 0.3115
656.00 0.3006
656.10 0.2882
656.20 0.2771
656.30 0.2923
656.40 0.2765
656.50 0.2928
656.60 0.3035
656.70 0.313
656.80 0.3177
656.90 0.3221
657.00 0.325
657.10 0.3278
657.20 0.3298
657.30 0.3317
657.40 0.3329
657.50 0.3341
657.60 0.3353
657.70 0.3365
657.80 0.3376
657.90 0.3382
658.00 0.3387
658.10 0.3393
658.20 0.3398
658.30 0.3403
658.40 0.3404
658.50 0.3406
658.60 0.3407
658.70 0.3409
658.80 0.341
658.90 0.3411
659.00 0.3413
659.10 0.3414
659.20 0.3416
659.30 0.3417
659.40 0.3416
659.50 0.3415
659.60 0.3415
659.70 0.3414
659.80 0.3413
659.90 0.3413
660.00 0.3412
660.10 0.3411
660.20 0.3411
660.30 0.341
660.40 0.3409
660.50 0.3407
660.60 0.3406
660.70 0.3404
660.80 0.3403
660.90 0.3402
661.00 0.34
661.10 0.3399
661.20 0.3398
661.30 0.3396
661.40 0.3395
661.50 0.3393
661.60 0.3391
661.70 0.339
661.80 0.3388
661.90 0.3386
662.00 0.3385
662.10 0.3383
662.20 0.3381
662.30 0.338
662.40 0.3378
662.50 0.3376
662.60 0.3374
662.70 0.3373
662.80 0.3371
662.90 0.3369
663.00 0.3367
663.10 0.3365
663.20 0.3364
663.30 0.3362
663.40 0.336
663.50 0.3358
663.60 0.3356
663.70 0.3354
663.80 0.3353
663.90 0.3351
664.00 0.3349
664.10 0.3347
664.20 0.3345
664.30 0.3343
664.40 0.3342
664.50 0.334
664.60 0.3338
664.70 0.3336
664.80 0.3334
664.90 0.3332
665.00 0.333
665.10 0.3329
665.20 0.3327
665.30 0.3325
665.40 0.3323
665.50 0.3321
665.60 0.3319
665.70 0.3317
665.80 0.3315
665.90 0.3314
666.00 0.3312
666.10 0.331
666.20 0.3308
666.30 0.3306
666.40 0.3304
666.50 0.3302
666.60 0.33
666.70 0.3299
666.80 0.3297
666.90 0.3295
667.00 0.3293
667.10 0.3291
667.20 0.3289
667.30 0.3287
667.40 0.3285
667.50 0.3284
667.60 0.3282
667.70 0.328
667.80 0.3278
667.90 0.3276
668.00 0.3274
668.10 0.3272
668.20 0.3271
668.30 0.3269
668.40 0.3267
668.50 0.3265
668.60 0.3263
668.70 0.3261
668.80 0.3259
668.90 0.3257
669.00 0.3256
669.10 0.3254
669.20 0.3252
669.30 0.325
669.40 0.3248
669.50 0.3246
669.60 0.3244
669.70 0.3243
669.80 0.3241
669.90 0.3239
670.00 0.3237
670.10 0.3235
670.20 0.3233
670.30 0.3231
670.40 0.323
670.50 0.3228
670.60 0.3226
670.70 0.3224
670.80 0.3222
670.90 0.322
671.00 0.3219
671.10 0.3217
671.20 0.3215
671.30 0.3213
671.40 0.3211
671.50 0.3209
671.60 0.3207
671.70 0.3206
671.80 0.3204
671.90 0.3202
672.00 0.32
672.10 0.3198
672.20 0.3196
672.30 0.3195
672.40 0.3193
672.50 0.3191
672.60 0.3189
672.70 0.3187
672.80 0.3186
672.90 0.3184
673.00 0.3182
673.10 0.318
673.20 0.3178
673.30 0.3176
673.40 0.3175
673.50 0.3173
673.60 0.3171
673.70 0.3169
673.80 0.3167
673.90 0.3166
674.00 0.3164
674.10 0.3162
674.20 0.316
674.30 0.3158
674.40 0.3156
674.50 0.3155
674.60 0.3153
674.70 0.3151
674.80 0.3149
674.90 0.3147
675.00 0.3146
675.10 0.3144
675.20 0.3142
675.30 0.314
675.40 0.3139
675.50 0.3137
675.60 0.3135
675.70 0.3133
675.80 0.3131
675.90 0.313
676.00 0.3128
676.10 0.3126
676.20 0.3124
676.30 0.3122
676.40 0.3121
676.50 0.3119
676.60 0.3117
676.70 0.3115
676.80 0.3114
676.90 0.3112
677.00 0.311
677.10 0.3108
677.20 0.3106
677.30 0.3105
677.40 0.3103
677.50 0.3101
677.60 0.3099
677.70 0.3098
677.80 0.3096
677.90 0.3094
678.00 0.3092
678.10 0.3091
678.20 0.3089
678.30 0.3087
678.40 0.3085
678.50 0.3084
678.60 0.3082
678.70 0.308
678.80 0.3078
678.90 0.3077
679.00 0.3075
679.10 0.3073
679.20 0.3071
679.30 0.307
679.40 0.3068
679.50 0.3066
679.60 0.3064
679.70 0.3063
679.80 0.3061
679.90 0.3059
680.00 0.3057
680.10 0.3056
680.20 0.3054
680.30 0.3052
680.40 0.305
680.50 0.3049
680.60 0.3047
680.70 0.3045
680.80 0.3043
680.90 0.3042
681.00 0.304
681.10 0.3038
681.20 0.3037
681.30 0.3035
681.40 0.3033
681.50 0.3031
681.60 0.303
681.70 0.3028
681.80 0.3026
681.90 0.3025
682.00 0.3023
682.10 0.3021
682.20 0.3019
682.30 0.3018
682.40 0.3016
682.50 0.3014
682.60 0.3013
682.70 0.3011
682.80 0.3009
682.90 0.3007
683.00 0.3006
683.10 0.3004
683.20 0.3002
683.30 0.3001
683.40 0.2999
683.50 0.2997
683.60 0.2996
683.70 0.2994
683.80 0.2992
683.90 0.299
684.00 0.2989
684.10 0.2987
684.20 0.2985
684.30 0.2984
684.40 0.2982
684.50 0.298
684.60 0.2979
684.70 0.2977
684.80 0.2975
684.90 0.2974
685.00 0.2972
685.10 0.297
685.20 0.2969
685.30 0.2967
685.40 0.2965
685.50 0.2964
685.60 0.2962
685.70 0.296
685.80 0.2959
685.90 0.2957
686.00 0.2955
686.10 0.2954
686.20 0.2952
686.30 0.295
686.40 0.2949
686.50 0.2947
686.60 0.2945
686.70 0.2944
686.80 0.2942
686.90 0.294
687.00 0.2939
687.10 0.2937
687.20 0.2935
687.30 0.2934
687.40 0.2932
687.50 0.293
687.60 0.2929
687.70 0.2927
687.80 0.2925
687.90 0.2924
688.00 0.2922
688.10 0.2921
688.20 0.2919
688.30 0.2917
688.40 0.2916
688.50 0.2914
688.60 0.2912
688.70 0.2911
688.80 0.2909
688.90 0.2907
689.00 0.2906
689.10 0.2904
689.20 0.2903
689.30 0.2901
689.40 0.2899
689.50 0.2898
689.60 0.2896
689.70 0.2894
689.80 0.2893
689.90 0.2891
690.00 0.289
690.10 0.2888
690.20 0.2886
690.30 0.2885
690.40 0.2883
690.50 0.2882
690.60 0.288
690.70 0.2878
690.80 0.2877
690.90 0.2875
691.00 0.2873
691.10 0.2872
691.20 0.287
691.30 0.2869
691.40 0.2867
691.50 0.2865
691.60 0.2864
691.70 0.2862
691.80 0.2861
691.90 0.2859
692.00 0.2857
692.10 0.2856
692.20 0.2854
692.30 0.2853
692.40 0.2851
692.50 0.2849
692.60 0.2848
692.70 0.2846
692.80 0.2845
692.90 0.2843
693.00 0.2842
693.10 0.284
693.20 0.2838
693.30 0.2837
693.40 0.2835
693.50 0.2834
693.60 0.2832
693.70 0.283
693.80 0.2829
693.90 0.2827
694.00 0.2826
694.10 0.2824
694.20 0.2823
694.30 0.2821
694.40 0.2819
694.50 0.2818
694.60 0.2816
694.70 0.2815
694.80 0.2813
694.90 0.2811
695.00 0.281
695.10 0.2808
695.20 0.2807
695.30 0.2805
695.40 0.2804
695.50 0.2802
695.60 0.2801
695.70 0.2799
695.80 0.2797
695.90 0.2796
696.00 0.2794
696.10 0.2793
696.20 0.2791
696.30 0.279
696.40 0.2788
696.50 0.2787
696.60 0.2785
696.70 0.2784
696.80 0.2782
696.90 0.278
697.00 0.2779
697.10 0.2777
697.20 0.2776
697.30 0.2774
697.40 0.2773
697.50 0.2771
697.60 0.277
697.70 0.2768
697.80 0.2767
697.90 0.2765
698.00 0.2764
698.10 0.2762
698.20 0.276
698.30 0.2759
698.40 0.2757
698.50 0.2756
698.60 0.2754
698.70 0.2753
698.80 0.2751
698.90 0.275
699.00 0.2748
699.10 0.2747
699.20 0.2745
699.30 0.2744
699.40 0.2742
699.50 0.2741
699.60 0.2739
699.70 0.2738
699.80 0.2736
699.90 0.2735
700.00 0.2733
700.10 0.2732
700.20 0.273
700.30 0.2729
700.40 0.2727
700.50 0.2726
700.60 0.2724
700.70 0.2723
700.80 0.2721
700.90 0.272
701.00 0.2718
701.10 0.2717
701.20 0.2715
701.30 0.2714
701.40 0.2712
701.50 0.2711
701.60 0.2709
701.70 0.2708
701.80 0.2706
701.90 0.2705
702.00 0.2703
702.10 0.2702
702.20 0.27
702.30 0.2699
702.40 0.2697
702.50 0.2696
702.60 0.2694
702.70 0.2693
702.80 0.2691
702.90 0.269
703.00 0.2688
703.10 0.2687
703.20 0.2685
703.30 0.2684
703.40 0.2682
703.50 0.2681
703.60 0.2679
703.70 0.2678
703.80 0.2676
703.90 0.2675
704.00 0.2673
704.10 0.2672
704.20 0.2671
704.30 0.2669
704.40 0.2668
704.50 0.2666
704.60 0.2665
704.70 0.2663
704.80 0.2662
704.90 0.266
705.00 0.2659
705.10 0.2657
705.20 0.2656
705.30 0.2654
705.40 0.2653
705.50 0.2652
705.60 0.265
705.70 0.2649
705.80 0.2647
705.90 0.2646
706.00 0.2644
706.10 0.2643
706.20 0.2641
706.30 0.264
706.40 0.2638
706.50 0.2637
706.60 0.2636
706.70 0.2634
706.80 0.2633
706.90 0.2631
707.00 0.263
707.10 0.2628
707.20 0.2627
707.30 0.2626
707.40 0.2624
707.50 0.2623
707.60 0.2621
707.70 0.262
707.80 0.2618
707.90 0.2617
708.00 0.2615
708.10 0.2614
708.20 0.2613
708.30 0.2611
708.40 0.261
708.50 0.2608
708.60 0.2607
708.70 0.2605
708.80 0.2604
708.90 0.2603
709.00 0.2601
709.10 0.26
709.20 0.2598
709.30 0.2597
709.40 0.2596
709.50 0.2594
709.60 0.2593
709.70 0.2591
709.80 0.259
709.90 0.2588
710.00 0.2587
710.10 0.2586
710.20 0.2584
710.30 0.2583
710.40 0.2581
710.50 0.258
710.60 0.2579
710.70 0.2577
710.80 0.2576
710.90 0.2574
711.00 0.2573
711.10 0.2572
711.20 0.257
711.30 0.2569
711.40 0.2567
711.50 0.2566
711.60 0.2565
711.70 0.2563
711.80 0.2562
711.90 0.256
712.00 0.2559
712.10 0.2558
712.20 0.2556
712.30 0.2555
712.40 0.2554
712.50 0.2552
712.60 0.2551
712.70 0.2549
712.80 0.2548
712.90 0.2547
713.00 0.2545
713.10 0.2544
713.20 0.2542
713.30 0.2541
713.40 0.254
713.50 0.2538
713.60 0.2537
713.70 0.2536
713.80 0.2534
713.90 0.2533
714.00 0.2531
714.10 0.253
714.20 0.2529
714.30 0.2527
714.40 0.2526
714.50 0.2525
714.60 0.2523
714.70 0.2522
714.80 0.252
714.90 0.2519
715.00 0.2518
715.10 0.2516
715.20 0.2515
715.30 0.2514
715.40 0.2512
715.50 0.2511
715.60 0.251
715.70 0.2508
715.80 0.2507
715.90 0.2505
716.00 0.2504
716.10 0.2503
716.20 0.2501
716.30 0.25
716.40 0.2499
716.50 0.2497
716.60 0.2496
716.70 0.2495
716.80 0.2493
716.90 0.2492
717.00 0.2491
717.10 0.2489
717.20 0.2488
717.30 0.2487
717.40 0.2485
717.50 0.2484
717.60 0.2483
717.70 0.2481
717.80 0.248
717.90 0.2479
718.00 0.2477
718.10 0.2476
718.20 0.2475
718.30 0.2473
718.40 0.2472
718.50 0.2471
718.60 0.2469
718.70 0.2468
718.80 0.2467
718.90 0.2465
719.00 0.2464
719.10 0.2463
719.20 0.2461
719.30 0.246
719.40 0.2459
719.50 0.2457
719.60 0.2456
719.70 0.2455
719.80 0.2453
719.90 0.2452
720.00 0.2451
720.10 0.2449
720.20 0.2448
720.30 0.2447
720.40 0.2445
720.50 0.2444
720.60 0.2443
720.70 0.2441
720.80 0.244
720.90 0.2439
721.00 0.2438
721.10 0.2436
721.20 0.2435
721.30 0.2434
721.40 0.2432
721.50 0.2431
721.60 0.243
721.70 0.2428
721.80 0.2427
721.90 0.2426
722.00 0.2424
722.10 0.2423
722.20 0.2422
722.30 0.2421
722.40 0.2419
722.50 0.2418
722.60 0.2417
722.70 0.2415
722.80 0.2414
722.90 0.2413
723.00 0.2412
723.10 0.241
723.20 0.2409
723.30 0.2408
723.40 0.2406
723.50 0.2405
723.60 0.2404
723.70 0.2402
723.80 0.2401
723.90 0.24
724.00 0.2399
724.10 0.2397
724.20 0.2396
724.30 0.2395
724.40 0.2393
724.50 0.2392
724.60 0.2391
724.70 0.239
724.80 0.2388
724.90 0.2387
725.00 0.2386
725.10 0.2385
725.20 0.2383
725.30 0.2382
725.40 0.2381
725.50 0.2379
725.60 0.2378
725.70 0.2377
725.80 0.2376
725.90 0.2374
726.00 0.2373
726.10 0.2372
726.20 0.2371
726.30 0.2369
726.40 0.2368
726.50 0.2367
726.60 0.2366
726.70 0.2364
726.80 0.2363
726.90 0.2362
727.00 0.2361
727.10 0.2359
727.20 0.2358
727.30 0.2357
727.40 0.2356
727.50 0.2354
727.60 0.2353
727.70 0.2352
727.80 0.2351
727.90 0.2349
728.00 0.2348
728.10 0.2347
728.20 0.2345
728.30 0.2344
728.40 0.2343
728.50 0.2342
728.60 0.2341
728.70 0.2339
728.80 0.2338
728.90 0.2337
729.00 0.2336
729.10 0.2334
729.20 0.2333
729.30 0.2332
729.40 0.2331
729.50 0.2329
729.60 0.2328
729.70 0.2327
729.80 0.2326
729.90 0.2324
730.00 0.2323
730.10 0.2322
730.20 0.2321
730.30 0.2319
730.40 0.2318
730.50 0.2317
730.60 0.2316
730.70 0.2315
730.80 0.2313
730.90 0.2312
731.00 0.2311
731.10 0.231
731.20 0.2308
731.30 0.2307
731.40 0.2306
731.50 0.2305
731.60 0.2304
731.70 0.2302
731.80 0.2301
731.90 0.23
732.00 0.2299
732.10 0.2298
732.20 0.2296
732.30 0.2295
732.40 0.2294
732.50 0.2293
732.60 0.2292
732.70 0.229
732.80 0.2289
732.90 0.2288
733.00 0.2287
733.10 0.2286
733.20 0.2284
733.30 0.2283
733.40 0.2282
733.50 0.2281
733.60 0.228
733.70 0.2278
733.80 0.2277
733.90 0.2276
734.00 0.2275
734.10 0.2274
734.20 0.2272
734.30 0.2271
734.40 0.227
734.50 0.2269
734.60 0.2268
734.70 0.2266
734.80 0.2265
734.90 0.2264
735.00 0.2263
735.10 0.2262
735.20 0.226
735.30 0.2259
735.40 0.2258
735.50 0.2257
735.60 0.2256
735.70 0.2254
735.80 0.2253
735.90 0.2252
736.00 0.2251
736.10 0.225
736.20 0.2248
736.30 0.2247
736.40 0.2246
736.50 0.2245
736.60 0.2244
736.70 0.2243
736.80 0.2241
736.90 0.224
737.00 0.2239
737.10 0.2238
737.20 0.2237
737.30 0.2235
737.40 0.2234
737.50 0.2233
737.60 0.2232
737.70 0.2231
737.80 0.223
737.90 0.2228
738.00 0.2227
738.10 0.2226
738.20 0.2225
738.30 0.2224
738.40 0.2223
738.50 0.2221
738.60 0.222
738.70 0.2219
738.80 0.2218
738.90 0.2217
739.00 0.2215
739.10 0.2214
739.20 0.2213
739.30 0.2212
739.40 0.2211
739.50 0.221
739.60 0.2208
739.70 0.2207
739.80 0.2206
739.90 0.2205
740.00 0.2204
740.10 0.2203
740.20 0.2202
740.30 0.22
740.40 0.2199
740.50 0.2198
740.60 0.2197
740.70 0.2196
740.80 0.2195
740.90 0.2194
741.00 0.2192
741.10 0.2191
741.20 0.219
741.30 0.2189
741.40 0.2188
741.50 0.2187
741.60 0.2186
741.70 0.2184
741.80 0.2183
741.90 0.2182
742.00 0.2181
742.10 0.218
742.20 0.2179
742.30 0.2178
742.40 0.2177
742.50 0.2175
742.60 0.2174
742.70 0.2173
742.80 0.2172
742.90 0.2171
743.00 0.217
743.10 0.2169
743.20 0.2167
743.30 0.2166
743.40 0.2165
743.50 0.2164
743.60 0.2163
743.70 0.2162
743.80 0.2161
743.90 0.216
744.00 0.2158
744.10 0.2157
744.20 0.2156
744.30 0.2155
744.40 0.2154
744.50 0.2153
744.60 0.2152
744.70 0.2151
744.80 0.215
744.90 0.2148
745.00 0.2147
745.10 0.2146
745.20 0.2145
745.30 0.2144
745.40 0.2143
745.50 0.2142
745.60 0.2141
745.70 0.2139
745.80 0.2138
745.90 0.2137
746.00 0.2136
746.10 0.2135
746.20 0.2134
746.30 0.2133
746.40 0.2132
746.50 0.2131
746.60 0.2129
746.70 0.2128
746.80 0.2127
746.90 0.2126
747.00 0.2125
747.10 0.2124
747.20 0.2123
747.30 0.2122
747.40 0.2121
747.50 0.212
747.60 0.2118
747.70 0.2117
747.80 0.2116
747.90 0.2115
748.00 0.2114
748.10 0.2113
748.20 0.2112
748.30 0.2111
748.40 0.211
748.50 0.2109
748.60 0.2107
748.70 0.2106
748.80 0.2105
748.90 0.2104
749.00 0.2103
749.10 0.2102
749.20 0.2101
749.30 0.21
749.40 0.2099
749.50 0.2098
749.60 0.2096
749.70 0.2095
749.80 0.2094
749.90 0.2093
750.00 0.2092
750.10 0.2091
750.20 0.209
750.30 0.2089
750.40 0.2088
750.50 0.2087
750.60 0.2086
750.70 0.2085
750.80 0.2084
750.90 0.2082
751.00 0.2081
751.10 0.208
751.20 0.2079
751.30 0.2078
751.40 0.2077
751.50 0.2076
751.60 0.2075
751.70 0.2074
751.80 0.2073
751.90 0.2072
752.00 0.2071
752.10 0.207
752.20 0.2069
752.30 0.2068
752.40 0.2066
752.50 0.2065
752.60 0.2064
752.70 0.2063
752.80 0.2062
752.90 0.2061
753.00 0.206
753.10 0.2059
753.20 0.2058
753.30 0.2057
753.40 0.2056
753.50 0.2055
753.60 0.2054
753.70 0.2053
753.80 0.2052
753.90 0.2051
754.00 0.205
754.10 0.2049
754.20 0.2048
754.30 0.2046
754.40 0.2045
754.50 0.2044
754.60 0.2043
754.70 0.2042
754.80 0.2041
754.90 0.204
755.00 0.2039
755.10 0.2038
755.20 0.2037
755.30 0.2036
755.40 0.2035
755.50 0.2034
755.60 0.2033
755.70 0.2032
755.80 0.2031
755.90 0.203
756.00 0.2029
756.10 0.2028
756.20 0.2027
756.30 0.2026
756.40 0.2024
756.50 0.2023
756.60 0.2022
756.70 0.2021
756.80 0.202
756.90 0.2019
757.00 0.2018
757.10 0.2017
757.20 0.2016
757.30 0.2015
757.40 0.2014
757.50 0.2013
757.60 0.2012
757.70 0.2011
757.80 0.201
757.90 0.2009
758.00 0.2008
758.10 0.2007
758.20 0.2006
758.30 0.2005
758.40 0.2004
758.50 0.2003
758.60 0.2002
758.70 0.2001
758.80 0.2
758.90 0.1999
759.00 0.1998
759.10 0.1997
759.20 0.1996
759.30 0.1995
759.40 0.1993
759.50 0.1992
759.60 0.1991
759.70 0.199
759.80 0.1989
759.90 0.1988
760.00 0.1987
760.10 0.1986
760.20 0.1985
760.30 0.1984
760.40 0.1983
760.50 0.1982
760.60 0.1981
760.70 0.198
760.80 0.1979
760.90 0.1978
761.00 0.1977
761.10 0.1976
761.20 0.1975
761.30 0.1974
761.40 0.1973
761.50 0.1972
761.60 0.1971
761.70 0.197
761.80 0.1969
761.90 0.1968
762.00 0.1967
762.10 0.1966
762.20 0.1965
762.30 0.1964
762.40 0.1963
762.50 0.1962
762.60 0.1961
762.70 0.196
762.80 0.1959
762.90 0.1958
763.00 0.1957
763.10 0.1956
763.20 0.1955
763.30 0.1954
763.40 0.1953
763.50 0.1952
763.60 0.1951
763.70 0.195
763.80 0.1949
763.90 0.1949
764.00 0.1948
764.10 0.1947
764.20 0.1946
764.30 0.1945
764.40 0.1944
764.50 0.1943
764.60 0.1942
764.70 0.1941
764.80 0.194
764.90 0.1939
765.00 0.1938
765.10 0.1937
765.20 0.1936
765.30 0.1935
765.40 0.1934
765.50 0.1933
765.60 0.1932
765.70 0.1931
765.80 0.193
765.90 0.1929
766.00 0.1928
766.10 0.1927
766.20 0.1926
766.30 0.1925
766.40 0.1924
766.50 0.1923
766.60 0.1922
766.70 0.1921
766.80 0.192
766.90 0.1919
767.00 0.1918
767.10 0.1917
767.20 0.1916
767.30 0.1915
767.40 0.1914
767.50 0.1913
767.60 0.1912
767.70 0.1911
767.80 0.191
767.90 0.1909
768.00 0.1908
768.10 0.1907
768.20 0.1906
768.30 0.1906
768.40 0.1905
768.50 0.1904
768.60 0.1903
768.70 0.1902
768.80 0.1901
768.90 0.19
769.00 0.1899
769.10 0.1898
769.20 0.1897
769.30 0.1896
769.40 0.1895
769.50 0.1894
769.60 0.1893
769.70 0.1892
769.80 0.1891
769.90 0.189
770.00 0.1889
770.10 0.1888
770.20 0.1887
770.30 0.1886
770.40 0.1885
770.50 0.1884
770.60 0.1883
770.70 0.1883
770.80 0.1882
770.90 0.1881
771.00 0.188
771.10 0.1879
771.20 0.1878
771.30 0.1877
771.40 0.1876
771.50 0.1875
771.60 0.1874
771.70 0.1873
771.80 0.1872
771.90 0.1871
772.00 0.187
772.10 0.1869
772.20 0.1868
772.30 0.1868
772.40 0.1867
772.50 0.1866
772.60 0.1865
772.70 0.1864
772.80 0.1863
772.90 0.1862
773.00 0.1861
773.10 0.186
773.20 0.1859
773.30 0.1858
773.40 0.1857
773.50 0.1856
773.60 0.1855
773.70 0.1855
773.80 0.1854
773.90 0.1853
774.00 0.1852
774.10 0.1851
774.20 0.185
774.30 0.1849
774.40 0.1848
774.50 0.1847
774.60 0.1846
774.70 0.1845
774.80 0.1844
774.90 0.1843
775.00 0.1842
775.10 0.1842
775.20 0.1841
775.30 0.184
775.40 0.1839
775.50 0.1838
775.60 0.1837
775.70 0.1836
775.80 0.1835
775.90 0.1834
776.00 0.1833
776.10 0.1832
776.20 0.1831
776.30 0.1831
776.40 0.183
776.50 0.1829
776.60 0.1828
776.70 0.1827
776.80 0.1826
776.90 0.1825
777.00 0.1824
777.10 0.1823
777.20 0.1822
777.30 0.1821
777.40 0.182
777.50 0.182
777.60 0.1819
777.70 0.1818
777.80 0.1817
777.90 0.1816
778.00 0.1815
778.10 0.1814
778.20 0.1813
778.30 0.1812
778.40 0.1811
778.50 0.181
778.60 0.181
778.70 0.1809
778.80 0.1808
778.90 0.1807
779.00 0.1806
779.10 0.1805
779.20 0.1804
779.30 0.1803
779.40 0.1802
779.50 0.1801
779.60 0.18
779.70 0.18
779.80 0.1799
779.90 0.1798
780.00 0.1797
780.10 0.1796
780.20 0.1795
780.30 0.1794
780.40 0.1793
780.50 0.1792
780.60 0.1792
780.70 0.1791
780.80 0.179
780.90 0.1789
781.00 0.1788
781.10 0.1787
781.20 0.1786
781.30 0.1785
781.40 0.1785
781.50 0.1784
781.60 0.1783
781.70 0.1782
781.80 0.1781
781.90 0.178
782.00 0.1779
782.10 0.1778
782.20 0.1777
782.30 0.1777
782.40 0.1776
782.50 0.1775
782.60 0.1774
782.70 0.1773
782.80 0.1772
782.90 0.1771
783.00 0.177
783.10 0.177
783.20 0.1769
783.30 0.1768
783.40 0.1767
783.50 0.1766
783.60 0.1765
783.70 0.1764
783.80 0.1763
783.90 0.1763
784.00 0.1762
784.10 0.1761
784.20 0.176
784.30 0.1759
784.40 0.1758
784.50 0.1757
784.60 0.1757
784.70 0.1756
784.80 0.1755
784.90 0.1754
785.00 0.1753
785.10 0.1752
785.20 0.1751
785.30 0.175
785.40 0.175
785.50 0.1749
785.60 0.1748
785.70 0.1747
785.80 0.1746
785.90 0.1745
786.00 0.1744
786.10 0.1744
786.20 0.1743
786.30 0.1742
786.40 0.1741
786.50 0.174
786.60 0.1739
786.70 0.1738
786.80 0.1738
786.90 0.1737
787.00 0.1736
787.10 0.1735
787.20 0.1734
787.30 0.1733
787.40 0.1732
787.50 0.1732
787.60 0.1731
787.70 0.173
787.80 0.1729
787.90 0.1728
788.00 0.1727
788.10 0.1726
788.20 0.1726
788.30 0.1725
788.40 0.1724
788.50 0.1723
788.60 0.1722
788.70 0.1721
788.80 0.172
788.90 0.172
789.00 0.1719
789.10 0.1718
789.20 0.1717
789.30 0.1716
789.40 0.1715
789.50 0.1714
789.60 0.1714
789.70 0.1713
789.80 0.1712
789.90 0.1711
790.00 0.171
790.10 0.1709
790.20 0.1709
790.30 0.1708
790.40 0.1707
790.50 0.1706
790.60 0.1705
790.70 0.1704
790.80 0.1704
790.90 0.1703
791.00 0.1702
791.10 0.1701
791.20 0.17
791.30 0.1699
791.40 0.1699
791.50 0.1698
791.60 0.1697
791.70 0.1696
791.80 0.1695
791.90 0.1694
792.00 0.1694
792.10 0.1693
792.20 0.1692
792.30 0.1691
792.40 0.169
792.50 0.169
792.60 0.1689
792.70 0.1688
792.80 0.1687
792.90 0.1686
793.00 0.1685
793.10 0.1685
793.20 0.1684
793.30 0.1683
793.40 0.1682
793.50 0.1681
793.60 0.168
793.70 0.168
793.80 0.1679
793.90 0.1678
794.00 0.1677
794.10 0.1676
794.20 0.1676
794.30 0.1675
794.40 0.1674
794.50 0.1673
794.60 0.1672
794.70 0.1671
794.80 0.1671
794.90 0.167
795.00 0.1669
795.10 0.1668
795.20 0.1667
795.30 0.1667
795.40 0.1666
795.50 0.1665
795.60 0.1664
795.70 0.1663
795.80 0.1663
795.90 0.1662
796.00 0.1661
796.10 0.166
796.20 0.1659
796.30 0.1658
796.40 0.1658
796.50 0.1657
796.60 0.1656
796.70 0.1655
796.80 0.1654
796.90 0.1654
797.00 0.1653
797.10 0.1652
797.20 0.1651
797.30 0.165
797.40 0.165
797.50 0.1649
797.60 0.1648
797.70 0.1647
797.80 0.1646
797.90 0.1646
798.00 0.1645
798.10 0.1644
798.20 0.1643
798.30 0.1642
798.40 0.1642
798.50 0.1641
798.60 0.164
798.70 0.1639
798.80 0.1638
798.90 0.1638
799.00 0.1637
799.10 0.1636
799.20 0.1635
799.30 0.1634
799.40 0.1634
799.50 0.1633
799.60 0.1632
799.70 0.1631
799.80 0.163
799.90 0.163
800.00 0.1629
800.10 0.1628
800.20 0.1627
800.30 0.1626
800.40 0.1626
800.50 0.1625
800.60 0.1624
800.70 0.1623
800.80 0.1622
800.90 0.1622
801.00 0.1621
801.10 0.162
801.20 0.1619
801.30 0.1619
801.40 0.1618
801.50 0.1617
801.60 0.1616
801.70 0.1615
801.80 0.1615
801.90 0.1614
802.00 0.1613
802.10 0.1612
802.20 0.1612
802.30 0.1611
802.40 0.161
802.50 0.1609
802.60 0.1608
802.70 0.1608
802.80 0.1607
802.90 0.1606
803.00 0.1605
803.10 0.1605
803.20 0.1604
803.30 0.1603
803.40 0.1602
803.50 0.1602
803.60 0.1601
803.70 0.16
803.80 0.1599
803.90 0.1598
804.00 0.1598
804.10 0.1597
804.20 0.1596
804.30 0.1595
804.40 0.1595
804.50 0.1594
804.60 0.1593
804.70 0.1592
804.80 0.1592
804.90 0.1591
805.00 0.159
805.10 0.1589
805.20 0.1588
805.30 0.1588
805.40 0.1587
805.50 0.1586
805.60 0.1585
805.70 0.1585
805.80 0.1584
805.90 0.1583
806.00 0.1582
806.10 0.1582
806.20 0.1581
806.30 0.158
806.40 0.1579
806.50 0.1579
806.60 0.1578
806.70 0.1577
806.80 0.1576
806.90 0.1575
807.00 0.1575
807.10 0.1574
807.20 0.1573
807.30 0.1572
807.40 0.1572
807.50 0.1571
807.60 0.157
807.70 0.1569
807.80 0.1569
807.90 0.1568
808.00 0.1567
808.10 0.1566
808.20 0.1566
808.30 0.1565
808.40 0.1564
808.50 0.1563
808.60 0.1563
808.70 0.1562
808.80 0.1561
808.90 0.156
809.00 0.156
809.10 0.1559
809.20 0.1558
809.30 0.1557
809.40 0.1557
809.50 0.1556
809.60 0.1555
809.70 0.1554
809.80 0.1554
809.90 0.1553
810.00 0.1552
810.10 0.1551
810.20 0.1551
810.30 0.155
810.40 0.1549
810.50 0.1548
810.60 0.1548
810.70 0.1547
810.80 0.1546
810.90 0.1545
811.00 0.1545
811.10 0.1544
811.20 0.1543
811.30 0.1542
811.40 0.1542
811.50 0.1541
811.60 0.154
811.70 0.154
811.80 0.1539
811.90 0.1538
812.00 0.1537
812.10 0.1537
812.20 0.1536
812.30 0.1535
812.40 0.1534
812.50 0.1534
812.60 0.1533
812.70 0.1532
812.80 0.1532
812.90 0.1531
813.00 0.153
813.10 0.1529
813.20 0.1529
813.30 0.1528
813.40 0.1527
813.50 0.1526
813.60 0.1526
813.70 0.1525
813.80 0.1524
813.90 0.1524
814.00 0.1523
814.10 0.1522
814.20 0.1521
814.30 0.1521
814.40 0.152
814.50 0.1519
814.60 0.1518
814.70 0.1518
814.80 0.1517
814.90 0.1516
815.00 0.1516
815.10 0.1515
815.20 0.1514
815.30 0.1513
815.40 0.1513
815.50 0.1512
815.60 0.1511
815.70 0.1511
815.80 0.151
815.90 0.1509
816.00 0.1508
816.10 0.1508
816.20 0.1507
816.30 0.1506
816.40 0.1505
816.50 0.1505
816.60 0.1504
816.70 0.1503
816.80 0.1503
816.90 0.1502
817.00 0.1501
817.10 0.15
817.20 0.15
817.30 0.1499
817.40 0.1498
817.50 0.1498
817.60 0.1497
817.70 0.1496
817.80 0.1495
817.90 0.1495
818.00 0.1494
818.10 0.1493
818.20 0.1493
818.30 0.1492
818.40 0.1491
818.50 0.149
818.60 0.149
818.70 0.1489
818.80 0.1488
818.90 0.1488
819.00 0.1487
819.10 0.1486
819.20 0.1486
819.30 0.1485
819.40 0.1484
819.50 0.1483
819.60 0.1483
819.70 0.1482
819.80 0.1481
819.90 0.1481
820.00 0.148
820.10 0.1479
820.20 0.1478
820.30 0.1478
820.40 0.1477
820.50 0.1476
820.60 0.1476
820.70 0.1475
820.80 0.1474
820.90 0.1474
821.00 0.1473
821.10 0.1472
821.20 0.1471
821.30 0.1471
821.40 0.147
821.50 0.1469
821.60 0.1469
821.70 0.1468
821.80 0.1467
821.90 0.1467
822.00 0.1466
822.10 0.1465
822.20 0.1465
822.30 0.1464
822.40 0.1463
822.50 0.1462
822.60 0.1462
822.70 0.1461
822.80 0.146
822.90 0.146
823.00 0.1459
823.10 0.1458
823.20 0.1458
823.30 0.1457
823.40 0.1456
823.50 0.1456
823.60 0.1455
823.70 0.1454
823.80 0.1454
823.90 0.1453
824.00 0.1452
824.10 0.1451
824.20 0.1451
824.30 0.145
824.40 0.1449
824.50 0.1449
824.60 0.1448
824.70 0.1447
824.80 0.1447
824.90 0.1446
825.00 0.1445
825.10 0.1445
825.20 0.1444
825.30 0.1443
825.40 0.1443
825.50 0.1442
825.60 0.1441
825.70 0.1441
825.80 0.144
825.90 0.1439
826.00 0.1439
826.10 0.1438
826.20 0.1437
826.30 0.1437
826.40 0.1436
826.50 0.1435
826.60 0.1434
826.70 0.1434
826.80 0.1433
826.90 0.1432
827.00 0.1432
827.10 0.1431
827.20 0.143
827.30 0.143
827.40 0.1429
827.50 0.1428
827.60 0.1428
827.70 0.1427
827.80 0.1426
827.90 0.1426
828.00 0.1425
828.10 0.1424
828.20 0.1424
828.30 0.1423
828.40 0.1422
828.50 0.1422
828.60 0.1421
828.70 0.142
828.80 0.142
828.90 0.1419
829.00 0.1418
829.10 0.1418
829.20 0.1417
829.30 0.1416
829.40 0.1416
829.50 0.1415
829.60 0.1414
829.70 0.1414
829.80 0.1413
829.90 0.1412
830.00 0.1412
830.10 0.1411
830.20 0.141
830.30 0.141
830.40 0.1409
830.50 0.1409
830.60 0.1408
830.70 0.1407
830.80 0.1407
830.90 0.1406
831.00 0.1405
831.10 0.1405
831.20 0.1404
831.30 0.1403
831.40 0.1403
831.50 0.1402
831.60 0.1401
831.70 0.1401
831.80 0.14
831.90 0.1399
832.00 0.1399
832.10 0.1398
832.20 0.1397
832.30 0.1397
832.40 0.1396
832.50 0.1395
832.60 0.1395
832.70 0.1394
832.80 0.1393
832.90 0.1393
833.00 0.1392
833.10 0.1391
833.20 0.1391
833.30 0.139
833.40 0.139
833.50 0.1389
833.60 0.1388
833.70 0.1388
833.80 0.1387
833.90 0.1386
834.00 0.1386
834.10 0.1385
834.20 0.1384
834.30 0.1384
834.40 0.1383
834.50 0.1382
834.60 0.1382
834.70 0.1381
834.80 0.138
834.90 0.138
835.00 0.1379
835.10 0.1379
835.20 0.1378
835.30 0.1377
835.40 0.1377
835.50 0.1376
835.60 0.1375
835.70 0.1375
835.80 0.1374
835.90 0.1373
836.00 0.1373
836.10 0.1372
836.20 0.1371
836.30 0.1371
836.40 0.137
836.50 0.137
836.60 0.1369
836.70 0.1368
836.80 0.1368
836.90 0.1367
837.00 0.1366
837.10 0.1366
837.20 0.1365
837.30 0.1364
837.40 0.1364
837.50 0.1363
837.60 0.1363
837.70 0.1362
837.80 0.1361
837.90 0.1361
838.00 0.136
838.10 0.1359
838.20 0.1359
838.30 0.1358
838.40 0.1358
838.50 0.1357
838.60 0.1356
838.70 0.1356
838.80 0.1355
838.90 0.1354
839.00 0.1354
839.10 0.1353
839.20 0.1353
839.30 0.1352
839.40 0.1351
839.50 0.1351
839.60 0.135
839.70 0.1349
839.80 0.1349
839.90 0.1348
840.00 0.1348
840.10 0.1347
840.20 0.1346
840.30 0.1346
840.40 0.1345
840.50 0.1344
840.60 0.1344
840.70 0.1343
840.80 0.1343
840.90 0.1342
841.00 0.1341
841.10 0.1341
841.20 0.134
841.30 0.1339
841.40 0.1339
841.50 0.1338
841.60 0.1338
841.70 0.1337
841.80 0.1336
841.90 0.1336
842.00 0.1335
842.10 0.1334
842.20 0.1334
842.30 0.1333
842.40 0.1333
842.50 0.1332
842.60 0.1331
842.70 0.1331
842.80 0.133
842.90 0.133
843.00 0.1329
843.10 0.1328
843.20 0.1328
843.30 0.1327
843.40 0.1326
843.50 0.1326
843.60 0.1325
843.70 0.1325
843.80 0.1324
843.90 0.1323
844.00 0.1323
844.10 0.1322
844.20 0.1322
844.30 0.1321
844.40 0.132
844.50 0.132
844.60 0.1319
844.70 0.1319
844.80 0.1318
844.90 0.1317
845.00 0.1317
845.10 0.1316
845.20 0.1316
845.30 0.1315
845.40 0.1314
845.50 0.1314
845.60 0.1313
845.70 0.1312
845.80 0.1312
845.90 0.1311
846.00 0.1311
846.10 0.131
846.20 0.1309
846.30 0.1309
846.40 0.1308
846.50 0.1308
846.60 0.1307
846.70 0.1306
846.80 0.1306
846.90 0.1305
847.00 0.1305
847.10 0.1304
847.20 0.1303
847.30 0.1303
847.40 0.1302
847.50 0.1302
847.60 0.1301
847.70 0.13
847.80 0.13
847.90 0.1299
848.00 0.1299
848.10 0.1298
848.20 0.1298
848.30 0.1297
848.40 0.1296
848.50 0.1296
848.60 0.1295
848.70 0.1295
848.80 0.1294
848.90 0.1293
849.00 0.1293
849.10 0.1292
849.20 0.1292
849.30 0.1291
849.40 0.129
849.50 0.129
849.60 0.1289
849.70 0.1289
849.80 0.1288
849.90 0.1287
850.00 0.1287
850.10 0.1286
850.20 0.1286
850.30 0.1285
850.40 0.1284
850.50 0.1284
850.60 0.1283
850.70 0.1283
850.80 0.1282
850.90 0.1282
851.00 0.1281
851.10 0.128
851.20 0.128
851.30 0.1279
851.40 0.1279
851.50 0.1278
851.60 0.1277
851.70 0.1277
851.80 0.1276
851.90 0.1276
852.00 0.1275
852.10 0.1275
852.20 0.1274
852.30 0.1273
852.40 0.1273
852.50 0.1272
852.60 0.1272
852.70 0.1271
852.80 0.127
852.90 0.127
853.00 0.1269
853.10 0.1269
853.20 0.1268
853.30 0.1268
853.40 0.1267
853.50 0.1266
853.60 0.1266
853.70 0.1265
853.80 0.1265
853.90 0.1264
854.00 0.1264
854.10 0.1263
854.20 0.1262
854.30 0.1262
854.40 0.1261
854.50 0.1261
854.60 0.126
854.70 0.126
854.80 0.1259
854.90 0.1258
855.00 0.1258
855.10 0.1257
855.20 0.1257
855.30 0.1256
855.40 0.1256
855.50 0.1255
855.60 0.1254
855.70 0.1254
855.80 0.1253
855.90 0.1253
856.00 0.1252
856.10 0.1252
856.20 0.1251
856.30 0.125
856.40 0.125
856.50 0.1249
856.60 0.1249
856.70 0.1248
856.80 0.1248
856.90 0.1247
857.00 0.1246
857.10 0.1246
857.20 0.1245
857.30 0.1245
857.40 0.1244
857.50 0.1244
857.60 0.1243
857.70 0.1242
857.80 0.1242
857.90 0.1241
858.00 0.1241
858.10 0.124
858.20 0.124
858.30 0.1239
858.40 0.1239
858.50 0.1238
858.60 0.1237
858.70 0.1237
858.80 0.1236
858.90 0.1236
859.00 0.1235
859.10 0.1235
859.20 0.1234
859.30 0.1234
859.40 0.1233
859.50 0.1232
859.60 0.1232
859.70 0.1231
859.80 0.1231
859.90 0.123
860.00 0.123
860.10 0.1229
860.20 0.1229
860.30 0.1228
860.40 0.1227
860.50 0.1227
860.60 0.1226
860.70 0.1226
860.80 0.1225
860.90 0.1225
861.00 0.1224
861.10 0.1224
861.20 0.1223
861.30 0.1222
861.40 0.1222
861.50 0.1221
861.60 0.1221
861.70 0.122
861.80 0.122
861.90 0.1219
862.00 0.1219
862.10 0.1218
862.20 0.1217
862.30 0.1217
862.40 0.1216
862.50 0.1216
862.60 0.1215
862.70 0.1215
862.80 0.1214
862.90 0.1214
863.00 0.1213
863.10 0.1213
863.20 0.1212
863.30 0.1211
863.40 0.1211
863.50 0.121
863.60 0.121
863.70 0.1209
863.80 0.1209
863.90 0.1208
864.00 0.1208
864.10 0.1207
864.20 0.1207
864.30 0.1206
864.40 0.1206
864.50 0.1205
864.60 0.1204
864.70 0.1204
864.80 0.1203
864.90 0.1203
865.00 0.1202
865.10 0.1202
865.20 0.1201
865.30 0.1201
865.40 0.12
865.50 0.12
865.60 0.1199
865.70 0.1199
865.80 0.1198
865.90 0.1197
866.00 0.1197
866.10 0.1196
866.20 0.1196
866.30 0.1195
866.40 0.1195
866.50 0.1194
866.60 0.1194
866.70 0.1193
866.80 0.1193
866.90 0.1192
867.00 0.1192
867.10 0.1191
867.20 0.1191
867.30 0.119
867.40 0.1189
867.50 0.1189
867.60 0.1188
867.70 0.1188
867.80 0.1187
867.90 0.1187
868.00 0.1186
868.10 0.1186
868.20 0.1185
868.30 0.1185
868.40 0.1184
868.50 0.1184
868.60 0.1183
868.70 0.1183
868.80 0.1182
868.90 0.1181
869.00 0.1181
869.10 0.118
869.20 0.118
869.30 0.1179
869.40 0.1179
869.50 0.1178
869.60 0.1178
869.70 0.1177
869.80 0.1177
869.90 0.1176
870.00 0.1176
870.10 0.1175
870.20 0.1175
870.30 0.1174
870.40 0.1174
870.50 0.1173
870.60 0.1173
870.70 0.1172
870.80 0.1171
870.90 0.1171
871.00 0.117
871.10 0.117
871.20 0.1169
871.30 0.1169
871.40 0.1168
871.50 0.1168
871.60 0.1167
871.70 0.1167
871.80 0.1166
871.90 0.1166
872.00 0.1165
872.10 0.1165
872.20 0.1164
872.30 0.1164
872.40 0.1163
872.50 0.1163
872.60 0.1162
872.70 0.1162
872.80 0.1161
872.90 0.1161
873.00 0.116
873.10 0.116
873.20 0.1159
873.30 0.1159
873.40 0.1158
873.50 0.1158
873.60 0.1157
873.70 0.1156
873.80 0.1156
873.90 0.1155
874.00 0.1155
874.10 0.1154
874.20 0.1154
874.30 0.1153
874.40 0.1153
874.50 0.1152
874.60 0.1152
874.70 0.1151
874.80 0.1151
874.90 0.115
875.00 0.115
875.10 0.1149
875.20 0.1149
875.30 0.1148
875.40 0.1148
875.50 0.1147
875.60 0.1147
875.70 0.1146
875.80 0.1146
875.90 0.1145
876.00 0.1145
876.10 0.1144
876.20 0.1144
876.30 0.1143
876.40 0.1143
876.50 0.1142
876.60 0.1142
876.70 0.1141
876.80 0.1141
876.90 0.114
877.00 0.114
877.10 0.1139
877.20 0.1139
877.30 0.1138
877.40 0.1138
877.50 0.1137
877.60 0.1137
877.70 0.1136
877.80 0.1136
877.90 0.1135
878.00 0.1135
878.10 0.1134
878.20 0.1134
878.30 0.1133
878.40 0.1133
878.50 0.1132
878.60 0.1132
878.70 0.1131
878.80 0.1131
878.90 0.113
879.00 0.113
879.10 0.1129
879.20 0.1129
879.30 0.1128
879.40 0.1128
879.50 0.1127
879.60 0.1127
879.70 0.1126
879.80 0.1126
879.90 0.1125
880.00 0.1125
880.10 0.1124
880.20 0.1124
880.30 0.1123
880.40 0.1123
880.50 0.1122
880.60 0.1122
880.70 0.1121
880.80 0.1121
880.90 0.112
881.00 0.112
881.10 0.1119
881.20 0.1119
881.30 0.1118
881.40 0.1118
881.50 0.1117
881.60 0.1117
881.70 0.1116
881.80 0.1116
881.90 0.1115
882.00 0.1115
882.10 0.1114
882.20 0.1114
882.30 0.1113
882.40 0.1113
882.50 0.1112
882.60 0.1112
882.70 0.1111
882.80 0.1111
882.90 0.111
883.00 0.111
883.10 0.1109
883.20 0.1109
883.30 0.1108
883.40 0.1108
883.50 0.1108
883.60 0.1107
883.70 0.1107
883.80 0.1106
883.90 0.1106
884.00 0.1105
884.10 0.1105
884.20 0.1104
884.30 0.1104
884.40 0.1103
884.50 0.1103
884.60 0.1102
884.70 0.1102
884.80 0.1101
884.90 0.1101
885.00 0.11
885.10 0.11
885.20 0.1099
885.30 0.1099
885.40 0.1098
885.50 0.1098
885.60 0.1097
885.70 0.1097
885.80 0.1096
885.90 0.1096
886.00 0.1095
886.10 0.1095
886.20 0.1094
886.30 0.1094
886.40 0.1094
886.50 0.1093
886.60 0.1093
886.70 0.1092
886.80 0.1092
886.90 0.1091
887.00 0.1091
887.10 0.109
887.20 0.109
887.30 0.1089
887.40 0.1089
887.50 0.1088
887.60 0.1088
887.70 0.1087
887.80 0.1087
887.90 0.1086
888.00 0.1086
888.10 0.1086
888.20 0.1085
888.30 0.1085
888.40 0.1084
888.50 0.1084
888.60 0.1083
888.70 0.1083
888.80 0.1082
888.90 0.1082
889.00 0.1081
889.10 0.1081
889.20 0.108
889.30 0.108
889.40 0.1079
889.50 0.1079
889.60 0.1078
889.70 0.1078
889.80 0.1078
889.90 0.1077
890.00 0.1077
890.10 0.1076
890.20 0.1076
890.30 0.1075
890.40 0.1075
890.50 0.1074
890.60 0.1074
890.70 0.1073
890.80 0.1073
890.90 0.1072
891.00 0.1072
891.10 0.1072
891.20 0.1071
891.30 0.1071
891.40 0.107
891.50 0.107
891.60 0.1069
891.70 0.1069
891.80 0.1068
891.90 0.1068
892.00 0.1067
892.10 0.1067
892.20 0.1066
892.30 0.1066
892.40 0.1065
892.50 0.1065
892.60 0.1065
892.70 0.1064
892.80 0.1064
892.90 0.1063
893.00 0.1063
893.10 0.1062
893.20 0.1062
893.30 0.1061
893.40 0.1061
893.50 0.106
893.60 0.106
893.70 0.1059
893.80 0.1059
893.90 0.1058
894.00 0.1058
894.10 0.1057
894.20 0.1057
894.30 0.1057
894.40 0.1056
894.50 0.1056
894.60 0.1055
894.70 0.1055
894.80 0.1054
894.90 0.1054
895.00 0.1053
895.10 0.1053
895.20 0.1052
895.30 0.1052
895.40 0.1051
895.50 0.1051
895.60 0.105
895.70 0.105
895.80 0.105
895.90 0.1049
896.00 0.1049
896.10 0.1048
896.20 0.1048
896.30 0.1047
896.40 0.1047
896.50 0.1046
896.60 0.1046
896.70 0.1045
896.80 0.1045
896.90 0.1044
897.00 0.1044
897.10 0.1044
897.20 0.1043
897.30 0.1043
897.40 0.1042
897.50 0.1042
897.60 0.1041
897.70 0.1041
897.80 0.104
897.90 0.104
898.00 0.1039
898.10 0.1039
898.20 0.1038
898.30 0.1038
898.40 0.1038
898.50 0.1037
898.60 0.1037
898.70 0.1036
898.80 0.1036
898.90 0.1035
899.00 0.1035
899.10 0.1034
899.20 0.1034
899.30 0.1033
899.40 0.1033
899.50 0.1032
899.60 0.1032
899.70 0.1032
899.80 0.1031
899.90 0.1031
900.00 0.103
900.10 0.103
900.20 0.1029
900.30 0.1029
900.40 0.1028
900.50 0.1028
900.60 0.1027
900.70 0.1027
900.80 0.1027
900.90 0.1026
901.00 0.1026
901.10 0.1025
901.20 0.1025
901.30 0.1024
901.40 0.1024
901.50 0.1023
901.60 0.1023
901.70 0.1022
901.80 0.1022
901.90 0.1022
902.00 0.1021
902.10 0.1021
902.20 0.102
902.30 0.102
902.40 0.1019
902.50 0.1019
902.60 0.1019
902.70 0.1018
902.80 0.1018
902.90 0.1017
903.00 0.1017
903.10 0.1017
903.20 0.1016
903.30 0.1016
903.40 0.1015
903.50 0.1015
903.60 0.1015
903.70 0.1014
903.80 0.1014
903.90 0.1013
904.00 0.1013
904.10 0.1012
904.20 0.1012
904.30 0.1012
904.40 0.1011
904.50 0.1011
904.60 0.101
904.70 0.101
904.80 0.101
904.90 0.1009
905.00 0.1009
905.10 0.1008
905.20 0.1008
905.30 0.1008
905.40 0.1007
905.50 0.1007
905.60 0.1006
905.70 0.1006
905.80 0.1005
905.90 0.1005
906.00 0.1005
906.10 0.1004
906.20 0.1004
906.30 0.1003
906.40 0.1003
906.50 0.1003
906.60 0.1002
906.70 0.1002
906.80 0.1001
906.90 0.1001
907.00 0.1001
907.10 0.1
907.20 0.09998
907.30 0.09993
907.40 0.09989
907.50 0.09985
907.60 0.09981
907.70 0.09977
907.80 0.09973
907.90 0.09968
908.00 0.09964
908.10 0.0996
908.20 0.09956
908.30 0.09952
908.40 0.09948
908.50 0.09943
908.60 0.09939
908.70 0.09935
908.80 0.09931
908.90 0.09927
909.00 0.09923
909.10 0.09919
909.20 0.09914
909.30 0.0991
909.40 0.09906
909.50 0.09902
909.60 0.09898
909.70 0.09894
909.80 0.0989
909.90 0.09886
910.00 0.09881
910.10 0.09877
910.20 0.09873
910.30 0.09869
910.40 0.09865
910.50 0.09861
910.60 0.09857
910.70 0.09853
910.80 0.09848
910.90 0.09844
911.00 0.0984
911.10 0.09836
911.20 0.09832
911.30 0.09828
911.40 0.09824
911.50 0.0982
911.60 0.09816
911.70 0.09811
911.80 0.09807
911.90 0.09803
912.00 0.09799
912.10 0.09795
912.20 0.0979
912.30 0.09786
912.40 0.09782
912.50 0.09777
912.60 0.09773
912.70 0.09769
912.80 0.09764
912.90 0.0976
913.00 0.09756
913.10 0.09751
913.20 0.09747
913.30 0.09743
913.40 0.09738
913.50 0.09734
913.60 0.0973
913.70 0.09725
913.80 0.09721
913.90 0.09717
914.00 0.09712
914.10 0.09708
914.20 0.09704
914.30 0.09699
914.40 0.09695
914.50 0.09691
914.60 0.09686
914.70 0.09682
914.80 0.09678
914.90 0.09673
915.00 0.09669
915.10 0.09665
915.20 0.0966
915.30 0.09656
915.40 0.09652
915.50 0.09647
915.60 0.09643
915.70 0.09639
915.80 0.09635
915.90 0.0963
916.00 0.09626
916.10 0.09622
916.20 0.09617
916.30 0.09613
916.40 0.09609
916.50 0.09604
916.60 0.096
916.70 0.09596
916.80 0.09592
916.90 0.09587
917.00 0.09583
917.10 0.09578
917.20 0.09574
917.30 0.09569
917.40 0.09565
917.50 0.0956
917.60 0.09556
917.70 0.09551
917.80 0.09546
917.90 0.09542
918.00 0.09537
918.10 0.09533
918.20 0.09528
918.30 0.09524
918.40 0.09519
918.50 0.09514
918.60 0.0951
918.70 0.09505
918.80 0.09501
918.90 0.09496
919.00 0.09492
919.10 0.09487
919.20 0.09483
919.30 0.09478
919.40 0.09473
919.50 0.09469
919.60 0.09464
919.70 0.0946
919.80 0.09455
919.90 0.09451
920.00 0.09446
920.10 0.09442
920.20 0.09437
920.30 0.09433
920.40 0.09428
920.50 0.09424
920.60 0.09419
920.70 0.09415
920.80 0.0941
920.90 0.09406
921.00 0.09401
921.10 0.09397
921.20 0.09392
921.30 0.09388
921.40 0.09383
921.50 0.09379
921.60 0.09374
921.70 0.09369
921.80 0.09365
921.90 0.0936
922.00 0.09356
922.10 0.09352
922.20 0.09349
922.30 0.09345
922.40 0.09342
922.50 0.09338
922.60 0.09335
922.70 0.09331
922.80 0.09328
922.90 0.09324
923.00 0.09321
923.10 0.09317
923.20 0.09314
923.30 0.0931
923.40 0.09307
923.50 0.09303
923.60 0.093
923.70 0.09296
923.80 0.09293
923.90 0.09289
924.00 0.09286
924.10 0.09282
924.20 0.09279
924.30 0.09275
924.40 0.09272
924.50 0.09268
924.60 0.09265
924.70 0.09261
924.80 0.09258
924.90 0.09254
925.00 0.09251
925.10 0.09247
925.20 0.09244
925.30 0.0924
925.40 0.09237
925.50 0.09233
925.60 0.0923
925.70 0.09226
925.80 0.09223
925.90 0.09219
926.00 0.09216
926.10 0.09212
926.20 0.09209
926.30 0.09205
926.40 0.09202
926.50 0.09198
926.60 0.09195
926.70 0.09191
926.80 0.09188
926.90 0.09185
927.00 0.09181
927.10 0.09178
927.20 0.09174
927.30 0.09171
927.40 0.09167
927.50 0.09164
927.60 0.0916
927.70 0.09157
927.80 0.09153
927.90 0.0915
928.00 0.09147
928.10 0.09143
928.20 0.0914
928.30 0.09136
928.40 0.09133
928.50 0.09129
928.60 0.09126
928.70 0.09123
928.80 0.09119
928.90 0.09116
929.00 0.09112
929.10 0.09109
929.20 0.09105
929.30 0.09102
929.40 0.09099
929.50 0.09095
929.60 0.09092
929.70 0.09088
929.80 0.09085
929.90 0.09082
930.00 0.09078
930.10 0.09075
930.20 0.09071
930.30 0.09068
930.40 0.09065
930.50 0.09061
930.60 0.09058
930.70 0.09054
930.80 0.09051
930.90 0.09048
931.00 0.09044
931.10 0.09041
931.20 0.09037
931.30 0.09034
931.40 0.09031
931.50 0.09027
931.60 0.09024
931.70 0.0902
931.80 0.09017
931.90 0.09014
932.00 0.0901
932.10 0.09007
932.20 0.09003
932.30 0.08999
932.40 0.08996
932.50 0.08992
932.60 0.08989
932.70 0.08985
932.80 0.08981
932.90 0.08978
933.00 0.08974
933.10 0.08971
933.20 0.08967
933.30 0.08964
933.40 0.0896
933.50 0.08956
933.60 0.08953
933.70 0.08949
933.80 0.08946
933.90 0.08942
934.00 0.08939
934.10 0.08935
934.20 0.08931
934.30 0.08928
934.40 0.08924
934.50 0.08921
934.60 0.08917
934.70 0.08913
934.80 0.0891
934.90 0.08906
935.00 0.08902
935.10 0.08899
935.20 0.08895
935.30 0.08892
935.40 0.08888
935.50 0.08884
935.60 0.08881
935.70 0.08877
935.80 0.08873
935.90 0.0887
936.00 0.08866
936.10 0.08863
936.20 0.08859
936.30 0.08855
936.40 0.08852
936.50 0.08848
936.60 0.08844
936.70 0.08841
936.80 0.08837
936.90 0.08834
937.00 0.0883
937.10 0.08826
937.20 0.08823
937.30 0.08819
937.40 0.08815
937.50 0.08812
937.60 0.08808
937.70 0.08805
937.80 0.08801
937.90 0.08797
938.00 0.08794
938.10 0.0879
938.20 0.08786
938.30 0.08783
938.40 0.08779
938.50 0.08775
938.60 0.08772
938.70 0.08768
938.80 0.08764
938.90 0.08761
939.00 0.08757
939.10 0.08753
939.20 0.0875
939.30 0.08746
939.40 0.08743
939.50 0.08739
939.60 0.08735
939.70 0.08732
939.80 0.08728
939.90 0.08724
940.00 0.08721
940.10 0.08717
940.20 0.08713
940.30 0.0871
940.40 0.08706
940.50 0.08702
940.60 0.08699
940.70 0.08695
940.80 0.08691
940.90 0.08688
941.00 0.08684
941.10 0.0868
941.20 0.08677
941.30 0.08673
941.40 0.08669
941.50 0.08666
941.60 0.08662
941.70 0.08658
941.80 0.08655
941.90 0.08651
942.00 0.08647
942.10 0.08644
942.20 0.0864
942.30 0.08636
942.40 0.08633
942.50 0.08629
942.60 0.08625
942.70 0.08621
942.80 0.08618
942.90 0.08614
943.00 0.0861
943.10 0.08606
943.20 0.08603
943.30 0.08599
943.40 0.08595
943.50 0.08592
943.60 0.08588
943.70 0.08584
943.80 0.0858
943.90 0.08577
944.00 0.08573
944.10 0.08569
944.20 0.08566
944.30 0.08562
944.40 0.08558
944.50 0.08554
944.60 0.08551
944.70 0.08547
944.80 0.08543
944.90 0.08539
945.00 0.08536
945.10 0.08532
945.20 0.08528
945.30 0.08524
945.40 0.0852
945.50 0.08517
945.60 0.08513
945.70 0.08509
945.80 0.08505
945.90 0.08501
946.00 0.08497
946.10 0.08493
946.20 0.0849
946.30 0.08486
946.40 0.08482
946.50 0.08478
946.60 0.08474
946.70 0.0847
946.80 0.08466
946.90 0.08463
947.00 0.08459
947.10 0.08455
947.20 0.08451
947.30 0.08447
947.40 0.08443
947.50 0.08439
947.60 0.08435
947.70 0.08431
947.80 0.08427
947.90 0.08422
948.00 0.08418
948.10 0.08414
948.20 0.0841
948.30 0.08406
948.40 0.08402
948.50 0.08398
948.60 0.08394
948.70 0.0839
948.80 0.08386
948.90 0.08382
949.00 0.08378
949.10 0.08374
949.20 0.0837
949.30 0.08366
949.40 0.08361
949.50 0.08357
949.60 0.08352
949.70 0.08348
949.80 0.08344
949.90 0.08339
950.00 0.08335
950.10 0.0833
950.20 0.08326
950.30 0.08322
950.40 0.08317
950.50 0.08313
950.60 0.08308
950.70 0.08304
950.80 0.083
950.90 0.08295
951.00 0.08291
951.10 0.08287
951.20 0.08282
951.30 0.08278
951.40 0.08273
951.50 0.08269
951.60 0.08264
951.70 0.08259
951.80 0.08255
951.90 0.0825
952.00 0.08245
952.10 0.08241
952.20 0.08236
952.30 0.08231
952.40 0.08227
952.50 0.08222
952.60 0.08217
952.70 0.08212
952.80 0.08208
952.90 0.08203
953.00 0.08199
953.10 0.08194
953.20 0.0819
953.30 0.08186
953.40 0.08181
953.50 0.08177
953.60 0.08173
953.70 0.08169
953.80 0.08165
953.90 0.08161
954.00 0.08158
954.10 0.08155
954.20 0.08152
954.30 0.0815
954.40 0.08148
954.50 0.08147
954.60 0.08143
954.70 0.0814
954.80 0.08136
954.90 0.08131
955.00 0.08127
955.10 0.08122
955.20 0.08119
955.30 0.08116
955.40 0.08113
955.50 0.0811
955.60 0.08108
955.70 0.08105
955.80 0.08102
955.90 0.081
956.00 0.08098
956.10 0.08096
956.20 0.08094
956.30 0.08092
956.40 0.0809
956.50 0.08088
956.60 0.08086
956.70 0.08083
956.80 0.08081
956.90 0.08079
957.00 0.08077
957.10 0.08075
957.20 0.08074
957.30 0.08072
957.40 0.08069
957.50 0.08067
957.60 0.08065
957.70 0.08063
957.80 0.08061
957.90 0.08058
958.00 0.08056
958.10 0.08054
958.20 0.08052
958.30 0.0805
958.40 0.08048
958.50 0.08045
958.60 0.08043
958.70 0.08041
958.80 0.08039
958.90 0.08037
959.00 0.08035
959.10 0.08032
959.20 0.0803
959.30 0.08028
959.40 0.08025
959.50 0.08023
959.60 0.0802
959.70 0.08018
959.80 0.08015
959.90 0.08013
960.00 0.0801
960.10 0.08008
960.20 0.08005
960.30 0.08002
960.40 0.08
960.50 0.07997
960.60 0.07995
960.70 0.07992
960.80 0.0799
960.90 0.07987
961.00 0.07985
961.10 0.07982
961.20 0.07979
961.30 0.07977
961.40 0.07974
961.50 0.07971
961.60 0.07969
961.70 0.07966
961.80 0.07963
961.90 0.07961
962.00 0.07958
962.10 0.07955
962.20 0.07952
962.30 0.07949
962.40 0.07946
962.50 0.07944
962.60 0.07941
962.70 0.07938
962.80 0.07935
962.90 0.07932
963.00 0.07929
963.10 0.07927
963.20 0.07924
963.30 0.07921
963.40 0.07918
963.50 0.07915
963.60 0.07912
963.70 0.07909
963.80 0.07906
963.90 0.07904
964.00 0.07901
964.10 0.07898
964.20 0.07895
964.30 0.07892
964.40 0.07889
964.50 0.07886
964.60 0.07883
964.70 0.0788
964.80 0.07877
964.90 0.07874
965.00 0.07871
965.10 0.07868
965.20 0.07865
965.30 0.07862
965.40 0.07859
965.50 0.07856
965.60 0.07853
965.70 0.0785
965.80 0.07847
965.90 0.07844
966.00 0.07841
966.10 0.07838
966.20 0.07835
966.30 0.07832
966.40 0.07829
966.50 0.07826
966.60 0.07823
966.70 0.0782
966.80 0.07817
966.90 0.07814
967.00 0.07811
967.10 0.07808
967.20 0.07805
967.30 0.07802
967.40 0.07799
967.50 0.07796
967.60 0.07793
967.70 0.0779
967.80 0.07787
967.90 0.07784
968.00 0.07781
968.10 0.07778
968.20 0.07775
968.30 0.07772
968.40 0.07769
968.50 0.07766
968.60 0.07763
968.70 0.0776
968.80 0.07757
968.90 0.07754
969.00 0.07751
969.10 0.07748
969.20 0.07745
969.30 0.07742
969.40 0.07739
969.50 0.07736
969.60 0.07733
969.70 0.07729
969.80 0.07726
969.90 0.07723
970.00 0.0772
970.10 0.07717
970.20 0.07714
970.30 0.07711
970.40 0.07708
970.50 0.07705
970.60 0.07702
970.70 0.07699
970.80 0.07696
970.90 0.07693
971.00 0.0769
971.10 0.07687
971.20 0.07684
971.30 0.07681
971.40 0.07678
971.50 0.07675
971.60 0.07672
971.70 0.07669
971.80 0.07666
971.90 0.07663
972.00 0.0766
972.10 0.07657
972.20 0.07654
972.30 0.07651
972.40 0.07648
972.50 0.07645
972.60 0.07642
972.70 0.07639
972.80 0.07636
972.90 0.07633
973.00 0.0763
973.10 0.07626
973.20 0.07623
973.30 0.0762
973.40 0.07617
973.50 0.07614
973.60 0.07611
973.70 0.07608
973.80 0.07605
973.90 0.07602
974.00 0.07599
974.10 0.07596
974.20 0.07593
974.30 0.0759
974.40 0.07587
974.50 0.07584
974.60 0.07581
974.70 0.07578
974.80 0.07575
974.90 0.07572
975.00 0.07569
975.10 0.07566
975.20 0.07563
975.30 0.0756
975.40 0.07557
975.50 0.07554
975.60 0.07551
975.70 0.07548
975.80 0.07545
975.90 0.07542
976.00 0.07539
976.10 0.07536
976.20 0.07533
976.30 0.0753
976.40 0.07527
976.50 0.07524
976.60 0.07521
976.70 0.07518
976.80 0.07515
976.90 0.07512
977.00 0.07509
977.10 0.07506
977.20 0.07503
977.30 0.075
977.40 0.07497
977.50 0.07494
977.60 0.07491
977.70 0.07489
977.80 0.07486
977.90 0.07483
978.00 0.0748
978.10 0.07477
978.20 0.07474
978.30 0.07471
978.40 0.07468
978.50 0.07465
978.60 0.07462
978.70 0.07459
978.80 0.07456
978.90 0.07453
979.00 0.0745
979.10 0.07447
979.20 0.07444
979.30 0.07441
979.40 0.07438
979.50 0.07435
979.60 0.07432
979.70 0.07429
979.80 0.07426
979.90 0.07423
980.00 0.0742
980.10 0.07417
980.20 0.07414
980.30 0.07411
980.40 0.07409
980.50 0.07406
980.60 0.07403
980.70 0.074
980.80 0.07397
980.90 0.07394
981.00 0.07391
981.10 0.07388
981.20 0.07385
981.30 0.07382
981.40 0.07379
981.50 0.07376
981.60 0.07373
981.70 0.0737
981.80 0.07367
981.90 0.07364
982.00 0.07362
982.10 0.07359
982.20 0.07356
982.30 0.07353
982.40 0.0735
982.50 0.07347
982.60 0.07344
982.70 0.07341
982.80 0.07338
982.90 0.07335
983.00 0.07332
983.10 0.07329
983.20 0.07326
983.30 0.07323
983.40 0.07321
983.50 0.07318
983.60 0.07315
983.70 0.07312
983.80 0.07309
983.90 0.07306
984.00 0.07303
984.10 0.073
984.20 0.07297
984.30 0.07294
984.40 0.07291
984.50 0.07289
984.60 0.07286
984.70 0.07283
984.80 0.0728
984.90 0.07277
985.00 0.07274
985.10 0.07271
985.20 0.07268
985.30 0.07265
985.40 0.07262
985.50 0.07259
985.60 0.07257
985.70 0.07254
985.80 0.07251
985.90 0.07248
986.00 0.07245
986.10 0.07242
986.20 0.07239
986.30 0.07236
986.40 0.07233
986.50 0.07231
986.60 0.07228
986.70 0.07225
986.80 0.07222
986.90 0.07219
987.00 0.07216
987.10 0.07213
987.20 0.0721
987.30 0.07207
987.40 0.07205
987.50 0.07202
987.60 0.07199
987.70 0.07196
987.80 0.07193
987.90 0.0719
988.00 0.07187
988.10 0.07184
988.20 0.07181
988.30 0.07179
988.40 0.07176
988.50 0.07173
988.60 0.0717
988.70 0.07167
988.80 0.07164
988.90 0.07161
989.00 0.07158
989.10 0.07156
989.20 0.07153
989.30 0.0715
989.40 0.07147
989.50 0.07144
989.60 0.07141
989.70 0.07138
989.80 0.07135
989.90 0.07132
990.00 0.0713
990.10 0.07127
990.20 0.07124
990.30 0.07121
990.40 0.07118
990.50 0.07115
990.60 0.07112
990.70 0.07109
990.80 0.07107
990.90 0.07104
991.00 0.07101
991.10 0.07098
991.20 0.07095
991.30 0.07092
991.40 0.07089
991.50 0.07086
991.60 0.07083
991.70 0.07081
991.80 0.07078
991.90 0.07075
992.00 0.07072
992.10 0.07069
992.20 0.07066
992.30 0.07063
992.40 0.0706
992.50 0.07057
992.60 0.07054
992.70 0.07052
992.80 0.07049
992.90 0.07046
993.00 0.07043
993.10 0.0704
993.20 0.07037
993.30 0.07034
993.40 0.07031
993.50 0.07028
993.60 0.07025
993.70 0.07022
993.80 0.07019
993.90 0.07016
994.00 0.07013
994.10 0.0701
994.20 0.07007
994.30 0.07005
994.40 0.07002
994.50 0.06999
994.60 0.06996
994.70 0.06993
994.80 0.0699
994.90 0.06987
995.00 0.06984
995.10 0.06981
995.20 0.06978
995.30 0.06975
995.40 0.06972
995.50 0.06969
995.60 0.06966
995.70 0.06963
995.80 0.0696
995.90 0.06957
996.00 0.06953
996.10 0.0695
996.20 0.06947
996.30 0.06944
996.40 0.06941
996.50 0.06938
996.60 0.06935
996.70 0.06932
996.80 0.06929
996.90 0.06926
997.00 0.06923
997.10 0.06919
997.20 0.06916
997.30 0.06913
997.40 0.0691
997.50 0.06907
997.60 0.06903
997.70 0.069
997.80 0.06897
997.90 0.06893
998.00 0.0689
998.10 0.06886
998.20 0.06883
998.30 0.06879
998.40 0.06876
998.50 0.06872
998.60 0.06869
998.70 0.06866
998.80 0.06862
998.90 0.06859
999.00 0.06855
999.10 0.06852
999.20 0.06848
999.30 0.06845
999.40 0.06842
999.50 0.06838
999.60 0.06835
999.70 0.06831
999.80 0.06827
999.90 0.06823
1000.00 0.06819
1000.10 0.06814
1000.20 0.0681
1000.30 0.06806
1000.40 0.06802
1000.50 0.06798
1000.60 0.06794
1000.70 0.0679
1000.80 0.06786
1000.90 0.06782
1001.00 0.06778
1001.10 0.06774
1001.20 0.0677
1001.30 0.06765
1001.40 0.06761
1001.50 0.06757
1001.60 0.06753
1001.70 0.06749
1001.80 0.06744
1001.90 0.0674
1002.00 0.06735
1002.10 0.0673
1002.20 0.06725
1002.30 0.0672
1002.40 0.06715
1002.50 0.0671
1002.60 0.06706
1002.70 0.06701
1002.80 0.06696
1002.90 0.06691
1003.00 0.06686
1003.10 0.06681
1003.20 0.06676
1003.30 0.06671
1003.40 0.06666
1003.50 0.06661
1003.60 0.06656
1003.70 0.06651
1003.80 0.06646
1003.90 0.06642
1004.00 0.06638
1004.10 0.06634
1004.20 0.0663
1004.30 0.06628
1004.40 0.06627
1004.50 0.06627
1004.60 0.0663
1004.70 0.06635
1004.80 0.06641
1004.90 0.0664
1005.00 0.06639
1005.10 0.06632
1005.20 0.06622
1005.30 0.06613
1005.40 0.06603
1005.50 0.066
1005.60 0.06598
1005.70 0.06596
1005.80 0.06594
1005.90 0.06592
1006.00 0.0659
1006.10 0.06588
1006.20 0.06588
1006.30 0.06588
1006.40 0.06588
1006.50 0.06588
1006.60 0.06588
1006.70 0.06588
1006.80 0.06587
1006.90 0.06587
1007.00 0.06587
1007.10 0.06587
1007.20 0.06587
1007.30 0.06587
1007.40 0.06586
1007.50 0.06586
1007.60 0.06586
1007.70 0.06585
1007.80 0.06584
1007.90 0.06583
1008.00 0.06582
1008.10 0.06581
1008.20 0.06581
1008.30 0.0658
1008.40 0.06579
1008.50 0.06578
1008.60 0.06577
1008.70 0.06576
1008.80 0.06575
1008.90 0.06574
1009.00 0.06573
1009.10 0.06572
1009.20 0.06571
1009.30 0.0657
1009.40 0.06569
1009.50 0.06568
1009.60 0.06568
1009.70 0.06566
1009.80 0.06564
1009.90 0.06563
1010.00 0.06561
1010.10 0.06559
1010.20 0.06558
1010.30 0.06556
1010.40 0.06554
1010.50 0.06553
1010.60 0.06551
1010.70 0.06549
1010.80 0.06547
1010.90 0.06546
1011.00 0.06544
1011.10 0.06542
1011.20 0.06541
1011.30 0.06539
1011.40 0.06537
1011.50 0.06536
1011.60 0.06534
1011.70 0.06532
1011.80 0.0653
1011.90 0.06528
1012.00 0.06526
1012.10 0.06524
1012.20 0.06522
1012.30 0.0652
1012.40 0.06518
1012.50 0.06516
1012.60 0.06514
1012.70 0.06512
1012.80 0.0651
1012.90 0.06508
1013.00 0.06505
1013.10 0.06503
1013.20 0.06501
1013.30 0.06499
1013.40 0.06497
1013.50 0.06495
1013.60 0.06493
1013.70 0.06491
1013.80 0.06488
1013.90 0.06486
1014.00 0.06484
1014.10 0.06482
1014.20 0.0648
1014.30 0.06477
1014.40 0.06475
1014.50 0.06473
1014.60 0.06471
1014.70 0.06468
1014.80 0.06466
1014.90 0.06464
1015.00 0.06462
1015.10 0.06459
1015.20 0.06457
1015.30 0.06455
1015.40 0.06452
1015.50 0.0645
1015.60 0.06448
1015.70 0.06446
1015.80 0.06443
1015.90 0.06441
1016.00 0.06439
1016.10 0.06436
1016.20 0.06434
1016.30 0.06432
1016.40 0.0643
1016.50 0.06427
1016.60 0.06425
1016.70 0.06423
1016.80 0.0642
1016.90 0.06418
1017.00 0.06416
1017.10 0.06413
1017.20 0.06411
1017.30 0.06409
1017.40 0.06406
1017.50 0.06404
1017.60 0.06402
1017.70 0.06399
1017.80 0.06397
1017.90 0.06394
1018.00 0.06392
1018.10 0.0639
1018.20 0.06387
1018.30 0.06385
1018.40 0.06383
1018.50 0.0638
1018.60 0.06378
1018.70 0.06376
1018.80 0.06373
1018.90 0.06371
1019.00 0.06369
1019.10 0.06366
1019.20 0.06364
1019.30 0.06361
1019.40 0.06359
1019.50 0.06357
1019.60 0.06354
1019.70 0.06352
1019.80 0.0635
1019.90 0.06347
1020.00 0.06345
1020.10 0.06343
1020.20 0.0634
1020.30 0.06338
1020.40 0.06336
1020.50 0.06333
1020.60 0.06331
1020.70 0.06328
1020.80 0.06326
1020.90 0.06324
1021.00 0.06321
1021.10 0.06319
1021.20 0.06317
1021.30 0.06314
1021.40 0.06312
1021.50 0.06309
1021.60 0.06307
1021.70 0.06305
1021.80 0.06302
1021.90 0.063
1022.00 0.06298
1022.10 0.06295
1022.20 0.06293
1022.30 0.06291
1022.40 0.06288
1022.50 0.06286
1022.60 0.06283
1022.70 0.06281
1022.80 0.06279
1022.90 0.06276
1023.00 0.06274
1023.10 0.06272
1023.20 0.06269
1023.30 0.06267
1023.40 0.06265
1023.50 0.06262
1023.60 0.0626
1023.70 0.06258
1023.80 0.06255
1023.90 0.06253
1024.00 0.0625
1024.10 0.06248
1024.20 0.06246
1024.30 0.06243
1024.40 0.06241
1024.50 0.06239
1024.60 0.06236
1024.70 0.06234
1024.80 0.06232
1024.90 0.06229
1025.00 0.06227
1025.10 0.06225
1025.20 0.06222
1025.30 0.0622
1025.40 0.06218
1025.50 0.06215
1025.60 0.06213
1025.70 0.06211
1025.80 0.06208
1025.90 0.06206
1026.00 0.06204
1026.10 0.06201
1026.20 0.06199
1026.30 0.06197
1026.40 0.06194
1026.50 0.06192
1026.60 0.0619
1026.70 0.06187
1026.80 0.06185
1026.90 0.06183
1027.00 0.0618
1027.10 0.06178
1027.20 0.06176
1027.30 0.06173
1027.40 0.06171
1027.50 0.06169
1027.60 0.06166
1027.70 0.06164
1027.80 0.06162
1027.90 0.06159
1028.00 0.06157
1028.10 0.06155
1028.20 0.06152
1028.30 0.0615
1028.40 0.06148
1028.50 0.06145
1028.60 0.06143
1028.70 0.06141
1028.80 0.06138
1028.90 0.06136
1029.00 0.06134
1029.10 0.06132
1029.20 0.06129
1029.30 0.06127
1029.40 0.06125
1029.50 0.06122
1029.60 0.0612
1029.70 0.06118
1029.80 0.06115
1029.90 0.06113
1030.00 0.06111
1030.10 0.06108
1030.20 0.06106
1030.30 0.06104
1030.40 0.06102
1030.50 0.06099
1030.60 0.06097
1030.70 0.06095
1030.80 0.06092
1030.90 0.0609
1031.00 0.06088
1031.10 0.06085
1031.20 0.06083
1031.30 0.06081
1031.40 0.06079
1031.50 0.06076
1031.60 0.06074
1031.70 0.06072
1031.80 0.06069
1031.90 0.06067
1032.00 0.06065
1032.10 0.06063
1032.20 0.0606
1032.30 0.06058
1032.40 0.06056
1032.50 0.06053
1032.60 0.06051
1032.70 0.06049
1032.80 0.06047
1032.90 0.06044
1033.00 0.06042
1033.10 0.0604
1033.20 0.06038
1033.30 0.06035
1033.40 0.06033
1033.50 0.06031
1033.60 0.06029
1033.70 0.06026
1033.80 0.06024
1033.90 0.06022
1034.00 0.06019
1034.10 0.06017
1034.20 0.06015
1034.30 0.06013
1034.40 0.0601
1034.50 0.06008
1034.60 0.06006
1034.70 0.06004
1034.80 0.06001
1034.90 0.05999
1035.00 0.05997
1035.10 0.05995
1035.20 0.05992
1035.30 0.0599
1035.40 0.05988
1035.50 0.05986
1035.60 0.05983
1035.70 0.05981
1035.80 0.05979
1035.90 0.05977
1036.00 0.05974
1036.10 0.05972
1036.20 0.0597
1036.30 0.05968
1036.40 0.05965
1036.50 0.05963
1036.60 0.05961
1036.70 0.05959
1036.80 0.05956
1036.90 0.05954
1037.00 0.05952
1037.10 0.0595
1037.20 0.05947
1037.30 0.05945
1037.40 0.05943
1037.50 0.05941
1037.60 0.05939
1037.70 0.05936
1037.80 0.05934
1037.90 0.05932
1038.00 0.0593
1038.10 0.05927
1038.20 0.05925
1038.30 0.05923
1038.40 0.05921
1038.50 0.05919
1038.60 0.05916
1038.70 0.05914
1038.80 0.05912
1038.90 0.0591
1039.00 0.05908
1039.10 0.05905
1039.20 0.05903
1039.30 0.05901
1039.40 0.05899
1039.50 0.05896
1039.60 0.05894
1039.70 0.05892
1039.80 0.0589
1039.90 0.05888
1040.00 0.05885
1040.10 0.05883
1040.20 0.05881
1040.30 0.05879
1040.40 0.05877
1040.50 0.05874
1040.60 0.05872
1040.70 0.0587
1040.80 0.05868
1040.90 0.05866
1041.00 0.05863
1041.10 0.05861
1041.20 0.05859
1041.30 0.05857
1041.40 0.05855
1041.50 0.05852
1041.60 0.0585
1041.70 0.05848
1041.80 0.05846
1041.90 0.05844
1042.00 0.05841
1042.10 0.05839
1042.20 0.05837
1042.30 0.05835
1042.40 0.05833
1042.50 0.05831
1042.60 0.05828
1042.70 0.05826
1042.80 0.05824
1042.90 0.05822
1043.00 0.0582
1043.10 0.05818
1043.20 0.05815
1043.30 0.05813
1043.40 0.05811
1043.50 0.05809
1043.60 0.05807
1043.70 0.05805
1043.80 0.05802
1043.90 0.058
1044.00 0.05798
1044.10 0.05796
1044.20 0.05794
1044.30 0.05792
1044.40 0.05789
1044.50 0.05787
1044.60 0.05785
1044.70 0.05783
1044.80 0.05781
1044.90 0.05779
1045.00 0.05776
1045.10 0.05774
1045.20 0.05772
1045.30 0.0577
1045.40 0.05768
1045.50 0.05766
1045.60 0.05764
1045.70 0.05761
1045.80 0.05759
1045.90 0.05757
1046.00 0.05755
1046.10 0.05753
1046.20 0.05751
1046.30 0.05749
1046.40 0.05746
1046.50 0.05744
1046.60 0.05742
1046.70 0.0574
1046.80 0.05738
1046.90 0.05736
1047.00 0.05734
1047.10 0.05731
1047.20 0.05729
1047.30 0.05727
1047.40 0.05725
1047.50 0.05723
1047.60 0.05721
1047.70 0.05719
1047.80 0.05717
1047.90 0.05714
1048.00 0.05712
1048.10 0.0571
1048.20 0.05708
1048.30 0.05706
1048.40 0.05704
1048.50 0.05702
1048.60 0.057
1048.70 0.05697
1048.80 0.05695
1048.90 0.05693
1049.00 0.05691
1049.10 0.05689
1049.20 0.05687
1049.30 0.05685
1049.40 0.05683
1049.50 0.05681
1049.60 0.05678
1049.70 0.05676
1049.80 0.05674
1049.90 0.05672
1050.00 0.0567
1050.10 0.05668
1050.20 0.05666
1050.30 0.05664
1050.40 0.05662
1050.50 0.05659
1050.60 0.05657
1050.70 0.05655
1050.80 0.05653
1050.90 0.05651
1051.00 0.05649
1051.10 0.05647
1051.20 0.05645
1051.30 0.05643
1051.40 0.05641
1051.50 0.05638
1051.60 0.05636
1051.70 0.05634
1051.80 0.05632
1051.90 0.0563
1052.00 0.05628
1052.10 0.05626
1052.20 0.05624
1052.30 0.05622
1052.40 0.0562
1052.50 0.05618
1052.60 0.05616
1052.70 0.05613
1052.80 0.05611
1052.90 0.05609
1053.00 0.05607
1053.10 0.05605
1053.20 0.05603
1053.30 0.05601
1053.40 0.05599
1053.50 0.05597
1053.60 0.05595
1053.70 0.05593
1053.80 0.05591
1053.90 0.05589
1054.00 0.05587
1054.10 0.05584
1054.20 0.05582
1054.30 0.0558
1054.40 0.05578
1054.50 0.05576
1054.60 0.05574
1054.70 0.05572
1054.80 0.0557
1054.90 0.05568
1055.00 0.05566
1055.10 0.05564
1055.20 0.05562
1055.30 0.0556
1055.40 0.05558
1055.50 0.05556
1055.60 0.05554
1055.70 0.05551
1055.80 0.05549
1055.90 0.05547
1056.00 0.05545
1056.10 0.05543
1056.20 0.05541
1056.30 0.05539
1056.40 0.05537
1056.50 0.05535
1056.60 0.05533
1056.70 0.05531
1056.80 0.05529
1056.90 0.05527
1057.00 0.05525
1057.10 0.05523
1057.20 0.05521
1057.30 0.05519
1057.40 0.05517
1057.50 0.05515
1057.60 0.05513
1057.70 0.05511
1057.80 0.05509
1057.90 0.05507
1058.00 0.05504
1058.10 0.05502
1058.20 0.055
1058.30 0.05498
1058.40 0.05496
1058.50 0.05494
1058.60 0.05492
1058.70 0.0549
1058.80 0.05488
1058.90 0.05486
1059.00 0.05484
1059.10 0.05482
1059.20 0.0548
1059.30 0.05478
1059.40 0.05476
1059.50 0.05474
1059.60 0.05472
1059.70 0.0547
1059.80 0.05468
1059.90 0.05466
1060.00 0.05464
1060.10 0.05462
1060.20 0.0546
1060.30 0.05458
1060.40 0.05456
1060.50 0.05454
1060.60 0.05452
1060.70 0.0545
1060.80 0.05448
1060.90 0.05446
1061.00 0.05444
1061.10 0.05442
1061.20 0.0544
1061.30 0.05438
1061.40 0.05436
1061.50 0.05434
1061.60 0.05432
1061.70 0.0543
1061.80 0.05428
1061.90 0.05426
1062.00 0.05424
1062.10 0.05422
1062.20 0.0542
1062.30 0.05418
1062.40 0.05416
1062.50 0.05414
1062.60 0.05412
1062.70 0.0541
1062.80 0.05408
1062.90 0.05406
1063.00 0.05404
1063.10 0.05402
1063.20 0.054
1063.30 0.05398
1063.40 0.05396
1063.50 0.05394
1063.60 0.05392
1063.70 0.0539
1063.80 0.05388
1063.90 0.05386
1064.00 0.05384
1064.10 0.05382
1064.20 0.0538
1064.30 0.05378
1064.40 0.05376
1064.50 0.05374
1064.60 0.05372
1064.70 0.0537
1064.80 0.05368
1064.90 0.05366
1065.00 0.05364
1065.10 0.05363
1065.20 0.05361
1065.30 0.05359
1065.40 0.05357
1065.50 0.05355
1065.60 0.05353
1065.70 0.05351
1065.80 0.05349
1065.90 0.05347
1066.00 0.05345
1066.10 0.05343
1066.20 0.05341
1066.30 0.05339
1066.40 0.05337
1066.50 0.05335
1066.60 0.05333
1066.70 0.05331
1066.80 0.05329
1066.90 0.05327
1067.00 0.05325
1067.10 0.05323
1067.20 0.05321
1067.30 0.05319
1067.40 0.05317
1067.50 0.05315
1067.60 0.05313
1067.70 0.05312
1067.80 0.0531
1067.90 0.05308
1068.00 0.05306
1068.10 0.05304
1068.20 0.05302
1068.30 0.053
1068.40 0.05298
1068.50 0.05296
1068.60 0.05294
1068.70 0.05292
1068.80 0.0529
1068.90 0.05288
1069.00 0.05286
1069.10 0.05284
1069.20 0.05282
1069.30 0.0528
1069.40 0.05279
1069.50 0.05277
1069.60 0.05275
1069.70 0.05273
1069.80 0.05271
1069.90 0.05269
1070.00 0.05267
1070.10 0.05265
1070.20 0.05263
1070.30 0.05261
1070.40 0.05259
1070.50 0.05257
1070.60 0.05255
1070.70 0.05253
1070.80 0.05252
1070.90 0.0525
1071.00 0.05248
1071.10 0.05246
1071.20 0.05244
1071.30 0.05242
1071.40 0.0524
1071.50 0.05238
1071.60 0.05236
1071.70 0.05234
1071.80 0.05232
1071.90 0.0523
1072.00 0.05228
1072.10 0.05227
1072.20 0.05225
1072.30 0.05223
1072.40 0.05221
1072.50 0.05219
1072.60 0.05217
1072.70 0.05215
1072.80 0.05213
1072.90 0.05211
1073.00 0.05209
1073.10 0.05207
1073.20 0.05205
1073.30 0.05204
1073.40 0.05202
1073.50 0.052
1073.60 0.05198
1073.70 0.05196
1073.80 0.05194
1073.90 0.05192
1074.00 0.0519
1074.10 0.05188
1074.20 0.05186
1074.30 0.05184
1074.40 0.05183
1074.50 0.05181
1074.60 0.05179
1074.70 0.05177
1074.80 0.05175
1074.90 0.05173
1075.00 0.05171
1075.10 0.05169
1075.20 0.05167
1075.30 0.05165
1075.40 0.05164
1075.50 0.05162
1075.60 0.0516
1075.70 0.05158
1075.80 0.05156
1075.90 0.05154
1076.00 0.05152
1076.10 0.0515
1076.20 0.05148
1076.30 0.05146
1076.40 0.05145
1076.50 0.05143
1076.60 0.05141
1076.70 0.05139
1076.80 0.05137
1076.90 0.05135
1077.00 0.05133
1077.10 0.05131
1077.20 0.05129
1077.30 0.05127
1077.40 0.05126
1077.50 0.05124
1077.60 0.05122
1077.70 0.0512
1077.80 0.05118
1077.90 0.05116
1078.00 0.05114
1078.10 0.05112
1078.20 0.0511
1078.30 0.05109
1078.40 0.05107
1078.50 0.05105
1078.60 0.05103
1078.70 0.05101
1078.80 0.05099
1078.90 0.05097
1079.00 0.05095
1079.10 0.05093
1079.20 0.05091
1079.30 0.0509
1079.40 0.05088
1079.50 0.05086
1079.60 0.05084
1079.70 0.05082
1079.80 0.0508
1079.90 0.05078
1080.00 0.05076
1080.10 0.05074
1080.20 0.05072
1080.30 0.0507
1080.40 0.05069
1080.50 0.05067
1080.60 0.05065
1080.70 0.05063
1080.80 0.05061
1080.90 0.05059
1081.00 0.05057
1081.10 0.05055
1081.20 0.05053
1081.30 0.05051
1081.40 0.05049
1081.50 0.05048
1081.60 0.05046
1081.70 0.05044
1081.80 0.05042
1081.90 0.0504
1082.00 0.05038
1082.10 0.05036
1082.20 0.05034
1082.30 0.05032
1082.40 0.0503
1082.50 0.05028
1082.60 0.05026
1082.70 0.05024
1082.80 0.05022
1082.90 0.0502
1083.00 0.05018
1083.10 0.05016
1083.20 0.05014
1083.30 0.05013
1083.40 0.05011
1083.50 0.05009
1083.60 0.05007
1083.70 0.05005
1083.80 0.05003
1083.90 0.05001
1084.00 0.04999
1084.10 0.04997
1084.20 0.04995
1084.30 0.04993
1084.40 0.04991
1084.50 0.04989
1084.60 0.04986
1084.70 0.04984
1084.80 0.04982
1084.90 0.0498
1085.00 0.04978
1085.10 0.04976
1085.20 0.04974
1085.30 0.04972
1085.40 0.0497
1085.50 0.04967
1085.60 0.04965
1085.70 0.04963
1085.80 0.04961
1085.90 0.04959
1086.00 0.04957
1086.10 0.04955
1086.20 0.04953
1086.30 0.04951
1086.40 0.04948
1086.50 0.04946
1086.60 0.04944
1086.70 0.04942
1086.80 0.04939
1086.90 0.04937
1087.00 0.04935
1087.10 0.04932
1087.20 0.0493
1087.30 0.04927
1087.40 0.04925
1087.50 0.04922
1087.60 0.0492
1087.70 0.04918
1087.80 0.04915
1087.90 0.04913
1088.00 0.0491
1088.10 0.04908
1088.20 0.04905
1088.30 0.04903
1088.40 0.049
1088.50 0.04897
1088.60 0.04894
1088.70 0.04891
1088.80 0.04888
1088.90 0.04885
1089.00 0.04882
1089.10 0.04879
1089.20 0.04875
1089.30 0.04872
1089.40 0.04869
1089.50 0.04866
1089.60 0.04863
1089.70 0.0486
1089.80 0.04857
1089.90 0.04854
1090.00 0.0485
1090.10 0.04847
1090.20 0.04844
1090.30 0.04841
1090.40 0.04838
1090.50 0.04834
1090.60 0.0483
1090.70 0.04826
1090.80 0.04822
1090.90 0.04817
1091.00 0.04813
1091.10 0.04809
1091.20 0.04805
1091.30 0.048
1091.40 0.04796
1091.50 0.04792
1091.60 0.04788
1091.70 0.04783
1091.80 0.04779
1091.90 0.04775
1092.00 0.04771
1092.10 0.04766
1092.20 0.04761
1092.30 0.04757
1092.40 0.04752
1092.50 0.04748
1092.60 0.04743
1092.70 0.04739
1092.80 0.04736
1092.90 0.04733
1093.00 0.0473
1093.10 0.04728
1093.20 0.04728
1093.30 0.04728
1093.40 0.0473
1093.50 0.04734
1093.60 0.04742
1093.70 0.04748
1093.80 0.04751
1093.90 0.04751
1094.00 0.0474
1094.10 0.0473
1094.20 0.0472
1094.30 0.04712
1094.40 0.04711
1094.50 0.04709
1094.60 0.04708
1094.70 0.04706
1094.80 0.04705
1094.90 0.04703
1095.00 0.04703
1095.10 0.04704
1095.20 0.04705
1095.30 0.04706
1095.40 0.04707
1095.50 0.04708
1095.60 0.04709
1095.70 0.04711
1095.80 0.04712
1095.90 0.04713
1096.00 0.04714
1096.10 0.04715
1096.20 0.04716
1096.30 0.04718
1096.40 0.04719
1096.50 0.0472
1096.60 0.0472
1096.70 0.04721
1096.80 0.04721
1096.90 0.04722
1097.00 0.04722
1097.10 0.04722
1097.20 0.04722
1097.30 0.04722
1097.40 0.04722
1097.50 0.04722
1097.60 0.04722
1097.70 0.04722
1097.80 0.04722
1097.90 0.04721
1098.00 0.04721
1098.10 0.04721
1098.20 0.04721
1098.30 0.04721
1098.40 0.04721
1098.50 0.04721
1098.60 0.0472
1098.70 0.04719
1098.80 0.04718
1098.90 0.04717
1099.00 0.04716
1099.10 0.04715
1099.20 0.04714
1099.30 0.04714
1099.40 0.04713
1099.50 0.04712
1099.60 0.04711
1099.70 0.0471
1099.80 0.04709
1099.90 0.04708
1100.00 0.04708
1100.10 0.04707
1100.20 0.04706
1100.30 0.04705
1100.40 0.04704
1100.50 0.04703
1100.60 0.04702
1100.70 0.04701
1100.80 0.04699
1100.90 0.04698
1101.00 0.04697
1101.10 0.04696
1101.20 0.04694
1101.30 0.04693
1101.40 0.04692
1101.50 0.04691
1101.60 0.04689
1101.70 0.04688
1101.80 0.04687
1101.90 0.04686
1102.00 0.04684
1102.10 0.04683
1102.20 0.04682
1102.30 0.0468
1102.40 0.04679
1102.50 0.04678
1102.60 0.04676
1102.70 0.04675
1102.80 0.04673
1102.90 0.04672
1103.00 0.0467
1103.10 0.04669
1103.20 0.04668
1103.30 0.04666
1103.40 0.04665
1103.50 0.04663
1103.60 0.04662
1103.70 0.0466
1103.80 0.04659
1103.90 0.04657
1104.00 0.04656
1104.10 0.04654
1104.20 0.04653
1104.30 0.04651
1104.40 0.0465
1104.50 0.04648
1104.60 0.04647
1104.70 0.04645
1104.80 0.04644
1104.90 0.04642
1105.00 0.04641
1105.10 0.04639
1105.20 0.04638
1105.30 0.04636
1105.40 0.04635
1105.50 0.04633
1105.60 0.04632
1105.70 0.0463
1105.80 0.04629
1105.90 0.04627
1106.00 0.04626
1106.10 0.04624
1106.20 0.04622
1106.30 0.04621
1106.40 0.04619
1106.50 0.04618
1106.60 0.04616
1106.70 0.04615
1106.80 0.04613
1106.90 0.04612
1107.00 0.0461
1107.10 0.04609
1107.20 0.04607
1107.30 0.04605
1107.40 0.04604
1107.50 0.04602
1107.60 0.04601
1107.70 0.04599
1107.80 0.04598
1107.90 0.04596
1108.00 0.04594
1108.10 0.04593
1108.20 0.04591
1108.30 0.0459
1108.40 0.04588
1108.50 0.04587
1108.60 0.04585
1108.70 0.04584
1108.80 0.04582
1108.90 0.0458
1109.00 0.04579
1109.10 0.04577
1109.20 0.04576
1109.30 0.04574
1109.40 0.04573
1109.50 0.04571
1109.60 0.04569
1109.70 0.04568
1109.80 0.04566
1109.90 0.04565
1110.00 0.04563
1110.10 0.04562
1110.20 0.0456
1110.30 0.04558
1110.40 0.04557
1110.50 0.04555
1110.60 0.04554
1110.70 0.04552
1110.80 0.04551
1110.90 0.04549
1111.00 0.04547
1111.10 0.04546
1111.20 0.04544
1111.30 0.04543
1111.40 0.04541
1111.50 0.0454
1111.60 0.04538
1111.70 0.04537
1111.80 0.04535
1111.90 0.04533
1112.00 0.04532
1112.10 0.0453
1112.20 0.04529
1112.30 0.04527
1112.40 0.04526
1112.50 0.04524
1112.60 0.04522
1112.70 0.04521
1112.80 0.04519
1112.90 0.04518
1113.00 0.04516
1113.10 0.04515
1113.20 0.04513
1113.30 0.04511
1113.40 0.0451
1113.50 0.04508
1113.60 0.04507
1113.70 0.04505
1113.80 0.04504
1113.90 0.04502
1114.00 0.04501
1114.10 0.04499
1114.20 0.04497
1114.30 0.04496
1114.40 0.04494
1114.50 0.04493
1114.60 0.04491
1114.70 0.0449
1114.80 0.04488
1114.90 0.04487
1115.00 0.04485
1115.10 0.04483
1115.20 0.04482
1115.30 0.0448
1115.40 0.04479
1115.50 0.04477
1115.60 0.04476
1115.70 0.04474
1115.80 0.04473
1115.90 0.04471
1116.00 0.04469
1116.10 0.04468
1116.20 0.04466
1116.30 0.04465
1116.40 0.04463
1116.50 0.04462
1116.60 0.0446
1116.70 0.04459
1116.80 0.04457
1116.90 0.04455
1117.00 0.04454
1117.10 0.04452
1117.20 0.04451
1117.30 0.04449
1117.40 0.04448
1117.50 0.04446
1117.60 0.04445
1117.70 0.04443
1117.80 0.04442
1117.90 0.0444
1118.00 0.04439
1118.10 0.04437
1118.20 0.04435
1118.30 0.04434
1118.40 0.04432
1118.50 0.04431
1118.60 0.04429
1118.70 0.04428
1118.80 0.04426
1118.90 0.04425
1119.00 0.04423
1119.10 0.04422
1119.20 0.0442
1119.30 0.04419
1119.40 0.04417
1119.50 0.04415
1119.60 0.04414
1119.70 0.04412
1119.80 0.04411
1119.90 0.04409
1120.00 0.04408
1120.10 0.04406
1120.20 0.04405
1120.30 0.04403
1120.40 0.04402
1120.50 0.044
1120.60 0.04399
1120.70 0.04397
1120.80 0.04396
1120.90 0.04394
1121.00 0.04393
1121.10 0.04391
1121.20 0.0439
1121.30 0.04388
1121.40 0.04386
1121.50 0.04385
1121.60 0.04383
1121.70 0.04382
1121.80 0.0438
1121.90 0.04379
1122.00 0.04377
1122.10 0.04376
1122.20 0.04374
1122.30 0.04373
1122.40 0.04371
1122.50 0.0437
1122.60 0.04368
1122.70 0.04367
1122.80 0.04365
1122.90 0.04364
1123.00 0.04362
1123.10 0.04361
1123.20 0.04359
1123.30 0.04358
1123.40 0.04356
1123.50 0.04355
1123.60 0.04353
1123.70 0.04352
1123.80 0.0435
1123.90 0.04349
1124.00 0.04347
1124.10 0.04346
1124.20 0.04344
1124.30 0.04343
1124.40 0.04341
1124.50 0.0434
1124.60 0.04338
1124.70 0.04337
1124.80 0.04335
1124.90 0.04334
1125.00 0.04332
1125.10 0.04331
1125.20 0.04329
1125.30 0.04328
1125.40 0.04326
1125.50 0.04325
1125.60 0.04323
1125.70 0.04322
1125.80 0.0432
1125.90 0.04319
1126.00 0.04317
1126.10 0.04316
1126.20 0.04314
1126.30 0.04313
1126.40 0.04311
1126.50 0.0431
1126.60 0.04308
1126.70 0.04307
1126.80 0.04305
1126.90 0.04304
1127.00 0.04302
1127.10 0.04301
1127.20 0.04299
1127.30 0.04298
1127.40 0.04296
1127.50 0.04295
1127.60 0.04293
1127.70 0.04292
1127.80 0.0429
1127.90 0.04289
1128.00 0.04287
1128.10 0.04286
1128.20 0.04284
1128.30 0.04283
1128.40 0.04281
1128.50 0.0428
1128.60 0.04279
1128.70 0.04277
1128.80 0.04276
1128.90 0.04274
1129.00 0.04273
1129.10 0.04271
1129.20 0.0427
1129.30 0.04268
1129.40 0.04267
1129.50 0.04265
1129.60 0.04264
1129.70 0.04262
1129.80 0.04261
1129.90 0.04259
1130.00 0.04258
1130.10 0.04256
1130.20 0.04255
1130.30 0.04254
1130.40 0.04252
1130.50 0.04251
1130.60 0.04249
1130.70 0.04248
1130.80 0.04246
1130.90 0.04245
1131.00 0.04243
1131.10 0.04242
1131.20 0.0424
1131.30 0.04239
1131.40 0.04237
1131.50 0.04236
1131.60 0.04234
1131.70 0.04233
1131.80 0.04232
1131.90 0.0423
1132.00 0.04229
1132.10 0.04227
1132.20 0.04226
1132.30 0.04224
1132.40 0.04223
1132.50 0.04221
1132.60 0.0422
1132.70 0.04218
1132.80 0.04217
1132.90 0.04216
1133.00 0.04214
1133.10 0.04213
1133.20 0.04211
1133.30 0.0421
1133.40 0.04208
1133.50 0.04207
1133.60 0.04205
1133.70 0.04204
1133.80 0.04203
1133.90 0.04201
1134.00 0.042
1134.10 0.04198
1134.20 0.04197
1134.30 0.04195
1134.40 0.04194
1134.50 0.04192
1134.60 0.04191
1134.70 0.0419
1134.80 0.04188
1134.90 0.04187
1135.00 0.04185
1135.10 0.04184
1135.20 0.04182
1135.30 0.04181
1135.40 0.04179
1135.50 0.04178
1135.60 0.04177
1135.70 0.04175
1135.80 0.04174
1135.90 0.04172
1136.00 0.04171
1136.10 0.04169
1136.20 0.04168
1136.30 0.04167
1136.40 0.04165
1136.50 0.04164
1136.60 0.04162
1136.70 0.04161
1136.80 0.04159
1136.90 0.04158
1137.00 0.04157
1137.10 0.04155
1137.20 0.04154
1137.30 0.04152
1137.40 0.04151
1137.50 0.04149
1137.60 0.04148
1137.70 0.04147
1137.80 0.04145
1137.90 0.04144
1138.00 0.04142
1138.10 0.04141
1138.20 0.0414
1138.30 0.04138
1138.40 0.04137
1138.50 0.04135
1138.60 0.04134
1138.70 0.04132
1138.80 0.04131
1138.90 0.0413
1139.00 0.04128
1139.10 0.04127
1139.20 0.04125
1139.30 0.04124
1139.40 0.04123
1139.50 0.04121
1139.60 0.0412
1139.70 0.04118
1139.80 0.04117
1139.90 0.04116
1140.00 0.04114
1140.10 0.04113
1140.20 0.04111
1140.30 0.0411
1140.40 0.04108
1140.50 0.04107
1140.60 0.04106
1140.70 0.04104
1140.80 0.04103
1140.90 0.04101
1141.00 0.041
1141.10 0.04099
1141.20 0.04097
1141.30 0.04096
1141.40 0.04094
1141.50 0.04093
1141.60 0.04092
1141.70 0.0409
1141.80 0.04089
1141.90 0.04087
1142.00 0.04086
1142.10 0.04085
1142.20 0.04083
1142.30 0.04082
1142.40 0.0408
1142.50 0.04079
1142.60 0.04078
1142.70 0.04076
1142.80 0.04075
1142.90 0.04074
1143.00 0.04072
1143.10 0.04071
1143.20 0.04069
1143.30 0.04068
1143.40 0.04067
1143.50 0.04065
1143.60 0.04064
1143.70 0.04062
1143.80 0.04061
1143.90 0.0406
1144.00 0.04058
1144.10 0.04057
1144.20 0.04055
1144.30 0.04054
1144.40 0.04053
1144.50 0.04051
1144.60 0.0405
1144.70 0.04049
1144.80 0.04047
1144.90 0.04046
1145.00 0.04044
1145.10 0.04043
1145.20 0.04042
1145.30 0.0404
1145.40 0.04039
1145.50 0.04038
1145.60 0.04036
1145.70 0.04035
1145.80 0.04033
1145.90 0.04032
1146.00 0.04031
1146.10 0.04029
1146.20 0.04028
1146.30 0.04027
1146.40 0.04025
1146.50 0.04024
1146.60 0.04022
1146.70 0.04021
1146.80 0.0402
1146.90 0.04018
1147.00 0.04017
1147.10 0.04016
1147.20 0.04014
1147.30 0.04013
1147.40 0.04011
1147.50 0.0401
1147.60 0.04009
1147.70 0.04007
1147.80 0.04006
1147.90 0.04005
1148.00 0.04003
1148.10 0.04002
1148.20 0.04001
1148.30 0.03999
1148.40 0.03998
1148.50 0.03997
1148.60 0.03995
1148.70 0.03994
1148.80 0.03992
1148.90 0.03991
1149.00 0.0399
1149.10 0.03988
1149.20 0.03987
1149.30 0.03986
1149.40 0.03984
1149.50 0.03983
1149.60 0.03982
1149.70 0.0398
1149.80 0.03979
1149.90 0.03978
1150.00 0.03976
1150.10 0.03975
1150.20 0.03974
1150.30 0.03972
1150.40 0.03971
1150.50 0.0397
1150.60 0.03968
1150.70 0.03967
1150.80 0.03965
1150.90 0.03964
1151.00 0.03963
1151.10 0.03961
1151.20 0.0396
1151.30 0.03959
1151.40 0.03957
1151.50 0.03956
1151.60 0.03955
1151.70 0.03953
1151.80 0.03952
1151.90 0.03951
1152.00 0.03949
1152.10 0.03948
1152.20 0.03947
1152.30 0.03945
1152.40 0.03944
1152.50 0.03943
1152.60 0.03941
1152.70 0.0394
1152.80 0.03939
1152.90 0.03937
1153.00 0.03936
1153.10 0.03935
1153.20 0.03933
1153.30 0.03932
1153.40 0.03931
1153.50 0.03929
1153.60 0.03928
1153.70 0.03927
1153.80 0.03925
1153.90 0.03924
1154.00 0.03923
1154.10 0.03921
1154.20 0.0392
1154.30 0.03919
1154.40 0.03917
1154.50 0.03916
1154.60 0.03915
1154.70 0.03913
1154.80 0.03912
1154.90 0.03911
1155.00 0.03909
1155.10 0.03908
1155.20 0.03907
1155.30 0.03906
1155.40 0.03904
1155.50 0.03903
1155.60 0.03902
1155.70 0.039
1155.80 0.03899
1155.90 0.03898
1156.00 0.03896
1156.10 0.03895
1156.20 0.03894
1156.30 0.03892
1156.40 0.03891
1156.50 0.0389
1156.60 0.03888
1156.70 0.03887
1156.80 0.03886
1156.90 0.03884
1157.00 0.03883
1157.10 0.03882
1157.20 0.03881
1157.30 0.03879
1157.40 0.03878
1157.50 0.03877
1157.60 0.03875
1157.70 0.03874
1157.80 0.03873
1157.90 0.03871
1158.00 0.0387
1158.10 0.03869
1158.20 0.03867
1158.30 0.03866
1158.40 0.03865
1158.50 0.03864
1158.60 0.03862
1158.70 0.03861
1158.80 0.0386
1158.90 0.03858
1159.00 0.03857
1159.10 0.03856
1159.20 0.03854
1159.30 0.03853
1159.40 0.03852
1159.50 0.03851
1159.60 0.03849
1159.70 0.03848
1159.80 0.03847
1159.90 0.03845
1160.00 0.03844
1160.10 0.03843
1160.20 0.03842
1160.30 0.0384
1160.40 0.03839
1160.50 0.03838
1160.60 0.03836
1160.70 0.03835
1160.80 0.03834
1160.90 0.03832
1161.00 0.03831
1161.10 0.0383
1161.20 0.03829
1161.30 0.03827
1161.40 0.03826
1161.50 0.03825
1161.60 0.03823
1161.70 0.03822
1161.80 0.03821
1161.90 0.0382
1162.00 0.03818
1162.10 0.03817
1162.20 0.03816
1162.30 0.03814
1162.40 0.03813
1162.50 0.03812
1162.60 0.03811
1162.70 0.03809
1162.80 0.03808
1162.90 0.03807
1163.00 0.03806
1163.10 0.03804
1163.20 0.03803
1163.30 0.03802
1163.40 0.038
1163.50 0.03799
1163.60 0.03798
1163.70 0.03797
1163.80 0.03795
1163.90 0.03794
1164.00 0.03793
1164.10 0.03792
1164.20 0.0379
1164.30 0.03789
1164.40 0.03788
1164.50 0.03786
1164.60 0.03785
1164.70 0.03784
1164.80 0.03783
1164.90 0.03781
1165.00 0.0378
1165.10 0.03779
1165.20 0.03778
1165.30 0.03776
1165.40 0.03775
1165.50 0.03774
1165.60 0.03773
1165.70 0.03771
1165.80 0.0377
1165.90 0.03769
1166.00 0.03767
1166.10 0.03766
1166.20 0.03765
1166.30 0.03764
1166.40 0.03762
1166.50 0.03761
1166.60 0.0376
1166.70 0.03759
1166.80 0.03757
1166.90 0.03756
1167.00 0.03755
1167.10 0.03754
1167.20 0.03752
1167.30 0.03751
1167.40 0.0375
1167.50 0.03749
1167.60 0.03747
1167.70 0.03746
1167.80 0.03745
1167.90 0.03744
1168.00 0.03742
1168.10 0.03741
1168.20 0.0374
1168.30 0.03739
1168.40 0.03737
1168.50 0.03736
1168.60 0.03735
1168.70 0.03734
1168.80 0.03732
1168.90 0.03731
1169.00 0.0373
1169.10 0.03729
1169.20 0.03727
1169.30 0.03726
1169.40 0.03725
1169.50 0.03724
1169.60 0.03722
1169.70 0.03721
1169.80 0.0372
1169.90 0.03719
1170.00 0.03717
1170.10 0.03716
1170.20 0.03715
1170.30 0.03714
1170.40 0.03712
1170.50 0.03711
1170.60 0.0371
1170.70 0.03709
1170.80 0.03708
1170.90 0.03706
1171.00 0.03705
1171.10 0.03704
1171.20 0.03703
1171.30 0.03701
1171.40 0.037
1171.50 0.03699
1171.60 0.03698
1171.70 0.03696
1171.80 0.03695
1171.90 0.03694
1172.00 0.03693
1172.10 0.03691
1172.20 0.0369
1172.30 0.03689
1172.40 0.03688
1172.50 0.03687
1172.60 0.03685
1172.70 0.03684
1172.80 0.03683
1172.90 0.03682
1173.00 0.0368
1173.10 0.03679
1173.20 0.03678
1173.30 0.03677
1173.40 0.03676
1173.50 0.03674
1173.60 0.03673
1173.70 0.03672
1173.80 0.03671
1173.90 0.03669
1174.00 0.03668
1174.10 0.03667
1174.20 0.03666
1174.30 0.03665
1174.40 0.03663
1174.50 0.03662
1174.60 0.03661
1174.70 0.0366
1174.80 0.03658
1174.90 0.03657
1175.00 0.03656
1175.10 0.03655
1175.20 0.03654
1175.30 0.03652
1175.40 0.03651
1175.50 0.0365
1175.60 0.03649
1175.70 0.03648
1175.80 0.03646
1175.90 0.03645
1176.00 0.03644
1176.10 0.03643
1176.20 0.03641
1176.30 0.0364
1176.40 0.03639
1176.50 0.03638
1176.60 0.03637
1176.70 0.03635
1176.80 0.03634
1176.90 0.03633
1177.00 0.03632
1177.10 0.03631
1177.20 0.03629
1177.30 0.03628
1177.40 0.03627
1177.50 0.03626
1177.60 0.03625
1177.70 0.03623
1177.80 0.03622
1177.90 0.03621
1178.00 0.0362
1178.10 0.03619
1178.20 0.03617
1178.30 0.03616
1178.40 0.03615
1178.50 0.03614
1178.60 0.03613
1178.70 0.03611
1178.80 0.0361
1178.90 0.03609
1179.00 0.03608
1179.10 0.03607
1179.20 0.03605
1179.30 0.03604
1179.40 0.03603
1179.50 0.03602
1179.60 0.03601
1179.70 0.03599
1179.80 0.03598
1179.90 0.03597
1180.00 0.03596
1180.10 0.03595
1180.20 0.03594
1180.30 0.03592
1180.40 0.03591
1180.50 0.0359
1180.60 0.03589
1180.70 0.03588
1180.80 0.03586
1180.90 0.03585
1181.00 0.03584
1181.10 0.03583
1181.20 0.03582
1181.30 0.0358
1181.40 0.03579
1181.50 0.03578
1181.60 0.03577
1181.70 0.03576
1181.80 0.03575
1181.90 0.03573
1182.00 0.03572
1182.10 0.03571
1182.20 0.0357
1182.30 0.03569
1182.40 0.03567
1182.50 0.03566
1182.60 0.03565
1182.70 0.03564
1182.80 0.03563
1182.90 0.03562
1183.00 0.0356
1183.10 0.03559
1183.20 0.03558
1183.30 0.03557
1183.40 0.03556
1183.50 0.03555
1183.60 0.03553
1183.70 0.03552
1183.80 0.03551
1183.90 0.0355
1184.00 0.03549
1184.10 0.03548
1184.20 0.03546
1184.30 0.03545
1184.40 0.03544
1184.50 0.03543
1184.60 0.03542
1184.70 0.03541
1184.80 0.03539
1184.90 0.03538
1185.00 0.03537
1185.10 0.03536
1185.20 0.03535
1185.30 0.03534
1185.40 0.03532
1185.50 0.03531
1185.60 0.0353
1185.70 0.03529
1185.80 0.03528
1185.90 0.03527
1186.00 0.03525
1186.10 0.03524
1186.20 0.03523
1186.30 0.03522
1186.40 0.03521
1186.50 0.0352
1186.60 0.03518
1186.70 0.03517
1186.80 0.03516
1186.90 0.03515
1187.00 0.03514
1187.10 0.03513
1187.20 0.03511
1187.30 0.0351
1187.40 0.03509
1187.50 0.03508
1187.60 0.03507
1187.70 0.03506
1187.80 0.03505
1187.90 0.03503
1188.00 0.03502
1188.10 0.03501
1188.20 0.035
1188.30 0.03499
1188.40 0.03498
1188.50 0.03497
1188.60 0.03495
1188.70 0.03494
1188.80 0.03493
1188.90 0.03492
1189.00 0.03491
1189.10 0.0349
1189.20 0.03489
1189.30 0.03487
1189.40 0.03486
1189.50 0.03485
1189.60 0.03484
1189.70 0.03483
1189.80 0.03482
1189.90 0.0348
1190.00 0.03479
1190.10 0.03478
1190.20 0.03477
1190.30 0.03476
1190.40 0.03475
1190.50 0.03474
1190.60 0.03473
1190.70 0.03471
1190.80 0.0347
1190.90 0.03469
1191.00 0.03468
1191.10 0.03467
1191.20 0.03466
1191.30 0.03465
1191.40 0.03463
1191.50 0.03462
1191.60 0.03461
1191.70 0.0346
1191.80 0.03459
1191.90 0.03458
1192.00 0.03457
1192.10 0.03455
1192.20 0.03454
1192.30 0.03453
1192.40 0.03452
1192.50 0.03451
1192.60 0.0345
1192.70 0.03449
1192.80 0.03448
1192.90 0.03446
1193.00 0.03445
1193.10 0.03444
1193.20 0.03443
1193.30 0.03442
1193.40 0.03441
1193.50 0.0344
1193.60 0.03439
1193.70 0.03437
1193.80 0.03436
1193.90 0.03435
1194.00 0.03434
1194.10 0.03433
1194.20 0.03432
1194.30 0.03431
1194.40 0.0343
1194.50 0.03428
1194.60 0.03427
1194.70 0.03426
1194.80 0.03425
1194.90 0.03424
1195.00 0.03423
1195.10 0.03422
1195.20 0.03421
1195.30 0.03419
1195.40 0.03418
1195.50 0.03417
1195.60 0.03416
1195.70 0.03415
1195.80 0.03414
1195.90 0.03413
1196.00 0.03412
1196.10 0.03411
1196.20 0.03409
1196.30 0.03408
1196.40 0.03407
1196.50 0.03406
1196.60 0.03405
1196.70 0.03404
1196.80 0.03403
1196.90 0.03402
1197.00 0.03401
1197.10 0.03399
1197.20 0.03398
1197.30 0.03397
1197.40 0.03396
1197.50 0.03395
1197.60 0.03394
1197.70 0.03393
1197.80 0.03392
1197.90 0.03391
1198.00 0.03389
1198.10 0.03388
1198.20 0.03387
1198.30 0.03386
1198.40 0.03385
1198.50 0.03384
1198.60 0.03383
1198.70 0.03382
1198.80 0.03381
1198.90 0.0338
1199.00 0.03378
1199.10 0.03377
1199.20 0.03376
1199.30 0.03375
1199.40 0.03374
1199.50 0.03373
1199.60 0.03372
1199.70 0.03371
1199.80 0.0337
1199.90 0.03369
1200.00 0
