# Version 2.1 - nm, norm@500 to 1, cut digits, bergeron_4250_70.dat_4250
# Wavelength(nm)  Flambda(ergs/cm^s/s/nm)
300.00 0.1926
300.10 0.1929
300.20 0.1933
300.30 0.1936
300.40 0.194
300.50 0.1943
300.60 0.1947
300.70 0.195
300.80 0.1954
300.90 0.1957
301.00 0.1961
301.10 0.1964
301.20 0.1968
301.30 0.1971
301.40 0.1975
301.50 0.1978
301.60 0.1981
301.70 0.1985
301.80 0.1988
301.90 0.1992
302.00 0.1995
302.10 0.1999
302.20 0.2002
302.30 0.2006
302.40 0.201
302.50 0.2013
302.60 0.2017
302.70 0.202
302.80 0.2024
302.90 0.2027
303.00 0.2031
303.10 0.2034
303.20 0.2038
303.30 0.2041
303.40 0.2045
303.50 0.2048
303.60 0.2052
303.70 0.2056
303.80 0.2059
303.90 0.2063
304.00 0.2066
304.10 0.207
304.20 0.2073
304.30 0.2077
304.40 0.2081
304.50 0.2084
304.60 0.2088
304.70 0.2091
304.80 0.2095
304.90 0.2099
305.00 0.2102
305.10 0.2106
305.20 0.2109
305.30 0.2113
305.40 0.2117
305.50 0.212
305.60 0.2124
305.70 0.2127
305.80 0.2131
305.90 0.2134
306.00 0.2138
306.10 0.2142
306.20 0.2145
306.30 0.2149
306.40 0.2153
306.50 0.2156
306.60 0.216
306.70 0.2164
306.80 0.2167
306.90 0.2171
307.00 0.2175
307.10 0.2178
307.20 0.2182
307.30 0.2186
307.40 0.2189
307.50 0.2193
307.60 0.2196
307.70 0.22
307.80 0.2204
307.90 0.2207
308.00 0.2211
308.10 0.2215
308.20 0.2218
308.30 0.2222
308.40 0.2226
308.50 0.223
308.60 0.2233
308.70 0.2237
308.80 0.2241
308.90 0.2244
309.00 0.2248
309.10 0.2252
309.20 0.2256
309.30 0.2259
309.40 0.2263
309.50 0.2267
309.60 0.227
309.70 0.2274
309.80 0.2278
309.90 0.2281
310.00 0.2285
310.10 0.2289
310.20 0.2293
310.30 0.2296
310.40 0.23
310.50 0.2304
310.60 0.2308
310.70 0.2312
310.80 0.2315
310.90 0.2319
311.00 0.2323
311.10 0.2327
311.20 0.233
311.30 0.2334
311.40 0.2338
311.50 0.2342
311.60 0.2345
311.70 0.2349
311.80 0.2353
311.90 0.2356
312.00 0.236
312.10 0.2364
312.20 0.2368
312.30 0.2371
312.40 0.2375
312.50 0.2379
312.60 0.2383
312.70 0.2387
312.80 0.2391
312.90 0.2394
313.00 0.2398
313.10 0.2402
313.20 0.2406
313.30 0.241
313.40 0.2413
313.50 0.2417
313.60 0.2421
313.70 0.2425
313.80 0.2429
313.90 0.2432
314.00 0.2436
314.10 0.244
314.20 0.2444
314.30 0.2448
314.40 0.2452
314.50 0.2456
314.60 0.2459
314.70 0.2463
314.80 0.2467
314.90 0.2471
315.00 0.2475
315.10 0.2479
315.20 0.2483
315.30 0.2486
315.40 0.249
315.50 0.2494
315.60 0.2498
315.70 0.2502
315.80 0.2505
315.90 0.2509
316.00 0.2513
316.10 0.2517
316.20 0.2521
316.30 0.2525
316.40 0.2529
316.50 0.2533
316.60 0.2537
316.70 0.2541
316.80 0.2545
316.90 0.2548
317.00 0.2552
317.10 0.2556
317.20 0.256
317.30 0.2564
317.40 0.2568
317.50 0.2572
317.60 0.2576
317.70 0.258
317.80 0.2583
317.90 0.2587
318.00 0.2591
318.10 0.2595
318.20 0.2599
318.30 0.2603
318.40 0.2607
318.50 0.2611
318.60 0.2615
318.70 0.2619
318.80 0.2623
318.90 0.2627
319.00 0.2631
319.10 0.2635
319.20 0.2639
319.30 0.2643
319.40 0.2647
319.50 0.265
319.60 0.2654
319.70 0.2658
319.80 0.2662
319.90 0.2666
320.00 0.267
320.10 0.2674
320.20 0.2678
320.30 0.2682
320.40 0.2686
320.50 0.269
320.60 0.2694
320.70 0.2698
320.80 0.2702
320.90 0.2706
321.00 0.271
321.10 0.2714
321.20 0.2718
321.30 0.2722
321.40 0.2726
321.50 0.273
321.60 0.2734
321.70 0.2738
321.80 0.2742
321.90 0.2746
322.00 0.275
322.10 0.2754
322.20 0.2758
322.30 0.2762
322.40 0.2766
322.50 0.277
322.60 0.2774
322.70 0.2778
322.80 0.2782
322.90 0.2786
323.00 0.279
323.10 0.2794
323.20 0.2798
323.30 0.2802
323.40 0.2806
323.50 0.281
323.60 0.2814
323.70 0.2818
323.80 0.2822
323.90 0.2826
324.00 0.283
324.10 0.2835
324.20 0.2839
324.30 0.2843
324.40 0.2847
324.50 0.2851
324.60 0.2855
324.70 0.2859
324.80 0.2863
324.90 0.2867
325.00 0.2871
325.10 0.2875
325.20 0.2879
325.30 0.2884
325.40 0.2888
325.50 0.2892
325.60 0.2896
325.70 0.29
325.80 0.2904
325.90 0.2908
326.00 0.2912
326.10 0.2916
326.20 0.292
326.30 0.2924
326.40 0.2928
326.50 0.2933
326.60 0.2937
326.70 0.2941
326.80 0.2945
326.90 0.2949
327.00 0.2953
327.10 0.2957
327.20 0.2961
327.30 0.2966
327.40 0.297
327.50 0.2974
327.60 0.2978
327.70 0.2982
327.80 0.2986
327.90 0.299
328.00 0.2994
328.10 0.2998
328.20 0.3002
328.30 0.3007
328.40 0.3011
328.50 0.3015
328.60 0.3019
328.70 0.3023
328.80 0.3027
328.90 0.3032
329.00 0.3036
329.10 0.304
329.20 0.3044
329.30 0.3048
329.40 0.3052
329.50 0.3056
329.60 0.3061
329.70 0.3065
329.80 0.3069
329.90 0.3073
330.00 0.3077
330.10 0.3081
330.20 0.3085
330.30 0.309
330.40 0.3094
330.50 0.3098
330.60 0.3102
330.70 0.3107
330.80 0.3111
330.90 0.3115
331.00 0.3119
331.10 0.3123
331.20 0.3128
331.30 0.3132
331.40 0.3136
331.50 0.314
331.60 0.3144
331.70 0.3148
331.80 0.3152
331.90 0.3157
332.00 0.3161
332.10 0.3165
332.20 0.3169
332.30 0.3174
332.40 0.3178
332.50 0.3182
332.60 0.3186
332.70 0.3191
332.80 0.3195
332.90 0.3199
333.00 0.3203
333.10 0.3207
333.20 0.3212
333.30 0.3216
333.40 0.322
333.50 0.3224
333.60 0.3228
333.70 0.3233
333.80 0.3237
333.90 0.3241
334.00 0.3245
334.10 0.3249
334.20 0.3254
334.30 0.3258
334.40 0.3262
334.50 0.3267
334.60 0.3271
334.70 0.3275
334.80 0.3279
334.90 0.3284
335.00 0.3288
335.10 0.3292
335.20 0.3296
335.30 0.3301
335.40 0.3305
335.50 0.3309
335.60 0.3313
335.70 0.3318
335.80 0.3322
335.90 0.3326
336.00 0.333
336.10 0.3334
336.20 0.3339
336.30 0.3343
336.40 0.3347
336.50 0.3352
336.60 0.3356
336.70 0.336
336.80 0.3365
336.90 0.3369
337.00 0.3373
337.10 0.3378
337.20 0.3382
337.30 0.3386
337.40 0.339
337.50 0.3395
337.60 0.3399
337.70 0.3403
337.80 0.3407
337.90 0.3412
338.00 0.3416
338.10 0.342
338.20 0.3425
338.30 0.3429
338.40 0.3433
338.50 0.3438
338.60 0.3442
338.70 0.3446
338.80 0.3451
338.90 0.3455
339.00 0.3459
339.10 0.3464
339.20 0.3468
339.30 0.3472
339.40 0.3476
339.50 0.3481
339.60 0.3485
339.70 0.3489
339.80 0.3494
339.90 0.3498
340.00 0.3502
340.10 0.3506
340.20 0.3511
340.30 0.3515
340.40 0.352
340.50 0.3524
340.60 0.3528
340.70 0.3533
340.80 0.3537
340.90 0.3541
341.00 0.3546
341.10 0.355
341.20 0.3555
341.30 0.3559
341.40 0.3563
341.50 0.3567
341.60 0.3572
341.70 0.3576
341.80 0.358
341.90 0.3585
342.00 0.3589
342.10 0.3593
342.20 0.3598
342.30 0.3602
342.40 0.3607
342.50 0.3611
342.60 0.3615
342.70 0.362
342.80 0.3624
342.90 0.3629
343.00 0.3633
343.10 0.3637
343.20 0.3642
343.30 0.3646
343.40 0.365
343.50 0.3655
343.60 0.3659
343.70 0.3663
343.80 0.3668
343.90 0.3672
344.00 0.3676
344.10 0.3681
344.20 0.3685
344.30 0.369
344.40 0.3694
344.50 0.3699
344.60 0.3703
344.70 0.3707
344.80 0.3712
344.90 0.3716
345.00 0.3721
345.10 0.3725
345.20 0.3729
345.30 0.3734
345.40 0.3738
345.50 0.3743
345.60 0.3747
345.70 0.3751
345.80 0.3756
345.90 0.376
346.00 0.3764
346.10 0.3769
346.20 0.3773
346.30 0.3778
346.40 0.3782
346.50 0.3787
346.60 0.3791
346.70 0.3795
346.80 0.38
346.90 0.3804
347.00 0.3809
347.10 0.3813
347.20 0.3818
347.30 0.3822
347.40 0.3826
347.50 0.3831
347.60 0.3835
347.70 0.3839
347.80 0.3844
347.90 0.3848
348.00 0.3853
348.10 0.3857
348.20 0.3862
348.30 0.3866
348.40 0.3871
348.50 0.3875
348.60 0.3879
348.70 0.3884
348.80 0.3888
348.90 0.3893
349.00 0.3897
349.10 0.3902
349.20 0.3906
349.30 0.3911
349.40 0.3915
349.50 0.3919
349.60 0.3924
349.70 0.3928
349.80 0.3933
349.90 0.3937
350.00 0.3941
350.10 0.3946
350.20 0.395
350.30 0.3955
350.40 0.3959
350.50 0.3964
350.60 0.3968
350.70 0.3973
350.80 0.3977
350.90 0.3982
351.00 0.3986
351.10 0.3991
351.20 0.3995
351.30 0.4
351.40 0.4004
351.50 0.4009
351.60 0.4013
351.70 0.4017
351.80 0.4022
351.90 0.4026
352.00 0.4031
352.10 0.4035
352.20 0.404
352.30 0.4044
352.40 0.4049
352.50 0.4053
352.60 0.4058
352.70 0.4062
352.80 0.4067
352.90 0.4071
353.00 0.4076
353.10 0.408
353.20 0.4085
353.30 0.4089
353.40 0.4094
353.50 0.4098
353.60 0.4103
353.70 0.4107
353.80 0.4111
353.90 0.4116
354.00 0.412
354.10 0.4125
354.20 0.4129
354.30 0.4134
354.40 0.4138
354.50 0.4143
354.60 0.4148
354.70 0.4152
354.80 0.4157
354.90 0.4161
355.00 0.4166
355.10 0.417
355.20 0.4175
355.30 0.4179
355.40 0.4184
355.50 0.4188
355.60 0.4192
355.70 0.4197
355.80 0.4201
355.90 0.4206
356.00 0.421
356.10 0.4215
356.20 0.4219
356.30 0.4224
356.40 0.4229
356.50 0.4233
356.60 0.4238
356.70 0.4242
356.80 0.4247
356.90 0.4251
357.00 0.4256
357.10 0.426
357.20 0.4265
357.30 0.4269
357.40 0.4274
357.50 0.4278
357.60 0.4283
357.70 0.4287
357.80 0.4292
357.90 0.4296
358.00 0.4301
358.10 0.4305
358.20 0.431
358.30 0.4314
358.40 0.4319
358.50 0.4323
358.60 0.4328
358.70 0.4332
358.80 0.4337
358.90 0.4341
359.00 0.4346
359.10 0.4351
359.20 0.4355
359.30 0.436
359.40 0.4364
359.50 0.4369
359.60 0.4373
359.70 0.4378
359.80 0.4382
359.90 0.4386
360.00 0.4391
360.10 0.4396
360.20 0.44
360.30 0.4405
360.40 0.4409
360.50 0.4414
360.60 0.4418
360.70 0.4423
360.80 0.4428
360.90 0.4432
361.00 0.4437
361.10 0.4441
361.20 0.4446
361.30 0.445
361.40 0.4455
361.50 0.4459
361.60 0.4464
361.70 0.4468
361.80 0.4473
361.90 0.4477
362.00 0.4482
362.10 0.4486
362.20 0.4491
362.30 0.4496
362.40 0.45
362.50 0.4505
362.60 0.4509
362.70 0.4514
362.80 0.4518
362.90 0.4523
363.00 0.4527
363.10 0.4532
363.20 0.4536
363.30 0.4541
363.40 0.4546
363.50 0.455
363.60 0.4555
363.70 0.4559
363.80 0.4564
363.90 0.4568
364.00 0.4573
364.10 0.4577
364.20 0.4582
364.30 0.4587
364.40 0.4591
364.50 0.4596
364.60 0.46
364.70 0.4605
364.80 0.4609
364.90 0.4614
365.00 0.4619
365.10 0.4623
365.20 0.4628
365.30 0.4632
365.40 0.4637
365.50 0.4641
365.60 0.4646
365.70 0.465
365.80 0.4655
365.90 0.4659
366.00 0.4664
366.10 0.4669
366.20 0.4673
366.30 0.4678
366.40 0.4682
366.50 0.4687
366.60 0.4692
366.70 0.4696
366.80 0.4701
366.90 0.4705
367.00 0.471
367.10 0.4715
367.20 0.4719
367.30 0.4724
367.40 0.4728
367.50 0.4733
367.60 0.4737
367.70 0.4742
367.80 0.4746
367.90 0.4751
368.00 0.4755
368.10 0.476
368.20 0.4765
368.30 0.4769
368.40 0.4774
368.50 0.4779
368.60 0.4783
368.70 0.4788
368.80 0.4792
368.90 0.4797
369.00 0.4801
369.10 0.4806
369.20 0.4811
369.30 0.4815
369.40 0.482
369.50 0.4824
369.60 0.4829
369.70 0.4833
369.80 0.4838
369.90 0.4842
370.00 0.4847
370.10 0.4852
370.20 0.4856
370.30 0.4861
370.40 0.4865
370.50 0.487
370.60 0.4875
370.70 0.4879
370.80 0.4884
370.90 0.4888
371.00 0.4893
371.10 0.4898
371.20 0.4902
371.30 0.4907
371.40 0.4911
371.50 0.4916
371.60 0.492
371.70 0.4925
371.80 0.493
371.90 0.4934
372.00 0.4939
372.10 0.4943
372.20 0.4948
372.30 0.4953
372.40 0.4957
372.50 0.4962
372.60 0.4966
372.70 0.4971
372.80 0.4976
372.90 0.498
373.00 0.4985
373.10 0.4989
373.20 0.4994
373.30 0.4999
373.40 0.5003
373.50 0.5008
373.60 0.5012
373.70 0.5017
373.80 0.5021
373.90 0.5026
374.00 0.503
374.10 0.5035
374.20 0.504
374.30 0.5044
374.40 0.5049
374.50 0.5053
374.60 0.5058
374.70 0.5063
374.80 0.5067
374.90 0.5072
375.00 0.5076
375.10 0.5081
375.20 0.5086
375.30 0.509
375.40 0.5095
375.50 0.5099
375.60 0.5104
375.70 0.5108
375.80 0.5113
375.90 0.5117
376.00 0.5122
376.10 0.5127
376.20 0.5131
376.30 0.5136
376.40 0.514
376.50 0.5145
376.60 0.515
376.70 0.5154
376.80 0.5159
376.90 0.5163
377.00 0.5168
377.10 0.5173
377.20 0.5177
377.30 0.5182
377.40 0.5186
377.50 0.5191
377.60 0.5195
377.70 0.52
377.80 0.5205
377.90 0.5209
378.00 0.5214
378.10 0.5218
378.20 0.5223
378.30 0.5227
378.40 0.5232
378.50 0.5237
378.60 0.5241
378.70 0.5246
378.80 0.525
378.90 0.5255
379.00 0.526
379.10 0.5264
379.20 0.5269
379.30 0.5273
379.40 0.5278
379.50 0.5283
379.60 0.5287
379.70 0.5292
379.80 0.5296
379.90 0.5301
380.00 0.5306
380.10 0.531
380.20 0.5315
380.30 0.5319
380.40 0.5324
380.50 0.5329
380.60 0.5333
380.70 0.5338
380.80 0.5342
380.90 0.5347
381.00 0.5351
381.10 0.5356
381.20 0.5361
381.30 0.5365
381.40 0.537
381.50 0.5374
381.60 0.5379
381.70 0.5383
381.80 0.5388
381.90 0.5393
382.00 0.5397
382.10 0.5402
382.20 0.5406
382.30 0.5411
382.40 0.5416
382.50 0.542
382.60 0.5425
382.70 0.5429
382.80 0.5434
382.90 0.5438
383.00 0.5443
383.10 0.5448
383.20 0.5452
383.30 0.5457
383.40 0.5461
383.50 0.5466
383.60 0.547
383.70 0.5475
383.80 0.548
383.90 0.5484
384.00 0.5489
384.10 0.5493
384.20 0.5498
384.30 0.5503
384.40 0.5507
384.50 0.5512
384.60 0.5516
384.70 0.5521
384.80 0.5525
384.90 0.553
385.00 0.5535
385.10 0.5539
385.20 0.5544
385.30 0.5548
385.40 0.5553
385.50 0.5557
385.60 0.5562
385.70 0.5567
385.80 0.5571
385.90 0.5576
386.00 0.558
386.10 0.5585
386.20 0.5589
386.30 0.5594
386.40 0.5599
386.50 0.5603
386.60 0.5608
386.70 0.5612
386.80 0.5617
386.90 0.5621
387.00 0.5626
387.10 0.5631
387.20 0.5635
387.30 0.564
387.40 0.5644
387.50 0.5649
387.60 0.5653
387.70 0.5658
387.80 0.5663
387.90 0.5667
388.00 0.5672
388.10 0.5676
388.20 0.5681
388.30 0.5685
388.40 0.569
388.50 0.5694
388.60 0.5699
388.70 0.5704
388.80 0.5708
388.90 0.5713
389.00 0.5717
389.10 0.5722
389.20 0.5726
389.30 0.5731
389.40 0.5736
389.50 0.574
389.60 0.5745
389.70 0.5749
389.80 0.5754
389.90 0.5758
390.00 0.5763
390.10 0.5767
390.20 0.5772
390.30 0.5777
390.40 0.5781
390.50 0.5786
390.60 0.579
390.70 0.5795
390.80 0.5799
390.90 0.5804
391.00 0.5809
391.10 0.5813
391.20 0.5818
391.30 0.5822
391.40 0.5827
391.50 0.5831
391.60 0.5836
391.70 0.584
391.80 0.5845
391.90 0.5849
392.00 0.5854
392.10 0.5859
392.20 0.5863
392.30 0.5868
392.40 0.5872
392.50 0.5877
392.60 0.5881
392.70 0.5886
392.80 0.589
392.90 0.5895
393.00 0.5899
393.10 0.5904
393.20 0.5909
393.30 0.5913
393.40 0.5918
393.50 0.5922
393.60 0.5927
393.70 0.5931
393.80 0.5936
393.90 0.594
394.00 0.5945
394.10 0.5949
394.20 0.5954
394.30 0.5959
394.40 0.5963
394.50 0.5968
394.60 0.5972
394.70 0.5977
394.80 0.5981
394.90 0.5986
395.00 0.599
395.10 0.5995
395.20 0.5999
395.30 0.6004
395.40 0.6008
395.50 0.6013
395.60 0.6017
395.70 0.6022
395.80 0.6026
395.90 0.6031
396.00 0.6036
396.10 0.604
396.20 0.6045
396.30 0.6049
396.40 0.6054
396.50 0.6058
396.60 0.6063
396.70 0.6067
396.80 0.6072
396.90 0.6076
397.00 0.6081
397.10 0.6085
397.20 0.609
397.30 0.6094
397.40 0.6099
397.50 0.6103
397.60 0.6108
397.70 0.6112
397.80 0.6117
397.90 0.6121
398.00 0.6126
398.10 0.613
398.20 0.6135
398.30 0.6139
398.40 0.6144
398.50 0.6148
398.60 0.6153
398.70 0.6157
398.80 0.6162
398.90 0.6166
399.00 0.6171
399.10 0.6176
399.20 0.618
399.30 0.6185
399.40 0.6189
399.50 0.6194
399.60 0.6198
399.70 0.6203
399.80 0.6207
399.90 0.6212
400.00 0.6216
400.10 0.6221
400.20 0.6225
400.30 0.623
400.40 0.6234
400.50 0.6238
400.60 0.6243
400.70 0.6247
400.80 0.6252
400.90 0.6256
401.00 0.6261
401.10 0.6265
401.20 0.627
401.30 0.6274
401.40 0.6279
401.50 0.6283
401.60 0.6288
401.70 0.6292
401.80 0.6297
401.90 0.6301
402.00 0.6306
402.10 0.631
402.20 0.6315
402.30 0.6319
402.40 0.6324
402.50 0.6328
402.60 0.6333
402.70 0.6337
402.80 0.6342
402.90 0.6346
403.00 0.6351
403.10 0.6355
403.20 0.636
403.30 0.6364
403.40 0.6368
403.50 0.6373
403.60 0.6378
403.70 0.6382
403.80 0.6386
403.90 0.6391
404.00 0.6395
404.10 0.64
404.20 0.6404
404.30 0.6409
404.40 0.6413
404.50 0.6418
404.60 0.6422
404.70 0.6427
404.80 0.6431
404.90 0.6435
405.00 0.644
405.10 0.6444
405.20 0.6449
405.30 0.6453
405.40 0.6458
405.50 0.6462
405.60 0.6467
405.70 0.6471
405.80 0.6476
405.90 0.648
406.00 0.6484
406.10 0.6489
406.20 0.6493
406.30 0.6498
406.40 0.6502
406.50 0.6507
406.60 0.6511
406.70 0.6516
406.80 0.652
406.90 0.6525
407.00 0.6529
407.10 0.6533
407.20 0.6538
407.30 0.6542
407.40 0.6547
407.50 0.6551
407.60 0.6556
407.70 0.656
407.80 0.6565
407.90 0.6569
408.00 0.6573
408.10 0.6578
408.20 0.6582
408.30 0.6587
408.40 0.6591
408.50 0.6596
408.60 0.66
408.70 0.6604
408.80 0.6609
408.90 0.6613
409.00 0.6618
409.10 0.6622
409.20 0.6626
409.30 0.6631
409.40 0.6635
409.50 0.664
409.60 0.6644
409.70 0.6648
409.80 0.6653
409.90 0.6657
410.00 0.6661
410.10 0.6665
410.20 0.6669
410.30 0.6674
410.40 0.6679
410.50 0.6684
410.60 0.6688
410.70 0.6692
410.80 0.6697
410.90 0.6701
411.00 0.6706
411.10 0.671
411.20 0.6715
411.30 0.6719
411.40 0.6723
411.50 0.6728
411.60 0.6732
411.70 0.6737
411.80 0.6741
411.90 0.6745
412.00 0.675
412.10 0.6754
412.20 0.6759
412.30 0.6763
412.40 0.6767
412.50 0.6772
412.60 0.6776
412.70 0.678
412.80 0.6785
412.90 0.6789
413.00 0.6794
413.10 0.6798
413.20 0.6802
413.30 0.6807
413.40 0.6811
413.50 0.6816
413.60 0.682
413.70 0.6824
413.80 0.6829
413.90 0.6833
414.00 0.6837
414.10 0.6842
414.20 0.6846
414.30 0.6851
414.40 0.6855
414.50 0.6859
414.60 0.6864
414.70 0.6868
414.80 0.6872
414.90 0.6877
415.00 0.6881
415.10 0.6885
415.20 0.689
415.30 0.6894
415.40 0.6898
415.50 0.6903
415.60 0.6907
415.70 0.6912
415.80 0.6916
415.90 0.692
416.00 0.6925
416.10 0.6929
416.20 0.6933
416.30 0.6938
416.40 0.6942
416.50 0.6946
416.60 0.6951
416.70 0.6955
416.80 0.6959
416.90 0.6964
417.00 0.6968
417.10 0.6972
417.20 0.6977
417.30 0.6981
417.40 0.6985
417.50 0.699
417.60 0.6994
417.70 0.6998
417.80 0.7003
417.90 0.7007
418.00 0.7011
418.10 0.7016
418.20 0.702
418.30 0.7024
418.40 0.7029
418.50 0.7033
418.60 0.7037
418.70 0.7042
418.80 0.7046
418.90 0.705
419.00 0.7054
419.10 0.7059
419.20 0.7063
419.30 0.7067
419.40 0.7072
419.50 0.7076
419.60 0.708
419.70 0.7085
419.80 0.7089
419.90 0.7093
420.00 0.7098
420.10 0.7102
420.20 0.7106
420.30 0.711
420.40 0.7115
420.50 0.7119
420.60 0.7123
420.70 0.7128
420.80 0.7132
420.90 0.7136
421.00 0.714
421.10 0.7145
421.20 0.7149
421.30 0.7153
421.40 0.7158
421.50 0.7162
421.60 0.7166
421.70 0.717
421.80 0.7175
421.90 0.7179
422.00 0.7183
422.10 0.7188
422.20 0.7192
422.30 0.7196
422.40 0.72
422.50 0.7205
422.60 0.7209
422.70 0.7213
422.80 0.7217
422.90 0.7222
423.00 0.7226
423.10 0.723
423.20 0.7234
423.30 0.7239
423.40 0.7243
423.50 0.7247
423.60 0.7251
423.70 0.7256
423.80 0.726
423.90 0.7264
424.00 0.7268
424.10 0.7273
424.20 0.7277
424.30 0.7281
424.40 0.7285
424.50 0.729
424.60 0.7294
424.70 0.7298
424.80 0.7302
424.90 0.7307
425.00 0.7311
425.10 0.7315
425.20 0.7319
425.30 0.7324
425.40 0.7328
425.50 0.7332
425.60 0.7336
425.70 0.734
425.80 0.7345
425.90 0.7349
426.00 0.7353
426.10 0.7357
426.20 0.7362
426.30 0.7366
426.40 0.737
426.50 0.7374
426.60 0.7378
426.70 0.7383
426.80 0.7387
426.90 0.7391
427.00 0.7395
427.10 0.7399
427.20 0.7404
427.30 0.7408
427.40 0.7412
427.50 0.7416
427.60 0.742
427.70 0.7425
427.80 0.7429
427.90 0.7433
428.00 0.7437
428.10 0.7441
428.20 0.7446
428.30 0.745
428.40 0.7454
428.50 0.7458
428.60 0.7462
428.70 0.7467
428.80 0.7471
428.90 0.7475
429.00 0.7479
429.10 0.7483
429.20 0.7487
429.30 0.7492
429.40 0.7496
429.50 0.75
429.60 0.7504
429.70 0.7508
429.80 0.7512
429.90 0.7517
430.00 0.7521
430.10 0.7525
430.20 0.7529
430.30 0.7533
430.40 0.7537
430.50 0.7542
430.60 0.7546
430.70 0.755
430.80 0.7554
430.90 0.7558
431.00 0.7562
431.10 0.7566
431.20 0.7571
431.30 0.7575
431.40 0.7579
431.50 0.7583
431.60 0.7587
431.70 0.7591
431.80 0.7595
431.90 0.76
432.00 0.7604
432.10 0.7608
432.20 0.7612
432.30 0.7616
432.40 0.762
432.50 0.7624
432.60 0.7628
432.70 0.7633
432.80 0.7637
432.90 0.7641
433.00 0.7645
433.10 0.7649
433.20 0.7653
433.30 0.7657
433.40 0.7661
433.50 0.7665
433.60 0.7669
433.70 0.7673
433.80 0.7676
433.90 0.7679
434.00 0.7681
434.10 0.7685
434.20 0.7691
434.30 0.7696
434.40 0.7701
434.50 0.7706
434.60 0.771
434.70 0.7714
434.80 0.7719
434.90 0.7723
435.00 0.7727
435.10 0.7731
435.20 0.7735
435.30 0.7739
435.40 0.7743
435.50 0.7747
435.60 0.7751
435.70 0.7756
435.80 0.776
435.90 0.7764
436.00 0.7768
436.10 0.7772
436.20 0.7776
436.30 0.778
436.40 0.7784
436.50 0.7788
436.60 0.7792
436.70 0.7796
436.80 0.78
436.90 0.7804
437.00 0.7809
437.10 0.7813
437.20 0.7817
437.30 0.7821
437.40 0.7825
437.50 0.7829
437.60 0.7833
437.70 0.7837
437.80 0.7841
437.90 0.7845
438.00 0.7849
438.10 0.7853
438.20 0.7857
438.30 0.7861
438.40 0.7865
438.50 0.7869
438.60 0.7873
438.70 0.7877
438.80 0.7881
438.90 0.7885
439.00 0.7889
439.10 0.7893
439.20 0.7897
439.30 0.7901
439.40 0.7905
439.50 0.7909
439.60 0.7913
439.70 0.7918
439.80 0.7922
439.90 0.7926
440.00 0.793
440.10 0.7934
440.20 0.7938
440.30 0.7942
440.40 0.7946
440.50 0.795
440.60 0.7954
440.70 0.7958
440.80 0.7962
440.90 0.7966
441.00 0.797
441.10 0.7974
441.20 0.7978
441.30 0.7982
441.40 0.7985
441.50 0.7989
441.60 0.7993
441.70 0.7998
441.80 0.8002
441.90 0.8005
442.00 0.8009
442.10 0.8013
442.20 0.8017
442.30 0.8021
442.40 0.8025
442.50 0.8029
442.60 0.8033
442.70 0.8037
442.80 0.8041
442.90 0.8045
443.00 0.8049
443.10 0.8053
443.20 0.8057
443.30 0.8061
443.40 0.8065
443.50 0.8069
443.60 0.8073
443.70 0.8077
443.80 0.8081
443.90 0.8085
444.00 0.8089
444.10 0.8093
444.20 0.8097
444.30 0.81
444.40 0.8104
444.50 0.8108
444.60 0.8112
444.70 0.8116
444.80 0.812
444.90 0.8124
445.00 0.8128
445.10 0.8132
445.20 0.8136
445.30 0.814
445.40 0.8144
445.50 0.8148
445.60 0.8152
445.70 0.8155
445.80 0.8159
445.90 0.8163
446.00 0.8167
446.10 0.8171
446.20 0.8175
446.30 0.8179
446.40 0.8183
446.50 0.8187
446.60 0.8191
446.70 0.8194
446.80 0.8198
446.90 0.8202
447.00 0.8206
447.10 0.821
447.20 0.8214
447.30 0.8218
447.40 0.8222
447.50 0.8226
447.60 0.8229
447.70 0.8233
447.80 0.8237
447.90 0.8241
448.00 0.8245
448.10 0.8249
448.20 0.8253
448.30 0.8257
448.40 0.826
448.50 0.8264
448.60 0.8268
448.70 0.8272
448.80 0.8276
448.90 0.828
449.00 0.8284
449.10 0.8287
449.20 0.8291
449.30 0.8295
449.40 0.8299
449.50 0.8303
449.60 0.8307
449.70 0.8311
449.80 0.8314
449.90 0.8318
450.00 0.8322
450.10 0.8326
450.20 0.833
450.30 0.8334
450.40 0.8337
450.50 0.8341
450.60 0.8345
450.70 0.8349
450.80 0.8353
450.90 0.8357
451.00 0.836
451.10 0.8364
451.20 0.8368
451.30 0.8372
451.40 0.8376
451.50 0.8379
451.60 0.8383
451.70 0.8387
451.80 0.8391
451.90 0.8395
452.00 0.8399
452.10 0.8402
452.20 0.8406
452.30 0.841
452.40 0.8414
452.50 0.8418
452.60 0.8421
452.70 0.8425
452.80 0.8429
452.90 0.8433
453.00 0.8437
453.10 0.844
453.20 0.8444
453.30 0.8448
453.40 0.8452
453.50 0.8455
453.60 0.8459
453.70 0.8463
453.80 0.8467
453.90 0.8471
454.00 0.8474
454.10 0.8478
454.20 0.8482
454.30 0.8486
454.40 0.8489
454.50 0.8493
454.60 0.8497
454.70 0.8501
454.80 0.8504
454.90 0.8508
455.00 0.8512
455.10 0.8516
455.20 0.8519
455.30 0.8523
455.40 0.8527
455.50 0.8531
455.60 0.8534
455.70 0.8538
455.80 0.8542
455.90 0.8546
456.00 0.8549
456.10 0.8553
456.20 0.8557
456.30 0.856
456.40 0.8564
456.50 0.8568
456.60 0.8572
456.70 0.8575
456.80 0.8579
456.90 0.8583
457.00 0.8587
457.10 0.859
457.20 0.8594
457.30 0.8598
457.40 0.8601
457.50 0.8605
457.60 0.8609
457.70 0.8612
457.80 0.8616
457.90 0.862
458.00 0.8624
458.10 0.8627
458.20 0.8631
458.30 0.8635
458.40 0.8638
458.50 0.8642
458.60 0.8646
458.70 0.8649
458.80 0.8653
458.90 0.8657
459.00 0.866
459.10 0.8664
459.20 0.8668
459.30 0.8671
459.40 0.8675
459.50 0.8679
459.60 0.8682
459.70 0.8686
459.80 0.869
459.90 0.8693
460.00 0.8697
460.10 0.8701
460.20 0.8704
460.30 0.8708
460.40 0.8712
460.50 0.8715
460.60 0.8719
460.70 0.8723
460.80 0.8726
460.90 0.873
461.00 0.8733
461.10 0.8737
461.20 0.8741
461.30 0.8744
461.40 0.8748
461.50 0.8752
461.60 0.8755
461.70 0.8759
461.80 0.8763
461.90 0.8766
462.00 0.877
462.10 0.8773
462.20 0.8777
462.30 0.8781
462.40 0.8784
462.50 0.8788
462.60 0.8791
462.70 0.8795
462.80 0.8799
462.90 0.8802
463.00 0.8806
463.10 0.8809
463.20 0.8813
463.30 0.8817
463.40 0.882
463.50 0.8824
463.60 0.8827
463.70 0.8831
463.80 0.8835
463.90 0.8838
464.00 0.8842
464.10 0.8845
464.20 0.8849
464.30 0.8853
464.40 0.8856
464.50 0.886
464.60 0.8863
464.70 0.8867
464.80 0.887
464.90 0.8874
465.00 0.8877
465.10 0.8881
465.20 0.8885
465.30 0.8888
465.40 0.8892
465.50 0.8895
465.60 0.8899
465.70 0.8902
465.80 0.8906
465.90 0.8909
466.00 0.8913
466.10 0.8916
466.20 0.892
466.30 0.8924
466.40 0.8927
466.50 0.8931
466.60 0.8934
466.70 0.8938
466.80 0.8941
466.90 0.8945
467.00 0.8948
467.10 0.8952
467.20 0.8955
467.30 0.8959
467.40 0.8962
467.50 0.8966
467.60 0.8969
467.70 0.8973
467.80 0.8976
467.90 0.898
468.00 0.8983
468.10 0.8987
468.20 0.899
468.30 0.8994
468.40 0.8997
468.50 0.9001
468.60 0.9004
468.70 0.9008
468.80 0.9011
468.90 0.9015
469.00 0.9018
469.10 0.9022
469.20 0.9025
469.30 0.9029
469.40 0.9032
469.50 0.9036
469.60 0.9039
469.70 0.9043
469.80 0.9046
469.90 0.905
470.00 0.9053
470.10 0.9056
470.20 0.906
470.30 0.9063
470.40 0.9067
470.50 0.907
470.60 0.9074
470.70 0.9077
470.80 0.9081
470.90 0.9084
471.00 0.9088
471.10 0.9091
471.20 0.9094
471.30 0.9098
471.40 0.9101
471.50 0.9105
471.60 0.9108
471.70 0.9112
471.80 0.9115
471.90 0.9118
472.00 0.9122
472.10 0.9125
472.20 0.9129
472.30 0.9132
472.40 0.9136
472.50 0.9139
472.60 0.9142
472.70 0.9146
472.80 0.9149
472.90 0.9153
473.00 0.9156
473.10 0.9159
473.20 0.9163
473.30 0.9166
473.40 0.917
473.50 0.9173
473.60 0.9176
473.70 0.918
473.80 0.9183
473.90 0.9187
474.00 0.919
474.10 0.9193
474.20 0.9197
474.30 0.92
474.40 0.9203
474.50 0.9207
474.60 0.921
474.70 0.9214
474.80 0.9217
474.90 0.922
475.00 0.9224
475.10 0.9227
475.20 0.923
475.30 0.9234
475.40 0.9237
475.50 0.924
475.60 0.9244
475.70 0.9247
475.80 0.9251
475.90 0.9254
476.00 0.9257
476.10 0.9261
476.20 0.9264
476.30 0.9267
476.40 0.9271
476.50 0.9274
476.60 0.9277
476.70 0.9281
476.80 0.9284
476.90 0.9287
477.00 0.929
477.10 0.9294
477.20 0.9297
477.30 0.93
477.40 0.9304
477.50 0.9307
477.60 0.931
477.70 0.9314
477.80 0.9317
477.90 0.932
478.00 0.9324
478.10 0.9327
478.20 0.933
478.30 0.9334
478.40 0.9337
478.50 0.934
478.60 0.9343
478.70 0.9347
478.80 0.935
478.90 0.9353
479.00 0.9357
479.10 0.936
479.20 0.9363
479.30 0.9366
479.40 0.937
479.50 0.9373
479.60 0.9376
479.70 0.9379
479.80 0.9383
479.90 0.9386
480.00 0.9389
480.10 0.9392
480.20 0.9396
480.30 0.9399
480.40 0.9402
480.50 0.9405
480.60 0.9409
480.70 0.9412
480.80 0.9415
480.90 0.9418
481.00 0.9422
481.10 0.9425
481.20 0.9428
481.30 0.9431
481.40 0.9435
481.50 0.9438
481.60 0.9441
481.70 0.9444
481.80 0.9448
481.90 0.9451
482.00 0.9454
482.10 0.9457
482.20 0.946
482.30 0.9464
482.40 0.9467
482.50 0.947
482.60 0.9473
482.70 0.9477
482.80 0.948
482.90 0.9483
483.00 0.9486
483.10 0.9489
483.20 0.9492
483.30 0.9496
483.40 0.9499
483.50 0.9502
483.60 0.9505
483.70 0.9508
483.80 0.9512
483.90 0.9515
484.00 0.9518
484.10 0.9521
484.20 0.9524
484.30 0.9527
484.40 0.9531
484.50 0.9534
484.60 0.9537
484.70 0.954
484.80 0.9543
484.90 0.9546
485.00 0.9549
485.10 0.9552
485.20 0.9555
485.30 0.9558
485.40 0.9561
485.50 0.9564
485.60 0.9566
485.70 0.9569
485.80 0.957
485.90 0.957
486.00 0.9568
486.10 0.9561
486.20 0.9568
486.30 0.958
486.40 0.9587
486.50 0.9593
486.60 0.9597
486.70 0.9601
486.80 0.9605
486.90 0.9608
487.00 0.9612
487.10 0.9615
487.20 0.9618
487.30 0.9621
487.40 0.9625
487.50 0.9628
487.60 0.9631
487.70 0.9634
487.80 0.9637
487.90 0.964
488.00 0.9643
488.10 0.9646
488.20 0.965
488.30 0.9653
488.40 0.9656
488.50 0.9659
488.60 0.9662
488.70 0.9665
488.80 0.9668
488.90 0.9671
489.00 0.9674
489.10 0.9677
489.20 0.9681
489.30 0.9684
489.40 0.9687
489.50 0.969
489.60 0.9693
489.70 0.9696
489.80 0.9699
489.90 0.9702
490.00 0.9705
490.10 0.9708
490.20 0.9711
490.30 0.9714
490.40 0.9717
490.50 0.972
490.60 0.9723
490.70 0.9726
490.80 0.9729
490.90 0.9732
491.00 0.9735
491.10 0.9738
491.20 0.9742
491.30 0.9745
491.40 0.9748
491.50 0.9751
491.60 0.9754
491.70 0.9757
491.80 0.976
491.90 0.9763
492.00 0.9766
492.10 0.9769
492.20 0.9772
492.30 0.9775
492.40 0.9778
492.50 0.9781
492.60 0.9784
492.70 0.9787
492.80 0.979
492.90 0.9793
493.00 0.9796
493.10 0.9799
493.20 0.9802
493.30 0.9805
493.40 0.9808
493.50 0.9811
493.60 0.9814
493.70 0.9817
493.80 0.982
493.90 0.9823
494.00 0.9826
494.10 0.9829
494.20 0.9831
494.30 0.9834
494.40 0.9837
494.50 0.984
494.60 0.9843
494.70 0.9846
494.80 0.9849
494.90 0.9852
495.00 0.9855
495.10 0.9858
495.20 0.9861
495.30 0.9864
495.40 0.9867
495.50 0.987
495.60 0.9873
495.70 0.9876
495.80 0.9879
495.90 0.9882
496.00 0.9885
496.10 0.9888
496.20 0.989
496.30 0.9893
496.40 0.9896
496.50 0.9899
496.60 0.9902
496.70 0.9905
496.80 0.9908
496.90 0.9911
497.00 0.9914
497.10 0.9917
497.20 0.9919
497.30 0.9922
497.40 0.9925
497.50 0.9928
497.60 0.9931
497.70 0.9934
497.80 0.9937
497.90 0.994
498.00 0.9943
498.10 0.9946
498.20 0.9948
498.30 0.9951
498.40 0.9954
498.50 0.9957
498.60 0.996
498.70 0.9963
498.80 0.9966
498.90 0.9969
499.00 0.9971
499.10 0.9974
499.20 0.9977
499.30 0.998
499.40 0.9983
499.50 0.9986
499.60 0.9989
499.70 0.9991
499.80 0.9994
499.90 0.9997
500.00 1
500.10 1
500.20 1.001
500.30 1.001
500.40 1.001
500.50 1.001
500.60 1.002
500.70 1.002
500.80 1.002
500.90 1.003
501.00 1.003
501.10 1.003
501.20 1.003
501.30 1.004
501.40 1.004
501.50 1.004
501.60 1.005
501.70 1.005
501.80 1.005
501.90 1.005
502.00 1.006
502.10 1.006
502.20 1.006
502.30 1.006
502.40 1.007
502.50 1.007
502.60 1.007
502.70 1.008
502.80 1.008
502.90 1.008
503.00 1.008
503.10 1.009
503.20 1.009
503.30 1.009
503.40 1.01
503.50 1.01
503.60 1.01
503.70 1.01
503.80 1.011
503.90 1.011
504.00 1.011
504.10 1.011
504.20 1.012
504.30 1.012
504.40 1.012
504.50 1.013
504.60 1.013
504.70 1.013
504.80 1.013
504.90 1.014
505.00 1.014
505.10 1.014
505.20 1.014
505.30 1.015
505.40 1.015
505.50 1.015
505.60 1.016
505.70 1.016
505.80 1.016
505.90 1.016
506.00 1.017
506.10 1.017
506.20 1.017
506.30 1.017
506.40 1.018
506.50 1.018
506.60 1.018
506.70 1.019
506.80 1.019
506.90 1.019
507.00 1.019
507.10 1.02
507.20 1.02
507.30 1.02
507.40 1.02
507.50 1.021
507.60 1.021
507.70 1.021
507.80 1.022
507.90 1.022
508.00 1.022
508.10 1.022
508.20 1.023
508.30 1.023
508.40 1.023
508.50 1.023
508.60 1.024
508.70 1.024
508.80 1.024
508.90 1.024
509.00 1.025
509.10 1.025
509.20 1.025
509.30 1.026
509.40 1.026
509.50 1.026
509.60 1.026
509.70 1.027
509.80 1.027
509.90 1.027
510.00 1.027
510.10 1.028
510.20 1.028
510.30 1.028
510.40 1.028
510.50 1.029
510.60 1.029
510.70 1.029
510.80 1.03
510.90 1.03
511.00 1.03
511.10 1.03
511.20 1.031
511.30 1.031
511.40 1.031
511.50 1.031
511.60 1.032
511.70 1.032
511.80 1.032
511.90 1.032
512.00 1.033
512.10 1.033
512.20 1.033
512.30 1.033
512.40 1.034
512.50 1.034
512.60 1.034
512.70 1.034
512.80 1.035
512.90 1.035
513.00 1.035
513.10 1.035
513.20 1.036
513.30 1.036
513.40 1.036
513.50 1.036
513.60 1.037
513.70 1.037
513.80 1.037
513.90 1.037
514.00 1.038
514.10 1.038
514.20 1.038
514.30 1.038
514.40 1.039
514.50 1.039
514.60 1.039
514.70 1.04
514.80 1.04
514.90 1.04
515.00 1.04
515.10 1.041
515.20 1.041
515.30 1.041
515.40 1.041
515.50 1.042
515.60 1.042
515.70 1.042
515.80 1.042
515.90 1.043
516.00 1.043
516.10 1.043
516.20 1.043
516.30 1.044
516.40 1.044
516.50 1.044
516.60 1.044
516.70 1.045
516.80 1.045
516.90 1.045
517.00 1.045
517.10 1.046
517.20 1.046
517.30 1.046
517.40 1.046
517.50 1.047
517.60 1.047
517.70 1.047
517.80 1.047
517.90 1.047
518.00 1.048
518.10 1.048
518.20 1.048
518.30 1.048
518.40 1.049
518.50 1.049
518.60 1.049
518.70 1.049
518.80 1.05
518.90 1.05
519.00 1.05
519.10 1.05
519.20 1.051
519.30 1.051
519.40 1.051
519.50 1.051
519.60 1.052
519.70 1.052
519.80 1.052
519.90 1.052
520.00 1.053
520.10 1.053
520.20 1.053
520.30 1.053
520.40 1.054
520.50 1.054
520.60 1.054
520.70 1.054
520.80 1.055
520.90 1.055
521.00 1.055
521.10 1.055
521.20 1.056
521.30 1.056
521.40 1.056
521.50 1.056
521.60 1.057
521.70 1.057
521.80 1.057
521.90 1.057
522.00 1.057
522.10 1.058
522.20 1.058
522.30 1.058
522.40 1.058
522.50 1.059
522.60 1.059
522.70 1.059
522.80 1.059
522.90 1.06
523.00 1.06
523.10 1.06
523.20 1.06
523.30 1.06
523.40 1.061
523.50 1.061
523.60 1.061
523.70 1.061
523.80 1.062
523.90 1.062
524.00 1.062
524.10 1.062
524.20 1.063
524.30 1.063
524.40 1.063
524.50 1.063
524.60 1.064
524.70 1.064
524.80 1.064
524.90 1.064
525.00 1.064
525.10 1.065
525.20 1.065
525.30 1.065
525.40 1.065
525.50 1.066
525.60 1.066
525.70 1.066
525.80 1.066
525.90 1.067
526.00 1.067
526.10 1.067
526.20 1.067
526.30 1.067
526.40 1.068
526.50 1.068
526.60 1.068
526.70 1.068
526.80 1.069
526.90 1.069
527.00 1.069
527.10 1.069
527.20 1.07
527.30 1.07
527.40 1.07
527.50 1.07
527.60 1.07
527.70 1.071
527.80 1.071
527.90 1.071
528.00 1.071
528.10 1.072
528.20 1.072
528.30 1.072
528.40 1.072
528.50 1.072
528.60 1.073
528.70 1.073
528.80 1.073
528.90 1.073
529.00 1.074
529.10 1.074
529.20 1.074
529.30 1.074
529.40 1.075
529.50 1.075
529.60 1.075
529.70 1.075
529.80 1.075
529.90 1.076
530.00 1.076
530.10 1.076
530.20 1.076
530.30 1.076
530.40 1.077
530.50 1.077
530.60 1.077
530.70 1.077
530.80 1.078
530.90 1.078
531.00 1.078
531.10 1.078
531.20 1.078
531.30 1.079
531.40 1.079
531.50 1.079
531.60 1.079
531.70 1.08
531.80 1.08
531.90 1.08
532.00 1.08
532.10 1.08
532.20 1.081
532.30 1.081
532.40 1.081
532.50 1.081
532.60 1.081
532.70 1.082
532.80 1.082
532.90 1.082
533.00 1.082
533.10 1.083
533.20 1.083
533.30 1.083
533.40 1.083
533.50 1.083
533.60 1.084
533.70 1.084
533.80 1.084
533.90 1.084
534.00 1.084
534.10 1.085
534.20 1.085
534.30 1.085
534.40 1.085
534.50 1.086
534.60 1.086
534.70 1.086
534.80 1.086
534.90 1.086
535.00 1.087
535.10 1.087
535.20 1.087
535.30 1.087
535.40 1.087
535.50 1.088
535.60 1.088
535.70 1.088
535.80 1.088
535.90 1.088
536.00 1.089
536.10 1.089
536.20 1.089
536.30 1.089
536.40 1.09
536.50 1.09
536.60 1.09
536.70 1.09
536.80 1.09
536.90 1.091
537.00 1.091
537.10 1.091
537.20 1.091
537.30 1.091
537.40 1.092
537.50 1.092
537.60 1.092
537.70 1.092
537.80 1.092
537.90 1.093
538.00 1.093
538.10 1.093
538.20 1.093
538.30 1.093
538.40 1.094
538.50 1.094
538.60 1.094
538.70 1.094
538.80 1.094
538.90 1.095
539.00 1.095
539.10 1.095
539.20 1.095
539.30 1.095
539.40 1.096
539.50 1.096
539.60 1.096
539.70 1.096
539.80 1.096
539.90 1.097
540.00 1.097
540.10 1.097
540.20 1.097
540.30 1.097
540.40 1.098
540.50 1.098
540.60 1.098
540.70 1.098
540.80 1.098
540.90 1.099
541.00 1.099
541.10 1.099
541.20 1.099
541.30 1.099
541.40 1.1
541.50 1.1
541.60 1.1
541.70 1.1
541.80 1.1
541.90 1.101
542.00 1.101
542.10 1.101
542.20 1.101
542.30 1.101
542.40 1.102
542.50 1.102
542.60 1.102
542.70 1.102
542.80 1.102
542.90 1.103
543.00 1.103
543.10 1.103
543.20 1.103
543.30 1.103
543.40 1.104
543.50 1.104
543.60 1.104
543.70 1.104
543.80 1.104
543.90 1.105
544.00 1.105
544.10 1.105
544.20 1.105
544.30 1.105
544.40 1.106
544.50 1.106
544.60 1.106
544.70 1.106
544.80 1.106
544.90 1.106
545.00 1.107
545.10 1.107
545.20 1.107
545.30 1.107
545.40 1.107
545.50 1.108
545.60 1.108
545.70 1.108
545.80 1.108
545.90 1.108
546.00 1.108
546.10 1.109
546.20 1.109
546.30 1.109
546.40 1.109
546.50 1.109
546.60 1.11
546.70 1.11
546.80 1.11
546.90 1.11
547.00 1.11
547.10 1.111
547.20 1.111
547.30 1.111
547.40 1.111
547.50 1.111
547.60 1.112
547.70 1.112
547.80 1.112
547.90 1.112
548.00 1.112
548.10 1.112
548.20 1.113
548.30 1.113
548.40 1.113
548.50 1.113
548.60 1.113
548.70 1.114
548.80 1.114
548.90 1.114
549.00 1.114
549.10 1.114
549.20 1.114
549.30 1.115
549.40 1.115
549.50 1.115
549.60 1.115
549.70 1.115
549.80 1.116
549.90 1.116
550.00 1.116
550.10 1.116
550.20 1.116
550.30 1.116
550.40 1.117
550.50 1.117
550.60 1.117
550.70 1.117
550.80 1.117
550.90 1.118
551.00 1.118
551.10 1.118
551.20 1.118
551.30 1.118
551.40 1.118
551.50 1.119
551.60 1.119
551.70 1.119
551.80 1.119
551.90 1.119
552.00 1.119
552.10 1.12
552.20 1.12
552.30 1.12
552.40 1.12
552.50 1.12
552.60 1.121
552.70 1.121
552.80 1.121
552.90 1.121
553.00 1.121
553.10 1.121
553.20 1.122
553.30 1.122
553.40 1.122
553.50 1.122
553.60 1.122
553.70 1.122
553.80 1.123
553.90 1.123
554.00 1.123
554.10 1.123
554.20 1.123
554.30 1.123
554.40 1.124
554.50 1.124
554.60 1.124
554.70 1.124
554.80 1.124
554.90 1.124
555.00 1.125
555.10 1.125
555.20 1.125
555.30 1.125
555.40 1.125
555.50 1.125
555.60 1.126
555.70 1.126
555.80 1.126
555.90 1.126
556.00 1.126
556.10 1.126
556.20 1.127
556.30 1.127
556.40 1.127
556.50 1.127
556.60 1.127
556.70 1.128
556.80 1.128
556.90 1.128
557.00 1.128
557.10 1.128
557.20 1.128
557.30 1.129
557.40 1.129
557.50 1.129
557.60 1.129
557.70 1.129
557.80 1.129
557.90 1.129
558.00 1.13
558.10 1.13
558.20 1.13
558.30 1.13
558.40 1.13
558.50 1.13
558.60 1.131
558.70 1.131
558.80 1.131
558.90 1.131
559.00 1.131
559.10 1.131
559.20 1.132
559.30 1.132
559.40 1.132
559.50 1.132
559.60 1.132
559.70 1.132
559.80 1.133
559.90 1.133
560.00 1.133
560.10 1.133
560.20 1.133
560.30 1.133
560.40 1.134
560.50 1.134
560.60 1.134
560.70 1.134
560.80 1.134
560.90 1.134
561.00 1.135
561.10 1.135
561.20 1.135
561.30 1.135
561.40 1.135
561.50 1.135
561.60 1.135
561.70 1.136
561.80 1.136
561.90 1.136
562.00 1.136
562.10 1.136
562.20 1.136
562.30 1.137
562.40 1.137
562.50 1.137
562.60 1.137
562.70 1.137
562.80 1.137
562.90 1.137
563.00 1.138
563.10 1.138
563.20 1.138
563.30 1.138
563.40 1.138
563.50 1.138
563.60 1.139
563.70 1.139
563.80 1.139
563.90 1.139
564.00 1.139
564.10 1.139
564.20 1.139
564.30 1.14
564.40 1.14
564.50 1.14
564.60 1.14
564.70 1.14
564.80 1.14
564.90 1.141
565.00 1.141
565.10 1.141
565.20 1.141
565.30 1.141
565.40 1.141
565.50 1.141
565.60 1.142
565.70 1.142
565.80 1.142
565.90 1.142
566.00 1.142
566.10 1.142
566.20 1.142
566.30 1.143
566.40 1.143
566.50 1.143
566.60 1.143
566.70 1.143
566.80 1.143
566.90 1.144
567.00 1.144
567.10 1.144
567.20 1.144
567.30 1.144
567.40 1.144
567.50 1.144
567.60 1.145
567.70 1.145
567.80 1.145
567.90 1.145
568.00 1.145
568.10 1.145
568.20 1.145
568.30 1.146
568.40 1.146
568.50 1.146
568.60 1.146
568.70 1.146
568.80 1.146
568.90 1.146
569.00 1.147
569.10 1.147
569.20 1.147
569.30 1.147
569.40 1.147
569.50 1.147
569.60 1.147
569.70 1.148
569.80 1.148
569.90 1.148
570.00 1.148
570.10 1.148
570.20 1.148
570.30 1.148
570.40 1.149
570.50 1.149
570.60 1.149
570.70 1.149
570.80 1.149
570.90 1.149
571.00 1.149
571.10 1.149
571.20 1.15
571.30 1.15
571.40 1.15
571.50 1.15
571.60 1.15
571.70 1.15
571.80 1.15
571.90 1.151
572.00 1.151
572.10 1.151
572.20 1.151
572.30 1.151
572.40 1.151
572.50 1.151
572.60 1.152
572.70 1.152
572.80 1.152
572.90 1.152
573.00 1.152
573.10 1.152
573.20 1.152
573.30 1.153
573.40 1.153
573.50 1.153
573.60 1.153
573.70 1.153
573.80 1.153
573.90 1.153
574.00 1.153
574.10 1.154
574.20 1.154
574.30 1.154
574.40 1.154
574.50 1.154
574.60 1.154
574.70 1.154
574.80 1.155
574.90 1.155
575.00 1.155
575.10 1.155
575.20 1.155
575.30 1.155
575.40 1.155
575.50 1.155
575.60 1.156
575.70 1.156
575.80 1.156
575.90 1.156
576.00 1.156
576.10 1.156
576.20 1.156
576.30 1.156
576.40 1.157
576.50 1.157
576.60 1.157
576.70 1.157
576.80 1.157
576.90 1.157
577.00 1.157
577.10 1.157
577.20 1.158
577.30 1.158
577.40 1.158
577.50 1.158
577.60 1.158
577.70 1.158
577.80 1.158
577.90 1.159
578.00 1.159
578.10 1.159
578.20 1.159
578.30 1.159
578.40 1.159
578.50 1.159
578.60 1.159
578.70 1.16
578.80 1.16
578.90 1.16
579.00 1.16
579.10 1.16
579.20 1.16
579.30 1.16
579.40 1.16
579.50 1.161
579.60 1.161
579.70 1.161
579.80 1.161
579.90 1.161
580.00 1.161
580.10 1.161
580.20 1.161
580.30 1.161
580.40 1.162
580.50 1.162
580.60 1.162
580.70 1.162
580.80 1.162
580.90 1.162
581.00 1.162
581.10 1.162
581.20 1.163
581.30 1.163
581.40 1.163
581.50 1.163
581.60 1.163
581.70 1.163
581.80 1.163
581.90 1.163
582.00 1.164
582.10 1.164
582.20 1.164
582.30 1.164
582.40 1.164
582.50 1.164
582.60 1.164
582.70 1.164
582.80 1.164
582.90 1.165
583.00 1.165
583.10 1.165
583.20 1.165
583.30 1.165
583.40 1.165
583.50 1.165
583.60 1.165
583.70 1.166
583.80 1.166
583.90 1.166
584.00 1.166
584.10 1.166
584.20 1.166
584.30 1.166
584.40 1.166
584.50 1.166
584.60 1.167
584.70 1.167
584.80 1.167
584.90 1.167
585.00 1.167
585.10 1.167
585.20 1.167
585.30 1.167
585.40 1.168
585.50 1.168
585.60 1.168
585.70 1.168
585.80 1.168
585.90 1.168
586.00 1.168
586.10 1.168
586.20 1.168
586.30 1.168
586.40 1.169
586.50 1.169
586.60 1.169
586.70 1.169
586.80 1.169
586.90 1.169
587.00 1.169
587.10 1.169
587.20 1.169
587.30 1.17
587.40 1.17
587.50 1.17
587.60 1.17
587.70 1.17
587.80 1.17
587.90 1.17
588.00 1.17
588.10 1.171
588.20 1.171
588.30 1.171
588.40 1.171
588.50 1.171
588.60 1.171
588.70 1.171
588.80 1.171
588.90 1.171
589.00 1.171
589.10 1.172
589.20 1.172
589.30 1.172
589.40 1.172
589.50 1.172
589.60 1.172
589.70 1.172
589.80 1.172
589.90 1.172
590.00 1.173
590.10 1.173
590.20 1.173
590.30 1.173
590.40 1.173
590.50 1.173
590.60 1.173
590.70 1.173
590.80 1.173
590.90 1.173
591.00 1.174
591.10 1.174
591.20 1.174
591.30 1.174
591.40 1.174
591.50 1.174
591.60 1.174
591.70 1.174
591.80 1.174
591.90 1.174
592.00 1.175
592.10 1.175
592.20 1.175
592.30 1.175
592.40 1.175
592.50 1.175
592.60 1.175
592.70 1.175
592.80 1.175
592.90 1.175
593.00 1.176
593.10 1.176
593.20 1.176
593.30 1.176
593.40 1.176
593.50 1.176
593.60 1.176
593.70 1.176
593.80 1.176
593.90 1.176
594.00 1.177
594.10 1.177
594.20 1.177
594.30 1.177
594.40 1.177
594.50 1.177
594.60 1.177
594.70 1.177
594.80 1.177
594.90 1.177
595.00 1.177
595.10 1.178
595.20 1.178
595.30 1.178
595.40 1.178
595.50 1.178
595.60 1.178
595.70 1.178
595.80 1.178
595.90 1.178
596.00 1.178
596.10 1.179
596.20 1.179
596.30 1.179
596.40 1.179
596.50 1.179
596.60 1.179
596.70 1.179
596.80 1.179
596.90 1.179
597.00 1.179
597.10 1.179
597.20 1.18
597.30 1.18
597.40 1.18
597.50 1.18
597.60 1.18
597.70 1.18
597.80 1.18
597.90 1.18
598.00 1.18
598.10 1.18
598.20 1.18
598.30 1.181
598.40 1.181
598.50 1.181
598.60 1.181
598.70 1.181
598.80 1.181
598.90 1.181
599.00 1.181
599.10 1.181
599.20 1.181
599.30 1.181
599.40 1.182
599.50 1.182
599.60 1.182
599.70 1.182
599.80 1.182
599.90 1.182
600.00 1.182
600.10 1.182
600.20 1.182
600.30 1.182
600.40 1.182
600.50 1.183
600.60 1.183
600.70 1.183
600.80 1.183
600.90 1.183
601.00 1.183
601.10 1.183
601.20 1.183
601.30 1.183
601.40 1.183
601.50 1.183
601.60 1.183
601.70 1.184
601.80 1.184
601.90 1.184
602.00 1.184
602.10 1.184
602.20 1.184
602.30 1.184
602.40 1.184
602.50 1.184
602.60 1.184
602.70 1.184
602.80 1.184
602.90 1.185
603.00 1.185
603.10 1.185
603.20 1.185
603.30 1.185
603.40 1.185
603.50 1.185
603.60 1.185
603.70 1.185
603.80 1.185
603.90 1.185
604.00 1.185
604.10 1.186
604.20 1.186
604.30 1.186
604.40 1.186
604.50 1.186
604.60 1.186
604.70 1.186
604.80 1.186
604.90 1.186
605.00 1.186
605.10 1.186
605.20 1.186
605.30 1.186
605.40 1.187
605.50 1.187
605.60 1.187
605.70 1.187
605.80 1.187
605.90 1.187
606.00 1.187
606.10 1.187
606.20 1.187
606.30 1.187
606.40 1.187
606.50 1.187
606.60 1.187
606.70 1.188
606.80 1.188
606.90 1.188
607.00 1.188
607.10 1.188
607.20 1.188
607.30 1.188
607.40 1.188
607.50 1.188
607.60 1.188
607.70 1.188
607.80 1.188
607.90 1.188
608.00 1.189
608.10 1.189
608.20 1.189
608.30 1.189
608.40 1.189
608.50 1.189
608.60 1.189
608.70 1.189
608.80 1.189
608.90 1.189
609.00 1.189
609.10 1.189
609.20 1.189
609.30 1.189
609.40 1.19
609.50 1.19
609.60 1.19
609.70 1.19
609.80 1.19
609.90 1.19
610.00 1.19
610.10 1.19
610.20 1.19
610.30 1.19
610.40 1.19
610.50 1.19
610.60 1.19
610.70 1.19
610.80 1.191
610.90 1.191
611.00 1.191
611.10 1.191
611.20 1.191
611.30 1.191
611.40 1.191
611.50 1.191
611.60 1.191
611.70 1.191
611.80 1.191
611.90 1.191
612.00 1.191
612.10 1.191
612.20 1.191
612.30 1.192
612.40 1.192
612.50 1.192
612.60 1.192
612.70 1.192
612.80 1.192
612.90 1.192
613.00 1.192
613.10 1.192
613.20 1.192
613.30 1.192
613.40 1.192
613.50 1.192
613.60 1.192
613.70 1.192
613.80 1.193
613.90 1.193
614.00 1.193
614.10 1.193
614.20 1.193
614.30 1.193
614.40 1.193
614.50 1.193
614.60 1.193
614.70 1.193
614.80 1.193
614.90 1.193
615.00 1.193
615.10 1.193
615.20 1.193
615.30 1.194
615.40 1.194
615.50 1.194
615.60 1.194
615.70 1.194
615.80 1.194
615.90 1.194
616.00 1.194
616.10 1.194
616.20 1.194
616.30 1.194
616.40 1.194
616.50 1.194
616.60 1.194
616.70 1.194
616.80 1.194
616.90 1.195
617.00 1.195
617.10 1.195
617.20 1.195
617.30 1.195
617.40 1.195
617.50 1.195
617.60 1.195
617.70 1.195
617.80 1.195
617.90 1.195
618.00 1.195
618.10 1.195
618.20 1.195
618.30 1.195
618.40 1.195
618.50 1.195
618.60 1.195
618.70 1.196
618.80 1.196
618.90 1.196
619.00 1.196
619.10 1.196
619.20 1.196
619.30 1.196
619.40 1.196
619.50 1.196
619.60 1.196
619.70 1.196
619.80 1.196
619.90 1.196
620.00 1.196
620.10 1.196
620.20 1.196
620.30 1.196
620.40 1.196
620.50 1.197
620.60 1.197
620.70 1.197
620.80 1.197
620.90 1.197
621.00 1.197
621.10 1.197
621.20 1.197
621.30 1.197
621.40 1.197
621.50 1.197
621.60 1.197
621.70 1.197
621.80 1.197
621.90 1.197
622.00 1.197
622.10 1.197
622.20 1.197
622.30 1.198
622.40 1.198
622.50 1.198
622.60 1.198
622.70 1.198
622.80 1.198
622.90 1.198
623.00 1.198
623.10 1.198
623.20 1.198
623.30 1.198
623.40 1.198
623.50 1.198
623.60 1.198
623.70 1.198
623.80 1.198
623.90 1.198
624.00 1.198
624.10 1.198
624.20 1.198
624.30 1.199
624.40 1.199
624.50 1.199
624.60 1.199
624.70 1.199
624.80 1.199
624.90 1.199
625.00 1.199
625.10 1.199
625.20 1.199
625.30 1.199
625.40 1.199
625.50 1.199
625.60 1.199
625.70 1.199
625.80 1.199
625.90 1.199
626.00 1.199
626.10 1.199
626.20 1.199
626.30 1.199
626.40 1.2
626.50 1.2
626.60 1.2
626.70 1.2
626.80 1.2
626.90 1.2
627.00 1.2
627.10 1.2
627.20 1.2
627.30 1.2
627.40 1.2
627.50 1.2
627.60 1.2
627.70 1.2
627.80 1.2
627.90 1.2
628.00 1.2
628.10 1.2
628.20 1.2
628.30 1.2
628.40 1.2
628.50 1.2
628.60 1.2
628.70 1.2
628.80 1.201
628.90 1.201
629.00 1.201
629.10 1.201
629.20 1.201
629.30 1.201
629.40 1.201
629.50 1.201
629.60 1.201
629.70 1.201
629.80 1.201
629.90 1.201
630.00 1.201
630.10 1.201
630.20 1.201
630.30 1.201
630.40 1.201
630.50 1.201
630.60 1.201
630.70 1.201
630.80 1.201
630.90 1.201
631.00 1.201
631.10 1.201
631.20 1.202
631.30 1.202
631.40 1.202
631.50 1.202
631.60 1.202
631.70 1.202
631.80 1.202
631.90 1.202
632.00 1.202
632.10 1.202
632.20 1.202
632.30 1.202
632.40 1.202
632.50 1.202
632.60 1.202
632.70 1.202
632.80 1.202
632.90 1.202
633.00 1.202
633.10 1.202
633.20 1.202
633.30 1.202
633.40 1.202
633.50 1.202
633.60 1.202
633.70 1.202
633.80 1.202
633.90 1.203
634.00 1.203
634.10 1.203
634.20 1.203
634.30 1.203
634.40 1.203
634.50 1.203
634.60 1.203
634.70 1.203
634.80 1.203
634.90 1.203
635.00 1.203
635.10 1.203
635.20 1.203
635.30 1.203
635.40 1.203
635.50 1.203
635.60 1.203
635.70 1.203
635.80 1.203
635.90 1.203
636.00 1.203
636.10 1.203
636.20 1.203
636.30 1.203
636.40 1.203
636.50 1.203
636.60 1.203
636.70 1.203
636.80 1.203
636.90 1.203
637.00 1.203
637.10 1.204
637.20 1.204
637.30 1.204
637.40 1.204
637.50 1.204
637.60 1.204
637.70 1.204
637.80 1.204
637.90 1.204
638.00 1.204
638.10 1.204
638.20 1.204
638.30 1.204
638.40 1.204
638.50 1.204
638.60 1.204
638.70 1.204
638.80 1.204
638.90 1.204
639.00 1.204
639.10 1.204
639.20 1.204
639.30 1.204
639.40 1.204
639.50 1.204
639.60 1.204
639.70 1.204
639.80 1.204
639.90 1.204
640.00 1.204
640.10 1.204
640.20 1.204
640.30 1.204
640.40 1.204
640.50 1.204
640.60 1.205
640.70 1.205
640.80 1.205
640.90 1.205
641.00 1.205
641.10 1.205
641.20 1.205
641.30 1.205
641.40 1.205
641.50 1.205
641.60 1.205
641.70 1.205
641.80 1.205
641.90 1.205
642.00 1.205
642.10 1.205
642.20 1.205
642.30 1.205
642.40 1.205
642.50 1.205
642.60 1.205
642.70 1.205
642.80 1.205
642.90 1.205
643.00 1.205
643.10 1.205
643.20 1.205
643.30 1.205
643.40 1.205
643.50 1.205
643.60 1.205
643.70 1.205
643.80 1.205
643.90 1.205
644.00 1.205
644.10 1.205
644.20 1.205
644.30 1.205
644.40 1.205
644.50 1.205
644.60 1.205
644.70 1.205
644.80 1.205
644.90 1.205
645.00 1.205
645.10 1.205
645.20 1.206
645.30 1.206
645.40 1.206
645.50 1.206
645.60 1.206
645.70 1.206
645.80 1.206
645.90 1.206
646.00 1.206
646.10 1.206
646.20 1.206
646.30 1.206
646.40 1.206
646.50 1.206
646.60 1.206
646.70 1.206
646.80 1.206
646.90 1.206
647.00 1.206
647.10 1.206
647.20 1.206
647.30 1.206
647.40 1.206
647.50 1.206
647.60 1.206
647.70 1.206
647.80 1.206
647.90 1.206
648.00 1.206
648.10 1.206
648.20 1.206
648.30 1.206
648.40 1.206
648.50 1.206
648.60 1.206
648.70 1.206
648.80 1.206
648.90 1.206
649.00 1.206
649.10 1.206
649.20 1.206
649.30 1.206
649.40 1.206
649.50 1.206
649.60 1.206
649.70 1.206
649.80 1.206
649.90 1.206
650.00 1.206
650.10 1.206
650.20 1.206
650.30 1.206
650.40 1.206
650.50 1.206
650.60 1.206
650.70 1.206
650.80 1.206
650.90 1.206
651.00 1.206
651.10 1.206
651.20 1.206
651.30 1.206
651.40 1.206
651.50 1.206
651.60 1.206
651.70 1.206
651.80 1.206
651.90 1.206
652.00 1.207
652.10 1.207
652.20 1.207
652.30 1.207
652.40 1.207
652.50 1.207
652.60 1.207
652.70 1.207
652.80 1.207
652.90 1.207
653.00 1.207
653.10 1.207
653.20 1.207
653.30 1.207
653.40 1.207
653.50 1.207
653.60 1.207
653.70 1.207
653.80 1.207
653.90 1.207
654.00 1.207
654.10 1.207
654.20 1.207
654.30 1.207
654.40 1.207
654.50 1.207
654.60 1.207
654.70 1.206
654.80 1.206
654.90 1.206
655.00 1.206
655.10 1.206
655.20 1.206
655.30 1.206
655.40 1.206
655.50 1.206
655.60 1.206
655.70 1.205
655.80 1.205
655.90 1.204
656.00 1.203
656.10 1.201
656.20 1.197
656.30 1.195
656.40 1.199
656.50 1.202
656.60 1.203
656.70 1.205
656.80 1.205
656.90 1.206
657.00 1.206
657.10 1.206
657.20 1.206
657.30 1.206
657.40 1.206
657.50 1.206
657.60 1.207
657.70 1.207
657.80 1.207
657.90 1.207
658.00 1.207
658.10 1.207
658.20 1.207
658.30 1.207
658.40 1.207
658.50 1.207
658.60 1.207
658.70 1.207
658.80 1.207
658.90 1.207
659.00 1.207
659.10 1.207
659.20 1.207
659.30 1.207
659.40 1.207
659.50 1.207
659.60 1.207
659.70 1.207
659.80 1.207
659.90 1.207
660.00 1.207
660.10 1.207
660.20 1.207
660.30 1.207
660.40 1.207
660.50 1.207
660.60 1.207
660.70 1.207
660.80 1.207
660.90 1.207
661.00 1.207
661.10 1.207
661.20 1.207
661.30 1.207
661.40 1.207
661.50 1.207
661.60 1.207
661.70 1.207
661.80 1.207
661.90 1.207
662.00 1.207
662.10 1.207
662.20 1.207
662.30 1.207
662.40 1.207
662.50 1.207
662.60 1.207
662.70 1.207
662.80 1.207
662.90 1.207
663.00 1.207
663.10 1.207
663.20 1.207
663.30 1.207
663.40 1.207
663.50 1.207
663.60 1.207
663.70 1.207
663.80 1.207
663.90 1.207
664.00 1.207
664.10 1.207
664.20 1.207
664.30 1.207
664.40 1.207
664.50 1.207
664.60 1.207
664.70 1.207
664.80 1.207
664.90 1.207
665.00 1.207
665.10 1.207
665.20 1.207
665.30 1.207
665.40 1.207
665.50 1.207
665.60 1.207
665.70 1.207
665.80 1.207
665.90 1.207
666.00 1.207
666.10 1.207
666.20 1.207
666.30 1.207
666.40 1.207
666.50 1.207
666.60 1.207
666.70 1.207
666.80 1.207
666.90 1.207
667.00 1.207
667.10 1.207
667.20 1.207
667.30 1.207
667.40 1.207
667.50 1.207
667.60 1.207
667.70 1.207
667.80 1.207
667.90 1.207
668.00 1.207
668.10 1.207
668.20 1.207
668.30 1.207
668.40 1.206
668.50 1.206
668.60 1.206
668.70 1.206
668.80 1.206
668.90 1.206
669.00 1.206
669.10 1.206
669.20 1.206
669.30 1.206
669.40 1.206
669.50 1.206
669.60 1.206
669.70 1.206
669.80 1.206
669.90 1.206
670.00 1.206
670.10 1.206
670.20 1.206
670.30 1.206
670.40 1.206
670.50 1.206
670.60 1.206
670.70 1.206
670.80 1.206
670.90 1.206
671.00 1.206
671.10 1.206
671.20 1.206
671.30 1.206
671.40 1.206
671.50 1.206
671.60 1.206
671.70 1.206
671.80 1.206
671.90 1.206
672.00 1.206
672.10 1.206
672.20 1.206
672.30 1.206
672.40 1.206
672.50 1.206
672.60 1.206
672.70 1.206
672.80 1.206
672.90 1.206
673.00 1.206
673.10 1.206
673.20 1.206
673.30 1.206
673.40 1.206
673.50 1.206
673.60 1.206
673.70 1.206
673.80 1.206
673.90 1.206
674.00 1.206
674.10 1.206
674.20 1.206
674.30 1.206
674.40 1.206
674.50 1.206
674.60 1.206
674.70 1.206
674.80 1.206
674.90 1.206
675.00 1.206
675.10 1.206
675.20 1.206
675.30 1.206
675.40 1.206
675.50 1.206
675.60 1.205
675.70 1.205
675.80 1.205
675.90 1.205
676.00 1.205
676.10 1.205
676.20 1.205
676.30 1.205
676.40 1.205
676.50 1.205
676.60 1.205
676.70 1.205
676.80 1.205
676.90 1.205
677.00 1.205
677.10 1.205
677.20 1.205
677.30 1.205
677.40 1.205
677.50 1.205
677.60 1.205
677.70 1.205
677.80 1.205
677.90 1.205
678.00 1.205
678.10 1.205
678.20 1.205
678.30 1.205
678.40 1.205
678.50 1.205
678.60 1.205
678.70 1.205
678.80 1.205
678.90 1.205
679.00 1.205
679.10 1.205
679.20 1.205
679.30 1.205
679.40 1.205
679.50 1.205
679.60 1.205
679.70 1.205
679.80 1.205
679.90 1.205
680.00 1.205
680.10 1.205
680.20 1.205
680.30 1.204
680.40 1.204
680.50 1.204
680.60 1.204
680.70 1.204
680.80 1.204
680.90 1.204
681.00 1.204
681.10 1.204
681.20 1.204
681.30 1.204
681.40 1.204
681.50 1.204
681.60 1.204
681.70 1.204
681.80 1.204
681.90 1.204
682.00 1.204
682.10 1.204
682.20 1.204
682.30 1.204
682.40 1.204
682.50 1.204
682.60 1.204
682.70 1.204
682.80 1.204
682.90 1.204
683.00 1.204
683.10 1.204
683.20 1.204
683.30 1.204
683.40 1.204
683.50 1.204
683.60 1.204
683.70 1.204
683.80 1.204
683.90 1.204
684.00 1.204
684.10 1.204
684.20 1.204
684.30 1.203
684.40 1.203
684.50 1.203
684.60 1.203
684.70 1.203
684.80 1.203
684.90 1.203
685.00 1.203
685.10 1.203
685.20 1.203
685.30 1.203
685.40 1.203
685.50 1.203
685.60 1.203
685.70 1.203
685.80 1.203
685.90 1.203
686.00 1.203
686.10 1.203
686.20 1.203
686.30 1.203
686.40 1.203
686.50 1.203
686.60 1.203
686.70 1.203
686.80 1.203
686.90 1.203
687.00 1.203
687.10 1.203
687.20 1.203
687.30 1.203
687.40 1.203
687.50 1.203
687.60 1.203
687.70 1.202
687.80 1.202
687.90 1.202
688.00 1.202
688.10 1.202
688.20 1.202
688.30 1.202
688.40 1.202
688.50 1.202
688.60 1.202
688.70 1.202
688.80 1.202
688.90 1.202
689.00 1.202
689.10 1.202
689.20 1.202
689.30 1.202
689.40 1.202
689.50 1.202
689.60 1.202
689.70 1.202
689.80 1.202
689.90 1.202
690.00 1.202
690.10 1.202
690.20 1.202
690.30 1.202
690.40 1.202
690.50 1.202
690.60 1.202
690.70 1.201
690.80 1.201
690.90 1.201
691.00 1.201
691.10 1.201
691.20 1.201
691.30 1.201
691.40 1.201
691.50 1.201
691.60 1.201
691.70 1.201
691.80 1.201
691.90 1.201
692.00 1.201
692.10 1.201
692.20 1.201
692.30 1.201
692.40 1.201
692.50 1.201
692.60 1.201
692.70 1.201
692.80 1.201
692.90 1.201
693.00 1.201
693.10 1.201
693.20 1.201
693.30 1.201
693.40 1.201
693.50 1.2
693.60 1.2
693.70 1.2
693.80 1.2
693.90 1.2
694.00 1.2
694.10 1.2
694.20 1.2
694.30 1.2
694.40 1.2
694.50 1.2
694.60 1.2
694.70 1.2
694.80 1.2
694.90 1.2
695.00 1.2
695.10 1.2
695.20 1.2
695.30 1.2
695.40 1.2
695.50 1.2
695.60 1.2
695.70 1.2
695.80 1.2
695.90 1.2
696.00 1.2
696.10 1.2
696.20 1.199
696.30 1.199
696.40 1.199
696.50 1.199
696.60 1.199
696.70 1.199
696.80 1.199
696.90 1.199
697.00 1.199
697.10 1.199
697.20 1.199
697.30 1.199
697.40 1.199
697.50 1.199
697.60 1.199
697.70 1.199
697.80 1.199
697.90 1.199
698.00 1.199
698.10 1.199
698.20 1.199
698.30 1.199
698.40 1.199
698.50 1.199
698.60 1.198
698.70 1.198
698.80 1.198
698.90 1.198
699.00 1.198
699.10 1.198
699.20 1.198
699.30 1.198
699.40 1.198
699.50 1.198
699.60 1.198
699.70 1.198
699.80 1.198
699.90 1.198
700.00 1.198
700.10 1.198
700.20 1.198
700.30 1.198
700.40 1.198
700.50 1.198
700.60 1.198
700.70 1.198
700.80 1.198
700.90 1.197
701.00 1.197
701.10 1.197
701.20 1.197
701.30 1.197
701.40 1.197
701.50 1.197
701.60 1.197
701.70 1.197
701.80 1.197
701.90 1.197
702.00 1.197
702.10 1.197
702.20 1.197
702.30 1.197
702.40 1.197
702.50 1.197
702.60 1.197
702.70 1.197
702.80 1.197
702.90 1.197
703.00 1.197
703.10 1.196
703.20 1.196
703.30 1.196
703.40 1.196
703.50 1.196
703.60 1.196
703.70 1.196
703.80 1.196
703.90 1.196
704.00 1.196
704.10 1.196
704.20 1.196
704.30 1.196
704.40 1.196
704.50 1.196
704.60 1.196
704.70 1.196
704.80 1.196
704.90 1.196
705.00 1.196
705.10 1.196
705.20 1.196
705.30 1.195
705.40 1.195
705.50 1.195
705.60 1.195
705.70 1.195
705.80 1.195
705.90 1.195
706.00 1.195
706.10 1.195
706.20 1.195
706.30 1.195
706.40 1.195
706.50 1.195
706.60 1.195
706.70 1.195
706.80 1.195
706.90 1.195
707.00 1.195
707.10 1.195
707.20 1.195
707.30 1.194
707.40 1.194
707.50 1.194
707.60 1.194
707.70 1.194
707.80 1.194
707.90 1.194
708.00 1.194
708.10 1.194
708.20 1.194
708.30 1.194
708.40 1.194
708.50 1.194
708.60 1.194
708.70 1.194
708.80 1.194
708.90 1.194
709.00 1.194
709.10 1.194
709.20 1.194
709.30 1.193
709.40 1.193
709.50 1.193
709.60 1.193
709.70 1.193
709.80 1.193
709.90 1.193
710.00 1.193
710.10 1.193
710.20 1.193
710.30 1.193
710.40 1.193
710.50 1.193
710.60 1.193
710.70 1.193
710.80 1.193
710.90 1.193
711.00 1.193
711.10 1.193
711.20 1.192
711.30 1.192
711.40 1.192
711.50 1.192
711.60 1.192
711.70 1.192
711.80 1.192
711.90 1.192
712.00 1.192
712.10 1.192
712.20 1.192
712.30 1.192
712.40 1.192
712.50 1.192
712.60 1.192
712.70 1.192
712.80 1.192
712.90 1.192
713.00 1.191
713.10 1.191
713.20 1.191
713.30 1.191
713.40 1.191
713.50 1.191
713.60 1.191
713.70 1.191
713.80 1.191
713.90 1.191
714.00 1.191
714.10 1.191
714.20 1.191
714.30 1.191
714.40 1.191
714.50 1.191
714.60 1.191
714.70 1.191
714.80 1.191
714.90 1.19
715.00 1.19
715.10 1.19
715.20 1.19
715.30 1.19
715.40 1.19
715.50 1.19
715.60 1.19
715.70 1.19
715.80 1.19
715.90 1.19
716.00 1.19
716.10 1.19
716.20 1.19
716.30 1.19
716.40 1.19
716.50 1.19
716.60 1.189
716.70 1.189
716.80 1.189
716.90 1.189
717.00 1.189
717.10 1.189
717.20 1.189
717.30 1.189
717.40 1.189
717.50 1.189
717.60 1.189
717.70 1.189
717.80 1.189
717.90 1.189
718.00 1.189
718.10 1.189
718.20 1.189
718.30 1.188
718.40 1.188
718.50 1.188
718.60 1.188
718.70 1.188
718.80 1.188
718.90 1.188
719.00 1.188
719.10 1.188
719.20 1.188
719.30 1.188
719.40 1.188
719.50 1.188
719.60 1.188
719.70 1.188
719.80 1.188
719.90 1.188
720.00 1.187
720.10 1.187
720.20 1.187
720.30 1.187
720.40 1.187
720.50 1.187
720.60 1.187
720.70 1.187
720.80 1.187
720.90 1.187
721.00 1.187
721.10 1.187
721.20 1.187
721.30 1.187
721.40 1.187
721.50 1.187
721.60 1.186
721.70 1.186
721.80 1.186
721.90 1.186
722.00 1.186
722.10 1.186
722.20 1.186
722.30 1.186
722.40 1.186
722.50 1.186
722.60 1.186
722.70 1.186
722.80 1.186
722.90 1.186
723.00 1.186
723.10 1.185
723.20 1.185
723.30 1.185
723.40 1.185
723.50 1.185
723.60 1.185
723.70 1.185
723.80 1.185
723.90 1.185
724.00 1.185
724.10 1.185
724.20 1.185
724.30 1.185
724.40 1.185
724.50 1.185
724.60 1.185
724.70 1.184
724.80 1.184
724.90 1.184
725.00 1.184
725.10 1.184
725.20 1.184
725.30 1.184
725.40 1.184
725.50 1.184
725.60 1.184
725.70 1.184
725.80 1.184
725.90 1.184
726.00 1.184
726.10 1.184
726.20 1.183
726.30 1.183
726.40 1.183
726.50 1.183
726.60 1.183
726.70 1.183
726.80 1.183
726.90 1.183
727.00 1.183
727.10 1.183
727.20 1.183
727.30 1.183
727.40 1.183
727.50 1.183
727.60 1.183
727.70 1.182
727.80 1.182
727.90 1.182
728.00 1.182
728.10 1.182
728.20 1.182
728.30 1.182
728.40 1.182
728.50 1.182
728.60 1.182
728.70 1.182
728.80 1.182
728.90 1.182
729.00 1.182
729.10 1.182
729.20 1.181
729.30 1.181
729.40 1.181
729.50 1.181
729.60 1.181
729.70 1.181
729.80 1.181
729.90 1.181
730.00 1.181
730.10 1.181
730.20 1.181
730.30 1.181
730.40 1.181
730.50 1.181
730.60 1.181
730.70 1.18
730.80 1.18
730.90 1.18
731.00 1.18
731.10 1.18
731.20 1.18
731.30 1.18
731.40 1.18
731.50 1.18
731.60 1.18
731.70 1.18
731.80 1.18
731.90 1.18
732.00 1.18
732.10 1.179
732.20 1.179
732.30 1.179
732.40 1.179
732.50 1.179
732.60 1.179
732.70 1.179
732.80 1.179
732.90 1.179
733.00 1.179
733.10 1.179
733.20 1.179
733.30 1.179
733.40 1.179
733.50 1.178
733.60 1.178
733.70 1.178
733.80 1.178
733.90 1.178
734.00 1.178
734.10 1.178
734.20 1.178
734.30 1.178
734.40 1.178
734.50 1.178
734.60 1.178
734.70 1.178
734.80 1.177
734.90 1.177
735.00 1.177
735.10 1.177
735.20 1.177
735.30 1.177
735.40 1.177
735.50 1.177
735.60 1.177
735.70 1.177
735.80 1.177
735.90 1.177
736.00 1.177
736.10 1.177
736.20 1.176
736.30 1.176
736.40 1.176
736.50 1.176
736.60 1.176
736.70 1.176
736.80 1.176
736.90 1.176
737.00 1.176
737.10 1.176
737.20 1.176
737.30 1.176
737.40 1.176
737.50 1.176
737.60 1.175
737.70 1.175
737.80 1.175
737.90 1.175
738.00 1.175
738.10 1.175
738.20 1.175
738.30 1.175
738.40 1.175
738.50 1.175
738.60 1.175
738.70 1.175
738.80 1.175
738.90 1.175
739.00 1.174
739.10 1.174
739.20 1.174
739.30 1.174
739.40 1.174
739.50 1.174
739.60 1.174
739.70 1.174
739.80 1.174
739.90 1.174
740.00 1.174
740.10 1.174
740.20 1.174
740.30 1.174
740.40 1.173
740.50 1.173
740.60 1.173
740.70 1.173
740.80 1.173
740.90 1.173
741.00 1.173
741.10 1.173
741.20 1.173
741.30 1.173
741.40 1.173
741.50 1.173
741.60 1.172
741.70 1.172
741.80 1.172
741.90 1.172
742.00 1.172
742.10 1.172
742.20 1.172
742.30 1.172
742.40 1.172
742.50 1.172
742.60 1.172
742.70 1.172
742.80 1.172
742.90 1.171
743.00 1.171
743.10 1.171
743.20 1.171
743.30 1.171
743.40 1.171
743.50 1.171
743.60 1.171
743.70 1.171
743.80 1.171
743.90 1.171
744.00 1.171
744.10 1.171
744.20 1.17
744.30 1.17
744.40 1.17
744.50 1.17
744.60 1.17
744.70 1.17
744.80 1.17
744.90 1.17
745.00 1.17
745.10 1.17
745.20 1.17
745.30 1.17
745.40 1.169
745.50 1.169
745.60 1.169
745.70 1.169
745.80 1.169
745.90 1.169
746.00 1.169
746.10 1.169
746.20 1.169
746.30 1.169
746.40 1.169
746.50 1.169
746.60 1.169
746.70 1.168
746.80 1.168
746.90 1.168
747.00 1.168
747.10 1.168
747.20 1.168
747.30 1.168
747.40 1.168
747.50 1.168
747.60 1.168
747.70 1.168
747.80 1.168
747.90 1.168
748.00 1.167
748.10 1.167
748.20 1.167
748.30 1.167
748.40 1.167
748.50 1.167
748.60 1.167
748.70 1.167
748.80 1.167
748.90 1.167
749.00 1.167
749.10 1.167
749.20 1.167
749.30 1.166
749.40 1.166
749.50 1.166
749.60 1.166
749.70 1.166
749.80 1.166
749.90 1.166
750.00 1.166
750.10 1.166
750.20 1.166
750.30 1.166
750.40 1.166
750.50 1.165
750.60 1.165
750.70 1.165
750.80 1.165
750.90 1.165
751.00 1.165
751.10 1.165
751.20 1.165
751.30 1.165
751.40 1.165
751.50 1.165
751.60 1.165
751.70 1.164
751.80 1.164
751.90 1.164
752.00 1.164
752.10 1.164
752.20 1.164
752.30 1.164
752.40 1.164
752.50 1.164
752.60 1.164
752.70 1.164
752.80 1.163
752.90 1.163
753.00 1.163
753.10 1.163
753.20 1.163
753.30 1.163
753.40 1.163
753.50 1.163
753.60 1.163
753.70 1.163
753.80 1.163
753.90 1.163
754.00 1.162
754.10 1.162
754.20 1.162
754.30 1.162
754.40 1.162
754.50 1.162
754.60 1.162
754.70 1.162
754.80 1.162
754.90 1.162
755.00 1.162
755.10 1.162
755.20 1.161
755.30 1.161
755.40 1.161
755.50 1.161
755.60 1.161
755.70 1.161
755.80 1.161
755.90 1.161
756.00 1.161
756.10 1.161
756.20 1.161
756.30 1.161
756.40 1.16
756.50 1.16
756.60 1.16
756.70 1.16
756.80 1.16
756.90 1.16
757.00 1.16
757.10 1.16
757.20 1.16
757.30 1.16
757.40 1.16
757.50 1.159
757.60 1.159
757.70 1.159
757.80 1.159
757.90 1.159
758.00 1.159
758.10 1.159
758.20 1.159
758.30 1.159
758.40 1.159
758.50 1.159
758.60 1.159
758.70 1.158
758.80 1.158
758.90 1.158
759.00 1.158
759.10 1.158
759.20 1.158
759.30 1.158
759.40 1.158
759.50 1.158
759.60 1.158
759.70 1.158
759.80 1.158
759.90 1.157
760.00 1.157
760.10 1.157
760.20 1.157
760.30 1.157
760.40 1.157
760.50 1.157
760.60 1.157
760.70 1.157
760.80 1.157
760.90 1.157
761.00 1.156
761.10 1.156
761.20 1.156
761.30 1.156
761.40 1.156
761.50 1.156
761.60 1.156
761.70 1.156
761.80 1.156
761.90 1.156
762.00 1.156
762.10 1.155
762.20 1.155
762.30 1.155
762.40 1.155
762.50 1.155
762.60 1.155
762.70 1.155
762.80 1.155
762.90 1.155
763.00 1.155
763.10 1.155
763.20 1.154
763.30 1.154
763.40 1.154
763.50 1.154
763.60 1.154
763.70 1.154
763.80 1.154
763.90 1.154
764.00 1.154
764.10 1.154
764.20 1.154
764.30 1.153
764.40 1.153
764.50 1.153
764.60 1.153
764.70 1.153
764.80 1.153
764.90 1.153
765.00 1.153
765.10 1.153
765.20 1.153
765.30 1.153
765.40 1.152
765.50 1.152
765.60 1.152
765.70 1.152
765.80 1.152
765.90 1.152
766.00 1.152
766.10 1.152
766.20 1.152
766.30 1.152
766.40 1.152
766.50 1.151
766.60 1.151
766.70 1.151
766.80 1.151
766.90 1.151
767.00 1.151
767.10 1.151
767.20 1.151
767.30 1.151
767.40 1.151
767.50 1.151
767.60 1.15
767.70 1.15
767.80 1.15
767.90 1.15
768.00 1.15
768.10 1.15
768.20 1.15
768.30 1.15
768.40 1.15
768.50 1.15
768.60 1.15
768.70 1.149
768.80 1.149
768.90 1.149
769.00 1.149
769.10 1.149
769.20 1.149
769.30 1.149
769.40 1.149
769.50 1.149
769.60 1.149
769.70 1.149
769.80 1.148
769.90 1.148
770.00 1.148
770.10 1.148
770.20 1.148
770.30 1.148
770.40 1.148
770.50 1.148
770.60 1.148
770.70 1.148
770.80 1.148
770.90 1.147
771.00 1.147
771.10 1.147
771.20 1.147
771.30 1.147
771.40 1.147
771.50 1.147
771.60 1.147
771.70 1.147
771.80 1.147
771.90 1.146
772.00 1.146
772.10 1.146
772.20 1.146
772.30 1.146
772.40 1.146
772.50 1.146
772.60 1.146
772.70 1.146
772.80 1.146
772.90 1.145
773.00 1.145
773.10 1.145
773.20 1.145
773.30 1.145
773.40 1.145
773.50 1.145
773.60 1.145
773.70 1.145
773.80 1.145
773.90 1.145
774.00 1.144
774.10 1.144
774.20 1.144
774.30 1.144
774.40 1.144
774.50 1.144
774.60 1.144
774.70 1.144
774.80 1.144
774.90 1.144
775.00 1.143
775.10 1.143
775.20 1.143
775.30 1.143
775.40 1.143
775.50 1.143
775.60 1.143
775.70 1.143
775.80 1.143
775.90 1.143
776.00 1.143
776.10 1.142
776.20 1.142
776.30 1.142
776.40 1.142
776.50 1.142
776.60 1.142
776.70 1.142
776.80 1.142
776.90 1.142
777.00 1.142
777.10 1.141
777.20 1.141
777.30 1.141
777.40 1.141
777.50 1.141
777.60 1.141
777.70 1.141
777.80 1.141
777.90 1.141
778.00 1.141
778.10 1.14
778.20 1.14
778.30 1.14
778.40 1.14
778.50 1.14
778.60 1.14
778.70 1.14
778.80 1.14
778.90 1.14
779.00 1.14
779.10 1.14
779.20 1.139
779.30 1.139
779.40 1.139
779.50 1.139
779.60 1.139
779.70 1.139
779.80 1.139
779.90 1.139
780.00 1.139
780.10 1.139
780.20 1.138
780.30 1.138
780.40 1.138
780.50 1.138
780.60 1.138
780.70 1.138
780.80 1.138
780.90 1.138
781.00 1.138
781.10 1.138
781.20 1.137
781.30 1.137
781.40 1.137
781.50 1.137
781.60 1.137
781.70 1.137
781.80 1.137
781.90 1.137
782.00 1.137
782.10 1.137
782.20 1.136
782.30 1.136
782.40 1.136
782.50 1.136
782.60 1.136
782.70 1.136
782.80 1.136
782.90 1.136
783.00 1.136
783.10 1.136
783.20 1.135
783.30 1.135
783.40 1.135
783.50 1.135
783.60 1.135
783.70 1.135
783.80 1.135
783.90 1.135
784.00 1.135
784.10 1.135
784.20 1.134
784.30 1.134
784.40 1.134
784.50 1.134
784.60 1.134
784.70 1.134
784.80 1.134
784.90 1.134
785.00 1.134
785.10 1.134
785.20 1.133
785.30 1.133
785.40 1.133
785.50 1.133
785.60 1.133
785.70 1.133
785.80 1.133
785.90 1.133
786.00 1.133
786.10 1.133
786.20 1.132
786.30 1.132
786.40 1.132
786.50 1.132
786.60 1.132
786.70 1.132
786.80 1.132
786.90 1.132
787.00 1.132
787.10 1.132
787.20 1.131
787.30 1.131
787.40 1.131
787.50 1.131
787.60 1.131
787.70 1.131
787.80 1.131
787.90 1.131
788.00 1.131
788.10 1.131
788.20 1.13
788.30 1.13
788.40 1.13
788.50 1.13
788.60 1.13
788.70 1.13
788.80 1.13
788.90 1.13
789.00 1.13
789.10 1.13
789.20 1.129
789.30 1.129
789.40 1.129
789.50 1.129
789.60 1.129
789.70 1.129
789.80 1.129
789.90 1.129
790.00 1.129
790.10 1.129
790.20 1.128
790.30 1.128
790.40 1.128
790.50 1.128
790.60 1.128
790.70 1.128
790.80 1.128
790.90 1.128
791.00 1.128
791.10 1.127
791.20 1.127
791.30 1.127
791.40 1.127
791.50 1.127
791.60 1.127
791.70 1.127
791.80 1.127
791.90 1.127
792.00 1.127
792.10 1.126
792.20 1.126
792.30 1.126
792.40 1.126
792.50 1.126
792.60 1.126
792.70 1.126
792.80 1.126
792.90 1.126
793.00 1.125
793.10 1.125
793.20 1.125
793.30 1.125
793.40 1.125
793.50 1.125
793.60 1.125
793.70 1.125
793.80 1.125
793.90 1.125
794.00 1.124
794.10 1.124
794.20 1.124
794.30 1.124
794.40 1.124
794.50 1.124
794.60 1.124
794.70 1.124
794.80 1.124
794.90 1.123
795.00 1.123
795.10 1.123
795.20 1.123
795.30 1.123
795.40 1.123
795.50 1.123
795.60 1.123
795.70 1.123
795.80 1.123
795.90 1.122
796.00 1.122
796.10 1.122
796.20 1.122
796.30 1.122
796.40 1.122
796.50 1.122
796.60 1.122
796.70 1.122
796.80 1.121
796.90 1.121
797.00 1.121
797.10 1.121
797.20 1.121
797.30 1.121
797.40 1.121
797.50 1.121
797.60 1.121
797.70 1.121
797.80 1.12
797.90 1.12
798.00 1.12
798.10 1.12
798.20 1.12
798.30 1.12
798.40 1.12
798.50 1.12
798.60 1.12
798.70 1.12
798.80 1.119
798.90 1.119
799.00 1.119
799.10 1.119
799.20 1.119
799.30 1.119
799.40 1.119
799.50 1.119
799.60 1.119
799.70 1.118
799.80 1.118
799.90 1.118
800.00 1.118
800.10 1.118
800.20 1.118
800.30 1.118
800.40 1.118
800.50 1.118
800.60 1.118
800.70 1.117
800.80 1.117
800.90 1.117
801.00 1.117
801.10 1.117
801.20 1.117
801.30 1.117
801.40 1.117
801.50 1.117
801.60 1.116
801.70 1.116
801.80 1.116
801.90 1.116
802.00 1.116
802.10 1.116
802.20 1.116
802.30 1.116
802.40 1.116
802.50 1.115
802.60 1.115
802.70 1.115
802.80 1.115
802.90 1.115
803.00 1.115
803.10 1.115
803.20 1.115
803.30 1.115
803.40 1.114
803.50 1.114
803.60 1.114
803.70 1.114
803.80 1.114
803.90 1.114
804.00 1.114
804.10 1.114
804.20 1.114
804.30 1.113
804.40 1.113
804.50 1.113
804.60 1.113
804.70 1.113
804.80 1.113
804.90 1.113
805.00 1.113
805.10 1.113
805.20 1.112
805.30 1.112
805.40 1.112
805.50 1.112
805.60 1.112
805.70 1.112
805.80 1.112
805.90 1.112
806.00 1.112
806.10 1.111
806.20 1.111
806.30 1.111
806.40 1.111
806.50 1.111
806.60 1.111
806.70 1.111
806.80 1.111
806.90 1.111
807.00 1.111
807.10 1.11
807.20 1.11
807.30 1.11
807.40 1.11
807.50 1.11
807.60 1.11
807.70 1.11
807.80 1.11
807.90 1.11
808.00 1.109
808.10 1.109
808.20 1.109
808.30 1.109
808.40 1.109
808.50 1.109
808.60 1.109
808.70 1.109
808.80 1.109
808.90 1.108
809.00 1.108
809.10 1.108
809.20 1.108
809.30 1.108
809.40 1.108
809.50 1.108
809.60 1.108
809.70 1.108
809.80 1.107
809.90 1.107
810.00 1.107
810.10 1.107
810.20 1.107
810.30 1.107
810.40 1.107
810.50 1.107
810.60 1.107
810.70 1.106
810.80 1.106
810.90 1.106
811.00 1.106
811.10 1.106
811.20 1.106
811.30 1.106
811.40 1.106
811.50 1.106
811.60 1.105
811.70 1.105
811.80 1.105
811.90 1.105
812.00 1.105
812.10 1.105
812.20 1.105
812.30 1.105
812.40 1.105
812.50 1.104
812.60 1.104
812.70 1.104
812.80 1.104
812.90 1.104
813.00 1.104
813.10 1.104
813.20 1.104
813.30 1.104
813.40 1.103
813.50 1.103
813.60 1.103
813.70 1.103
813.80 1.103
813.90 1.103
814.00 1.103
814.10 1.103
814.20 1.103
814.30 1.102
814.40 1.102
814.50 1.102
814.60 1.102
814.70 1.102
814.80 1.102
814.90 1.102
815.00 1.102
815.10 1.102
815.20 1.101
815.30 1.101
815.40 1.101
815.50 1.101
815.60 1.101
815.70 1.101
815.80 1.101
815.90 1.101
816.00 1.101
816.10 1.1
816.20 1.1
816.30 1.1
816.40 1.1
816.50 1.1
816.60 1.1
816.70 1.1
816.80 1.1
816.90 1.099
817.00 1.099
817.10 1.099
817.20 1.099
817.30 1.099
817.40 1.099
817.50 1.099
817.60 1.099
817.70 1.099
817.80 1.098
817.90 1.098
818.00 1.098
818.10 1.098
818.20 1.098
818.30 1.098
818.40 1.098
818.50 1.098
818.60 1.098
818.70 1.097
818.80 1.097
818.90 1.097
819.00 1.097
819.10 1.097
819.20 1.097
819.30 1.097
819.40 1.097
819.50 1.097
819.60 1.096
819.70 1.096
819.80 1.096
819.90 1.096
820.00 1.096
820.10 1.096
820.20 1.096
820.30 1.096
820.40 1.096
820.50 1.095
820.60 1.095
820.70 1.095
820.80 1.095
820.90 1.095
821.00 1.095
821.10 1.095
821.20 1.095
821.30 1.095
821.40 1.094
821.50 1.094
821.60 1.094
821.70 1.094
821.80 1.094
821.90 1.094
822.00 1.094
822.10 1.094
822.20 1.094
822.30 1.093
822.40 1.093
822.50 1.093
822.60 1.093
822.70 1.093
822.80 1.093
822.90 1.093
823.00 1.093
823.10 1.092
823.20 1.092
823.30 1.092
823.40 1.092
823.50 1.092
823.60 1.092
823.70 1.092
823.80 1.092
823.90 1.092
824.00 1.091
824.10 1.091
824.20 1.091
824.30 1.091
824.40 1.091
824.50 1.091
824.60 1.091
824.70 1.091
824.80 1.091
824.90 1.09
825.00 1.09
825.10 1.09
825.20 1.09
825.30 1.09
825.40 1.09
825.50 1.09
825.60 1.09
825.70 1.089
825.80 1.089
825.90 1.089
826.00 1.089
826.10 1.089
826.20 1.089
826.30 1.089
826.40 1.089
826.50 1.089
826.60 1.088
826.70 1.088
826.80 1.088
826.90 1.088
827.00 1.088
827.10 1.088
827.20 1.088
827.30 1.088
827.40 1.088
827.50 1.087
827.60 1.087
827.70 1.087
827.80 1.087
827.90 1.087
828.00 1.087
828.10 1.087
828.20 1.087
828.30 1.086
828.40 1.086
828.50 1.086
828.60 1.086
828.70 1.086
828.80 1.086
828.90 1.086
829.00 1.086
829.10 1.086
829.20 1.085
829.30 1.085
829.40 1.085
829.50 1.085
829.60 1.085
829.70 1.085
829.80 1.085
829.90 1.085
830.00 1.084
830.10 1.084
830.20 1.084
830.30 1.084
830.40 1.084
830.50 1.084
830.60 1.084
830.70 1.084
830.80 1.084
830.90 1.083
831.00 1.083
831.10 1.083
831.20 1.083
831.30 1.083
831.40 1.083
831.50 1.083
831.60 1.083
831.70 1.082
831.80 1.082
831.90 1.082
832.00 1.082
832.10 1.082
832.20 1.082
832.30 1.082
832.40 1.082
832.50 1.082
832.60 1.081
832.70 1.081
832.80 1.081
832.90 1.081
833.00 1.081
833.10 1.081
833.20 1.081
833.30 1.081
833.40 1.08
833.50 1.08
833.60 1.08
833.70 1.08
833.80 1.08
833.90 1.08
834.00 1.08
834.10 1.08
834.20 1.08
834.30 1.079
834.40 1.079
834.50 1.079
834.60 1.079
834.70 1.079
834.80 1.079
834.90 1.079
835.00 1.079
835.10 1.078
835.20 1.078
835.30 1.078
835.40 1.078
835.50 1.078
835.60 1.078
835.70 1.078
835.80 1.078
835.90 1.078
836.00 1.077
836.10 1.077
836.20 1.077
836.30 1.077
836.40 1.077
836.50 1.077
836.60 1.077
836.70 1.077
836.80 1.076
836.90 1.076
837.00 1.076
837.10 1.076
837.20 1.076
837.30 1.076
837.40 1.076
837.50 1.076
837.60 1.076
837.70 1.075
837.80 1.075
837.90 1.075
838.00 1.075
838.10 1.075
838.20 1.075
838.30 1.075
838.40 1.075
838.50 1.074
838.60 1.074
838.70 1.074
838.80 1.074
838.90 1.074
839.00 1.074
839.10 1.074
839.20 1.074
839.30 1.073
839.40 1.073
839.50 1.073
839.60 1.073
839.70 1.073
839.80 1.073
839.90 1.073
840.00 1.073
840.10 1.073
840.20 1.072
840.30 1.072
840.40 1.072
840.50 1.072
840.60 1.072
840.70 1.072
840.80 1.072
840.90 1.072
841.00 1.071
841.10 1.071
841.20 1.071
841.30 1.071
841.40 1.071
841.50 1.071
841.60 1.071
841.70 1.071
841.80 1.07
841.90 1.07
842.00 1.07
842.10 1.07
842.20 1.07
842.30 1.07
842.40 1.07
842.50 1.07
842.60 1.07
842.70 1.069
842.80 1.069
842.90 1.069
843.00 1.069
843.10 1.069
843.20 1.069
843.30 1.069
843.40 1.069
843.50 1.068
843.60 1.068
843.70 1.068
843.80 1.068
843.90 1.068
844.00 1.068
844.10 1.068
844.20 1.068
844.30 1.067
844.40 1.067
844.50 1.067
844.60 1.067
844.70 1.067
844.80 1.067
844.90 1.067
845.00 1.067
845.10 1.066
845.20 1.066
845.30 1.066
845.40 1.066
845.50 1.066
845.60 1.066
845.70 1.066
845.80 1.066
845.90 1.066
846.00 1.065
846.10 1.065
846.20 1.065
846.30 1.065
846.40 1.065
846.50 1.065
846.60 1.065
846.70 1.065
846.80 1.064
846.90 1.064
847.00 1.064
847.10 1.064
847.20 1.064
847.30 1.064
847.40 1.064
847.50 1.064
847.60 1.063
847.70 1.063
847.80 1.063
847.90 1.063
848.00 1.063
848.10 1.063
848.20 1.063
848.30 1.063
848.40 1.062
848.50 1.062
848.60 1.062
848.70 1.062
848.80 1.062
848.90 1.062
849.00 1.062
849.10 1.062
849.20 1.062
849.30 1.061
849.40 1.061
849.50 1.061
849.60 1.061
849.70 1.061
849.80 1.061
849.90 1.061
850.00 1.061
850.10 1.06
850.20 1.06
850.30 1.06
850.40 1.06
850.50 1.06
850.60 1.06
850.70 1.06
850.80 1.06
850.90 1.059
851.00 1.059
851.10 1.059
851.20 1.059
851.30 1.059
851.40 1.059
851.50 1.059
851.60 1.059
851.70 1.058
851.80 1.058
851.90 1.058
852.00 1.058
852.10 1.058
852.20 1.058
852.30 1.058
852.40 1.058
852.50 1.057
852.60 1.057
852.70 1.057
852.80 1.057
852.90 1.057
853.00 1.057
853.10 1.057
853.20 1.057
853.30 1.056
853.40 1.056
853.50 1.056
853.60 1.056
853.70 1.056
853.80 1.056
853.90 1.056
854.00 1.056
854.10 1.056
854.20 1.055
854.30 1.055
854.40 1.055
854.50 1.055
854.60 1.055
854.70 1.055
854.80 1.055
854.90 1.055
855.00 1.054
855.10 1.054
855.20 1.054
855.30 1.054
855.40 1.054
855.50 1.054
855.60 1.054
855.70 1.054
855.80 1.053
855.90 1.053
856.00 1.053
856.10 1.053
856.20 1.053
856.30 1.053
856.40 1.053
856.50 1.053
856.60 1.052
856.70 1.052
856.80 1.052
856.90 1.052
857.00 1.052
857.10 1.052
857.20 1.052
857.30 1.052
857.40 1.051
857.50 1.051
857.60 1.051
857.70 1.051
857.80 1.051
857.90 1.051
858.00 1.051
858.10 1.051
858.20 1.05
858.30 1.05
858.40 1.05
858.50 1.05
858.60 1.05
858.70 1.05
858.80 1.05
858.90 1.05
859.00 1.049
859.10 1.049
859.20 1.049
859.30 1.049
859.40 1.049
859.50 1.049
859.60 1.049
859.70 1.049
859.80 1.048
859.90 1.048
860.00 1.048
860.10 1.048
860.20 1.048
860.30 1.048
860.40 1.048
860.50 1.048
860.60 1.047
860.70 1.047
860.80 1.047
860.90 1.047
861.00 1.047
861.10 1.047
861.20 1.047
861.30 1.047
861.40 1.047
861.50 1.046
861.60 1.046
861.70 1.046
861.80 1.046
861.90 1.046
862.00 1.046
862.10 1.046
862.20 1.046
862.30 1.045
862.40 1.045
862.50 1.045
862.60 1.045
862.70 1.045
862.80 1.045
862.90 1.045
863.00 1.045
863.10 1.044
863.20 1.044
863.30 1.044
863.40 1.044
863.50 1.044
863.60 1.044
863.70 1.044
863.80 1.044
863.90 1.043
864.00 1.043
864.10 1.043
864.20 1.043
864.30 1.043
864.40 1.043
864.50 1.043
864.60 1.043
864.70 1.042
864.80 1.042
864.90 1.042
865.00 1.042
865.10 1.042
865.20 1.042
865.30 1.042
865.40 1.042
865.50 1.041
865.60 1.041
865.70 1.041
865.80 1.041
865.90 1.041
866.00 1.041
866.10 1.041
866.20 1.041
866.30 1.04
866.40 1.04
866.50 1.04
866.60 1.04
866.70 1.04
866.80 1.04
866.90 1.04
867.00 1.04
867.10 1.039
867.20 1.039
867.30 1.039
867.40 1.039
867.50 1.039
867.60 1.039
867.70 1.039
867.80 1.039
867.90 1.038
868.00 1.038
868.10 1.038
868.20 1.038
868.30 1.038
868.40 1.038
868.50 1.038
868.60 1.037
868.70 1.037
868.80 1.037
868.90 1.037
869.00 1.037
869.10 1.037
869.20 1.037
869.30 1.037
869.40 1.036
869.50 1.036
869.60 1.036
869.70 1.036
869.80 1.036
869.90 1.036
870.00 1.036
870.10 1.036
870.20 1.035
870.30 1.035
870.40 1.035
870.50 1.035
870.60 1.035
870.70 1.035
870.80 1.035
870.90 1.035
871.00 1.034
871.10 1.034
871.20 1.034
871.30 1.034
871.40 1.034
871.50 1.034
871.60 1.034
871.70 1.034
871.80 1.033
871.90 1.033
872.00 1.033
872.10 1.033
872.20 1.033
872.30 1.033
872.40 1.033
872.50 1.033
872.60 1.032
872.70 1.032
872.80 1.032
872.90 1.032
873.00 1.032
873.10 1.032
873.20 1.032
873.30 1.032
873.40 1.031
873.50 1.031
873.60 1.031
873.70 1.031
873.80 1.031
873.90 1.031
874.00 1.031
874.10 1.031
874.20 1.03
874.30 1.03
874.40 1.03
874.50 1.03
874.60 1.03
874.70 1.03
874.80 1.03
874.90 1.03
875.00 1.029
875.10 1.029
875.20 1.029
875.30 1.029
875.40 1.029
875.50 1.029
875.60 1.029
875.70 1.029
875.80 1.028
875.90 1.028
876.00 1.028
876.10 1.028
876.20 1.028
876.30 1.028
876.40 1.028
876.50 1.028
876.60 1.027
876.70 1.027
876.80 1.027
876.90 1.027
877.00 1.027
877.10 1.027
877.20 1.027
877.30 1.027
877.40 1.026
877.50 1.026
877.60 1.026
877.70 1.026
877.80 1.026
877.90 1.026
878.00 1.026
878.10 1.025
878.20 1.025
878.30 1.025
878.40 1.025
878.50 1.025
878.60 1.025
878.70 1.025
878.80 1.025
878.90 1.024
879.00 1.024
879.10 1.024
879.20 1.024
879.30 1.024
879.40 1.024
879.50 1.024
879.60 1.024
879.70 1.023
879.80 1.023
879.90 1.023
880.00 1.023
880.10 1.023
880.20 1.023
880.30 1.023
880.40 1.023
880.50 1.022
880.60 1.022
880.70 1.022
880.80 1.022
880.90 1.022
881.00 1.022
881.10 1.022
881.20 1.022
881.30 1.021
881.40 1.021
881.50 1.021
881.60 1.021
881.70 1.021
881.80 1.021
881.90 1.021
882.00 1.021
882.10 1.02
882.20 1.02
882.30 1.02
882.40 1.02
882.50 1.02
882.60 1.02
882.70 1.02
882.80 1.02
882.90 1.019
883.00 1.019
883.10 1.019
883.20 1.019
883.30 1.019
883.40 1.019
883.50 1.019
883.60 1.018
883.70 1.018
883.80 1.018
883.90 1.018
884.00 1.018
884.10 1.018
884.20 1.018
884.30 1.018
884.40 1.017
884.50 1.017
884.60 1.017
884.70 1.017
884.80 1.017
884.90 1.017
885.00 1.017
885.10 1.017
885.20 1.016
885.30 1.016
885.40 1.016
885.50 1.016
885.60 1.016
885.70 1.016
885.80 1.016
885.90 1.016
886.00 1.015
886.10 1.015
886.20 1.015
886.30 1.015
886.40 1.015
886.50 1.015
886.60 1.015
886.70 1.015
886.80 1.014
886.90 1.014
887.00 1.014
887.10 1.014
887.20 1.014
887.30 1.014
887.40 1.014
887.50 1.014
887.60 1.013
887.70 1.013
887.80 1.013
887.90 1.013
888.00 1.013
888.10 1.013
888.20 1.013
888.30 1.012
888.40 1.012
888.50 1.012
888.60 1.012
888.70 1.012
888.80 1.012
888.90 1.012
889.00 1.012
889.10 1.011
889.20 1.011
889.30 1.011
889.40 1.011
889.50 1.011
889.60 1.011
889.70 1.011
889.80 1.011
889.90 1.01
890.00 1.01
890.10 1.01
890.20 1.01
890.30 1.01
890.40 1.01
890.50 1.01
890.60 1.01
890.70 1.009
890.80 1.009
890.90 1.009
891.00 1.009
891.10 1.009
891.20 1.009
891.30 1.009
891.40 1.008
891.50 1.008
891.60 1.008
891.70 1.008
891.80 1.008
891.90 1.008
892.00 1.008
892.10 1.008
892.20 1.007
892.30 1.007
892.40 1.007
892.50 1.007
892.60 1.007
892.70 1.007
892.80 1.007
892.90 1.007
893.00 1.006
893.10 1.006
893.20 1.006
893.30 1.006
893.40 1.006
893.50 1.006
893.60 1.006
893.70 1.006
893.80 1.005
893.90 1.005
894.00 1.005
894.10 1.005
894.20 1.005
894.30 1.005
894.40 1.005
894.50 1.004
894.60 1.004
894.70 1.004
894.80 1.004
894.90 1.004
895.00 1.004
895.10 1.004
895.20 1.004
895.30 1.003
895.40 1.003
895.50 1.003
895.60 1.003
895.70 1.003
895.80 1.003
895.90 1.003
896.00 1.003
896.10 1.002
896.20 1.002
896.30 1.002
896.40 1.002
896.50 1.002
896.60 1.002
896.70 1.002
896.80 1.002
896.90 1.001
897.00 1.001
897.10 1.001
897.20 1.001
897.30 1.001
897.40 1.001
897.50 1.001
897.60 1
897.70 1
897.80 1
897.90 1
898.00 1
898.10 0.9998
898.20 0.9997
898.30 0.9996
898.40 0.9994
898.50 0.9993
898.60 0.9992
898.70 0.9991
898.80 0.9989
898.90 0.9988
899.00 0.9987
899.10 0.9985
899.20 0.9984
899.30 0.9983
899.40 0.9981
899.50 0.998
899.60 0.9979
899.70 0.9978
899.80 0.9976
899.90 0.9975
900.00 0.9974
900.10 0.9972
900.20 0.9971
900.30 0.997
900.40 0.9968
900.50 0.9967
900.60 0.9966
900.70 0.9965
900.80 0.9963
900.90 0.9962
901.00 0.9961
901.10 0.9959
901.20 0.9958
901.30 0.9957
901.40 0.9956
901.50 0.9954
901.60 0.9953
901.70 0.9952
901.80 0.995
901.90 0.9949
902.00 0.9948
902.10 0.9946
902.20 0.9945
902.30 0.9944
902.40 0.9942
902.50 0.9941
902.60 0.994
902.70 0.9938
902.80 0.9937
902.90 0.9936
903.00 0.9934
903.10 0.9933
903.20 0.9932
903.30 0.993
903.40 0.9929
903.50 0.9928
903.60 0.9926
903.70 0.9925
903.80 0.9924
903.90 0.9922
904.00 0.9921
904.10 0.992
904.20 0.9918
904.30 0.9917
904.40 0.9916
904.50 0.9914
904.60 0.9913
904.70 0.9912
904.80 0.991
904.90 0.9909
905.00 0.9908
905.10 0.9906
905.20 0.9905
905.30 0.9904
905.40 0.9902
905.50 0.9901
905.60 0.99
905.70 0.9898
905.80 0.9897
905.90 0.9896
906.00 0.9894
906.10 0.9893
906.20 0.9892
906.30 0.989
906.40 0.9889
906.50 0.9888
906.60 0.9886
906.70 0.9885
906.80 0.9884
906.90 0.9883
907.00 0.9881
907.10 0.988
907.20 0.9879
907.30 0.9877
907.40 0.9876
907.50 0.9875
907.60 0.9873
907.70 0.9872
907.80 0.9871
907.90 0.9869
908.00 0.9868
908.10 0.9867
908.20 0.9865
908.30 0.9864
908.40 0.9863
908.50 0.9861
908.60 0.986
908.70 0.9859
908.80 0.9857
908.90 0.9856
909.00 0.9855
909.10 0.9853
909.20 0.9852
909.30 0.9851
909.40 0.985
909.50 0.9848
909.60 0.9847
909.70 0.9846
909.80 0.9844
909.90 0.9843
910.00 0.9842
910.10 0.984
910.20 0.9839
910.30 0.9838
910.40 0.9836
910.50 0.9835
910.60 0.9834
910.70 0.9832
910.80 0.9831
910.90 0.983
911.00 0.9829
911.10 0.9827
911.20 0.9826
911.30 0.9825
911.40 0.9823
911.50 0.9822
911.60 0.9821
911.70 0.9819
911.80 0.9818
911.90 0.9817
912.00 0.9815
912.10 0.9814
912.20 0.9813
912.30 0.9811
912.40 0.981
912.50 0.9809
912.60 0.9808
912.70 0.9806
912.80 0.9805
912.90 0.9804
913.00 0.9802
913.10 0.9801
913.20 0.98
913.30 0.9798
913.40 0.9797
913.50 0.9796
913.60 0.9794
913.70 0.9793
913.80 0.9792
913.90 0.979
914.00 0.9789
914.10 0.9788
914.20 0.9786
914.30 0.9785
914.40 0.9784
914.50 0.9782
914.60 0.9781
914.70 0.978
914.80 0.9779
914.90 0.9777
915.00 0.9776
915.10 0.9775
915.20 0.9773
915.30 0.9772
915.40 0.9771
915.50 0.9769
915.60 0.9768
915.70 0.9767
915.80 0.9765
915.90 0.9764
916.00 0.9763
916.10 0.9761
916.20 0.976
916.30 0.9759
916.40 0.9758
916.50 0.9756
916.60 0.9755
916.70 0.9754
916.80 0.9752
916.90 0.9751
917.00 0.975
917.10 0.9748
917.20 0.9747
917.30 0.9746
917.40 0.9744
917.50 0.9743
917.60 0.9742
917.70 0.974
917.80 0.9739
917.90 0.9738
918.00 0.9736
918.10 0.9735
918.20 0.9734
918.30 0.9732
918.40 0.9731
918.50 0.973
918.60 0.9729
918.70 0.9727
918.80 0.9726
918.90 0.9725
919.00 0.9723
919.10 0.9722
919.20 0.9721
919.30 0.9719
919.40 0.9718
919.50 0.9717
919.60 0.9715
919.70 0.9714
919.80 0.9713
919.90 0.9711
920.00 0.971
920.10 0.9709
920.20 0.9707
920.30 0.9706
920.40 0.9705
920.50 0.9704
920.60 0.9702
920.70 0.9701
920.80 0.97
920.90 0.9698
921.00 0.9697
921.10 0.9696
921.20 0.9694
921.30 0.9693
921.40 0.9692
921.50 0.969
921.60 0.9689
921.70 0.9688
921.80 0.9687
921.90 0.9685
922.00 0.9684
922.10 0.9683
922.20 0.9681
922.30 0.968
922.40 0.9679
922.50 0.9677
922.60 0.9676
922.70 0.9675
922.80 0.9673
922.90 0.9672
923.00 0.9671
923.10 0.9669
923.20 0.9668
923.30 0.9667
923.40 0.9665
923.50 0.9664
923.60 0.9663
923.70 0.9661
923.80 0.966
923.90 0.9659
924.00 0.9657
924.10 0.9656
924.20 0.9655
924.30 0.9653
924.40 0.9652
924.50 0.9651
924.60 0.9649
924.70 0.9648
924.80 0.9647
924.90 0.9645
925.00 0.9644
925.10 0.9643
925.20 0.9641
925.30 0.964
925.40 0.9639
925.50 0.9637
925.60 0.9636
925.70 0.9635
925.80 0.9633
925.90 0.9632
926.00 0.9631
926.10 0.9629
926.20 0.9628
926.30 0.9627
926.40 0.9625
926.50 0.9624
926.60 0.9623
926.70 0.9621
926.80 0.962
926.90 0.9619
927.00 0.9617
927.10 0.9616
927.20 0.9615
927.30 0.9613
927.40 0.9612
927.50 0.9611
927.60 0.9609
927.70 0.9608
927.80 0.9607
927.90 0.9605
928.00 0.9604
928.10 0.9603
928.20 0.9601
928.30 0.96
928.40 0.9599
928.50 0.9597
928.60 0.9596
928.70 0.9595
928.80 0.9593
928.90 0.9592
929.00 0.9591
929.10 0.959
929.20 0.9588
929.30 0.9587
929.40 0.9586
929.50 0.9584
929.60 0.9583
929.70 0.9582
929.80 0.958
929.90 0.9579
930.00 0.9578
930.10 0.9576
930.20 0.9575
930.30 0.9574
930.40 0.9572
930.50 0.9571
930.60 0.957
930.70 0.9568
930.80 0.9567
930.90 0.9566
931.00 0.9564
931.10 0.9563
931.20 0.9562
931.30 0.956
931.40 0.9559
931.50 0.9558
931.60 0.9556
931.70 0.9555
931.80 0.9554
931.90 0.9552
932.00 0.9551
932.10 0.955
932.20 0.9548
932.30 0.9547
932.40 0.9546
932.50 0.9544
932.60 0.9543
932.70 0.9542
932.80 0.954
932.90 0.9539
933.00 0.9538
933.10 0.9537
933.20 0.9535
933.30 0.9534
933.40 0.9533
933.50 0.9531
933.60 0.953
933.70 0.9529
933.80 0.9527
933.90 0.9526
934.00 0.9525
934.10 0.9523
934.20 0.9522
934.30 0.9521
934.40 0.9519
934.50 0.9518
934.60 0.9517
934.70 0.9515
934.80 0.9514
934.90 0.9513
935.00 0.9511
935.10 0.951
935.20 0.9509
935.30 0.9507
935.40 0.9506
935.50 0.9505
935.60 0.9503
935.70 0.9502
935.80 0.9501
935.90 0.9499
936.00 0.9498
936.10 0.9497
936.20 0.9495
936.30 0.9494
936.40 0.9493
936.50 0.9491
936.60 0.949
936.70 0.9489
936.80 0.9487
936.90 0.9486
937.00 0.9485
937.10 0.9483
937.20 0.9482
937.30 0.9481
937.40 0.9479
937.50 0.9478
937.60 0.9477
937.70 0.9475
937.80 0.9474
937.90 0.9473
938.00 0.9471
938.10 0.947
938.20 0.9469
938.30 0.9467
938.40 0.9466
938.50 0.9465
938.60 0.9463
938.70 0.9462
938.80 0.9461
938.90 0.9459
939.00 0.9458
939.10 0.9457
939.20 0.9455
939.30 0.9454
939.40 0.9453
939.50 0.9451
939.60 0.945
939.70 0.9449
939.80 0.9447
939.90 0.9446
940.00 0.9445
940.10 0.9443
940.20 0.9442
940.30 0.9441
940.40 0.9439
940.50 0.9438
940.60 0.9437
940.70 0.9435
940.80 0.9434
940.90 0.9433
941.00 0.9431
941.10 0.943
941.20 0.9429
941.30 0.9427
941.40 0.9426
941.50 0.9425
941.60 0.9423
941.70 0.9422
941.80 0.9421
941.90 0.9419
942.00 0.9418
942.10 0.9417
942.20 0.9415
942.30 0.9414
942.40 0.9413
942.50 0.9411
942.60 0.941
942.70 0.9409
942.80 0.9407
942.90 0.9406
943.00 0.9405
943.10 0.9403
943.20 0.9402
943.30 0.9401
943.40 0.9399
943.50 0.9398
943.60 0.9397
943.70 0.9395
943.80 0.9394
943.90 0.9393
944.00 0.9391
944.10 0.939
944.20 0.9389
944.30 0.9387
944.40 0.9386
944.50 0.9385
944.60 0.9383
944.70 0.9382
944.80 0.9381
944.90 0.9379
945.00 0.9378
945.10 0.9377
945.20 0.9375
945.30 0.9374
945.40 0.9373
945.50 0.9371
945.60 0.937
945.70 0.9369
945.80 0.9367
945.90 0.9366
946.00 0.9365
946.10 0.9363
946.20 0.9362
946.30 0.9361
946.40 0.9359
946.50 0.9358
946.60 0.9357
946.70 0.9355
946.80 0.9354
946.90 0.9353
947.00 0.9351
947.10 0.935
947.20 0.9349
947.30 0.9347
947.40 0.9346
947.50 0.9345
947.60 0.9343
947.70 0.9342
947.80 0.9341
947.90 0.9339
948.00 0.9338
948.10 0.9336
948.20 0.9335
948.30 0.9334
948.40 0.9332
948.50 0.9331
948.60 0.933
948.70 0.9328
948.80 0.9327
948.90 0.9326
949.00 0.9324
949.10 0.9323
949.20 0.9322
949.30 0.932
949.40 0.9319
949.50 0.9318
949.60 0.9316
949.70 0.9315
949.80 0.9314
949.90 0.9312
950.00 0.9311
950.10 0.931
950.20 0.9308
950.30 0.9307
950.40 0.9306
950.50 0.9304
950.60 0.9303
950.70 0.9302
950.80 0.93
950.90 0.9299
951.00 0.9298
951.10 0.9296
951.20 0.9295
951.30 0.9294
951.40 0.9292
951.50 0.9291
951.60 0.929
951.70 0.9288
951.80 0.9287
951.90 0.9286
952.00 0.9284
952.10 0.9283
952.20 0.9282
952.30 0.928
952.40 0.9279
952.50 0.9278
952.60 0.9276
952.70 0.9275
952.80 0.9274
952.90 0.9272
953.00 0.9271
953.10 0.927
953.20 0.9268
953.30 0.9267
953.40 0.9266
953.50 0.9264
953.60 0.9263
953.70 0.9262
953.80 0.926
953.90 0.9259
954.00 0.9257
954.10 0.9256
954.20 0.9255
954.30 0.9254
954.40 0.9252
954.50 0.9251
954.60 0.9249
954.70 0.9248
954.80 0.9247
954.90 0.9245
955.00 0.9244
955.10 0.9243
955.20 0.9241
955.30 0.924
955.40 0.9239
955.50 0.9237
955.60 0.9236
955.70 0.9235
955.80 0.9233
955.90 0.9232
956.00 0.9231
956.10 0.9229
956.20 0.9228
956.30 0.9227
956.40 0.9225
956.50 0.9224
956.60 0.9223
956.70 0.9221
956.80 0.922
956.90 0.9219
957.00 0.9217
957.10 0.9216
957.20 0.9215
957.30 0.9213
957.40 0.9212
957.50 0.9211
957.60 0.9209
957.70 0.9208
957.80 0.9207
957.90 0.9205
958.00 0.9204
958.10 0.9203
958.20 0.9201
958.30 0.92
958.40 0.9199
958.50 0.9197
958.60 0.9196
958.70 0.9195
958.80 0.9193
958.90 0.9192
959.00 0.9191
959.10 0.9189
959.20 0.9188
959.30 0.9187
959.40 0.9185
959.50 0.9184
959.60 0.9183
959.70 0.9181
959.80 0.918
959.90 0.9178
960.00 0.9177
960.10 0.9176
960.20 0.9174
960.30 0.9173
960.40 0.9172
960.50 0.917
960.60 0.9169
960.70 0.9168
960.80 0.9166
960.90 0.9165
961.00 0.9164
961.10 0.9162
961.20 0.9161
961.30 0.916
961.40 0.9158
961.50 0.9157
961.60 0.9156
961.70 0.9154
961.80 0.9153
961.90 0.9152
962.00 0.915
962.10 0.9149
962.20 0.9148
962.30 0.9146
962.40 0.9145
962.50 0.9144
962.60 0.9142
962.70 0.9141
962.80 0.914
962.90 0.9138
963.00 0.9137
963.10 0.9136
963.20 0.9134
963.30 0.9133
963.40 0.9132
963.50 0.913
963.60 0.9129
963.70 0.9128
963.80 0.9126
963.90 0.9125
964.00 0.9124
964.10 0.9122
964.20 0.9121
964.30 0.912
964.40 0.9118
964.50 0.9117
964.60 0.9115
964.70 0.9114
964.80 0.9113
964.90 0.9111
965.00 0.911
965.10 0.9109
965.20 0.9107
965.30 0.9106
965.40 0.9105
965.50 0.9103
965.60 0.9102
965.70 0.9101
965.80 0.9099
965.90 0.9098
966.00 0.9097
966.10 0.9095
966.20 0.9094
966.30 0.9093
966.40 0.9091
966.50 0.909
966.60 0.9089
966.70 0.9087
966.80 0.9086
966.90 0.9085
967.00 0.9083
967.10 0.9082
967.20 0.9081
967.30 0.9079
967.40 0.9078
967.50 0.9077
967.60 0.9075
967.70 0.9074
967.80 0.9072
967.90 0.9071
968.00 0.907
968.10 0.9068
968.20 0.9067
968.30 0.9066
968.40 0.9064
968.50 0.9063
968.60 0.9062
968.70 0.906
968.80 0.9059
968.90 0.9058
969.00 0.9056
969.10 0.9055
969.20 0.9054
969.30 0.9052
969.40 0.9051
969.50 0.905
969.60 0.9048
969.70 0.9047
969.80 0.9046
969.90 0.9044
970.00 0.9043
970.10 0.9042
970.20 0.904
970.30 0.9039
970.40 0.9038
970.50 0.9036
970.60 0.9035
970.70 0.9034
970.80 0.9032
970.90 0.9031
971.00 0.903
971.10 0.9028
971.20 0.9027
971.30 0.9026
971.40 0.9024
971.50 0.9023
971.60 0.9022
971.70 0.902
971.80 0.9019
971.90 0.9018
972.00 0.9016
972.10 0.9015
972.20 0.9014
972.30 0.9012
972.40 0.9011
972.50 0.901
972.60 0.9008
972.70 0.9007
972.80 0.9006
972.90 0.9004
973.00 0.9003
973.10 0.9002
973.20 0.9
973.30 0.8999
973.40 0.8998
973.50 0.8996
973.60 0.8995
973.70 0.8994
973.80 0.8992
973.90 0.8991
974.00 0.899
974.10 0.8988
974.20 0.8987
974.30 0.8986
974.40 0.8984
974.50 0.8983
974.60 0.8981
974.70 0.898
974.80 0.8979
974.90 0.8977
975.00 0.8976
975.10 0.8975
975.20 0.8973
975.30 0.8972
975.40 0.8971
975.50 0.8969
975.60 0.8968
975.70 0.8967
975.80 0.8965
975.90 0.8964
976.00 0.8963
976.10 0.8961
976.20 0.896
976.30 0.8959
976.40 0.8957
976.50 0.8956
976.60 0.8955
976.70 0.8953
976.80 0.8952
976.90 0.8951
977.00 0.8949
977.10 0.8948
977.20 0.8946
977.30 0.8945
977.40 0.8944
977.50 0.8942
977.60 0.8941
977.70 0.894
977.80 0.8938
977.90 0.8937
978.00 0.8936
978.10 0.8934
978.20 0.8933
978.30 0.8932
978.40 0.893
978.50 0.8929
978.60 0.8928
978.70 0.8926
978.80 0.8925
978.90 0.8924
979.00 0.8922
979.10 0.8921
979.20 0.892
979.30 0.8918
979.40 0.8917
979.50 0.8916
979.60 0.8914
979.70 0.8913
979.80 0.8912
979.90 0.891
980.00 0.8909
980.10 0.8908
980.20 0.8906
980.30 0.8905
980.40 0.8904
980.50 0.8902
980.60 0.8901
980.70 0.89
980.80 0.8898
980.90 0.8897
981.00 0.8896
981.10 0.8894
981.20 0.8893
981.30 0.8892
981.40 0.889
981.50 0.8889
981.60 0.8888
981.70 0.8886
981.80 0.8885
981.90 0.8884
982.00 0.8882
982.10 0.8881
982.20 0.888
982.30 0.8878
982.40 0.8877
982.50 0.8876
982.60 0.8874
982.70 0.8873
982.80 0.8872
982.90 0.887
983.00 0.8869
983.10 0.8868
983.20 0.8866
983.30 0.8865
983.40 0.8864
983.50 0.8862
983.60 0.8861
983.70 0.886
983.80 0.8858
983.90 0.8857
984.00 0.8856
984.10 0.8854
984.20 0.8853
984.30 0.8852
984.40 0.885
984.50 0.8849
984.60 0.8848
984.70 0.8846
984.80 0.8845
984.90 0.8844
985.00 0.8842
985.10 0.8841
985.20 0.884
985.30 0.8838
985.40 0.8837
985.50 0.8836
985.60 0.8834
985.70 0.8833
985.80 0.8832
985.90 0.883
986.00 0.8829
986.10 0.8828
986.20 0.8826
986.30 0.8825
986.40 0.8824
986.50 0.8822
986.60 0.8821
986.70 0.882
986.80 0.8818
986.90 0.8817
987.00 0.8816
987.10 0.8814
987.20 0.8813
987.30 0.8812
987.40 0.881
987.50 0.8809
987.60 0.8808
987.70 0.8806
987.80 0.8805
987.90 0.8804
988.00 0.8802
988.10 0.8801
988.20 0.88
988.30 0.8798
988.40 0.8797
988.50 0.8796
988.60 0.8794
988.70 0.8793
988.80 0.8792
988.90 0.879
989.00 0.8789
989.10 0.8788
989.20 0.8786
989.30 0.8785
989.40 0.8784
989.50 0.8782
989.60 0.8781
989.70 0.878
989.80 0.8778
989.90 0.8777
990.00 0.8776
990.10 0.8774
990.20 0.8773
990.30 0.8772
990.40 0.877
990.50 0.8769
990.60 0.8768
990.70 0.8766
990.80 0.8765
990.90 0.8764
991.00 0.8762
991.10 0.8761
991.20 0.876
991.30 0.8758
991.40 0.8757
991.50 0.8756
991.60 0.8754
991.70 0.8753
991.80 0.8752
991.90 0.875
992.00 0.8749
992.10 0.8748
992.20 0.8746
992.30 0.8745
992.40 0.8744
992.50 0.8742
992.60 0.8741
992.70 0.874
992.80 0.8739
992.90 0.8737
993.00 0.8736
993.10 0.8735
993.20 0.8733
993.30 0.8732
993.40 0.8731
993.50 0.8729
993.60 0.8728
993.70 0.8727
993.80 0.8725
993.90 0.8724
994.00 0.8723
994.10 0.8721
994.20 0.872
994.30 0.8719
994.40 0.8717
994.50 0.8716
994.60 0.8715
994.70 0.8713
994.80 0.8712
994.90 0.8711
995.00 0.8709
995.10 0.8708
995.20 0.8707
995.30 0.8705
995.40 0.8704
995.50 0.8703
995.60 0.8701
995.70 0.87
995.80 0.8699
995.90 0.8697
996.00 0.8696
996.10 0.8695
996.20 0.8693
996.30 0.8692
996.40 0.8691
996.50 0.8689
996.60 0.8688
996.70 0.8687
996.80 0.8685
996.90 0.8684
997.00 0.8683
997.10 0.8681
997.20 0.868
997.30 0.8679
997.40 0.8678
997.50 0.8676
997.60 0.8675
997.70 0.8674
997.80 0.8672
997.90 0.8671
998.00 0.867
998.10 0.8668
998.20 0.8667
998.30 0.8666
998.40 0.8664
998.50 0.8663
998.60 0.8662
998.70 0.866
998.80 0.8659
998.90 0.8658
999.00 0.8656
999.10 0.8655
999.20 0.8654
999.30 0.8652
999.40 0.8651
999.50 0.865
999.60 0.8648
999.70 0.8647
999.80 0.8646
999.90 0.8644
1000.00 0.8643
1000.10 0.8642
1000.20 0.8641
1000.30 0.8639
1000.40 0.8638
1000.50 0.8637
1000.60 0.8635
1000.70 0.8634
1000.80 0.8633
1000.90 0.8631
1001.00 0.863
1001.10 0.8629
1001.20 0.8627
1001.30 0.8626
1001.40 0.8625
1001.50 0.8623
1001.60 0.8622
1001.70 0.8621
1001.80 0.8619
1001.90 0.8618
1002.00 0.8617
1002.10 0.8615
1002.20 0.8614
1002.30 0.8613
1002.40 0.8612
1002.50 0.861
1002.60 0.8609
1002.70 0.8608
1002.80 0.8606
1002.90 0.8605
1003.00 0.8604
1003.10 0.8602
1003.20 0.8601
1003.30 0.86
1003.40 0.8598
1003.50 0.8597
1003.60 0.8596
1003.70 0.8595
1003.80 0.8593
1003.90 0.8592
1004.00 0.8591
1004.10 0.8589
1004.20 0.8588
1004.30 0.8586
1004.40 0.8585
1004.50 0.8584
1004.60 0.8583
1004.70 0.8581
1004.80 0.858
1004.90 0.8579
1005.00 0.8577
1005.10 0.8576
1005.20 0.8575
1005.30 0.8573
1005.40 0.8572
1005.50 0.8571
1005.60 0.8569
1005.70 0.8568
1005.80 0.8567
1005.90 0.8565
1006.00 0.8564
1006.10 0.8563
1006.20 0.8561
1006.30 0.856
1006.40 0.8559
1006.50 0.8558
1006.60 0.8556
1006.70 0.8555
1006.80 0.8554
1006.90 0.8552
1007.00 0.8551
1007.10 0.855
1007.20 0.8548
1007.30 0.8547
1007.40 0.8546
1007.50 0.8544
1007.60 0.8543
1007.70 0.8542
1007.80 0.8541
1007.90 0.8539
1008.00 0.8538
1008.10 0.8537
1008.20 0.8535
1008.30 0.8534
1008.40 0.8533
1008.50 0.8531
1008.60 0.853
1008.70 0.8529
1008.80 0.8527
1008.90 0.8526
1009.00 0.8525
1009.10 0.8523
1009.20 0.8522
1009.30 0.8521
1009.40 0.852
1009.50 0.8518
1009.60 0.8517
1009.70 0.8516
1009.80 0.8514
1009.90 0.8513
1010.00 0.8512
1010.10 0.851
1010.20 0.8509
1010.30 0.8508
1010.40 0.8506
1010.50 0.8505
1010.60 0.8504
1010.70 0.8503
1010.80 0.8501
1010.90 0.85
1011.00 0.8499
1011.10 0.8497
1011.20 0.8496
1011.30 0.8495
1011.40 0.8493
1011.50 0.8492
1011.60 0.8491
1011.70 0.8489
1011.80 0.8488
1011.90 0.8487
1012.00 0.8486
1012.10 0.8484
1012.20 0.8483
1012.30 0.8482
1012.40 0.848
1012.50 0.8479
1012.60 0.8478
1012.70 0.8476
1012.80 0.8475
1012.90 0.8474
1013.00 0.8472
1013.10 0.8471
1013.20 0.847
1013.30 0.8468
1013.40 0.8467
1013.50 0.8466
1013.60 0.8465
1013.70 0.8463
1013.80 0.8462
1013.90 0.8461
1014.00 0.8459
1014.10 0.8458
1014.20 0.8457
1014.30 0.8456
1014.40 0.8454
1014.50 0.8453
1014.60 0.8452
1014.70 0.845
1014.80 0.8449
1014.90 0.8448
1015.00 0.8446
1015.10 0.8445
1015.20 0.8444
1015.30 0.8443
1015.40 0.8441
1015.50 0.844
1015.60 0.8439
1015.70 0.8437
1015.80 0.8436
1015.90 0.8435
1016.00 0.8433
1016.10 0.8432
1016.20 0.8431
1016.30 0.8429
1016.40 0.8428
1016.50 0.8427
1016.60 0.8425
1016.70 0.8424
1016.80 0.8423
1016.90 0.8422
1017.00 0.842
1017.10 0.8419
1017.20 0.8418
1017.30 0.8416
1017.40 0.8415
1017.50 0.8414
1017.60 0.8413
1017.70 0.8411
1017.80 0.841
1017.90 0.8409
1018.00 0.8407
1018.10 0.8406
1018.20 0.8405
1018.30 0.8403
1018.40 0.8402
1018.50 0.8401
1018.60 0.84
1018.70 0.8398
1018.80 0.8397
1018.90 0.8396
1019.00 0.8394
1019.10 0.8393
1019.20 0.8392
1019.30 0.839
1019.40 0.8389
1019.50 0.8388
1019.60 0.8387
1019.70 0.8385
1019.80 0.8384
1019.90 0.8383
1020.00 0.8381
1020.10 0.838
1020.20 0.8379
1020.30 0.8377
1020.40 0.8376
1020.50 0.8375
1020.60 0.8374
1020.70 0.8372
1020.80 0.8371
1020.90 0.837
1021.00 0.8368
1021.10 0.8367
1021.20 0.8366
1021.30 0.8364
1021.40 0.8363
1021.50 0.8362
1021.60 0.836
1021.70 0.8359
1021.80 0.8358
1021.90 0.8357
1022.00 0.8355
1022.10 0.8354
1022.20 0.8353
1022.30 0.8351
1022.40 0.835
1022.50 0.8349
1022.60 0.8347
1022.70 0.8346
1022.80 0.8345
1022.90 0.8344
1023.00 0.8342
1023.10 0.8341
1023.20 0.834
1023.30 0.8338
1023.40 0.8337
1023.50 0.8336
1023.60 0.8335
1023.70 0.8333
1023.80 0.8332
1023.90 0.8331
1024.00 0.8329
1024.10 0.8328
1024.20 0.8327
1024.30 0.8326
1024.40 0.8324
1024.50 0.8323
1024.60 0.8322
1024.70 0.832
1024.80 0.8319
1024.90 0.8318
1025.00 0.8317
1025.10 0.8315
1025.20 0.8314
1025.30 0.8313
1025.40 0.8311
1025.50 0.831
1025.60 0.8309
1025.70 0.8308
1025.80 0.8306
1025.90 0.8305
1026.00 0.8304
1026.10 0.8302
1026.20 0.8301
1026.30 0.83
1026.40 0.8299
1026.50 0.8297
1026.60 0.8296
1026.70 0.8295
1026.80 0.8293
1026.90 0.8292
1027.00 0.8291
1027.10 0.8289
1027.20 0.8288
1027.30 0.8287
1027.40 0.8286
1027.50 0.8284
1027.60 0.8283
1027.70 0.8282
1027.80 0.828
1027.90 0.8279
1028.00 0.8278
1028.10 0.8277
1028.20 0.8275
1028.30 0.8274
1028.40 0.8273
1028.50 0.8271
1028.60 0.827
1028.70 0.8269
1028.80 0.8268
1028.90 0.8266
1029.00 0.8265
1029.10 0.8264
1029.20 0.8262
1029.30 0.8261
1029.40 0.826
1029.50 0.8259
1029.60 0.8257
1029.70 0.8256
1029.80 0.8255
1029.90 0.8253
1030.00 0.8252
1030.10 0.8251
1030.20 0.825
1030.30 0.8248
1030.40 0.8247
1030.50 0.8246
1030.60 0.8245
1030.70 0.8243
1030.80 0.8242
1030.90 0.8241
1031.00 0.8239
1031.10 0.8238
1031.20 0.8237
1031.30 0.8236
1031.40 0.8234
1031.50 0.8233
1031.60 0.8232
1031.70 0.8231
1031.80 0.8229
1031.90 0.8228
1032.00 0.8227
1032.10 0.8225
1032.20 0.8224
1032.30 0.8223
1032.40 0.8222
1032.50 0.822
1032.60 0.8219
1032.70 0.8218
1032.80 0.8216
1032.90 0.8215
1033.00 0.8214
1033.10 0.8213
1033.20 0.8211
1033.30 0.821
1033.40 0.8209
1033.50 0.8207
1033.60 0.8206
1033.70 0.8205
1033.80 0.8204
1033.90 0.8202
1034.00 0.8201
1034.10 0.82
1034.20 0.8198
1034.30 0.8197
1034.40 0.8196
1034.50 0.8195
1034.60 0.8193
1034.70 0.8192
1034.80 0.8191
1034.90 0.819
1035.00 0.8188
1035.10 0.8187
1035.20 0.8186
1035.30 0.8184
1035.40 0.8183
1035.50 0.8182
1035.60 0.8181
1035.70 0.8179
1035.80 0.8178
1035.90 0.8177
1036.00 0.8175
1036.10 0.8174
1036.20 0.8173
1036.30 0.8172
1036.40 0.817
1036.50 0.8169
1036.60 0.8168
1036.70 0.8167
1036.80 0.8165
1036.90 0.8164
1037.00 0.8163
1037.10 0.8161
1037.20 0.816
1037.30 0.8159
1037.40 0.8158
1037.50 0.8156
1037.60 0.8155
1037.70 0.8154
1037.80 0.8153
1037.90 0.8151
1038.00 0.815
1038.10 0.8149
1038.20 0.8147
1038.30 0.8146
1038.40 0.8145
1038.50 0.8144
1038.60 0.8142
1038.70 0.8141
1038.80 0.814
1038.90 0.8139
1039.00 0.8137
1039.10 0.8136
1039.20 0.8135
1039.30 0.8134
1039.40 0.8132
1039.50 0.8131
1039.60 0.813
1039.70 0.8128
1039.80 0.8127
1039.90 0.8126
1040.00 0.8125
1040.10 0.8123
1040.20 0.8122
1040.30 0.8121
1040.40 0.812
1040.50 0.8118
1040.60 0.8117
1040.70 0.8116
1040.80 0.8115
1040.90 0.8113
1041.00 0.8112
1041.10 0.8111
1041.20 0.811
1041.30 0.8108
1041.40 0.8107
1041.50 0.8106
1041.60 0.8104
1041.70 0.8103
1041.80 0.8102
1041.90 0.8101
1042.00 0.8099
1042.10 0.8098
1042.20 0.8097
1042.30 0.8096
1042.40 0.8094
1042.50 0.8093
1042.60 0.8092
1042.70 0.8091
1042.80 0.8089
1042.90 0.8088
1043.00 0.8087
1043.10 0.8086
1043.20 0.8084
1043.30 0.8083
1043.40 0.8082
1043.50 0.8081
1043.60 0.8079
1043.70 0.8078
1043.80 0.8077
1043.90 0.8076
1044.00 0.8074
1044.10 0.8073
1044.20 0.8072
1044.30 0.8071
1044.40 0.8069
1044.50 0.8068
1044.60 0.8067
1044.70 0.8065
1044.80 0.8064
1044.90 0.8063
1045.00 0.8062
1045.10 0.806
1045.20 0.8059
1045.30 0.8058
1045.40 0.8057
1045.50 0.8055
1045.60 0.8054
1045.70 0.8053
1045.80 0.8052
1045.90 0.805
1046.00 0.8049
1046.10 0.8048
1046.20 0.8047
1046.30 0.8045
1046.40 0.8044
1046.50 0.8043
1046.60 0.8042
1046.70 0.804
1046.80 0.8039
1046.90 0.8038
1047.00 0.8037
1047.10 0.8035
1047.20 0.8034
1047.30 0.8033
1047.40 0.8032
1047.50 0.803
1047.60 0.8029
1047.70 0.8028
1047.80 0.8027
1047.90 0.8025
1048.00 0.8024
1048.10 0.8023
1048.20 0.8022
1048.30 0.802
1048.40 0.8019
1048.50 0.8018
1048.60 0.8017
1048.70 0.8015
1048.80 0.8014
1048.90 0.8013
1049.00 0.8012
1049.10 0.801
1049.20 0.8009
1049.30 0.8008
1049.40 0.8007
1049.50 0.8005
1049.60 0.8004
1049.70 0.8003
1049.80 0.8002
1049.90 0.8
1050.00 0.7999
1050.10 0.7998
1050.20 0.7997
1050.30 0.7995
1050.40 0.7994
1050.50 0.7993
1050.60 0.7992
1050.70 0.799
1050.80 0.7989
1050.90 0.7988
1051.00 0.7987
1051.10 0.7985
1051.20 0.7984
1051.30 0.7983
1051.40 0.7982
1051.50 0.798
1051.60 0.7979
1051.70 0.7978
1051.80 0.7977
1051.90 0.7975
1052.00 0.7974
1052.10 0.7973
1052.20 0.7972
1052.30 0.797
1052.40 0.7969
1052.50 0.7968
1052.60 0.7967
1052.70 0.7966
1052.80 0.7964
1052.90 0.7963
1053.00 0.7962
1053.10 0.7961
1053.20 0.7959
1053.30 0.7958
1053.40 0.7957
1053.50 0.7956
1053.60 0.7954
1053.70 0.7953
1053.80 0.7952
1053.90 0.7951
1054.00 0.7949
1054.10 0.7948
1054.20 0.7947
1054.30 0.7946
1054.40 0.7944
1054.50 0.7943
1054.60 0.7942
1054.70 0.7941
1054.80 0.794
1054.90 0.7938
1055.00 0.7937
1055.10 0.7936
1055.20 0.7935
1055.30 0.7933
1055.40 0.7932
1055.50 0.7931
1055.60 0.793
1055.70 0.7928
1055.80 0.7927
1055.90 0.7926
1056.00 0.7925
1056.10 0.7924
1056.20 0.7922
1056.30 0.7921
1056.40 0.792
1056.50 0.7919
1056.60 0.7917
1056.70 0.7916
1056.80 0.7915
1056.90 0.7914
1057.00 0.7912
1057.10 0.7911
1057.20 0.791
1057.30 0.7909
1057.40 0.7908
1057.50 0.7906
1057.60 0.7905
1057.70 0.7904
1057.80 0.7903
1057.90 0.7901
1058.00 0.79
1058.10 0.7899
1058.20 0.7898
1058.30 0.7896
1058.40 0.7895
1058.50 0.7894
1058.60 0.7893
1058.70 0.7891
1058.80 0.789
1058.90 0.7889
1059.00 0.7888
1059.10 0.7887
1059.20 0.7885
1059.30 0.7884
1059.40 0.7883
1059.50 0.7882
1059.60 0.788
1059.70 0.7879
1059.80 0.7878
1059.90 0.7877
1060.00 0.7875
1060.10 0.7874
1060.20 0.7873
1060.30 0.7872
1060.40 0.7871
1060.50 0.7869
1060.60 0.7868
1060.70 0.7867
1060.80 0.7866
1060.90 0.7864
1061.00 0.7863
1061.10 0.7862
1061.20 0.7861
1061.30 0.7859
1061.40 0.7858
1061.50 0.7857
1061.60 0.7856
1061.70 0.7855
1061.80 0.7853
1061.90 0.7852
1062.00 0.7851
1062.10 0.785
1062.20 0.7848
1062.30 0.7847
1062.40 0.7846
1062.50 0.7845
1062.60 0.7844
1062.70 0.7842
1062.80 0.7841
1062.90 0.784
1063.00 0.7839
1063.10 0.7837
1063.20 0.7836
1063.30 0.7835
1063.40 0.7834
1063.50 0.7833
1063.60 0.7831
1063.70 0.783
1063.80 0.7829
1063.90 0.7828
1064.00 0.7826
1064.10 0.7825
1064.20 0.7824
1064.30 0.7823
1064.40 0.7822
1064.50 0.782
1064.60 0.7819
1064.70 0.7818
1064.80 0.7817
1064.90 0.7816
1065.00 0.7814
1065.10 0.7813
1065.20 0.7812
1065.30 0.7811
1065.40 0.7809
1065.50 0.7808
1065.60 0.7807
1065.70 0.7806
1065.80 0.7805
1065.90 0.7803
1066.00 0.7802
1066.10 0.7801
1066.20 0.78
1066.30 0.7799
1066.40 0.7797
1066.50 0.7796
1066.60 0.7795
1066.70 0.7794
1066.80 0.7793
1066.90 0.7791
1067.00 0.779
1067.10 0.7789
1067.20 0.7788
1067.30 0.7786
1067.40 0.7785
1067.50 0.7784
1067.60 0.7783
1067.70 0.7782
1067.80 0.778
1067.90 0.7779
1068.00 0.7778
1068.10 0.7777
1068.20 0.7776
1068.30 0.7774
1068.40 0.7773
1068.50 0.7772
1068.60 0.7771
1068.70 0.7769
1068.80 0.7768
1068.90 0.7767
1069.00 0.7766
1069.10 0.7765
1069.20 0.7763
1069.30 0.7762
1069.40 0.7761
1069.50 0.776
1069.60 0.7759
1069.70 0.7757
1069.80 0.7756
1069.90 0.7755
1070.00 0.7754
1070.10 0.7753
1070.20 0.7751
1070.30 0.775
1070.40 0.7749
1070.50 0.7748
1070.60 0.7747
1070.70 0.7745
1070.80 0.7744
1070.90 0.7743
1071.00 0.7742
1071.10 0.7741
1071.20 0.7739
1071.30 0.7738
1071.40 0.7737
1071.50 0.7736
1071.60 0.7734
1071.70 0.7733
1071.80 0.7732
1071.90 0.7731
1072.00 0.773
1072.10 0.7728
1072.20 0.7727
1072.30 0.7726
1072.40 0.7725
1072.50 0.7724
1072.60 0.7722
1072.70 0.7721
1072.80 0.772
1072.90 0.7719
1073.00 0.7718
1073.10 0.7716
1073.20 0.7715
1073.30 0.7714
1073.40 0.7713
1073.50 0.7712
1073.60 0.771
1073.70 0.7709
1073.80 0.7708
1073.90 0.7707
1074.00 0.7706
1074.10 0.7704
1074.20 0.7703
1074.30 0.7702
1074.40 0.7701
1074.50 0.77
1074.60 0.7698
1074.70 0.7697
1074.80 0.7696
1074.90 0.7695
1075.00 0.7694
1075.10 0.7692
1075.20 0.7691
1075.30 0.769
1075.40 0.7689
1075.50 0.7688
1075.60 0.7687
1075.70 0.7685
1075.80 0.7684
1075.90 0.7683
1076.00 0.7682
1076.10 0.7681
1076.20 0.7679
1076.30 0.7678
1076.40 0.7677
1076.50 0.7676
1076.60 0.7675
1076.70 0.7673
1076.80 0.7672
1076.90 0.7671
1077.00 0.767
1077.10 0.7669
1077.20 0.7667
1077.30 0.7666
1077.40 0.7665
1077.50 0.7664
1077.60 0.7663
1077.70 0.7661
1077.80 0.766
1077.90 0.7659
1078.00 0.7658
1078.10 0.7657
1078.20 0.7655
1078.30 0.7654
1078.40 0.7653
1078.50 0.7652
1078.60 0.7651
1078.70 0.765
1078.80 0.7648
1078.90 0.7647
1079.00 0.7646
1079.10 0.7645
1079.20 0.7644
1079.30 0.7642
1079.40 0.7641
1079.50 0.764
1079.60 0.7639
1079.70 0.7638
1079.80 0.7636
1079.90 0.7635
1080.00 0.7634
1080.10 0.7633
1080.20 0.7632
1080.30 0.763
1080.40 0.7629
1080.50 0.7628
1080.60 0.7627
1080.70 0.7626
1080.80 0.7624
1080.90 0.7623
1081.00 0.7622
1081.10 0.7621
1081.20 0.762
1081.30 0.7619
1081.40 0.7617
1081.50 0.7616
1081.60 0.7615
1081.70 0.7614
1081.80 0.7613
1081.90 0.7612
1082.00 0.761
1082.10 0.7609
1082.20 0.7608
1082.30 0.7607
1082.40 0.7606
1082.50 0.7604
1082.60 0.7603
1082.70 0.7602
1082.80 0.7601
1082.90 0.76
1083.00 0.7598
1083.10 0.7597
1083.20 0.7596
1083.30 0.7595
1083.40 0.7594
1083.50 0.7593
1083.60 0.7591
1083.70 0.759
1083.80 0.7589
1083.90 0.7588
1084.00 0.7587
1084.10 0.7585
1084.20 0.7584
1084.30 0.7583
1084.40 0.7582
1084.50 0.7581
1084.60 0.7579
1084.70 0.7578
1084.80 0.7577
1084.90 0.7576
1085.00 0.7575
1085.10 0.7574
1085.20 0.7572
1085.30 0.7571
1085.40 0.757
1085.50 0.7569
1085.60 0.7568
1085.70 0.7566
1085.80 0.7565
1085.90 0.7564
1086.00 0.7563
1086.10 0.7562
1086.20 0.756
1086.30 0.7559
1086.40 0.7558
1086.50 0.7557
1086.60 0.7556
1086.70 0.7555
1086.80 0.7554
1086.90 0.7552
1087.00 0.7551
1087.10 0.755
1087.20 0.7549
1087.30 0.7548
1087.40 0.7546
1087.50 0.7545
1087.60 0.7544
1087.70 0.7543
1087.80 0.7542
1087.90 0.7541
1088.00 0.7539
1088.10 0.7538
1088.20 0.7537
1088.30 0.7536
1088.40 0.7535
1088.50 0.7534
1088.60 0.7532
1088.70 0.7531
1088.80 0.753
1088.90 0.7529
1089.00 0.7528
1089.10 0.7526
1089.20 0.7525
1089.30 0.7524
1089.40 0.7523
1089.50 0.7522
1089.60 0.7521
1089.70 0.7519
1089.80 0.7518
1089.90 0.7517
1090.00 0.7516
1090.10 0.7515
1090.20 0.7513
1090.30 0.7512
1090.40 0.7511
1090.50 0.751
1090.60 0.7509
1090.70 0.7508
1090.80 0.7506
1090.90 0.7505
1091.00 0.7504
1091.10 0.7503
1091.20 0.7502
1091.30 0.7501
1091.40 0.7499
1091.50 0.7498
1091.60 0.7497
1091.70 0.7496
1091.80 0.7495
1091.90 0.7494
1092.00 0.7492
1092.10 0.7491
1092.20 0.749
1092.30 0.7489
1092.40 0.7488
1092.50 0.7487
1092.60 0.7485
1092.70 0.7484
1092.80 0.7483
1092.90 0.7482
1093.00 0.7481
1093.10 0.748
1093.20 0.7478
1093.30 0.7477
1093.40 0.7476
1093.50 0.7475
1093.60 0.7474
1093.70 0.7473
1093.80 0.7472
1093.90 0.747
1094.00 0.7469
1094.10 0.7468
1094.20 0.7467
1094.30 0.7466
1094.40 0.7465
1094.50 0.7463
1094.60 0.7462
1094.70 0.7461
1094.80 0.746
1094.90 0.7459
1095.00 0.7457
1095.10 0.7456
1095.20 0.7455
1095.30 0.7454
1095.40 0.7453
1095.50 0.7452
1095.60 0.7451
1095.70 0.7449
1095.80 0.7448
1095.90 0.7447
1096.00 0.7446
1096.10 0.7445
1096.20 0.7444
1096.30 0.7442
1096.40 0.7441
1096.50 0.744
1096.60 0.7439
1096.70 0.7438
1096.80 0.7437
1096.90 0.7436
1097.00 0.7434
1097.10 0.7433
1097.20 0.7432
1097.30 0.7431
1097.40 0.743
1097.50 0.7428
1097.60 0.7427
1097.70 0.7426
1097.80 0.7425
1097.90 0.7424
1098.00 0.7423
1098.10 0.7421
1098.20 0.742
1098.30 0.7419
1098.40 0.7418
1098.50 0.7417
1098.60 0.7416
1098.70 0.7414
1098.80 0.7413
1098.90 0.7412
1099.00 0.7411
1099.10 0.741
1099.20 0.7409
1099.30 0.7408
1099.40 0.7406
1099.50 0.7405
1099.60 0.7404
1099.70 0.7403
1099.80 0.7402
1099.90 0.7401
1100.00 0.7399
1100.10 0.7398
1100.20 0.7397
1100.30 0.7396
1100.40 0.7395
1100.50 0.7394
1100.60 0.7393
1100.70 0.7391
1100.80 0.739
1100.90 0.7389
1101.00 0.7388
1101.10 0.7387
1101.20 0.7386
1101.30 0.7384
1101.40 0.7383
1101.50 0.7382
1101.60 0.7381
1101.70 0.738
1101.80 0.7379
1101.90 0.7378
1102.00 0.7376
1102.10 0.7375
1102.20 0.7374
1102.30 0.7373
1102.40 0.7372
1102.50 0.7371
1102.60 0.7369
1102.70 0.7368
1102.80 0.7367
1102.90 0.7366
1103.00 0.7365
1103.10 0.7364
1103.20 0.7363
1103.30 0.7361
1103.40 0.736
1103.50 0.7359
1103.60 0.7358
1103.70 0.7357
1103.80 0.7356
1103.90 0.7354
1104.00 0.7353
1104.10 0.7352
1104.20 0.7351
1104.30 0.735
1104.40 0.7349
1104.50 0.7348
1104.60 0.7346
1104.70 0.7345
1104.80 0.7344
1104.90 0.7343
1105.00 0.7342
1105.10 0.7341
1105.20 0.734
1105.30 0.7338
1105.40 0.7337
1105.50 0.7336
1105.60 0.7335
1105.70 0.7334
1105.80 0.7333
1105.90 0.7332
1106.00 0.733
1106.10 0.7329
1106.20 0.7328
1106.30 0.7327
1106.40 0.7326
1106.50 0.7325
1106.60 0.7323
1106.70 0.7322
1106.80 0.7321
1106.90 0.732
1107.00 0.7319
1107.10 0.7318
1107.20 0.7317
1107.30 0.7315
1107.40 0.7314
1107.50 0.7313
1107.60 0.7312
1107.70 0.7311
1107.80 0.731
1107.90 0.7309
1108.00 0.7307
1108.10 0.7306
1108.20 0.7305
1108.30 0.7304
1108.40 0.7303
1108.50 0.7302
1108.60 0.73
1108.70 0.7299
1108.80 0.7298
1108.90 0.7297
1109.00 0.7296
1109.10 0.7295
1109.20 0.7294
1109.30 0.7292
1109.40 0.7291
1109.50 0.729
1109.60 0.7289
1109.70 0.7288
1109.80 0.7287
1109.90 0.7286
1110.00 0.7284
1110.10 0.7283
1110.20 0.7282
1110.30 0.7281
1110.40 0.728
1110.50 0.7279
1110.60 0.7278
1110.70 0.7277
1110.80 0.7275
1110.90 0.7274
1111.00 0.7273
1111.10 0.7272
1111.20 0.7271
1111.30 0.727
1111.40 0.7269
1111.50 0.7267
1111.60 0.7266
1111.70 0.7265
1111.80 0.7264
1111.90 0.7263
1112.00 0.7262
1112.10 0.7261
1112.20 0.726
1112.30 0.7258
1112.40 0.7257
1112.50 0.7256
1112.60 0.7255
1112.70 0.7254
1112.80 0.7253
1112.90 0.7252
1113.00 0.725
1113.10 0.7249
1113.20 0.7248
1113.30 0.7247
1113.40 0.7246
1113.50 0.7245
1113.60 0.7244
1113.70 0.7242
1113.80 0.7241
1113.90 0.724
1114.00 0.7239
1114.10 0.7238
1114.20 0.7237
1114.30 0.7236
1114.40 0.7234
1114.50 0.7233
1114.60 0.7232
1114.70 0.7231
1114.80 0.723
1114.90 0.7229
1115.00 0.7228
1115.10 0.7227
1115.20 0.7225
1115.30 0.7224
1115.40 0.7223
1115.50 0.7222
1115.60 0.7221
1115.70 0.722
1115.80 0.7219
1115.90 0.7217
1116.00 0.7216
1116.10 0.7215
1116.20 0.7214
1116.30 0.7213
1116.40 0.7212
1116.50 0.7211
1116.60 0.721
1116.70 0.7208
1116.80 0.7207
1116.90 0.7206
1117.00 0.7205
1117.10 0.7204
1117.20 0.7203
1117.30 0.7202
1117.40 0.7201
1117.50 0.7199
1117.60 0.7198
1117.70 0.7197
1117.80 0.7196
1117.90 0.7195
1118.00 0.7194
1118.10 0.7193
1118.20 0.7191
1118.30 0.719
1118.40 0.7189
1118.50 0.7188
1118.60 0.7187
1118.70 0.7186
1118.80 0.7185
1118.90 0.7184
1119.00 0.7182
1119.10 0.7181
1119.20 0.718
1119.30 0.7179
1119.40 0.7178
1119.50 0.7177
1119.60 0.7176
1119.70 0.7175
1119.80 0.7173
1119.90 0.7172
1120.00 0.7171
1120.10 0.717
1120.20 0.7169
1120.30 0.7168
1120.40 0.7167
1120.50 0.7166
1120.60 0.7164
1120.70 0.7163
1120.80 0.7162
1120.90 0.7161
1121.00 0.716
1121.10 0.7159
1121.20 0.7158
1121.30 0.7157
1121.40 0.7155
1121.50 0.7154
1121.60 0.7153
1121.70 0.7152
1121.80 0.7151
1121.90 0.715
1122.00 0.7149
1122.10 0.7148
1122.20 0.7146
1122.30 0.7145
1122.40 0.7144
1122.50 0.7143
1122.60 0.7142
1122.70 0.7141
1122.80 0.714
1122.90 0.7139
1123.00 0.7137
1123.10 0.7136
1123.20 0.7135
1123.30 0.7134
1123.40 0.7133
1123.50 0.7132
1123.60 0.7131
1123.70 0.713
1123.80 0.7128
1123.90 0.7127
1124.00 0.7126
1124.10 0.7125
1124.20 0.7124
1124.30 0.7123
1124.40 0.7122
1124.50 0.7121
1124.60 0.712
1124.70 0.7118
1124.80 0.7117
1124.90 0.7116
1125.00 0.7115
1125.10 0.7114
1125.20 0.7113
1125.30 0.7112
1125.40 0.7111
1125.50 0.7109
1125.60 0.7108
1125.70 0.7107
1125.80 0.7106
1125.90 0.7105
1126.00 0.7104
1126.10 0.7103
1126.20 0.7102
1126.30 0.7101
1126.40 0.7099
1126.50 0.7098
1126.60 0.7097
1126.70 0.7096
1126.80 0.7095
1126.90 0.7094
1127.00 0.7093
1127.10 0.7092
1127.20 0.7091
1127.30 0.7089
1127.40 0.7088
1127.50 0.7087
1127.60 0.7086
1127.70 0.7085
1127.80 0.7084
1127.90 0.7083
1128.00 0.7082
1128.10 0.708
1128.20 0.7079
1128.30 0.7078
1128.40 0.7077
1128.50 0.7076
1128.60 0.7075
1128.70 0.7074
1128.80 0.7073
1128.90 0.7072
1129.00 0.707
1129.10 0.7069
1129.20 0.7068
1129.30 0.7067
1129.40 0.7066
1129.50 0.7065
1129.60 0.7064
1129.70 0.7063
1129.80 0.7061
1129.90 0.706
1130.00 0.7059
1130.10 0.7058
1130.20 0.7057
1130.30 0.7056
1130.40 0.7055
1130.50 0.7054
1130.60 0.7053
1130.70 0.7051
1130.80 0.705
1130.90 0.7049
1131.00 0.7048
1131.10 0.7047
1131.20 0.7046
1131.30 0.7045
1131.40 0.7044
1131.50 0.7043
1131.60 0.7041
1131.70 0.704
1131.80 0.7039
1131.90 0.7038
1132.00 0.7037
1132.10 0.7036
1132.20 0.7035
1132.30 0.7034
1132.40 0.7033
1132.50 0.7031
1132.60 0.703
1132.70 0.7029
1132.80 0.7028
1132.90 0.7027
1133.00 0.7026
1133.10 0.7025
1133.20 0.7024
1133.30 0.7023
1133.40 0.7022
1133.50 0.702
1133.60 0.7019
1133.70 0.7018
1133.80 0.7017
1133.90 0.7016
1134.00 0.7015
1134.10 0.7014
1134.20 0.7013
1134.30 0.7012
1134.40 0.701
1134.50 0.7009
1134.60 0.7008
1134.70 0.7007
1134.80 0.7006
1134.90 0.7005
1135.00 0.7004
1135.10 0.7003
1135.20 0.7002
1135.30 0.7001
1135.40 0.6999
1135.50 0.6998
1135.60 0.6997
1135.70 0.6996
1135.80 0.6995
1135.90 0.6994
1136.00 0.6993
1136.10 0.6992
1136.20 0.6991
1136.30 0.699
1136.40 0.6988
1136.50 0.6987
1136.60 0.6986
1136.70 0.6985
1136.80 0.6984
1136.90 0.6983
1137.00 0.6982
1137.10 0.6981
1137.20 0.698
1137.30 0.6978
1137.40 0.6977
1137.50 0.6976
1137.60 0.6975
1137.70 0.6974
1137.80 0.6973
1137.90 0.6972
1138.00 0.6971
1138.10 0.697
1138.20 0.6969
1138.30 0.6967
1138.40 0.6966
1138.50 0.6965
1138.60 0.6964
1138.70 0.6963
1138.80 0.6962
1138.90 0.6961
1139.00 0.696
1139.10 0.6959
1139.20 0.6957
1139.30 0.6956
1139.40 0.6955
1139.50 0.6954
1139.60 0.6953
1139.70 0.6952
1139.80 0.6951
1139.90 0.695
1140.00 0.6949
1140.10 0.6948
1140.20 0.6946
1140.30 0.6945
1140.40 0.6944
1140.50 0.6943
1140.60 0.6942
1140.70 0.6941
1140.80 0.694
1140.90 0.6939
1141.00 0.6938
1141.10 0.6937
1141.20 0.6935
1141.30 0.6934
1141.40 0.6933
1141.50 0.6932
1141.60 0.6931
1141.70 0.693
1141.80 0.6929
1141.90 0.6928
1142.00 0.6927
1142.10 0.6926
1142.20 0.6925
1142.30 0.6923
1142.40 0.6922
1142.50 0.6921
1142.60 0.692
1142.70 0.6919
1142.80 0.6918
1142.90 0.6917
1143.00 0.6916
1143.10 0.6915
1143.20 0.6914
1143.30 0.6912
1143.40 0.6911
1143.50 0.691
1143.60 0.6909
1143.70 0.6908
1143.80 0.6907
1143.90 0.6906
1144.00 0.6905
1144.10 0.6904
1144.20 0.6903
1144.30 0.6902
1144.40 0.69
1144.50 0.6899
1144.60 0.6898
1144.70 0.6897
1144.80 0.6896
1144.90 0.6895
1145.00 0.6894
1145.10 0.6893
1145.20 0.6892
1145.30 0.6891
1145.40 0.689
1145.50 0.6888
1145.60 0.6887
1145.70 0.6886
1145.80 0.6885
1145.90 0.6884
1146.00 0.6883
1146.10 0.6882
1146.20 0.6881
1146.30 0.688
1146.40 0.6879
1146.50 0.6878
1146.60 0.6876
1146.70 0.6875
1146.80 0.6874
1146.90 0.6873
1147.00 0.6872
1147.10 0.6871
1147.20 0.687
1147.30 0.6869
1147.40 0.6868
1147.50 0.6867
1147.60 0.6866
1147.70 0.6864
1147.80 0.6863
1147.90 0.6862
1148.00 0.6861
1148.10 0.686
1148.20 0.6859
1148.30 0.6858
1148.40 0.6857
1148.50 0.6856
1148.60 0.6855
1148.70 0.6854
1148.80 0.6852
1148.90 0.6851
1149.00 0.685
1149.10 0.6849
1149.20 0.6848
1149.30 0.6847
1149.40 0.6846
1149.50 0.6845
1149.60 0.6844
1149.70 0.6843
1149.80 0.6842
1149.90 0.6841
1150.00 0.6839
1150.10 0.6838
1150.20 0.6837
1150.30 0.6836
1150.40 0.6835
1150.50 0.6834
1150.60 0.6833
1150.70 0.6832
1150.80 0.6831
1150.90 0.683
1151.00 0.6829
1151.10 0.6828
1151.20 0.6826
1151.30 0.6825
1151.40 0.6824
1151.50 0.6823
1151.60 0.6822
1151.70 0.6821
1151.80 0.682
1151.90 0.6819
1152.00 0.6818
1152.10 0.6817
1152.20 0.6816
1152.30 0.6815
1152.40 0.6813
1152.50 0.6812
1152.60 0.6811
1152.70 0.681
1152.80 0.6809
1152.90 0.6808
1153.00 0.6807
1153.10 0.6806
1153.20 0.6805
1153.30 0.6804
1153.40 0.6803
1153.50 0.6801
1153.60 0.68
1153.70 0.6799
1153.80 0.6798
1153.90 0.6797
1154.00 0.6796
1154.10 0.6795
1154.20 0.6794
1154.30 0.6793
1154.40 0.6792
1154.50 0.6791
1154.60 0.679
1154.70 0.6788
1154.80 0.6787
1154.90 0.6786
1155.00 0.6785
1155.10 0.6784
1155.20 0.6783
1155.30 0.6782
1155.40 0.6781
1155.50 0.678
1155.60 0.6779
1155.70 0.6778
1155.80 0.6777
1155.90 0.6775
1156.00 0.6774
1156.10 0.6773
1156.20 0.6772
1156.30 0.6771
1156.40 0.677
1156.50 0.6769
1156.60 0.6768
1156.70 0.6767
1156.80 0.6766
1156.90 0.6765
1157.00 0.6764
1157.10 0.6763
1157.20 0.6761
1157.30 0.676
1157.40 0.6759
1157.50 0.6758
1157.60 0.6757
1157.70 0.6756
1157.80 0.6755
1157.90 0.6754
1158.00 0.6753
1158.10 0.6752
1158.20 0.6751
1158.30 0.675
1158.40 0.6748
1158.50 0.6747
1158.60 0.6746
1158.70 0.6745
1158.80 0.6744
1158.90 0.6743
1159.00 0.6742
1159.10 0.6741
1159.20 0.674
1159.30 0.6739
1159.40 0.6738
1159.50 0.6737
1159.60 0.6736
1159.70 0.6734
1159.80 0.6733
1159.90 0.6732
1160.00 0.6731
1160.10 0.673
1160.20 0.6729
1160.30 0.6728
1160.40 0.6727
1160.50 0.6726
1160.60 0.6725
1160.70 0.6724
1160.80 0.6723
1160.90 0.6722
1161.00 0.672
1161.10 0.6719
1161.20 0.6718
1161.30 0.6717
1161.40 0.6716
1161.50 0.6715
1161.60 0.6714
1161.70 0.6713
1161.80 0.6712
1161.90 0.6711
1162.00 0.671
1162.10 0.6709
1162.20 0.6708
1162.30 0.6707
1162.40 0.6705
1162.50 0.6704
1162.60 0.6703
1162.70 0.6702
1162.80 0.6701
1162.90 0.67
1163.00 0.6699
1163.10 0.6698
1163.20 0.6697
1163.30 0.6696
1163.40 0.6695
1163.50 0.6694
1163.60 0.6693
1163.70 0.6692
1163.80 0.669
1163.90 0.6689
1164.00 0.6688
1164.10 0.6687
1164.20 0.6686
1164.30 0.6685
1164.40 0.6684
1164.50 0.6683
1164.60 0.6682
1164.70 0.6681
1164.80 0.668
1164.90 0.6679
1165.00 0.6678
1165.10 0.6677
1165.20 0.6676
1165.30 0.6674
1165.40 0.6673
1165.50 0.6672
1165.60 0.6671
1165.70 0.667
1165.80 0.6669
1165.90 0.6668
1166.00 0.6667
1166.10 0.6666
1166.20 0.6665
1166.30 0.6664
1166.40 0.6663
1166.50 0.6662
1166.60 0.6661
1166.70 0.666
1166.80 0.6659
1166.90 0.6657
1167.00 0.6656
1167.10 0.6655
1167.20 0.6654
1167.30 0.6653
1167.40 0.6652
1167.50 0.6651
1167.60 0.665
1167.70 0.6649
1167.80 0.6648
1167.90 0.6647
1168.00 0.6646
1168.10 0.6645
1168.20 0.6644
1168.30 0.6643
1168.40 0.6641
1168.50 0.664
1168.60 0.6639
1168.70 0.6638
1168.80 0.6637
1168.90 0.6636
1169.00 0.6635
1169.10 0.6634
1169.20 0.6633
1169.30 0.6632
1169.40 0.6631
1169.50 0.663
1169.60 0.6629
1169.70 0.6628
1169.80 0.6627
1169.90 0.6625
1170.00 0.6624
1170.10 0.6623
1170.20 0.6622
1170.30 0.6621
1170.40 0.662
1170.50 0.6619
1170.60 0.6618
1170.70 0.6617
1170.80 0.6616
1170.90 0.6615
1171.00 0.6614
1171.10 0.6613
1171.20 0.6612
1171.30 0.6611
1171.40 0.661
1171.50 0.6608
1171.60 0.6607
1171.70 0.6606
1171.80 0.6605
1171.90 0.6604
1172.00 0.6603
1172.10 0.6602
1172.20 0.6601
1172.30 0.66
1172.40 0.6599
1172.50 0.6598
1172.60 0.6597
1172.70 0.6596
1172.80 0.6595
1172.90 0.6594
1173.00 0.6593
1173.10 0.6591
1173.20 0.659
1173.30 0.6589
1173.40 0.6588
1173.50 0.6587
1173.60 0.6586
1173.70 0.6585
1173.80 0.6584
1173.90 0.6583
1174.00 0.6582
1174.10 0.6581
1174.20 0.658
1174.30 0.6579
1174.40 0.6578
1174.50 0.6577
1174.60 0.6576
1174.70 0.6574
1174.80 0.6573
1174.90 0.6572
1175.00 0.6571
1175.10 0.657
1175.20 0.6569
1175.30 0.6568
1175.40 0.6567
1175.50 0.6566
1175.60 0.6565
1175.70 0.6564
1175.80 0.6563
1175.90 0.6562
1176.00 0.6561
1176.10 0.656
1176.20 0.6559
1176.30 0.6558
1176.40 0.6557
1176.50 0.6555
1176.60 0.6554
1176.70 0.6553
1176.80 0.6552
1176.90 0.6551
1177.00 0.655
1177.10 0.6549
1177.20 0.6548
1177.30 0.6547
1177.40 0.6546
1177.50 0.6545
1177.60 0.6544
1177.70 0.6543
1177.80 0.6542
1177.90 0.6541
1178.00 0.654
1178.10 0.6539
1178.20 0.6538
1178.30 0.6536
1178.40 0.6535
1178.50 0.6534
1178.60 0.6533
1178.70 0.6532
1178.80 0.6531
1178.90 0.653
1179.00 0.6529
1179.10 0.6528
1179.20 0.6527
1179.30 0.6526
1179.40 0.6525
1179.50 0.6524
1179.60 0.6523
1179.70 0.6522
1179.80 0.6521
1179.90 0.652
1180.00 0.6519
1180.10 0.6518
1180.20 0.6516
1180.30 0.6515
1180.40 0.6514
1180.50 0.6513
1180.60 0.6512
1180.70 0.6511
1180.80 0.651
1180.90 0.6509
1181.00 0.6508
1181.10 0.6507
1181.20 0.6506
1181.30 0.6505
1181.40 0.6504
1181.50 0.6503
1181.60 0.6502
1181.70 0.6501
1181.80 0.65
1181.90 0.6499
1182.00 0.6498
1182.10 0.6497
1182.20 0.6495
1182.30 0.6494
1182.40 0.6493
1182.50 0.6492
1182.60 0.6491
1182.70 0.649
1182.80 0.6489
1182.90 0.6488
1183.00 0.6487
1183.10 0.6486
1183.20 0.6485
1183.30 0.6484
1183.40 0.6483
1183.50 0.6482
1183.60 0.6481
1183.70 0.648
1183.80 0.6479
1183.90 0.6478
1184.00 0.6477
1184.10 0.6475
1184.20 0.6474
1184.30 0.6473
1184.40 0.6472
1184.50 0.6471
1184.60 0.647
1184.70 0.6469
1184.80 0.6468
1184.90 0.6467
1185.00 0.6466
1185.10 0.6465
1185.20 0.6464
1185.30 0.6463
1185.40 0.6462
1185.50 0.6461
1185.60 0.646
1185.70 0.6459
1185.80 0.6458
1185.90 0.6457
1186.00 0.6456
1186.10 0.6454
1186.20 0.6453
1186.30 0.6452
1186.40 0.6451
1186.50 0.645
1186.60 0.6449
1186.70 0.6448
1186.80 0.6447
1186.90 0.6446
1187.00 0.6445
1187.10 0.6444
1187.20 0.6443
1187.30 0.6442
1187.40 0.6441
1187.50 0.644
1187.60 0.6439
1187.70 0.6438
1187.80 0.6437
1187.90 0.6436
1188.00 0.6435
1188.10 0.6434
1188.20 0.6433
1188.30 0.6431
1188.40 0.643
1188.50 0.6429
1188.60 0.6428
1188.70 0.6427
1188.80 0.6426
1188.90 0.6425
1189.00 0.6424
1189.10 0.6423
1189.20 0.6422
1189.30 0.6421
1189.40 0.642
1189.50 0.6419
1189.60 0.6418
1189.70 0.6417
1189.80 0.6416
1189.90 0.6415
1190.00 0.6414
1190.10 0.6413
1190.20 0.6412
1190.30 0.6411
1190.40 0.641
1190.50 0.6409
1190.60 0.6408
1190.70 0.6407
1190.80 0.6405
1190.90 0.6404
1191.00 0.6403
1191.10 0.6402
1191.20 0.6401
1191.30 0.64
1191.40 0.6399
1191.50 0.6398
1191.60 0.6397
1191.70 0.6396
1191.80 0.6395
1191.90 0.6394
1192.00 0.6393
1192.10 0.6392
1192.20 0.6391
1192.30 0.639
1192.40 0.6389
1192.50 0.6388
1192.60 0.6387
1192.70 0.6386
1192.80 0.6385
1192.90 0.6384
1193.00 0.6383
1193.10 0.6382
1193.20 0.6381
1193.30 0.638
1193.40 0.6378
1193.50 0.6377
1193.60 0.6376
1193.70 0.6375
1193.80 0.6374
1193.90 0.6373
1194.00 0.6372
1194.10 0.6371
1194.20 0.637
1194.30 0.6369
1194.40 0.6368
1194.50 0.6367
1194.60 0.6366
1194.70 0.6365
1194.80 0.6364
1194.90 0.6363
1195.00 0.6362
1195.10 0.6361
1195.20 0.636
1195.30 0.6359
1195.40 0.6358
1195.50 0.6357
1195.60 0.6356
1195.70 0.6355
1195.80 0.6354
1195.90 0.6353
1196.00 0.6352
1196.10 0.6351
1196.20 0.635
1196.30 0.6349
1196.40 0.6347
1196.50 0.6346
1196.60 0.6345
1196.70 0.6344
1196.80 0.6343
1196.90 0.6342
1197.00 0.6341
1197.10 0.634
1197.20 0.6339
1197.30 0.6338
1197.40 0.6337
1197.50 0.6336
1197.60 0.6335
1197.70 0.6334
1197.80 0.6333
1197.90 0.6332
1198.00 0.6331
1198.10 0.633
1198.20 0.6329
1198.30 0.6328
1198.40 0.6327
1198.50 0.6326
1198.60 0.6325
1198.70 0.6324
1198.80 0.6323
1198.90 0.6322
1199.00 0.6321
1199.10 0.632
1199.20 0.6319
1199.30 0.6317
1199.40 0.6316
1199.50 0.6315
1199.60 0.6314
1199.70 0.6313
1199.80 0.6312
1199.90 0.6311
1200.00 0
