# Version 2.1 - nm, norm@500 to 1, cut digits, bergeron_4000_85.dat_4000
# Wavelength(nm)  Flambda(ergs/cm^s/s/nm)
300.00 0.1931
300.10 0.1934
300.20 0.1938
300.30 0.1941
300.40 0.1945
300.50 0.1948
300.60 0.1952
300.70 0.1955
300.80 0.1959
300.90 0.1962
301.00 0.1966
301.10 0.1969
301.20 0.1973
301.30 0.1976
301.40 0.1979
301.50 0.1983
301.60 0.1986
301.70 0.199
301.80 0.1993
301.90 0.1997
302.00 0.2
302.10 0.2004
302.20 0.2007
302.30 0.2011
302.40 0.2014
302.50 0.2018
302.60 0.2021
302.70 0.2025
302.80 0.2028
302.90 0.2032
303.00 0.2035
303.10 0.2039
303.20 0.2042
303.30 0.2046
303.40 0.2049
303.50 0.2053
303.60 0.2056
303.70 0.206
303.80 0.2063
303.90 0.2067
304.00 0.207
304.10 0.2074
304.20 0.2077
304.30 0.2081
304.40 0.2085
304.50 0.2088
304.60 0.2092
304.70 0.2095
304.80 0.2099
304.90 0.2102
305.00 0.2106
305.10 0.211
305.20 0.2113
305.30 0.2117
305.40 0.212
305.50 0.2124
305.60 0.2127
305.70 0.2131
305.80 0.2134
305.90 0.2138
306.00 0.2142
306.10 0.2145
306.20 0.2149
306.30 0.2152
306.40 0.2156
306.50 0.216
306.60 0.2163
306.70 0.2167
306.80 0.2171
306.90 0.2174
307.00 0.2178
307.10 0.2181
307.20 0.2185
307.30 0.2189
307.40 0.2192
307.50 0.2196
307.60 0.2199
307.70 0.2203
307.80 0.2207
307.90 0.221
308.00 0.2214
308.10 0.2218
308.20 0.2221
308.30 0.2225
308.40 0.2229
308.50 0.2232
308.60 0.2236
308.70 0.224
308.80 0.2243
308.90 0.2247
309.00 0.2251
309.10 0.2254
309.20 0.2258
309.30 0.2262
309.40 0.2265
309.50 0.2269
309.60 0.2273
309.70 0.2276
309.80 0.228
309.90 0.2284
310.00 0.2287
310.10 0.2291
310.20 0.2295
310.30 0.2298
310.40 0.2302
310.50 0.2306
310.60 0.231
310.70 0.2313
310.80 0.2317
310.90 0.2321
311.00 0.2325
311.10 0.2328
311.20 0.2332
311.30 0.2336
311.40 0.234
311.50 0.2343
311.60 0.2347
311.70 0.2351
311.80 0.2354
311.90 0.2358
312.00 0.2362
312.10 0.2365
312.20 0.2369
312.30 0.2373
312.40 0.2377
312.50 0.2381
312.60 0.2384
312.70 0.2388
312.80 0.2392
312.90 0.2396
313.00 0.2399
313.10 0.2403
313.20 0.2407
313.30 0.2411
313.40 0.2415
313.50 0.2418
313.60 0.2422
313.70 0.2426
313.80 0.243
313.90 0.2433
314.00 0.2437
314.10 0.2441
314.20 0.2445
314.30 0.2449
314.40 0.2452
314.50 0.2456
314.60 0.246
314.70 0.2464
314.80 0.2468
314.90 0.2472
315.00 0.2475
315.10 0.2479
315.20 0.2483
315.30 0.2487
315.40 0.2491
315.50 0.2494
315.60 0.2498
315.70 0.2502
315.80 0.2506
315.90 0.251
316.00 0.2513
316.10 0.2517
316.20 0.2521
316.30 0.2525
316.40 0.2529
316.50 0.2533
316.60 0.2537
316.70 0.2541
316.80 0.2545
316.90 0.2548
317.00 0.2552
317.10 0.2556
317.20 0.256
317.30 0.2564
317.40 0.2568
317.50 0.2572
317.60 0.2575
317.70 0.2579
317.80 0.2583
317.90 0.2587
318.00 0.2591
318.10 0.2595
318.20 0.2599
318.30 0.2602
318.40 0.2606
318.50 0.261
318.60 0.2614
318.70 0.2618
318.80 0.2622
318.90 0.2626
319.00 0.263
319.10 0.2634
319.20 0.2638
319.30 0.2642
319.40 0.2646
319.50 0.2649
319.60 0.2653
319.70 0.2657
319.80 0.2661
319.90 0.2665
320.00 0.2669
320.10 0.2673
320.20 0.2677
320.30 0.2681
320.40 0.2685
320.50 0.2689
320.60 0.2693
320.70 0.2697
320.80 0.2701
320.90 0.2705
321.00 0.2709
321.10 0.2713
321.20 0.2716
321.30 0.272
321.40 0.2724
321.50 0.2728
321.60 0.2732
321.70 0.2736
321.80 0.274
321.90 0.2744
322.00 0.2748
322.10 0.2752
322.20 0.2756
322.30 0.276
322.40 0.2764
322.50 0.2768
322.60 0.2772
322.70 0.2776
322.80 0.278
322.90 0.2784
323.00 0.2788
323.10 0.2792
323.20 0.2796
323.30 0.28
323.40 0.2804
323.50 0.2808
323.60 0.2812
323.70 0.2816
323.80 0.282
323.90 0.2824
324.00 0.2828
324.10 0.2832
324.20 0.2836
324.30 0.284
324.40 0.2844
324.50 0.2848
324.60 0.2852
324.70 0.2856
324.80 0.2861
324.90 0.2865
325.00 0.2869
325.10 0.2873
325.20 0.2877
325.30 0.2881
325.40 0.2885
325.50 0.2889
325.60 0.2893
325.70 0.2897
325.80 0.2901
325.90 0.2905
326.00 0.2909
326.10 0.2913
326.20 0.2917
326.30 0.2921
326.40 0.2925
326.50 0.2929
326.60 0.2933
326.70 0.2937
326.80 0.2941
326.90 0.2946
327.00 0.295
327.10 0.2954
327.20 0.2958
327.30 0.2962
327.40 0.2966
327.50 0.297
327.60 0.2974
327.70 0.2978
327.80 0.2982
327.90 0.2986
328.00 0.299
328.10 0.2994
328.20 0.2998
328.30 0.3003
328.40 0.3007
328.50 0.3011
328.60 0.3015
328.70 0.3019
328.80 0.3023
328.90 0.3027
329.00 0.3031
329.10 0.3036
329.20 0.304
329.30 0.3044
329.40 0.3048
329.50 0.3052
329.60 0.3056
329.70 0.306
329.80 0.3064
329.90 0.3068
330.00 0.3072
330.10 0.3077
330.20 0.3081
330.30 0.3085
330.40 0.3089
330.50 0.3093
330.60 0.3098
330.70 0.3102
330.80 0.3106
330.90 0.311
331.00 0.3114
331.10 0.3118
331.20 0.3122
331.30 0.3127
331.40 0.3131
331.50 0.3135
331.60 0.3139
331.70 0.3143
331.80 0.3147
331.90 0.3151
332.00 0.3155
332.10 0.316
332.20 0.3164
332.30 0.3168
332.40 0.3172
332.50 0.3177
332.60 0.3181
332.70 0.3185
332.80 0.3189
332.90 0.3193
333.00 0.3198
333.10 0.3202
333.20 0.3206
333.30 0.321
333.40 0.3214
333.50 0.3218
333.60 0.3223
333.70 0.3227
333.80 0.3231
333.90 0.3235
334.00 0.3239
334.10 0.3243
334.20 0.3248
334.30 0.3252
334.40 0.3256
334.50 0.326
334.60 0.3265
334.70 0.3269
334.80 0.3273
334.90 0.3277
335.00 0.3282
335.10 0.3286
335.20 0.329
335.30 0.3294
335.40 0.3298
335.50 0.3303
335.60 0.3307
335.70 0.3311
335.80 0.3315
335.90 0.3319
336.00 0.3324
336.10 0.3328
336.20 0.3332
336.30 0.3336
336.40 0.3341
336.50 0.3345
336.60 0.3349
336.70 0.3354
336.80 0.3358
336.90 0.3362
337.00 0.3366
337.10 0.3371
337.20 0.3375
337.30 0.3379
337.40 0.3383
337.50 0.3388
337.60 0.3392
337.70 0.3396
337.80 0.34
337.90 0.3404
338.00 0.3409
338.10 0.3413
338.20 0.3417
338.30 0.3422
338.40 0.3426
338.50 0.343
338.60 0.3435
338.70 0.3439
338.80 0.3443
338.90 0.3447
339.00 0.3452
339.10 0.3456
339.20 0.346
339.30 0.3465
339.40 0.3469
339.50 0.3473
339.60 0.3477
339.70 0.3482
339.80 0.3486
339.90 0.349
340.00 0.3494
340.10 0.3499
340.20 0.3503
340.30 0.3507
340.40 0.3512
340.50 0.3516
340.60 0.352
340.70 0.3525
340.80 0.3529
340.90 0.3533
341.00 0.3538
341.10 0.3542
341.20 0.3546
341.30 0.3551
341.40 0.3555
341.50 0.3559
341.60 0.3563
341.70 0.3568
341.80 0.3572
341.90 0.3576
342.00 0.358
342.10 0.3585
342.20 0.3589
342.30 0.3594
342.40 0.3598
342.50 0.3602
342.60 0.3607
342.70 0.3611
342.80 0.3615
342.90 0.362
343.00 0.3624
343.10 0.3628
343.20 0.3633
343.30 0.3637
343.40 0.3641
343.50 0.3646
343.60 0.365
343.70 0.3654
343.80 0.3659
343.90 0.3663
344.00 0.3667
344.10 0.3672
344.20 0.3676
344.30 0.368
344.40 0.3685
344.50 0.3689
344.60 0.3694
344.70 0.3698
344.80 0.3702
344.90 0.3707
345.00 0.3711
345.10 0.3715
345.20 0.372
345.30 0.3724
345.40 0.3729
345.50 0.3733
345.60 0.3737
345.70 0.3742
345.80 0.3746
345.90 0.375
346.00 0.3754
346.10 0.3759
346.20 0.3763
346.30 0.3768
346.40 0.3772
346.50 0.3777
346.60 0.3781
346.70 0.3785
346.80 0.379
346.90 0.3794
347.00 0.3799
347.10 0.3803
347.20 0.3807
347.30 0.3812
347.40 0.3816
347.50 0.3821
347.60 0.3825
347.70 0.3829
347.80 0.3834
347.90 0.3838
348.00 0.3842
348.10 0.3847
348.20 0.3851
348.30 0.3856
348.40 0.386
348.50 0.3865
348.60 0.3869
348.70 0.3873
348.80 0.3878
348.90 0.3882
349.00 0.3887
349.10 0.3891
349.20 0.3896
349.30 0.39
349.40 0.3904
349.50 0.3909
349.60 0.3913
349.70 0.3917
349.80 0.3922
349.90 0.3926
350.00 0.3931
350.10 0.3935
350.20 0.394
350.30 0.3944
350.40 0.3948
350.50 0.3953
350.60 0.3957
350.70 0.3962
350.80 0.3966
350.90 0.3971
351.00 0.3975
351.10 0.398
351.20 0.3984
351.30 0.3988
351.40 0.3993
351.50 0.3997
351.60 0.4002
351.70 0.4006
351.80 0.401
351.90 0.4015
352.00 0.4019
352.10 0.4024
352.20 0.4028
352.30 0.4033
352.40 0.4037
352.50 0.4042
352.60 0.4046
352.70 0.4051
352.80 0.4055
352.90 0.4059
353.00 0.4064
353.10 0.4068
353.20 0.4073
353.30 0.4077
353.40 0.4082
353.50 0.4086
353.60 0.4091
353.70 0.4095
353.80 0.4099
353.90 0.4104
354.00 0.4108
354.10 0.4113
354.20 0.4117
354.30 0.4122
354.40 0.4126
354.50 0.4131
354.60 0.4135
354.70 0.414
354.80 0.4144
354.90 0.4149
355.00 0.4153
355.10 0.4158
355.20 0.4162
355.30 0.4167
355.40 0.4171
355.50 0.4175
355.60 0.418
355.70 0.4184
355.80 0.4189
355.90 0.4193
356.00 0.4198
356.10 0.4202
356.20 0.4207
356.30 0.4211
356.40 0.4216
356.50 0.422
356.60 0.4225
356.70 0.4229
356.80 0.4234
356.90 0.4238
357.00 0.4243
357.10 0.4247
357.20 0.4252
357.30 0.4256
357.40 0.4261
357.50 0.4265
357.60 0.4269
357.70 0.4274
357.80 0.4278
357.90 0.4283
358.00 0.4287
358.10 0.4292
358.20 0.4296
358.30 0.4301
358.40 0.4305
358.50 0.431
358.60 0.4315
358.70 0.4319
358.80 0.4324
358.90 0.4328
359.00 0.4333
359.10 0.4337
359.20 0.4342
359.30 0.4346
359.40 0.4351
359.50 0.4355
359.60 0.436
359.70 0.4364
359.80 0.4368
359.90 0.4373
360.00 0.4377
360.10 0.4382
360.20 0.4386
360.30 0.4391
360.40 0.4396
360.50 0.44
360.60 0.4405
360.70 0.4409
360.80 0.4414
360.90 0.4418
361.00 0.4423
361.10 0.4427
361.20 0.4432
361.30 0.4436
361.40 0.4441
361.50 0.4445
361.60 0.445
361.70 0.4454
361.80 0.4459
361.90 0.4463
362.00 0.4468
362.10 0.4472
362.20 0.4477
362.30 0.4481
362.40 0.4486
362.50 0.449
362.60 0.4495
362.70 0.4499
362.80 0.4504
362.90 0.4508
363.00 0.4513
363.10 0.4517
363.20 0.4522
363.30 0.4526
363.40 0.4531
363.50 0.4536
363.60 0.454
363.70 0.4545
363.80 0.4549
363.90 0.4554
364.00 0.4558
364.10 0.4563
364.20 0.4567
364.30 0.4572
364.40 0.4576
364.50 0.4581
364.60 0.4585
364.70 0.459
364.80 0.4594
364.90 0.4599
365.00 0.4604
365.10 0.4608
365.20 0.4613
365.30 0.4617
365.40 0.4622
365.50 0.4626
365.60 0.4631
365.70 0.4635
365.80 0.464
365.90 0.4644
366.00 0.4649
366.10 0.4653
366.20 0.4658
366.30 0.4663
366.40 0.4667
366.50 0.4672
366.60 0.4676
366.70 0.4681
366.80 0.4685
366.90 0.469
367.00 0.4695
367.10 0.4699
367.20 0.4704
367.30 0.4708
367.40 0.4713
367.50 0.4717
367.60 0.4722
367.70 0.4726
367.80 0.4731
367.90 0.4735
368.00 0.474
368.10 0.4744
368.20 0.4749
368.30 0.4754
368.40 0.4758
368.50 0.4763
368.60 0.4767
368.70 0.4772
368.80 0.4777
368.90 0.4781
369.00 0.4786
369.10 0.479
369.20 0.4795
369.30 0.4799
369.40 0.4804
369.50 0.4808
369.60 0.4813
369.70 0.4817
369.80 0.4822
369.90 0.4826
370.00 0.4831
370.10 0.4836
370.20 0.484
370.30 0.4845
370.40 0.4849
370.50 0.4854
370.60 0.4858
370.70 0.4863
370.80 0.4868
370.90 0.4872
371.00 0.4877
371.10 0.4881
371.20 0.4886
371.30 0.489
371.40 0.4895
371.50 0.4899
371.60 0.4904
371.70 0.4908
371.80 0.4913
371.90 0.4917
372.00 0.4922
372.10 0.4927
372.20 0.4931
372.30 0.4936
372.40 0.494
372.50 0.4945
372.60 0.495
372.70 0.4954
372.80 0.4959
372.90 0.4963
373.00 0.4968
373.10 0.4972
373.20 0.4977
373.30 0.4982
373.40 0.4986
373.50 0.4991
373.60 0.4995
373.70 0.5
373.80 0.5004
373.90 0.5009
374.00 0.5013
374.10 0.5018
374.20 0.5023
374.30 0.5027
374.40 0.5032
374.50 0.5036
374.60 0.5041
374.70 0.5046
374.80 0.505
374.90 0.5055
375.00 0.5059
375.10 0.5064
375.20 0.5068
375.30 0.5073
375.40 0.5078
375.50 0.5082
375.60 0.5087
375.70 0.5091
375.80 0.5096
375.90 0.51
376.00 0.5105
376.10 0.5109
376.20 0.5114
376.30 0.5118
376.40 0.5123
376.50 0.5128
376.60 0.5132
376.70 0.5137
376.80 0.5141
376.90 0.5146
377.00 0.515
377.10 0.5155
377.20 0.516
377.30 0.5164
377.40 0.5169
377.50 0.5173
377.60 0.5178
377.70 0.5182
377.80 0.5187
377.90 0.5192
378.00 0.5196
378.10 0.5201
378.20 0.5205
378.30 0.521
378.40 0.5214
378.50 0.5219
378.60 0.5224
378.70 0.5228
378.80 0.5233
378.90 0.5237
379.00 0.5242
379.10 0.5246
379.20 0.5251
379.30 0.5256
379.40 0.526
379.50 0.5265
379.60 0.5269
379.70 0.5274
379.80 0.5278
379.90 0.5283
380.00 0.5287
380.10 0.5292
380.20 0.5297
380.30 0.5301
380.40 0.5306
380.50 0.531
380.60 0.5315
380.70 0.5319
380.80 0.5324
380.90 0.5328
381.00 0.5333
381.10 0.5338
381.20 0.5342
381.30 0.5347
381.40 0.5351
381.50 0.5356
381.60 0.536
381.70 0.5365
381.80 0.537
381.90 0.5374
382.00 0.5379
382.10 0.5383
382.20 0.5388
382.30 0.5392
382.40 0.5397
382.50 0.5402
382.60 0.5406
382.70 0.5411
382.80 0.5415
382.90 0.542
383.00 0.5424
383.10 0.5429
383.20 0.5433
383.30 0.5438
383.40 0.5443
383.50 0.5447
383.60 0.5452
383.70 0.5456
383.80 0.5461
383.90 0.5466
384.00 0.547
384.10 0.5475
384.20 0.5479
384.30 0.5484
384.40 0.5488
384.50 0.5493
384.60 0.5498
384.70 0.5502
384.80 0.5506
384.90 0.5511
385.00 0.5516
385.10 0.552
385.20 0.5525
385.30 0.5529
385.40 0.5534
385.50 0.5538
385.60 0.5543
385.70 0.5548
385.80 0.5552
385.90 0.5557
386.00 0.5561
386.10 0.5566
386.20 0.557
386.30 0.5575
386.40 0.558
386.50 0.5584
386.60 0.5589
386.70 0.5593
386.80 0.5598
386.90 0.5602
387.00 0.5607
387.10 0.5611
387.20 0.5616
387.30 0.5621
387.40 0.5625
387.50 0.563
387.60 0.5634
387.70 0.5639
387.80 0.5643
387.90 0.5648
388.00 0.5652
388.10 0.5657
388.20 0.5662
388.30 0.5666
388.40 0.5671
388.50 0.5675
388.60 0.568
388.70 0.5684
388.80 0.5689
388.90 0.5693
389.00 0.5698
389.10 0.5702
389.20 0.5707
389.30 0.5712
389.40 0.5716
389.50 0.5721
389.60 0.5725
389.70 0.573
389.80 0.5734
389.90 0.5739
390.00 0.5743
390.10 0.5748
390.20 0.5753
390.30 0.5757
390.40 0.5762
390.50 0.5766
390.60 0.5771
390.70 0.5775
390.80 0.578
390.90 0.5784
391.00 0.5789
391.10 0.5793
391.20 0.5798
391.30 0.5802
391.40 0.5807
391.50 0.5812
391.60 0.5816
391.70 0.5821
391.80 0.5825
391.90 0.583
392.00 0.5834
392.10 0.5839
392.20 0.5843
392.30 0.5848
392.40 0.5852
392.50 0.5857
392.60 0.5861
392.70 0.5866
392.80 0.5871
392.90 0.5875
393.00 0.588
393.10 0.5884
393.20 0.5889
393.30 0.5893
393.40 0.5898
393.50 0.5902
393.60 0.5907
393.70 0.5911
393.80 0.5916
393.90 0.592
394.00 0.5925
394.10 0.5929
394.20 0.5934
394.30 0.5938
394.40 0.5943
394.50 0.5948
394.60 0.5952
394.70 0.5957
394.80 0.5961
394.90 0.5966
395.00 0.597
395.10 0.5975
395.20 0.5979
395.30 0.5984
395.40 0.5988
395.50 0.5993
395.60 0.5997
395.70 0.6002
395.80 0.6006
395.90 0.6011
396.00 0.6015
396.10 0.602
396.20 0.6024
396.30 0.6029
396.40 0.6033
396.50 0.6038
396.60 0.6043
396.70 0.6047
396.80 0.6052
396.90 0.6056
397.00 0.606
397.10 0.6065
397.20 0.607
397.30 0.6074
397.40 0.6079
397.50 0.6083
397.60 0.6088
397.70 0.6092
397.80 0.6097
397.90 0.6101
398.00 0.6106
398.10 0.611
398.20 0.6115
398.30 0.6119
398.40 0.6124
398.50 0.6128
398.60 0.6133
398.70 0.6137
398.80 0.6142
398.90 0.6146
399.00 0.6151
399.10 0.6155
399.20 0.616
399.30 0.6164
399.40 0.6169
399.50 0.6173
399.60 0.6178
399.70 0.6182
399.80 0.6187
399.90 0.6191
400.00 0.6196
400.10 0.62
400.20 0.6205
400.30 0.6209
400.40 0.6214
400.50 0.6218
400.60 0.6222
400.70 0.6227
400.80 0.6232
400.90 0.6236
401.00 0.6241
401.10 0.6245
401.20 0.625
401.30 0.6254
401.40 0.6258
401.50 0.6263
401.60 0.6267
401.70 0.6272
401.80 0.6276
401.90 0.6281
402.00 0.6285
402.10 0.629
402.20 0.6294
402.30 0.6299
402.40 0.6303
402.50 0.6308
402.60 0.6312
402.70 0.6317
402.80 0.6321
402.90 0.6326
403.00 0.633
403.10 0.6335
403.20 0.6339
403.30 0.6343
403.40 0.6348
403.50 0.6352
403.60 0.6357
403.70 0.6361
403.80 0.6366
403.90 0.637
404.00 0.6375
404.10 0.6379
404.20 0.6384
404.30 0.6388
404.40 0.6393
404.50 0.6397
404.60 0.6402
404.70 0.6406
404.80 0.641
404.90 0.6415
405.00 0.6419
405.10 0.6424
405.20 0.6428
405.30 0.6433
405.40 0.6437
405.50 0.6442
405.60 0.6446
405.70 0.6451
405.80 0.6455
405.90 0.6459
406.00 0.6464
406.10 0.6468
406.20 0.6473
406.30 0.6477
406.40 0.6482
406.50 0.6486
406.60 0.6491
406.70 0.6495
406.80 0.6499
406.90 0.6504
407.00 0.6508
407.10 0.6513
407.20 0.6517
407.30 0.6522
407.40 0.6526
407.50 0.653
407.60 0.6535
407.70 0.6539
407.80 0.6544
407.90 0.6548
408.00 0.6553
408.10 0.6557
408.20 0.6562
408.30 0.6566
408.40 0.657
408.50 0.6575
408.60 0.6579
408.70 0.6584
408.80 0.6588
408.90 0.6592
409.00 0.6597
409.10 0.6601
409.20 0.6606
409.30 0.661
409.40 0.6615
409.50 0.6619
409.60 0.6623
409.70 0.6628
409.80 0.6632
409.90 0.6637
410.00 0.6641
410.10 0.6646
410.20 0.665
410.30 0.6654
410.40 0.6659
410.50 0.6663
410.60 0.6668
410.70 0.6672
410.80 0.6676
410.90 0.6681
411.00 0.6685
411.10 0.669
411.20 0.6694
411.30 0.6698
411.40 0.6703
411.50 0.6707
411.60 0.6712
411.70 0.6716
411.80 0.672
411.90 0.6725
412.00 0.6729
412.10 0.6733
412.20 0.6738
412.30 0.6742
412.40 0.6747
412.50 0.6751
412.60 0.6755
412.70 0.676
412.80 0.6764
412.90 0.6769
413.00 0.6773
413.10 0.6777
413.20 0.6782
413.30 0.6786
413.40 0.679
413.50 0.6795
413.60 0.6799
413.70 0.6804
413.80 0.6808
413.90 0.6812
414.00 0.6817
414.10 0.6821
414.20 0.6825
414.30 0.683
414.40 0.6834
414.50 0.6839
414.60 0.6843
414.70 0.6847
414.80 0.6852
414.90 0.6856
415.00 0.686
415.10 0.6865
415.20 0.6869
415.30 0.6873
415.40 0.6878
415.50 0.6882
415.60 0.6887
415.70 0.6891
415.80 0.6895
415.90 0.69
416.00 0.6904
416.10 0.6908
416.20 0.6913
416.30 0.6917
416.40 0.6921
416.50 0.6926
416.60 0.693
416.70 0.6934
416.80 0.6939
416.90 0.6943
417.00 0.6947
417.10 0.6952
417.20 0.6956
417.30 0.696
417.40 0.6965
417.50 0.6969
417.60 0.6973
417.70 0.6978
417.80 0.6982
417.90 0.6986
418.00 0.6991
418.10 0.6995
418.20 0.6999
418.30 0.7004
418.40 0.7008
418.50 0.7012
418.60 0.7017
418.70 0.7021
418.80 0.7025
418.90 0.703
419.00 0.7034
419.10 0.7038
419.20 0.7042
419.30 0.7047
419.40 0.7051
419.50 0.7055
419.60 0.706
419.70 0.7064
419.80 0.7068
419.90 0.7073
420.00 0.7077
420.10 0.7081
420.20 0.7086
420.30 0.709
420.40 0.7094
420.50 0.7098
420.60 0.7103
420.70 0.7107
420.80 0.7111
420.90 0.7116
421.00 0.712
421.10 0.7124
421.20 0.7129
421.30 0.7133
421.40 0.7137
421.50 0.7141
421.60 0.7146
421.70 0.715
421.80 0.7154
421.90 0.7159
422.00 0.7163
422.10 0.7167
422.20 0.7171
422.30 0.7176
422.40 0.718
422.50 0.7184
422.60 0.7189
422.70 0.7193
422.80 0.7197
422.90 0.7201
423.00 0.7206
423.10 0.721
423.20 0.7214
423.30 0.7218
423.40 0.7223
423.50 0.7227
423.60 0.7231
423.70 0.7235
423.80 0.724
423.90 0.7244
424.00 0.7248
424.10 0.7252
424.20 0.7257
424.30 0.7261
424.40 0.7265
424.50 0.7269
424.60 0.7274
424.70 0.7278
424.80 0.7282
424.90 0.7286
425.00 0.7291
425.10 0.7295
425.20 0.7299
425.30 0.7303
425.40 0.7308
425.50 0.7312
425.60 0.7316
425.70 0.732
425.80 0.7325
425.90 0.7329
426.00 0.7333
426.10 0.7337
426.20 0.7342
426.30 0.7346
426.40 0.735
426.50 0.7354
426.60 0.7358
426.70 0.7363
426.80 0.7367
426.90 0.7371
427.00 0.7375
427.10 0.7379
427.20 0.7384
427.30 0.7388
427.40 0.7392
427.50 0.7396
427.60 0.7401
427.70 0.7405
427.80 0.7409
427.90 0.7413
428.00 0.7417
428.10 0.7422
428.20 0.7426
428.30 0.743
428.40 0.7434
428.50 0.7438
428.60 0.7443
428.70 0.7447
428.80 0.7451
428.90 0.7455
429.00 0.7459
429.10 0.7464
429.20 0.7468
429.30 0.7472
429.40 0.7476
429.50 0.748
429.60 0.7484
429.70 0.7489
429.80 0.7493
429.90 0.7497
430.00 0.7501
430.10 0.7505
430.20 0.751
430.30 0.7514
430.40 0.7518
430.50 0.7522
430.60 0.7526
430.70 0.753
430.80 0.7534
430.90 0.7539
431.00 0.7543
431.10 0.7547
431.20 0.7551
431.30 0.7555
431.40 0.7559
431.50 0.7564
431.60 0.7568
431.70 0.7572
431.80 0.7576
431.90 0.758
432.00 0.7584
432.10 0.7589
432.20 0.7593
432.30 0.7597
432.40 0.7601
432.50 0.7605
432.60 0.7609
432.70 0.7613
432.80 0.7617
432.90 0.7622
433.00 0.7626
433.10 0.763
433.20 0.7634
433.30 0.7638
433.40 0.7642
433.50 0.7646
433.60 0.7651
433.70 0.7655
433.80 0.7659
433.90 0.7663
434.00 0.7667
434.10 0.7671
434.20 0.7675
434.30 0.7679
434.40 0.7683
434.50 0.7688
434.60 0.7692
434.70 0.7696
434.80 0.77
434.90 0.7704
435.00 0.7708
435.10 0.7712
435.20 0.7716
435.30 0.772
435.40 0.7725
435.50 0.7729
435.60 0.7733
435.70 0.7737
435.80 0.7741
435.90 0.7745
436.00 0.7749
436.10 0.7753
436.20 0.7757
436.30 0.7761
436.40 0.7765
436.50 0.7769
436.60 0.7774
436.70 0.7778
436.80 0.7782
436.90 0.7786
437.00 0.779
437.10 0.7794
437.20 0.7798
437.30 0.7802
437.40 0.7806
437.50 0.781
437.60 0.7814
437.70 0.7818
437.80 0.7822
437.90 0.7826
438.00 0.783
438.10 0.7834
438.20 0.7839
438.30 0.7843
438.40 0.7847
438.50 0.7851
438.60 0.7855
438.70 0.7859
438.80 0.7863
438.90 0.7867
439.00 0.7871
439.10 0.7875
439.20 0.7879
439.30 0.7883
439.40 0.7887
439.50 0.7891
439.60 0.7895
439.70 0.7899
439.80 0.7903
439.90 0.7907
440.00 0.7911
440.10 0.7915
440.20 0.7919
440.30 0.7923
440.40 0.7927
440.50 0.7931
440.60 0.7935
440.70 0.7939
440.80 0.7943
440.90 0.7947
441.00 0.7951
441.10 0.7955
441.20 0.796
441.30 0.7964
441.40 0.7968
441.50 0.7972
441.60 0.7976
441.70 0.798
441.80 0.7984
441.90 0.7988
442.00 0.7992
442.10 0.7995
442.20 0.8
442.30 0.8004
442.40 0.8008
442.50 0.8011
442.60 0.8015
442.70 0.8019
442.80 0.8023
442.90 0.8027
443.00 0.8031
443.10 0.8035
443.20 0.8039
443.30 0.8043
443.40 0.8047
443.50 0.8051
443.60 0.8055
443.70 0.8059
443.80 0.8063
443.90 0.8067
444.00 0.8071
444.10 0.8075
444.20 0.8079
444.30 0.8083
444.40 0.8087
444.50 0.8091
444.60 0.8095
444.70 0.8099
444.80 0.8103
444.90 0.8107
445.00 0.8111
445.10 0.8115
445.20 0.8118
445.30 0.8122
445.40 0.8126
445.50 0.813
445.60 0.8134
445.70 0.8138
445.80 0.8142
445.90 0.8146
446.00 0.815
446.10 0.8154
446.20 0.8158
446.30 0.8162
446.40 0.8166
446.50 0.817
446.60 0.8173
446.70 0.8177
446.80 0.8181
446.90 0.8185
447.00 0.8189
447.10 0.8193
447.20 0.8197
447.30 0.8201
447.40 0.8205
447.50 0.8209
447.60 0.8213
447.70 0.8216
447.80 0.822
447.90 0.8224
448.00 0.8228
448.10 0.8232
448.20 0.8236
448.30 0.824
448.40 0.8244
448.50 0.8248
448.60 0.8252
448.70 0.8255
448.80 0.8259
448.90 0.8263
449.00 0.8267
449.10 0.8271
449.20 0.8275
449.30 0.8279
449.40 0.8283
449.50 0.8286
449.60 0.829
449.70 0.8294
449.80 0.8298
449.90 0.8302
450.00 0.8306
450.10 0.831
450.20 0.8314
450.30 0.8317
450.40 0.8321
450.50 0.8325
450.60 0.8329
450.70 0.8333
450.80 0.8337
450.90 0.834
451.00 0.8344
451.10 0.8348
451.20 0.8352
451.30 0.8356
451.40 0.836
451.50 0.8363
451.60 0.8367
451.70 0.8371
451.80 0.8375
451.90 0.8379
452.00 0.8383
452.10 0.8386
452.20 0.839
452.30 0.8394
452.40 0.8398
452.50 0.8402
452.60 0.8406
452.70 0.8409
452.80 0.8413
452.90 0.8417
453.00 0.8421
453.10 0.8425
453.20 0.8428
453.30 0.8432
453.40 0.8436
453.50 0.844
453.60 0.8444
453.70 0.8448
453.80 0.8451
453.90 0.8455
454.00 0.8459
454.10 0.8463
454.20 0.8466
454.30 0.847
454.40 0.8474
454.50 0.8478
454.60 0.8482
454.70 0.8485
454.80 0.8489
454.90 0.8493
455.00 0.8497
455.10 0.8501
455.20 0.8504
455.30 0.8508
455.40 0.8512
455.50 0.8516
455.60 0.8519
455.70 0.8523
455.80 0.8527
455.90 0.8531
456.00 0.8534
456.10 0.8538
456.20 0.8542
456.30 0.8546
456.40 0.8549
456.50 0.8553
456.60 0.8557
456.70 0.8561
456.80 0.8564
456.90 0.8568
457.00 0.8572
457.10 0.8576
457.20 0.8579
457.30 0.8583
457.40 0.8587
457.50 0.859
457.60 0.8594
457.70 0.8598
457.80 0.8602
457.90 0.8605
458.00 0.8609
458.10 0.8613
458.20 0.8617
458.30 0.862
458.40 0.8624
458.50 0.8628
458.60 0.8631
458.70 0.8635
458.80 0.8639
458.90 0.8643
459.00 0.8646
459.10 0.865
459.20 0.8654
459.30 0.8657
459.40 0.8661
459.50 0.8665
459.60 0.8668
459.70 0.8672
459.80 0.8676
459.90 0.8679
460.00 0.8683
460.10 0.8687
460.20 0.8691
460.30 0.8694
460.40 0.8698
460.50 0.8701
460.60 0.8705
460.70 0.8709
460.80 0.8713
460.90 0.8716
461.00 0.872
461.10 0.8724
461.20 0.8727
461.30 0.8731
461.40 0.8735
461.50 0.8738
461.60 0.8742
461.70 0.8746
461.80 0.8749
461.90 0.8753
462.00 0.8756
462.10 0.876
462.20 0.8764
462.30 0.8767
462.40 0.8771
462.50 0.8775
462.60 0.8778
462.70 0.8782
462.80 0.8786
462.90 0.8789
463.00 0.8793
463.10 0.8796
463.20 0.88
463.30 0.8804
463.40 0.8807
463.50 0.8811
463.60 0.8815
463.70 0.8818
463.80 0.8822
463.90 0.8825
464.00 0.8829
464.10 0.8833
464.20 0.8836
464.30 0.884
464.40 0.8843
464.50 0.8847
464.60 0.8851
464.70 0.8854
464.80 0.8858
464.90 0.8861
465.00 0.8865
465.10 0.8868
465.20 0.8872
465.30 0.8876
465.40 0.8879
465.50 0.8883
465.60 0.8886
465.70 0.889
465.80 0.8894
465.90 0.8897
466.00 0.8901
466.10 0.8904
466.20 0.8908
466.30 0.8911
466.40 0.8915
466.50 0.8919
466.60 0.8922
466.70 0.8926
466.80 0.8929
466.90 0.8933
467.00 0.8936
467.10 0.894
467.20 0.8943
467.30 0.8947
467.40 0.8951
467.50 0.8954
467.60 0.8958
467.70 0.8961
467.80 0.8965
467.90 0.8968
468.00 0.8972
468.10 0.8975
468.20 0.8979
468.30 0.8982
468.40 0.8986
468.50 0.8989
468.60 0.8993
468.70 0.8996
468.80 0.9
468.90 0.9003
469.00 0.9007
469.10 0.901
469.20 0.9014
469.30 0.9017
469.40 0.9021
469.50 0.9024
469.60 0.9028
469.70 0.9031
469.80 0.9035
469.90 0.9038
470.00 0.9042
470.10 0.9045
470.20 0.9049
470.30 0.9052
470.40 0.9056
470.50 0.9059
470.60 0.9063
470.70 0.9066
470.80 0.907
470.90 0.9073
471.00 0.9077
471.10 0.908
471.20 0.9084
471.30 0.9087
471.40 0.9091
471.50 0.9094
471.60 0.9098
471.70 0.9101
471.80 0.9105
471.90 0.9108
472.00 0.9111
472.10 0.9115
472.20 0.9118
472.30 0.9122
472.40 0.9125
472.50 0.9129
472.60 0.9132
472.70 0.9136
472.80 0.9139
472.90 0.9143
473.00 0.9146
473.10 0.9149
473.20 0.9153
473.30 0.9156
473.40 0.916
473.50 0.9163
473.60 0.9167
473.70 0.917
473.80 0.9173
473.90 0.9177
474.00 0.918
474.10 0.9184
474.20 0.9187
474.30 0.919
474.40 0.9194
474.50 0.9197
474.60 0.9201
474.70 0.9204
474.80 0.9207
474.90 0.9211
475.00 0.9214
475.10 0.9218
475.20 0.9221
475.30 0.9224
475.40 0.9228
475.50 0.9231
475.60 0.9235
475.70 0.9238
475.80 0.9241
475.90 0.9245
476.00 0.9248
476.10 0.9252
476.20 0.9255
476.30 0.9258
476.40 0.9262
476.50 0.9265
476.60 0.9268
476.70 0.9272
476.80 0.9275
476.90 0.9278
477.00 0.9282
477.10 0.9285
477.20 0.9288
477.30 0.9292
477.40 0.9295
477.50 0.9299
477.60 0.9302
477.70 0.9305
477.80 0.9309
477.90 0.9312
478.00 0.9315
478.10 0.9319
478.20 0.9322
478.30 0.9325
478.40 0.9329
478.50 0.9332
478.60 0.9335
478.70 0.9339
478.80 0.9342
478.90 0.9345
479.00 0.9349
479.10 0.9352
479.20 0.9355
479.30 0.9358
479.40 0.9362
479.50 0.9365
479.60 0.9368
479.70 0.9372
479.80 0.9375
479.90 0.9378
480.00 0.9382
480.10 0.9385
480.20 0.9388
480.30 0.9391
480.40 0.9395
480.50 0.9398
480.60 0.9401
480.70 0.9405
480.80 0.9408
480.90 0.9411
481.00 0.9414
481.10 0.9418
481.20 0.9421
481.30 0.9424
481.40 0.9428
481.50 0.9431
481.60 0.9434
481.70 0.9437
481.80 0.9441
481.90 0.9444
482.00 0.9447
482.10 0.945
482.20 0.9454
482.30 0.9457
482.40 0.946
482.50 0.9463
482.60 0.9467
482.70 0.947
482.80 0.9473
482.90 0.9476
483.00 0.948
483.10 0.9483
483.20 0.9486
483.30 0.9489
483.40 0.9492
483.50 0.9496
483.60 0.9499
483.70 0.9502
483.80 0.9505
483.90 0.9509
484.00 0.9512
484.10 0.9515
484.20 0.9518
484.30 0.9521
484.40 0.9525
484.50 0.9528
484.60 0.9531
484.70 0.9534
484.80 0.9537
484.90 0.9541
485.00 0.9544
485.10 0.9547
485.20 0.955
485.30 0.9553
485.40 0.9557
485.50 0.956
485.60 0.9563
485.70 0.9566
485.80 0.9569
485.90 0.9572
486.00 0.9576
486.10 0.9579
486.20 0.9582
486.30 0.9585
486.40 0.9588
486.50 0.9591
486.60 0.9595
486.70 0.9598
486.80 0.9601
486.90 0.9604
487.00 0.9607
487.10 0.961
487.20 0.9614
487.30 0.9617
487.40 0.962
487.50 0.9623
487.60 0.9626
487.70 0.9629
487.80 0.9632
487.90 0.9636
488.00 0.9639
488.10 0.9642
488.20 0.9645
488.30 0.9648
488.40 0.9651
488.50 0.9654
488.60 0.9658
488.70 0.9661
488.80 0.9664
488.90 0.9667
489.00 0.967
489.10 0.9673
489.20 0.9676
489.30 0.9679
489.40 0.9682
489.50 0.9686
489.60 0.9689
489.70 0.9692
489.80 0.9695
489.90 0.9698
490.00 0.9701
490.10 0.9704
490.20 0.9707
490.30 0.971
490.40 0.9713
490.50 0.9716
490.60 0.972
490.70 0.9723
490.80 0.9726
490.90 0.9729
491.00 0.9732
491.10 0.9735
491.20 0.9738
491.30 0.9741
491.40 0.9744
491.50 0.9747
491.60 0.975
491.70 0.9753
491.80 0.9756
491.90 0.9759
492.00 0.9763
492.10 0.9766
492.20 0.9769
492.30 0.9772
492.40 0.9775
492.50 0.9778
492.60 0.9781
492.70 0.9784
492.80 0.9787
492.90 0.979
493.00 0.9793
493.10 0.9796
493.20 0.9799
493.30 0.9802
493.40 0.9805
493.50 0.9808
493.60 0.9811
493.70 0.9814
493.80 0.9817
493.90 0.982
494.00 0.9823
494.10 0.9826
494.20 0.9829
494.30 0.9832
494.40 0.9835
494.50 0.9838
494.60 0.9841
494.70 0.9844
494.80 0.9847
494.90 0.985
495.00 0.9853
495.10 0.9856
495.20 0.9859
495.30 0.9862
495.40 0.9865
495.50 0.9868
495.60 0.9871
495.70 0.9874
495.80 0.9877
495.90 0.988
496.00 0.9883
496.10 0.9886
496.20 0.9889
496.30 0.9892
496.40 0.9895
496.50 0.9898
496.60 0.9901
496.70 0.9904
496.80 0.9907
496.90 0.991
497.00 0.9913
497.10 0.9915
497.20 0.9918
497.30 0.9921
497.40 0.9924
497.50 0.9927
497.60 0.993
497.70 0.9933
497.80 0.9936
497.90 0.9939
498.00 0.9942
498.10 0.9945
498.20 0.9948
498.30 0.9951
498.40 0.9954
498.50 0.9956
498.60 0.9959
498.70 0.9962
498.80 0.9965
498.90 0.9968
499.00 0.9971
499.10 0.9974
499.20 0.9977
499.30 0.998
499.40 0.9983
499.50 0.9986
499.60 0.9988
499.70 0.9991
499.80 0.9994
499.90 0.9997
500.00 1
500.10 1
500.20 1.001
500.30 1.001
500.40 1.001
500.50 1.001
500.60 1.002
500.70 1.002
500.80 1.002
500.90 1.003
501.00 1.003
501.10 1.003
501.20 1.003
501.30 1.004
501.40 1.004
501.50 1.004
501.60 1.005
501.70 1.005
501.80 1.005
501.90 1.005
502.00 1.006
502.10 1.006
502.20 1.006
502.30 1.007
502.40 1.007
502.50 1.007
502.60 1.007
502.70 1.008
502.80 1.008
502.90 1.008
503.00 1.009
503.10 1.009
503.20 1.009
503.30 1.009
503.40 1.01
503.50 1.01
503.60 1.01
503.70 1.011
503.80 1.011
503.90 1.011
504.00 1.011
504.10 1.012
504.20 1.012
504.30 1.012
504.40 1.012
504.50 1.013
504.60 1.013
504.70 1.013
504.80 1.014
504.90 1.014
505.00 1.014
505.10 1.014
505.20 1.015
505.30 1.015
505.40 1.015
505.50 1.016
505.60 1.016
505.70 1.016
505.80 1.016
505.90 1.017
506.00 1.017
506.10 1.017
506.20 1.017
506.30 1.018
506.40 1.018
506.50 1.018
506.60 1.019
506.70 1.019
506.80 1.019
506.90 1.019
507.00 1.02
507.10 1.02
507.20 1.02
507.30 1.021
507.40 1.021
507.50 1.021
507.60 1.021
507.70 1.022
507.80 1.022
507.90 1.022
508.00 1.022
508.10 1.023
508.20 1.023
508.30 1.023
508.40 1.023
508.50 1.024
508.60 1.024
508.70 1.024
508.80 1.025
508.90 1.025
509.00 1.025
509.10 1.025
509.20 1.026
509.30 1.026
509.40 1.026
509.50 1.026
509.60 1.027
509.70 1.027
509.80 1.027
509.90 1.028
510.00 1.028
510.10 1.028
510.20 1.028
510.30 1.029
510.40 1.029
510.50 1.029
510.60 1.029
510.70 1.03
510.80 1.03
510.90 1.03
511.00 1.03
511.10 1.031
511.20 1.031
511.30 1.031
511.40 1.032
511.50 1.032
511.60 1.032
511.70 1.032
511.80 1.033
511.90 1.033
512.00 1.033
512.10 1.033
512.20 1.034
512.30 1.034
512.40 1.034
512.50 1.034
512.60 1.035
512.70 1.035
512.80 1.035
512.90 1.035
513.00 1.036
513.10 1.036
513.20 1.036
513.30 1.037
513.40 1.037
513.50 1.037
513.60 1.037
513.70 1.038
513.80 1.038
513.90 1.038
514.00 1.038
514.10 1.039
514.20 1.039
514.30 1.039
514.40 1.039
514.50 1.04
514.60 1.04
514.70 1.04
514.80 1.04
514.90 1.041
515.00 1.041
515.10 1.041
515.20 1.041
515.30 1.042
515.40 1.042
515.50 1.042
515.60 1.042
515.70 1.043
515.80 1.043
515.90 1.043
516.00 1.043
516.10 1.044
516.20 1.044
516.30 1.044
516.40 1.044
516.50 1.045
516.60 1.045
516.70 1.045
516.80 1.046
516.90 1.046
517.00 1.046
517.10 1.046
517.20 1.047
517.30 1.047
517.40 1.047
517.50 1.047
517.60 1.048
517.70 1.048
517.80 1.048
517.90 1.048
518.00 1.049
518.10 1.049
518.20 1.049
518.30 1.049
518.40 1.05
518.50 1.05
518.60 1.05
518.70 1.05
518.80 1.051
518.90 1.051
519.00 1.051
519.10 1.051
519.20 1.052
519.30 1.052
519.40 1.052
519.50 1.052
519.60 1.053
519.70 1.053
519.80 1.053
519.90 1.053
520.00 1.054
520.10 1.054
520.20 1.054
520.30 1.054
520.40 1.055
520.50 1.055
520.60 1.055
520.70 1.055
520.80 1.055
520.90 1.056
521.00 1.056
521.10 1.056
521.20 1.056
521.30 1.057
521.40 1.057
521.50 1.057
521.60 1.057
521.70 1.058
521.80 1.058
521.90 1.058
522.00 1.058
522.10 1.059
522.20 1.059
522.30 1.059
522.40 1.059
522.50 1.06
522.60 1.06
522.70 1.06
522.80 1.06
522.90 1.061
523.00 1.061
523.10 1.061
523.20 1.061
523.30 1.062
523.40 1.062
523.50 1.062
523.60 1.062
523.70 1.063
523.80 1.063
523.90 1.063
524.00 1.063
524.10 1.063
524.20 1.064
524.30 1.064
524.40 1.064
524.50 1.064
524.60 1.065
524.70 1.065
524.80 1.065
524.90 1.065
525.00 1.066
525.10 1.066
525.20 1.066
525.30 1.066
525.40 1.067
525.50 1.067
525.60 1.067
525.70 1.067
525.80 1.067
525.90 1.068
526.00 1.068
526.10 1.068
526.20 1.068
526.30 1.069
526.40 1.069
526.50 1.069
526.60 1.069
526.70 1.07
526.80 1.07
526.90 1.07
527.00 1.07
527.10 1.071
527.20 1.071
527.30 1.071
527.40 1.071
527.50 1.071
527.60 1.072
527.70 1.072
527.80 1.072
527.90 1.072
528.00 1.073
528.10 1.073
528.20 1.073
528.30 1.073
528.40 1.073
528.50 1.074
528.60 1.074
528.70 1.074
528.80 1.074
528.90 1.075
529.00 1.075
529.10 1.075
529.20 1.075
529.30 1.076
529.40 1.076
529.50 1.076
529.60 1.076
529.70 1.076
529.80 1.077
529.90 1.077
530.00 1.077
530.10 1.077
530.20 1.078
530.30 1.078
530.40 1.078
530.50 1.078
530.60 1.078
530.70 1.079
530.80 1.079
530.90 1.079
531.00 1.079
531.10 1.08
531.20 1.08
531.30 1.08
531.40 1.08
531.50 1.081
531.60 1.081
531.70 1.081
531.80 1.081
531.90 1.081
532.00 1.082
532.10 1.082
532.20 1.082
532.30 1.082
532.40 1.083
532.50 1.083
532.60 1.083
532.70 1.083
532.80 1.083
532.90 1.084
533.00 1.084
533.10 1.084
533.20 1.084
533.30 1.084
533.40 1.085
533.50 1.085
533.60 1.085
533.70 1.085
533.80 1.086
533.90 1.086
534.00 1.086
534.10 1.086
534.20 1.086
534.30 1.087
534.40 1.087
534.50 1.087
534.60 1.087
534.70 1.088
534.80 1.088
534.90 1.088
535.00 1.088
535.10 1.088
535.20 1.089
535.30 1.089
535.40 1.089
535.50 1.089
535.60 1.089
535.70 1.09
535.80 1.09
535.90 1.09
536.00 1.09
536.10 1.09
536.20 1.091
536.30 1.091
536.40 1.091
536.50 1.091
536.60 1.092
536.70 1.092
536.80 1.092
536.90 1.092
537.00 1.092
537.10 1.093
537.20 1.093
537.30 1.093
537.40 1.093
537.50 1.093
537.60 1.094
537.70 1.094
537.80 1.094
537.90 1.094
538.00 1.095
538.10 1.095
538.20 1.095
538.30 1.095
538.40 1.095
538.50 1.096
538.60 1.096
538.70 1.096
538.80 1.096
538.90 1.096
539.00 1.097
539.10 1.097
539.20 1.097
539.30 1.097
539.40 1.097
539.50 1.098
539.60 1.098
539.70 1.098
539.80 1.098
539.90 1.098
540.00 1.099
540.10 1.099
540.20 1.099
540.30 1.099
540.40 1.099
540.50 1.1
540.60 1.1
540.70 1.1
540.80 1.1
540.90 1.101
541.00 1.101
541.10 1.101
541.20 1.101
541.30 1.101
541.40 1.102
541.50 1.102
541.60 1.102
541.70 1.102
541.80 1.102
541.90 1.103
542.00 1.103
542.10 1.103
542.20 1.103
542.30 1.103
542.40 1.104
542.50 1.104
542.60 1.104
542.70 1.104
542.80 1.104
542.90 1.105
543.00 1.105
543.10 1.105
543.20 1.105
543.30 1.105
543.40 1.106
543.50 1.106
543.60 1.106
543.70 1.106
543.80 1.106
543.90 1.107
544.00 1.107
544.10 1.107
544.20 1.107
544.30 1.107
544.40 1.108
544.50 1.108
544.60 1.108
544.70 1.108
544.80 1.108
544.90 1.108
545.00 1.109
545.10 1.109
545.20 1.109
545.30 1.109
545.40 1.109
545.50 1.11
545.60 1.11
545.70 1.11
545.80 1.11
545.90 1.11
546.00 1.111
546.10 1.111
546.20 1.111
546.30 1.111
546.40 1.111
546.50 1.112
546.60 1.112
546.70 1.112
546.80 1.112
546.90 1.112
547.00 1.113
547.10 1.113
547.20 1.113
547.30 1.113
547.40 1.113
547.50 1.114
547.60 1.114
547.70 1.114
547.80 1.114
547.90 1.114
548.00 1.114
548.10 1.115
548.20 1.115
548.30 1.115
548.40 1.115
548.50 1.115
548.60 1.116
548.70 1.116
548.80 1.116
548.90 1.116
549.00 1.116
549.10 1.117
549.20 1.117
549.30 1.117
549.40 1.117
549.50 1.117
549.60 1.117
549.70 1.118
549.80 1.118
549.90 1.118
550.00 1.118
550.10 1.118
550.20 1.119
550.30 1.119
550.40 1.119
550.50 1.119
550.60 1.119
550.70 1.119
550.80 1.12
550.90 1.12
551.00 1.12
551.10 1.12
551.20 1.12
551.30 1.121
551.40 1.121
551.50 1.121
551.60 1.121
551.70 1.121
551.80 1.121
551.90 1.122
552.00 1.122
552.10 1.122
552.20 1.122
552.30 1.122
552.40 1.123
552.50 1.123
552.60 1.123
552.70 1.123
552.80 1.123
552.90 1.123
553.00 1.124
553.10 1.124
553.20 1.124
553.30 1.124
553.40 1.124
553.50 1.125
553.60 1.125
553.70 1.125
553.80 1.125
553.90 1.125
554.00 1.125
554.10 1.126
554.20 1.126
554.30 1.126
554.40 1.126
554.50 1.126
554.60 1.126
554.70 1.127
554.80 1.127
554.90 1.127
555.00 1.127
555.10 1.127
555.20 1.128
555.30 1.128
555.40 1.128
555.50 1.128
555.60 1.128
555.70 1.128
555.80 1.129
555.90 1.129
556.00 1.129
556.10 1.129
556.20 1.129
556.30 1.129
556.40 1.13
556.50 1.13
556.60 1.13
556.70 1.13
556.80 1.13
556.90 1.13
557.00 1.131
557.10 1.131
557.20 1.131
557.30 1.131
557.40 1.131
557.50 1.132
557.60 1.132
557.70 1.132
557.80 1.132
557.90 1.132
558.00 1.132
558.10 1.133
558.20 1.133
558.30 1.133
558.40 1.133
558.50 1.133
558.60 1.133
558.70 1.134
558.80 1.134
558.90 1.134
559.00 1.134
559.10 1.134
559.20 1.134
559.30 1.135
559.40 1.135
559.50 1.135
559.60 1.135
559.70 1.135
559.80 1.135
559.90 1.136
560.00 1.136
560.10 1.136
560.20 1.136
560.30 1.136
560.40 1.136
560.50 1.137
560.60 1.137
560.70 1.137
560.80 1.137
560.90 1.137
561.00 1.137
561.10 1.138
561.20 1.138
561.30 1.138
561.40 1.138
561.50 1.138
561.60 1.138
561.70 1.138
561.80 1.139
561.90 1.139
562.00 1.139
562.10 1.139
562.20 1.139
562.30 1.139
562.40 1.14
562.50 1.14
562.60 1.14
562.70 1.14
562.80 1.14
562.90 1.14
563.00 1.141
563.10 1.141
563.20 1.141
563.30 1.141
563.40 1.141
563.50 1.141
563.60 1.142
563.70 1.142
563.80 1.142
563.90 1.142
564.00 1.142
564.10 1.142
564.20 1.142
564.30 1.143
564.40 1.143
564.50 1.143
564.60 1.143
564.70 1.143
564.80 1.143
564.90 1.144
565.00 1.144
565.10 1.144
565.20 1.144
565.30 1.144
565.40 1.144
565.50 1.144
565.60 1.145
565.70 1.145
565.80 1.145
565.90 1.145
566.00 1.145
566.10 1.145
566.20 1.146
566.30 1.146
566.40 1.146
566.50 1.146
566.60 1.146
566.70 1.146
566.80 1.146
566.90 1.147
567.00 1.147
567.10 1.147
567.20 1.147
567.30 1.147
567.40 1.147
567.50 1.148
567.60 1.148
567.70 1.148
567.80 1.148
567.90 1.148
568.00 1.148
568.10 1.148
568.20 1.149
568.30 1.149
568.40 1.149
568.50 1.149
568.60 1.149
568.70 1.149
568.80 1.149
568.90 1.15
569.00 1.15
569.10 1.15
569.20 1.15
569.30 1.15
569.40 1.15
569.50 1.151
569.60 1.151
569.70 1.151
569.80 1.151
569.90 1.151
570.00 1.151
570.10 1.151
570.20 1.152
570.30 1.152
570.40 1.152
570.50 1.152
570.60 1.152
570.70 1.152
570.80 1.152
570.90 1.153
571.00 1.153
571.10 1.153
571.20 1.153
571.30 1.153
571.40 1.153
571.50 1.153
571.60 1.154
571.70 1.154
571.80 1.154
571.90 1.154
572.00 1.154
572.10 1.154
572.20 1.154
572.30 1.155
572.40 1.155
572.50 1.155
572.60 1.155
572.70 1.155
572.80 1.155
572.90 1.155
573.00 1.155
573.10 1.156
573.20 1.156
573.30 1.156
573.40 1.156
573.50 1.156
573.60 1.156
573.70 1.156
573.80 1.157
573.90 1.157
574.00 1.157
574.10 1.157
574.20 1.157
574.30 1.157
574.40 1.157
574.50 1.158
574.60 1.158
574.70 1.158
574.80 1.158
574.90 1.158
575.00 1.158
575.10 1.158
575.20 1.159
575.30 1.159
575.40 1.159
575.50 1.159
575.60 1.159
575.70 1.159
575.80 1.159
575.90 1.16
576.00 1.16
576.10 1.16
576.20 1.16
576.30 1.16
576.40 1.16
576.50 1.16
576.60 1.16
576.70 1.161
576.80 1.161
576.90 1.161
577.00 1.161
577.10 1.161
577.20 1.161
577.30 1.161
577.40 1.161
577.50 1.162
577.60 1.162
577.70 1.162
577.80 1.162
577.90 1.162
578.00 1.162
578.10 1.162
578.20 1.163
578.30 1.163
578.40 1.163
578.50 1.163
578.60 1.163
578.70 1.163
578.80 1.163
578.90 1.163
579.00 1.164
579.10 1.164
579.20 1.164
579.30 1.164
579.40 1.164
579.50 1.164
579.60 1.164
579.70 1.164
579.80 1.165
579.90 1.165
580.00 1.165
580.10 1.165
580.20 1.165
580.30 1.165
580.40 1.165
580.50 1.165
580.60 1.166
580.70 1.166
580.80 1.166
580.90 1.166
581.00 1.166
581.10 1.166
581.20 1.166
581.30 1.166
581.40 1.167
581.50 1.167
581.60 1.167
581.70 1.167
581.80 1.167
581.90 1.167
582.00 1.167
582.10 1.167
582.20 1.168
582.30 1.168
582.40 1.168
582.50 1.168
582.60 1.168
582.70 1.168
582.80 1.168
582.90 1.168
583.00 1.169
583.10 1.169
583.20 1.169
583.30 1.169
583.40 1.169
583.50 1.169
583.60 1.169
583.70 1.169
583.80 1.17
583.90 1.17
584.00 1.17
584.10 1.17
584.20 1.17
584.30 1.17
584.40 1.17
584.50 1.17
584.60 1.171
584.70 1.171
584.80 1.171
584.90 1.171
585.00 1.171
585.10 1.171
585.20 1.171
585.30 1.171
585.40 1.171
585.50 1.172
585.60 1.172
585.70 1.172
585.80 1.172
585.90 1.172
586.00 1.172
586.10 1.172
586.20 1.172
586.30 1.172
586.40 1.173
586.50 1.173
586.60 1.173
586.70 1.173
586.80 1.173
586.90 1.173
587.00 1.173
587.10 1.173
587.20 1.174
587.30 1.174
587.40 1.174
587.50 1.174
587.60 1.174
587.70 1.174
587.80 1.174
587.90 1.174
588.00 1.174
588.10 1.175
588.20 1.175
588.30 1.175
588.40 1.175
588.50 1.175
588.60 1.175
588.70 1.175
588.80 1.175
588.90 1.175
589.00 1.176
589.10 1.176
589.20 1.176
589.30 1.176
589.40 1.176
589.50 1.176
589.60 1.176
589.70 1.176
589.80 1.176
589.90 1.177
590.00 1.177
590.10 1.177
590.20 1.177
590.30 1.177
590.40 1.177
590.50 1.177
590.60 1.177
590.70 1.177
590.80 1.178
590.90 1.178
591.00 1.178
591.10 1.178
591.20 1.178
591.30 1.178
591.40 1.178
591.50 1.178
591.60 1.178
591.70 1.178
591.80 1.179
591.90 1.179
592.00 1.179
592.10 1.179
592.20 1.179
592.30 1.179
592.40 1.179
592.50 1.179
592.60 1.179
592.70 1.18
592.80 1.18
592.90 1.18
593.00 1.18
593.10 1.18
593.20 1.18
593.30 1.18
593.40 1.18
593.50 1.18
593.60 1.18
593.70 1.181
593.80 1.181
593.90 1.181
594.00 1.181
594.10 1.181
594.20 1.181
594.30 1.181
594.40 1.181
594.50 1.181
594.60 1.181
594.70 1.182
594.80 1.182
594.90 1.182
595.00 1.182
595.10 1.182
595.20 1.182
595.30 1.182
595.40 1.182
595.50 1.182
595.60 1.182
595.70 1.183
595.80 1.183
595.90 1.183
596.00 1.183
596.10 1.183
596.20 1.183
596.30 1.183
596.40 1.183
596.50 1.183
596.60 1.183
596.70 1.184
596.80 1.184
596.90 1.184
597.00 1.184
597.10 1.184
597.20 1.184
597.30 1.184
597.40 1.184
597.50 1.184
597.60 1.184
597.70 1.185
597.80 1.185
597.90 1.185
598.00 1.185
598.10 1.185
598.20 1.185
598.30 1.185
598.40 1.185
598.50 1.185
598.60 1.185
598.70 1.185
598.80 1.186
598.90 1.186
599.00 1.186
599.10 1.186
599.20 1.186
599.30 1.186
599.40 1.186
599.50 1.186
599.60 1.186
599.70 1.186
599.80 1.186
599.90 1.187
600.00 1.187
600.10 1.187
600.20 1.187
600.30 1.187
600.40 1.187
600.50 1.187
600.60 1.187
600.70 1.187
600.80 1.187
600.90 1.187
601.00 1.188
601.10 1.188
601.20 1.188
601.30 1.188
601.40 1.188
601.50 1.188
601.60 1.188
601.70 1.188
601.80 1.188
601.90 1.188
602.00 1.188
602.10 1.189
602.20 1.189
602.30 1.189
602.40 1.189
602.50 1.189
602.60 1.189
602.70 1.189
602.80 1.189
602.90 1.189
603.00 1.189
603.10 1.189
603.20 1.189
603.30 1.19
603.40 1.19
603.50 1.19
603.60 1.19
603.70 1.19
603.80 1.19
603.90 1.19
604.00 1.19
604.10 1.19
604.20 1.19
604.30 1.19
604.40 1.19
604.50 1.191
604.60 1.191
604.70 1.191
604.80 1.191
604.90 1.191
605.00 1.191
605.10 1.191
605.20 1.191
605.30 1.191
605.40 1.191
605.50 1.191
605.60 1.191
605.70 1.192
605.80 1.192
605.90 1.192
606.00 1.192
606.10 1.192
606.20 1.192
606.30 1.192
606.40 1.192
606.50 1.192
606.60 1.192
606.70 1.192
606.80 1.192
606.90 1.193
607.00 1.193
607.10 1.193
607.20 1.193
607.30 1.193
607.40 1.193
607.50 1.193
607.60 1.193
607.70 1.193
607.80 1.193
607.90 1.193
608.00 1.193
608.10 1.193
608.20 1.194
608.30 1.194
608.40 1.194
608.50 1.194
608.60 1.194
608.70 1.194
608.80 1.194
608.90 1.194
609.00 1.194
609.10 1.194
609.20 1.194
609.30 1.194
609.40 1.195
609.50 1.195
609.60 1.195
609.70 1.195
609.80 1.195
609.90 1.195
610.00 1.195
610.10 1.195
610.20 1.195
610.30 1.195
610.40 1.195
610.50 1.195
610.60 1.195
610.70 1.195
610.80 1.196
610.90 1.196
611.00 1.196
611.10 1.196
611.20 1.196
611.30 1.196
611.40 1.196
611.50 1.196
611.60 1.196
611.70 1.196
611.80 1.196
611.90 1.196
612.00 1.196
612.10 1.196
612.20 1.197
612.30 1.197
612.40 1.197
612.50 1.197
612.60 1.197
612.70 1.197
612.80 1.197
612.90 1.197
613.00 1.197
613.10 1.197
613.20 1.197
613.30 1.197
613.40 1.197
613.50 1.197
613.60 1.198
613.70 1.198
613.80 1.198
613.90 1.198
614.00 1.198
614.10 1.198
614.20 1.198
614.30 1.198
614.40 1.198
614.50 1.198
614.60 1.198
614.70 1.198
614.80 1.198
614.90 1.198
615.00 1.198
615.10 1.199
615.20 1.199
615.30 1.199
615.40 1.199
615.50 1.199
615.60 1.199
615.70 1.199
615.80 1.199
615.90 1.199
616.00 1.199
616.10 1.199
616.20 1.199
616.30 1.199
616.40 1.199
616.50 1.199
616.60 1.2
616.70 1.2
616.80 1.2
616.90 1.2
617.00 1.2
617.10 1.2
617.20 1.2
617.30 1.2
617.40 1.2
617.50 1.2
617.60 1.2
617.70 1.2
617.80 1.2
617.90 1.2
618.00 1.2
618.10 1.2
618.20 1.201
618.30 1.201
618.40 1.201
618.50 1.201
618.60 1.201
618.70 1.201
618.80 1.201
618.90 1.201
619.00 1.201
619.10 1.201
619.20 1.201
619.30 1.201
619.40 1.201
619.50 1.201
619.60 1.201
619.70 1.201
619.80 1.201
619.90 1.202
620.00 1.202
620.10 1.202
620.20 1.202
620.30 1.202
620.40 1.202
620.50 1.202
620.60 1.202
620.70 1.202
620.80 1.202
620.90 1.202
621.00 1.202
621.10 1.202
621.20 1.202
621.30 1.202
621.40 1.202
621.50 1.202
621.60 1.203
621.70 1.203
621.80 1.203
621.90 1.203
622.00 1.203
622.10 1.203
622.20 1.203
622.30 1.203
622.40 1.203
622.50 1.203
622.60 1.203
622.70 1.203
622.80 1.203
622.90 1.203
623.00 1.203
623.10 1.203
623.20 1.203
623.30 1.203
623.40 1.203
623.50 1.204
623.60 1.204
623.70 1.204
623.80 1.204
623.90 1.204
624.00 1.204
624.10 1.204
624.20 1.204
624.30 1.204
624.40 1.204
624.50 1.204
624.60 1.204
624.70 1.204
624.80 1.204
624.90 1.204
625.00 1.204
625.10 1.204
625.20 1.204
625.30 1.204
625.40 1.205
625.50 1.205
625.60 1.205
625.70 1.205
625.80 1.205
625.90 1.205
626.00 1.205
626.10 1.205
626.20 1.205
626.30 1.205
626.40 1.205
626.50 1.205
626.60 1.205
626.70 1.205
626.80 1.205
626.90 1.205
627.00 1.205
627.10 1.205
627.20 1.205
627.30 1.205
627.40 1.205
627.50 1.206
627.60 1.206
627.70 1.206
627.80 1.206
627.90 1.206
628.00 1.206
628.10 1.206
628.20 1.206
628.30 1.206
628.40 1.206
628.50 1.206
628.60 1.206
628.70 1.206
628.80 1.206
628.90 1.206
629.00 1.206
629.10 1.206
629.20 1.206
629.30 1.206
629.40 1.206
629.50 1.206
629.60 1.207
629.70 1.207
629.80 1.207
629.90 1.207
630.00 1.207
630.10 1.207
630.20 1.207
630.30 1.207
630.40 1.207
630.50 1.207
630.60 1.207
630.70 1.207
630.80 1.207
630.90 1.207
631.00 1.207
631.10 1.207
631.20 1.207
631.30 1.207
631.40 1.207
631.50 1.207
631.60 1.207
631.70 1.207
631.80 1.207
631.90 1.207
632.00 1.208
632.10 1.208
632.20 1.208
632.30 1.208
632.40 1.208
632.50 1.208
632.60 1.208
632.70 1.208
632.80 1.208
632.90 1.208
633.00 1.208
633.10 1.208
633.20 1.208
633.30 1.208
633.40 1.208
633.50 1.208
633.60 1.208
633.70 1.208
633.80 1.208
633.90 1.208
634.00 1.208
634.10 1.208
634.20 1.208
634.30 1.208
634.40 1.208
634.50 1.208
634.60 1.208
634.70 1.209
634.80 1.209
634.90 1.209
635.00 1.209
635.10 1.209
635.20 1.209
635.30 1.209
635.40 1.209
635.50 1.209
635.60 1.209
635.70 1.209
635.80 1.209
635.90 1.209
636.00 1.209
636.10 1.209
636.20 1.209
636.30 1.209
636.40 1.209
636.50 1.209
636.60 1.209
636.70 1.209
636.80 1.209
636.90 1.209
637.00 1.209
637.10 1.209
637.20 1.209
637.30 1.209
637.40 1.209
637.50 1.209
637.60 1.21
637.70 1.21
637.80 1.21
637.90 1.21
638.00 1.21
638.10 1.21
638.20 1.21
638.30 1.21
638.40 1.21
638.50 1.21
638.60 1.21
638.70 1.21
638.80 1.21
638.90 1.21
639.00 1.21
639.10 1.21
639.20 1.21
639.30 1.21
639.40 1.21
639.50 1.21
639.60 1.21
639.70 1.21
639.80 1.21
639.90 1.21
640.00 1.21
640.10 1.21
640.20 1.21
640.30 1.21
640.40 1.21
640.50 1.21
640.60 1.21
640.70 1.21
640.80 1.21
640.90 1.21
641.00 1.21
641.10 1.211
641.20 1.211
641.30 1.211
641.40 1.211
641.50 1.211
641.60 1.211
641.70 1.211
641.80 1.211
641.90 1.211
642.00 1.211
642.10 1.211
642.20 1.211
642.30 1.211
642.40 1.211
642.50 1.211
642.60 1.211
642.70 1.211
642.80 1.211
642.90 1.211
643.00 1.211
643.10 1.211
643.20 1.211
643.30 1.211
643.40 1.211
643.50 1.211
643.60 1.211
643.70 1.211
643.80 1.211
643.90 1.211
644.00 1.211
644.10 1.211
644.20 1.211
644.30 1.211
644.40 1.211
644.50 1.211
644.60 1.211
644.70 1.211
644.80 1.211
644.90 1.211
645.00 1.211
645.10 1.211
645.20 1.211
645.30 1.212
645.40 1.212
645.50 1.212
645.60 1.212
645.70 1.212
645.80 1.212
645.90 1.212
646.00 1.212
646.10 1.212
646.20 1.212
646.30 1.212
646.40 1.212
646.50 1.212
646.60 1.212
646.70 1.212
646.80 1.212
646.90 1.212
647.00 1.212
647.10 1.212
647.20 1.212
647.30 1.212
647.40 1.212
647.50 1.212
647.60 1.212
647.70 1.212
647.80 1.212
647.90 1.212
648.00 1.212
648.10 1.212
648.20 1.212
648.30 1.212
648.40 1.212
648.50 1.212
648.60 1.212
648.70 1.212
648.80 1.212
648.90 1.212
649.00 1.212
649.10 1.212
649.20 1.212
649.30 1.212
649.40 1.212
649.50 1.212
649.60 1.212
649.70 1.212
649.80 1.212
649.90 1.212
650.00 1.212
650.10 1.212
650.20 1.212
650.30 1.212
650.40 1.212
650.50 1.212
650.60 1.212
650.70 1.212
650.80 1.212
650.90 1.212
651.00 1.212
651.10 1.212
651.20 1.212
651.30 1.213
651.40 1.213
651.50 1.213
651.60 1.213
651.70 1.213
651.80 1.213
651.90 1.213
652.00 1.213
652.10 1.213
652.20 1.213
652.30 1.213
652.40 1.213
652.50 1.213
652.60 1.213
652.70 1.213
652.80 1.213
652.90 1.213
653.00 1.213
653.10 1.213
653.20 1.213
653.30 1.213
653.40 1.213
653.50 1.213
653.60 1.213
653.70 1.213
653.80 1.213
653.90 1.213
654.00 1.213
654.10 1.213
654.20 1.213
654.30 1.213
654.40 1.213
654.50 1.213
654.60 1.213
654.70 1.213
654.80 1.213
654.90 1.213
655.00 1.213
655.10 1.213
655.20 1.213
655.30 1.213
655.40 1.213
655.50 1.213
655.60 1.213
655.70 1.213
655.80 1.213
655.90 1.213
656.00 1.213
656.10 1.213
656.20 1.213
656.30 1.213
656.40 1.213
656.50 1.213
656.60 1.213
656.70 1.213
656.80 1.213
656.90 1.213
657.00 1.213
657.10 1.213
657.20 1.213
657.30 1.213
657.40 1.213
657.50 1.213
657.60 1.213
657.70 1.213
657.80 1.213
657.90 1.213
658.00 1.213
658.10 1.213
658.20 1.213
658.30 1.213
658.40 1.213
658.50 1.213
658.60 1.213
658.70 1.213
658.80 1.213
658.90 1.213
659.00 1.213
659.10 1.213
659.20 1.213
659.30 1.213
659.40 1.213
659.50 1.213
659.60 1.213
659.70 1.213
659.80 1.213
659.90 1.213
660.00 1.213
660.10 1.213
660.20 1.213
660.30 1.213
660.40 1.213
660.50 1.213
660.60 1.213
660.70 1.213
660.80 1.213
660.90 1.213
661.00 1.213
661.10 1.213
661.20 1.213
661.30 1.213
661.40 1.213
661.50 1.213
661.60 1.213
661.70 1.213
661.80 1.213
661.90 1.213
662.00 1.213
662.10 1.213
662.20 1.213
662.30 1.213
662.40 1.213
662.50 1.213
662.60 1.213
662.70 1.213
662.80 1.213
662.90 1.213
663.00 1.213
663.10 1.213
663.20 1.213
663.30 1.213
663.40 1.213
663.50 1.213
663.60 1.213
663.70 1.213
663.80 1.213
663.90 1.213
664.00 1.213
664.10 1.213
664.20 1.213
664.30 1.213
664.40 1.213
664.50 1.213
664.60 1.213
664.70 1.213
664.80 1.213
664.90 1.213
665.00 1.213
665.10 1.213
665.20 1.213
665.30 1.213
665.40 1.213
665.50 1.213
665.60 1.213
665.70 1.213
665.80 1.213
665.90 1.213
666.00 1.213
666.10 1.213
666.20 1.213
666.30 1.213
666.40 1.213
666.50 1.213
666.60 1.213
666.70 1.213
666.80 1.213
666.90 1.213
667.00 1.213
667.10 1.213
667.20 1.213
667.30 1.213
667.40 1.213
667.50 1.213
667.60 1.213
667.70 1.213
667.80 1.213
667.90 1.213
668.00 1.213
668.10 1.213
668.20 1.213
668.30 1.213
668.40 1.213
668.50 1.213
668.60 1.213
668.70 1.213
668.80 1.213
668.90 1.213
669.00 1.212
669.10 1.212
669.20 1.212
669.30 1.212
669.40 1.212
669.50 1.212
669.60 1.212
669.70 1.212
669.80 1.212
669.90 1.212
670.00 1.212
670.10 1.212
670.20 1.212
670.30 1.212
670.40 1.212
670.50 1.212
670.60 1.212
670.70 1.212
670.80 1.212
670.90 1.212
671.00 1.212
671.10 1.212
671.20 1.212
671.30 1.212
671.40 1.212
671.50 1.212
671.60 1.212
671.70 1.212
671.80 1.212
671.90 1.212
672.00 1.212
672.10 1.212
672.20 1.212
672.30 1.212
672.40 1.212
672.50 1.212
672.60 1.212
672.70 1.212
672.80 1.212
672.90 1.212
673.00 1.212
673.10 1.212
673.20 1.212
673.30 1.212
673.40 1.212
673.50 1.212
673.60 1.212
673.70 1.212
673.80 1.212
673.90 1.212
674.00 1.212
674.10 1.212
674.20 1.212
674.30 1.212
674.40 1.212
674.50 1.212
674.60 1.212
674.70 1.212
674.80 1.212
674.90 1.212
675.00 1.212
675.10 1.212
675.20 1.212
675.30 1.211
675.40 1.211
675.50 1.211
675.60 1.211
675.70 1.211
675.80 1.211
675.90 1.211
676.00 1.211
676.10 1.211
676.20 1.211
676.30 1.211
676.40 1.211
676.50 1.211
676.60 1.211
676.70 1.211
676.80 1.211
676.90 1.211
677.00 1.211
677.10 1.211
677.20 1.211
677.30 1.211
677.40 1.211
677.50 1.211
677.60 1.211
677.70 1.211
677.80 1.211
677.90 1.211
678.00 1.211
678.10 1.211
678.20 1.211
678.30 1.211
678.40 1.211
678.50 1.211
678.60 1.211
678.70 1.211
678.80 1.211
678.90 1.211
679.00 1.211
679.10 1.211
679.20 1.211
679.30 1.211
679.40 1.211
679.50 1.211
679.60 1.21
679.70 1.21
679.80 1.21
679.90 1.21
680.00 1.21
680.10 1.21
680.20 1.21
680.30 1.21
680.40 1.21
680.50 1.21
680.60 1.21
680.70 1.21
680.80 1.21
680.90 1.21
681.00 1.21
681.10 1.21
681.20 1.21
681.30 1.21
681.40 1.21
681.50 1.21
681.60 1.21
681.70 1.21
681.80 1.21
681.90 1.21
682.00 1.21
682.10 1.21
682.20 1.21
682.30 1.21
682.40 1.21
682.50 1.21
682.60 1.21
682.70 1.21
682.80 1.21
682.90 1.21
683.00 1.21
683.10 1.209
683.20 1.209
683.30 1.209
683.40 1.209
683.50 1.209
683.60 1.209
683.70 1.209
683.80 1.209
683.90 1.209
684.00 1.209
684.10 1.209
684.20 1.209
684.30 1.209
684.40 1.209
684.50 1.209
684.60 1.209
684.70 1.209
684.80 1.209
684.90 1.209
685.00 1.209
685.10 1.209
685.20 1.209
685.30 1.209
685.40 1.209
685.50 1.209
685.60 1.209
685.70 1.209
685.80 1.209
685.90 1.209
686.00 1.209
686.10 1.209
686.20 1.209
686.30 1.208
686.40 1.208
686.50 1.208
686.60 1.208
686.70 1.208
686.80 1.208
686.90 1.208
687.00 1.208
687.10 1.208
687.20 1.208
687.30 1.208
687.40 1.208
687.50 1.208
687.60 1.208
687.70 1.208
687.80 1.208
687.90 1.208
688.00 1.208
688.10 1.208
688.20 1.208
688.30 1.208
688.40 1.208
688.50 1.208
688.60 1.208
688.70 1.208
688.80 1.208
688.90 1.208
689.00 1.207
689.10 1.207
689.20 1.207
689.30 1.207
689.40 1.207
689.50 1.207
689.60 1.207
689.70 1.207
689.80 1.207
689.90 1.207
690.00 1.207
690.10 1.207
690.20 1.207
690.30 1.207
690.40 1.207
690.50 1.207
690.60 1.207
690.70 1.207
690.80 1.207
690.90 1.207
691.00 1.207
691.10 1.207
691.20 1.207
691.30 1.207
691.40 1.206
691.50 1.206
691.60 1.206
691.70 1.206
691.80 1.206
691.90 1.206
692.00 1.206
692.10 1.206
692.20 1.206
692.30 1.206
692.40 1.206
692.50 1.206
692.60 1.206
692.70 1.206
692.80 1.206
692.90 1.206
693.00 1.206
693.10 1.206
693.20 1.206
693.30 1.206
693.40 1.206
693.50 1.206
693.60 1.206
693.70 1.206
693.80 1.205
693.90 1.205
694.00 1.205
694.10 1.205
694.20 1.205
694.30 1.205
694.40 1.205
694.50 1.205
694.60 1.205
694.70 1.205
694.80 1.205
694.90 1.205
695.00 1.205
695.10 1.205
695.20 1.205
695.30 1.205
695.40 1.205
695.50 1.205
695.60 1.205
695.70 1.205
695.80 1.205
695.90 1.205
696.00 1.204
696.10 1.204
696.20 1.204
696.30 1.204
696.40 1.204
696.50 1.204
696.60 1.204
696.70 1.204
696.80 1.204
696.90 1.204
697.00 1.204
697.10 1.204
697.20 1.204
697.30 1.204
697.40 1.204
697.50 1.204
697.60 1.204
697.70 1.204
697.80 1.204
697.90 1.204
698.00 1.203
698.10 1.203
698.20 1.203
698.30 1.203
698.40 1.203
698.50 1.203
698.60 1.203
698.70 1.203
698.80 1.203
698.90 1.203
699.00 1.203
699.10 1.203
699.20 1.203
699.30 1.203
699.40 1.203
699.50 1.203
699.60 1.203
699.70 1.203
699.80 1.203
699.90 1.203
700.00 1.202
700.10 1.202
700.20 1.202
700.30 1.202
700.40 1.202
700.50 1.202
700.60 1.202
700.70 1.202
700.80 1.202
700.90 1.202
701.00 1.202
701.10 1.202
701.20 1.202
701.30 1.202
701.40 1.202
701.50 1.202
701.60 1.202
701.70 1.202
701.80 1.202
701.90 1.201
702.00 1.201
702.10 1.201
702.20 1.201
702.30 1.201
702.40 1.201
702.50 1.201
702.60 1.201
702.70 1.201
702.80 1.201
702.90 1.201
703.00 1.201
703.10 1.201
703.20 1.201
703.30 1.201
703.40 1.201
703.50 1.201
703.60 1.201
703.70 1.2
703.80 1.2
703.90 1.2
704.00 1.2
704.10 1.2
704.20 1.2
704.30 1.2
704.40 1.2
704.50 1.2
704.60 1.2
704.70 1.2
704.80 1.2
704.90 1.2
705.00 1.2
705.10 1.2
705.20 1.2
705.30 1.2
705.40 1.199
705.50 1.199
705.60 1.199
705.70 1.199
705.80 1.199
705.90 1.199
706.00 1.199
706.10 1.199
706.20 1.199
706.30 1.199
706.40 1.199
706.50 1.199
706.60 1.199
706.70 1.199
706.80 1.199
706.90 1.199
707.00 1.199
707.10 1.198
707.20 1.198
707.30 1.198
707.40 1.198
707.50 1.198
707.60 1.198
707.70 1.198
707.80 1.198
707.90 1.198
708.00 1.198
708.10 1.198
708.20 1.198
708.30 1.198
708.40 1.198
708.50 1.198
708.60 1.198
708.70 1.197
708.80 1.197
708.90 1.197
709.00 1.197
709.10 1.197
709.20 1.197
709.30 1.197
709.40 1.197
709.50 1.197
709.60 1.197
709.70 1.197
709.80 1.197
709.90 1.197
710.00 1.197
710.10 1.197
710.20 1.197
710.30 1.196
710.40 1.196
710.50 1.196
710.60 1.196
710.70 1.196
710.80 1.196
710.90 1.196
711.00 1.196
711.10 1.196
711.20 1.196
711.30 1.196
711.40 1.196
711.50 1.196
711.60 1.196
711.70 1.196
711.80 1.195
711.90 1.195
712.00 1.195
712.10 1.195
712.20 1.195
712.30 1.195
712.40 1.195
712.50 1.195
712.60 1.195
712.70 1.195
712.80 1.195
712.90 1.195
713.00 1.195
713.10 1.195
713.20 1.195
713.30 1.194
713.40 1.194
713.50 1.194
713.60 1.194
713.70 1.194
713.80 1.194
713.90 1.194
714.00 1.194
714.10 1.194
714.20 1.194
714.30 1.194
714.40 1.194
714.50 1.194
714.60 1.194
714.70 1.193
714.80 1.193
714.90 1.193
715.00 1.193
715.10 1.193
715.20 1.193
715.30 1.193
715.40 1.193
715.50 1.193
715.60 1.193
715.70 1.193
715.80 1.193
715.90 1.193
716.00 1.193
716.10 1.192
716.20 1.192
716.30 1.192
716.40 1.192
716.50 1.192
716.60 1.192
716.70 1.192
716.80 1.192
716.90 1.192
717.00 1.192
717.10 1.192
717.20 1.192
717.30 1.192
717.40 1.192
717.50 1.191
717.60 1.191
717.70 1.191
717.80 1.191
717.90 1.191
718.00 1.191
718.10 1.191
718.20 1.191
718.30 1.191
718.40 1.191
718.50 1.191
718.60 1.191
718.70 1.191
718.80 1.191
718.90 1.19
719.00 1.19
719.10 1.19
719.20 1.19
719.30 1.19
719.40 1.19
719.50 1.19
719.60 1.19
719.70 1.19
719.80 1.19
719.90 1.19
720.00 1.19
720.10 1.19
720.20 1.189
720.30 1.189
720.40 1.189
720.50 1.189
720.60 1.189
720.70 1.189
720.80 1.189
720.90 1.189
721.00 1.189
721.10 1.189
721.20 1.189
721.30 1.189
721.40 1.189
721.50 1.188
721.60 1.188
721.70 1.188
721.80 1.188
721.90 1.188
722.00 1.188
722.10 1.188
722.20 1.188
722.30 1.188
722.40 1.188
722.50 1.188
722.60 1.188
722.70 1.188
722.80 1.187
722.90 1.187
723.00 1.187
723.10 1.187
723.20 1.187
723.30 1.187
723.40 1.187
723.50 1.187
723.60 1.187
723.70 1.187
723.80 1.187
723.90 1.187
724.00 1.187
724.10 1.186
724.20 1.186
724.30 1.186
724.40 1.186
724.50 1.186
724.60 1.186
724.70 1.186
724.80 1.186
724.90 1.186
725.00 1.186
725.10 1.186
725.20 1.186
725.30 1.186
725.40 1.185
725.50 1.185
725.60 1.185
725.70 1.185
725.80 1.185
725.90 1.185
726.00 1.185
726.10 1.185
726.20 1.185
726.30 1.185
726.40 1.185
726.50 1.185
726.60 1.185
726.70 1.184
726.80 1.184
726.90 1.184
727.00 1.184
727.10 1.184
727.20 1.184
727.30 1.184
727.40 1.184
727.50 1.184
727.60 1.184
727.70 1.184
727.80 1.184
727.90 1.183
728.00 1.183
728.10 1.183
728.20 1.183
728.30 1.183
728.40 1.183
728.50 1.183
728.60 1.183
728.70 1.183
728.80 1.183
728.90 1.183
729.00 1.183
729.10 1.182
729.20 1.182
729.30 1.182
729.40 1.182
729.50 1.182
729.60 1.182
729.70 1.182
729.80 1.182
729.90 1.182
730.00 1.182
730.10 1.182
730.20 1.182
730.30 1.181
730.40 1.181
730.50 1.181
730.60 1.181
730.70 1.181
730.80 1.181
730.90 1.181
731.00 1.181
731.10 1.181
731.20 1.181
731.30 1.181
731.40 1.181
731.50 1.18
731.60 1.18
731.70 1.18
731.80 1.18
731.90 1.18
732.00 1.18
732.10 1.18
732.20 1.18
732.30 1.18
732.40 1.18
732.50 1.18
732.60 1.179
732.70 1.179
732.80 1.179
732.90 1.179
733.00 1.179
733.10 1.179
733.20 1.179
733.30 1.179
733.40 1.179
733.50 1.179
733.60 1.179
733.70 1.179
733.80 1.178
733.90 1.178
734.00 1.178
734.10 1.178
734.20 1.178
734.30 1.178
734.40 1.178
734.50 1.178
734.60 1.178
734.70 1.178
734.80 1.178
734.90 1.177
735.00 1.177
735.10 1.177
735.20 1.177
735.30 1.177
735.40 1.177
735.50 1.177
735.60 1.177
735.70 1.177
735.80 1.177
735.90 1.177
736.00 1.177
736.10 1.176
736.20 1.176
736.30 1.176
736.40 1.176
736.50 1.176
736.60 1.176
736.70 1.176
736.80 1.176
736.90 1.176
737.00 1.176
737.10 1.176
737.20 1.176
737.30 1.175
737.40 1.175
737.50 1.175
737.60 1.175
737.70 1.175
737.80 1.175
737.90 1.175
738.00 1.175
738.10 1.175
738.20 1.175
738.30 1.175
738.40 1.174
738.50 1.174
738.60 1.174
738.70 1.174
738.80 1.174
738.90 1.174
739.00 1.174
739.10 1.174
739.20 1.174
739.30 1.174
739.40 1.174
739.50 1.174
739.60 1.173
739.70 1.173
739.80 1.173
739.90 1.173
740.00 1.173
740.10 1.173
740.20 1.173
740.30 1.173
740.40 1.173
740.50 1.173
740.60 1.173
740.70 1.172
740.80 1.172
740.90 1.172
741.00 1.172
741.10 1.172
741.20 1.172
741.30 1.172
741.40 1.172
741.50 1.172
741.60 1.172
741.70 1.172
741.80 1.171
741.90 1.171
742.00 1.171
742.10 1.171
742.20 1.171
742.30 1.171
742.40 1.171
742.50 1.171
742.60 1.171
742.70 1.171
742.80 1.171
742.90 1.17
743.00 1.17
743.10 1.17
743.20 1.17
743.30 1.17
743.40 1.17
743.50 1.17
743.60 1.17
743.70 1.17
743.80 1.17
743.90 1.17
744.00 1.169
744.10 1.169
744.20 1.169
744.30 1.169
744.40 1.169
744.50 1.169
744.60 1.169
744.70 1.169
744.80 1.169
744.90 1.169
745.00 1.169
745.10 1.168
745.20 1.168
745.30 1.168
745.40 1.168
745.50 1.168
745.60 1.168
745.70 1.168
745.80 1.168
745.90 1.168
746.00 1.168
746.10 1.168
746.20 1.167
746.30 1.167
746.40 1.167
746.50 1.167
746.60 1.167
746.70 1.167
746.80 1.167
746.90 1.167
747.00 1.167
747.10 1.167
747.20 1.167
747.30 1.166
747.40 1.166
747.50 1.166
747.60 1.166
747.70 1.166
747.80 1.166
747.90 1.166
748.00 1.166
748.10 1.166
748.20 1.166
748.30 1.166
748.40 1.165
748.50 1.165
748.60 1.165
748.70 1.165
748.80 1.165
748.90 1.165
749.00 1.165
749.10 1.165
749.20 1.165
749.30 1.165
749.40 1.165
749.50 1.164
749.60 1.164
749.70 1.164
749.80 1.164
749.90 1.164
750.00 1.164
750.10 1.164
750.20 1.164
750.30 1.164
750.40 1.164
750.50 1.164
750.60 1.163
750.70 1.163
750.80 1.163
750.90 1.163
751.00 1.163
751.10 1.163
751.20 1.163
751.30 1.163
751.40 1.163
751.50 1.163
751.60 1.162
751.70 1.162
751.80 1.162
751.90 1.162
752.00 1.162
752.10 1.162
752.20 1.162
752.30 1.162
752.40 1.162
752.50 1.162
752.60 1.162
752.70 1.161
752.80 1.161
752.90 1.161
753.00 1.161
753.10 1.161
753.20 1.161
753.30 1.161
753.40 1.161
753.50 1.161
753.60 1.161
753.70 1.16
753.80 1.16
753.90 1.16
754.00 1.16
754.10 1.16
754.20 1.16
754.30 1.16
754.40 1.16
754.50 1.16
754.60 1.16
754.70 1.159
754.80 1.159
754.90 1.159
755.00 1.159
755.10 1.159
755.20 1.159
755.30 1.159
755.40 1.159
755.50 1.159
755.60 1.159
755.70 1.159
755.80 1.158
755.90 1.158
756.00 1.158
756.10 1.158
756.20 1.158
756.30 1.158
756.40 1.158
756.50 1.158
756.60 1.158
756.70 1.158
756.80 1.157
756.90 1.157
757.00 1.157
757.10 1.157
757.20 1.157
757.30 1.157
757.40 1.157
757.50 1.157
757.60 1.157
757.70 1.157
757.80 1.157
757.90 1.156
758.00 1.156
758.10 1.156
758.20 1.156
758.30 1.156
758.40 1.156
758.50 1.156
758.60 1.156
758.70 1.156
758.80 1.156
758.90 1.155
759.00 1.155
759.10 1.155
759.20 1.155
759.30 1.155
759.40 1.155
759.50 1.155
759.60 1.155
759.70 1.155
759.80 1.155
759.90 1.155
760.00 1.154
760.10 1.154
760.20 1.154
760.30 1.154
760.40 1.154
760.50 1.154
760.60 1.154
760.70 1.154
760.80 1.154
760.90 1.154
761.00 1.153
761.10 1.153
761.20 1.153
761.30 1.153
761.40 1.153
761.50 1.153
761.60 1.153
761.70 1.153
761.80 1.153
761.90 1.153
762.00 1.152
762.10 1.152
762.20 1.152
762.30 1.152
762.40 1.152
762.50 1.152
762.60 1.152
762.70 1.152
762.80 1.152
762.90 1.152
763.00 1.151
763.10 1.151
763.20 1.151
763.30 1.151
763.40 1.151
763.50 1.151
763.60 1.151
763.70 1.151
763.80 1.151
763.90 1.151
764.00 1.15
764.10 1.15
764.20 1.15
764.30 1.15
764.40 1.15
764.50 1.15
764.60 1.15
764.70 1.15
764.80 1.15
764.90 1.15
765.00 1.149
765.10 1.149
765.20 1.149
765.30 1.149
765.40 1.149
765.50 1.149
765.60 1.149
765.70 1.149
765.80 1.149
765.90 1.149
766.00 1.148
766.10 1.148
766.20 1.148
766.30 1.148
766.40 1.148
766.50 1.148
766.60 1.148
766.70 1.148
766.80 1.148
766.90 1.148
767.00 1.147
767.10 1.147
767.20 1.147
767.30 1.147
767.40 1.147
767.50 1.147
767.60 1.147
767.70 1.147
767.80 1.147
767.90 1.147
768.00 1.146
768.10 1.146
768.20 1.146
768.30 1.146
768.40 1.146
768.50 1.146
768.60 1.146
768.70 1.146
768.80 1.146
768.90 1.146
769.00 1.145
769.10 1.145
769.20 1.145
769.30 1.145
769.40 1.145
769.50 1.145
769.60 1.145
769.70 1.145
769.80 1.145
769.90 1.145
770.00 1.144
770.10 1.144
770.20 1.144
770.30 1.144
770.40 1.144
770.50 1.144
770.60 1.144
770.70 1.144
770.80 1.144
770.90 1.144
771.00 1.143
771.10 1.143
771.20 1.143
771.30 1.143
771.40 1.143
771.50 1.143
771.60 1.143
771.70 1.143
771.80 1.143
771.90 1.142
772.00 1.142
772.10 1.142
772.20 1.142
772.30 1.142
772.40 1.142
772.50 1.142
772.60 1.142
772.70 1.142
772.80 1.142
772.90 1.141
773.00 1.141
773.10 1.141
773.20 1.141
773.30 1.141
773.40 1.141
773.50 1.141
773.60 1.141
773.70 1.141
773.80 1.141
773.90 1.14
774.00 1.14
774.10 1.14
774.20 1.14
774.30 1.14
774.40 1.14
774.50 1.14
774.60 1.14
774.70 1.14
774.80 1.139
774.90 1.139
775.00 1.139
775.10 1.139
775.20 1.139
775.30 1.139
775.40 1.139
775.50 1.139
775.60 1.139
775.70 1.139
775.80 1.138
775.90 1.138
776.00 1.138
776.10 1.138
776.20 1.138
776.30 1.138
776.40 1.138
776.50 1.138
776.60 1.138
776.70 1.138
776.80 1.137
776.90 1.137
777.00 1.137
777.10 1.137
777.20 1.137
777.30 1.137
777.40 1.137
777.50 1.137
777.60 1.137
777.70 1.136
777.80 1.136
777.90 1.136
778.00 1.136
778.10 1.136
778.20 1.136
778.30 1.136
778.40 1.136
778.50 1.136
778.60 1.136
778.70 1.135
778.80 1.135
778.90 1.135
779.00 1.135
779.10 1.135
779.20 1.135
779.30 1.135
779.40 1.135
779.50 1.135
779.60 1.135
779.70 1.134
779.80 1.134
779.90 1.134
780.00 1.134
780.10 1.134
780.20 1.134
780.30 1.134
780.40 1.134
780.50 1.134
780.60 1.133
780.70 1.133
780.80 1.133
780.90 1.133
781.00 1.133
781.10 1.133
781.20 1.133
781.30 1.133
781.40 1.133
781.50 1.133
781.60 1.132
781.70 1.132
781.80 1.132
781.90 1.132
782.00 1.132
782.10 1.132
782.20 1.132
782.30 1.132
782.40 1.132
782.50 1.131
782.60 1.131
782.70 1.131
782.80 1.131
782.90 1.131
783.00 1.131
783.10 1.131
783.20 1.131
783.30 1.131
783.40 1.131
783.50 1.13
783.60 1.13
783.70 1.13
783.80 1.13
783.90 1.13
784.00 1.13
784.10 1.13
784.20 1.13
784.30 1.13
784.40 1.129
784.50 1.129
784.60 1.129
784.70 1.129
784.80 1.129
784.90 1.129
785.00 1.129
785.10 1.129
785.20 1.129
785.30 1.128
785.40 1.128
785.50 1.128
785.60 1.128
785.70 1.128
785.80 1.128
785.90 1.128
786.00 1.128
786.10 1.128
786.20 1.128
786.30 1.127
786.40 1.127
786.50 1.127
786.60 1.127
786.70 1.127
786.80 1.127
786.90 1.127
787.00 1.127
787.10 1.127
787.20 1.126
787.30 1.126
787.40 1.126
787.50 1.126
787.60 1.126
787.70 1.126
787.80 1.126
787.90 1.126
788.00 1.126
788.10 1.126
788.20 1.125
788.30 1.125
788.40 1.125
788.50 1.125
788.60 1.125
788.70 1.125
788.80 1.125
788.90 1.125
789.00 1.125
789.10 1.124
789.20 1.124
789.30 1.124
789.40 1.124
789.50 1.124
789.60 1.124
789.70 1.124
789.80 1.124
789.90 1.124
790.00 1.124
790.10 1.123
790.20 1.123
790.30 1.123
790.40 1.123
790.50 1.123
790.60 1.123
790.70 1.123
790.80 1.123
790.90 1.123
791.00 1.122
791.10 1.122
791.20 1.122
791.30 1.122
791.40 1.122
791.50 1.122
791.60 1.122
791.70 1.122
791.80 1.122
791.90 1.121
792.00 1.121
792.10 1.121
792.20 1.121
792.30 1.121
792.40 1.121
792.50 1.121
792.60 1.121
792.70 1.121
792.80 1.12
792.90 1.12
793.00 1.12
793.10 1.12
793.20 1.12
793.30 1.12
793.40 1.12
793.50 1.12
793.60 1.12
793.70 1.119
793.80 1.119
793.90 1.119
794.00 1.119
794.10 1.119
794.20 1.119
794.30 1.119
794.40 1.119
794.50 1.119
794.60 1.118
794.70 1.118
794.80 1.118
794.90 1.118
795.00 1.118
795.10 1.118
795.20 1.118
795.30 1.118
795.40 1.118
795.50 1.117
795.60 1.117
795.70 1.117
795.80 1.117
795.90 1.117
796.00 1.117
796.10 1.117
796.20 1.117
796.30 1.117
796.40 1.116
796.50 1.116
796.60 1.116
796.70 1.116
796.80 1.116
796.90 1.116
797.00 1.116
797.10 1.116
797.20 1.116
797.30 1.115
797.40 1.115
797.50 1.115
797.60 1.115
797.70 1.115
797.80 1.115
797.90 1.115
798.00 1.115
798.10 1.115
798.20 1.115
798.30 1.114
798.40 1.114
798.50 1.114
798.60 1.114
798.70 1.114
798.80 1.114
798.90 1.114
799.00 1.114
799.10 1.114
799.20 1.113
799.30 1.113
799.40 1.113
799.50 1.113
799.60 1.113
799.70 1.113
799.80 1.113
799.90 1.113
800.00 1.113
800.10 1.112
800.20 1.112
800.30 1.112
800.40 1.112
800.50 1.112
800.60 1.112
800.70 1.112
800.80 1.112
800.90 1.111
801.00 1.111
801.10 1.111
801.20 1.111
801.30 1.111
801.40 1.111
801.50 1.111
801.60 1.111
801.70 1.111
801.80 1.11
801.90 1.11
802.00 1.11
802.10 1.11
802.20 1.11
802.30 1.11
802.40 1.11
802.50 1.11
802.60 1.109
802.70 1.109
802.80 1.109
802.90 1.109
803.00 1.109
803.10 1.109
803.20 1.109
803.30 1.109
803.40 1.109
803.50 1.108
803.60 1.108
803.70 1.108
803.80 1.108
803.90 1.108
804.00 1.108
804.10 1.108
804.20 1.108
804.30 1.107
804.40 1.107
804.50 1.107
804.60 1.107
804.70 1.107
804.80 1.107
804.90 1.107
805.00 1.107
805.10 1.107
805.20 1.106
805.30 1.106
805.40 1.106
805.50 1.106
805.60 1.106
805.70 1.106
805.80 1.106
805.90 1.106
806.00 1.105
806.10 1.105
806.20 1.105
806.30 1.105
806.40 1.105
806.50 1.105
806.60 1.105
806.70 1.105
806.80 1.105
806.90 1.104
807.00 1.104
807.10 1.104
807.20 1.104
807.30 1.104
807.40 1.104
807.50 1.104
807.60 1.104
807.70 1.104
807.80 1.103
807.90 1.103
808.00 1.103
808.10 1.103
808.20 1.103
808.30 1.103
808.40 1.103
808.50 1.103
808.60 1.102
808.70 1.102
808.80 1.102
808.90 1.102
809.00 1.102
809.10 1.102
809.20 1.102
809.30 1.102
809.40 1.102
809.50 1.101
809.60 1.101
809.70 1.101
809.80 1.101
809.90 1.101
810.00 1.101
810.10 1.101
810.20 1.101
810.30 1.1
810.40 1.1
810.50 1.1
810.60 1.1
810.70 1.1
810.80 1.1
810.90 1.1
811.00 1.1
811.10 1.099
811.20 1.099
811.30 1.099
811.40 1.099
811.50 1.099
811.60 1.099
811.70 1.099
811.80 1.099
811.90 1.098
812.00 1.098
812.10 1.098
812.20 1.098
812.30 1.098
812.40 1.098
812.50 1.098
812.60 1.098
812.70 1.098
812.80 1.097
812.90 1.097
813.00 1.097
813.10 1.097
813.20 1.097
813.30 1.097
813.40 1.097
813.50 1.097
813.60 1.096
813.70 1.096
813.80 1.096
813.90 1.096
814.00 1.096
814.10 1.096
814.20 1.096
814.30 1.096
814.40 1.095
814.50 1.095
814.60 1.095
814.70 1.095
814.80 1.095
814.90 1.095
815.00 1.095
815.10 1.095
815.20 1.094
815.30 1.094
815.40 1.094
815.50 1.094
815.60 1.094
815.70 1.094
815.80 1.094
815.90 1.094
816.00 1.093
816.10 1.093
816.20 1.093
816.30 1.093
816.40 1.093
816.50 1.093
816.60 1.093
816.70 1.093
816.80 1.092
816.90 1.092
817.00 1.092
817.10 1.092
817.20 1.092
817.30 1.092
817.40 1.092
817.50 1.092
817.60 1.091
817.70 1.091
817.80 1.091
817.90 1.091
818.00 1.091
818.10 1.091
818.20 1.091
818.30 1.091
818.40 1.091
818.50 1.09
818.60 1.09
818.70 1.09
818.80 1.09
818.90 1.09
819.00 1.09
819.10 1.09
819.20 1.09
819.30 1.089
819.40 1.089
819.50 1.089
819.60 1.089
819.70 1.089
819.80 1.089
819.90 1.089
820.00 1.089
820.10 1.088
820.20 1.088
820.30 1.088
820.40 1.088
820.50 1.088
820.60 1.088
820.70 1.088
820.80 1.088
820.90 1.087
821.00 1.087
821.10 1.087
821.20 1.087
821.30 1.087
821.40 1.087
821.50 1.087
821.60 1.087
821.70 1.086
821.80 1.086
821.90 1.086
822.00 1.086
822.10 1.086
822.20 1.086
822.30 1.086
822.40 1.085
822.50 1.085
822.60 1.085
822.70 1.085
822.80 1.085
822.90 1.085
823.00 1.085
823.10 1.085
823.20 1.084
823.30 1.084
823.40 1.084
823.50 1.084
823.60 1.084
823.70 1.084
823.80 1.084
823.90 1.084
824.00 1.083
824.10 1.083
824.20 1.083
824.30 1.083
824.40 1.083
824.50 1.083
824.60 1.083
824.70 1.083
824.80 1.082
824.90 1.082
825.00 1.082
825.10 1.082
825.20 1.082
825.30 1.082
825.40 1.082
825.50 1.081
825.60 1.081
825.70 1.081
825.80 1.081
825.90 1.081
826.00 1.081
826.10 1.081
826.20 1.081
826.30 1.08
826.40 1.08
826.50 1.08
826.60 1.08
826.70 1.08
826.80 1.08
826.90 1.08
827.00 1.08
827.10 1.079
827.20 1.079
827.30 1.079
827.40 1.079
827.50 1.079
827.60 1.079
827.70 1.079
827.80 1.078
827.90 1.078
828.00 1.078
828.10 1.078
828.20 1.078
828.30 1.078
828.40 1.078
828.50 1.078
828.60 1.077
828.70 1.077
828.80 1.077
828.90 1.077
829.00 1.077
829.10 1.077
829.20 1.077
829.30 1.077
829.40 1.076
829.50 1.076
829.60 1.076
829.70 1.076
829.80 1.076
829.90 1.076
830.00 1.076
830.10 1.075
830.20 1.075
830.30 1.075
830.40 1.075
830.50 1.075
830.60 1.075
830.70 1.075
830.80 1.075
830.90 1.074
831.00 1.074
831.10 1.074
831.20 1.074
831.30 1.074
831.40 1.074
831.50 1.074
831.60 1.073
831.70 1.073
831.80 1.073
831.90 1.073
832.00 1.073
832.10 1.073
832.20 1.073
832.30 1.073
832.40 1.072
832.50 1.072
832.60 1.072
832.70 1.072
832.80 1.072
832.90 1.072
833.00 1.072
833.10 1.071
833.20 1.071
833.30 1.071
833.40 1.071
833.50 1.071
833.60 1.071
833.70 1.071
833.80 1.071
833.90 1.07
834.00 1.07
834.10 1.07
834.20 1.07
834.30 1.07
834.40 1.07
834.50 1.07
834.60 1.069
834.70 1.069
834.80 1.069
834.90 1.069
835.00 1.069
835.10 1.069
835.20 1.069
835.30 1.069
835.40 1.068
835.50 1.068
835.60 1.068
835.70 1.068
835.80 1.068
835.90 1.068
836.00 1.068
836.10 1.067
836.20 1.067
836.30 1.067
836.40 1.067
836.50 1.067
836.60 1.067
836.70 1.067
836.80 1.067
836.90 1.066
837.00 1.066
837.10 1.066
837.20 1.066
837.30 1.066
837.40 1.066
837.50 1.066
837.60 1.065
837.70 1.065
837.80 1.065
837.90 1.065
838.00 1.065
838.10 1.065
838.20 1.065
838.30 1.064
838.40 1.064
838.50 1.064
838.60 1.064
838.70 1.064
838.80 1.064
838.90 1.064
839.00 1.064
839.10 1.063
839.20 1.063
839.30 1.063
839.40 1.063
839.50 1.063
839.60 1.063
839.70 1.063
839.80 1.062
839.90 1.062
840.00 1.062
840.10 1.062
840.20 1.062
840.30 1.062
840.40 1.062
840.50 1.061
840.60 1.061
840.70 1.061
840.80 1.061
840.90 1.061
841.00 1.061
841.10 1.061
841.20 1.061
841.30 1.06
841.40 1.06
841.50 1.06
841.60 1.06
841.70 1.06
841.80 1.06
841.90 1.06
842.00 1.059
842.10 1.059
842.20 1.059
842.30 1.059
842.40 1.059
842.50 1.059
842.60 1.059
842.70 1.058
842.80 1.058
842.90 1.058
843.00 1.058
843.10 1.058
843.20 1.058
843.30 1.058
843.40 1.057
843.50 1.057
843.60 1.057
843.70 1.057
843.80 1.057
843.90 1.057
844.00 1.057
844.10 1.056
844.20 1.056
844.30 1.056
844.40 1.056
844.50 1.056
844.60 1.056
844.70 1.056
844.80 1.056
844.90 1.055
845.00 1.055
845.10 1.055
845.20 1.055
845.30 1.055
845.40 1.055
845.50 1.055
845.60 1.054
845.70 1.054
845.80 1.054
845.90 1.054
846.00 1.054
846.10 1.054
846.20 1.054
846.30 1.053
846.40 1.053
846.50 1.053
846.60 1.053
846.70 1.053
846.80 1.053
846.90 1.053
847.00 1.052
847.10 1.052
847.20 1.052
847.30 1.052
847.40 1.052
847.50 1.052
847.60 1.052
847.70 1.051
847.80 1.051
847.90 1.051
848.00 1.051
848.10 1.051
848.20 1.051
848.30 1.051
848.40 1.05
848.50 1.05
848.60 1.05
848.70 1.05
848.80 1.05
848.90 1.05
849.00 1.05
849.10 1.049
849.20 1.049
849.30 1.049
849.40 1.049
849.50 1.049
849.60 1.049
849.70 1.049
849.80 1.049
849.90 1.048
850.00 1.048
850.10 1.048
850.20 1.048
850.30 1.048
850.40 1.048
850.50 1.048
850.60 1.047
850.70 1.047
850.80 1.047
850.90 1.047
851.00 1.047
851.10 1.047
851.20 1.047
851.30 1.046
851.40 1.046
851.50 1.046
851.60 1.046
851.70 1.046
851.80 1.046
851.90 1.046
852.00 1.045
852.10 1.045
852.20 1.045
852.30 1.045
852.40 1.045
852.50 1.045
852.60 1.045
852.70 1.044
852.80 1.044
852.90 1.044
853.00 1.044
853.10 1.044
853.20 1.044
853.30 1.044
853.40 1.043
853.50 1.043
853.60 1.043
853.70 1.043
853.80 1.043
853.90 1.043
854.00 1.043
854.10 1.042
854.20 1.042
854.30 1.042
854.40 1.042
854.50 1.042
854.60 1.042
854.70 1.042
854.80 1.041
854.90 1.041
855.00 1.041
855.10 1.041
855.20 1.041
855.30 1.041
855.40 1.041
855.50 1.04
855.60 1.04
855.70 1.04
855.80 1.04
855.90 1.04
856.00 1.04
856.10 1.04
856.20 1.039
856.30 1.039
856.40 1.039
856.50 1.039
856.60 1.039
856.70 1.039
856.80 1.039
856.90 1.038
857.00 1.038
857.10 1.038
857.20 1.038
857.30 1.038
857.40 1.038
857.50 1.037
857.60 1.037
857.70 1.037
857.80 1.037
857.90 1.037
858.00 1.037
858.10 1.037
858.20 1.036
858.30 1.036
858.40 1.036
858.50 1.036
858.60 1.036
858.70 1.036
858.80 1.036
858.90 1.035
859.00 1.035
859.10 1.035
859.20 1.035
859.30 1.035
859.40 1.035
859.50 1.035
859.60 1.034
859.70 1.034
859.80 1.034
859.90 1.034
860.00 1.034
860.10 1.034
860.20 1.034
860.30 1.033
860.40 1.033
860.50 1.033
860.60 1.033
860.70 1.033
860.80 1.033
860.90 1.033
861.00 1.032
861.10 1.032
861.20 1.032
861.30 1.032
861.40 1.032
861.50 1.032
861.60 1.032
861.70 1.031
861.80 1.031
861.90 1.031
862.00 1.031
862.10 1.031
862.20 1.031
862.30 1.03
862.40 1.03
862.50 1.03
862.60 1.03
862.70 1.03
862.80 1.03
862.90 1.03
863.00 1.029
863.10 1.029
863.20 1.029
863.30 1.029
863.40 1.029
863.50 1.029
863.60 1.029
863.70 1.028
863.80 1.028
863.90 1.028
864.00 1.028
864.10 1.028
864.20 1.028
864.30 1.028
864.40 1.027
864.50 1.027
864.60 1.027
864.70 1.027
864.80 1.027
864.90 1.027
865.00 1.026
865.10 1.026
865.20 1.026
865.30 1.026
865.40 1.026
865.50 1.026
865.60 1.026
865.70 1.025
865.80 1.025
865.90 1.025
866.00 1.025
866.10 1.025
866.20 1.025
866.30 1.025
866.40 1.024
866.50 1.024
866.60 1.024
866.70 1.024
866.80 1.024
866.90 1.024
867.00 1.024
867.10 1.023
867.20 1.023
867.30 1.023
867.40 1.023
867.50 1.023
867.60 1.023
867.70 1.022
867.80 1.022
867.90 1.022
868.00 1.022
868.10 1.022
868.20 1.022
868.30 1.022
868.40 1.021
868.50 1.021
868.60 1.021
868.70 1.021
868.80 1.021
868.90 1.021
869.00 1.02
869.10 1.02
869.20 1.02
869.30 1.02
869.40 1.02
869.50 1.02
869.60 1.02
869.70 1.019
869.80 1.019
869.90 1.019
870.00 1.019
870.10 1.019
870.20 1.019
870.30 1.019
870.40 1.018
870.50 1.018
870.60 1.018
870.70 1.018
870.80 1.018
870.90 1.018
871.00 1.017
871.10 1.017
871.20 1.017
871.30 1.017
871.40 1.017
871.50 1.017
871.60 1.017
871.70 1.016
871.80 1.016
871.90 1.016
872.00 1.016
872.10 1.016
872.20 1.016
872.30 1.015
872.40 1.015
872.50 1.015
872.60 1.015
872.70 1.015
872.80 1.015
872.90 1.015
873.00 1.014
873.10 1.014
873.20 1.014
873.30 1.014
873.40 1.014
873.50 1.014
873.60 1.013
873.70 1.013
873.80 1.013
873.90 1.013
874.00 1.013
874.10 1.013
874.20 1.013
874.30 1.012
874.40 1.012
874.50 1.012
874.60 1.012
874.70 1.012
874.80 1.012
874.90 1.011
875.00 1.011
875.10 1.011
875.20 1.011
875.30 1.011
875.40 1.011
875.50 1.011
875.60 1.01
875.70 1.01
875.80 1.01
875.90 1.01
876.00 1.01
876.10 1.01
876.20 1.009
876.30 1.009
876.40 1.009
876.50 1.009
876.60 1.009
876.70 1.009
876.80 1.009
876.90 1.008
877.00 1.008
877.10 1.008
877.20 1.008
877.30 1.008
877.40 1.008
877.50 1.007
877.60 1.007
877.70 1.007
877.80 1.007
877.90 1.007
878.00 1.007
878.10 1.007
878.20 1.006
878.30 1.006
878.40 1.006
878.50 1.006
878.60 1.006
878.70 1.006
878.80 1.005
878.90 1.005
879.00 1.005
879.10 1.005
879.20 1.005
879.30 1.005
879.40 1.004
879.50 1.004
879.60 1.004
879.70 1.004
879.80 1.004
879.90 1.004
880.00 1.004
880.10 1.003
880.20 1.003
880.30 1.003
880.40 1.003
880.50 1.003
880.60 1.003
880.70 1.002
880.80 1.002
880.90 1.002
881.00 1.002
881.10 1.002
881.20 1.002
881.30 1.001
881.40 1.001
881.50 1.001
881.60 1.001
881.70 1.001
881.80 1.001
881.90 1.001
882.00 1
882.10 1
882.20 1
882.30 0.9999
882.40 0.9997
882.50 0.9996
882.60 0.9994
882.70 0.9992
882.80 0.9991
882.90 0.9989
883.00 0.9988
883.10 0.9986
883.20 0.9984
883.30 0.9983
883.40 0.9981
883.50 0.9979
883.60 0.9978
883.70 0.9976
883.80 0.9975
883.90 0.9973
884.00 0.9971
884.10 0.997
884.20 0.9968
884.30 0.9967
884.40 0.9965
884.50 0.9963
884.60 0.9962
884.70 0.996
884.80 0.9958
884.90 0.9957
885.00 0.9955
885.10 0.9954
885.20 0.9952
885.30 0.995
885.40 0.9949
885.50 0.9947
885.60 0.9946
885.70 0.9944
885.80 0.9942
885.90 0.9941
886.00 0.9939
886.10 0.9937
886.20 0.9936
886.30 0.9934
886.40 0.9933
886.50 0.9931
886.60 0.9929
886.70 0.9928
886.80 0.9926
886.90 0.9925
887.00 0.9923
887.10 0.9921
887.20 0.992
887.30 0.9918
887.40 0.9916
887.50 0.9915
887.60 0.9913
887.70 0.9911
887.80 0.991
887.90 0.9908
888.00 0.9906
888.10 0.9905
888.20 0.9903
888.30 0.9901
888.40 0.99
888.50 0.9898
888.60 0.9896
888.70 0.9895
888.80 0.9893
888.90 0.9891
889.00 0.989
889.10 0.9888
889.20 0.9886
889.30 0.9885
889.40 0.9883
889.50 0.9881
889.60 0.988
889.70 0.9878
889.80 0.9876
889.90 0.9875
890.00 0.9873
890.10 0.9871
890.20 0.987
890.30 0.9868
890.40 0.9867
890.50 0.9865
890.60 0.9863
890.70 0.9862
890.80 0.986
890.90 0.9858
891.00 0.9857
891.10 0.9855
891.20 0.9853
891.30 0.9852
891.40 0.985
891.50 0.9848
891.60 0.9847
891.70 0.9845
891.80 0.9843
891.90 0.9842
892.00 0.984
892.10 0.9838
892.20 0.9837
892.30 0.9835
892.40 0.9834
892.50 0.9832
892.60 0.9831
892.70 0.9829
892.80 0.9827
892.90 0.9826
893.00 0.9824
893.10 0.9823
893.20 0.9821
893.30 0.9819
893.40 0.9818
893.50 0.9816
893.60 0.9815
893.70 0.9813
893.80 0.9811
893.90 0.981
894.00 0.9808
894.10 0.9807
894.20 0.9805
894.30 0.9803
894.40 0.9802
894.50 0.98
894.60 0.9799
894.70 0.9797
894.80 0.9795
894.90 0.9794
895.00 0.9792
895.10 0.9791
895.20 0.9789
895.30 0.9788
895.40 0.9786
895.50 0.9784
895.60 0.9783
895.70 0.9781
895.80 0.978
895.90 0.9778
896.00 0.9776
896.10 0.9775
896.20 0.9773
896.30 0.9772
896.40 0.977
896.50 0.9769
896.60 0.9767
896.70 0.9765
896.80 0.9764
896.90 0.9762
897.00 0.9761
897.10 0.9759
897.20 0.9757
897.30 0.9755
897.40 0.9754
897.50 0.9752
897.60 0.975
897.70 0.9748
897.80 0.9746
897.90 0.9745
898.00 0.9743
898.10 0.9741
898.20 0.9739
898.30 0.9738
898.40 0.9736
898.50 0.9734
898.60 0.9732
898.70 0.973
898.80 0.9729
898.90 0.9727
899.00 0.9725
899.10 0.9723
899.20 0.9722
899.30 0.972
899.40 0.9718
899.50 0.9716
899.60 0.9715
899.70 0.9713
899.80 0.9711
899.90 0.9709
900.00 0.9707
900.10 0.9706
900.20 0.9704
900.30 0.9702
900.40 0.97
900.50 0.9699
900.60 0.9697
900.70 0.9695
900.80 0.9693
900.90 0.9692
901.00 0.969
901.10 0.9688
901.20 0.9686
901.30 0.9685
901.40 0.9683
901.50 0.9681
901.60 0.9679
901.70 0.9678
901.80 0.9676
901.90 0.9674
902.00 0.9672
902.10 0.967
902.20 0.9668
902.30 0.9666
902.40 0.9664
902.50 0.9662
902.60 0.9659
902.70 0.9657
902.80 0.9655
902.90 0.9653
903.00 0.9651
903.10 0.9649
903.20 0.9647
903.30 0.9645
903.40 0.9642
903.50 0.964
903.60 0.9638
903.70 0.9636
903.80 0.9634
903.90 0.9632
904.00 0.963
904.10 0.9628
904.20 0.9625
904.30 0.9623
904.40 0.9621
904.50 0.9619
904.60 0.9617
904.70 0.9615
904.80 0.9613
904.90 0.9611
905.00 0.9608
905.10 0.9606
905.20 0.9604
905.30 0.9602
905.40 0.96
905.50 0.9598
905.60 0.9596
905.70 0.9594
905.80 0.9592
905.90 0.9589
906.00 0.9587
906.10 0.9585
906.20 0.9583
906.30 0.9581
906.40 0.9579
906.50 0.9577
906.60 0.9575
906.70 0.9573
906.80 0.957
906.90 0.9568
907.00 0.9566
907.10 0.9564
907.20 0.9562
907.30 0.956
907.40 0.9558
907.50 0.9556
907.60 0.9554
907.70 0.9553
907.80 0.9551
907.90 0.9549
908.00 0.9547
908.10 0.9545
908.20 0.9543
908.30 0.9541
908.40 0.9539
908.50 0.9537
908.60 0.9535
908.70 0.9533
908.80 0.9531
908.90 0.9529
909.00 0.9527
909.10 0.9525
909.20 0.9523
909.30 0.9521
909.40 0.9519
909.50 0.9517
909.60 0.9515
909.70 0.9514
909.80 0.9512
909.90 0.951
910.00 0.9508
910.10 0.9506
910.20 0.9504
910.30 0.9502
910.40 0.95
910.50 0.9498
910.60 0.9496
910.70 0.9494
910.80 0.9492
910.90 0.949
911.00 0.9488
911.10 0.9486
911.20 0.9484
911.30 0.9483
911.40 0.9481
911.50 0.9479
911.60 0.9477
911.70 0.9475
911.80 0.9473
911.90 0.9471
912.00 0.9469
912.10 0.9467
912.20 0.9465
912.30 0.9464
912.40 0.9462
912.50 0.946
912.60 0.9458
912.70 0.9456
912.80 0.9455
912.90 0.9453
913.00 0.9451
913.10 0.9449
913.20 0.9447
913.30 0.9446
913.40 0.9444
913.50 0.9442
913.60 0.944
913.70 0.9439
913.80 0.9437
913.90 0.9435
914.00 0.9433
914.10 0.9431
914.20 0.943
914.30 0.9428
914.40 0.9426
914.50 0.9424
914.60 0.9422
914.70 0.9421
914.80 0.9419
914.90 0.9417
915.00 0.9415
915.10 0.9414
915.20 0.9412
915.30 0.941
915.40 0.9408
915.50 0.9406
915.60 0.9405
915.70 0.9403
915.80 0.9401
915.90 0.9399
916.00 0.9398
916.10 0.9396
916.20 0.9394
916.30 0.9392
916.40 0.939
916.50 0.9389
916.60 0.9387
916.70 0.9385
916.80 0.9383
916.90 0.9382
917.00 0.938
917.10 0.9378
917.20 0.9376
917.30 0.9374
917.40 0.9372
917.50 0.937
917.60 0.9368
917.70 0.9366
917.80 0.9364
917.90 0.9362
918.00 0.936
918.10 0.9359
918.20 0.9357
918.30 0.9355
918.40 0.9353
918.50 0.9351
918.60 0.9349
918.70 0.9347
918.80 0.9345
918.90 0.9343
919.00 0.9341
919.10 0.9339
919.20 0.9337
919.30 0.9335
919.40 0.9333
919.50 0.9332
919.60 0.933
919.70 0.9328
919.80 0.9326
919.90 0.9324
920.00 0.9322
920.10 0.932
920.20 0.9318
920.30 0.9316
920.40 0.9314
920.50 0.9312
920.60 0.931
920.70 0.9309
920.80 0.9307
920.90 0.9305
921.00 0.9303
921.10 0.9301
921.20 0.9299
921.30 0.9297
921.40 0.9295
921.50 0.9293
921.60 0.9291
921.70 0.9289
921.80 0.9287
921.90 0.9286
922.00 0.9284
922.10 0.9282
922.20 0.928
922.30 0.9278
922.40 0.9276
922.50 0.9274
922.60 0.9272
922.70 0.927
922.80 0.9268
922.90 0.9266
923.00 0.9264
923.10 0.9262
923.20 0.926
923.30 0.9258
923.40 0.9256
923.50 0.9254
923.60 0.9252
923.70 0.925
923.80 0.9248
923.90 0.9246
924.00 0.9244
924.10 0.9242
924.20 0.924
924.30 0.9238
924.40 0.9236
924.50 0.9234
924.60 0.9232
924.70 0.923
924.80 0.9228
924.90 0.9226
925.00 0.9225
925.10 0.9223
925.20 0.9221
925.30 0.9219
925.40 0.9217
925.50 0.9215
925.60 0.9213
925.70 0.9211
925.80 0.9209
925.90 0.9207
926.00 0.9205
926.10 0.9203
926.20 0.9201
926.30 0.9199
926.40 0.9197
926.50 0.9195
926.60 0.9193
926.70 0.9191
926.80 0.9189
926.90 0.9187
927.00 0.9185
927.10 0.9183
927.20 0.9181
927.30 0.9179
927.40 0.9177
927.50 0.9175
927.60 0.9173
927.70 0.9171
927.80 0.9169
927.90 0.9167
928.00 0.9165
928.10 0.9163
928.20 0.9161
928.30 0.9159
928.40 0.9157
928.50 0.9155
928.60 0.9153
928.70 0.9151
928.80 0.9149
928.90 0.9147
929.00 0.9145
929.10 0.9143
929.20 0.9141
929.30 0.9139
929.40 0.9137
929.50 0.9135
929.60 0.9133
929.70 0.9131
929.80 0.9129
929.90 0.9127
930.00 0.9125
930.10 0.9123
930.20 0.9121
930.30 0.9119
930.40 0.9118
930.50 0.9116
930.60 0.9114
930.70 0.9112
930.80 0.911
930.90 0.9108
931.00 0.9106
931.10 0.9104
931.20 0.9102
931.30 0.91
931.40 0.9098
931.50 0.9096
931.60 0.9094
931.70 0.9092
931.80 0.909
931.90 0.9088
932.00 0.9086
932.10 0.9084
932.20 0.9082
932.30 0.908
932.40 0.9078
932.50 0.9076
932.60 0.9074
932.70 0.9072
932.80 0.907
932.90 0.9067
933.00 0.9065
933.10 0.9063
933.20 0.9061
933.30 0.9059
933.40 0.9057
933.50 0.9055
933.60 0.9053
933.70 0.9051
933.80 0.9049
933.90 0.9047
934.00 0.9045
934.10 0.9043
934.20 0.9041
934.30 0.9039
934.40 0.9037
934.50 0.9035
934.60 0.9033
934.70 0.9031
934.80 0.9029
934.90 0.9027
935.00 0.9025
935.10 0.9023
935.20 0.902
935.30 0.9018
935.40 0.9016
935.50 0.9014
935.60 0.9012
935.70 0.901
935.80 0.9008
935.90 0.9006
936.00 0.9004
936.10 0.9002
936.20 0.9
936.30 0.8998
936.40 0.8996
936.50 0.8994
936.60 0.8992
936.70 0.899
936.80 0.8988
936.90 0.8986
937.00 0.8984
937.10 0.8982
937.20 0.898
937.30 0.8977
937.40 0.8975
937.50 0.8973
937.60 0.8971
937.70 0.8969
937.80 0.8967
937.90 0.8965
938.00 0.8963
938.10 0.8961
938.20 0.8959
938.30 0.8957
938.40 0.8955
938.50 0.8953
938.60 0.8951
938.70 0.8949
938.80 0.8946
938.90 0.8944
939.00 0.8942
939.10 0.894
939.20 0.8938
939.30 0.8936
939.40 0.8934
939.50 0.8932
939.60 0.893
939.70 0.8927
939.80 0.8925
939.90 0.8923
940.00 0.8921
940.10 0.8919
940.20 0.8917
940.30 0.8915
940.40 0.8913
940.50 0.8911
940.60 0.8909
940.70 0.8907
940.80 0.8904
940.90 0.8902
941.00 0.89
941.10 0.8898
941.20 0.8896
941.30 0.8894
941.40 0.8892
941.50 0.889
941.60 0.8888
941.70 0.8886
941.80 0.8884
941.90 0.8882
942.00 0.8879
942.10 0.8877
942.20 0.8875
942.30 0.8873
942.40 0.8871
942.50 0.8869
942.60 0.8867
942.70 0.8864
942.80 0.8862
942.90 0.886
943.00 0.8858
943.10 0.8856
943.20 0.8854
943.30 0.8852
943.40 0.885
943.50 0.8848
943.60 0.8846
943.70 0.8843
943.80 0.8841
943.90 0.8839
944.00 0.8837
944.10 0.8835
944.20 0.8833
944.30 0.8831
944.40 0.8829
944.50 0.8827
944.60 0.8824
944.70 0.8822
944.80 0.882
944.90 0.8818
945.00 0.8816
945.10 0.8814
945.20 0.8812
945.30 0.8809
945.40 0.8807
945.50 0.8805
945.60 0.8803
945.70 0.8801
945.80 0.8799
945.90 0.8797
946.00 0.8794
946.10 0.8792
946.20 0.879
946.30 0.8788
946.40 0.8786
946.50 0.8784
946.60 0.8782
946.70 0.8779
946.80 0.8777
946.90 0.8775
947.00 0.8773
947.10 0.8771
947.20 0.8769
947.30 0.8767
947.40 0.8764
947.50 0.8762
947.60 0.876
947.70 0.8758
947.80 0.8756
947.90 0.8754
948.00 0.8751
948.10 0.8749
948.20 0.8747
948.30 0.8745
948.40 0.8743
948.50 0.8741
948.60 0.8739
948.70 0.8736
948.80 0.8734
948.90 0.8732
949.00 0.873
949.10 0.8728
949.20 0.8726
949.30 0.8723
949.40 0.8721
949.50 0.8719
949.60 0.8717
949.70 0.8715
949.80 0.8713
949.90 0.871
950.00 0.8708
950.10 0.8706
950.20 0.8704
950.30 0.8702
950.40 0.87
950.50 0.8697
950.60 0.8695
950.70 0.8693
950.80 0.8691
950.90 0.8689
951.00 0.8687
951.10 0.8684
951.20 0.8682
951.30 0.868
951.40 0.8678
951.50 0.8676
951.60 0.8674
951.70 0.8671
951.80 0.8669
951.90 0.8667
952.00 0.8665
952.10 0.8663
952.20 0.8661
952.30 0.8658
952.40 0.8656
952.50 0.8654
952.60 0.8652
952.70 0.865
952.80 0.8647
952.90 0.8645
953.00 0.8643
953.10 0.8641
953.20 0.8639
953.30 0.8637
953.40 0.8634
953.50 0.8632
953.60 0.863
953.70 0.8628
953.80 0.8626
953.90 0.8623
954.00 0.8621
954.10 0.8619
954.20 0.8617
954.30 0.8615
954.40 0.8613
954.50 0.861
954.60 0.8608
954.70 0.8606
954.80 0.8604
954.90 0.8602
955.00 0.8599
955.10 0.8597
955.20 0.8595
955.30 0.8593
955.40 0.8591
955.50 0.8588
955.60 0.8586
955.70 0.8584
955.80 0.8582
955.90 0.858
956.00 0.8577
956.10 0.8575
956.20 0.8573
956.30 0.8571
956.40 0.8568
956.50 0.8566
956.60 0.8564
956.70 0.8562
956.80 0.856
956.90 0.8557
957.00 0.8555
957.10 0.8553
957.20 0.8551
957.30 0.8549
957.40 0.8546
957.50 0.8544
957.60 0.8542
957.70 0.854
957.80 0.8538
957.90 0.8535
958.00 0.8533
958.10 0.8531
958.20 0.8529
958.30 0.8526
958.40 0.8524
958.50 0.8522
958.60 0.852
958.70 0.8518
958.80 0.8515
958.90 0.8513
959.00 0.8511
959.10 0.8509
959.20 0.8507
959.30 0.8504
959.40 0.8502
959.50 0.85
959.60 0.8498
959.70 0.8495
959.80 0.8493
959.90 0.8491
960.00 0.8489
960.10 0.8487
960.20 0.8484
960.30 0.8482
960.40 0.848
960.50 0.8478
960.60 0.8475
960.70 0.8473
960.80 0.8471
960.90 0.8469
961.00 0.8467
961.10 0.8464
961.20 0.8462
961.30 0.846
961.40 0.8458
961.50 0.8456
961.60 0.8453
961.70 0.8451
961.80 0.8449
961.90 0.8447
962.00 0.8445
962.10 0.8442
962.20 0.844
962.30 0.8438
962.40 0.8436
962.50 0.8433
962.60 0.8431
962.70 0.8429
962.80 0.8427
962.90 0.8425
963.00 0.8422
963.10 0.842
963.20 0.8418
963.30 0.8416
963.40 0.8413
963.50 0.8411
963.60 0.8409
963.70 0.8407
963.80 0.8404
963.90 0.8402
964.00 0.84
964.10 0.8398
964.20 0.8396
964.30 0.8393
964.40 0.8391
964.50 0.8389
964.60 0.8387
964.70 0.8384
964.80 0.8382
964.90 0.838
965.00 0.8378
965.10 0.8375
965.20 0.8373
965.30 0.8371
965.40 0.8369
965.50 0.8366
965.60 0.8364
965.70 0.8362
965.80 0.836
965.90 0.8357
966.00 0.8355
966.10 0.8353
966.20 0.8351
966.30 0.8349
966.40 0.8346
966.50 0.8344
966.60 0.8342
966.70 0.834
966.80 0.8337
966.90 0.8335
967.00 0.8333
967.10 0.8331
967.20 0.8328
967.30 0.8326
967.40 0.8324
967.50 0.8322
967.60 0.8319
967.70 0.8317
967.80 0.8315
967.90 0.8313
968.00 0.831
968.10 0.8308
968.20 0.8306
968.30 0.8304
968.40 0.8302
968.50 0.8299
968.60 0.8297
968.70 0.8295
968.80 0.8293
968.90 0.829
969.00 0.8288
969.10 0.8286
969.20 0.8284
969.30 0.8281
969.40 0.8279
969.50 0.8277
969.60 0.8275
969.70 0.8272
969.80 0.827
969.90 0.8268
970.00 0.8266
970.10 0.8264
970.20 0.8261
970.30 0.8259
970.40 0.8257
970.50 0.8255
970.60 0.8252
970.70 0.825
970.80 0.8248
970.90 0.8246
971.00 0.8243
971.10 0.8241
971.20 0.8239
971.30 0.8237
971.40 0.8234
971.50 0.8232
971.60 0.823
971.70 0.8228
971.80 0.8226
971.90 0.8223
972.00 0.8221
972.10 0.8219
972.20 0.8217
972.30 0.8214
972.40 0.8212
972.50 0.821
972.60 0.8208
972.70 0.8205
972.80 0.8203
972.90 0.8201
973.00 0.8199
973.10 0.8196
973.20 0.8194
973.30 0.8192
973.40 0.819
973.50 0.8187
973.60 0.8185
973.70 0.8183
973.80 0.8181
973.90 0.8179
974.00 0.8176
974.10 0.8174
974.20 0.8172
974.30 0.817
974.40 0.8167
974.50 0.8165
974.60 0.8163
974.70 0.8161
974.80 0.8158
974.90 0.8156
975.00 0.8154
975.10 0.8152
975.20 0.8149
975.30 0.8147
975.40 0.8145
975.50 0.8143
975.60 0.814
975.70 0.8138
975.80 0.8136
975.90 0.8134
976.00 0.8131
976.10 0.8129
976.20 0.8127
976.30 0.8125
976.40 0.8122
976.50 0.812
976.60 0.8118
976.70 0.8116
976.80 0.8114
976.90 0.8111
977.00 0.8109
977.10 0.8107
977.20 0.8105
977.30 0.8102
977.40 0.81
977.50 0.8098
977.60 0.8096
977.70 0.8093
977.80 0.8091
977.90 0.8089
978.00 0.8087
978.10 0.8084
978.20 0.8082
978.30 0.808
978.40 0.8078
978.50 0.8075
978.60 0.8073
978.70 0.8071
978.80 0.8069
978.90 0.8067
979.00 0.8064
979.10 0.8062
979.20 0.806
979.30 0.8058
979.40 0.8055
979.50 0.8053
979.60 0.8051
979.70 0.8049
979.80 0.8047
979.90 0.8044
980.00 0.8042
980.10 0.804
980.20 0.8038
980.30 0.8035
980.40 0.8033
980.50 0.8031
980.60 0.8029
980.70 0.8027
980.80 0.8024
980.90 0.8022
981.00 0.802
981.10 0.8018
981.20 0.8015
981.30 0.8013
981.40 0.8011
981.50 0.8009
981.60 0.8007
981.70 0.8004
981.80 0.8002
981.90 0.8
982.00 0.7998
982.10 0.7996
982.20 0.7993
982.30 0.7991
982.40 0.7989
982.50 0.7987
982.60 0.7984
982.70 0.7982
982.80 0.798
982.90 0.7978
983.00 0.7975
983.10 0.7973
983.20 0.7971
983.30 0.7969
983.40 0.7967
983.50 0.7964
983.60 0.7962
983.70 0.796
983.80 0.7958
983.90 0.7955
984.00 0.7953
984.10 0.7951
984.20 0.7949
984.30 0.7947
984.40 0.7944
984.50 0.7942
984.60 0.794
984.70 0.7938
984.80 0.7936
984.90 0.7933
985.00 0.7931
985.10 0.7929
985.20 0.7927
985.30 0.7925
985.40 0.7922
985.50 0.792
985.60 0.7918
985.70 0.7916
985.80 0.7914
985.90 0.7911
986.00 0.7909
986.10 0.7907
986.20 0.7905
986.30 0.7903
986.40 0.79
986.50 0.7898
986.60 0.7896
986.70 0.7894
986.80 0.7892
986.90 0.7889
987.00 0.7887
987.10 0.7885
987.20 0.7883
987.30 0.7881
987.40 0.7878
987.50 0.7876
987.60 0.7874
987.70 0.7872
987.80 0.787
987.90 0.7867
988.00 0.7865
988.10 0.7863
988.20 0.7861
988.30 0.7859
988.40 0.7856
988.50 0.7854
988.60 0.7852
988.70 0.785
988.80 0.7848
988.90 0.7845
989.00 0.7843
989.10 0.7841
989.20 0.7839
989.30 0.7837
989.40 0.7834
989.50 0.7832
989.60 0.783
989.70 0.7828
989.80 0.7826
989.90 0.7823
990.00 0.7821
990.10 0.7819
990.20 0.7817
990.30 0.7815
990.40 0.7812
990.50 0.781
990.60 0.7808
990.70 0.7806
990.80 0.7804
990.90 0.7801
991.00 0.7799
991.10 0.7797
991.20 0.7795
991.30 0.7793
991.40 0.779
991.50 0.7788
991.60 0.7786
991.70 0.7784
991.80 0.7782
991.90 0.778
992.00 0.7777
992.10 0.7775
992.20 0.7773
992.30 0.7771
992.40 0.7769
992.50 0.7766
992.60 0.7764
992.70 0.7762
992.80 0.776
992.90 0.7758
993.00 0.7756
993.10 0.7753
993.20 0.7751
993.30 0.7749
993.40 0.7747
993.50 0.7745
993.60 0.7742
993.70 0.774
993.80 0.7738
993.90 0.7736
994.00 0.7734
994.10 0.7732
994.20 0.7729
994.30 0.7727
994.40 0.7725
994.50 0.7723
994.60 0.7721
994.70 0.7718
994.80 0.7716
994.90 0.7714
995.00 0.7712
995.10 0.7709
995.20 0.7707
995.30 0.7705
995.40 0.7703
995.50 0.7701
995.60 0.7698
995.70 0.7696
995.80 0.7694
995.90 0.7692
996.00 0.769
996.10 0.7687
996.20 0.7685
996.30 0.7683
996.40 0.7681
996.50 0.7679
996.60 0.7677
996.70 0.7674
996.80 0.7672
996.90 0.767
997.00 0.7668
997.10 0.7666
997.20 0.7664
997.30 0.7662
997.40 0.7659
997.50 0.7657
997.60 0.7655
997.70 0.7653
997.80 0.7651
997.90 0.7649
998.00 0.7647
998.10 0.7644
998.20 0.7642
998.30 0.764
998.40 0.7638
998.50 0.7636
998.60 0.7634
998.70 0.7632
998.80 0.7629
998.90 0.7627
999.00 0.7625
999.10 0.7623
999.20 0.7621
999.30 0.7619
999.40 0.7617
999.50 0.7615
999.60 0.7612
999.70 0.761
999.80 0.7608
999.90 0.7606
1000.00 0.7604
1000.10 0.7602
1000.20 0.76
1000.30 0.7597
1000.40 0.7595
1000.50 0.7593
1000.60 0.7591
1000.70 0.7589
1000.80 0.7587
1000.90 0.7585
1001.00 0.7583
1001.10 0.758
1001.20 0.7578
1001.30 0.7576
1001.40 0.7574
1001.50 0.7572
1001.60 0.757
1001.70 0.7568
1001.80 0.7566
1001.90 0.7564
1002.00 0.7561
1002.10 0.7559
1002.20 0.7557
1002.30 0.7555
1002.40 0.7553
1002.50 0.7551
1002.60 0.7549
1002.70 0.7547
1002.80 0.7545
1002.90 0.7543
1003.00 0.754
1003.10 0.7538
1003.20 0.7536
1003.30 0.7534
1003.40 0.7532
1003.50 0.753
1003.60 0.7528
1003.70 0.7526
1003.80 0.7524
1003.90 0.7521
1004.00 0.7519
1004.10 0.7517
1004.20 0.7515
1004.30 0.7513
1004.40 0.7511
1004.50 0.7509
1004.60 0.7507
1004.70 0.7505
1004.80 0.7503
1004.90 0.7501
1005.00 0.7499
1005.10 0.7497
1005.20 0.7495
1005.30 0.7492
1005.40 0.749
1005.50 0.7488
1005.60 0.7486
1005.70 0.7484
1005.80 0.7482
1005.90 0.748
1006.00 0.7478
1006.10 0.7476
1006.20 0.7474
1006.30 0.7472
1006.40 0.747
1006.50 0.7468
1006.60 0.7466
1006.70 0.7464
1006.80 0.7462
1006.90 0.746
1007.00 0.7457
1007.10 0.7455
1007.20 0.7453
1007.30 0.7451
1007.40 0.7449
1007.50 0.7447
1007.60 0.7445
1007.70 0.7443
1007.80 0.7441
1007.90 0.7439
1008.00 0.7437
1008.10 0.7435
1008.20 0.7433
1008.30 0.7431
1008.40 0.7429
1008.50 0.7427
1008.60 0.7425
1008.70 0.7423
1008.80 0.7421
1008.90 0.7418
1009.00 0.7416
1009.10 0.7414
1009.20 0.7412
1009.30 0.741
1009.40 0.7408
1009.50 0.7406
1009.60 0.7404
1009.70 0.7402
1009.80 0.74
1009.90 0.7398
1010.00 0.7396
1010.10 0.7394
1010.20 0.7392
1010.30 0.739
1010.40 0.7388
1010.50 0.7386
1010.60 0.7384
1010.70 0.7382
1010.80 0.738
1010.90 0.7378
1011.00 0.7376
1011.10 0.7374
1011.20 0.7372
1011.30 0.737
1011.40 0.7368
1011.50 0.7366
1011.60 0.7364
1011.70 0.7362
1011.80 0.736
1011.90 0.7358
1012.00 0.7356
1012.10 0.7354
1012.20 0.7352
1012.30 0.735
1012.40 0.7348
1012.50 0.7346
1012.60 0.7344
1012.70 0.7342
1012.80 0.734
1012.90 0.7338
1013.00 0.7336
1013.10 0.7334
1013.20 0.7332
1013.30 0.733
1013.40 0.7328
1013.50 0.7326
1013.60 0.7324
1013.70 0.7322
1013.80 0.732
1013.90 0.7318
1014.00 0.7316
1014.10 0.7314
1014.20 0.7312
1014.30 0.731
1014.40 0.7308
1014.50 0.7306
1014.60 0.7304
1014.70 0.7302
1014.80 0.73
1014.90 0.7298
1015.00 0.7297
1015.10 0.7295
1015.20 0.7293
1015.30 0.7291
1015.40 0.7289
1015.50 0.7287
1015.60 0.7285
1015.70 0.7283
1015.80 0.7281
1015.90 0.7279
1016.00 0.7277
1016.10 0.7275
1016.20 0.7273
1016.30 0.7271
1016.40 0.7269
1016.50 0.7267
1016.60 0.7265
1016.70 0.7264
1016.80 0.7262
1016.90 0.726
1017.00 0.7258
1017.10 0.7256
1017.20 0.7254
1017.30 0.7252
1017.40 0.725
1017.50 0.7248
1017.60 0.7246
1017.70 0.7244
1017.80 0.7242
1017.90 0.724
1018.00 0.7238
1018.10 0.7237
1018.20 0.7235
1018.30 0.7233
1018.40 0.7231
1018.50 0.7229
1018.60 0.7227
1018.70 0.7225
1018.80 0.7223
1018.90 0.7221
1019.00 0.7219
1019.10 0.7217
1019.20 0.7215
1019.30 0.7213
1019.40 0.7211
1019.50 0.7209
1019.60 0.7208
1019.70 0.7206
1019.80 0.7204
1019.90 0.7202
1020.00 0.72
1020.10 0.7198
1020.20 0.7196
1020.30 0.7194
1020.40 0.7192
1020.50 0.719
1020.60 0.7188
1020.70 0.7186
1020.80 0.7185
1020.90 0.7183
1021.00 0.7181
1021.10 0.7179
1021.20 0.7177
1021.30 0.7175
1021.40 0.7173
1021.50 0.7171
1021.60 0.7169
1021.70 0.7167
1021.80 0.7166
1021.90 0.7164
1022.00 0.7162
1022.10 0.716
1022.20 0.7158
1022.30 0.7156
1022.40 0.7154
1022.50 0.7152
1022.60 0.715
1022.70 0.7149
1022.80 0.7147
1022.90 0.7145
1023.00 0.7143
1023.10 0.7141
1023.20 0.7139
1023.30 0.7137
1023.40 0.7135
1023.50 0.7134
1023.60 0.7132
1023.70 0.713
1023.80 0.7128
1023.90 0.7126
1024.00 0.7124
1024.10 0.7122
1024.20 0.712
1024.30 0.7118
1024.40 0.7117
1024.50 0.7115
1024.60 0.7113
1024.70 0.7111
1024.80 0.7109
1024.90 0.7107
1025.00 0.7105
1025.10 0.7104
1025.20 0.7102
1025.30 0.71
1025.40 0.7098
1025.50 0.7096
1025.60 0.7094
1025.70 0.7092
1025.80 0.7091
1025.90 0.7089
1026.00 0.7087
1026.10 0.7085
1026.20 0.7083
1026.30 0.7081
1026.40 0.7079
1026.50 0.7078
1026.60 0.7076
1026.70 0.7074
1026.80 0.7072
1026.90 0.707
1027.00 0.7068
1027.10 0.7067
1027.20 0.7065
1027.30 0.7063
1027.40 0.7061
1027.50 0.7059
1027.60 0.7057
1027.70 0.7056
1027.80 0.7054
1027.90 0.7052
1028.00 0.705
1028.10 0.7048
1028.20 0.7046
1028.30 0.7045
1028.40 0.7043
1028.50 0.7041
1028.60 0.7039
1028.70 0.7037
1028.80 0.7036
1028.90 0.7034
1029.00 0.7032
1029.10 0.703
1029.20 0.7028
1029.30 0.7027
1029.40 0.7025
1029.50 0.7023
1029.60 0.7021
1029.70 0.7019
1029.80 0.7017
1029.90 0.7016
1030.00 0.7014
1030.10 0.7012
1030.20 0.701
1030.30 0.7008
1030.40 0.7007
1030.50 0.7005
1030.60 0.7003
1030.70 0.7001
1030.80 0.6999
1030.90 0.6998
1031.00 0.6996
1031.10 0.6994
1031.20 0.6992
1031.30 0.699
1031.40 0.6989
1031.50 0.6987
1031.60 0.6985
1031.70 0.6983
1031.80 0.6981
1031.90 0.698
1032.00 0.6978
1032.10 0.6976
1032.20 0.6974
1032.30 0.6973
1032.40 0.6971
1032.50 0.6969
1032.60 0.6967
1032.70 0.6966
1032.80 0.6964
1032.90 0.6962
1033.00 0.696
1033.10 0.6959
1033.20 0.6957
1033.30 0.6955
1033.40 0.6953
1033.50 0.6952
1033.60 0.695
1033.70 0.6948
1033.80 0.6946
1033.90 0.6945
1034.00 0.6943
1034.10 0.6941
1034.20 0.6939
1034.30 0.6938
1034.40 0.6936
1034.50 0.6934
1034.60 0.6932
1034.70 0.6931
1034.80 0.6929
1034.90 0.6927
1035.00 0.6925
1035.10 0.6924
1035.20 0.6922
1035.30 0.692
1035.40 0.6918
1035.50 0.6917
1035.60 0.6915
1035.70 0.6913
1035.80 0.6912
1035.90 0.691
1036.00 0.6908
1036.10 0.6906
1036.20 0.6905
1036.30 0.6903
1036.40 0.6901
1036.50 0.6899
1036.60 0.6898
1036.70 0.6896
1036.80 0.6894
1036.90 0.6893
1037.00 0.6891
1037.10 0.6889
1037.20 0.6887
1037.30 0.6886
1037.40 0.6884
1037.50 0.6882
1037.60 0.6881
1037.70 0.6879
1037.80 0.6877
1037.90 0.6876
1038.00 0.6874
1038.10 0.6872
1038.20 0.687
1038.30 0.6869
1038.40 0.6867
1038.50 0.6865
1038.60 0.6864
1038.70 0.6862
1038.80 0.686
1038.90 0.6859
1039.00 0.6857
1039.10 0.6855
1039.20 0.6854
1039.30 0.6852
1039.40 0.685
1039.50 0.6849
1039.60 0.6847
1039.70 0.6845
1039.80 0.6844
1039.90 0.6842
1040.00 0.684
1040.10 0.6839
1040.20 0.6837
1040.30 0.6835
1040.40 0.6834
1040.50 0.6832
1040.60 0.683
1040.70 0.6828
1040.80 0.6827
1040.90 0.6825
1041.00 0.6823
1041.10 0.6822
1041.20 0.682
1041.30 0.6818
1041.40 0.6817
1041.50 0.6815
1041.60 0.6813
1041.70 0.6812
1041.80 0.681
1041.90 0.6808
1042.00 0.6807
1042.10 0.6805
1042.20 0.6804
1042.30 0.6802
1042.40 0.68
1042.50 0.6799
1042.60 0.6797
1042.70 0.6795
1042.80 0.6794
1042.90 0.6792
1043.00 0.6791
1043.10 0.6789
1043.20 0.6787
1043.30 0.6786
1043.40 0.6784
1043.50 0.6782
1043.60 0.6781
1043.70 0.6779
1043.80 0.6778
1043.90 0.6776
1044.00 0.6774
1044.10 0.6773
1044.20 0.6771
1044.30 0.6769
1044.40 0.6768
1044.50 0.6766
1044.60 0.6765
1044.70 0.6763
1044.80 0.6761
1044.90 0.676
1045.00 0.6758
1045.10 0.6757
1045.20 0.6755
1045.30 0.6753
1045.40 0.6752
1045.50 0.675
1045.60 0.6748
1045.70 0.6747
1045.80 0.6745
1045.90 0.6744
1046.00 0.6742
1046.10 0.674
1046.20 0.6739
1046.30 0.6737
1046.40 0.6736
1046.50 0.6734
1046.60 0.6732
1046.70 0.6731
1046.80 0.6729
1046.90 0.6728
1047.00 0.6726
1047.10 0.6724
1047.20 0.6723
1047.30 0.6721
1047.40 0.672
1047.50 0.6718
1047.60 0.6717
1047.70 0.6715
1047.80 0.6714
1047.90 0.6712
1048.00 0.671
1048.10 0.6709
1048.20 0.6707
1048.30 0.6706
1048.40 0.6704
1048.50 0.6703
1048.60 0.6701
1048.70 0.67
1048.80 0.6698
1048.90 0.6696
1049.00 0.6695
1049.10 0.6693
1049.20 0.6692
1049.30 0.669
1049.40 0.6689
1049.50 0.6687
1049.60 0.6686
1049.70 0.6684
1049.80 0.6683
1049.90 0.6681
1050.00 0.6679
1050.10 0.6678
1050.20 0.6676
1050.30 0.6675
1050.40 0.6673
1050.50 0.6672
1050.60 0.667
1050.70 0.6669
1050.80 0.6667
1050.90 0.6666
1051.00 0.6664
1051.10 0.6662
1051.20 0.6661
1051.30 0.6659
1051.40 0.6658
1051.50 0.6656
1051.60 0.6655
1051.70 0.6653
1051.80 0.6652
1051.90 0.665
1052.00 0.6649
1052.10 0.6647
1052.20 0.6646
1052.30 0.6644
1052.40 0.6643
1052.50 0.6641
1052.60 0.664
1052.70 0.6638
1052.80 0.6637
1052.90 0.6635
1053.00 0.6634
1053.10 0.6632
1053.20 0.6631
1053.30 0.6629
1053.40 0.6628
1053.50 0.6626
1053.60 0.6625
1053.70 0.6623
1053.80 0.6622
1053.90 0.662
1054.00 0.6619
1054.10 0.6617
1054.20 0.6616
1054.30 0.6614
1054.40 0.6613
1054.50 0.6611
1054.60 0.661
1054.70 0.6609
1054.80 0.6607
1054.90 0.6606
1055.00 0.6604
1055.10 0.6603
1055.20 0.6601
1055.30 0.66
1055.40 0.6598
1055.50 0.6597
1055.60 0.6595
1055.70 0.6594
1055.80 0.6592
1055.90 0.6591
1056.00 0.6589
1056.10 0.6588
1056.20 0.6586
1056.30 0.6585
1056.40 0.6583
1056.50 0.6582
1056.60 0.658
1056.70 0.6579
1056.80 0.6578
1056.90 0.6576
1057.00 0.6575
1057.10 0.6573
1057.20 0.6572
1057.30 0.657
1057.40 0.6569
1057.50 0.6567
1057.60 0.6566
1057.70 0.6565
1057.80 0.6563
1057.90 0.6562
1058.00 0.656
1058.10 0.6559
1058.20 0.6557
1058.30 0.6556
1058.40 0.6555
1058.50 0.6553
1058.60 0.6552
1058.70 0.655
1058.80 0.6549
1058.90 0.6547
1059.00 0.6546
1059.10 0.6545
1059.20 0.6543
1059.30 0.6542
1059.40 0.654
1059.50 0.6539
1059.60 0.6538
1059.70 0.6536
1059.80 0.6535
1059.90 0.6533
1060.00 0.6532
1060.10 0.653
1060.20 0.6529
1060.30 0.6528
1060.40 0.6526
1060.50 0.6525
1060.60 0.6523
1060.70 0.6522
1060.80 0.6521
1060.90 0.6519
1061.00 0.6518
1061.10 0.6516
1061.20 0.6515
1061.30 0.6513
1061.40 0.6512
1061.50 0.6511
1061.60 0.6509
1061.70 0.6508
1061.80 0.6506
1061.90 0.6505
1062.00 0.6504
1062.10 0.6502
1062.20 0.6501
1062.30 0.6499
1062.40 0.6498
1062.50 0.6497
1062.60 0.6495
1062.70 0.6494
1062.80 0.6493
1062.90 0.6491
1063.00 0.649
1063.10 0.6489
1063.20 0.6487
1063.30 0.6486
1063.40 0.6484
1063.50 0.6483
1063.60 0.6482
1063.70 0.648
1063.80 0.6479
1063.90 0.6478
1064.00 0.6476
1064.10 0.6475
1064.20 0.6474
1064.30 0.6472
1064.40 0.6471
1064.50 0.647
1064.60 0.6468
1064.70 0.6467
1064.80 0.6465
1064.90 0.6464
1065.00 0.6463
1065.10 0.6461
1065.20 0.646
1065.30 0.6459
1065.40 0.6457
1065.50 0.6456
1065.60 0.6455
1065.70 0.6453
1065.80 0.6452
1065.90 0.6451
1066.00 0.6449
1066.10 0.6448
1066.20 0.6446
1066.30 0.6445
1066.40 0.6444
1066.50 0.6442
1066.60 0.6441
1066.70 0.644
1066.80 0.6438
1066.90 0.6437
1067.00 0.6436
1067.10 0.6434
1067.20 0.6433
1067.30 0.6432
1067.40 0.6431
1067.50 0.6429
1067.60 0.6428
1067.70 0.6427
1067.80 0.6425
1067.90 0.6424
1068.00 0.6423
1068.10 0.6421
1068.20 0.642
1068.30 0.6419
1068.40 0.6418
1068.50 0.6416
1068.60 0.6415
1068.70 0.6414
1068.80 0.6412
1068.90 0.6411
1069.00 0.641
1069.10 0.6409
1069.20 0.6407
1069.30 0.6406
1069.40 0.6405
1069.50 0.6403
1069.60 0.6402
1069.70 0.6401
1069.80 0.64
1069.90 0.6398
1070.00 0.6397
1070.10 0.6396
1070.20 0.6394
1070.30 0.6393
1070.40 0.6392
1070.50 0.6391
1070.60 0.6389
1070.70 0.6388
1070.80 0.6387
1070.90 0.6385
1071.00 0.6384
1071.10 0.6383
1071.20 0.6382
1071.30 0.638
1071.40 0.6379
1071.50 0.6378
1071.60 0.6376
1071.70 0.6375
1071.80 0.6374
1071.90 0.6373
1072.00 0.6371
1072.10 0.637
1072.20 0.6369
1072.30 0.6368
1072.40 0.6366
1072.50 0.6365
1072.60 0.6364
1072.70 0.6362
1072.80 0.6361
1072.90 0.636
1073.00 0.6359
1073.10 0.6357
1073.20 0.6356
1073.30 0.6355
1073.40 0.6353
1073.50 0.6352
1073.60 0.6351
1073.70 0.635
1073.80 0.6348
1073.90 0.6347
1074.00 0.6346
1074.10 0.6345
1074.20 0.6343
1074.30 0.6342
1074.40 0.6341
1074.50 0.634
1074.60 0.6338
1074.70 0.6337
1074.80 0.6336
1074.90 0.6335
1075.00 0.6333
1075.10 0.6332
1075.20 0.6331
1075.30 0.633
1075.40 0.6328
1075.50 0.6327
1075.60 0.6326
1075.70 0.6325
1075.80 0.6323
1075.90 0.6322
1076.00 0.6321
1076.10 0.632
1076.20 0.6318
1076.30 0.6317
1076.40 0.6316
1076.50 0.6315
1076.60 0.6313
1076.70 0.6312
1076.80 0.6311
1076.90 0.631
1077.00 0.6308
1077.10 0.6307
1077.20 0.6306
1077.30 0.6305
1077.40 0.6304
1077.50 0.6302
1077.60 0.6301
1077.70 0.63
1077.80 0.6299
1077.90 0.6297
1078.00 0.6296
1078.10 0.6295
1078.20 0.6294
1078.30 0.6293
1078.40 0.6291
1078.50 0.629
1078.60 0.6289
1078.70 0.6288
1078.80 0.6286
1078.90 0.6285
1079.00 0.6284
1079.10 0.6283
1079.20 0.6281
1079.30 0.628
1079.40 0.6279
1079.50 0.6278
1079.60 0.6277
1079.70 0.6275
1079.80 0.6274
1079.90 0.6273
1080.00 0.6272
1080.10 0.6271
1080.20 0.6269
1080.30 0.6268
1080.40 0.6267
1080.50 0.6266
1080.60 0.6265
1080.70 0.6263
1080.80 0.6262
1080.90 0.6261
1081.00 0.626
1081.10 0.6259
1081.20 0.6258
1081.30 0.6256
1081.40 0.6255
1081.50 0.6254
1081.60 0.6253
1081.70 0.6252
1081.80 0.625
1081.90 0.6249
1082.00 0.6248
1082.10 0.6247
1082.20 0.6246
1082.30 0.6244
1082.40 0.6243
1082.50 0.6242
1082.60 0.6241
1082.70 0.624
1082.80 0.6238
1082.90 0.6237
1083.00 0.6236
1083.10 0.6235
1083.20 0.6234
1083.30 0.6233
1083.40 0.6231
1083.50 0.623
1083.60 0.6229
1083.70 0.6228
1083.80 0.6227
1083.90 0.6226
1084.00 0.6224
1084.10 0.6223
1084.20 0.6222
1084.30 0.6221
1084.40 0.622
1084.50 0.6218
1084.60 0.6217
1084.70 0.6216
1084.80 0.6215
1084.90 0.6214
1085.00 0.6213
1085.10 0.6211
1085.20 0.621
1085.30 0.6209
1085.40 0.6208
1085.50 0.6207
1085.60 0.6206
1085.70 0.6204
1085.80 0.6203
1085.90 0.6202
1086.00 0.6201
1086.10 0.62
1086.20 0.6198
1086.30 0.6197
1086.40 0.6196
1086.50 0.6195
1086.60 0.6194
1086.70 0.6193
1086.80 0.6192
1086.90 0.619
1087.00 0.6189
1087.10 0.6188
1087.20 0.6187
1087.30 0.6186
1087.40 0.6185
1087.50 0.6183
1087.60 0.6182
1087.70 0.6181
1087.80 0.618
1087.90 0.6179
1088.00 0.6178
1088.10 0.6177
1088.20 0.6175
1088.30 0.6174
1088.40 0.6173
1088.50 0.6172
1088.60 0.6171
1088.70 0.617
1088.80 0.6168
1088.90 0.6167
1089.00 0.6166
1089.10 0.6165
1089.20 0.6164
1089.30 0.6163
1089.40 0.6162
1089.50 0.616
1089.60 0.6159
1089.70 0.6158
1089.80 0.6157
1089.90 0.6156
1090.00 0.6155
1090.10 0.6154
1090.20 0.6152
1090.30 0.6151
1090.40 0.615
1090.50 0.6149
1090.60 0.6148
1090.70 0.6147
1090.80 0.6146
1090.90 0.6144
1091.00 0.6143
1091.10 0.6142
1091.20 0.6141
1091.30 0.614
1091.40 0.6139
1091.50 0.6138
1091.60 0.6137
1091.70 0.6135
1091.80 0.6134
1091.90 0.6133
1092.00 0.6132
1092.10 0.6131
1092.20 0.613
1092.30 0.6129
1092.40 0.6128
1092.50 0.6126
1092.60 0.6125
1092.70 0.6124
1092.80 0.6123
1092.90 0.6122
1093.00 0.6121
1093.10 0.612
1093.20 0.6119
1093.30 0.6118
1093.40 0.6117
1093.50 0.6116
1093.60 0.6115
1093.70 0.6113
1093.80 0.6112
1093.90 0.6111
1094.00 0.611
1094.10 0.6109
1094.20 0.6108
1094.30 0.6107
1094.40 0.6106
1094.50 0.6104
1094.60 0.6103
1094.70 0.6102
1094.80 0.6101
1094.90 0.61
1095.00 0.6099
1095.10 0.6098
1095.20 0.6097
1095.30 0.6096
1095.40 0.6094
1095.50 0.6093
1095.60 0.6092
1095.70 0.6091
1095.80 0.609
1095.90 0.6089
1096.00 0.6088
1096.10 0.6087
1096.20 0.6086
1096.30 0.6084
1096.40 0.6083
1096.50 0.6082
1096.60 0.6081
1096.70 0.608
1096.80 0.6079
1096.90 0.6078
1097.00 0.6077
1097.10 0.6076
1097.20 0.6074
1097.30 0.6073
1097.40 0.6072
1097.50 0.6071
1097.60 0.607
1097.70 0.6069
1097.80 0.6068
1097.90 0.6067
1098.00 0.6066
1098.10 0.6065
1098.20 0.6063
1098.30 0.6062
1098.40 0.6061
1098.50 0.606
1098.60 0.6059
1098.70 0.6058
1098.80 0.6057
1098.90 0.6056
1099.00 0.6055
1099.10 0.6053
1099.20 0.6052
1099.30 0.6051
1099.40 0.605
1099.50 0.6049
1099.60 0.6048
1099.70 0.6047
1099.80 0.6046
1099.90 0.6045
1100.00 0.6044
1100.10 0.6042
1100.20 0.6041
1100.30 0.604
1100.40 0.6039
1100.50 0.6038
1100.60 0.6037
1100.70 0.6036
1100.80 0.6035
1100.90 0.6034
1101.00 0.6033
1101.10 0.6032
1101.20 0.6031
1101.30 0.6029
1101.40 0.6028
1101.50 0.6027
1101.60 0.6026
1101.70 0.6025
1101.80 0.6024
1101.90 0.6023
1102.00 0.6022
1102.10 0.6021
1102.20 0.602
1102.30 0.6019
1102.40 0.6018
1102.50 0.6016
1102.60 0.6015
1102.70 0.6014
1102.80 0.6013
1102.90 0.6012
1103.00 0.6011
1103.10 0.601
1103.20 0.6009
1103.30 0.6008
1103.40 0.6007
1103.50 0.6006
1103.60 0.6004
1103.70 0.6003
1103.80 0.6002
1103.90 0.6001
1104.00 0.6
1104.10 0.5999
1104.20 0.5998
1104.30 0.5997
1104.40 0.5996
1104.50 0.5995
1104.60 0.5994
1104.70 0.5993
1104.80 0.5991
1104.90 0.599
1105.00 0.5989
1105.10 0.5988
1105.20 0.5987
1105.30 0.5986
1105.40 0.5985
1105.50 0.5984
1105.60 0.5983
1105.70 0.5982
1105.80 0.5981
1105.90 0.598
1106.00 0.5978
1106.10 0.5977
1106.20 0.5976
1106.30 0.5975
1106.40 0.5974
1106.50 0.5973
1106.60 0.5972
1106.70 0.5971
1106.80 0.597
1106.90 0.5969
1107.00 0.5968
1107.10 0.5967
1107.20 0.5966
1107.30 0.5965
1107.40 0.5964
1107.50 0.5962
1107.60 0.5961
1107.70 0.596
1107.80 0.5959
1107.90 0.5958
1108.00 0.5957
1108.10 0.5956
1108.20 0.5955
1108.30 0.5954
1108.40 0.5953
1108.50 0.5952
1108.60 0.5951
1108.70 0.595
1108.80 0.5949
1108.90 0.5948
1109.00 0.5947
1109.10 0.5945
1109.20 0.5944
1109.30 0.5943
1109.40 0.5942
1109.50 0.5941
1109.60 0.594
1109.70 0.5939
1109.80 0.5938
1109.90 0.5937
1110.00 0.5936
1110.10 0.5935
1110.20 0.5934
1110.30 0.5933
1110.40 0.5932
1110.50 0.5931
1110.60 0.593
1110.70 0.5928
1110.80 0.5927
1110.90 0.5926
1111.00 0.5925
1111.10 0.5924
1111.20 0.5923
1111.30 0.5922
1111.40 0.5921
1111.50 0.592
1111.60 0.5919
1111.70 0.5918
1111.80 0.5917
1111.90 0.5916
1112.00 0.5915
1112.10 0.5914
1112.20 0.5913
1112.30 0.5912
1112.40 0.591
1112.50 0.5909
1112.60 0.5908
1112.70 0.5907
1112.80 0.5906
1112.90 0.5905
1113.00 0.5904
1113.10 0.5903
1113.20 0.5902
1113.30 0.5901
1113.40 0.59
1113.50 0.5899
1113.60 0.5898
1113.70 0.5897
1113.80 0.5896
1113.90 0.5895
1114.00 0.5894
1114.10 0.5893
1114.20 0.5891
1114.30 0.589
1114.40 0.5889
1114.50 0.5888
1114.60 0.5887
1114.70 0.5886
1114.80 0.5885
1114.90 0.5884
1115.00 0.5883
1115.10 0.5882
1115.20 0.5881
1115.30 0.588
1115.40 0.5879
1115.50 0.5878
1115.60 0.5877
1115.70 0.5876
1115.80 0.5875
1115.90 0.5874
1116.00 0.5873
1116.10 0.5872
1116.20 0.5871
1116.30 0.587
1116.40 0.5869
1116.50 0.5868
1116.60 0.5866
1116.70 0.5865
1116.80 0.5864
1116.90 0.5863
1117.00 0.5862
1117.10 0.5861
1117.20 0.586
1117.30 0.5859
1117.40 0.5858
1117.50 0.5857
1117.60 0.5856
1117.70 0.5855
1117.80 0.5854
1117.90 0.5853
1118.00 0.5852
1118.10 0.5851
1118.20 0.585
1118.30 0.5849
1118.40 0.5848
1118.50 0.5847
1118.60 0.5846
1118.70 0.5845
1118.80 0.5844
1118.90 0.5843
1119.00 0.5842
1119.10 0.5841
1119.20 0.584
1119.30 0.5839
1119.40 0.5838
1119.50 0.5836
1119.60 0.5835
1119.70 0.5834
1119.80 0.5833
1119.90 0.5832
1120.00 0.5831
1120.10 0.583
1120.20 0.5829
1120.30 0.5828
1120.40 0.5827
1120.50 0.5826
1120.60 0.5825
1120.70 0.5824
1120.80 0.5823
1120.90 0.5822
1121.00 0.5821
1121.10 0.582
1121.20 0.5819
1121.30 0.5818
1121.40 0.5817
1121.50 0.5816
1121.60 0.5815
1121.70 0.5814
1121.80 0.5813
1121.90 0.5812
1122.00 0.5811
1122.10 0.581
1122.20 0.5809
1122.30 0.5808
1122.40 0.5807
1122.50 0.5806
1122.60 0.5805
1122.70 0.5804
1122.80 0.5803
1122.90 0.5802
1123.00 0.58
1123.10 0.5799
1123.20 0.5798
1123.30 0.5797
1123.40 0.5796
1123.50 0.5795
1123.60 0.5794
1123.70 0.5793
1123.80 0.5792
1123.90 0.5791
1124.00 0.579
1124.10 0.5789
1124.20 0.5788
1124.30 0.5787
1124.40 0.5786
1124.50 0.5785
1124.60 0.5784
1124.70 0.5783
1124.80 0.5782
1124.90 0.5781
1125.00 0.578
1125.10 0.5779
1125.20 0.5778
1125.30 0.5777
1125.40 0.5776
1125.50 0.5775
1125.60 0.5774
1125.70 0.5773
1125.80 0.5772
1125.90 0.5771
1126.00 0.577
1126.10 0.5769
1126.20 0.5768
1126.30 0.5767
1126.40 0.5766
1126.50 0.5765
1126.60 0.5763
1126.70 0.5762
1126.80 0.5761
1126.90 0.576
1127.00 0.5759
1127.10 0.5758
1127.20 0.5757
1127.30 0.5756
1127.40 0.5755
1127.50 0.5754
1127.60 0.5753
1127.70 0.5752
1127.80 0.5751
1127.90 0.575
1128.00 0.5749
1128.10 0.5748
1128.20 0.5747
1128.30 0.5746
1128.40 0.5745
1128.50 0.5744
1128.60 0.5743
1128.70 0.5742
1128.80 0.5741
1128.90 0.574
1129.00 0.5739
1129.10 0.5738
1129.20 0.5737
1129.30 0.5736
1129.40 0.5735
1129.50 0.5734
1129.60 0.5733
1129.70 0.5732
1129.80 0.5731
1129.90 0.573
1130.00 0.5729
1130.10 0.5728
1130.20 0.5727
1130.30 0.5726
1130.40 0.5725
1130.50 0.5724
1130.60 0.5723
1130.70 0.5722
1130.80 0.5721
1130.90 0.572
1131.00 0.5719
1131.10 0.5718
1131.20 0.5717
1131.30 0.5716
1131.40 0.5715
1131.50 0.5714
1131.60 0.5713
1131.70 0.5712
1131.80 0.5711
1131.90 0.571
1132.00 0.5709
1132.10 0.5708
1132.20 0.5707
1132.30 0.5706
1132.40 0.5705
1132.50 0.5704
1132.60 0.5703
1132.70 0.5702
1132.80 0.5701
1132.90 0.57
1133.00 0.5699
1133.10 0.5697
1133.20 0.5696
1133.30 0.5695
1133.40 0.5694
1133.50 0.5693
1133.60 0.5692
1133.70 0.5691
1133.80 0.569
1133.90 0.5689
1134.00 0.5688
1134.10 0.5687
1134.20 0.5686
1134.30 0.5685
1134.40 0.5684
1134.50 0.5683
1134.60 0.5682
1134.70 0.5681
1134.80 0.568
1134.90 0.5679
1135.00 0.5678
1135.10 0.5677
1135.20 0.5676
1135.30 0.5675
1135.40 0.5674
1135.50 0.5673
1135.60 0.5672
1135.70 0.5671
1135.80 0.567
1135.90 0.5669
1136.00 0.5668
1136.10 0.5667
1136.20 0.5666
1136.30 0.5665
1136.40 0.5664
1136.50 0.5663
1136.60 0.5662
1136.70 0.5661
1136.80 0.566
1136.90 0.5659
1137.00 0.5657
1137.10 0.5656
1137.20 0.5655
1137.30 0.5654
1137.40 0.5653
1137.50 0.5652
1137.60 0.5651
1137.70 0.565
1137.80 0.5649
1137.90 0.5648
1138.00 0.5647
1138.10 0.5646
1138.20 0.5645
1138.30 0.5644
1138.40 0.5643
1138.50 0.5642
1138.60 0.5641
1138.70 0.564
1138.80 0.5639
1138.90 0.5638
1139.00 0.5637
1139.10 0.5636
1139.20 0.5635
1139.30 0.5634
1139.40 0.5633
1139.50 0.5632
1139.60 0.5631
1139.70 0.563
1139.80 0.5629
1139.90 0.5628
1140.00 0.5627
1140.10 0.5626
1140.20 0.5625
1140.30 0.5624
1140.40 0.5623
1140.50 0.5622
1140.60 0.562
1140.70 0.5619
1140.80 0.5618
1140.90 0.5617
1141.00 0.5616
1141.10 0.5615
1141.20 0.5614
1141.30 0.5613
1141.40 0.5612
1141.50 0.5611
1141.60 0.561
1141.70 0.5609
1141.80 0.5608
1141.90 0.5607
1142.00 0.5606
1142.10 0.5605
1142.20 0.5604
1142.30 0.5603
1142.40 0.5602
1142.50 0.5601
1142.60 0.56
1142.70 0.5599
1142.80 0.5598
1142.90 0.5597
1143.00 0.5596
1143.10 0.5595
1143.20 0.5594
1143.30 0.5593
1143.40 0.5592
1143.50 0.5591
1143.60 0.559
1143.70 0.5589
1143.80 0.5588
1143.90 0.5587
1144.00 0.5586
1144.10 0.5585
1144.20 0.5584
1144.30 0.5583
1144.40 0.5582
1144.50 0.5581
1144.60 0.558
1144.70 0.5579
1144.80 0.5578
1144.90 0.5577
1145.00 0.5576
1145.10 0.5574
1145.20 0.5573
1145.30 0.5572
1145.40 0.5571
1145.50 0.557
1145.60 0.5569
1145.70 0.5568
1145.80 0.5567
1145.90 0.5566
1146.00 0.5565
1146.10 0.5564
1146.20 0.5563
1146.30 0.5562
1146.40 0.5561
1146.50 0.556
1146.60 0.5559
1146.70 0.5558
1146.80 0.5557
1146.90 0.5556
1147.00 0.5555
1147.10 0.5554
1147.20 0.5553
1147.30 0.5552
1147.40 0.5551
1147.50 0.555
1147.60 0.5549
1147.70 0.5548
1147.80 0.5547
1147.90 0.5546
1148.00 0.5545
1148.10 0.5544
1148.20 0.5543
1148.30 0.5542
1148.40 0.5541
1148.50 0.554
1148.60 0.5538
1148.70 0.5537
1148.80 0.5536
1148.90 0.5535
1149.00 0.5534
1149.10 0.5533
1149.20 0.5532
1149.30 0.5531
1149.40 0.553
1149.50 0.5529
1149.60 0.5528
1149.70 0.5527
1149.80 0.5526
1149.90 0.5525
1150.00 0.5524
1150.10 0.5523
1150.20 0.5522
1150.30 0.5521
1150.40 0.552
1150.50 0.5519
1150.60 0.5518
1150.70 0.5517
1150.80 0.5516
1150.90 0.5515
1151.00 0.5514
1151.10 0.5513
1151.20 0.5512
1151.30 0.551
1151.40 0.5509
1151.50 0.5508
1151.60 0.5507
1151.70 0.5506
1151.80 0.5505
1151.90 0.5504
1152.00 0.5503
1152.10 0.5502
1152.20 0.5501
1152.30 0.55
1152.40 0.5499
1152.50 0.5498
1152.60 0.5497
1152.70 0.5496
1152.80 0.5495
1152.90 0.5494
1153.00 0.5493
1153.10 0.5492
1153.20 0.5491
1153.30 0.549
1153.40 0.5489
1153.50 0.5488
1153.60 0.5486
1153.70 0.5485
1153.80 0.5484
1153.90 0.5483
1154.00 0.5482
1154.10 0.5481
1154.20 0.548
1154.30 0.5479
1154.40 0.5478
1154.50 0.5477
1154.60 0.5476
1154.70 0.5475
1154.80 0.5474
1154.90 0.5473
1155.00 0.5472
1155.10 0.5471
1155.20 0.547
1155.30 0.5469
1155.40 0.5468
1155.50 0.5467
1155.60 0.5466
1155.70 0.5465
1155.80 0.5464
1155.90 0.5463
1156.00 0.5462
1156.10 0.546
1156.20 0.5459
1156.30 0.5458
1156.40 0.5457
1156.50 0.5456
1156.60 0.5455
1156.70 0.5454
1156.80 0.5453
1156.90 0.5452
1157.00 0.5451
1157.10 0.545
1157.20 0.5449
1157.30 0.5448
1157.40 0.5447
1157.50 0.5446
1157.60 0.5445
1157.70 0.5444
1157.80 0.5443
1157.90 0.5442
1158.00 0.5441
1158.10 0.5439
1158.20 0.5438
1158.30 0.5437
1158.40 0.5436
1158.50 0.5435
1158.60 0.5434
1158.70 0.5433
1158.80 0.5432
1158.90 0.5431
1159.00 0.543
1159.10 0.5429
1159.20 0.5428
1159.30 0.5427
1159.40 0.5426
1159.50 0.5425
1159.60 0.5424
1159.70 0.5423
1159.80 0.5422
1159.90 0.542
1160.00 0.5419
1160.10 0.5418
1160.20 0.5417
1160.30 0.5416
1160.40 0.5415
1160.50 0.5414
1160.60 0.5413
1160.70 0.5412
1160.80 0.5411
1160.90 0.541
1161.00 0.5409
1161.10 0.5408
1161.20 0.5407
1161.30 0.5406
1161.40 0.5405
1161.50 0.5404
1161.60 0.5403
1161.70 0.5402
1161.80 0.54
1161.90 0.5399
1162.00 0.5398
1162.10 0.5397
1162.20 0.5396
1162.30 0.5395
1162.40 0.5394
1162.50 0.5393
1162.60 0.5392
1162.70 0.5391
1162.80 0.539
1162.90 0.5389
1163.00 0.5388
1163.10 0.5387
1163.20 0.5386
1163.30 0.5384
1163.40 0.5383
1163.50 0.5382
1163.60 0.5381
1163.70 0.538
1163.80 0.5379
1163.90 0.5378
1164.00 0.5377
1164.10 0.5376
1164.20 0.5375
1164.30 0.5374
1164.40 0.5373
1164.50 0.5372
1164.60 0.5371
1164.70 0.537
1164.80 0.5368
1164.90 0.5367
1165.00 0.5366
1165.10 0.5365
1165.20 0.5364
1165.30 0.5363
1165.40 0.5362
1165.50 0.5361
1165.60 0.536
1165.70 0.5359
1165.80 0.5358
1165.90 0.5357
1166.00 0.5356
1166.10 0.5355
1166.20 0.5354
1166.30 0.5353
1166.40 0.5351
1166.50 0.535
1166.60 0.5349
1166.70 0.5348
1166.80 0.5347
1166.90 0.5346
1167.00 0.5345
1167.10 0.5344
1167.20 0.5343
1167.30 0.5342
1167.40 0.5341
1167.50 0.534
1167.60 0.5339
1167.70 0.5338
1167.80 0.5336
1167.90 0.5335
1168.00 0.5334
1168.10 0.5333
1168.20 0.5332
1168.30 0.5331
1168.40 0.533
1168.50 0.5329
1168.60 0.5328
1168.70 0.5327
1168.80 0.5326
1168.90 0.5325
1169.00 0.5324
1169.10 0.5322
1169.20 0.5321
1169.30 0.532
1169.40 0.5319
1169.50 0.5318
1169.60 0.5317
1169.70 0.5316
1169.80 0.5315
1169.90 0.5314
1170.00 0.5313
1170.10 0.5312
1170.20 0.5311
1170.30 0.531
1170.40 0.5309
1170.50 0.5307
1170.60 0.5306
1170.70 0.5305
1170.80 0.5304
1170.90 0.5303
1171.00 0.5302
1171.10 0.5301
1171.20 0.53
1171.30 0.5299
1171.40 0.5298
1171.50 0.5297
1171.60 0.5296
1171.70 0.5295
1171.80 0.5294
1171.90 0.5292
1172.00 0.5291
1172.10 0.529
1172.20 0.5289
1172.30 0.5288
1172.40 0.5287
1172.50 0.5286
1172.60 0.5285
1172.70 0.5284
1172.80 0.5283
1172.90 0.5282
1173.00 0.5281
1173.10 0.5279
1173.20 0.5278
1173.30 0.5277
1173.40 0.5276
1173.50 0.5275
1173.60 0.5274
1173.70 0.5273
1173.80 0.5272
1173.90 0.5271
1174.00 0.527
1174.10 0.5269
1174.20 0.5267
1174.30 0.5266
1174.40 0.5265
1174.50 0.5264
1174.60 0.5263
1174.70 0.5262
1174.80 0.5261
1174.90 0.526
1175.00 0.5259
1175.10 0.5258
1175.20 0.5257
1175.30 0.5255
1175.40 0.5254
1175.50 0.5253
1175.60 0.5252
1175.70 0.5251
1175.80 0.525
1175.90 0.5249
1176.00 0.5248
1176.10 0.5247
1176.20 0.5246
1176.30 0.5245
1176.40 0.5244
1176.50 0.5242
1176.60 0.5241
1176.70 0.524
1176.80 0.5239
1176.90 0.5238
1177.00 0.5237
1177.10 0.5236
1177.20 0.5235
1177.30 0.5234
1177.40 0.5233
1177.50 0.5232
1177.60 0.523
1177.70 0.5229
1177.80 0.5228
1177.90 0.5227
1178.00 0.5226
1178.10 0.5225
1178.20 0.5224
1178.30 0.5223
1178.40 0.5222
1178.50 0.5221
1178.60 0.522
1178.70 0.5218
1178.80 0.5217
1178.90 0.5216
1179.00 0.5215
1179.10 0.5214
1179.20 0.5213
1179.30 0.5212
1179.40 0.5211
1179.50 0.521
1179.60 0.5209
1179.70 0.5208
1179.80 0.5206
1179.90 0.5205
1180.00 0.5204
1180.10 0.5203
1180.20 0.5202
1180.30 0.5201
1180.40 0.52
1180.50 0.5199
1180.60 0.5198
1180.70 0.5197
1180.80 0.5196
1180.90 0.5194
1181.00 0.5193
1181.10 0.5192
1181.20 0.5191
1181.30 0.519
1181.40 0.5189
1181.50 0.5188
1181.60 0.5187
1181.70 0.5186
1181.80 0.5185
1181.90 0.5184
1182.00 0.5183
1182.10 0.5181
1182.20 0.518
1182.30 0.5179
1182.40 0.5178
1182.50 0.5177
1182.60 0.5176
1182.70 0.5175
1182.80 0.5174
1182.90 0.5172
1183.00 0.5171
1183.10 0.517
1183.20 0.5169
1183.30 0.5168
1183.40 0.5167
1183.50 0.5166
1183.60 0.5165
1183.70 0.5164
1183.80 0.5162
1183.90 0.5161
1184.00 0.516
1184.10 0.5159
1184.20 0.5158
1184.30 0.5157
1184.40 0.5156
1184.50 0.5155
1184.60 0.5154
1184.70 0.5153
1184.80 0.5151
1184.90 0.515
1185.00 0.5149
1185.10 0.5148
1185.20 0.5147
1185.30 0.5146
1185.40 0.5145
1185.50 0.5144
1185.60 0.5143
1185.70 0.5141
1185.80 0.514
1185.90 0.5139
1186.00 0.5138
1186.10 0.5137
1186.20 0.5136
1186.30 0.5135
1186.40 0.5134
1186.50 0.5133
1186.60 0.5132
1186.70 0.513
1186.80 0.5129
1186.90 0.5128
1187.00 0.5127
1187.10 0.5126
1187.20 0.5125
1187.30 0.5124
1187.40 0.5123
1187.50 0.5122
1187.60 0.512
1187.70 0.5119
1187.80 0.5118
1187.90 0.5117
1188.00 0.5116
1188.10 0.5115
1188.20 0.5114
1188.30 0.5113
1188.40 0.5112
1188.50 0.511
1188.60 0.5109
1188.70 0.5108
1188.80 0.5107
1188.90 0.5106
1189.00 0.5105
1189.10 0.5104
1189.20 0.5103
1189.30 0.5102
1189.40 0.5101
1189.50 0.5099
1189.60 0.5098
1189.70 0.5097
1189.80 0.5096
1189.90 0.5095
1190.00 0.5094
1190.10 0.5093
1190.20 0.5092
1190.30 0.5091
1190.40 0.509
1190.50 0.5088
1190.60 0.5087
1190.70 0.5086
1190.80 0.5085
1190.90 0.5084
1191.00 0.5083
1191.10 0.5082
1191.20 0.5081
1191.30 0.508
1191.40 0.5079
1191.50 0.5077
1191.60 0.5076
1191.70 0.5075
1191.80 0.5074
1191.90 0.5073
1192.00 0.5072
1192.10 0.5071
1192.20 0.507
1192.30 0.5069
1192.40 0.5067
1192.50 0.5066
1192.60 0.5065
1192.70 0.5064
1192.80 0.5063
1192.90 0.5062
1193.00 0.5061
1193.10 0.506
1193.20 0.5059
1193.30 0.5057
1193.40 0.5056
1193.50 0.5055
1193.60 0.5054
1193.70 0.5053
1193.80 0.5052
1193.90 0.5051
1194.00 0.505
1194.10 0.5049
1194.20 0.5047
1194.30 0.5046
1194.40 0.5045
1194.50 0.5044
1194.60 0.5043
1194.70 0.5042
1194.80 0.5041
1194.90 0.504
1195.00 0.5039
1195.10 0.5038
1195.20 0.5036
1195.30 0.5035
1195.40 0.5034
1195.50 0.5033
1195.60 0.5032
1195.70 0.5031
1195.80 0.503
1195.90 0.5029
1196.00 0.5028
1196.10 0.5026
1196.20 0.5025
1196.30 0.5024
1196.40 0.5023
1196.50 0.5022
1196.60 0.5021
1196.70 0.502
1196.80 0.5019
1196.90 0.5018
1197.00 0.5017
1197.10 0.5015
1197.20 0.5014
1197.30 0.5013
1197.40 0.5012
1197.50 0.5011
1197.60 0.501
1197.70 0.5009
1197.80 0.5008
1197.90 0.5006
1198.00 0.5005
1198.10 0.5004
1198.20 0.5003
1198.30 0.5002
1198.40 0.5001
1198.50 0.5
1198.60 0.4999
1198.70 0.4998
1198.80 0.4996
1198.90 0.4995
1199.00 0.4994
1199.10 0.4993
1199.20 0.4992
1199.30 0.4991
1199.40 0.499
1199.50 0.4989
1199.60 0.4987
1199.70 0.4986
1199.80 0.4985
1199.90 0.4984
1200.00 0
