# Version 2.1 - nm, norm@500 to 1, cut digits, bergeron_20000_95.dat_20000
# Wavelength(nm)  Flambda(ergs/cm^s/s/nm)
300.00 3.642
300.10 3.638
300.20 3.634
300.30 3.631
300.40 3.627
300.50 3.624
300.60 3.62
300.70 3.617
300.80 3.613
300.90 3.609
301.00 3.606
301.10 3.602
301.20 3.599
301.30 3.595
301.40 3.592
301.50 3.588
301.60 3.585
301.70 3.581
301.80 3.578
301.90 3.574
302.00 3.571
302.10 3.567
302.20 3.564
302.30 3.56
302.40 3.557
302.50 3.553
302.60 3.55
302.70 3.546
302.80 3.543
302.90 3.539
303.00 3.536
303.10 3.532
303.20 3.529
303.30 3.526
303.40 3.522
303.50 3.519
303.60 3.515
303.70 3.512
303.80 3.508
303.90 3.505
304.00 3.502
304.10 3.498
304.20 3.495
304.30 3.491
304.40 3.488
304.50 3.485
304.60 3.481
304.70 3.478
304.80 3.474
304.90 3.471
305.00 3.468
305.10 3.464
305.20 3.461
305.30 3.458
305.40 3.454
305.50 3.451
305.60 3.447
305.70 3.444
305.80 3.441
305.90 3.437
306.00 3.434
306.10 3.431
306.20 3.427
306.30 3.424
306.40 3.421
306.50 3.418
306.60 3.414
306.70 3.411
306.80 3.408
306.90 3.404
307.00 3.401
307.10 3.398
307.20 3.394
307.30 3.391
307.40 3.388
307.50 3.385
307.60 3.381
307.70 3.378
307.80 3.375
307.90 3.372
308.00 3.368
308.10 3.365
308.20 3.362
308.30 3.359
308.40 3.355
308.50 3.352
308.60 3.349
308.70 3.346
308.80 3.343
308.90 3.339
309.00 3.336
309.10 3.333
309.20 3.33
309.30 3.327
309.40 3.323
309.50 3.32
309.60 3.317
309.70 3.314
309.80 3.311
309.90 3.307
310.00 3.304
310.10 3.301
310.20 3.298
310.30 3.295
310.40 3.292
310.50 3.288
310.60 3.285
310.70 3.282
310.80 3.279
310.90 3.276
311.00 3.273
311.10 3.27
311.20 3.267
311.30 3.263
311.40 3.26
311.50 3.257
311.60 3.254
311.70 3.251
311.80 3.248
311.90 3.245
312.00 3.242
312.10 3.239
312.20 3.236
312.30 3.233
312.40 3.229
312.50 3.226
312.60 3.223
312.70 3.22
312.80 3.217
312.90 3.214
313.00 3.211
313.10 3.208
313.20 3.205
313.30 3.202
313.40 3.199
313.50 3.196
313.60 3.193
313.70 3.19
313.80 3.187
313.90 3.184
314.00 3.181
314.10 3.178
314.20 3.175
314.30 3.172
314.40 3.169
314.50 3.166
314.60 3.163
314.70 3.16
314.80 3.157
314.90 3.154
315.00 3.151
315.10 3.148
315.20 3.145
315.30 3.142
315.40 3.139
315.50 3.136
315.60 3.133
315.70 3.13
315.80 3.127
315.90 3.124
316.00 3.121
316.10 3.118
316.20 3.115
316.30 3.112
316.40 3.11
316.50 3.107
316.60 3.104
316.70 3.101
316.80 3.098
316.90 3.095
317.00 3.092
317.10 3.089
317.20 3.086
317.30 3.083
317.40 3.08
317.50 3.078
317.60 3.075
317.70 3.072
317.80 3.069
317.90 3.066
318.00 3.063
318.10 3.06
318.20 3.057
318.30 3.055
318.40 3.052
318.50 3.049
318.60 3.046
318.70 3.043
318.80 3.04
318.90 3.038
319.00 3.035
319.10 3.032
319.20 3.029
319.30 3.026
319.40 3.023
319.50 3.021
319.60 3.018
319.70 3.015
319.80 3.012
319.90 3.009
320.00 3.007
320.10 3.004
320.20 3.001
320.30 2.998
320.40 2.995
320.50 2.993
320.60 2.99
320.70 2.987
320.80 2.984
320.90 2.981
321.00 2.979
321.10 2.976
321.20 2.973
321.30 2.97
321.40 2.968
321.50 2.965
321.60 2.962
321.70 2.959
321.80 2.957
321.90 2.954
322.00 2.951
322.10 2.949
322.20 2.946
322.30 2.943
322.40 2.94
322.50 2.938
322.60 2.935
322.70 2.932
322.80 2.929
322.90 2.927
323.00 2.924
323.10 2.921
323.20 2.919
323.30 2.916
323.40 2.913
323.50 2.911
323.60 2.908
323.70 2.905
323.80 2.903
323.90 2.9
324.00 2.897
324.10 2.895
324.20 2.892
324.30 2.889
324.40 2.887
324.50 2.884
324.60 2.881
324.70 2.879
324.80 2.876
324.90 2.873
325.00 2.871
325.10 2.868
325.20 2.865
325.30 2.863
325.40 2.86
325.50 2.858
325.60 2.855
325.70 2.852
325.80 2.85
325.90 2.847
326.00 2.845
326.10 2.842
326.20 2.839
326.30 2.837
326.40 2.834
326.50 2.832
326.60 2.829
326.70 2.826
326.80 2.824
326.90 2.821
327.00 2.819
327.10 2.816
327.20 2.814
327.30 2.811
327.40 2.808
327.50 2.806
327.60 2.803
327.70 2.801
327.80 2.798
327.90 2.796
328.00 2.793
328.10 2.791
328.20 2.788
328.30 2.785
328.40 2.783
328.50 2.78
328.60 2.778
328.70 2.775
328.80 2.773
328.90 2.77
329.00 2.768
329.10 2.765
329.20 2.763
329.30 2.76
329.40 2.758
329.50 2.755
329.60 2.753
329.70 2.75
329.80 2.748
329.90 2.745
330.00 2.743
330.10 2.74
330.20 2.738
330.30 2.735
330.40 2.733
330.50 2.73
330.60 2.728
330.70 2.726
330.80 2.723
330.90 2.721
331.00 2.718
331.10 2.716
331.20 2.713
331.30 2.711
331.40 2.708
331.50 2.706
331.60 2.703
331.70 2.701
331.80 2.699
331.90 2.696
332.00 2.694
332.10 2.691
332.20 2.689
332.30 2.686
332.40 2.684
332.50 2.682
332.60 2.679
332.70 2.677
332.80 2.674
332.90 2.672
333.00 2.67
333.10 2.667
333.20 2.665
333.30 2.662
333.40 2.66
333.50 2.658
333.60 2.655
333.70 2.653
333.80 2.65
333.90 2.648
334.00 2.646
334.10 2.643
334.20 2.641
334.30 2.639
334.40 2.636
334.50 2.634
334.60 2.632
334.70 2.629
334.80 2.627
334.90 2.625
335.00 2.622
335.10 2.62
335.20 2.618
335.30 2.615
335.40 2.613
335.50 2.61
335.60 2.608
335.70 2.606
335.80 2.604
335.90 2.601
336.00 2.599
336.10 2.597
336.20 2.594
336.30 2.592
336.40 2.59
336.50 2.587
336.60 2.585
336.70 2.583
336.80 2.58
336.90 2.578
337.00 2.576
337.10 2.574
337.20 2.571
337.30 2.569
337.40 2.567
337.50 2.564
337.60 2.562
337.70 2.56
337.80 2.558
337.90 2.555
338.00 2.553
338.10 2.551
338.20 2.549
338.30 2.546
338.40 2.544
338.50 2.542
338.60 2.54
338.70 2.537
338.80 2.535
338.90 2.533
339.00 2.531
339.10 2.528
339.20 2.526
339.30 2.524
339.40 2.522
339.50 2.519
339.60 2.517
339.70 2.515
339.80 2.513
339.90 2.511
340.00 2.508
340.10 2.506
340.20 2.504
340.30 2.502
340.40 2.5
340.50 2.497
340.60 2.495
340.70 2.493
340.80 2.491
340.90 2.489
341.00 2.486
341.10 2.484
341.20 2.482
341.30 2.48
341.40 2.478
341.50 2.475
341.60 2.473
341.70 2.471
341.80 2.469
341.90 2.467
342.00 2.465
342.10 2.462
342.20 2.46
342.30 2.458
342.40 2.456
342.50 2.454
342.60 2.452
342.70 2.45
342.80 2.447
342.90 2.445
343.00 2.443
343.10 2.441
343.20 2.439
343.30 2.437
343.40 2.435
343.50 2.432
343.60 2.43
343.70 2.428
343.80 2.426
343.90 2.424
344.00 2.422
344.10 2.42
344.20 2.418
344.30 2.415
344.40 2.413
344.50 2.411
344.60 2.409
344.70 2.407
344.80 2.405
344.90 2.403
345.00 2.401
345.10 2.399
345.20 2.397
345.30 2.395
345.40 2.392
345.50 2.39
345.60 2.388
345.70 2.386
345.80 2.384
345.90 2.382
346.00 2.38
346.10 2.378
346.20 2.376
346.30 2.374
346.40 2.372
346.50 2.37
346.60 2.368
346.70 2.366
346.80 2.364
346.90 2.362
347.00 2.359
347.10 2.357
347.20 2.355
347.30 2.353
347.40 2.351
347.50 2.349
347.60 2.347
347.70 2.345
347.80 2.343
347.90 2.341
348.00 2.339
348.10 2.337
348.20 2.335
348.30 2.333
348.40 2.331
348.50 2.329
348.60 2.327
348.70 2.325
348.80 2.323
348.90 2.321
349.00 2.319
349.10 2.317
349.20 2.315
349.30 2.313
349.40 2.311
349.50 2.309
349.60 2.307
349.70 2.305
349.80 2.303
349.90 2.301
350.00 2.299
350.10 2.297
350.20 2.295
350.30 2.293
350.40 2.291
350.50 2.289
350.60 2.287
350.70 2.285
350.80 2.283
350.90 2.281
351.00 2.28
351.10 2.278
351.20 2.276
351.30 2.274
351.40 2.272
351.50 2.27
351.60 2.268
351.70 2.266
351.80 2.264
351.90 2.262
352.00 2.26
352.10 2.258
352.20 2.256
352.30 2.254
352.40 2.252
352.50 2.25
352.60 2.249
352.70 2.247
352.80 2.245
352.90 2.243
353.00 2.241
353.10 2.239
353.20 2.237
353.30 2.235
353.40 2.233
353.50 2.231
353.60 2.229
353.70 2.228
353.80 2.226
353.90 2.224
354.00 2.222
354.10 2.22
354.20 2.218
354.30 2.216
354.40 2.214
354.50 2.212
354.60 2.211
354.70 2.209
354.80 2.207
354.90 2.205
355.00 2.203
355.10 2.201
355.20 2.199
355.30 2.197
355.40 2.196
355.50 2.194
355.60 2.192
355.70 2.19
355.80 2.188
355.90 2.186
356.00 2.184
356.10 2.183
356.20 2.181
356.30 2.179
356.40 2.177
356.50 2.175
356.60 2.173
356.70 2.172
356.80 2.17
356.90 2.168
357.00 2.166
357.10 2.164
357.20 2.162
357.30 2.161
357.40 2.159
357.50 2.157
357.60 2.155
357.70 2.153
357.80 2.151
357.90 2.15
358.00 2.148
358.10 2.146
358.20 2.144
358.30 2.142
358.40 2.141
358.50 2.139
358.60 2.137
358.70 2.135
358.80 2.133
358.90 2.132
359.00 2.13
359.10 2.128
359.20 2.126
359.30 2.124
359.40 2.123
359.50 2.121
359.60 2.119
359.70 2.117
359.80 2.116
359.90 2.114
360.00 2.112
360.10 2.11
360.20 2.108
360.30 2.107
360.40 2.105
360.50 2.103
360.60 2.101
360.70 2.1
360.80 2.098
360.90 2.096
361.00 2.094
361.10 2.093
361.20 2.091
361.30 2.089
361.40 2.087
361.50 2.086
361.60 2.084
361.70 2.082
361.80 2.08
361.90 2.079
362.00 2.077
362.10 2.075
362.20 2.074
362.30 2.072
362.40 2.07
362.50 2.068
362.60 2.067
362.70 2.065
362.80 2.063
362.90 2.061
363.00 2.06
363.10 2.058
363.20 2.056
363.30 2.055
363.40 2.053
363.50 2.051
363.60 2.049
363.70 2.048
363.80 2.046
363.90 2.044
364.00 2.043
364.10 2.041
364.20 2.039
364.30 2.038
364.40 2.036
364.50 2.034
364.60 2.033
364.70 2.031
364.80 2.029
364.90 2.027
365.00 2.026
365.10 2.024
365.20 2.022
365.30 2.021
365.40 2.019
365.50 2.017
365.60 2.016
365.70 2.014
365.80 2.012
365.90 2.011
366.00 2.009
366.10 2.007
366.20 2.005
366.30 2.004
366.40 2.002
366.50 2
366.60 1.998
366.70 1.996
366.80 1.994
366.90 1.993
367.00 1.991
367.10 1.989
367.20 1.987
367.30 1.985
367.40 1.984
367.50 1.982
367.60 1.98
367.70 1.978
367.80 1.976
367.90 1.974
368.00 1.973
368.10 1.971
368.20 1.969
368.30 1.967
368.40 1.965
368.50 1.963
368.60 1.961
368.70 1.959
368.80 1.957
368.90 1.955
369.00 1.953
369.10 1.951
369.20 1.949
369.30 1.947
369.40 1.945
369.50 1.943
369.60 1.941
369.70 1.939
369.80 1.937
369.90 1.935
370.00 1.933
370.10 1.931
370.20 1.929
370.30 1.928
370.40 1.926
370.50 1.924
370.60 1.922
370.70 1.92
370.80 1.918
370.90 1.916
371.00 1.915
371.10 1.913
371.20 1.911
371.30 1.909
371.40 1.907
371.50 1.905
371.60 1.904
371.70 1.902
371.80 1.9
371.90 1.898
372.00 1.896
372.10 1.895
372.20 1.893
372.30 1.892
372.40 1.89
372.50 1.888
372.60 1.887
372.70 1.885
372.80 1.884
372.90 1.882
373.00 1.881
373.10 1.879
373.20 1.878
373.30 1.876
373.40 1.874
373.50 1.873
373.60 1.871
373.70 1.87
373.80 1.868
373.90 1.867
374.00 1.865
374.10 1.864
374.20 1.862
374.30 1.86
374.40 1.858
374.50 1.857
374.60 1.855
374.70 1.853
374.80 1.852
374.90 1.85
375.00 1.848
375.10 1.846
375.20 1.845
375.30 1.843
375.40 1.841
375.50 1.84
375.60 1.838
375.70 1.836
375.80 1.834
375.90 1.833
376.00 1.831
376.10 1.829
376.20 1.828
376.30 1.826
376.40 1.824
376.50 1.823
376.60 1.821
376.70 1.82
376.80 1.818
376.90 1.816
377.00 1.815
377.10 1.813
377.20 1.812
377.30 1.811
377.40 1.809
377.50 1.808
377.60 1.806
377.70 1.805
377.80 1.804
377.90 1.802
378.00 1.801
378.10 1.8
378.20 1.798
378.30 1.797
378.40 1.795
378.50 1.794
378.60 1.793
378.70 1.791
378.80 1.79
378.90 1.788
379.00 1.787
379.10 1.786
379.20 1.784
379.30 1.783
379.40 1.781
379.50 1.78
379.60 1.779
379.70 1.777
379.80 1.776
379.90 1.774
380.00 1.773
380.10 1.772
380.20 1.771
380.30 1.77
380.40 1.769
380.50 1.768
380.60 1.767
380.70 1.766
380.80 1.765
380.90 1.764
381.00 1.763
381.10 1.762
381.20 1.761
381.30 1.76
381.40 1.759
381.50 1.758
381.60 1.756
381.70 1.755
381.80 1.754
381.90 1.752
382.00 1.751
382.10 1.749
382.20 1.748
382.30 1.746
382.40 1.745
382.50 1.743
382.60 1.741
382.70 1.74
382.80 1.738
382.90 1.736
383.00 1.735
383.10 1.733
383.20 1.732
383.30 1.73
383.40 1.728
383.50 1.727
383.60 1.726
383.70 1.726
383.80 1.726
383.90 1.726
384.00 1.726
384.10 1.726
384.20 1.726
384.30 1.726
384.40 1.726
384.50 1.726
384.60 1.726
384.70 1.726
384.80 1.726
384.90 1.725
385.00 1.725
385.10 1.725
385.20 1.724
385.30 1.724
385.40 1.723
385.50 1.722
385.60 1.721
385.70 1.72
385.80 1.72
385.90 1.719
386.00 1.717
386.10 1.716
386.20 1.715
386.30 1.713
386.40 1.712
386.50 1.71
386.60 1.709
386.70 1.707
386.80 1.705
386.90 1.703
387.00 1.701
387.10 1.699
387.20 1.697
387.30 1.695
387.40 1.692
387.50 1.69
387.60 1.688
387.70 1.685
387.80 1.682
387.90 1.68
388.00 1.677
388.10 1.674
388.20 1.672
388.30 1.669
388.40 1.666
388.50 1.664
388.60 1.661
388.70 1.659
388.80 1.657
388.90 1.655
389.00 1.656
389.10 1.657
389.20 1.658
389.30 1.66
389.40 1.662
389.50 1.663
389.60 1.665
389.70 1.667
389.80 1.669
389.90 1.671
390.00 1.672
390.10 1.674
390.20 1.676
390.30 1.677
390.40 1.678
390.50 1.68
390.60 1.681
390.70 1.682
390.80 1.683
390.90 1.684
391.00 1.685
391.10 1.685
391.20 1.686
391.30 1.686
391.40 1.686
391.50 1.686
391.60 1.686
391.70 1.686
391.80 1.686
391.90 1.686
392.00 1.685
392.10 1.684
392.20 1.683
392.30 1.682
392.40 1.681
392.50 1.68
392.60 1.678
392.70 1.676
392.80 1.675
392.90 1.673
393.00 1.67
393.10 1.668
393.20 1.666
393.30 1.663
393.40 1.66
393.50 1.657
393.60 1.654
393.70 1.651
393.80 1.647
393.90 1.644
394.00 1.64
394.10 1.636
394.20 1.632
394.30 1.627
394.40 1.623
394.50 1.618
394.60 1.613
394.70 1.608
394.80 1.603
394.90 1.598
395.00 1.592
395.10 1.586
395.20 1.58
395.30 1.574
395.40 1.568
395.50 1.562
395.60 1.555
395.70 1.549
395.80 1.542
395.90 1.535
396.00 1.528
396.10 1.521
396.20 1.514
396.30 1.506
396.40 1.499
396.50 1.491
396.60 1.484
396.70 1.476
396.80 1.469
396.90 1.462
397.00 1.455
397.10 1.46
397.20 1.466
397.30 1.473
397.40 1.479
397.50 1.486
397.60 1.493
397.70 1.5
397.80 1.506
397.90 1.513
398.00 1.519
398.10 1.526
398.20 1.532
398.30 1.538
398.40 1.544
398.50 1.55
398.60 1.556
398.70 1.561
398.80 1.567
398.90 1.572
399.00 1.577
399.10 1.582
399.20 1.587
399.30 1.592
399.40 1.596
399.50 1.601
399.60 1.605
399.70 1.609
399.80 1.613
399.90 1.617
400.00 1.62
400.10 1.624
400.20 1.627
400.30 1.63
400.40 1.633
400.50 1.636
400.60 1.639
400.70 1.641
400.80 1.643
400.90 1.646
401.00 1.648
401.10 1.649
401.20 1.651
401.30 1.653
401.40 1.654
401.50 1.655
401.60 1.656
401.70 1.657
401.80 1.658
401.90 1.658
402.00 1.658
402.10 1.659
402.20 1.659
402.30 1.659
402.40 1.658
402.50 1.658
402.60 1.657
402.70 1.656
402.80 1.655
402.90 1.654
403.00 1.653
403.10 1.652
403.20 1.65
403.30 1.648
403.40 1.646
403.50 1.644
403.60 1.642
403.70 1.639
403.80 1.637
403.90 1.634
404.00 1.631
404.10 1.628
404.20 1.625
404.30 1.621
404.40 1.618
404.50 1.614
404.60 1.61
404.70 1.606
404.80 1.601
404.90 1.597
405.00 1.592
405.10 1.587
405.20 1.582
405.30 1.577
405.40 1.571
405.50 1.566
405.60 1.56
405.70 1.554
405.80 1.548
405.90 1.542
406.00 1.535
406.10 1.528
406.20 1.521
406.30 1.514
406.40 1.507
406.50 1.5
406.60 1.492
406.70 1.484
406.80 1.476
406.90 1.468
407.00 1.46
407.10 1.451
407.20 1.443
407.30 1.434
407.40 1.425
407.50 1.416
407.60 1.406
407.70 1.396
407.80 1.387
407.90 1.377
408.00 1.367
408.10 1.356
408.20 1.346
408.30 1.335
408.40 1.325
408.50 1.314
408.60 1.303
408.70 1.292
408.80 1.28
408.90 1.269
409.00 1.257
409.10 1.246
409.20 1.234
409.30 1.222
409.40 1.211
409.50 1.199
409.60 1.187
409.70 1.176
409.80 1.165
409.90 1.155
410.00 1.147
410.10 1.142
410.20 1.14
410.30 1.143
410.40 1.148
410.50 1.156
410.60 1.166
410.70 1.176
410.80 1.186
410.90 1.196
411.00 1.207
411.10 1.217
411.20 1.227
411.30 1.238
411.40 1.248
411.50 1.258
411.60 1.268
411.70 1.278
411.80 1.288
411.90 1.297
412.00 1.307
412.10 1.316
412.20 1.325
412.30 1.334
412.40 1.343
412.50 1.352
412.60 1.36
412.70 1.369
412.80 1.377
412.90 1.385
413.00 1.393
413.10 1.401
413.20 1.408
413.30 1.416
413.40 1.423
413.50 1.43
413.60 1.437
413.70 1.444
413.80 1.451
413.90 1.458
414.00 1.464
414.10 1.47
414.20 1.477
414.30 1.483
414.40 1.489
414.50 1.494
414.60 1.5
414.70 1.505
414.80 1.511
414.90 1.516
415.00 1.521
415.10 1.526
415.20 1.531
415.30 1.536
415.40 1.54
415.50 1.544
415.60 1.549
415.70 1.553
415.80 1.557
415.90 1.561
416.00 1.565
416.10 1.569
416.20 1.572
416.30 1.576
416.40 1.579
416.50 1.582
416.60 1.585
416.70 1.589
416.80 1.591
416.90 1.594
417.00 1.597
417.10 1.6
417.20 1.602
417.30 1.605
417.40 1.607
417.50 1.609
417.60 1.611
417.70 1.613
417.80 1.615
417.90 1.617
418.00 1.619
418.10 1.621
418.20 1.622
418.30 1.624
418.40 1.625
418.50 1.626
418.60 1.628
418.70 1.629
418.80 1.63
418.90 1.631
419.00 1.632
419.10 1.632
419.20 1.633
419.30 1.634
419.40 1.634
419.50 1.635
419.60 1.635
419.70 1.636
419.80 1.636
419.90 1.636
420.00 1.636
420.10 1.636
420.20 1.636
420.30 1.636
420.40 1.636
420.50 1.635
420.60 1.635
420.70 1.635
420.80 1.634
420.90 1.633
421.00 1.633
421.10 1.632
421.20 1.631
421.30 1.63
421.40 1.629
421.50 1.628
421.60 1.627
421.70 1.626
421.80 1.625
421.90 1.624
422.00 1.622
422.10 1.621
422.20 1.619
422.30 1.618
422.40 1.616
422.50 1.614
422.60 1.612
422.70 1.61
422.80 1.609
422.90 1.606
423.00 1.604
423.10 1.602
423.20 1.6
423.30 1.598
423.40 1.595
423.50 1.593
423.60 1.59
423.70 1.587
423.80 1.585
423.90 1.582
424.00 1.579
424.10 1.576
424.20 1.573
424.30 1.57
424.40 1.567
424.50 1.563
424.60 1.56
424.70 1.557
424.80 1.553
424.90 1.55
425.00 1.546
425.10 1.542
425.20 1.538
425.30 1.534
425.40 1.53
425.50 1.526
425.60 1.522
425.70 1.518
425.80 1.514
425.90 1.509
426.00 1.505
426.10 1.5
426.20 1.495
426.30 1.49
426.40 1.486
426.50 1.481
426.60 1.476
426.70 1.47
426.80 1.465
426.90 1.46
427.00 1.454
427.10 1.449
427.20 1.443
427.30 1.438
427.40 1.432
427.50 1.426
427.60 1.42
427.70 1.414
427.80 1.408
427.90 1.401
428.00 1.395
428.10 1.389
428.20 1.382
428.30 1.375
428.40 1.369
428.50 1.362
428.60 1.355
428.70 1.348
428.80 1.341
428.90 1.334
429.00 1.326
429.10 1.319
429.20 1.311
429.30 1.304
429.40 1.296
429.50 1.288
429.60 1.28
429.70 1.272
429.80 1.264
429.90 1.256
430.00 1.248
430.10 1.239
430.20 1.231
430.30 1.222
430.40 1.214
430.50 1.205
430.60 1.196
430.70 1.187
430.80 1.178
430.90 1.169
431.00 1.159
431.10 1.15
431.20 1.141
431.30 1.131
431.40 1.121
431.50 1.112
431.60 1.102
431.70 1.092
431.80 1.082
431.90 1.071
432.00 1.061
432.10 1.05
432.20 1.04
432.30 1.029
432.40 1.018
432.50 1.007
432.60 0.9956
432.70 0.9842
432.80 0.9726
432.90 0.9608
433.00 0.9488
433.10 0.9364
433.20 0.9237
433.30 0.9107
433.40 0.897
433.50 0.8827
433.60 0.8679
433.70 0.8512
433.80 0.8324
433.90 0.8115
434.00 0.7788
434.10 0.779
434.20 0.8121
434.30 0.8317
434.40 0.8493
434.50 0.8649
434.60 0.8786
434.70 0.8917
434.80 0.9043
434.90 0.9161
435.00 0.9276
435.10 0.9388
435.20 0.9496
435.30 0.9602
435.40 0.9706
435.50 0.9807
435.60 0.9906
435.70 1
435.80 1.01
435.90 1.019
436.00 1.029
436.10 1.038
436.20 1.047
436.30 1.055
436.40 1.064
436.50 1.073
436.60 1.081
436.70 1.089
436.80 1.097
436.90 1.106
437.00 1.113
437.10 1.121
437.20 1.129
437.30 1.136
437.40 1.144
437.50 1.151
437.60 1.158
437.70 1.166
437.80 1.173
437.90 1.18
438.00 1.186
438.10 1.193
438.20 1.2
438.30 1.206
438.40 1.213
438.50 1.219
438.60 1.225
438.70 1.231
438.80 1.237
438.90 1.243
439.00 1.249
439.10 1.255
439.20 1.26
439.30 1.266
439.40 1.271
439.50 1.277
439.60 1.282
439.70 1.287
439.80 1.292
439.90 1.297
440.00 1.302
440.10 1.307
440.20 1.311
440.30 1.316
440.40 1.321
440.50 1.325
440.60 1.329
440.70 1.334
440.80 1.338
440.90 1.342
441.00 1.346
441.10 1.35
441.20 1.354
441.30 1.358
441.40 1.361
441.50 1.365
441.60 1.368
441.70 1.372
441.80 1.375
441.90 1.378
442.00 1.382
442.10 1.385
442.20 1.388
442.30 1.391
442.40 1.394
442.50 1.397
442.60 1.4
442.70 1.402
442.80 1.405
442.90 1.407
443.00 1.41
443.10 1.412
443.20 1.415
443.30 1.417
443.40 1.419
443.50 1.422
443.60 1.424
443.70 1.426
443.80 1.428
443.90 1.43
444.00 1.432
444.10 1.434
444.20 1.436
444.30 1.437
444.40 1.439
444.50 1.441
444.60 1.442
444.70 1.444
444.80 1.445
444.90 1.447
445.00 1.448
445.10 1.45
445.20 1.451
445.30 1.452
445.40 1.453
445.50 1.455
445.60 1.456
445.70 1.457
445.80 1.458
445.90 1.459
446.00 1.46
446.10 1.461
446.20 1.462
446.30 1.463
446.40 1.463
446.50 1.464
446.60 1.465
446.70 1.466
446.80 1.466
446.90 1.467
447.00 1.468
447.10 1.468
447.20 1.469
447.30 1.469
447.40 1.47
447.50 1.47
447.60 1.471
447.70 1.471
447.80 1.471
447.90 1.472
448.00 1.472
448.10 1.472
448.20 1.473
448.30 1.473
448.40 1.473
448.50 1.473
448.60 1.473
448.70 1.474
448.80 1.474
448.90 1.474
449.00 1.474
449.10 1.474
449.20 1.474
449.30 1.474
449.40 1.474
449.50 1.474
449.60 1.474
449.70 1.474
449.80 1.473
449.90 1.473
450.00 1.473
450.10 1.473
450.20 1.473
450.30 1.473
450.40 1.472
450.50 1.472
450.60 1.472
450.70 1.472
450.80 1.471
450.90 1.471
451.00 1.471
451.10 1.47
451.20 1.47
451.30 1.47
451.40 1.469
451.50 1.469
451.60 1.468
451.70 1.468
451.80 1.467
451.90 1.467
452.00 1.466
452.10 1.466
452.20 1.465
452.30 1.465
452.40 1.464
452.50 1.464
452.60 1.463
452.70 1.463
452.80 1.462
452.90 1.461
453.00 1.461
453.10 1.46
453.20 1.46
453.30 1.459
453.40 1.458
453.50 1.458
453.60 1.457
453.70 1.456
453.80 1.455
453.90 1.455
454.00 1.454
454.10 1.453
454.20 1.453
454.30 1.452
454.40 1.451
454.50 1.45
454.60 1.45
454.70 1.449
454.80 1.448
454.90 1.447
455.00 1.446
455.10 1.445
455.20 1.445
455.30 1.444
455.40 1.443
455.50 1.442
455.60 1.441
455.70 1.44
455.80 1.439
455.90 1.439
456.00 1.438
456.10 1.437
456.20 1.436
456.30 1.435
456.40 1.434
456.50 1.433
456.60 1.432
456.70 1.431
456.80 1.43
456.90 1.429
457.00 1.428
457.10 1.427
457.20 1.426
457.30 1.425
457.40 1.424
457.50 1.423
457.60 1.422
457.70 1.421
457.80 1.42
457.90 1.419
458.00 1.418
458.10 1.417
458.20 1.416
458.30 1.415
458.40 1.414
458.50 1.413
458.60 1.412
458.70 1.411
458.80 1.409
458.90 1.408
459.00 1.407
459.10 1.406
459.20 1.405
459.30 1.404
459.40 1.403
459.50 1.402
459.60 1.401
459.70 1.399
459.80 1.398
459.90 1.397
460.00 1.396
460.10 1.395
460.20 1.394
460.30 1.392
460.40 1.391
460.50 1.39
460.60 1.389
460.70 1.388
460.80 1.386
460.90 1.385
461.00 1.384
461.10 1.383
461.20 1.381
461.30 1.38
461.40 1.379
461.50 1.378
461.60 1.376
461.70 1.375
461.80 1.374
461.90 1.373
462.00 1.371
462.10 1.37
462.20 1.369
462.30 1.367
462.40 1.366
462.50 1.365
462.60 1.363
462.70 1.362
462.80 1.361
462.90 1.359
463.00 1.358
463.10 1.357
463.20 1.355
463.30 1.354
463.40 1.353
463.50 1.351
463.60 1.35
463.70 1.348
463.80 1.347
463.90 1.346
464.00 1.344
464.10 1.343
464.20 1.341
464.30 1.34
464.40 1.339
464.50 1.337
464.60 1.336
464.70 1.334
464.80 1.333
464.90 1.331
465.00 1.33
465.10 1.328
465.20 1.327
465.30 1.325
465.40 1.324
465.50 1.322
465.60 1.321
465.70 1.319
465.80 1.318
465.90 1.316
466.00 1.315
466.10 1.313
466.20 1.312
466.30 1.31
466.40 1.308
466.50 1.307
466.60 1.305
466.70 1.304
466.80 1.302
466.90 1.3
467.00 1.299
467.10 1.297
467.20 1.296
467.30 1.294
467.40 1.292
467.50 1.29
467.60 1.289
467.70 1.287
467.80 1.285
467.90 1.284
468.00 1.282
468.10 1.28
468.20 1.279
468.30 1.277
468.40 1.275
468.50 1.273
468.60 1.271
468.70 1.27
468.80 1.268
468.90 1.266
469.00 1.264
469.10 1.262
469.20 1.261
469.30 1.259
469.40 1.257
469.50 1.255
469.60 1.253
469.70 1.251
469.80 1.249
469.90 1.247
470.00 1.245
470.10 1.243
470.20 1.241
470.30 1.239
470.40 1.237
470.50 1.235
470.60 1.233
470.70 1.231
470.80 1.229
470.90 1.227
471.00 1.225
471.10 1.223
471.20 1.221
471.30 1.219
471.40 1.217
471.50 1.215
471.60 1.212
471.70 1.21
471.80 1.208
471.90 1.206
472.00 1.204
472.10 1.202
472.20 1.199
472.30 1.197
472.40 1.195
472.50 1.192
472.60 1.19
472.70 1.188
472.80 1.185
472.90 1.183
473.00 1.181
473.10 1.178
473.20 1.176
473.30 1.173
473.40 1.171
473.50 1.168
473.60 1.166
473.70 1.163
473.80 1.161
473.90 1.158
474.00 1.156
474.10 1.153
474.20 1.15
474.30 1.148
474.40 1.145
474.50 1.142
474.60 1.139
474.70 1.137
474.80 1.134
474.90 1.131
475.00 1.129
475.10 1.126
475.20 1.123
475.30 1.12
475.40 1.117
475.50 1.114
475.60 1.111
475.70 1.108
475.80 1.105
475.90 1.102
476.00 1.099
476.10 1.096
476.20 1.093
476.30 1.09
476.40 1.086
476.50 1.083
476.60 1.08
476.70 1.077
476.80 1.073
476.90 1.07
477.00 1.067
477.10 1.064
477.20 1.06
477.30 1.057
477.40 1.053
477.50 1.05
477.60 1.046
477.70 1.043
477.80 1.039
477.90 1.035
478.00 1.032
478.10 1.028
478.20 1.025
478.30 1.021
478.40 1.017
478.50 1.013
478.60 1.009
478.70 1.005
478.80 1.001
478.90 0.9974
479.00 0.9936
479.10 0.9897
479.20 0.9856
479.30 0.9813
479.40 0.9771
479.50 0.9728
479.60 0.9686
479.70 0.9643
479.80 0.9601
479.90 0.9558
480.00 0.9516
480.10 0.9474
480.20 0.9428
480.30 0.9382
480.40 0.9335
480.50 0.9289
480.60 0.9242
480.70 0.9196
480.80 0.9149
480.90 0.9103
481.00 0.9057
481.10 0.9011
481.20 0.8961
481.30 0.891
481.40 0.8859
481.50 0.8808
481.60 0.8757
481.70 0.8706
481.80 0.8655
481.90 0.8605
482.00 0.8554
482.10 0.8503
482.20 0.8449
482.30 0.8392
482.40 0.8336
482.50 0.828
482.60 0.8224
482.70 0.8168
482.80 0.8112
482.90 0.8056
483.00 0.8001
483.10 0.7945
483.20 0.7884
483.30 0.7821
483.40 0.7758
483.50 0.7696
483.60 0.7633
483.70 0.757
483.80 0.7508
483.90 0.7445
484.00 0.7383
484.10 0.732
484.20 0.7252
484.30 0.7182
484.40 0.7111
484.50 0.7041
484.60 0.6971
484.70 0.6893
484.80 0.6813
484.90 0.6733
485.00 0.6653
485.10 0.6573
485.20 0.6484
485.30 0.639
485.40 0.6288
485.50 0.618
485.60 0.6055
485.70 0.5922
485.80 0.5749
485.90 0.5557
486.00 0.5312
486.10 0.5105
486.20 0.5122
486.30 0.54
486.40 0.5606
486.50 0.5792
486.60 0.5939
486.70 0.6066
486.80 0.6175
486.90 0.6275
487.00 0.6365
487.10 0.645
487.20 0.6526
487.30 0.6598
487.40 0.667
487.50 0.6742
487.60 0.6814
487.70 0.6879
487.80 0.694
487.90 0.7001
488.00 0.7062
488.10 0.7123
488.20 0.7179
488.30 0.7231
488.40 0.7284
488.50 0.7336
488.60 0.7389
488.70 0.7441
488.80 0.7493
488.90 0.7546
489.00 0.7598
489.10 0.765
489.20 0.7697
489.30 0.7742
489.40 0.7786
489.50 0.7831
489.60 0.7875
489.70 0.7919
489.80 0.7964
489.90 0.8008
490.00 0.8052
490.10 0.8096
490.20 0.8136
490.30 0.8175
490.40 0.8213
490.50 0.8251
490.60 0.8289
490.70 0.8327
490.80 0.8365
490.90 0.8403
491.00 0.8441
491.10 0.8479
491.20 0.8513
491.30 0.8546
491.40 0.8578
491.50 0.8611
491.60 0.8643
491.70 0.8676
491.80 0.8708
491.90 0.8741
492.00 0.8773
492.10 0.8806
492.20 0.8835
492.30 0.8862
492.40 0.889
492.50 0.8917
492.60 0.8945
492.70 0.8972
492.80 0.9
492.90 0.9027
493.00 0.9055
493.10 0.9082
493.20 0.9107
493.30 0.913
493.40 0.9153
493.50 0.9176
493.60 0.9199
493.70 0.9222
493.80 0.9245
493.90 0.9268
494.00 0.9291
494.10 0.9314
494.20 0.9334
494.30 0.9353
494.40 0.9372
494.50 0.9391
494.60 0.941
494.70 0.9429
494.80 0.9448
494.90 0.9467
495.00 0.9486
495.10 0.9505
495.20 0.9522
495.30 0.9537
495.40 0.9553
495.50 0.9568
495.60 0.9584
495.70 0.9599
495.80 0.9615
495.90 0.963
496.00 0.9645
496.10 0.9661
496.20 0.9674
496.30 0.9686
496.40 0.9699
496.50 0.9711
496.60 0.9723
496.70 0.9735
496.80 0.9748
496.90 0.976
497.00 0.9772
497.10 0.9784
497.20 0.9795
497.30 0.9804
497.40 0.9814
497.50 0.9824
497.60 0.9833
497.70 0.9843
497.80 0.9852
497.90 0.9862
498.00 0.9871
498.10 0.9881
498.20 0.9889
498.30 0.9896
498.40 0.9903
498.50 0.991
498.60 0.9917
498.70 0.9925
498.80 0.9932
498.90 0.9939
499.00 0.9946
499.10 0.9953
499.20 0.9959
499.30 0.9964
499.40 0.9969
499.50 0.9974
499.60 0.998
499.70 0.9985
499.80 0.999
499.90 0.9995
500.00 1
500.10 1.001
500.20 1.001
500.30 1.001
500.40 1.002
500.50 1.002
500.60 1.002
500.70 1.003
500.80 1.003
500.90 1.003
501.00 1.004
501.10 1.004
501.20 1.004
501.30 1.004
501.40 1.005
501.50 1.005
501.60 1.005
501.70 1.005
501.80 1.005
501.90 1.006
502.00 1.006
502.10 1.006
502.20 1.006
502.30 1.006
502.40 1.006
502.50 1.006
502.60 1.006
502.70 1.006
502.80 1.006
502.90 1.006
503.00 1.007
503.10 1.007
503.20 1.007
503.30 1.007
503.40 1.007
503.50 1.007
503.60 1.006
503.70 1.006
503.80 1.006
503.90 1.006
504.00 1.006
504.10 1.006
504.20 1.006
504.30 1.006
504.40 1.006
504.50 1.006
504.60 1.006
504.70 1.006
504.80 1.005
504.90 1.005
505.00 1.005
505.10 1.005
505.20 1.005
505.30 1.005
505.40 1.004
505.50 1.004
505.60 1.004
505.70 1.004
505.80 1.004
505.90 1.003
506.00 1.003
506.10 1.003
506.20 1.003
506.30 1.002
506.40 1.002
506.50 1.002
506.60 1.002
506.70 1.001
506.80 1.001
506.90 1.001
507.00 1.001
507.10 1
507.20 1
507.30 0.9997
507.40 0.9994
507.50 0.9991
507.60 0.9988
507.70 0.9984
507.80 0.9981
507.90 0.9978
508.00 0.9975
508.10 0.9972
508.20 0.9968
508.30 0.9964
508.40 0.9961
508.50 0.9957
508.60 0.9953
508.70 0.995
508.80 0.9946
508.90 0.9942
509.00 0.9939
509.10 0.9935
509.20 0.9931
509.30 0.9927
509.40 0.9923
509.50 0.9919
509.60 0.9915
509.70 0.9911
509.80 0.9907
509.90 0.9903
510.00 0.9899
510.10 0.9895
510.20 0.9891
510.30 0.9886
510.40 0.9882
510.50 0.9878
510.60 0.9873
510.70 0.9869
510.80 0.9865
510.90 0.986
511.00 0.9856
511.10 0.9852
511.20 0.9847
511.30 0.9842
511.40 0.9838
511.50 0.9833
511.60 0.9829
511.70 0.9824
511.80 0.9819
511.90 0.9815
512.00 0.981
512.10 0.9805
512.20 0.9801
512.30 0.9796
512.40 0.9791
512.50 0.9786
512.60 0.9781
512.70 0.9777
512.80 0.9772
512.90 0.9767
513.00 0.9762
513.10 0.9757
513.20 0.9752
513.30 0.9747
513.40 0.9742
513.50 0.9737
513.60 0.9732
513.70 0.9727
513.80 0.9722
513.90 0.9717
514.00 0.9712
514.10 0.9707
514.20 0.9702
514.30 0.9697
514.40 0.9692
514.50 0.9687
514.60 0.9681
514.70 0.9676
514.80 0.9671
514.90 0.9666
515.00 0.9661
515.10 0.9656
515.20 0.965
515.30 0.9645
515.40 0.964
515.50 0.9634
515.60 0.9629
515.70 0.9624
515.80 0.9619
515.90 0.9613
516.00 0.9608
516.10 0.9603
516.20 0.9597
516.30 0.9592
516.40 0.9587
516.50 0.9581
516.60 0.9576
516.70 0.957
516.80 0.9565
516.90 0.956
517.00 0.9554
517.10 0.9549
517.20 0.9543
517.30 0.9538
517.40 0.9532
517.50 0.9527
517.60 0.9521
517.70 0.9516
517.80 0.9511
517.90 0.9505
518.00 0.95
518.10 0.9494
518.20 0.9489
518.30 0.9483
518.40 0.9478
518.50 0.9472
518.60 0.9466
518.70 0.9461
518.80 0.9455
518.90 0.945
519.00 0.9444
519.10 0.9439
519.20 0.9433
519.30 0.9428
519.40 0.9422
519.50 0.9416
519.60 0.9411
519.70 0.9405
519.80 0.94
519.90 0.9394
520.00 0.9388
520.10 0.9383
520.20 0.9377
520.30 0.9372
520.40 0.9366
520.50 0.936
520.60 0.9355
520.70 0.9349
520.80 0.9343
520.90 0.9338
521.00 0.9332
521.10 0.9327
521.20 0.9321
521.30 0.9315
521.40 0.931
521.50 0.9304
521.60 0.9298
521.70 0.9293
521.80 0.9287
521.90 0.9281
522.00 0.9276
522.10 0.927
522.20 0.9264
522.30 0.9259
522.40 0.9253
522.50 0.9247
522.60 0.9242
522.70 0.9236
522.80 0.923
522.90 0.9225
523.00 0.9219
523.10 0.9213
523.20 0.9208
523.30 0.9202
523.40 0.9196
523.50 0.9191
523.60 0.9185
523.70 0.9179
523.80 0.9173
523.90 0.9168
524.00 0.9162
524.10 0.9156
524.20 0.9151
524.30 0.9145
524.40 0.9139
524.50 0.9134
524.60 0.9128
524.70 0.9122
524.80 0.9117
524.90 0.9111
525.00 0.9105
525.10 0.9099
525.20 0.9094
525.30 0.9088
525.40 0.9082
525.50 0.9077
525.60 0.9071
525.70 0.9065
525.80 0.906
525.90 0.9054
526.00 0.9048
526.10 0.9042
526.20 0.9037
526.30 0.9031
526.40 0.9025
526.50 0.902
526.60 0.9014
526.70 0.9008
526.80 0.9003
526.90 0.8997
527.00 0.8991
527.10 0.8986
527.20 0.898
527.30 0.8974
527.40 0.8969
527.50 0.8963
527.60 0.8957
527.70 0.8952
527.80 0.8946
527.90 0.894
528.00 0.8934
528.10 0.8929
528.20 0.8923
528.30 0.8917
528.40 0.8912
528.50 0.8906
528.60 0.89
528.70 0.8895
528.80 0.8889
528.90 0.8883
529.00 0.8878
529.10 0.8872
529.20 0.8867
529.30 0.8861
529.40 0.8855
529.50 0.885
529.60 0.8844
529.70 0.8838
529.80 0.8833
529.90 0.8827
530.00 0.8821
530.10 0.8816
530.20 0.881
530.30 0.8804
530.40 0.8799
530.50 0.8793
530.60 0.8788
530.70 0.8782
530.80 0.8776
530.90 0.8771
531.00 0.8765
531.10 0.8759
531.20 0.8754
531.30 0.8748
531.40 0.8743
531.50 0.8737
531.60 0.8731
531.70 0.8726
531.80 0.872
531.90 0.8715
532.00 0.8709
532.10 0.8703
532.20 0.8698
532.30 0.8692
532.40 0.8687
532.50 0.8681
532.60 0.8675
532.70 0.867
532.80 0.8664
532.90 0.8659
533.00 0.8653
533.10 0.8648
533.20 0.8642
533.30 0.8636
533.40 0.8631
533.50 0.8625
533.60 0.862
533.70 0.8614
533.80 0.8609
533.90 0.8603
534.00 0.8598
534.10 0.8592
534.20 0.8587
534.30 0.8581
534.40 0.8575
534.50 0.857
534.60 0.8564
534.70 0.8559
534.80 0.8553
534.90 0.8548
535.00 0.8542
535.10 0.8537
535.20 0.8531
535.30 0.8526
535.40 0.852
535.50 0.8515
535.60 0.8509
535.70 0.8504
535.80 0.8498
535.90 0.8493
536.00 0.8487
536.10 0.8482
536.20 0.8476
536.30 0.8471
536.40 0.8465
536.50 0.846
536.60 0.8455
536.70 0.8449
536.80 0.8444
536.90 0.8438
537.00 0.8433
537.10 0.8427
537.20 0.8422
537.30 0.8416
537.40 0.8411
537.50 0.8405
537.60 0.84
537.70 0.8395
537.80 0.8389
537.90 0.8384
538.00 0.8378
538.10 0.8373
538.20 0.8367
538.30 0.8362
538.40 0.8357
538.50 0.8351
538.60 0.8346
538.70 0.834
538.80 0.8335
538.90 0.833
539.00 0.8324
539.10 0.8319
539.20 0.8314
539.30 0.8308
539.40 0.8303
539.50 0.8297
539.60 0.8292
539.70 0.8287
539.80 0.8281
539.90 0.8276
540.00 0.8271
540.10 0.8265
540.20 0.826
540.30 0.8255
540.40 0.8249
540.50 0.8244
540.60 0.8239
540.70 0.8233
540.80 0.8228
540.90 0.8223
541.00 0.8217
541.10 0.8212
541.20 0.8207
541.30 0.8201
541.40 0.8196
541.50 0.8191
541.60 0.8185
541.70 0.818
541.80 0.8175
541.90 0.8169
542.00 0.8164
542.10 0.8159
542.20 0.8154
542.30 0.8148
542.40 0.8143
542.50 0.8138
542.60 0.8133
542.70 0.8127
542.80 0.8122
542.90 0.8117
543.00 0.8112
543.10 0.8106
543.20 0.8101
543.30 0.8096
543.40 0.8091
543.50 0.8085
543.60 0.808
543.70 0.8075
543.80 0.807
543.90 0.8064
544.00 0.8059
544.10 0.8054
544.20 0.8049
544.30 0.8044
544.40 0.8038
544.50 0.8033
544.60 0.8028
544.70 0.8023
544.80 0.8018
544.90 0.8012
545.00 0.8007
545.10 0.8002
545.20 0.7997
545.30 0.7992
545.40 0.7987
545.50 0.7981
545.60 0.7976
545.70 0.7971
545.80 0.7966
545.90 0.7961
546.00 0.7956
546.10 0.795
546.20 0.7945
546.30 0.794
546.40 0.7935
546.50 0.793
546.60 0.7925
546.70 0.792
546.80 0.7915
546.90 0.7909
547.00 0.7904
547.10 0.7899
547.20 0.7894
547.30 0.7889
547.40 0.7884
547.50 0.7879
547.60 0.7874
547.70 0.7869
547.80 0.7864
547.90 0.7859
548.00 0.7853
548.10 0.7848
548.20 0.7843
548.30 0.7838
548.40 0.7833
548.50 0.7828
548.60 0.7823
548.70 0.7818
548.80 0.7813
548.90 0.7808
549.00 0.7803
549.10 0.7798
549.20 0.7793
549.30 0.7788
549.40 0.7783
549.50 0.7778
549.60 0.7773
549.70 0.7768
549.80 0.7763
549.90 0.7758
550.00 0.7753
550.10 0.7748
550.20 0.7743
550.30 0.7738
550.40 0.7733
550.50 0.7728
550.60 0.7723
550.70 0.7718
550.80 0.7713
550.90 0.7708
551.00 0.7703
551.10 0.7698
551.20 0.7693
551.30 0.7688
551.40 0.7683
551.50 0.7678
551.60 0.7673
551.70 0.7668
551.80 0.7663
551.90 0.7658
552.00 0.7653
552.10 0.7649
552.20 0.7644
552.30 0.7639
552.40 0.7634
552.50 0.7629
552.60 0.7624
552.70 0.7619
552.80 0.7614
552.90 0.7609
553.00 0.7604
553.10 0.7599
553.20 0.7595
553.30 0.759
553.40 0.7585
553.50 0.758
553.60 0.7575
553.70 0.757
553.80 0.7565
553.90 0.756
554.00 0.7556
554.10 0.7551
554.20 0.7546
554.30 0.7541
554.40 0.7536
554.50 0.7531
554.60 0.7527
554.70 0.7522
554.80 0.7517
554.90 0.7512
555.00 0.7507
555.10 0.7502
555.20 0.7498
555.30 0.7493
555.40 0.7488
555.50 0.7483
555.60 0.7478
555.70 0.7474
555.80 0.7469
555.90 0.7464
556.00 0.7459
556.10 0.7454
556.20 0.745
556.30 0.7445
556.40 0.744
556.50 0.7435
556.60 0.7431
556.70 0.7426
556.80 0.7421
556.90 0.7416
557.00 0.7411
557.10 0.7407
557.20 0.7402
557.30 0.7397
557.40 0.7393
557.50 0.7388
557.60 0.7383
557.70 0.7378
557.80 0.7374
557.90 0.7369
558.00 0.7364
558.10 0.7359
558.20 0.7355
558.30 0.735
558.40 0.7345
558.50 0.7341
558.60 0.7336
558.70 0.7331
558.80 0.7327
558.90 0.7322
559.00 0.7317
559.10 0.7312
559.20 0.7308
559.30 0.7303
559.40 0.7298
559.50 0.7294
559.60 0.7289
559.70 0.7284
559.80 0.728
559.90 0.7275
560.00 0.7271
560.10 0.7266
560.20 0.7261
560.30 0.7257
560.40 0.7252
560.50 0.7247
560.60 0.7243
560.70 0.7238
560.80 0.7233
560.90 0.7229
561.00 0.7224
561.10 0.722
561.20 0.7215
561.30 0.721
561.40 0.7206
561.50 0.7201
561.60 0.7197
561.70 0.7192
561.80 0.7187
561.90 0.7183
562.00 0.7178
562.10 0.7174
562.20 0.7169
562.30 0.7165
562.40 0.716
562.50 0.7155
562.60 0.7151
562.70 0.7146
562.80 0.7142
562.90 0.7137
563.00 0.7133
563.10 0.7128
563.20 0.7124
563.30 0.7119
563.40 0.7115
563.50 0.711
563.60 0.7106
563.70 0.7101
563.80 0.7096
563.90 0.7092
564.00 0.7087
564.10 0.7083
564.20 0.7078
564.30 0.7074
564.40 0.7069
564.50 0.7065
564.60 0.706
564.70 0.7056
564.80 0.7051
564.90 0.7047
565.00 0.7043
565.10 0.7038
565.20 0.7034
565.30 0.7029
565.40 0.7025
565.50 0.702
565.60 0.7016
565.70 0.7011
565.80 0.7007
565.90 0.7002
566.00 0.6998
566.10 0.6994
566.20 0.6989
566.30 0.6985
566.40 0.698
566.50 0.6976
566.60 0.6971
566.70 0.6967
566.80 0.6962
566.90 0.6958
567.00 0.6954
567.10 0.6949
567.20 0.6945
567.30 0.694
567.40 0.6936
567.50 0.6932
567.60 0.6927
567.70 0.6923
567.80 0.6918
567.90 0.6914
568.00 0.691
568.10 0.6905
568.20 0.6901
568.30 0.6897
568.40 0.6892
568.50 0.6888
568.60 0.6884
568.70 0.6879
568.80 0.6875
568.90 0.687
569.00 0.6866
569.10 0.6862
569.20 0.6857
569.30 0.6853
569.40 0.6849
569.50 0.6844
569.60 0.684
569.70 0.6836
569.80 0.6831
569.90 0.6827
570.00 0.6823
570.10 0.6819
570.20 0.6814
570.30 0.681
570.40 0.6806
570.50 0.6801
570.60 0.6797
570.70 0.6793
570.80 0.6788
570.90 0.6784
571.00 0.678
571.10 0.6776
571.20 0.6771
571.30 0.6767
571.40 0.6763
571.50 0.6758
571.60 0.6754
571.70 0.675
571.80 0.6746
571.90 0.6741
572.00 0.6737
572.10 0.6733
572.20 0.6729
572.30 0.6724
572.40 0.672
572.50 0.6716
572.60 0.6712
572.70 0.6708
572.80 0.6703
572.90 0.6699
573.00 0.6695
573.10 0.6691
573.20 0.6686
573.30 0.6682
573.40 0.6678
573.50 0.6674
573.60 0.667
573.70 0.6665
573.80 0.6661
573.90 0.6657
574.00 0.6653
574.10 0.6649
574.20 0.6644
574.30 0.664
574.40 0.6636
574.50 0.6632
574.60 0.6628
574.70 0.6624
574.80 0.6619
574.90 0.6615
575.00 0.6611
575.10 0.6607
575.20 0.6603
575.30 0.6599
575.40 0.6595
575.50 0.659
575.60 0.6586
575.70 0.6582
575.80 0.6578
575.90 0.6574
576.00 0.657
576.10 0.6566
576.20 0.6561
576.30 0.6557
576.40 0.6553
576.50 0.6549
576.60 0.6545
576.70 0.6541
576.80 0.6537
576.90 0.6533
577.00 0.6529
577.10 0.6524
577.20 0.652
577.30 0.6516
577.40 0.6512
577.50 0.6508
577.60 0.6504
577.70 0.65
577.80 0.6496
577.90 0.6492
578.00 0.6488
578.10 0.6484
578.20 0.648
578.30 0.6476
578.40 0.6472
578.50 0.6467
578.60 0.6463
578.70 0.6459
578.80 0.6455
578.90 0.6451
579.00 0.6447
579.10 0.6443
579.20 0.6439
579.30 0.6435
579.40 0.6431
579.50 0.6427
579.60 0.6423
579.70 0.6419
579.80 0.6415
579.90 0.6411
580.00 0.6407
580.10 0.6403
580.20 0.6399
580.30 0.6395
580.40 0.6391
580.50 0.6387
580.60 0.6383
580.70 0.6379
580.80 0.6375
580.90 0.6371
581.00 0.6367
581.10 0.6363
581.20 0.6359
581.30 0.6355
581.40 0.6351
581.50 0.6347
581.60 0.6343
581.70 0.6339
581.80 0.6335
581.90 0.6331
582.00 0.6327
582.10 0.6324
582.20 0.632
582.30 0.6316
582.40 0.6312
582.50 0.6308
582.60 0.6304
582.70 0.63
582.80 0.6296
582.90 0.6292
583.00 0.6288
583.10 0.6284
583.20 0.628
583.30 0.6276
583.40 0.6272
583.50 0.6269
583.60 0.6265
583.70 0.6261
583.80 0.6257
583.90 0.6253
584.00 0.6249
584.10 0.6245
584.20 0.6241
584.30 0.6237
584.40 0.6233
584.50 0.623
584.60 0.6226
584.70 0.6222
584.80 0.6218
584.90 0.6214
585.00 0.621
585.10 0.6206
585.20 0.6202
585.30 0.6199
585.40 0.6195
585.50 0.6191
585.60 0.6187
585.70 0.6183
585.80 0.6179
585.90 0.6175
586.00 0.6172
586.10 0.6168
586.20 0.6164
586.30 0.616
586.40 0.6156
586.50 0.6152
586.60 0.6149
586.70 0.6145
586.80 0.6141
586.90 0.6137
587.00 0.6133
587.10 0.613
587.20 0.6126
587.30 0.6122
587.40 0.6118
587.50 0.6114
587.60 0.6111
587.70 0.6107
587.80 0.6103
587.90 0.6099
588.00 0.6095
588.10 0.6092
588.20 0.6088
588.30 0.6084
588.40 0.608
588.50 0.6076
588.60 0.6073
588.70 0.6069
588.80 0.6065
588.90 0.6061
589.00 0.6058
589.10 0.6054
589.20 0.605
589.30 0.6046
589.40 0.6043
589.50 0.6039
589.60 0.6035
589.70 0.6031
589.80 0.6028
589.90 0.6024
590.00 0.602
590.10 0.6016
590.20 0.6013
590.30 0.6009
590.40 0.6005
590.50 0.6001
590.60 0.5998
590.70 0.5994
590.80 0.599
590.90 0.5987
591.00 0.5983
591.10 0.5979
591.20 0.5975
591.30 0.5972
591.40 0.5968
591.50 0.5964
591.60 0.5961
591.70 0.5957
591.80 0.5953
591.90 0.595
592.00 0.5946
592.10 0.5942
592.20 0.5938
592.30 0.5935
592.40 0.5931
592.50 0.5927
592.60 0.5924
592.70 0.592
592.80 0.5916
592.90 0.5913
593.00 0.5909
593.10 0.5905
593.20 0.5902
593.30 0.5898
593.40 0.5894
593.50 0.5891
593.60 0.5887
593.70 0.5883
593.80 0.588
593.90 0.5876
594.00 0.5873
594.10 0.5869
594.20 0.5865
594.30 0.5862
594.40 0.5858
594.50 0.5854
594.60 0.5851
594.70 0.5847
594.80 0.5844
594.90 0.584
595.00 0.5836
595.10 0.5833
595.20 0.5829
595.30 0.5825
595.40 0.5822
595.50 0.5818
595.60 0.5815
595.70 0.5811
595.80 0.5807
595.90 0.5804
596.00 0.58
596.10 0.5797
596.20 0.5793
596.30 0.5789
596.40 0.5786
596.50 0.5782
596.60 0.5779
596.70 0.5775
596.80 0.5772
596.90 0.5768
597.00 0.5764
597.10 0.5761
597.20 0.5757
597.30 0.5754
597.40 0.575
597.50 0.5747
597.60 0.5743
597.70 0.5739
597.80 0.5736
597.90 0.5732
598.00 0.5729
598.10 0.5725
598.20 0.5722
598.30 0.5718
598.40 0.5715
598.50 0.5711
598.60 0.5708
598.70 0.5704
598.80 0.5701
598.90 0.5697
599.00 0.5693
599.10 0.569
599.20 0.5686
599.30 0.5683
599.40 0.5679
599.50 0.5676
599.60 0.5672
599.70 0.5669
599.80 0.5665
599.90 0.5662
600.00 0.5658
600.10 0.5655
600.20 0.5651
600.30 0.5648
600.40 0.5644
600.50 0.5641
600.60 0.5637
600.70 0.5634
600.80 0.563
600.90 0.5627
601.00 0.5623
601.10 0.562
601.20 0.5616
601.30 0.5613
601.40 0.5609
601.50 0.5606
601.60 0.5602
601.70 0.5599
601.80 0.5595
601.90 0.5592
602.00 0.5589
602.10 0.5585
602.20 0.5582
602.30 0.5578
602.40 0.5575
602.50 0.5571
602.60 0.5568
602.70 0.5564
602.80 0.5561
602.90 0.5557
603.00 0.5554
603.10 0.5551
603.20 0.5547
603.30 0.5544
603.40 0.554
603.50 0.5537
603.60 0.5533
603.70 0.553
603.80 0.5526
603.90 0.5523
604.00 0.552
604.10 0.5516
604.20 0.5513
604.30 0.5509
604.40 0.5506
604.50 0.5502
604.60 0.5499
604.70 0.5496
604.80 0.5492
604.90 0.5489
605.00 0.5485
605.10 0.5482
605.20 0.5479
605.30 0.5475
605.40 0.5472
605.50 0.5468
605.60 0.5465
605.70 0.5462
605.80 0.5458
605.90 0.5455
606.00 0.5451
606.10 0.5448
606.20 0.5445
606.30 0.5441
606.40 0.5438
606.50 0.5434
606.60 0.5431
606.70 0.5428
606.80 0.5424
606.90 0.5421
607.00 0.5417
607.10 0.5414
607.20 0.5411
607.30 0.5407
607.40 0.5404
607.50 0.5401
607.60 0.5397
607.70 0.5394
607.80 0.5391
607.90 0.5387
608.00 0.5384
608.10 0.538
608.20 0.5377
608.30 0.5374
608.40 0.537
608.50 0.5367
608.60 0.5364
608.70 0.536
608.80 0.5357
608.90 0.5354
609.00 0.535
609.10 0.5347
609.20 0.5343
609.30 0.534
609.40 0.5337
609.50 0.5333
609.60 0.533
609.70 0.5327
609.80 0.5323
609.90 0.532
610.00 0.5317
610.10 0.5313
610.20 0.531
610.30 0.5307
610.40 0.5303
610.50 0.53
610.60 0.5297
610.70 0.5293
610.80 0.529
610.90 0.5287
611.00 0.5283
611.10 0.528
611.20 0.5277
611.30 0.5273
611.40 0.527
611.50 0.5267
611.60 0.5264
611.70 0.526
611.80 0.5257
611.90 0.5254
612.00 0.525
612.10 0.5247
612.20 0.5244
612.30 0.524
612.40 0.5237
612.50 0.5234
612.60 0.523
612.70 0.5227
612.80 0.5224
612.90 0.522
613.00 0.5217
613.10 0.5214
613.20 0.5211
613.30 0.5207
613.40 0.5204
613.50 0.5201
613.60 0.5197
613.70 0.5194
613.80 0.5191
613.90 0.5187
614.00 0.5184
614.10 0.5181
614.20 0.5178
614.30 0.5174
614.40 0.5171
614.50 0.5168
614.60 0.5164
614.70 0.5161
614.80 0.5158
614.90 0.5155
615.00 0.5151
615.10 0.5148
615.20 0.5145
615.30 0.5141
615.40 0.5138
615.50 0.5135
615.60 0.5132
615.70 0.5128
615.80 0.5125
615.90 0.5122
616.00 0.5118
616.10 0.5115
616.20 0.5112
616.30 0.5109
616.40 0.5105
616.50 0.5102
616.60 0.5099
616.70 0.5095
616.80 0.5092
616.90 0.5089
617.00 0.5086
617.10 0.5082
617.20 0.5079
617.30 0.5076
617.40 0.5072
617.50 0.5069
617.60 0.5066
617.70 0.5063
617.80 0.5059
617.90 0.5056
618.00 0.5053
618.10 0.505
618.20 0.5046
618.30 0.5043
618.40 0.504
618.50 0.5036
618.60 0.5033
618.70 0.503
618.80 0.5027
618.90 0.5023
619.00 0.502
619.10 0.5017
619.20 0.5013
619.30 0.501
619.40 0.5007
619.50 0.5004
619.60 0.5
619.70 0.4997
619.80 0.4994
619.90 0.499
620.00 0.4987
620.10 0.4984
620.20 0.4981
620.30 0.4977
620.40 0.4974
620.50 0.4971
620.60 0.4967
620.70 0.4964
620.80 0.4961
620.90 0.4958
621.00 0.4954
621.10 0.4951
621.20 0.4948
621.30 0.4944
621.40 0.4941
621.50 0.4938
621.60 0.4934
621.70 0.4931
621.80 0.4928
621.90 0.4925
622.00 0.4921
622.10 0.4918
622.20 0.4915
622.30 0.4911
622.40 0.4908
622.50 0.4905
622.60 0.4901
622.70 0.4898
622.80 0.4895
622.90 0.4892
623.00 0.4888
623.10 0.4885
623.20 0.4882
623.30 0.4878
623.40 0.4875
623.50 0.4872
623.60 0.4868
623.70 0.4865
623.80 0.4862
623.90 0.4858
624.00 0.4855
624.10 0.4852
624.20 0.4848
624.30 0.4845
624.40 0.4842
624.50 0.4838
624.60 0.4835
624.70 0.4832
624.80 0.4828
624.90 0.4825
625.00 0.4822
625.10 0.4818
625.20 0.4815
625.30 0.4811
625.40 0.4808
625.50 0.4805
625.60 0.4801
625.70 0.4798
625.80 0.4795
625.90 0.4791
626.00 0.4788
626.10 0.4784
626.20 0.4781
626.30 0.4778
626.40 0.4774
626.50 0.4771
626.60 0.4767
626.70 0.4764
626.80 0.4761
626.90 0.4757
627.00 0.4754
627.10 0.475
627.20 0.4747
627.30 0.4744
627.40 0.474
627.50 0.4737
627.60 0.4733
627.70 0.473
627.80 0.4726
627.90 0.4723
628.00 0.472
628.10 0.4716
628.20 0.4713
628.30 0.4709
628.40 0.4706
628.50 0.4702
628.60 0.4699
628.70 0.4695
628.80 0.4692
628.90 0.4688
629.00 0.4685
629.10 0.4681
629.20 0.4678
629.30 0.4674
629.40 0.4671
629.50 0.4667
629.60 0.4664
629.70 0.466
629.80 0.4656
629.90 0.4653
630.00 0.4649
630.10 0.4646
630.20 0.4642
630.30 0.4639
630.40 0.4635
630.50 0.4631
630.60 0.4628
630.70 0.4624
630.80 0.4621
630.90 0.4617
631.00 0.4613
631.10 0.461
631.20 0.4606
631.30 0.4603
631.40 0.4599
631.50 0.4595
631.60 0.4592
631.70 0.4588
631.80 0.4584
631.90 0.4581
632.00 0.4577
632.10 0.4573
632.20 0.4569
632.30 0.4566
632.40 0.4562
632.50 0.4558
632.60 0.4554
632.70 0.4551
632.80 0.4547
632.90 0.4543
633.00 0.4539
633.10 0.4536
633.20 0.4532
633.30 0.4528
633.40 0.4524
633.50 0.452
633.60 0.4516
633.70 0.4512
633.80 0.4509
633.90 0.4505
634.00 0.4501
634.10 0.4497
634.20 0.4493
634.30 0.4489
634.40 0.4485
634.50 0.4481
634.60 0.4477
634.70 0.4473
634.80 0.4469
634.90 0.4465
635.00 0.4461
635.10 0.4457
635.20 0.4453
635.30 0.4449
635.40 0.4445
635.50 0.4441
635.60 0.4437
635.70 0.4433
635.80 0.4428
635.90 0.4424
636.00 0.442
636.10 0.4416
636.20 0.4412
636.30 0.4408
636.40 0.4403
636.50 0.4399
636.60 0.4395
636.70 0.4391
636.80 0.4386
636.90 0.4382
637.00 0.4378
637.10 0.4373
637.20 0.4369
637.30 0.4365
637.40 0.436
637.50 0.4356
637.60 0.4351
637.70 0.4347
637.80 0.4342
637.90 0.4338
638.00 0.4333
638.10 0.4329
638.20 0.4324
638.30 0.432
638.40 0.4315
638.50 0.431
638.60 0.4306
638.70 0.4301
638.80 0.4296
638.90 0.4292
639.00 0.4287
639.10 0.4282
639.20 0.4277
639.30 0.4273
639.40 0.4268
639.50 0.4263
639.60 0.4258
639.70 0.4253
639.80 0.4248
639.90 0.4243
640.00 0.4238
640.10 0.4233
640.20 0.4228
640.30 0.4223
640.40 0.4218
640.50 0.4213
640.60 0.4207
640.70 0.4202
640.80 0.4197
640.90 0.4192
641.00 0.4186
641.10 0.4181
641.20 0.4176
641.30 0.4171
641.40 0.4165
641.50 0.4159
641.60 0.4154
641.70 0.4148
641.80 0.4143
641.90 0.4137
642.00 0.4131
642.10 0.4126
642.20 0.412
642.30 0.4115
642.40 0.4109
642.50 0.4103
642.60 0.4097
642.70 0.4091
642.80 0.4085
642.90 0.4079
643.00 0.4073
643.10 0.4067
643.20 0.4061
643.30 0.4055
643.40 0.4048
643.50 0.4042
643.60 0.4035
643.70 0.4029
643.80 0.4023
643.90 0.4016
644.00 0.401
644.10 0.4003
644.20 0.3997
644.30 0.3991
644.40 0.3984
644.50 0.3977
644.60 0.397
644.70 0.3963
644.80 0.3956
644.90 0.3949
645.00 0.3942
645.10 0.3935
645.20 0.3928
645.30 0.3921
645.40 0.3914
645.50 0.3906
645.60 0.3899
645.70 0.3891
645.80 0.3884
645.90 0.3876
646.00 0.3869
646.10 0.3862
646.20 0.3854
646.30 0.3846
646.40 0.3838
646.50 0.383
646.60 0.3822
646.70 0.3814
646.80 0.3806
646.90 0.3798
647.00 0.379
647.10 0.3782
647.20 0.3773
647.30 0.3765
647.40 0.3756
647.50 0.3747
647.60 0.3739
647.70 0.373
647.80 0.3721
647.90 0.3712
648.00 0.3703
648.10 0.3694
648.20 0.3685
648.30 0.3676
648.40 0.3667
648.50 0.3657
648.60 0.3647
648.70 0.3638
648.80 0.3628
648.90 0.3618
649.00 0.3609
649.10 0.3599
649.20 0.3589
649.30 0.358
649.40 0.3569
649.50 0.3558
649.60 0.3548
649.70 0.3537
649.80 0.3526
649.90 0.3516
650.00 0.3505
650.10 0.3495
650.20 0.3484
650.30 0.3473
650.40 0.3461
650.50 0.345
650.60 0.3438
650.70 0.3426
650.80 0.3414
650.90 0.3403
651.00 0.3391
651.10 0.3379
651.20 0.3368
651.30 0.3356
651.40 0.3343
651.50 0.333
651.60 0.3317
651.70 0.3304
651.80 0.3291
651.90 0.3278
652.00 0.3265
652.10 0.3252
652.20 0.3239
652.30 0.3225
652.40 0.3211
652.50 0.3196
652.60 0.3181
652.70 0.3167
652.80 0.3152
652.90 0.3138
653.00 0.3123
653.10 0.3108
653.20 0.3094
653.30 0.3079
653.40 0.3062
653.50 0.3045
653.60 0.3028
653.70 0.3011
653.80 0.2994
653.90 0.2977
654.00 0.296
654.10 0.2943
654.20 0.2927
654.30 0.2909
654.40 0.2889
654.50 0.2869
654.60 0.2849
654.70 0.2829
654.80 0.2808
654.90 0.2784
655.00 0.2759
655.10 0.2735
655.20 0.2711
655.30 0.2685
655.40 0.2655
655.50 0.2623
655.60 0.2586
655.70 0.2546
655.80 0.2496
655.90 0.244
656.00 0.236
656.10 0.2273
656.20 0.2099
656.30 0.1856
656.40 0.2178
656.50 0.2304
656.60 0.2383
656.70 0.2456
656.80 0.2503
656.90 0.2548
657.00 0.2583
657.10 0.2616
657.20 0.2644
657.30 0.2671
657.40 0.2692
657.50 0.2714
657.60 0.2736
657.70 0.2757
657.80 0.2778
657.90 0.2795
658.00 0.2812
658.10 0.2829
658.20 0.2846
658.30 0.2863
658.40 0.2876
658.50 0.289
658.60 0.2904
658.70 0.2918
658.80 0.2931
658.90 0.2945
659.00 0.2959
659.10 0.2973
659.20 0.2986
659.30 0.2999
659.40 0.3011
659.50 0.3022
659.60 0.3033
659.70 0.3044
659.80 0.3055
659.90 0.3067
660.00 0.3078
660.10 0.3089
660.20 0.31
660.30 0.3111
660.40 0.312
660.50 0.313
660.60 0.3139
660.70 0.3148
660.80 0.3158
660.90 0.3167
661.00 0.3177
661.10 0.3186
661.20 0.3195
661.30 0.3204
661.40 0.3212
661.50 0.322
661.60 0.3228
661.70 0.3236
661.80 0.3244
661.90 0.3251
662.00 0.3259
662.10 0.3267
662.20 0.3275
662.30 0.3283
662.40 0.3289
662.50 0.3296
662.60 0.3302
662.70 0.3309
662.80 0.3316
662.90 0.3322
663.00 0.3329
663.10 0.3335
663.20 0.3342
663.30 0.3348
663.40 0.3354
663.50 0.3359
663.60 0.3365
663.70 0.337
663.80 0.3376
663.90 0.3381
664.00 0.3386
664.10 0.3392
664.20 0.3397
664.30 0.3403
664.40 0.3407
664.50 0.3412
664.60 0.3416
664.70 0.3421
664.80 0.3425
664.90 0.343
665.00 0.3434
665.10 0.3439
665.20 0.3443
665.30 0.3448
665.40 0.3451
665.50 0.3455
665.60 0.3459
665.70 0.3462
665.80 0.3466
665.90 0.3469
666.00 0.3473
666.10 0.3477
666.20 0.348
666.30 0.3484
666.40 0.3487
666.50 0.349
666.60 0.3493
666.70 0.3496
666.80 0.3499
666.90 0.3501
667.00 0.3504
667.10 0.3507
667.20 0.351
667.30 0.3513
667.40 0.3515
667.50 0.3518
667.60 0.352
667.70 0.3522
667.80 0.3524
667.90 0.3527
668.00 0.3529
668.10 0.3531
668.20 0.3533
668.30 0.3536
668.40 0.3537
668.50 0.3539
668.60 0.3541
668.70 0.3542
668.80 0.3544
668.90 0.3546
669.00 0.3548
669.10 0.3549
669.20 0.3551
669.30 0.3553
669.40 0.3554
669.50 0.3555
669.60 0.3556
669.70 0.3558
669.80 0.3559
669.90 0.356
670.00 0.3561
670.10 0.3562
670.20 0.3564
670.30 0.3565
670.40 0.3566
670.50 0.3566
670.60 0.3567
670.70 0.3568
670.80 0.3569
670.90 0.357
671.00 0.357
671.10 0.3571
671.20 0.3572
671.30 0.3573
671.40 0.3573
671.50 0.3574
671.60 0.3574
671.70 0.3574
671.80 0.3575
671.90 0.3575
672.00 0.3576
672.10 0.3576
672.20 0.3577
672.30 0.3577
672.40 0.3577
672.50 0.3577
672.60 0.3577
672.70 0.3578
672.80 0.3578
672.90 0.3578
673.00 0.3578
673.10 0.3578
673.20 0.3578
673.30 0.3578
673.40 0.3578
673.50 0.3578
673.60 0.3578
673.70 0.3578
673.80 0.3578
673.90 0.3577
674.00 0.3577
674.10 0.3577
674.20 0.3577
674.30 0.3577
674.40 0.3576
674.50 0.3576
674.60 0.3576
674.70 0.3575
674.80 0.3575
674.90 0.3575
675.00 0.3574
675.10 0.3574
675.20 0.3574
675.30 0.3573
675.40 0.3573
675.50 0.3572
675.60 0.3571
675.70 0.3571
675.80 0.357
675.90 0.357
676.00 0.3569
676.10 0.3569
676.20 0.3568
676.30 0.3568
676.40 0.3567
676.50 0.3566
676.60 0.3565
676.70 0.3565
676.80 0.3564
676.90 0.3563
677.00 0.3562
677.10 0.3562
677.20 0.3561
677.30 0.356
677.40 0.3559
677.50 0.3559
677.60 0.3558
677.70 0.3557
677.80 0.3556
677.90 0.3555
678.00 0.3554
678.10 0.3553
678.20 0.3553
678.30 0.3552
678.40 0.3551
678.50 0.355
678.60 0.3549
678.70 0.3548
678.80 0.3547
678.90 0.3546
679.00 0.3545
679.10 0.3544
679.20 0.3543
679.30 0.3542
679.40 0.3541
679.50 0.354
679.60 0.3539
679.70 0.3538
679.80 0.3536
679.90 0.3535
680.00 0.3534
680.10 0.3533
680.20 0.3532
680.30 0.3531
680.40 0.353
680.50 0.3529
680.60 0.3528
680.70 0.3526
680.80 0.3525
680.90 0.3524
681.00 0.3523
681.10 0.3522
681.20 0.3521
681.30 0.3519
681.40 0.3518
681.50 0.3517
681.60 0.3516
681.70 0.3514
681.80 0.3513
681.90 0.3512
682.00 0.3511
682.10 0.3509
682.20 0.3508
682.30 0.3507
682.40 0.3506
682.50 0.3504
682.60 0.3503
682.70 0.3502
682.80 0.35
682.90 0.3499
683.00 0.3498
683.10 0.3497
683.20 0.3495
683.30 0.3494
683.40 0.3493
683.50 0.3491
683.60 0.349
683.70 0.3489
683.80 0.3487
683.90 0.3486
684.00 0.3484
684.10 0.3483
684.20 0.3482
684.30 0.348
684.40 0.3479
684.50 0.3478
684.60 0.3476
684.70 0.3475
684.80 0.3473
684.90 0.3472
685.00 0.3471
685.10 0.3469
685.20 0.3468
685.30 0.3466
685.40 0.3465
685.50 0.3464
685.60 0.3462
685.70 0.3461
685.80 0.3459
685.90 0.3458
686.00 0.3456
686.10 0.3455
686.20 0.3454
686.30 0.3452
686.40 0.3451
686.50 0.3449
686.60 0.3448
686.70 0.3446
686.80 0.3445
686.90 0.3443
687.00 0.3442
687.10 0.344
687.20 0.3439
687.30 0.3437
687.40 0.3436
687.50 0.3434
687.60 0.3433
687.70 0.3431
687.80 0.343
687.90 0.3428
688.00 0.3427
688.10 0.3425
688.20 0.3424
688.30 0.3423
688.40 0.3421
688.50 0.3419
688.60 0.3418
688.70 0.3416
688.80 0.3415
688.90 0.3413
689.00 0.3412
689.10 0.341
689.20 0.3409
689.30 0.3407
689.40 0.3406
689.50 0.3404
689.60 0.3403
689.70 0.3401
689.80 0.3399
689.90 0.3398
690.00 0.3396
690.10 0.3395
690.20 0.3393
690.30 0.3392
690.40 0.339
690.50 0.3388
690.60 0.3387
690.70 0.3385
690.80 0.3384
690.90 0.3382
691.00 0.3381
691.10 0.3379
691.20 0.3377
691.30 0.3376
691.40 0.3374
691.50 0.3373
691.60 0.3371
691.70 0.337
691.80 0.3368
691.90 0.3367
692.00 0.3365
692.10 0.3363
692.20 0.3362
692.30 0.336
692.40 0.3359
692.50 0.3357
692.60 0.3356
692.70 0.3354
692.80 0.3353
692.90 0.3351
693.00 0.3349
693.10 0.3348
693.20 0.3346
693.30 0.3345
693.40 0.3343
693.50 0.3342
693.60 0.334
693.70 0.3339
693.80 0.3337
693.90 0.3335
694.00 0.3334
694.10 0.3332
694.20 0.3331
694.30 0.3329
694.40 0.3328
694.50 0.3326
694.60 0.3325
694.70 0.3323
694.80 0.3322
694.90 0.332
695.00 0.3319
695.10 0.3317
695.20 0.3315
695.30 0.3314
695.40 0.3312
695.50 0.3311
695.60 0.3309
695.70 0.3307
695.80 0.3306
695.90 0.3304
696.00 0.3303
696.10 0.3301
696.20 0.3299
696.30 0.3298
696.40 0.3296
696.50 0.3295
696.60 0.3293
696.70 0.3291
696.80 0.329
696.90 0.3288
697.00 0.3287
697.10 0.3285
697.20 0.3283
697.30 0.3282
697.40 0.328
697.50 0.3279
697.60 0.3277
697.70 0.3275
697.80 0.3274
697.90 0.3272
698.00 0.3271
698.10 0.3269
698.20 0.3268
698.30 0.3266
698.40 0.3264
698.50 0.3263
698.60 0.3261
698.70 0.326
698.80 0.3258
698.90 0.3257
699.00 0.3255
699.10 0.3253
699.20 0.3252
699.30 0.325
699.40 0.3249
699.50 0.3247
699.60 0.3246
699.70 0.3244
699.80 0.3242
699.90 0.3241
700.00 0.3239
700.10 0.3238
700.20 0.3236
700.30 0.3235
700.40 0.3233
700.50 0.3231
700.60 0.323
700.70 0.3228
700.80 0.3227
700.90 0.3225
701.00 0.3223
701.10 0.3222
701.20 0.322
701.30 0.3219
701.40 0.3217
701.50 0.3215
701.60 0.3214
701.70 0.3212
701.80 0.3211
701.90 0.3209
702.00 0.3208
702.10 0.3206
702.20 0.3204
702.30 0.3203
702.40 0.3201
702.50 0.32
702.60 0.3198
702.70 0.3196
702.80 0.3195
702.90 0.3193
703.00 0.3192
703.10 0.319
703.20 0.3189
703.30 0.3187
703.40 0.3185
703.50 0.3184
703.60 0.3182
703.70 0.3181
703.80 0.3179
703.90 0.3178
704.00 0.3176
704.10 0.3175
704.20 0.3173
704.30 0.3171
704.40 0.317
704.50 0.3168
704.60 0.3167
704.70 0.3165
704.80 0.3164
704.90 0.3162
705.00 0.316
705.10 0.3159
705.20 0.3157
705.30 0.3156
705.40 0.3154
705.50 0.3153
705.60 0.3151
705.70 0.315
705.80 0.3148
705.90 0.3146
706.00 0.3145
706.10 0.3143
706.20 0.3142
706.30 0.314
706.40 0.3139
706.50 0.3137
706.60 0.3135
706.70 0.3134
706.80 0.3132
706.90 0.3131
707.00 0.3129
707.10 0.3128
707.20 0.3126
707.30 0.3125
707.40 0.3123
707.50 0.3121
707.60 0.312
707.70 0.3118
707.80 0.3117
707.90 0.3115
708.00 0.3114
708.10 0.3112
708.20 0.3111
708.30 0.3109
708.40 0.3108
708.50 0.3106
708.60 0.3104
708.70 0.3103
708.80 0.3101
708.90 0.31
709.00 0.3098
709.10 0.3097
709.20 0.3095
709.30 0.3094
709.40 0.3092
709.50 0.3091
709.60 0.3089
709.70 0.3088
709.80 0.3086
709.90 0.3084
710.00 0.3083
710.10 0.3081
710.20 0.308
710.30 0.3078
710.40 0.3077
710.50 0.3075
710.60 0.3074
710.70 0.3072
710.80 0.3071
710.90 0.3069
711.00 0.3068
711.10 0.3066
711.20 0.3065
711.30 0.3063
711.40 0.3061
711.50 0.306
711.60 0.3058
711.70 0.3057
711.80 0.3055
711.90 0.3054
712.00 0.3052
712.10 0.3051
712.20 0.3049
712.30 0.3048
712.40 0.3046
712.50 0.3045
712.60 0.3043
712.70 0.3042
712.80 0.304
712.90 0.3039
713.00 0.3037
713.10 0.3036
713.20 0.3034
713.30 0.3033
713.40 0.3031
713.50 0.303
713.60 0.3028
713.70 0.3027
713.80 0.3025
713.90 0.3024
714.00 0.3022
714.10 0.302
714.20 0.3019
714.30 0.3017
714.40 0.3016
714.50 0.3014
714.60 0.3013
714.70 0.3011
714.80 0.301
714.90 0.3008
715.00 0.3007
715.10 0.3005
715.20 0.3004
715.30 0.3002
715.40 0.3001
715.50 0.2999
715.60 0.2998
715.70 0.2996
715.80 0.2995
715.90 0.2993
716.00 0.2992
716.10 0.2991
716.20 0.2989
716.30 0.2988
716.40 0.2986
716.50 0.2985
716.60 0.2983
716.70 0.2982
716.80 0.298
716.90 0.2979
717.00 0.2977
717.10 0.2976
717.20 0.2974
717.30 0.2973
717.40 0.2971
717.50 0.297
717.60 0.2968
717.70 0.2967
717.80 0.2965
717.90 0.2964
718.00 0.2962
718.10 0.2961
718.20 0.2959
718.30 0.2958
718.40 0.2956
718.50 0.2955
718.60 0.2953
718.70 0.2952
718.80 0.295
718.90 0.2949
719.00 0.2948
719.10 0.2946
719.20 0.2945
719.30 0.2943
719.40 0.2942
719.50 0.294
719.60 0.2939
719.70 0.2937
719.80 0.2936
719.90 0.2934
720.00 0.2933
720.10 0.2931
720.20 0.293
720.30 0.2928
720.40 0.2927
720.50 0.2926
720.60 0.2924
720.70 0.2923
720.80 0.2921
720.90 0.292
721.00 0.2918
721.10 0.2917
721.20 0.2915
721.30 0.2914
721.40 0.2912
721.50 0.2911
721.60 0.291
721.70 0.2908
721.80 0.2907
721.90 0.2905
722.00 0.2904
722.10 0.2902
722.20 0.2901
722.30 0.2899
722.40 0.2898
722.50 0.2897
722.60 0.2895
722.70 0.2894
722.80 0.2892
722.90 0.2891
723.00 0.2889
723.10 0.2888
723.20 0.2886
723.30 0.2885
723.40 0.2884
723.50 0.2882
723.60 0.2881
723.70 0.2879
723.80 0.2878
723.90 0.2876
724.00 0.2875
724.10 0.2874
724.20 0.2872
724.30 0.2871
724.40 0.2869
724.50 0.2868
724.60 0.2866
724.70 0.2865
724.80 0.2864
724.90 0.2862
725.00 0.2861
725.10 0.2859
725.20 0.2858
725.30 0.2856
725.40 0.2855
725.50 0.2854
725.60 0.2852
725.70 0.2851
725.80 0.2849
725.90 0.2848
726.00 0.2847
726.10 0.2845
726.20 0.2844
726.30 0.2842
726.40 0.2841
726.50 0.2839
726.60 0.2838
726.70 0.2837
726.80 0.2835
726.90 0.2834
727.00 0.2832
727.10 0.2831
727.20 0.283
727.30 0.2828
727.40 0.2827
727.50 0.2825
727.60 0.2824
727.70 0.2823
727.80 0.2821
727.90 0.282
728.00 0.2818
728.10 0.2817
728.20 0.2816
728.30 0.2814
728.40 0.2813
728.50 0.2811
728.60 0.281
728.70 0.2809
728.80 0.2807
728.90 0.2806
729.00 0.2804
729.10 0.2803
729.20 0.2802
729.30 0.28
729.40 0.2799
729.50 0.2798
729.60 0.2796
729.70 0.2795
729.80 0.2793
729.90 0.2792
730.00 0.2791
730.10 0.2789
730.20 0.2788
730.30 0.2786
730.40 0.2785
730.50 0.2784
730.60 0.2782
730.70 0.2781
730.80 0.278
730.90 0.2778
731.00 0.2777
731.10 0.2775
731.20 0.2774
731.30 0.2773
731.40 0.2771
731.50 0.277
731.60 0.2769
731.70 0.2767
731.80 0.2766
731.90 0.2765
732.00 0.2763
732.10 0.2762
732.20 0.276
732.30 0.2759
732.40 0.2758
732.50 0.2756
732.60 0.2755
732.70 0.2754
732.80 0.2752
732.90 0.2751
733.00 0.275
733.10 0.2748
733.20 0.2747
733.30 0.2746
733.40 0.2744
733.50 0.2743
733.60 0.2741
733.70 0.274
733.80 0.2739
733.90 0.2737
734.00 0.2736
734.10 0.2735
734.20 0.2733
734.30 0.2732
734.40 0.2731
734.50 0.2729
734.60 0.2728
734.70 0.2727
734.80 0.2725
734.90 0.2724
735.00 0.2723
735.10 0.2721
735.20 0.272
735.30 0.2719
735.40 0.2717
735.50 0.2716
735.60 0.2715
735.70 0.2713
735.80 0.2712
735.90 0.2711
736.00 0.2709
736.10 0.2708
736.20 0.2707
736.30 0.2705
736.40 0.2704
736.50 0.2703
736.60 0.2701
736.70 0.27
736.80 0.2699
736.90 0.2697
737.00 0.2696
737.10 0.2695
737.20 0.2693
737.30 0.2692
737.40 0.2691
737.50 0.2689
737.60 0.2688
737.70 0.2687
737.80 0.2685
737.90 0.2684
738.00 0.2683
738.10 0.2681
738.20 0.268
738.30 0.2679
738.40 0.2677
738.50 0.2676
738.60 0.2675
738.70 0.2673
738.80 0.2672
738.90 0.2671
739.00 0.2669
739.10 0.2668
739.20 0.2667
739.30 0.2665
739.40 0.2664
739.50 0.2663
739.60 0.2661
739.70 0.266
739.80 0.2659
739.90 0.2658
740.00 0.2656
740.10 0.2655
740.20 0.2654
740.30 0.2652
740.40 0.2651
740.50 0.265
740.60 0.2648
740.70 0.2647
740.80 0.2646
740.90 0.2645
741.00 0.2643
741.10 0.2642
741.20 0.2641
741.30 0.2639
741.40 0.2638
741.50 0.2637
741.60 0.2636
741.70 0.2634
741.80 0.2633
741.90 0.2632
742.00 0.263
742.10 0.2629
742.20 0.2628
742.30 0.2627
742.40 0.2625
742.50 0.2624
742.60 0.2623
742.70 0.2621
742.80 0.262
742.90 0.2619
743.00 0.2618
743.10 0.2616
743.20 0.2615
743.30 0.2614
743.40 0.2613
743.50 0.2611
743.60 0.261
743.70 0.2609
743.80 0.2607
743.90 0.2606
744.00 0.2605
744.10 0.2604
744.20 0.2602
744.30 0.2601
744.40 0.26
744.50 0.2599
744.60 0.2597
744.70 0.2596
744.80 0.2595
744.90 0.2593
745.00 0.2592
745.10 0.2591
745.20 0.259
745.30 0.2588
745.40 0.2587
745.50 0.2586
745.60 0.2585
745.70 0.2583
745.80 0.2582
745.90 0.2581
746.00 0.258
746.10 0.2578
746.20 0.2577
746.30 0.2576
746.40 0.2575
746.50 0.2573
746.60 0.2572
746.70 0.2571
746.80 0.2569
746.90 0.2568
747.00 0.2567
747.10 0.2566
747.20 0.2564
747.30 0.2563
747.40 0.2562
747.50 0.2561
747.60 0.2559
747.70 0.2558
747.80 0.2557
747.90 0.2556
748.00 0.2554
748.10 0.2553
748.20 0.2552
748.30 0.2551
748.40 0.2549
748.50 0.2548
748.60 0.2547
748.70 0.2546
748.80 0.2544
748.90 0.2543
749.00 0.2542
749.10 0.2541
749.20 0.254
749.30 0.2538
749.40 0.2537
749.50 0.2536
749.60 0.2535
749.70 0.2533
749.80 0.2532
749.90 0.2531
750.00 0.253
750.10 0.2528
750.20 0.2527
750.30 0.2526
750.40 0.2525
750.50 0.2523
750.60 0.2522
750.70 0.2521
750.80 0.252
750.90 0.2519
751.00 0.2517
751.10 0.2516
751.20 0.2515
751.30 0.2514
751.40 0.2513
751.50 0.2511
751.60 0.251
751.70 0.2509
751.80 0.2508
751.90 0.2506
752.00 0.2505
752.10 0.2504
752.20 0.2503
752.30 0.2502
752.40 0.25
752.50 0.2499
752.60 0.2498
752.70 0.2497
752.80 0.2496
752.90 0.2494
753.00 0.2493
753.10 0.2492
753.20 0.2491
753.30 0.249
753.40 0.2488
753.50 0.2487
753.60 0.2486
753.70 0.2485
753.80 0.2484
753.90 0.2482
754.00 0.2481
754.10 0.248
754.20 0.2479
754.30 0.2478
754.40 0.2476
754.50 0.2475
754.60 0.2474
754.70 0.2473
754.80 0.2472
754.90 0.247
755.00 0.2469
755.10 0.2468
755.20 0.2467
755.30 0.2466
755.40 0.2464
755.50 0.2463
755.60 0.2462
755.70 0.2461
755.80 0.246
755.90 0.2459
756.00 0.2457
756.10 0.2456
756.20 0.2455
756.30 0.2454
756.40 0.2453
756.50 0.2451
756.60 0.245
756.70 0.2449
756.80 0.2448
756.90 0.2447
757.00 0.2446
757.10 0.2444
757.20 0.2443
757.30 0.2442
757.40 0.2441
757.50 0.244
757.60 0.2438
757.70 0.2437
757.80 0.2436
757.90 0.2435
758.00 0.2434
758.10 0.2433
758.20 0.2431
758.30 0.243
758.40 0.2429
758.50 0.2428
758.60 0.2427
758.70 0.2425
758.80 0.2424
758.90 0.2423
759.00 0.2422
759.10 0.2421
759.20 0.242
759.30 0.2418
759.40 0.2417
759.50 0.2416
759.60 0.2415
759.70 0.2414
759.80 0.2413
759.90 0.2411
760.00 0.241
760.10 0.2409
760.20 0.2408
760.30 0.2407
760.40 0.2406
760.50 0.2405
760.60 0.2403
760.70 0.2402
760.80 0.2401
760.90 0.24
761.00 0.2399
761.10 0.2398
761.20 0.2397
761.30 0.2395
761.40 0.2394
761.50 0.2393
761.60 0.2392
761.70 0.2391
761.80 0.239
761.90 0.2389
762.00 0.2387
762.10 0.2386
762.20 0.2385
762.30 0.2384
762.40 0.2383
762.50 0.2382
762.60 0.2381
762.70 0.2379
762.80 0.2378
762.90 0.2377
763.00 0.2376
763.10 0.2375
763.20 0.2374
763.30 0.2373
763.40 0.2371
763.50 0.237
763.60 0.2369
763.70 0.2368
763.80 0.2367
763.90 0.2366
764.00 0.2365
764.10 0.2364
764.20 0.2362
764.30 0.2361
764.40 0.236
764.50 0.2359
764.60 0.2358
764.70 0.2357
764.80 0.2356
764.90 0.2355
765.00 0.2353
765.10 0.2352
765.20 0.2351
765.30 0.235
765.40 0.2349
765.50 0.2348
765.60 0.2347
765.70 0.2346
765.80 0.2344
765.90 0.2343
766.00 0.2342
766.10 0.2341
766.20 0.234
766.30 0.2339
766.40 0.2338
766.50 0.2337
766.60 0.2336
766.70 0.2334
766.80 0.2333
766.90 0.2332
767.00 0.2331
767.10 0.233
767.20 0.2329
767.30 0.2328
767.40 0.2327
767.50 0.2325
767.60 0.2324
767.70 0.2323
767.80 0.2322
767.90 0.2321
768.00 0.232
768.10 0.2319
768.20 0.2318
768.30 0.2317
768.40 0.2315
768.50 0.2314
768.60 0.2313
768.70 0.2312
768.80 0.2311
768.90 0.231
769.00 0.2309
769.10 0.2308
769.20 0.2307
769.30 0.2306
769.40 0.2304
769.50 0.2303
769.60 0.2302
769.70 0.2301
769.80 0.23
769.90 0.2299
770.00 0.2298
770.10 0.2297
770.20 0.2296
770.30 0.2295
770.40 0.2294
770.50 0.2292
770.60 0.2291
770.70 0.229
770.80 0.2289
770.90 0.2288
771.00 0.2287
771.10 0.2286
771.20 0.2285
771.30 0.2284
771.40 0.2283
771.50 0.2282
771.60 0.2281
771.70 0.2279
771.80 0.2278
771.90 0.2277
772.00 0.2276
772.10 0.2275
772.20 0.2274
772.30 0.2273
772.40 0.2272
772.50 0.2271
772.60 0.227
772.70 0.2269
772.80 0.2268
772.90 0.2267
773.00 0.2266
773.10 0.2264
773.20 0.2263
773.30 0.2262
773.40 0.2261
773.50 0.226
773.60 0.2259
773.70 0.2258
773.80 0.2257
773.90 0.2256
774.00 0.2255
774.10 0.2254
774.20 0.2253
774.30 0.2252
774.40 0.2251
774.50 0.225
774.60 0.2248
774.70 0.2247
774.80 0.2246
774.90 0.2245
775.00 0.2244
775.10 0.2243
775.20 0.2242
775.30 0.2241
775.40 0.224
775.50 0.2239
775.60 0.2238
775.70 0.2237
775.80 0.2236
775.90 0.2235
776.00 0.2234
776.10 0.2233
776.20 0.2232
776.30 0.2231
776.40 0.2229
776.50 0.2228
776.60 0.2227
776.70 0.2226
776.80 0.2225
776.90 0.2224
777.00 0.2223
777.10 0.2222
777.20 0.2221
777.30 0.222
777.40 0.2219
777.50 0.2218
777.60 0.2217
777.70 0.2216
777.80 0.2215
777.90 0.2214
778.00 0.2213
778.10 0.2212
778.20 0.2211
778.30 0.221
778.40 0.2208
778.50 0.2207
778.60 0.2206
778.70 0.2205
778.80 0.2204
778.90 0.2203
779.00 0.2202
779.10 0.2201
779.20 0.22
779.30 0.2199
779.40 0.2198
779.50 0.2197
779.60 0.2196
779.70 0.2195
779.80 0.2194
779.90 0.2193
780.00 0.2192
780.10 0.2191
780.20 0.219
780.30 0.2189
780.40 0.2188
780.50 0.2187
780.60 0.2186
780.70 0.2185
780.80 0.2184
780.90 0.2183
781.00 0.2182
781.10 0.2181
781.20 0.218
781.30 0.2179
781.40 0.2178
781.50 0.2177
781.60 0.2176
781.70 0.2175
781.80 0.2174
781.90 0.2173
782.00 0.2171
782.10 0.217
782.20 0.2169
782.30 0.2168
782.40 0.2167
782.50 0.2166
782.60 0.2165
782.70 0.2164
782.80 0.2163
782.90 0.2162
783.00 0.2161
783.10 0.216
783.20 0.2159
783.30 0.2158
783.40 0.2157
783.50 0.2156
783.60 0.2155
783.70 0.2154
783.80 0.2153
783.90 0.2152
784.00 0.2151
784.10 0.215
784.20 0.2149
784.30 0.2148
784.40 0.2147
784.50 0.2146
784.60 0.2145
784.70 0.2144
784.80 0.2143
784.90 0.2142
785.00 0.2141
785.10 0.214
785.20 0.2139
785.30 0.2138
785.40 0.2137
785.50 0.2136
785.60 0.2135
785.70 0.2134
785.80 0.2133
785.90 0.2132
786.00 0.2131
786.10 0.213
786.20 0.2129
786.30 0.2128
786.40 0.2127
786.50 0.2126
786.60 0.2125
786.70 0.2124
786.80 0.2123
786.90 0.2122
787.00 0.2121
787.10 0.212
787.20 0.2119
787.30 0.2118
787.40 0.2117
787.50 0.2116
787.60 0.2115
787.70 0.2114
787.80 0.2113
787.90 0.2113
788.00 0.2112
788.10 0.2111
788.20 0.211
788.30 0.2109
788.40 0.2108
788.50 0.2107
788.60 0.2106
788.70 0.2105
788.80 0.2104
788.90 0.2103
789.00 0.2102
789.10 0.2101
789.20 0.21
789.30 0.2099
789.40 0.2098
789.50 0.2097
789.60 0.2096
789.70 0.2095
789.80 0.2094
789.90 0.2093
790.00 0.2092
790.10 0.2091
790.20 0.209
790.30 0.2089
790.40 0.2088
790.50 0.2087
790.60 0.2086
790.70 0.2085
790.80 0.2084
790.90 0.2083
791.00 0.2082
791.10 0.2081
791.20 0.208
791.30 0.2079
791.40 0.2078
791.50 0.2077
791.60 0.2077
791.70 0.2076
791.80 0.2075
791.90 0.2074
792.00 0.2073
792.10 0.2072
792.20 0.2071
792.30 0.207
792.40 0.2069
792.50 0.2068
792.60 0.2067
792.70 0.2066
792.80 0.2065
792.90 0.2064
793.00 0.2063
793.10 0.2062
793.20 0.2061
793.30 0.206
793.40 0.2059
793.50 0.2058
793.60 0.2057
793.70 0.2056
793.80 0.2056
793.90 0.2055
794.00 0.2054
794.10 0.2053
794.20 0.2052
794.30 0.2051
794.40 0.205
794.50 0.2049
794.60 0.2048
794.70 0.2047
794.80 0.2046
794.90 0.2045
795.00 0.2044
795.10 0.2043
795.20 0.2042
795.30 0.2041
795.40 0.204
795.50 0.2039
795.60 0.2039
795.70 0.2038
795.80 0.2037
795.90 0.2036
796.00 0.2035
796.10 0.2034
796.20 0.2033
796.30 0.2032
796.40 0.2031
796.50 0.203
796.60 0.2029
796.70 0.2028
796.80 0.2027
796.90 0.2026
797.00 0.2025
797.10 0.2024
797.20 0.2024
797.30 0.2023
797.40 0.2022
797.50 0.2021
797.60 0.202
797.70 0.2019
797.80 0.2018
797.90 0.2017
798.00 0.2016
798.10 0.2015
798.20 0.2014
798.30 0.2013
798.40 0.2012
798.50 0.2011
798.60 0.2011
798.70 0.201
798.80 0.2009
798.90 0.2008
799.00 0.2007
799.10 0.2006
799.20 0.2005
799.30 0.2004
799.40 0.2003
799.50 0.2002
799.60 0.2001
799.70 0.2
799.80 0.1999
799.90 0.1998
800.00 0.1998
800.10 0.1997
800.20 0.1996
800.30 0.1995
800.40 0.1994
800.50 0.1993
800.60 0.1992
800.70 0.1991
800.80 0.199
800.90 0.1989
801.00 0.1988
801.10 0.1988
801.20 0.1987
801.30 0.1986
801.40 0.1985
801.50 0.1984
801.60 0.1983
801.70 0.1982
801.80 0.1981
801.90 0.198
802.00 0.1979
802.10 0.1979
802.20 0.1978
802.30 0.1977
802.40 0.1976
802.50 0.1975
802.60 0.1974
802.70 0.1973
802.80 0.1972
802.90 0.1971
803.00 0.197
803.10 0.197
803.20 0.1969
803.30 0.1968
803.40 0.1967
803.50 0.1966
803.60 0.1965
803.70 0.1964
803.80 0.1963
803.90 0.1962
804.00 0.1961
804.10 0.1961
804.20 0.196
804.30 0.1959
804.40 0.1958
804.50 0.1957
804.60 0.1956
804.70 0.1955
804.80 0.1954
804.90 0.1953
805.00 0.1953
805.10 0.1952
805.20 0.1951
805.30 0.195
805.40 0.1949
805.50 0.1948
805.60 0.1947
805.70 0.1946
805.80 0.1945
805.90 0.1945
806.00 0.1944
806.10 0.1943
806.20 0.1942
806.30 0.1941
806.40 0.194
806.50 0.1939
806.60 0.1938
806.70 0.1937
806.80 0.1937
806.90 0.1936
807.00 0.1935
807.10 0.1934
807.20 0.1933
807.30 0.1932
807.40 0.1931
807.50 0.193
807.60 0.193
807.70 0.1929
807.80 0.1928
807.90 0.1927
808.00 0.1926
808.10 0.1925
808.20 0.1924
808.30 0.1923
808.40 0.1922
808.50 0.1922
808.60 0.1921
808.70 0.192
808.80 0.1919
808.90 0.1918
809.00 0.1917
809.10 0.1916
809.20 0.1915
809.30 0.1915
809.40 0.1914
809.50 0.1913
809.60 0.1912
809.70 0.1911
809.80 0.191
809.90 0.1909
810.00 0.1908
810.10 0.1908
810.20 0.1907
810.30 0.1906
810.40 0.1905
810.50 0.1904
810.60 0.1903
810.70 0.1902
810.80 0.1902
810.90 0.1901
811.00 0.19
811.10 0.1899
811.20 0.1898
811.30 0.1897
811.40 0.1897
811.50 0.1896
811.60 0.1895
811.70 0.1894
811.80 0.1893
811.90 0.1892
812.00 0.1891
812.10 0.1891
812.20 0.189
812.30 0.1889
812.40 0.1888
812.50 0.1887
812.60 0.1886
812.70 0.1885
812.80 0.1885
812.90 0.1884
813.00 0.1883
813.10 0.1882
813.20 0.1881
813.30 0.188
813.40 0.188
813.50 0.1879
813.60 0.1878
813.70 0.1877
813.80 0.1876
813.90 0.1875
814.00 0.1874
814.10 0.1874
814.20 0.1873
814.30 0.1872
814.40 0.1871
814.50 0.187
814.60 0.1869
814.70 0.1869
814.80 0.1868
814.90 0.1867
815.00 0.1866
815.10 0.1865
815.20 0.1864
815.30 0.1864
815.40 0.1863
815.50 0.1862
815.60 0.1861
815.70 0.186
815.80 0.1859
815.90 0.1859
816.00 0.1858
816.10 0.1857
816.20 0.1856
816.30 0.1855
816.40 0.1854
816.50 0.1853
816.60 0.1853
816.70 0.1852
816.80 0.1851
816.90 0.185
817.00 0.1849
817.10 0.1848
817.20 0.1848
817.30 0.1847
817.40 0.1846
817.50 0.1845
817.60 0.1844
817.70 0.1844
817.80 0.1843
817.90 0.1842
818.00 0.1841
818.10 0.184
818.20 0.1839
818.30 0.1839
818.40 0.1838
818.50 0.1837
818.60 0.1836
818.70 0.1835
818.80 0.1834
818.90 0.1834
819.00 0.1833
819.10 0.1832
819.20 0.1831
819.30 0.183
819.40 0.1829
819.50 0.1829
819.60 0.1828
819.70 0.1827
819.80 0.1826
819.90 0.1825
820.00 0.1825
820.10 0.1824
820.20 0.1823
820.30 0.1822
820.40 0.1821
820.50 0.182
820.60 0.182
820.70 0.1819
820.80 0.1818
820.90 0.1817
821.00 0.1816
821.10 0.1816
821.20 0.1815
821.30 0.1814
821.40 0.1813
821.50 0.1812
821.60 0.1811
821.70 0.1811
821.80 0.181
821.90 0.1809
822.00 0.1808
822.10 0.1807
822.20 0.1807
822.30 0.1806
822.40 0.1805
822.50 0.1804
822.60 0.1803
822.70 0.1803
822.80 0.1802
822.90 0.1801
823.00 0.18
823.10 0.1799
823.20 0.1799
823.30 0.1798
823.40 0.1797
823.50 0.1796
823.60 0.1795
823.70 0.1795
823.80 0.1794
823.90 0.1793
824.00 0.1792
824.10 0.1791
824.20 0.1791
824.30 0.179
824.40 0.1789
824.50 0.1788
824.60 0.1787
824.70 0.1787
824.80 0.1786
824.90 0.1785
825.00 0.1784
825.10 0.1783
825.20 0.1783
825.30 0.1782
825.40 0.1781
825.50 0.178
825.60 0.1779
825.70 0.1779
825.80 0.1778
825.90 0.1777
826.00 0.1776
826.10 0.1775
826.20 0.1775
826.30 0.1774
826.40 0.1773
826.50 0.1772
826.60 0.1771
826.70 0.1771
826.80 0.177
826.90 0.1769
827.00 0.1768
827.10 0.1768
827.20 0.1767
827.30 0.1766
827.40 0.1765
827.50 0.1764
827.60 0.1764
827.70 0.1763
827.80 0.1762
827.90 0.1761
828.00 0.176
828.10 0.176
828.20 0.1759
828.30 0.1758
828.40 0.1757
828.50 0.1757
828.60 0.1756
828.70 0.1755
828.80 0.1754
828.90 0.1753
829.00 0.1753
829.10 0.1752
829.20 0.1751
829.30 0.175
829.40 0.175
829.50 0.1749
829.60 0.1748
829.70 0.1747
829.80 0.1746
829.90 0.1746
830.00 0.1745
830.10 0.1744
830.20 0.1743
830.30 0.1743
830.40 0.1742
830.50 0.1741
830.60 0.174
830.70 0.174
830.80 0.1739
830.90 0.1738
831.00 0.1737
831.10 0.1736
831.20 0.1736
831.30 0.1735
831.40 0.1734
831.50 0.1733
831.60 0.1733
831.70 0.1732
831.80 0.1731
831.90 0.173
832.00 0.173
832.10 0.1729
832.20 0.1728
832.30 0.1727
832.40 0.1726
832.50 0.1726
832.60 0.1725
832.70 0.1724
832.80 0.1723
832.90 0.1723
833.00 0.1722
833.10 0.1721
833.20 0.172
833.30 0.1719
833.40 0.1719
833.50 0.1718
833.60 0.1717
833.70 0.1716
833.80 0.1716
833.90 0.1715
834.00 0.1714
834.10 0.1713
834.20 0.1713
834.30 0.1712
834.40 0.1711
834.50 0.171
834.60 0.1709
834.70 0.1709
834.80 0.1708
834.90 0.1707
835.00 0.1706
835.10 0.1706
835.20 0.1705
835.30 0.1704
835.40 0.1703
835.50 0.1703
835.60 0.1702
835.70 0.1701
835.80 0.17
835.90 0.17
836.00 0.1699
836.10 0.1698
836.20 0.1697
836.30 0.1697
836.40 0.1696
836.50 0.1695
836.60 0.1694
836.70 0.1693
836.80 0.1693
836.90 0.1692
837.00 0.1691
837.10 0.169
837.20 0.169
837.30 0.1689
837.40 0.1688
837.50 0.1687
837.60 0.1687
837.70 0.1686
837.80 0.1685
837.90 0.1684
838.00 0.1684
838.10 0.1683
838.20 0.1682
838.30 0.1681
838.40 0.1681
838.50 0.168
838.60 0.1679
838.70 0.1678
838.80 0.1678
838.90 0.1677
839.00 0.1676
839.10 0.1675
839.20 0.1675
839.30 0.1674
839.40 0.1673
839.50 0.1672
839.60 0.1672
839.70 0.1671
839.80 0.167
839.90 0.1669
840.00 0.1669
840.10 0.1668
840.20 0.1667
840.30 0.1666
840.40 0.1666
840.50 0.1665
840.60 0.1664
840.70 0.1663
840.80 0.1663
840.90 0.1662
841.00 0.1661
841.10 0.166
841.20 0.166
841.30 0.1659
841.40 0.1658
841.50 0.1657
841.60 0.1657
841.70 0.1656
841.80 0.1655
841.90 0.1655
842.00 0.1654
842.10 0.1653
842.20 0.1652
842.30 0.1652
842.40 0.1651
842.50 0.165
842.60 0.1649
842.70 0.1649
842.80 0.1648
842.90 0.1647
843.00 0.1646
843.10 0.1646
843.20 0.1645
843.30 0.1644
843.40 0.1643
843.50 0.1643
843.60 0.1642
843.70 0.1641
843.80 0.164
843.90 0.164
844.00 0.1639
844.10 0.1638
844.20 0.1637
844.30 0.1637
844.40 0.1636
844.50 0.1635
844.60 0.1635
844.70 0.1634
844.80 0.1633
844.90 0.1632
845.00 0.1632
845.10 0.1631
845.20 0.163
845.30 0.1629
845.40 0.1629
845.50 0.1628
845.60 0.1627
845.70 0.1626
845.80 0.1626
845.90 0.1625
846.00 0.1624
846.10 0.1623
846.20 0.1623
846.30 0.1622
846.40 0.1621
846.50 0.1621
846.60 0.162
846.70 0.1619
846.80 0.1618
846.90 0.1618
847.00 0.1617
847.10 0.1616
847.20 0.1615
847.30 0.1615
847.40 0.1614
847.50 0.1613
847.60 0.1613
847.70 0.1612
847.80 0.1611
847.90 0.161
848.00 0.161
848.10 0.1609
848.20 0.1608
848.30 0.1607
848.40 0.1607
848.50 0.1606
848.60 0.1605
848.70 0.1605
848.80 0.1604
848.90 0.1603
849.00 0.1602
849.10 0.1602
849.20 0.1601
849.30 0.16
849.40 0.16
849.50 0.1599
849.60 0.1598
849.70 0.1597
849.80 0.1597
849.90 0.1596
850.00 0.1595
850.10 0.1595
850.20 0.1594
850.30 0.1593
850.40 0.1592
850.50 0.1592
850.60 0.1591
850.70 0.159
850.80 0.1589
850.90 0.1589
851.00 0.1588
851.10 0.1587
851.20 0.1587
851.30 0.1586
851.40 0.1585
851.50 0.1584
851.60 0.1584
851.70 0.1583
851.80 0.1582
851.90 0.1582
852.00 0.1581
852.10 0.158
852.20 0.158
852.30 0.1579
852.40 0.1578
852.50 0.1577
852.60 0.1577
852.70 0.1576
852.80 0.1575
852.90 0.1575
853.00 0.1574
853.10 0.1573
853.20 0.1573
853.30 0.1572
853.40 0.1571
853.50 0.157
853.60 0.157
853.70 0.1569
853.80 0.1568
853.90 0.1568
854.00 0.1567
854.10 0.1566
854.20 0.1566
854.30 0.1565
854.40 0.1564
854.50 0.1563
854.60 0.1563
854.70 0.1562
854.80 0.1561
854.90 0.1561
855.00 0.156
855.10 0.1559
855.20 0.1559
855.30 0.1558
855.40 0.1557
855.50 0.1557
855.60 0.1556
855.70 0.1555
855.80 0.1554
855.90 0.1554
856.00 0.1553
856.10 0.1552
856.20 0.1552
856.30 0.1551
856.40 0.155
856.50 0.155
856.60 0.1549
856.70 0.1548
856.80 0.1548
856.90 0.1547
857.00 0.1546
857.10 0.1546
857.20 0.1545
857.30 0.1544
857.40 0.1544
857.50 0.1543
857.60 0.1542
857.70 0.1542
857.80 0.1541
857.90 0.154
858.00 0.154
858.10 0.1539
858.20 0.1539
858.30 0.1538
858.40 0.1537
858.50 0.1537
858.60 0.1536
858.70 0.1535
858.80 0.1535
858.90 0.1534
859.00 0.1533
859.10 0.1533
859.20 0.1532
859.30 0.1532
859.40 0.1531
859.50 0.153
859.60 0.153
859.70 0.1529
859.80 0.1528
859.90 0.1528
860.00 0.1527
860.10 0.1527
860.20 0.1526
860.30 0.1525
860.40 0.1525
860.50 0.1524
860.60 0.1523
860.70 0.1523
860.80 0.1522
860.90 0.1522
861.00 0.1521
861.10 0.152
861.20 0.152
861.30 0.1519
861.40 0.1518
861.50 0.1518
861.60 0.1517
861.70 0.1516
861.80 0.1516
861.90 0.1515
862.00 0.1515
862.10 0.1514
862.20 0.1513
862.30 0.1513
862.40 0.1512
862.50 0.1511
862.60 0.1511
862.70 0.151
862.80 0.1509
862.90 0.1509
863.00 0.1508
863.10 0.1507
863.20 0.1507
863.30 0.1506
863.40 0.1505
863.50 0.1505
863.60 0.1504
863.70 0.1503
863.80 0.1503
863.90 0.1502
864.00 0.1501
864.10 0.1501
864.20 0.15
864.30 0.1499
864.40 0.1499
864.50 0.1498
864.60 0.1497
864.70 0.1497
864.80 0.1496
864.90 0.1495
865.00 0.1495
865.10 0.1494
865.20 0.1493
865.30 0.1493
865.40 0.1492
865.50 0.1491
865.60 0.1491
865.70 0.149
865.80 0.1489
865.90 0.1489
866.00 0.1488
866.10 0.1487
866.20 0.1487
866.30 0.1486
866.40 0.1485
866.50 0.1485
866.60 0.1484
866.70 0.1483
866.80 0.1483
866.90 0.1482
867.00 0.1481
867.10 0.1481
867.20 0.148
867.30 0.1479
867.40 0.1479
867.50 0.1478
867.60 0.1477
867.70 0.1477
867.80 0.1476
867.90 0.1476
868.00 0.1475
868.10 0.1474
868.20 0.1474
868.30 0.1473
868.40 0.1472
868.50 0.1472
868.60 0.1471
868.70 0.1471
868.80 0.147
868.90 0.1469
869.00 0.1469
869.10 0.1468
869.20 0.1467
869.30 0.1467
869.40 0.1466
869.50 0.1466
869.60 0.1465
869.70 0.1464
869.80 0.1464
869.90 0.1463
870.00 0.1462
870.10 0.1462
870.20 0.1461
870.30 0.146
870.40 0.146
870.50 0.1459
870.60 0.1459
870.70 0.1458
870.80 0.1457
870.90 0.1457
871.00 0.1456
871.10 0.1455
871.20 0.1455
871.30 0.1454
871.40 0.1454
871.50 0.1453
871.60 0.1452
871.70 0.1452
871.80 0.1451
871.90 0.1451
872.00 0.145
872.10 0.1449
872.20 0.1449
872.30 0.1448
872.40 0.1447
872.50 0.1447
872.60 0.1446
872.70 0.1445
872.80 0.1445
872.90 0.1444
873.00 0.1444
873.10 0.1443
873.20 0.1442
873.30 0.1442
873.40 0.1441
873.50 0.144
873.60 0.144
873.70 0.1439
873.80 0.1439
873.90 0.1438
874.00 0.1437
874.10 0.1437
874.20 0.1436
874.30 0.1435
874.40 0.1435
874.50 0.1434
874.60 0.1434
874.70 0.1433
874.80 0.1432
874.90 0.1432
875.00 0.1431
875.10 0.1431
875.20 0.143
875.30 0.1429
875.40 0.1429
875.50 0.1428
875.60 0.1427
875.70 0.1427
875.80 0.1426
875.90 0.1426
876.00 0.1425
876.10 0.1424
876.20 0.1424
876.30 0.1423
876.40 0.1422
876.50 0.1422
876.60 0.1421
876.70 0.1421
876.80 0.142
876.90 0.1419
877.00 0.1419
877.10 0.1418
877.20 0.1418
877.30 0.1417
877.40 0.1416
877.50 0.1416
877.60 0.1415
877.70 0.1415
877.80 0.1414
877.90 0.1413
878.00 0.1413
878.10 0.1412
878.20 0.1412
878.30 0.1411
878.40 0.141
878.50 0.141
878.60 0.1409
878.70 0.1409
878.80 0.1408
878.90 0.1407
879.00 0.1407
879.10 0.1406
879.20 0.1406
879.30 0.1405
879.40 0.1405
879.50 0.1404
879.60 0.1403
879.70 0.1403
879.80 0.1402
879.90 0.1402
880.00 0.1401
880.10 0.14
880.20 0.14
880.30 0.1399
880.40 0.1399
880.50 0.1398
880.60 0.1397
880.70 0.1397
880.80 0.1396
880.90 0.1396
881.00 0.1395
881.10 0.1394
881.20 0.1394
881.30 0.1393
881.40 0.1393
881.50 0.1392
881.60 0.1392
881.70 0.1391
881.80 0.139
881.90 0.139
882.00 0.1389
882.10 0.1389
882.20 0.1388
882.30 0.1387
882.40 0.1387
882.50 0.1386
882.60 0.1386
882.70 0.1385
882.80 0.1384
882.90 0.1384
883.00 0.1383
883.10 0.1383
883.20 0.1382
883.30 0.1382
883.40 0.1381
883.50 0.138
883.60 0.138
883.70 0.1379
883.80 0.1379
883.90 0.1378
884.00 0.1377
884.10 0.1377
884.20 0.1376
884.30 0.1376
884.40 0.1375
884.50 0.1375
884.60 0.1374
884.70 0.1373
884.80 0.1373
884.90 0.1372
885.00 0.1372
885.10 0.1371
885.20 0.137
885.30 0.137
885.40 0.1369
885.50 0.1369
885.60 0.1368
885.70 0.1368
885.80 0.1367
885.90 0.1366
886.00 0.1366
886.10 0.1365
886.20 0.1365
886.30 0.1364
886.40 0.1364
886.50 0.1363
886.60 0.1362
886.70 0.1362
886.80 0.1361
886.90 0.1361
887.00 0.136
887.10 0.136
887.20 0.1359
887.30 0.1358
887.40 0.1358
887.50 0.1357
887.60 0.1357
887.70 0.1356
887.80 0.1356
887.90 0.1355
888.00 0.1355
888.10 0.1354
888.20 0.1353
888.30 0.1353
888.40 0.1352
888.50 0.1352
888.60 0.1351
888.70 0.1351
888.80 0.135
888.90 0.135
889.00 0.1349
889.10 0.1348
889.20 0.1348
889.30 0.1347
889.40 0.1347
889.50 0.1346
889.60 0.1346
889.70 0.1345
889.80 0.1345
889.90 0.1344
890.00 0.1343
890.10 0.1343
890.20 0.1342
890.30 0.1342
890.40 0.1341
890.50 0.1341
890.60 0.134
890.70 0.134
890.80 0.1339
890.90 0.1338
891.00 0.1338
891.10 0.1337
891.20 0.1337
891.30 0.1336
891.40 0.1336
891.50 0.1335
891.60 0.1335
891.70 0.1334
891.80 0.1334
891.90 0.1333
892.00 0.1332
892.10 0.1332
892.20 0.1331
892.30 0.1331
892.40 0.133
892.50 0.133
892.60 0.1329
892.70 0.1329
892.80 0.1328
892.90 0.1327
893.00 0.1327
893.10 0.1326
893.20 0.1326
893.30 0.1325
893.40 0.1325
893.50 0.1324
893.60 0.1324
893.70 0.1323
893.80 0.1323
893.90 0.1322
894.00 0.1321
894.10 0.1321
894.20 0.132
894.30 0.132
894.40 0.1319
894.50 0.1319
894.60 0.1318
894.70 0.1318
894.80 0.1317
894.90 0.1317
895.00 0.1316
895.10 0.1315
895.20 0.1315
895.30 0.1314
895.40 0.1314
895.50 0.1313
895.60 0.1313
895.70 0.1312
895.80 0.1312
895.90 0.1311
896.00 0.1311
896.10 0.131
896.20 0.131
896.30 0.1309
896.40 0.1308
896.50 0.1308
896.60 0.1307
896.70 0.1307
896.80 0.1306
896.90 0.1306
897.00 0.1305
897.10 0.1305
897.20 0.1304
897.30 0.1304
897.40 0.1303
897.50 0.1303
897.60 0.1302
897.70 0.1301
897.80 0.1301
897.90 0.13
898.00 0.13
898.10 0.1299
898.20 0.1299
898.30 0.1298
898.40 0.1298
898.50 0.1297
898.60 0.1297
898.70 0.1296
898.80 0.1296
898.90 0.1295
899.00 0.1294
899.10 0.1294
899.20 0.1293
899.30 0.1293
899.40 0.1292
899.50 0.1292
899.60 0.1291
899.70 0.1291
899.80 0.129
899.90 0.129
900.00 0.1289
900.10 0.1289
900.20 0.1288
900.30 0.1288
900.40 0.1287
900.50 0.1286
900.60 0.1286
900.70 0.1285
900.80 0.1285
900.90 0.1284
901.00 0.1284
901.10 0.1283
901.20 0.1283
901.30 0.1282
901.40 0.1282
901.50 0.1281
901.60 0.1281
901.70 0.128
901.80 0.128
901.90 0.1279
902.00 0.1279
902.10 0.1278
902.20 0.1278
902.30 0.1277
902.40 0.1277
902.50 0.1276
902.60 0.1276
902.70 0.1275
902.80 0.1275
902.90 0.1274
903.00 0.1274
903.10 0.1273
903.20 0.1273
903.30 0.1272
903.40 0.1272
903.50 0.1271
903.60 0.1271
903.70 0.127
903.80 0.127
903.90 0.1269
904.00 0.1269
904.10 0.1268
904.20 0.1268
904.30 0.1267
904.40 0.1267
904.50 0.1266
904.60 0.1266
904.70 0.1265
904.80 0.1265
904.90 0.1264
905.00 0.1264
905.10 0.1263
905.20 0.1263
905.30 0.1262
905.40 0.1262
905.50 0.1261
905.60 0.1261
905.70 0.126
905.80 0.126
905.90 0.1259
906.00 0.1259
906.10 0.1258
906.20 0.1258
906.30 0.1257
906.40 0.1257
906.50 0.1256
906.60 0.1256
906.70 0.1255
906.80 0.1255
906.90 0.1254
907.00 0.1254
907.10 0.1253
907.20 0.1253
907.30 0.1252
907.40 0.1252
907.50 0.1251
907.60 0.1251
907.70 0.125
907.80 0.125
907.90 0.1249
908.00 0.1249
908.10 0.1248
908.20 0.1248
908.30 0.1247
908.40 0.1247
908.50 0.1246
908.60 0.1246
908.70 0.1245
908.80 0.1245
908.90 0.1244
909.00 0.1244
909.10 0.1243
909.20 0.1243
909.30 0.1242
909.40 0.1242
909.50 0.1241
909.60 0.1241
909.70 0.124
909.80 0.124
909.90 0.1239
910.00 0.1239
910.10 0.1238
910.20 0.1238
910.30 0.1237
910.40 0.1237
910.50 0.1236
910.60 0.1236
910.70 0.1235
910.80 0.1235
910.90 0.1234
911.00 0.1234
911.10 0.1234
911.20 0.1233
911.30 0.1233
911.40 0.1232
911.50 0.1232
911.60 0.1231
911.70 0.1231
911.80 0.123
911.90 0.123
912.00 0.1229
912.10 0.1229
912.20 0.1228
912.30 0.1228
912.40 0.1227
912.50 0.1227
912.60 0.1226
912.70 0.1226
912.80 0.1225
912.90 0.1225
913.00 0.1224
913.10 0.1224
913.20 0.1223
913.30 0.1223
913.40 0.1222
913.50 0.1222
913.60 0.1221
913.70 0.1221
913.80 0.122
913.90 0.122
914.00 0.1219
914.10 0.1219
914.20 0.1218
914.30 0.1218
914.40 0.1217
914.50 0.1217
914.60 0.1216
914.70 0.1216
914.80 0.1215
914.90 0.1215
915.00 0.1214
915.10 0.1214
915.20 0.1213
915.30 0.1213
915.40 0.1212
915.50 0.1212
915.60 0.1211
915.70 0.1211
915.80 0.121
915.90 0.121
916.00 0.1209
916.10 0.1209
916.20 0.1208
916.30 0.1208
916.40 0.1207
916.50 0.1207
916.60 0.1206
916.70 0.1206
916.80 0.1205
916.90 0.1205
917.00 0.1204
917.10 0.1204
917.20 0.1203
917.30 0.1203
917.40 0.1202
917.50 0.1202
917.60 0.1201
917.70 0.1201
917.80 0.12
917.90 0.12
918.00 0.1199
918.10 0.1199
918.20 0.1198
918.30 0.1198
918.40 0.1197
918.50 0.1197
918.60 0.1196
918.70 0.1196
918.80 0.1195
918.90 0.1195
919.00 0.1194
919.10 0.1194
919.20 0.1194
919.30 0.1193
919.40 0.1193
919.50 0.1192
919.60 0.1192
919.70 0.1191
919.80 0.1191
919.90 0.119
920.00 0.119
920.10 0.1189
920.20 0.1189
920.30 0.1188
920.40 0.1188
920.50 0.1187
920.60 0.1187
920.70 0.1186
920.80 0.1186
920.90 0.1185
921.00 0.1185
921.10 0.1184
921.20 0.1184
921.30 0.1183
921.40 0.1183
921.50 0.1182
921.60 0.1182
921.70 0.1181
921.80 0.1181
921.90 0.118
922.00 0.118
922.10 0.1179
922.20 0.1179
922.30 0.1179
922.40 0.1178
922.50 0.1178
922.60 0.1177
922.70 0.1177
922.80 0.1176
922.90 0.1176
923.00 0.1176
923.10 0.1175
923.20 0.1175
923.30 0.1174
923.40 0.1174
923.50 0.1173
923.60 0.1173
923.70 0.1173
923.80 0.1172
923.90 0.1172
924.00 0.1171
924.10 0.1171
924.20 0.117
924.30 0.117
924.40 0.117
924.50 0.1169
924.60 0.1169
924.70 0.1168
924.80 0.1168
924.90 0.1168
925.00 0.1167
925.10 0.1167
925.20 0.1166
925.30 0.1166
925.40 0.1165
925.50 0.1165
925.60 0.1165
925.70 0.1164
925.80 0.1164
925.90 0.1163
926.00 0.1163
926.10 0.1162
926.20 0.1162
926.30 0.1162
926.40 0.1161
926.50 0.1161
926.60 0.116
926.70 0.116
926.80 0.1159
926.90 0.1159
927.00 0.1159
927.10 0.1158
927.20 0.1158
927.30 0.1157
927.40 0.1157
927.50 0.1157
927.60 0.1156
927.70 0.1156
927.80 0.1155
927.90 0.1155
928.00 0.1155
928.10 0.1154
928.20 0.1154
928.30 0.1153
928.40 0.1153
928.50 0.1152
928.60 0.1152
928.70 0.1152
928.80 0.1151
928.90 0.1151
929.00 0.115
929.10 0.115
929.20 0.115
929.30 0.1149
929.40 0.1149
929.50 0.1148
929.60 0.1148
929.70 0.1148
929.80 0.1147
929.90 0.1147
930.00 0.1146
930.10 0.1146
930.20 0.1145
930.30 0.1145
930.40 0.1145
930.50 0.1144
930.60 0.1144
930.70 0.1143
930.80 0.1143
930.90 0.1143
931.00 0.1142
931.10 0.1142
931.20 0.1141
931.30 0.1141
931.40 0.1141
931.50 0.114
931.60 0.114
931.70 0.1139
931.80 0.1139
931.90 0.1139
932.00 0.1138
932.10 0.1138
932.20 0.1137
932.30 0.1137
932.40 0.1136
932.50 0.1136
932.60 0.1136
932.70 0.1135
932.80 0.1135
932.90 0.1134
933.00 0.1134
933.10 0.1133
933.20 0.1133
933.30 0.1133
933.40 0.1132
933.50 0.1132
933.60 0.1131
933.70 0.1131
933.80 0.1131
933.90 0.113
934.00 0.113
934.10 0.1129
934.20 0.1129
934.30 0.1128
934.40 0.1128
934.50 0.1128
934.60 0.1127
934.70 0.1127
934.80 0.1126
934.90 0.1126
935.00 0.1125
935.10 0.1125
935.20 0.1125
935.30 0.1124
935.40 0.1124
935.50 0.1123
935.60 0.1123
935.70 0.1122
935.80 0.1122
935.90 0.1122
936.00 0.1121
936.10 0.1121
936.20 0.112
936.30 0.112
936.40 0.1119
936.50 0.1119
936.60 0.1119
936.70 0.1118
936.80 0.1118
936.90 0.1117
937.00 0.1117
937.10 0.1116
937.20 0.1116
937.30 0.1116
937.40 0.1115
937.50 0.1115
937.60 0.1114
937.70 0.1114
937.80 0.1113
937.90 0.1113
938.00 0.1112
938.10 0.1112
938.20 0.1112
938.30 0.1111
938.40 0.1111
938.50 0.111
938.60 0.111
938.70 0.1109
938.80 0.1109
938.90 0.1108
939.00 0.1108
939.10 0.1108
939.20 0.1107
939.30 0.1107
939.40 0.1106
939.50 0.1106
939.60 0.1105
939.70 0.1105
939.80 0.1104
939.90 0.1104
940.00 0.1104
940.10 0.1103
940.20 0.1103
940.30 0.1102
940.40 0.1102
940.50 0.1101
940.60 0.1101
940.70 0.11
940.80 0.11
940.90 0.1099
941.00 0.1099
941.10 0.1099
941.20 0.1098
941.30 0.1098
941.40 0.1097
941.50 0.1097
941.60 0.1096
941.70 0.1096
941.80 0.1095
941.90 0.1095
942.00 0.1095
942.10 0.1094
942.20 0.1094
942.30 0.1093
942.40 0.1093
942.50 0.1092
942.60 0.1092
942.70 0.1091
942.80 0.1091
942.90 0.109
943.00 0.109
943.10 0.1089
943.20 0.1089
943.30 0.1088
943.40 0.1088
943.50 0.1088
943.60 0.1087
943.70 0.1087
943.80 0.1086
943.90 0.1086
944.00 0.1085
944.10 0.1085
944.20 0.1084
944.30 0.1084
944.40 0.1083
944.50 0.1083
944.60 0.1082
944.70 0.1082
944.80 0.1082
944.90 0.1081
945.00 0.1081
945.10 0.108
945.20 0.108
945.30 0.1079
945.40 0.1079
945.50 0.1078
945.60 0.1078
945.70 0.1077
945.80 0.1077
945.90 0.1076
946.00 0.1076
946.10 0.1075
946.20 0.1075
946.30 0.1074
946.40 0.1074
946.50 0.1073
946.60 0.1073
946.70 0.1073
946.80 0.1072
946.90 0.1072
947.00 0.1071
947.10 0.1071
947.20 0.107
947.30 0.107
947.40 0.1069
947.50 0.1069
947.60 0.1068
947.70 0.1068
947.80 0.1067
947.90 0.1067
948.00 0.1066
948.10 0.1066
948.20 0.1065
948.30 0.1065
948.40 0.1064
948.50 0.1064
948.60 0.1063
948.70 0.1063
948.80 0.1062
948.90 0.1062
949.00 0.1061
949.10 0.1061
949.20 0.106
949.30 0.106
949.40 0.106
949.50 0.1059
949.60 0.1059
949.70 0.1058
949.80 0.1058
949.90 0.1057
950.00 0.1057
950.10 0.1056
950.20 0.1056
950.30 0.1055
950.40 0.1055
950.50 0.1054
950.60 0.1054
950.70 0.1053
950.80 0.1053
950.90 0.1052
951.00 0.1052
951.10 0.1051
951.20 0.1051
951.30 0.105
951.40 0.105
951.50 0.1049
951.60 0.1049
951.70 0.1048
951.80 0.1048
951.90 0.1047
952.00 0.1047
952.10 0.1046
952.20 0.1046
952.30 0.1045
952.40 0.1045
952.50 0.1044
952.60 0.1044
952.70 0.1043
952.80 0.1043
952.90 0.1043
953.00 0.1042
953.10 0.1042
953.20 0.1041
953.30 0.1041
953.40 0.104
953.50 0.104
953.60 0.1039
953.70 0.1039
953.80 0.1038
953.90 0.1038
954.00 0.1037
954.10 0.1037
954.20 0.1037
954.30 0.1036
954.40 0.1036
954.50 0.1035
954.60 0.1035
954.70 0.1035
954.80 0.1034
954.90 0.1034
955.00 0.1034
955.10 0.1033
955.20 0.1033
955.30 0.1033
955.40 0.1032
955.50 0.1032
955.60 0.1032
955.70 0.1032
955.80 0.1031
955.90 0.1031
956.00 0.1031
956.10 0.103
956.20 0.103
956.30 0.103
956.40 0.103
956.50 0.1029
956.60 0.1029
956.70 0.1029
956.80 0.1029
956.90 0.1028
957.00 0.1028
957.10 0.1028
957.20 0.1028
957.30 0.1027
957.40 0.1027
957.50 0.1027
957.60 0.1026
957.70 0.1026
957.80 0.1026
957.90 0.1026
958.00 0.1025
958.10 0.1025
958.20 0.1025
958.30 0.1025
958.40 0.1024
958.50 0.1024
958.60 0.1024
958.70 0.1024
958.80 0.1023
958.90 0.1023
959.00 0.1023
959.10 0.1023
959.20 0.1022
959.30 0.1022
959.40 0.1022
959.50 0.1021
959.60 0.1021
959.70 0.1021
959.80 0.1021
959.90 0.102
960.00 0.102
960.10 0.102
960.20 0.102
960.30 0.1019
960.40 0.1019
960.50 0.1019
960.60 0.1019
960.70 0.1018
960.80 0.1018
960.90 0.1018
961.00 0.1017
961.10 0.1017
961.20 0.1017
961.30 0.1017
961.40 0.1016
961.50 0.1016
961.60 0.1016
961.70 0.1016
961.80 0.1015
961.90 0.1015
962.00 0.1015
962.10 0.1014
962.20 0.1014
962.30 0.1014
962.40 0.1014
962.50 0.1013
962.60 0.1013
962.70 0.1013
962.80 0.1012
962.90 0.1012
963.00 0.1012
963.10 0.1012
963.20 0.1011
963.30 0.1011
963.40 0.1011
963.50 0.101
963.60 0.101
963.70 0.101
963.80 0.101
963.90 0.1009
964.00 0.1009
964.10 0.1009
964.20 0.1008
964.30 0.1008
964.40 0.1008
964.50 0.1008
964.60 0.1007
964.70 0.1007
964.80 0.1007
964.90 0.1006
965.00 0.1006
965.10 0.1006
965.20 0.1005
965.30 0.1005
965.40 0.1005
965.50 0.1005
965.60 0.1004
965.70 0.1004
965.80 0.1004
965.90 0.1003
966.00 0.1003
966.10 0.1003
966.20 0.1002
966.30 0.1002
966.40 0.1002
966.50 0.1002
966.60 0.1001
966.70 0.1001
966.80 0.1001
966.90 0.1
967.00 0.1
967.10 0.09997
967.20 0.09994
967.30 0.09991
967.40 0.09987
967.50 0.09984
967.60 0.09981
967.70 0.09978
967.80 0.09975
967.90 0.09972
968.00 0.09969
968.10 0.09965
968.20 0.09962
968.30 0.09959
968.40 0.09956
968.50 0.09953
968.60 0.09949
968.70 0.09946
968.80 0.09943
968.90 0.0994
969.00 0.09936
969.10 0.09933
969.20 0.0993
969.30 0.09927
969.40 0.09923
969.50 0.0992
969.60 0.09917
969.70 0.09914
969.80 0.0991
969.90 0.09907
970.00 0.09904
970.10 0.09901
970.20 0.09897
970.30 0.09894
970.40 0.09891
970.50 0.09887
970.60 0.09884
970.70 0.09881
970.80 0.09877
970.90 0.09874
971.00 0.0987
971.10 0.09867
971.20 0.09864
971.30 0.0986
971.40 0.09857
971.50 0.09853
971.60 0.0985
971.70 0.09847
971.80 0.09843
971.90 0.0984
972.00 0.09837
972.10 0.09833
972.20 0.0983
972.30 0.09826
972.40 0.09823
972.50 0.09819
972.60 0.09816
972.70 0.09812
972.80 0.09809
972.90 0.09805
973.00 0.09801
973.10 0.09798
973.20 0.09794
973.30 0.09791
973.40 0.09787
973.50 0.09784
973.60 0.0978
973.70 0.09777
973.80 0.09773
973.90 0.0977
974.00 0.09766
974.10 0.09763
974.20 0.09759
974.30 0.09756
974.40 0.09752
974.50 0.09749
974.60 0.09745
974.70 0.09741
974.80 0.09738
974.90 0.09734
975.00 0.0973
975.10 0.09726
975.20 0.09723
975.30 0.09719
975.40 0.09715
975.50 0.09712
975.60 0.09708
975.70 0.09704
975.80 0.09701
975.90 0.09697
976.00 0.09693
976.10 0.0969
976.20 0.09686
976.30 0.09682
976.40 0.09679
976.50 0.09675
976.60 0.09671
976.70 0.09668
976.80 0.09664
976.90 0.0966
977.00 0.09657
977.10 0.09653
977.20 0.09649
977.30 0.09645
977.40 0.09641
977.50 0.09637
977.60 0.09633
977.70 0.09629
977.80 0.09625
977.90 0.09621
978.00 0.09617
978.10 0.09613
978.20 0.09609
978.30 0.09605
978.40 0.09601
978.50 0.09597
978.60 0.09593
978.70 0.0959
978.80 0.09586
978.90 0.09582
979.00 0.09578
979.10 0.09574
979.20 0.0957
979.30 0.09566
979.40 0.09562
979.50 0.09558
979.60 0.09554
979.70 0.0955
979.80 0.09546
979.90 0.09542
980.00 0.09538
980.10 0.09534
980.20 0.0953
980.30 0.09527
980.40 0.09523
980.50 0.09519
980.60 0.09515
980.70 0.09511
980.80 0.09507
980.90 0.09503
981.00 0.09499
981.10 0.09495
981.20 0.09491
981.30 0.09487
981.40 0.09483
981.50 0.0948
981.60 0.09476
981.70 0.09472
981.80 0.09468
981.90 0.09464
982.00 0.0946
982.10 0.09456
982.20 0.09452
982.30 0.09447
982.40 0.09443
982.50 0.09439
982.60 0.09435
982.70 0.0943
982.80 0.09426
982.90 0.09422
983.00 0.09418
983.10 0.09414
983.20 0.09409
983.30 0.09405
983.40 0.09401
983.50 0.09397
983.60 0.09393
983.70 0.09388
983.80 0.09384
983.90 0.0938
984.00 0.09376
984.10 0.09371
984.20 0.09367
984.30 0.09363
984.40 0.09359
984.50 0.09355
984.60 0.09351
984.70 0.09346
984.80 0.09342
984.90 0.09337
985.00 0.09333
985.10 0.09328
985.20 0.09324
985.30 0.0932
985.40 0.09315
985.50 0.09311
985.60 0.09306
985.70 0.09302
985.80 0.09298
985.90 0.09293
986.00 0.09289
986.10 0.09284
986.20 0.0928
986.30 0.09275
986.40 0.09271
986.50 0.09267
986.60 0.09262
986.70 0.09258
986.80 0.09253
986.90 0.09249
987.00 0.09245
987.10 0.0924
987.20 0.09236
987.30 0.09231
987.40 0.09226
987.50 0.09222
987.60 0.09217
987.70 0.09213
987.80 0.09208
987.90 0.09203
988.00 0.09199
988.10 0.09194
988.20 0.0919
988.30 0.09185
988.40 0.09181
988.50 0.09176
988.60 0.09171
988.70 0.09167
988.80 0.09162
988.90 0.09157
989.00 0.09152
989.10 0.09148
989.20 0.09143
989.30 0.09138
989.40 0.09133
989.50 0.09129
989.60 0.09124
989.70 0.09119
989.80 0.09114
989.90 0.0911
990.00 0.09105
990.10 0.091
990.20 0.09096
990.30 0.09091
990.40 0.09086
990.50 0.09081
990.60 0.09077
990.70 0.09072
990.80 0.09067
990.90 0.09062
991.00 0.09057
991.10 0.09052
991.20 0.09047
991.30 0.09042
991.40 0.09037
991.50 0.09033
991.60 0.09028
991.70 0.09023
991.80 0.09018
991.90 0.09013
992.00 0.09008
992.10 0.09003
992.20 0.08998
992.30 0.08993
992.40 0.08988
992.50 0.08983
992.60 0.08978
992.70 0.08973
992.80 0.08968
992.90 0.08963
993.00 0.08958
993.10 0.08953
993.20 0.08947
993.30 0.08942
993.40 0.08937
993.50 0.08932
993.60 0.08927
993.70 0.08922
993.80 0.08917
993.90 0.08912
994.00 0.08907
994.10 0.08901
994.20 0.08896
994.30 0.08891
994.40 0.08886
994.50 0.08881
994.60 0.08876
994.70 0.08871
994.80 0.08865
994.90 0.0886
995.00 0.08855
995.10 0.0885
995.20 0.08844
995.30 0.08839
995.40 0.08834
995.50 0.08829
995.60 0.08823
995.70 0.08818
995.80 0.08813
995.90 0.08807
996.00 0.08802
996.10 0.08797
996.20 0.08791
996.30 0.08786
996.40 0.08781
996.50 0.08775
996.60 0.0877
996.70 0.08765
996.80 0.08759
996.90 0.08754
997.00 0.08749
997.10 0.08743
997.20 0.08738
997.30 0.08732
997.40 0.08727
997.50 0.08721
997.60 0.08716
997.70 0.08711
997.80 0.08705
997.90 0.087
998.00 0.08694
998.10 0.08689
998.20 0.08683
998.30 0.08678
998.40 0.08672
998.50 0.08667
998.60 0.08661
998.70 0.08656
998.80 0.0865
998.90 0.08645
999.00 0.08639
999.10 0.08634
999.20 0.08628
999.30 0.08623
999.40 0.08617
999.50 0.08612
999.60 0.08606
999.70 0.08601
999.80 0.08595
999.90 0.0859
1000.00 0.08585
1000.10 0.08579
1000.20 0.08574
1000.30 0.08568
1000.40 0.08563
1000.50 0.08558
1000.60 0.08552
1000.70 0.08547
1000.80 0.08541
1000.90 0.08536
1001.00 0.08531
1001.10 0.08525
1001.20 0.0852
1001.30 0.08514
1001.40 0.08509
1001.50 0.08504
1001.60 0.08498
1001.70 0.08493
1001.80 0.08488
1001.90 0.08482
1002.00 0.08477
1002.10 0.08472
1002.20 0.08467
1002.30 0.08462
1002.40 0.08457
1002.50 0.08452
1002.60 0.08447
1002.70 0.08442
1002.80 0.08437
1002.90 0.08432
1003.00 0.08427
1003.10 0.08422
1003.20 0.08417
1003.30 0.08412
1003.40 0.08408
1003.50 0.08403
1003.60 0.08399
1003.70 0.08394
1003.80 0.0839
1003.90 0.08386
1004.00 0.08382
1004.10 0.08378
1004.20 0.08374
1004.30 0.08371
1004.40 0.08367
1004.50 0.08364
1004.60 0.08361
1004.70 0.08359
1004.80 0.08357
1004.90 0.08354
1005.00 0.08352
1005.10 0.08349
1005.20 0.08345
1005.30 0.08342
1005.40 0.08339
1005.50 0.08337
1005.60 0.08335
1005.70 0.08333
1005.80 0.08331
1005.90 0.08329
1006.00 0.08327
1006.10 0.08325
1006.20 0.08324
1006.30 0.08323
1006.40 0.08322
1006.50 0.08321
1006.60 0.0832
1006.70 0.08318
1006.80 0.08317
1006.90 0.08316
1007.00 0.08315
1007.10 0.08315
1007.20 0.08314
1007.30 0.08313
1007.40 0.08313
1007.50 0.08312
1007.60 0.08311
1007.70 0.08311
1007.80 0.0831
1007.90 0.0831
1008.00 0.08309
1008.10 0.08309
1008.20 0.08308
1008.30 0.08308
1008.40 0.08308
1008.50 0.08307
1008.60 0.08307
1008.70 0.08306
1008.80 0.08306
1008.90 0.08305
1009.00 0.08305
1009.10 0.08305
1009.20 0.08304
1009.30 0.08304
1009.40 0.08303
1009.50 0.08303
1009.60 0.08302
1009.70 0.08302
1009.80 0.08302
1009.90 0.08301
1010.00 0.08301
1010.10 0.08301
1010.20 0.083
1010.30 0.083
1010.40 0.08299
1010.50 0.08299
1010.60 0.08299
1010.70 0.08298
1010.80 0.08298
1010.90 0.08297
1011.00 0.08297
1011.10 0.08297
1011.20 0.08296
1011.30 0.08296
1011.40 0.08296
1011.50 0.08295
1011.60 0.08295
1011.70 0.08294
1011.80 0.08294
1011.90 0.08293
1012.00 0.08293
1012.10 0.08292
1012.20 0.08292
1012.30 0.08291
1012.40 0.08291
1012.50 0.0829
1012.60 0.0829
1012.70 0.08289
1012.80 0.08289
1012.90 0.08288
1013.00 0.08287
1013.10 0.08287
1013.20 0.08286
1013.30 0.08286
1013.40 0.08285
1013.50 0.08285
1013.60 0.08284
1013.70 0.08284
1013.80 0.08283
1013.90 0.08282
1014.00 0.08281
1014.10 0.08281
1014.20 0.0828
1014.30 0.08279
1014.40 0.08279
1014.50 0.08278
1014.60 0.08277
1014.70 0.08276
1014.80 0.08276
1014.90 0.08275
1015.00 0.08274
1015.10 0.08273
1015.20 0.08272
1015.30 0.08271
1015.40 0.0827
1015.50 0.0827
1015.60 0.08269
1015.70 0.08268
1015.80 0.08267
1015.90 0.08266
1016.00 0.08265
1016.10 0.08264
1016.20 0.08264
1016.30 0.08263
1016.40 0.08262
1016.50 0.08261
1016.60 0.0826
1016.70 0.08259
1016.80 0.08258
1016.90 0.08257
1017.00 0.08256
1017.10 0.08255
1017.20 0.08254
1017.30 0.08253
1017.40 0.08252
1017.50 0.08251
1017.60 0.0825
1017.70 0.08249
1017.80 0.08247
1017.90 0.08246
1018.00 0.08245
1018.10 0.08244
1018.20 0.08243
1018.30 0.08242
1018.40 0.08241
1018.50 0.0824
1018.60 0.08239
1018.70 0.08237
1018.80 0.08236
1018.90 0.08235
1019.00 0.08234
1019.10 0.08232
1019.20 0.08231
1019.30 0.0823
1019.40 0.08228
1019.50 0.08227
1019.60 0.08226
1019.70 0.08224
1019.80 0.08223
1019.90 0.08222
1020.00 0.08221
1020.10 0.08219
1020.20 0.08218
1020.30 0.08217
1020.40 0.08215
1020.50 0.08214
1020.60 0.08213
1020.70 0.08211
1020.80 0.0821
1020.90 0.08208
1021.00 0.08207
1021.10 0.08206
1021.20 0.08204
1021.30 0.08203
1021.40 0.08201
1021.50 0.082
1021.60 0.08198
1021.70 0.08197
1021.80 0.08195
1021.90 0.08194
1022.00 0.08192
1022.10 0.08191
1022.20 0.08189
1022.30 0.08187
1022.40 0.08186
1022.50 0.08184
1022.60 0.08183
1022.70 0.08181
1022.80 0.08179
1022.90 0.08178
1023.00 0.08176
1023.10 0.08174
1023.20 0.08173
1023.30 0.08171
1023.40 0.08169
1023.50 0.08168
1023.60 0.08166
1023.70 0.08165
1023.80 0.08163
1023.90 0.08161
1024.00 0.0816
1024.10 0.08158
1024.20 0.08156
1024.30 0.08155
1024.40 0.08153
1024.50 0.08151
1024.60 0.0815
1024.70 0.08148
1024.80 0.08146
1024.90 0.08144
1025.00 0.08142
1025.10 0.08141
1025.20 0.08139
1025.30 0.08137
1025.40 0.08135
1025.50 0.08133
1025.60 0.08131
1025.70 0.0813
1025.80 0.08128
1025.90 0.08126
1026.00 0.08124
1026.10 0.08122
1026.20 0.0812
1026.30 0.08119
1026.40 0.08117
1026.50 0.08115
1026.60 0.08113
1026.70 0.08111
1026.80 0.08109
1026.90 0.08108
1027.00 0.08106
1027.10 0.08104
1027.20 0.08102
1027.30 0.081
1027.40 0.08097
1027.50 0.08095
1027.60 0.08093
1027.70 0.08091
1027.80 0.08089
1027.90 0.08087
1028.00 0.08085
1028.10 0.08083
1028.20 0.08081
1028.30 0.08079
1028.40 0.08077
1028.50 0.08074
1028.60 0.08072
1028.70 0.0807
1028.80 0.08068
1028.90 0.08066
1029.00 0.08064
1029.10 0.08062
1029.20 0.0806
1029.30 0.08058
1029.40 0.08056
1029.50 0.08054
1029.60 0.08052
1029.70 0.0805
1029.80 0.08047
1029.90 0.08045
1030.00 0.08043
1030.10 0.08041
1030.20 0.08039
1030.30 0.08037
1030.40 0.08035
1030.50 0.08033
1030.60 0.08031
1030.70 0.08029
1030.80 0.08027
1030.90 0.08025
1031.00 0.08023
1031.10 0.08021
1031.20 0.08018
1031.30 0.08016
1031.40 0.08014
1031.50 0.08012
1031.60 0.0801
1031.70 0.08008
1031.80 0.08006
1031.90 0.08004
1032.00 0.08002
1032.10 0.08
1032.20 0.07997
1032.30 0.07995
1032.40 0.07993
1032.50 0.0799
1032.60 0.07988
1032.70 0.07985
1032.80 0.07983
1032.90 0.07981
1033.00 0.07978
1033.10 0.07976
1033.20 0.07974
1033.30 0.07971
1033.40 0.07969
1033.50 0.07967
1033.60 0.07964
1033.70 0.07962
1033.80 0.0796
1033.90 0.07957
1034.00 0.07955
1034.10 0.07953
1034.20 0.0795
1034.30 0.07948
1034.40 0.07946
1034.50 0.07943
1034.60 0.07941
1034.70 0.07939
1034.80 0.07936
1034.90 0.07934
1035.00 0.07932
1035.10 0.07929
1035.20 0.07927
1035.30 0.07925
1035.40 0.07922
1035.50 0.0792
1035.60 0.07918
1035.70 0.07915
1035.80 0.07913
1035.90 0.07911
1036.00 0.07908
1036.10 0.07906
1036.20 0.07904
1036.30 0.07901
1036.40 0.07899
1036.50 0.07897
1036.60 0.07894
1036.70 0.07892
1036.80 0.0789
1036.90 0.07887
1037.00 0.07885
1037.10 0.07882
1037.20 0.0788
1037.30 0.07877
1037.40 0.07875
1037.50 0.07872
1037.60 0.0787
1037.70 0.07867
1037.80 0.07865
1037.90 0.07862
1038.00 0.07859
1038.10 0.07857
1038.20 0.07854
1038.30 0.07852
1038.40 0.07849
1038.50 0.07847
1038.60 0.07844
1038.70 0.07842
1038.80 0.07839
1038.90 0.07837
1039.00 0.07834
1039.10 0.07831
1039.20 0.07829
1039.30 0.07826
1039.40 0.07824
1039.50 0.07821
1039.60 0.07819
1039.70 0.07816
1039.80 0.07814
1039.90 0.07811
1040.00 0.07809
1040.10 0.07806
1040.20 0.07803
1040.30 0.07801
1040.40 0.07798
1040.50 0.07796
1040.60 0.07793
1040.70 0.07791
1040.80 0.07788
1040.90 0.07786
1041.00 0.07783
1041.10 0.07781
1041.20 0.07778
1041.30 0.07776
1041.40 0.07773
1041.50 0.07771
1041.60 0.07768
1041.70 0.07766
1041.80 0.07763
1041.90 0.0776
1042.00 0.07758
1042.10 0.07755
1042.20 0.07752
1042.30 0.0775
1042.40 0.07747
1042.50 0.07744
1042.60 0.07742
1042.70 0.07739
1042.80 0.07736
1042.90 0.07733
1043.00 0.07731
1043.10 0.07728
1043.20 0.07725
1043.30 0.07722
1043.40 0.0772
1043.50 0.07717
1043.60 0.07714
1043.70 0.07712
1043.80 0.07709
1043.90 0.07706
1044.00 0.07703
1044.10 0.07701
1044.20 0.07698
1044.30 0.07695
1044.40 0.07693
1044.50 0.0769
1044.60 0.07687
1044.70 0.07684
1044.80 0.07682
1044.90 0.07679
1045.00 0.07676
1045.10 0.07674
1045.20 0.07671
1045.30 0.07668
1045.40 0.07665
1045.50 0.07663
1045.60 0.0766
1045.70 0.07657
1045.80 0.07655
1045.90 0.07652
1046.00 0.07649
1046.10 0.07647
1046.20 0.07644
1046.30 0.07641
1046.40 0.07638
1046.50 0.07636
1046.60 0.07633
1046.70 0.0763
1046.80 0.07628
1046.90 0.07625
1047.00 0.07622
1047.10 0.07619
1047.20 0.07616
1047.30 0.07614
1047.40 0.07611
1047.50 0.07608
1047.60 0.07605
1047.70 0.07602
1047.80 0.07599
1047.90 0.07596
1048.00 0.07593
1048.10 0.0759
1048.20 0.07588
1048.30 0.07585
1048.40 0.07582
1048.50 0.07579
1048.60 0.07576
1048.70 0.07573
1048.80 0.0757
1048.90 0.07567
1049.00 0.07564
1049.10 0.07562
1049.20 0.07559
1049.30 0.07556
1049.40 0.07553
1049.50 0.0755
1049.60 0.07547
1049.70 0.07544
1049.80 0.07541
1049.90 0.07539
1050.00 0.07536
1050.10 0.07533
1050.20 0.0753
1050.30 0.07527
1050.40 0.07524
1050.50 0.07521
1050.60 0.07518
1050.70 0.07516
1050.80 0.07513
1050.90 0.0751
1051.00 0.07507
1051.10 0.07504
1051.20 0.07501
1051.30 0.07498
1051.40 0.07496
1051.50 0.07493
1051.60 0.0749
1051.70 0.07487
1051.80 0.07484
1051.90 0.07481
1052.00 0.07478
1052.10 0.07475
1052.20 0.07472
1052.30 0.07469
1052.40 0.07466
1052.50 0.07463
1052.60 0.0746
1052.70 0.07457
1052.80 0.07454
1052.90 0.07451
1053.00 0.07448
1053.10 0.07445
1053.20 0.07442
1053.30 0.07439
1053.40 0.07436
1053.50 0.07433
1053.60 0.07429
1053.70 0.07426
1053.80 0.07423
1053.90 0.0742
1054.00 0.07417
1054.10 0.07414
1054.20 0.07411
1054.30 0.07408
1054.40 0.07405
1054.50 0.07402
1054.60 0.07399
1054.70 0.07396
1054.80 0.07393
1054.90 0.0739
1055.00 0.07387
1055.10 0.07384
1055.20 0.07381
1055.30 0.07378
1055.40 0.07375
1055.50 0.07372
1055.60 0.07369
1055.70 0.07366
1055.80 0.07363
1055.90 0.0736
1056.00 0.07356
1056.10 0.07353
1056.20 0.0735
1056.30 0.07347
1056.40 0.07344
1056.50 0.07341
1056.60 0.07338
1056.70 0.07335
1056.80 0.07332
1056.90 0.07329
1057.00 0.07326
1057.10 0.07323
1057.20 0.0732
1057.30 0.07316
1057.40 0.07313
1057.50 0.0731
1057.60 0.07307
1057.70 0.07303
1057.80 0.073
1057.90 0.07297
1058.00 0.07294
1058.10 0.0729
1058.20 0.07287
1058.30 0.07284
1058.40 0.07281
1058.50 0.07277
1058.60 0.07274
1058.70 0.07271
1058.80 0.07268
1058.90 0.07264
1059.00 0.07261
1059.10 0.07258
1059.20 0.07255
1059.30 0.07251
1059.40 0.07248
1059.50 0.07245
1059.60 0.07242
1059.70 0.07238
1059.80 0.07235
1059.90 0.07232
1060.00 0.07229
1060.10 0.07225
1060.20 0.07222
1060.30 0.07219
1060.40 0.07216
1060.50 0.07212
1060.60 0.07209
1060.70 0.07206
1060.80 0.07203
1060.90 0.07199
1061.00 0.07196
1061.10 0.07193
1061.20 0.0719
1061.30 0.07187
1061.40 0.07183
1061.50 0.0718
1061.60 0.07177
1061.70 0.07174
1061.80 0.0717
1061.90 0.07167
1062.00 0.07164
1062.10 0.07161
1062.20 0.07157
1062.30 0.07153
1062.40 0.0715
1062.50 0.07146
1062.60 0.07143
1062.70 0.07139
1062.80 0.07136
1062.90 0.07132
1063.00 0.07129
1063.10 0.07125
1063.20 0.07122
1063.30 0.07118
1063.40 0.07115
1063.50 0.07111
1063.60 0.07108
1063.70 0.07104
1063.80 0.07101
1063.90 0.07097
1064.00 0.07094
1064.10 0.0709
1064.20 0.07087
1064.30 0.07083
1064.40 0.0708
1064.50 0.07076
1064.60 0.07073
1064.70 0.07069
1064.80 0.07066
1064.90 0.07062
1065.00 0.07059
1065.10 0.07055
1065.20 0.07052
1065.30 0.07048
1065.40 0.07045
1065.50 0.07041
1065.60 0.07038
1065.70 0.07034
1065.80 0.07031
1065.90 0.07028
1066.00 0.07024
1066.10 0.07021
1066.20 0.07017
1066.30 0.07014
1066.40 0.0701
1066.50 0.07007
1066.60 0.07003
1066.70 0.07
1066.80 0.06996
1066.90 0.06993
1067.00 0.06989
1067.10 0.06985
1067.20 0.06982
1067.30 0.06978
1067.40 0.06974
1067.50 0.0697
1067.60 0.06966
1067.70 0.06962
1067.80 0.06959
1067.90 0.06955
1068.00 0.06951
1068.10 0.06947
1068.20 0.06943
1068.30 0.06939
1068.40 0.06936
1068.50 0.06932
1068.60 0.06928
1068.70 0.06924
1068.80 0.0692
1068.90 0.06916
1069.00 0.06913
1069.10 0.06909
1069.20 0.06905
1069.30 0.06901
1069.40 0.06897
1069.50 0.06894
1069.60 0.0689
1069.70 0.06886
1069.80 0.06882
1069.90 0.06878
1070.00 0.06875
1070.10 0.06871
1070.20 0.06867
1070.30 0.06863
1070.40 0.06859
1070.50 0.06856
1070.60 0.06852
1070.70 0.06848
1070.80 0.06844
1070.90 0.0684
1071.00 0.06837
1071.10 0.06833
1071.20 0.06829
1071.30 0.06825
1071.40 0.06821
1071.50 0.06818
1071.60 0.06814
1071.70 0.0681
1071.80 0.06806
1071.90 0.06802
1072.00 0.06799
1072.10 0.06795
1072.20 0.0679
1072.30 0.06786
1072.40 0.06782
1072.50 0.06778
1072.60 0.06774
1072.70 0.0677
1072.80 0.06766
1072.90 0.06762
1073.00 0.06758
1073.10 0.06754
1073.20 0.0675
1073.30 0.06746
1073.40 0.06742
1073.50 0.06738
1073.60 0.06733
1073.70 0.06729
1073.80 0.06725
1073.90 0.0672
1074.00 0.06716
1074.10 0.06712
1074.20 0.06707
1074.30 0.06703
1074.40 0.06699
1074.50 0.06694
1074.60 0.0669
1074.70 0.06686
1074.80 0.06681
1074.90 0.06677
1075.00 0.06673
1075.10 0.06669
1075.20 0.06664
1075.30 0.0666
1075.40 0.06656
1075.50 0.06651
1075.60 0.06647
1075.70 0.06643
1075.80 0.06638
1075.90 0.06634
1076.00 0.0663
1076.10 0.06626
1076.20 0.06621
1076.30 0.06617
1076.40 0.06613
1076.50 0.06608
1076.60 0.06604
1076.70 0.066
1076.80 0.06596
1076.90 0.06591
1077.00 0.06587
1077.10 0.06583
1077.20 0.06578
1077.30 0.06574
1077.40 0.06569
1077.50 0.06565
1077.60 0.0656
1077.70 0.06555
1077.80 0.06551
1077.90 0.06546
1078.00 0.06541
1078.10 0.06537
1078.20 0.06532
1078.30 0.06527
1078.40 0.06523
1078.50 0.06518
1078.60 0.06513
1078.70 0.06509
1078.80 0.06504
1078.90 0.065
1079.00 0.06495
1079.10 0.0649
1079.20 0.06486
1079.30 0.06481
1079.40 0.06476
1079.50 0.06472
1079.60 0.06467
1079.70 0.06462
1079.80 0.06457
1079.90 0.06452
1080.00 0.06447
1080.10 0.06442
1080.20 0.06438
1080.30 0.06433
1080.40 0.06428
1080.50 0.06423
1080.60 0.06418
1080.70 0.06413
1080.80 0.06408
1080.90 0.06403
1081.00 0.06399
1081.10 0.06394
1081.20 0.06389
1081.30 0.06384
1081.40 0.06379
1081.50 0.06374
1081.60 0.06369
1081.70 0.06364
1081.80 0.06359
1081.90 0.06354
1082.00 0.06349
1082.10 0.06344
1082.20 0.06339
1082.30 0.06334
1082.40 0.06328
1082.50 0.06323
1082.60 0.06318
1082.70 0.06313
1082.80 0.06308
1082.90 0.06303
1083.00 0.06297
1083.10 0.06292
1083.20 0.06287
1083.30 0.06282
1083.40 0.06277
1083.50 0.06272
1083.60 0.06266
1083.70 0.06261
1083.80 0.06256
1083.90 0.0625
1084.00 0.06245
1084.10 0.0624
1084.20 0.06234
1084.30 0.06229
1084.40 0.06224
1084.50 0.06218
1084.60 0.06213
1084.70 0.06207
1084.80 0.06201
1084.90 0.06196
1085.00 0.0619
1085.10 0.06185
1085.20 0.06179
1085.30 0.06173
1085.40 0.06168
1085.50 0.06162
1085.60 0.06157
1085.70 0.06151
1085.80 0.06146
1085.90 0.0614
1086.00 0.06135
1086.10 0.06129
1086.20 0.06123
1086.30 0.06118
1086.40 0.06112
1086.50 0.06107
1086.60 0.06101
1086.70 0.06095
1086.80 0.06089
1086.90 0.06084
1087.00 0.06078
1087.10 0.06072
1087.20 0.06066
1087.30 0.0606
1087.40 0.06054
1087.50 0.06048
1087.60 0.06042
1087.70 0.06036
1087.80 0.0603
1087.90 0.06024
1088.00 0.06018
1088.10 0.06012
1088.20 0.06006
1088.30 0.06
1088.40 0.05994
1088.50 0.05988
1088.60 0.05981
1088.70 0.05975
1088.80 0.05968
1088.90 0.05962
1089.00 0.05955
1089.10 0.05949
1089.20 0.05942
1089.30 0.05936
1089.40 0.05929
1089.50 0.05923
1089.60 0.05916
1089.70 0.0591
1089.80 0.05903
1089.90 0.05897
1090.00 0.0589
1090.10 0.05884
1090.20 0.05877
1090.30 0.05871
1090.40 0.05864
1090.50 0.05857
1090.60 0.0585
1090.70 0.05842
1090.80 0.05835
1090.90 0.05828
1091.00 0.0582
1091.10 0.05813
1091.20 0.05805
1091.30 0.05798
1091.40 0.0579
1091.50 0.05783
1091.60 0.05775
1091.70 0.05768
1091.80 0.05761
1091.90 0.05753
1092.00 0.05746
1092.10 0.05737
1092.20 0.05728
1092.30 0.0572
1092.40 0.05711
1092.50 0.05703
1092.60 0.05694
1092.70 0.05685
1092.80 0.05675
1092.90 0.05666
1093.00 0.05656
1093.10 0.05647
1093.20 0.05636
1093.30 0.05626
1093.40 0.05615
1093.50 0.05604
1093.60 0.05592
1093.70 0.05584
1093.80 0.05579
1093.90 0.05578
1094.00 0.05587
1094.10 0.05595
1094.20 0.05603
1094.30 0.05611
1094.40 0.05617
1094.50 0.05624
1094.60 0.0563
1094.70 0.05636
1094.80 0.05643
1094.90 0.05649
1095.00 0.05655
1095.10 0.05659
1095.20 0.05663
1095.30 0.05668
1095.40 0.05672
1095.50 0.05677
1095.60 0.05681
1095.70 0.05686
1095.80 0.0569
1095.90 0.05694
1096.00 0.05699
1096.10 0.05703
1096.20 0.05708
1096.30 0.05712
1096.40 0.05717
1096.50 0.05721
1096.60 0.05724
1096.70 0.05728
1096.80 0.05731
1096.90 0.05734
1097.00 0.05738
1097.10 0.05741
1097.20 0.05744
1097.30 0.05746
1097.40 0.05749
1097.50 0.05752
1097.60 0.05755
1097.70 0.05758
1097.80 0.05761
1097.90 0.05764
1098.00 0.05766
1098.10 0.05769
1098.20 0.05772
1098.30 0.05775
1098.40 0.05778
1098.50 0.0578
1098.60 0.05783
1098.70 0.05785
1098.80 0.05787
1098.90 0.05789
1099.00 0.05791
1099.10 0.05794
1099.20 0.05796
1099.30 0.05798
1099.40 0.058
1099.50 0.05802
1099.60 0.05805
1099.70 0.05807
1099.80 0.05809
1099.90 0.05811
1100.00 0.05813
1100.10 0.05815
1100.20 0.05818
1100.30 0.0582
1100.40 0.05822
1100.50 0.05824
1100.60 0.05826
1100.70 0.05828
1100.80 0.05829
1100.90 0.05831
1101.00 0.05833
1101.10 0.05834
1101.20 0.05836
1101.30 0.05838
1101.40 0.0584
1101.50 0.05841
1101.60 0.05843
1101.70 0.05845
1101.80 0.05847
1101.90 0.05848
1102.00 0.0585
1102.10 0.05851
1102.20 0.05853
1102.30 0.05854
1102.40 0.05856
1102.50 0.05857
1102.60 0.05859
1102.70 0.0586
1102.80 0.05862
1102.90 0.05863
1103.00 0.05864
1103.10 0.05866
1103.20 0.05867
1103.30 0.05868
1103.40 0.0587
1103.50 0.05871
1103.60 0.05872
1103.70 0.05873
1103.80 0.05874
1103.90 0.05875
1104.00 0.05876
1104.10 0.05877
1104.20 0.05878
1104.30 0.0588
1104.40 0.05881
1104.50 0.05882
1104.60 0.05883
1104.70 0.05884
1104.80 0.05885
1104.90 0.05886
1105.00 0.05887
1105.10 0.05888
1105.20 0.05889
1105.30 0.0589
1105.40 0.05891
1105.50 0.05892
1105.60 0.05893
1105.70 0.05894
1105.80 0.05895
1105.90 0.05896
1106.00 0.05896
1106.10 0.05897
1106.20 0.05898
1106.30 0.05899
1106.40 0.05899
1106.50 0.059
1106.60 0.05901
1106.70 0.05902
1106.80 0.05903
1106.90 0.05903
1107.00 0.05904
1107.10 0.05905
1107.20 0.05905
1107.30 0.05906
1107.40 0.05907
1107.50 0.05907
1107.60 0.05908
1107.70 0.05908
1107.80 0.05908
1107.90 0.05909
1108.00 0.05909
1108.10 0.0591
1108.20 0.0591
1108.30 0.05911
1108.40 0.05911
1108.50 0.05912
1108.60 0.05912
1108.70 0.05912
1108.80 0.05913
1108.90 0.05913
1109.00 0.05914
1109.10 0.05914
1109.20 0.05915
1109.30 0.05915
1109.40 0.05915
1109.50 0.05916
1109.60 0.05916
1109.70 0.05916
1109.80 0.05916
1109.90 0.05916
1110.00 0.05916
1110.10 0.05917
1110.20 0.05917
1110.30 0.05917
1110.40 0.05917
1110.50 0.05917
1110.60 0.05917
1110.70 0.05917
1110.80 0.05917
1110.90 0.05918
1111.00 0.05918
1111.10 0.05918
1111.20 0.05918
1111.30 0.05918
1111.40 0.05918
1111.50 0.05918
1111.60 0.05918
1111.70 0.05919
1111.80 0.05919
1111.90 0.05919
1112.00 0.05919
1112.10 0.05919
1112.20 0.05919
1112.30 0.05919
1112.40 0.05919
1112.50 0.05918
1112.60 0.05918
1112.70 0.05918
1112.80 0.05918
1112.90 0.05918
1113.00 0.05918
1113.10 0.05918
1113.20 0.05918
1113.30 0.05917
1113.40 0.05917
1113.50 0.05917
1113.60 0.05917
1113.70 0.05916
1113.80 0.05916
1113.90 0.05916
1114.00 0.05915
1114.10 0.05915
1114.20 0.05915
1114.30 0.05914
1114.40 0.05914
1114.50 0.05913
1114.60 0.05913
1114.70 0.05913
1114.80 0.05912
1114.90 0.05912
1115.00 0.05911
1115.10 0.05911
1115.20 0.05911
1115.30 0.0591
1115.40 0.0591
1115.50 0.0591
1115.60 0.05909
1115.70 0.05909
1115.80 0.05908
1115.90 0.05908
1116.00 0.05908
1116.10 0.05907
1116.20 0.05907
1116.30 0.05907
1116.40 0.05906
1116.50 0.05906
1116.60 0.05905
1116.70 0.05905
1116.80 0.05905
1116.90 0.05904
1117.00 0.05904
1117.10 0.05903
1117.20 0.05902
1117.30 0.05902
1117.40 0.05901
1117.50 0.059
1117.60 0.05899
1117.70 0.05899
1117.80 0.05898
1117.90 0.05897
1118.00 0.05896
1118.10 0.05896
1118.20 0.05895
1118.30 0.05894
1118.40 0.05893
1118.50 0.05893
1118.60 0.05892
1118.70 0.05891
1118.80 0.0589
1118.90 0.0589
1119.00 0.05889
1119.10 0.05888
1119.20 0.05888
1119.30 0.05887
1119.40 0.05886
1119.50 0.05885
1119.60 0.05885
1119.70 0.05884
1119.80 0.05883
1119.90 0.05882
1120.00 0.05882
1120.10 0.05881
1120.20 0.0588
1120.30 0.05879
1120.40 0.05879
1120.50 0.05878
1120.60 0.05877
1120.70 0.05876
1120.80 0.05876
1120.90 0.05875
1121.00 0.05874
1121.10 0.05873
1121.20 0.05873
1121.30 0.05872
1121.40 0.05871
1121.50 0.0587
1121.60 0.0587
1121.70 0.05869
1121.80 0.05868
1121.90 0.05867
1122.00 0.05867
1122.10 0.05866
1122.20 0.05865
1122.30 0.05864
1122.40 0.05862
1122.50 0.05861
1122.60 0.0586
1122.70 0.05859
1122.80 0.05858
1122.90 0.05857
1123.00 0.05856
1123.10 0.05855
1123.20 0.05854
1123.30 0.05853
1123.40 0.05852
1123.50 0.05851
1123.60 0.0585
1123.70 0.05849
1123.80 0.05848
1123.90 0.05847
1124.00 0.05845
1124.10 0.05844
1124.20 0.05843
1124.30 0.05842
1124.40 0.05841
1124.50 0.0584
1124.60 0.05839
1124.70 0.05838
1124.80 0.05837
1124.90 0.05836
1125.00 0.05835
1125.10 0.05834
1125.20 0.05833
1125.30 0.05832
1125.40 0.05831
1125.50 0.0583
1125.60 0.05828
1125.70 0.05827
1125.80 0.05826
1125.90 0.05825
1126.00 0.05824
1126.10 0.05823
1126.20 0.05822
1126.30 0.05821
1126.40 0.0582
1126.50 0.05819
1126.60 0.05818
1126.70 0.05817
1126.80 0.05816
1126.90 0.05815
1127.00 0.05814
1127.10 0.05812
1127.20 0.05811
1127.30 0.0581
1127.40 0.05809
1127.50 0.05807
1127.60 0.05806
1127.70 0.05805
1127.80 0.05803
1127.90 0.05802
1128.00 0.05801
1128.10 0.058
1128.20 0.05798
1128.30 0.05797
1128.40 0.05796
1128.50 0.05794
1128.60 0.05793
1128.70 0.05792
1128.80 0.05791
1128.90 0.05789
1129.00 0.05788
1129.10 0.05787
1129.20 0.05785
1129.30 0.05784
1129.40 0.05783
1129.50 0.05782
1129.60 0.0578
1129.70 0.05779
1129.80 0.05778
1129.90 0.05776
1130.00 0.05775
1130.10 0.05774
1130.20 0.05773
1130.30 0.05771
1130.40 0.0577
1130.50 0.05769
1130.60 0.05768
1130.70 0.05766
1130.80 0.05765
1130.90 0.05764
1131.00 0.05762
1131.10 0.05761
1131.20 0.0576
1131.30 0.05759
1131.40 0.05757
1131.50 0.05756
1131.60 0.05755
1131.70 0.05753
1131.80 0.05752
1131.90 0.05751
1132.00 0.0575
1132.10 0.05748
1132.20 0.05747
1132.30 0.05745
1132.40 0.05744
1132.50 0.05742
1132.60 0.05741
1132.70 0.0574
1132.80 0.05738
1132.90 0.05737
1133.00 0.05735
1133.10 0.05734
1133.20 0.05732
1133.30 0.05731
1133.40 0.0573
1133.50 0.05728
1133.60 0.05727
1133.70 0.05725
1133.80 0.05724
1133.90 0.05722
1134.00 0.05721
1134.10 0.05719
1134.20 0.05718
1134.30 0.05717
1134.40 0.05715
1134.50 0.05714
1134.60 0.05712
1134.70 0.05711
1134.80 0.05709
1134.90 0.05708
1135.00 0.05707
1135.10 0.05705
1135.20 0.05704
1135.30 0.05702
1135.40 0.05701
1135.50 0.05699
1135.60 0.05698
1135.70 0.05697
1135.80 0.05695
1135.90 0.05694
1136.00 0.05692
1136.10 0.05691
1136.20 0.05689
1136.30 0.05688
1136.40 0.05687
1136.50 0.05685
1136.60 0.05684
1136.70 0.05682
1136.80 0.05681
1136.90 0.0568
1137.00 0.05678
1137.10 0.05677
1137.20 0.05675
1137.30 0.05674
1137.40 0.05672
1137.50 0.0567
1137.60 0.05669
1137.70 0.05667
1137.80 0.05666
1137.90 0.05664
1138.00 0.05663
1138.10 0.05661
1138.20 0.0566
1138.30 0.05658
1138.40 0.05657
1138.50 0.05655
1138.60 0.05654
1138.70 0.05652
1138.80 0.0565
1138.90 0.05649
1139.00 0.05647
1139.10 0.05646
1139.20 0.05644
1139.30 0.05643
1139.40 0.05641
1139.50 0.0564
1139.60 0.05638
1139.70 0.05637
1139.80 0.05635
1139.90 0.05634
1140.00 0.05632
1140.10 0.05631
1140.20 0.05629
1140.30 0.05628
1140.40 0.05626
1140.50 0.05625
1140.60 0.05623
1140.70 0.05621
1140.80 0.0562
1140.90 0.05618
1141.00 0.05617
1141.10 0.05615
1141.20 0.05614
1141.30 0.05612
1141.40 0.05611
1141.50 0.05609
1141.60 0.05608
1141.70 0.05606
1141.80 0.05605
1141.90 0.05603
1142.00 0.05602
1142.10 0.056
1142.20 0.05598
1142.30 0.05597
1142.40 0.05595
1142.50 0.05594
1142.60 0.05592
1142.70 0.0559
1142.80 0.05589
1142.90 0.05587
1143.00 0.05586
1143.10 0.05584
1143.20 0.05583
1143.30 0.05581
1143.40 0.05579
1143.50 0.05578
1143.60 0.05576
1143.70 0.05575
1143.80 0.05573
1143.90 0.05571
1144.00 0.0557
1144.10 0.05568
1144.20 0.05567
1144.30 0.05565
1144.40 0.05563
1144.50 0.05562
1144.60 0.0556
1144.70 0.05559
1144.80 0.05557
1144.90 0.05555
1145.00 0.05554
1145.10 0.05552
1145.20 0.05551
1145.30 0.05549
1145.40 0.05547
1145.50 0.05546
1145.60 0.05544
1145.70 0.05543
1145.80 0.05541
1145.90 0.0554
1146.00 0.05538
1146.10 0.05536
1146.20 0.05535
1146.30 0.05533
1146.40 0.05532
1146.50 0.0553
1146.60 0.05528
1146.70 0.05527
1146.80 0.05525
1146.90 0.05524
1147.00 0.05522
1147.10 0.05521
1147.20 0.05519
1147.30 0.05517
1147.40 0.05516
1147.50 0.05514
1147.60 0.05512
1147.70 0.05511
1147.80 0.05509
1147.90 0.05507
1148.00 0.05506
1148.10 0.05504
1148.20 0.05503
1148.30 0.05501
1148.40 0.05499
1148.50 0.05498
1148.60 0.05496
1148.70 0.05494
1148.80 0.05493
1148.90 0.05491
1149.00 0.05489
1149.10 0.05488
1149.20 0.05486
1149.30 0.05485
1149.40 0.05483
1149.50 0.05481
1149.60 0.0548
1149.70 0.05478
1149.80 0.05476
1149.90 0.05475
1150.00 0.05473
1150.10 0.05472
1150.20 0.0547
1150.30 0.05468
1150.40 0.05467
1150.50 0.05465
1150.60 0.05463
1150.70 0.05462
1150.80 0.0546
1150.90 0.05459
1151.00 0.05457
1151.10 0.05455
1151.20 0.05454
1151.30 0.05452
1151.40 0.05451
1151.50 0.05449
1151.60 0.05447
1151.70 0.05446
1151.80 0.05444
1151.90 0.05442
1152.00 0.05441
1152.10 0.05439
1152.20 0.05438
1152.30 0.05436
1152.40 0.05434
1152.50 0.05433
1152.60 0.05431
1152.70 0.05429
1152.80 0.05428
1152.90 0.05426
1153.00 0.05424
1153.10 0.05423
1153.20 0.05421
1153.30 0.05419
1153.40 0.05418
1153.50 0.05416
1153.60 0.05414
1153.70 0.05413
1153.80 0.05411
1153.90 0.05409
1154.00 0.05408
1154.10 0.05406
1154.20 0.05404
1154.30 0.05403
1154.40 0.05401
1154.50 0.054
1154.60 0.05398
1154.70 0.05396
1154.80 0.05395
1154.90 0.05393
1155.00 0.05391
1155.10 0.0539
1155.20 0.05388
1155.30 0.05386
1155.40 0.05385
1155.50 0.05383
1155.60 0.05381
1155.70 0.0538
1155.80 0.05378
1155.90 0.05377
1156.00 0.05375
1156.10 0.05373
1156.20 0.05372
1156.30 0.0537
1156.40 0.05368
1156.50 0.05367
1156.60 0.05365
1156.70 0.05363
1156.80 0.05362
1156.90 0.0536
1157.00 0.05359
1157.10 0.05357
1157.20 0.05355
1157.30 0.05354
1157.40 0.05352
1157.50 0.0535
1157.60 0.05349
1157.70 0.05347
1157.80 0.05345
1157.90 0.05344
1158.00 0.05342
1158.10 0.0534
1158.20 0.05339
1158.30 0.05337
1158.40 0.05335
1158.50 0.05334
1158.60 0.05332
1158.70 0.0533
1158.80 0.05329
1158.90 0.05327
1159.00 0.05325
1159.10 0.05324
1159.20 0.05322
1159.30 0.0532
1159.40 0.05319
1159.50 0.05317
1159.60 0.05315
1159.70 0.05314
1159.80 0.05312
1159.90 0.0531
1160.00 0.05309
1160.10 0.05307
1160.20 0.05306
1160.30 0.05304
1160.40 0.05302
1160.50 0.05301
1160.60 0.05299
1160.70 0.05297
1160.80 0.05296
1160.90 0.05294
1161.00 0.05292
1161.10 0.05291
1161.20 0.05289
1161.30 0.05287
1161.40 0.05286
1161.50 0.05284
1161.60 0.05282
1161.70 0.05281
1161.80 0.05279
1161.90 0.05278
1162.00 0.05276
1162.10 0.05274
1162.20 0.05273
1162.30 0.05271
1162.40 0.05269
1162.50 0.05268
1162.60 0.05266
1162.70 0.05264
1162.80 0.05263
1162.90 0.05261
1163.00 0.05259
1163.10 0.05258
1163.20 0.05256
1163.30 0.05254
1163.40 0.05253
1163.50 0.05251
1163.60 0.05249
1163.70 0.05248
1163.80 0.05246
1163.90 0.05244
1164.00 0.05243
1164.10 0.05241
1164.20 0.05239
1164.30 0.05238
1164.40 0.05236
1164.50 0.05235
1164.60 0.05233
1164.70 0.05231
1164.80 0.0523
1164.90 0.05228
1165.00 0.05226
1165.10 0.05225
1165.20 0.05223
1165.30 0.05221
1165.40 0.0522
1165.50 0.05218
1165.60 0.05216
1165.70 0.05215
1165.80 0.05213
1165.90 0.05212
1166.00 0.0521
1166.10 0.05208
1166.20 0.05207
1166.30 0.05205
1166.40 0.05203
1166.50 0.05202
1166.60 0.052
1166.70 0.05198
1166.80 0.05197
1166.90 0.05195
1167.00 0.05193
1167.10 0.05192
1167.20 0.0519
1167.30 0.05189
1167.40 0.05187
1167.50 0.05185
1167.60 0.05184
1167.70 0.05182
1167.80 0.0518
1167.90 0.05179
1168.00 0.05177
1168.10 0.05175
1168.20 0.05174
1168.30 0.05172
1168.40 0.0517
1168.50 0.05169
1168.60 0.05167
1168.70 0.05165
1168.80 0.05164
1168.90 0.05162
1169.00 0.05161
1169.10 0.05159
1169.20 0.05157
1169.30 0.05156
1169.40 0.05154
1169.50 0.05152
1169.60 0.05151
1169.70 0.05149
1169.80 0.05147
1169.90 0.05146
1170.00 0.05144
1170.10 0.05142
1170.20 0.05141
1170.30 0.05139
1170.40 0.05138
1170.50 0.05136
1170.60 0.05134
1170.70 0.05133
1170.80 0.05131
1170.90 0.05129
1171.00 0.05128
1171.10 0.05126
1171.20 0.05124
1171.30 0.05123
1171.40 0.05121
1171.50 0.0512
1171.60 0.05118
1171.70 0.05116
1171.80 0.05115
1171.90 0.05113
1172.00 0.05111
1172.10 0.0511
1172.20 0.05108
1172.30 0.05107
1172.40 0.05105
1172.50 0.05103
1172.60 0.05102
1172.70 0.051
1172.80 0.05098
1172.90 0.05097
1173.00 0.05095
1173.10 0.05093
1173.20 0.05092
1173.30 0.0509
1173.40 0.05089
1173.50 0.05087
1173.60 0.05085
1173.70 0.05084
1173.80 0.05082
1173.90 0.0508
1174.00 0.05079
1174.10 0.05077
1174.20 0.05075
1174.30 0.05074
1174.40 0.05072
1174.50 0.05071
1174.60 0.05069
1174.70 0.05067
1174.80 0.05066
1174.90 0.05064
1175.00 0.05062
1175.10 0.05061
1175.20 0.05059
1175.30 0.05058
1175.40 0.05056
1175.50 0.05054
1175.60 0.05053
1175.70 0.05051
1175.80 0.05049
1175.90 0.05048
1176.00 0.05046
1176.10 0.05045
1176.20 0.05043
1176.30 0.05041
1176.40 0.0504
1176.50 0.05038
1176.60 0.05036
1176.70 0.05035
1176.80 0.05033
1176.90 0.05032
1177.00 0.0503
1177.10 0.05028
1177.20 0.05027
1177.30 0.05025
1177.40 0.05024
1177.50 0.05022
1177.60 0.0502
1177.70 0.05019
1177.80 0.05017
1177.90 0.05015
1178.00 0.05014
1178.10 0.05012
1178.20 0.05011
1178.30 0.05009
1178.40 0.05007
1178.50 0.05006
1178.60 0.05004
1178.70 0.05002
1178.80 0.05001
1178.90 0.04999
1179.00 0.04998
1179.10 0.04996
1179.20 0.04994
1179.30 0.04993
1179.40 0.04991
1179.50 0.0499
1179.60 0.04988
1179.70 0.04986
1179.80 0.04985
1179.90 0.04983
1180.00 0.04981
1180.10 0.0498
1180.20 0.04978
1180.30 0.04977
1180.40 0.04975
1180.50 0.04973
1180.60 0.04972
1180.70 0.0497
1180.80 0.04969
1180.90 0.04967
1181.00 0.04965
1181.10 0.04964
1181.20 0.04962
1181.30 0.04961
1181.40 0.04959
1181.50 0.04957
1181.60 0.04956
1181.70 0.04954
1181.80 0.04953
1181.90 0.04951
1182.00 0.04949
1182.10 0.04948
1182.20 0.04946
1182.30 0.04945
1182.40 0.04943
1182.50 0.04941
1182.60 0.0494
1182.70 0.04938
1182.80 0.04936
1182.90 0.04935
1183.00 0.04933
1183.10 0.04932
1183.20 0.0493
1183.30 0.04928
1183.40 0.04927
1183.50 0.04925
1183.60 0.04924
1183.70 0.04922
1183.80 0.0492
1183.90 0.04919
1184.00 0.04917
1184.10 0.04916
1184.20 0.04914
1184.30 0.04912
1184.40 0.04911
1184.50 0.04909
1184.60 0.04908
1184.70 0.04906
1184.80 0.04904
1184.90 0.04903
1185.00 0.04901
1185.10 0.049
1185.20 0.04898
1185.30 0.04896
1185.40 0.04895
1185.50 0.04893
1185.60 0.04892
1185.70 0.0489
1185.80 0.04889
1185.90 0.04887
1186.00 0.04885
1186.10 0.04884
1186.20 0.04882
1186.30 0.04881
1186.40 0.04879
1186.50 0.04877
1186.60 0.04876
1186.70 0.04874
1186.80 0.04873
1186.90 0.04871
1187.00 0.04869
1187.10 0.04868
1187.20 0.04866
1187.30 0.04865
1187.40 0.04863
1187.50 0.04861
1187.60 0.0486
1187.70 0.04858
1187.80 0.04857
1187.90 0.04855
1188.00 0.04854
1188.10 0.04852
1188.20 0.0485
1188.30 0.04849
1188.40 0.04847
1188.50 0.04846
1188.60 0.04844
1188.70 0.04842
1188.80 0.04841
1188.90 0.04839
1189.00 0.04838
1189.10 0.04836
1189.20 0.04835
1189.30 0.04833
1189.40 0.04831
1189.50 0.0483
1189.60 0.04828
1189.70 0.04827
1189.80 0.04825
1189.90 0.04823
1190.00 0.04822
1190.10 0.0482
1190.20 0.04819
1190.30 0.04817
1190.40 0.04816
1190.50 0.04814
1190.60 0.04812
1190.70 0.04811
1190.80 0.04809
1190.90 0.04808
1191.00 0.04806
1191.10 0.04804
1191.20 0.04803
1191.30 0.04801
1191.40 0.048
1191.50 0.04798
1191.60 0.04797
1191.70 0.04795
1191.80 0.04793
1191.90 0.04792
1192.00 0.0479
1192.10 0.04789
1192.20 0.04787
1192.30 0.04786
1192.40 0.04784
1192.50 0.04782
1192.60 0.04781
1192.70 0.04779
1192.80 0.04778
1192.90 0.04776
1193.00 0.04775
1193.10 0.04773
1193.20 0.04771
1193.30 0.0477
1193.40 0.04768
1193.50 0.04767
1193.60 0.04765
1193.70 0.04764
1193.80 0.04762
1193.90 0.0476
1194.00 0.04759
1194.10 0.04757
1194.20 0.04756
1194.30 0.04754
1194.40 0.04753
1194.50 0.04751
1194.60 0.04749
1194.70 0.04748
1194.80 0.04746
1194.90 0.04745
1195.00 0.04743
1195.10 0.04742
1195.20 0.0474
1195.30 0.04738
1195.40 0.04737
1195.50 0.04735
1195.60 0.04734
1195.70 0.04732
1195.80 0.04731
1195.90 0.04729
1196.00 0.04728
1196.10 0.04726
1196.20 0.04724
1196.30 0.04723
1196.40 0.04721
1196.50 0.0472
1196.60 0.04718
1196.70 0.04717
1196.80 0.04715
1196.90 0.04713
1197.00 0.04712
1197.10 0.0471
1197.20 0.04709
1197.30 0.04707
1197.40 0.04706
1197.50 0.04704
1197.60 0.04703
1197.70 0.04701
1197.80 0.04699
1197.90 0.04698
1198.00 0.04696
1198.10 0.04695
1198.20 0.04693
1198.30 0.04692
1198.40 0.0469
1198.50 0.04689
1198.60 0.04687
1198.70 0.04685
1198.80 0.04684
1198.90 0.04682
1199.00 0.04681
1199.10 0.04679
1199.20 0.04678
1199.30 0.04676
1199.40 0.04674
1199.50 0.04673
1199.60 0.04671
1199.70 0.0467
1199.80 0.04668
1199.90 0.04667
1200.00 0
