# Version 2.1 - nm, norm@500 to 1, cut digits, bergeron_3250_80.dat_3250
# Wavelength(nm)  Flambda(ergs/cm^s/s/nm)
300.00 0.114
300.10 0.1143
300.20 0.1145
300.30 0.1148
300.40 0.1151
300.50 0.1153
300.60 0.1156
300.70 0.1159
300.80 0.1161
300.90 0.1164
301.00 0.1166
301.10 0.1169
301.20 0.1172
301.30 0.1174
301.40 0.1177
301.50 0.118
301.60 0.1182
301.70 0.1185
301.80 0.1187
301.90 0.119
302.00 0.1193
302.10 0.1195
302.20 0.1198
302.30 0.1201
302.40 0.1204
302.50 0.1206
302.60 0.1209
302.70 0.1212
302.80 0.1214
302.90 0.1217
303.00 0.122
303.10 0.1223
303.20 0.1225
303.30 0.1228
303.40 0.1231
303.50 0.1233
303.60 0.1236
303.70 0.1239
303.80 0.1241
303.90 0.1244
304.00 0.1247
304.10 0.125
304.20 0.1252
304.30 0.1255
304.40 0.1258
304.50 0.1261
304.60 0.1264
304.70 0.1266
304.80 0.1269
304.90 0.1272
305.00 0.1275
305.10 0.1277
305.20 0.128
305.30 0.1283
305.40 0.1286
305.50 0.1288
305.60 0.1291
305.70 0.1294
305.80 0.1297
305.90 0.1299
306.00 0.1302
306.10 0.1305
306.20 0.1308
306.30 0.1311
306.40 0.1314
306.50 0.1317
306.60 0.1319
306.70 0.1322
306.80 0.1325
306.90 0.1328
307.00 0.1331
307.10 0.1334
307.20 0.1336
307.30 0.1339
307.40 0.1342
307.50 0.1345
307.60 0.1348
307.70 0.1351
307.80 0.1353
307.90 0.1356
308.00 0.1359
308.10 0.1362
308.20 0.1365
308.30 0.1368
308.40 0.1371
308.50 0.1374
308.60 0.1377
308.70 0.138
308.80 0.1382
308.90 0.1385
309.00 0.1388
309.10 0.1391
309.20 0.1394
309.30 0.1397
309.40 0.14
309.50 0.1403
309.60 0.1406
309.70 0.1409
309.80 0.1411
309.90 0.1414
310.00 0.1417
310.10 0.142
310.20 0.1423
310.30 0.1426
310.40 0.1429
310.50 0.1432
310.60 0.1435
310.70 0.1438
310.80 0.1441
310.90 0.1444
311.00 0.1447
311.10 0.145
311.20 0.1453
311.30 0.1456
311.40 0.1459
311.50 0.1462
311.60 0.1465
311.70 0.1468
311.80 0.1471
311.90 0.1474
312.00 0.1477
312.10 0.148
312.20 0.1483
312.30 0.1486
312.40 0.1489
312.50 0.1492
312.60 0.1495
312.70 0.1498
312.80 0.1501
312.90 0.1504
313.00 0.1507
313.10 0.151
313.20 0.1513
313.30 0.1516
313.40 0.1519
313.50 0.1522
313.60 0.1525
313.70 0.1529
313.80 0.1532
313.90 0.1535
314.00 0.1538
314.10 0.1541
314.20 0.1544
314.30 0.1547
314.40 0.155
314.50 0.1553
314.60 0.1556
314.70 0.156
314.80 0.1563
314.90 0.1566
315.00 0.1569
315.10 0.1572
315.20 0.1575
315.30 0.1578
315.40 0.1581
315.50 0.1584
315.60 0.1587
315.70 0.1591
315.80 0.1594
315.90 0.1597
316.00 0.16
316.10 0.1603
316.20 0.1606
316.30 0.1609
316.40 0.1613
316.50 0.1616
316.60 0.1619
316.70 0.1622
316.80 0.1625
316.90 0.1629
317.00 0.1632
317.10 0.1635
317.20 0.1638
317.30 0.1641
317.40 0.1644
317.50 0.1648
317.60 0.1651
317.70 0.1654
317.80 0.1657
317.90 0.166
318.00 0.1663
318.10 0.1667
318.20 0.167
318.30 0.1673
318.40 0.1676
318.50 0.168
318.60 0.1683
318.70 0.1686
318.80 0.1689
318.90 0.1693
319.00 0.1696
319.10 0.1699
319.20 0.1702
319.30 0.1706
319.40 0.1709
319.50 0.1712
319.60 0.1715
319.70 0.1719
319.80 0.1722
319.90 0.1725
320.00 0.1728
320.10 0.1732
320.20 0.1735
320.30 0.1738
320.40 0.1742
320.50 0.1745
320.60 0.1748
320.70 0.1752
320.80 0.1755
320.90 0.1758
321.00 0.1762
321.10 0.1765
321.20 0.1768
321.30 0.1771
321.40 0.1775
321.50 0.1778
321.60 0.1781
321.70 0.1785
321.80 0.1788
321.90 0.1791
322.00 0.1794
322.10 0.1798
322.20 0.1801
322.30 0.1805
322.40 0.1808
322.50 0.1811
322.60 0.1815
322.70 0.1818
322.80 0.1822
322.90 0.1825
323.00 0.1828
323.10 0.1832
323.20 0.1835
323.30 0.1838
323.40 0.1842
323.50 0.1845
323.60 0.1848
323.70 0.1852
323.80 0.1855
323.90 0.1858
324.00 0.1862
324.10 0.1865
324.20 0.1869
324.30 0.1872
324.40 0.1876
324.50 0.1879
324.60 0.1883
324.70 0.1886
324.80 0.1889
324.90 0.1893
325.00 0.1896
325.10 0.19
325.20 0.1903
325.30 0.1907
325.40 0.191
325.50 0.1913
325.60 0.1917
325.70 0.192
325.80 0.1924
325.90 0.1927
326.00 0.1931
326.10 0.1934
326.20 0.1938
326.30 0.1941
326.40 0.1945
326.50 0.1948
326.60 0.1952
326.70 0.1955
326.80 0.1959
326.90 0.1962
327.00 0.1966
327.10 0.1969
327.20 0.1973
327.30 0.1976
327.40 0.198
327.50 0.1983
327.60 0.1987
327.70 0.199
327.80 0.1993
327.90 0.1997
328.00 0.2001
328.10 0.2004
328.20 0.2008
328.30 0.2011
328.40 0.2015
328.50 0.2018
328.60 0.2022
328.70 0.2026
328.80 0.2029
328.90 0.2033
329.00 0.2036
329.10 0.204
329.20 0.2043
329.30 0.2047
329.40 0.205
329.50 0.2054
329.60 0.2057
329.70 0.2061
329.80 0.2065
329.90 0.2068
330.00 0.2072
330.10 0.2075
330.20 0.2079
330.30 0.2083
330.40 0.2086
330.50 0.209
330.60 0.2093
330.70 0.2097
330.80 0.2101
330.90 0.2104
331.00 0.2108
331.10 0.2112
331.20 0.2115
331.30 0.2119
331.40 0.2122
331.50 0.2126
331.60 0.213
331.70 0.2133
331.80 0.2137
331.90 0.214
332.00 0.2144
332.10 0.2148
332.20 0.2151
332.30 0.2155
332.40 0.2159
332.50 0.2163
332.60 0.2166
332.70 0.217
332.80 0.2174
332.90 0.2177
333.00 0.2181
333.10 0.2185
333.20 0.2188
333.30 0.2192
333.40 0.2196
333.50 0.2199
333.60 0.2203
333.70 0.2207
333.80 0.221
333.90 0.2214
334.00 0.2218
334.10 0.2221
334.20 0.2225
334.30 0.2229
334.40 0.2233
334.50 0.2236
334.60 0.224
334.70 0.2244
334.80 0.2248
334.90 0.2251
335.00 0.2255
335.10 0.2259
335.20 0.2263
335.30 0.2266
335.40 0.227
335.50 0.2274
335.60 0.2278
335.70 0.2281
335.80 0.2285
335.90 0.2289
336.00 0.2292
336.10 0.2296
336.20 0.23
336.30 0.2304
336.40 0.2308
336.50 0.2312
336.60 0.2315
336.70 0.2319
336.80 0.2323
336.90 0.2327
337.00 0.2331
337.10 0.2334
337.20 0.2338
337.30 0.2342
337.40 0.2346
337.50 0.2349
337.60 0.2353
337.70 0.2357
337.80 0.2361
337.90 0.2365
338.00 0.2368
338.10 0.2372
338.20 0.2376
338.30 0.238
338.40 0.2384
338.50 0.2388
338.60 0.2392
338.70 0.2395
338.80 0.2399
338.90 0.2403
339.00 0.2407
339.10 0.2411
339.20 0.2415
339.30 0.2419
339.40 0.2422
339.50 0.2426
339.60 0.243
339.70 0.2434
339.80 0.2438
339.90 0.2442
340.00 0.2445
340.10 0.2449
340.20 0.2453
340.30 0.2457
340.40 0.2461
340.50 0.2465
340.60 0.2469
340.70 0.2473
340.80 0.2477
340.90 0.2481
341.00 0.2485
341.10 0.2489
341.20 0.2492
341.30 0.2496
341.40 0.25
341.50 0.2504
341.60 0.2508
341.70 0.2512
341.80 0.2516
341.90 0.252
342.00 0.2524
342.10 0.2528
342.20 0.2532
342.30 0.2536
342.40 0.254
342.50 0.2544
342.60 0.2548
342.70 0.2551
342.80 0.2555
342.90 0.2559
343.00 0.2563
343.10 0.2567
343.20 0.2571
343.30 0.2575
343.40 0.2579
343.50 0.2583
343.60 0.2587
343.70 0.2591
343.80 0.2595
343.90 0.2599
344.00 0.2603
344.10 0.2607
344.20 0.2611
344.30 0.2615
344.40 0.2619
344.50 0.2623
344.60 0.2627
344.70 0.2631
344.80 0.2635
344.90 0.2639
345.00 0.2643
345.10 0.2647
345.20 0.2651
345.30 0.2655
345.40 0.2659
345.50 0.2663
345.60 0.2667
345.70 0.2671
345.80 0.2675
345.90 0.2679
346.00 0.2683
346.10 0.2687
346.20 0.2691
346.30 0.2696
346.40 0.27
346.50 0.2704
346.60 0.2708
346.70 0.2712
346.80 0.2716
346.90 0.272
347.00 0.2724
347.10 0.2728
347.20 0.2732
347.30 0.2736
347.40 0.274
347.50 0.2744
347.60 0.2748
347.70 0.2752
347.80 0.2756
347.90 0.2761
348.00 0.2765
348.10 0.2769
348.20 0.2773
348.30 0.2777
348.40 0.2781
348.50 0.2785
348.60 0.2789
348.70 0.2794
348.80 0.2798
348.90 0.2802
349.00 0.2806
349.10 0.281
349.20 0.2814
349.30 0.2818
349.40 0.2822
349.50 0.2827
349.60 0.2831
349.70 0.2835
349.80 0.2839
349.90 0.2843
350.00 0.2847
350.10 0.2851
350.20 0.2855
350.30 0.286
350.40 0.2864
350.50 0.2868
350.60 0.2872
350.70 0.2876
350.80 0.2881
350.90 0.2885
351.00 0.2889
351.10 0.2893
351.20 0.2897
351.30 0.2901
351.40 0.2906
351.50 0.291
351.60 0.2914
351.70 0.2918
351.80 0.2922
351.90 0.2926
352.00 0.293
352.10 0.2935
352.20 0.2939
352.30 0.2943
352.40 0.2947
352.50 0.2952
352.60 0.2956
352.70 0.296
352.80 0.2964
352.90 0.2969
353.00 0.2973
353.10 0.2977
353.20 0.2981
353.30 0.2985
353.40 0.299
353.50 0.2994
353.60 0.2998
353.70 0.3002
353.80 0.3006
353.90 0.3011
354.00 0.3015
354.10 0.3019
354.20 0.3023
354.30 0.3028
354.40 0.3032
354.50 0.3036
354.60 0.3041
354.70 0.3045
354.80 0.3049
354.90 0.3053
355.00 0.3058
355.10 0.3062
355.20 0.3066
355.30 0.307
355.40 0.3075
355.50 0.3079
355.60 0.3083
355.70 0.3087
355.80 0.3092
355.90 0.3096
356.00 0.31
356.10 0.3104
356.20 0.3109
356.30 0.3113
356.40 0.3117
356.50 0.3122
356.60 0.3126
356.70 0.313
356.80 0.3135
356.90 0.3139
357.00 0.3143
357.10 0.3148
357.20 0.3152
357.30 0.3156
357.40 0.3161
357.50 0.3165
357.60 0.3169
357.70 0.3173
357.80 0.3178
357.90 0.3182
358.00 0.3186
358.10 0.3191
358.20 0.3195
358.30 0.32
358.40 0.3204
358.50 0.3208
358.60 0.3213
358.70 0.3217
358.80 0.3221
358.90 0.3226
359.00 0.323
359.10 0.3234
359.20 0.3239
359.30 0.3243
359.40 0.3248
359.50 0.3252
359.60 0.3256
359.70 0.3261
359.80 0.3265
359.90 0.3269
360.00 0.3273
360.10 0.3278
360.20 0.3282
360.30 0.3287
360.40 0.3291
360.50 0.3296
360.60 0.33
360.70 0.3304
360.80 0.3309
360.90 0.3313
361.00 0.3318
361.10 0.3322
361.20 0.3326
361.30 0.3331
361.40 0.3335
361.50 0.334
361.60 0.3344
361.70 0.3348
361.80 0.3353
361.90 0.3357
362.00 0.3361
362.10 0.3366
362.20 0.337
362.30 0.3375
362.40 0.3379
362.50 0.3384
362.60 0.3388
362.70 0.3392
362.80 0.3397
362.90 0.3401
363.00 0.3406
363.10 0.341
363.20 0.3415
363.30 0.3419
363.40 0.3424
363.50 0.3428
363.60 0.3433
363.70 0.3437
363.80 0.3442
363.90 0.3446
364.00 0.345
364.10 0.3455
364.20 0.3459
364.30 0.3464
364.40 0.3468
364.50 0.3473
364.60 0.3477
364.70 0.3482
364.80 0.3486
364.90 0.3491
365.00 0.3495
365.10 0.35
365.20 0.3504
365.30 0.3509
365.40 0.3513
365.50 0.3518
365.60 0.3522
365.70 0.3527
365.80 0.3531
365.90 0.3535
366.00 0.354
366.10 0.3544
366.20 0.3549
366.30 0.3554
366.40 0.3558
366.50 0.3563
366.60 0.3567
366.70 0.3572
366.80 0.3576
366.90 0.3581
367.00 0.3585
367.10 0.359
367.20 0.3594
367.30 0.3599
367.40 0.3603
367.50 0.3608
367.60 0.3612
367.70 0.3617
367.80 0.3621
367.90 0.3626
368.00 0.363
368.10 0.3635
368.20 0.364
368.30 0.3644
368.40 0.3649
368.50 0.3653
368.60 0.3658
368.70 0.3663
368.80 0.3667
368.90 0.3672
369.00 0.3676
369.10 0.3681
369.20 0.3685
369.30 0.369
369.40 0.3694
369.50 0.3699
369.60 0.3704
369.70 0.3708
369.80 0.3713
369.90 0.3717
370.00 0.3722
370.10 0.3726
370.20 0.3731
370.30 0.3736
370.40 0.374
370.50 0.3745
370.60 0.3749
370.70 0.3754
370.80 0.3759
370.90 0.3763
371.00 0.3768
371.10 0.3772
371.20 0.3777
371.30 0.3782
371.40 0.3786
371.50 0.3791
371.60 0.3795
371.70 0.38
371.80 0.3804
371.90 0.3809
372.00 0.3814
372.10 0.3818
372.20 0.3823
372.30 0.3828
372.40 0.3832
372.50 0.3837
372.60 0.3842
372.70 0.3846
372.80 0.3851
372.90 0.3856
373.00 0.386
373.10 0.3865
373.20 0.3869
373.30 0.3874
373.40 0.3879
373.50 0.3883
373.60 0.3888
373.70 0.3892
373.80 0.3897
373.90 0.3902
374.00 0.3906
374.10 0.3911
374.20 0.3916
374.30 0.392
374.40 0.3925
374.50 0.393
374.60 0.3934
374.70 0.3939
374.80 0.3944
374.90 0.3949
375.00 0.3953
375.10 0.3958
375.20 0.3962
375.30 0.3967
375.40 0.3972
375.50 0.3976
375.60 0.3981
375.70 0.3986
375.80 0.399
375.90 0.3995
376.00 0.4
376.10 0.4004
376.20 0.4009
376.30 0.4014
376.40 0.4018
376.50 0.4023
376.60 0.4028
376.70 0.4032
376.80 0.4037
376.90 0.4042
377.00 0.4047
377.10 0.4051
377.20 0.4056
377.30 0.4061
377.40 0.4065
377.50 0.407
377.60 0.4075
377.70 0.4079
377.80 0.4084
377.90 0.4089
378.00 0.4093
378.10 0.4098
378.20 0.4103
378.30 0.4108
378.40 0.4112
378.50 0.4117
378.60 0.4122
378.70 0.4127
378.80 0.4131
378.90 0.4136
379.00 0.4141
379.10 0.4145
379.20 0.415
379.30 0.4155
379.40 0.416
379.50 0.4164
379.60 0.4169
379.70 0.4174
379.80 0.4178
379.90 0.4183
380.00 0.4188
380.10 0.4193
380.20 0.4197
380.30 0.4202
380.40 0.4207
380.50 0.4212
380.60 0.4217
380.70 0.4221
380.80 0.4226
380.90 0.4231
381.00 0.4236
381.10 0.424
381.20 0.4245
381.30 0.425
381.40 0.4255
381.50 0.4259
381.60 0.4264
381.70 0.4269
381.80 0.4274
381.90 0.4278
382.00 0.4283
382.10 0.4288
382.20 0.4293
382.30 0.4297
382.40 0.4302
382.50 0.4307
382.60 0.4312
382.70 0.4317
382.80 0.4321
382.90 0.4326
383.00 0.4331
383.10 0.4336
383.20 0.4341
383.30 0.4345
383.40 0.435
383.50 0.4355
383.60 0.436
383.70 0.4364
383.80 0.4369
383.90 0.4374
384.00 0.4379
384.10 0.4384
384.20 0.4388
384.30 0.4393
384.40 0.4398
384.50 0.4403
384.60 0.4408
384.70 0.4412
384.80 0.4417
384.90 0.4422
385.00 0.4427
385.10 0.4432
385.20 0.4436
385.30 0.4442
385.40 0.4446
385.50 0.4451
385.60 0.4456
385.70 0.4461
385.80 0.4465
385.90 0.447
386.00 0.4475
386.10 0.448
386.20 0.4485
386.30 0.449
386.40 0.4495
386.50 0.4499
386.60 0.4504
386.70 0.4509
386.80 0.4514
386.90 0.4519
387.00 0.4523
387.10 0.4528
387.20 0.4533
387.30 0.4538
387.40 0.4543
387.50 0.4548
387.60 0.4552
387.70 0.4557
387.80 0.4562
387.90 0.4567
388.00 0.4572
388.10 0.4577
388.20 0.4582
388.30 0.4586
388.40 0.4591
388.50 0.4596
388.60 0.4601
388.70 0.4606
388.80 0.4611
388.90 0.4616
389.00 0.462
389.10 0.4625
389.20 0.463
389.30 0.4635
389.40 0.464
389.50 0.4645
389.60 0.4649
389.70 0.4654
389.80 0.4659
389.90 0.4664
390.00 0.4669
390.10 0.4674
390.20 0.4679
390.30 0.4684
390.40 0.4689
390.50 0.4693
390.60 0.4698
390.70 0.4703
390.80 0.4708
390.90 0.4713
391.00 0.4718
391.10 0.4723
391.20 0.4728
391.30 0.4733
391.40 0.4737
391.50 0.4742
391.60 0.4747
391.70 0.4752
391.80 0.4757
391.90 0.4762
392.00 0.4767
392.10 0.4772
392.20 0.4777
392.30 0.4782
392.40 0.4786
392.50 0.4791
392.60 0.4796
392.70 0.4801
392.80 0.4806
392.90 0.4811
393.00 0.4816
393.10 0.4821
393.20 0.4825
393.30 0.483
393.40 0.4835
393.50 0.484
393.60 0.4845
393.70 0.485
393.80 0.4855
393.90 0.486
394.00 0.4865
394.10 0.487
394.20 0.4875
394.30 0.488
394.40 0.4885
394.50 0.4889
394.60 0.4894
394.70 0.4899
394.80 0.4904
394.90 0.4909
395.00 0.4914
395.10 0.4919
395.20 0.4924
395.30 0.4929
395.40 0.4934
395.50 0.4939
395.60 0.4944
395.70 0.4949
395.80 0.4953
395.90 0.4958
396.00 0.4963
396.10 0.4968
396.20 0.4973
396.30 0.4978
396.40 0.4983
396.50 0.4988
396.60 0.4993
396.70 0.4998
396.80 0.5003
396.90 0.5008
397.00 0.5013
397.10 0.5017
397.20 0.5022
397.30 0.5027
397.40 0.5032
397.50 0.5037
397.60 0.5042
397.70 0.5047
397.80 0.5052
397.90 0.5057
398.00 0.5062
398.10 0.5067
398.20 0.5072
398.30 0.5077
398.40 0.5082
398.50 0.5087
398.60 0.5092
398.70 0.5097
398.80 0.5102
398.90 0.5107
399.00 0.5112
399.10 0.5117
399.20 0.5121
399.30 0.5126
399.40 0.5131
399.50 0.5136
399.60 0.5141
399.70 0.5146
399.80 0.5151
399.90 0.5156
400.00 0.5161
400.10 0.5166
400.20 0.5171
400.30 0.5176
400.40 0.5181
400.50 0.5186
400.60 0.5191
400.70 0.5196
400.80 0.5201
400.90 0.5206
401.00 0.5211
401.10 0.5216
401.20 0.5221
401.30 0.5226
401.40 0.5231
401.50 0.5236
401.60 0.5241
401.70 0.5246
401.80 0.5251
401.90 0.5256
402.00 0.5261
402.10 0.5266
402.20 0.5271
402.30 0.5276
402.40 0.5281
402.50 0.5286
402.60 0.5291
402.70 0.5296
402.80 0.5301
402.90 0.5306
403.00 0.531
403.10 0.5315
403.20 0.532
403.30 0.5325
403.40 0.5331
403.50 0.5336
403.60 0.534
403.70 0.5345
403.80 0.535
403.90 0.5356
404.00 0.536
404.10 0.5365
404.20 0.537
404.30 0.5375
404.40 0.538
404.50 0.5385
404.60 0.539
404.70 0.5395
404.80 0.5401
404.90 0.5405
405.00 0.541
405.10 0.5415
405.20 0.542
405.30 0.5425
405.40 0.543
405.50 0.5435
405.60 0.544
405.70 0.5445
405.80 0.545
405.90 0.5455
406.00 0.546
406.10 0.5465
406.20 0.547
406.30 0.5475
406.40 0.548
406.50 0.5485
406.60 0.549
406.70 0.5495
406.80 0.55
406.90 0.5505
407.00 0.5511
407.10 0.5516
407.20 0.5521
407.30 0.5525
407.40 0.5531
407.50 0.5536
407.60 0.5541
407.70 0.5546
407.80 0.555
407.90 0.5556
408.00 0.5561
408.10 0.5565
408.20 0.5571
408.30 0.5576
408.40 0.5581
408.50 0.5586
408.60 0.5591
408.70 0.5596
408.80 0.5601
408.90 0.5606
409.00 0.5611
409.10 0.5616
409.20 0.5621
409.30 0.5626
409.40 0.5631
409.50 0.5636
409.60 0.5641
409.70 0.5646
409.80 0.5651
409.90 0.5656
410.00 0.5661
410.10 0.5666
410.20 0.5671
410.30 0.5676
410.40 0.5681
410.50 0.5686
410.60 0.5691
410.70 0.5696
410.80 0.5701
410.90 0.5706
411.00 0.5711
411.10 0.5716
411.20 0.5721
411.30 0.5726
411.40 0.5731
411.50 0.5736
411.60 0.5741
411.70 0.5746
411.80 0.5751
411.90 0.5757
412.00 0.5762
412.10 0.5767
412.20 0.5772
412.30 0.5777
412.40 0.5782
412.50 0.5787
412.60 0.5792
412.70 0.5797
412.80 0.5802
412.90 0.5807
413.00 0.5812
413.10 0.5817
413.20 0.5822
413.30 0.5827
413.40 0.5832
413.50 0.5837
413.60 0.5842
413.70 0.5847
413.80 0.5852
413.90 0.5857
414.00 0.5862
414.10 0.5867
414.20 0.5872
414.30 0.5877
414.40 0.5882
414.50 0.5887
414.60 0.5892
414.70 0.5898
414.80 0.5903
414.90 0.5908
415.00 0.5913
415.10 0.5918
415.20 0.5923
415.30 0.5928
415.40 0.5933
415.50 0.5938
415.60 0.5943
415.70 0.5948
415.80 0.5953
415.90 0.5958
416.00 0.5963
416.10 0.5968
416.20 0.5973
416.30 0.5978
416.40 0.5983
416.50 0.5988
416.60 0.5993
416.70 0.5998
416.80 0.6003
416.90 0.6009
417.00 0.6014
417.10 0.6019
417.20 0.6024
417.30 0.6029
417.40 0.6034
417.50 0.6039
417.60 0.6044
417.70 0.6049
417.80 0.6054
417.90 0.6059
418.00 0.6064
418.10 0.6069
418.20 0.6074
418.30 0.6079
418.40 0.6084
418.50 0.6089
418.60 0.6094
418.70 0.6099
418.80 0.6104
418.90 0.6109
419.00 0.6114
419.10 0.612
419.20 0.6124
419.30 0.613
419.40 0.6135
419.50 0.614
419.60 0.6145
419.70 0.615
419.80 0.6155
419.90 0.616
420.00 0.6165
420.10 0.617
420.20 0.6175
420.30 0.618
420.40 0.6185
420.50 0.619
420.60 0.6195
420.70 0.62
420.80 0.6205
420.90 0.621
421.00 0.6215
421.10 0.6221
421.20 0.6226
421.30 0.6231
421.40 0.6236
421.50 0.6241
421.60 0.6246
421.70 0.6251
421.80 0.6256
421.90 0.6261
422.00 0.6266
422.10 0.6271
422.20 0.6276
422.30 0.6281
422.40 0.6286
422.50 0.6291
422.60 0.6296
422.70 0.6301
422.80 0.6306
422.90 0.6311
423.00 0.6316
423.10 0.6322
423.20 0.6326
423.30 0.6331
423.40 0.6337
423.50 0.6342
423.60 0.6347
423.70 0.6352
423.80 0.6357
423.90 0.6362
424.00 0.6367
424.10 0.6372
424.20 0.6377
424.30 0.6382
424.40 0.6387
424.50 0.6392
424.60 0.6397
424.70 0.6402
424.80 0.6407
424.90 0.6412
425.00 0.6417
425.10 0.6423
425.20 0.6428
425.30 0.6433
425.40 0.6438
425.50 0.6443
425.60 0.6448
425.70 0.6453
425.80 0.6458
425.90 0.6463
426.00 0.6468
426.10 0.6473
426.20 0.6478
426.30 0.6483
426.40 0.6488
426.50 0.6493
426.60 0.6498
426.70 0.6503
426.80 0.6508
426.90 0.6513
427.00 0.6519
427.10 0.6523
427.20 0.6528
427.30 0.6533
427.40 0.6539
427.50 0.6544
427.60 0.6549
427.70 0.6554
427.80 0.6559
427.90 0.6564
428.00 0.6569
428.10 0.6574
428.20 0.6579
428.30 0.6584
428.40 0.6589
428.50 0.6594
428.60 0.6599
428.70 0.6604
428.80 0.6609
428.90 0.6614
429.00 0.6619
429.10 0.6624
429.20 0.6629
429.30 0.6634
429.40 0.6639
429.50 0.6644
429.60 0.6649
429.70 0.6655
429.80 0.666
429.90 0.6665
430.00 0.667
430.10 0.6675
430.20 0.668
430.30 0.6685
430.40 0.669
430.50 0.6695
430.60 0.67
430.70 0.6705
430.80 0.671
430.90 0.6715
431.00 0.672
431.10 0.6725
431.20 0.673
431.30 0.6735
431.40 0.674
431.50 0.6745
431.60 0.675
431.70 0.6755
431.80 0.6761
431.90 0.6766
432.00 0.6771
432.10 0.6776
432.20 0.6781
432.30 0.6786
432.40 0.6791
432.50 0.6796
432.60 0.6801
432.70 0.6806
432.80 0.6811
432.90 0.6816
433.00 0.6821
433.10 0.6826
433.20 0.6831
433.30 0.6836
433.40 0.6841
433.50 0.6846
433.60 0.6851
433.70 0.6856
433.80 0.6861
433.90 0.6866
434.00 0.6871
434.10 0.6876
434.20 0.6881
434.30 0.6886
434.40 0.6891
434.50 0.6896
434.60 0.6902
434.70 0.6907
434.80 0.6911
434.90 0.6916
435.00 0.6922
435.10 0.6927
435.20 0.6932
435.30 0.6937
435.40 0.6942
435.50 0.6947
435.60 0.6952
435.70 0.6957
435.80 0.6962
435.90 0.6967
436.00 0.6972
436.10 0.6977
436.20 0.6982
436.30 0.6987
436.40 0.6992
436.50 0.6997
436.60 0.7002
436.70 0.7007
436.80 0.7012
436.90 0.7017
437.00 0.7022
437.10 0.7027
437.20 0.7032
437.30 0.7037
437.40 0.7042
437.50 0.7047
437.60 0.7052
437.70 0.7057
437.80 0.7062
437.90 0.7067
438.00 0.7072
438.10 0.7077
438.20 0.7082
438.30 0.7087
438.40 0.7092
438.50 0.7097
438.60 0.7102
438.70 0.7107
438.80 0.7112
438.90 0.7117
439.00 0.7122
439.10 0.7127
439.20 0.7132
439.30 0.7137
439.40 0.7142
439.50 0.7147
439.60 0.7152
439.70 0.7157
439.80 0.7162
439.90 0.7167
440.00 0.7172
440.10 0.7177
440.20 0.7182
440.30 0.7187
440.40 0.7192
440.50 0.7197
440.60 0.7202
440.70 0.7207
440.80 0.7212
440.90 0.7217
441.00 0.7222
441.10 0.7228
441.20 0.7232
441.30 0.7237
441.40 0.7243
441.50 0.7247
441.60 0.7252
441.70 0.7258
441.80 0.7262
441.90 0.7267
442.00 0.7272
442.10 0.7277
442.20 0.7282
442.30 0.7287
442.40 0.7292
442.50 0.7297
442.60 0.7303
442.70 0.7307
442.80 0.7312
442.90 0.7317
443.00 0.7322
443.10 0.7327
443.20 0.7332
443.30 0.7337
443.40 0.7342
443.50 0.7347
443.60 0.7352
443.70 0.7357
443.80 0.7362
443.90 0.7367
444.00 0.7372
444.10 0.7377
444.20 0.7382
444.30 0.7387
444.40 0.7392
444.50 0.7397
444.60 0.7402
444.70 0.7407
444.80 0.7412
444.90 0.7417
445.00 0.7422
445.10 0.7427
445.20 0.7432
445.30 0.7437
445.40 0.7442
445.50 0.7447
445.60 0.7452
445.70 0.7457
445.80 0.7462
445.90 0.7467
446.00 0.7472
446.10 0.7477
446.20 0.7482
446.30 0.7487
446.40 0.7492
446.50 0.7497
446.60 0.7502
446.70 0.7507
446.80 0.7512
446.90 0.7517
447.00 0.7522
447.10 0.7527
447.20 0.7531
447.30 0.7536
447.40 0.7541
447.50 0.7546
447.60 0.7551
447.70 0.7556
447.80 0.7561
447.90 0.7566
448.00 0.7571
448.10 0.7576
448.20 0.7581
448.30 0.7586
448.40 0.7591
448.50 0.7596
448.60 0.7601
448.70 0.7606
448.80 0.7611
448.90 0.7616
449.00 0.7621
449.10 0.7626
449.20 0.7631
449.30 0.7635
449.40 0.764
449.50 0.7645
449.60 0.765
449.70 0.7655
449.80 0.766
449.90 0.7665
450.00 0.767
450.10 0.7675
450.20 0.768
450.30 0.7685
450.40 0.769
450.50 0.7695
450.60 0.77
450.70 0.7705
450.80 0.771
450.90 0.7715
451.00 0.772
451.10 0.7724
451.20 0.7729
451.30 0.7734
451.40 0.7739
451.50 0.7744
451.60 0.7749
451.70 0.7754
451.80 0.7759
451.90 0.7764
452.00 0.7769
452.10 0.7774
452.20 0.7779
452.30 0.7784
452.40 0.7788
452.50 0.7793
452.60 0.7798
452.70 0.7803
452.80 0.7808
452.90 0.7813
453.00 0.7818
453.10 0.7823
453.20 0.7828
453.30 0.7833
453.40 0.7838
453.50 0.7843
453.60 0.7848
453.70 0.7852
453.80 0.7857
453.90 0.7862
454.00 0.7867
454.10 0.7872
454.20 0.7877
454.30 0.7882
454.40 0.7887
454.50 0.7892
454.60 0.7897
454.70 0.7902
454.80 0.7906
454.90 0.7911
455.00 0.7916
455.10 0.7921
455.20 0.7926
455.30 0.7931
455.40 0.7936
455.50 0.7941
455.60 0.7946
455.70 0.7951
455.80 0.7955
455.90 0.796
456.00 0.7965
456.10 0.797
456.20 0.7975
456.30 0.798
456.40 0.7985
456.50 0.799
456.60 0.7995
456.70 0.7999
456.80 0.8004
456.90 0.8009
457.00 0.8014
457.10 0.8019
457.20 0.8024
457.30 0.8029
457.40 0.8034
457.50 0.8039
457.60 0.8043
457.70 0.8048
457.80 0.8053
457.90 0.8058
458.00 0.8063
458.10 0.8068
458.20 0.8073
458.30 0.8077
458.40 0.8082
458.50 0.8087
458.60 0.8092
458.70 0.8097
458.80 0.8102
458.90 0.8107
459.00 0.8112
459.10 0.8116
459.20 0.8121
459.30 0.8126
459.40 0.8131
459.50 0.8136
459.60 0.8141
459.70 0.8146
459.80 0.815
459.90 0.8155
460.00 0.816
460.10 0.8165
460.20 0.817
460.30 0.8175
460.40 0.8179
460.50 0.8184
460.60 0.8189
460.70 0.8194
460.80 0.8199
460.90 0.8204
461.00 0.8209
461.10 0.8214
461.20 0.8218
461.30 0.8223
461.40 0.8228
461.50 0.8233
461.60 0.8238
461.70 0.8243
461.80 0.8247
461.90 0.8252
462.00 0.8257
462.10 0.8262
462.20 0.8267
462.30 0.8272
462.40 0.8276
462.50 0.8281
462.60 0.8286
462.70 0.8291
462.80 0.8296
462.90 0.8301
463.00 0.8305
463.10 0.831
463.20 0.8315
463.30 0.832
463.40 0.8325
463.50 0.8329
463.60 0.8334
463.70 0.8339
463.80 0.8344
463.90 0.8349
464.00 0.8354
464.10 0.8358
464.20 0.8363
464.30 0.8368
464.40 0.8373
464.50 0.8378
464.60 0.8382
464.70 0.8387
464.80 0.8392
464.90 0.8397
465.00 0.8402
465.10 0.8406
465.20 0.8411
465.30 0.8416
465.40 0.8421
465.50 0.8426
465.60 0.843
465.70 0.8435
465.80 0.844
465.90 0.8445
466.00 0.845
466.10 0.8454
466.20 0.8459
466.30 0.8464
466.40 0.8469
466.50 0.8473
466.60 0.8478
466.70 0.8483
466.80 0.8488
466.90 0.8493
467.00 0.8497
467.10 0.8502
467.20 0.8507
467.30 0.8512
467.40 0.8517
467.50 0.8521
467.60 0.8526
467.70 0.8531
467.80 0.8536
467.90 0.854
468.00 0.8545
468.10 0.855
468.20 0.8555
468.30 0.8559
468.40 0.8564
468.50 0.8569
468.60 0.8574
468.70 0.8578
468.80 0.8583
468.90 0.8588
469.00 0.8593
469.10 0.8597
469.20 0.8602
469.30 0.8607
469.40 0.8612
469.50 0.8616
469.60 0.8621
469.70 0.8626
469.80 0.8631
469.90 0.8635
470.00 0.864
470.10 0.8645
470.20 0.865
470.30 0.8654
470.40 0.8659
470.50 0.8664
470.60 0.8669
470.70 0.8673
470.80 0.8678
470.90 0.8683
471.00 0.8687
471.10 0.8692
471.20 0.8697
471.30 0.8702
471.40 0.8706
471.50 0.8711
471.60 0.8716
471.70 0.8721
471.80 0.8725
471.90 0.873
472.00 0.8735
472.10 0.874
472.20 0.8744
472.30 0.8749
472.40 0.8754
472.50 0.8758
472.60 0.8763
472.70 0.8768
472.80 0.8772
472.90 0.8777
473.00 0.8782
473.10 0.8787
473.20 0.8791
473.30 0.8796
473.40 0.8801
473.50 0.8805
473.60 0.881
473.70 0.8815
473.80 0.8819
473.90 0.8824
474.00 0.8829
474.10 0.8833
474.20 0.8838
474.30 0.8843
474.40 0.8848
474.50 0.8852
474.60 0.8857
474.70 0.8862
474.80 0.8866
474.90 0.8871
475.00 0.8876
475.10 0.888
475.20 0.8885
475.30 0.889
475.40 0.8894
475.50 0.8899
475.60 0.8904
475.70 0.8908
475.80 0.8913
475.90 0.8918
476.00 0.8922
476.10 0.8927
476.20 0.8932
476.30 0.8936
476.40 0.8941
476.50 0.8946
476.60 0.895
476.70 0.8955
476.80 0.896
476.90 0.8964
477.00 0.8969
477.10 0.8974
477.20 0.8978
477.30 0.8983
477.40 0.8988
477.50 0.8992
477.60 0.8997
477.70 0.9002
477.80 0.9006
477.90 0.9011
478.00 0.9015
478.10 0.902
478.20 0.9025
478.30 0.9029
478.40 0.9034
478.50 0.9039
478.60 0.9043
478.70 0.9048
478.80 0.9053
478.90 0.9057
479.00 0.9062
479.10 0.9066
479.20 0.9071
479.30 0.9076
479.40 0.908
479.50 0.9085
479.60 0.909
479.70 0.9094
479.80 0.9099
479.90 0.9103
480.00 0.9108
480.10 0.9113
480.20 0.9117
480.30 0.9122
480.40 0.9126
480.50 0.9131
480.60 0.9136
480.70 0.914
480.80 0.9145
480.90 0.915
481.00 0.9154
481.10 0.9159
481.20 0.9163
481.30 0.9168
481.40 0.9173
481.50 0.9177
481.60 0.9182
481.70 0.9186
481.80 0.9191
481.90 0.9195
482.00 0.92
482.10 0.9205
482.20 0.9209
482.30 0.9214
482.40 0.9218
482.50 0.9223
482.60 0.9227
482.70 0.9232
482.80 0.9237
482.90 0.9241
483.00 0.9246
483.10 0.925
483.20 0.9255
483.30 0.9259
483.40 0.9264
483.50 0.9269
483.60 0.9273
483.70 0.9278
483.80 0.9282
483.90 0.9287
484.00 0.9291
484.10 0.9296
484.20 0.93
484.30 0.9305
484.40 0.931
484.50 0.9314
484.60 0.9319
484.70 0.9323
484.80 0.9328
484.90 0.9332
485.00 0.9337
485.10 0.9341
485.20 0.9346
485.30 0.935
485.40 0.9355
485.50 0.9359
485.60 0.9364
485.70 0.9369
485.80 0.9373
485.90 0.9378
486.00 0.9382
486.10 0.9387
486.20 0.9391
486.30 0.9396
486.40 0.94
486.50 0.9405
486.60 0.9409
486.70 0.9414
486.80 0.9418
486.90 0.9423
487.00 0.9427
487.10 0.9432
487.20 0.9436
487.30 0.9441
487.40 0.9445
487.50 0.945
487.60 0.9454
487.70 0.9459
487.80 0.9463
487.90 0.9468
488.00 0.9472
488.10 0.9477
488.20 0.9481
488.30 0.9486
488.40 0.949
488.50 0.9495
488.60 0.9499
488.70 0.9504
488.80 0.9508
488.90 0.9513
489.00 0.9517
489.10 0.9522
489.20 0.9526
489.30 0.9531
489.40 0.9535
489.50 0.954
489.60 0.9544
489.70 0.9548
489.80 0.9553
489.90 0.9557
490.00 0.9562
490.10 0.9566
490.20 0.9571
490.30 0.9575
490.40 0.958
490.50 0.9584
490.60 0.9589
490.70 0.9593
490.80 0.9597
490.90 0.9602
491.00 0.9606
491.10 0.9611
491.20 0.9615
491.30 0.962
491.40 0.9624
491.50 0.9629
491.60 0.9633
491.70 0.9637
491.80 0.9642
491.90 0.9646
492.00 0.9651
492.10 0.9655
492.20 0.966
492.30 0.9664
492.40 0.9668
492.50 0.9673
492.60 0.9677
492.70 0.9682
492.80 0.9686
492.90 0.9691
493.00 0.9695
493.10 0.97
493.20 0.9704
493.30 0.9708
493.40 0.9713
493.50 0.9717
493.60 0.9722
493.70 0.9726
493.80 0.973
493.90 0.9735
494.00 0.9739
494.10 0.9743
494.20 0.9748
494.30 0.9752
494.40 0.9757
494.50 0.9761
494.60 0.9765
494.70 0.977
494.80 0.9774
494.90 0.9779
495.00 0.9783
495.10 0.9787
495.20 0.9792
495.30 0.9796
495.40 0.9801
495.50 0.9805
495.60 0.9809
495.70 0.9814
495.80 0.9818
495.90 0.9822
496.00 0.9827
496.10 0.9831
496.20 0.9835
496.30 0.984
496.40 0.9844
496.50 0.9849
496.60 0.9853
496.70 0.9857
496.80 0.9862
496.90 0.9866
497.00 0.987
497.10 0.9875
497.20 0.9879
497.30 0.9883
497.40 0.9888
497.50 0.9892
497.60 0.9896
497.70 0.9901
497.80 0.9905
497.90 0.9909
498.00 0.9914
498.10 0.9918
498.20 0.9922
498.30 0.9927
498.40 0.9931
498.50 0.9935
498.60 0.994
498.70 0.9944
498.80 0.9948
498.90 0.9953
499.00 0.9957
499.10 0.9961
499.20 0.9966
499.30 0.997
499.40 0.9974
499.50 0.9978
499.60 0.9983
499.70 0.9987
499.80 0.9991
499.90 0.9996
500.00 1
500.10 1
500.20 1.001
500.30 1.001
500.40 1.002
500.50 1.002
500.60 1.003
500.70 1.003
500.80 1.003
500.90 1.004
501.00 1.004
501.10 1.005
501.20 1.005
501.30 1.006
501.40 1.006
501.50 1.006
501.60 1.007
501.70 1.007
501.80 1.008
501.90 1.008
502.00 1.009
502.10 1.009
502.20 1.009
502.30 1.01
502.40 1.01
502.50 1.011
502.60 1.011
502.70 1.012
502.80 1.012
502.90 1.012
503.00 1.013
503.10 1.013
503.20 1.014
503.30 1.014
503.40 1.015
503.50 1.015
503.60 1.015
503.70 1.016
503.80 1.016
503.90 1.017
504.00 1.017
504.10 1.017
504.20 1.018
504.30 1.018
504.40 1.019
504.50 1.019
504.60 1.02
504.70 1.02
504.80 1.02
504.90 1.021
505.00 1.021
505.10 1.022
505.20 1.022
505.30 1.023
505.40 1.023
505.50 1.023
505.60 1.024
505.70 1.024
505.80 1.025
505.90 1.025
506.00 1.025
506.10 1.026
506.20 1.026
506.30 1.027
506.40 1.027
506.50 1.028
506.60 1.028
506.70 1.028
506.80 1.029
506.90 1.029
507.00 1.03
507.10 1.03
507.20 1.031
507.30 1.031
507.40 1.031
507.50 1.032
507.60 1.032
507.70 1.033
507.80 1.033
507.90 1.033
508.00 1.034
508.10 1.034
508.20 1.035
508.30 1.035
508.40 1.035
508.50 1.036
508.60 1.036
508.70 1.037
508.80 1.037
508.90 1.038
509.00 1.038
509.10 1.038
509.20 1.039
509.30 1.039
509.40 1.04
509.50 1.04
509.60 1.04
509.70 1.041
509.80 1.041
509.90 1.042
510.00 1.042
510.10 1.043
510.20 1.043
510.30 1.043
510.40 1.044
510.50 1.044
510.60 1.045
510.70 1.045
510.80 1.045
510.90 1.046
511.00 1.046
511.10 1.047
511.20 1.047
511.30 1.047
511.40 1.048
511.50 1.048
511.60 1.049
511.70 1.049
511.80 1.049
511.90 1.05
512.00 1.05
512.10 1.051
512.20 1.051
512.30 1.052
512.40 1.052
512.50 1.052
512.60 1.053
512.70 1.053
512.80 1.054
512.90 1.054
513.00 1.054
513.10 1.055
513.20 1.055
513.30 1.056
513.40 1.056
513.50 1.056
513.60 1.057
513.70 1.057
513.80 1.058
513.90 1.058
514.00 1.058
514.10 1.059
514.20 1.059
514.30 1.06
514.40 1.06
514.50 1.06
514.60 1.061
514.70 1.061
514.80 1.062
514.90 1.062
515.00 1.063
515.10 1.063
515.20 1.063
515.30 1.064
515.40 1.064
515.50 1.065
515.60 1.065
515.70 1.065
515.80 1.066
515.90 1.066
516.00 1.067
516.10 1.067
516.20 1.067
516.30 1.068
516.40 1.068
516.50 1.069
516.60 1.069
516.70 1.069
516.80 1.07
516.90 1.07
517.00 1.071
517.10 1.071
517.20 1.071
517.30 1.072
517.40 1.072
517.50 1.073
517.60 1.073
517.70 1.073
517.80 1.074
517.90 1.074
518.00 1.075
518.10 1.075
518.20 1.075
518.30 1.076
518.40 1.076
518.50 1.076
518.60 1.077
518.70 1.077
518.80 1.078
518.90 1.078
519.00 1.078
519.10 1.079
519.20 1.079
519.30 1.08
519.40 1.08
519.50 1.08
519.60 1.081
519.70 1.081
519.80 1.082
519.90 1.082
520.00 1.082
520.10 1.083
520.20 1.083
520.30 1.084
520.40 1.084
520.50 1.084
520.60 1.085
520.70 1.085
520.80 1.086
520.90 1.086
521.00 1.086
521.10 1.087
521.20 1.087
521.30 1.088
521.40 1.088
521.50 1.088
521.60 1.089
521.70 1.089
521.80 1.089
521.90 1.09
522.00 1.09
522.10 1.091
522.20 1.091
522.30 1.091
522.40 1.092
522.50 1.092
522.60 1.093
522.70 1.093
522.80 1.093
522.90 1.094
523.00 1.094
523.10 1.095
523.20 1.095
523.30 1.095
523.40 1.096
523.50 1.096
523.60 1.096
523.70 1.097
523.80 1.097
523.90 1.098
524.00 1.098
524.10 1.098
524.20 1.099
524.30 1.099
524.40 1.1
524.50 1.1
524.60 1.1
524.70 1.101
524.80 1.101
524.90 1.101
525.00 1.102
525.10 1.102
525.20 1.103
525.30 1.103
525.40 1.103
525.50 1.104
525.60 1.104
525.70 1.105
525.80 1.105
525.90 1.105
526.00 1.106
526.10 1.106
526.20 1.106
526.30 1.107
526.40 1.107
526.50 1.108
526.60 1.108
526.70 1.108
526.80 1.109
526.90 1.109
527.00 1.109
527.10 1.11
527.20 1.11
527.30 1.111
527.40 1.111
527.50 1.111
527.60 1.112
527.70 1.112
527.80 1.113
527.90 1.113
528.00 1.113
528.10 1.114
528.20 1.114
528.30 1.114
528.40 1.115
528.50 1.115
528.60 1.116
528.70 1.116
528.80 1.116
528.90 1.117
529.00 1.117
529.10 1.117
529.20 1.118
529.30 1.118
529.40 1.119
529.50 1.119
529.60 1.119
529.70 1.12
529.80 1.12
529.90 1.12
530.00 1.121
530.10 1.121
530.20 1.122
530.30 1.122
530.40 1.122
530.50 1.123
530.60 1.123
530.70 1.123
530.80 1.124
530.90 1.124
531.00 1.124
531.10 1.125
531.20 1.125
531.30 1.126
531.40 1.126
531.50 1.126
531.60 1.127
531.70 1.127
531.80 1.127
531.90 1.128
532.00 1.128
532.10 1.129
532.20 1.129
532.30 1.129
532.40 1.13
532.50 1.13
532.60 1.13
532.70 1.131
532.80 1.131
532.90 1.132
533.00 1.132
533.10 1.132
533.20 1.133
533.30 1.133
533.40 1.133
533.50 1.134
533.60 1.134
533.70 1.134
533.80 1.135
533.90 1.135
534.00 1.136
534.10 1.136
534.20 1.136
534.30 1.137
534.40 1.137
534.50 1.137
534.60 1.138
534.70 1.138
534.80 1.138
534.90 1.139
535.00 1.139
535.10 1.14
535.20 1.14
535.30 1.14
535.40 1.141
535.50 1.141
535.60 1.141
535.70 1.142
535.80 1.142
535.90 1.142
536.00 1.143
536.10 1.143
536.20 1.144
536.30 1.144
536.40 1.144
536.50 1.145
536.60 1.145
536.70 1.145
536.80 1.146
536.90 1.146
537.00 1.146
537.10 1.147
537.20 1.147
537.30 1.148
537.40 1.148
537.50 1.148
537.60 1.149
537.70 1.149
537.80 1.149
537.90 1.15
538.00 1.15
538.10 1.15
538.20 1.151
538.30 1.151
538.40 1.151
538.50 1.152
538.60 1.152
538.70 1.153
538.80 1.153
538.90 1.153
539.00 1.154
539.10 1.154
539.20 1.154
539.30 1.155
539.40 1.155
539.50 1.155
539.60 1.156
539.70 1.156
539.80 1.156
539.90 1.157
540.00 1.157
540.10 1.157
540.20 1.158
540.30 1.158
540.40 1.159
540.50 1.159
540.60 1.159
540.70 1.16
540.80 1.16
540.90 1.16
541.00 1.161
541.10 1.161
541.20 1.161
541.30 1.162
541.40 1.162
541.50 1.162
541.60 1.163
541.70 1.163
541.80 1.163
541.90 1.164
542.00 1.164
542.10 1.165
542.20 1.165
542.30 1.165
542.40 1.166
542.50 1.166
542.60 1.166
542.70 1.167
542.80 1.167
542.90 1.167
543.00 1.168
543.10 1.168
543.20 1.168
543.30 1.169
543.40 1.169
543.50 1.169
543.60 1.17
543.70 1.17
543.80 1.17
543.90 1.171
544.00 1.171
544.10 1.171
544.20 1.172
544.30 1.172
544.40 1.172
544.50 1.173
544.60 1.173
544.70 1.174
544.80 1.174
544.90 1.174
545.00 1.175
545.10 1.175
545.20 1.175
545.30 1.176
545.40 1.176
545.50 1.176
545.60 1.177
545.70 1.177
545.80 1.177
545.90 1.178
546.00 1.178
546.10 1.178
546.20 1.179
546.30 1.179
546.40 1.179
546.50 1.18
546.60 1.18
546.70 1.18
546.80 1.181
546.90 1.181
547.00 1.181
547.10 1.182
547.20 1.182
547.30 1.182
547.40 1.183
547.50 1.183
547.60 1.183
547.70 1.184
547.80 1.184
547.90 1.184
548.00 1.185
548.10 1.185
548.20 1.185
548.30 1.186
548.40 1.186
548.50 1.186
548.60 1.187
548.70 1.187
548.80 1.187
548.90 1.188
549.00 1.188
549.10 1.188
549.20 1.189
549.30 1.189
549.40 1.189
549.50 1.19
549.60 1.19
549.70 1.19
549.80 1.191
549.90 1.191
550.00 1.191
550.10 1.192
550.20 1.192
550.30 1.192
550.40 1.193
550.50 1.193
550.60 1.193
550.70 1.194
550.80 1.194
550.90 1.194
551.00 1.195
551.10 1.195
551.20 1.195
551.30 1.196
551.40 1.196
551.50 1.196
551.60 1.197
551.70 1.197
551.80 1.197
551.90 1.198
552.00 1.198
552.10 1.198
552.20 1.199
552.30 1.199
552.40 1.199
552.50 1.2
552.60 1.2
552.70 1.2
552.80 1.201
552.90 1.201
553.00 1.201
553.10 1.202
553.20 1.202
553.30 1.202
553.40 1.203
553.50 1.203
553.60 1.203
553.70 1.204
553.80 1.204
553.90 1.204
554.00 1.205
554.10 1.205
554.20 1.205
554.30 1.206
554.40 1.206
554.50 1.206
554.60 1.206
554.70 1.207
554.80 1.207
554.90 1.207
555.00 1.208
555.10 1.208
555.20 1.208
555.30 1.209
555.40 1.209
555.50 1.209
555.60 1.21
555.70 1.21
555.80 1.21
555.90 1.211
556.00 1.211
556.10 1.211
556.20 1.212
556.30 1.212
556.40 1.212
556.50 1.213
556.60 1.213
556.70 1.213
556.80 1.214
556.90 1.214
557.00 1.214
557.10 1.214
557.20 1.215
557.30 1.215
557.40 1.215
557.50 1.216
557.60 1.216
557.70 1.216
557.80 1.217
557.90 1.217
558.00 1.217
558.10 1.218
558.20 1.218
558.30 1.218
558.40 1.219
558.50 1.219
558.60 1.219
558.70 1.22
558.80 1.22
558.90 1.22
559.00 1.22
559.10 1.221
559.20 1.221
559.30 1.221
559.40 1.222
559.50 1.222
559.60 1.222
559.70 1.223
559.80 1.223
559.90 1.223
560.00 1.224
560.10 1.224
560.20 1.224
560.30 1.225
560.40 1.225
560.50 1.225
560.60 1.225
560.70 1.226
560.80 1.226
560.90 1.226
561.00 1.227
561.10 1.227
561.20 1.227
561.30 1.228
561.40 1.228
561.50 1.228
561.60 1.229
561.70 1.229
561.80 1.229
561.90 1.229
562.00 1.23
562.10 1.23
562.20 1.23
562.30 1.231
562.40 1.231
562.50 1.231
562.60 1.232
562.70 1.232
562.80 1.232
562.90 1.233
563.00 1.233
563.10 1.233
563.20 1.233
563.30 1.234
563.40 1.234
563.50 1.234
563.60 1.235
563.70 1.235
563.80 1.235
563.90 1.236
564.00 1.236
564.10 1.236
564.20 1.236
564.30 1.237
564.40 1.237
564.50 1.237
564.60 1.238
564.70 1.238
564.80 1.238
564.90 1.239
565.00 1.239
565.10 1.239
565.20 1.239
565.30 1.24
565.40 1.24
565.50 1.24
565.60 1.241
565.70 1.241
565.80 1.241
565.90 1.242
566.00 1.242
566.10 1.242
566.20 1.242
566.30 1.243
566.40 1.243
566.50 1.243
566.60 1.244
566.70 1.244
566.80 1.244
566.90 1.245
567.00 1.245
567.10 1.245
567.20 1.245
567.30 1.246
567.40 1.246
567.50 1.246
567.60 1.247
567.70 1.247
567.80 1.247
567.90 1.247
568.00 1.248
568.10 1.248
568.20 1.248
568.30 1.249
568.40 1.249
568.50 1.249
568.60 1.25
568.70 1.25
568.80 1.25
568.90 1.25
569.00 1.251
569.10 1.251
569.20 1.251
569.30 1.252
569.40 1.252
569.50 1.252
569.60 1.252
569.70 1.253
569.80 1.253
569.90 1.253
570.00 1.254
570.10 1.254
570.20 1.254
570.30 1.254
570.40 1.255
570.50 1.255
570.60 1.255
570.70 1.256
570.80 1.256
570.90 1.256
571.00 1.256
571.10 1.257
571.20 1.257
571.30 1.257
571.40 1.258
571.50 1.258
571.60 1.258
571.70 1.258
571.80 1.259
571.90 1.259
572.00 1.259
572.10 1.26
572.20 1.26
572.30 1.26
572.40 1.26
572.50 1.261
572.60 1.261
572.70 1.261
572.80 1.262
572.90 1.262
573.00 1.262
573.10 1.262
573.20 1.263
573.30 1.263
573.40 1.263
573.50 1.264
573.60 1.264
573.70 1.264
573.80 1.264
573.90 1.265
574.00 1.265
574.10 1.265
574.20 1.266
574.30 1.266
574.40 1.266
574.50 1.266
574.60 1.267
574.70 1.267
574.80 1.267
574.90 1.267
575.00 1.268
575.10 1.268
575.20 1.268
575.30 1.269
575.40 1.269
575.50 1.269
575.60 1.269
575.70 1.27
575.80 1.27
575.90 1.27
576.00 1.271
576.10 1.271
576.20 1.271
576.30 1.271
576.40 1.272
576.50 1.272
576.60 1.272
576.70 1.272
576.80 1.273
576.90 1.273
577.00 1.273
577.10 1.274
577.20 1.274
577.30 1.274
577.40 1.274
577.50 1.275
577.60 1.275
577.70 1.275
577.80 1.275
577.90 1.276
578.00 1.276
578.10 1.276
578.20 1.277
578.30 1.277
578.40 1.277
578.50 1.277
578.60 1.278
578.70 1.278
578.80 1.278
578.90 1.278
579.00 1.279
579.10 1.279
579.20 1.279
579.30 1.28
579.40 1.28
579.50 1.28
579.60 1.28
579.70 1.281
579.80 1.281
579.90 1.281
580.00 1.281
580.10 1.282
580.20 1.282
580.30 1.282
580.40 1.282
580.50 1.283
580.60 1.283
580.70 1.283
580.80 1.284
580.90 1.284
581.00 1.284
581.10 1.284
581.20 1.285
581.30 1.285
581.40 1.285
581.50 1.285
581.60 1.286
581.70 1.286
581.80 1.286
581.90 1.286
582.00 1.287
582.10 1.287
582.20 1.287
582.30 1.287
582.40 1.288
582.50 1.288
582.60 1.288
582.70 1.288
582.80 1.289
582.90 1.289
583.00 1.289
583.10 1.29
583.20 1.29
583.30 1.29
583.40 1.29
583.50 1.291
583.60 1.291
583.70 1.291
583.80 1.291
583.90 1.292
584.00 1.292
584.10 1.292
584.20 1.292
584.30 1.293
584.40 1.293
584.50 1.293
584.60 1.293
584.70 1.294
584.80 1.294
584.90 1.294
585.00 1.294
585.10 1.295
585.20 1.295
585.30 1.295
585.40 1.295
585.50 1.296
585.60 1.296
585.70 1.296
585.80 1.296
585.90 1.297
586.00 1.297
586.10 1.297
586.20 1.297
586.30 1.298
586.40 1.298
586.50 1.298
586.60 1.298
586.70 1.299
586.80 1.299
586.90 1.299
587.00 1.299
587.10 1.3
587.20 1.3
587.30 1.3
587.40 1.3
587.50 1.301
587.60 1.301
587.70 1.301
587.80 1.301
587.90 1.302
588.00 1.302
588.10 1.302
588.20 1.302
588.30 1.303
588.40 1.303
588.50 1.303
588.60 1.303
588.70 1.304
588.80 1.304
588.90 1.304
589.00 1.304
589.10 1.305
589.20 1.305
589.30 1.305
589.40 1.305
589.50 1.306
589.60 1.306
589.70 1.306
589.80 1.306
589.90 1.307
590.00 1.307
590.10 1.307
590.20 1.307
590.30 1.308
590.40 1.308
590.50 1.308
590.60 1.308
590.70 1.309
590.80 1.309
590.90 1.309
591.00 1.309
591.10 1.31
591.20 1.31
591.30 1.31
591.40 1.31
591.50 1.311
591.60 1.311
591.70 1.311
591.80 1.311
591.90 1.312
592.00 1.312
592.10 1.312
592.20 1.312
592.30 1.312
592.40 1.313
592.50 1.313
592.60 1.313
592.70 1.313
592.80 1.314
592.90 1.314
593.00 1.314
593.10 1.314
593.20 1.315
593.30 1.315
593.40 1.315
593.50 1.315
593.60 1.316
593.70 1.316
593.80 1.316
593.90 1.316
594.00 1.317
594.10 1.317
594.20 1.317
594.30 1.317
594.40 1.317
594.50 1.318
594.60 1.318
594.70 1.318
594.80 1.318
594.90 1.319
595.00 1.319
595.10 1.319
595.20 1.319
595.30 1.32
595.40 1.32
595.50 1.32
595.60 1.32
595.70 1.32
595.80 1.321
595.90 1.321
596.00 1.321
596.10 1.321
596.20 1.322
596.30 1.322
596.40 1.322
596.50 1.322
596.60 1.323
596.70 1.323
596.80 1.323
596.90 1.323
597.00 1.323
597.10 1.324
597.20 1.324
597.30 1.324
597.40 1.324
597.50 1.325
597.60 1.325
597.70 1.325
597.80 1.325
597.90 1.325
598.00 1.326
598.10 1.326
598.20 1.326
598.30 1.326
598.40 1.327
598.50 1.327
598.60 1.327
598.70 1.327
598.80 1.328
598.90 1.328
599.00 1.328
599.10 1.328
599.20 1.328
599.30 1.329
599.40 1.329
599.50 1.329
599.60 1.329
599.70 1.33
599.80 1.33
599.90 1.33
600.00 1.33
600.10 1.33
600.20 1.331
600.30 1.331
600.40 1.331
600.50 1.331
600.60 1.332
600.70 1.332
600.80 1.332
600.90 1.332
601.00 1.332
601.10 1.333
601.20 1.333
601.30 1.333
601.40 1.333
601.50 1.333
601.60 1.334
601.70 1.334
601.80 1.334
601.90 1.334
602.00 1.335
602.10 1.335
602.20 1.335
602.30 1.335
602.40 1.335
602.50 1.336
602.60 1.336
602.70 1.336
602.80 1.336
602.90 1.337
603.00 1.337
603.10 1.337
603.20 1.337
603.30 1.337
603.40 1.338
603.50 1.338
603.60 1.338
603.70 1.338
603.80 1.338
603.90 1.339
604.00 1.339
604.10 1.339
604.20 1.339
604.30 1.339
604.40 1.34
604.50 1.34
604.60 1.34
604.70 1.34
604.80 1.341
604.90 1.341
605.00 1.341
605.10 1.341
605.20 1.341
605.30 1.342
605.40 1.342
605.50 1.342
605.60 1.342
605.70 1.342
605.80 1.343
605.90 1.343
606.00 1.343
606.10 1.343
606.20 1.343
606.30 1.344
606.40 1.344
606.50 1.344
606.60 1.344
606.70 1.344
606.80 1.345
606.90 1.345
607.00 1.345
607.10 1.345
607.20 1.346
607.30 1.346
607.40 1.346
607.50 1.346
607.60 1.346
607.70 1.347
607.80 1.347
607.90 1.347
608.00 1.347
608.10 1.347
608.20 1.348
608.30 1.348
608.40 1.348
608.50 1.348
608.60 1.348
608.70 1.349
608.80 1.349
608.90 1.349
609.00 1.349
609.10 1.349
609.20 1.35
609.30 1.35
609.40 1.35
609.50 1.35
609.60 1.35
609.70 1.351
609.80 1.351
609.90 1.351
610.00 1.351
610.10 1.351
610.20 1.352
610.30 1.352
610.40 1.352
610.50 1.352
610.60 1.352
610.70 1.353
610.80 1.353
610.90 1.353
611.00 1.353
611.10 1.353
611.20 1.354
611.30 1.354
611.40 1.354
611.50 1.354
611.60 1.354
611.70 1.354
611.80 1.355
611.90 1.355
612.00 1.355
612.10 1.355
612.20 1.355
612.30 1.356
612.40 1.356
612.50 1.356
612.60 1.356
612.70 1.356
612.80 1.357
612.90 1.357
613.00 1.357
613.10 1.357
613.20 1.357
613.30 1.358
613.40 1.358
613.50 1.358
613.60 1.358
613.70 1.358
613.80 1.359
613.90 1.359
614.00 1.359
614.10 1.359
614.20 1.359
614.30 1.359
614.40 1.36
614.50 1.36
614.60 1.36
614.70 1.36
614.80 1.36
614.90 1.361
615.00 1.361
615.10 1.361
615.20 1.361
615.30 1.361
615.40 1.361
615.50 1.362
615.60 1.362
615.70 1.362
615.80 1.362
615.90 1.362
616.00 1.363
616.10 1.363
616.20 1.363
616.30 1.363
616.40 1.363
616.50 1.364
616.60 1.364
616.70 1.364
616.80 1.364
616.90 1.364
617.00 1.364
617.10 1.365
617.20 1.365
617.30 1.365
617.40 1.365
617.50 1.365
617.60 1.365
617.70 1.366
617.80 1.366
617.90 1.366
618.00 1.366
618.10 1.366
618.20 1.367
618.30 1.367
618.40 1.367
618.50 1.367
618.60 1.367
618.70 1.367
618.80 1.368
618.90 1.368
619.00 1.368
619.10 1.368
619.20 1.368
619.30 1.369
619.40 1.369
619.50 1.369
619.60 1.369
619.70 1.369
619.80 1.369
619.90 1.37
620.00 1.37
620.10 1.37
620.20 1.37
620.30 1.37
620.40 1.37
620.50 1.371
620.60 1.371
620.70 1.371
620.80 1.371
620.90 1.371
621.00 1.371
621.10 1.372
621.20 1.372
621.30 1.372
621.40 1.372
621.50 1.372
621.60 1.372
621.70 1.373
621.80 1.373
621.90 1.373
622.00 1.373
622.10 1.373
622.20 1.374
622.30 1.374
622.40 1.374
622.50 1.374
622.60 1.374
622.70 1.374
622.80 1.375
622.90 1.375
623.00 1.375
623.10 1.375
623.20 1.375
623.30 1.375
623.40 1.376
623.50 1.376
623.60 1.376
623.70 1.376
623.80 1.376
623.90 1.376
624.00 1.376
624.10 1.377
624.20 1.377
624.30 1.377
624.40 1.377
624.50 1.377
624.60 1.377
624.70 1.378
624.80 1.378
624.90 1.378
625.00 1.378
625.10 1.378
625.20 1.378
625.30 1.379
625.40 1.379
625.50 1.379
625.60 1.379
625.70 1.379
625.80 1.379
625.90 1.38
626.00 1.38
626.10 1.38
626.20 1.38
626.30 1.38
626.40 1.38
626.50 1.381
626.60 1.381
626.70 1.381
626.80 1.381
626.90 1.381
627.00 1.381
627.10 1.381
627.20 1.382
627.30 1.382
627.40 1.382
627.50 1.382
627.60 1.382
627.70 1.382
627.80 1.383
627.90 1.383
628.00 1.383
628.10 1.383
628.20 1.383
628.30 1.383
628.40 1.383
628.50 1.384
628.60 1.384
628.70 1.384
628.80 1.384
628.90 1.384
629.00 1.384
629.10 1.385
629.20 1.385
629.30 1.385
629.40 1.385
629.50 1.385
629.60 1.385
629.70 1.385
629.80 1.386
629.90 1.386
630.00 1.386
630.10 1.386
630.20 1.386
630.30 1.386
630.40 1.386
630.50 1.387
630.60 1.387
630.70 1.387
630.80 1.387
630.90 1.387
631.00 1.387
631.10 1.388
631.20 1.388
631.30 1.388
631.40 1.388
631.50 1.388
631.60 1.388
631.70 1.388
631.80 1.388
631.90 1.389
632.00 1.389
632.10 1.389
632.20 1.389
632.30 1.389
632.40 1.389
632.50 1.39
632.60 1.39
632.70 1.39
632.80 1.39
632.90 1.39
633.00 1.39
633.10 1.39
633.20 1.391
633.30 1.391
633.40 1.391
633.50 1.391
633.60 1.391
633.70 1.391
633.80 1.391
633.90 1.391
634.00 1.392
634.10 1.392
634.20 1.392
634.30 1.392
634.40 1.392
634.50 1.392
634.60 1.392
634.70 1.393
634.80 1.393
634.90 1.393
635.00 1.393
635.10 1.393
635.20 1.393
635.30 1.393
635.40 1.394
635.50 1.394
635.60 1.394
635.70 1.394
635.80 1.394
635.90 1.394
636.00 1.394
636.10 1.394
636.20 1.395
636.30 1.395
636.40 1.395
636.50 1.395
636.60 1.395
636.70 1.395
636.80 1.395
636.90 1.396
637.00 1.396
637.10 1.396
637.20 1.396
637.30 1.396
637.40 1.396
637.50 1.396
637.60 1.396
637.70 1.397
637.80 1.397
637.90 1.397
638.00 1.397
638.10 1.397
638.20 1.397
638.30 1.397
638.40 1.397
638.50 1.398
638.60 1.398
638.70 1.398
638.80 1.398
638.90 1.398
639.00 1.398
639.10 1.398
639.20 1.398
639.30 1.399
639.40 1.399
639.50 1.399
639.60 1.399
639.70 1.399
639.80 1.399
639.90 1.399
640.00 1.399
640.10 1.4
640.20 1.4
640.30 1.4
640.40 1.4
640.50 1.4
640.60 1.4
640.70 1.4
640.80 1.4
640.90 1.401
641.00 1.401
641.10 1.401
641.20 1.401
641.30 1.401
641.40 1.401
641.50 1.401
641.60 1.401
641.70 1.401
641.80 1.402
641.90 1.402
642.00 1.402
642.10 1.402
642.20 1.402
642.30 1.402
642.40 1.402
642.50 1.402
642.60 1.402
642.70 1.403
642.80 1.403
642.90 1.403
643.00 1.403
643.10 1.403
643.20 1.403
643.30 1.403
643.40 1.403
643.50 1.404
643.60 1.404
643.70 1.404
643.80 1.404
643.90 1.404
644.00 1.404
644.10 1.404
644.20 1.404
644.30 1.404
644.40 1.405
644.50 1.405
644.60 1.405
644.70 1.405
644.80 1.405
644.90 1.405
645.00 1.405
645.10 1.405
645.20 1.405
645.30 1.405
645.40 1.406
645.50 1.406
645.60 1.406
645.70 1.406
645.80 1.406
645.90 1.406
646.00 1.406
646.10 1.406
646.20 1.406
646.30 1.407
646.40 1.407
646.50 1.407
646.60 1.407
646.70 1.407
646.80 1.407
646.90 1.407
647.00 1.407
647.10 1.407
647.20 1.407
647.30 1.408
647.40 1.408
647.50 1.408
647.60 1.408
647.70 1.408
647.80 1.408
647.90 1.408
648.00 1.408
648.10 1.408
648.20 1.409
648.30 1.409
648.40 1.409
648.50 1.409
648.60 1.409
648.70 1.409
648.80 1.409
648.90 1.409
649.00 1.409
649.10 1.409
649.20 1.41
649.30 1.41
649.40 1.41
649.50 1.41
649.60 1.41
649.70 1.41
649.80 1.41
649.90 1.41
650.00 1.41
650.10 1.41
650.20 1.41
650.30 1.411
650.40 1.411
650.50 1.411
650.60 1.411
650.70 1.411
650.80 1.411
650.90 1.411
651.00 1.411
651.10 1.411
651.20 1.411
651.30 1.411
651.40 1.411
651.50 1.412
651.60 1.412
651.70 1.412
651.80 1.412
651.90 1.412
652.00 1.412
652.10 1.412
652.20 1.412
652.30 1.412
652.40 1.412
652.50 1.412
652.60 1.412
652.70 1.413
652.80 1.413
652.90 1.413
653.00 1.413
653.10 1.413
653.20 1.413
653.30 1.413
653.40 1.413
653.50 1.413
653.60 1.413
653.70 1.413
653.80 1.413
653.90 1.414
654.00 1.414
654.10 1.414
654.20 1.414
654.30 1.414
654.40 1.414
654.50 1.414
654.60 1.414
654.70 1.414
654.80 1.414
654.90 1.414
655.00 1.414
655.10 1.415
655.20 1.415
655.30 1.415
655.40 1.415
655.50 1.415
655.60 1.415
655.70 1.415
655.80 1.415
655.90 1.415
656.00 1.415
656.10 1.415
656.20 1.415
656.30 1.415
656.40 1.416
656.50 1.416
656.60 1.416
656.70 1.416
656.80 1.416
656.90 1.416
657.00 1.416
657.10 1.416
657.20 1.416
657.30 1.416
657.40 1.416
657.50 1.416
657.60 1.416
657.70 1.416
657.80 1.417
657.90 1.417
658.00 1.417
658.10 1.417
658.20 1.417
658.30 1.417
658.40 1.417
658.50 1.417
658.60 1.417
658.70 1.417
658.80 1.417
658.90 1.417
659.00 1.417
659.10 1.417
659.20 1.417
659.30 1.417
659.40 1.418
659.50 1.418
659.60 1.418
659.70 1.418
659.80 1.418
659.90 1.418
660.00 1.418
660.10 1.418
660.20 1.418
660.30 1.418
660.40 1.418
660.50 1.418
660.60 1.418
660.70 1.418
660.80 1.418
660.90 1.418
661.00 1.418
661.10 1.419
661.20 1.419
661.30 1.419
661.40 1.419
661.50 1.419
661.60 1.419
661.70 1.419
661.80 1.419
661.90 1.419
662.00 1.419
662.10 1.419
662.20 1.419
662.30 1.419
662.40 1.419
662.50 1.419
662.60 1.419
662.70 1.419
662.80 1.419
662.90 1.42
663.00 1.42
663.10 1.42
663.20 1.42
663.30 1.42
663.40 1.42
663.50 1.42
663.60 1.42
663.70 1.42
663.80 1.42
663.90 1.42
664.00 1.42
664.10 1.42
664.20 1.42
664.30 1.42
664.40 1.42
664.50 1.42
664.60 1.42
664.70 1.42
664.80 1.42
664.90 1.42
665.00 1.42
665.10 1.42
665.20 1.421
665.30 1.421
665.40 1.421
665.50 1.421
665.60 1.421
665.70 1.421
665.80 1.421
665.90 1.421
666.00 1.421
666.10 1.421
666.20 1.421
666.30 1.421
666.40 1.421
666.50 1.421
666.60 1.421
666.70 1.421
666.80 1.421
666.90 1.421
667.00 1.421
667.10 1.421
667.20 1.421
667.30 1.421
667.40 1.421
667.50 1.421
667.60 1.421
667.70 1.421
667.80 1.422
667.90 1.422
668.00 1.422
668.10 1.422
668.20 1.422
668.30 1.422
668.40 1.422
668.50 1.422
668.60 1.422
668.70 1.422
668.80 1.422
668.90 1.422
669.00 1.422
669.10 1.422
669.20 1.422
669.30 1.422
669.40 1.422
669.50 1.422
669.60 1.422
669.70 1.422
669.80 1.422
669.90 1.422
670.00 1.422
670.10 1.422
670.20 1.422
670.30 1.422
670.40 1.422
670.50 1.422
670.60 1.422
670.70 1.422
670.80 1.422
670.90 1.422
671.00 1.422
671.10 1.422
671.20 1.422
671.30 1.422
671.40 1.422
671.50 1.422
671.60 1.422
671.70 1.422
671.80 1.422
671.90 1.422
672.00 1.422
672.10 1.423
672.20 1.423
672.30 1.423
672.40 1.423
672.50 1.423
672.60 1.423
672.70 1.423
672.80 1.423
672.90 1.423
673.00 1.423
673.10 1.423
673.20 1.423
673.30 1.423
673.40 1.423
673.50 1.423
673.60 1.423
673.70 1.423
673.80 1.423
673.90 1.423
674.00 1.423
674.10 1.423
674.20 1.423
674.30 1.423
674.40 1.423
674.50 1.423
674.60 1.423
674.70 1.423
674.80 1.423
674.90 1.423
675.00 1.423
675.10 1.423
675.20 1.423
675.30 1.423
675.40 1.423
675.50 1.423
675.60 1.423
675.70 1.423
675.80 1.423
675.90 1.423
676.00 1.423
676.10 1.423
676.20 1.423
676.30 1.423
676.40 1.423
676.50 1.423
676.60 1.423
676.70 1.423
676.80 1.423
676.90 1.423
677.00 1.423
677.10 1.423
677.20 1.423
677.30 1.423
677.40 1.423
677.50 1.423
677.60 1.423
677.70 1.423
677.80 1.423
677.90 1.423
678.00 1.423
678.10 1.422
678.20 1.422
678.30 1.422
678.40 1.422
678.50 1.422
678.60 1.422
678.70 1.422
678.80 1.422
678.90 1.422
679.00 1.422
679.10 1.422
679.20 1.422
679.30 1.422
679.40 1.422
679.50 1.422
679.60 1.422
679.70 1.422
679.80 1.422
679.90 1.422
680.00 1.422
680.10 1.422
680.20 1.422
680.30 1.422
680.40 1.422
680.50 1.422
680.60 1.422
680.70 1.422
680.80 1.422
680.90 1.422
681.00 1.422
681.10 1.422
681.20 1.422
681.30 1.422
681.40 1.422
681.50 1.422
681.60 1.422
681.70 1.422
681.80 1.422
681.90 1.422
682.00 1.422
682.10 1.422
682.20 1.422
682.30 1.421
682.40 1.421
682.50 1.421
682.60 1.421
682.70 1.421
682.80 1.421
682.90 1.421
683.00 1.421
683.10 1.421
683.20 1.421
683.30 1.421
683.40 1.421
683.50 1.421
683.60 1.421
683.70 1.421
683.80 1.421
683.90 1.421
684.00 1.421
684.10 1.421
684.20 1.421
684.30 1.421
684.40 1.421
684.50 1.421
684.60 1.42
684.70 1.42
684.80 1.42
684.90 1.42
685.00 1.42
685.10 1.42
685.20 1.42
685.30 1.42
685.40 1.42
685.50 1.42
685.60 1.42
685.70 1.42
685.80 1.42
685.90 1.42
686.00 1.42
686.10 1.42
686.20 1.42
686.30 1.42
686.40 1.42
686.50 1.419
686.60 1.419
686.70 1.419
686.80 1.419
686.90 1.419
687.00 1.419
687.10 1.419
687.20 1.419
687.30 1.419
687.40 1.419
687.50 1.419
687.60 1.419
687.70 1.419
687.80 1.419
687.90 1.419
688.00 1.418
688.10 1.418
688.20 1.418
688.30 1.418
688.40 1.418
688.50 1.418
688.60 1.418
688.70 1.418
688.80 1.418
688.90 1.418
689.00 1.418
689.10 1.418
689.20 1.418
689.30 1.418
689.40 1.418
689.50 1.417
689.60 1.417
689.70 1.417
689.80 1.417
689.90 1.417
690.00 1.417
690.10 1.417
690.20 1.417
690.30 1.417
690.40 1.417
690.50 1.416
690.60 1.416
690.70 1.416
690.80 1.416
690.90 1.416
691.00 1.416
691.10 1.416
691.20 1.416
691.30 1.416
691.40 1.416
691.50 1.416
691.60 1.415
691.70 1.415
691.80 1.415
691.90 1.415
692.00 1.415
692.10 1.415
692.20 1.415
692.30 1.415
692.40 1.415
692.50 1.415
692.60 1.414
692.70 1.414
692.80 1.414
692.90 1.414
693.00 1.414
693.10 1.414
693.20 1.414
693.30 1.414
693.40 1.414
693.50 1.414
693.60 1.414
693.70 1.413
693.80 1.413
693.90 1.413
694.00 1.413
694.10 1.413
694.20 1.413
694.30 1.413
694.40 1.413
694.50 1.413
694.60 1.413
694.70 1.412
694.80 1.412
694.90 1.412
695.00 1.412
695.10 1.412
695.20 1.412
695.30 1.412
695.40 1.412
695.50 1.412
695.60 1.411
695.70 1.411
695.80 1.411
695.90 1.411
696.00 1.411
696.10 1.411
696.20 1.411
696.30 1.411
696.40 1.41
696.50 1.41
696.60 1.41
696.70 1.41
696.80 1.41
696.90 1.41
697.00 1.41
697.10 1.41
697.20 1.409
697.30 1.409
697.40 1.409
697.50 1.409
697.60 1.409
697.70 1.409
697.80 1.409
697.90 1.409
698.00 1.408
698.10 1.408
698.20 1.408
698.30 1.408
698.40 1.408
698.50 1.408
698.60 1.408
698.70 1.407
698.80 1.407
698.90 1.407
699.00 1.407
699.10 1.407
699.20 1.407
699.30 1.407
699.40 1.407
699.50 1.406
699.60 1.406
699.70 1.406
699.80 1.406
699.90 1.406
700.00 1.406
700.10 1.406
700.20 1.406
700.30 1.405
700.40 1.405
700.50 1.405
700.60 1.405
700.70 1.405
700.80 1.405
700.90 1.404
701.00 1.404
701.10 1.404
701.20 1.404
701.30 1.404
701.40 1.404
701.50 1.403
701.60 1.403
701.70 1.403
701.80 1.403
701.90 1.403
702.00 1.403
702.10 1.402
702.20 1.402
702.30 1.402
702.40 1.402
702.50 1.402
702.60 1.402
702.70 1.401
702.80 1.401
702.90 1.401
703.00 1.401
703.10 1.401
703.20 1.401
703.30 1.4
703.40 1.4
703.50 1.4
703.60 1.4
703.70 1.4
703.80 1.4
703.90 1.399
704.00 1.399
704.10 1.399
704.20 1.399
704.30 1.399
704.40 1.399
704.50 1.399
704.60 1.398
704.70 1.398
704.80 1.398
704.90 1.398
705.00 1.398
705.10 1.398
705.20 1.397
705.30 1.397
705.40 1.397
705.50 1.397
705.60 1.397
705.70 1.396
705.80 1.396
705.90 1.396
706.00 1.396
706.10 1.396
706.20 1.395
706.30 1.395
706.40 1.395
706.50 1.395
706.60 1.395
706.70 1.394
706.80 1.394
706.90 1.394
707.00 1.394
707.10 1.394
707.20 1.393
707.30 1.393
707.40 1.393
707.50 1.393
707.60 1.393
707.70 1.393
707.80 1.392
707.90 1.392
708.00 1.392
708.10 1.392
708.20 1.392
708.30 1.391
708.40 1.391
708.50 1.391
708.60 1.391
708.70 1.391
708.80 1.39
708.90 1.39
709.00 1.39
709.10 1.39
709.20 1.39
709.30 1.389
709.40 1.389
709.50 1.389
709.60 1.389
709.70 1.389
709.80 1.389
709.90 1.388
710.00 1.388
710.10 1.388
710.20 1.388
710.30 1.387
710.40 1.387
710.50 1.387
710.60 1.387
710.70 1.387
710.80 1.386
710.90 1.386
711.00 1.386
711.10 1.386
711.20 1.385
711.30 1.385
711.40 1.385
711.50 1.385
711.60 1.385
711.70 1.384
711.80 1.384
711.90 1.384
712.00 1.384
712.10 1.383
712.20 1.383
712.30 1.383
712.40 1.383
712.50 1.383
712.60 1.382
712.70 1.382
712.80 1.382
712.90 1.382
713.00 1.381
713.10 1.381
713.20 1.381
713.30 1.381
713.40 1.381
713.50 1.38
713.60 1.38
713.70 1.38
713.80 1.38
713.90 1.379
714.00 1.379
714.10 1.379
714.20 1.379
714.30 1.379
714.40 1.378
714.50 1.378
714.60 1.378
714.70 1.378
714.80 1.377
714.90 1.377
715.00 1.377
715.10 1.377
715.20 1.376
715.30 1.376
715.40 1.376
715.50 1.376
715.60 1.375
715.70 1.375
715.80 1.375
715.90 1.375
716.00 1.374
716.10 1.374
716.20 1.374
716.30 1.374
716.40 1.373
716.50 1.373
716.60 1.373
716.70 1.373
716.80 1.373
716.90 1.372
717.00 1.372
717.10 1.372
717.20 1.372
717.30 1.371
717.40 1.371
717.50 1.371
717.60 1.371
717.70 1.37
717.80 1.37
717.90 1.37
718.00 1.37
718.10 1.369
718.20 1.369
718.30 1.369
718.40 1.369
718.50 1.368
718.60 1.368
718.70 1.368
718.80 1.368
718.90 1.367
719.00 1.367
719.10 1.367
719.20 1.367
719.30 1.366
719.40 1.366
719.50 1.366
719.60 1.366
719.70 1.365
719.80 1.365
719.90 1.365
720.00 1.365
720.10 1.364
720.20 1.364
720.30 1.364
720.40 1.364
720.50 1.363
720.60 1.363
720.70 1.363
720.80 1.363
720.90 1.362
721.00 1.362
721.10 1.362
721.20 1.361
721.30 1.361
721.40 1.361
721.50 1.361
721.60 1.36
721.70 1.36
721.80 1.36
721.90 1.36
722.00 1.359
722.10 1.359
722.20 1.359
722.30 1.359
722.40 1.358
722.50 1.358
722.60 1.358
722.70 1.357
722.80 1.357
722.90 1.357
723.00 1.357
723.10 1.356
723.20 1.356
723.30 1.356
723.40 1.356
723.50 1.355
723.60 1.355
723.70 1.355
723.80 1.355
723.90 1.354
724.00 1.354
724.10 1.354
724.20 1.354
724.30 1.353
724.40 1.353
724.50 1.353
724.60 1.353
724.70 1.352
724.80 1.352
724.90 1.352
725.00 1.351
725.10 1.351
725.20 1.351
725.30 1.351
725.40 1.35
725.50 1.35
725.60 1.35
725.70 1.35
725.80 1.349
725.90 1.349
726.00 1.349
726.10 1.348
726.20 1.348
726.30 1.348
726.40 1.348
726.50 1.347
726.60 1.347
726.70 1.347
726.80 1.347
726.90 1.346
727.00 1.346
727.10 1.346
727.20 1.346
727.30 1.345
727.40 1.345
727.50 1.345
727.60 1.344
727.70 1.344
727.80 1.344
727.90 1.344
728.00 1.343
728.10 1.343
728.20 1.343
728.30 1.343
728.40 1.342
728.50 1.342
728.60 1.342
728.70 1.341
728.80 1.341
728.90 1.341
729.00 1.341
729.10 1.34
729.20 1.34
729.30 1.34
729.40 1.34
729.50 1.339
729.60 1.339
729.70 1.339
729.80 1.339
729.90 1.338
730.00 1.338
730.10 1.338
730.20 1.337
730.30 1.337
730.40 1.337
730.50 1.337
730.60 1.336
730.70 1.336
730.80 1.336
730.90 1.336
731.00 1.335
731.10 1.335
731.20 1.335
731.30 1.335
731.40 1.334
731.50 1.334
731.60 1.334
731.70 1.334
731.80 1.333
731.90 1.333
732.00 1.333
732.10 1.333
732.20 1.332
732.30 1.332
732.40 1.332
732.50 1.332
732.60 1.331
732.70 1.331
732.80 1.331
732.90 1.33
733.00 1.33
733.10 1.33
733.20 1.33
733.30 1.329
733.40 1.329
733.50 1.329
733.60 1.329
733.70 1.328
733.80 1.328
733.90 1.328
734.00 1.328
734.10 1.327
734.20 1.327
734.30 1.327
734.40 1.327
734.50 1.326
734.60 1.326
734.70 1.326
734.80 1.326
734.90 1.325
735.00 1.325
735.10 1.325
735.20 1.325
735.30 1.324
735.40 1.324
735.50 1.324
735.60 1.324
735.70 1.323
735.80 1.323
735.90 1.323
736.00 1.323
736.10 1.322
736.20 1.322
736.30 1.322
736.40 1.321
736.50 1.321
736.60 1.321
736.70 1.321
736.80 1.32
736.90 1.32
737.00 1.32
737.10 1.32
737.20 1.319
737.30 1.319
737.40 1.319
737.50 1.319
737.60 1.318
737.70 1.318
737.80 1.318
737.90 1.318
738.00 1.317
738.10 1.317
738.20 1.317
738.30 1.317
738.40 1.316
738.50 1.316
738.60 1.316
738.70 1.316
738.80 1.315
738.90 1.315
739.00 1.315
739.10 1.315
739.20 1.314
739.30 1.314
739.40 1.314
739.50 1.314
739.60 1.313
739.70 1.313
739.80 1.313
739.90 1.313
740.00 1.312
740.10 1.312
740.20 1.312
740.30 1.312
740.40 1.311
740.50 1.311
740.60 1.311
740.70 1.311
740.80 1.311
740.90 1.31
741.00 1.31
741.10 1.31
741.20 1.31
741.30 1.309
741.40 1.309
741.50 1.309
741.60 1.309
741.70 1.309
741.80 1.308
741.90 1.308
742.00 1.308
742.10 1.308
742.20 1.307
742.30 1.307
742.40 1.307
742.50 1.307
742.60 1.307
742.70 1.306
742.80 1.306
742.90 1.306
743.00 1.306
743.10 1.305
743.20 1.305
743.30 1.305
743.40 1.305
743.50 1.304
743.60 1.304
743.70 1.304
743.80 1.304
743.90 1.304
744.00 1.303
744.10 1.303
744.20 1.303
744.30 1.303
744.40 1.302
744.50 1.302
744.60 1.302
744.70 1.302
744.80 1.302
744.90 1.301
745.00 1.301
745.10 1.301
745.20 1.301
745.30 1.3
745.40 1.3
745.50 1.3
745.60 1.3
745.70 1.3
745.80 1.299
745.90 1.299
746.00 1.299
746.10 1.299
746.20 1.298
746.30 1.298
746.40 1.298
746.50 1.298
746.60 1.298
746.70 1.297
746.80 1.297
746.90 1.297
747.00 1.297
747.10 1.297
747.20 1.296
747.30 1.296
747.40 1.296
747.50 1.296
747.60 1.295
747.70 1.295
747.80 1.295
747.90 1.295
748.00 1.295
748.10 1.294
748.20 1.294
748.30 1.294
748.40 1.294
748.50 1.293
748.60 1.293
748.70 1.293
748.80 1.293
748.90 1.293
749.00 1.292
749.10 1.292
749.20 1.292
749.30 1.292
749.40 1.291
749.50 1.291
749.60 1.291
749.70 1.291
749.80 1.291
749.90 1.29
750.00 1.29
750.10 1.29
750.20 1.29
750.30 1.29
750.40 1.289
750.50 1.289
750.60 1.289
750.70 1.289
750.80 1.289
750.90 1.288
751.00 1.288
751.10 1.288
751.20 1.288
751.30 1.288
751.40 1.287
751.50 1.287
751.60 1.287
751.70 1.287
751.80 1.287
751.90 1.286
752.00 1.286
752.10 1.286
752.20 1.286
752.30 1.286
752.40 1.286
752.50 1.285
752.60 1.285
752.70 1.285
752.80 1.285
752.90 1.285
753.00 1.284
753.10 1.284
753.20 1.284
753.30 1.284
753.40 1.284
753.50 1.283
753.60 1.283
753.70 1.283
753.80 1.283
753.90 1.283
754.00 1.282
754.10 1.282
754.20 1.282
754.30 1.282
754.40 1.282
754.50 1.281
754.60 1.281
754.70 1.281
754.80 1.281
754.90 1.281
755.00 1.281
755.10 1.28
755.20 1.28
755.30 1.28
755.40 1.28
755.50 1.28
755.60 1.279
755.70 1.279
755.80 1.279
755.90 1.279
756.00 1.279
756.10 1.278
756.20 1.278
756.30 1.278
756.40 1.278
756.50 1.278
756.60 1.277
756.70 1.277
756.80 1.277
756.90 1.277
757.00 1.277
757.10 1.277
757.20 1.276
757.30 1.276
757.40 1.276
757.50 1.276
757.60 1.276
757.70 1.275
757.80 1.275
757.90 1.275
758.00 1.275
758.10 1.275
758.20 1.274
758.30 1.274
758.40 1.274
758.50 1.274
758.60 1.274
758.70 1.273
758.80 1.273
758.90 1.273
759.00 1.273
759.10 1.273
759.20 1.273
759.30 1.272
759.40 1.272
759.50 1.272
759.60 1.272
759.70 1.272
759.80 1.271
759.90 1.271
760.00 1.271
760.10 1.271
760.20 1.271
760.30 1.271
760.40 1.27
760.50 1.27
760.60 1.27
760.70 1.27
760.80 1.27
760.90 1.269
761.00 1.269
761.10 1.269
761.20 1.269
761.30 1.269
761.40 1.269
761.50 1.268
761.60 1.268
761.70 1.268
761.80 1.268
761.90 1.268
762.00 1.268
762.10 1.267
762.20 1.267
762.30 1.267
762.40 1.267
762.50 1.267
762.60 1.266
762.70 1.266
762.80 1.266
762.90 1.266
763.00 1.266
763.10 1.266
763.20 1.265
763.30 1.265
763.40 1.265
763.50 1.265
763.60 1.265
763.70 1.265
763.80 1.264
763.90 1.264
764.00 1.264
764.10 1.264
764.20 1.264
764.30 1.264
764.40 1.263
764.50 1.263
764.60 1.263
764.70 1.263
764.80 1.263
764.90 1.262
765.00 1.262
765.10 1.262
765.20 1.262
765.30 1.262
765.40 1.262
765.50 1.261
765.60 1.261
765.70 1.261
765.80 1.261
765.90 1.261
766.00 1.261
766.10 1.26
766.20 1.26
766.30 1.26
766.40 1.26
766.50 1.26
766.60 1.26
766.70 1.259
766.80 1.259
766.90 1.259
767.00 1.259
767.10 1.259
767.20 1.259
767.30 1.258
767.40 1.258
767.50 1.258
767.60 1.258
767.70 1.258
767.80 1.258
767.90 1.257
768.00 1.257
768.10 1.257
768.20 1.257
768.30 1.257
768.40 1.256
768.50 1.256
768.60 1.256
768.70 1.256
768.80 1.256
768.90 1.256
769.00 1.255
769.10 1.255
769.20 1.255
769.30 1.255
769.40 1.255
769.50 1.255
769.60 1.254
769.70 1.254
769.80 1.254
769.90 1.254
770.00 1.254
770.10 1.254
770.20 1.253
770.30 1.253
770.40 1.253
770.50 1.253
770.60 1.253
770.70 1.253
770.80 1.253
770.90 1.252
771.00 1.252
771.10 1.252
771.20 1.252
771.30 1.252
771.40 1.252
771.50 1.252
771.60 1.251
771.70 1.251
771.80 1.251
771.90 1.251
772.00 1.251
772.10 1.251
772.20 1.251
772.30 1.25
772.40 1.25
772.50 1.25
772.60 1.25
772.70 1.25
772.80 1.25
772.90 1.25
773.00 1.249
773.10 1.249
773.20 1.249
773.30 1.249
773.40 1.249
773.50 1.249
773.60 1.249
773.70 1.248
773.80 1.248
773.90 1.248
774.00 1.248
774.10 1.248
774.20 1.248
774.30 1.248
774.40 1.247
774.50 1.247
774.60 1.247
774.70 1.247
774.80 1.247
774.90 1.247
775.00 1.247
775.10 1.246
775.20 1.246
775.30 1.246
775.40 1.246
775.50 1.246
775.60 1.246
775.70 1.246
775.80 1.245
775.90 1.245
776.00 1.245
776.10 1.245
776.20 1.245
776.30 1.245
776.40 1.245
776.50 1.244
776.60 1.244
776.70 1.244
776.80 1.244
776.90 1.244
777.00 1.244
777.10 1.244
777.20 1.243
777.30 1.243
777.40 1.243
777.50 1.243
777.60 1.243
777.70 1.243
777.80 1.243
777.90 1.242
778.00 1.242
778.10 1.242
778.20 1.242
778.30 1.242
778.40 1.242
778.50 1.242
778.60 1.241
778.70 1.241
778.80 1.241
778.90 1.241
779.00 1.241
779.10 1.241
779.20 1.241
779.30 1.24
779.40 1.24
779.50 1.24
779.60 1.24
779.70 1.24
779.80 1.24
779.90 1.24
780.00 1.24
780.10 1.239
780.20 1.239
780.30 1.239
780.40 1.239
780.50 1.239
780.60 1.239
780.70 1.239
780.80 1.239
780.90 1.239
781.00 1.238
781.10 1.238
781.20 1.238
781.30 1.238
781.40 1.238
781.50 1.238
781.60 1.238
781.70 1.238
781.80 1.238
781.90 1.237
782.00 1.237
782.10 1.237
782.20 1.237
782.30 1.237
782.40 1.237
782.50 1.237
782.60 1.237
782.70 1.237
782.80 1.237
782.90 1.236
783.00 1.236
783.10 1.236
783.20 1.236
783.30 1.236
783.40 1.236
783.50 1.236
783.60 1.236
783.70 1.236
783.80 1.235
783.90 1.235
784.00 1.235
784.10 1.235
784.20 1.235
784.30 1.235
784.40 1.235
784.50 1.235
784.60 1.235
784.70 1.235
784.80 1.234
784.90 1.234
785.00 1.234
785.10 1.234
785.20 1.234
785.30 1.234
785.40 1.234
785.50 1.234
785.60 1.234
785.70 1.233
785.80 1.233
785.90 1.233
786.00 1.233
786.10 1.233
786.20 1.233
786.30 1.233
786.40 1.233
786.50 1.233
786.60 1.232
786.70 1.232
786.80 1.232
786.90 1.232
787.00 1.232
787.10 1.232
787.20 1.232
787.30 1.232
787.40 1.232
787.50 1.232
787.60 1.231
787.70 1.231
787.80 1.231
787.90 1.231
788.00 1.231
788.10 1.231
788.20 1.231
788.30 1.231
788.40 1.231
788.50 1.23
788.60 1.23
788.70 1.23
788.80 1.23
788.90 1.23
789.00 1.23
789.10 1.23
789.20 1.23
789.30 1.23
789.40 1.23
789.50 1.229
789.60 1.229
789.70 1.229
789.80 1.229
789.90 1.229
790.00 1.229
790.10 1.229
790.20 1.229
790.30 1.229
790.40 1.229
790.50 1.228
790.60 1.228
790.70 1.228
790.80 1.228
790.90 1.228
791.00 1.228
791.10 1.228
791.20 1.228
791.30 1.228
791.40 1.227
791.50 1.227
791.60 1.227
791.70 1.227
791.80 1.227
791.90 1.227
792.00 1.227
792.10 1.227
792.20 1.227
792.30 1.227
792.40 1.226
792.50 1.226
792.60 1.226
792.70 1.226
792.80 1.226
792.90 1.226
793.00 1.226
793.10 1.226
793.20 1.226
793.30 1.226
793.40 1.225
793.50 1.225
793.60 1.225
793.70 1.225
793.80 1.225
793.90 1.225
794.00 1.225
794.10 1.225
794.20 1.225
794.30 1.225
794.40 1.224
794.50 1.224
794.60 1.224
794.70 1.224
794.80 1.224
794.90 1.224
795.00 1.224
795.10 1.224
795.20 1.224
795.30 1.224
795.40 1.223
795.50 1.223
795.60 1.223
795.70 1.223
795.80 1.223
795.90 1.223
796.00 1.223
796.10 1.223
796.20 1.223
796.30 1.223
796.40 1.222
796.50 1.222
796.60 1.222
796.70 1.222
796.80 1.222
796.90 1.222
797.00 1.222
797.10 1.222
797.20 1.222
797.30 1.222
797.40 1.221
797.50 1.221
797.60 1.221
797.70 1.221
797.80 1.221
797.90 1.221
798.00 1.221
798.10 1.221
798.20 1.221
798.30 1.221
798.40 1.22
798.50 1.22
798.60 1.22
798.70 1.22
798.80 1.22
798.90 1.22
799.00 1.22
799.10 1.22
799.20 1.22
799.30 1.22
799.40 1.219
799.50 1.219
799.60 1.219
799.70 1.219
799.80 1.219
799.90 1.219
800.00 1.219
800.10 1.219
800.20 1.219
800.30 1.218
800.40 1.218
800.50 1.218
800.60 1.218
800.70 1.218
800.80 1.218
800.90 1.218
801.00 1.218
801.10 1.217
801.20 1.217
801.30 1.217
801.40 1.217
801.50 1.217
801.60 1.217
801.70 1.217
801.80 1.216
801.90 1.216
802.00 1.216
802.10 1.216
802.20 1.216
802.30 1.216
802.40 1.216
802.50 1.215
802.60 1.215
802.70 1.215
802.80 1.215
802.90 1.215
803.00 1.215
803.10 1.215
803.20 1.214
803.30 1.214
803.40 1.214
803.50 1.214
803.60 1.214
803.70 1.214
803.80 1.214
803.90 1.214
804.00 1.213
804.10 1.213
804.20 1.213
804.30 1.213
804.40 1.213
804.50 1.213
804.60 1.213
804.70 1.212
804.80 1.212
804.90 1.212
805.00 1.212
805.10 1.212
805.20 1.212
805.30 1.212
805.40 1.212
805.50 1.211
805.60 1.211
805.70 1.211
805.80 1.211
805.90 1.211
806.00 1.211
806.10 1.211
806.20 1.21
806.30 1.21
806.40 1.21
806.50 1.21
806.60 1.21
806.70 1.21
806.80 1.21
806.90 1.209
807.00 1.209
807.10 1.209
807.20 1.209
807.30 1.209
807.40 1.209
807.50 1.209
807.60 1.209
807.70 1.208
807.80 1.208
807.90 1.208
808.00 1.208
808.10 1.208
808.20 1.208
808.30 1.208
808.40 1.207
808.50 1.207
808.60 1.207
808.70 1.207
808.80 1.207
808.90 1.207
809.00 1.207
809.10 1.207
809.20 1.206
809.30 1.206
809.40 1.206
809.50 1.206
809.60 1.206
809.70 1.206
809.80 1.206
809.90 1.205
810.00 1.205
810.10 1.205
810.20 1.205
810.30 1.205
810.40 1.205
810.50 1.204
810.60 1.204
810.70 1.204
810.80 1.204
810.90 1.204
811.00 1.203
811.10 1.203
811.20 1.203
811.30 1.203
811.40 1.203
811.50 1.203
811.60 1.202
811.70 1.202
811.80 1.202
811.90 1.202
812.00 1.202
812.10 1.201
812.20 1.201
812.30 1.201
812.40 1.201
812.50 1.201
812.60 1.201
812.70 1.2
812.80 1.2
812.90 1.2
813.00 1.2
813.10 1.2
813.20 1.2
813.30 1.199
813.40 1.199
813.50 1.199
813.60 1.199
813.70 1.199
813.80 1.198
813.90 1.198
814.00 1.198
814.10 1.198
814.20 1.198
814.30 1.198
814.40 1.197
814.50 1.197
814.60 1.197
814.70 1.197
814.80 1.197
814.90 1.196
815.00 1.196
815.10 1.196
815.20 1.196
815.30 1.196
815.40 1.196
815.50 1.195
815.60 1.195
815.70 1.195
815.80 1.195
815.90 1.195
816.00 1.194
816.10 1.194
816.20 1.194
816.30 1.194
816.40 1.194
816.50 1.194
816.60 1.193
816.70 1.193
816.80 1.193
816.90 1.193
817.00 1.193
817.10 1.193
817.20 1.192
817.30 1.192
817.40 1.192
817.50 1.192
817.60 1.192
817.70 1.191
817.80 1.191
817.90 1.191
818.00 1.191
818.10 1.191
818.20 1.191
818.30 1.19
818.40 1.19
818.50 1.19
818.60 1.19
818.70 1.19
818.80 1.19
818.90 1.189
819.00 1.189
819.10 1.189
819.20 1.189
819.30 1.189
819.40 1.188
819.50 1.188
819.60 1.188
819.70 1.188
819.80 1.188
819.90 1.188
820.00 1.187
820.10 1.187
820.20 1.187
820.30 1.187
820.40 1.187
820.50 1.186
820.60 1.186
820.70 1.186
820.80 1.186
820.90 1.186
821.00 1.185
821.10 1.185
821.20 1.185
821.30 1.185
821.40 1.185
821.50 1.184
821.60 1.184
821.70 1.184
821.80 1.184
821.90 1.184
822.00 1.183
822.10 1.183
822.20 1.183
822.30 1.183
822.40 1.183
822.50 1.182
822.60 1.182
822.70 1.182
822.80 1.182
822.90 1.182
823.00 1.181
823.10 1.181
823.20 1.181
823.30 1.181
823.40 1.18
823.50 1.18
823.60 1.18
823.70 1.18
823.80 1.18
823.90 1.179
824.00 1.179
824.10 1.179
824.20 1.179
824.30 1.179
824.40 1.178
824.50 1.178
824.60 1.178
824.70 1.178
824.80 1.178
824.90 1.177
825.00 1.177
825.10 1.177
825.20 1.177
825.30 1.177
825.40 1.176
825.50 1.176
825.60 1.176
825.70 1.176
825.80 1.175
825.90 1.175
826.00 1.175
826.10 1.175
826.20 1.175
826.30 1.174
826.40 1.174
826.50 1.174
826.60 1.174
826.70 1.174
826.80 1.173
826.90 1.173
827.00 1.173
827.10 1.173
827.20 1.173
827.30 1.172
827.40 1.172
827.50 1.172
827.60 1.172
827.70 1.171
827.80 1.171
827.90 1.171
828.00 1.171
828.10 1.171
828.20 1.17
828.30 1.17
828.40 1.17
828.50 1.17
828.60 1.169
828.70 1.169
828.80 1.169
828.90 1.169
829.00 1.169
829.10 1.168
829.20 1.168
829.30 1.168
829.40 1.168
829.50 1.167
829.60 1.167
829.70 1.167
829.80 1.167
829.90 1.167
830.00 1.166
830.10 1.166
830.20 1.166
830.30 1.166
830.40 1.165
830.50 1.165
830.60 1.165
830.70 1.165
830.80 1.165
830.90 1.164
831.00 1.164
831.10 1.164
831.20 1.164
831.30 1.163
831.40 1.163
831.50 1.163
831.60 1.163
831.70 1.163
831.80 1.162
831.90 1.162
832.00 1.162
832.10 1.162
832.20 1.161
832.30 1.161
832.40 1.161
832.50 1.161
832.60 1.161
832.70 1.16
832.80 1.16
832.90 1.16
833.00 1.16
833.10 1.159
833.20 1.159
833.30 1.159
833.40 1.159
833.50 1.158
833.60 1.158
833.70 1.158
833.80 1.158
833.90 1.157
834.00 1.157
834.10 1.157
834.20 1.157
834.30 1.157
834.40 1.156
834.50 1.156
834.60 1.156
834.70 1.156
834.80 1.155
834.90 1.155
835.00 1.155
835.10 1.155
835.20 1.154
835.30 1.154
835.40 1.154
835.50 1.154
835.60 1.154
835.70 1.153
835.80 1.153
835.90 1.153
836.00 1.153
836.10 1.152
836.20 1.152
836.30 1.152
836.40 1.152
836.50 1.151
836.60 1.151
836.70 1.151
836.80 1.151
836.90 1.151
837.00 1.15
837.10 1.15
837.20 1.15
837.30 1.15
837.40 1.149
837.50 1.149
837.60 1.149
837.70 1.149
837.80 1.148
837.90 1.148
838.00 1.148
838.10 1.148
838.20 1.147
838.30 1.147
838.40 1.147
838.50 1.147
838.60 1.146
838.70 1.146
838.80 1.146
838.90 1.146
839.00 1.145
839.10 1.145
839.20 1.145
839.30 1.145
839.40 1.144
839.50 1.144
839.60 1.144
839.70 1.144
839.80 1.144
839.90 1.143
840.00 1.143
840.10 1.143
840.20 1.143
840.30 1.142
840.40 1.142
840.50 1.142
840.60 1.142
840.70 1.141
840.80 1.141
840.90 1.141
841.00 1.141
841.10 1.14
841.20 1.14
841.30 1.14
841.40 1.14
841.50 1.139
841.60 1.139
841.70 1.139
841.80 1.139
841.90 1.138
842.00 1.138
842.10 1.138
842.20 1.138
842.30 1.137
842.40 1.137
842.50 1.137
842.60 1.137
842.70 1.136
842.80 1.136
842.90 1.136
843.00 1.136
843.10 1.135
843.20 1.135
843.30 1.135
843.40 1.135
843.50 1.134
843.60 1.134
843.70 1.134
843.80 1.134
843.90 1.133
844.00 1.133
844.10 1.133
844.20 1.133
844.30 1.132
844.40 1.132
844.50 1.132
844.60 1.132
844.70 1.131
844.80 1.131
844.90 1.131
845.00 1.131
845.10 1.13
845.20 1.13
845.30 1.13
845.40 1.13
845.50 1.129
845.60 1.129
845.70 1.129
845.80 1.129
845.90 1.128
846.00 1.128
846.10 1.128
846.20 1.128
846.30 1.127
846.40 1.127
846.50 1.127
846.60 1.127
846.70 1.126
846.80 1.126
846.90 1.126
847.00 1.126
847.10 1.125
847.20 1.125
847.30 1.125
847.40 1.125
847.50 1.124
847.60 1.124
847.70 1.124
847.80 1.124
847.90 1.123
848.00 1.123
848.10 1.123
848.20 1.123
848.30 1.122
848.40 1.122
848.50 1.122
848.60 1.122
848.70 1.121
848.80 1.121
848.90 1.121
849.00 1.121
849.10 1.12
849.20 1.12
849.30 1.12
849.40 1.12
849.50 1.119
849.60 1.119
849.70 1.119
849.80 1.119
849.90 1.118
850.00 1.118
850.10 1.118
850.20 1.117
850.30 1.117
850.40 1.117
850.50 1.117
850.60 1.116
850.70 1.116
850.80 1.116
850.90 1.116
851.00 1.115
851.10 1.115
851.20 1.115
851.30 1.115
851.40 1.114
851.50 1.114
851.60 1.114
851.70 1.114
851.80 1.113
851.90 1.113
852.00 1.113
852.10 1.113
852.20 1.112
852.30 1.112
852.40 1.112
852.50 1.112
852.60 1.111
852.70 1.111
852.80 1.111
852.90 1.11
853.00 1.11
853.10 1.11
853.20 1.11
853.30 1.109
853.40 1.109
853.50 1.109
853.60 1.109
853.70 1.108
853.80 1.108
853.90 1.108
854.00 1.108
854.10 1.107
854.20 1.107
854.30 1.107
854.40 1.106
854.50 1.106
854.60 1.106
854.70 1.106
854.80 1.105
854.90 1.105
855.00 1.105
855.10 1.105
855.20 1.104
855.30 1.104
855.40 1.104
855.50 1.104
855.60 1.103
855.70 1.103
855.80 1.103
855.90 1.102
856.00 1.102
856.10 1.102
856.20 1.102
856.30 1.101
856.40 1.101
856.50 1.101
856.60 1.101
856.70 1.1
856.80 1.1
856.90 1.1
857.00 1.1
857.10 1.099
857.20 1.099
857.30 1.099
857.40 1.098
857.50 1.098
857.60 1.098
857.70 1.098
857.80 1.097
857.90 1.097
858.00 1.097
858.10 1.097
858.20 1.096
858.30 1.096
858.40 1.096
858.50 1.095
858.60 1.095
858.70 1.095
858.80 1.095
858.90 1.094
859.00 1.094
859.10 1.094
859.20 1.093
859.30 1.093
859.40 1.093
859.50 1.093
859.60 1.092
859.70 1.092
859.80 1.092
859.90 1.092
860.00 1.091
860.10 1.091
860.20 1.091
860.30 1.09
860.40 1.09
860.50 1.09
860.60 1.09
860.70 1.089
860.80 1.089
860.90 1.089
861.00 1.089
861.10 1.088
861.20 1.088
861.30 1.088
861.40 1.087
861.50 1.087
861.60 1.087
861.70 1.087
861.80 1.086
861.90 1.086
862.00 1.086
862.10 1.086
862.20 1.085
862.30 1.085
862.40 1.085
862.50 1.084
862.60 1.084
862.70 1.084
862.80 1.083
862.90 1.083
863.00 1.083
863.10 1.083
863.20 1.082
863.30 1.082
863.40 1.082
863.50 1.081
863.60 1.081
863.70 1.081
863.80 1.081
863.90 1.08
864.00 1.08
864.10 1.08
864.20 1.079
864.30 1.079
864.40 1.079
864.50 1.079
864.60 1.078
864.70 1.078
864.80 1.078
864.90 1.077
865.00 1.077
865.10 1.077
865.20 1.077
865.30 1.076
865.40 1.076
865.50 1.076
865.60 1.075
865.70 1.075
865.80 1.075
865.90 1.075
866.00 1.074
866.10 1.074
866.20 1.074
866.30 1.073
866.40 1.073
866.50 1.073
866.60 1.073
866.70 1.072
866.80 1.072
866.90 1.072
867.00 1.072
867.10 1.071
867.20 1.071
867.30 1.071
867.40 1.07
867.50 1.07
867.60 1.07
867.70 1.069
867.80 1.069
867.90 1.069
868.00 1.068
868.10 1.068
868.20 1.068
868.30 1.068
868.40 1.067
868.50 1.067
868.60 1.067
868.70 1.066
868.80 1.066
868.90 1.066
869.00 1.065
869.10 1.065
869.20 1.065
869.30 1.065
869.40 1.064
869.50 1.064
869.60 1.064
869.70 1.063
869.80 1.063
869.90 1.063
870.00 1.062
870.10 1.062
870.20 1.062
870.30 1.062
870.40 1.061
870.50 1.061
870.60 1.061
870.70 1.06
870.80 1.06
870.90 1.06
871.00 1.06
871.10 1.059
871.20 1.059
871.30 1.059
871.40 1.058
871.50 1.058
871.60 1.058
871.70 1.057
871.80 1.057
871.90 1.057
872.00 1.057
872.10 1.056
872.20 1.056
872.30 1.056
872.40 1.055
872.50 1.055
872.60 1.055
872.70 1.054
872.80 1.054
872.90 1.054
873.00 1.053
873.10 1.053
873.20 1.053
873.30 1.052
873.40 1.052
873.50 1.052
873.60 1.051
873.70 1.051
873.80 1.051
873.90 1.051
874.00 1.05
874.10 1.05
874.20 1.05
874.30 1.049
874.40 1.049
874.50 1.049
874.60 1.048
874.70 1.048
874.80 1.048
874.90 1.047
875.00 1.047
875.10 1.047
875.20 1.046
875.30 1.046
875.40 1.046
875.50 1.046
875.60 1.045
875.70 1.045
875.80 1.045
875.90 1.044
876.00 1.044
876.10 1.044
876.20 1.043
876.30 1.043
876.40 1.043
876.50 1.042
876.60 1.042
876.70 1.042
876.80 1.041
876.90 1.041
877.00 1.041
877.10 1.041
877.20 1.04
877.30 1.04
877.40 1.039
877.50 1.039
877.60 1.039
877.70 1.038
877.80 1.038
877.90 1.038
878.00 1.037
878.10 1.037
878.20 1.037
878.30 1.036
878.40 1.036
878.50 1.036
878.60 1.035
878.70 1.035
878.80 1.035
878.90 1.034
879.00 1.034
879.10 1.034
879.20 1.033
879.30 1.033
879.40 1.033
879.50 1.032
879.60 1.032
879.70 1.032
879.80 1.031
879.90 1.031
880.00 1.031
880.10 1.03
880.20 1.03
880.30 1.03
880.40 1.029
880.50 1.029
880.60 1.029
880.70 1.028
880.80 1.028
880.90 1.028
881.00 1.027
881.10 1.027
881.20 1.027
881.30 1.026
881.40 1.026
881.50 1.026
881.60 1.025
881.70 1.025
881.80 1.025
881.90 1.024
882.00 1.024
882.10 1.024
882.20 1.023
882.30 1.023
882.40 1.023
882.50 1.022
882.60 1.022
882.70 1.022
882.80 1.021
882.90 1.021
883.00 1.021
883.10 1.02
883.20 1.02
883.30 1.019
883.40 1.019
883.50 1.019
883.60 1.018
883.70 1.018
883.80 1.018
883.90 1.017
884.00 1.017
884.10 1.017
884.20 1.016
884.30 1.016
884.40 1.016
884.50 1.015
884.60 1.015
884.70 1.014
884.80 1.014
884.90 1.014
885.00 1.013
885.10 1.013
885.20 1.013
885.30 1.012
885.40 1.012
885.50 1.012
885.60 1.011
885.70 1.011
885.80 1.011
885.90 1.01
886.00 1.01
886.10 1.01
886.20 1.009
886.30 1.009
886.40 1.008
886.50 1.008
886.60 1.008
886.70 1.007
886.80 1.007
886.90 1.007
887.00 1.006
887.10 1.006
887.20 1.006
887.30 1.005
887.40 1.005
887.50 1.004
887.60 1.004
887.70 1.004
887.80 1.003
887.90 1.003
888.00 1.003
888.10 1.002
888.20 1.002
888.30 1.001
888.40 1.001
888.50 1.001
888.60 1
888.70 0.9999
888.80 0.9996
888.90 0.9992
889.00 0.9988
889.10 0.9984
889.20 0.9981
889.30 0.9977
889.40 0.9973
889.50 0.9969
889.60 0.9966
889.70 0.9962
889.80 0.9958
889.90 0.9954
890.00 0.9951
890.10 0.9947
890.20 0.9943
890.30 0.9939
890.40 0.9936
890.50 0.9932
890.60 0.9928
890.70 0.9924
890.80 0.9921
890.90 0.9917
891.00 0.9913
891.10 0.9909
891.20 0.9906
891.30 0.9902
891.40 0.9898
891.50 0.9895
891.60 0.9891
891.70 0.9887
891.80 0.9883
891.90 0.988
892.00 0.9876
892.10 0.9872
892.20 0.9869
892.30 0.9865
892.40 0.9861
892.50 0.9858
892.60 0.9854
892.70 0.985
892.80 0.9847
892.90 0.9843
893.00 0.9839
893.10 0.9836
893.20 0.9832
893.30 0.9828
893.40 0.9825
893.50 0.9821
893.60 0.9817
893.70 0.9814
893.80 0.981
893.90 0.9806
894.00 0.9803
894.10 0.9799
894.20 0.9795
894.30 0.9792
894.40 0.9788
894.50 0.9784
894.60 0.9781
894.70 0.9777
894.80 0.9773
894.90 0.977
895.00 0.9766
895.10 0.9763
895.20 0.9759
895.30 0.9755
895.40 0.9752
895.50 0.9748
895.60 0.9744
895.70 0.9741
895.80 0.9737
895.90 0.9734
896.00 0.973
896.10 0.9726
896.20 0.9723
896.30 0.9719
896.40 0.9715
896.50 0.9712
896.60 0.9708
896.70 0.9705
896.80 0.9701
896.90 0.9697
897.00 0.9694
897.10 0.9689
897.20 0.9685
897.30 0.9681
897.40 0.9677
897.50 0.9672
897.60 0.9668
897.70 0.9664
897.80 0.966
897.90 0.9655
898.00 0.9651
898.10 0.9647
898.20 0.9643
898.30 0.9638
898.40 0.9634
898.50 0.963
898.60 0.9626
898.70 0.9621
898.80 0.9617
898.90 0.9613
899.00 0.9609
899.10 0.9604
899.20 0.96
899.30 0.9596
899.40 0.9592
899.50 0.9587
899.60 0.9583
899.70 0.9579
899.80 0.9575
899.90 0.9571
900.00 0.9566
900.10 0.9562
900.20 0.9558
900.30 0.9554
900.40 0.9549
900.50 0.9545
900.60 0.9541
900.70 0.9537
900.80 0.9533
900.90 0.9528
901.00 0.9524
901.10 0.952
901.20 0.9516
901.30 0.9512
901.40 0.9507
901.50 0.9503
901.60 0.9499
901.70 0.9495
901.80 0.9491
901.90 0.9486
902.00 0.9482
902.10 0.9477
902.20 0.9472
902.30 0.9467
902.40 0.9462
902.50 0.9456
902.60 0.9451
902.70 0.9446
902.80 0.9441
902.90 0.9436
903.00 0.9431
903.10 0.9425
903.20 0.942
903.30 0.9415
903.40 0.941
903.50 0.9405
903.60 0.94
903.70 0.9394
903.80 0.9389
903.90 0.9384
904.00 0.9379
904.10 0.9374
904.20 0.9369
904.30 0.9364
904.40 0.9359
904.50 0.9353
904.60 0.9348
904.70 0.9343
904.80 0.9338
904.90 0.9333
905.00 0.9328
905.10 0.9323
905.20 0.9318
905.30 0.9312
905.40 0.9307
905.50 0.9302
905.60 0.9297
905.70 0.9292
905.80 0.9287
905.90 0.9282
906.00 0.9277
906.10 0.9272
906.20 0.9267
906.30 0.9261
906.40 0.9256
906.50 0.9251
906.60 0.9246
906.70 0.9241
906.80 0.9236
906.90 0.9231
907.00 0.9226
907.10 0.9221
907.20 0.9216
907.30 0.9212
907.40 0.9207
907.50 0.9202
907.60 0.9197
907.70 0.9193
907.80 0.9188
907.90 0.9183
908.00 0.9179
908.10 0.9174
908.20 0.9169
908.30 0.9164
908.40 0.916
908.50 0.9155
908.60 0.915
908.70 0.9146
908.80 0.9141
908.90 0.9136
909.00 0.9132
909.10 0.9127
909.20 0.9122
909.30 0.9117
909.40 0.9113
909.50 0.9108
909.60 0.9103
909.70 0.9099
909.80 0.9094
909.90 0.9089
910.00 0.9085
910.10 0.908
910.20 0.9075
910.30 0.9071
910.40 0.9066
910.50 0.9061
910.60 0.9057
910.70 0.9052
910.80 0.9047
910.90 0.9043
911.00 0.9038
911.10 0.9033
911.20 0.9029
911.30 0.9024
911.40 0.9019
911.50 0.9015
911.60 0.901
911.70 0.9005
911.80 0.9001
911.90 0.8996
912.00 0.8991
912.10 0.8987
912.20 0.8983
912.30 0.8978
912.40 0.8974
912.50 0.8969
912.60 0.8965
912.70 0.896
912.80 0.8956
912.90 0.8952
913.00 0.8947
913.10 0.8943
913.20 0.8938
913.30 0.8934
913.40 0.893
913.50 0.8925
913.60 0.8921
913.70 0.8916
913.80 0.8912
913.90 0.8908
914.00 0.8903
914.10 0.8899
914.20 0.8894
914.30 0.889
914.40 0.8886
914.50 0.8881
914.60 0.8877
914.70 0.8872
914.80 0.8868
914.90 0.8864
915.00 0.8859
915.10 0.8855
915.20 0.8851
915.30 0.8846
915.40 0.8842
915.50 0.8837
915.60 0.8833
915.70 0.8829
915.80 0.8824
915.90 0.882
916.00 0.8816
916.10 0.8811
916.20 0.8807
916.30 0.8802
916.40 0.8798
916.50 0.8794
916.60 0.8789
916.70 0.8785
916.80 0.8781
916.90 0.8776
917.00 0.8772
917.10 0.8767
917.20 0.8762
917.30 0.8758
917.40 0.8753
917.50 0.8748
917.60 0.8743
917.70 0.8739
917.80 0.8734
917.90 0.8729
918.00 0.8724
918.10 0.872
918.20 0.8715
918.30 0.871
918.40 0.8705
918.50 0.8701
918.60 0.8696
918.70 0.8691
918.80 0.8686
918.90 0.8682
919.00 0.8677
919.10 0.8672
919.20 0.8667
919.30 0.8663
919.40 0.8658
919.50 0.8653
919.60 0.8649
919.70 0.8644
919.80 0.8639
919.90 0.8634
920.00 0.863
920.10 0.8625
920.20 0.862
920.30 0.8615
920.40 0.8611
920.50 0.8606
920.60 0.8601
920.70 0.8597
920.80 0.8592
920.90 0.8587
921.00 0.8583
921.10 0.8578
921.20 0.8573
921.30 0.8568
921.40 0.8564
921.50 0.8559
921.60 0.8554
921.70 0.855
921.80 0.8545
921.90 0.854
922.00 0.8536
922.10 0.8531
922.20 0.8526
922.30 0.8521
922.40 0.8516
922.50 0.8511
922.60 0.8507
922.70 0.8502
922.80 0.8497
922.90 0.8492
923.00 0.8487
923.10 0.8482
923.20 0.8478
923.30 0.8473
923.40 0.8468
923.50 0.8463
923.60 0.8458
923.70 0.8454
923.80 0.8449
923.90 0.8444
924.00 0.8439
924.10 0.8434
924.20 0.8429
924.30 0.8425
924.40 0.842
924.50 0.8415
924.60 0.841
924.70 0.8405
924.80 0.8401
924.90 0.8396
925.00 0.8391
925.10 0.8386
925.20 0.8381
925.30 0.8377
925.40 0.8372
925.50 0.8367
925.60 0.8362
925.70 0.8358
925.80 0.8353
925.90 0.8348
926.00 0.8343
926.10 0.8338
926.20 0.8334
926.30 0.8329
926.40 0.8324
926.50 0.8319
926.60 0.8315
926.70 0.831
926.80 0.8305
926.90 0.83
927.00 0.8296
927.10 0.8291
927.20 0.8286
927.30 0.8281
927.40 0.8276
927.50 0.8271
927.60 0.8266
927.70 0.8261
927.80 0.8256
927.90 0.8251
928.00 0.8246
928.10 0.8242
928.20 0.8237
928.30 0.8232
928.40 0.8227
928.50 0.8222
928.60 0.8217
928.70 0.8212
928.80 0.8207
928.90 0.8202
929.00 0.8197
929.10 0.8193
929.20 0.8188
929.30 0.8183
929.40 0.8178
929.50 0.8173
929.60 0.8168
929.70 0.8163
929.80 0.8158
929.90 0.8153
930.00 0.8149
930.10 0.8144
930.20 0.8139
930.30 0.8134
930.40 0.8129
930.50 0.8124
930.60 0.8119
930.70 0.8115
930.80 0.811
930.90 0.8105
931.00 0.81
931.10 0.8095
931.20 0.809
931.30 0.8085
931.40 0.8081
931.50 0.8076
931.60 0.8071
931.70 0.8066
931.80 0.8061
931.90 0.8056
932.00 0.8051
932.10 0.8047
932.20 0.8042
932.30 0.8037
932.40 0.8032
932.50 0.8027
932.60 0.8022
932.70 0.8017
932.80 0.8012
932.90 0.8007
933.00 0.8002
933.10 0.7997
933.20 0.7992
933.30 0.7987
933.40 0.7982
933.50 0.7978
933.60 0.7973
933.70 0.7968
933.80 0.7963
933.90 0.7958
934.00 0.7953
934.10 0.7948
934.20 0.7943
934.30 0.7938
934.40 0.7933
934.50 0.7928
934.60 0.7923
934.70 0.7918
934.80 0.7914
934.90 0.7909
935.00 0.7904
935.10 0.7899
935.20 0.7894
935.30 0.7889
935.40 0.7884
935.50 0.7879
935.60 0.7874
935.70 0.7869
935.80 0.7864
935.90 0.7859
936.00 0.7854
936.10 0.7849
936.20 0.7845
936.30 0.784
936.40 0.7835
936.50 0.783
936.60 0.7825
936.70 0.782
936.80 0.7815
936.90 0.781
937.00 0.7805
937.10 0.78
937.20 0.7795
937.30 0.779
937.40 0.7785
937.50 0.778
937.60 0.7775
937.70 0.777
937.80 0.7765
937.90 0.776
938.00 0.7755
938.10 0.775
938.20 0.7745
938.30 0.774
938.40 0.7735
938.50 0.773
938.60 0.7725
938.70 0.772
938.80 0.7715
938.90 0.771
939.00 0.7705
939.10 0.77
939.20 0.7695
939.30 0.769
939.40 0.7685
939.50 0.768
939.60 0.7675
939.70 0.767
939.80 0.7665
939.90 0.766
940.00 0.7655
940.10 0.765
940.20 0.7645
940.30 0.764
940.40 0.7635
940.50 0.763
940.60 0.7625
940.70 0.762
940.80 0.7615
940.90 0.761
941.00 0.7605
941.10 0.76
941.20 0.7596
941.30 0.7591
941.40 0.7586
941.50 0.7581
941.60 0.7576
941.70 0.7571
941.80 0.7566
941.90 0.7561
942.00 0.7556
942.10 0.7551
942.20 0.7546
942.30 0.7541
942.40 0.7536
942.50 0.7531
942.60 0.7526
942.70 0.7521
942.80 0.7516
942.90 0.7511
943.00 0.7506
943.10 0.7501
943.20 0.7496
943.30 0.7491
943.40 0.7486
943.50 0.7481
943.60 0.7476
943.70 0.7471
943.80 0.7466
943.90 0.7461
944.00 0.7456
944.10 0.7451
944.20 0.7446
944.30 0.7441
944.40 0.7437
944.50 0.7432
944.60 0.7427
944.70 0.7422
944.80 0.7417
944.90 0.7412
945.00 0.7407
945.10 0.7402
945.20 0.7397
945.30 0.7392
945.40 0.7387
945.50 0.7382
945.60 0.7377
945.70 0.7372
945.80 0.7367
945.90 0.7362
946.00 0.7358
946.10 0.7353
946.20 0.7348
946.30 0.7343
946.40 0.7338
946.50 0.7333
946.60 0.7328
946.70 0.7323
946.80 0.7318
946.90 0.7313
947.00 0.7308
947.10 0.7303
947.20 0.7298
947.30 0.7293
947.40 0.7288
947.50 0.7283
947.60 0.7278
947.70 0.7273
947.80 0.7268
947.90 0.7263
948.00 0.7258
948.10 0.7253
948.20 0.7248
948.30 0.7243
948.40 0.7238
948.50 0.7233
948.60 0.7228
948.70 0.7223
948.80 0.7218
948.90 0.7213
949.00 0.7208
949.10 0.7204
949.20 0.7199
949.30 0.7194
949.40 0.7189
949.50 0.7184
949.60 0.7179
949.70 0.7174
949.80 0.7169
949.90 0.7164
950.00 0.7159
950.10 0.7154
950.20 0.7149
950.30 0.7144
950.40 0.714
950.50 0.7135
950.60 0.713
950.70 0.7125
950.80 0.712
950.90 0.7115
951.00 0.711
951.10 0.7105
951.20 0.71
951.30 0.7095
951.40 0.7091
951.50 0.7086
951.60 0.7081
951.70 0.7076
951.80 0.7071
951.90 0.7066
952.00 0.7061
952.10 0.7056
952.20 0.7051
952.30 0.7046
952.40 0.7042
952.50 0.7037
952.60 0.7032
952.70 0.7027
952.80 0.7022
952.90 0.7017
953.00 0.7012
953.10 0.7007
953.20 0.7003
953.30 0.6998
953.40 0.6993
953.50 0.6988
953.60 0.6983
953.70 0.6978
953.80 0.6973
953.90 0.6968
954.00 0.6964
954.10 0.6959
954.20 0.6954
954.30 0.6949
954.40 0.6944
954.50 0.6939
954.60 0.6934
954.70 0.693
954.80 0.6925
954.90 0.692
955.00 0.6915
955.10 0.691
955.20 0.6905
955.30 0.6901
955.40 0.6896
955.50 0.6891
955.60 0.6886
955.70 0.6881
955.80 0.6876
955.90 0.6871
956.00 0.6866
956.10 0.6861
956.20 0.6856
956.30 0.6851
956.40 0.6847
956.50 0.6842
956.60 0.6837
956.70 0.6832
956.80 0.6827
956.90 0.6822
957.00 0.6817
957.10 0.6812
957.20 0.6807
957.30 0.6802
957.40 0.6798
957.50 0.6793
957.60 0.6788
957.70 0.6783
957.80 0.6778
957.90 0.6774
958.00 0.6769
958.10 0.6764
958.20 0.6759
958.30 0.6755
958.40 0.675
958.50 0.6745
958.60 0.674
958.70 0.6735
958.80 0.6731
958.90 0.6726
959.00 0.6721
959.10 0.6716
959.20 0.6712
959.30 0.6707
959.40 0.6702
959.50 0.6697
959.60 0.6693
959.70 0.6688
959.80 0.6683
959.90 0.6678
960.00 0.6674
960.10 0.6669
960.20 0.6664
960.30 0.6659
960.40 0.6655
960.50 0.665
960.60 0.6645
960.70 0.6641
960.80 0.6636
960.90 0.6631
961.00 0.6626
961.10 0.6622
961.20 0.6617
961.30 0.6612
961.40 0.6608
961.50 0.6603
961.60 0.6598
961.70 0.6593
961.80 0.6589
961.90 0.6584
962.00 0.6579
962.10 0.6575
962.20 0.657
962.30 0.6565
962.40 0.6561
962.50 0.6556
962.60 0.6551
962.70 0.6547
962.80 0.6542
962.90 0.6537
963.00 0.6533
963.10 0.6528
963.20 0.6523
963.30 0.6519
963.40 0.6514
963.50 0.6509
963.60 0.6505
963.70 0.65
963.80 0.6495
963.90 0.6491
964.00 0.6486
964.10 0.6482
964.20 0.6477
964.30 0.6472
964.40 0.6468
964.50 0.6463
964.60 0.6458
964.70 0.6454
964.80 0.6449
964.90 0.6444
965.00 0.644
965.10 0.6435
965.20 0.643
965.30 0.6426
965.40 0.6421
965.50 0.6416
965.60 0.6412
965.70 0.6407
965.80 0.6402
965.90 0.6398
966.00 0.6393
966.10 0.6388
966.20 0.6384
966.30 0.6379
966.40 0.6375
966.50 0.637
966.60 0.6365
966.70 0.6361
966.80 0.6356
966.90 0.6352
967.00 0.6347
967.10 0.6343
967.20 0.6338
967.30 0.6334
967.40 0.6329
967.50 0.6325
967.60 0.632
967.70 0.6315
967.80 0.6311
967.90 0.6306
968.00 0.6302
968.10 0.6297
968.20 0.6293
968.30 0.6288
968.40 0.6284
968.50 0.6279
968.60 0.6275
968.70 0.627
968.80 0.6266
968.90 0.6261
969.00 0.6257
969.10 0.6252
969.20 0.6248
969.30 0.6244
969.40 0.6239
969.50 0.6235
969.60 0.623
969.70 0.6226
969.80 0.6221
969.90 0.6217
970.00 0.6212
970.10 0.6208
970.20 0.6203
970.30 0.6199
970.40 0.6194
970.50 0.619
970.60 0.6186
970.70 0.6181
970.80 0.6177
970.90 0.6172
971.00 0.6168
971.10 0.6164
971.20 0.6159
971.30 0.6155
971.40 0.6151
971.50 0.6146
971.60 0.6142
971.70 0.6137
971.80 0.6133
971.90 0.6129
972.00 0.6124
972.10 0.612
972.20 0.6116
972.30 0.6111
972.40 0.6107
972.50 0.6103
972.60 0.6098
972.70 0.6094
972.80 0.609
972.90 0.6085
973.00 0.6081
973.10 0.6077
973.20 0.6072
973.30 0.6068
973.40 0.6064
973.50 0.6059
973.60 0.6055
973.70 0.6051
973.80 0.6046
973.90 0.6042
974.00 0.6038
974.10 0.6033
974.20 0.6029
974.30 0.6025
974.40 0.6021
974.50 0.6016
974.60 0.6012
974.70 0.6008
974.80 0.6003
974.90 0.5999
975.00 0.5995
975.10 0.5991
975.20 0.5986
975.30 0.5982
975.40 0.5978
975.50 0.5973
975.60 0.5969
975.70 0.5965
975.80 0.5961
975.90 0.5956
976.00 0.5952
976.10 0.5948
976.20 0.5944
976.30 0.5939
976.40 0.5935
976.50 0.5931
976.60 0.5927
976.70 0.5922
976.80 0.5918
976.90 0.5914
977.00 0.591
977.10 0.5905
977.20 0.5901
977.30 0.5897
977.40 0.5893
977.50 0.5889
977.60 0.5885
977.70 0.5881
977.80 0.5877
977.90 0.5873
978.00 0.5868
978.10 0.5864
978.20 0.586
978.30 0.5856
978.40 0.5852
978.50 0.5848
978.60 0.5844
978.70 0.584
978.80 0.5836
978.90 0.5832
979.00 0.5827
979.10 0.5823
979.20 0.5819
979.30 0.5815
979.40 0.5811
979.50 0.5807
979.60 0.5803
979.70 0.5799
979.80 0.5795
979.90 0.5791
980.00 0.5787
980.10 0.5783
980.20 0.5779
980.30 0.5774
980.40 0.577
980.50 0.5766
980.60 0.5762
980.70 0.5758
980.80 0.5754
980.90 0.575
981.00 0.5746
981.10 0.5742
981.20 0.5738
981.30 0.5734
981.40 0.573
981.50 0.5726
981.60 0.5722
981.70 0.5718
981.80 0.5714
981.90 0.571
982.00 0.5706
982.10 0.5702
982.20 0.5698
982.30 0.5694
982.40 0.569
982.50 0.5686
982.60 0.5682
982.70 0.5678
982.80 0.5674
982.90 0.567
983.00 0.5666
983.10 0.5662
983.20 0.5658
983.30 0.5655
983.40 0.5651
983.50 0.5647
983.60 0.5643
983.70 0.5639
983.80 0.5635
983.90 0.5631
984.00 0.5627
984.10 0.5623
984.20 0.5619
984.30 0.5616
984.40 0.5612
984.50 0.5608
984.60 0.5604
984.70 0.56
984.80 0.5596
984.90 0.5593
985.00 0.5589
985.10 0.5585
985.20 0.5582
985.30 0.5578
985.40 0.5574
985.50 0.557
985.60 0.5567
985.70 0.5563
985.80 0.5559
985.90 0.5556
986.00 0.5552
986.10 0.5548
986.20 0.5545
986.30 0.5541
986.40 0.5537
986.50 0.5534
986.60 0.553
986.70 0.5526
986.80 0.5523
986.90 0.5519
987.00 0.5515
987.10 0.5511
987.20 0.5508
987.30 0.5504
987.40 0.55
987.50 0.5496
987.60 0.5492
987.70 0.5488
987.80 0.5485
987.90 0.5481
988.00 0.5477
988.10 0.5473
988.20 0.5469
988.30 0.5465
988.40 0.5462
988.50 0.5458
988.60 0.5454
988.70 0.545
988.80 0.5446
988.90 0.5443
989.00 0.5439
989.10 0.5435
989.20 0.5431
989.30 0.5427
989.40 0.5424
989.50 0.542
989.60 0.5416
989.70 0.5412
989.80 0.5408
989.90 0.5405
990.00 0.5401
990.10 0.5397
990.20 0.5393
990.30 0.5389
990.40 0.5386
990.50 0.5382
990.60 0.5378
990.70 0.5374
990.80 0.537
990.90 0.5367
991.00 0.5363
991.10 0.5359
991.20 0.5355
991.30 0.5351
991.40 0.5348
991.50 0.5344
991.60 0.534
991.70 0.5336
991.80 0.5332
991.90 0.5329
992.00 0.5325
992.10 0.5321
992.20 0.5317
992.30 0.5314
992.40 0.531
992.50 0.5306
992.60 0.5302
992.70 0.5298
992.80 0.5295
992.90 0.5291
993.00 0.5287
993.10 0.5283
993.20 0.528
993.30 0.5276
993.40 0.5272
993.50 0.5268
993.60 0.5264
993.70 0.5261
993.80 0.5257
993.90 0.5253
994.00 0.5249
994.10 0.5246
994.20 0.5242
994.30 0.5238
994.40 0.5234
994.50 0.5231
994.60 0.5227
994.70 0.5223
994.80 0.5218
994.90 0.5214
995.00 0.5209
995.10 0.5205
995.20 0.52
995.30 0.5196
995.40 0.5192
995.50 0.5187
995.60 0.5183
995.70 0.5179
995.80 0.5175
995.90 0.5172
996.00 0.5168
996.10 0.5164
996.20 0.5161
996.30 0.5157
996.40 0.5153
996.50 0.515
996.60 0.5146
996.70 0.5142
996.80 0.5139
996.90 0.5135
997.00 0.5131
997.10 0.5128
997.20 0.5124
997.30 0.512
997.40 0.5117
997.50 0.5113
997.60 0.511
997.70 0.5106
997.80 0.5103
997.90 0.5099
998.00 0.5095
998.10 0.5092
998.20 0.5088
998.30 0.5085
998.40 0.5081
998.50 0.5078
998.60 0.5074
998.70 0.5071
998.80 0.5067
998.90 0.5064
999.00 0.506
999.10 0.5057
999.20 0.5053
999.30 0.505
999.40 0.5046
999.50 0.5043
999.60 0.5039
999.70 0.5036
999.80 0.5032
999.90 0.5029
1000.00 0.5025
1000.10 0.5022
1000.20 0.5019
1000.30 0.5015
1000.40 0.5012
1000.50 0.5008
1000.60 0.5005
1000.70 0.5002
1000.80 0.4998
1000.90 0.4995
1001.00 0.4991
1001.10 0.4988
1001.20 0.4985
1001.30 0.4981
1001.40 0.4978
1001.50 0.4974
1001.60 0.4971
1001.70 0.4968
1001.80 0.4964
1001.90 0.4961
1002.00 0.4958
1002.10 0.4954
1002.20 0.4951
1002.30 0.4948
1002.40 0.4945
1002.50 0.4941
1002.60 0.4938
1002.70 0.4935
1002.80 0.4931
1002.90 0.4928
1003.00 0.4925
1003.10 0.4922
1003.20 0.4918
1003.30 0.4915
1003.40 0.4912
1003.50 0.4909
1003.60 0.4905
1003.70 0.4902
1003.80 0.4899
1003.90 0.4896
1004.00 0.4893
1004.10 0.4889
1004.20 0.4886
1004.30 0.4883
1004.40 0.488
1004.50 0.4877
1004.60 0.4873
1004.70 0.487
1004.80 0.4867
1004.90 0.4863
1005.00 0.4859
1005.10 0.4856
1005.20 0.4853
1005.30 0.485
1005.40 0.4847
1005.50 0.4844
1005.60 0.4841
1005.70 0.4837
1005.80 0.4834
1005.90 0.4831
1006.00 0.4828
1006.10 0.4825
1006.20 0.4822
1006.30 0.4819
1006.40 0.4816
1006.50 0.4813
1006.60 0.481
1006.70 0.4807
1006.80 0.4804
1006.90 0.4801
1007.00 0.4798
1007.10 0.4795
1007.20 0.4792
1007.30 0.4789
1007.40 0.4786
1007.50 0.4783
1007.60 0.478
1007.70 0.4777
1007.80 0.4774
1007.90 0.4771
1008.00 0.4769
1008.10 0.4766
1008.20 0.4763
1008.30 0.476
1008.40 0.4757
1008.50 0.4754
1008.60 0.4751
1008.70 0.4748
1008.80 0.4745
1008.90 0.4743
1009.00 0.474
1009.10 0.4737
1009.20 0.4734
1009.30 0.4731
1009.40 0.4728
1009.50 0.4725
1009.60 0.4723
1009.70 0.472
1009.80 0.4717
1009.90 0.4714
1010.00 0.4711
1010.10 0.4709
1010.20 0.4706
1010.30 0.4703
1010.40 0.47
1010.50 0.4698
1010.60 0.4695
1010.70 0.4692
1010.80 0.469
1010.90 0.4687
1011.00 0.4684
1011.10 0.4681
1011.20 0.4679
1011.30 0.4676
1011.40 0.4673
1011.50 0.467
1011.60 0.4668
1011.70 0.4665
1011.80 0.4662
1011.90 0.466
1012.00 0.4657
1012.10 0.4654
1012.20 0.4652
1012.30 0.4649
1012.40 0.4647
1012.50 0.4644
1012.60 0.4641
1012.70 0.4639
1012.80 0.4636
1012.90 0.4634
1013.00 0.4631
1013.10 0.4628
1013.20 0.4626
1013.30 0.4623
1013.40 0.4621
1013.50 0.4618
1013.60 0.4615
1013.70 0.4613
1013.80 0.461
1013.90 0.4608
1014.00 0.4605
1014.10 0.4603
1014.20 0.46
1014.30 0.4598
1014.40 0.4595
1014.50 0.4593
1014.60 0.459
1014.70 0.4588
1014.80 0.4586
1014.90 0.4584
1015.00 0.4581
1015.10 0.4579
1015.20 0.4577
1015.30 0.4575
1015.40 0.4573
1015.50 0.457
1015.60 0.4568
1015.70 0.4566
1015.80 0.4564
1015.90 0.4561
1016.00 0.4559
1016.10 0.4557
1016.20 0.4555
1016.30 0.4553
1016.40 0.455
1016.50 0.4548
1016.60 0.4546
1016.70 0.4544
1016.80 0.4541
1016.90 0.4539
1017.00 0.4537
1017.10 0.4534
1017.20 0.4532
1017.30 0.4529
1017.40 0.4527
1017.50 0.4525
1017.60 0.4522
1017.70 0.452
1017.80 0.4518
1017.90 0.4515
1018.00 0.4513
1018.10 0.4511
1018.20 0.4508
1018.30 0.4506
1018.40 0.4504
1018.50 0.4501
1018.60 0.4499
1018.70 0.4497
1018.80 0.4494
1018.90 0.4492
1019.00 0.449
1019.10 0.4488
1019.20 0.4485
1019.30 0.4483
1019.40 0.4481
1019.50 0.4478
1019.60 0.4476
1019.70 0.4474
1019.80 0.4472
1019.90 0.4469
1020.00 0.4467
1020.10 0.4465
1020.20 0.4462
1020.30 0.446
1020.40 0.4458
1020.50 0.4456
1020.60 0.4453
1020.70 0.4451
1020.80 0.4449
1020.90 0.4447
1021.00 0.4444
1021.10 0.4442
1021.20 0.444
1021.30 0.4438
1021.40 0.4435
1021.50 0.4433
1021.60 0.4431
1021.70 0.4429
1021.80 0.4427
1021.90 0.4424
1022.00 0.4422
1022.10 0.442
1022.20 0.4418
1022.30 0.4416
1022.40 0.4413
1022.50 0.4411
1022.60 0.4409
1022.70 0.4407
1022.80 0.4405
1022.90 0.4403
1023.00 0.44
1023.10 0.4398
1023.20 0.4396
1023.30 0.4394
1023.40 0.4392
1023.50 0.439
1023.60 0.4387
1023.70 0.4385
1023.80 0.4383
1023.90 0.4381
1024.00 0.4379
1024.10 0.4377
1024.20 0.4374
1024.30 0.4372
1024.40 0.437
1024.50 0.4368
1024.60 0.4366
1024.70 0.4364
1024.80 0.4362
1024.90 0.4359
1025.00 0.4357
1025.10 0.4355
1025.20 0.4353
1025.30 0.4351
1025.40 0.4349
1025.50 0.4347
1025.60 0.4345
1025.70 0.4343
1025.80 0.434
1025.90 0.4338
1026.00 0.4336
1026.10 0.4334
1026.20 0.4332
1026.30 0.433
1026.40 0.4328
1026.50 0.4326
1026.60 0.4324
1026.70 0.4322
1026.80 0.4319
1026.90 0.4317
1027.00 0.4315
1027.10 0.4313
1027.20 0.4311
1027.30 0.4309
1027.40 0.4307
1027.50 0.4305
1027.60 0.4303
1027.70 0.4301
1027.80 0.4299
1027.90 0.4297
1028.00 0.4296
1028.10 0.4294
1028.20 0.4292
1028.30 0.429
1028.40 0.4288
1028.50 0.4286
1028.60 0.4284
1028.70 0.4282
1028.80 0.428
1028.90 0.4278
1029.00 0.4276
1029.10 0.4274
1029.20 0.4272
1029.30 0.427
1029.40 0.4268
1029.50 0.4266
1029.60 0.4264
1029.70 0.4262
1029.80 0.426
1029.90 0.4258
1030.00 0.4256
1030.10 0.4254
1030.20 0.4252
1030.30 0.425
1030.40 0.4248
1030.50 0.4247
1030.60 0.4245
1030.70 0.4243
1030.80 0.4241
1030.90 0.4239
1031.00 0.4237
1031.10 0.4235
1031.20 0.4233
1031.30 0.4231
1031.40 0.4229
1031.50 0.4227
1031.60 0.4225
1031.70 0.4223
1031.80 0.4221
1031.90 0.4219
1032.00 0.4217
1032.10 0.4216
1032.20 0.4214
1032.30 0.4212
1032.40 0.421
1032.50 0.4208
1032.60 0.4206
1032.70 0.4205
1032.80 0.4203
1032.90 0.4201
1033.00 0.4199
1033.10 0.4197
1033.20 0.4196
1033.30 0.4194
1033.40 0.4192
1033.50 0.419
1033.60 0.4188
1033.70 0.4187
1033.80 0.4185
1033.90 0.4183
1034.00 0.4181
1034.10 0.4179
1034.20 0.4178
1034.30 0.4176
1034.40 0.4174
1034.50 0.4172
1034.60 0.417
1034.70 0.4169
1034.80 0.4167
1034.90 0.4165
1035.00 0.4163
1035.10 0.4161
1035.20 0.416
1035.30 0.4158
1035.40 0.4156
1035.50 0.4154
1035.60 0.4152
1035.70 0.4151
1035.80 0.4149
1035.90 0.4147
1036.00 0.4145
1036.10 0.4143
1036.20 0.4142
1036.30 0.414
1036.40 0.4138
1036.50 0.4136
1036.60 0.4134
1036.70 0.4133
1036.80 0.4131
1036.90 0.4129
1037.00 0.4127
1037.10 0.4126
1037.20 0.4124
1037.30 0.4122
1037.40 0.4121
1037.50 0.4119
1037.60 0.4117
1037.70 0.4116
1037.80 0.4114
1037.90 0.4112
1038.00 0.4111
1038.10 0.4109
1038.20 0.4108
1038.30 0.4106
1038.40 0.4104
1038.50 0.4103
1038.60 0.4101
1038.70 0.4099
1038.80 0.4098
1038.90 0.4096
1039.00 0.4094
1039.10 0.4093
1039.20 0.4091
1039.30 0.409
1039.40 0.4088
1039.50 0.4086
1039.60 0.4085
1039.70 0.4083
1039.80 0.4081
1039.90 0.408
1040.00 0.4078
1040.10 0.4077
1040.20 0.4075
1040.30 0.4073
1040.40 0.4072
1040.50 0.407
1040.60 0.4068
1040.70 0.4067
1040.80 0.4065
1040.90 0.4064
1041.00 0.4062
1041.10 0.406
1041.20 0.4059
1041.30 0.4057
1041.40 0.4055
1041.50 0.4054
1041.60 0.4052
1041.70 0.4051
1041.80 0.4049
1041.90 0.4047
1042.00 0.4046
1042.10 0.4044
1042.20 0.4043
1042.30 0.4041
1042.40 0.404
1042.50 0.4038
1042.60 0.4037
1042.70 0.4035
1042.80 0.4034
1042.90 0.4032
1043.00 0.4031
1043.10 0.4029
1043.20 0.4028
1043.30 0.4026
1043.40 0.4025
1043.50 0.4024
1043.60 0.4022
1043.70 0.4021
1043.80 0.4019
1043.90 0.4018
1044.00 0.4016
1044.10 0.4015
1044.20 0.4013
1044.30 0.4012
1044.40 0.401
1044.50 0.4009
1044.60 0.4007
1044.70 0.4006
1044.80 0.4004
1044.90 0.4003
1045.00 0.4001
1045.10 0.4
1045.20 0.3998
1045.30 0.3997
1045.40 0.3996
1045.50 0.3994
1045.60 0.3993
1045.70 0.3991
1045.80 0.399
1045.90 0.3988
1046.00 0.3987
1046.10 0.3985
1046.20 0.3984
1046.30 0.3982
1046.40 0.3981
1046.50 0.3979
1046.60 0.3978
1046.70 0.3976
1046.80 0.3975
1046.90 0.3974
1047.00 0.3972
1047.10 0.3971
1047.20 0.3969
1047.30 0.3968
1047.40 0.3967
1047.50 0.3965
1047.60 0.3964
1047.70 0.3963
1047.80 0.3961
1047.90 0.396
1048.00 0.3959
1048.10 0.3957
1048.20 0.3956
1048.30 0.3955
1048.40 0.3953
1048.50 0.3952
1048.60 0.3951
1048.70 0.395
1048.80 0.3948
1048.90 0.3947
1049.00 0.3946
1049.10 0.3944
1049.20 0.3943
1049.30 0.3942
1049.40 0.394
1049.50 0.3939
1049.60 0.3938
1049.70 0.3936
1049.80 0.3935
1049.90 0.3934
1050.00 0.3932
1050.10 0.3931
1050.20 0.393
1050.30 0.3928
1050.40 0.3927
1050.50 0.3926
1050.60 0.3924
1050.70 0.3923
1050.80 0.3922
1050.90 0.392
1051.00 0.3919
1051.10 0.3918
1051.20 0.3916
1051.30 0.3915
1051.40 0.3914
1051.50 0.3913
1051.60 0.3911
1051.70 0.391
1051.80 0.3909
1051.90 0.3907
1052.00 0.3906
1052.10 0.3905
1052.20 0.3904
1052.30 0.3902
1052.40 0.3901
1052.50 0.39
1052.60 0.3899
1052.70 0.3898
1052.80 0.3897
1052.90 0.3895
1053.00 0.3894
1053.10 0.3893
1053.20 0.3892
1053.30 0.3891
1053.40 0.389
1053.50 0.3888
1053.60 0.3887
1053.70 0.3886
1053.80 0.3885
1053.90 0.3884
1054.00 0.3882
1054.10 0.3881
1054.20 0.388
1054.30 0.3879
1054.40 0.3878
1054.50 0.3877
1054.60 0.3875
1054.70 0.3874
1054.80 0.3873
1054.90 0.3872
1055.00 0.3871
1055.10 0.387
1055.20 0.3868
1055.30 0.3867
1055.40 0.3866
1055.50 0.3865
1055.60 0.3864
1055.70 0.3863
1055.80 0.3861
1055.90 0.386
1056.00 0.3859
1056.10 0.3858
1056.20 0.3857
1056.30 0.3856
1056.40 0.3854
1056.50 0.3853
1056.60 0.3852
1056.70 0.3851
1056.80 0.385
1056.90 0.3849
1057.00 0.3847
1057.10 0.3846
1057.20 0.3845
1057.30 0.3844
1057.40 0.3843
1057.50 0.3842
1057.60 0.3841
1057.70 0.384
1057.80 0.3839
1057.90 0.3838
1058.00 0.3837
1058.10 0.3836
1058.20 0.3835
1058.30 0.3834
1058.40 0.3833
1058.50 0.3832
1058.60 0.3831
1058.70 0.383
1058.80 0.3829
1058.90 0.3828
1059.00 0.3827
1059.10 0.3826
1059.20 0.3825
1059.30 0.3824
1059.40 0.3823
1059.50 0.3822
1059.60 0.3821
1059.70 0.382
1059.80 0.3819
1059.90 0.3818
1060.00 0.3817
1060.10 0.3816
1060.20 0.3814
1060.30 0.3813
1060.40 0.3812
1060.50 0.3811
1060.60 0.381
1060.70 0.3809
1060.80 0.3808
1060.90 0.3807
1061.00 0.3806
1061.10 0.3805
1061.20 0.3804
1061.30 0.3803
1061.40 0.3802
1061.50 0.3801
1061.60 0.38
1061.70 0.3799
1061.80 0.3798
1061.90 0.3797
1062.00 0.3796
1062.10 0.3795
1062.20 0.3794
1062.30 0.3793
1062.40 0.3792
1062.50 0.3792
1062.60 0.3791
1062.70 0.379
1062.80 0.3789
1062.90 0.3788
1063.00 0.3787
1063.10 0.3786
1063.20 0.3785
1063.30 0.3784
1063.40 0.3783
1063.50 0.3783
1063.60 0.3782
1063.70 0.3781
1063.80 0.378
1063.90 0.3779
1064.00 0.3778
1064.10 0.3777
1064.20 0.3776
1064.30 0.3775
1064.40 0.3774
1064.50 0.3774
1064.60 0.3773
1064.70 0.3772
1064.80 0.3771
1064.90 0.377
1065.00 0.3769
1065.10 0.3768
1065.20 0.3767
1065.30 0.3766
1065.40 0.3765
1065.50 0.3765
1065.60 0.3764
1065.70 0.3763
1065.80 0.3762
1065.90 0.3761
1066.00 0.376
1066.10 0.3759
1066.20 0.3758
1066.30 0.3757
1066.40 0.3756
1066.50 0.3756
1066.60 0.3755
1066.70 0.3754
1066.80 0.3753
1066.90 0.3752
1067.00 0.3751
1067.10 0.375
1067.20 0.375
1067.30 0.3749
1067.40 0.3748
1067.50 0.3747
1067.60 0.3746
1067.70 0.3746
1067.80 0.3745
1067.90 0.3744
1068.00 0.3743
1068.10 0.3743
1068.20 0.3742
1068.30 0.3741
1068.40 0.374
1068.50 0.374
1068.60 0.3739
1068.70 0.3738
1068.80 0.3737
1068.90 0.3736
1069.00 0.3736
1069.10 0.3735
1069.20 0.3734
1069.30 0.3733
1069.40 0.3733
1069.50 0.3732
1069.60 0.3731
1069.70 0.373
1069.80 0.373
1069.90 0.3729
1070.00 0.3728
1070.10 0.3727
1070.20 0.3726
1070.30 0.3726
1070.40 0.3725
1070.50 0.3724
1070.60 0.3723
1070.70 0.3723
1070.80 0.3722
1070.90 0.3721
1071.00 0.372
1071.10 0.372
1071.20 0.3719
1071.30 0.3718
1071.40 0.3717
1071.50 0.3717
1071.60 0.3716
1071.70 0.3715
1071.80 0.3714
1071.90 0.3714
1072.00 0.3713
1072.10 0.3712
1072.20 0.3711
1072.30 0.3711
1072.40 0.371
1072.50 0.3709
1072.60 0.3708
1072.70 0.3708
1072.80 0.3707
1072.90 0.3706
1073.00 0.3706
1073.10 0.3705
1073.20 0.3704
1073.30 0.3703
1073.40 0.3703
1073.50 0.3702
1073.60 0.3701
1073.70 0.3701
1073.80 0.37
1073.90 0.3699
1074.00 0.3699
1074.10 0.3698
1074.20 0.3697
1074.30 0.3697
1074.40 0.3696
1074.50 0.3695
1074.60 0.3695
1074.70 0.3694
1074.80 0.3693
1074.90 0.3693
1075.00 0.3692
1075.10 0.3691
1075.20 0.3691
1075.30 0.369
1075.40 0.3689
1075.50 0.3689
1075.60 0.3688
1075.70 0.3687
1075.80 0.3687
1075.90 0.3686
1076.00 0.3685
1076.10 0.3685
1076.20 0.3684
1076.30 0.3683
1076.40 0.3683
1076.50 0.3682
1076.60 0.3681
1076.70 0.3681
1076.80 0.368
1076.90 0.3679
1077.00 0.3679
1077.10 0.3678
1077.20 0.3677
1077.30 0.3677
1077.40 0.3676
1077.50 0.3675
1077.60 0.3675
1077.70 0.3674
1077.80 0.3674
1077.90 0.3673
1078.00 0.3672
1078.10 0.3672
1078.20 0.3671
1078.30 0.3671
1078.40 0.367
1078.50 0.3669
1078.60 0.3669
1078.70 0.3668
1078.80 0.3668
1078.90 0.3667
1079.00 0.3666
1079.10 0.3666
1079.20 0.3665
1079.30 0.3665
1079.40 0.3664
1079.50 0.3663
1079.60 0.3663
1079.70 0.3662
1079.80 0.3662
1079.90 0.3661
1080.00 0.3661
1080.10 0.366
1080.20 0.3659
1080.30 0.3659
1080.40 0.3658
1080.50 0.3658
1080.60 0.3657
1080.70 0.3657
1080.80 0.3656
1080.90 0.3656
1081.00 0.3655
1081.10 0.3654
1081.20 0.3654
1081.30 0.3653
1081.40 0.3653
1081.50 0.3652
1081.60 0.3652
1081.70 0.3651
1081.80 0.3651
1081.90 0.365
1082.00 0.3649
1082.10 0.3649
1082.20 0.3648
1082.30 0.3648
1082.40 0.3647
1082.50 0.3647
1082.60 0.3646
1082.70 0.3646
1082.80 0.3645
1082.90 0.3645
1083.00 0.3644
1083.10 0.3644
1083.20 0.3643
1083.30 0.3642
1083.40 0.3642
1083.50 0.3641
1083.60 0.3641
1083.70 0.364
1083.80 0.364
1083.90 0.3639
1084.00 0.3639
1084.10 0.3638
1084.20 0.3638
1084.30 0.3637
1084.40 0.3637
1084.50 0.3636
1084.60 0.3636
1084.70 0.3635
1084.80 0.3635
1084.90 0.3634
1085.00 0.3634
1085.10 0.3633
1085.20 0.3633
1085.30 0.3632
1085.40 0.3632
1085.50 0.3631
1085.60 0.3631
1085.70 0.363
1085.80 0.363
1085.90 0.3629
1086.00 0.3629
1086.10 0.3628
1086.20 0.3628
1086.30 0.3627
1086.40 0.3627
1086.50 0.3626
1086.60 0.3626
1086.70 0.3625
1086.80 0.3625
1086.90 0.3624
1087.00 0.3624
1087.10 0.3623
1087.20 0.3623
1087.30 0.3622
1087.40 0.3622
1087.50 0.3621
1087.60 0.3621
1087.70 0.362
1087.80 0.362
1087.90 0.362
1088.00 0.3619
1088.10 0.3619
1088.20 0.3618
1088.30 0.3618
1088.40 0.3617
1088.50 0.3617
1088.60 0.3616
1088.70 0.3616
1088.80 0.3615
1088.90 0.3615
1089.00 0.3615
1089.10 0.3614
1089.20 0.3614
1089.30 0.3613
1089.40 0.3613
1089.50 0.3612
1089.60 0.3612
1089.70 0.3611
1089.80 0.3611
1089.90 0.3611
1090.00 0.361
1090.10 0.361
1090.20 0.3609
1090.30 0.3609
1090.40 0.3608
1090.50 0.3608
1090.60 0.3607
1090.70 0.3607
1090.80 0.3607
1090.90 0.3606
1091.00 0.3606
1091.10 0.3605
1091.20 0.3605
1091.30 0.3605
1091.40 0.3604
1091.50 0.3604
1091.60 0.3603
1091.70 0.3603
1091.80 0.3602
1091.90 0.3602
1092.00 0.3602
1092.10 0.3601
1092.20 0.3601
1092.30 0.36
1092.40 0.36
1092.50 0.36
1092.60 0.3599
1092.70 0.3599
1092.80 0.3599
1092.90 0.3598
1093.00 0.3598
1093.10 0.3598
1093.20 0.3598
1093.30 0.3597
1093.40 0.3597
1093.50 0.3596
1093.60 0.3596
1093.70 0.3596
1093.80 0.3595
1093.90 0.3595
1094.00 0.3594
1094.10 0.3594
1094.20 0.3594
1094.30 0.3593
1094.40 0.3593
1094.50 0.3593
1094.60 0.3592
1094.70 0.3592
1094.80 0.3591
1094.90 0.3591
1095.00 0.3591
1095.10 0.359
1095.20 0.359
1095.30 0.359
1095.40 0.3589
1095.50 0.3589
1095.60 0.3588
1095.70 0.3588
1095.80 0.3588
1095.90 0.3587
1096.00 0.3587
1096.10 0.3587
1096.20 0.3586
1096.30 0.3586
1096.40 0.3585
1096.50 0.3585
1096.60 0.3585
1096.70 0.3584
1096.80 0.3584
1096.90 0.3584
1097.00 0.3583
1097.10 0.3583
1097.20 0.3583
1097.30 0.3582
1097.40 0.3582
1097.50 0.3582
1097.60 0.3581
1097.70 0.3581
1097.80 0.358
1097.90 0.358
1098.00 0.358
1098.10 0.3579
1098.20 0.3579
1098.30 0.3579
1098.40 0.3578
1098.50 0.3578
1098.60 0.3578
1098.70 0.3577
1098.80 0.3577
1098.90 0.3577
1099.00 0.3576
1099.10 0.3576
1099.20 0.3576
1099.30 0.3575
1099.40 0.3575
1099.50 0.3575
1099.60 0.3574
1099.70 0.3574
1099.80 0.3574
1099.90 0.3573
1100.00 0.3573
1100.10 0.3573
1100.20 0.3572
1100.30 0.3572
1100.40 0.3572
1100.50 0.3571
1100.60 0.3571
1100.70 0.3571
1100.80 0.357
1100.90 0.357
1101.00 0.357
1101.10 0.3569
1101.20 0.3569
1101.30 0.3569
1101.40 0.3568
1101.50 0.3568
1101.60 0.3568
1101.70 0.3567
1101.80 0.3567
1101.90 0.3567
1102.00 0.3566
1102.10 0.3566
1102.20 0.3566
1102.30 0.3565
1102.40 0.3565
1102.50 0.3565
1102.60 0.3565
1102.70 0.3564
1102.80 0.3564
1102.90 0.3564
1103.00 0.3563
1103.10 0.3563
1103.20 0.3563
1103.30 0.3562
1103.40 0.3562
1103.50 0.3562
1103.60 0.3561
1103.70 0.3561
1103.80 0.3561
1103.90 0.3561
1104.00 0.356
1104.10 0.356
1104.20 0.356
1104.30 0.356
1104.40 0.3559
1104.50 0.3559
1104.60 0.3559
1104.70 0.3559
1104.80 0.3558
1104.90 0.3558
1105.00 0.3558
1105.10 0.3557
1105.20 0.3557
1105.30 0.3557
1105.40 0.3557
1105.50 0.3556
1105.60 0.3556
1105.70 0.3556
1105.80 0.3556
1105.90 0.3555
1106.00 0.3555
1106.10 0.3555
1106.20 0.3554
1106.30 0.3554
1106.40 0.3554
1106.50 0.3554
1106.60 0.3553
1106.70 0.3553
1106.80 0.3553
1106.90 0.3552
1107.00 0.3552
1107.10 0.3552
1107.20 0.3552
1107.30 0.3551
1107.40 0.3551
1107.50 0.3551
1107.60 0.355
1107.70 0.355
1107.80 0.355
1107.90 0.355
1108.00 0.3549
1108.10 0.3549
1108.20 0.3549
1108.30 0.3548
1108.40 0.3548
1108.50 0.3548
1108.60 0.3548
1108.70 0.3547
1108.80 0.3547
1108.90 0.3547
1109.00 0.3547
1109.10 0.3546
1109.20 0.3546
1109.30 0.3546
1109.40 0.3545
1109.50 0.3545
1109.60 0.3545
1109.70 0.3545
1109.80 0.3544
1109.90 0.3544
1110.00 0.3544
1110.10 0.3544
1110.20 0.3543
1110.30 0.3543
1110.40 0.3543
1110.50 0.3543
1110.60 0.3542
1110.70 0.3542
1110.80 0.3542
1110.90 0.3542
1111.00 0.3541
1111.10 0.3541
1111.20 0.3541
1111.30 0.354
1111.40 0.354
1111.50 0.354
1111.60 0.354
1111.70 0.3539
1111.80 0.3539
1111.90 0.3539
1112.00 0.3539
1112.10 0.3538
1112.20 0.3538
1112.30 0.3538
1112.40 0.3538
1112.50 0.3537
1112.60 0.3537
1112.70 0.3537
1112.80 0.3537
1112.90 0.3536
1113.00 0.3536
1113.10 0.3536
1113.20 0.3536
1113.30 0.3535
1113.40 0.3535
1113.50 0.3535
1113.60 0.3535
1113.70 0.3534
1113.80 0.3534
1113.90 0.3534
1114.00 0.3534
1114.10 0.3533
1114.20 0.3533
1114.30 0.3533
1114.40 0.3533
1114.50 0.3532
1114.60 0.3532
1114.70 0.3532
1114.80 0.3532
1114.90 0.3531
1115.00 0.3531
1115.10 0.3531
1115.20 0.3531
1115.30 0.353
1115.40 0.353
1115.50 0.353
1115.60 0.353
1115.70 0.3529
1115.80 0.3529
1115.90 0.3529
1116.00 0.3529
1116.10 0.3529
1116.20 0.3528
1116.30 0.3528
1116.40 0.3528
1116.50 0.3528
1116.60 0.3527
1116.70 0.3527
1116.80 0.3527
1116.90 0.3527
1117.00 0.3526
1117.10 0.3526
1117.20 0.3526
1117.30 0.3526
1117.40 0.3525
1117.50 0.3525
1117.60 0.3525
1117.70 0.3525
1117.80 0.3525
1117.90 0.3524
1118.00 0.3524
1118.10 0.3524
1118.20 0.3524
1118.30 0.3524
1118.40 0.3523
1118.50 0.3523
1118.60 0.3523
1118.70 0.3523
1118.80 0.3522
1118.90 0.3522
1119.00 0.3522
1119.10 0.3522
1119.20 0.3522
1119.30 0.3521
1119.40 0.3521
1119.50 0.3521
1119.60 0.3521
1119.70 0.3521
1119.80 0.352
1119.90 0.352
1120.00 0.352
1120.10 0.352
1120.20 0.3519
1120.30 0.3519
1120.40 0.3519
1120.50 0.3519
1120.60 0.3519
1120.70 0.3518
1120.80 0.3518
1120.90 0.3518
1121.00 0.3518
1121.10 0.3517
1121.20 0.3517
1121.30 0.3517
1121.40 0.3517
1121.50 0.3517
1121.60 0.3516
1121.70 0.3516
1121.80 0.3516
1121.90 0.3516
1122.00 0.3516
1122.10 0.3515
1122.20 0.3515
1122.30 0.3515
1122.40 0.3515
1122.50 0.3514
1122.60 0.3514
1122.70 0.3514
1122.80 0.3514
1122.90 0.3513
1123.00 0.3513
1123.10 0.3513
1123.20 0.3513
1123.30 0.3513
1123.40 0.3512
1123.50 0.3512
1123.60 0.3512
1123.70 0.3512
1123.80 0.3511
1123.90 0.3511
1124.00 0.3511
1124.10 0.3511
1124.20 0.351
1124.30 0.351
1124.40 0.351
1124.50 0.351
1124.60 0.351
1124.70 0.3509
1124.80 0.3509
1124.90 0.3509
1125.00 0.3509
1125.10 0.3508
1125.20 0.3508
1125.30 0.3508
1125.40 0.3508
1125.50 0.3507
1125.60 0.3507
1125.70 0.3507
1125.80 0.3507
1125.90 0.3507
1126.00 0.3506
1126.10 0.3506
1126.20 0.3506
1126.30 0.3506
1126.40 0.3505
1126.50 0.3505
1126.60 0.3505
1126.70 0.3505
1126.80 0.3505
1126.90 0.3504
1127.00 0.3504
1127.10 0.3504
1127.20 0.3504
1127.30 0.3503
1127.40 0.3503
1127.50 0.3503
1127.60 0.3503
1127.70 0.3503
1127.80 0.3502
1127.90 0.3502
1128.00 0.3502
1128.10 0.3502
1128.20 0.3502
1128.30 0.3501
1128.40 0.3501
1128.50 0.3501
1128.60 0.3501
1128.70 0.3501
1128.80 0.35
1128.90 0.35
1129.00 0.35
1129.10 0.35
1129.20 0.3499
1129.30 0.3499
1129.40 0.3499
1129.50 0.3499
1129.60 0.3499
1129.70 0.3498
1129.80 0.3498
1129.90 0.3498
1130.00 0.3498
1130.10 0.3498
1130.20 0.3497
1130.30 0.3497
1130.40 0.3497
1130.50 0.3497
1130.60 0.3497
1130.70 0.3496
1130.80 0.3496
1130.90 0.3496
1131.00 0.3496
1131.10 0.3496
1131.20 0.3495
1131.30 0.3495
1131.40 0.3495
1131.50 0.3495
1131.60 0.3494
1131.70 0.3494
1131.80 0.3494
1131.90 0.3494
1132.00 0.3494
1132.10 0.3493
1132.20 0.3493
1132.30 0.3493
1132.40 0.3493
1132.50 0.3492
1132.60 0.3492
1132.70 0.3492
1132.80 0.3492
1132.90 0.3491
1133.00 0.3491
1133.10 0.3491
1133.20 0.3491
1133.30 0.349
1133.40 0.349
1133.50 0.349
1133.60 0.349
1133.70 0.3489
1133.80 0.3489
1133.90 0.3489
1134.00 0.3489
1134.10 0.3488
1134.20 0.3488
1134.30 0.3488
1134.40 0.3488
1134.50 0.3487
1134.60 0.3487
1134.70 0.3487
1134.80 0.3487
1134.90 0.3486
1135.00 0.3486
1135.10 0.3486
1135.20 0.3486
1135.30 0.3485
1135.40 0.3485
1135.50 0.3485
1135.60 0.3485
1135.70 0.3484
1135.80 0.3484
1135.90 0.3484
1136.00 0.3484
1136.10 0.3483
1136.20 0.3483
1136.30 0.3483
1136.40 0.3483
1136.50 0.3482
1136.60 0.3482
1136.70 0.3482
1136.80 0.3481
1136.90 0.3481
1137.00 0.3481
1137.10 0.3481
1137.20 0.348
1137.30 0.348
1137.40 0.348
1137.50 0.348
1137.60 0.3479
1137.70 0.3479
1137.80 0.3479
1137.90 0.3478
1138.00 0.3478
1138.10 0.3478
1138.20 0.3478
1138.30 0.3477
1138.40 0.3477
1138.50 0.3477
1138.60 0.3477
1138.70 0.3476
1138.80 0.3476
1138.90 0.3476
1139.00 0.3475
1139.10 0.3475
1139.20 0.3475
1139.30 0.3475
1139.40 0.3474
1139.50 0.3474
1139.60 0.3474
1139.70 0.3473
1139.80 0.3473
1139.90 0.3473
1140.00 0.3473
1140.10 0.3472
1140.20 0.3472
1140.30 0.3472
1140.40 0.3471
1140.50 0.3471
1140.60 0.3471
1140.70 0.3471
1140.80 0.347
1140.90 0.347
1141.00 0.347
1141.10 0.347
1141.20 0.3469
1141.30 0.3469
1141.40 0.3469
1141.50 0.3468
1141.60 0.3468
1141.70 0.3468
1141.80 0.3468
1141.90 0.3467
1142.00 0.3467
1142.10 0.3467
1142.20 0.3466
1142.30 0.3466
1142.40 0.3466
1142.50 0.3466
1142.60 0.3465
1142.70 0.3465
1142.80 0.3465
1142.90 0.3464
1143.00 0.3464
1143.10 0.3464
1143.20 0.3463
1143.30 0.3463
1143.40 0.3463
1143.50 0.3463
1143.60 0.3462
1143.70 0.3462
1143.80 0.3462
1143.90 0.3461
1144.00 0.3461
1144.10 0.3461
1144.20 0.3461
1144.30 0.346
1144.40 0.346
1144.50 0.346
1144.60 0.3459
1144.70 0.3459
1144.80 0.3459
1144.90 0.3458
1145.00 0.3458
1145.10 0.3458
1145.20 0.3458
1145.30 0.3457
1145.40 0.3457
1145.50 0.3457
1145.60 0.3456
1145.70 0.3456
1145.80 0.3456
1145.90 0.3455
1146.00 0.3455
1146.10 0.3455
1146.20 0.3455
1146.30 0.3454
1146.40 0.3454
1146.50 0.3454
1146.60 0.3453
1146.70 0.3453
1146.80 0.3453
1146.90 0.3453
1147.00 0.3452
1147.10 0.3452
1147.20 0.3452
1147.30 0.3451
1147.40 0.3451
1147.50 0.345
1147.60 0.345
1147.70 0.345
1147.80 0.3449
1147.90 0.3449
1148.00 0.3449
1148.10 0.3448
1148.20 0.3448
1148.30 0.3448
1148.40 0.3447
1148.50 0.3447
1148.60 0.3447
1148.70 0.3446
1148.80 0.3446
1148.90 0.3446
1149.00 0.3445
1149.10 0.3445
1149.20 0.3445
1149.30 0.3444
1149.40 0.3444
1149.50 0.3443
1149.60 0.3443
1149.70 0.3443
1149.80 0.3442
1149.90 0.3442
1150.00 0.3442
1150.10 0.3441
1150.20 0.3441
1150.30 0.3441
1150.40 0.344
1150.50 0.344
1150.60 0.344
1150.70 0.3439
1150.80 0.3439
1150.90 0.3439
1151.00 0.3438
1151.10 0.3438
1151.20 0.3438
1151.30 0.3437
1151.40 0.3437
1151.50 0.3437
1151.60 0.3436
1151.70 0.3436
1151.80 0.3435
1151.90 0.3435
1152.00 0.3435
1152.10 0.3434
1152.20 0.3434
1152.30 0.3434
1152.40 0.3433
1152.50 0.3433
1152.60 0.3433
1152.70 0.3432
1152.80 0.3432
1152.90 0.3431
1153.00 0.3431
1153.10 0.3431
1153.20 0.343
1153.30 0.343
1153.40 0.343
1153.50 0.3429
1153.60 0.3429
1153.70 0.3428
1153.80 0.3428
1153.90 0.3428
1154.00 0.3427
1154.10 0.3427
1154.20 0.3427
1154.30 0.3426
1154.40 0.3426
1154.50 0.3425
1154.60 0.3425
1154.70 0.3425
1154.80 0.3424
1154.90 0.3424
1155.00 0.3424
1155.10 0.3423
1155.20 0.3423
1155.30 0.3422
1155.40 0.3422
1155.50 0.3422
1155.60 0.3421
1155.70 0.3421
1155.80 0.3421
1155.90 0.342
1156.00 0.342
1156.10 0.342
1156.20 0.3419
1156.30 0.3419
1156.40 0.3418
1156.50 0.3418
1156.60 0.3418
1156.70 0.3417
1156.80 0.3417
1156.90 0.3417
1157.00 0.3416
1157.10 0.3416
1157.20 0.3415
1157.30 0.3415
1157.40 0.3414
1157.50 0.3414
1157.60 0.3414
1157.70 0.3413
1157.80 0.3413
1157.90 0.3412
1158.00 0.3412
1158.10 0.3411
1158.20 0.3411
1158.30 0.3411
1158.40 0.341
1158.50 0.341
1158.60 0.3409
1158.70 0.3409
1158.80 0.3408
1158.90 0.3408
1159.00 0.3407
1159.10 0.3407
1159.20 0.3407
1159.30 0.3406
1159.40 0.3406
1159.50 0.3405
1159.60 0.3405
1159.70 0.3404
1159.80 0.3404
1159.90 0.3404
1160.00 0.3403
1160.10 0.3403
1160.20 0.3402
1160.30 0.3402
1160.40 0.3401
1160.50 0.3401
1160.60 0.3401
1160.70 0.34
1160.80 0.34
1160.90 0.3399
1161.00 0.3399
1161.10 0.3398
1161.20 0.3398
1161.30 0.3397
1161.40 0.3397
1161.50 0.3397
1161.60 0.3396
1161.70 0.3396
1161.80 0.3395
1161.90 0.3395
1162.00 0.3394
1162.10 0.3394
1162.20 0.3393
1162.30 0.3393
1162.40 0.3392
1162.50 0.3392
1162.60 0.3392
1162.70 0.3391
1162.80 0.3391
1162.90 0.339
1163.00 0.339
1163.10 0.3389
1163.20 0.3389
1163.30 0.3388
1163.40 0.3388
1163.50 0.3387
1163.60 0.3387
1163.70 0.3386
1163.80 0.3386
1163.90 0.3385
1164.00 0.3385
1164.10 0.3384
1164.20 0.3384
1164.30 0.3383
1164.40 0.3383
1164.50 0.3382
1164.60 0.3382
1164.70 0.3381
1164.80 0.3381
1164.90 0.338
1165.00 0.338
1165.10 0.3379
1165.20 0.3379
1165.30 0.3378
1165.40 0.3378
1165.50 0.3377
1165.60 0.3377
1165.70 0.3376
1165.80 0.3376
1165.90 0.3375
1166.00 0.3375
1166.10 0.3375
1166.20 0.3374
1166.30 0.3374
1166.40 0.3373
1166.50 0.3373
1166.60 0.3372
1166.70 0.3372
1166.80 0.3371
1166.90 0.3371
1167.00 0.337
1167.10 0.337
1167.20 0.3369
1167.30 0.3369
1167.40 0.3368
1167.50 0.3367
1167.60 0.3367
1167.70 0.3366
1167.80 0.3366
1167.90 0.3365
1168.00 0.3365
1168.10 0.3364
1168.20 0.3364
1168.30 0.3363
1168.40 0.3363
1168.50 0.3362
1168.60 0.3362
1168.70 0.3361
1168.80 0.3361
1168.90 0.336
1169.00 0.3359
1169.10 0.3359
1169.20 0.3358
1169.30 0.3358
1169.40 0.3357
1169.50 0.3357
1169.60 0.3356
1169.70 0.3356
1169.80 0.3355
1169.90 0.3355
1170.00 0.3354
1170.10 0.3354
1170.20 0.3353
1170.30 0.3352
1170.40 0.3352
1170.50 0.3351
1170.60 0.3351
1170.70 0.335
1170.80 0.335
1170.90 0.3349
1171.00 0.3349
1171.10 0.3348
1171.20 0.3348
1171.30 0.3347
1171.40 0.3347
1171.50 0.3346
1171.60 0.3346
1171.70 0.3345
1171.80 0.3344
1171.90 0.3344
1172.00 0.3343
1172.10 0.3343
1172.20 0.3342
1172.30 0.3342
1172.40 0.3341
1172.50 0.3341
1172.60 0.334
1172.70 0.3339
1172.80 0.3339
1172.90 0.3338
1173.00 0.3338
1173.10 0.3337
1173.20 0.3336
1173.30 0.3336
1173.40 0.3335
1173.50 0.3335
1173.60 0.3334
1173.70 0.3334
1173.80 0.3333
1173.90 0.3332
1174.00 0.3332
1174.10 0.3331
1174.20 0.3331
1174.30 0.333
1174.40 0.333
1174.50 0.3329
1174.60 0.3328
1174.70 0.3328
1174.80 0.3327
1174.90 0.3327
1175.00 0.3326
1175.10 0.3326
1175.20 0.3325
1175.30 0.3324
1175.40 0.3324
1175.50 0.3323
1175.60 0.3323
1175.70 0.3322
1175.80 0.3322
1175.90 0.3321
1176.00 0.332
1176.10 0.332
1176.20 0.3319
1176.30 0.3319
1176.40 0.3318
1176.50 0.3318
1176.60 0.3317
1176.70 0.3316
1176.80 0.3316
1176.90 0.3315
1177.00 0.3315
1177.10 0.3314
1177.20 0.3313
1177.30 0.3313
1177.40 0.3312
1177.50 0.3312
1177.60 0.3311
1177.70 0.331
1177.80 0.331
1177.90 0.3309
1178.00 0.3308
1178.10 0.3308
1178.20 0.3307
1178.30 0.3307
1178.40 0.3306
1178.50 0.3305
1178.60 0.3305
1178.70 0.3304
1178.80 0.3304
1178.90 0.3303
1179.00 0.3302
1179.10 0.3302
1179.20 0.3301
1179.30 0.33
1179.40 0.33
1179.50 0.3299
1179.60 0.3299
1179.70 0.3298
1179.80 0.3297
1179.90 0.3297
1180.00 0.3296
1180.10 0.3296
1180.20 0.3295
1180.30 0.3294
1180.40 0.3294
1180.50 0.3293
1180.60 0.3292
1180.70 0.3292
1180.80 0.3291
1180.90 0.3291
1181.00 0.329
1181.10 0.3289
1181.20 0.3289
1181.30 0.3288
1181.40 0.3288
1181.50 0.3287
1181.60 0.3286
1181.70 0.3286
1181.80 0.3285
1181.90 0.3285
1182.00 0.3284
1182.10 0.3283
1182.20 0.3283
1182.30 0.3282
1182.40 0.3281
1182.50 0.3281
1182.60 0.328
1182.70 0.3279
1182.80 0.3279
1182.90 0.3278
1183.00 0.3277
1183.10 0.3277
1183.20 0.3276
1183.30 0.3275
1183.40 0.3275
1183.50 0.3274
1183.60 0.3273
1183.70 0.3273
1183.80 0.3272
1183.90 0.3271
1184.00 0.3271
1184.10 0.327
1184.20 0.3269
1184.30 0.3269
1184.40 0.3268
1184.50 0.3267
1184.60 0.3267
1184.70 0.3266
1184.80 0.3265
1184.90 0.3265
1185.00 0.3264
1185.10 0.3263
1185.20 0.3263
1185.30 0.3262
1185.40 0.3261
1185.50 0.3261
1185.60 0.326
1185.70 0.3259
1185.80 0.3259
1185.90 0.3258
1186.00 0.3257
1186.10 0.3257
1186.20 0.3256
1186.30 0.3255
1186.40 0.3255
1186.50 0.3254
1186.60 0.3253
1186.70 0.3253
1186.80 0.3252
1186.90 0.3251
1187.00 0.3251
1187.10 0.325
1187.20 0.3249
1187.30 0.3249
1187.40 0.3248
1187.50 0.3247
1187.60 0.3247
1187.70 0.3246
1187.80 0.3245
1187.90 0.3245
1188.00 0.3244
1188.10 0.3243
1188.20 0.3243
1188.30 0.3242
1188.40 0.3241
1188.50 0.3241
1188.60 0.324
1188.70 0.3239
1188.80 0.3239
1188.90 0.3238
1189.00 0.3237
1189.10 0.3237
1189.20 0.3236
1189.30 0.3235
1189.40 0.3235
1189.50 0.3234
1189.60 0.3233
1189.70 0.3233
1189.80 0.3232
1189.90 0.3231
1190.00 0.3231
1190.10 0.323
1190.20 0.3229
1190.30 0.3229
1190.40 0.3228
1190.50 0.3227
1190.60 0.3227
1190.70 0.3226
1190.80 0.3225
1190.90 0.3225
1191.00 0.3224
1191.10 0.3223
1191.20 0.3223
1191.30 0.3222
1191.40 0.3221
1191.50 0.3221
1191.60 0.322
1191.70 0.3219
1191.80 0.3219
1191.90 0.3218
1192.00 0.3217
1192.10 0.3216
1192.20 0.3216
1192.30 0.3215
1192.40 0.3214
1192.50 0.3214
1192.60 0.3213
1192.70 0.3212
1192.80 0.3212
1192.90 0.3211
1193.00 0.321
1193.10 0.321
1193.20 0.3209
1193.30 0.3208
1193.40 0.3207
1193.50 0.3207
1193.60 0.3206
1193.70 0.3205
1193.80 0.3205
1193.90 0.3204
1194.00 0.3203
1194.10 0.3203
1194.20 0.3202
1194.30 0.3201
1194.40 0.3201
1194.50 0.32
1194.60 0.3199
1194.70 0.3199
1194.80 0.3198
1194.90 0.3197
1195.00 0.3196
1195.10 0.3196
1195.20 0.3195
1195.30 0.3194
1195.40 0.3194
1195.50 0.3193
1195.60 0.3192
1195.70 0.3192
1195.80 0.3191
1195.90 0.319
1196.00 0.319
1196.10 0.3189
1196.20 0.3188
1196.30 0.3188
1196.40 0.3187
1196.50 0.3186
1196.60 0.3185
1196.70 0.3185
1196.80 0.3184
1196.90 0.3183
1197.00 0.3183
1197.10 0.3182
1197.20 0.3181
1197.30 0.3181
1197.40 0.318
1197.50 0.3179
1197.60 0.3178
1197.70 0.3178
1197.80 0.3177
1197.90 0.3176
1198.00 0.3175
1198.10 0.3175
1198.20 0.3174
1198.30 0.3173
1198.40 0.3173
1198.50 0.3172
1198.60 0.3171
1198.70 0.317
1198.80 0.317
1198.90 0.3169
1199.00 0.3168
1199.10 0.3168
1199.20 0.3167
1199.30 0.3166
1199.40 0.3165
1199.50 0.3165
1199.60 0.3164
1199.70 0.3163
1199.80 0.3162
1199.90 0.3162
1200.00 0
