# Version 2.1 - nm, norm@500 to 1, cut digits, bergeron_13000_65.dat_13000
# Wavelength(nm)  Flambda(ergs/cm^s/s/nm)
300.00 1.67
300.10 1.669
300.20 1.668
300.30 1.667
300.40 1.666
300.50 1.665
300.60 1.664
300.70 1.663
300.80 1.662
300.90 1.661
301.00 1.659
301.10 1.658
301.20 1.657
301.30 1.656
301.40 1.655
301.50 1.654
301.60 1.653
301.70 1.652
301.80 1.651
301.90 1.65
302.00 1.649
302.10 1.648
302.20 1.647
302.30 1.646
302.40 1.644
302.50 1.643
302.60 1.642
302.70 1.641
302.80 1.64
302.90 1.639
303.00 1.638
303.10 1.637
303.20 1.636
303.30 1.635
303.40 1.634
303.50 1.633
303.60 1.632
303.70 1.631
303.80 1.63
303.90 1.629
304.00 1.628
304.10 1.627
304.20 1.625
304.30 1.624
304.40 1.623
304.50 1.622
304.60 1.621
304.70 1.62
304.80 1.619
304.90 1.618
305.00 1.617
305.10 1.616
305.20 1.615
305.30 1.614
305.40 1.613
305.50 1.612
305.60 1.611
305.70 1.61
305.80 1.609
305.90 1.608
306.00 1.607
306.10 1.606
306.20 1.605
306.30 1.604
306.40 1.603
306.50 1.602
306.60 1.601
306.70 1.6
306.80 1.599
306.90 1.598
307.00 1.597
307.10 1.596
307.20 1.595
307.30 1.593
307.40 1.592
307.50 1.591
307.60 1.59
307.70 1.589
307.80 1.588
307.90 1.587
308.00 1.586
308.10 1.585
308.20 1.584
308.30 1.583
308.40 1.582
308.50 1.581
308.60 1.58
308.70 1.579
308.80 1.578
308.90 1.577
309.00 1.576
309.10 1.575
309.20 1.574
309.30 1.573
309.40 1.572
309.50 1.571
309.60 1.57
309.70 1.569
309.80 1.568
309.90 1.567
310.00 1.566
310.10 1.565
310.20 1.564
310.30 1.563
310.40 1.562
310.50 1.561
310.60 1.56
310.70 1.559
310.80 1.558
310.90 1.557
311.00 1.556
311.10 1.555
311.20 1.555
311.30 1.554
311.40 1.553
311.50 1.552
311.60 1.551
311.70 1.55
311.80 1.549
311.90 1.548
312.00 1.547
312.10 1.546
312.20 1.545
312.30 1.544
312.40 1.543
312.50 1.542
312.60 1.541
312.70 1.54
312.80 1.539
312.90 1.538
313.00 1.537
313.10 1.536
313.20 1.535
313.30 1.534
313.40 1.533
313.50 1.532
313.60 1.531
313.70 1.53
313.80 1.529
313.90 1.528
314.00 1.527
314.10 1.526
314.20 1.525
314.30 1.524
314.40 1.523
314.50 1.523
314.60 1.522
314.70 1.521
314.80 1.52
314.90 1.519
315.00 1.518
315.10 1.517
315.20 1.516
315.30 1.515
315.40 1.514
315.50 1.513
315.60 1.512
315.70 1.511
315.80 1.51
315.90 1.509
316.00 1.508
316.10 1.507
316.20 1.506
316.30 1.506
316.40 1.505
316.50 1.504
316.60 1.503
316.70 1.502
316.80 1.501
316.90 1.5
317.00 1.499
317.10 1.498
317.20 1.497
317.30 1.496
317.40 1.495
317.50 1.494
317.60 1.493
317.70 1.492
317.80 1.491
317.90 1.491
318.00 1.49
318.10 1.489
318.20 1.488
318.30 1.487
318.40 1.486
318.50 1.485
318.60 1.484
318.70 1.483
318.80 1.482
318.90 1.481
319.00 1.48
319.10 1.48
319.20 1.479
319.30 1.478
319.40 1.477
319.50 1.476
319.60 1.475
319.70 1.474
319.80 1.473
319.90 1.472
320.00 1.471
320.10 1.47
320.20 1.469
320.30 1.469
320.40 1.468
320.50 1.467
320.60 1.466
320.70 1.465
320.80 1.464
320.90 1.463
321.00 1.462
321.10 1.461
321.20 1.46
321.30 1.46
321.40 1.459
321.50 1.458
321.60 1.457
321.70 1.456
321.80 1.455
321.90 1.454
322.00 1.453
322.10 1.452
322.20 1.451
322.30 1.451
322.40 1.45
322.50 1.449
322.60 1.448
322.70 1.447
322.80 1.446
322.90 1.445
323.00 1.444
323.10 1.443
323.20 1.443
323.30 1.442
323.40 1.441
323.50 1.44
323.60 1.439
323.70 1.438
323.80 1.437
323.90 1.436
324.00 1.435
324.10 1.435
324.20 1.434
324.30 1.433
324.40 1.432
324.50 1.431
324.60 1.43
324.70 1.429
324.80 1.428
324.90 1.428
325.00 1.427
325.10 1.426
325.20 1.425
325.30 1.424
325.40 1.423
325.50 1.422
325.60 1.422
325.70 1.421
325.80 1.42
325.90 1.419
326.00 1.418
326.10 1.417
326.20 1.416
326.30 1.415
326.40 1.415
326.50 1.414
326.60 1.413
326.70 1.412
326.80 1.411
326.90 1.41
327.00 1.409
327.10 1.409
327.20 1.408
327.30 1.407
327.40 1.406
327.50 1.405
327.60 1.404
327.70 1.403
327.80 1.403
327.90 1.402
328.00 1.401
328.10 1.4
328.20 1.399
328.30 1.398
328.40 1.397
328.50 1.397
328.60 1.396
328.70 1.395
328.80 1.394
328.90 1.393
329.00 1.392
329.10 1.392
329.20 1.391
329.30 1.39
329.40 1.389
329.50 1.388
329.60 1.387
329.70 1.386
329.80 1.386
329.90 1.385
330.00 1.384
330.10 1.383
330.20 1.382
330.30 1.381
330.40 1.381
330.50 1.38
330.60 1.379
330.70 1.378
330.80 1.377
330.90 1.376
331.00 1.376
331.10 1.375
331.20 1.374
331.30 1.373
331.40 1.372
331.50 1.372
331.60 1.371
331.70 1.37
331.80 1.369
331.90 1.368
332.00 1.367
332.10 1.367
332.20 1.366
332.30 1.365
332.40 1.364
332.50 1.363
332.60 1.362
332.70 1.362
332.80 1.361
332.90 1.36
333.00 1.359
333.10 1.358
333.20 1.358
333.30 1.357
333.40 1.356
333.50 1.355
333.60 1.354
333.70 1.353
333.80 1.353
333.90 1.352
334.00 1.351
334.10 1.35
334.20 1.349
334.30 1.349
334.40 1.348
334.50 1.347
334.60 1.346
334.70 1.345
334.80 1.345
334.90 1.344
335.00 1.343
335.10 1.342
335.20 1.341
335.30 1.341
335.40 1.34
335.50 1.339
335.60 1.338
335.70 1.337
335.80 1.337
335.90 1.336
336.00 1.335
336.10 1.334
336.20 1.333
336.30 1.333
336.40 1.332
336.50 1.331
336.60 1.33
336.70 1.329
336.80 1.329
336.90 1.328
337.00 1.327
337.10 1.326
337.20 1.325
337.30 1.325
337.40 1.324
337.50 1.323
337.60 1.322
337.70 1.322
337.80 1.321
337.90 1.32
338.00 1.319
338.10 1.318
338.20 1.318
338.30 1.317
338.40 1.316
338.50 1.315
338.60 1.314
338.70 1.314
338.80 1.313
338.90 1.312
339.00 1.311
339.10 1.311
339.20 1.31
339.30 1.309
339.40 1.308
339.50 1.307
339.60 1.307
339.70 1.306
339.80 1.305
339.90 1.304
340.00 1.304
340.10 1.303
340.20 1.302
340.30 1.301
340.40 1.3
340.50 1.3
340.60 1.299
340.70 1.298
340.80 1.297
340.90 1.297
341.00 1.296
341.10 1.295
341.20 1.294
341.30 1.294
341.40 1.293
341.50 1.292
341.60 1.291
341.70 1.291
341.80 1.29
341.90 1.289
342.00 1.288
342.10 1.287
342.20 1.287
342.30 1.286
342.40 1.285
342.50 1.284
342.60 1.284
342.70 1.283
342.80 1.282
342.90 1.281
343.00 1.281
343.10 1.28
343.20 1.279
343.30 1.278
343.40 1.278
343.50 1.277
343.60 1.276
343.70 1.275
343.80 1.275
343.90 1.274
344.00 1.273
344.10 1.272
344.20 1.272
344.30 1.271
344.40 1.27
344.50 1.269
344.60 1.269
344.70 1.268
344.80 1.267
344.90 1.266
345.00 1.266
345.10 1.265
345.20 1.264
345.30 1.264
345.40 1.263
345.50 1.262
345.60 1.261
345.70 1.261
345.80 1.26
345.90 1.259
346.00 1.258
346.10 1.258
346.20 1.257
346.30 1.256
346.40 1.255
346.50 1.255
346.60 1.254
346.70 1.253
346.80 1.252
346.90 1.252
347.00 1.251
347.10 1.25
347.20 1.25
347.30 1.249
347.40 1.248
347.50 1.247
347.60 1.247
347.70 1.246
347.80 1.245
347.90 1.244
348.00 1.244
348.10 1.243
348.20 1.242
348.30 1.242
348.40 1.241
348.50 1.24
348.60 1.239
348.70 1.239
348.80 1.238
348.90 1.237
349.00 1.236
349.10 1.236
349.20 1.235
349.30 1.234
349.40 1.234
349.50 1.233
349.60 1.232
349.70 1.231
349.80 1.231
349.90 1.23
350.00 1.229
350.10 1.229
350.20 1.228
350.30 1.227
350.40 1.226
350.50 1.226
350.60 1.225
350.70 1.224
350.80 1.224
350.90 1.223
351.00 1.222
351.10 1.221
351.20 1.221
351.30 1.22
351.40 1.219
351.50 1.219
351.60 1.218
351.70 1.217
351.80 1.217
351.90 1.216
352.00 1.215
352.10 1.214
352.20 1.214
352.30 1.213
352.40 1.212
352.50 1.212
352.60 1.211
352.70 1.21
352.80 1.21
352.90 1.209
353.00 1.208
353.10 1.207
353.20 1.207
353.30 1.206
353.40 1.205
353.50 1.205
353.60 1.204
353.70 1.203
353.80 1.203
353.90 1.202
354.00 1.201
354.10 1.2
354.20 1.2
354.30 1.199
354.40 1.198
354.50 1.198
354.60 1.197
354.70 1.196
354.80 1.196
354.90 1.195
355.00 1.194
355.10 1.194
355.20 1.193
355.30 1.192
355.40 1.192
355.50 1.191
355.60 1.19
355.70 1.189
355.80 1.189
355.90 1.188
356.00 1.187
356.10 1.187
356.20 1.186
356.30 1.185
356.40 1.185
356.50 1.184
356.60 1.183
356.70 1.183
356.80 1.182
356.90 1.181
357.00 1.181
357.10 1.18
357.20 1.179
357.30 1.179
357.40 1.178
357.50 1.177
357.60 1.177
357.70 1.176
357.80 1.175
357.90 1.175
358.00 1.174
358.10 1.173
358.20 1.173
358.30 1.172
358.40 1.171
358.50 1.171
358.60 1.17
358.70 1.169
358.80 1.169
358.90 1.168
359.00 1.167
359.10 1.167
359.20 1.166
359.30 1.165
359.40 1.165
359.50 1.164
359.60 1.163
359.70 1.163
359.80 1.162
359.90 1.161
360.00 1.161
360.10 1.16
360.20 1.159
360.30 1.159
360.40 1.158
360.50 1.157
360.60 1.157
360.70 1.156
360.80 1.155
360.90 1.155
361.00 1.154
361.10 1.153
361.20 1.153
361.30 1.152
361.40 1.151
361.50 1.151
361.60 1.15
361.70 1.149
361.80 1.149
361.90 1.148
362.00 1.147
362.10 1.147
362.20 1.146
362.30 1.145
362.40 1.145
362.50 1.144
362.60 1.143
362.70 1.143
362.80 1.142
362.90 1.142
363.00 1.141
363.10 1.14
363.20 1.14
363.30 1.139
363.40 1.138
363.50 1.138
363.60 1.137
363.70 1.136
363.80 1.136
363.90 1.135
364.00 1.134
364.10 1.134
364.20 1.133
364.30 1.132
364.40 1.132
364.50 1.131
364.60 1.13
364.70 1.13
364.80 1.129
364.90 1.129
365.00 1.128
365.10 1.128
365.20 1.127
365.30 1.126
365.40 1.126
365.50 1.125
365.60 1.125
365.70 1.124
365.80 1.124
365.90 1.123
366.00 1.123
366.10 1.122
366.20 1.122
366.30 1.121
366.40 1.121
366.50 1.12
366.60 1.12
366.70 1.119
366.80 1.119
366.90 1.118
367.00 1.118
367.10 1.117
367.20 1.117
367.30 1.116
367.40 1.116
367.50 1.115
367.60 1.115
367.70 1.114
367.80 1.114
367.90 1.113
368.00 1.113
368.10 1.114
368.20 1.115
368.30 1.116
368.40 1.117
368.50 1.118
368.60 1.119
368.70 1.12
368.80 1.121
368.90 1.122
369.00 1.123
369.10 1.124
369.20 1.125
369.30 1.127
369.40 1.128
369.50 1.129
369.60 1.13
369.70 1.131
369.80 1.132
369.90 1.133
370.00 1.134
370.10 1.138
370.20 1.141
370.30 1.145
370.40 1.148
370.50 1.152
370.60 1.156
370.70 1.159
370.80 1.163
370.90 1.167
371.00 1.17
371.10 1.174
371.20 1.178
371.30 1.181
371.40 1.185
371.50 1.188
371.60 1.192
371.70 1.196
371.80 1.199
371.90 1.203
372.00 1.206
372.10 1.212
372.20 1.217
372.30 1.223
372.40 1.229
372.50 1.234
372.60 1.24
372.70 1.245
372.80 1.251
372.90 1.256
373.00 1.262
373.10 1.267
373.20 1.273
373.30 1.278
373.40 1.284
373.50 1.289
373.60 1.295
373.70 1.3
373.80 1.306
373.90 1.311
374.00 1.317
374.10 1.322
374.20 1.328
374.30 1.334
374.40 1.339
374.50 1.345
374.60 1.35
374.70 1.356
374.80 1.361
374.90 1.367
375.00 1.373
375.10 1.378
375.20 1.384
375.30 1.389
375.40 1.395
375.50 1.4
375.60 1.406
375.70 1.411
375.80 1.417
375.90 1.422
376.00 1.428
376.10 1.43
376.20 1.433
376.30 1.436
376.40 1.438
376.50 1.441
376.60 1.443
376.70 1.446
376.80 1.449
376.90 1.451
377.00 1.454
377.10 1.448
377.20 1.443
377.30 1.438
377.40 1.432
377.50 1.427
377.60 1.422
377.70 1.416
377.80 1.411
377.90 1.406
378.00 1.4
378.10 1.373
378.20 1.346
378.30 1.319
378.40 1.292
378.50 1.265
378.60 1.238
378.70 1.211
378.80 1.184
378.90 1.157
379.00 1.131
379.10 1.107
379.20 1.084
379.30 1.061
379.40 1.038
379.50 1.015
379.60 0.9918
379.70 0.9687
379.80 0.9457
379.90 0.9226
380.00 0.8997
380.10 0.9357
380.20 0.9717
380.30 1.008
380.40 1.044
380.50 1.079
380.60 1.115
380.70 1.151
380.80 1.187
380.90 1.223
381.00 1.258
381.10 1.274
381.20 1.29
381.30 1.305
381.40 1.321
381.50 1.336
381.60 1.339
381.70 1.337
381.80 1.331
381.90 1.321
382.00 1.306
382.10 1.287
382.20 1.263
382.30 1.223
382.40 1.183
382.50 1.143
382.60 1.103
382.70 1.063
382.80 1.023
382.90 0.9829
383.00 0.9431
383.10 0.9034
383.20 0.8637
383.30 0.8178
383.40 0.769
383.50 0.7138
383.60 0.7268
383.70 0.7793
383.80 0.827
383.90 0.8721
384.00 0.9163
384.10 0.9607
384.20 1.005
384.30 1.049
384.40 1.094
384.50 1.138
384.60 1.181
384.70 1.222
384.80 1.259
384.90 1.294
385.00 1.326
385.10 1.353
385.20 1.378
385.30 1.401
385.40 1.419
385.50 1.436
385.60 1.45
385.70 1.461
385.80 1.47
385.90 1.477
386.00 1.481
386.10 1.483
386.20 1.483
386.30 1.48
386.40 1.475
386.50 1.469
386.60 1.459
386.70 1.448
386.80 1.434
386.90 1.418
387.00 1.399
387.10 1.379
387.20 1.355
387.30 1.328
387.40 1.3
387.50 1.267
387.60 1.232
387.70 1.195
387.80 1.153
387.90 1.11
388.00 1.065
388.10 1.018
388.20 0.9716
388.30 0.925
388.40 0.8789
388.50 0.8328
388.60 0.7867
388.70 0.7373
388.80 0.6805
388.90 0.6161
389.00 0.6765
389.10 0.7313
389.20 0.7806
389.30 0.8262
389.40 0.8717
389.50 0.9169
389.60 0.963
389.70 1.009
389.80 1.056
389.90 1.101
390.00 1.145
390.10 1.187
390.20 1.226
390.30 1.263
390.40 1.298
390.50 1.33
390.60 1.36
390.70 1.388
390.80 1.414
390.90 1.438
391.00 1.461
391.10 1.482
391.20 1.502
391.30 1.521
391.40 1.538
391.50 1.554
391.60 1.569
391.70 1.582
391.80 1.594
391.90 1.605
392.00 1.615
392.10 1.624
392.20 1.632
392.30 1.638
392.40 1.643
392.50 1.648
392.60 1.651
392.70 1.653
392.80 1.654
392.90 1.654
393.00 1.653
393.10 1.651
393.20 1.647
393.30 1.643
393.40 1.637
393.50 1.63
393.60 1.623
393.70 1.614
393.80 1.603
393.90 1.592
394.00 1.58
394.10 1.566
394.20 1.551
394.30 1.535
394.40 1.517
394.50 1.499
394.60 1.479
394.70 1.458
394.80 1.435
394.90 1.412
395.00 1.386
395.10 1.36
395.20 1.333
395.30 1.303
395.40 1.272
395.50 1.24
395.60 1.205
395.70 1.169
395.80 1.132
395.90 1.092
396.00 1.051
396.10 1.009
396.20 0.9652
396.30 0.9209
396.40 0.8762
396.50 0.8319
396.60 0.7877
396.70 0.7437
396.80 0.6951
396.90 0.6295
397.00 0.5469
397.10 0.6241
397.20 0.6871
397.30 0.736
397.40 0.7796
397.50 0.823
397.60 0.8664
397.70 0.9102
397.80 0.9535
397.90 0.9964
398.00 1.038
398.10 1.078
398.20 1.117
398.30 1.153
398.40 1.189
398.50 1.223
398.60 1.254
398.70 1.284
398.80 1.313
398.90 1.341
399.00 1.367
399.10 1.392
399.20 1.416
399.30 1.439
399.40 1.461
399.50 1.481
399.60 1.501
399.70 1.52
399.80 1.538
399.90 1.555
400.00 1.571
400.10 1.586
400.20 1.601
400.30 1.614
400.40 1.627
400.50 1.639
400.60 1.651
400.70 1.661
400.80 1.671
400.90 1.68
401.00 1.689
401.10 1.697
401.20 1.705
401.30 1.712
401.40 1.718
401.50 1.724
401.60 1.73
401.70 1.735
401.80 1.739
401.90 1.744
402.00 1.747
402.10 1.751
402.20 1.754
402.30 1.757
402.40 1.759
402.50 1.761
402.60 1.763
402.70 1.764
402.80 1.765
402.90 1.766
403.00 1.766
403.10 1.766
403.20 1.766
403.30 1.766
403.40 1.765
403.50 1.764
403.60 1.763
403.70 1.762
403.80 1.76
403.90 1.758
404.00 1.756
404.10 1.753
404.20 1.751
404.30 1.748
404.40 1.744
404.50 1.741
404.60 1.737
404.70 1.732
404.80 1.728
404.90 1.723
405.00 1.718
405.10 1.712
405.20 1.706
405.30 1.7
405.40 1.693
405.50 1.686
405.60 1.678
405.70 1.67
405.80 1.662
405.90 1.653
406.00 1.643
406.10 1.633
406.20 1.623
406.30 1.612
406.40 1.6
406.50 1.588
406.60 1.575
406.70 1.562
406.80 1.547
406.90 1.533
407.00 1.517
407.10 1.5
407.20 1.483
407.30 1.464
407.40 1.445
407.50 1.425
407.60 1.404
407.70 1.382
407.80 1.359
407.90 1.336
408.00 1.311
408.10 1.286
408.20 1.26
408.30 1.233
408.40 1.206
408.50 1.178
408.60 1.149
408.70 1.119
408.80 1.088
408.90 1.056
409.00 1.024
409.10 0.9892
409.20 0.9541
409.30 0.9181
409.40 0.8804
409.50 0.842
409.60 0.8029
409.70 0.7638
409.80 0.7244
409.90 0.6848
410.00 0.6364
410.10 0.5776
410.20 0.5083
410.30 0.5964
410.40 0.662
410.50 0.7051
410.60 0.7436
410.70 0.782
410.80 0.8204
410.90 0.8581
411.00 0.895
411.10 0.9311
411.20 0.9652
411.30 0.9985
411.40 1.031
411.50 1.062
411.60 1.091
411.70 1.12
411.80 1.148
411.90 1.175
412.00 1.201
412.10 1.226
412.20 1.251
412.30 1.275
412.40 1.297
412.50 1.319
412.60 1.341
412.70 1.361
412.80 1.38
412.90 1.399
413.00 1.417
413.10 1.433
413.20 1.45
413.30 1.464
413.40 1.479
413.50 1.492
413.60 1.505
413.70 1.517
413.80 1.528
413.90 1.539
414.00 1.549
414.10 1.559
414.20 1.568
414.30 1.576
414.40 1.584
414.50 1.592
414.60 1.599
414.70 1.606
414.80 1.612
414.90 1.618
415.00 1.624
415.10 1.629
415.20 1.634
415.30 1.639
415.40 1.643
415.50 1.647
415.60 1.651
415.70 1.655
415.80 1.658
415.90 1.661
416.00 1.664
416.10 1.667
416.20 1.67
416.30 1.672
416.40 1.674
416.50 1.676
416.60 1.678
416.70 1.68
416.80 1.682
416.90 1.683
417.00 1.685
417.10 1.686
417.20 1.687
417.30 1.688
417.40 1.689
417.50 1.69
417.60 1.691
417.70 1.691
417.80 1.692
417.90 1.693
418.00 1.693
418.10 1.693
418.20 1.694
418.30 1.694
418.40 1.694
418.50 1.694
418.60 1.694
418.70 1.694
418.80 1.694
418.90 1.694
419.00 1.694
419.10 1.693
419.20 1.693
419.30 1.693
419.40 1.693
419.50 1.692
419.60 1.692
419.70 1.691
419.80 1.691
419.90 1.69
420.00 1.69
420.10 1.689
420.20 1.688
420.30 1.688
420.40 1.687
420.50 1.686
420.60 1.685
420.70 1.685
420.80 1.684
420.90 1.683
421.00 1.682
421.10 1.681
421.20 1.68
421.30 1.679
421.40 1.678
421.50 1.677
421.60 1.676
421.70 1.675
421.80 1.674
421.90 1.673
422.00 1.672
422.10 1.671
422.20 1.669
422.30 1.668
422.40 1.667
422.50 1.666
422.60 1.664
422.70 1.663
422.80 1.662
422.90 1.66
423.00 1.659
423.10 1.658
423.20 1.656
423.30 1.655
423.40 1.653
423.50 1.652
423.60 1.65
423.70 1.649
423.80 1.647
423.90 1.645
424.00 1.644
424.10 1.642
424.20 1.64
424.30 1.638
424.40 1.637
424.50 1.635
424.60 1.633
424.70 1.631
424.80 1.629
424.90 1.627
425.00 1.625
425.10 1.623
425.20 1.62
425.30 1.618
425.40 1.616
425.50 1.614
425.60 1.611
425.70 1.609
425.80 1.607
425.90 1.604
426.00 1.601
426.10 1.599
426.20 1.596
426.30 1.593
426.40 1.59
426.50 1.587
426.60 1.584
426.70 1.581
426.80 1.577
426.90 1.574
427.00 1.571
427.10 1.567
427.20 1.563
427.30 1.56
427.40 1.556
427.50 1.552
427.60 1.548
427.70 1.544
427.80 1.539
427.90 1.535
428.00 1.53
428.10 1.525
428.20 1.521
428.30 1.515
428.40 1.51
428.50 1.505
428.60 1.499
428.70 1.493
428.80 1.487
428.90 1.481
429.00 1.474
429.10 1.467
429.20 1.46
429.30 1.453
429.40 1.445
429.50 1.438
429.60 1.429
429.70 1.421
429.80 1.412
429.90 1.403
430.00 1.394
430.10 1.384
430.20 1.374
430.30 1.363
430.40 1.352
430.50 1.341
430.60 1.329
430.70 1.317
430.80 1.304
430.90 1.292
431.00 1.278
431.10 1.264
431.20 1.25
431.30 1.236
431.40 1.22
431.50 1.205
431.60 1.188
431.70 1.171
431.80 1.153
431.90 1.134
432.00 1.113
432.10 1.093
432.20 1.07
432.30 1.047
432.40 1.022
432.50 0.9957
432.60 0.9684
432.70 0.9402
432.80 0.9115
432.90 0.8832
433.00 0.8552
433.10 0.8281
433.20 0.8005
433.30 0.7724
433.40 0.7421
433.50 0.711
433.60 0.6793
433.70 0.6468
433.80 0.611
433.90 0.5718
434.00 0.466
434.10 0.4671
434.20 0.575
434.30 0.613
434.40 0.6478
434.50 0.6796
434.60 0.7106
434.70 0.7408
434.80 0.7702
434.90 0.7973
435.00 0.8239
435.10 0.85
435.20 0.8769
435.30 0.904
435.40 0.9314
435.50 0.9581
435.60 0.9838
435.70 1.009
435.80 1.031
435.90 1.053
436.00 1.074
436.10 1.093
436.20 1.111
436.30 1.129
436.40 1.145
436.50 1.16
436.60 1.175
436.70 1.188
436.80 1.201
436.90 1.214
437.00 1.226
437.10 1.237
437.20 1.249
437.30 1.259
437.40 1.269
437.50 1.279
437.60 1.289
437.70 1.298
437.80 1.306
437.90 1.315
438.00 1.322
438.10 1.33
438.20 1.337
438.30 1.344
438.40 1.35
438.50 1.356
438.60 1.362
438.70 1.367
438.80 1.372
438.90 1.377
439.00 1.382
439.10 1.386
439.20 1.39
439.30 1.394
439.40 1.398
439.50 1.401
439.60 1.405
439.70 1.408
439.80 1.41
439.90 1.413
440.00 1.416
440.10 1.418
440.20 1.42
440.30 1.422
440.40 1.424
440.50 1.426
440.60 1.428
440.70 1.43
440.80 1.431
440.90 1.432
441.00 1.434
441.10 1.435
441.20 1.436
441.30 1.437
441.40 1.438
441.50 1.439
441.60 1.439
441.70 1.44
441.80 1.441
441.90 1.441
442.00 1.442
442.10 1.442
442.20 1.442
442.30 1.443
442.40 1.443
442.50 1.443
442.60 1.443
442.70 1.443
442.80 1.444
442.90 1.444
443.00 1.443
443.10 1.443
443.20 1.443
443.30 1.443
443.40 1.443
443.50 1.443
443.60 1.443
443.70 1.442
443.80 1.442
443.90 1.442
444.00 1.441
444.10 1.441
444.20 1.441
444.30 1.44
444.40 1.44
444.50 1.44
444.60 1.439
444.70 1.439
444.80 1.438
444.90 1.438
445.00 1.437
445.10 1.436
445.20 1.436
445.30 1.435
445.40 1.435
445.50 1.434
445.60 1.434
445.70 1.433
445.80 1.432
445.90 1.432
446.00 1.431
446.10 1.43
446.20 1.43
446.30 1.429
446.40 1.428
446.50 1.427
446.60 1.427
446.70 1.426
446.80 1.425
446.90 1.425
447.00 1.424
447.10 1.423
447.20 1.422
447.30 1.422
447.40 1.421
447.50 1.42
447.60 1.419
447.70 1.419
447.80 1.418
447.90 1.417
448.00 1.416
448.10 1.415
448.20 1.414
448.30 1.414
448.40 1.413
448.50 1.412
448.60 1.411
448.70 1.41
448.80 1.41
448.90 1.409
449.00 1.408
449.10 1.407
449.20 1.406
449.30 1.406
449.40 1.405
449.50 1.404
449.60 1.403
449.70 1.402
449.80 1.401
449.90 1.4
450.00 1.4
450.10 1.399
450.20 1.398
450.30 1.397
450.40 1.396
450.50 1.395
450.60 1.394
450.70 1.394
450.80 1.393
450.90 1.392
451.00 1.391
451.10 1.39
451.20 1.389
451.30 1.388
451.40 1.387
451.50 1.387
451.60 1.386
451.70 1.385
451.80 1.384
451.90 1.383
452.00 1.382
452.10 1.381
452.20 1.38
452.30 1.38
452.40 1.379
452.50 1.378
452.60 1.377
452.70 1.376
452.80 1.375
452.90 1.374
453.00 1.373
453.10 1.372
453.20 1.372
453.30 1.371
453.40 1.37
453.50 1.369
453.60 1.368
453.70 1.367
453.80 1.366
453.90 1.365
454.00 1.364
454.10 1.363
454.20 1.363
454.30 1.362
454.40 1.361
454.50 1.36
454.60 1.359
454.70 1.358
454.80 1.357
454.90 1.356
455.00 1.355
455.10 1.354
455.20 1.354
455.30 1.353
455.40 1.352
455.50 1.351
455.60 1.35
455.70 1.349
455.80 1.348
455.90 1.347
456.00 1.346
456.10 1.345
456.20 1.344
456.30 1.343
456.40 1.343
456.50 1.342
456.60 1.341
456.70 1.34
456.80 1.339
456.90 1.338
457.00 1.337
457.10 1.336
457.20 1.335
457.30 1.335
457.40 1.334
457.50 1.333
457.60 1.332
457.70 1.331
457.80 1.33
457.90 1.329
458.00 1.328
458.10 1.327
458.20 1.326
458.30 1.326
458.40 1.325
458.50 1.324
458.60 1.323
458.70 1.322
458.80 1.321
458.90 1.32
459.00 1.319
459.10 1.318
459.20 1.317
459.30 1.316
459.40 1.316
459.50 1.315
459.60 1.314
459.70 1.313
459.80 1.312
459.90 1.311
460.00 1.31
460.10 1.309
460.20 1.308
460.30 1.307
460.40 1.306
460.50 1.306
460.60 1.305
460.70 1.304
460.80 1.303
460.90 1.302
461.00 1.301
461.10 1.3
461.20 1.299
461.30 1.298
461.40 1.297
461.50 1.297
461.60 1.296
461.70 1.295
461.80 1.294
461.90 1.293
462.00 1.292
462.10 1.291
462.20 1.29
462.30 1.289
462.40 1.288
462.50 1.287
462.60 1.287
462.70 1.286
462.80 1.285
462.90 1.284
463.00 1.283
463.10 1.282
463.20 1.281
463.30 1.28
463.40 1.279
463.50 1.278
463.60 1.277
463.70 1.277
463.80 1.276
463.90 1.275
464.00 1.274
464.10 1.273
464.20 1.272
464.30 1.271
464.40 1.27
464.50 1.269
464.60 1.268
464.70 1.267
464.80 1.267
464.90 1.266
465.00 1.265
465.10 1.264
465.20 1.263
465.30 1.262
465.40 1.261
465.50 1.26
465.60 1.259
465.70 1.258
465.80 1.257
465.90 1.257
466.00 1.256
466.10 1.255
466.20 1.254
466.30 1.253
466.40 1.252
466.50 1.251
466.60 1.25
466.70 1.249
466.80 1.248
466.90 1.247
467.00 1.246
467.10 1.245
467.20 1.245
467.30 1.244
467.40 1.243
467.50 1.242
467.60 1.241
467.70 1.24
467.80 1.239
467.90 1.238
468.00 1.237
468.10 1.236
468.20 1.235
468.30 1.234
468.40 1.233
468.50 1.232
468.60 1.231
468.70 1.231
468.80 1.23
468.90 1.229
469.00 1.228
469.10 1.227
469.20 1.226
469.30 1.225
469.40 1.224
469.50 1.223
469.60 1.222
469.70 1.221
469.80 1.22
469.90 1.219
470.00 1.218
470.10 1.217
470.20 1.216
470.30 1.215
470.40 1.214
470.50 1.213
470.60 1.212
470.70 1.211
470.80 1.21
470.90 1.209
471.00 1.208
471.10 1.207
471.20 1.206
471.30 1.205
471.40 1.204
471.50 1.203
471.60 1.202
471.70 1.201
471.80 1.2
471.90 1.199
472.00 1.198
472.10 1.197
472.20 1.196
472.30 1.195
472.40 1.194
472.50 1.193
472.60 1.192
472.70 1.191
472.80 1.19
472.90 1.189
473.00 1.188
473.10 1.187
473.20 1.185
473.30 1.184
473.40 1.183
473.50 1.182
473.60 1.181
473.70 1.18
473.80 1.179
473.90 1.178
474.00 1.176
474.10 1.175
474.20 1.174
474.30 1.173
474.40 1.172
474.50 1.17
474.60 1.169
474.70 1.168
474.80 1.167
474.90 1.165
475.00 1.164
475.10 1.163
475.20 1.162
475.30 1.16
475.40 1.159
475.50 1.158
475.60 1.156
475.70 1.155
475.80 1.154
475.90 1.152
476.00 1.151
476.10 1.149
476.20 1.148
476.30 1.146
476.40 1.145
476.50 1.143
476.60 1.142
476.70 1.14
476.80 1.139
476.90 1.137
477.00 1.136
477.10 1.134
477.20 1.132
477.30 1.13
477.40 1.129
477.50 1.127
477.60 1.125
477.70 1.123
477.80 1.121
477.90 1.119
478.00 1.117
478.10 1.116
478.20 1.113
478.30 1.111
478.40 1.109
478.50 1.107
478.60 1.104
478.70 1.102
478.80 1.1
478.90 1.097
479.00 1.095
479.10 1.093
479.20 1.09
479.30 1.087
479.40 1.084
479.50 1.081
479.60 1.078
479.70 1.075
479.80 1.072
479.90 1.069
480.00 1.066
480.10 1.063
480.20 1.06
480.30 1.056
480.40 1.052
480.50 1.048
480.60 1.044
480.70 1.04
480.80 1.036
480.90 1.032
481.00 1.028
481.10 1.024
481.20 1.019
481.30 1.013
481.40 1.007
481.50 1.002
481.60 0.9961
481.70 0.9905
481.80 0.9848
481.90 0.9792
482.00 0.9736
482.10 0.968
482.20 0.9608
482.30 0.9528
482.40 0.9449
482.50 0.937
482.60 0.929
482.70 0.9211
482.80 0.9132
482.90 0.9053
483.00 0.8974
483.10 0.8894
483.20 0.8794
483.30 0.8684
483.40 0.8574
483.50 0.8464
483.60 0.8354
483.70 0.8244
483.80 0.8134
483.90 0.8024
484.00 0.7914
484.10 0.7805
484.20 0.7679
484.30 0.7545
484.40 0.7411
484.50 0.7277
484.60 0.7144
484.70 0.6998
484.80 0.6848
484.90 0.6697
485.00 0.6547
485.10 0.6396
485.20 0.6238
485.30 0.6077
485.40 0.5906
485.50 0.573
485.60 0.5544
485.70 0.5353
485.80 0.5138
485.90 0.4912
486.00 0.462
486.10 0.3552
486.20 0.4162
486.30 0.4734
486.40 0.4978
486.50 0.52
486.60 0.5398
486.70 0.5585
486.80 0.576
486.90 0.5929
487.00 0.6089
487.10 0.6244
487.20 0.639
487.30 0.6533
487.40 0.6675
487.50 0.6818
487.60 0.696
487.70 0.709
487.80 0.7214
487.90 0.7338
488.00 0.7462
488.10 0.7586
488.20 0.7692
488.30 0.779
488.40 0.7888
488.50 0.7985
488.60 0.8083
488.70 0.8181
488.80 0.8278
488.90 0.8376
489.00 0.8473
489.10 0.857
489.20 0.8646
489.30 0.8711
489.40 0.8775
489.50 0.884
489.60 0.8905
489.70 0.897
489.80 0.9034
489.90 0.9099
490.00 0.9164
490.10 0.9228
490.20 0.9276
490.30 0.9317
490.40 0.9358
490.50 0.9398
490.60 0.9439
490.70 0.9479
490.80 0.952
490.90 0.956
491.00 0.96
491.10 0.9641
491.20 0.967
491.30 0.9694
491.40 0.9718
491.50 0.9742
491.60 0.9766
491.70 0.979
491.80 0.9814
491.90 0.9837
492.00 0.9861
492.10 0.9885
492.20 0.9902
492.30 0.9915
492.40 0.9929
492.50 0.9943
492.60 0.9956
492.70 0.997
492.80 0.9983
492.90 0.9997
493.00 1.001
493.10 1.002
493.20 1.003
493.30 1.004
493.40 1.005
493.50 1.005
493.60 1.006
493.70 1.007
493.80 1.007
493.90 1.008
494.00 1.009
494.10 1.01
494.20 1.01
494.30 1.01
494.40 1.011
494.50 1.011
494.60 1.011
494.70 1.011
494.80 1.012
494.90 1.012
495.00 1.012
495.10 1.012
495.20 1.013
495.30 1.013
495.40 1.013
495.50 1.013
495.60 1.013
495.70 1.012
495.80 1.012
495.90 1.012
496.00 1.012
496.10 1.012
496.20 1.012
496.30 1.012
496.40 1.012
496.50 1.012
496.60 1.012
496.70 1.011
496.80 1.011
496.90 1.011
497.00 1.011
497.10 1.011
497.20 1.01
497.30 1.01
497.40 1.01
497.50 1.01
497.60 1.009
497.70 1.009
497.80 1.009
497.90 1.008
498.00 1.008
498.10 1.008
498.20 1.007
498.30 1.007
498.40 1.007
498.50 1.006
498.60 1.006
498.70 1.005
498.80 1.005
498.90 1.005
499.00 1.004
499.10 1.004
499.20 1.004
499.30 1.003
499.40 1.003
499.50 1.002
499.60 1.002
499.70 1.001
499.80 1.001
499.90 1
500.00 1
500.10 0.9996
500.20 0.9991
500.30 0.9986
500.40 0.9981
500.50 0.9976
500.60 0.9972
500.70 0.9967
500.80 0.9962
500.90 0.9957
501.00 0.9952
501.10 0.9947
501.20 0.9942
501.30 0.9937
501.40 0.9932
501.50 0.9927
501.60 0.9922
501.70 0.9917
501.80 0.9912
501.90 0.9907
502.00 0.9901
502.10 0.9896
502.20 0.9891
502.30 0.9886
502.40 0.988
502.50 0.9875
502.60 0.987
502.70 0.9865
502.80 0.9859
502.90 0.9854
503.00 0.9849
503.10 0.9843
503.20 0.9838
503.30 0.9832
503.40 0.9827
503.50 0.9822
503.60 0.9816
503.70 0.9811
503.80 0.9805
503.90 0.98
504.00 0.9794
504.10 0.9789
504.20 0.9783
504.30 0.9778
504.40 0.9772
504.50 0.9767
504.60 0.9761
504.70 0.9756
504.80 0.975
504.90 0.9744
505.00 0.9739
505.10 0.9733
505.20 0.9728
505.30 0.9722
505.40 0.9716
505.50 0.9711
505.60 0.9705
505.70 0.97
505.80 0.9694
505.90 0.9688
506.00 0.9683
506.10 0.9677
506.20 0.9671
506.30 0.9666
506.40 0.966
506.50 0.9654
506.60 0.9649
506.70 0.9643
506.80 0.9637
506.90 0.9632
507.00 0.9626
507.10 0.962
507.20 0.9615
507.30 0.9609
507.40 0.9603
507.50 0.9598
507.60 0.9592
507.70 0.9586
507.80 0.9581
507.90 0.9575
508.00 0.9569
508.10 0.9563
508.20 0.9558
508.30 0.9552
508.40 0.9546
508.50 0.9541
508.60 0.9535
508.70 0.9529
508.80 0.9524
508.90 0.9518
509.00 0.9512
509.10 0.9506
509.20 0.9501
509.30 0.9495
509.40 0.9489
509.50 0.9484
509.60 0.9478
509.70 0.9472
509.80 0.9466
509.90 0.9461
510.00 0.9455
510.10 0.9449
510.20 0.9444
510.30 0.9438
510.40 0.9432
510.50 0.9426
510.60 0.9421
510.70 0.9415
510.80 0.9409
510.90 0.9404
511.00 0.9398
511.10 0.9392
511.20 0.9387
511.30 0.9381
511.40 0.9375
511.50 0.9369
511.60 0.9364
511.70 0.9358
511.80 0.9352
511.90 0.9347
512.00 0.9341
512.10 0.9335
512.20 0.933
512.30 0.9324
512.40 0.9318
512.50 0.9313
512.60 0.9307
512.70 0.9301
512.80 0.9296
512.90 0.929
513.00 0.9284
513.10 0.9279
513.20 0.9273
513.30 0.9267
513.40 0.9262
513.50 0.9256
513.60 0.925
513.70 0.9245
513.80 0.9239
513.90 0.9233
514.00 0.9228
514.10 0.9222
514.20 0.9217
514.30 0.9211
514.40 0.9205
514.50 0.92
514.60 0.9194
514.70 0.9188
514.80 0.9183
514.90 0.9177
515.00 0.9172
515.10 0.9166
515.20 0.916
515.30 0.9155
515.40 0.9149
515.50 0.9144
515.60 0.9138
515.70 0.9132
515.80 0.9127
515.90 0.9121
516.00 0.9116
516.10 0.911
516.20 0.9104
516.30 0.9099
516.40 0.9093
516.50 0.9088
516.60 0.9082
516.70 0.9077
516.80 0.9071
516.90 0.9066
517.00 0.906
517.10 0.9054
517.20 0.9049
517.30 0.9043
517.40 0.9038
517.50 0.9032
517.60 0.9027
517.70 0.9021
517.80 0.9016
517.90 0.901
518.00 0.9005
518.10 0.8999
518.20 0.8994
518.30 0.8988
518.40 0.8983
518.50 0.8977
518.60 0.8972
518.70 0.8966
518.80 0.8961
518.90 0.8955
519.00 0.895
519.10 0.8944
519.20 0.8939
519.30 0.8933
519.40 0.8928
519.50 0.8922
519.60 0.8917
519.70 0.8912
519.80 0.8906
519.90 0.8901
520.00 0.8895
520.10 0.889
520.20 0.8884
520.30 0.8879
520.40 0.8873
520.50 0.8868
520.60 0.8863
520.70 0.8857
520.80 0.8852
520.90 0.8846
521.00 0.8841
521.10 0.8835
521.20 0.883
521.30 0.8825
521.40 0.8819
521.50 0.8814
521.60 0.8808
521.70 0.8803
521.80 0.8798
521.90 0.8792
522.00 0.8787
522.10 0.8782
522.20 0.8776
522.30 0.8771
522.40 0.8765
522.50 0.876
522.60 0.8755
522.70 0.8749
522.80 0.8744
522.90 0.8739
523.00 0.8733
523.10 0.8728
523.20 0.8723
523.30 0.8717
523.40 0.8712
523.50 0.8707
523.60 0.8701
523.70 0.8696
523.80 0.8691
523.90 0.8685
524.00 0.868
524.10 0.8675
524.20 0.867
524.30 0.8664
524.40 0.8659
524.50 0.8654
524.60 0.8648
524.70 0.8643
524.80 0.8638
524.90 0.8633
525.00 0.8627
525.10 0.8622
525.20 0.8617
525.30 0.8612
525.40 0.8606
525.50 0.8601
525.60 0.8596
525.70 0.8591
525.80 0.8585
525.90 0.858
526.00 0.8575
526.10 0.857
526.20 0.8564
526.30 0.8559
526.40 0.8554
526.50 0.8549
526.60 0.8544
526.70 0.8538
526.80 0.8533
526.90 0.8528
527.00 0.8523
527.10 0.8518
527.20 0.8512
527.30 0.8507
527.40 0.8502
527.50 0.8497
527.60 0.8492
527.70 0.8487
527.80 0.8481
527.90 0.8476
528.00 0.8471
528.10 0.8466
528.20 0.8461
528.30 0.8456
528.40 0.8451
528.50 0.8445
528.60 0.844
528.70 0.8435
528.80 0.843
528.90 0.8425
529.00 0.842
529.10 0.8415
529.20 0.841
529.30 0.8404
529.40 0.8399
529.50 0.8394
529.60 0.8389
529.70 0.8384
529.80 0.8379
529.90 0.8374
530.00 0.8369
530.10 0.8364
530.20 0.8359
530.30 0.8354
530.40 0.8349
530.50 0.8343
530.60 0.8338
530.70 0.8333
530.80 0.8328
530.90 0.8323
531.00 0.8318
531.10 0.8313
531.20 0.8308
531.30 0.8303
531.40 0.8298
531.50 0.8293
531.60 0.8288
531.70 0.8283
531.80 0.8278
531.90 0.8273
532.00 0.8268
532.10 0.8263
532.20 0.8258
532.30 0.8253
532.40 0.8248
532.50 0.8243
532.60 0.8238
532.70 0.8233
532.80 0.8228
532.90 0.8223
533.00 0.8218
533.10 0.8213
533.20 0.8208
533.30 0.8203
533.40 0.8198
533.50 0.8193
533.60 0.8188
533.70 0.8183
533.80 0.8179
533.90 0.8174
534.00 0.8169
534.10 0.8164
534.20 0.8159
534.30 0.8154
534.40 0.8149
534.50 0.8144
534.60 0.8139
534.70 0.8134
534.80 0.8129
534.90 0.8124
535.00 0.812
535.10 0.8115
535.20 0.811
535.30 0.8105
535.40 0.81
535.50 0.8095
535.60 0.809
535.70 0.8085
535.80 0.808
535.90 0.8076
536.00 0.8071
536.10 0.8066
536.20 0.8061
536.30 0.8056
536.40 0.8051
536.50 0.8046
536.60 0.8042
536.70 0.8037
536.80 0.8032
536.90 0.8027
537.00 0.8022
537.10 0.8017
537.20 0.8013
537.30 0.8008
537.40 0.8003
537.50 0.7998
537.60 0.7993
537.70 0.7989
537.80 0.7984
537.90 0.7979
538.00 0.7974
538.10 0.7969
538.20 0.7965
538.30 0.796
538.40 0.7955
538.50 0.795
538.60 0.7946
538.70 0.7941
538.80 0.7936
538.90 0.7931
539.00 0.7927
539.10 0.7922
539.20 0.7917
539.30 0.7912
539.40 0.7908
539.50 0.7903
539.60 0.7898
539.70 0.7893
539.80 0.7889
539.90 0.7884
540.00 0.7879
540.10 0.7875
540.20 0.787
540.30 0.7865
540.40 0.786
540.50 0.7856
540.60 0.7851
540.70 0.7846
540.80 0.7842
540.90 0.7837
541.00 0.7832
541.10 0.7828
541.20 0.7823
541.30 0.7818
541.40 0.7814
541.50 0.7809
541.60 0.7804
541.70 0.78
541.80 0.7795
541.90 0.779
542.00 0.7786
542.10 0.7781
542.20 0.7776
542.30 0.7772
542.40 0.7767
542.50 0.7762
542.60 0.7758
542.70 0.7753
542.80 0.7749
542.90 0.7744
543.00 0.7739
543.10 0.7735
543.20 0.773
543.30 0.7725
543.40 0.7721
543.50 0.7716
543.60 0.7712
543.70 0.7707
543.80 0.7703
543.90 0.7698
544.00 0.7693
544.10 0.7689
544.20 0.7684
544.30 0.768
544.40 0.7675
544.50 0.7671
544.60 0.7666
544.70 0.7661
544.80 0.7657
544.90 0.7652
545.00 0.7648
545.10 0.7643
545.20 0.7639
545.30 0.7634
545.40 0.763
545.50 0.7625
545.60 0.7621
545.70 0.7616
545.80 0.7611
545.90 0.7607
546.00 0.7602
546.10 0.7598
546.20 0.7593
546.30 0.7589
546.40 0.7585
546.50 0.758
546.60 0.7576
546.70 0.7572
546.80 0.7567
546.90 0.7563
547.00 0.7559
547.10 0.7554
547.20 0.755
547.30 0.7545
547.40 0.7541
547.50 0.7536
547.60 0.7532
547.70 0.7527
547.80 0.7523
547.90 0.7519
548.00 0.7514
548.10 0.751
548.20 0.7505
548.30 0.7501
548.40 0.7496
548.50 0.7492
548.60 0.7487
548.70 0.7483
548.80 0.7479
548.90 0.7474
549.00 0.747
549.10 0.7465
549.20 0.7461
549.30 0.7457
549.40 0.7452
549.50 0.7448
549.60 0.7443
549.70 0.7439
549.80 0.7435
549.90 0.743
550.00 0.7426
550.10 0.7421
550.20 0.7417
550.30 0.7413
550.40 0.7408
550.50 0.7404
550.60 0.7399
550.70 0.7395
550.80 0.7391
550.90 0.7386
551.00 0.7382
551.10 0.7378
551.20 0.7373
551.30 0.7369
551.40 0.7365
551.50 0.736
551.60 0.7356
551.70 0.7352
551.80 0.7347
551.90 0.7343
552.00 0.7339
552.10 0.7334
552.20 0.733
552.30 0.7326
552.40 0.7321
552.50 0.7317
552.60 0.7313
552.70 0.7309
552.80 0.7304
552.90 0.73
553.00 0.7296
553.10 0.7291
553.20 0.7287
553.30 0.7283
553.40 0.7279
553.50 0.7274
553.60 0.727
553.70 0.7266
553.80 0.7261
553.90 0.7257
554.00 0.7253
554.10 0.7249
554.20 0.7244
554.30 0.724
554.40 0.7236
554.50 0.7232
554.60 0.7227
554.70 0.7223
554.80 0.7219
554.90 0.7215
555.00 0.721
555.10 0.7206
555.20 0.7202
555.30 0.7198
555.40 0.7194
555.50 0.7189
555.60 0.7185
555.70 0.7181
555.80 0.7177
555.90 0.7173
556.00 0.7168
556.10 0.7164
556.20 0.716
556.30 0.7156
556.40 0.7152
556.50 0.7147
556.60 0.7143
556.70 0.7139
556.80 0.7135
556.90 0.7131
557.00 0.7127
557.10 0.7122
557.20 0.7118
557.30 0.7114
557.40 0.711
557.50 0.7106
557.60 0.7102
557.70 0.7098
557.80 0.7093
557.90 0.7089
558.00 0.7085
558.10 0.7081
558.20 0.7077
558.30 0.7073
558.40 0.7069
558.50 0.7065
558.60 0.706
558.70 0.7056
558.80 0.7052
558.90 0.7048
559.00 0.7044
559.10 0.704
559.20 0.7036
559.30 0.7032
559.40 0.7028
559.50 0.7024
559.60 0.7019
559.70 0.7015
559.80 0.7011
559.90 0.7007
560.00 0.7003
560.10 0.6999
560.20 0.6995
560.30 0.6991
560.40 0.6987
560.50 0.6983
560.60 0.6979
560.70 0.6975
560.80 0.6971
560.90 0.6967
561.00 0.6963
561.10 0.6959
561.20 0.6954
561.30 0.695
561.40 0.6946
561.50 0.6942
561.60 0.6938
561.70 0.6934
561.80 0.693
561.90 0.6926
562.00 0.6922
562.10 0.6918
562.20 0.6914
562.30 0.691
562.40 0.6906
562.50 0.6902
562.60 0.6898
562.70 0.6894
562.80 0.689
562.90 0.6886
563.00 0.6882
563.10 0.6878
563.20 0.6874
563.30 0.687
563.40 0.6866
563.50 0.6862
563.60 0.6858
563.70 0.6854
563.80 0.6851
563.90 0.6847
564.00 0.6843
564.10 0.6839
564.20 0.6835
564.30 0.6831
564.40 0.6827
564.50 0.6823
564.60 0.6819
564.70 0.6815
564.80 0.6811
564.90 0.6807
565.00 0.6803
565.10 0.6799
565.20 0.6795
565.30 0.6791
565.40 0.6788
565.50 0.6784
565.60 0.678
565.70 0.6776
565.80 0.6772
565.90 0.6768
566.00 0.6764
566.10 0.676
566.20 0.6756
566.30 0.6752
566.40 0.6749
566.50 0.6745
566.60 0.6741
566.70 0.6737
566.80 0.6733
566.90 0.6729
567.00 0.6725
567.10 0.6721
567.20 0.6718
567.30 0.6714
567.40 0.671
567.50 0.6706
567.60 0.6702
567.70 0.6698
567.80 0.6694
567.90 0.6691
568.00 0.6687
568.10 0.6683
568.20 0.6679
568.30 0.6675
568.40 0.6671
568.50 0.6668
568.60 0.6664
568.70 0.666
568.80 0.6656
568.90 0.6652
569.00 0.6649
569.10 0.6645
569.20 0.6641
569.30 0.6637
569.40 0.6633
569.50 0.663
569.60 0.6626
569.70 0.6622
569.80 0.6618
569.90 0.6614
570.00 0.6611
570.10 0.6607
570.20 0.6603
570.30 0.6599
570.40 0.6595
570.50 0.6592
570.60 0.6588
570.70 0.6584
570.80 0.658
570.90 0.6577
571.00 0.6573
571.10 0.6569
571.20 0.6565
571.30 0.6562
571.40 0.6558
571.50 0.6554
571.60 0.655
571.70 0.6547
571.80 0.6543
571.90 0.6539
572.00 0.6535
572.10 0.6532
572.20 0.6528
572.30 0.6524
572.40 0.6521
572.50 0.6517
572.60 0.6513
572.70 0.6509
572.80 0.6506
572.90 0.6502
573.00 0.6498
573.10 0.6495
573.20 0.6491
573.30 0.6487
573.40 0.6483
573.50 0.648
573.60 0.6476
573.70 0.6472
573.80 0.6469
573.90 0.6465
574.00 0.6461
574.10 0.6458
574.20 0.6454
574.30 0.645
574.40 0.6447
574.50 0.6443
574.60 0.6439
574.70 0.6436
574.80 0.6432
574.90 0.6428
575.00 0.6425
575.10 0.6421
575.20 0.6417
575.30 0.6414
575.40 0.641
575.50 0.6407
575.60 0.6403
575.70 0.6399
575.80 0.6396
575.90 0.6392
576.00 0.6388
576.10 0.6385
576.20 0.6381
576.30 0.6377
576.40 0.6374
576.50 0.637
576.60 0.6367
576.70 0.6363
576.80 0.6359
576.90 0.6356
577.00 0.6352
577.10 0.6349
577.20 0.6345
577.30 0.6341
577.40 0.6338
577.50 0.6334
577.60 0.6331
577.70 0.6327
577.80 0.6324
577.90 0.632
578.00 0.6316
578.10 0.6313
578.20 0.6309
578.30 0.6306
578.40 0.6302
578.50 0.6299
578.60 0.6295
578.70 0.6291
578.80 0.6288
578.90 0.6284
579.00 0.6281
579.10 0.6277
579.20 0.6274
579.30 0.627
579.40 0.6267
579.50 0.6263
579.60 0.626
579.70 0.6256
579.80 0.6252
579.90 0.6249
580.00 0.6245
580.10 0.6242
580.20 0.6238
580.30 0.6235
580.40 0.6231
580.50 0.6228
580.60 0.6224
580.70 0.6221
580.80 0.6217
580.90 0.6214
581.00 0.621
581.10 0.6207
581.20 0.6203
581.30 0.62
581.40 0.6196
581.50 0.6193
581.60 0.6189
581.70 0.6186
581.80 0.6182
581.90 0.6179
582.00 0.6175
582.10 0.6172
582.20 0.6169
582.30 0.6165
582.40 0.6162
582.50 0.6158
582.60 0.6155
582.70 0.6151
582.80 0.6148
582.90 0.6144
583.00 0.6141
583.10 0.6137
583.20 0.6134
583.30 0.6131
583.40 0.6127
583.50 0.6124
583.60 0.612
583.70 0.6117
583.80 0.6113
583.90 0.611
584.00 0.6107
584.10 0.6103
584.20 0.61
584.30 0.6096
584.40 0.6093
584.50 0.6089
584.60 0.6086
584.70 0.6083
584.80 0.6079
584.90 0.6076
585.00 0.6072
585.10 0.6069
585.20 0.6066
585.30 0.6062
585.40 0.6059
585.50 0.6055
585.60 0.6052
585.70 0.6049
585.80 0.6045
585.90 0.6042
586.00 0.6039
586.10 0.6035
586.20 0.6032
586.30 0.6028
586.40 0.6025
586.50 0.6022
586.60 0.6018
586.70 0.6015
586.80 0.6012
586.90 0.6008
587.00 0.6005
587.10 0.6002
587.20 0.5998
587.30 0.5995
587.40 0.5992
587.50 0.5988
587.60 0.5985
587.70 0.5982
587.80 0.5978
587.90 0.5975
588.00 0.5972
588.10 0.5968
588.20 0.5965
588.30 0.5962
588.40 0.5958
588.50 0.5955
588.60 0.5952
588.70 0.5948
588.80 0.5945
588.90 0.5942
589.00 0.5938
589.10 0.5935
589.20 0.5932
589.30 0.5928
589.40 0.5925
589.50 0.5922
589.60 0.5919
589.70 0.5915
589.80 0.5912
589.90 0.5909
590.00 0.5905
590.10 0.5902
590.20 0.5899
590.30 0.5896
590.40 0.5892
590.50 0.5889
590.60 0.5886
590.70 0.5883
590.80 0.5879
590.90 0.5876
591.00 0.5873
591.10 0.5869
591.20 0.5866
591.30 0.5863
591.40 0.586
591.50 0.5856
591.60 0.5853
591.70 0.585
591.80 0.5847
591.90 0.5843
592.00 0.584
592.10 0.5837
592.20 0.5834
592.30 0.5831
592.40 0.5827
592.50 0.5824
592.60 0.5821
592.70 0.5818
592.80 0.5814
592.90 0.5811
593.00 0.5808
593.10 0.5805
593.20 0.5802
593.30 0.5798
593.40 0.5795
593.50 0.5792
593.60 0.5789
593.70 0.5786
593.80 0.5782
593.90 0.5779
594.00 0.5776
594.10 0.5773
594.20 0.577
594.30 0.5766
594.40 0.5763
594.50 0.576
594.60 0.5757
594.70 0.5754
594.80 0.5751
594.90 0.5747
595.00 0.5744
595.10 0.5741
595.20 0.5738
595.30 0.5735
595.40 0.5732
595.50 0.5728
595.60 0.5725
595.70 0.5722
595.80 0.5719
595.90 0.5716
596.00 0.5713
596.10 0.571
596.20 0.5706
596.30 0.5703
596.40 0.5699
596.50 0.5696
596.60 0.5693
596.70 0.5689
596.80 0.5686
596.90 0.5683
597.00 0.5679
597.10 0.5676
597.20 0.5673
597.30 0.567
597.40 0.5666
597.50 0.5663
597.60 0.566
597.70 0.5657
597.80 0.5654
597.90 0.5651
598.00 0.5648
598.10 0.5645
598.20 0.5642
598.30 0.5638
598.40 0.5635
598.50 0.5632
598.60 0.5629
598.70 0.5626
598.80 0.5623
598.90 0.562
599.00 0.5617
599.10 0.5614
599.20 0.5611
599.30 0.5607
599.40 0.5604
599.50 0.5601
599.60 0.5598
599.70 0.5595
599.80 0.5592
599.90 0.5589
600.00 0.5586
600.10 0.5583
600.20 0.558
600.30 0.5577
600.40 0.5574
600.50 0.5571
600.60 0.5568
600.70 0.5565
600.80 0.5561
600.90 0.5558
601.00 0.5555
601.10 0.5552
601.20 0.5549
601.30 0.5546
601.40 0.5543
601.50 0.554
601.60 0.5537
601.70 0.5534
601.80 0.5531
601.90 0.5528
602.00 0.5525
602.10 0.5522
602.20 0.5519
602.30 0.5516
602.40 0.5513
602.50 0.551
602.60 0.5507
602.70 0.5504
602.80 0.5501
602.90 0.5498
603.00 0.5495
603.10 0.5492
603.20 0.5489
603.30 0.5486
603.40 0.5483
603.50 0.548
603.60 0.5477
603.70 0.5474
603.80 0.5471
603.90 0.5468
604.00 0.5465
604.10 0.5462
604.20 0.5459
604.30 0.5456
604.40 0.5453
604.50 0.545
604.60 0.5447
604.70 0.5444
604.80 0.5441
604.90 0.5438
605.00 0.5435
605.10 0.5432
605.20 0.5429
605.30 0.5426
605.40 0.5423
605.50 0.542
605.60 0.5417
605.70 0.5414
605.80 0.5411
605.90 0.5409
606.00 0.5406
606.10 0.5403
606.20 0.54
606.30 0.5397
606.40 0.5394
606.50 0.5391
606.60 0.5388
606.70 0.5385
606.80 0.5382
606.90 0.5379
607.00 0.5376
607.10 0.5373
607.20 0.537
607.30 0.5367
607.40 0.5364
607.50 0.5362
607.60 0.5359
607.70 0.5356
607.80 0.5353
607.90 0.535
608.00 0.5347
608.10 0.5344
608.20 0.5341
608.30 0.5338
608.40 0.5335
608.50 0.5332
608.60 0.533
608.70 0.5327
608.80 0.5324
608.90 0.5321
609.00 0.5318
609.10 0.5315
609.20 0.5312
609.30 0.5309
609.40 0.5307
609.50 0.5304
609.60 0.5301
609.70 0.5298
609.80 0.5295
609.90 0.5292
610.00 0.5289
610.10 0.5286
610.20 0.5283
610.30 0.5281
610.40 0.5278
610.50 0.5275
610.60 0.5272
610.70 0.5269
610.80 0.5266
610.90 0.5263
611.00 0.5261
611.10 0.5258
611.20 0.5255
611.30 0.5252
611.40 0.5249
611.50 0.5246
611.60 0.5244
611.70 0.5241
611.80 0.5238
611.90 0.5235
612.00 0.5232
612.10 0.5229
612.20 0.5227
612.30 0.5224
612.40 0.5221
612.50 0.5218
612.60 0.5215
612.70 0.5212
612.80 0.521
612.90 0.5207
613.00 0.5204
613.10 0.5201
613.20 0.5198
613.30 0.5195
613.40 0.5193
613.50 0.519
613.60 0.5187
613.70 0.5184
613.80 0.5181
613.90 0.5179
614.00 0.5176
614.10 0.5173
614.20 0.517
614.30 0.5167
614.40 0.5165
614.50 0.5162
614.60 0.5159
614.70 0.5156
614.80 0.5153
614.90 0.5151
615.00 0.5148
615.10 0.5145
615.20 0.5142
615.30 0.514
615.40 0.5137
615.50 0.5134
615.60 0.5131
615.70 0.5128
615.80 0.5126
615.90 0.5123
616.00 0.512
616.10 0.5117
616.20 0.5115
616.30 0.5112
616.40 0.5109
616.50 0.5106
616.60 0.5104
616.70 0.5101
616.80 0.5098
616.90 0.5095
617.00 0.5093
617.10 0.509
617.20 0.5087
617.30 0.5084
617.40 0.5082
617.50 0.5079
617.60 0.5076
617.70 0.5073
617.80 0.5071
617.90 0.5068
618.00 0.5065
618.10 0.5062
618.20 0.506
618.30 0.5057
618.40 0.5054
618.50 0.5052
618.60 0.5049
618.70 0.5046
618.80 0.5043
618.90 0.5041
619.00 0.5038
619.10 0.5035
619.20 0.5033
619.30 0.503
619.40 0.5027
619.50 0.5024
619.60 0.5022
619.70 0.5019
619.80 0.5016
619.90 0.5014
620.00 0.5011
620.10 0.5008
620.20 0.5005
620.30 0.5003
620.40 0.5
620.50 0.4997
620.60 0.4995
620.70 0.4992
620.80 0.4989
620.90 0.4987
621.00 0.4984
621.10 0.4981
621.20 0.4978
621.30 0.4976
621.40 0.4973
621.50 0.497
621.60 0.4968
621.70 0.4965
621.80 0.4962
621.90 0.496
622.00 0.4957
622.10 0.4954
622.20 0.4952
622.30 0.4949
622.40 0.4946
622.50 0.4944
622.60 0.4941
622.70 0.4938
622.80 0.4936
622.90 0.4933
623.00 0.493
623.10 0.4928
623.20 0.4925
623.30 0.4922
623.40 0.492
623.50 0.4917
623.60 0.4914
623.70 0.4912
623.80 0.4909
623.90 0.4906
624.00 0.4904
624.10 0.4901
624.20 0.4899
624.30 0.4896
624.40 0.4893
624.50 0.4891
624.60 0.4888
624.70 0.4885
624.80 0.4883
624.90 0.488
625.00 0.4877
625.10 0.4875
625.20 0.4872
625.30 0.487
625.40 0.4867
625.50 0.4864
625.60 0.4862
625.70 0.4859
625.80 0.4856
625.90 0.4854
626.00 0.4851
626.10 0.4848
626.20 0.4846
626.30 0.4843
626.40 0.4841
626.50 0.4838
626.60 0.4835
626.70 0.4833
626.80 0.483
626.90 0.4828
627.00 0.4825
627.10 0.4822
627.20 0.482
627.30 0.4817
627.40 0.4815
627.50 0.4812
627.60 0.4809
627.70 0.4807
627.80 0.4804
627.90 0.4801
628.00 0.4799
628.10 0.4796
628.20 0.4794
628.30 0.4791
628.40 0.4788
628.50 0.4786
628.60 0.4783
628.70 0.4781
628.80 0.4778
628.90 0.4775
629.00 0.4773
629.10 0.477
629.20 0.4768
629.30 0.4765
629.40 0.4762
629.50 0.476
629.60 0.4757
629.70 0.4755
629.80 0.4752
629.90 0.475
630.00 0.4747
630.10 0.4744
630.20 0.4742
630.30 0.4739
630.40 0.4737
630.50 0.4734
630.60 0.4731
630.70 0.4729
630.80 0.4726
630.90 0.4724
631.00 0.4721
631.10 0.4719
631.20 0.4716
631.30 0.4713
631.40 0.4711
631.50 0.4708
631.60 0.4706
631.70 0.4703
631.80 0.47
631.90 0.4698
632.00 0.4695
632.10 0.4693
632.20 0.469
632.30 0.4687
632.40 0.4685
632.50 0.4682
632.60 0.468
632.70 0.4677
632.80 0.4675
632.90 0.4672
633.00 0.4669
633.10 0.4667
633.20 0.4664
633.30 0.4662
633.40 0.4659
633.50 0.4656
633.60 0.4654
633.70 0.4651
633.80 0.4649
633.90 0.4646
634.00 0.4644
634.10 0.4641
634.20 0.4638
634.30 0.4636
634.40 0.4633
634.50 0.4631
634.60 0.4628
634.70 0.4625
634.80 0.4623
634.90 0.462
635.00 0.4618
635.10 0.4615
635.20 0.4612
635.30 0.461
635.40 0.4607
635.50 0.4605
635.60 0.4602
635.70 0.4599
635.80 0.4597
635.90 0.4594
636.00 0.4591
636.10 0.4589
636.20 0.4586
636.30 0.4584
636.40 0.4581
636.50 0.4578
636.60 0.4576
636.70 0.4573
636.80 0.457
636.90 0.4568
637.00 0.4565
637.10 0.4563
637.20 0.456
637.30 0.4557
637.40 0.4555
637.50 0.4552
637.60 0.4549
637.70 0.4547
637.80 0.4544
637.90 0.4541
638.00 0.4539
638.10 0.4536
638.20 0.4533
638.30 0.4531
638.40 0.4528
638.50 0.4525
638.60 0.4522
638.70 0.452
638.80 0.4517
638.90 0.4514
639.00 0.4512
639.10 0.4509
639.20 0.4506
639.30 0.4504
639.40 0.4501
639.50 0.4498
639.60 0.4495
639.70 0.4492
639.80 0.449
639.90 0.4487
640.00 0.4484
640.10 0.4481
640.20 0.4479
640.30 0.4476
640.40 0.4473
640.50 0.447
640.60 0.4467
640.70 0.4464
640.80 0.4462
640.90 0.4459
641.00 0.4456
641.10 0.4453
641.20 0.445
641.30 0.4447
641.40 0.4445
641.50 0.4442
641.60 0.4439
641.70 0.4436
641.80 0.4433
641.90 0.443
642.00 0.4427
642.10 0.4424
642.20 0.4421
642.30 0.4418
642.40 0.4415
642.50 0.4412
642.60 0.4409
642.70 0.4406
642.80 0.4403
642.90 0.4399
643.00 0.4396
643.10 0.4393
643.20 0.439
643.30 0.4387
643.40 0.4384
643.50 0.438
643.60 0.4377
643.70 0.4374
643.80 0.4371
643.90 0.4367
644.00 0.4364
644.10 0.4361
644.20 0.4357
644.30 0.4354
644.40 0.4351
644.50 0.4347
644.60 0.4343
644.70 0.434
644.80 0.4336
644.90 0.4333
645.00 0.4329
645.10 0.4326
645.20 0.4322
645.30 0.4318
645.40 0.4314
645.50 0.4311
645.60 0.4307
645.70 0.4303
645.80 0.4299
645.90 0.4295
646.00 0.4291
646.10 0.4287
646.20 0.4283
646.30 0.4279
646.40 0.4274
646.50 0.427
646.60 0.4265
646.70 0.4261
646.80 0.4256
646.90 0.4252
647.00 0.4248
647.10 0.4243
647.20 0.4239
647.30 0.4234
647.40 0.4229
647.50 0.4223
647.60 0.4218
647.70 0.4213
647.80 0.4208
647.90 0.4202
648.00 0.4197
648.10 0.4192
648.20 0.4186
648.30 0.4181
648.40 0.4175
648.50 0.4168
648.60 0.4162
648.70 0.4155
648.80 0.4149
648.90 0.4142
649.00 0.4136
649.10 0.4129
649.20 0.4123
649.30 0.4116
649.40 0.4108
649.50 0.41
649.60 0.4092
649.70 0.4084
649.80 0.4075
649.90 0.4067
650.00 0.4059
650.10 0.4051
650.20 0.4043
650.30 0.4034
650.40 0.4024
650.50 0.4013
650.60 0.4002
650.70 0.3992
650.80 0.3981
650.90 0.397
651.00 0.3959
651.10 0.3949
651.20 0.3938
651.30 0.3927
651.40 0.3912
651.50 0.3897
651.60 0.3883
651.70 0.3868
651.80 0.3853
651.90 0.3839
652.00 0.3824
652.10 0.381
652.20 0.3795
652.30 0.3779
652.40 0.3759
652.50 0.3739
652.60 0.3719
652.70 0.3699
652.80 0.3679
652.90 0.3658
653.00 0.3638
653.10 0.3618
653.20 0.3598
653.30 0.3576
653.40 0.3549
653.50 0.3521
653.60 0.3494
653.70 0.3466
653.80 0.3439
653.90 0.3411
654.00 0.3384
654.10 0.3356
654.20 0.3329
654.30 0.33
654.40 0.3266
654.50 0.3231
654.60 0.3197
654.70 0.3162
654.80 0.3127
654.90 0.3085
655.00 0.3044
655.10 0.3003
655.20 0.2962
655.30 0.292
655.40 0.2874
655.50 0.2828
655.60 0.2777
655.70 0.2725
655.80 0.2668
655.90 0.2606
656.00 0.2526
656.10 0.244
656.20 0.2115
656.30 0.1806
656.40 0.2332
656.50 0.2473
656.60 0.255
656.70 0.2624
656.80 0.2679
656.90 0.2733
657.00 0.2781
657.10 0.2828
657.20 0.2871
657.30 0.2913
657.40 0.2951
657.50 0.299
657.60 0.3028
657.70 0.3066
657.80 0.3103
657.90 0.3134
658.00 0.3165
658.10 0.3197
658.20 0.3228
658.30 0.3257
658.40 0.3281
658.50 0.3305
658.60 0.3329
658.70 0.3353
658.80 0.3376
658.90 0.34
659.00 0.3424
659.10 0.3448
659.20 0.3472
659.30 0.3494
659.40 0.351
659.50 0.3526
659.60 0.3542
659.70 0.3558
659.80 0.3574
659.90 0.359
660.00 0.3606
660.10 0.3622
660.20 0.3638
660.30 0.3653
660.40 0.3663
660.50 0.3673
660.60 0.3683
660.70 0.3694
660.80 0.3704
660.90 0.3714
661.00 0.3724
661.10 0.3734
661.20 0.3745
661.30 0.3754
661.40 0.376
661.50 0.3766
661.60 0.3773
661.70 0.3779
661.80 0.3785
661.90 0.3791
662.00 0.3797
662.10 0.3804
662.20 0.381
662.30 0.3816
662.40 0.3819
662.50 0.3823
662.60 0.3826
662.70 0.383
662.80 0.3834
662.90 0.3837
663.00 0.3841
663.10 0.3844
663.20 0.3848
663.30 0.3851
663.40 0.3853
663.50 0.3855
663.60 0.3857
663.70 0.3859
663.80 0.3861
663.90 0.3863
664.00 0.3865
664.10 0.3867
664.20 0.3869
664.30 0.387
664.40 0.3871
664.50 0.3872
664.60 0.3873
664.70 0.3874
664.80 0.3874
664.90 0.3875
665.00 0.3876
665.10 0.3877
665.20 0.3877
665.30 0.3878
665.40 0.3878
665.50 0.3878
665.60 0.3878
665.70 0.3878
665.80 0.3878
665.90 0.3878
666.00 0.3878
666.10 0.3878
666.20 0.3878
666.30 0.3878
666.40 0.3878
666.50 0.3877
666.60 0.3877
666.70 0.3876
666.80 0.3876
666.90 0.3875
667.00 0.3875
667.10 0.3875
667.20 0.3874
667.30 0.3873
667.40 0.3873
667.50 0.3872
667.60 0.3871
667.70 0.387
667.80 0.3869
667.90 0.3868
668.00 0.3868
668.10 0.3867
668.20 0.3866
668.30 0.3865
668.40 0.3864
668.50 0.3863
668.60 0.3862
668.70 0.3861
668.80 0.386
668.90 0.3859
669.00 0.3857
669.10 0.3856
669.20 0.3855
669.30 0.3854
669.40 0.3853
669.50 0.3852
669.60 0.385
669.70 0.3849
669.80 0.3848
669.90 0.3847
670.00 0.3845
670.10 0.3844
670.20 0.3843
670.30 0.3841
670.40 0.384
670.50 0.3839
670.60 0.3837
670.70 0.3836
670.80 0.3834
670.90 0.3833
671.00 0.3832
671.10 0.383
671.20 0.3829
671.30 0.3827
671.40 0.3826
671.50 0.3824
671.60 0.3823
671.70 0.3821
671.80 0.382
671.90 0.3819
672.00 0.3817
672.10 0.3816
672.20 0.3814
672.30 0.3813
672.40 0.3811
672.50 0.3809
672.60 0.3808
672.70 0.3806
672.80 0.3805
672.90 0.3803
673.00 0.3802
673.10 0.38
673.20 0.3799
673.30 0.3797
673.40 0.3795
673.50 0.3794
673.60 0.3792
673.70 0.379
673.80 0.3789
673.90 0.3787
674.00 0.3786
674.10 0.3784
674.20 0.3782
674.30 0.3781
674.40 0.3779
674.50 0.3778
674.60 0.3776
674.70 0.3774
674.80 0.3773
674.90 0.3771
675.00 0.3769
675.10 0.3768
675.20 0.3766
675.30 0.3764
675.40 0.3763
675.50 0.3761
675.60 0.3759
675.70 0.3758
675.80 0.3756
675.90 0.3754
676.00 0.3753
676.10 0.3751
676.20 0.3749
676.30 0.3748
676.40 0.3746
676.50 0.3744
676.60 0.3743
676.70 0.3741
676.80 0.3739
676.90 0.3738
677.00 0.3736
677.10 0.3734
677.20 0.3732
677.30 0.3731
677.40 0.3729
677.50 0.3727
677.60 0.3726
677.70 0.3724
677.80 0.3722
677.90 0.3721
678.00 0.3719
678.10 0.3717
678.20 0.3715
678.30 0.3714
678.40 0.3712
678.50 0.371
678.60 0.3709
678.70 0.3707
678.80 0.3705
678.90 0.3703
679.00 0.3702
679.10 0.37
679.20 0.3698
679.30 0.3697
679.40 0.3695
679.50 0.3693
679.60 0.3691
679.70 0.369
679.80 0.3688
679.90 0.3686
680.00 0.3685
680.10 0.3683
680.20 0.3681
680.30 0.3679
680.40 0.3678
680.50 0.3676
680.60 0.3674
680.70 0.3673
680.80 0.3671
680.90 0.3669
681.00 0.3667
681.10 0.3666
681.20 0.3664
681.30 0.3662
681.40 0.366
681.50 0.3659
681.60 0.3657
681.70 0.3655
681.80 0.3654
681.90 0.3652
682.00 0.365
682.10 0.3648
682.20 0.3647
682.30 0.3645
682.40 0.3643
682.50 0.3642
682.60 0.364
682.70 0.3638
682.80 0.3636
682.90 0.3635
683.00 0.3633
683.10 0.3631
683.20 0.3629
683.30 0.3628
683.40 0.3626
683.50 0.3624
683.60 0.3623
683.70 0.3621
683.80 0.3619
683.90 0.3617
684.00 0.3616
684.10 0.3614
684.20 0.3612
684.30 0.3611
684.40 0.3609
684.50 0.3607
684.60 0.3605
684.70 0.3604
684.80 0.3602
684.90 0.36
685.00 0.3599
685.10 0.3597
685.20 0.3595
685.30 0.3593
685.40 0.3592
685.50 0.359
685.60 0.3588
685.70 0.3587
685.80 0.3585
685.90 0.3583
686.00 0.3582
686.10 0.358
686.20 0.3578
686.30 0.3576
686.40 0.3575
686.50 0.3573
686.60 0.3571
686.70 0.357
686.80 0.3568
686.90 0.3566
687.00 0.3565
687.10 0.3563
687.20 0.3561
687.30 0.3559
687.40 0.3558
687.50 0.3556
687.60 0.3554
687.70 0.3553
687.80 0.3551
687.90 0.3549
688.00 0.3548
688.10 0.3546
688.20 0.3544
688.30 0.3543
688.40 0.3541
688.50 0.3539
688.60 0.3537
688.70 0.3536
688.80 0.3534
688.90 0.3532
689.00 0.3531
689.10 0.3529
689.20 0.3527
689.30 0.3526
689.40 0.3524
689.50 0.3522
689.60 0.3521
689.70 0.3519
689.80 0.3517
689.90 0.3516
690.00 0.3514
690.10 0.3512
690.20 0.3511
690.30 0.3509
690.40 0.3507
690.50 0.3506
690.60 0.3504
690.70 0.3502
690.80 0.3501
690.90 0.3499
691.00 0.3497
691.10 0.3495
691.20 0.3494
691.30 0.3492
691.40 0.349
691.50 0.3489
691.60 0.3487
691.70 0.3486
691.80 0.3484
691.90 0.3482
692.00 0.3481
692.10 0.3479
692.20 0.3477
692.30 0.3476
692.40 0.3474
692.50 0.3472
692.60 0.3471
692.70 0.3469
692.80 0.3467
692.90 0.3466
693.00 0.3464
693.10 0.3462
693.20 0.3461
693.30 0.3459
693.40 0.3457
693.50 0.3456
693.60 0.3454
693.70 0.3452
693.80 0.3451
693.90 0.3449
694.00 0.3447
694.10 0.3446
694.20 0.3444
694.30 0.3443
694.40 0.3441
694.50 0.3439
694.60 0.3438
694.70 0.3436
694.80 0.3434
694.90 0.3433
695.00 0.3431
695.10 0.3429
695.20 0.3428
695.30 0.3426
695.40 0.3425
695.50 0.3423
695.60 0.3421
695.70 0.342
695.80 0.3418
695.90 0.3416
696.00 0.3415
696.10 0.3413
696.20 0.3411
696.30 0.341
696.40 0.3408
696.50 0.3407
696.60 0.3405
696.70 0.3403
696.80 0.3402
696.90 0.34
697.00 0.3399
697.10 0.3397
697.20 0.3395
697.30 0.3394
697.40 0.3392
697.50 0.339
697.60 0.3389
697.70 0.3387
697.80 0.3386
697.90 0.3384
698.00 0.3382
698.10 0.3381
698.20 0.3379
698.30 0.3378
698.40 0.3376
698.50 0.3374
698.60 0.3373
698.70 0.3371
698.80 0.3369
698.90 0.3368
699.00 0.3366
699.10 0.3365
699.20 0.3363
699.30 0.3361
699.40 0.336
699.50 0.3358
699.60 0.3357
699.70 0.3355
699.80 0.3353
699.90 0.3352
700.00 0.335
700.10 0.3349
700.20 0.3347
700.30 0.3345
700.40 0.3344
700.50 0.3342
700.60 0.334
700.70 0.3339
700.80 0.3337
700.90 0.3335
701.00 0.3334
701.10 0.3332
701.20 0.333
701.30 0.3329
701.40 0.3327
701.50 0.3325
701.60 0.3324
701.70 0.3322
701.80 0.332
701.90 0.3319
702.00 0.3317
702.10 0.3315
702.20 0.3314
702.30 0.3312
702.40 0.331
702.50 0.3309
702.60 0.3307
702.70 0.3305
702.80 0.3304
702.90 0.3302
703.00 0.33
703.10 0.3299
703.20 0.3297
703.30 0.3295
703.40 0.3294
703.50 0.3292
703.60 0.3291
703.70 0.3289
703.80 0.3287
703.90 0.3286
704.00 0.3284
704.10 0.3282
704.20 0.3281
704.30 0.3279
704.40 0.3277
704.50 0.3276
704.60 0.3274
704.70 0.3272
704.80 0.3271
704.90 0.3269
705.00 0.3268
705.10 0.3266
705.20 0.3264
705.30 0.3263
705.40 0.3261
705.50 0.326
705.60 0.3258
705.70 0.3257
705.80 0.3255
705.90 0.3254
706.00 0.3252
706.10 0.3251
706.20 0.3249
706.30 0.3248
706.40 0.3246
706.50 0.3244
706.60 0.3243
706.70 0.3241
706.80 0.324
706.90 0.3238
707.00 0.3237
707.10 0.3235
707.20 0.3234
707.30 0.3232
707.40 0.3231
707.50 0.3229
707.60 0.3228
707.70 0.3226
707.80 0.3225
707.90 0.3223
708.00 0.3221
708.10 0.322
708.20 0.3218
708.30 0.3217
708.40 0.3215
708.50 0.3214
708.60 0.3212
708.70 0.3211
708.80 0.3209
708.90 0.3208
709.00 0.3206
709.10 0.3205
709.20 0.3203
709.30 0.3202
709.40 0.32
709.50 0.3199
709.60 0.3197
709.70 0.3196
709.80 0.3194
709.90 0.3193
710.00 0.3191
710.10 0.319
710.20 0.3188
710.30 0.3187
710.40 0.3185
710.50 0.3184
710.60 0.3182
710.70 0.3181
710.80 0.3179
710.90 0.3178
711.00 0.3176
711.10 0.3175
711.20 0.3173
711.30 0.3172
711.40 0.317
711.50 0.3169
711.60 0.3167
711.70 0.3166
711.80 0.3164
711.90 0.3163
712.00 0.3161
712.10 0.316
712.20 0.3158
712.30 0.3157
712.40 0.3155
712.50 0.3154
712.60 0.3152
712.70 0.3151
712.80 0.3149
712.90 0.3148
713.00 0.3146
713.10 0.3145
713.20 0.3143
713.30 0.3142
713.40 0.314
713.50 0.3139
713.60 0.3138
713.70 0.3136
713.80 0.3135
713.90 0.3133
714.00 0.3132
714.10 0.313
714.20 0.3129
714.30 0.3127
714.40 0.3126
714.50 0.3124
714.60 0.3123
714.70 0.3121
714.80 0.312
714.90 0.3118
715.00 0.3117
715.10 0.3115
715.20 0.3114
715.30 0.3113
715.40 0.3111
715.50 0.311
715.60 0.3108
715.70 0.3107
715.80 0.3105
715.90 0.3104
716.00 0.3102
716.10 0.3101
716.20 0.31
716.30 0.3098
716.40 0.3097
716.50 0.3095
716.60 0.3094
716.70 0.3092
716.80 0.3091
716.90 0.3089
717.00 0.3088
717.10 0.3087
717.20 0.3085
717.30 0.3084
717.40 0.3082
717.50 0.3081
717.60 0.3079
717.70 0.3078
717.80 0.3077
717.90 0.3075
718.00 0.3074
718.10 0.3072
718.20 0.3071
718.30 0.3069
718.40 0.3068
718.50 0.3067
718.60 0.3065
718.70 0.3064
718.80 0.3062
718.90 0.3061
719.00 0.3059
719.10 0.3058
719.20 0.3057
719.30 0.3055
719.40 0.3054
719.50 0.3052
719.60 0.3051
719.70 0.3049
719.80 0.3048
719.90 0.3047
720.00 0.3045
720.10 0.3044
720.20 0.3042
720.30 0.3041
720.40 0.304
720.50 0.3038
720.60 0.3037
720.70 0.3035
720.80 0.3034
720.90 0.3032
721.00 0.3031
721.10 0.303
721.20 0.3028
721.30 0.3027
721.40 0.3025
721.50 0.3024
721.60 0.3023
721.70 0.3021
721.80 0.302
721.90 0.3018
722.00 0.3017
722.10 0.3016
722.20 0.3014
722.30 0.3013
722.40 0.3011
722.50 0.301
722.60 0.3009
722.70 0.3007
722.80 0.3006
722.90 0.3004
723.00 0.3003
723.10 0.3002
723.20 0.3
723.30 0.2999
723.40 0.2997
723.50 0.2996
723.60 0.2995
723.70 0.2993
723.80 0.2992
723.90 0.299
724.00 0.2989
724.10 0.2988
724.20 0.2986
724.30 0.2985
724.40 0.2983
724.50 0.2982
724.60 0.2981
724.70 0.2979
724.80 0.2978
724.90 0.2976
725.00 0.2975
725.10 0.2974
725.20 0.2972
725.30 0.2971
725.40 0.297
725.50 0.2968
725.60 0.2967
725.70 0.2965
725.80 0.2964
725.90 0.2963
726.00 0.2961
726.10 0.296
726.20 0.2959
726.30 0.2957
726.40 0.2956
726.50 0.2954
726.60 0.2953
726.70 0.2952
726.80 0.295
726.90 0.2949
727.00 0.2948
727.10 0.2946
727.20 0.2945
727.30 0.2944
727.40 0.2942
727.50 0.2941
727.60 0.2939
727.70 0.2938
727.80 0.2937
727.90 0.2935
728.00 0.2934
728.10 0.2933
728.20 0.2931
728.30 0.293
728.40 0.2929
728.50 0.2927
728.60 0.2926
728.70 0.2924
728.80 0.2923
728.90 0.2922
729.00 0.292
729.10 0.2919
729.20 0.2918
729.30 0.2916
729.40 0.2915
729.50 0.2914
729.60 0.2912
729.70 0.2911
729.80 0.291
729.90 0.2908
730.00 0.2907
730.10 0.2906
730.20 0.2904
730.30 0.2903
730.40 0.2902
730.50 0.29
730.60 0.2899
730.70 0.2898
730.80 0.2896
730.90 0.2895
731.00 0.2894
731.10 0.2892
731.20 0.2891
731.30 0.289
731.40 0.2888
731.50 0.2887
731.60 0.2886
731.70 0.2884
731.80 0.2883
731.90 0.2882
732.00 0.288
732.10 0.2879
732.20 0.2878
732.30 0.2876
732.40 0.2875
732.50 0.2874
732.60 0.2872
732.70 0.2871
732.80 0.287
732.90 0.2868
733.00 0.2867
733.10 0.2866
733.20 0.2865
733.30 0.2863
733.40 0.2862
733.50 0.2861
733.60 0.2859
733.70 0.2858
733.80 0.2857
733.90 0.2855
734.00 0.2854
734.10 0.2853
734.20 0.2851
734.30 0.285
734.40 0.2849
734.50 0.2847
734.60 0.2846
734.70 0.2845
734.80 0.2844
734.90 0.2842
735.00 0.2841
735.10 0.284
735.20 0.2838
735.30 0.2837
735.40 0.2836
735.50 0.2834
735.60 0.2833
735.70 0.2832
735.80 0.2831
735.90 0.2829
736.00 0.2828
736.10 0.2827
736.20 0.2825
736.30 0.2824
736.40 0.2823
736.50 0.2821
736.60 0.282
736.70 0.2819
736.80 0.2818
736.90 0.2816
737.00 0.2815
737.10 0.2814
737.20 0.2812
737.30 0.2811
737.40 0.281
737.50 0.2809
737.60 0.2807
737.70 0.2806
737.80 0.2805
737.90 0.2803
738.00 0.2802
738.10 0.2801
738.20 0.28
738.30 0.2798
738.40 0.2797
738.50 0.2796
738.60 0.2794
738.70 0.2793
738.80 0.2792
738.90 0.2791
739.00 0.2789
739.10 0.2788
739.20 0.2787
739.30 0.2785
739.40 0.2784
739.50 0.2783
739.60 0.2782
739.70 0.278
739.80 0.2779
739.90 0.2778
740.00 0.2777
740.10 0.2775
740.20 0.2774
740.30 0.2773
740.40 0.2771
740.50 0.277
740.60 0.2769
740.70 0.2768
740.80 0.2766
740.90 0.2765
741.00 0.2764
741.10 0.2763
741.20 0.2761
741.30 0.276
741.40 0.2759
741.50 0.2758
741.60 0.2756
741.70 0.2755
741.80 0.2754
741.90 0.2753
742.00 0.2751
742.10 0.275
742.20 0.2749
742.30 0.2748
742.40 0.2746
742.50 0.2745
742.60 0.2744
742.70 0.2743
742.80 0.2741
742.90 0.274
743.00 0.2739
743.10 0.2738
743.20 0.2736
743.30 0.2735
743.40 0.2734
743.50 0.2733
743.60 0.2732
743.70 0.273
743.80 0.2729
743.90 0.2728
744.00 0.2727
744.10 0.2725
744.20 0.2724
744.30 0.2723
744.40 0.2722
744.50 0.272
744.60 0.2719
744.70 0.2718
744.80 0.2717
744.90 0.2715
745.00 0.2714
745.10 0.2713
745.20 0.2712
745.30 0.2711
745.40 0.2709
745.50 0.2708
745.60 0.2707
745.70 0.2706
745.80 0.2704
745.90 0.2703
746.00 0.2702
746.10 0.2701
746.20 0.2699
746.30 0.2698
746.40 0.2697
746.50 0.2696
746.60 0.2695
746.70 0.2693
746.80 0.2692
746.90 0.2691
747.00 0.269
747.10 0.2688
747.20 0.2687
747.30 0.2686
747.40 0.2685
747.50 0.2684
747.60 0.2682
747.70 0.2681
747.80 0.268
747.90 0.2679
748.00 0.2677
748.10 0.2676
748.20 0.2675
748.30 0.2674
748.40 0.2673
748.50 0.2671
748.60 0.267
748.70 0.2669
748.80 0.2668
748.90 0.2667
749.00 0.2665
749.10 0.2664
749.20 0.2663
749.30 0.2662
749.40 0.2661
749.50 0.2659
749.60 0.2658
749.70 0.2657
749.80 0.2656
749.90 0.2655
750.00 0.2653
750.10 0.2652
750.20 0.2651
750.30 0.265
750.40 0.2649
750.50 0.2647
750.60 0.2646
750.70 0.2645
750.80 0.2644
750.90 0.2643
751.00 0.2641
751.10 0.264
751.20 0.2639
751.30 0.2638
751.40 0.2637
751.50 0.2636
751.60 0.2634
751.70 0.2633
751.80 0.2632
751.90 0.2631
752.00 0.263
752.10 0.2628
752.20 0.2627
752.30 0.2626
752.40 0.2625
752.50 0.2624
752.60 0.2623
752.70 0.2621
752.80 0.262
752.90 0.2619
753.00 0.2618
753.10 0.2617
753.20 0.2616
753.30 0.2614
753.40 0.2613
753.50 0.2612
753.60 0.2611
753.70 0.261
753.80 0.2608
753.90 0.2607
754.00 0.2606
754.10 0.2605
754.20 0.2604
754.30 0.2603
754.40 0.2601
754.50 0.26
754.60 0.2599
754.70 0.2598
754.80 0.2597
754.90 0.2596
755.00 0.2594
755.10 0.2593
755.20 0.2592
755.30 0.2591
755.40 0.259
755.50 0.2589
755.60 0.2588
755.70 0.2586
755.80 0.2585
755.90 0.2584
756.00 0.2583
756.10 0.2582
756.20 0.2581
756.30 0.2579
756.40 0.2578
756.50 0.2577
756.60 0.2576
756.70 0.2575
756.80 0.2574
756.90 0.2572
757.00 0.2571
757.10 0.257
757.20 0.2569
757.30 0.2568
757.40 0.2567
757.50 0.2566
757.60 0.2564
757.70 0.2563
757.80 0.2562
757.90 0.2561
758.00 0.256
758.10 0.2559
758.20 0.2558
758.30 0.2556
758.40 0.2555
758.50 0.2554
758.60 0.2553
758.70 0.2552
758.80 0.2551
758.90 0.255
759.00 0.2548
759.10 0.2547
759.20 0.2546
759.30 0.2545
759.40 0.2544
759.50 0.2543
759.60 0.2542
759.70 0.254
759.80 0.2539
759.90 0.2538
760.00 0.2537
760.10 0.2536
760.20 0.2535
760.30 0.2534
760.40 0.2532
760.50 0.2531
760.60 0.253
760.70 0.2529
760.80 0.2528
760.90 0.2527
761.00 0.2526
761.10 0.2525
761.20 0.2524
761.30 0.2522
761.40 0.2521
761.50 0.252
761.60 0.2519
761.70 0.2518
761.80 0.2517
761.90 0.2516
762.00 0.2515
762.10 0.2513
762.20 0.2512
762.30 0.2511
762.40 0.251
762.50 0.2509
762.60 0.2508
762.70 0.2507
762.80 0.2506
762.90 0.2505
763.00 0.2503
763.10 0.2502
763.20 0.2501
763.30 0.25
763.40 0.2499
763.50 0.2498
763.60 0.2497
763.70 0.2496
763.80 0.2495
763.90 0.2494
764.00 0.2492
764.10 0.2491
764.20 0.249
764.30 0.2489
764.40 0.2488
764.50 0.2487
764.60 0.2486
764.70 0.2485
764.80 0.2484
764.90 0.2483
765.00 0.2481
765.10 0.248
765.20 0.2479
765.30 0.2478
765.40 0.2477
765.50 0.2476
765.60 0.2475
765.70 0.2474
765.80 0.2473
765.90 0.2472
766.00 0.247
766.10 0.2469
766.20 0.2468
766.30 0.2467
766.40 0.2466
766.50 0.2465
766.60 0.2464
766.70 0.2463
766.80 0.2462
766.90 0.2461
767.00 0.246
767.10 0.2458
767.20 0.2457
767.30 0.2456
767.40 0.2455
767.50 0.2454
767.60 0.2453
767.70 0.2452
767.80 0.2451
767.90 0.245
768.00 0.2449
768.10 0.2448
768.20 0.2446
768.30 0.2445
768.40 0.2444
768.50 0.2443
768.60 0.2442
768.70 0.2441
768.80 0.244
768.90 0.2439
769.00 0.2438
769.10 0.2437
769.20 0.2436
769.30 0.2435
769.40 0.2434
769.50 0.2432
769.60 0.2431
769.70 0.243
769.80 0.2429
769.90 0.2428
770.00 0.2427
770.10 0.2426
770.20 0.2425
770.30 0.2424
770.40 0.2423
770.50 0.2422
770.60 0.2421
770.70 0.242
770.80 0.2419
770.90 0.2417
771.00 0.2416
771.10 0.2415
771.20 0.2414
771.30 0.2413
771.40 0.2412
771.50 0.2411
771.60 0.241
771.70 0.2409
771.80 0.2408
771.90 0.2407
772.00 0.2406
772.10 0.2405
772.20 0.2404
772.30 0.2403
772.40 0.2402
772.50 0.2401
772.60 0.24
772.70 0.2398
772.80 0.2397
772.90 0.2396
773.00 0.2395
773.10 0.2394
773.20 0.2393
773.30 0.2392
773.40 0.2391
773.50 0.239
773.60 0.2389
773.70 0.2388
773.80 0.2387
773.90 0.2386
774.00 0.2385
774.10 0.2384
774.20 0.2383
774.30 0.2382
774.40 0.2381
774.50 0.238
774.60 0.2379
774.70 0.2378
774.80 0.2377
774.90 0.2375
775.00 0.2374
775.10 0.2373
775.20 0.2372
775.30 0.2371
775.40 0.237
775.50 0.2369
775.60 0.2368
775.70 0.2367
775.80 0.2366
775.90 0.2365
776.00 0.2364
776.10 0.2363
776.20 0.2362
776.30 0.2361
776.40 0.236
776.50 0.2359
776.60 0.2358
776.70 0.2357
776.80 0.2356
776.90 0.2355
777.00 0.2354
777.10 0.2353
777.20 0.2352
777.30 0.2351
777.40 0.235
777.50 0.2349
777.60 0.2348
777.70 0.2347
777.80 0.2346
777.90 0.2344
778.00 0.2343
778.10 0.2342
778.20 0.2341
778.30 0.234
778.40 0.2339
778.50 0.2338
778.60 0.2337
778.70 0.2336
778.80 0.2335
778.90 0.2334
779.00 0.2333
779.10 0.2332
779.20 0.2331
779.30 0.233
779.40 0.2329
779.50 0.2328
779.60 0.2327
779.70 0.2326
779.80 0.2325
779.90 0.2324
780.00 0.2323
780.10 0.2322
780.20 0.2321
780.30 0.232
780.40 0.2319
780.50 0.2318
780.60 0.2317
780.70 0.2316
780.80 0.2315
780.90 0.2314
781.00 0.2313
781.10 0.2312
781.20 0.2311
781.30 0.231
781.40 0.2309
781.50 0.2308
781.60 0.2307
781.70 0.2306
781.80 0.2305
781.90 0.2304
782.00 0.2303
782.10 0.2302
782.20 0.2301
782.30 0.23
782.40 0.2299
782.50 0.2298
782.60 0.2297
782.70 0.2296
782.80 0.2295
782.90 0.2294
783.00 0.2293
783.10 0.2292
783.20 0.2291
783.30 0.229
783.40 0.2289
783.50 0.2288
783.60 0.2287
783.70 0.2286
783.80 0.2285
783.90 0.2284
784.00 0.2283
784.10 0.2282
784.20 0.2281
784.30 0.228
784.40 0.2279
784.50 0.2278
784.60 0.2277
784.70 0.2276
784.80 0.2275
784.90 0.2274
785.00 0.2273
785.10 0.2272
785.20 0.2271
785.30 0.227
785.40 0.2269
785.50 0.2268
785.60 0.2267
785.70 0.2266
785.80 0.2265
785.90 0.2264
786.00 0.2263
786.10 0.2262
786.20 0.2261
786.30 0.226
786.40 0.2259
786.50 0.2259
786.60 0.2258
786.70 0.2257
786.80 0.2256
786.90 0.2255
787.00 0.2254
787.10 0.2253
787.20 0.2252
787.30 0.2251
787.40 0.225
787.50 0.2249
787.60 0.2248
787.70 0.2247
787.80 0.2246
787.90 0.2245
788.00 0.2244
788.10 0.2243
788.20 0.2242
788.30 0.2241
788.40 0.224
788.50 0.2239
788.60 0.2238
788.70 0.2237
788.80 0.2236
788.90 0.2235
789.00 0.2234
789.10 0.2233
789.20 0.2232
789.30 0.2231
789.40 0.223
789.50 0.2229
789.60 0.2228
789.70 0.2227
789.80 0.2226
789.90 0.2226
790.00 0.2225
790.10 0.2224
790.20 0.2223
790.30 0.2222
790.40 0.2221
790.50 0.222
790.60 0.2219
790.70 0.2218
790.80 0.2217
790.90 0.2216
791.00 0.2215
791.10 0.2214
791.20 0.2213
791.30 0.2212
791.40 0.2211
791.50 0.221
791.60 0.2209
791.70 0.2208
791.80 0.2207
791.90 0.2207
792.00 0.2206
792.10 0.2205
792.20 0.2204
792.30 0.2203
792.40 0.2202
792.50 0.2201
792.60 0.22
792.70 0.2199
792.80 0.2198
792.90 0.2197
793.00 0.2196
793.10 0.2195
793.20 0.2194
793.30 0.2193
793.40 0.2192
793.50 0.2191
793.60 0.2191
793.70 0.219
793.80 0.2189
793.90 0.2188
794.00 0.2187
794.10 0.2186
794.20 0.2185
794.30 0.2184
794.40 0.2183
794.50 0.2182
794.60 0.2181
794.70 0.218
794.80 0.2179
794.90 0.2178
795.00 0.2177
795.10 0.2176
795.20 0.2176
795.30 0.2175
795.40 0.2174
795.50 0.2173
795.60 0.2172
795.70 0.2171
795.80 0.217
795.90 0.2169
796.00 0.2168
796.10 0.2167
796.20 0.2166
796.30 0.2165
796.40 0.2164
796.50 0.2163
796.60 0.2163
796.70 0.2162
796.80 0.2161
796.90 0.216
797.00 0.2159
797.10 0.2158
797.20 0.2157
797.30 0.2156
797.40 0.2155
797.50 0.2154
797.60 0.2153
797.70 0.2152
797.80 0.2151
797.90 0.2151
798.00 0.215
798.10 0.2149
798.20 0.2148
798.30 0.2147
798.40 0.2146
798.50 0.2145
798.60 0.2144
798.70 0.2143
798.80 0.2142
798.90 0.2141
799.00 0.214
799.10 0.214
799.20 0.2139
799.30 0.2138
799.40 0.2137
799.50 0.2136
799.60 0.2135
799.70 0.2134
799.80 0.2133
799.90 0.2132
800.00 0.2131
800.10 0.213
800.20 0.2129
800.30 0.2129
800.40 0.2128
800.50 0.2127
800.60 0.2126
800.70 0.2125
800.80 0.2124
800.90 0.2123
801.00 0.2122
801.10 0.2121
801.20 0.212
801.30 0.212
801.40 0.2119
801.50 0.2118
801.60 0.2117
801.70 0.2116
801.80 0.2115
801.90 0.2114
802.00 0.2113
802.10 0.2112
802.20 0.2112
802.30 0.2111
802.40 0.211
802.50 0.2109
802.60 0.2108
802.70 0.2107
802.80 0.2106
802.90 0.2105
803.00 0.2104
803.10 0.2103
803.20 0.2103
803.30 0.2102
803.40 0.2101
803.50 0.21
803.60 0.2099
803.70 0.2098
803.80 0.2097
803.90 0.2096
804.00 0.2095
804.10 0.2095
804.20 0.2094
804.30 0.2093
804.40 0.2092
804.50 0.2091
804.60 0.209
804.70 0.2089
804.80 0.2088
804.90 0.2087
805.00 0.2087
805.10 0.2086
805.20 0.2085
805.30 0.2084
805.40 0.2083
805.50 0.2082
805.60 0.2081
805.70 0.208
805.80 0.208
805.90 0.2079
806.00 0.2078
806.10 0.2077
806.20 0.2076
806.30 0.2075
806.40 0.2074
806.50 0.2073
806.60 0.2072
806.70 0.2072
806.80 0.2071
806.90 0.207
807.00 0.2069
807.10 0.2068
807.20 0.2067
807.30 0.2066
807.40 0.2065
807.50 0.2065
807.60 0.2064
807.70 0.2063
807.80 0.2062
807.90 0.2061
808.00 0.206
808.10 0.2059
808.20 0.2058
808.30 0.2058
808.40 0.2057
808.50 0.2056
808.60 0.2055
808.70 0.2054
808.80 0.2053
808.90 0.2052
809.00 0.2052
809.10 0.2051
809.20 0.205
809.30 0.2049
809.40 0.2048
809.50 0.2047
809.60 0.2046
809.70 0.2045
809.80 0.2045
809.90 0.2044
810.00 0.2043
810.10 0.2042
810.20 0.2041
810.30 0.204
810.40 0.2039
810.50 0.2039
810.60 0.2038
810.70 0.2037
810.80 0.2036
810.90 0.2035
811.00 0.2034
811.10 0.2033
811.20 0.2033
811.30 0.2032
811.40 0.2031
811.50 0.203
811.60 0.2029
811.70 0.2028
811.80 0.2028
811.90 0.2027
812.00 0.2026
812.10 0.2025
812.20 0.2024
812.30 0.2023
812.40 0.2022
812.50 0.2022
812.60 0.2021
812.70 0.202
812.80 0.2019
812.90 0.2018
813.00 0.2017
813.10 0.2016
813.20 0.2016
813.30 0.2015
813.40 0.2014
813.50 0.2013
813.60 0.2012
813.70 0.2011
813.80 0.2011
813.90 0.201
814.00 0.2009
814.10 0.2008
814.20 0.2007
814.30 0.2006
814.40 0.2006
814.50 0.2005
814.60 0.2004
814.70 0.2003
814.80 0.2002
814.90 0.2001
815.00 0.2001
815.10 0.2
815.20 0.1999
815.30 0.1998
815.40 0.1997
815.50 0.1996
815.60 0.1995
815.70 0.1995
815.80 0.1994
815.90 0.1993
816.00 0.1992
816.10 0.1991
816.20 0.199
816.30 0.199
816.40 0.1989
816.50 0.1988
816.60 0.1987
816.70 0.1986
816.80 0.1985
816.90 0.1985
817.00 0.1984
817.10 0.1983
817.20 0.1982
817.30 0.1981
817.40 0.1981
817.50 0.198
817.60 0.1979
817.70 0.1978
817.80 0.1977
817.90 0.1976
818.00 0.1976
818.10 0.1975
818.20 0.1974
818.30 0.1973
818.40 0.1972
818.50 0.1971
818.60 0.1971
818.70 0.197
818.80 0.1969
818.90 0.1968
819.00 0.1967
819.10 0.1966
819.20 0.1966
819.30 0.1965
819.40 0.1964
819.50 0.1963
819.60 0.1962
819.70 0.1962
819.80 0.1961
819.90 0.196
820.00 0.1959
820.10 0.1958
820.20 0.1957
820.30 0.1957
820.40 0.1956
820.50 0.1955
820.60 0.1954
820.70 0.1953
820.80 0.1953
820.90 0.1952
821.00 0.1951
821.10 0.195
821.20 0.1949
821.30 0.1949
821.40 0.1948
821.50 0.1947
821.60 0.1946
821.70 0.1945
821.80 0.1944
821.90 0.1944
822.00 0.1943
822.10 0.1942
822.20 0.1941
822.30 0.194
822.40 0.194
822.50 0.1939
822.60 0.1938
822.70 0.1937
822.80 0.1936
822.90 0.1936
823.00 0.1935
823.10 0.1934
823.20 0.1933
823.30 0.1932
823.40 0.1932
823.50 0.1931
823.60 0.193
823.70 0.1929
823.80 0.1928
823.90 0.1928
824.00 0.1927
824.10 0.1926
824.20 0.1925
824.30 0.1924
824.40 0.1924
824.50 0.1923
824.60 0.1922
824.70 0.1921
824.80 0.192
824.90 0.192
825.00 0.1919
825.10 0.1918
825.20 0.1917
825.30 0.1916
825.40 0.1916
825.50 0.1915
825.60 0.1914
825.70 0.1913
825.80 0.1912
825.90 0.1912
826.00 0.1911
826.10 0.191
826.20 0.1909
826.30 0.1909
826.40 0.1908
826.50 0.1907
826.60 0.1906
826.70 0.1905
826.80 0.1905
826.90 0.1904
827.00 0.1903
827.10 0.1902
827.20 0.1901
827.30 0.1901
827.40 0.19
827.50 0.1899
827.60 0.1898
827.70 0.1897
827.80 0.1897
827.90 0.1896
828.00 0.1895
828.10 0.1894
828.20 0.1894
828.30 0.1893
828.40 0.1892
828.50 0.1891
828.60 0.189
828.70 0.189
828.80 0.1889
828.90 0.1888
829.00 0.1887
829.10 0.1887
829.20 0.1886
829.30 0.1885
829.40 0.1884
829.50 0.1883
829.60 0.1883
829.70 0.1882
829.80 0.1881
829.90 0.188
830.00 0.188
830.10 0.1879
830.20 0.1878
830.30 0.1877
830.40 0.1876
830.50 0.1876
830.60 0.1875
830.70 0.1874
830.80 0.1873
830.90 0.1873
831.00 0.1872
831.10 0.1871
831.20 0.187
831.30 0.187
831.40 0.1869
831.50 0.1868
831.60 0.1867
831.70 0.1866
831.80 0.1866
831.90 0.1865
832.00 0.1864
832.10 0.1863
832.20 0.1863
832.30 0.1862
832.40 0.1861
832.50 0.186
832.60 0.186
832.70 0.1859
832.80 0.1858
832.90 0.1857
833.00 0.1857
833.10 0.1856
833.20 0.1855
833.30 0.1854
833.40 0.1853
833.50 0.1853
833.60 0.1852
833.70 0.1851
833.80 0.185
833.90 0.185
834.00 0.1849
834.10 0.1848
834.20 0.1847
834.30 0.1847
834.40 0.1846
834.50 0.1845
834.60 0.1844
834.70 0.1844
834.80 0.1843
834.90 0.1842
835.00 0.1841
835.10 0.1841
835.20 0.184
835.30 0.1839
835.40 0.1838
835.50 0.1838
835.60 0.1837
835.70 0.1836
835.80 0.1835
835.90 0.1835
836.00 0.1834
836.10 0.1833
836.20 0.1832
836.30 0.1832
836.40 0.1831
836.50 0.183
836.60 0.1829
836.70 0.1829
836.80 0.1828
836.90 0.1827
837.00 0.1826
837.10 0.1826
837.20 0.1825
837.30 0.1824
837.40 0.1823
837.50 0.1823
837.60 0.1822
837.70 0.1821
837.80 0.182
837.90 0.182
838.00 0.1819
838.10 0.1818
838.20 0.1817
838.30 0.1817
838.40 0.1816
838.50 0.1815
838.60 0.1814
838.70 0.1814
838.80 0.1813
838.90 0.1812
839.00 0.1811
839.10 0.1811
839.20 0.181
839.30 0.1809
839.40 0.1808
839.50 0.1808
839.60 0.1807
839.70 0.1806
839.80 0.1805
839.90 0.1805
840.00 0.1804
840.10 0.1803
840.20 0.1803
840.30 0.1802
840.40 0.1801
840.50 0.18
840.60 0.18
840.70 0.1799
840.80 0.1798
840.90 0.1797
841.00 0.1797
841.10 0.1796
841.20 0.1795
841.30 0.1794
841.40 0.1794
841.50 0.1793
841.60 0.1792
841.70 0.1792
841.80 0.1791
841.90 0.179
842.00 0.1789
842.10 0.1789
842.20 0.1788
842.30 0.1787
842.40 0.1786
842.50 0.1786
842.60 0.1785
842.70 0.1784
842.80 0.1783
842.90 0.1783
843.00 0.1782
843.10 0.1781
843.20 0.178
843.30 0.178
843.40 0.1779
843.50 0.1778
843.60 0.1777
843.70 0.1777
843.80 0.1776
843.90 0.1775
844.00 0.1774
844.10 0.1774
844.20 0.1773
844.30 0.1772
844.40 0.1771
844.50 0.1771
844.60 0.177
844.70 0.1769
844.80 0.1768
844.90 0.1768
845.00 0.1767
845.10 0.1766
845.20 0.1765
845.30 0.1765
845.40 0.1764
845.50 0.1763
845.60 0.1762
845.70 0.1762
845.80 0.1761
845.90 0.176
846.00 0.1759
846.10 0.1759
846.20 0.1758
846.30 0.1757
846.40 0.1756
846.50 0.1756
846.60 0.1755
846.70 0.1754
846.80 0.1753
846.90 0.1753
847.00 0.1752
847.10 0.1752
847.20 0.1752
847.30 0.1751
847.40 0.1751
847.50 0.1751
847.60 0.1751
847.70 0.1751
847.80 0.1751
847.90 0.175
848.00 0.175
848.10 0.175
848.20 0.175
848.30 0.175
848.40 0.175
848.50 0.1749
848.60 0.1749
848.70 0.1749
848.80 0.1749
848.90 0.1749
849.00 0.1749
849.10 0.1748
849.20 0.1748
849.30 0.1748
849.40 0.1748
849.50 0.1748
849.60 0.1748
849.70 0.1747
849.80 0.1747
849.90 0.1747
850.00 0.1747
850.10 0.1747
850.20 0.1747
850.30 0.1746
850.40 0.1746
850.50 0.1746
850.60 0.1746
850.70 0.1746
850.80 0.1746
850.90 0.1745
851.00 0.1745
851.10 0.1745
851.20 0.1745
851.30 0.1745
851.40 0.1745
851.50 0.1744
851.60 0.1744
851.70 0.1744
851.80 0.1744
851.90 0.1744
852.00 0.1744
852.10 0.1743
852.20 0.1743
852.30 0.1743
852.40 0.1742
852.50 0.1742
852.60 0.1741
852.70 0.1741
852.80 0.1741
852.90 0.174
853.00 0.174
853.10 0.174
853.20 0.1739
853.30 0.1739
853.40 0.1738
853.50 0.1738
853.60 0.1738
853.70 0.1737
853.80 0.1737
853.90 0.1737
854.00 0.1736
854.10 0.1736
854.20 0.1735
854.30 0.1735
854.40 0.1735
854.50 0.1734
854.60 0.1734
854.70 0.1734
854.80 0.1733
854.90 0.1733
855.00 0.1733
855.10 0.1732
855.20 0.1732
855.30 0.1731
855.40 0.1731
855.50 0.1731
855.60 0.173
855.70 0.173
855.80 0.173
855.90 0.1729
856.00 0.1729
856.10 0.1729
856.20 0.1728
856.30 0.1728
856.40 0.1727
856.50 0.1727
856.60 0.1727
856.70 0.1726
856.80 0.1726
856.90 0.1726
857.00 0.1725
857.10 0.1725
857.20 0.1725
857.30 0.1724
857.40 0.1724
857.50 0.1724
857.60 0.1723
857.70 0.1723
857.80 0.1723
857.90 0.1722
858.00 0.1722
858.10 0.1722
858.20 0.1721
858.30 0.1721
858.40 0.1721
858.50 0.172
858.60 0.172
858.70 0.172
858.80 0.1719
858.90 0.1719
859.00 0.1719
859.10 0.1718
859.20 0.1718
859.30 0.1718
859.40 0.1717
859.50 0.1717
859.60 0.1717
859.70 0.1716
859.80 0.1716
859.90 0.1716
860.00 0.1715
860.10 0.1715
860.20 0.1715
860.30 0.1714
860.40 0.1714
860.50 0.1714
860.60 0.1713
860.70 0.1713
860.80 0.1713
860.90 0.1712
861.00 0.1712
861.10 0.1712
861.20 0.1712
861.30 0.1711
861.40 0.1711
861.50 0.1711
861.60 0.171
861.70 0.171
861.80 0.171
861.90 0.1709
862.00 0.1709
862.10 0.1708
862.20 0.1706
862.30 0.1705
862.40 0.1704
862.50 0.1702
862.60 0.1701
862.70 0.1699
862.80 0.1698
862.90 0.1697
863.00 0.1695
863.10 0.1694
863.20 0.1693
863.30 0.1691
863.40 0.169
863.50 0.1689
863.60 0.1687
863.70 0.1686
863.80 0.1685
863.90 0.1683
864.00 0.1682
864.10 0.1681
864.20 0.1679
864.30 0.1678
864.40 0.1677
864.50 0.1675
864.60 0.1674
864.70 0.1673
864.80 0.1671
864.90 0.167
865.00 0.1669
865.10 0.1667
865.20 0.1666
865.30 0.1665
865.40 0.1663
865.50 0.1662
865.60 0.1661
865.70 0.1659
865.80 0.1658
865.90 0.1657
866.00 0.1655
866.10 0.1654
866.20 0.1653
866.30 0.1651
866.40 0.165
866.50 0.1649
866.60 0.1647
866.70 0.1646
866.80 0.1645
866.90 0.1643
867.00 0.1642
867.10 0.1643
867.20 0.1643
867.30 0.1644
867.40 0.1644
867.50 0.1645
867.60 0.1646
867.70 0.1646
867.80 0.1647
867.90 0.1647
868.00 0.1648
868.10 0.1648
868.20 0.1649
868.30 0.1649
868.40 0.165
868.50 0.1651
868.60 0.1651
868.70 0.1652
868.80 0.1652
868.90 0.1653
869.00 0.1653
869.10 0.1654
869.20 0.1655
869.30 0.1655
869.40 0.1656
869.50 0.1656
869.60 0.1657
869.70 0.1657
869.80 0.1658
869.90 0.1658
870.00 0.1659
870.10 0.166
870.20 0.166
870.30 0.1661
870.40 0.1661
870.50 0.1662
870.60 0.1662
870.70 0.1663
870.80 0.1663
870.90 0.1664
871.00 0.1665
871.10 0.1665
871.20 0.1666
871.30 0.1666
871.40 0.1667
871.50 0.1667
871.60 0.1668
871.70 0.1668
871.80 0.1669
871.90 0.1669
872.00 0.167
872.10 0.1669
872.20 0.1667
872.30 0.1666
872.40 0.1664
872.50 0.1663
872.60 0.1662
872.70 0.166
872.80 0.1659
872.90 0.1658
873.00 0.1656
873.10 0.1655
873.20 0.1653
873.30 0.1652
873.40 0.1651
873.50 0.1649
873.60 0.1648
873.70 0.1646
873.80 0.1645
873.90 0.1644
874.00 0.1642
874.10 0.1641
874.20 0.164
874.30 0.1638
874.40 0.1637
874.50 0.1635
874.60 0.1634
874.70 0.1633
874.80 0.1631
874.90 0.163
875.00 0.1629
875.10 0.1627
875.20 0.1626
875.30 0.1624
875.40 0.1623
875.50 0.1622
875.60 0.162
875.70 0.1619
875.80 0.1618
875.90 0.1616
876.00 0.1615
876.10 0.1613
876.20 0.1612
876.30 0.1611
876.40 0.1609
876.50 0.1608
876.60 0.1607
876.70 0.1605
876.80 0.1604
876.90 0.1602
877.00 0.1601
877.10 0.1602
877.20 0.1602
877.30 0.1603
877.40 0.1603
877.50 0.1603
877.60 0.1604
877.70 0.1604
877.80 0.1605
877.90 0.1605
878.00 0.1606
878.10 0.1606
878.20 0.1607
878.30 0.1607
878.40 0.1608
878.50 0.1608
878.60 0.1608
878.70 0.1609
878.80 0.1609
878.90 0.161
879.00 0.161
879.10 0.1611
879.20 0.1611
879.30 0.1612
879.40 0.1612
879.50 0.1613
879.60 0.1613
879.70 0.1613
879.80 0.1614
879.90 0.1614
880.00 0.1615
880.10 0.1615
880.20 0.1616
880.30 0.1616
880.40 0.1617
880.50 0.1617
880.60 0.1618
880.70 0.1618
880.80 0.1618
880.90 0.1619
881.00 0.1619
881.10 0.162
881.20 0.162
881.30 0.1621
881.40 0.1621
881.50 0.1622
881.60 0.1622
881.70 0.1623
881.80 0.1623
881.90 0.1623
882.00 0.1624
882.10 0.1619
882.20 0.1614
882.30 0.1609
882.40 0.1604
882.50 0.1599
882.60 0.1594
882.70 0.1589
882.80 0.1584
882.90 0.1579
883.00 0.1574
883.10 0.1569
883.20 0.1564
883.30 0.1559
883.40 0.1554
883.50 0.1549
883.60 0.1544
883.70 0.1539
883.80 0.1534
883.90 0.1529
884.00 0.1524
884.10 0.1519
884.20 0.1514
884.30 0.1509
884.40 0.1504
884.50 0.1499
884.60 0.1494
884.70 0.1489
884.80 0.1484
884.90 0.1479
885.00 0.1474
885.10 0.1469
885.20 0.1464
885.30 0.1459
885.40 0.1454
885.50 0.1449
885.60 0.1444
885.70 0.1439
885.80 0.1434
885.90 0.1429
886.00 0.1425
886.10 0.142
886.20 0.1415
886.30 0.141
886.40 0.1405
886.50 0.14
886.60 0.1395
886.70 0.139
886.80 0.1385
886.90 0.138
887.00 0.1375
887.10 0.1379
887.20 0.1383
887.30 0.1387
887.40 0.139
887.50 0.1394
887.60 0.1398
887.70 0.1402
887.80 0.1406
887.90 0.1409
888.00 0.1413
888.10 0.1417
888.20 0.1421
888.30 0.1425
888.40 0.1428
888.50 0.1432
888.60 0.1436
888.70 0.144
888.80 0.1443
888.90 0.1447
889.00 0.1451
889.10 0.1455
889.20 0.1458
889.30 0.1462
889.40 0.1466
889.50 0.147
889.60 0.1473
889.70 0.1477
889.80 0.1481
889.90 0.1485
890.00 0.1489
890.10 0.1492
890.20 0.1496
890.30 0.15
890.40 0.1503
890.50 0.1507
890.60 0.1511
890.70 0.1515
890.80 0.1518
890.90 0.1522
891.00 0.1526
891.10 0.153
891.20 0.1533
891.30 0.1537
891.40 0.1541
891.50 0.1545
891.60 0.1548
891.70 0.1552
891.80 0.1556
891.90 0.1559
892.00 0.1563
892.10 0.1562
892.20 0.156
892.30 0.1559
892.40 0.1557
892.50 0.1556
892.60 0.1554
892.70 0.1553
892.80 0.1551
892.90 0.155
893.00 0.1548
893.10 0.1547
893.20 0.1545
893.30 0.1544
893.40 0.1542
893.50 0.1541
893.60 0.1539
893.70 0.1538
893.80 0.1536
893.90 0.1535
894.00 0.1533
894.10 0.1532
894.20 0.153
894.30 0.1529
894.40 0.1527
894.50 0.1526
894.60 0.1524
894.70 0.1523
894.80 0.1521
894.90 0.152
895.00 0.1518
895.10 0.1517
895.20 0.1515
895.30 0.1514
895.40 0.1512
895.50 0.1511
895.60 0.1509
895.70 0.1508
895.80 0.1506
895.90 0.1505
896.00 0.1503
896.10 0.1502
896.20 0.15
896.30 0.1499
896.40 0.1497
896.50 0.1496
896.60 0.1494
896.70 0.1493
896.80 0.1491
896.90 0.149
897.00 0.1488
897.10 0.1483
897.20 0.1477
897.30 0.1471
897.40 0.1466
897.50 0.146
897.60 0.1454
897.70 0.1449
897.80 0.1443
897.90 0.1437
898.00 0.1432
898.10 0.1426
898.20 0.142
898.30 0.1415
898.40 0.1409
898.50 0.1403
898.60 0.1398
898.70 0.1392
898.80 0.1386
898.90 0.1381
899.00 0.1375
899.10 0.1369
899.20 0.1364
899.30 0.1358
899.40 0.1353
899.50 0.1347
899.60 0.1341
899.70 0.1336
899.80 0.133
899.90 0.1324
900.00 0.1319
900.10 0.1313
900.20 0.1308
900.30 0.1302
900.40 0.1296
900.50 0.1291
900.60 0.1285
900.70 0.128
900.80 0.1274
900.90 0.1268
901.00 0.1263
901.10 0.1257
901.20 0.1252
901.30 0.1246
901.40 0.124
901.50 0.1235
901.60 0.1229
901.70 0.1224
901.80 0.1218
901.90 0.1213
902.00 0.1207
902.10 0.1211
902.20 0.1216
902.30 0.122
902.40 0.1225
902.50 0.1229
902.60 0.1233
902.70 0.1238
902.80 0.1242
902.90 0.1246
903.00 0.1251
903.10 0.1255
903.20 0.126
903.30 0.1264
903.40 0.1268
903.50 0.1273
903.60 0.1277
903.70 0.1282
903.80 0.1286
903.90 0.129
904.00 0.1295
904.10 0.1299
904.20 0.1303
904.30 0.1308
904.40 0.1312
904.50 0.1316
904.60 0.1321
904.70 0.1325
904.80 0.1329
904.90 0.1334
905.00 0.1338
905.10 0.1342
905.20 0.1347
905.30 0.1351
905.40 0.1355
905.50 0.136
905.60 0.1364
905.70 0.1368
905.80 0.1373
905.90 0.1377
906.00 0.1381
906.10 0.1386
906.20 0.139
906.30 0.1394
906.40 0.1399
906.50 0.1403
906.60 0.1407
906.70 0.1412
906.80 0.1416
906.90 0.142
907.00 0.1425
907.10 0.1425
907.20 0.1426
907.30 0.1427
907.40 0.1427
907.50 0.1428
907.60 0.1429
907.70 0.1429
907.80 0.143
907.90 0.143
908.00 0.1431
908.10 0.1432
908.20 0.1432
908.30 0.1433
908.40 0.1434
908.50 0.1434
908.60 0.1435
908.70 0.1436
908.80 0.1436
908.90 0.1437
909.00 0.1438
909.10 0.1438
909.20 0.1439
909.30 0.144
909.40 0.144
909.50 0.1441
909.60 0.1441
909.70 0.1442
909.80 0.1443
909.90 0.1443
910.00 0.1444
910.10 0.1445
910.20 0.1445
910.30 0.1446
910.40 0.1447
910.50 0.1447
910.60 0.1448
910.70 0.1449
910.80 0.1449
910.90 0.145
911.00 0.1451
911.10 0.1451
911.20 0.1452
911.30 0.1452
911.40 0.1453
911.50 0.1454
911.60 0.1454
911.70 0.1455
911.80 0.1456
911.90 0.1456
912.00 0.1457
912.10 0.1455
912.20 0.1453
912.30 0.1451
912.40 0.1448
912.50 0.1446
912.60 0.1444
912.70 0.1442
912.80 0.144
912.90 0.1438
913.00 0.1436
913.10 0.1434
913.20 0.1432
913.30 0.1429
913.40 0.1427
913.50 0.1425
913.60 0.1423
913.70 0.1421
913.80 0.1419
913.90 0.1417
914.00 0.1415
914.10 0.1413
914.20 0.1411
914.30 0.1408
914.40 0.1406
914.50 0.1404
914.60 0.1402
914.70 0.14
914.80 0.1398
914.90 0.1396
915.00 0.1394
915.10 0.1392
915.20 0.139
915.30 0.1387
915.40 0.1385
915.50 0.1383
915.60 0.1381
915.70 0.1379
915.80 0.1377
915.90 0.1375
916.00 0.1373
916.10 0.1371
916.20 0.1369
916.30 0.1367
916.40 0.1365
916.50 0.1362
916.60 0.136
916.70 0.1358
916.80 0.1356
916.90 0.1354
917.00 0.1352
917.10 0.1346
917.20 0.134
917.30 0.1334
917.40 0.1329
917.50 0.1323
917.60 0.1317
917.70 0.1311
917.80 0.1305
917.90 0.1299
918.00 0.1293
918.10 0.1288
918.20 0.1282
918.30 0.1276
918.40 0.127
918.50 0.1264
918.60 0.1258
918.70 0.1252
918.80 0.1247
918.90 0.1241
919.00 0.1235
919.10 0.1229
919.20 0.1223
919.30 0.1217
919.40 0.1212
919.50 0.1206
919.60 0.12
919.70 0.1194
919.80 0.1188
919.90 0.1183
920.00 0.1177
920.10 0.1171
920.20 0.1165
920.30 0.1159
920.40 0.1154
920.50 0.1148
920.60 0.1142
920.70 0.1136
920.80 0.113
920.90 0.1125
921.00 0.1119
921.10 0.1113
921.20 0.1107
921.30 0.1101
921.40 0.1096
921.50 0.109
921.60 0.1084
921.70 0.1078
921.80 0.1073
921.90 0.1067
922.00 0.1061
922.10 0.1065
922.20 0.1069
922.30 0.1073
922.40 0.1077
922.50 0.1081
922.60 0.1085
922.70 0.1089
922.80 0.1093
922.90 0.1097
923.00 0.1101
923.10 0.1105
923.20 0.1109
923.30 0.1113
923.40 0.1117
923.50 0.1121
923.60 0.1124
923.70 0.1128
923.80 0.1132
923.90 0.1136
924.00 0.114
924.10 0.1144
924.20 0.1148
924.30 0.1152
924.40 0.1156
924.50 0.116
924.60 0.1164
924.70 0.1168
924.80 0.1172
924.90 0.1176
925.00 0.118
925.10 0.1183
925.20 0.1187
925.30 0.1191
925.40 0.1195
925.50 0.1199
925.60 0.1203
925.70 0.1207
925.80 0.1211
925.90 0.1215
926.00 0.1219
926.10 0.1223
926.20 0.1227
926.30 0.123
926.40 0.1234
926.50 0.1238
926.60 0.1242
926.70 0.1246
926.80 0.125
926.90 0.1254
927.00 0.1258
927.10 0.126
927.20 0.1262
927.30 0.1264
927.40 0.1266
927.50 0.1268
927.60 0.127
927.70 0.1272
927.80 0.1274
927.90 0.1276
928.00 0.1278
928.10 0.128
928.20 0.1282
928.30 0.1284
928.40 0.1286
928.50 0.1288
928.60 0.129
928.70 0.1292
928.80 0.1294
928.90 0.1296
929.00 0.1298
929.10 0.13
929.20 0.1302
929.30 0.1304
929.40 0.1306
929.50 0.1308
929.60 0.131
929.70 0.1312
929.80 0.1314
929.90 0.1316
930.00 0.1318
930.10 0.132
930.20 0.1322
930.30 0.1324
930.40 0.1326
930.50 0.1328
930.60 0.133
930.70 0.1332
930.80 0.1334
930.90 0.1336
931.00 0.1338
931.10 0.134
931.20 0.1342
931.30 0.1344
931.40 0.1346
931.50 0.1348
931.60 0.135
931.70 0.1352
931.80 0.1354
931.90 0.1356
932.00 0.1358
932.10 0.1358
932.20 0.1358
932.30 0.1359
932.40 0.1359
932.50 0.136
932.60 0.136
932.70 0.136
932.80 0.1361
932.90 0.1361
933.00 0.1362
933.10 0.1362
933.20 0.1363
933.30 0.1363
933.40 0.1363
933.50 0.1364
933.60 0.1364
933.70 0.1365
933.80 0.1365
933.90 0.1366
934.00 0.1366
934.10 0.1366
934.20 0.1367
934.30 0.1367
934.40 0.1367
934.50 0.1367
934.60 0.1367
934.70 0.1367
934.80 0.1367
934.90 0.1367
935.00 0.1367
935.10 0.1366
935.20 0.1366
935.30 0.1366
935.40 0.1366
935.50 0.1366
935.60 0.1366
935.70 0.1366
935.80 0.1366
935.90 0.1366
936.00 0.1366
936.10 0.1366
936.20 0.1365
936.30 0.1365
936.40 0.1365
936.50 0.1365
936.60 0.1365
936.70 0.1365
936.80 0.1365
936.90 0.1365
937.00 0.1365
937.10 0.1364
937.20 0.1364
937.30 0.1364
937.40 0.1363
937.50 0.1363
937.60 0.1362
937.70 0.1362
937.80 0.1362
937.90 0.1361
938.00 0.1361
938.10 0.136
938.20 0.136
938.30 0.136
938.40 0.1359
938.50 0.1358
938.60 0.1358
938.70 0.1357
938.80 0.1357
938.90 0.1356
939.00 0.1356
939.10 0.1355
939.20 0.1354
939.30 0.1354
939.40 0.1353
939.50 0.1353
939.60 0.1352
939.70 0.1352
939.80 0.1351
939.90 0.135
940.00 0.135
940.10 0.1349
940.20 0.1349
940.30 0.1348
940.40 0.1347
940.50 0.1346
940.60 0.1345
940.70 0.1345
940.80 0.1344
940.90 0.1343
941.00 0.1342
941.10 0.1341
941.20 0.134
941.30 0.1339
941.40 0.1339
941.50 0.1338
941.60 0.1337
941.70 0.1336
941.80 0.1335
941.90 0.1334
942.00 0.1333
942.10 0.1332
942.20 0.1331
942.30 0.133
942.40 0.1329
942.50 0.1328
942.60 0.1327
942.70 0.1325
942.80 0.1324
942.90 0.1323
943.00 0.1322
943.10 0.132
943.20 0.1319
943.30 0.1318
943.40 0.1317
943.50 0.1315
943.60 0.1314
943.70 0.1313
943.80 0.1312
943.90 0.131
944.00 0.1309
944.10 0.1308
944.20 0.1307
944.30 0.1305
944.40 0.1304
944.50 0.1302
944.60 0.13
944.70 0.1299
944.80 0.1297
944.90 0.1295
945.00 0.1294
945.10 0.1292
945.20 0.129
945.30 0.1289
945.40 0.1287
945.50 0.1284
945.60 0.1282
945.70 0.128
945.80 0.1278
945.90 0.1276
946.00 0.1274
946.10 0.1272
946.20 0.1269
946.30 0.1267
946.40 0.1265
946.50 0.1263
946.60 0.1261
946.70 0.1259
946.80 0.1257
946.90 0.1254
947.00 0.1252
947.10 0.125
947.20 0.1247
947.30 0.1244
947.40 0.1241
947.50 0.1238
947.60 0.1235
947.70 0.1231
947.80 0.1228
947.90 0.1225
948.00 0.1222
948.10 0.1218
948.20 0.1215
948.30 0.1212
948.40 0.1209
948.50 0.1205
948.60 0.1202
948.70 0.1199
948.80 0.1196
948.90 0.1192
949.00 0.1189
949.10 0.1186
949.20 0.1183
949.30 0.1179
949.40 0.1175
949.50 0.117
949.60 0.1165
949.70 0.1161
949.80 0.1156
949.90 0.1151
950.00 0.1146
950.10 0.1142
950.20 0.1137
950.30 0.1132
950.40 0.1128
950.50 0.1123
950.60 0.1118
950.70 0.1114
950.80 0.1109
950.90 0.1104
951.00 0.1099
951.10 0.1095
951.20 0.109
951.30 0.1085
951.40 0.108
951.50 0.1074
951.60 0.1068
951.70 0.1062
951.80 0.1056
951.90 0.105
952.00 0.1045
952.10 0.1038
952.20 0.1032
952.30 0.1025
952.40 0.1019
952.50 0.1012
952.60 0.1006
952.70 0.09991
952.80 0.09927
952.90 0.09856
953.00 0.09785
953.10 0.09715
953.20 0.09644
953.30 0.09574
953.40 0.09504
953.50 0.09433
953.60 0.0936
953.70 0.09286
953.80 0.09213
953.90 0.09139
954.00 0.09072
954.10 0.09004
954.20 0.08966
954.30 0.09075
954.40 0.0896
954.50 0.08993
954.60 0.09055
954.70 0.09117
954.80 0.09184
954.90 0.09251
955.00 0.09318
955.10 0.09386
955.20 0.09449
955.30 0.09513
955.40 0.09576
955.50 0.0964
955.60 0.09703
955.70 0.09766
955.80 0.0983
955.90 0.09885
956.00 0.0994
956.10 0.09995
956.20 0.1005
956.30 0.1011
956.40 0.1016
956.50 0.1022
956.60 0.1027
956.70 0.1033
956.80 0.1038
956.90 0.1044
957.00 0.1049
957.10 0.1054
957.20 0.1059
957.30 0.1064
957.40 0.1067
957.50 0.1071
957.60 0.1075
957.70 0.1079
957.80 0.1082
957.90 0.1086
958.00 0.109
958.10 0.1094
958.20 0.1098
958.30 0.1101
958.40 0.1105
958.50 0.1109
958.60 0.1113
958.70 0.1116
958.80 0.112
958.90 0.1124
959.00 0.1128
959.10 0.1131
959.20 0.1135
959.30 0.1139
959.40 0.1141
959.50 0.1144
959.60 0.1146
959.70 0.1148
959.80 0.115
959.90 0.1153
960.00 0.1155
960.10 0.1157
960.20 0.116
960.30 0.1162
960.40 0.1164
960.50 0.1166
960.60 0.1169
960.70 0.1171
960.80 0.1173
960.90 0.1176
961.00 0.1178
961.10 0.118
961.20 0.1182
961.30 0.1185
961.40 0.1186
961.50 0.1188
961.60 0.1189
961.70 0.1191
961.80 0.1192
961.90 0.1194
962.00 0.1195
962.10 0.1197
962.20 0.1198
962.30 0.1199
962.40 0.12
962.50 0.1201
962.60 0.1202
962.70 0.1203
962.80 0.1204
962.90 0.1205
963.00 0.1207
963.10 0.1208
963.20 0.1209
963.30 0.121
963.40 0.1211
963.50 0.1211
963.60 0.1212
963.70 0.1213
963.80 0.1214
963.90 0.1214
964.00 0.1215
964.10 0.1216
964.20 0.1217
964.30 0.1217
964.40 0.1218
964.50 0.1218
964.60 0.1218
964.70 0.1219
964.80 0.1219
964.90 0.122
965.00 0.122
965.10 0.122
965.20 0.1221
965.30 0.1221
965.40 0.1221
965.50 0.1222
965.60 0.1222
965.70 0.1222
965.80 0.1223
965.90 0.1223
966.00 0.1224
966.10 0.1224
966.20 0.1224
966.30 0.1225
966.40 0.1225
966.50 0.1225
966.60 0.1225
966.70 0.1225
966.80 0.1225
966.90 0.1225
967.00 0.1226
967.10 0.1226
967.20 0.1226
967.30 0.1226
967.40 0.1226
967.50 0.1226
967.60 0.1226
967.70 0.1226
967.80 0.1226
967.90 0.1226
968.00 0.1226
968.10 0.1226
968.20 0.1226
968.30 0.1226
968.40 0.1225
968.50 0.1225
968.60 0.1225
968.70 0.1225
968.80 0.1225
968.90 0.1225
969.00 0.1225
969.10 0.1225
969.20 0.1224
969.30 0.1224
969.40 0.1224
969.50 0.1224
969.60 0.1224
969.70 0.1224
969.80 0.1224
969.90 0.1223
970.00 0.1223
970.10 0.1223
970.20 0.1223
970.30 0.1223
970.40 0.1223
970.50 0.1222
970.60 0.1222
970.70 0.1222
970.80 0.1222
970.90 0.1222
971.00 0.1221
971.10 0.1221
971.20 0.1221
971.30 0.1221
971.40 0.122
971.50 0.122
971.60 0.122
971.70 0.122
971.80 0.1219
971.90 0.1219
972.00 0.1219
972.10 0.1219
972.20 0.1218
972.30 0.1218
972.40 0.1218
972.50 0.1217
972.60 0.1217
972.70 0.1217
972.80 0.1216
972.90 0.1216
973.00 0.1216
973.10 0.1215
973.20 0.1215
973.30 0.1215
973.40 0.1214
973.50 0.1214
973.60 0.1214
973.70 0.1213
973.80 0.1213
973.90 0.1213
974.00 0.1212
974.10 0.1212
974.20 0.1212
974.30 0.1211
974.40 0.1211
974.50 0.1211
974.60 0.121
974.70 0.121
974.80 0.121
974.90 0.1209
975.00 0.1209
975.10 0.1208
975.20 0.1208
975.30 0.1208
975.40 0.1207
975.50 0.1207
975.60 0.1207
975.70 0.1206
975.80 0.1206
975.90 0.1205
976.00 0.1205
976.10 0.1205
976.20 0.1204
976.30 0.1204
976.40 0.1204
976.50 0.1203
976.60 0.1203
976.70 0.1202
976.80 0.1202
976.90 0.1202
977.00 0.1201
977.10 0.1201
977.20 0.12
977.30 0.12
977.40 0.12
977.50 0.1199
977.60 0.1199
977.70 0.1198
977.80 0.1198
977.90 0.1197
978.00 0.1197
978.10 0.1196
978.20 0.1196
978.30 0.1196
978.40 0.1195
978.50 0.1195
978.60 0.1194
978.70 0.1194
978.80 0.1193
978.90 0.1193
979.00 0.1193
979.10 0.1192
979.20 0.1192
979.30 0.1191
979.40 0.1191
979.50 0.119
979.60 0.119
979.70 0.1189
979.80 0.1189
979.90 0.1189
980.00 0.1188
980.10 0.1188
980.20 0.1187
980.30 0.1187
980.40 0.1186
980.50 0.1186
980.60 0.1186
980.70 0.1185
980.80 0.1185
980.90 0.1184
981.00 0.1184
981.10 0.1183
981.20 0.1183
981.30 0.1182
981.40 0.1182
981.50 0.1182
981.60 0.1181
981.70 0.1181
981.80 0.118
981.90 0.118
982.00 0.1179
982.10 0.1179
982.20 0.1178
982.30 0.1178
982.40 0.1177
982.50 0.1177
982.60 0.1176
982.70 0.1176
982.80 0.1175
982.90 0.1175
983.00 0.1174
983.10 0.1174
983.20 0.1173
983.30 0.1173
983.40 0.1172
983.50 0.1172
983.60 0.1171
983.70 0.1171
983.80 0.1171
983.90 0.117
984.00 0.117
984.10 0.1169
984.20 0.1169
984.30 0.1168
984.40 0.1168
984.50 0.1167
984.60 0.1167
984.70 0.1166
984.80 0.1165
984.90 0.1165
985.00 0.1164
985.10 0.1164
985.20 0.1163
985.30 0.1163
985.40 0.1162
985.50 0.1162
985.60 0.1161
985.70 0.116
985.80 0.116
985.90 0.1159
986.00 0.1159
986.10 0.1158
986.20 0.1158
986.30 0.1157
986.40 0.1157
986.50 0.1156
986.60 0.1155
986.70 0.1155
986.80 0.1154
986.90 0.1154
987.00 0.1153
987.10 0.1153
987.20 0.1152
987.30 0.1151
987.40 0.1151
987.50 0.115
987.60 0.1149
987.70 0.1149
987.80 0.1148
987.90 0.1148
988.00 0.1147
988.10 0.1146
988.20 0.1146
988.30 0.1145
988.40 0.1144
988.50 0.1144
988.60 0.1143
988.70 0.1142
988.80 0.1142
988.90 0.1141
989.00 0.114
989.10 0.114
989.20 0.1139
989.30 0.1138
989.40 0.1137
989.50 0.1137
989.60 0.1136
989.70 0.1135
989.80 0.1135
989.90 0.1134
990.00 0.1133
990.10 0.1132
990.20 0.1132
990.30 0.1131
990.40 0.113
990.50 0.113
990.60 0.1129
990.70 0.1128
990.80 0.1127
990.90 0.1126
991.00 0.1125
991.10 0.1125
991.20 0.1124
991.30 0.1123
991.40 0.1122
991.50 0.1121
991.60 0.112
991.70 0.1119
991.80 0.1118
991.90 0.1117
992.00 0.1117
992.10 0.1116
992.20 0.1115
992.30 0.1114
992.40 0.1113
992.50 0.1112
992.60 0.1111
992.70 0.111
992.80 0.1109
992.90 0.1107
993.00 0.1106
993.10 0.1105
993.20 0.1104
993.30 0.1103
993.40 0.1102
993.50 0.11
993.60 0.1099
993.70 0.1098
993.80 0.1097
993.90 0.1096
994.00 0.1094
994.10 0.1093
994.20 0.1092
994.30 0.1091
994.40 0.109
994.50 0.1089
994.60 0.1087
994.70 0.1086
994.80 0.1085
994.90 0.1083
995.00 0.1082
995.10 0.108
995.20 0.1079
995.30 0.1077
995.40 0.1076
995.50 0.1074
995.60 0.1073
995.70 0.1071
995.80 0.1069
995.90 0.1067
996.00 0.1065
996.10 0.1064
996.20 0.1062
996.30 0.106
996.40 0.1058
996.50 0.1057
996.60 0.1055
996.70 0.1053
996.80 0.1051
996.90 0.1049
997.00 0.1048
997.10 0.1045
997.20 0.1043
997.30 0.1041
997.40 0.1039
997.50 0.1037
997.60 0.1035
997.70 0.1032
997.80 0.103
997.90 0.1027
998.00 0.1024
998.10 0.1022
998.20 0.1019
998.30 0.1016
998.40 0.1013
998.50 0.1011
998.60 0.1008
998.70 0.1005
998.80 0.1003
998.90 0.1
999.00 0.09973
999.10 0.09946
999.20 0.09919
999.30 0.09892
999.40 0.09865
999.50 0.09838
999.60 0.09811
999.70 0.09776
999.80 0.09738
999.90 0.097
1000.00 0.09662
1000.10 0.09624
1000.20 0.09586
1000.30 0.09548
1000.40 0.0951
1000.50 0.09472
1000.60 0.09434
1000.70 0.09396
1000.80 0.09358
1000.90 0.0932
1001.00 0.09282
1001.10 0.09244
1001.20 0.09206
1001.30 0.09168
1001.40 0.09131
1001.50 0.09093
1001.60 0.09055
1001.70 0.09011
1001.80 0.08965
1001.90 0.08919
1002.00 0.08873
1002.10 0.08822
1002.20 0.08771
1002.30 0.0872
1002.40 0.08669
1002.50 0.08618
1002.60 0.08566
1002.70 0.08515
1002.80 0.08464
1002.90 0.08413
1003.00 0.08362
1003.10 0.08311
1003.20 0.08254
1003.30 0.08194
1003.40 0.08134
1003.50 0.08074
1003.60 0.08015
1003.70 0.07955
1003.80 0.07895
1003.90 0.07825
1004.00 0.07751
1004.10 0.07677
1004.20 0.07603
1004.30 0.07509
1004.40 0.07407
1004.50 0.07298
1004.60 0.07252
1004.70 0.07247
1004.80 0.07351
1004.90 0.07448
1005.00 0.07544
1005.10 0.0762
1005.20 0.07688
1005.30 0.07757
1005.40 0.07826
1005.50 0.07883
1005.60 0.07937
1005.70 0.07992
1005.80 0.08046
1005.90 0.081
1006.00 0.08154
1006.10 0.08208
1006.20 0.08256
1006.30 0.08301
1006.40 0.08347
1006.50 0.08393
1006.60 0.08439
1006.70 0.08484
1006.80 0.0853
1006.90 0.08576
1007.00 0.08621
1007.10 0.08661
1007.20 0.08701
1007.30 0.08741
1007.40 0.08781
1007.50 0.08821
1007.60 0.08861
1007.70 0.08894
1007.80 0.08924
1007.90 0.08955
1008.00 0.08986
1008.10 0.09016
1008.20 0.09047
1008.30 0.09077
1008.40 0.09108
1008.50 0.09139
1008.60 0.09169
1008.70 0.092
1008.80 0.0923
1008.90 0.09261
1009.00 0.09291
1009.10 0.09322
1009.20 0.09352
1009.30 0.09383
1009.40 0.09413
1009.50 0.09444
1009.60 0.09474
1009.70 0.09496
1009.80 0.09515
1009.90 0.09534
1010.00 0.09553
1010.10 0.09573
1010.20 0.09592
1010.30 0.09611
1010.40 0.0963
1010.50 0.09649
1010.60 0.09668
1010.70 0.09687
1010.80 0.09706
1010.90 0.09725
1011.00 0.09744
1011.10 0.09763
1011.20 0.09782
1011.30 0.09802
1011.40 0.09821
1011.50 0.0984
1011.60 0.09859
1011.70 0.09873
1011.80 0.09886
1011.90 0.099
1012.00 0.09913
1012.10 0.09923
1012.20 0.09933
1012.30 0.09943
1012.40 0.09954
1012.50 0.09964
1012.60 0.09974
1012.70 0.09984
1012.80 0.09994
1012.90 0.1
1013.00 0.1001
1013.10 0.1002
1013.20 0.1003
1013.30 0.1005
1013.40 0.1006
1013.50 0.1007
1013.60 0.1008
1013.70 0.1008
1013.80 0.1009
1013.90 0.101
1014.00 0.101
1014.10 0.1011
1014.20 0.1012
1014.30 0.1012
1014.40 0.1013
1014.50 0.1014
1014.60 0.1014
1014.70 0.1015
1014.80 0.1015
1014.90 0.1016
1015.00 0.1016
1015.10 0.1016
1015.20 0.1017
1015.30 0.1017
1015.40 0.1017
1015.50 0.1018
1015.60 0.1018
1015.70 0.1019
1015.80 0.1019
1015.90 0.1019
1016.00 0.102
1016.10 0.102
1016.20 0.102
1016.30 0.1021
1016.40 0.1021
1016.50 0.1021
1016.60 0.1022
1016.70 0.1022
1016.80 0.1022
1016.90 0.1022
1017.00 0.1022
1017.10 0.1023
1017.20 0.1023
1017.30 0.1023
1017.40 0.1023
1017.50 0.1023
1017.60 0.1023
1017.70 0.1023
1017.80 0.1023
1017.90 0.1023
1018.00 0.1023
1018.10 0.1023
1018.20 0.1024
1018.30 0.1024
1018.40 0.1024
1018.50 0.1024
1018.60 0.1024
1018.70 0.1024
1018.80 0.1024
1018.90 0.1024
1019.00 0.1024
1019.10 0.1023
1019.20 0.1023
1019.30 0.1023
1019.40 0.1023
1019.50 0.1023
1019.60 0.1023
1019.70 0.1023
1019.80 0.1023
1019.90 0.1023
1020.00 0.1023
1020.10 0.1023
1020.20 0.1023
1020.30 0.1023
1020.40 0.1022
1020.50 0.1022
1020.60 0.1022
1020.70 0.1022
1020.80 0.1022
1020.90 0.1022
1021.00 0.1022
1021.10 0.1022
1021.20 0.1021
1021.30 0.1021
1021.40 0.1021
1021.50 0.1021
1021.60 0.1021
1021.70 0.1021
1021.80 0.1021
1021.90 0.102
1022.00 0.102
1022.10 0.102
1022.20 0.102
1022.30 0.102
1022.40 0.1019
1022.50 0.1019
1022.60 0.1019
1022.70 0.1019
1022.80 0.1018
1022.90 0.1018
1023.00 0.1018
1023.10 0.1018
1023.20 0.1018
1023.30 0.1017
1023.40 0.1017
1023.50 0.1017
1023.60 0.1017
1023.70 0.1017
1023.80 0.1016
1023.90 0.1016
1024.00 0.1016
1024.10 0.1016
1024.20 0.1015
1024.30 0.1015
1024.40 0.1015
1024.50 0.1015
1024.60 0.1015
1024.70 0.1014
1024.80 0.1014
1024.90 0.1014
1025.00 0.1013
1025.10 0.1013
1025.20 0.1013
1025.30 0.1013
1025.40 0.1012
1025.50 0.1012
1025.60 0.1012
1025.70 0.1012
1025.80 0.1011
1025.90 0.1011
1026.00 0.1011
1026.10 0.101
1026.20 0.101
1026.30 0.101
1026.40 0.101
1026.50 0.1009
1026.60 0.1009
1026.70 0.1009
1026.80 0.1009
1026.90 0.1008
1027.00 0.1008
1027.10 0.1008
1027.20 0.1007
1027.30 0.1007
1027.40 0.1007
1027.50 0.1006
1027.60 0.1006
1027.70 0.1006
1027.80 0.1006
1027.90 0.1005
1028.00 0.1005
1028.10 0.1005
1028.20 0.1004
1028.30 0.1004
1028.40 0.1004
1028.50 0.1003
1028.60 0.1003
1028.70 0.1003
1028.80 0.1003
1028.90 0.1002
1029.00 0.1002
1029.10 0.1002
1029.20 0.1001
1029.30 0.1001
1029.40 0.1001
1029.50 0.1
1029.60 0.1
1029.70 0.09998
1029.80 0.09995
1029.90 0.09992
1030.00 0.09989
1030.10 0.09986
1030.20 0.09983
1030.30 0.0998
1030.40 0.09977
1030.50 0.09974
1030.60 0.09971
1030.70 0.09968
1030.80 0.09965
1030.90 0.09962
1031.00 0.09959
1031.10 0.09956
1031.20 0.09953
1031.30 0.0995
1031.40 0.09947
1031.50 0.09944
1031.60 0.09941
1031.70 0.09938
1031.80 0.09935
1031.90 0.09932
1032.00 0.09929
1032.10 0.09926
1032.20 0.09922
1032.30 0.09919
1032.40 0.09916
1032.50 0.09913
1032.60 0.0991
1032.70 0.09906
1032.80 0.09903
1032.90 0.099
1033.00 0.09897
1033.10 0.09893
1033.20 0.0989
1033.30 0.09887
1033.40 0.09884
1033.50 0.09881
1033.60 0.09877
1033.70 0.09874
1033.80 0.09871
1033.90 0.09868
1034.00 0.09865
1034.10 0.09861
1034.20 0.09858
1034.30 0.09855
1034.40 0.09852
1034.50 0.09849
1034.60 0.09845
1034.70 0.09842
1034.80 0.09839
1034.90 0.09836
1035.00 0.09833
1035.10 0.09829
1035.20 0.09826
1035.30 0.09823
1035.40 0.0982
1035.50 0.09817
1035.60 0.09813
1035.70 0.0981
1035.80 0.09807
1035.90 0.09804
1036.00 0.09801
1036.10 0.09797
1036.20 0.09794
1036.30 0.09791
1036.40 0.09788
1036.50 0.09785
1036.60 0.09782
1036.70 0.09778
1036.80 0.09775
1036.90 0.09772
1037.00 0.09769
1037.10 0.09766
1037.20 0.09762
1037.30 0.09759
1037.40 0.09756
1037.50 0.09752
1037.60 0.09749
1037.70 0.09746
1037.80 0.09743
1037.90 0.09739
1038.00 0.09736
1038.10 0.09733
1038.20 0.0973
1038.30 0.09726
1038.40 0.09723
1038.50 0.0972
1038.60 0.09716
1038.70 0.09713
1038.80 0.0971
1038.90 0.09707
1039.00 0.09703
1039.10 0.097
1039.20 0.09697
1039.30 0.09694
1039.40 0.0969
1039.50 0.09687
1039.60 0.09684
1039.70 0.09681
1039.80 0.09677
1039.90 0.09674
1040.00 0.09671
1040.10 0.09668
1040.20 0.09664
1040.30 0.09661
1040.40 0.09658
1040.50 0.09655
1040.60 0.09651
1040.70 0.09648
1040.80 0.09645
1040.90 0.09642
1041.00 0.09639
1041.10 0.09635
1041.20 0.09632
1041.30 0.09629
1041.40 0.09626
1041.50 0.09622
1041.60 0.09619
1041.70 0.09616
1041.80 0.09613
1041.90 0.09609
1042.00 0.09606
1042.10 0.09603
1042.20 0.096
1042.30 0.09596
1042.40 0.09593
1042.50 0.0959
1042.60 0.09587
1042.70 0.09583
1042.80 0.0958
1042.90 0.09577
1043.00 0.09573
1043.10 0.0957
1043.20 0.09567
1043.30 0.09564
1043.40 0.0956
1043.50 0.09557
1043.60 0.09554
1043.70 0.09551
1043.80 0.09547
1043.90 0.09544
1044.00 0.09541
1044.10 0.09538
1044.20 0.09534
1044.30 0.09531
1044.40 0.09528
1044.50 0.09524
1044.60 0.09521
1044.70 0.09518
1044.80 0.09515
1044.90 0.09511
1045.00 0.09508
1045.10 0.09505
1045.20 0.09502
1045.30 0.09498
1045.40 0.09495
1045.50 0.09492
1045.60 0.09489
1045.70 0.09485
1045.80 0.09482
1045.90 0.09479
1046.00 0.09476
1046.10 0.09473
1046.20 0.09469
1046.30 0.09466
1046.40 0.09463
1046.50 0.0946
1046.60 0.09456
1046.70 0.09453
1046.80 0.0945
1046.90 0.09447
1047.00 0.09443
1047.10 0.0944
1047.20 0.09437
1047.30 0.09434
1047.40 0.0943
1047.50 0.09427
1047.60 0.09424
1047.70 0.09421
1047.80 0.09417
1047.90 0.09414
1048.00 0.09411
1048.10 0.09408
1048.20 0.09404
1048.30 0.09401
1048.40 0.09398
1048.50 0.09395
1048.60 0.09391
1048.70 0.09388
1048.80 0.09385
1048.90 0.09382
1049.00 0.09378
1049.10 0.09375
1049.20 0.09372
1049.30 0.09369
1049.40 0.09366
1049.50 0.09362
1049.60 0.09359
1049.70 0.09356
1049.80 0.09353
1049.90 0.09349
1050.00 0.09346
1050.10 0.09343
1050.20 0.0934
1050.30 0.09336
1050.40 0.09333
1050.50 0.0933
1050.60 0.09327
1050.70 0.09324
1050.80 0.0932
1050.90 0.09317
1051.00 0.09314
1051.10 0.09311
1051.20 0.09308
1051.30 0.09304
1051.40 0.09301
1051.50 0.09298
1051.60 0.09295
1051.70 0.09291
1051.80 0.09288
1051.90 0.09285
1052.00 0.09282
1052.10 0.09279
1052.20 0.09275
1052.30 0.09272
1052.40 0.09269
1052.50 0.09266
1052.60 0.09262
1052.70 0.09259
1052.80 0.09256
1052.90 0.09253
1053.00 0.09249
1053.10 0.09246
1053.20 0.09243
1053.30 0.0924
1053.40 0.09236
1053.50 0.09233
1053.60 0.0923
1053.70 0.09227
1053.80 0.09224
1053.90 0.0922
1054.00 0.09217
1054.10 0.09214
1054.20 0.09211
1054.30 0.09207
1054.40 0.09204
1054.50 0.09201
1054.60 0.09198
1054.70 0.09195
1054.80 0.09191
1054.90 0.09188
1055.00 0.09185
1055.10 0.09182
1055.20 0.09178
1055.30 0.09175
1055.40 0.09172
1055.50 0.09169
1055.60 0.09166
1055.70 0.09162
1055.80 0.09159
1055.90 0.09156
1056.00 0.09153
1056.10 0.0915
1056.20 0.09146
1056.30 0.09143
1056.40 0.0914
1056.50 0.09137
1056.60 0.09134
1056.70 0.0913
1056.80 0.09127
1056.90 0.09124
1057.00 0.09121
1057.10 0.09118
1057.20 0.09114
1057.30 0.09111
1057.40 0.09108
1057.50 0.09105
1057.60 0.09101
1057.70 0.09098
1057.80 0.09095
1057.90 0.09092
1058.00 0.09088
1058.10 0.09085
1058.20 0.09082
1058.30 0.09079
1058.40 0.09075
1058.50 0.09072
1058.60 0.09069
1058.70 0.09066
1058.80 0.09062
1058.90 0.09059
1059.00 0.09056
1059.10 0.09053
1059.20 0.0905
1059.30 0.09046
1059.40 0.09043
1059.50 0.0904
1059.60 0.09037
1059.70 0.09033
1059.80 0.0903
1059.90 0.09027
1060.00 0.09024
1060.10 0.09021
1060.20 0.09017
1060.30 0.09014
1060.40 0.09011
1060.50 0.09008
1060.60 0.09004
1060.70 0.09001
1060.80 0.08998
1060.90 0.08995
1061.00 0.08992
1061.10 0.08988
1061.20 0.08985
1061.30 0.08982
1061.40 0.08979
1061.50 0.08976
1061.60 0.08972
1061.70 0.08969
1061.80 0.08966
1061.90 0.08963
1062.00 0.0896
1062.10 0.08956
1062.20 0.08953
1062.30 0.0895
1062.40 0.08946
1062.50 0.08943
1062.60 0.0894
1062.70 0.08936
1062.80 0.08933
1062.90 0.0893
1063.00 0.08927
1063.10 0.08923
1063.20 0.0892
1063.30 0.08917
1063.40 0.08913
1063.50 0.0891
1063.60 0.08907
1063.70 0.08904
1063.80 0.089
1063.90 0.08897
1064.00 0.08894
1064.10 0.0889
1064.20 0.08887
1064.30 0.08884
1064.40 0.08881
1064.50 0.08877
1064.60 0.08874
1064.70 0.08871
1064.80 0.08867
1064.90 0.08864
1065.00 0.08861
1065.10 0.08858
1065.20 0.08854
1065.30 0.08851
1065.40 0.08848
1065.50 0.08845
1065.60 0.08841
1065.70 0.08838
1065.80 0.08835
1065.90 0.08832
1066.00 0.08828
1066.10 0.08825
1066.20 0.08822
1066.30 0.08818
1066.40 0.08815
1066.50 0.08812
1066.60 0.08809
1066.70 0.08805
1066.80 0.08802
1066.90 0.08799
1067.00 0.08796
1067.10 0.08792
1067.20 0.08789
1067.30 0.08785
1067.40 0.08782
1067.50 0.08778
1067.60 0.08775
1067.70 0.08771
1067.80 0.08768
1067.90 0.08764
1068.00 0.08761
1068.10 0.08757
1068.20 0.08754
1068.30 0.08751
1068.40 0.08747
1068.50 0.08744
1068.60 0.0874
1068.70 0.08737
1068.80 0.08733
1068.90 0.0873
1069.00 0.08726
1069.10 0.08723
1069.20 0.08719
1069.30 0.08716
1069.40 0.08713
1069.50 0.08709
1069.60 0.08706
1069.70 0.08702
1069.80 0.08699
1069.90 0.08695
1070.00 0.08692
1070.10 0.08688
1070.20 0.08685
1070.30 0.08681
1070.40 0.08678
1070.50 0.08675
1070.60 0.08671
1070.70 0.08668
1070.80 0.08664
1070.90 0.08661
1071.00 0.08657
1071.10 0.08654
1071.20 0.08651
1071.30 0.08647
1071.40 0.08644
1071.50 0.0864
1071.60 0.08637
1071.70 0.08633
1071.80 0.0863
1071.90 0.08627
1072.00 0.08623
1072.10 0.08619
1072.20 0.08616
1072.30 0.08612
1072.40 0.08608
1072.50 0.08605
1072.60 0.08601
1072.70 0.08597
1072.80 0.08594
1072.90 0.0859
1073.00 0.08586
1073.10 0.08583
1073.20 0.08579
1073.30 0.08575
1073.40 0.08571
1073.50 0.08568
1073.60 0.08564
1073.70 0.08559
1073.80 0.08555
1073.90 0.08551
1074.00 0.08547
1074.10 0.08543
1074.20 0.08539
1074.30 0.08535
1074.40 0.08531
1074.50 0.08527
1074.60 0.08523
1074.70 0.08519
1074.80 0.08515
1074.90 0.08511
1075.00 0.08506
1075.10 0.08502
1075.20 0.08498
1075.30 0.08494
1075.40 0.0849
1075.50 0.08486
1075.60 0.08482
1075.70 0.08478
1075.80 0.08474
1075.90 0.0847
1076.00 0.08466
1076.10 0.08462
1076.20 0.08458
1076.30 0.08454
1076.40 0.0845
1076.50 0.08446
1076.60 0.08442
1076.70 0.08438
1076.80 0.08433
1076.90 0.08429
1077.00 0.08425
1077.10 0.08421
1077.20 0.08416
1077.30 0.08412
1077.40 0.08407
1077.50 0.08403
1077.60 0.08398
1077.70 0.08393
1077.80 0.08388
1077.90 0.08383
1078.00 0.08378
1078.10 0.08373
1078.20 0.08368
1078.30 0.08363
1078.40 0.08358
1078.50 0.08353
1078.60 0.08348
1078.70 0.08343
1078.80 0.08338
1078.90 0.08333
1079.00 0.08328
1079.10 0.08323
1079.20 0.08318
1079.30 0.08313
1079.40 0.08308
1079.50 0.08302
1079.60 0.08296
1079.70 0.0829
1079.80 0.08284
1079.90 0.08278
1080.00 0.08272
1080.10 0.08266
1080.20 0.0826
1080.30 0.08253
1080.40 0.08247
1080.50 0.08241
1080.60 0.08235
1080.70 0.08229
1080.80 0.08223
1080.90 0.08217
1081.00 0.08211
1081.10 0.08205
1081.20 0.08199
1081.30 0.08192
1081.40 0.08186
1081.50 0.0818
1081.60 0.08173
1081.70 0.08166
1081.80 0.08159
1081.90 0.08153
1082.00 0.08146
1082.10 0.08137
1082.20 0.08129
1082.30 0.08121
1082.40 0.08113
1082.50 0.08104
1082.60 0.08096
1082.70 0.08088
1082.80 0.0808
1082.90 0.08071
1083.00 0.08063
1083.10 0.08055
1083.20 0.08047
1083.30 0.08039
1083.40 0.0803
1083.50 0.08022
1083.60 0.08012
1083.70 0.08003
1083.80 0.07993
1083.90 0.07984
1084.00 0.07975
1084.10 0.07965
1084.20 0.07956
1084.30 0.07947
1084.40 0.07937
1084.50 0.07927
1084.60 0.07914
1084.70 0.07901
1084.80 0.07888
1084.90 0.07875
1085.00 0.07862
1085.10 0.07849
1085.20 0.07836
1085.30 0.07824
1085.40 0.07811
1085.50 0.07798
1085.60 0.07785
1085.70 0.07772
1085.80 0.07759
1085.90 0.07747
1086.00 0.07734
1086.10 0.07721
1086.20 0.07708
1086.30 0.07695
1086.40 0.07682
1086.50 0.07669
1086.60 0.07654
1086.70 0.07639
1086.80 0.07624
1086.90 0.07608
1087.00 0.07593
1087.10 0.07574
1087.20 0.07555
1087.30 0.07536
1087.40 0.07517
1087.50 0.07498
1087.60 0.07479
1087.70 0.0746
1087.80 0.07441
1087.90 0.07422
1088.00 0.07403
1088.10 0.07384
1088.20 0.07365
1088.30 0.07346
1088.40 0.07327
1088.50 0.07306
1088.60 0.07281
1088.70 0.07255
1088.80 0.07229
1088.90 0.07203
1089.00 0.07177
1089.10 0.07152
1089.20 0.07126
1089.30 0.071
1089.40 0.07075
1089.50 0.07049
1089.60 0.07023
1089.70 0.06997
1089.80 0.06972
1089.90 0.06946
1090.00 0.06921
1090.10 0.06895
1090.20 0.06869
1090.30 0.06844
1090.40 0.06818
1090.50 0.0679
1090.60 0.06755
1090.70 0.06721
1090.80 0.06686
1090.90 0.06652
1091.00 0.06618
1091.10 0.06583
1091.20 0.06549
1091.30 0.06515
1091.40 0.0648
1091.50 0.06446
1091.60 0.06412
1091.70 0.06378
1091.80 0.06343
1091.90 0.06309
1092.00 0.06273
1092.10 0.06231
1092.20 0.06188
1092.30 0.06145
1092.40 0.06102
1092.50 0.06059
1092.60 0.06016
1092.70 0.05968
1092.80 0.05909
1092.90 0.0585
1093.00 0.05792
1093.10 0.05719
1093.20 0.05616
1093.30 0.05508
1093.40 0.05348
1093.50 0.05309
1093.60 0.05449
1093.70 0.05572
1093.80 0.05671
1093.90 0.05756
1094.00 0.05811
1094.10 0.05866
1094.20 0.05921
1094.30 0.05971
1094.40 0.0601
1094.50 0.06049
1094.60 0.06087
1094.70 0.06126
1094.80 0.06165
1094.90 0.06204
1095.00 0.0624
1095.10 0.06269
1095.20 0.06299
1095.30 0.06329
1095.40 0.06359
1095.50 0.06389
1095.60 0.06418
1095.70 0.06448
1095.80 0.06478
1095.90 0.06508
1096.00 0.06538
1096.10 0.06567
1096.20 0.06597
1096.30 0.06627
1096.40 0.06656
1096.50 0.06684
1096.60 0.06708
1096.70 0.06732
1096.80 0.06756
1096.90 0.0678
1097.00 0.06804
1097.10 0.06823
1097.20 0.06843
1097.30 0.06862
1097.40 0.06882
1097.50 0.06901
1097.60 0.06921
1097.70 0.0694
1097.80 0.06959
1097.90 0.06979
1098.00 0.06998
1098.10 0.07017
1098.20 0.07037
1098.30 0.07056
1098.40 0.07075
1098.50 0.07093
1098.60 0.07105
1098.70 0.07118
1098.80 0.0713
1098.90 0.07143
1099.00 0.07155
1099.10 0.07168
1099.20 0.0718
1099.30 0.07193
1099.40 0.07205
1099.50 0.07218
1099.60 0.0723
1099.70 0.07243
1099.80 0.07255
1099.90 0.07268
1100.00 0.0728
1100.10 0.07293
1100.20 0.07305
1100.30 0.07317
1100.40 0.0733
1100.50 0.07341
1100.60 0.07348
1100.70 0.07356
1100.80 0.07363
1100.90 0.07371
1101.00 0.07378
1101.10 0.07386
1101.20 0.07393
1101.30 0.07401
1101.40 0.07408
1101.50 0.07416
1101.60 0.07423
1101.70 0.07431
1101.80 0.07438
1101.90 0.07446
1102.00 0.07453
1102.10 0.07458
1102.20 0.07463
1102.30 0.07468
1102.40 0.07474
1102.50 0.07478
1102.60 0.07483
1102.70 0.07487
1102.80 0.07492
1102.90 0.07496
1103.00 0.075
1103.10 0.07505
1103.20 0.07509
1103.30 0.07513
1103.40 0.07518
1103.50 0.07522
1103.60 0.07524
1103.70 0.07526
1103.80 0.07528
1103.90 0.07531
1104.00 0.07533
1104.10 0.07535
1104.20 0.07537
1104.30 0.0754
1104.40 0.07542
1104.50 0.07544
1104.60 0.07546
1104.70 0.07548
1104.80 0.07551
1104.90 0.07553
1105.00 0.07555
1105.10 0.07557
1105.20 0.0756
1105.30 0.07562
1105.40 0.07564
1105.50 0.07566
1105.60 0.07567
1105.70 0.07567
1105.80 0.07568
1105.90 0.07569
1106.00 0.07569
1106.10 0.0757
1106.20 0.07571
1106.30 0.07572
1106.40 0.07572
1106.50 0.07573
1106.60 0.07574
1106.70 0.07574
1106.80 0.07575
1106.90 0.07576
1107.00 0.07577
1107.10 0.07576
1107.20 0.07576
1107.30 0.07576
1107.40 0.07576
1107.50 0.07576
1107.60 0.07575
1107.70 0.07575
1107.80 0.07574
1107.90 0.07574
1108.00 0.07573
1108.10 0.07572
1108.20 0.07572
1108.30 0.07571
1108.40 0.07571
1108.50 0.0757
1108.60 0.0757
1108.70 0.07569
1108.80 0.07568
1108.90 0.07568
1109.00 0.07567
1109.10 0.07567
1109.20 0.07566
1109.30 0.07566
1109.40 0.07565
1109.50 0.07564
1109.60 0.07563
1109.70 0.07562
1109.80 0.07561
1109.90 0.07559
1110.00 0.07558
1110.10 0.07557
1110.20 0.07556
1110.30 0.07554
1110.40 0.07553
1110.50 0.07552
1110.60 0.07551
1110.70 0.07549
1110.80 0.07548
1110.90 0.07547
1111.00 0.07546
1111.10 0.07544
1111.20 0.07543
1111.30 0.07542
1111.40 0.07541
1111.50 0.07539
1111.60 0.07538
1111.70 0.07537
1111.80 0.07536
1111.90 0.07534
1112.00 0.07533
1112.10 0.07532
1112.20 0.0753
1112.30 0.07528
1112.40 0.07527
1112.50 0.07525
1112.60 0.07524
1112.70 0.07522
1112.80 0.0752
1112.90 0.07519
1113.00 0.07517
1113.10 0.07516
1113.20 0.07514
1113.30 0.07512
1113.40 0.07511
1113.50 0.07509
1113.60 0.07507
1113.70 0.07505
1113.80 0.07503
1113.90 0.07501
1114.00 0.075
1114.10 0.07498
1114.20 0.07496
1114.30 0.07494
1114.40 0.07492
1114.50 0.0749
1114.60 0.07488
1114.70 0.07486
1114.80 0.07485
1114.90 0.07483
1115.00 0.07481
1115.10 0.07479
1115.20 0.07477
1115.30 0.07475
1115.40 0.07473
1115.50 0.07471
1115.60 0.0747
1115.70 0.07468
1115.80 0.07466
1115.90 0.07464
1116.00 0.07462
1116.10 0.0746
1116.20 0.07458
1116.30 0.07457
1116.40 0.07455
1116.50 0.07453
1116.60 0.07451
1116.70 0.07449
1116.80 0.07447
1116.90 0.07445
1117.00 0.07443
1117.10 0.07441
1117.20 0.07439
1117.30 0.07437
1117.40 0.07435
1117.50 0.07433
1117.60 0.07431
1117.70 0.07429
1117.80 0.07427
1117.90 0.07425
1118.00 0.07422
1118.10 0.0742
1118.20 0.07418
1118.30 0.07416
1118.40 0.07414
1118.50 0.07412
1118.60 0.0741
1118.70 0.07408
1118.80 0.07406
1118.90 0.07404
1119.00 0.07401
1119.10 0.07399
1119.20 0.07397
1119.30 0.07395
1119.40 0.07393
1119.50 0.07391
1119.60 0.07389
1119.70 0.07387
1119.80 0.07385
1119.90 0.07383
1120.00 0.07381
1120.10 0.07378
1120.20 0.07376
1120.30 0.07374
1120.40 0.07372
1120.50 0.0737
1120.60 0.07368
1120.70 0.07366
1120.80 0.07364
1120.90 0.07362
1121.00 0.0736
1121.10 0.07358
1121.20 0.07355
1121.30 0.07353
1121.40 0.07351
1121.50 0.07349
1121.60 0.07347
1121.70 0.07345
1121.80 0.07343
1121.90 0.07341
1122.00 0.07339
1122.10 0.07337
1122.20 0.07334
1122.30 0.07332
1122.40 0.0733
1122.50 0.07328
1122.60 0.07326
1122.70 0.07323
1122.80 0.07321
1122.90 0.07319
1123.00 0.07317
1123.10 0.07315
1123.20 0.07312
1123.30 0.0731
1123.40 0.07308
1123.50 0.07306
1123.60 0.07304
1123.70 0.07301
1123.80 0.07299
1123.90 0.07297
1124.00 0.07295
1124.10 0.07293
1124.20 0.0729
1124.30 0.07288
1124.40 0.07286
1124.50 0.07284
1124.60 0.07282
1124.70 0.07279
1124.80 0.07277
1124.90 0.07275
1125.00 0.07273
1125.10 0.07271
1125.20 0.07269
1125.30 0.07266
1125.40 0.07264
1125.50 0.07262
1125.60 0.0726
1125.70 0.07258
1125.80 0.07255
1125.90 0.07253
1126.00 0.07251
1126.10 0.07249
1126.20 0.07247
1126.30 0.07245
1126.40 0.07242
1126.50 0.0724
1126.60 0.07238
1126.70 0.07236
1126.80 0.07234
1126.90 0.07231
1127.00 0.07229
1127.10 0.07227
1127.20 0.07225
1127.30 0.07223
1127.40 0.0722
1127.50 0.07218
1127.60 0.07216
1127.70 0.07214
1127.80 0.07211
1127.90 0.07209
1128.00 0.07207
1128.10 0.07205
1128.20 0.07202
1128.30 0.072
1128.40 0.07198
1128.50 0.07196
1128.60 0.07194
1128.70 0.07191
1128.80 0.07189
1128.90 0.07187
1129.00 0.07185
1129.10 0.07182
1129.20 0.0718
1129.30 0.07178
1129.40 0.07176
1129.50 0.07174
1129.60 0.07171
1129.70 0.07169
1129.80 0.07167
1129.90 0.07165
1130.00 0.07162
1130.10 0.0716
1130.20 0.07158
1130.30 0.07156
1130.40 0.07154
1130.50 0.07151
1130.60 0.07149
1130.70 0.07147
1130.80 0.07145
1130.90 0.07143
1131.00 0.0714
1131.10 0.07138
1131.20 0.07136
1131.30 0.07134
1131.40 0.07131
1131.50 0.07129
1131.60 0.07127
1131.70 0.07125
1131.80 0.07123
1131.90 0.0712
1132.00 0.07118
1132.10 0.07116
1132.20 0.07114
1132.30 0.07112
1132.40 0.07109
1132.50 0.07107
1132.60 0.07105
1132.70 0.07103
1132.80 0.071
1132.90 0.07098
1133.00 0.07096
1133.10 0.07094
1133.20 0.07092
1133.30 0.07089
1133.40 0.07087
1133.50 0.07085
1133.60 0.07083
1133.70 0.07081
1133.80 0.07078
1133.90 0.07076
1134.00 0.07074
1134.10 0.07072
1134.20 0.07069
1134.30 0.07067
1134.40 0.07065
1134.50 0.07063
1134.60 0.07061
1134.70 0.07058
1134.80 0.07056
1134.90 0.07054
1135.00 0.07052
1135.10 0.0705
1135.20 0.07047
1135.30 0.07045
1135.40 0.07043
1135.50 0.07041
1135.60 0.07039
1135.70 0.07036
1135.80 0.07034
1135.90 0.07032
1136.00 0.0703
1136.10 0.07028
1136.20 0.07025
1136.30 0.07023
1136.40 0.07021
1136.50 0.07019
1136.60 0.07017
1136.70 0.07014
1136.80 0.07012
1136.90 0.0701
1137.00 0.07008
1137.10 0.07006
1137.20 0.07003
1137.30 0.07001
1137.40 0.06999
1137.50 0.06997
1137.60 0.06995
1137.70 0.06992
1137.80 0.0699
1137.90 0.06988
1138.00 0.06986
1138.10 0.06984
1138.20 0.06981
1138.30 0.06979
1138.40 0.06977
1138.50 0.06975
1138.60 0.06973
1138.70 0.0697
1138.80 0.06968
1138.90 0.06966
1139.00 0.06964
1139.10 0.06962
1139.20 0.0696
1139.30 0.06957
1139.40 0.06955
1139.50 0.06953
1139.60 0.06951
1139.70 0.06949
1139.80 0.06946
1139.90 0.06944
1140.00 0.06942
1140.10 0.0694
1140.20 0.06938
1140.30 0.06935
1140.40 0.06933
1140.50 0.06931
1140.60 0.06929
1140.70 0.06927
1140.80 0.06925
1140.90 0.06922
1141.00 0.0692
1141.10 0.06918
1141.20 0.06916
1141.30 0.06914
1141.40 0.06912
1141.50 0.06909
1141.60 0.06907
1141.70 0.06905
1141.80 0.06903
1141.90 0.06901
1142.00 0.06898
1142.10 0.06896
1142.20 0.06894
1142.30 0.06892
1142.40 0.0689
1142.50 0.06888
1142.60 0.06885
1142.70 0.06883
1142.80 0.06881
1142.90 0.06879
1143.00 0.06877
1143.10 0.06875
1143.20 0.06872
1143.30 0.0687
1143.40 0.06868
1143.50 0.06866
1143.60 0.06864
1143.70 0.06862
1143.80 0.06859
1143.90 0.06857
1144.00 0.06855
1144.10 0.06853
1144.20 0.06851
1144.30 0.06849
1144.40 0.06847
1144.50 0.06844
1144.60 0.06842
1144.70 0.0684
1144.80 0.06838
1144.90 0.06836
1145.00 0.06834
1145.10 0.06831
1145.20 0.06829
1145.30 0.06827
1145.40 0.06825
1145.50 0.06823
1145.60 0.06821
1145.70 0.06819
1145.80 0.06816
1145.90 0.06814
1146.00 0.06812
1146.10 0.0681
1146.20 0.06808
1146.30 0.06806
1146.40 0.06804
1146.50 0.06801
1146.60 0.06799
1146.70 0.06797
1146.80 0.06795
1146.90 0.06793
1147.00 0.06791
1147.10 0.06789
1147.20 0.06786
1147.30 0.06784
1147.40 0.06782
1147.50 0.0678
1147.60 0.06778
1147.70 0.06776
1147.80 0.06774
1147.90 0.06772
1148.00 0.06769
1148.10 0.06767
1148.20 0.06765
1148.30 0.06763
1148.40 0.06761
1148.50 0.06759
1148.60 0.06757
1148.70 0.06754
1148.80 0.06752
1148.90 0.0675
1149.00 0.06748
1149.10 0.06746
1149.20 0.06744
1149.30 0.06742
1149.40 0.0674
1149.50 0.06737
1149.60 0.06735
1149.70 0.06733
1149.80 0.06731
1149.90 0.06729
1150.00 0.06727
1150.10 0.06725
1150.20 0.06723
1150.30 0.0672
1150.40 0.06718
1150.50 0.06716
1150.60 0.06714
1150.70 0.06712
1150.80 0.0671
1150.90 0.06708
1151.00 0.06706
1151.10 0.06704
1151.20 0.06701
1151.30 0.06699
1151.40 0.06697
1151.50 0.06695
1151.60 0.06693
1151.70 0.06691
1151.80 0.06689
1151.90 0.06687
1152.00 0.06685
1152.10 0.06682
1152.20 0.0668
1152.30 0.06678
1152.40 0.06676
1152.50 0.06674
1152.60 0.06672
1152.70 0.0667
1152.80 0.06668
1152.90 0.06666
1153.00 0.06664
1153.10 0.06661
1153.20 0.06659
1153.30 0.06657
1153.40 0.06655
1153.50 0.06653
1153.60 0.06651
1153.70 0.06649
1153.80 0.06647
1153.90 0.06645
1154.00 0.06643
1154.10 0.06641
1154.20 0.06638
1154.30 0.06636
1154.40 0.06634
1154.50 0.06632
1154.60 0.0663
1154.70 0.06628
1154.80 0.06626
1154.90 0.06624
1155.00 0.06622
1155.10 0.0662
1155.20 0.06618
1155.30 0.06616
1155.40 0.06613
1155.50 0.06611
1155.60 0.06609
1155.70 0.06607
1155.80 0.06605
1155.90 0.06603
1156.00 0.06601
1156.10 0.06599
1156.20 0.06597
1156.30 0.06595
1156.40 0.06593
1156.50 0.06591
1156.60 0.06589
1156.70 0.06586
1156.80 0.06584
1156.90 0.06582
1157.00 0.0658
1157.10 0.06578
1157.20 0.06576
1157.30 0.06574
1157.40 0.06572
1157.50 0.0657
1157.60 0.06568
1157.70 0.06566
1157.80 0.06564
1157.90 0.06562
1158.00 0.0656
1158.10 0.06558
1158.20 0.06556
1158.30 0.06553
1158.40 0.06551
1158.50 0.06549
1158.60 0.06547
1158.70 0.06545
1158.80 0.06543
1158.90 0.06541
1159.00 0.06539
1159.10 0.06537
1159.20 0.06535
1159.30 0.06533
1159.40 0.06531
1159.50 0.06529
1159.60 0.06527
1159.70 0.06525
1159.80 0.06523
1159.90 0.06521
1160.00 0.06519
1160.10 0.06517
1160.20 0.06515
1160.30 0.06512
1160.40 0.0651
1160.50 0.06508
1160.60 0.06506
1160.70 0.06504
1160.80 0.06502
1160.90 0.065
1161.00 0.06498
1161.10 0.06496
1161.20 0.06494
1161.30 0.06492
1161.40 0.0649
1161.50 0.06488
1161.60 0.06486
1161.70 0.06484
1161.80 0.06482
1161.90 0.0648
1162.00 0.06478
1162.10 0.06476
1162.20 0.06474
1162.30 0.06472
1162.40 0.0647
1162.50 0.06468
1162.60 0.06466
1162.70 0.06464
1162.80 0.06462
1162.90 0.0646
1163.00 0.06458
1163.10 0.06456
1163.20 0.06454
1163.30 0.06452
1163.40 0.0645
1163.50 0.06448
1163.60 0.06446
1163.70 0.06443
1163.80 0.06441
1163.90 0.06439
1164.00 0.06437
1164.10 0.06435
1164.20 0.06433
1164.30 0.06431
1164.40 0.06429
1164.50 0.06427
1164.60 0.06425
1164.70 0.06423
1164.80 0.06421
1164.90 0.06419
1165.00 0.06417
1165.10 0.06415
1165.20 0.06413
1165.30 0.06411
1165.40 0.06409
1165.50 0.06407
1165.60 0.06405
1165.70 0.06403
1165.80 0.06401
1165.90 0.06399
1166.00 0.06397
1166.10 0.06395
1166.20 0.06393
1166.30 0.06391
1166.40 0.06389
1166.50 0.06387
1166.60 0.06385
1166.70 0.06383
1166.80 0.06381
1166.90 0.06379
1167.00 0.06377
1167.10 0.06375
1167.20 0.06373
1167.30 0.06371
1167.40 0.06369
1167.50 0.06367
1167.60 0.06365
1167.70 0.06363
1167.80 0.06361
1167.90 0.06359
1168.00 0.06357
1168.10 0.06355
1168.20 0.06353
1168.30 0.06352
1168.40 0.0635
1168.50 0.06348
1168.60 0.06346
1168.70 0.06344
1168.80 0.06342
1168.90 0.0634
1169.00 0.06338
1169.10 0.06336
1169.20 0.06334
1169.30 0.06332
1169.40 0.0633
1169.50 0.06328
1169.60 0.06326
1169.70 0.06324
1169.80 0.06322
1169.90 0.0632
1170.00 0.06318
1170.10 0.06316
1170.20 0.06314
1170.30 0.06312
1170.40 0.0631
1170.50 0.06308
1170.60 0.06306
1170.70 0.06304
1170.80 0.06302
1170.90 0.063
1171.00 0.06298
1171.10 0.06296
1171.20 0.06294
1171.30 0.06292
1171.40 0.0629
1171.50 0.06288
1171.60 0.06286
1171.70 0.06284
1171.80 0.06282
1171.90 0.06281
1172.00 0.06279
1172.10 0.06277
1172.20 0.06275
1172.30 0.06273
1172.40 0.06271
1172.50 0.06269
1172.60 0.06267
1172.70 0.06265
1172.80 0.06263
1172.90 0.06261
1173.00 0.06259
1173.10 0.06257
1173.20 0.06255
1173.30 0.06253
1173.40 0.06251
1173.50 0.06249
1173.60 0.06247
1173.70 0.06245
1173.80 0.06243
1173.90 0.06242
1174.00 0.0624
1174.10 0.06238
1174.20 0.06236
1174.30 0.06234
1174.40 0.06232
1174.50 0.0623
1174.60 0.06228
1174.70 0.06226
1174.80 0.06224
1174.90 0.06222
1175.00 0.0622
1175.10 0.06218
1175.20 0.06216
1175.30 0.06214
1175.40 0.06212
1175.50 0.06211
1175.60 0.06209
1175.70 0.06207
1175.80 0.06205
1175.90 0.06203
1176.00 0.06201
1176.10 0.06199
1176.20 0.06197
1176.30 0.06195
1176.40 0.06193
1176.50 0.06191
1176.60 0.06189
1176.70 0.06187
1176.80 0.06185
1176.90 0.06184
1177.00 0.06182
1177.10 0.0618
1177.20 0.06178
1177.30 0.06176
1177.40 0.06174
1177.50 0.06172
1177.60 0.0617
1177.70 0.06168
1177.80 0.06166
1177.90 0.06164
1178.00 0.06162
1178.10 0.06161
1178.20 0.06159
1178.30 0.06157
1178.40 0.06155
1178.50 0.06153
1178.60 0.06151
1178.70 0.06149
1178.80 0.06147
1178.90 0.06145
1179.00 0.06143
1179.10 0.06142
1179.20 0.0614
1179.30 0.06138
1179.40 0.06136
1179.50 0.06134
1179.60 0.06132
1179.70 0.0613
1179.80 0.06128
1179.90 0.06126
1180.00 0.06124
1180.10 0.06123
1180.20 0.06121
1180.30 0.06119
1180.40 0.06117
1180.50 0.06115
1180.60 0.06113
1180.70 0.06111
1180.80 0.06109
1180.90 0.06107
1181.00 0.06106
1181.10 0.06104
1181.20 0.06102
1181.30 0.061
1181.40 0.06098
1181.50 0.06096
1181.60 0.06094
1181.70 0.06092
1181.80 0.0609
1181.90 0.06089
1182.00 0.06087
1182.10 0.06085
1182.20 0.06083
1182.30 0.06081
1182.40 0.06079
1182.50 0.06077
1182.60 0.06075
1182.70 0.06073
1182.80 0.06072
1182.90 0.0607
1183.00 0.06068
1183.10 0.06066
1183.20 0.06064
1183.30 0.06062
1183.40 0.0606
1183.50 0.06058
1183.60 0.06057
1183.70 0.06055
1183.80 0.06053
1183.90 0.06051
1184.00 0.06049
1184.10 0.06047
1184.20 0.06045
1184.30 0.06044
1184.40 0.06042
1184.50 0.0604
1184.60 0.06038
1184.70 0.06036
1184.80 0.06034
1184.90 0.06032
1185.00 0.0603
1185.10 0.06029
1185.20 0.06027
1185.30 0.06025
1185.40 0.06023
1185.50 0.06021
1185.60 0.06019
1185.70 0.06017
1185.80 0.06016
1185.90 0.06014
1186.00 0.06012
1186.10 0.0601
1186.20 0.06008
1186.30 0.06006
1186.40 0.06004
1186.50 0.06003
1186.60 0.06001
1186.70 0.05999
1186.80 0.05997
1186.90 0.05995
1187.00 0.05993
1187.10 0.05991
1187.20 0.0599
1187.30 0.05988
1187.40 0.05986
1187.50 0.05984
1187.60 0.05982
1187.70 0.0598
1187.80 0.05979
1187.90 0.05977
1188.00 0.05975
1188.10 0.05973
1188.20 0.05971
1188.30 0.05969
1188.40 0.05967
1188.50 0.05966
1188.60 0.05964
1188.70 0.05962
1188.80 0.0596
1188.90 0.05958
1189.00 0.05956
1189.10 0.05955
1189.20 0.05953
1189.30 0.05951
1189.40 0.05949
1189.50 0.05947
1189.60 0.05945
1189.70 0.05944
1189.80 0.05942
1189.90 0.0594
1190.00 0.05938
1190.10 0.05936
1190.20 0.05934
1190.30 0.05933
1190.40 0.05931
1190.50 0.05929
1190.60 0.05927
1190.70 0.05925
1190.80 0.05923
1190.90 0.05922
1191.00 0.0592
1191.10 0.05918
1191.20 0.05916
1191.30 0.05914
1191.40 0.05913
1191.50 0.05911
1191.60 0.05909
1191.70 0.05907
1191.80 0.05905
1191.90 0.05903
1192.00 0.05902
1192.10 0.059
1192.20 0.05898
1192.30 0.05896
1192.40 0.05894
1192.50 0.05893
1192.60 0.05891
1192.70 0.05889
1192.80 0.05887
1192.90 0.05885
1193.00 0.05884
1193.10 0.05882
1193.20 0.0588
1193.30 0.05878
1193.40 0.05876
1193.50 0.05875
1193.60 0.05873
1193.70 0.05871
1193.80 0.05869
1193.90 0.05867
1194.00 0.05865
1194.10 0.05864
1194.20 0.05862
1194.30 0.0586
1194.40 0.05858
1194.50 0.05856
1194.60 0.05855
1194.70 0.05853
1194.80 0.05851
1194.90 0.05849
1195.00 0.05848
1195.10 0.05846
1195.20 0.05844
1195.30 0.05842
1195.40 0.0584
1195.50 0.05839
1195.60 0.05837
1195.70 0.05835
1195.80 0.05833
1195.90 0.05831
1196.00 0.0583
1196.10 0.05828
1196.20 0.05826
1196.30 0.05824
1196.40 0.05822
1196.50 0.05821
1196.60 0.05819
1196.70 0.05817
1196.80 0.05815
1196.90 0.05813
1197.00 0.05812
1197.10 0.0581
1197.20 0.05808
1197.30 0.05806
1197.40 0.05805
1197.50 0.05803
1197.60 0.05801
1197.70 0.05799
1197.80 0.05797
1197.90 0.05796
1198.00 0.05794
1198.10 0.05792
1198.20 0.0579
1198.30 0.05789
1198.40 0.05787
1198.50 0.05785
1198.60 0.05783
1198.70 0.05781
1198.80 0.0578
1198.90 0.05778
1199.00 0.05776
1199.10 0.05774
1199.20 0.05773
1199.30 0.05771
1199.40 0.05769
1199.50 0.05767
1199.60 0.05766
1199.70 0.05764
1199.80 0.05762
1199.90 0.0576
1200.00 0
