# Version 2.1 - nm, norm@500 to 1, cut digits, bergeron_3000_70.dat_3000
# Wavelength(nm)  Flambda(ergs/cm^s/s/nm)
300.00 0.06871
300.10 0.0689
300.20 0.0691
300.30 0.0693
300.40 0.0695
300.50 0.0697
300.60 0.0699
300.70 0.0701
300.80 0.0703
300.90 0.0705
301.00 0.0707
301.10 0.0709
301.20 0.07109
301.30 0.07129
301.40 0.07149
301.50 0.07169
301.60 0.07188
301.70 0.07208
301.80 0.07228
301.90 0.07248
302.00 0.07268
302.10 0.07288
302.20 0.07309
302.30 0.0733
302.40 0.0735
302.50 0.07371
302.60 0.07392
302.70 0.07413
302.80 0.07433
302.90 0.07454
303.00 0.07475
303.10 0.07495
303.20 0.07516
303.30 0.07536
303.40 0.07557
303.50 0.07577
303.60 0.07598
303.70 0.07618
303.80 0.07638
303.90 0.07659
304.00 0.0768
304.10 0.07701
304.20 0.07722
304.30 0.07744
304.40 0.07765
304.50 0.07787
304.60 0.07808
304.70 0.0783
304.80 0.07851
304.90 0.07873
305.00 0.07894
305.10 0.07915
305.20 0.07937
305.30 0.07958
305.40 0.07979
305.50 0.08
305.60 0.08021
305.70 0.08043
305.80 0.08064
305.90 0.08085
306.00 0.08107
306.10 0.08129
306.20 0.08151
306.30 0.08173
306.40 0.08195
306.50 0.08217
306.60 0.0824
306.70 0.08262
306.80 0.08284
306.90 0.08306
307.00 0.08328
307.10 0.0835
307.20 0.08372
307.30 0.08394
307.40 0.08416
307.50 0.08438
307.60 0.0846
307.70 0.08482
307.80 0.08504
307.90 0.08526
308.00 0.08548
308.10 0.08571
308.20 0.08594
308.30 0.08617
308.40 0.0864
308.50 0.08663
308.60 0.08686
308.70 0.08709
308.80 0.08732
308.90 0.08754
309.00 0.08777
309.10 0.088
309.20 0.08823
309.30 0.08846
309.40 0.08868
309.50 0.08891
309.60 0.08914
309.70 0.08936
309.80 0.08959
309.90 0.08982
310.00 0.09005
310.10 0.09028
310.20 0.09052
310.30 0.09076
310.40 0.091
310.50 0.09123
310.60 0.09147
310.70 0.09171
310.80 0.09195
310.90 0.09218
311.00 0.09242
311.10 0.09266
311.20 0.09289
311.30 0.09313
311.40 0.09336
311.50 0.0936
311.60 0.09383
311.70 0.09407
311.80 0.0943
311.90 0.09453
312.00 0.09477
312.10 0.095
312.20 0.09524
312.30 0.09548
312.40 0.09572
312.50 0.09597
312.60 0.09622
312.70 0.09646
312.80 0.09671
312.90 0.09695
313.00 0.09719
313.10 0.09744
313.20 0.09768
313.30 0.09792
313.40 0.09817
313.50 0.09841
313.60 0.09865
313.70 0.09889
313.80 0.09914
313.90 0.09938
314.00 0.09963
314.10 0.09987
314.20 0.1001
314.30 0.1004
314.40 0.1006
314.50 0.1009
314.60 0.1011
314.70 0.1014
314.80 0.1016
314.90 0.1019
315.00 0.1021
315.10 0.1024
315.20 0.1026
315.30 0.1029
315.40 0.1031
315.50 0.1034
315.60 0.1036
315.70 0.1039
315.80 0.1041
315.90 0.1044
316.00 0.1047
316.10 0.1049
316.20 0.1052
316.30 0.1054
316.40 0.1057
316.50 0.1059
316.60 0.1062
316.70 0.1065
316.80 0.1067
316.90 0.107
317.00 0.1072
317.10 0.1075
317.20 0.1078
317.30 0.108
317.40 0.1083
317.50 0.1085
317.60 0.1088
317.70 0.109
317.80 0.1093
317.90 0.1096
318.00 0.1098
318.10 0.1101
318.20 0.1103
318.30 0.1106
318.40 0.1109
318.50 0.1112
318.60 0.1114
318.70 0.1117
318.80 0.112
318.90 0.1122
319.00 0.1125
319.10 0.1128
319.20 0.113
319.30 0.1133
319.40 0.1135
319.50 0.1138
319.60 0.1141
319.70 0.1143
319.80 0.1146
319.90 0.1149
320.00 0.1151
320.10 0.1154
320.20 0.1157
320.30 0.116
320.40 0.1162
320.50 0.1165
320.60 0.1168
320.70 0.1171
320.80 0.1173
320.90 0.1176
321.00 0.1179
321.10 0.1182
321.20 0.1184
321.30 0.1187
321.40 0.119
321.50 0.1193
321.60 0.1195
321.70 0.1198
321.80 0.1201
321.90 0.1203
322.00 0.1206
322.10 0.1209
322.20 0.1212
322.30 0.1215
322.40 0.1217
322.50 0.122
322.60 0.1223
322.70 0.1226
322.80 0.1229
322.90 0.1232
323.00 0.1234
323.10 0.1237
323.20 0.124
323.30 0.1243
323.40 0.1246
323.50 0.1248
323.60 0.1251
323.70 0.1254
323.80 0.1257
323.90 0.126
324.00 0.1262
324.10 0.1265
324.20 0.1268
324.30 0.1271
324.40 0.1274
324.50 0.1277
324.60 0.128
324.70 0.1283
324.80 0.1286
324.90 0.1289
325.00 0.1291
325.10 0.1294
325.20 0.1297
325.30 0.13
325.40 0.1303
325.50 0.1306
325.60 0.1309
325.70 0.1312
325.80 0.1314
325.90 0.1317
326.00 0.132
326.10 0.1323
326.20 0.1326
326.30 0.1329
326.40 0.1332
326.50 0.1335
326.60 0.1338
326.70 0.1341
326.80 0.1344
326.90 0.1347
327.00 0.135
327.10 0.1353
327.20 0.1356
327.30 0.1359
327.40 0.1362
327.50 0.1365
327.60 0.1368
327.70 0.1371
327.80 0.1374
327.90 0.1377
328.00 0.138
328.10 0.1383
328.20 0.1386
328.30 0.1389
328.40 0.1392
328.50 0.1395
328.60 0.1398
328.70 0.1401
328.80 0.1404
328.90 0.1407
329.00 0.141
329.10 0.1413
329.20 0.1416
329.30 0.1419
329.40 0.1422
329.50 0.1425
329.60 0.1428
329.70 0.1431
329.80 0.1434
329.90 0.1437
330.00 0.144
330.10 0.1443
330.20 0.1447
330.30 0.145
330.40 0.1453
330.50 0.1456
330.60 0.1459
330.70 0.1462
330.80 0.1465
330.90 0.1469
331.00 0.1472
331.10 0.1475
331.20 0.1478
331.30 0.1481
331.40 0.1484
331.50 0.1487
331.60 0.149
331.70 0.1493
331.80 0.1496
331.90 0.15
332.00 0.1503
332.10 0.1506
332.20 0.1509
332.30 0.1512
332.40 0.1516
332.50 0.1519
332.60 0.1522
332.70 0.1525
332.80 0.1528
332.90 0.1532
333.00 0.1535
333.10 0.1538
333.20 0.1541
333.30 0.1544
333.40 0.1548
333.50 0.1551
333.60 0.1554
333.70 0.1557
333.80 0.156
333.90 0.1563
334.00 0.1567
334.10 0.157
334.20 0.1573
334.30 0.1576
334.40 0.158
334.50 0.1583
334.60 0.1586
334.70 0.159
334.80 0.1593
334.90 0.1596
335.00 0.1599
335.10 0.1603
335.20 0.1606
335.30 0.1609
335.40 0.1612
335.50 0.1616
335.60 0.1619
335.70 0.1622
335.80 0.1625
335.90 0.1629
336.00 0.1632
336.10 0.1635
336.20 0.1639
336.30 0.1642
336.40 0.1645
336.50 0.1649
336.60 0.1652
336.70 0.1655
336.80 0.1659
336.90 0.1662
337.00 0.1666
337.10 0.1669
337.20 0.1672
337.30 0.1676
337.40 0.1679
337.50 0.1682
337.60 0.1685
337.70 0.1689
337.80 0.1692
337.90 0.1695
338.00 0.1699
338.10 0.1702
338.20 0.1706
338.30 0.1709
338.40 0.1713
338.50 0.1716
338.60 0.1719
338.70 0.1723
338.80 0.1726
338.90 0.173
339.00 0.1733
339.10 0.1737
339.20 0.174
339.30 0.1743
339.40 0.1747
339.50 0.175
339.60 0.1754
339.70 0.1757
339.80 0.176
339.90 0.1764
340.00 0.1767
340.10 0.1771
340.20 0.1774
340.30 0.1778
340.40 0.1781
340.50 0.1785
340.60 0.1788
340.70 0.1792
340.80 0.1795
340.90 0.1799
341.00 0.1802
341.10 0.1806
341.20 0.1809
341.30 0.1813
341.40 0.1816
341.50 0.182
341.60 0.1823
341.70 0.1826
341.80 0.183
341.90 0.1833
342.00 0.1837
342.10 0.184
342.20 0.1844
342.30 0.1848
342.40 0.1851
342.50 0.1855
342.60 0.1858
342.70 0.1862
342.80 0.1866
342.90 0.1869
343.00 0.1873
343.10 0.1876
343.20 0.188
343.30 0.1883
343.40 0.1887
343.50 0.189
343.60 0.1894
343.70 0.1898
343.80 0.1901
343.90 0.1905
344.00 0.1908
344.10 0.1912
344.20 0.1915
344.30 0.1919
344.40 0.1923
344.50 0.1926
344.60 0.193
344.70 0.1934
344.80 0.1937
344.90 0.1941
345.00 0.1945
345.10 0.1948
345.20 0.1952
345.30 0.1956
345.40 0.1959
345.50 0.1963
345.60 0.1966
345.70 0.197
345.80 0.1974
345.90 0.1977
346.00 0.1981
346.10 0.1985
346.20 0.1988
346.30 0.1992
346.40 0.1996
346.50 0.2
346.60 0.2003
346.70 0.2007
346.80 0.2011
346.90 0.2014
347.00 0.2018
347.10 0.2022
347.20 0.2026
347.30 0.2029
347.40 0.2033
347.50 0.2037
347.60 0.204
347.70 0.2044
347.80 0.2048
347.90 0.2051
348.00 0.2055
348.10 0.2059
348.20 0.2063
348.30 0.2066
348.40 0.207
348.50 0.2074
348.60 0.2078
348.70 0.2082
348.80 0.2085
348.90 0.2089
349.00 0.2093
349.10 0.2097
349.20 0.2101
349.30 0.2104
349.40 0.2108
349.50 0.2112
349.60 0.2116
349.70 0.2119
349.80 0.2123
349.90 0.2127
350.00 0.2131
350.10 0.2134
350.20 0.2138
350.30 0.2142
350.40 0.2146
350.50 0.215
350.60 0.2154
350.70 0.2158
350.80 0.2162
350.90 0.2165
351.00 0.2169
351.10 0.2173
351.20 0.2177
351.30 0.2181
351.40 0.2185
351.50 0.2188
351.60 0.2192
351.70 0.2196
351.80 0.22
351.90 0.2204
352.00 0.2207
352.10 0.2211
352.20 0.2215
352.30 0.2219
352.40 0.2223
352.50 0.2227
352.60 0.2231
352.70 0.2235
352.80 0.2239
352.90 0.2243
353.00 0.2247
353.10 0.2251
353.20 0.2255
353.30 0.2259
353.40 0.2263
353.50 0.2266
353.60 0.227
353.70 0.2274
353.80 0.2278
353.90 0.2282
354.00 0.2286
354.10 0.229
354.20 0.2294
354.30 0.2298
354.40 0.2302
354.50 0.2306
354.60 0.231
354.70 0.2314
354.80 0.2318
354.90 0.2322
355.00 0.2326
355.10 0.233
355.20 0.2334
355.30 0.2338
355.40 0.2342
355.50 0.2346
355.60 0.235
355.70 0.2354
355.80 0.2358
355.90 0.2362
356.00 0.2365
356.10 0.237
356.20 0.2374
356.30 0.2378
356.40 0.2382
356.50 0.2386
356.60 0.239
356.70 0.2394
356.80 0.2398
356.90 0.2402
357.00 0.2406
357.10 0.241
357.20 0.2414
357.30 0.2418
357.40 0.2422
357.50 0.2426
357.60 0.243
357.70 0.2434
357.80 0.2438
357.90 0.2442
358.00 0.2446
358.10 0.2451
358.20 0.2455
358.30 0.2459
358.40 0.2463
358.50 0.2467
358.60 0.2471
358.70 0.2476
358.80 0.248
358.90 0.2484
359.00 0.2488
359.10 0.2492
359.20 0.2496
359.30 0.25
359.40 0.2504
359.50 0.2508
359.60 0.2513
359.70 0.2517
359.80 0.2521
359.90 0.2525
360.00 0.2529
360.10 0.2533
360.20 0.2537
360.30 0.2542
360.40 0.2546
360.50 0.255
360.60 0.2554
360.70 0.2558
360.80 0.2563
360.90 0.2567
361.00 0.2571
361.10 0.2575
361.20 0.2579
361.30 0.2583
361.40 0.2588
361.50 0.2592
361.60 0.2596
361.70 0.26
361.80 0.2604
361.90 0.2608
362.00 0.2613
362.10 0.2617
362.20 0.2621
362.30 0.2625
362.40 0.263
362.50 0.2634
362.60 0.2638
362.70 0.2642
362.80 0.2646
362.90 0.2651
363.00 0.2655
363.10 0.2659
363.20 0.2663
363.30 0.2668
363.40 0.2672
363.50 0.2676
363.60 0.2681
363.70 0.2685
363.80 0.2689
363.90 0.2693
364.00 0.2698
364.10 0.2702
364.20 0.2706
364.30 0.271
364.40 0.2715
364.50 0.2719
364.60 0.2723
364.70 0.2728
364.80 0.2732
364.90 0.2736
365.00 0.2741
365.10 0.2745
365.20 0.2749
365.30 0.2754
365.40 0.2758
365.50 0.2762
365.60 0.2767
365.70 0.2771
365.80 0.2775
365.90 0.2779
366.00 0.2784
366.10 0.2788
366.20 0.2793
366.30 0.2797
366.40 0.2801
366.50 0.2806
366.60 0.281
366.70 0.2815
366.80 0.2819
366.90 0.2823
367.00 0.2828
367.10 0.2832
367.20 0.2836
367.30 0.2841
367.40 0.2845
367.50 0.2849
367.60 0.2854
367.70 0.2858
367.80 0.2863
367.90 0.2867
368.00 0.2871
368.10 0.2876
368.20 0.288
368.30 0.2885
368.40 0.2889
368.50 0.2894
368.60 0.2898
368.70 0.2902
368.80 0.2907
368.90 0.2911
369.00 0.2916
369.10 0.292
369.20 0.2925
369.30 0.2929
369.40 0.2933
369.50 0.2938
369.60 0.2942
369.70 0.2947
369.80 0.2951
369.90 0.2955
370.00 0.296
370.10 0.2964
370.20 0.2969
370.30 0.2973
370.40 0.2978
370.50 0.2983
370.60 0.2987
370.70 0.2992
370.80 0.2996
370.90 0.3001
371.00 0.3005
371.10 0.301
371.20 0.3014
371.30 0.3018
371.40 0.3023
371.50 0.3027
371.60 0.3032
371.70 0.3036
371.80 0.3041
371.90 0.3045
372.00 0.305
372.10 0.3054
372.20 0.3059
372.30 0.3063
372.40 0.3068
372.50 0.3073
372.60 0.3077
372.70 0.3082
372.80 0.3086
372.90 0.3091
373.00 0.3095
373.10 0.31
373.20 0.3105
373.30 0.3109
373.40 0.3114
373.50 0.3118
373.60 0.3123
373.70 0.3127
373.80 0.3132
373.90 0.3136
374.00 0.3141
374.10 0.3145
374.20 0.315
374.30 0.3155
374.40 0.3159
374.50 0.3164
374.60 0.3169
374.70 0.3173
374.80 0.3178
374.90 0.3182
375.00 0.3187
375.10 0.3192
375.20 0.3196
375.30 0.3201
375.40 0.3205
375.50 0.321
375.60 0.3215
375.70 0.3219
375.80 0.3224
375.90 0.3228
376.00 0.3233
376.10 0.3238
376.20 0.3242
376.30 0.3247
376.40 0.3252
376.50 0.3256
376.60 0.3261
376.70 0.3266
376.80 0.327
376.90 0.3275
377.00 0.3279
377.10 0.3284
377.20 0.3289
377.30 0.3293
377.40 0.3298
377.50 0.3303
377.60 0.3308
377.70 0.3312
377.80 0.3317
377.90 0.3322
378.00 0.3326
378.10 0.3331
378.20 0.3336
378.30 0.334
378.40 0.3345
378.50 0.335
378.60 0.3354
378.70 0.3359
378.80 0.3364
378.90 0.3369
379.00 0.3373
379.10 0.3378
379.20 0.3383
379.30 0.3387
379.40 0.3392
379.50 0.3397
379.60 0.3402
379.70 0.3406
379.80 0.3411
379.90 0.3416
380.00 0.3421
380.10 0.3425
380.20 0.343
380.30 0.3435
380.40 0.344
380.50 0.3444
380.60 0.3449
380.70 0.3454
380.80 0.3459
380.90 0.3463
381.00 0.3468
381.10 0.3473
381.20 0.3478
381.30 0.3483
381.40 0.3487
381.50 0.3492
381.60 0.3497
381.70 0.3502
381.80 0.3506
381.90 0.3511
382.00 0.3516
382.10 0.3521
382.20 0.3526
382.30 0.353
382.40 0.3535
382.50 0.354
382.60 0.3545
382.70 0.355
382.80 0.3555
382.90 0.3559
383.00 0.3564
383.10 0.3569
383.20 0.3574
383.30 0.3579
383.40 0.3583
383.50 0.3588
383.60 0.3593
383.70 0.3598
383.80 0.3603
383.90 0.3608
384.00 0.3612
384.10 0.3617
384.20 0.3622
384.30 0.3627
384.40 0.3632
384.50 0.3637
384.60 0.3642
384.70 0.3646
384.80 0.3651
384.90 0.3656
385.00 0.3661
385.10 0.3666
385.20 0.3671
385.30 0.3676
385.40 0.3681
385.50 0.3685
385.60 0.369
385.70 0.3695
385.80 0.37
385.90 0.3705
386.00 0.371
386.10 0.3715
386.20 0.372
386.30 0.3725
386.40 0.373
386.50 0.3734
386.60 0.3739
386.70 0.3744
386.80 0.3749
386.90 0.3754
387.00 0.3759
387.10 0.3764
387.20 0.3769
387.30 0.3774
387.40 0.3779
387.50 0.3784
387.60 0.3789
387.70 0.3794
387.80 0.3799
387.90 0.3803
388.00 0.3808
388.10 0.3813
388.20 0.3818
388.30 0.3823
388.40 0.3828
388.50 0.3833
388.60 0.3838
388.70 0.3843
388.80 0.3848
388.90 0.3853
389.00 0.3858
389.10 0.3863
389.20 0.3868
389.30 0.3873
389.40 0.3878
389.50 0.3883
389.60 0.3888
389.70 0.3893
389.80 0.3898
389.90 0.3903
390.00 0.3908
390.10 0.3913
390.20 0.3918
390.30 0.3923
390.40 0.3928
390.50 0.3933
390.60 0.3938
390.70 0.3943
390.80 0.3948
390.90 0.3953
391.00 0.3958
391.10 0.3963
391.20 0.3968
391.30 0.3973
391.40 0.3978
391.50 0.3983
391.60 0.3988
391.70 0.3993
391.80 0.3998
391.90 0.4003
392.00 0.4008
392.10 0.4013
392.20 0.4018
392.30 0.4023
392.40 0.4028
392.50 0.4033
392.60 0.4038
392.70 0.4043
392.80 0.4049
392.90 0.4054
393.00 0.4059
393.10 0.4064
393.20 0.4069
393.30 0.4074
393.40 0.4079
393.50 0.4084
393.60 0.4089
393.70 0.4094
393.80 0.4099
393.90 0.4104
394.00 0.4109
394.10 0.4114
394.20 0.412
394.30 0.4125
394.40 0.413
394.50 0.4135
394.60 0.414
394.70 0.4145
394.80 0.415
394.90 0.4155
395.00 0.416
395.10 0.4165
395.20 0.4171
395.30 0.4176
395.40 0.4181
395.50 0.4186
395.60 0.4191
395.70 0.4196
395.80 0.4201
395.90 0.4206
396.00 0.4212
396.10 0.4217
396.20 0.4222
396.30 0.4227
396.40 0.4232
396.50 0.4237
396.60 0.4242
396.70 0.4247
396.80 0.4253
396.90 0.4258
397.00 0.4263
397.10 0.4268
397.20 0.4273
397.30 0.4278
397.40 0.4283
397.50 0.4289
397.60 0.4294
397.70 0.4299
397.80 0.4304
397.90 0.4309
398.00 0.4314
398.10 0.432
398.20 0.4325
398.30 0.433
398.40 0.4335
398.50 0.434
398.60 0.4345
398.70 0.4351
398.80 0.4356
398.90 0.4361
399.00 0.4366
399.10 0.4371
399.20 0.4377
399.30 0.4382
399.40 0.4387
399.50 0.4392
399.60 0.4397
399.70 0.4403
399.80 0.4408
399.90 0.4413
400.00 0.4418
400.10 0.4423
400.20 0.4429
400.30 0.4434
400.40 0.4439
400.50 0.4444
400.60 0.4449
400.70 0.4455
400.80 0.446
400.90 0.4465
401.00 0.447
401.10 0.4476
401.20 0.4481
401.30 0.4486
401.40 0.4491
401.50 0.4496
401.60 0.4502
401.70 0.4507
401.80 0.4512
401.90 0.4517
402.00 0.4523
402.10 0.4528
402.20 0.4533
402.30 0.4538
402.40 0.4544
402.50 0.4549
402.60 0.4554
402.70 0.4559
402.80 0.4565
402.90 0.457
403.00 0.4575
403.10 0.458
403.20 0.4586
403.30 0.4591
403.40 0.4596
403.50 0.4602
403.60 0.4607
403.70 0.4612
403.80 0.4617
403.90 0.4623
404.00 0.4628
404.10 0.4633
404.20 0.4639
404.30 0.4644
404.40 0.4649
404.50 0.4654
404.60 0.466
404.70 0.4665
404.80 0.467
404.90 0.4676
405.00 0.4681
405.10 0.4686
405.20 0.4691
405.30 0.4697
405.40 0.4702
405.50 0.4707
405.60 0.4713
405.70 0.4718
405.80 0.4723
405.90 0.4729
406.00 0.4734
406.10 0.4739
406.20 0.4745
406.30 0.475
406.40 0.4755
406.50 0.4761
406.60 0.4766
406.70 0.4771
406.80 0.4777
406.90 0.4782
407.00 0.4787
407.10 0.4793
407.20 0.4798
407.30 0.4803
407.40 0.4809
407.50 0.4814
407.60 0.4819
407.70 0.4825
407.80 0.483
407.90 0.4835
408.00 0.4841
408.10 0.4846
408.20 0.4851
408.30 0.4857
408.40 0.4862
408.50 0.4867
408.60 0.4873
408.70 0.4878
408.80 0.4883
408.90 0.4889
409.00 0.4894
409.10 0.49
409.20 0.4905
409.30 0.491
409.40 0.4916
409.50 0.4921
409.60 0.4926
409.70 0.4932
409.80 0.4937
409.90 0.4942
410.00 0.4948
410.10 0.4953
410.20 0.4959
410.30 0.4964
410.40 0.4969
410.50 0.4975
410.60 0.498
410.70 0.4986
410.80 0.4991
410.90 0.4996
411.00 0.5002
411.10 0.5007
411.20 0.5013
411.30 0.5018
411.40 0.5023
411.50 0.5029
411.60 0.5034
411.70 0.504
411.80 0.5045
411.90 0.505
412.00 0.5056
412.10 0.5061
412.20 0.5067
412.30 0.5072
412.40 0.5078
412.50 0.5083
412.60 0.5088
412.70 0.5094
412.80 0.5099
412.90 0.5105
413.00 0.511
413.10 0.5116
413.20 0.5121
413.30 0.5126
413.40 0.5132
413.50 0.5137
413.60 0.5143
413.70 0.5148
413.80 0.5154
413.90 0.5159
414.00 0.5165
414.10 0.517
414.20 0.5175
414.30 0.5181
414.40 0.5186
414.50 0.5192
414.60 0.5197
414.70 0.5203
414.80 0.5208
414.90 0.5214
415.00 0.5219
415.10 0.5225
415.20 0.523
415.30 0.5236
415.40 0.5241
415.50 0.5246
415.60 0.5252
415.70 0.5257
415.80 0.5263
415.90 0.5268
416.00 0.5274
416.10 0.5279
416.20 0.5285
416.30 0.529
416.40 0.5295
416.50 0.5301
416.60 0.5306
416.70 0.5312
416.80 0.5318
416.90 0.5323
417.00 0.5328
417.10 0.5334
417.20 0.5339
417.30 0.5345
417.40 0.535
417.50 0.5356
417.60 0.5361
417.70 0.5367
417.80 0.5372
417.90 0.5378
418.00 0.5383
418.10 0.5389
418.20 0.5394
418.30 0.54
418.40 0.5405
418.50 0.5411
418.60 0.5416
418.70 0.5422
418.80 0.5427
418.90 0.5433
419.00 0.5438
419.10 0.5444
419.20 0.5449
419.30 0.5455
419.40 0.546
419.50 0.5466
419.60 0.5471
419.70 0.5477
419.80 0.5483
419.90 0.5488
420.00 0.5494
420.10 0.5499
420.20 0.5505
420.30 0.551
420.40 0.5516
420.50 0.5521
420.60 0.5527
420.70 0.5532
420.80 0.5538
420.90 0.5543
421.00 0.5549
421.10 0.5554
421.20 0.556
421.30 0.5565
421.40 0.5571
421.50 0.5576
421.60 0.5582
421.70 0.5587
421.80 0.5593
421.90 0.5598
422.00 0.5604
422.10 0.561
422.20 0.5615
422.30 0.5621
422.40 0.5626
422.50 0.5632
422.60 0.5637
422.70 0.5643
422.80 0.5648
422.90 0.5654
423.00 0.566
423.10 0.5665
423.20 0.5671
423.30 0.5676
423.40 0.5682
423.50 0.5687
423.60 0.5693
423.70 0.5699
423.80 0.5704
423.90 0.5709
424.00 0.5715
424.10 0.5721
424.20 0.5726
424.30 0.5732
424.40 0.5737
424.50 0.5743
424.60 0.5748
424.70 0.5754
424.80 0.576
424.90 0.5765
425.00 0.5771
425.10 0.5776
425.20 0.5782
425.30 0.5788
425.40 0.5793
425.50 0.5799
425.60 0.5804
425.70 0.581
425.80 0.5815
425.90 0.5821
426.00 0.5827
426.10 0.5832
426.20 0.5838
426.30 0.5844
426.40 0.5849
426.50 0.5855
426.60 0.586
426.70 0.5866
426.80 0.5871
426.90 0.5877
427.00 0.5883
427.10 0.5888
427.20 0.5894
427.30 0.5899
427.40 0.5905
427.50 0.5911
427.60 0.5916
427.70 0.5922
427.80 0.5927
427.90 0.5933
428.00 0.5939
428.10 0.5944
428.20 0.595
428.30 0.5955
428.40 0.5961
428.50 0.5966
428.60 0.5972
428.70 0.5978
428.80 0.5983
428.90 0.5989
429.00 0.5995
429.10 0.6
429.20 0.6006
429.30 0.6011
429.40 0.6017
429.50 0.6023
429.60 0.6029
429.70 0.6034
429.80 0.604
429.90 0.6045
430.00 0.6051
430.10 0.6056
430.20 0.6062
430.30 0.6068
430.40 0.6073
430.50 0.6079
430.60 0.6084
430.70 0.609
430.80 0.6096
430.90 0.6101
431.00 0.6107
431.10 0.6113
431.20 0.6118
431.30 0.6124
431.40 0.613
431.50 0.6135
431.60 0.6141
431.70 0.6147
431.80 0.6152
431.90 0.6158
432.00 0.6163
432.10 0.6169
432.20 0.6175
432.30 0.618
432.40 0.6186
432.50 0.6192
432.60 0.6197
432.70 0.6203
432.80 0.6209
432.90 0.6214
433.00 0.622
433.10 0.6226
433.20 0.6231
433.30 0.6237
433.40 0.6243
433.50 0.6248
433.60 0.6254
433.70 0.626
433.80 0.6265
433.90 0.6271
434.00 0.6276
434.10 0.6282
434.20 0.6288
434.30 0.6293
434.40 0.6299
434.50 0.6305
434.60 0.631
434.70 0.6316
434.80 0.6322
434.90 0.6327
435.00 0.6333
435.10 0.6339
435.20 0.6344
435.30 0.635
435.40 0.6356
435.50 0.6361
435.60 0.6367
435.70 0.6373
435.80 0.6378
435.90 0.6384
436.00 0.639
436.10 0.6395
436.20 0.6401
436.30 0.6407
436.40 0.6412
436.50 0.6418
436.60 0.6423
436.70 0.6429
436.80 0.6435
436.90 0.6441
437.00 0.6446
437.10 0.6452
437.20 0.6458
437.30 0.6463
437.40 0.6469
437.50 0.6474
437.60 0.648
437.70 0.6486
437.80 0.6492
437.90 0.6497
438.00 0.6503
438.10 0.6509
438.20 0.6514
438.30 0.652
438.40 0.6526
438.50 0.6532
438.60 0.6537
438.70 0.6543
438.80 0.6548
438.90 0.6554
439.00 0.656
439.10 0.6566
439.20 0.6571
439.30 0.6577
439.40 0.6582
439.50 0.6588
439.60 0.6594
439.70 0.66
439.80 0.6605
439.90 0.6611
440.00 0.6617
440.10 0.6622
440.20 0.6628
440.30 0.6634
440.40 0.6639
440.50 0.6645
440.60 0.6651
440.70 0.6656
440.80 0.6662
440.90 0.6668
441.00 0.6673
441.10 0.6679
441.20 0.6685
441.30 0.6691
441.40 0.6696
441.50 0.6702
441.60 0.6708
441.70 0.6713
441.80 0.6719
441.90 0.6725
442.00 0.673
442.10 0.6736
442.20 0.6742
442.30 0.6748
442.40 0.6753
442.50 0.6759
442.60 0.6765
442.70 0.677
442.80 0.6776
442.90 0.6782
443.00 0.6787
443.10 0.6793
443.20 0.6799
443.30 0.6805
443.40 0.681
443.50 0.6816
443.60 0.6822
443.70 0.6827
443.80 0.6833
443.90 0.6839
444.00 0.6844
444.10 0.685
444.20 0.6856
444.30 0.6862
444.40 0.6867
444.50 0.6873
444.60 0.6879
444.70 0.6884
444.80 0.689
444.90 0.6896
445.00 0.6901
445.10 0.6907
445.20 0.6913
445.30 0.6918
445.40 0.6924
445.50 0.693
445.60 0.6936
445.70 0.6942
445.80 0.6947
445.90 0.6953
446.00 0.6959
446.10 0.6964
446.20 0.697
446.30 0.6976
446.40 0.6982
446.50 0.6987
446.60 0.6993
446.70 0.6999
446.80 0.7004
446.90 0.701
447.00 0.7016
447.10 0.7022
447.20 0.7027
447.30 0.7033
447.40 0.7039
447.50 0.7044
447.60 0.705
447.70 0.7056
447.80 0.7061
447.90 0.7067
448.00 0.7073
448.10 0.7079
448.20 0.7084
448.30 0.709
448.40 0.7096
448.50 0.7101
448.60 0.7107
448.70 0.7113
448.80 0.7119
448.90 0.7125
449.00 0.713
449.10 0.7136
449.20 0.7141
449.30 0.7147
449.40 0.7153
449.50 0.7159
449.60 0.7164
449.70 0.717
449.80 0.7176
449.90 0.7181
450.00 0.7187
450.10 0.7193
450.20 0.7199
450.30 0.7204
450.40 0.721
450.50 0.7216
450.60 0.7221
450.70 0.7227
450.80 0.7233
450.90 0.7239
451.00 0.7244
451.10 0.725
451.20 0.7256
451.30 0.7262
451.40 0.7267
451.50 0.7273
451.60 0.7279
451.70 0.7285
451.80 0.729
451.90 0.7296
452.00 0.7302
452.10 0.7307
452.20 0.7313
452.30 0.7319
452.40 0.7324
452.50 0.733
452.60 0.7336
452.70 0.7342
452.80 0.7347
452.90 0.7353
453.00 0.7359
453.10 0.7364
453.20 0.737
453.30 0.7376
453.40 0.7382
453.50 0.7387
453.60 0.7393
453.70 0.7399
453.80 0.7405
453.90 0.741
454.00 0.7416
454.10 0.7422
454.20 0.7428
454.30 0.7433
454.40 0.7439
454.50 0.7445
454.60 0.745
454.70 0.7456
454.80 0.7462
454.90 0.7468
455.00 0.7473
455.10 0.7479
455.20 0.7485
455.30 0.7491
455.40 0.7496
455.50 0.7502
455.60 0.7508
455.70 0.7513
455.80 0.7519
455.90 0.7525
456.00 0.7531
456.10 0.7536
456.20 0.7542
456.30 0.7548
456.40 0.7553
456.50 0.7559
456.60 0.7565
456.70 0.7571
456.80 0.7576
456.90 0.7582
457.00 0.7588
457.10 0.7593
457.20 0.7599
457.30 0.7605
457.40 0.7611
457.50 0.7616
457.60 0.7622
457.70 0.7628
457.80 0.7633
457.90 0.7639
458.00 0.7645
458.10 0.7651
458.20 0.7656
458.30 0.7662
458.40 0.7668
458.50 0.7673
458.60 0.7679
458.70 0.7685
458.80 0.7691
458.90 0.7696
459.00 0.7702
459.10 0.7708
459.20 0.7714
459.30 0.7719
459.40 0.7725
459.50 0.7731
459.60 0.7736
459.70 0.7742
459.80 0.7748
459.90 0.7754
460.00 0.7759
460.10 0.7765
460.20 0.7771
460.30 0.7776
460.40 0.7782
460.50 0.7788
460.60 0.7793
460.70 0.7799
460.80 0.7805
460.90 0.7811
461.00 0.7816
461.10 0.7822
461.20 0.7828
461.30 0.7833
461.40 0.7839
461.50 0.7845
461.60 0.7851
461.70 0.7856
461.80 0.7862
461.90 0.7868
462.00 0.7874
462.10 0.7879
462.20 0.7885
462.30 0.7891
462.40 0.7896
462.50 0.7902
462.60 0.7908
462.70 0.7914
462.80 0.7919
462.90 0.7925
463.00 0.7931
463.10 0.7936
463.20 0.7942
463.30 0.7948
463.40 0.7954
463.50 0.7959
463.60 0.7965
463.70 0.7971
463.80 0.7976
463.90 0.7982
464.00 0.7988
464.10 0.7993
464.20 0.7999
464.30 0.8005
464.40 0.801
464.50 0.8016
464.60 0.8022
464.70 0.8028
464.80 0.8033
464.90 0.8039
465.00 0.8045
465.10 0.805
465.20 0.8056
465.30 0.8062
465.40 0.8067
465.50 0.8073
465.60 0.8079
465.70 0.8084
465.80 0.809
465.90 0.8096
466.00 0.8101
466.10 0.8107
466.20 0.8113
466.30 0.8119
466.40 0.8124
466.50 0.813
466.60 0.8136
466.70 0.8142
466.80 0.8147
466.90 0.8153
467.00 0.8159
467.10 0.8164
467.20 0.817
467.30 0.8176
467.40 0.8181
467.50 0.8187
467.60 0.8193
467.70 0.8199
467.80 0.8204
467.90 0.821
468.00 0.8216
468.10 0.8221
468.20 0.8227
468.30 0.8233
468.40 0.8238
468.50 0.8244
468.60 0.825
468.70 0.8256
468.80 0.8261
468.90 0.8267
469.00 0.8273
469.10 0.8278
469.20 0.8284
469.30 0.829
469.40 0.8295
469.50 0.8301
469.60 0.8307
469.70 0.8312
469.80 0.8318
469.90 0.8324
470.00 0.8329
470.10 0.8335
470.20 0.8341
470.30 0.8346
470.40 0.8352
470.50 0.8358
470.60 0.8363
470.70 0.8369
470.80 0.8375
470.90 0.838
471.00 0.8386
471.10 0.8392
471.20 0.8397
471.30 0.8403
471.40 0.8409
471.50 0.8414
471.60 0.842
471.70 0.8426
471.80 0.8431
471.90 0.8437
472.00 0.8443
472.10 0.8448
472.20 0.8454
472.30 0.846
472.40 0.8465
472.50 0.8471
472.60 0.8477
472.70 0.8482
472.80 0.8488
472.90 0.8494
473.00 0.8499
473.10 0.8505
473.20 0.8511
473.30 0.8517
473.40 0.8522
473.50 0.8528
473.60 0.8534
473.70 0.8539
473.80 0.8545
473.90 0.8551
474.00 0.8556
474.10 0.8562
474.20 0.8567
474.30 0.8573
474.40 0.8579
474.50 0.8584
474.60 0.859
474.70 0.8596
474.80 0.8601
474.90 0.8607
475.00 0.8613
475.10 0.8618
475.20 0.8624
475.30 0.863
475.40 0.8635
475.50 0.8641
475.60 0.8647
475.70 0.8652
475.80 0.8658
475.90 0.8664
476.00 0.8669
476.10 0.8675
476.20 0.8681
476.30 0.8686
476.40 0.8692
476.50 0.8698
476.60 0.8703
476.70 0.8709
476.80 0.8715
476.90 0.872
477.00 0.8726
477.10 0.8731
477.20 0.8737
477.30 0.8743
477.40 0.8748
477.50 0.8754
477.60 0.876
477.70 0.8765
477.80 0.8771
477.90 0.8776
478.00 0.8782
478.10 0.8788
478.20 0.8793
478.30 0.8799
478.40 0.8805
478.50 0.881
478.60 0.8816
478.70 0.8821
478.80 0.8827
478.90 0.8833
479.00 0.8838
479.10 0.8844
479.20 0.8849
479.30 0.8855
479.40 0.8861
479.50 0.8866
479.60 0.8872
479.70 0.8878
479.80 0.8883
479.90 0.8889
480.00 0.8895
480.10 0.89
480.20 0.8906
480.30 0.8911
480.40 0.8917
480.50 0.8923
480.60 0.8928
480.70 0.8934
480.80 0.894
480.90 0.8945
481.00 0.8951
481.10 0.8956
481.20 0.8962
481.30 0.8968
481.40 0.8973
481.50 0.8979
481.60 0.8984
481.70 0.899
481.80 0.8996
481.90 0.9001
482.00 0.9007
482.10 0.9012
482.20 0.9018
482.30 0.9024
482.40 0.9029
482.50 0.9035
482.60 0.904
482.70 0.9046
482.80 0.9052
482.90 0.9057
483.00 0.9063
483.10 0.9068
483.20 0.9074
483.30 0.908
483.40 0.9085
483.50 0.9091
483.60 0.9096
483.70 0.9102
483.80 0.9108
483.90 0.9113
484.00 0.9119
484.10 0.9124
484.20 0.913
484.30 0.9135
484.40 0.9141
484.50 0.9147
484.60 0.9152
484.70 0.9158
484.80 0.9163
484.90 0.9169
485.00 0.9174
485.10 0.918
485.20 0.9186
485.30 0.9191
485.40 0.9197
485.50 0.9202
485.60 0.9208
485.70 0.9214
485.80 0.9219
485.90 0.9225
486.00 0.923
486.10 0.9236
486.20 0.9241
486.30 0.9247
486.40 0.9253
486.50 0.9258
486.60 0.9264
486.70 0.9269
486.80 0.9275
486.90 0.928
487.00 0.9286
487.10 0.9292
487.20 0.9297
487.30 0.9303
487.40 0.9308
487.50 0.9314
487.60 0.9319
487.70 0.9325
487.80 0.933
487.90 0.9336
488.00 0.9341
488.10 0.9347
488.20 0.9353
488.30 0.9358
488.40 0.9364
488.50 0.9369
488.60 0.9375
488.70 0.938
488.80 0.9386
488.90 0.9391
489.00 0.9397
489.10 0.9402
489.20 0.9408
489.30 0.9413
489.40 0.9419
489.50 0.9425
489.60 0.943
489.70 0.9436
489.80 0.9441
489.90 0.9447
490.00 0.9452
490.10 0.9458
490.20 0.9463
490.30 0.9469
490.40 0.9474
490.50 0.948
490.60 0.9486
490.70 0.9491
490.80 0.9497
490.90 0.9502
491.00 0.9508
491.10 0.9513
491.20 0.9519
491.30 0.9524
491.40 0.953
491.50 0.9535
491.60 0.9541
491.70 0.9546
491.80 0.9552
491.90 0.9557
492.00 0.9563
492.10 0.9568
492.20 0.9574
492.30 0.9579
492.40 0.9585
492.50 0.959
492.60 0.9596
492.70 0.9601
492.80 0.9607
492.90 0.9612
493.00 0.9618
493.10 0.9623
493.20 0.9629
493.30 0.9634
493.40 0.964
493.50 0.9645
493.60 0.9651
493.70 0.9656
493.80 0.9662
493.90 0.9667
494.00 0.9673
494.10 0.9678
494.20 0.9684
494.30 0.9689
494.40 0.9695
494.50 0.97
494.60 0.9706
494.70 0.9711
494.80 0.9717
494.90 0.9722
495.00 0.9728
495.10 0.9733
495.20 0.9739
495.30 0.9744
495.40 0.975
495.50 0.9755
495.60 0.976
495.70 0.9766
495.80 0.9771
495.90 0.9777
496.00 0.9782
496.10 0.9788
496.20 0.9793
496.30 0.9799
496.40 0.9804
496.50 0.981
496.60 0.9815
496.70 0.9821
496.80 0.9826
496.90 0.9831
497.00 0.9837
497.10 0.9842
497.20 0.9848
497.30 0.9853
497.40 0.9859
497.50 0.9864
497.60 0.987
497.70 0.9875
497.80 0.988
497.90 0.9886
498.00 0.9891
498.10 0.9897
498.20 0.9902
498.30 0.9908
498.40 0.9913
498.50 0.9918
498.60 0.9924
498.70 0.9929
498.80 0.9935
498.90 0.994
499.00 0.9946
499.10 0.9951
499.20 0.9957
499.30 0.9962
499.40 0.9967
499.50 0.9973
499.60 0.9978
499.70 0.9984
499.80 0.9989
499.90 0.9995
500.00 1
500.10 1.001
500.20 1.001
500.30 1.002
500.40 1.002
500.50 1.003
500.60 1.003
500.70 1.004
500.80 1.004
500.90 1.005
501.00 1.005
501.10 1.006
501.20 1.006
501.30 1.007
501.40 1.008
501.50 1.008
501.60 1.009
501.70 1.009
501.80 1.01
501.90 1.01
502.00 1.011
502.10 1.011
502.20 1.012
502.30 1.012
502.40 1.013
502.50 1.013
502.60 1.014
502.70 1.015
502.80 1.015
502.90 1.016
503.00 1.016
503.10 1.017
503.20 1.017
503.30 1.018
503.40 1.018
503.50 1.019
503.60 1.019
503.70 1.02
503.80 1.021
503.90 1.021
504.00 1.022
504.10 1.022
504.20 1.023
504.30 1.023
504.40 1.024
504.50 1.024
504.60 1.025
504.70 1.025
504.80 1.026
504.90 1.026
505.00 1.027
505.10 1.027
505.20 1.028
505.30 1.029
505.40 1.029
505.50 1.03
505.60 1.03
505.70 1.031
505.80 1.031
505.90 1.032
506.00 1.032
506.10 1.033
506.20 1.033
506.30 1.034
506.40 1.034
506.50 1.035
506.60 1.035
506.70 1.036
506.80 1.037
506.90 1.037
507.00 1.038
507.10 1.038
507.20 1.039
507.30 1.039
507.40 1.04
507.50 1.04
507.60 1.041
507.70 1.041
507.80 1.042
507.90 1.042
508.00 1.043
508.10 1.043
508.20 1.044
508.30 1.045
508.40 1.045
508.50 1.046
508.60 1.046
508.70 1.047
508.80 1.047
508.90 1.048
509.00 1.048
509.10 1.049
509.20 1.049
509.30 1.05
509.40 1.05
509.50 1.051
509.60 1.051
509.70 1.052
509.80 1.052
509.90 1.053
510.00 1.054
510.10 1.054
510.20 1.055
510.30 1.055
510.40 1.056
510.50 1.056
510.60 1.057
510.70 1.057
510.80 1.058
510.90 1.058
511.00 1.059
511.10 1.059
511.20 1.06
511.30 1.06
511.40 1.061
511.50 1.061
511.60 1.062
511.70 1.062
511.80 1.063
511.90 1.064
512.00 1.064
512.10 1.065
512.20 1.065
512.30 1.066
512.40 1.066
512.50 1.067
512.60 1.067
512.70 1.068
512.80 1.068
512.90 1.069
513.00 1.069
513.10 1.07
513.20 1.07
513.30 1.071
513.40 1.071
513.50 1.072
513.60 1.072
513.70 1.073
513.80 1.073
513.90 1.074
514.00 1.075
514.10 1.075
514.20 1.076
514.30 1.076
514.40 1.077
514.50 1.077
514.60 1.078
514.70 1.078
514.80 1.079
514.90 1.079
515.00 1.08
515.10 1.08
515.20 1.081
515.30 1.081
515.40 1.082
515.50 1.082
515.60 1.083
515.70 1.083
515.80 1.084
515.90 1.084
516.00 1.085
516.10 1.085
516.20 1.086
516.30 1.087
516.40 1.087
516.50 1.088
516.60 1.088
516.70 1.089
516.80 1.089
516.90 1.09
517.00 1.09
517.10 1.091
517.20 1.091
517.30 1.092
517.40 1.092
517.50 1.093
517.60 1.093
517.70 1.094
517.80 1.094
517.90 1.095
518.00 1.095
518.10 1.096
518.20 1.096
518.30 1.097
518.40 1.097
518.50 1.098
518.60 1.098
518.70 1.099
518.80 1.099
518.90 1.1
519.00 1.1
519.10 1.101
519.20 1.102
519.30 1.102
519.40 1.103
519.50 1.103
519.60 1.104
519.70 1.104
519.80 1.105
519.90 1.105
520.00 1.106
520.10 1.106
520.20 1.107
520.30 1.107
520.40 1.108
520.50 1.108
520.60 1.109
520.70 1.109
520.80 1.11
520.90 1.11
521.00 1.111
521.10 1.111
521.20 1.112
521.30 1.112
521.40 1.113
521.50 1.113
521.60 1.114
521.70 1.114
521.80 1.115
521.90 1.115
522.00 1.116
522.10 1.116
522.20 1.117
522.30 1.117
522.40 1.118
522.50 1.118
522.60 1.119
522.70 1.119
522.80 1.12
522.90 1.12
523.00 1.121
523.10 1.121
523.20 1.122
523.30 1.122
523.40 1.123
523.50 1.123
523.60 1.124
523.70 1.124
523.80 1.125
523.90 1.125
524.00 1.126
524.10 1.127
524.20 1.127
524.30 1.128
524.40 1.128
524.50 1.129
524.60 1.129
524.70 1.13
524.80 1.13
524.90 1.131
525.00 1.131
525.10 1.132
525.20 1.132
525.30 1.133
525.40 1.133
525.50 1.134
525.60 1.134
525.70 1.135
525.80 1.135
525.90 1.136
526.00 1.136
526.10 1.137
526.20 1.137
526.30 1.138
526.40 1.138
526.50 1.139
526.60 1.139
526.70 1.14
526.80 1.14
526.90 1.141
527.00 1.141
527.10 1.142
527.20 1.142
527.30 1.143
527.40 1.143
527.50 1.144
527.60 1.144
527.70 1.145
527.80 1.145
527.90 1.146
528.00 1.146
528.10 1.147
528.20 1.147
528.30 1.148
528.40 1.148
528.50 1.149
528.60 1.149
528.70 1.15
528.80 1.15
528.90 1.151
529.00 1.151
529.10 1.152
529.20 1.152
529.30 1.153
529.40 1.153
529.50 1.154
529.60 1.154
529.70 1.155
529.80 1.155
529.90 1.156
530.00 1.156
530.10 1.157
530.20 1.157
530.30 1.158
530.40 1.158
530.50 1.159
530.60 1.159
530.70 1.16
530.80 1.16
530.90 1.161
531.00 1.161
531.10 1.162
531.20 1.162
531.30 1.163
531.40 1.163
531.50 1.163
531.60 1.164
531.70 1.164
531.80 1.165
531.90 1.165
532.00 1.166
532.10 1.166
532.20 1.167
532.30 1.167
532.40 1.168
532.50 1.168
532.60 1.169
532.70 1.169
532.80 1.17
532.90 1.17
533.00 1.171
533.10 1.171
533.20 1.172
533.30 1.172
533.40 1.173
533.50 1.173
533.60 1.174
533.70 1.174
533.80 1.175
533.90 1.175
534.00 1.176
534.10 1.176
534.20 1.177
534.30 1.177
534.40 1.178
534.50 1.178
534.60 1.179
534.70 1.179
534.80 1.18
534.90 1.18
535.00 1.181
535.10 1.181
535.20 1.182
535.30 1.182
535.40 1.183
535.50 1.183
535.60 1.184
535.70 1.184
535.80 1.185
535.90 1.185
536.00 1.186
536.10 1.186
536.20 1.186
536.30 1.187
536.40 1.187
536.50 1.188
536.60 1.188
536.70 1.189
536.80 1.189
536.90 1.19
537.00 1.19
537.10 1.191
537.20 1.191
537.30 1.192
537.40 1.192
537.50 1.193
537.60 1.193
537.70 1.194
537.80 1.194
537.90 1.195
538.00 1.195
538.10 1.196
538.20 1.196
538.30 1.197
538.40 1.197
538.50 1.198
538.60 1.198
538.70 1.199
538.80 1.199
538.90 1.2
539.00 1.2
539.10 1.2
539.20 1.201
539.30 1.201
539.40 1.202
539.50 1.202
539.60 1.203
539.70 1.203
539.80 1.204
539.90 1.204
540.00 1.205
540.10 1.205
540.20 1.206
540.30 1.206
540.40 1.207
540.50 1.207
540.60 1.208
540.70 1.208
540.80 1.209
540.90 1.209
541.00 1.21
541.10 1.21
541.20 1.21
541.30 1.211
541.40 1.211
541.50 1.212
541.60 1.212
541.70 1.213
541.80 1.213
541.90 1.214
542.00 1.214
542.10 1.215
542.20 1.215
542.30 1.216
542.40 1.216
542.50 1.217
542.60 1.217
542.70 1.218
542.80 1.218
542.90 1.219
543.00 1.219
543.10 1.219
543.20 1.22
543.30 1.22
543.40 1.221
543.50 1.221
543.60 1.222
543.70 1.222
543.80 1.223
543.90 1.223
544.00 1.224
544.10 1.224
544.20 1.225
544.30 1.225
544.40 1.226
544.50 1.226
544.60 1.227
544.70 1.227
544.80 1.227
544.90 1.228
545.00 1.228
545.10 1.229
545.20 1.229
545.30 1.23
545.40 1.23
545.50 1.231
545.60 1.231
545.70 1.232
545.80 1.232
545.90 1.233
546.00 1.233
546.10 1.234
546.20 1.234
546.30 1.234
546.40 1.235
546.50 1.235
546.60 1.236
546.70 1.236
546.80 1.237
546.90 1.237
547.00 1.238
547.10 1.238
547.20 1.239
547.30 1.239
547.40 1.24
547.50 1.24
547.60 1.241
547.70 1.241
547.80 1.241
547.90 1.242
548.00 1.242
548.10 1.243
548.20 1.243
548.30 1.244
548.40 1.244
548.50 1.245
548.60 1.245
548.70 1.246
548.80 1.246
548.90 1.247
549.00 1.247
549.10 1.247
549.20 1.248
549.30 1.248
549.40 1.249
549.50 1.249
549.60 1.25
549.70 1.25
549.80 1.251
549.90 1.251
550.00 1.252
550.10 1.252
550.20 1.252
550.30 1.253
550.40 1.253
550.50 1.254
550.60 1.254
550.70 1.255
550.80 1.255
550.90 1.256
551.00 1.256
551.10 1.257
551.20 1.257
551.30 1.257
551.40 1.258
551.50 1.258
551.60 1.259
551.70 1.259
551.80 1.26
551.90 1.26
552.00 1.261
552.10 1.261
552.20 1.262
552.30 1.262
552.40 1.262
552.50 1.263
552.60 1.263
552.70 1.264
552.80 1.264
552.90 1.265
553.00 1.265
553.10 1.266
553.20 1.266
553.30 1.267
553.40 1.267
553.50 1.267
553.60 1.268
553.70 1.268
553.80 1.269
553.90 1.269
554.00 1.27
554.10 1.27
554.20 1.271
554.30 1.271
554.40 1.271
554.50 1.272
554.60 1.272
554.70 1.273
554.80 1.273
554.90 1.274
555.00 1.274
555.10 1.275
555.20 1.275
555.30 1.276
555.40 1.276
555.50 1.276
555.60 1.277
555.70 1.277
555.80 1.278
555.90 1.278
556.00 1.279
556.10 1.279
556.20 1.28
556.30 1.28
556.40 1.28
556.50 1.281
556.60 1.281
556.70 1.282
556.80 1.282
556.90 1.283
557.00 1.283
557.10 1.284
557.20 1.284
557.30 1.284
557.40 1.285
557.50 1.285
557.60 1.286
557.70 1.286
557.80 1.287
557.90 1.287
558.00 1.287
558.10 1.288
558.20 1.288
558.30 1.289
558.40 1.289
558.50 1.29
558.60 1.29
558.70 1.291
558.80 1.291
558.90 1.291
559.00 1.292
559.10 1.292
559.20 1.293
559.30 1.293
559.40 1.294
559.50 1.294
559.60 1.295
559.70 1.295
559.80 1.295
559.90 1.296
560.00 1.296
560.10 1.297
560.20 1.297
560.30 1.298
560.40 1.298
560.50 1.298
560.60 1.299
560.70 1.299
560.80 1.3
560.90 1.3
561.00 1.301
561.10 1.301
561.20 1.302
561.30 1.302
561.40 1.302
561.50 1.303
561.60 1.303
561.70 1.304
561.80 1.304
561.90 1.305
562.00 1.305
562.10 1.305
562.20 1.306
562.30 1.306
562.40 1.307
562.50 1.307
562.60 1.308
562.70 1.308
562.80 1.308
562.90 1.309
563.00 1.309
563.10 1.31
563.20 1.31
563.30 1.311
563.40 1.311
563.50 1.311
563.60 1.312
563.70 1.312
563.80 1.313
563.90 1.313
564.00 1.314
564.10 1.314
564.20 1.314
564.30 1.315
564.40 1.315
564.50 1.316
564.60 1.316
564.70 1.317
564.80 1.317
564.90 1.317
565.00 1.318
565.10 1.318
565.20 1.319
565.30 1.319
565.40 1.32
565.50 1.32
565.60 1.32
565.70 1.321
565.80 1.321
565.90 1.322
566.00 1.322
566.10 1.322
566.20 1.323
566.30 1.323
566.40 1.324
566.50 1.324
566.60 1.325
566.70 1.325
566.80 1.325
566.90 1.326
567.00 1.326
567.10 1.327
567.20 1.327
567.30 1.328
567.40 1.328
567.50 1.328
567.60 1.329
567.70 1.329
567.80 1.33
567.90 1.33
568.00 1.33
568.10 1.331
568.20 1.331
568.30 1.332
568.40 1.332
568.50 1.333
568.60 1.333
568.70 1.333
568.80 1.334
568.90 1.334
569.00 1.335
569.10 1.335
569.20 1.335
569.30 1.336
569.40 1.336
569.50 1.337
569.60 1.337
569.70 1.338
569.80 1.338
569.90 1.338
570.00 1.339
570.10 1.339
570.20 1.34
570.30 1.34
570.40 1.34
570.50 1.341
570.60 1.341
570.70 1.342
570.80 1.342
570.90 1.343
571.00 1.343
571.10 1.343
571.20 1.344
571.30 1.344
571.40 1.345
571.50 1.345
571.60 1.345
571.70 1.346
571.80 1.346
571.90 1.347
572.00 1.347
572.10 1.347
572.20 1.348
572.30 1.348
572.40 1.349
572.50 1.349
572.60 1.35
572.70 1.35
572.80 1.35
572.90 1.351
573.00 1.351
573.10 1.352
573.20 1.352
573.30 1.352
573.40 1.353
573.50 1.353
573.60 1.354
573.70 1.354
573.80 1.354
573.90 1.355
574.00 1.355
574.10 1.356
574.20 1.356
574.30 1.356
574.40 1.357
574.50 1.357
574.60 1.358
574.70 1.358
574.80 1.358
574.90 1.359
575.00 1.359
575.10 1.36
575.20 1.36
575.30 1.36
575.40 1.361
575.50 1.361
575.60 1.362
575.70 1.362
575.80 1.362
575.90 1.363
576.00 1.363
576.10 1.364
576.20 1.364
576.30 1.364
576.40 1.365
576.50 1.365
576.60 1.366
576.70 1.366
576.80 1.366
576.90 1.367
577.00 1.367
577.10 1.368
577.20 1.368
577.30 1.368
577.40 1.369
577.50 1.369
577.60 1.37
577.70 1.37
577.80 1.37
577.90 1.371
578.00 1.371
578.10 1.372
578.20 1.372
578.30 1.372
578.40 1.373
578.50 1.373
578.60 1.374
578.70 1.374
578.80 1.374
578.90 1.375
579.00 1.375
579.10 1.376
579.20 1.376
579.30 1.376
579.40 1.377
579.50 1.377
579.60 1.378
579.70 1.378
579.80 1.378
579.90 1.379
580.00 1.379
580.10 1.38
580.20 1.38
580.30 1.38
580.40 1.381
580.50 1.381
580.60 1.381
580.70 1.382
580.80 1.382
580.90 1.383
581.00 1.383
581.10 1.383
581.20 1.384
581.30 1.384
581.40 1.385
581.50 1.385
581.60 1.385
581.70 1.386
581.80 1.386
581.90 1.387
582.00 1.387
582.10 1.387
582.20 1.388
582.30 1.388
582.40 1.388
582.50 1.389
582.60 1.389
582.70 1.39
582.80 1.39
582.90 1.39
583.00 1.391
583.10 1.391
583.20 1.392
583.30 1.392
583.40 1.392
583.50 1.393
583.60 1.393
583.70 1.393
583.80 1.394
583.90 1.394
584.00 1.395
584.10 1.395
584.20 1.395
584.30 1.396
584.40 1.396
584.50 1.397
584.60 1.397
584.70 1.397
584.80 1.398
584.90 1.398
585.00 1.398
585.10 1.399
585.20 1.399
585.30 1.4
585.40 1.4
585.50 1.4
585.60 1.401
585.70 1.401
585.80 1.401
585.90 1.402
586.00 1.402
586.10 1.403
586.20 1.403
586.30 1.403
586.40 1.404
586.50 1.404
586.60 1.404
586.70 1.405
586.80 1.405
586.90 1.406
587.00 1.406
587.10 1.406
587.20 1.407
587.30 1.407
587.40 1.407
587.50 1.408
587.60 1.408
587.70 1.409
587.80 1.409
587.90 1.409
588.00 1.41
588.10 1.41
588.20 1.41
588.30 1.411
588.40 1.411
588.50 1.412
588.60 1.412
588.70 1.412
588.80 1.413
588.90 1.413
589.00 1.413
589.10 1.414
589.20 1.414
589.30 1.414
589.40 1.415
589.50 1.415
589.60 1.416
589.70 1.416
589.80 1.416
589.90 1.417
590.00 1.417
590.10 1.417
590.20 1.418
590.30 1.418
590.40 1.419
590.50 1.419
590.60 1.419
590.70 1.42
590.80 1.42
590.90 1.42
591.00 1.421
591.10 1.421
591.20 1.421
591.30 1.422
591.40 1.422
591.50 1.423
591.60 1.423
591.70 1.423
591.80 1.424
591.90 1.424
592.00 1.424
592.10 1.425
592.20 1.425
592.30 1.425
592.40 1.426
592.50 1.426
592.60 1.427
592.70 1.427
592.80 1.427
592.90 1.428
593.00 1.428
593.10 1.428
593.20 1.429
593.30 1.429
593.40 1.429
593.50 1.43
593.60 1.43
593.70 1.43
593.80 1.431
593.90 1.431
594.00 1.432
594.10 1.432
594.20 1.432
594.30 1.433
594.40 1.433
594.50 1.433
594.60 1.434
594.70 1.434
594.80 1.434
594.90 1.435
595.00 1.435
595.10 1.435
595.20 1.436
595.30 1.436
595.40 1.437
595.50 1.437
595.60 1.437
595.70 1.438
595.80 1.438
595.90 1.438
596.00 1.439
596.10 1.439
596.20 1.439
596.30 1.44
596.40 1.44
596.50 1.44
596.60 1.441
596.70 1.441
596.80 1.441
596.90 1.442
597.00 1.442
597.10 1.443
597.20 1.443
597.30 1.443
597.40 1.444
597.50 1.444
597.60 1.444
597.70 1.445
597.80 1.445
597.90 1.445
598.00 1.446
598.10 1.446
598.20 1.446
598.30 1.447
598.40 1.447
598.50 1.447
598.60 1.448
598.70 1.448
598.80 1.448
598.90 1.449
599.00 1.449
599.10 1.449
599.20 1.45
599.30 1.45
599.40 1.45
599.50 1.451
599.60 1.451
599.70 1.452
599.80 1.452
599.90 1.452
600.00 1.453
600.10 1.453
600.20 1.453
600.30 1.454
600.40 1.454
600.50 1.454
600.60 1.455
600.70 1.455
600.80 1.455
600.90 1.456
601.00 1.456
601.10 1.456
601.20 1.457
601.30 1.457
601.40 1.457
601.50 1.458
601.60 1.458
601.70 1.458
601.80 1.459
601.90 1.459
602.00 1.459
602.10 1.46
602.20 1.46
602.30 1.46
602.40 1.461
602.50 1.461
602.60 1.461
602.70 1.462
602.80 1.462
602.90 1.462
603.00 1.463
603.10 1.463
603.20 1.463
603.30 1.464
603.40 1.464
603.50 1.464
603.60 1.465
603.70 1.465
603.80 1.465
603.90 1.466
604.00 1.466
604.10 1.466
604.20 1.467
604.30 1.467
604.40 1.467
604.50 1.468
604.60 1.468
604.70 1.468
604.80 1.469
604.90 1.469
605.00 1.469
605.10 1.47
605.20 1.47
605.30 1.47
605.40 1.471
605.50 1.471
605.60 1.471
605.70 1.472
605.80 1.472
605.90 1.472
606.00 1.473
606.10 1.473
606.20 1.473
606.30 1.474
606.40 1.474
606.50 1.474
606.60 1.475
606.70 1.475
606.80 1.475
606.90 1.476
607.00 1.476
607.10 1.476
607.20 1.476
607.30 1.477
607.40 1.477
607.50 1.477
607.60 1.478
607.70 1.478
607.80 1.478
607.90 1.479
608.00 1.479
608.10 1.479
608.20 1.48
608.30 1.48
608.40 1.48
608.50 1.481
608.60 1.481
608.70 1.481
608.80 1.482
608.90 1.482
609.00 1.482
609.10 1.483
609.20 1.483
609.30 1.483
609.40 1.484
609.50 1.484
609.60 1.484
609.70 1.484
609.80 1.485
609.90 1.485
610.00 1.485
610.10 1.486
610.20 1.486
610.30 1.486
610.40 1.487
610.50 1.487
610.60 1.487
610.70 1.488
610.80 1.488
610.90 1.488
611.00 1.489
611.10 1.489
611.20 1.489
611.30 1.49
611.40 1.49
611.50 1.49
611.60 1.49
611.70 1.491
611.80 1.491
611.90 1.491
612.00 1.492
612.10 1.492
612.20 1.492
612.30 1.493
612.40 1.493
612.50 1.493
612.60 1.494
612.70 1.494
612.80 1.494
612.90 1.494
613.00 1.495
613.10 1.495
613.20 1.495
613.30 1.496
613.40 1.496
613.50 1.496
613.60 1.497
613.70 1.497
613.80 1.497
613.90 1.498
614.00 1.498
614.10 1.498
614.20 1.498
614.30 1.499
614.40 1.499
614.50 1.499
614.60 1.5
614.70 1.5
614.80 1.5
614.90 1.501
615.00 1.501
615.10 1.501
615.20 1.501
615.30 1.502
615.40 1.502
615.50 1.502
615.60 1.503
615.70 1.503
615.80 1.503
615.90 1.504
616.00 1.504
616.10 1.504
616.20 1.504
616.30 1.505
616.40 1.505
616.50 1.505
616.60 1.506
616.70 1.506
616.80 1.506
616.90 1.507
617.00 1.507
617.10 1.507
617.20 1.507
617.30 1.508
617.40 1.508
617.50 1.508
617.60 1.509
617.70 1.509
617.80 1.509
617.90 1.509
618.00 1.51
618.10 1.51
618.20 1.51
618.30 1.511
618.40 1.511
618.50 1.511
618.60 1.512
618.70 1.512
618.80 1.512
618.90 1.512
619.00 1.513
619.10 1.513
619.20 1.513
619.30 1.514
619.40 1.514
619.50 1.514
619.60 1.514
619.70 1.515
619.80 1.515
619.90 1.515
620.00 1.516
620.10 1.516
620.20 1.516
620.30 1.516
620.40 1.517
620.50 1.517
620.60 1.517
620.70 1.518
620.80 1.518
620.90 1.518
621.00 1.518
621.10 1.519
621.20 1.519
621.30 1.519
621.40 1.52
621.50 1.52
621.60 1.52
621.70 1.52
621.80 1.521
621.90 1.521
622.00 1.521
622.10 1.522
622.20 1.522
622.30 1.522
622.40 1.522
622.50 1.523
622.60 1.523
622.70 1.523
622.80 1.524
622.90 1.524
623.00 1.524
623.10 1.524
623.20 1.525
623.30 1.525
623.40 1.525
623.50 1.526
623.60 1.526
623.70 1.526
623.80 1.526
623.90 1.527
624.00 1.527
624.10 1.527
624.20 1.527
624.30 1.528
624.40 1.528
624.50 1.528
624.60 1.529
624.70 1.529
624.80 1.529
624.90 1.529
625.00 1.53
625.10 1.53
625.20 1.53
625.30 1.53
625.40 1.531
625.50 1.531
625.60 1.531
625.70 1.532
625.80 1.532
625.90 1.532
626.00 1.532
626.10 1.533
626.20 1.533
626.30 1.533
626.40 1.533
626.50 1.534
626.60 1.534
626.70 1.534
626.80 1.535
626.90 1.535
627.00 1.535
627.10 1.535
627.20 1.536
627.30 1.536
627.40 1.536
627.50 1.536
627.60 1.537
627.70 1.537
627.80 1.537
627.90 1.537
628.00 1.538
628.10 1.538
628.20 1.538
628.30 1.538
628.40 1.539
628.50 1.539
628.60 1.539
628.70 1.54
628.80 1.54
628.90 1.54
629.00 1.54
629.10 1.541
629.20 1.541
629.30 1.541
629.40 1.541
629.50 1.542
629.60 1.542
629.70 1.542
629.80 1.542
629.90 1.543
630.00 1.543
630.10 1.543
630.20 1.543
630.30 1.544
630.40 1.544
630.50 1.544
630.60 1.544
630.70 1.545
630.80 1.545
630.90 1.545
631.00 1.545
631.10 1.546
631.20 1.546
631.30 1.546
631.40 1.546
631.50 1.547
631.60 1.547
631.70 1.547
631.80 1.548
631.90 1.548
632.00 1.548
632.10 1.548
632.20 1.549
632.30 1.549
632.40 1.549
632.50 1.549
632.60 1.55
632.70 1.55
632.80 1.55
632.90 1.55
633.00 1.551
633.10 1.551
633.20 1.551
633.30 1.551
633.40 1.552
633.50 1.552
633.60 1.552
633.70 1.552
633.80 1.553
633.90 1.553
634.00 1.553
634.10 1.553
634.20 1.553
634.30 1.554
634.40 1.554
634.50 1.554
634.60 1.554
634.70 1.555
634.80 1.555
634.90 1.555
635.00 1.555
635.10 1.556
635.20 1.556
635.30 1.556
635.40 1.556
635.50 1.557
635.60 1.557
635.70 1.557
635.80 1.557
635.90 1.558
636.00 1.558
636.10 1.558
636.20 1.558
636.30 1.559
636.40 1.559
636.50 1.559
636.60 1.559
636.70 1.56
636.80 1.56
636.90 1.56
637.00 1.56
637.10 1.56
637.20 1.561
637.30 1.561
637.40 1.561
637.50 1.561
637.60 1.562
637.70 1.562
637.80 1.562
637.90 1.562
638.00 1.563
638.10 1.563
638.20 1.563
638.30 1.563
638.40 1.563
638.50 1.564
638.60 1.564
638.70 1.564
638.80 1.564
638.90 1.565
639.00 1.565
639.10 1.565
639.20 1.565
639.30 1.566
639.40 1.566
639.50 1.566
639.60 1.566
639.70 1.566
639.80 1.567
639.90 1.567
640.00 1.567
640.10 1.567
640.20 1.568
640.30 1.568
640.40 1.568
640.50 1.568
640.60 1.568
640.70 1.569
640.80 1.569
640.90 1.569
641.00 1.569
641.10 1.57
641.20 1.57
641.30 1.57
641.40 1.57
641.50 1.57
641.60 1.571
641.70 1.571
641.80 1.571
641.90 1.571
642.00 1.572
642.10 1.572
642.20 1.572
642.30 1.572
642.40 1.572
642.50 1.573
642.60 1.573
642.70 1.573
642.80 1.573
642.90 1.574
643.00 1.574
643.10 1.574
643.20 1.574
643.30 1.574
643.40 1.575
643.50 1.575
643.60 1.575
643.70 1.575
643.80 1.575
643.90 1.576
644.00 1.576
644.10 1.576
644.20 1.576
644.30 1.577
644.40 1.577
644.50 1.577
644.60 1.577
644.70 1.577
644.80 1.578
644.90 1.578
645.00 1.578
645.10 1.578
645.20 1.578
645.30 1.579
645.40 1.579
645.50 1.579
645.60 1.579
645.70 1.579
645.80 1.58
645.90 1.58
646.00 1.58
646.10 1.58
646.20 1.58
646.30 1.581
646.40 1.581
646.50 1.581
646.60 1.581
646.70 1.581
646.80 1.582
646.90 1.582
647.00 1.582
647.10 1.582
647.20 1.582
647.30 1.583
647.40 1.583
647.50 1.583
647.60 1.583
647.70 1.583
647.80 1.584
647.90 1.584
648.00 1.584
648.10 1.584
648.20 1.584
648.30 1.585
648.40 1.585
648.50 1.585
648.60 1.585
648.70 1.585
648.80 1.586
648.90 1.586
649.00 1.586
649.10 1.586
649.20 1.586
649.30 1.587
649.40 1.587
649.50 1.587
649.60 1.587
649.70 1.587
649.80 1.588
649.90 1.588
650.00 1.588
650.10 1.588
650.20 1.588
650.30 1.588
650.40 1.589
650.50 1.589
650.60 1.589
650.70 1.589
650.80 1.589
650.90 1.59
651.00 1.59
651.10 1.59
651.20 1.59
651.30 1.59
651.40 1.591
651.50 1.591
651.60 1.591
651.70 1.591
651.80 1.591
651.90 1.591
652.00 1.592
652.10 1.592
652.20 1.592
652.30 1.592
652.40 1.592
652.50 1.593
652.60 1.593
652.70 1.593
652.80 1.593
652.90 1.593
653.00 1.593
653.10 1.594
653.20 1.594
653.30 1.594
653.40 1.594
653.50 1.594
653.60 1.594
653.70 1.595
653.80 1.595
653.90 1.595
654.00 1.595
654.10 1.595
654.20 1.595
654.30 1.596
654.40 1.596
654.50 1.596
654.60 1.596
654.70 1.596
654.80 1.597
654.90 1.597
655.00 1.597
655.10 1.597
655.20 1.597
655.30 1.597
655.40 1.598
655.50 1.598
655.60 1.598
655.70 1.598
655.80 1.598
655.90 1.598
656.00 1.598
656.10 1.599
656.20 1.599
656.30 1.599
656.40 1.599
656.50 1.599
656.60 1.599
656.70 1.6
656.80 1.6
656.90 1.6
657.00 1.6
657.10 1.6
657.20 1.6
657.30 1.601
657.40 1.601
657.50 1.601
657.60 1.601
657.70 1.601
657.80 1.601
657.90 1.602
658.00 1.602
658.10 1.602
658.20 1.602
658.30 1.602
658.40 1.602
658.50 1.602
658.60 1.603
658.70 1.603
658.80 1.603
658.90 1.603
659.00 1.603
659.10 1.603
659.20 1.604
659.30 1.604
659.40 1.604
659.50 1.604
659.60 1.604
659.70 1.604
659.80 1.604
659.90 1.605
660.00 1.605
660.10 1.605
660.20 1.605
660.30 1.605
660.40 1.605
660.50 1.605
660.60 1.606
660.70 1.606
660.80 1.606
660.90 1.606
661.00 1.606
661.10 1.606
661.20 1.606
661.30 1.607
661.40 1.607
661.50 1.607
661.60 1.607
661.70 1.607
661.80 1.607
661.90 1.607
662.00 1.608
662.10 1.608
662.20 1.608
662.30 1.608
662.40 1.608
662.50 1.608
662.60 1.608
662.70 1.609
662.80 1.609
662.90 1.609
663.00 1.609
663.10 1.609
663.20 1.609
663.30 1.609
663.40 1.609
663.50 1.61
663.60 1.61
663.70 1.61
663.80 1.61
663.90 1.61
664.00 1.61
664.10 1.61
664.20 1.611
664.30 1.611
664.40 1.611
664.50 1.611
664.60 1.611
664.70 1.611
664.80 1.611
664.90 1.611
665.00 1.612
665.10 1.612
665.20 1.612
665.30 1.612
665.40 1.612
665.50 1.612
665.60 1.612
665.70 1.612
665.80 1.612
665.90 1.613
666.00 1.613
666.10 1.613
666.20 1.613
666.30 1.613
666.40 1.613
666.50 1.613
666.60 1.613
666.70 1.614
666.80 1.614
666.90 1.614
667.00 1.614
667.10 1.614
667.20 1.614
667.30 1.614
667.40 1.614
667.50 1.614
667.60 1.615
667.70 1.615
667.80 1.615
667.90 1.615
668.00 1.615
668.10 1.615
668.20 1.615
668.30 1.615
668.40 1.615
668.50 1.616
668.60 1.616
668.70 1.616
668.80 1.616
668.90 1.616
669.00 1.616
669.10 1.616
669.20 1.616
669.30 1.616
669.40 1.616
669.50 1.617
669.60 1.617
669.70 1.617
669.80 1.617
669.90 1.617
670.00 1.617
670.10 1.617
670.20 1.617
670.30 1.617
670.40 1.617
670.50 1.617
670.60 1.618
670.70 1.618
670.80 1.618
670.90 1.618
671.00 1.618
671.10 1.618
671.20 1.618
671.30 1.618
671.40 1.618
671.50 1.618
671.60 1.618
671.70 1.619
671.80 1.619
671.90 1.619
672.00 1.619
672.10 1.619
672.20 1.619
672.30 1.619
672.40 1.619
672.50 1.619
672.60 1.619
672.70 1.619
672.80 1.619
672.90 1.62
673.00 1.62
673.10 1.62
673.20 1.62
673.30 1.62
673.40 1.62
673.50 1.62
673.60 1.62
673.70 1.62
673.80 1.62
673.90 1.62
674.00 1.62
674.10 1.62
674.20 1.621
674.30 1.621
674.40 1.621
674.50 1.621
674.60 1.621
674.70 1.621
674.80 1.621
674.90 1.621
675.00 1.621
675.10 1.621
675.20 1.621
675.30 1.621
675.40 1.621
675.50 1.621
675.60 1.621
675.70 1.622
675.80 1.622
675.90 1.622
676.00 1.622
676.10 1.622
676.20 1.622
676.30 1.622
676.40 1.622
676.50 1.622
676.60 1.622
676.70 1.622
676.80 1.622
676.90 1.622
677.00 1.622
677.10 1.622
677.20 1.622
677.30 1.622
677.40 1.622
677.50 1.623
677.60 1.623
677.70 1.623
677.80 1.623
677.90 1.623
678.00 1.623
678.10 1.623
678.20 1.623
678.30 1.623
678.40 1.623
678.50 1.623
678.60 1.623
678.70 1.623
678.80 1.623
678.90 1.623
679.00 1.623
679.10 1.623
679.20 1.623
679.30 1.623
679.40 1.623
679.50 1.623
679.60 1.623
679.70 1.623
679.80 1.624
679.90 1.624
680.00 1.624
680.10 1.624
680.20 1.624
680.30 1.624
680.40 1.624
680.50 1.624
680.60 1.624
680.70 1.624
680.80 1.624
680.90 1.624
681.00 1.624
681.10 1.624
681.20 1.624
681.30 1.624
681.40 1.624
681.50 1.624
681.60 1.624
681.70 1.624
681.80 1.624
681.90 1.624
682.00 1.624
682.10 1.624
682.20 1.624
682.30 1.624
682.40 1.624
682.50 1.624
682.60 1.624
682.70 1.624
682.80 1.624
682.90 1.624
683.00 1.624
683.10 1.624
683.20 1.624
683.30 1.624
683.40 1.624
683.50 1.624
683.60 1.624
683.70 1.624
683.80 1.624
683.90 1.624
684.00 1.624
684.10 1.624
684.20 1.624
684.30 1.624
684.40 1.624
684.50 1.624
684.60 1.624
684.70 1.624
684.80 1.624
684.90 1.624
685.00 1.624
685.10 1.624
685.20 1.624
685.30 1.624
685.40 1.624
685.50 1.624
685.60 1.624
685.70 1.624
685.80 1.624
685.90 1.624
686.00 1.624
686.10 1.624
686.20 1.624
686.30 1.624
686.40 1.624
686.50 1.624
686.60 1.624
686.70 1.624
686.80 1.624
686.90 1.624
687.00 1.624
687.10 1.624
687.20 1.624
687.30 1.624
687.40 1.624
687.50 1.624
687.60 1.624
687.70 1.624
687.80 1.624
687.90 1.624
688.00 1.624
688.10 1.624
688.20 1.624
688.30 1.624
688.40 1.624
688.50 1.624
688.60 1.624
688.70 1.624
688.80 1.623
688.90 1.623
689.00 1.623
689.10 1.623
689.20 1.623
689.30 1.623
689.40 1.623
689.50 1.623
689.60 1.623
689.70 1.623
689.80 1.623
689.90 1.623
690.00 1.623
690.10 1.623
690.20 1.623
690.30 1.623
690.40 1.623
690.50 1.622
690.60 1.622
690.70 1.622
690.80 1.622
690.90 1.622
691.00 1.622
691.10 1.622
691.20 1.622
691.30 1.622
691.40 1.622
691.50 1.622
691.60 1.622
691.70 1.622
691.80 1.622
691.90 1.622
692.00 1.621
692.10 1.621
692.20 1.621
692.30 1.621
692.40 1.621
692.50 1.621
692.60 1.621
692.70 1.621
692.80 1.621
692.90 1.621
693.00 1.621
693.10 1.621
693.20 1.621
693.30 1.621
693.40 1.621
693.50 1.62
693.60 1.62
693.70 1.62
693.80 1.62
693.90 1.62
694.00 1.62
694.10 1.62
694.20 1.62
694.30 1.62
694.40 1.62
694.50 1.62
694.60 1.62
694.70 1.62
694.80 1.62
694.90 1.619
695.00 1.619
695.10 1.619
695.20 1.619
695.30 1.619
695.40 1.619
695.50 1.619
695.60 1.619
695.70 1.619
695.80 1.618
695.90 1.618
696.00 1.618
696.10 1.618
696.20 1.618
696.30 1.618
696.40 1.618
696.50 1.618
696.60 1.618
696.70 1.617
696.80 1.617
696.90 1.617
697.00 1.617
697.10 1.617
697.20 1.617
697.30 1.617
697.40 1.617
697.50 1.616
697.60 1.616
697.70 1.616
697.80 1.616
697.90 1.616
698.00 1.616
698.10 1.616
698.20 1.616
698.30 1.616
698.40 1.615
698.50 1.615
698.60 1.615
698.70 1.615
698.80 1.615
698.90 1.615
699.00 1.615
699.10 1.615
699.20 1.614
699.30 1.614
699.40 1.614
699.50 1.614
699.60 1.614
699.70 1.614
699.80 1.614
699.90 1.614
700.00 1.614
700.10 1.613
700.20 1.613
700.30 1.613
700.40 1.613
700.50 1.613
700.60 1.613
700.70 1.612
700.80 1.612
700.90 1.612
701.00 1.612
701.10 1.612
701.20 1.612
701.30 1.611
701.40 1.611
701.50 1.611
701.60 1.611
701.70 1.611
701.80 1.611
701.90 1.61
702.00 1.61
702.10 1.61
702.20 1.61
702.30 1.61
702.40 1.61
702.50 1.609
702.60 1.609
702.70 1.609
702.80 1.609
702.90 1.609
703.00 1.609
703.10 1.608
703.20 1.608
703.30 1.608
703.40 1.608
703.50 1.608
703.60 1.608
703.70 1.607
703.80 1.607
703.90 1.607
704.00 1.607
704.10 1.607
704.20 1.607
704.30 1.606
704.40 1.606
704.50 1.606
704.60 1.606
704.70 1.606
704.80 1.606
704.90 1.605
705.00 1.605
705.10 1.605
705.20 1.605
705.30 1.605
705.40 1.604
705.50 1.604
705.60 1.604
705.70 1.604
705.80 1.603
705.90 1.603
706.00 1.603
706.10 1.603
706.20 1.603
706.30 1.602
706.40 1.602
706.50 1.602
706.60 1.602
706.70 1.602
706.80 1.601
706.90 1.601
707.00 1.601
707.10 1.601
707.20 1.6
707.30 1.6
707.40 1.6
707.50 1.6
707.60 1.6
707.70 1.599
707.80 1.599
707.90 1.599
708.00 1.599
708.10 1.599
708.20 1.598
708.30 1.598
708.40 1.598
708.50 1.598
708.60 1.597
708.70 1.597
708.80 1.597
708.90 1.597
709.00 1.597
709.10 1.596
709.20 1.596
709.30 1.596
709.40 1.596
709.50 1.596
709.60 1.595
709.70 1.595
709.80 1.595
709.90 1.595
710.00 1.594
710.10 1.594
710.20 1.594
710.30 1.594
710.40 1.593
710.50 1.593
710.60 1.593
710.70 1.593
710.80 1.592
710.90 1.592
711.00 1.592
711.10 1.592
711.20 1.591
711.30 1.591
711.40 1.591
711.50 1.591
711.60 1.59
711.70 1.59
711.80 1.59
711.90 1.59
712.00 1.589
712.10 1.589
712.20 1.589
712.30 1.588
712.40 1.588
712.50 1.588
712.60 1.588
712.70 1.587
712.80 1.587
712.90 1.587
713.00 1.587
713.10 1.586
713.20 1.586
713.30 1.586
713.40 1.586
713.50 1.585
713.60 1.585
713.70 1.585
713.80 1.585
713.90 1.584
714.00 1.584
714.10 1.584
714.20 1.584
714.30 1.583
714.40 1.583
714.50 1.583
714.60 1.583
714.70 1.582
714.80 1.582
714.90 1.582
715.00 1.582
715.10 1.581
715.20 1.581
715.30 1.581
715.40 1.58
715.50 1.58
715.60 1.58
715.70 1.579
715.80 1.579
715.90 1.579
716.00 1.579
716.10 1.578
716.20 1.578
716.30 1.578
716.40 1.577
716.50 1.577
716.60 1.577
716.70 1.576
716.80 1.576
716.90 1.576
717.00 1.576
717.10 1.575
717.20 1.575
717.30 1.575
717.40 1.574
717.50 1.574
717.60 1.574
717.70 1.573
717.80 1.573
717.90 1.573
718.00 1.573
718.10 1.572
718.20 1.572
718.30 1.572
718.40 1.571
718.50 1.571
718.60 1.571
718.70 1.57
718.80 1.57
718.90 1.57
719.00 1.57
719.10 1.569
719.20 1.569
719.30 1.569
719.40 1.568
719.50 1.568
719.60 1.568
719.70 1.567
719.80 1.567
719.90 1.567
720.00 1.567
720.10 1.566
720.20 1.566
720.30 1.566
720.40 1.565
720.50 1.565
720.60 1.565
720.70 1.564
720.80 1.564
720.90 1.564
721.00 1.563
721.10 1.563
721.20 1.563
721.30 1.562
721.40 1.562
721.50 1.562
721.60 1.561
721.70 1.561
721.80 1.561
721.90 1.56
722.00 1.56
722.10 1.56
722.20 1.559
722.30 1.559
722.40 1.559
722.50 1.558
722.60 1.558
722.70 1.558
722.80 1.558
722.90 1.557
723.00 1.557
723.10 1.557
723.20 1.556
723.30 1.556
723.40 1.556
723.50 1.555
723.60 1.555
723.70 1.555
723.80 1.554
723.90 1.554
724.00 1.554
724.10 1.553
724.20 1.553
724.30 1.553
724.40 1.552
724.50 1.552
724.60 1.552
724.70 1.551
724.80 1.551
724.90 1.551
725.00 1.55
725.10 1.55
725.20 1.55
725.30 1.549
725.40 1.549
725.50 1.549
725.60 1.548
725.70 1.548
725.80 1.548
725.90 1.547
726.00 1.547
726.10 1.547
726.20 1.546
726.30 1.546
726.40 1.546
726.50 1.545
726.60 1.545
726.70 1.545
726.80 1.544
726.90 1.544
727.00 1.544
727.10 1.543
727.20 1.543
727.30 1.543
727.40 1.542
727.50 1.542
727.60 1.542
727.70 1.541
727.80 1.541
727.90 1.541
728.00 1.54
728.10 1.54
728.20 1.54
728.30 1.539
728.40 1.539
728.50 1.539
728.60 1.538
728.70 1.538
728.80 1.538
728.90 1.537
729.00 1.537
729.10 1.537
729.20 1.536
729.30 1.536
729.40 1.536
729.50 1.535
729.60 1.535
729.70 1.535
729.80 1.534
729.90 1.534
730.00 1.534
730.10 1.533
730.20 1.533
730.30 1.533
730.40 1.532
730.50 1.532
730.60 1.532
730.70 1.532
730.80 1.531
730.90 1.531
731.00 1.531
731.10 1.53
731.20 1.53
731.30 1.53
731.40 1.529
731.50 1.529
731.60 1.529
731.70 1.528
731.80 1.528
731.90 1.528
732.00 1.527
732.10 1.527
732.20 1.527
732.30 1.526
732.40 1.526
732.50 1.526
732.60 1.526
732.70 1.525
732.80 1.525
732.90 1.525
733.00 1.524
733.10 1.524
733.20 1.524
733.30 1.523
733.40 1.523
733.50 1.523
733.60 1.522
733.70 1.522
733.80 1.522
733.90 1.521
734.00 1.521
734.10 1.521
734.20 1.52
734.30 1.52
734.40 1.52
734.50 1.52
734.60 1.519
734.70 1.519
734.80 1.519
734.90 1.518
735.00 1.518
735.10 1.518
735.20 1.517
735.30 1.517
735.40 1.517
735.50 1.516
735.60 1.516
735.70 1.516
735.80 1.515
735.90 1.515
736.00 1.515
736.10 1.515
736.20 1.514
736.30 1.514
736.40 1.514
736.50 1.513
736.60 1.513
736.70 1.513
736.80 1.512
736.90 1.512
737.00 1.512
737.10 1.511
737.20 1.511
737.30 1.511
737.40 1.51
737.50 1.51
737.60 1.51
737.70 1.51
737.80 1.509
737.90 1.509
738.00 1.509
738.10 1.508
738.20 1.508
738.30 1.508
738.40 1.507
738.50 1.507
738.60 1.507
738.70 1.506
738.80 1.506
738.90 1.506
739.00 1.506
739.10 1.505
739.20 1.505
739.30 1.505
739.40 1.504
739.50 1.504
739.60 1.504
739.70 1.503
739.80 1.503
739.90 1.503
740.00 1.502
740.10 1.502
740.20 1.502
740.30 1.502
740.40 1.501
740.50 1.501
740.60 1.501
740.70 1.501
740.80 1.5
740.90 1.5
741.00 1.5
741.10 1.5
741.20 1.499
741.30 1.499
741.40 1.499
741.50 1.499
741.60 1.498
741.70 1.498
741.80 1.498
741.90 1.498
742.00 1.497
742.10 1.497
742.20 1.497
742.30 1.496
742.40 1.496
742.50 1.496
742.60 1.496
742.70 1.495
742.80 1.495
742.90 1.495
743.00 1.495
743.10 1.494
743.20 1.494
743.30 1.494
743.40 1.494
743.50 1.493
743.60 1.493
743.70 1.493
743.80 1.493
743.90 1.492
744.00 1.492
744.10 1.492
744.20 1.492
744.30 1.491
744.40 1.491
744.50 1.491
744.60 1.491
744.70 1.49
744.80 1.49
744.90 1.49
745.00 1.489
745.10 1.489
745.20 1.489
745.30 1.489
745.40 1.488
745.50 1.488
745.60 1.488
745.70 1.488
745.80 1.487
745.90 1.487
746.00 1.487
746.10 1.487
746.20 1.486
746.30 1.486
746.40 1.486
746.50 1.486
746.60 1.485
746.70 1.485
746.80 1.485
746.90 1.485
747.00 1.484
747.10 1.484
747.20 1.484
747.30 1.484
747.40 1.483
747.50 1.483
747.60 1.483
747.70 1.483
747.80 1.482
747.90 1.482
748.00 1.482
748.10 1.482
748.20 1.481
748.30 1.481
748.40 1.481
748.50 1.481
748.60 1.48
748.70 1.48
748.80 1.48
748.90 1.48
749.00 1.479
749.10 1.479
749.20 1.479
749.30 1.479
749.40 1.478
749.50 1.478
749.60 1.478
749.70 1.478
749.80 1.477
749.90 1.477
750.00 1.477
750.10 1.477
750.20 1.476
750.30 1.476
750.40 1.476
750.50 1.476
750.60 1.475
750.70 1.475
750.80 1.475
750.90 1.475
751.00 1.475
751.10 1.474
751.20 1.474
751.30 1.474
751.40 1.474
751.50 1.474
751.60 1.473
751.70 1.473
751.80 1.473
751.90 1.473
752.00 1.472
752.10 1.472
752.20 1.472
752.30 1.472
752.40 1.472
752.50 1.471
752.60 1.471
752.70 1.471
752.80 1.471
752.90 1.471
753.00 1.47
753.10 1.47
753.20 1.47
753.30 1.47
753.40 1.469
753.50 1.469
753.60 1.469
753.70 1.469
753.80 1.469
753.90 1.468
754.00 1.468
754.10 1.468
754.20 1.468
754.30 1.468
754.40 1.467
754.50 1.467
754.60 1.467
754.70 1.467
754.80 1.466
754.90 1.466
755.00 1.466
755.10 1.466
755.20 1.466
755.30 1.465
755.40 1.465
755.50 1.465
755.60 1.465
755.70 1.465
755.80 1.464
755.90 1.464
756.00 1.464
756.10 1.464
756.20 1.463
756.30 1.463
756.40 1.463
756.50 1.463
756.60 1.463
756.70 1.462
756.80 1.462
756.90 1.462
757.00 1.462
757.10 1.462
757.20 1.461
757.30 1.461
757.40 1.461
757.50 1.461
757.60 1.461
757.70 1.46
757.80 1.46
757.90 1.46
758.00 1.46
758.10 1.459
758.20 1.459
758.30 1.459
758.40 1.459
758.50 1.459
758.60 1.458
758.70 1.458
758.80 1.458
758.90 1.458
759.00 1.458
759.10 1.457
759.20 1.457
759.30 1.457
759.40 1.457
759.50 1.457
759.60 1.456
759.70 1.456
759.80 1.456
759.90 1.456
760.00 1.455
760.10 1.455
760.20 1.455
760.30 1.455
760.40 1.455
760.50 1.455
760.60 1.454
760.70 1.454
760.80 1.454
760.90 1.454
761.00 1.454
761.10 1.453
761.20 1.453
761.30 1.453
761.40 1.453
761.50 1.453
761.60 1.453
761.70 1.452
761.80 1.452
761.90 1.452
762.00 1.452
762.10 1.452
762.20 1.451
762.30 1.451
762.40 1.451
762.50 1.451
762.60 1.451
762.70 1.451
762.80 1.45
762.90 1.45
763.00 1.45
763.10 1.45
763.20 1.45
763.30 1.449
763.40 1.449
763.50 1.449
763.60 1.449
763.70 1.449
763.80 1.448
763.90 1.448
764.00 1.448
764.10 1.448
764.20 1.448
764.30 1.448
764.40 1.447
764.50 1.447
764.60 1.447
764.70 1.447
764.80 1.447
764.90 1.446
765.00 1.446
765.10 1.446
765.20 1.446
765.30 1.446
765.40 1.446
765.50 1.445
765.60 1.445
765.70 1.445
765.80 1.445
765.90 1.445
766.00 1.444
766.10 1.444
766.20 1.444
766.30 1.444
766.40 1.444
766.50 1.444
766.60 1.443
766.70 1.443
766.80 1.443
766.90 1.443
767.00 1.443
767.10 1.442
767.20 1.442
767.30 1.442
767.40 1.442
767.50 1.442
767.60 1.442
767.70 1.441
767.80 1.441
767.90 1.441
768.00 1.441
768.10 1.441
768.20 1.44
768.30 1.44
768.40 1.44
768.50 1.44
768.60 1.44
768.70 1.44
768.80 1.439
768.90 1.439
769.00 1.439
769.10 1.439
769.20 1.439
769.30 1.438
769.40 1.438
769.50 1.438
769.60 1.438
769.70 1.438
769.80 1.438
769.90 1.437
770.00 1.437
770.10 1.437
770.20 1.437
770.30 1.437
770.40 1.437
770.50 1.437
770.60 1.436
770.70 1.436
770.80 1.436
770.90 1.436
771.00 1.436
771.10 1.436
771.20 1.436
771.30 1.435
771.40 1.435
771.50 1.435
771.60 1.435
771.70 1.435
771.80 1.435
771.90 1.435
772.00 1.435
772.10 1.434
772.20 1.434
772.30 1.434
772.40 1.434
772.50 1.434
772.60 1.434
772.70 1.434
772.80 1.433
772.90 1.433
773.00 1.433
773.10 1.433
773.20 1.433
773.30 1.433
773.40 1.433
773.50 1.432
773.60 1.432
773.70 1.432
773.80 1.432
773.90 1.432
774.00 1.432
774.10 1.432
774.20 1.432
774.30 1.431
774.40 1.431
774.50 1.431
774.60 1.431
774.70 1.431
774.80 1.431
774.90 1.431
775.00 1.43
775.10 1.43
775.20 1.43
775.30 1.43
775.40 1.43
775.50 1.43
775.60 1.43
775.70 1.43
775.80 1.429
775.90 1.429
776.00 1.429
776.10 1.429
776.20 1.429
776.30 1.429
776.40 1.429
776.50 1.428
776.60 1.428
776.70 1.428
776.80 1.428
776.90 1.428
777.00 1.428
777.10 1.428
777.20 1.427
777.30 1.427
777.40 1.427
777.50 1.427
777.60 1.427
777.70 1.427
777.80 1.427
777.90 1.427
778.00 1.426
778.10 1.426
778.20 1.426
778.30 1.426
778.40 1.426
778.50 1.426
778.60 1.426
778.70 1.425
778.80 1.425
778.90 1.425
779.00 1.425
779.10 1.425
779.20 1.425
779.30 1.425
779.40 1.425
779.50 1.424
779.60 1.424
779.70 1.424
779.80 1.424
779.90 1.424
780.00 1.424
780.10 1.424
780.20 1.424
780.30 1.424
780.40 1.423
780.50 1.423
780.60 1.423
780.70 1.423
780.80 1.423
780.90 1.423
781.00 1.423
781.10 1.423
781.20 1.423
781.30 1.423
781.40 1.423
781.50 1.423
781.60 1.423
781.70 1.422
781.80 1.422
781.90 1.422
782.00 1.422
782.10 1.422
782.20 1.422
782.30 1.422
782.40 1.422
782.50 1.422
782.60 1.422
782.70 1.422
782.80 1.422
782.90 1.422
783.00 1.421
783.10 1.421
783.20 1.421
783.30 1.421
783.40 1.421
783.50 1.421
783.60 1.421
783.70 1.421
783.80 1.421
783.90 1.421
784.00 1.421
784.10 1.421
784.20 1.421
784.30 1.42
784.40 1.42
784.50 1.42
784.60 1.42
784.70 1.42
784.80 1.42
784.90 1.42
785.00 1.42
785.10 1.42
785.20 1.42
785.30 1.42
785.40 1.42
785.50 1.42
785.60 1.419
785.70 1.419
785.80 1.419
785.90 1.419
786.00 1.419
786.10 1.419
786.20 1.419
786.30 1.419
786.40 1.419
786.50 1.419
786.60 1.419
786.70 1.419
786.80 1.419
786.90 1.418
787.00 1.418
787.10 1.418
787.20 1.418
787.30 1.418
787.40 1.418
787.50 1.418
787.60 1.418
787.70 1.418
787.80 1.418
787.90 1.418
788.00 1.418
788.10 1.418
788.20 1.417
788.30 1.417
788.40 1.417
788.50 1.417
788.60 1.417
788.70 1.417
788.80 1.417
788.90 1.417
789.00 1.417
789.10 1.417
789.20 1.417
789.30 1.417
789.40 1.417
789.50 1.416
789.60 1.416
789.70 1.416
789.80 1.416
789.90 1.416
790.00 1.416
790.10 1.416
790.20 1.416
790.30 1.416
790.40 1.416
790.50 1.416
790.60 1.416
790.70 1.416
790.80 1.416
790.90 1.416
791.00 1.415
791.10 1.415
791.20 1.415
791.30 1.415
791.40 1.415
791.50 1.415
791.60 1.415
791.70 1.415
791.80 1.415
791.90 1.415
792.00 1.415
792.10 1.415
792.20 1.415
792.30 1.415
792.40 1.415
792.50 1.415
792.60 1.414
792.70 1.414
792.80 1.414
792.90 1.414
793.00 1.414
793.10 1.414
793.20 1.414
793.30 1.414
793.40 1.414
793.50 1.414
793.60 1.414
793.70 1.414
793.80 1.414
793.90 1.414
794.00 1.414
794.10 1.414
794.20 1.413
794.30 1.413
794.40 1.413
794.50 1.413
794.60 1.413
794.70 1.413
794.80 1.413
794.90 1.413
795.00 1.413
795.10 1.413
795.20 1.413
795.30 1.413
795.40 1.413
795.50 1.413
795.60 1.413
795.70 1.413
795.80 1.413
795.90 1.412
796.00 1.412
796.10 1.412
796.20 1.412
796.30 1.412
796.40 1.412
796.50 1.412
796.60 1.412
796.70 1.412
796.80 1.412
796.90 1.412
797.00 1.412
797.10 1.412
797.20 1.412
797.30 1.412
797.40 1.412
797.50 1.411
797.60 1.411
797.70 1.411
797.80 1.411
797.90 1.411
798.00 1.411
798.10 1.411
798.20 1.411
798.30 1.411
798.40 1.411
798.50 1.411
798.60 1.411
798.70 1.411
798.80 1.411
798.90 1.411
799.00 1.411
799.10 1.41
799.20 1.41
799.30 1.41
799.40 1.41
799.50 1.41
799.60 1.41
799.70 1.41
799.80 1.41
799.90 1.41
800.00 1.41
800.10 1.41
800.20 1.41
800.30 1.41
800.40 1.409
800.50 1.409
800.60 1.409
800.70 1.409
800.80 1.409
800.90 1.409
801.00 1.409
801.10 1.409
801.20 1.409
801.30 1.408
801.40 1.408
801.50 1.408
801.60 1.408
801.70 1.408
801.80 1.408
801.90 1.408
802.00 1.408
802.10 1.407
802.20 1.407
802.30 1.407
802.40 1.407
802.50 1.407
802.60 1.407
802.70 1.407
802.80 1.407
802.90 1.407
803.00 1.406
803.10 1.406
803.20 1.406
803.30 1.406
803.40 1.406
803.50 1.406
803.60 1.406
803.70 1.406
803.80 1.406
803.90 1.405
804.00 1.405
804.10 1.405
804.20 1.405
804.30 1.405
804.40 1.405
804.50 1.405
804.60 1.405
804.70 1.405
804.80 1.404
804.90 1.404
805.00 1.404
805.10 1.404
805.20 1.404
805.30 1.404
805.40 1.404
805.50 1.404
805.60 1.404
805.70 1.403
805.80 1.403
805.90 1.403
806.00 1.403
806.10 1.403
806.20 1.403
806.30 1.403
806.40 1.403
806.50 1.402
806.60 1.402
806.70 1.402
806.80 1.402
806.90 1.402
807.00 1.402
807.10 1.402
807.20 1.402
807.30 1.402
807.40 1.401
807.50 1.401
807.60 1.401
807.70 1.401
807.80 1.401
807.90 1.401
808.00 1.401
808.10 1.401
808.20 1.401
808.30 1.4
808.40 1.4
808.50 1.4
808.60 1.4
808.70 1.4
808.80 1.4
808.90 1.4
809.00 1.4
809.10 1.4
809.20 1.399
809.30 1.399
809.40 1.399
809.50 1.399
809.60 1.399
809.70 1.399
809.80 1.399
809.90 1.399
810.00 1.399
810.10 1.398
810.20 1.398
810.30 1.398
810.40 1.398
810.50 1.398
810.60 1.397
810.70 1.397
810.80 1.397
810.90 1.397
811.00 1.397
811.10 1.397
811.20 1.396
811.30 1.396
811.40 1.396
811.50 1.396
811.60 1.396
811.70 1.395
811.80 1.395
811.90 1.395
812.00 1.395
812.10 1.395
812.20 1.395
812.30 1.394
812.40 1.394
812.50 1.394
812.60 1.394
812.70 1.394
812.80 1.394
812.90 1.393
813.00 1.393
813.10 1.393
813.20 1.393
813.30 1.393
813.40 1.392
813.50 1.392
813.60 1.392
813.70 1.392
813.80 1.392
813.90 1.392
814.00 1.391
814.10 1.391
814.20 1.391
814.30 1.391
814.40 1.391
814.50 1.391
814.60 1.39
814.70 1.39
814.80 1.39
814.90 1.39
815.00 1.39
815.10 1.389
815.20 1.389
815.30 1.389
815.40 1.389
815.50 1.389
815.60 1.389
815.70 1.388
815.80 1.388
815.90 1.388
816.00 1.388
816.10 1.388
816.20 1.388
816.30 1.387
816.40 1.387
816.50 1.387
816.60 1.387
816.70 1.387
816.80 1.386
816.90 1.386
817.00 1.386
817.10 1.386
817.20 1.386
817.30 1.386
817.40 1.385
817.50 1.385
817.60 1.385
817.70 1.385
817.80 1.385
817.90 1.385
818.00 1.384
818.10 1.384
818.20 1.384
818.30 1.384
818.40 1.384
818.50 1.383
818.60 1.383
818.70 1.383
818.80 1.383
818.90 1.383
819.00 1.383
819.10 1.382
819.20 1.382
819.30 1.382
819.40 1.382
819.50 1.382
819.60 1.382
819.70 1.381
819.80 1.381
819.90 1.381
820.00 1.381
820.10 1.381
820.20 1.38
820.30 1.38
820.40 1.38
820.50 1.38
820.60 1.38
820.70 1.379
820.80 1.379
820.90 1.379
821.00 1.379
821.10 1.379
821.20 1.378
821.30 1.378
821.40 1.378
821.50 1.378
821.60 1.378
821.70 1.377
821.80 1.377
821.90 1.377
822.00 1.377
822.10 1.377
822.20 1.376
822.30 1.376
822.40 1.376
822.50 1.376
822.60 1.375
822.70 1.375
822.80 1.375
822.90 1.375
823.00 1.375
823.10 1.374
823.20 1.374
823.30 1.374
823.40 1.374
823.50 1.373
823.60 1.373
823.70 1.373
823.80 1.373
823.90 1.373
824.00 1.372
824.10 1.372
824.20 1.372
824.30 1.372
824.40 1.371
824.50 1.371
824.60 1.371
824.70 1.371
824.80 1.371
824.90 1.37
825.00 1.37
825.10 1.37
825.20 1.37
825.30 1.369
825.40 1.369
825.50 1.369
825.60 1.369
825.70 1.369
825.80 1.368
825.90 1.368
826.00 1.368
826.10 1.368
826.20 1.367
826.30 1.367
826.40 1.367
826.50 1.367
826.60 1.367
826.70 1.366
826.80 1.366
826.90 1.366
827.00 1.366
827.10 1.365
827.20 1.365
827.30 1.365
827.40 1.365
827.50 1.365
827.60 1.364
827.70 1.364
827.80 1.364
827.90 1.364
828.00 1.363
828.10 1.363
828.20 1.363
828.30 1.363
828.40 1.362
828.50 1.362
828.60 1.362
828.70 1.362
828.80 1.361
828.90 1.361
829.00 1.361
829.10 1.361
829.20 1.361
829.30 1.36
829.40 1.36
829.50 1.36
829.60 1.36
829.70 1.359
829.80 1.359
829.90 1.359
830.00 1.359
830.10 1.358
830.20 1.358
830.30 1.358
830.40 1.358
830.50 1.358
830.60 1.357
830.70 1.357
830.80 1.357
830.90 1.357
831.00 1.356
831.10 1.356
831.20 1.356
831.30 1.356
831.40 1.355
831.50 1.355
831.60 1.355
831.70 1.355
831.80 1.354
831.90 1.354
832.00 1.354
832.10 1.354
832.20 1.354
832.30 1.353
832.40 1.353
832.50 1.353
832.60 1.353
832.70 1.352
832.80 1.352
832.90 1.352
833.00 1.352
833.10 1.351
833.20 1.351
833.30 1.351
833.40 1.351
833.50 1.35
833.60 1.35
833.70 1.35
833.80 1.35
833.90 1.349
834.00 1.349
834.10 1.349
834.20 1.349
834.30 1.348
834.40 1.348
834.50 1.348
834.60 1.348
834.70 1.347
834.80 1.347
834.90 1.347
835.00 1.347
835.10 1.346
835.20 1.346
835.30 1.346
835.40 1.346
835.50 1.345
835.60 1.345
835.70 1.345
835.80 1.345
835.90 1.344
836.00 1.344
836.10 1.344
836.20 1.344
836.30 1.343
836.40 1.343
836.50 1.343
836.60 1.343
836.70 1.342
836.80 1.342
836.90 1.342
837.00 1.342
837.10 1.341
837.20 1.341
837.30 1.341
837.40 1.341
837.50 1.34
837.60 1.34
837.70 1.34
837.80 1.339
837.90 1.339
838.00 1.339
838.10 1.339
838.20 1.338
838.30 1.338
838.40 1.338
838.50 1.338
838.60 1.337
838.70 1.337
838.80 1.337
838.90 1.337
839.00 1.336
839.10 1.336
839.20 1.336
839.30 1.336
839.40 1.335
839.50 1.335
839.60 1.335
839.70 1.334
839.80 1.334
839.90 1.334
840.00 1.334
840.10 1.333
840.20 1.333
840.30 1.333
840.40 1.333
840.50 1.332
840.60 1.332
840.70 1.332
840.80 1.332
840.90 1.331
841.00 1.331
841.10 1.331
841.20 1.331
841.30 1.33
841.40 1.33
841.50 1.33
841.60 1.33
841.70 1.329
841.80 1.329
841.90 1.329
842.00 1.328
842.10 1.328
842.20 1.328
842.30 1.328
842.40 1.327
842.50 1.327
842.60 1.327
842.70 1.327
842.80 1.326
842.90 1.326
843.00 1.326
843.10 1.325
843.20 1.325
843.30 1.325
843.40 1.325
843.50 1.324
843.60 1.324
843.70 1.324
843.80 1.324
843.90 1.323
844.00 1.323
844.10 1.323
844.20 1.322
844.30 1.322
844.40 1.322
844.50 1.322
844.60 1.321
844.70 1.321
844.80 1.321
844.90 1.321
845.00 1.32
845.10 1.32
845.20 1.32
845.30 1.32
845.40 1.319
845.50 1.319
845.60 1.319
845.70 1.318
845.80 1.318
845.90 1.318
846.00 1.318
846.10 1.317
846.20 1.317
846.30 1.317
846.40 1.317
846.50 1.316
846.60 1.316
846.70 1.316
846.80 1.315
846.90 1.315
847.00 1.315
847.10 1.315
847.20 1.314
847.30 1.314
847.40 1.314
847.50 1.313
847.60 1.313
847.70 1.313
847.80 1.313
847.90 1.312
848.00 1.312
848.10 1.312
848.20 1.312
848.30 1.311
848.40 1.311
848.50 1.311
848.60 1.31
848.70 1.31
848.80 1.31
848.90 1.31
849.00 1.309
849.10 1.309
849.20 1.309
849.30 1.308
849.40 1.308
849.50 1.308
849.60 1.308
849.70 1.307
849.80 1.307
849.90 1.307
850.00 1.306
850.10 1.306
850.20 1.306
850.30 1.306
850.40 1.305
850.50 1.305
850.60 1.305
850.70 1.304
850.80 1.304
850.90 1.304
851.00 1.304
851.10 1.303
851.20 1.303
851.30 1.303
851.40 1.302
851.50 1.302
851.60 1.302
851.70 1.302
851.80 1.301
851.90 1.301
852.00 1.301
852.10 1.3
852.20 1.3
852.30 1.3
852.40 1.3
852.50 1.299
852.60 1.299
852.70 1.299
852.80 1.298
852.90 1.298
853.00 1.298
853.10 1.298
853.20 1.297
853.30 1.297
853.40 1.297
853.50 1.296
853.60 1.296
853.70 1.296
853.80 1.295
853.90 1.295
854.00 1.295
854.10 1.295
854.20 1.294
854.30 1.294
854.40 1.294
854.50 1.293
854.60 1.293
854.70 1.293
854.80 1.293
854.90 1.292
855.00 1.292
855.10 1.292
855.20 1.291
855.30 1.291
855.40 1.291
855.50 1.29
855.60 1.29
855.70 1.29
855.80 1.29
855.90 1.289
856.00 1.289
856.10 1.289
856.20 1.288
856.30 1.288
856.40 1.288
856.50 1.288
856.60 1.287
856.70 1.287
856.80 1.287
856.90 1.286
857.00 1.286
857.10 1.286
857.20 1.285
857.30 1.285
857.40 1.285
857.50 1.285
857.60 1.284
857.70 1.284
857.80 1.284
857.90 1.283
858.00 1.283
858.10 1.283
858.20 1.282
858.30 1.282
858.40 1.282
858.50 1.281
858.60 1.281
858.70 1.281
858.80 1.281
858.90 1.28
859.00 1.28
859.10 1.28
859.20 1.279
859.30 1.279
859.40 1.279
859.50 1.278
859.60 1.278
859.70 1.278
859.80 1.277
859.90 1.277
860.00 1.277
860.10 1.277
860.20 1.276
860.30 1.276
860.40 1.276
860.50 1.275
860.60 1.275
860.70 1.275
860.80 1.274
860.90 1.274
861.00 1.274
861.10 1.273
861.20 1.273
861.30 1.273
861.40 1.273
861.50 1.272
861.60 1.272
861.70 1.272
861.80 1.271
861.90 1.271
862.00 1.271
862.10 1.27
862.20 1.27
862.30 1.27
862.40 1.269
862.50 1.269
862.60 1.269
862.70 1.268
862.80 1.268
862.90 1.268
863.00 1.267
863.10 1.267
863.20 1.267
863.30 1.266
863.40 1.266
863.50 1.266
863.60 1.266
863.70 1.265
863.80 1.265
863.90 1.265
864.00 1.264
864.10 1.264
864.20 1.264
864.30 1.263
864.40 1.263
864.50 1.263
864.60 1.262
864.70 1.262
864.80 1.262
864.90 1.261
865.00 1.261
865.10 1.261
865.20 1.26
865.30 1.26
865.40 1.26
865.50 1.259
865.60 1.259
865.70 1.259
865.80 1.258
865.90 1.258
866.00 1.258
866.10 1.257
866.20 1.257
866.30 1.257
866.40 1.257
866.50 1.256
866.60 1.256
866.70 1.256
866.80 1.255
866.90 1.255
867.00 1.255
867.10 1.254
867.20 1.254
867.30 1.254
867.40 1.253
867.50 1.253
867.60 1.253
867.70 1.252
867.80 1.252
867.90 1.251
868.00 1.251
868.10 1.251
868.20 1.25
868.30 1.25
868.40 1.25
868.50 1.249
868.60 1.249
868.70 1.249
868.80 1.248
868.90 1.248
869.00 1.248
869.10 1.247
869.20 1.247
869.30 1.247
869.40 1.246
869.50 1.246
869.60 1.246
869.70 1.245
869.80 1.245
869.90 1.245
870.00 1.244
870.10 1.244
870.20 1.244
870.30 1.243
870.40 1.243
870.50 1.242
870.60 1.242
870.70 1.242
870.80 1.241
870.90 1.241
871.00 1.241
871.10 1.24
871.20 1.24
871.30 1.24
871.40 1.239
871.50 1.239
871.60 1.239
871.70 1.238
871.80 1.238
871.90 1.238
872.00 1.237
872.10 1.237
872.20 1.237
872.30 1.236
872.40 1.236
872.50 1.236
872.60 1.235
872.70 1.235
872.80 1.234
872.90 1.234
873.00 1.234
873.10 1.233
873.20 1.233
873.30 1.233
873.40 1.232
873.50 1.232
873.60 1.231
873.70 1.231
873.80 1.231
873.90 1.23
874.00 1.23
874.10 1.23
874.20 1.229
874.30 1.229
874.40 1.229
874.50 1.228
874.60 1.228
874.70 1.227
874.80 1.227
874.90 1.227
875.00 1.226
875.10 1.226
875.20 1.226
875.30 1.225
875.40 1.225
875.50 1.225
875.60 1.224
875.70 1.224
875.80 1.224
875.90 1.223
876.00 1.223
876.10 1.222
876.20 1.222
876.30 1.222
876.40 1.221
876.50 1.221
876.60 1.221
876.70 1.22
876.80 1.22
876.90 1.22
877.00 1.219
877.10 1.219
877.20 1.218
877.30 1.218
877.40 1.218
877.50 1.217
877.60 1.217
877.70 1.216
877.80 1.216
877.90 1.216
878.00 1.215
878.10 1.215
878.20 1.214
878.30 1.214
878.40 1.214
878.50 1.213
878.60 1.213
878.70 1.212
878.80 1.212
878.90 1.212
879.00 1.211
879.10 1.211
879.20 1.21
879.30 1.21
879.40 1.21
879.50 1.209
879.60 1.209
879.70 1.209
879.80 1.208
879.90 1.208
880.00 1.207
880.10 1.207
880.20 1.207
880.30 1.206
880.40 1.206
880.50 1.205
880.60 1.205
880.70 1.205
880.80 1.204
880.90 1.204
881.00 1.203
881.10 1.203
881.20 1.203
881.30 1.202
881.40 1.202
881.50 1.201
881.60 1.201
881.70 1.201
881.80 1.2
881.90 1.2
882.00 1.2
882.10 1.199
882.20 1.199
882.30 1.198
882.40 1.198
882.50 1.197
882.60 1.197
882.70 1.197
882.80 1.196
882.90 1.196
883.00 1.195
883.10 1.195
883.20 1.194
883.30 1.194
883.40 1.194
883.50 1.193
883.60 1.193
883.70 1.192
883.80 1.192
883.90 1.191
884.00 1.191
884.10 1.191
884.20 1.19
884.30 1.19
884.40 1.189
884.50 1.189
884.60 1.189
884.70 1.188
884.80 1.188
884.90 1.187
885.00 1.187
885.10 1.186
885.20 1.186
885.30 1.186
885.40 1.185
885.50 1.185
885.60 1.184
885.70 1.184
885.80 1.183
885.90 1.183
886.00 1.183
886.10 1.182
886.20 1.182
886.30 1.181
886.40 1.181
886.50 1.181
886.60 1.18
886.70 1.18
886.80 1.179
886.90 1.179
887.00 1.178
887.10 1.178
887.20 1.178
887.30 1.177
887.40 1.177
887.50 1.176
887.60 1.176
887.70 1.175
887.80 1.175
887.90 1.174
888.00 1.174
888.10 1.173
888.20 1.173
888.30 1.173
888.40 1.172
888.50 1.172
888.60 1.171
888.70 1.171
888.80 1.17
888.90 1.17
889.00 1.169
889.10 1.169
889.20 1.168
889.30 1.168
889.40 1.168
889.50 1.167
889.60 1.167
889.70 1.166
889.80 1.166
889.90 1.165
890.00 1.165
890.10 1.164
890.20 1.164
890.30 1.164
890.40 1.163
890.50 1.163
890.60 1.162
890.70 1.162
890.80 1.161
890.90 1.161
891.00 1.16
891.10 1.16
891.20 1.159
891.30 1.159
891.40 1.159
891.50 1.158
891.60 1.158
891.70 1.157
891.80 1.157
891.90 1.156
892.00 1.156
892.10 1.155
892.20 1.155
892.30 1.155
892.40 1.154
892.50 1.154
892.60 1.153
892.70 1.153
892.80 1.152
892.90 1.152
893.00 1.151
893.10 1.151
893.20 1.15
893.30 1.15
893.40 1.15
893.50 1.149
893.60 1.149
893.70 1.148
893.80 1.148
893.90 1.147
894.00 1.147
894.10 1.146
894.20 1.146
894.30 1.145
894.40 1.145
894.50 1.144
894.60 1.144
894.70 1.144
894.80 1.143
894.90 1.143
895.00 1.142
895.10 1.142
895.20 1.141
895.30 1.141
895.40 1.14
895.50 1.14
895.60 1.14
895.70 1.139
895.80 1.139
895.90 1.138
896.00 1.138
896.10 1.137
896.20 1.137
896.30 1.136
896.40 1.136
896.50 1.135
896.60 1.135
896.70 1.135
896.80 1.134
896.90 1.134
897.00 1.133
897.10 1.133
897.20 1.132
897.30 1.132
897.40 1.131
897.50 1.131
897.60 1.13
897.70 1.13
897.80 1.129
897.90 1.129
898.00 1.128
898.10 1.128
898.20 1.127
898.30 1.126
898.40 1.126
898.50 1.125
898.60 1.125
898.70 1.124
898.80 1.124
898.90 1.123
899.00 1.123
899.10 1.122
899.20 1.122
899.30 1.121
899.40 1.121
899.50 1.12
899.60 1.12
899.70 1.119
899.80 1.119
899.90 1.118
900.00 1.118
900.10 1.117
900.20 1.117
900.30 1.116
900.40 1.116
900.50 1.115
900.60 1.115
900.70 1.114
900.80 1.114
900.90 1.113
901.00 1.113
901.10 1.112
901.20 1.112
901.30 1.111
901.40 1.111
901.50 1.11
901.60 1.11
901.70 1.109
901.80 1.109
901.90 1.108
902.00 1.108
902.10 1.107
902.20 1.106
902.30 1.106
902.40 1.105
902.50 1.105
902.60 1.104
902.70 1.104
902.80 1.103
902.90 1.102
903.00 1.102
903.10 1.101
903.20 1.101
903.30 1.1
903.40 1.099
903.50 1.099
903.60 1.098
903.70 1.098
903.80 1.097
903.90 1.096
904.00 1.096
904.10 1.095
904.20 1.095
904.30 1.094
904.40 1.094
904.50 1.093
904.60 1.092
904.70 1.092
904.80 1.091
904.90 1.091
905.00 1.09
905.10 1.089
905.20 1.089
905.30 1.088
905.40 1.088
905.50 1.087
905.60 1.087
905.70 1.086
905.80 1.085
905.90 1.085
906.00 1.084
906.10 1.084
906.20 1.083
906.30 1.082
906.40 1.082
906.50 1.081
906.60 1.081
906.70 1.08
906.80 1.08
906.90 1.079
907.00 1.078
907.10 1.078
907.20 1.077
907.30 1.077
907.40 1.076
907.50 1.076
907.60 1.075
907.70 1.074
907.80 1.074
907.90 1.073
908.00 1.073
908.10 1.072
908.20 1.072
908.30 1.071
908.40 1.07
908.50 1.07
908.60 1.069
908.70 1.069
908.80 1.068
908.90 1.068
909.00 1.067
909.10 1.066
909.20 1.066
909.30 1.065
909.40 1.065
909.50 1.064
909.60 1.064
909.70 1.063
909.80 1.062
909.90 1.062
910.00 1.061
910.10 1.061
910.20 1.06
910.30 1.06
910.40 1.059
910.50 1.059
910.60 1.058
910.70 1.057
910.80 1.057
910.90 1.056
911.00 1.056
911.10 1.055
911.20 1.055
911.30 1.054
911.40 1.053
911.50 1.053
911.60 1.052
911.70 1.052
911.80 1.051
911.90 1.051
912.00 1.05
912.10 1.05
912.20 1.049
912.30 1.048
912.40 1.048
912.50 1.047
912.60 1.047
912.70 1.046
912.80 1.046
912.90 1.045
913.00 1.044
913.10 1.044
913.20 1.043
913.30 1.043
913.40 1.042
913.50 1.042
913.60 1.041
913.70 1.041
913.80 1.04
913.90 1.039
914.00 1.039
914.10 1.038
914.20 1.038
914.30 1.037
914.40 1.037
914.50 1.036
914.60 1.036
914.70 1.035
914.80 1.034
914.90 1.034
915.00 1.033
915.10 1.033
915.20 1.032
915.30 1.032
915.40 1.031
915.50 1.031
915.60 1.03
915.70 1.029
915.80 1.029
915.90 1.028
916.00 1.028
916.10 1.027
916.20 1.027
916.30 1.026
916.40 1.026
916.50 1.025
916.60 1.024
916.70 1.024
916.80 1.023
916.90 1.023
917.00 1.022
917.10 1.022
917.20 1.021
917.30 1.02
917.40 1.02
917.50 1.019
917.60 1.019
917.70 1.018
917.80 1.017
917.90 1.017
918.00 1.016
918.10 1.016
918.20 1.015
918.30 1.015
918.40 1.014
918.50 1.013
918.60 1.013
918.70 1.012
918.80 1.012
918.90 1.011
919.00 1.01
919.10 1.01
919.20 1.009
919.30 1.009
919.40 1.008
919.50 1.007
919.60 1.007
919.70 1.006
919.80 1.006
919.90 1.005
920.00 1.004
920.10 1.004
920.20 1.003
920.30 1.003
920.40 1.002
920.50 1.002
920.60 1.001
920.70 1
920.80 0.9998
920.90 0.9992
921.00 0.9986
921.10 0.998
921.20 0.9974
921.30 0.9968
921.40 0.9963
921.50 0.9957
921.60 0.9951
921.70 0.9945
921.80 0.9939
921.90 0.9933
922.00 0.9928
922.10 0.9921
922.20 0.9915
922.30 0.9909
922.40 0.9903
922.50 0.9897
922.60 0.9891
922.70 0.9885
922.80 0.9879
922.90 0.9873
923.00 0.9867
923.10 0.9861
923.20 0.9855
923.30 0.9849
923.40 0.9843
923.50 0.9837
923.60 0.9831
923.70 0.9825
923.80 0.9819
923.90 0.9813
924.00 0.9807
924.10 0.9801
924.20 0.9795
924.30 0.9789
924.40 0.9783
924.50 0.9776
924.60 0.977
924.70 0.9764
924.80 0.9758
924.90 0.9752
925.00 0.9746
925.10 0.974
925.20 0.9734
925.30 0.9728
925.40 0.9722
925.50 0.9717
925.60 0.9711
925.70 0.9705
925.80 0.9699
925.90 0.9693
926.00 0.9687
926.10 0.9681
926.20 0.9675
926.30 0.9669
926.40 0.9663
926.50 0.9657
926.60 0.9651
926.70 0.9645
926.80 0.9639
926.90 0.9633
927.00 0.9627
927.10 0.9621
927.20 0.9615
927.30 0.9608
927.40 0.9602
927.50 0.9596
927.60 0.959
927.70 0.9584
927.80 0.9578
927.90 0.9571
928.00 0.9565
928.10 0.9559
928.20 0.9553
928.30 0.9547
928.40 0.9541
928.50 0.9534
928.60 0.9528
928.70 0.9522
928.80 0.9516
928.90 0.951
929.00 0.9504
929.10 0.9498
929.20 0.9491
929.30 0.9485
929.40 0.9479
929.50 0.9473
929.60 0.9467
929.70 0.9461
929.80 0.9455
929.90 0.9449
930.00 0.9442
930.10 0.9436
930.20 0.943
930.30 0.9424
930.40 0.9418
930.50 0.9412
930.60 0.9406
930.70 0.94
930.80 0.9394
930.90 0.9387
931.00 0.9381
931.10 0.9375
931.20 0.9369
931.30 0.9363
931.40 0.9357
931.50 0.9351
931.60 0.9345
931.70 0.9339
931.80 0.9333
931.90 0.9327
932.00 0.9321
932.10 0.9314
932.20 0.9308
932.30 0.9302
932.40 0.9296
932.50 0.929
932.60 0.9283
932.70 0.9277
932.80 0.9271
932.90 0.9265
933.00 0.9259
933.10 0.9253
933.20 0.9246
933.30 0.924
933.40 0.9234
933.50 0.9228
933.60 0.9222
933.70 0.9216
933.80 0.9209
933.90 0.9203
934.00 0.9197
934.10 0.9191
934.20 0.9185
934.30 0.9179
934.40 0.9172
934.50 0.9166
934.60 0.916
934.70 0.9154
934.80 0.9147
934.90 0.9141
935.00 0.9135
935.10 0.9129
935.20 0.9123
935.30 0.9116
935.40 0.911
935.50 0.9104
935.60 0.9098
935.70 0.9092
935.80 0.9085
935.90 0.9079
936.00 0.9073
936.10 0.9067
936.20 0.9061
936.30 0.9054
936.40 0.9048
936.50 0.9042
936.60 0.9036
936.70 0.903
936.80 0.9024
936.90 0.9017
937.00 0.9011
937.10 0.9005
937.20 0.8999
937.30 0.8992
937.40 0.8986
937.50 0.898
937.60 0.8974
937.70 0.8968
937.80 0.8961
937.90 0.8955
938.00 0.8949
938.10 0.8943
938.20 0.8936
938.30 0.893
938.40 0.8924
938.50 0.8918
938.60 0.8911
938.70 0.8905
938.80 0.8899
938.90 0.8892
939.00 0.8886
939.10 0.888
939.20 0.8873
939.30 0.8867
939.40 0.8861
939.50 0.8855
939.60 0.8848
939.70 0.8842
939.80 0.8836
939.90 0.8829
940.00 0.8823
940.10 0.8817
940.20 0.8811
940.30 0.8804
940.40 0.8798
940.50 0.8792
940.60 0.8786
940.70 0.8779
940.80 0.8773
940.90 0.8767
941.00 0.8761
941.10 0.8754
941.20 0.8748
941.30 0.8742
941.40 0.8736
941.50 0.8729
941.60 0.8723
941.70 0.8717
941.80 0.8711
941.90 0.8705
942.00 0.8698
942.10 0.8692
942.20 0.8686
942.30 0.868
942.40 0.8673
942.50 0.8667
942.60 0.8661
942.70 0.8655
942.80 0.8649
942.90 0.8642
943.00 0.8636
943.10 0.863
943.20 0.8624
943.30 0.8617
943.40 0.8611
943.50 0.8605
943.60 0.8599
943.70 0.8593
943.80 0.8586
943.90 0.858
944.00 0.8574
944.10 0.8568
944.20 0.8562
944.30 0.8555
944.40 0.8549
944.50 0.8543
944.60 0.8537
944.70 0.853
944.80 0.8524
944.90 0.8518
945.00 0.8512
945.10 0.8506
945.20 0.8499
945.30 0.8493
945.40 0.8487
945.50 0.8481
945.60 0.8475
945.70 0.8468
945.80 0.8462
945.90 0.8456
946.00 0.845
946.10 0.8443
946.20 0.8437
946.30 0.8431
946.40 0.8425
946.50 0.8419
946.60 0.8412
946.70 0.8406
946.80 0.84
946.90 0.8394
947.00 0.8388
947.10 0.8382
947.20 0.8375
947.30 0.8369
947.40 0.8363
947.50 0.8357
947.60 0.835
947.70 0.8344
947.80 0.8338
947.90 0.8332
948.00 0.8325
948.10 0.8319
948.20 0.8313
948.30 0.8307
948.40 0.83
948.50 0.8294
948.60 0.8288
948.70 0.8282
948.80 0.8275
948.90 0.8269
949.00 0.8263
949.10 0.8257
949.20 0.825
949.30 0.8244
949.40 0.8238
949.50 0.8232
949.60 0.8226
949.70 0.822
949.80 0.8213
949.90 0.8207
950.00 0.8201
950.10 0.8195
950.20 0.8189
950.30 0.8183
950.40 0.8177
950.50 0.817
950.60 0.8164
950.70 0.8158
950.80 0.8152
950.90 0.8146
951.00 0.814
951.10 0.8134
951.20 0.8127
951.30 0.8121
951.40 0.8115
951.50 0.8109
951.60 0.8103
951.70 0.8097
951.80 0.8091
951.90 0.8085
952.00 0.8078
952.10 0.8072
952.20 0.8066
952.30 0.806
952.40 0.8054
952.50 0.8048
952.60 0.8042
952.70 0.8036
952.80 0.803
952.90 0.8023
953.00 0.8017
953.10 0.8011
953.20 0.8005
953.30 0.7999
953.40 0.7993
953.50 0.7987
953.60 0.7981
953.70 0.7975
953.80 0.7969
953.90 0.7963
954.00 0.7957
954.10 0.795
954.20 0.7944
954.30 0.7938
954.40 0.7932
954.50 0.7926
954.60 0.792
954.70 0.7914
954.80 0.7908
954.90 0.7902
955.00 0.7896
955.10 0.789
955.20 0.7884
955.30 0.7878
955.40 0.7872
955.50 0.7866
955.60 0.786
955.70 0.7853
955.80 0.7847
955.90 0.7841
956.00 0.7835
956.10 0.7829
956.20 0.7823
956.30 0.7817
956.40 0.781
956.50 0.7804
956.60 0.7798
956.70 0.7792
956.80 0.7786
956.90 0.778
957.00 0.7774
957.10 0.7768
957.20 0.7762
957.30 0.7756
957.40 0.775
957.50 0.7744
957.60 0.7738
957.70 0.7732
957.80 0.7726
957.90 0.772
958.00 0.7714
958.10 0.7708
958.20 0.7702
958.30 0.7696
958.40 0.769
958.50 0.7684
958.60 0.7678
958.70 0.7672
958.80 0.7666
958.90 0.766
959.00 0.7654
959.10 0.7648
959.20 0.7642
959.30 0.7636
959.40 0.763
959.50 0.7624
959.60 0.7618
959.70 0.7612
959.80 0.7606
959.90 0.7601
960.00 0.7595
960.10 0.7589
960.20 0.7583
960.30 0.7577
960.40 0.7571
960.50 0.7565
960.60 0.7559
960.70 0.7553
960.80 0.7547
960.90 0.7542
961.00 0.7536
961.10 0.753
961.20 0.7524
961.30 0.7518
961.40 0.7512
961.50 0.7506
961.60 0.7501
961.70 0.7495
961.80 0.7489
961.90 0.7483
962.00 0.7477
962.10 0.7471
962.20 0.7465
962.30 0.746
962.40 0.7454
962.50 0.7448
962.60 0.7442
962.70 0.7436
962.80 0.7431
962.90 0.7425
963.00 0.7419
963.10 0.7413
963.20 0.7407
963.30 0.7402
963.40 0.7396
963.50 0.739
963.60 0.7384
963.70 0.7378
963.80 0.7373
963.90 0.7367
964.00 0.7361
964.10 0.7355
964.20 0.735
964.30 0.7344
964.40 0.7338
964.50 0.7332
964.60 0.7326
964.70 0.732
964.80 0.7315
964.90 0.7309
965.00 0.7303
965.10 0.7297
965.20 0.7291
965.30 0.7286
965.40 0.728
965.50 0.7274
965.60 0.7268
965.70 0.7262
965.80 0.7257
965.90 0.7251
966.00 0.7245
966.10 0.7239
966.20 0.7233
966.30 0.7228
966.40 0.7222
966.50 0.7216
966.60 0.7211
966.70 0.7205
966.80 0.7199
966.90 0.7194
967.00 0.7188
967.10 0.7182
967.20 0.7177
967.30 0.7171
967.40 0.7165
967.50 0.716
967.60 0.7154
967.70 0.7149
967.80 0.7143
967.90 0.7137
968.00 0.7132
968.10 0.7126
968.20 0.7121
968.30 0.7115
968.40 0.7109
968.50 0.7104
968.60 0.7098
968.70 0.7093
968.80 0.7087
968.90 0.7082
969.00 0.7076
969.10 0.7071
969.20 0.7065
969.30 0.7059
969.40 0.7054
969.50 0.7048
969.60 0.7043
969.70 0.7037
969.80 0.7032
969.90 0.7026
970.00 0.7021
970.10 0.7015
970.20 0.701
970.30 0.7004
970.40 0.6999
970.50 0.6993
970.60 0.6988
970.70 0.6982
970.80 0.6977
970.90 0.6971
971.00 0.6966
971.10 0.6961
971.20 0.6955
971.30 0.695
971.40 0.6944
971.50 0.6939
971.60 0.6933
971.70 0.6928
971.80 0.6923
971.90 0.6917
972.00 0.6912
972.10 0.6906
972.20 0.6901
972.30 0.6896
972.40 0.689
972.50 0.6885
972.60 0.6879
972.70 0.6874
972.80 0.6869
972.90 0.6863
973.00 0.6858
973.10 0.6853
973.20 0.6847
973.30 0.6842
973.40 0.6837
973.50 0.6831
973.60 0.6826
973.70 0.6821
973.80 0.6815
973.90 0.681
974.00 0.6805
974.10 0.6799
974.20 0.6794
974.30 0.6789
974.40 0.6783
974.50 0.6778
974.60 0.6773
974.70 0.6768
974.80 0.6762
974.90 0.6757
975.00 0.6752
975.10 0.6746
975.20 0.6741
975.30 0.6736
975.40 0.6731
975.50 0.6725
975.60 0.672
975.70 0.6715
975.80 0.671
975.90 0.6704
976.00 0.6699
976.10 0.6694
976.20 0.6689
976.30 0.6683
976.40 0.6678
976.50 0.6673
976.60 0.6668
976.70 0.6662
976.80 0.6657
976.90 0.6652
977.00 0.6647
977.10 0.6642
977.20 0.6637
977.30 0.6632
977.40 0.6627
977.50 0.6621
977.60 0.6616
977.70 0.6611
977.80 0.6606
977.90 0.6601
978.00 0.6596
978.10 0.6591
978.20 0.6586
978.30 0.6581
978.40 0.6576
978.50 0.6571
978.60 0.6566
978.70 0.6561
978.80 0.6556
978.90 0.6551
979.00 0.6546
979.10 0.6541
979.20 0.6536
979.30 0.6531
979.40 0.6526
979.50 0.6521
979.60 0.6516
979.70 0.6511
979.80 0.6506
979.90 0.6501
980.00 0.6496
980.10 0.6491
980.20 0.6486
980.30 0.6481
980.40 0.6476
980.50 0.6471
980.60 0.6466
980.70 0.6461
980.80 0.6456
980.90 0.6451
981.00 0.6446
981.10 0.6441
981.20 0.6436
981.30 0.6431
981.40 0.6426
981.50 0.6421
981.60 0.6416
981.70 0.6411
981.80 0.6406
981.90 0.6401
982.00 0.6396
982.10 0.6391
982.20 0.6386
982.30 0.6382
982.40 0.6377
982.50 0.6372
982.60 0.6367
982.70 0.6362
982.80 0.6358
982.90 0.6353
983.00 0.6348
983.10 0.6343
983.20 0.6338
983.30 0.6333
983.40 0.6329
983.50 0.6324
983.60 0.6319
983.70 0.6314
983.80 0.6309
983.90 0.6305
984.00 0.63
984.10 0.6295
984.20 0.629
984.30 0.6285
984.40 0.6281
984.50 0.6276
984.60 0.6271
984.70 0.6267
984.80 0.6262
984.90 0.6257
985.00 0.6253
985.10 0.6248
985.20 0.6244
985.30 0.6239
985.40 0.6235
985.50 0.623
985.60 0.6226
985.70 0.6221
985.80 0.6217
985.90 0.6212
986.00 0.6208
986.10 0.6203
986.20 0.6199
986.30 0.6194
986.40 0.619
986.50 0.6185
986.60 0.6181
986.70 0.6176
986.80 0.6172
986.90 0.6167
987.00 0.6163
987.10 0.6158
987.20 0.6154
987.30 0.6149
987.40 0.6144
987.50 0.6139
987.60 0.6135
987.70 0.613
987.80 0.6125
987.90 0.6121
988.00 0.6116
988.10 0.6111
988.20 0.6107
988.30 0.6102
988.40 0.6097
988.50 0.6093
988.60 0.6088
988.70 0.6083
988.80 0.6079
988.90 0.6074
989.00 0.6069
989.10 0.6065
989.20 0.606
989.30 0.6055
989.40 0.6051
989.50 0.6046
989.60 0.6041
989.70 0.6037
989.80 0.6032
989.90 0.6027
990.00 0.6023
990.10 0.6018
990.20 0.6013
990.30 0.6009
990.40 0.6004
990.50 0.5999
990.60 0.5995
990.70 0.599
990.80 0.5985
990.90 0.5981
991.00 0.5976
991.10 0.5971
991.20 0.5967
991.30 0.5962
991.40 0.5957
991.50 0.5953
991.60 0.5948
991.70 0.5944
991.80 0.5939
991.90 0.5934
992.00 0.593
992.10 0.5925
992.20 0.592
992.30 0.5916
992.40 0.5911
992.50 0.5906
992.60 0.5902
992.70 0.5897
992.80 0.5892
992.90 0.5888
993.00 0.5883
993.10 0.5879
993.20 0.5874
993.30 0.5869
993.40 0.5865
993.50 0.586
993.60 0.5855
993.70 0.5851
993.80 0.5846
993.90 0.5842
994.00 0.5837
994.10 0.5832
994.20 0.5828
994.30 0.5823
994.40 0.5819
994.50 0.5814
994.60 0.5809
994.70 0.5804
994.80 0.5798
994.90 0.5793
995.00 0.5787
995.10 0.5782
995.20 0.5776
995.30 0.5771
995.40 0.5765
995.50 0.576
995.60 0.5754
995.70 0.575
995.80 0.5745
995.90 0.5741
996.00 0.5736
996.10 0.5732
996.20 0.5727
996.30 0.5723
996.40 0.5718
996.50 0.5714
996.60 0.5709
996.70 0.5705
996.80 0.57
996.90 0.5696
997.00 0.5691
997.10 0.5687
997.20 0.5682
997.30 0.5678
997.40 0.5673
997.50 0.5669
997.60 0.5665
997.70 0.566
997.80 0.5656
997.90 0.5652
998.00 0.5647
998.10 0.5643
998.20 0.5639
998.30 0.5634
998.40 0.563
998.50 0.5626
998.60 0.5622
998.70 0.5617
998.80 0.5613
998.90 0.5609
999.00 0.5604
999.10 0.56
999.20 0.5596
999.30 0.5591
999.40 0.5587
999.50 0.5583
999.60 0.5579
999.70 0.5574
999.80 0.557
999.90 0.5566
1000.00 0.5562
1000.10 0.5558
1000.20 0.5554
1000.30 0.555
1000.40 0.5545
1000.50 0.5541
1000.60 0.5537
1000.70 0.5533
1000.80 0.5529
1000.90 0.5525
1001.00 0.5521
1001.10 0.5516
1001.20 0.5512
1001.30 0.5508
1001.40 0.5504
1001.50 0.55
1001.60 0.5496
1001.70 0.5492
1001.80 0.5488
1001.90 0.5484
1002.00 0.548
1002.10 0.5476
1002.20 0.5472
1002.30 0.5468
1002.40 0.5464
1002.50 0.546
1002.60 0.5456
1002.70 0.5452
1002.80 0.5448
1002.90 0.5444
1003.00 0.544
1003.10 0.5436
1003.20 0.5432
1003.30 0.5428
1003.40 0.5424
1003.50 0.542
1003.60 0.5416
1003.70 0.5412
1003.80 0.5409
1003.90 0.5405
1004.00 0.5401
1004.10 0.5397
1004.20 0.5393
1004.30 0.5389
1004.40 0.5385
1004.50 0.5382
1004.60 0.5378
1004.70 0.5374
1004.80 0.537
1004.90 0.5365
1005.00 0.536
1005.10 0.5356
1005.20 0.5353
1005.30 0.5349
1005.40 0.5345
1005.50 0.5341
1005.60 0.5338
1005.70 0.5334
1005.80 0.533
1005.90 0.5327
1006.00 0.5323
1006.10 0.5319
1006.20 0.5315
1006.30 0.5312
1006.40 0.5308
1006.50 0.5305
1006.60 0.5301
1006.70 0.5297
1006.80 0.5294
1006.90 0.529
1007.00 0.5286
1007.10 0.5283
1007.20 0.5279
1007.30 0.5276
1007.40 0.5272
1007.50 0.5268
1007.60 0.5265
1007.70 0.5261
1007.80 0.5258
1007.90 0.5255
1008.00 0.5251
1008.10 0.5248
1008.20 0.5244
1008.30 0.5241
1008.40 0.5237
1008.50 0.5234
1008.60 0.523
1008.70 0.5227
1008.80 0.5223
1008.90 0.522
1009.00 0.5217
1009.10 0.5213
1009.20 0.521
1009.30 0.5206
1009.40 0.5203
1009.50 0.5199
1009.60 0.5196
1009.70 0.5193
1009.80 0.5189
1009.90 0.5186
1010.00 0.5183
1010.10 0.518
1010.20 0.5176
1010.30 0.5173
1010.40 0.517
1010.50 0.5166
1010.60 0.5163
1010.70 0.516
1010.80 0.5157
1010.90 0.5153
1011.00 0.515
1011.10 0.5147
1011.20 0.5144
1011.30 0.514
1011.40 0.5137
1011.50 0.5134
1011.60 0.5131
1011.70 0.5127
1011.80 0.5124
1011.90 0.5121
1012.00 0.5118
1012.10 0.5115
1012.20 0.5112
1012.30 0.5109
1012.40 0.5106
1012.50 0.5102
1012.60 0.5099
1012.70 0.5096
1012.80 0.5093
1012.90 0.509
1013.00 0.5087
1013.10 0.5084
1013.20 0.5081
1013.30 0.5078
1013.40 0.5075
1013.50 0.5072
1013.60 0.5069
1013.70 0.5066
1013.80 0.5063
1013.90 0.506
1014.00 0.5057
1014.10 0.5054
1014.20 0.5051
1014.30 0.5048
1014.40 0.5045
1014.50 0.5042
1014.60 0.5039
1014.70 0.5036
1014.80 0.5034
1014.90 0.5031
1015.00 0.5029
1015.10 0.5026
1015.20 0.5023
1015.30 0.5021
1015.40 0.5018
1015.50 0.5016
1015.60 0.5013
1015.70 0.501
1015.80 0.5008
1015.90 0.5005
1016.00 0.5003
1016.10 0.5
1016.20 0.4998
1016.30 0.4995
1016.40 0.4992
1016.50 0.499
1016.60 0.4987
1016.70 0.4985
1016.80 0.4982
1016.90 0.4979
1017.00 0.4976
1017.10 0.4973
1017.20 0.4971
1017.30 0.4968
1017.40 0.4965
1017.50 0.4962
1017.60 0.496
1017.70 0.4957
1017.80 0.4954
1017.90 0.4951
1018.00 0.4948
1018.10 0.4946
1018.20 0.4943
1018.30 0.494
1018.40 0.4937
1018.50 0.4935
1018.60 0.4932
1018.70 0.4929
1018.80 0.4927
1018.90 0.4924
1019.00 0.4921
1019.10 0.4919
1019.20 0.4916
1019.30 0.4913
1019.40 0.491
1019.50 0.4908
1019.60 0.4905
1019.70 0.4902
1019.80 0.49
1019.90 0.4897
1020.00 0.4894
1020.10 0.4892
1020.20 0.4889
1020.30 0.4886
1020.40 0.4884
1020.50 0.4881
1020.60 0.4878
1020.70 0.4876
1020.80 0.4873
1020.90 0.487
1021.00 0.4868
1021.10 0.4865
1021.20 0.4863
1021.30 0.486
1021.40 0.4857
1021.50 0.4855
1021.60 0.4852
1021.70 0.485
1021.80 0.4847
1021.90 0.4844
1022.00 0.4842
1022.10 0.4839
1022.20 0.4837
1022.30 0.4834
1022.40 0.4832
1022.50 0.4829
1022.60 0.4826
1022.70 0.4824
1022.80 0.4821
1022.90 0.4819
1023.00 0.4816
1023.10 0.4814
1023.20 0.4811
1023.30 0.4809
1023.40 0.4806
1023.50 0.4804
1023.60 0.4801
1023.70 0.4799
1023.80 0.4796
1023.90 0.4793
1024.00 0.4791
1024.10 0.4788
1024.20 0.4786
1024.30 0.4783
1024.40 0.4781
1024.50 0.4778
1024.60 0.4776
1024.70 0.4773
1024.80 0.4771
1024.90 0.4768
1025.00 0.4766
1025.10 0.4763
1025.20 0.4761
1025.30 0.4758
1025.40 0.4756
1025.50 0.4754
1025.60 0.4751
1025.70 0.4749
1025.80 0.4746
1025.90 0.4744
1026.00 0.4741
1026.10 0.4739
1026.20 0.4736
1026.30 0.4734
1026.40 0.4731
1026.50 0.4729
1026.60 0.4726
1026.70 0.4724
1026.80 0.4722
1026.90 0.4719
1027.00 0.4717
1027.10 0.4714
1027.20 0.4712
1027.30 0.471
1027.40 0.4707
1027.50 0.4705
1027.60 0.4703
1027.70 0.4701
1027.80 0.4698
1027.90 0.4696
1028.00 0.4694
1028.10 0.4691
1028.20 0.4689
1028.30 0.4687
1028.40 0.4685
1028.50 0.4682
1028.60 0.468
1028.70 0.4678
1028.80 0.4675
1028.90 0.4673
1029.00 0.4671
1029.10 0.4669
1029.20 0.4666
1029.30 0.4664
1029.40 0.4662
1029.50 0.4659
1029.60 0.4657
1029.70 0.4655
1029.80 0.4653
1029.90 0.465
1030.00 0.4648
1030.10 0.4646
1030.20 0.4643
1030.30 0.4641
1030.40 0.4639
1030.50 0.4637
1030.60 0.4634
1030.70 0.4632
1030.80 0.463
1030.90 0.4628
1031.00 0.4625
1031.10 0.4623
1031.20 0.4621
1031.30 0.4618
1031.40 0.4616
1031.50 0.4614
1031.60 0.4612
1031.70 0.4609
1031.80 0.4607
1031.90 0.4605
1032.00 0.4603
1032.10 0.4601
1032.20 0.4598
1032.30 0.4596
1032.40 0.4594
1032.50 0.4592
1032.60 0.459
1032.70 0.4588
1032.80 0.4586
1032.90 0.4584
1033.00 0.4582
1033.10 0.4579
1033.20 0.4577
1033.30 0.4575
1033.40 0.4573
1033.50 0.4571
1033.60 0.4569
1033.70 0.4567
1033.80 0.4565
1033.90 0.4563
1034.00 0.4561
1034.10 0.4558
1034.20 0.4556
1034.30 0.4554
1034.40 0.4552
1034.50 0.455
1034.60 0.4548
1034.70 0.4546
1034.80 0.4544
1034.90 0.4542
1035.00 0.454
1035.10 0.4538
1035.20 0.4535
1035.30 0.4533
1035.40 0.4531
1035.50 0.4529
1035.60 0.4527
1035.70 0.4525
1035.80 0.4523
1035.90 0.4521
1036.00 0.4519
1036.10 0.4517
1036.20 0.4515
1036.30 0.4513
1036.40 0.451
1036.50 0.4508
1036.60 0.4506
1036.70 0.4504
1036.80 0.4502
1036.90 0.45
1037.00 0.4498
1037.10 0.4496
1037.20 0.4494
1037.30 0.4492
1037.40 0.449
1037.50 0.4488
1037.60 0.4487
1037.70 0.4485
1037.80 0.4483
1037.90 0.4481
1038.00 0.4479
1038.10 0.4477
1038.20 0.4475
1038.30 0.4473
1038.40 0.4471
1038.50 0.447
1038.60 0.4468
1038.70 0.4466
1038.80 0.4464
1038.90 0.4462
1039.00 0.446
1039.10 0.4458
1039.20 0.4456
1039.30 0.4454
1039.40 0.4453
1039.50 0.4451
1039.60 0.4449
1039.70 0.4447
1039.80 0.4445
1039.90 0.4443
1040.00 0.4441
1040.10 0.4439
1040.20 0.4438
1040.30 0.4436
1040.40 0.4434
1040.50 0.4432
1040.60 0.443
1040.70 0.4428
1040.80 0.4426
1040.90 0.4424
1041.00 0.4423
1041.10 0.4421
1041.20 0.4419
1041.30 0.4417
1041.40 0.4415
1041.50 0.4413
1041.60 0.4411
1041.70 0.4409
1041.80 0.4408
1041.90 0.4406
1042.00 0.4404
1042.10 0.4402
1042.20 0.44
1042.30 0.4399
1042.40 0.4397
1042.50 0.4395
1042.60 0.4394
1042.70 0.4392
1042.80 0.439
1042.90 0.4389
1043.00 0.4387
1043.10 0.4385
1043.20 0.4384
1043.30 0.4382
1043.40 0.438
1043.50 0.4378
1043.60 0.4377
1043.70 0.4375
1043.80 0.4373
1043.90 0.4372
1044.00 0.437
1044.10 0.4368
1044.20 0.4367
1044.30 0.4365
1044.40 0.4363
1044.50 0.4362
1044.60 0.436
1044.70 0.4358
1044.80 0.4357
1044.90 0.4355
1045.00 0.4353
1045.10 0.4351
1045.20 0.435
1045.30 0.4348
1045.40 0.4346
1045.50 0.4345
1045.60 0.4343
1045.70 0.4341
1045.80 0.434
1045.90 0.4338
1046.00 0.4336
1046.10 0.4335
1046.20 0.4333
1046.30 0.4331
1046.40 0.433
1046.50 0.4328
1046.60 0.4326
1046.70 0.4325
1046.80 0.4323
1046.90 0.4321
1047.00 0.432
1047.10 0.4318
1047.20 0.4317
1047.30 0.4315
1047.40 0.4314
1047.50 0.4312
1047.60 0.4311
1047.70 0.4309
1047.80 0.4308
1047.90 0.4306
1048.00 0.4305
1048.10 0.4303
1048.20 0.4302
1048.30 0.43
1048.40 0.4298
1048.50 0.4297
1048.60 0.4295
1048.70 0.4294
1048.80 0.4292
1048.90 0.4291
1049.00 0.4289
1049.10 0.4288
1049.20 0.4286
1049.30 0.4285
1049.40 0.4283
1049.50 0.4282
1049.60 0.428
1049.70 0.4279
1049.80 0.4277
1049.90 0.4276
1050.00 0.4274
1050.10 0.4273
1050.20 0.4271
1050.30 0.427
1050.40 0.4268
1050.50 0.4267
1050.60 0.4265
1050.70 0.4264
1050.80 0.4262
1050.90 0.4261
1051.00 0.4259
1051.10 0.4258
1051.20 0.4256
1051.30 0.4255
1051.40 0.4253
1051.50 0.4252
1051.60 0.4251
1051.70 0.4249
1051.80 0.4248
1051.90 0.4246
1052.00 0.4245
1052.10 0.4243
1052.20 0.4242
1052.30 0.4241
1052.40 0.4239
1052.50 0.4238
1052.60 0.4237
1052.70 0.4235
1052.80 0.4234
1052.90 0.4233
1053.00 0.4231
1053.10 0.423
1053.20 0.4229
1053.30 0.4227
1053.40 0.4226
1053.50 0.4225
1053.60 0.4223
1053.70 0.4222
1053.80 0.4221
1053.90 0.422
1054.00 0.4218
1054.10 0.4217
1054.20 0.4216
1054.30 0.4214
1054.40 0.4213
1054.50 0.4212
1054.60 0.421
1054.70 0.4209
1054.80 0.4208
1054.90 0.4206
1055.00 0.4205
1055.10 0.4204
1055.20 0.4203
1055.30 0.4201
1055.40 0.42
1055.50 0.4199
1055.60 0.4197
1055.70 0.4196
1055.80 0.4195
1055.90 0.4193
1056.00 0.4192
1056.10 0.4191
1056.20 0.4189
1056.30 0.4188
1056.40 0.4187
1056.50 0.4186
1056.60 0.4184
1056.70 0.4183
1056.80 0.4182
1056.90 0.418
1057.00 0.4179
1057.10 0.4178
1057.20 0.4177
1057.30 0.4176
1057.40 0.4174
1057.50 0.4173
1057.60 0.4172
1057.70 0.4171
1057.80 0.417
1057.90 0.4169
1058.00 0.4168
1058.10 0.4166
1058.20 0.4165
1058.30 0.4164
1058.40 0.4163
1058.50 0.4162
1058.60 0.4161
1058.70 0.416
1058.80 0.4159
1058.90 0.4157
1059.00 0.4156
1059.10 0.4155
1059.20 0.4154
1059.30 0.4153
1059.40 0.4152
1059.50 0.4151
1059.60 0.4149
1059.70 0.4148
1059.80 0.4147
1059.90 0.4146
1060.00 0.4145
1060.10 0.4144
1060.20 0.4143
1060.30 0.4142
1060.40 0.414
1060.50 0.4139
1060.60 0.4138
1060.70 0.4137
1060.80 0.4136
1060.90 0.4135
1061.00 0.4134
1061.10 0.4132
1061.20 0.4131
1061.30 0.413
1061.40 0.4129
1061.50 0.4128
1061.60 0.4127
1061.70 0.4126
1061.80 0.4125
1061.90 0.4123
1062.00 0.4122
1062.10 0.4121
1062.20 0.412
1062.30 0.4119
1062.40 0.4118
1062.50 0.4117
1062.60 0.4116
1062.70 0.4115
1062.80 0.4114
1062.90 0.4113
1063.00 0.4112
1063.10 0.4111
1063.20 0.4111
1063.30 0.411
1063.40 0.4109
1063.50 0.4108
1063.60 0.4107
1063.70 0.4106
1063.80 0.4105
1063.90 0.4104
1064.00 0.4103
1064.10 0.4102
1064.20 0.4101
1064.30 0.41
1064.40 0.4099
1064.50 0.4098
1064.60 0.4097
1064.70 0.4096
1064.80 0.4095
1064.90 0.4094
1065.00 0.4093
1065.10 0.4092
1065.20 0.4091
1065.30 0.409
1065.40 0.4089
1065.50 0.4088
1065.60 0.4087
1065.70 0.4086
1065.80 0.4085
1065.90 0.4084
1066.00 0.4083
1066.10 0.4082
1066.20 0.4081
1066.30 0.408
1066.40 0.4079
1066.50 0.4078
1066.60 0.4077
1066.70 0.4076
1066.80 0.4075
1066.90 0.4074
1067.00 0.4073
1067.10 0.4073
1067.20 0.4072
1067.30 0.4071
1067.40 0.407
1067.50 0.4069
1067.60 0.4069
1067.70 0.4068
1067.80 0.4067
1067.90 0.4066
1068.00 0.4065
1068.10 0.4064
1068.20 0.4064
1068.30 0.4063
1068.40 0.4062
1068.50 0.4061
1068.60 0.406
1068.70 0.406
1068.80 0.4059
1068.90 0.4058
1069.00 0.4057
1069.10 0.4056
1069.20 0.4056
1069.30 0.4055
1069.40 0.4054
1069.50 0.4053
1069.60 0.4052
1069.70 0.4051
1069.80 0.4051
1069.90 0.405
1070.00 0.4049
1070.10 0.4048
1070.20 0.4047
1070.30 0.4047
1070.40 0.4046
1070.50 0.4045
1070.60 0.4044
1070.70 0.4043
1070.80 0.4043
1070.90 0.4042
1071.00 0.4041
1071.10 0.404
1071.20 0.4039
1071.30 0.4039
1071.40 0.4038
1071.50 0.4037
1071.60 0.4036
1071.70 0.4035
1071.80 0.4034
1071.90 0.4034
1072.00 0.4033
1072.10 0.4032
1072.20 0.4031
1072.30 0.4031
1072.40 0.403
1072.50 0.4029
1072.60 0.4028
1072.70 0.4028
1072.80 0.4027
1072.90 0.4026
1073.00 0.4025
1073.10 0.4025
1073.20 0.4024
1073.30 0.4023
1073.40 0.4022
1073.50 0.4022
1073.60 0.4021
1073.70 0.402
1073.80 0.402
1073.90 0.4019
1074.00 0.4018
1074.10 0.4018
1074.20 0.4017
1074.30 0.4016
1074.40 0.4016
1074.50 0.4015
1074.60 0.4014
1074.70 0.4013
1074.80 0.4013
1074.90 0.4012
1075.00 0.4011
1075.10 0.4011
1075.20 0.401
1075.30 0.4009
1075.40 0.4009
1075.50 0.4008
1075.60 0.4007
1075.70 0.4007
1075.80 0.4006
1075.90 0.4005
1076.00 0.4005
1076.10 0.4004
1076.20 0.4003
1076.30 0.4003
1076.40 0.4002
1076.50 0.4001
1076.60 0.4001
1076.70 0.4
1076.80 0.3999
1076.90 0.3998
1077.00 0.3998
1077.10 0.3997
1077.20 0.3997
1077.30 0.3996
1077.40 0.3995
1077.50 0.3995
1077.60 0.3994
1077.70 0.3993
1077.80 0.3993
1077.90 0.3992
1078.00 0.3992
1078.10 0.3991
1078.20 0.399
1078.30 0.399
1078.40 0.3989
1078.50 0.3989
1078.60 0.3988
1078.70 0.3987
1078.80 0.3987
1078.90 0.3986
1079.00 0.3985
1079.10 0.3985
1079.20 0.3984
1079.30 0.3984
1079.40 0.3983
1079.50 0.3982
1079.60 0.3982
1079.70 0.3981
1079.80 0.3981
1079.90 0.398
1080.00 0.398
1080.10 0.3979
1080.20 0.3979
1080.30 0.3978
1080.40 0.3978
1080.50 0.3977
1080.60 0.3977
1080.70 0.3976
1080.80 0.3976
1080.90 0.3975
1081.00 0.3974
1081.10 0.3974
1081.20 0.3973
1081.30 0.3973
1081.40 0.3972
1081.50 0.3972
1081.60 0.3971
1081.70 0.3971
1081.80 0.397
1081.90 0.397
1082.00 0.3969
1082.10 0.3969
1082.20 0.3968
1082.30 0.3968
1082.40 0.3967
1082.50 0.3967
1082.60 0.3966
1082.70 0.3966
1082.80 0.3965
1082.90 0.3964
1083.00 0.3964
1083.10 0.3963
1083.20 0.3963
1083.30 0.3962
1083.40 0.3962
1083.50 0.3961
1083.60 0.3961
1083.70 0.396
1083.80 0.396
1083.90 0.3959
1084.00 0.3959
1084.10 0.3958
1084.20 0.3958
1084.30 0.3957
1084.40 0.3957
1084.50 0.3957
1084.60 0.3956
1084.70 0.3956
1084.80 0.3955
1084.90 0.3955
1085.00 0.3954
1085.10 0.3954
1085.20 0.3953
1085.30 0.3953
1085.40 0.3952
1085.50 0.3952
1085.60 0.3951
1085.70 0.3951
1085.80 0.3951
1085.90 0.395
1086.00 0.395
1086.10 0.3949
1086.20 0.3949
1086.30 0.3948
1086.40 0.3948
1086.50 0.3947
1086.60 0.3947
1086.70 0.3946
1086.80 0.3946
1086.90 0.3946
1087.00 0.3945
1087.10 0.3945
1087.20 0.3944
1087.30 0.3944
1087.40 0.3943
1087.50 0.3943
1087.60 0.3943
1087.70 0.3942
1087.80 0.3942
1087.90 0.3941
1088.00 0.3941
1088.10 0.394
1088.20 0.394
1088.30 0.394
1088.40 0.3939
1088.50 0.3939
1088.60 0.3938
1088.70 0.3938
1088.80 0.3938
1088.90 0.3937
1089.00 0.3937
1089.10 0.3937
1089.20 0.3936
1089.30 0.3936
1089.40 0.3935
1089.50 0.3935
1089.60 0.3935
1089.70 0.3934
1089.80 0.3934
1089.90 0.3933
1090.00 0.3933
1090.10 0.3933
1090.20 0.3932
1090.30 0.3932
1090.40 0.3932
1090.50 0.3931
1090.60 0.3931
1090.70 0.393
1090.80 0.393
1090.90 0.393
1091.00 0.3929
1091.10 0.3929
1091.20 0.3929
1091.30 0.3928
1091.40 0.3928
1091.50 0.3928
1091.60 0.3927
1091.70 0.3927
1091.80 0.3927
1091.90 0.3926
1092.00 0.3926
1092.10 0.3925
1092.20 0.3925
1092.30 0.3925
1092.40 0.3924
1092.50 0.3924
1092.60 0.3924
1092.70 0.3924
1092.80 0.3923
1092.90 0.3923
1093.00 0.3923
1093.10 0.3923
1093.20 0.3923
1093.30 0.3923
1093.40 0.3922
1093.50 0.3922
1093.60 0.3922
1093.70 0.3921
1093.80 0.3921
1093.90 0.3921
1094.00 0.392
1094.10 0.392
1094.20 0.392
1094.30 0.3919
1094.40 0.3919
1094.50 0.3919
1094.60 0.3919
1094.70 0.3918
1094.80 0.3918
1094.90 0.3918
1095.00 0.3917
1095.10 0.3917
1095.20 0.3917
1095.30 0.3916
1095.40 0.3916
1095.50 0.3916
1095.60 0.3916
1095.70 0.3915
1095.80 0.3915
1095.90 0.3915
1096.00 0.3914
1096.10 0.3914
1096.20 0.3914
1096.30 0.3914
1096.40 0.3913
1096.50 0.3913
1096.60 0.3913
1096.70 0.3912
1096.80 0.3912
1096.90 0.3912
1097.00 0.3912
1097.10 0.3911
1097.20 0.3911
1097.30 0.3911
1097.40 0.3911
1097.50 0.391
1097.60 0.391
1097.70 0.391
1097.80 0.3909
1097.90 0.3909
1098.00 0.3909
1098.10 0.3909
1098.20 0.3908
1098.30 0.3908
1098.40 0.3908
1098.50 0.3908
1098.60 0.3907
1098.70 0.3907
1098.80 0.3907
1098.90 0.3907
1099.00 0.3906
1099.10 0.3906
1099.20 0.3906
1099.30 0.3906
1099.40 0.3905
1099.50 0.3905
1099.60 0.3905
1099.70 0.3905
1099.80 0.3904
1099.90 0.3904
1100.00 0.3904
1100.10 0.3904
1100.20 0.3903
1100.30 0.3903
1100.40 0.3903
1100.50 0.3903
1100.60 0.3902
1100.70 0.3902
1100.80 0.3902
1100.90 0.3902
1101.00 0.3902
1101.10 0.3901
1101.20 0.3901
1101.30 0.3901
1101.40 0.3901
1101.50 0.39
1101.60 0.39
1101.70 0.39
1101.80 0.39
1101.90 0.39
1102.00 0.3899
1102.10 0.3899
1102.20 0.3899
1102.30 0.3899
1102.40 0.3899
1102.50 0.3898
1102.60 0.3898
1102.70 0.3898
1102.80 0.3898
1102.90 0.3897
1103.00 0.3897
1103.10 0.3897
1103.20 0.3897
1103.30 0.3897
1103.40 0.3896
1103.50 0.3896
1103.60 0.3896
1103.70 0.3896
1103.80 0.3896
1103.90 0.3896
1104.00 0.3896
1104.10 0.3895
1104.20 0.3895
1104.30 0.3895
1104.40 0.3895
1104.50 0.3895
1104.60 0.3895
1104.70 0.3894
1104.80 0.3894
1104.90 0.3894
1105.00 0.3894
1105.10 0.3894
1105.20 0.3894
1105.30 0.3894
1105.40 0.3893
1105.50 0.3893
1105.60 0.3893
1105.70 0.3893
1105.80 0.3893
1105.90 0.3893
1106.00 0.3892
1106.10 0.3892
1106.20 0.3892
1106.30 0.3892
1106.40 0.3892
1106.50 0.3892
1106.60 0.3891
1106.70 0.3891
1106.80 0.3891
1106.90 0.3891
1107.00 0.3891
1107.10 0.389
1107.20 0.389
1107.30 0.389
1107.40 0.389
1107.50 0.389
1107.60 0.389
1107.70 0.389
1107.80 0.3889
1107.90 0.3889
1108.00 0.3889
1108.10 0.3889
1108.20 0.3889
1108.30 0.3889
1108.40 0.3888
1108.50 0.3888
1108.60 0.3888
1108.70 0.3888
1108.80 0.3888
1108.90 0.3888
1109.00 0.3887
1109.10 0.3887
1109.20 0.3887
1109.30 0.3887
1109.40 0.3887
1109.50 0.3887
1109.60 0.3887
1109.70 0.3886
1109.80 0.3886
1109.90 0.3886
1110.00 0.3886
1110.10 0.3886
1110.20 0.3886
1110.30 0.3886
1110.40 0.3885
1110.50 0.3885
1110.60 0.3885
1110.70 0.3885
1110.80 0.3885
1110.90 0.3885
1111.00 0.3885
1111.10 0.3884
1111.20 0.3884
1111.30 0.3884
1111.40 0.3884
1111.50 0.3884
1111.60 0.3884
1111.70 0.3884
1111.80 0.3883
1111.90 0.3883
1112.00 0.3883
1112.10 0.3883
1112.20 0.3883
1112.30 0.3883
1112.40 0.3883
1112.50 0.3883
1112.60 0.3882
1112.70 0.3882
1112.80 0.3882
1112.90 0.3882
1113.00 0.3882
1113.10 0.3882
1113.20 0.3882
1113.30 0.3882
1113.40 0.3881
1113.50 0.3881
1113.60 0.3881
1113.70 0.3881
1113.80 0.3881
1113.90 0.3881
1114.00 0.3881
1114.10 0.3881
1114.20 0.3881
1114.30 0.388
1114.40 0.388
1114.50 0.388
1114.60 0.388
1114.70 0.388
1114.80 0.388
1114.90 0.388
1115.00 0.388
1115.10 0.3879
1115.20 0.3879
1115.30 0.3879
1115.40 0.3879
1115.50 0.3879
1115.60 0.3879
1115.70 0.3879
1115.80 0.3879
1115.90 0.3879
1116.00 0.3878
1116.10 0.3878
1116.20 0.3878
1116.30 0.3878
1116.40 0.3878
1116.50 0.3878
1116.60 0.3878
1116.70 0.3878
1116.80 0.3878
1116.90 0.3877
1117.00 0.3877
1117.10 0.3877
1117.20 0.3877
1117.30 0.3877
1117.40 0.3877
1117.50 0.3877
1117.60 0.3877
1117.70 0.3877
1117.80 0.3877
1117.90 0.3877
1118.00 0.3877
1118.10 0.3877
1118.20 0.3876
1118.30 0.3876
1118.40 0.3876
1118.50 0.3876
1118.60 0.3876
1118.70 0.3876
1118.80 0.3876
1118.90 0.3876
1119.00 0.3876
1119.10 0.3876
1119.20 0.3876
1119.30 0.3876
1119.40 0.3876
1119.50 0.3875
1119.60 0.3875
1119.70 0.3875
1119.80 0.3875
1119.90 0.3875
1120.00 0.3875
1120.10 0.3875
1120.20 0.3875
1120.30 0.3875
1120.40 0.3875
1120.50 0.3875
1120.60 0.3875
1120.70 0.3875
1120.80 0.3874
1120.90 0.3874
1121.00 0.3874
1121.10 0.3874
1121.20 0.3874
1121.30 0.3874
1121.40 0.3874
1121.50 0.3874
1121.60 0.3874
1121.70 0.3874
1121.80 0.3874
1121.90 0.3874
1122.00 0.3874
1122.10 0.3873
1122.20 0.3873
1122.30 0.3873
1122.40 0.3873
1122.50 0.3873
1122.60 0.3873
1122.70 0.3873
1122.80 0.3873
1122.90 0.3873
1123.00 0.3873
1123.10 0.3873
1123.20 0.3872
1123.30 0.3872
1123.40 0.3872
1123.50 0.3872
1123.60 0.3872
1123.70 0.3872
1123.80 0.3872
1123.90 0.3872
1124.00 0.3872
1124.10 0.3872
1124.20 0.3872
1124.30 0.3871
1124.40 0.3871
1124.50 0.3871
1124.60 0.3871
1124.70 0.3871
1124.80 0.3871
1124.90 0.3871
1125.00 0.3871
1125.10 0.3871
1125.20 0.3871
1125.30 0.3871
1125.40 0.387
1125.50 0.387
1125.60 0.387
1125.70 0.387
1125.80 0.387
1125.90 0.387
1126.00 0.387
1126.10 0.387
1126.20 0.387
1126.30 0.387
1126.40 0.387
1126.50 0.3869
1126.60 0.3869
1126.70 0.3869
1126.80 0.3869
1126.90 0.3869
1127.00 0.3869
1127.10 0.3869
1127.20 0.3869
1127.30 0.3869
1127.40 0.3869
1127.50 0.3869
1127.60 0.3869
1127.70 0.3869
1127.80 0.3868
1127.90 0.3868
1128.00 0.3868
1128.10 0.3868
1128.20 0.3868
1128.30 0.3868
1128.40 0.3868
1128.50 0.3868
1128.60 0.3868
1128.70 0.3868
1128.80 0.3868
1128.90 0.3868
1129.00 0.3868
1129.10 0.3868
1129.20 0.3868
1129.30 0.3868
1129.40 0.3868
1129.50 0.3867
1129.60 0.3867
1129.70 0.3867
1129.80 0.3867
1129.90 0.3867
1130.00 0.3867
1130.10 0.3867
1130.20 0.3867
1130.30 0.3867
1130.40 0.3867
1130.50 0.3867
1130.60 0.3867
1130.70 0.3867
1130.80 0.3867
1130.90 0.3867
1131.00 0.3867
1131.10 0.3867
1131.20 0.3866
1131.30 0.3866
1131.40 0.3866
1131.50 0.3866
1131.60 0.3866
1131.70 0.3866
1131.80 0.3866
1131.90 0.3866
1132.00 0.3866
1132.10 0.3866
1132.20 0.3866
1132.30 0.3866
1132.40 0.3865
1132.50 0.3865
1132.60 0.3865
1132.70 0.3865
1132.80 0.3865
1132.90 0.3865
1133.00 0.3865
1133.10 0.3865
1133.20 0.3865
1133.30 0.3864
1133.40 0.3864
1133.50 0.3864
1133.60 0.3864
1133.70 0.3864
1133.80 0.3864
1133.90 0.3864
1134.00 0.3864
1134.10 0.3863
1134.20 0.3863
1134.30 0.3863
1134.40 0.3863
1134.50 0.3863
1134.60 0.3863
1134.70 0.3863
1134.80 0.3863
1134.90 0.3862
1135.00 0.3862
1135.10 0.3862
1135.20 0.3862
1135.30 0.3862
1135.40 0.3862
1135.50 0.3862
1135.60 0.3862
1135.70 0.3862
1135.80 0.3861
1135.90 0.3861
1136.00 0.3861
1136.10 0.3861
1136.20 0.3861
1136.30 0.3861
1136.40 0.3861
1136.50 0.3861
1136.60 0.386
1136.70 0.386
1136.80 0.386
1136.90 0.386
1137.00 0.386
1137.10 0.386
1137.20 0.386
1137.30 0.386
1137.40 0.3859
1137.50 0.3859
1137.60 0.3859
1137.70 0.3859
1137.80 0.3859
1137.90 0.3859
1138.00 0.3858
1138.10 0.3858
1138.20 0.3858
1138.30 0.3858
1138.40 0.3858
1138.50 0.3858
1138.60 0.3858
1138.70 0.3857
1138.80 0.3857
1138.90 0.3857
1139.00 0.3857
1139.10 0.3857
1139.20 0.3857
1139.30 0.3857
1139.40 0.3856
1139.50 0.3856
1139.60 0.3856
1139.70 0.3856
1139.80 0.3856
1139.90 0.3856
1140.00 0.3855
1140.10 0.3855
1140.20 0.3855
1140.30 0.3855
1140.40 0.3855
1140.50 0.3855
1140.60 0.3855
1140.70 0.3854
1140.80 0.3854
1140.90 0.3854
1141.00 0.3854
1141.10 0.3854
1141.20 0.3854
1141.30 0.3853
1141.40 0.3853
1141.50 0.3853
1141.60 0.3853
1141.70 0.3853
1141.80 0.3853
1141.90 0.3853
1142.00 0.3852
1142.10 0.3852
1142.20 0.3852
1142.30 0.3852
1142.40 0.3852
1142.50 0.3852
1142.60 0.3851
1142.70 0.3851
1142.80 0.3851
1142.90 0.3851
1143.00 0.3851
1143.10 0.3851
1143.20 0.385
1143.30 0.385
1143.40 0.385
1143.50 0.385
1143.60 0.385
1143.70 0.385
1143.80 0.3849
1143.90 0.3849
1144.00 0.3849
1144.10 0.3849
1144.20 0.3849
1144.30 0.3849
1144.40 0.3848
1144.50 0.3848
1144.60 0.3848
1144.70 0.3848
1144.80 0.3848
1144.90 0.3848
1145.00 0.3847
1145.10 0.3847
1145.20 0.3847
1145.30 0.3847
1145.40 0.3847
1145.50 0.3847
1145.60 0.3846
1145.70 0.3846
1145.80 0.3846
1145.90 0.3846
1146.00 0.3846
1146.10 0.3845
1146.20 0.3845
1146.30 0.3845
1146.40 0.3845
1146.50 0.3845
1146.60 0.3845
1146.70 0.3844
1146.80 0.3844
1146.90 0.3844
1147.00 0.3844
1147.10 0.3844
1147.20 0.3843
1147.30 0.3843
1147.40 0.3843
1147.50 0.3843
1147.60 0.3842
1147.70 0.3842
1147.80 0.3842
1147.90 0.3842
1148.00 0.3841
1148.10 0.3841
1148.20 0.3841
1148.30 0.3841
1148.40 0.384
1148.50 0.384
1148.60 0.384
1148.70 0.384
1148.80 0.384
1148.90 0.3839
1149.00 0.3839
1149.10 0.3839
1149.20 0.3839
1149.30 0.3838
1149.40 0.3838
1149.50 0.3838
1149.60 0.3838
1149.70 0.3837
1149.80 0.3837
1149.90 0.3837
1150.00 0.3837
1150.10 0.3836
1150.20 0.3836
1150.30 0.3836
1150.40 0.3836
1150.50 0.3835
1150.60 0.3835
1150.70 0.3835
1150.80 0.3835
1150.90 0.3834
1151.00 0.3834
1151.10 0.3834
1151.20 0.3834
1151.30 0.3833
1151.40 0.3833
1151.50 0.3833
1151.60 0.3833
1151.70 0.3832
1151.80 0.3832
1151.90 0.3832
1152.00 0.3832
1152.10 0.3831
1152.20 0.3831
1152.30 0.3831
1152.40 0.383
1152.50 0.383
1152.60 0.383
1152.70 0.383
1152.80 0.3829
1152.90 0.3829
1153.00 0.3829
1153.10 0.3829
1153.20 0.3828
1153.30 0.3828
1153.40 0.3828
1153.50 0.3827
1153.60 0.3827
1153.70 0.3827
1153.80 0.3827
1153.90 0.3826
1154.00 0.3826
1154.10 0.3826
1154.20 0.3825
1154.30 0.3825
1154.40 0.3825
1154.50 0.3825
1154.60 0.3824
1154.70 0.3824
1154.80 0.3824
1154.90 0.3824
1155.00 0.3823
1155.10 0.3823
1155.20 0.3823
1155.30 0.3822
1155.40 0.3822
1155.50 0.3822
1155.60 0.3822
1155.70 0.3821
1155.80 0.3821
1155.90 0.3821
1156.00 0.382
1156.10 0.382
1156.20 0.382
1156.30 0.382
1156.40 0.3819
1156.50 0.3819
1156.60 0.3819
1156.70 0.3819
1156.80 0.3818
1156.90 0.3818
1157.00 0.3818
1157.10 0.3817
1157.20 0.3817
1157.30 0.3817
1157.40 0.3816
1157.50 0.3816
1157.60 0.3816
1157.70 0.3815
1157.80 0.3815
1157.90 0.3814
1158.00 0.3814
1158.10 0.3814
1158.20 0.3813
1158.30 0.3813
1158.40 0.3813
1158.50 0.3812
1158.60 0.3812
1158.70 0.3811
1158.80 0.3811
1158.90 0.3811
1159.00 0.381
1159.10 0.381
1159.20 0.381
1159.30 0.3809
1159.40 0.3809
1159.50 0.3809
1159.60 0.3808
1159.70 0.3808
1159.80 0.3807
1159.90 0.3807
1160.00 0.3807
1160.10 0.3806
1160.20 0.3806
1160.30 0.3806
1160.40 0.3805
1160.50 0.3805
1160.60 0.3804
1160.70 0.3804
1160.80 0.3804
1160.90 0.3803
1161.00 0.3803
1161.10 0.3803
1161.20 0.3802
1161.30 0.3802
1161.40 0.3802
1161.50 0.3801
1161.60 0.3801
1161.70 0.38
1161.80 0.38
1161.90 0.38
1162.00 0.3799
1162.10 0.3799
1162.20 0.3798
1162.30 0.3798
1162.40 0.3798
1162.50 0.3797
1162.60 0.3797
1162.70 0.3796
1162.80 0.3796
1162.90 0.3795
1163.00 0.3795
1163.10 0.3795
1163.20 0.3794
1163.30 0.3794
1163.40 0.3793
1163.50 0.3793
1163.60 0.3792
1163.70 0.3792
1163.80 0.3791
1163.90 0.3791
1164.00 0.3791
1164.10 0.379
1164.20 0.379
1164.30 0.3789
1164.40 0.3789
1164.50 0.3788
1164.60 0.3788
1164.70 0.3788
1164.80 0.3787
1164.90 0.3787
1165.00 0.3786
1165.10 0.3786
1165.20 0.3785
1165.30 0.3785
1165.40 0.3784
1165.50 0.3784
1165.60 0.3784
1165.70 0.3783
1165.80 0.3783
1165.90 0.3782
1166.00 0.3782
1166.10 0.3781
1166.20 0.3781
1166.30 0.3781
1166.40 0.378
1166.50 0.378
1166.60 0.3779
1166.70 0.3779
1166.80 0.3778
1166.90 0.3778
1167.00 0.3778
1167.10 0.3777
1167.20 0.3777
1167.30 0.3776
1167.40 0.3775
1167.50 0.3775
1167.60 0.3774
1167.70 0.3774
1167.80 0.3773
1167.90 0.3773
1168.00 0.3772
1168.10 0.3772
1168.20 0.3771
1168.30 0.3771
1168.40 0.377
1168.50 0.377
1168.60 0.3769
1168.70 0.3769
1168.80 0.3768
1168.90 0.3768
1169.00 0.3767
1169.10 0.3767
1169.20 0.3766
1169.30 0.3766
1169.40 0.3765
1169.50 0.3765
1169.60 0.3764
1169.70 0.3764
1169.80 0.3763
1169.90 0.3763
1170.00 0.3762
1170.10 0.3762
1170.20 0.3761
1170.30 0.3761
1170.40 0.376
1170.50 0.376
1170.60 0.3759
1170.70 0.3759
1170.80 0.3758
1170.90 0.3758
1171.00 0.3757
1171.10 0.3757
1171.20 0.3756
1171.30 0.3756
1171.40 0.3755
1171.50 0.3755
1171.60 0.3754
1171.70 0.3754
1171.80 0.3753
1171.90 0.3753
1172.00 0.3752
1172.10 0.3752
1172.20 0.3751
1172.30 0.3751
1172.40 0.375
1172.50 0.3749
1172.60 0.3749
1172.70 0.3748
1172.80 0.3748
1172.90 0.3747
1173.00 0.3747
1173.10 0.3746
1173.20 0.3745
1173.30 0.3745
1173.40 0.3744
1173.50 0.3744
1173.60 0.3743
1173.70 0.3743
1173.80 0.3742
1173.90 0.3741
1174.00 0.3741
1174.10 0.374
1174.20 0.374
1174.30 0.3739
1174.40 0.3739
1174.50 0.3738
1174.60 0.3737
1174.70 0.3737
1174.80 0.3736
1174.90 0.3736
1175.00 0.3735
1175.10 0.3735
1175.20 0.3734
1175.30 0.3733
1175.40 0.3733
1175.50 0.3732
1175.60 0.3732
1175.70 0.3731
1175.80 0.3731
1175.90 0.373
1176.00 0.3729
1176.10 0.3729
1176.20 0.3728
1176.30 0.3728
1176.40 0.3727
1176.50 0.3727
1176.60 0.3726
1176.70 0.3726
1176.80 0.3725
1176.90 0.3724
1177.00 0.3724
1177.10 0.3723
1177.20 0.3723
1177.30 0.3722
1177.40 0.3721
1177.50 0.3721
1177.60 0.372
1177.70 0.3719
1177.80 0.3719
1177.90 0.3718
1178.00 0.3718
1178.10 0.3717
1178.20 0.3716
1178.30 0.3716
1178.40 0.3715
1178.50 0.3714
1178.60 0.3714
1178.70 0.3713
1178.80 0.3713
1178.90 0.3712
1179.00 0.3711
1179.10 0.3711
1179.20 0.371
1179.30 0.3709
1179.40 0.3709
1179.50 0.3708
1179.60 0.3707
1179.70 0.3707
1179.80 0.3706
1179.90 0.3706
1180.00 0.3705
1180.10 0.3704
1180.20 0.3704
1180.30 0.3703
1180.40 0.3702
1180.50 0.3702
1180.60 0.3701
1180.70 0.3701
1180.80 0.37
1180.90 0.3699
1181.00 0.3699
1181.10 0.3698
1181.20 0.3697
1181.30 0.3697
1181.40 0.3696
1181.50 0.3696
1181.60 0.3695
1181.70 0.3694
1181.80 0.3694
1181.90 0.3693
1182.00 0.3693
1182.10 0.3692
1182.20 0.3691
1182.30 0.369
1182.40 0.369
1182.50 0.3689
1182.60 0.3688
1182.70 0.3688
1182.80 0.3687
1182.90 0.3686
1183.00 0.3685
1183.10 0.3685
1183.20 0.3684
1183.30 0.3683
1183.40 0.3683
1183.50 0.3682
1183.60 0.3681
1183.70 0.3681
1183.80 0.368
1183.90 0.3679
1184.00 0.3678
1184.10 0.3678
1184.20 0.3677
1184.30 0.3676
1184.40 0.3676
1184.50 0.3675
1184.60 0.3674
1184.70 0.3674
1184.80 0.3673
1184.90 0.3672
1185.00 0.3671
1185.10 0.3671
1185.20 0.367
1185.30 0.3669
1185.40 0.3669
1185.50 0.3668
1185.60 0.3667
1185.70 0.3667
1185.80 0.3666
1185.90 0.3665
1186.00 0.3664
1186.10 0.3664
1186.20 0.3663
1186.30 0.3662
1186.40 0.3662
1186.50 0.3661
1186.60 0.366
1186.70 0.366
1186.80 0.3659
1186.90 0.3658
1187.00 0.3657
1187.10 0.3657
1187.20 0.3656
1187.30 0.3655
1187.40 0.3655
1187.50 0.3654
1187.60 0.3653
1187.70 0.3652
1187.80 0.3652
1187.90 0.3651
1188.00 0.365
1188.10 0.365
1188.20 0.3649
1188.30 0.3648
1188.40 0.3648
1188.50 0.3647
1188.60 0.3646
1188.70 0.3645
1188.80 0.3645
1188.90 0.3644
1189.00 0.3643
1189.10 0.3643
1189.20 0.3642
1189.30 0.3641
1189.40 0.364
1189.50 0.364
1189.60 0.3639
1189.70 0.3638
1189.80 0.3638
1189.90 0.3637
1190.00 0.3636
1190.10 0.3636
1190.20 0.3635
1190.30 0.3634
1190.40 0.3633
1190.50 0.3633
1190.60 0.3632
1190.70 0.3631
1190.80 0.3631
1190.90 0.363
1191.00 0.3629
1191.10 0.3628
1191.20 0.3628
1191.30 0.3627
1191.40 0.3626
1191.50 0.3626
1191.60 0.3625
1191.70 0.3624
1191.80 0.3624
1191.90 0.3623
1192.00 0.3622
1192.10 0.3621
1192.20 0.3621
1192.30 0.362
1192.40 0.3619
1192.50 0.3618
1192.60 0.3618
1192.70 0.3617
1192.80 0.3616
1192.90 0.3615
1193.00 0.3615
1193.10 0.3614
1193.20 0.3613
1193.30 0.3613
1193.40 0.3612
1193.50 0.3611
1193.60 0.361
1193.70 0.361
1193.80 0.3609
1193.90 0.3608
1194.00 0.3607
1194.10 0.3607
1194.20 0.3606
1194.30 0.3605
1194.40 0.3604
1194.50 0.3604
1194.60 0.3603
1194.70 0.3602
1194.80 0.3601
1194.90 0.3601
1195.00 0.36
1195.10 0.3599
1195.20 0.3599
1195.30 0.3598
1195.40 0.3597
1195.50 0.3596
1195.60 0.3596
1195.70 0.3595
1195.80 0.3594
1195.90 0.3593
1196.00 0.3593
1196.10 0.3592
1196.20 0.3591
1196.30 0.359
1196.40 0.359
1196.50 0.3589
1196.60 0.3588
1196.70 0.3588
1196.80 0.3587
1196.90 0.3586
1197.00 0.3585
1197.10 0.3585
1197.20 0.3584
1197.30 0.3583
1197.40 0.3582
1197.50 0.3581
1197.60 0.3581
1197.70 0.358
1197.80 0.3579
1197.90 0.3578
1198.00 0.3577
1198.10 0.3577
1198.20 0.3576
1198.30 0.3575
1198.40 0.3574
1198.50 0.3574
1198.60 0.3573
1198.70 0.3572
1198.80 0.3571
1198.90 0.357
1199.00 0.357
1199.10 0.3569
1199.20 0.3568
1199.30 0.3567
1199.40 0.3566
1199.50 0.3566
1199.60 0.3565
1199.70 0.3564
1199.80 0.3563
1199.90 0.3563
1200.00 0
