# Version 2.1 - nm, norm@500 to 1, cut digits, bergeron_85000_90.dat_85000
# Wavelength(nm)  Flambda(ergs/cm^s/s/nm)
300.00 6.742
300.10 6.733
300.20 6.725
300.30 6.716
300.40 6.708
300.50 6.7
300.60 6.691
300.70 6.683
300.80 6.675
300.90 6.666
301.00 6.658
301.10 6.65
301.20 6.641
301.30 6.633
301.40 6.625
301.50 6.617
301.60 6.609
301.70 6.6
301.80 6.592
301.90 6.584
302.00 6.576
302.10 6.568
302.20 6.56
302.30 6.551
302.40 6.543
302.50 6.535
302.60 6.527
302.70 6.519
302.80 6.511
302.90 6.503
303.00 6.495
303.10 6.487
303.20 6.479
303.30 6.471
303.40 6.463
303.50 6.455
303.60 6.447
303.70 6.439
303.80 6.431
303.90 6.423
304.00 6.415
304.10 6.407
304.20 6.399
304.30 6.392
304.40 6.384
304.50 6.376
304.60 6.368
304.70 6.36
304.80 6.352
304.90 6.345
305.00 6.337
305.10 6.329
305.20 6.321
305.30 6.313
305.40 6.306
305.50 6.298
305.60 6.29
305.70 6.283
305.80 6.275
305.90 6.267
306.00 6.259
306.10 6.252
306.20 6.244
306.30 6.237
306.40 6.229
306.50 6.221
306.60 6.214
306.70 6.206
306.80 6.198
306.90 6.191
307.00 6.183
307.10 6.176
307.20 6.168
307.30 6.161
307.40 6.153
307.50 6.146
307.60 6.138
307.70 6.131
307.80 6.123
307.90 6.116
308.00 6.108
308.10 6.101
308.20 6.094
308.30 6.086
308.40 6.079
308.50 6.071
308.60 6.064
308.70 6.057
308.80 6.049
308.90 6.042
309.00 6.035
309.10 6.027
309.20 6.02
309.30 6.013
309.40 6.005
309.50 5.998
309.60 5.991
309.70 5.984
309.80 5.976
309.90 5.969
310.00 5.962
310.10 5.955
310.20 5.948
310.30 5.94
310.40 5.933
310.50 5.926
310.60 5.919
310.70 5.912
310.80 5.905
310.90 5.897
311.00 5.89
311.10 5.883
311.20 5.876
311.30 5.869
311.40 5.862
311.50 5.855
311.60 5.848
311.70 5.841
311.80 5.834
311.90 5.827
312.00 5.82
312.10 5.813
312.20 5.806
312.30 5.799
312.40 5.792
312.50 5.785
312.60 5.778
312.70 5.771
312.80 5.764
312.90 5.757
313.00 5.75
313.10 5.743
313.20 5.737
313.30 5.73
313.40 5.723
313.50 5.716
313.60 5.709
313.70 5.702
313.80 5.696
313.90 5.689
314.00 5.682
314.10 5.675
314.20 5.668
314.30 5.662
314.40 5.655
314.50 5.648
314.60 5.641
314.70 5.635
314.80 5.628
314.90 5.621
315.00 5.615
315.10 5.608
315.20 5.601
315.30 5.594
315.40 5.588
315.50 5.581
315.60 5.575
315.70 5.568
315.80 5.561
315.90 5.555
316.00 5.548
316.10 5.542
316.20 5.535
316.30 5.528
316.40 5.522
316.50 5.515
316.60 5.509
316.70 5.502
316.80 5.496
316.90 5.489
317.00 5.483
317.10 5.476
317.20 5.47
317.30 5.463
317.40 5.457
317.50 5.45
317.60 5.444
317.70 5.437
317.80 5.431
317.90 5.425
318.00 5.418
318.10 5.412
318.20 5.405
318.30 5.399
318.40 5.393
318.50 5.386
318.60 5.38
318.70 5.374
318.80 5.367
318.90 5.361
319.00 5.355
319.10 5.348
319.20 5.342
319.30 5.336
319.40 5.33
319.50 5.323
319.60 5.317
319.70 5.311
319.80 5.305
319.90 5.298
320.00 5.292
320.10 5.286
320.20 5.28
320.30 5.274
320.40 5.267
320.50 5.261
320.60 5.255
320.70 5.249
320.80 5.243
320.90 5.237
321.00 5.23
321.10 5.224
321.20 5.218
321.30 5.212
321.40 5.206
321.50 5.2
321.60 5.194
321.70 5.188
321.80 5.182
321.90 5.176
322.00 5.17
322.10 5.164
322.20 5.158
322.30 5.152
322.40 5.146
322.50 5.14
322.60 5.134
322.70 5.128
322.80 5.122
322.90 5.116
323.00 5.11
323.10 5.104
323.20 5.098
323.30 5.092
323.40 5.086
323.50 5.08
323.60 5.074
323.70 5.068
323.80 5.063
323.90 5.057
324.00 5.051
324.10 5.045
324.20 5.039
324.30 5.033
324.40 5.027
324.50 5.022
324.60 5.016
324.70 5.01
324.80 5.004
324.90 4.998
325.00 4.993
325.10 4.987
325.20 4.981
325.30 4.975
325.40 4.97
325.50 4.964
325.60 4.958
325.70 4.952
325.80 4.947
325.90 4.941
326.00 4.935
326.10 4.93
326.20 4.924
326.30 4.918
326.40 4.913
326.50 4.907
326.60 4.901
326.70 4.896
326.80 4.89
326.90 4.884
327.00 4.879
327.10 4.873
327.20 4.868
327.30 4.862
327.40 4.856
327.50 4.851
327.60 4.845
327.70 4.84
327.80 4.834
327.90 4.829
328.00 4.823
328.10 4.818
328.20 4.812
328.30 4.807
328.40 4.801
328.50 4.796
328.60 4.79
328.70 4.785
328.80 4.779
328.90 4.774
329.00 4.768
329.10 4.763
329.20 4.757
329.30 4.752
329.40 4.746
329.50 4.741
329.60 4.736
329.70 4.73
329.80 4.725
329.90 4.719
330.00 4.714
330.10 4.709
330.20 4.703
330.30 4.698
330.40 4.693
330.50 4.687
330.60 4.682
330.70 4.677
330.80 4.671
330.90 4.666
331.00 4.661
331.10 4.656
331.20 4.65
331.30 4.645
331.40 4.64
331.50 4.634
331.60 4.629
331.70 4.624
331.80 4.619
331.90 4.613
332.00 4.608
332.10 4.603
332.20 4.598
332.30 4.593
332.40 4.587
332.50 4.582
332.60 4.577
332.70 4.572
332.80 4.567
332.90 4.562
333.00 4.556
333.10 4.551
333.20 4.546
333.30 4.541
333.40 4.536
333.50 4.531
333.60 4.526
333.70 4.52
333.80 4.515
333.90 4.51
334.00 4.505
334.10 4.5
334.20 4.495
334.30 4.49
334.40 4.485
334.50 4.48
334.60 4.475
334.70 4.47
334.80 4.465
334.90 4.46
335.00 4.455
335.10 4.45
335.20 4.445
335.30 4.44
335.40 4.435
335.50 4.43
335.60 4.425
335.70 4.42
335.80 4.415
335.90 4.41
336.00 4.405
336.10 4.4
336.20 4.395
336.30 4.39
336.40 4.385
336.50 4.38
336.60 4.376
336.70 4.371
336.80 4.366
336.90 4.361
337.00 4.356
337.10 4.351
337.20 4.346
337.30 4.342
337.40 4.337
337.50 4.332
337.60 4.327
337.70 4.322
337.80 4.317
337.90 4.313
338.00 4.308
338.10 4.303
338.20 4.298
338.30 4.293
338.40 4.289
338.50 4.284
338.60 4.279
338.70 4.274
338.80 4.27
338.90 4.265
339.00 4.26
339.10 4.255
339.20 4.251
339.30 4.246
339.40 4.241
339.50 4.237
339.60 4.232
339.70 4.227
339.80 4.222
339.90 4.218
340.00 4.213
340.10 4.208
340.20 4.204
340.30 4.199
340.40 4.194
340.50 4.19
340.60 4.185
340.70 4.181
340.80 4.176
340.90 4.171
341.00 4.167
341.10 4.162
341.20 4.158
341.30 4.153
341.40 4.148
341.50 4.144
341.60 4.139
341.70 4.135
341.80 4.13
341.90 4.126
342.00 4.121
342.10 4.116
342.20 4.112
342.30 4.107
342.40 4.103
342.50 4.098
342.60 4.094
342.70 4.089
342.80 4.085
342.90 4.08
343.00 4.076
343.10 4.071
343.20 4.067
343.30 4.063
343.40 4.058
343.50 4.054
343.60 4.049
343.70 4.045
343.80 4.04
343.90 4.036
344.00 4.031
344.10 4.027
344.20 4.023
344.30 4.018
344.40 4.014
344.50 4.009
344.60 4.005
344.70 4.001
344.80 3.996
344.90 3.992
345.00 3.988
345.10 3.983
345.20 3.979
345.30 3.975
345.40 3.97
345.50 3.966
345.60 3.962
345.70 3.957
345.80 3.953
345.90 3.949
346.00 3.944
346.10 3.94
346.20 3.936
346.30 3.931
346.40 3.927
346.50 3.923
346.60 3.919
346.70 3.914
346.80 3.91
346.90 3.906
347.00 3.902
347.10 3.897
347.20 3.893
347.30 3.889
347.40 3.885
347.50 3.881
347.60 3.876
347.70 3.872
347.80 3.868
347.90 3.864
348.00 3.859
348.10 3.855
348.20 3.851
348.30 3.847
348.40 3.843
348.50 3.839
348.60 3.835
348.70 3.83
348.80 3.826
348.90 3.822
349.00 3.818
349.10 3.814
349.20 3.81
349.30 3.806
349.40 3.802
349.50 3.797
349.60 3.793
349.70 3.789
349.80 3.785
349.90 3.781
350.00 3.777
350.10 3.773
350.20 3.769
350.30 3.765
350.40 3.761
350.50 3.757
350.60 3.753
350.70 3.749
350.80 3.745
350.90 3.741
351.00 3.737
351.10 3.733
351.20 3.729
351.30 3.725
351.40 3.721
351.50 3.717
351.60 3.713
351.70 3.709
351.80 3.705
351.90 3.701
352.00 3.697
352.10 3.693
352.20 3.689
352.30 3.685
352.40 3.681
352.50 3.677
352.60 3.673
352.70 3.669
352.80 3.665
352.90 3.661
353.00 3.657
353.10 3.653
353.20 3.65
353.30 3.646
353.40 3.642
353.50 3.638
353.60 3.634
353.70 3.63
353.80 3.626
353.90 3.622
354.00 3.619
354.10 3.615
354.20 3.611
354.30 3.607
354.40 3.603
354.50 3.599
354.60 3.596
354.70 3.592
354.80 3.588
354.90 3.584
355.00 3.58
355.10 3.576
355.20 3.573
355.30 3.569
355.40 3.565
355.50 3.561
355.60 3.557
355.70 3.554
355.80 3.55
355.90 3.546
356.00 3.542
356.10 3.539
356.20 3.535
356.30 3.531
356.40 3.527
356.50 3.524
356.60 3.52
356.70 3.516
356.80 3.513
356.90 3.509
357.00 3.505
357.10 3.501
357.20 3.498
357.30 3.494
357.40 3.49
357.50 3.487
357.60 3.483
357.70 3.479
357.80 3.476
357.90 3.472
358.00 3.468
358.10 3.465
358.20 3.461
358.30 3.457
358.40 3.454
358.50 3.45
358.60 3.446
358.70 3.443
358.80 3.439
358.90 3.436
359.00 3.432
359.10 3.428
359.20 3.425
359.30 3.421
359.40 3.418
359.50 3.414
359.60 3.41
359.70 3.407
359.80 3.403
359.90 3.4
360.00 3.396
360.10 3.393
360.20 3.389
360.30 3.385
360.40 3.382
360.50 3.378
360.60 3.375
360.70 3.371
360.80 3.368
360.90 3.364
361.00 3.361
361.10 3.357
361.20 3.354
361.30 3.35
361.40 3.347
361.50 3.343
361.60 3.34
361.70 3.336
361.80 3.333
361.90 3.329
362.00 3.326
362.10 3.322
362.20 3.319
362.30 3.315
362.40 3.312
362.50 3.308
362.60 3.305
362.70 3.302
362.80 3.298
362.90 3.295
363.00 3.291
363.10 3.288
363.20 3.284
363.30 3.281
363.40 3.278
363.50 3.274
363.60 3.271
363.70 3.267
363.80 3.264
363.90 3.261
364.00 3.257
364.10 3.254
364.20 3.251
364.30 3.247
364.40 3.244
364.50 3.24
364.60 3.237
364.70 3.234
364.80 3.23
364.90 3.227
365.00 3.224
365.10 3.22
365.20 3.217
365.30 3.214
365.40 3.21
365.50 3.207
365.60 3.204
365.70 3.2
365.80 3.197
365.90 3.194
366.00 3.191
366.10 3.187
366.20 3.184
366.30 3.181
366.40 3.177
366.50 3.174
366.60 3.171
366.70 3.167
366.80 3.164
366.90 3.161
367.00 3.158
367.10 3.154
367.20 3.151
367.30 3.148
367.40 3.145
367.50 3.141
367.60 3.138
367.70 3.135
367.80 3.132
367.90 3.128
368.00 3.125
368.10 3.122
368.20 3.119
368.30 3.115
368.40 3.112
368.50 3.109
368.60 3.105
368.70 3.102
368.80 3.099
368.90 3.096
369.00 3.092
369.10 3.089
369.20 3.086
369.30 3.083
369.40 3.079
369.50 3.076
369.60 3.073
369.70 3.07
369.80 3.066
369.90 3.063
370.00 3.06
370.10 3.057
370.20 3.054
370.30 3.05
370.40 3.047
370.50 3.044
370.60 3.041
370.70 3.038
370.80 3.035
370.90 3.031
371.00 3.028
371.10 3.025
371.20 3.022
371.30 3.019
371.40 3.016
371.50 3.012
371.60 3.009
371.70 3.006
371.80 3.003
371.90 3
372.00 2.997
372.10 2.994
372.20 2.991
372.30 2.988
372.40 2.985
372.50 2.982
372.60 2.979
372.70 2.976
372.80 2.973
372.90 2.97
373.00 2.967
373.10 2.964
373.20 2.961
373.30 2.958
373.40 2.955
373.50 2.952
373.60 2.949
373.70 2.946
373.80 2.943
373.90 2.94
374.00 2.937
374.10 2.934
374.20 2.931
374.30 2.928
374.40 2.925
374.50 2.922
374.60 2.919
374.70 2.916
374.80 2.913
374.90 2.91
375.00 2.907
375.10 2.904
375.20 2.901
375.30 2.898
375.40 2.895
375.50 2.892
375.60 2.889
375.70 2.886
375.80 2.883
375.90 2.88
376.00 2.877
376.10 2.874
376.20 2.871
376.30 2.868
376.40 2.865
376.50 2.862
376.60 2.859
376.70 2.856
376.80 2.853
376.90 2.85
377.00 2.847
377.10 2.845
377.20 2.842
377.30 2.839
377.40 2.836
377.50 2.833
377.60 2.83
377.70 2.827
377.80 2.824
377.90 2.822
378.00 2.819
378.10 2.816
378.20 2.813
378.30 2.81
378.40 2.807
378.50 2.805
378.60 2.802
378.70 2.799
378.80 2.796
378.90 2.793
379.00 2.79
379.10 2.788
379.20 2.785
379.30 2.782
379.40 2.779
379.50 2.776
379.60 2.774
379.70 2.771
379.80 2.768
379.90 2.765
380.00 2.762
380.10 2.76
380.20 2.757
380.30 2.754
380.40 2.751
380.50 2.749
380.60 2.746
380.70 2.743
380.80 2.741
380.90 2.738
381.00 2.735
381.10 2.732
381.20 2.73
381.30 2.727
381.40 2.724
381.50 2.722
381.60 2.719
381.70 2.716
381.80 2.713
381.90 2.711
382.00 2.708
382.10 2.705
382.20 2.703
382.30 2.7
382.40 2.697
382.50 2.695
382.60 2.692
382.70 2.69
382.80 2.687
382.90 2.684
383.00 2.682
383.10 2.679
383.20 2.676
383.30 2.674
383.40 2.671
383.50 2.669
383.60 2.666
383.70 2.663
383.80 2.661
383.90 2.658
384.00 2.656
384.10 2.653
384.20 2.65
384.30 2.648
384.40 2.645
384.50 2.643
384.60 2.64
384.70 2.638
384.80 2.635
384.90 2.633
385.00 2.63
385.10 2.628
385.20 2.625
385.30 2.623
385.40 2.62
385.50 2.617
385.60 2.615
385.70 2.612
385.80 2.61
385.90 2.607
386.00 2.605
386.10 2.602
386.20 2.6
386.30 2.597
386.40 2.595
386.50 2.592
386.60 2.59
386.70 2.587
386.80 2.585
386.90 2.582
387.00 2.58
387.10 2.577
387.20 2.575
387.30 2.573
387.40 2.57
387.50 2.568
387.60 2.565
387.70 2.563
387.80 2.56
387.90 2.558
388.00 2.555
388.10 2.553
388.20 2.55
388.30 2.548
388.40 2.546
388.50 2.543
388.60 2.541
388.70 2.539
388.80 2.536
388.90 2.534
389.00 2.531
389.10 2.529
389.20 2.527
389.30 2.524
389.40 2.522
389.50 2.52
389.60 2.517
389.70 2.515
389.80 2.513
389.90 2.511
390.00 2.508
390.10 2.506
390.20 2.504
390.30 2.502
390.40 2.499
390.50 2.497
390.60 2.495
390.70 2.493
390.80 2.49
390.90 2.488
391.00 2.486
391.10 2.483
391.20 2.481
391.30 2.479
391.40 2.477
391.50 2.474
391.60 2.472
391.70 2.47
391.80 2.467
391.90 2.465
392.00 2.463
392.10 2.461
392.20 2.458
392.30 2.456
392.40 2.454
392.50 2.451
392.60 2.449
392.70 2.447
392.80 2.444
392.90 2.442
393.00 2.439
393.10 2.437
393.20 2.435
393.30 2.432
393.40 2.43
393.50 2.427
393.60 2.425
393.70 2.423
393.80 2.42
393.90 2.418
394.00 2.415
394.10 2.413
394.20 2.41
394.30 2.408
394.40 2.406
394.50 2.403
394.60 2.401
394.70 2.398
394.80 2.396
394.90 2.393
395.00 2.391
395.10 2.388
395.20 2.386
395.30 2.383
395.40 2.381
395.50 2.378
395.60 2.376
395.70 2.373
395.80 2.371
395.90 2.368
396.00 2.366
396.10 2.363
396.20 2.361
396.30 2.358
396.40 2.356
396.50 2.354
396.60 2.351
396.70 2.349
396.80 2.347
396.90 2.344
397.00 2.342
397.10 2.34
397.20 2.338
397.30 2.337
397.40 2.335
397.50 2.333
397.60 2.331
397.70 2.33
397.80 2.328
397.90 2.326
398.00 2.325
398.10 2.323
398.20 2.321
398.30 2.32
398.40 2.318
398.50 2.316
398.60 2.315
398.70 2.313
398.80 2.311
398.90 2.31
399.00 2.308
399.10 2.306
399.20 2.305
399.30 2.303
399.40 2.301
399.50 2.299
399.60 2.298
399.70 2.296
399.80 2.294
399.90 2.293
400.00 2.291
400.10 2.289
400.20 2.287
400.30 2.285
400.40 2.284
400.50 2.282
400.60 2.28
400.70 2.278
400.80 2.276
400.90 2.274
401.00 2.272
401.10 2.271
401.20 2.269
401.30 2.267
401.40 2.265
401.50 2.263
401.60 2.261
401.70 2.259
401.80 2.257
401.90 2.255
402.00 2.253
402.10 2.251
402.20 2.249
402.30 2.247
402.40 2.245
402.50 2.242
402.60 2.24
402.70 2.238
402.80 2.236
402.90 2.234
403.00 2.232
403.10 2.23
403.20 2.227
403.30 2.225
403.40 2.223
403.50 2.221
403.60 2.218
403.70 2.216
403.80 2.214
403.90 2.211
404.00 2.209
404.10 2.207
404.20 2.204
404.30 2.202
404.40 2.199
404.50 2.197
404.60 2.194
404.70 2.192
404.80 2.19
404.90 2.187
405.00 2.184
405.10 2.182
405.20 2.179
405.30 2.177
405.40 2.174
405.50 2.171
405.60 2.169
405.70 2.166
405.80 2.163
405.90 2.161
406.00 2.158
406.10 2.155
406.20 2.152
406.30 2.15
406.40 2.147
406.50 2.144
406.60 2.141
406.70 2.138
406.80 2.135
406.90 2.132
407.00 2.129
407.10 2.126
407.20 2.123
407.30 2.12
407.40 2.117
407.50 2.114
407.60 2.111
407.70 2.108
407.80 2.105
407.90 2.102
408.00 2.099
408.10 2.096
408.20 2.093
408.30 2.09
408.40 2.086
408.50 2.083
408.60 2.08
408.70 2.077
408.80 2.074
408.90 2.071
409.00 2.068
409.10 2.065
409.20 2.062
409.30 2.059
409.40 2.057
409.50 2.054
409.60 2.052
409.70 2.05
409.80 2.048
409.90 2.046
410.00 2.045
410.10 2.044
410.20 2.042
410.30 2.04
410.40 2.038
410.50 2.035
410.60 2.034
410.70 2.032
410.80 2.031
410.90 2.03
411.00 2.029
411.10 2.028
411.20 2.027
411.30 2.027
411.40 2.026
411.50 2.026
411.60 2.025
411.70 2.025
411.80 2.024
411.90 2.024
412.00 2.023
412.10 2.023
412.20 2.022
412.30 2.022
412.40 2.021
412.50 2.021
412.60 2.02
412.70 2.02
412.80 2.019
412.90 2.018
413.00 2.018
413.10 2.017
413.20 2.017
413.30 2.016
413.40 2.015
413.50 2.015
413.60 2.014
413.70 2.013
413.80 2.012
413.90 2.012
414.00 2.011
414.10 2.01
414.20 2.009
414.30 2.008
414.40 2.008
414.50 2.007
414.60 2.006
414.70 2.005
414.80 2.004
414.90 2.003
415.00 2.002
415.10 2.001
415.20 2
415.30 1.999
415.40 1.998
415.50 1.997
415.60 1.996
415.70 1.995
415.80 1.993
415.90 1.992
416.00 1.991
416.10 1.99
416.20 1.989
416.30 1.988
416.40 1.986
416.50 1.985
416.60 1.984
416.70 1.983
416.80 1.981
416.90 1.98
417.00 1.979
417.10 1.977
417.20 1.976
417.30 1.975
417.40 1.973
417.50 1.972
417.60 1.971
417.70 1.969
417.80 1.968
417.90 1.966
418.00 1.965
418.10 1.964
418.20 1.962
418.30 1.961
418.40 1.959
418.50 1.958
418.60 1.956
418.70 1.955
418.80 1.953
418.90 1.952
419.00 1.95
419.10 1.949
419.20 1.947
419.30 1.946
419.40 1.944
419.50 1.942
419.60 1.941
419.70 1.939
419.80 1.938
419.90 1.936
420.00 1.935
420.10 1.933
420.20 1.931
420.30 1.93
420.40 1.928
420.50 1.926
420.60 1.925
420.70 1.923
420.80 1.921
420.90 1.92
421.00 1.918
421.10 1.916
421.20 1.915
421.30 1.913
421.40 1.911
421.50 1.91
421.60 1.908
421.70 1.906
421.80 1.904
421.90 1.903
422.00 1.901
422.10 1.899
422.20 1.897
422.30 1.896
422.40 1.894
422.50 1.892
422.60 1.89
422.70 1.888
422.80 1.887
422.90 1.885
423.00 1.883
423.10 1.881
423.20 1.879
423.30 1.877
423.40 1.875
423.50 1.874
423.60 1.872
423.70 1.87
423.80 1.868
423.90 1.866
424.00 1.864
424.10 1.862
424.20 1.86
424.30 1.858
424.40 1.856
424.50 1.854
424.60 1.852
424.70 1.85
424.80 1.848
424.90 1.846
425.00 1.844
425.10 1.842
425.20 1.84
425.30 1.838
425.40 1.836
425.50 1.834
425.60 1.832
425.70 1.83
425.80 1.828
425.90 1.825
426.00 1.823
426.10 1.821
426.20 1.819
426.30 1.817
426.40 1.815
426.50 1.812
426.60 1.81
426.70 1.808
426.80 1.806
426.90 1.803
427.00 1.801
427.10 1.799
427.20 1.796
427.30 1.794
427.40 1.791
427.50 1.789
427.60 1.787
427.70 1.784
427.80 1.782
427.90 1.779
428.00 1.777
428.10 1.774
428.20 1.771
428.30 1.769
428.40 1.766
428.50 1.763
428.60 1.761
428.70 1.758
428.80 1.755
428.90 1.753
429.00 1.75
429.10 1.747
429.20 1.744
429.30 1.741
429.40 1.738
429.50 1.735
429.60 1.732
429.70 1.729
429.80 1.726
429.90 1.723
430.00 1.72
430.10 1.717
430.20 1.714
430.30 1.71
430.40 1.707
430.50 1.704
430.60 1.7
430.70 1.697
430.80 1.694
430.90 1.69
431.00 1.687
431.10 1.683
431.20 1.68
431.30 1.676
431.40 1.672
431.50 1.669
431.60 1.665
431.70 1.661
431.80 1.658
431.90 1.654
432.00 1.65
432.10 1.646
432.20 1.643
432.30 1.639
432.40 1.635
432.50 1.631
432.60 1.627
432.70 1.623
432.80 1.619
432.90 1.615
433.00 1.612
433.10 1.608
433.20 1.604
433.30 1.6
433.40 1.595
433.50 1.591
433.60 1.587
433.70 1.582
433.80 1.577
433.90 1.572
434.00 1.568
434.10 1.567
434.20 1.568
434.30 1.571
434.40 1.573
434.50 1.575
434.60 1.577
434.70 1.579
434.80 1.58
434.90 1.582
435.00 1.583
435.10 1.584
435.20 1.585
435.30 1.586
435.40 1.588
435.50 1.589
435.60 1.59
435.70 1.591
435.80 1.592
435.90 1.593
436.00 1.594
436.10 1.595
436.20 1.596
436.30 1.597
436.40 1.598
436.50 1.599
436.60 1.599
436.70 1.6
436.80 1.601
436.90 1.602
437.00 1.602
437.10 1.603
437.20 1.603
437.30 1.604
437.40 1.604
437.50 1.605
437.60 1.605
437.70 1.606
437.80 1.606
437.90 1.606
438.00 1.607
438.10 1.607
438.20 1.607
438.30 1.607
438.40 1.607
438.50 1.607
438.60 1.607
438.70 1.607
438.80 1.607
438.90 1.607
439.00 1.607
439.10 1.607
439.20 1.607
439.30 1.606
439.40 1.606
439.50 1.606
439.60 1.606
439.70 1.605
439.80 1.605
439.90 1.604
440.00 1.604
440.10 1.604
440.20 1.603
440.30 1.603
440.40 1.602
440.50 1.602
440.60 1.601
440.70 1.6
440.80 1.6
440.90 1.599
441.00 1.599
441.10 1.598
441.20 1.597
441.30 1.597
441.40 1.596
441.50 1.595
441.60 1.594
441.70 1.594
441.80 1.593
441.90 1.592
442.00 1.591
442.10 1.59
442.20 1.589
442.30 1.589
442.40 1.588
442.50 1.587
442.60 1.586
442.70 1.585
442.80 1.584
442.90 1.583
443.00 1.582
443.10 1.581
443.20 1.58
443.30 1.579
443.40 1.578
443.50 1.577
443.60 1.576
443.70 1.575
443.80 1.574
443.90 1.573
444.00 1.572
444.10 1.571
444.20 1.57
444.30 1.569
444.40 1.568
444.50 1.567
444.60 1.566
444.70 1.565
444.80 1.564
444.90 1.563
445.00 1.562
445.10 1.56
445.20 1.559
445.30 1.558
445.40 1.557
445.50 1.556
445.60 1.555
445.70 1.554
445.80 1.553
445.90 1.551
446.00 1.55
446.10 1.549
446.20 1.548
446.30 1.547
446.40 1.546
446.50 1.545
446.60 1.543
446.70 1.542
446.80 1.541
446.90 1.54
447.00 1.539
447.10 1.538
447.20 1.536
447.30 1.535
447.40 1.534
447.50 1.533
447.60 1.532
447.70 1.53
447.80 1.529
447.90 1.528
448.00 1.527
448.10 1.526
448.20 1.524
448.30 1.523
448.40 1.522
448.50 1.521
448.60 1.52
448.70 1.518
448.80 1.517
448.90 1.516
449.00 1.515
449.10 1.514
449.20 1.512
449.30 1.511
449.40 1.51
449.50 1.509
449.60 1.508
449.70 1.506
449.80 1.505
449.90 1.504
450.00 1.503
450.10 1.502
450.20 1.5
450.30 1.499
450.40 1.498
450.50 1.497
450.60 1.495
450.70 1.494
450.80 1.493
450.90 1.492
451.00 1.491
451.10 1.489
451.20 1.488
451.30 1.487
451.40 1.486
451.50 1.485
451.60 1.483
451.70 1.482
451.80 1.481
451.90 1.48
452.00 1.478
452.10 1.477
452.20 1.476
452.30 1.475
452.40 1.474
452.50 1.472
452.60 1.471
452.70 1.47
452.80 1.469
452.90 1.468
453.00 1.466
453.10 1.465
453.20 1.464
453.30 1.463
453.40 1.461
453.50 1.46
453.60 1.459
453.70 1.458
453.80 1.457
453.90 1.455
454.00 1.454
454.10 1.453
454.20 1.452
454.30 1.451
454.40 1.449
454.50 1.448
454.60 1.447
454.70 1.446
454.80 1.445
454.90 1.443
455.00 1.442
455.10 1.441
455.20 1.44
455.30 1.439
455.40 1.437
455.50 1.436
455.60 1.435
455.70 1.434
455.80 1.433
455.90 1.431
456.00 1.43
456.10 1.429
456.20 1.428
456.30 1.427
456.40 1.425
456.50 1.424
456.60 1.423
456.70 1.422
456.80 1.421
456.90 1.419
457.00 1.418
457.10 1.417
457.20 1.416
457.30 1.415
457.40 1.414
457.50 1.412
457.60 1.411
457.70 1.41
457.80 1.409
457.90 1.408
458.00 1.406
458.10 1.405
458.20 1.404
458.30 1.403
458.40 1.402
458.50 1.401
458.60 1.399
458.70 1.398
458.80 1.397
458.90 1.396
459.00 1.395
459.10 1.394
459.20 1.392
459.30 1.391
459.40 1.39
459.50 1.389
459.60 1.388
459.70 1.386
459.80 1.385
459.90 1.384
460.00 1.383
460.10 1.382
460.20 1.381
460.30 1.38
460.40 1.378
460.50 1.377
460.60 1.376
460.70 1.375
460.80 1.374
460.90 1.373
461.00 1.371
461.10 1.37
461.20 1.369
461.30 1.368
461.40 1.367
461.50 1.366
461.60 1.364
461.70 1.363
461.80 1.362
461.90 1.361
462.00 1.36
462.10 1.359
462.20 1.358
462.30 1.356
462.40 1.355
462.50 1.354
462.60 1.353
462.70 1.352
462.80 1.351
462.90 1.35
463.00 1.348
463.10 1.347
463.20 1.346
463.30 1.345
463.40 1.344
463.50 1.343
463.60 1.342
463.70 1.34
463.80 1.339
463.90 1.338
464.00 1.337
464.10 1.336
464.20 1.335
464.30 1.334
464.40 1.333
464.50 1.331
464.60 1.33
464.70 1.329
464.80 1.328
464.90 1.327
465.00 1.326
465.10 1.325
465.20 1.323
465.30 1.322
465.40 1.321
465.50 1.32
465.60 1.319
465.70 1.318
465.80 1.317
465.90 1.316
466.00 1.314
466.10 1.313
466.20 1.312
466.30 1.311
466.40 1.31
466.50 1.309
466.60 1.308
466.70 1.307
466.80 1.306
466.90 1.304
467.00 1.303
467.10 1.302
467.20 1.301
467.30 1.3
467.40 1.299
467.50 1.298
467.60 1.297
467.70 1.295
467.80 1.294
467.90 1.293
468.00 1.292
468.10 1.291
468.20 1.29
468.30 1.289
468.40 1.288
468.50 1.286
468.60 1.285
468.70 1.284
468.80 1.283
468.90 1.282
469.00 1.281
469.10 1.28
469.20 1.279
469.30 1.278
469.40 1.276
469.50 1.275
469.60 1.274
469.70 1.273
469.80 1.272
469.90 1.271
470.00 1.27
470.10 1.269
470.20 1.267
470.30 1.266
470.40 1.265
470.50 1.264
470.60 1.263
470.70 1.262
470.80 1.261
470.90 1.26
471.00 1.259
471.10 1.257
471.20 1.256
471.30 1.255
471.40 1.254
471.50 1.253
471.60 1.252
471.70 1.251
471.80 1.25
471.90 1.248
472.00 1.247
472.10 1.246
472.20 1.245
472.30 1.244
472.40 1.243
472.50 1.242
472.60 1.24
472.70 1.239
472.80 1.238
472.90 1.237
473.00 1.236
473.10 1.235
473.20 1.234
473.30 1.232
473.40 1.231
473.50 1.23
473.60 1.229
473.70 1.228
473.80 1.227
473.90 1.225
474.00 1.224
474.10 1.223
474.20 1.222
474.30 1.221
474.40 1.22
474.50 1.218
474.60 1.217
474.70 1.216
474.80 1.215
474.90 1.214
475.00 1.212
475.10 1.211
475.20 1.21
475.30 1.209
475.40 1.207
475.50 1.206
475.60 1.205
475.70 1.204
475.80 1.203
475.90 1.201
476.00 1.2
476.10 1.199
476.20 1.198
476.30 1.196
476.40 1.195
476.50 1.194
476.60 1.192
476.70 1.191
476.80 1.19
476.90 1.189
477.00 1.187
477.10 1.186
477.20 1.185
477.30 1.183
477.40 1.182
477.50 1.181
477.60 1.179
477.70 1.178
477.80 1.176
477.90 1.175
478.00 1.174
478.10 1.172
478.20 1.171
478.30 1.169
478.40 1.168
478.50 1.166
478.60 1.165
478.70 1.163
478.80 1.162
478.90 1.16
479.00 1.159
479.10 1.158
479.20 1.156
479.30 1.154
479.40 1.153
479.50 1.151
479.60 1.149
479.70 1.148
479.80 1.146
479.90 1.144
480.00 1.143
480.10 1.141
480.20 1.139
480.30 1.138
480.40 1.136
480.50 1.134
480.60 1.132
480.70 1.13
480.80 1.128
480.90 1.127
481.00 1.125
481.10 1.123
481.20 1.121
481.30 1.119
481.40 1.117
481.50 1.115
481.60 1.112
481.70 1.11
481.80 1.108
481.90 1.106
482.00 1.104
482.10 1.102
482.20 1.1
482.30 1.097
482.40 1.095
482.50 1.092
482.60 1.09
482.70 1.087
482.80 1.085
482.90 1.082
483.00 1.08
483.10 1.078
483.20 1.075
483.30 1.072
483.40 1.069
483.50 1.066
483.60 1.064
483.70 1.061
483.80 1.058
483.90 1.055
484.00 1.052
484.10 1.05
484.20 1.047
484.30 1.044
484.40 1.041
484.50 1.037
484.60 1.034
484.70 1.031
484.80 1.028
484.90 1.025
485.00 1.022
485.10 1.019
485.20 1.016
485.30 1.013
485.40 1.01
485.50 1.008
485.60 1.006
485.70 1.004
485.80 1.005
485.90 1.006
486.00 1.011
486.10 1.018
486.20 1.015
486.30 1.006
486.40 1.001
486.50 0.9986
486.60 0.9977
486.70 0.9979
486.80 0.9987
486.90 0.9997
487.00 1.001
487.10 1.002
487.20 1.004
487.30 1.005
487.40 1.007
487.50 1.008
487.60 1.01
487.70 1.011
487.80 1.013
487.90 1.014
488.00 1.016
488.10 1.017
488.20 1.018
488.30 1.019
488.40 1.02
488.50 1.022
488.60 1.023
488.70 1.024
488.80 1.025
488.90 1.026
489.00 1.027
489.10 1.028
489.20 1.029
489.30 1.03
489.40 1.031
489.50 1.031
489.60 1.032
489.70 1.033
489.80 1.033
489.90 1.034
490.00 1.035
490.10 1.036
490.20 1.036
490.30 1.036
490.40 1.037
490.50 1.037
490.60 1.037
490.70 1.038
490.80 1.038
490.90 1.038
491.00 1.039
491.10 1.039
491.20 1.039
491.30 1.039
491.40 1.039
491.50 1.039
491.60 1.039
491.70 1.039
491.80 1.04
491.90 1.04
492.00 1.04
492.10 1.04
492.20 1.04
492.30 1.039
492.40 1.039
492.50 1.039
492.60 1.039
492.70 1.039
492.80 1.038
492.90 1.038
493.00 1.038
493.10 1.038
493.20 1.038
493.30 1.037
493.40 1.037
493.50 1.037
493.60 1.036
493.70 1.036
493.80 1.036
493.90 1.035
494.00 1.035
494.10 1.035
494.20 1.034
494.30 1.034
494.40 1.033
494.50 1.033
494.60 1.032
494.70 1.032
494.80 1.032
494.90 1.031
495.00 1.031
495.10 1.03
495.20 1.03
495.30 1.029
495.40 1.029
495.50 1.028
495.60 1.028
495.70 1.027
495.80 1.026
495.90 1.026
496.00 1.025
496.10 1.025
496.20 1.024
496.30 1.024
496.40 1.023
496.50 1.023
496.60 1.022
496.70 1.021
496.80 1.021
496.90 1.02
497.00 1.02
497.10 1.019
497.20 1.018
497.30 1.018
497.40 1.017
497.50 1.016
497.60 1.016
497.70 1.015
497.80 1.015
497.90 1.014
498.00 1.013
498.10 1.013
498.20 1.012
498.30 1.011
498.40 1.011
498.50 1.01
498.60 1.009
498.70 1.009
498.80 1.008
498.90 1.007
499.00 1.007
499.10 1.006
499.20 1.005
499.30 1.005
499.40 1.004
499.50 1.003
499.60 1.003
499.70 1.002
499.80 1.001
499.90 1.001
500.00 1
500.10 0.9993
500.20 0.9986
500.30 0.9979
500.40 0.9972
500.50 0.9966
500.60 0.9959
500.70 0.9952
500.80 0.9945
500.90 0.9938
501.00 0.9931
501.10 0.9924
501.20 0.9917
501.30 0.991
501.40 0.9903
501.50 0.9896
501.60 0.9889
501.70 0.9882
501.80 0.9875
501.90 0.9868
502.00 0.9861
502.10 0.9854
502.20 0.9847
502.30 0.984
502.40 0.9833
502.50 0.9826
502.60 0.9819
502.70 0.9812
502.80 0.9805
502.90 0.9798
503.00 0.9791
503.10 0.9784
503.20 0.9777
503.30 0.977
503.40 0.9762
503.50 0.9755
503.60 0.9748
503.70 0.9741
503.80 0.9734
503.90 0.9727
504.00 0.972
504.10 0.9713
504.20 0.9706
504.30 0.9699
504.40 0.9692
504.50 0.9685
504.60 0.9678
504.70 0.967
504.80 0.9663
504.90 0.9656
505.00 0.9649
505.10 0.9642
505.20 0.9635
505.30 0.9628
505.40 0.9621
505.50 0.9614
505.60 0.9607
505.70 0.96
505.80 0.9593
505.90 0.9586
506.00 0.9579
506.10 0.9572
506.20 0.9565
506.30 0.9558
506.40 0.9551
506.50 0.9543
506.60 0.9536
506.70 0.9529
506.80 0.9522
506.90 0.9515
507.00 0.9508
507.10 0.9501
507.20 0.9494
507.30 0.9487
507.40 0.948
507.50 0.9473
507.60 0.9466
507.70 0.9459
507.80 0.9452
507.90 0.9445
508.00 0.9438
508.10 0.9431
508.20 0.9424
508.30 0.9417
508.40 0.941
508.50 0.9403
508.60 0.9396
508.70 0.9389
508.80 0.9382
508.90 0.9375
509.00 0.9368
509.10 0.9362
509.20 0.9355
509.30 0.9348
509.40 0.9341
509.50 0.9334
509.60 0.9327
509.70 0.932
509.80 0.9313
509.90 0.9306
510.00 0.9299
510.10 0.9292
510.20 0.9285
510.30 0.9278
510.40 0.9272
510.50 0.9265
510.60 0.9258
510.70 0.9251
510.80 0.9244
510.90 0.9237
511.00 0.923
511.10 0.9223
511.20 0.9217
511.30 0.921
511.40 0.9203
511.50 0.9196
511.60 0.9189
511.70 0.9182
511.80 0.9175
511.90 0.9169
512.00 0.9162
512.10 0.9155
512.20 0.9148
512.30 0.9141
512.40 0.9135
512.50 0.9128
512.60 0.9121
512.70 0.9114
512.80 0.9107
512.90 0.9101
513.00 0.9094
513.10 0.9087
513.20 0.908
513.30 0.9074
513.40 0.9067
513.50 0.906
513.60 0.9053
513.70 0.9047
513.80 0.904
513.90 0.9033
514.00 0.9027
514.10 0.902
514.20 0.9013
514.30 0.9006
514.40 0.9
514.50 0.8993
514.60 0.8986
514.70 0.898
514.80 0.8973
514.90 0.8966
515.00 0.896
515.10 0.8953
515.20 0.8946
515.30 0.894
515.40 0.8933
515.50 0.8926
515.60 0.892
515.70 0.8913
515.80 0.8907
515.90 0.89
516.00 0.8893
516.10 0.8887
516.20 0.888
516.30 0.8874
516.40 0.8867
516.50 0.886
516.60 0.8854
516.70 0.8847
516.80 0.8841
516.90 0.8834
517.00 0.8828
517.10 0.8821
517.20 0.8814
517.30 0.8808
517.40 0.8801
517.50 0.8795
517.60 0.8788
517.70 0.8782
517.80 0.8775
517.90 0.8769
518.00 0.8762
518.10 0.8756
518.20 0.8749
518.30 0.8743
518.40 0.8736
518.50 0.873
518.60 0.8723
518.70 0.8717
518.80 0.8711
518.90 0.8704
519.00 0.8698
519.10 0.8691
519.20 0.8685
519.30 0.8678
519.40 0.8672
519.50 0.8666
519.60 0.8659
519.70 0.8653
519.80 0.8646
519.90 0.864
520.00 0.8634
520.10 0.8627
520.20 0.8621
520.30 0.8615
520.40 0.8608
520.50 0.8602
520.60 0.8595
520.70 0.8589
520.80 0.8583
520.90 0.8576
521.00 0.857
521.10 0.8564
521.20 0.8557
521.30 0.8551
521.40 0.8545
521.50 0.8538
521.60 0.8532
521.70 0.8526
521.80 0.852
521.90 0.8513
522.00 0.8507
522.10 0.8501
522.20 0.8494
522.30 0.8488
522.40 0.8482
522.50 0.8476
522.60 0.8469
522.70 0.8463
522.80 0.8457
522.90 0.8451
523.00 0.8445
523.10 0.8438
523.20 0.8432
523.30 0.8426
523.40 0.842
523.50 0.8414
523.60 0.8407
523.70 0.8401
523.80 0.8395
523.90 0.8389
524.00 0.8383
524.10 0.8376
524.20 0.837
524.30 0.8364
524.40 0.8358
524.50 0.8352
524.60 0.8346
524.70 0.834
524.80 0.8334
524.90 0.8327
525.00 0.8321
525.10 0.8315
525.20 0.8309
525.30 0.8303
525.40 0.8297
525.50 0.8291
525.60 0.8285
525.70 0.8279
525.80 0.8273
525.90 0.8267
526.00 0.8261
526.10 0.8254
526.20 0.8248
526.30 0.8242
526.40 0.8236
526.50 0.823
526.60 0.8224
526.70 0.8218
526.80 0.8212
526.90 0.8206
527.00 0.82
527.10 0.8194
527.20 0.8188
527.30 0.8182
527.40 0.8176
527.50 0.817
527.60 0.8164
527.70 0.8158
527.80 0.8152
527.90 0.8146
528.00 0.814
528.10 0.8134
528.20 0.8129
528.30 0.8123
528.40 0.8117
528.50 0.8111
528.60 0.8105
528.70 0.8099
528.80 0.8093
528.90 0.8087
529.00 0.8081
529.10 0.8075
529.20 0.8069
529.30 0.8064
529.40 0.8058
529.50 0.8052
529.60 0.8046
529.70 0.804
529.80 0.8034
529.90 0.8028
530.00 0.8023
530.10 0.8017
530.20 0.8011
530.30 0.8005
530.40 0.7999
530.50 0.7993
530.60 0.7988
530.70 0.7982
530.80 0.7976
530.90 0.797
531.00 0.7964
531.10 0.7959
531.20 0.7953
531.30 0.7947
531.40 0.7941
531.50 0.7935
531.60 0.793
531.70 0.7924
531.80 0.7918
531.90 0.7912
532.00 0.7907
532.10 0.7901
532.20 0.7895
532.30 0.789
532.40 0.7884
532.50 0.7878
532.60 0.7872
532.70 0.7867
532.80 0.7861
532.90 0.7855
533.00 0.785
533.10 0.7844
533.20 0.7838
533.30 0.7833
533.40 0.7827
533.50 0.7821
533.60 0.7816
533.70 0.781
533.80 0.7804
533.90 0.7799
534.00 0.7793
534.10 0.7787
534.20 0.7782
534.30 0.7776
534.40 0.777
534.50 0.7765
534.60 0.7759
534.70 0.7754
534.80 0.7748
534.90 0.7742
535.00 0.7737
535.10 0.7731
535.20 0.7726
535.30 0.772
535.40 0.7715
535.50 0.7709
535.60 0.7703
535.70 0.7698
535.80 0.7692
535.90 0.7687
536.00 0.7681
536.10 0.7676
536.20 0.767
536.30 0.7665
536.40 0.7659
536.50 0.7654
536.60 0.7648
536.70 0.7643
536.80 0.7637
536.90 0.7632
537.00 0.7626
537.10 0.7621
537.20 0.7615
537.30 0.761
537.40 0.7604
537.50 0.7599
537.60 0.7593
537.70 0.7588
537.80 0.7582
537.90 0.7577
538.00 0.7571
538.10 0.7566
538.20 0.7561
538.30 0.7555
538.40 0.755
538.50 0.7544
538.60 0.7539
538.70 0.7534
538.80 0.7528
538.90 0.7523
539.00 0.7517
539.10 0.7512
539.20 0.7507
539.30 0.7501
539.40 0.7496
539.50 0.749
539.60 0.7485
539.70 0.748
539.80 0.7474
539.90 0.7469
540.00 0.7464
540.10 0.7458
540.20 0.7453
540.30 0.7448
540.40 0.7442
540.50 0.7437
540.60 0.7432
540.70 0.7426
540.80 0.7421
540.90 0.7416
541.00 0.741
541.10 0.7405
541.20 0.74
541.30 0.7395
541.40 0.7389
541.50 0.7384
541.60 0.7379
541.70 0.7374
541.80 0.7368
541.90 0.7363
542.00 0.7358
542.10 0.7352
542.20 0.7347
542.30 0.7342
542.40 0.7337
542.50 0.7332
542.60 0.7326
542.70 0.7321
542.80 0.7316
542.90 0.7311
543.00 0.7305
543.10 0.73
543.20 0.7295
543.30 0.729
543.40 0.7285
543.50 0.728
543.60 0.7274
543.70 0.7269
543.80 0.7264
543.90 0.7259
544.00 0.7254
544.10 0.7249
544.20 0.7243
544.30 0.7238
544.40 0.7233
544.50 0.7228
544.60 0.7223
544.70 0.7218
544.80 0.7213
544.90 0.7207
545.00 0.7202
545.10 0.7197
545.20 0.7192
545.30 0.7187
545.40 0.7182
545.50 0.7177
545.60 0.7172
545.70 0.7167
545.80 0.7162
545.90 0.7157
546.00 0.7151
546.10 0.7146
546.20 0.7141
546.30 0.7136
546.40 0.7131
546.50 0.7126
546.60 0.7121
546.70 0.7116
546.80 0.7111
546.90 0.7106
547.00 0.7101
547.10 0.7096
547.20 0.7091
547.30 0.7086
547.40 0.7081
547.50 0.7076
547.60 0.7071
547.70 0.7066
547.80 0.7061
547.90 0.7056
548.00 0.7051
548.10 0.7046
548.20 0.7041
548.30 0.7036
548.40 0.7031
548.50 0.7026
548.60 0.7021
548.70 0.7016
548.80 0.7011
548.90 0.7006
549.00 0.7001
549.10 0.6996
549.20 0.6992
549.30 0.6987
549.40 0.6982
549.50 0.6977
549.60 0.6972
549.70 0.6967
549.80 0.6962
549.90 0.6957
550.00 0.6952
550.10 0.6947
550.20 0.6943
550.30 0.6938
550.40 0.6933
550.50 0.6928
550.60 0.6923
550.70 0.6918
550.80 0.6913
550.90 0.6908
551.00 0.6904
551.10 0.6899
551.20 0.6894
551.30 0.6889
551.40 0.6884
551.50 0.6879
551.60 0.6875
551.70 0.687
551.80 0.6865
551.90 0.686
552.00 0.6855
552.10 0.6851
552.20 0.6846
552.30 0.6841
552.40 0.6836
552.50 0.6831
552.60 0.6827
552.70 0.6822
552.80 0.6817
552.90 0.6812
553.00 0.6807
553.10 0.6803
553.20 0.6798
553.30 0.6793
553.40 0.6788
553.50 0.6784
553.60 0.6779
553.70 0.6774
553.80 0.6769
553.90 0.6765
554.00 0.676
554.10 0.6755
554.20 0.6751
554.30 0.6746
554.40 0.6741
554.50 0.6736
554.60 0.6732
554.70 0.6727
554.80 0.6722
554.90 0.6718
555.00 0.6713
555.10 0.6708
555.20 0.6704
555.30 0.6699
555.40 0.6694
555.50 0.669
555.60 0.6685
555.70 0.668
555.80 0.6676
555.90 0.6671
556.00 0.6666
556.10 0.6662
556.20 0.6657
556.30 0.6652
556.40 0.6648
556.50 0.6643
556.60 0.6639
556.70 0.6634
556.80 0.6629
556.90 0.6625
557.00 0.662
557.10 0.6616
557.20 0.6611
557.30 0.6606
557.40 0.6602
557.50 0.6597
557.60 0.6593
557.70 0.6588
557.80 0.6583
557.90 0.6579
558.00 0.6574
558.10 0.657
558.20 0.6565
558.30 0.6561
558.40 0.6556
558.50 0.6552
558.60 0.6547
558.70 0.6543
558.80 0.6538
558.90 0.6533
559.00 0.6529
559.10 0.6524
559.20 0.652
559.30 0.6515
559.40 0.6511
559.50 0.6506
559.60 0.6502
559.70 0.6497
559.80 0.6493
559.90 0.6488
560.00 0.6484
560.10 0.6479
560.20 0.6475
560.30 0.647
560.40 0.6466
560.50 0.6462
560.60 0.6457
560.70 0.6453
560.80 0.6448
560.90 0.6444
561.00 0.6439
561.10 0.6435
561.20 0.643
561.30 0.6426
561.40 0.6422
561.50 0.6417
561.60 0.6413
561.70 0.6408
561.80 0.6404
561.90 0.6399
562.00 0.6395
562.10 0.6391
562.20 0.6386
562.30 0.6382
562.40 0.6377
562.50 0.6373
562.60 0.6369
562.70 0.6364
562.80 0.636
562.90 0.6355
563.00 0.6351
563.10 0.6347
563.20 0.6342
563.30 0.6338
563.40 0.6334
563.50 0.6329
563.60 0.6325
563.70 0.6321
563.80 0.6316
563.90 0.6312
564.00 0.6308
564.10 0.6303
564.20 0.6299
564.30 0.6295
564.40 0.629
564.50 0.6286
564.60 0.6282
564.70 0.6277
564.80 0.6273
564.90 0.6269
565.00 0.6264
565.10 0.626
565.20 0.6256
565.30 0.6252
565.40 0.6247
565.50 0.6243
565.60 0.6239
565.70 0.6235
565.80 0.623
565.90 0.6226
566.00 0.6222
566.10 0.6217
566.20 0.6213
566.30 0.6209
566.40 0.6205
566.50 0.62
566.60 0.6196
566.70 0.6192
566.80 0.6188
566.90 0.6184
567.00 0.6179
567.10 0.6175
567.20 0.6171
567.30 0.6167
567.40 0.6162
567.50 0.6158
567.60 0.6154
567.70 0.615
567.80 0.6146
567.90 0.6141
568.00 0.6137
568.10 0.6133
568.20 0.6129
568.30 0.6125
568.40 0.6121
568.50 0.6116
568.60 0.6112
568.70 0.6108
568.80 0.6104
568.90 0.61
569.00 0.6096
569.10 0.6091
569.20 0.6087
569.30 0.6083
569.40 0.6079
569.50 0.6075
569.60 0.6071
569.70 0.6067
569.80 0.6063
569.90 0.6058
570.00 0.6054
570.10 0.605
570.20 0.6046
570.30 0.6042
570.40 0.6038
570.50 0.6034
570.60 0.603
570.70 0.6026
570.80 0.6021
570.90 0.6017
571.00 0.6013
571.10 0.6009
571.20 0.6005
571.30 0.6001
571.40 0.5997
571.50 0.5993
571.60 0.5989
571.70 0.5985
571.80 0.5981
571.90 0.5977
572.00 0.5973
572.10 0.5969
572.20 0.5965
572.30 0.5961
572.40 0.5956
572.50 0.5952
572.60 0.5948
572.70 0.5944
572.80 0.594
572.90 0.5936
573.00 0.5932
573.10 0.5928
573.20 0.5924
573.30 0.592
573.40 0.5916
573.50 0.5912
573.60 0.5908
573.70 0.5904
573.80 0.59
573.90 0.5896
574.00 0.5892
574.10 0.5888
574.20 0.5884
574.30 0.588
574.40 0.5877
574.50 0.5873
574.60 0.5869
574.70 0.5865
574.80 0.5861
574.90 0.5857
575.00 0.5853
575.10 0.5849
575.20 0.5845
575.30 0.5841
575.40 0.5837
575.50 0.5833
575.60 0.5829
575.70 0.5825
575.80 0.5821
575.90 0.5817
576.00 0.5813
576.10 0.581
576.20 0.5806
576.30 0.5802
576.40 0.5798
576.50 0.5794
576.60 0.579
576.70 0.5786
576.80 0.5782
576.90 0.5778
577.00 0.5775
577.10 0.5771
577.20 0.5767
577.30 0.5763
577.40 0.5759
577.50 0.5755
577.60 0.5751
577.70 0.5747
577.80 0.5744
577.90 0.574
578.00 0.5736
578.10 0.5732
578.20 0.5728
578.30 0.5724
578.40 0.5721
578.50 0.5717
578.60 0.5713
578.70 0.5709
578.80 0.5705
578.90 0.5701
579.00 0.5698
579.10 0.5694
579.20 0.569
579.30 0.5686
579.40 0.5682
579.50 0.5679
579.60 0.5675
579.70 0.5671
579.80 0.5667
579.90 0.5663
580.00 0.566
580.10 0.5656
580.20 0.5652
580.30 0.5648
580.40 0.5644
580.50 0.5641
580.60 0.5637
580.70 0.5633
580.80 0.5629
580.90 0.5626
581.00 0.5622
581.10 0.5618
581.20 0.5614
581.30 0.5611
581.40 0.5607
581.50 0.5603
581.60 0.5599
581.70 0.5596
581.80 0.5592
581.90 0.5588
582.00 0.5585
582.10 0.5581
582.20 0.5577
582.30 0.5573
582.40 0.557
582.50 0.5566
582.60 0.5562
582.70 0.5559
582.80 0.5555
582.90 0.5551
583.00 0.5548
583.10 0.5544
583.20 0.554
583.30 0.5536
583.40 0.5533
583.50 0.5529
583.60 0.5525
583.70 0.5522
583.80 0.5518
583.90 0.5514
584.00 0.5511
584.10 0.5507
584.20 0.5503
584.30 0.55
584.40 0.5496
584.50 0.5493
584.60 0.5489
584.70 0.5485
584.80 0.5482
584.90 0.5478
585.00 0.5474
585.10 0.5471
585.20 0.5467
585.30 0.5463
585.40 0.546
585.50 0.5456
585.60 0.5453
585.70 0.5449
585.80 0.5445
585.90 0.5442
586.00 0.5438
586.10 0.5435
586.20 0.5431
586.30 0.5427
586.40 0.5424
586.50 0.542
586.60 0.5417
586.70 0.5413
586.80 0.5409
586.90 0.5406
587.00 0.5402
587.10 0.5399
587.20 0.5395
587.30 0.5392
587.40 0.5388
587.50 0.5385
587.60 0.5381
587.70 0.5377
587.80 0.5374
587.90 0.537
588.00 0.5367
588.10 0.5363
588.20 0.536
588.30 0.5356
588.40 0.5353
588.50 0.5349
588.60 0.5346
588.70 0.5342
588.80 0.5339
588.90 0.5335
589.00 0.5332
589.10 0.5328
589.20 0.5325
589.30 0.5321
589.40 0.5318
589.50 0.5314
589.60 0.5311
589.70 0.5307
589.80 0.5304
589.90 0.53
590.00 0.5297
590.10 0.5293
590.20 0.529
590.30 0.5286
590.40 0.5283
590.50 0.5279
590.60 0.5276
590.70 0.5272
590.80 0.5269
590.90 0.5265
591.00 0.5262
591.10 0.5258
591.20 0.5255
591.30 0.5252
591.40 0.5248
591.50 0.5245
591.60 0.5241
591.70 0.5238
591.80 0.5234
591.90 0.5231
592.00 0.5227
592.10 0.5224
592.20 0.5221
592.30 0.5217
592.40 0.5214
592.50 0.521
592.60 0.5207
592.70 0.5204
592.80 0.52
592.90 0.5197
593.00 0.5193
593.10 0.519
593.20 0.5187
593.30 0.5183
593.40 0.518
593.50 0.5176
593.60 0.5173
593.70 0.517
593.80 0.5166
593.90 0.5163
594.00 0.5159
594.10 0.5156
594.20 0.5153
594.30 0.5149
594.40 0.5146
594.50 0.5143
594.60 0.5139
594.70 0.5136
594.80 0.5133
594.90 0.5129
595.00 0.5126
595.10 0.5123
595.20 0.5119
595.30 0.5116
595.40 0.5113
595.50 0.5109
595.60 0.5106
595.70 0.5103
595.80 0.5099
595.90 0.5096
596.00 0.5093
596.10 0.5089
596.20 0.5086
596.30 0.5083
596.40 0.5079
596.50 0.5076
596.60 0.5073
596.70 0.5069
596.80 0.5066
596.90 0.5063
597.00 0.506
597.10 0.5056
597.20 0.5053
597.30 0.505
597.40 0.5046
597.50 0.5043
597.60 0.504
597.70 0.5037
597.80 0.5033
597.90 0.503
598.00 0.5027
598.10 0.5024
598.20 0.502
598.30 0.5017
598.40 0.5014
598.50 0.5011
598.60 0.5007
598.70 0.5004
598.80 0.5001
598.90 0.4998
599.00 0.4994
599.10 0.4991
599.20 0.4988
599.30 0.4985
599.40 0.4981
599.50 0.4978
599.60 0.4975
599.70 0.4972
599.80 0.4968
599.90 0.4965
600.00 0.4962
600.10 0.4959
600.20 0.4956
600.30 0.4952
600.40 0.4949
600.50 0.4946
600.60 0.4943
600.70 0.494
600.80 0.4936
600.90 0.4933
601.00 0.493
601.10 0.4927
601.20 0.4924
601.30 0.4921
601.40 0.4917
601.50 0.4914
601.60 0.4911
601.70 0.4908
601.80 0.4905
601.90 0.4902
602.00 0.4898
602.10 0.4895
602.20 0.4892
602.30 0.4889
602.40 0.4886
602.50 0.4883
602.60 0.4879
602.70 0.4876
602.80 0.4873
602.90 0.487
603.00 0.4867
603.10 0.4864
603.20 0.4861
603.30 0.4857
603.40 0.4854
603.50 0.4851
603.60 0.4848
603.70 0.4845
603.80 0.4842
603.90 0.4839
604.00 0.4836
604.10 0.4833
604.20 0.4829
604.30 0.4826
604.40 0.4823
604.50 0.482
604.60 0.4817
604.70 0.4814
604.80 0.4811
604.90 0.4808
605.00 0.4805
605.10 0.4802
605.20 0.4798
605.30 0.4795
605.40 0.4792
605.50 0.4789
605.60 0.4786
605.70 0.4783
605.80 0.478
605.90 0.4777
606.00 0.4774
606.10 0.4771
606.20 0.4768
606.30 0.4765
606.40 0.4762
606.50 0.4759
606.60 0.4756
606.70 0.4753
606.80 0.475
606.90 0.4746
607.00 0.4743
607.10 0.474
607.20 0.4737
607.30 0.4734
607.40 0.4731
607.50 0.4728
607.60 0.4725
607.70 0.4722
607.80 0.4719
607.90 0.4716
608.00 0.4713
608.10 0.471
608.20 0.4707
608.30 0.4704
608.40 0.4701
608.50 0.4698
608.60 0.4695
608.70 0.4692
608.80 0.4689
608.90 0.4686
609.00 0.4683
609.10 0.468
609.20 0.4677
609.30 0.4674
609.40 0.4671
609.50 0.4668
609.60 0.4665
609.70 0.4662
609.80 0.4659
609.90 0.4656
610.00 0.4653
610.10 0.465
610.20 0.4647
610.30 0.4644
610.40 0.4642
610.50 0.4639
610.60 0.4636
610.70 0.4633
610.80 0.463
610.90 0.4627
611.00 0.4624
611.10 0.4621
611.20 0.4618
611.30 0.4615
611.40 0.4612
611.50 0.4609
611.60 0.4606
611.70 0.4603
611.80 0.46
611.90 0.4597
612.00 0.4594
612.10 0.4592
612.20 0.4589
612.30 0.4586
612.40 0.4583
612.50 0.458
612.60 0.4577
612.70 0.4574
612.80 0.4571
612.90 0.4568
613.00 0.4565
613.10 0.4562
613.20 0.456
613.30 0.4557
613.40 0.4554
613.50 0.4551
613.60 0.4548
613.70 0.4545
613.80 0.4542
613.90 0.4539
614.00 0.4537
614.10 0.4534
614.20 0.4531
614.30 0.4528
614.40 0.4525
614.50 0.4522
614.60 0.4519
614.70 0.4516
614.80 0.4514
614.90 0.4511
615.00 0.4508
615.10 0.4505
615.20 0.4502
615.30 0.4499
615.40 0.4496
615.50 0.4494
615.60 0.4491
615.70 0.4488
615.80 0.4485
615.90 0.4482
616.00 0.4479
616.10 0.4477
616.20 0.4474
616.30 0.4471
616.40 0.4468
616.50 0.4465
616.60 0.4462
616.70 0.446
616.80 0.4457
616.90 0.4454
617.00 0.4451
617.10 0.4448
617.20 0.4446
617.30 0.4443
617.40 0.444
617.50 0.4437
617.60 0.4434
617.70 0.4432
617.80 0.4429
617.90 0.4426
618.00 0.4423
618.10 0.442
618.20 0.4418
618.30 0.4415
618.40 0.4412
618.50 0.4409
618.60 0.4407
618.70 0.4404
618.80 0.4401
618.90 0.4398
619.00 0.4395
619.10 0.4393
619.20 0.439
619.30 0.4387
619.40 0.4384
619.50 0.4382
619.60 0.4379
619.70 0.4376
619.80 0.4373
619.90 0.4371
620.00 0.4368
620.10 0.4365
620.20 0.4362
620.30 0.436
620.40 0.4357
620.50 0.4354
620.60 0.4351
620.70 0.4349
620.80 0.4346
620.90 0.4343
621.00 0.434
621.10 0.4338
621.20 0.4335
621.30 0.4332
621.40 0.433
621.50 0.4327
621.60 0.4324
621.70 0.4321
621.80 0.4319
621.90 0.4316
622.00 0.4313
622.10 0.4311
622.20 0.4308
622.30 0.4305
622.40 0.4302
622.50 0.43
622.60 0.4297
622.70 0.4294
622.80 0.4292
622.90 0.4289
623.00 0.4286
623.10 0.4284
623.20 0.4281
623.30 0.4278
623.40 0.4276
623.50 0.4273
623.60 0.427
623.70 0.4267
623.80 0.4265
623.90 0.4262
624.00 0.4259
624.10 0.4257
624.20 0.4254
624.30 0.4251
624.40 0.4249
624.50 0.4246
624.60 0.4243
624.70 0.4241
624.80 0.4238
624.90 0.4236
625.00 0.4233
625.10 0.423
625.20 0.4228
625.30 0.4225
625.40 0.4222
625.50 0.422
625.60 0.4217
625.70 0.4214
625.80 0.4212
625.90 0.4209
626.00 0.4206
626.10 0.4204
626.20 0.4201
626.30 0.4199
626.40 0.4196
626.50 0.4193
626.60 0.4191
626.70 0.4188
626.80 0.4185
626.90 0.4183
627.00 0.418
627.10 0.4178
627.20 0.4175
627.30 0.4172
627.40 0.417
627.50 0.4167
627.60 0.4165
627.70 0.4162
627.80 0.4159
627.90 0.4157
628.00 0.4154
628.10 0.4152
628.20 0.4149
628.30 0.4146
628.40 0.4144
628.50 0.4141
628.60 0.4139
628.70 0.4136
628.80 0.4133
628.90 0.4131
629.00 0.4128
629.10 0.4126
629.20 0.4123
629.30 0.412
629.40 0.4118
629.50 0.4115
629.60 0.4113
629.70 0.411
629.80 0.4108
629.90 0.4105
630.00 0.4102
630.10 0.41
630.20 0.4097
630.30 0.4095
630.40 0.4092
630.50 0.409
630.60 0.4087
630.70 0.4085
630.80 0.4082
630.90 0.4079
631.00 0.4077
631.10 0.4074
631.20 0.4072
631.30 0.4069
631.40 0.4067
631.50 0.4064
631.60 0.4062
631.70 0.4059
631.80 0.4057
631.90 0.4054
632.00 0.4051
632.10 0.4049
632.20 0.4046
632.30 0.4044
632.40 0.4041
632.50 0.4039
632.60 0.4036
632.70 0.4034
632.80 0.4031
632.90 0.4029
633.00 0.4026
633.10 0.4024
633.20 0.4021
633.30 0.4019
633.40 0.4016
633.50 0.4014
633.60 0.4011
633.70 0.4009
633.80 0.4006
633.90 0.4003
634.00 0.4001
634.10 0.3998
634.20 0.3996
634.30 0.3993
634.40 0.3991
634.50 0.3988
634.60 0.3986
634.70 0.3983
634.80 0.3981
634.90 0.3978
635.00 0.3976
635.10 0.3973
635.20 0.3971
635.30 0.3968
635.40 0.3966
635.50 0.3963
635.60 0.3961
635.70 0.3958
635.80 0.3956
635.90 0.3953
636.00 0.3951
636.10 0.3948
636.20 0.3946
636.30 0.3943
636.40 0.3941
636.50 0.3938
636.60 0.3936
636.70 0.3933
636.80 0.3931
636.90 0.3928
637.00 0.3926
637.10 0.3923
637.20 0.3921
637.30 0.3919
637.40 0.3916
637.50 0.3914
637.60 0.3911
637.70 0.3909
637.80 0.3906
637.90 0.3904
638.00 0.3901
638.10 0.3899
638.20 0.3896
638.30 0.3894
638.40 0.3891
638.50 0.3889
638.60 0.3886
638.70 0.3884
638.80 0.3881
638.90 0.3879
639.00 0.3876
639.10 0.3874
639.20 0.3871
639.30 0.3869
639.40 0.3866
639.50 0.3864
639.60 0.3861
639.70 0.3859
639.80 0.3856
639.90 0.3854
640.00 0.3851
640.10 0.3849
640.20 0.3846
640.30 0.3844
640.40 0.3841
640.50 0.3839
640.60 0.3836
640.70 0.3834
640.80 0.3831
640.90 0.3829
641.00 0.3826
641.10 0.3824
641.20 0.3821
641.30 0.3819
641.40 0.3816
641.50 0.3814
641.60 0.3811
641.70 0.3809
641.80 0.3806
641.90 0.3804
642.00 0.3801
642.10 0.3799
642.20 0.3796
642.30 0.3794
642.40 0.3791
642.50 0.3788
642.60 0.3786
642.70 0.3783
642.80 0.3781
642.90 0.3778
643.00 0.3776
643.10 0.3773
643.20 0.3771
643.30 0.3768
643.40 0.3765
643.50 0.3763
643.60 0.376
643.70 0.3758
643.80 0.3755
643.90 0.3752
644.00 0.375
644.10 0.3747
644.20 0.3745
644.30 0.3742
644.40 0.3739
644.50 0.3737
644.60 0.3734
644.70 0.3731
644.80 0.3729
644.90 0.3726
645.00 0.3723
645.10 0.3721
645.20 0.3718
645.30 0.3715
645.40 0.3713
645.50 0.371
645.60 0.3707
645.70 0.3704
645.80 0.3702
645.90 0.3699
646.00 0.3696
646.10 0.3693
646.20 0.369
646.30 0.3688
646.40 0.3685
646.50 0.3682
646.60 0.3679
646.70 0.3676
646.80 0.3673
646.90 0.367
647.00 0.3667
647.10 0.3665
647.20 0.3662
647.30 0.3659
647.40 0.3656
647.50 0.3653
647.60 0.365
647.70 0.3647
647.80 0.3643
647.90 0.364
648.00 0.3637
648.10 0.3634
648.20 0.3631
648.30 0.3628
648.40 0.3625
648.50 0.3621
648.60 0.3618
648.70 0.3615
648.80 0.3611
648.90 0.3608
649.00 0.3605
649.10 0.3601
649.20 0.3598
649.30 0.3595
649.40 0.3591
649.50 0.3587
649.60 0.3584
649.70 0.358
649.80 0.3576
649.90 0.3573
650.00 0.3569
650.10 0.3565
650.20 0.3562
650.30 0.3558
650.40 0.3554
650.50 0.3549
650.60 0.3545
650.70 0.3541
650.80 0.3537
650.90 0.3533
651.00 0.3528
651.10 0.3524
651.20 0.352
651.30 0.3516
651.40 0.3511
651.50 0.3506
651.60 0.3501
651.70 0.3496
651.80 0.3492
651.90 0.3487
652.00 0.3482
652.10 0.3477
652.20 0.3472
652.30 0.3467
652.40 0.3461
652.50 0.3456
652.60 0.345
652.70 0.3444
652.80 0.3439
652.90 0.3433
653.00 0.3427
653.10 0.3422
653.20 0.3416
653.30 0.341
653.40 0.3403
653.50 0.3397
653.60 0.339
653.70 0.3384
653.80 0.3377
653.90 0.337
654.00 0.3364
654.10 0.3357
654.20 0.3351
654.30 0.3344
654.40 0.3337
654.50 0.3329
654.60 0.3322
654.70 0.3315
654.80 0.3308
654.90 0.3301
655.00 0.3294
655.10 0.3287
655.20 0.328
655.30 0.3273
655.40 0.3266
655.50 0.326
655.60 0.3255
655.70 0.325
655.80 0.3249
655.90 0.325
656.00 0.3263
656.10 0.3282
656.20 0.3382
656.30 0.3495
656.40 0.3324
656.50 0.3264
656.60 0.3246
656.70 0.3232
656.80 0.323
656.90 0.3229
657.00 0.323
657.10 0.3232
657.20 0.3234
657.30 0.3237
657.40 0.324
657.50 0.3244
657.60 0.3247
657.70 0.325
657.80 0.3253
657.90 0.3257
658.00 0.326
658.10 0.3263
658.20 0.3267
658.30 0.327
658.40 0.3272
658.50 0.3275
658.60 0.3278
658.70 0.328
658.80 0.3283
658.90 0.3286
659.00 0.3288
659.10 0.3291
659.20 0.3293
659.30 0.3296
659.40 0.3298
659.50 0.3299
659.60 0.3301
659.70 0.3302
659.80 0.3304
659.90 0.3306
660.00 0.3307
660.10 0.3309
660.20 0.331
660.30 0.3312
660.40 0.3313
660.50 0.3313
660.60 0.3314
660.70 0.3315
660.80 0.3315
660.90 0.3316
661.00 0.3317
661.10 0.3317
661.20 0.3318
661.30 0.3319
661.40 0.3319
661.50 0.3319
661.60 0.3319
661.70 0.3319
661.80 0.3319
661.90 0.3319
662.00 0.3319
662.10 0.3319
662.20 0.3319
662.30 0.3319
662.40 0.3318
662.50 0.3318
662.60 0.3317
662.70 0.3317
662.80 0.3316
662.90 0.3316
663.00 0.3315
663.10 0.3314
663.20 0.3314
663.30 0.3313
663.40 0.3312
663.50 0.3312
663.60 0.3311
663.70 0.331
663.80 0.3309
663.90 0.3308
664.00 0.3307
664.10 0.3306
664.20 0.3305
664.30 0.3304
664.40 0.3303
664.50 0.3302
664.60 0.3301
664.70 0.33
664.80 0.3299
664.90 0.3298
665.00 0.3296
665.10 0.3295
665.20 0.3294
665.30 0.3293
665.40 0.3292
665.50 0.329
665.60 0.3289
665.70 0.3288
665.80 0.3286
665.90 0.3285
666.00 0.3284
666.10 0.3282
666.20 0.3281
666.30 0.3279
666.40 0.3278
666.50 0.3277
666.60 0.3275
666.70 0.3274
666.80 0.3272
666.90 0.3271
667.00 0.3269
667.10 0.3268
667.20 0.3266
667.30 0.3265
667.40 0.3263
667.50 0.3262
667.60 0.326
667.70 0.3259
667.80 0.3257
667.90 0.3255
668.00 0.3254
668.10 0.3252
668.20 0.3251
668.30 0.3249
668.40 0.3248
668.50 0.3246
668.60 0.3244
668.70 0.3243
668.80 0.3241
668.90 0.324
669.00 0.3238
669.10 0.3236
669.20 0.3235
669.30 0.3233
669.40 0.3231
669.50 0.323
669.60 0.3228
669.70 0.3226
669.80 0.3225
669.90 0.3223
670.00 0.3221
670.10 0.322
670.20 0.3218
670.30 0.3216
670.40 0.3215
670.50 0.3213
670.60 0.3211
670.70 0.321
670.80 0.3208
670.90 0.3206
671.00 0.3205
671.10 0.3203
671.20 0.3201
671.30 0.32
671.40 0.3198
671.50 0.3196
671.60 0.3194
671.70 0.3193
671.80 0.3191
671.90 0.3189
672.00 0.3188
672.10 0.3186
672.20 0.3184
672.30 0.3182
672.40 0.3181
672.50 0.3179
672.60 0.3177
672.70 0.3176
672.80 0.3174
672.90 0.3172
673.00 0.317
673.10 0.3169
673.20 0.3167
673.30 0.3165
673.40 0.3163
673.50 0.3162
673.60 0.316
673.70 0.3158
673.80 0.3157
673.90 0.3155
674.00 0.3153
674.10 0.3151
674.20 0.315
674.30 0.3148
674.40 0.3146
674.50 0.3144
674.60 0.3143
674.70 0.3141
674.80 0.3139
674.90 0.3138
675.00 0.3136
675.10 0.3134
675.20 0.3132
675.30 0.3131
675.40 0.3129
675.50 0.3127
675.60 0.3125
675.70 0.3124
675.80 0.3122
675.90 0.312
676.00 0.3118
676.10 0.3117
676.20 0.3115
676.30 0.3113
676.40 0.3112
676.50 0.311
676.60 0.3108
676.70 0.3106
676.80 0.3105
676.90 0.3103
677.00 0.3101
677.10 0.3099
677.20 0.3098
677.30 0.3096
677.40 0.3094
677.50 0.3092
677.60 0.3091
677.70 0.3089
677.80 0.3087
677.90 0.3086
678.00 0.3084
678.10 0.3082
678.20 0.308
678.30 0.3079
678.40 0.3077
678.50 0.3075
678.60 0.3074
678.70 0.3072
678.80 0.307
678.90 0.3068
679.00 0.3067
679.10 0.3065
679.20 0.3063
679.30 0.3061
679.40 0.306
679.50 0.3058
679.60 0.3056
679.70 0.3055
679.80 0.3053
679.90 0.3051
680.00 0.3049
680.10 0.3048
680.20 0.3046
680.30 0.3044
680.40 0.3043
680.50 0.3041
680.60 0.3039
680.70 0.3038
680.80 0.3036
680.90 0.3034
681.00 0.3032
681.10 0.3031
681.20 0.3029
681.30 0.3027
681.40 0.3026
681.50 0.3024
681.60 0.3022
681.70 0.3021
681.80 0.3019
681.90 0.3017
682.00 0.3015
682.10 0.3014
682.20 0.3012
682.30 0.301
682.40 0.3009
682.50 0.3007
682.60 0.3005
682.70 0.3004
682.80 0.3002
682.90 0.3
683.00 0.2999
683.10 0.2997
683.20 0.2995
683.30 0.2993
683.40 0.2992
683.50 0.299
683.60 0.2988
683.70 0.2987
683.80 0.2985
683.90 0.2983
684.00 0.2982
684.10 0.298
684.20 0.2978
684.30 0.2977
684.40 0.2975
684.50 0.2973
684.60 0.2972
684.70 0.297
684.80 0.2968
684.90 0.2967
685.00 0.2965
685.10 0.2963
685.20 0.2962
685.30 0.296
685.40 0.2958
685.50 0.2957
685.60 0.2955
685.70 0.2953
685.80 0.2952
685.90 0.295
686.00 0.2948
686.10 0.2947
686.20 0.2945
686.30 0.2943
686.40 0.2942
686.50 0.294
686.60 0.2938
686.70 0.2937
686.80 0.2935
686.90 0.2933
687.00 0.2932
687.10 0.293
687.20 0.2929
687.30 0.2927
687.40 0.2925
687.50 0.2924
687.60 0.2922
687.70 0.292
687.80 0.2919
687.90 0.2917
688.00 0.2915
688.10 0.2914
688.20 0.2912
688.30 0.291
688.40 0.2909
688.50 0.2907
688.60 0.2906
688.70 0.2904
688.80 0.2902
688.90 0.2901
689.00 0.2899
689.10 0.2897
689.20 0.2896
689.30 0.2894
689.40 0.2893
689.50 0.2891
689.60 0.2889
689.70 0.2888
689.80 0.2886
689.90 0.2885
690.00 0.2883
690.10 0.2881
690.20 0.288
690.30 0.2878
690.40 0.2876
690.50 0.2875
690.60 0.2873
690.70 0.2872
690.80 0.287
690.90 0.2868
691.00 0.2867
691.10 0.2865
691.20 0.2864
691.30 0.2862
691.40 0.286
691.50 0.2859
691.60 0.2857
691.70 0.2856
691.80 0.2854
691.90 0.2852
692.00 0.2851
692.10 0.2849
692.20 0.2848
692.30 0.2846
692.40 0.2844
692.50 0.2843
692.60 0.2841
692.70 0.284
692.80 0.2838
692.90 0.2837
693.00 0.2835
693.10 0.2833
693.20 0.2832
693.30 0.283
693.40 0.2829
693.50 0.2827
693.60 0.2825
693.70 0.2824
693.80 0.2822
693.90 0.2821
694.00 0.2819
694.10 0.2818
694.20 0.2816
694.30 0.2814
694.40 0.2813
694.50 0.2811
694.60 0.281
694.70 0.2808
694.80 0.2807
694.90 0.2805
695.00 0.2803
695.10 0.2802
695.20 0.28
695.30 0.2799
695.40 0.2797
695.50 0.2796
695.60 0.2794
695.70 0.2792
695.80 0.2791
695.90 0.2789
696.00 0.2788
696.10 0.2786
696.20 0.2785
696.30 0.2783
696.40 0.2782
696.50 0.278
696.60 0.2779
696.70 0.2777
696.80 0.2775
696.90 0.2774
697.00 0.2772
697.10 0.2771
697.20 0.2769
697.30 0.2768
697.40 0.2766
697.50 0.2765
697.60 0.2763
697.70 0.2762
697.80 0.276
697.90 0.2759
698.00 0.2757
698.10 0.2755
698.20 0.2754
698.30 0.2752
698.40 0.2751
698.50 0.2749
698.60 0.2748
698.70 0.2746
698.80 0.2745
698.90 0.2743
699.00 0.2742
699.10 0.274
699.20 0.2739
699.30 0.2737
699.40 0.2736
699.50 0.2734
699.60 0.2733
699.70 0.2731
699.80 0.273
699.90 0.2728
700.00 0.2726
700.10 0.2725
700.20 0.2723
700.30 0.2722
700.40 0.272
700.50 0.2719
700.60 0.2717
700.70 0.2716
700.80 0.2714
700.90 0.2713
701.00 0.2711
701.10 0.271
701.20 0.2708
701.30 0.2707
701.40 0.2705
701.50 0.2704
701.60 0.2702
701.70 0.2701
701.80 0.2699
701.90 0.2698
702.00 0.2697
702.10 0.2695
702.20 0.2694
702.30 0.2692
702.40 0.2691
702.50 0.2689
702.60 0.2688
702.70 0.2686
702.80 0.2685
702.90 0.2683
703.00 0.2682
703.10 0.268
703.20 0.2679
703.30 0.2677
703.40 0.2676
703.50 0.2674
703.60 0.2673
703.70 0.2671
703.80 0.267
703.90 0.2668
704.00 0.2667
704.10 0.2665
704.20 0.2664
704.30 0.2662
704.40 0.2661
704.50 0.2659
704.60 0.2658
704.70 0.2657
704.80 0.2655
704.90 0.2654
705.00 0.2652
705.10 0.2651
705.20 0.2649
705.30 0.2648
705.40 0.2646
705.50 0.2645
705.60 0.2643
705.70 0.2642
705.80 0.2641
705.90 0.2639
706.00 0.2638
706.10 0.2636
706.20 0.2635
706.30 0.2633
706.40 0.2632
706.50 0.263
706.60 0.2629
706.70 0.2628
706.80 0.2626
706.90 0.2625
707.00 0.2623
707.10 0.2622
707.20 0.262
707.30 0.2619
707.40 0.2617
707.50 0.2616
707.60 0.2615
707.70 0.2613
707.80 0.2612
707.90 0.261
708.00 0.2609
708.10 0.2607
708.20 0.2606
708.30 0.2605
708.40 0.2603
708.50 0.2602
708.60 0.26
708.70 0.2599
708.80 0.2597
708.90 0.2596
709.00 0.2595
709.10 0.2593
709.20 0.2592
709.30 0.259
709.40 0.2589
709.50 0.2587
709.60 0.2586
709.70 0.2585
709.80 0.2583
709.90 0.2582
710.00 0.258
710.10 0.2579
710.20 0.2577
710.30 0.2576
710.40 0.2575
710.50 0.2573
710.60 0.2572
710.70 0.257
710.80 0.2569
710.90 0.2568
711.00 0.2566
711.10 0.2565
711.20 0.2563
711.30 0.2562
711.40 0.2561
711.50 0.2559
711.60 0.2558
711.70 0.2556
711.80 0.2555
711.90 0.2554
712.00 0.2552
712.10 0.2551
712.20 0.255
712.30 0.2548
712.40 0.2547
712.50 0.2545
712.60 0.2544
712.70 0.2543
712.80 0.2541
712.90 0.254
713.00 0.2538
713.10 0.2537
713.20 0.2536
713.30 0.2534
713.40 0.2533
713.50 0.2531
713.60 0.253
713.70 0.2529
713.80 0.2527
713.90 0.2526
714.00 0.2525
714.10 0.2523
714.20 0.2522
714.30 0.252
714.40 0.2519
714.50 0.2518
714.60 0.2516
714.70 0.2515
714.80 0.2514
714.90 0.2512
715.00 0.2511
715.10 0.2509
715.20 0.2508
715.30 0.2507
715.40 0.2505
715.50 0.2504
715.60 0.2503
715.70 0.2501
715.80 0.25
715.90 0.2499
716.00 0.2497
716.10 0.2496
716.20 0.2495
716.30 0.2493
716.40 0.2492
716.50 0.2491
716.60 0.2489
716.70 0.2488
716.80 0.2486
716.90 0.2485
717.00 0.2484
717.10 0.2482
717.20 0.2481
717.30 0.248
717.40 0.2478
717.50 0.2477
717.60 0.2476
717.70 0.2474
717.80 0.2473
717.90 0.2472
718.00 0.247
718.10 0.2469
718.20 0.2468
718.30 0.2466
718.40 0.2465
718.50 0.2464
718.60 0.2462
718.70 0.2461
718.80 0.246
718.90 0.2458
719.00 0.2457
719.10 0.2456
719.20 0.2454
719.30 0.2453
719.40 0.2452
719.50 0.245
719.60 0.2449
719.70 0.2448
719.80 0.2446
719.90 0.2445
720.00 0.2444
720.10 0.2442
720.20 0.2441
720.30 0.244
720.40 0.2438
720.50 0.2437
720.60 0.2436
720.70 0.2434
720.80 0.2433
720.90 0.2432
721.00 0.2431
721.10 0.2429
721.20 0.2428
721.30 0.2427
721.40 0.2425
721.50 0.2424
721.60 0.2423
721.70 0.2421
721.80 0.242
721.90 0.2419
722.00 0.2418
722.10 0.2416
722.20 0.2415
722.30 0.2414
722.40 0.2412
722.50 0.2411
722.60 0.241
722.70 0.2408
722.80 0.2407
722.90 0.2406
723.00 0.2405
723.10 0.2403
723.20 0.2402
723.30 0.2401
723.40 0.2399
723.50 0.2398
723.60 0.2397
723.70 0.2395
723.80 0.2394
723.90 0.2393
724.00 0.2392
724.10 0.239
724.20 0.2389
724.30 0.2388
724.40 0.2386
724.50 0.2385
724.60 0.2384
724.70 0.2383
724.80 0.2381
724.90 0.238
725.00 0.2379
725.10 0.2377
725.20 0.2376
725.30 0.2375
725.40 0.2374
725.50 0.2372
725.60 0.2371
725.70 0.237
725.80 0.2369
725.90 0.2367
726.00 0.2366
726.10 0.2365
726.20 0.2364
726.30 0.2362
726.40 0.2361
726.50 0.236
726.60 0.2358
726.70 0.2357
726.80 0.2356
726.90 0.2355
727.00 0.2353
727.10 0.2352
727.20 0.2351
727.30 0.235
727.40 0.2348
727.50 0.2347
727.60 0.2346
727.70 0.2345
727.80 0.2343
727.90 0.2342
728.00 0.2341
728.10 0.234
728.20 0.2338
728.30 0.2337
728.40 0.2336
728.50 0.2335
728.60 0.2333
728.70 0.2332
728.80 0.2331
728.90 0.233
729.00 0.2328
729.10 0.2327
729.20 0.2326
729.30 0.2325
729.40 0.2323
729.50 0.2322
729.60 0.2321
729.70 0.232
729.80 0.2318
729.90 0.2317
730.00 0.2316
730.10 0.2315
730.20 0.2314
730.30 0.2312
730.40 0.2311
730.50 0.231
730.60 0.2309
730.70 0.2307
730.80 0.2306
730.90 0.2305
731.00 0.2304
731.10 0.2303
731.20 0.2301
731.30 0.23
731.40 0.2299
731.50 0.2298
731.60 0.2296
731.70 0.2295
731.80 0.2294
731.90 0.2293
732.00 0.2292
732.10 0.229
732.20 0.2289
732.30 0.2288
732.40 0.2287
732.50 0.2286
732.60 0.2284
732.70 0.2283
732.80 0.2282
732.90 0.2281
733.00 0.228
733.10 0.2278
733.20 0.2277
733.30 0.2276
733.40 0.2275
733.50 0.2273
733.60 0.2272
733.70 0.2271
733.80 0.227
733.90 0.2269
734.00 0.2267
734.10 0.2266
734.20 0.2265
734.30 0.2264
734.40 0.2263
734.50 0.2261
734.60 0.226
734.70 0.2259
734.80 0.2258
734.90 0.2257
735.00 0.2255
735.10 0.2254
735.20 0.2253
735.30 0.2252
735.40 0.2251
735.50 0.225
735.60 0.2248
735.70 0.2247
735.80 0.2246
735.90 0.2245
736.00 0.2244
736.10 0.2242
736.20 0.2241
736.30 0.224
736.40 0.2239
736.50 0.2238
736.60 0.2236
736.70 0.2235
736.80 0.2234
736.90 0.2233
737.00 0.2232
737.10 0.2231
737.20 0.2229
737.30 0.2228
737.40 0.2227
737.50 0.2226
737.60 0.2225
737.70 0.2223
737.80 0.2222
737.90 0.2221
738.00 0.222
738.10 0.2219
738.20 0.2218
738.30 0.2216
738.40 0.2215
738.50 0.2214
738.60 0.2213
738.70 0.2212
738.80 0.2211
738.90 0.2209
739.00 0.2208
739.10 0.2207
739.20 0.2206
739.30 0.2205
739.40 0.2203
739.50 0.2202
739.60 0.2201
739.70 0.22
739.80 0.2199
739.90 0.2198
740.00 0.2196
740.10 0.2195
740.20 0.2194
740.30 0.2193
740.40 0.2192
740.50 0.2191
740.60 0.219
740.70 0.2188
740.80 0.2187
740.90 0.2186
741.00 0.2185
741.10 0.2184
741.20 0.2183
741.30 0.2182
741.40 0.218
741.50 0.2179
741.60 0.2178
741.70 0.2177
741.80 0.2176
741.90 0.2175
742.00 0.2174
742.10 0.2173
742.20 0.2171
742.30 0.217
742.40 0.2169
742.50 0.2168
742.60 0.2167
742.70 0.2166
742.80 0.2165
742.90 0.2163
743.00 0.2162
743.10 0.2161
743.20 0.216
743.30 0.2159
743.40 0.2158
743.50 0.2157
743.60 0.2156
743.70 0.2154
743.80 0.2153
743.90 0.2152
744.00 0.2151
744.10 0.215
744.20 0.2149
744.30 0.2148
744.40 0.2147
744.50 0.2145
744.60 0.2144
744.70 0.2143
744.80 0.2142
744.90 0.2141
745.00 0.214
745.10 0.2139
745.20 0.2138
745.30 0.2137
745.40 0.2135
745.50 0.2134
745.60 0.2133
745.70 0.2132
745.80 0.2131
745.90 0.213
746.00 0.2129
746.10 0.2128
746.20 0.2126
746.30 0.2125
746.40 0.2124
746.50 0.2123
746.60 0.2122
746.70 0.2121
746.80 0.212
746.90 0.2119
747.00 0.2118
747.10 0.2116
747.20 0.2115
747.30 0.2114
747.40 0.2113
747.50 0.2112
747.60 0.2111
747.70 0.211
747.80 0.2109
747.90 0.2108
748.00 0.2107
748.10 0.2105
748.20 0.2104
748.30 0.2103
748.40 0.2102
748.50 0.2101
748.60 0.21
748.70 0.2099
748.80 0.2098
748.90 0.2097
749.00 0.2096
749.10 0.2094
749.20 0.2093
749.30 0.2092
749.40 0.2091
749.50 0.209
749.60 0.2089
749.70 0.2088
749.80 0.2087
749.90 0.2086
750.00 0.2085
750.10 0.2084
750.20 0.2082
750.30 0.2081
750.40 0.208
750.50 0.2079
750.60 0.2078
750.70 0.2077
750.80 0.2076
750.90 0.2075
751.00 0.2074
751.10 0.2073
751.20 0.2072
751.30 0.2071
751.40 0.207
751.50 0.2069
751.60 0.2067
751.70 0.2066
751.80 0.2065
751.90 0.2064
752.00 0.2063
752.10 0.2062
752.20 0.2061
752.30 0.206
752.40 0.2059
752.50 0.2058
752.60 0.2057
752.70 0.2056
752.80 0.2055
752.90 0.2054
753.00 0.2053
753.10 0.2052
753.20 0.2051
753.30 0.2049
753.40 0.2048
753.50 0.2047
753.60 0.2046
753.70 0.2045
753.80 0.2044
753.90 0.2043
754.00 0.2042
754.10 0.2041
754.20 0.204
754.30 0.2039
754.40 0.2038
754.50 0.2037
754.60 0.2036
754.70 0.2035
754.80 0.2034
754.90 0.2033
755.00 0.2032
755.10 0.2031
755.20 0.2029
755.30 0.2028
755.40 0.2027
755.50 0.2026
755.60 0.2025
755.70 0.2024
755.80 0.2023
755.90 0.2022
756.00 0.2021
756.10 0.202
756.20 0.2019
756.30 0.2018
756.40 0.2017
756.50 0.2016
756.60 0.2015
756.70 0.2014
756.80 0.2013
756.90 0.2012
757.00 0.2011
757.10 0.201
757.20 0.2009
757.30 0.2008
757.40 0.2007
757.50 0.2006
757.60 0.2004
757.70 0.2003
757.80 0.2002
757.90 0.2001
758.00 0.2
758.10 0.1999
758.20 0.1998
758.30 0.1997
758.40 0.1996
758.50 0.1995
758.60 0.1994
758.70 0.1993
758.80 0.1992
758.90 0.1991
759.00 0.199
759.10 0.1989
759.20 0.1988
759.30 0.1987
759.40 0.1986
759.50 0.1985
759.60 0.1984
759.70 0.1983
759.80 0.1982
759.90 0.1981
760.00 0.198
760.10 0.1979
760.20 0.1978
760.30 0.1977
760.40 0.1976
760.50 0.1975
760.60 0.1974
760.70 0.1973
760.80 0.1972
760.90 0.1971
761.00 0.197
761.10 0.1969
761.20 0.1968
761.30 0.1967
761.40 0.1966
761.50 0.1965
761.60 0.1964
761.70 0.1963
761.80 0.1962
761.90 0.1961
762.00 0.196
762.10 0.1959
762.20 0.1958
762.30 0.1957
762.40 0.1956
762.50 0.1955
762.60 0.1954
762.70 0.1953
762.80 0.1952
762.90 0.1951
763.00 0.195
763.10 0.1949
763.20 0.1948
763.30 0.1947
763.40 0.1946
763.50 0.1945
763.60 0.1944
763.70 0.1943
763.80 0.1942
763.90 0.1941
764.00 0.194
764.10 0.1939
764.20 0.1938
764.30 0.1937
764.40 0.1936
764.50 0.1935
764.60 0.1934
764.70 0.1933
764.80 0.1932
764.90 0.1931
765.00 0.193
765.10 0.1929
765.20 0.1928
765.30 0.1927
765.40 0.1926
765.50 0.1925
765.60 0.1924
765.70 0.1923
765.80 0.1922
765.90 0.1921
766.00 0.192
766.10 0.1919
766.20 0.1918
766.30 0.1917
766.40 0.1916
766.50 0.1915
766.60 0.1914
766.70 0.1913
766.80 0.1912
766.90 0.1911
767.00 0.191
767.10 0.1909
767.20 0.1909
767.30 0.1908
767.40 0.1907
767.50 0.1906
767.60 0.1905
767.70 0.1904
767.80 0.1903
767.90 0.1902
768.00 0.1901
768.10 0.19
768.20 0.1899
768.30 0.1898
768.40 0.1897
768.50 0.1896
768.60 0.1895
768.70 0.1894
768.80 0.1893
768.90 0.1892
769.00 0.1891
769.10 0.189
769.20 0.1889
769.30 0.1888
769.40 0.1887
769.50 0.1886
769.60 0.1885
769.70 0.1884
769.80 0.1883
769.90 0.1882
770.00 0.1881
770.10 0.188
770.20 0.188
770.30 0.1879
770.40 0.1878
770.50 0.1877
770.60 0.1876
770.70 0.1875
770.80 0.1874
770.90 0.1873
771.00 0.1872
771.10 0.1871
771.20 0.187
771.30 0.1869
771.40 0.1868
771.50 0.1867
771.60 0.1866
771.70 0.1865
771.80 0.1864
771.90 0.1864
772.00 0.1863
772.10 0.1862
772.20 0.1861
772.30 0.186
772.40 0.1859
772.50 0.1858
772.60 0.1857
772.70 0.1856
772.80 0.1855
772.90 0.1854
773.00 0.1853
773.10 0.1852
773.20 0.1851
773.30 0.1851
773.40 0.185
773.50 0.1849
773.60 0.1848
773.70 0.1847
773.80 0.1846
773.90 0.1845
774.00 0.1844
774.10 0.1843
774.20 0.1842
774.30 0.1841
774.40 0.184
774.50 0.1839
774.60 0.1838
774.70 0.1838
774.80 0.1837
774.90 0.1836
775.00 0.1835
775.10 0.1834
775.20 0.1833
775.30 0.1832
775.40 0.1831
775.50 0.183
775.60 0.1829
775.70 0.1828
775.80 0.1827
775.90 0.1826
776.00 0.1826
776.10 0.1825
776.20 0.1824
776.30 0.1823
776.40 0.1822
776.50 0.1821
776.60 0.182
776.70 0.1819
776.80 0.1818
776.90 0.1817
777.00 0.1816
777.10 0.1815
777.20 0.1815
777.30 0.1814
777.40 0.1813
777.50 0.1812
777.60 0.1811
777.70 0.181
777.80 0.1809
777.90 0.1808
778.00 0.1807
778.10 0.1806
778.20 0.1805
778.30 0.1805
778.40 0.1804
778.50 0.1803
778.60 0.1802
778.70 0.1801
778.80 0.18
778.90 0.1799
779.00 0.1798
779.10 0.1797
779.20 0.1796
779.30 0.1795
779.40 0.1795
779.50 0.1794
779.60 0.1793
779.70 0.1792
779.80 0.1791
779.90 0.179
780.00 0.1789
780.10 0.1788
780.20 0.1787
780.30 0.1786
780.40 0.1786
780.50 0.1785
780.60 0.1784
780.70 0.1783
780.80 0.1782
780.90 0.1781
781.00 0.178
781.10 0.1779
781.20 0.1779
781.30 0.1778
781.40 0.1777
781.50 0.1776
781.60 0.1775
781.70 0.1774
781.80 0.1773
781.90 0.1772
782.00 0.1771
782.10 0.1771
782.20 0.177
782.30 0.1769
782.40 0.1768
782.50 0.1767
782.60 0.1766
782.70 0.1765
782.80 0.1764
782.90 0.1764
783.00 0.1763
783.10 0.1762
783.20 0.1761
783.30 0.176
783.40 0.1759
783.50 0.1758
783.60 0.1757
783.70 0.1757
783.80 0.1756
783.90 0.1755
784.00 0.1754
784.10 0.1753
784.20 0.1752
784.30 0.1751
784.40 0.1751
784.50 0.175
784.60 0.1749
784.70 0.1748
784.80 0.1747
784.90 0.1746
785.00 0.1745
785.10 0.1744
785.20 0.1744
785.30 0.1743
785.40 0.1742
785.50 0.1741
785.60 0.174
785.70 0.1739
785.80 0.1738
785.90 0.1738
786.00 0.1737
786.10 0.1736
786.20 0.1735
786.30 0.1734
786.40 0.1733
786.50 0.1732
786.60 0.1731
786.70 0.1731
786.80 0.173
786.90 0.1729
787.00 0.1728
787.10 0.1727
787.20 0.1726
787.30 0.1725
787.40 0.1725
787.50 0.1724
787.60 0.1723
787.70 0.1722
787.80 0.1721
787.90 0.172
788.00 0.1719
788.10 0.1719
788.20 0.1718
788.30 0.1717
788.40 0.1716
788.50 0.1715
788.60 0.1714
788.70 0.1713
788.80 0.1713
788.90 0.1712
789.00 0.1711
789.10 0.171
789.20 0.1709
789.30 0.1708
789.40 0.1708
789.50 0.1707
789.60 0.1706
789.70 0.1705
789.80 0.1704
789.90 0.1703
790.00 0.1702
790.10 0.1702
790.20 0.1701
790.30 0.17
790.40 0.1699
790.50 0.1698
790.60 0.1697
790.70 0.1697
790.80 0.1696
790.90 0.1695
791.00 0.1694
791.10 0.1693
791.20 0.1692
791.30 0.1692
791.40 0.1691
791.50 0.169
791.60 0.1689
791.70 0.1688
791.80 0.1687
791.90 0.1687
792.00 0.1686
792.10 0.1685
792.20 0.1684
792.30 0.1683
792.40 0.1683
792.50 0.1682
792.60 0.1681
792.70 0.168
792.80 0.1679
792.90 0.1678
793.00 0.1678
793.10 0.1677
793.20 0.1676
793.30 0.1675
793.40 0.1674
793.50 0.1674
793.60 0.1673
793.70 0.1672
793.80 0.1671
793.90 0.167
794.00 0.1669
794.10 0.1669
794.20 0.1668
794.30 0.1667
794.40 0.1666
794.50 0.1665
794.60 0.1665
794.70 0.1664
794.80 0.1663
794.90 0.1662
795.00 0.1661
795.10 0.166
795.20 0.166
795.30 0.1659
795.40 0.1658
795.50 0.1657
795.60 0.1656
795.70 0.1656
795.80 0.1655
795.90 0.1654
796.00 0.1653
796.10 0.1652
796.20 0.1651
796.30 0.1651
796.40 0.165
796.50 0.1649
796.60 0.1648
796.70 0.1647
796.80 0.1647
796.90 0.1646
797.00 0.1645
797.10 0.1644
797.20 0.1643
797.30 0.1643
797.40 0.1642
797.50 0.1641
797.60 0.164
797.70 0.1639
797.80 0.1639
797.90 0.1638
798.00 0.1637
798.10 0.1636
798.20 0.1635
798.30 0.1635
798.40 0.1634
798.50 0.1633
798.60 0.1632
798.70 0.1631
798.80 0.1631
798.90 0.163
799.00 0.1629
799.10 0.1628
799.20 0.1627
799.30 0.1627
799.40 0.1626
799.50 0.1625
799.60 0.1624
799.70 0.1623
799.80 0.1623
799.90 0.1622
800.00 0.1621
800.10 0.162
800.20 0.1619
800.30 0.1619
800.40 0.1618
800.50 0.1617
800.60 0.1616
800.70 0.1615
800.80 0.1615
800.90 0.1614
801.00 0.1613
801.10 0.1612
801.20 0.1612
801.30 0.1611
801.40 0.161
801.50 0.1609
801.60 0.1608
801.70 0.1608
801.80 0.1607
801.90 0.1606
802.00 0.1605
802.10 0.1605
802.20 0.1604
802.30 0.1603
802.40 0.1602
802.50 0.1601
802.60 0.1601
802.70 0.16
802.80 0.1599
802.90 0.1598
803.00 0.1598
803.10 0.1597
803.20 0.1596
803.30 0.1595
803.40 0.1594
803.50 0.1594
803.60 0.1593
803.70 0.1592
803.80 0.1591
803.90 0.1591
804.00 0.159
804.10 0.1589
804.20 0.1588
804.30 0.1588
804.40 0.1587
804.50 0.1586
804.60 0.1585
804.70 0.1584
804.80 0.1584
804.90 0.1583
805.00 0.1582
805.10 0.1581
805.20 0.1581
805.30 0.158
805.40 0.1579
805.50 0.1578
805.60 0.1578
805.70 0.1577
805.80 0.1576
805.90 0.1575
806.00 0.1575
806.10 0.1574
806.20 0.1573
806.30 0.1572
806.40 0.1571
806.50 0.1571
806.60 0.157
806.70 0.1569
806.80 0.1568
806.90 0.1568
807.00 0.1567
807.10 0.1566
807.20 0.1565
807.30 0.1565
807.40 0.1564
807.50 0.1563
807.60 0.1562
807.70 0.1562
807.80 0.1561
807.90 0.156
808.00 0.1559
808.10 0.1559
808.20 0.1558
808.30 0.1557
808.40 0.1556
808.50 0.1556
808.60 0.1555
808.70 0.1554
808.80 0.1553
808.90 0.1553
809.00 0.1552
809.10 0.1551
809.20 0.155
809.30 0.155
809.40 0.1549
809.50 0.1548
809.60 0.1547
809.70 0.1547
809.80 0.1546
809.90 0.1545
810.00 0.1544
810.10 0.1544
810.20 0.1543
810.30 0.1542
810.40 0.1541
810.50 0.1541
810.60 0.154
810.70 0.1539
810.80 0.1538
810.90 0.1538
811.00 0.1537
811.10 0.1536
811.20 0.1535
811.30 0.1535
811.40 0.1534
811.50 0.1533
811.60 0.1533
811.70 0.1532
811.80 0.1531
811.90 0.153
812.00 0.153
812.10 0.1529
812.20 0.1528
812.30 0.1527
812.40 0.1527
812.50 0.1526
812.60 0.1525
812.70 0.1524
812.80 0.1524
812.90 0.1523
813.00 0.1522
813.10 0.1522
813.20 0.1521
813.30 0.152
813.40 0.1519
813.50 0.1519
813.60 0.1518
813.70 0.1517
813.80 0.1516
813.90 0.1516
814.00 0.1515
814.10 0.1514
814.20 0.1514
814.30 0.1513
814.40 0.1512
814.50 0.1511
814.60 0.1511
814.70 0.151
814.80 0.1509
814.90 0.1509
815.00 0.1508
815.10 0.1507
815.20 0.1506
815.30 0.1506
815.40 0.1505
815.50 0.1504
815.60 0.1503
815.70 0.1503
815.80 0.1502
815.90 0.1501
816.00 0.1501
816.10 0.15
816.20 0.1499
816.30 0.1498
816.40 0.1498
816.50 0.1497
816.60 0.1496
816.70 0.1496
816.80 0.1495
816.90 0.1494
817.00 0.1493
817.10 0.1493
817.20 0.1492
817.30 0.1491
817.40 0.1491
817.50 0.149
817.60 0.1489
817.70 0.1488
817.80 0.1488
817.90 0.1487
818.00 0.1486
818.10 0.1486
818.20 0.1485
818.30 0.1484
818.40 0.1483
818.50 0.1483
818.60 0.1482
818.70 0.1481
818.80 0.1481
818.90 0.148
819.00 0.1479
819.10 0.1478
819.20 0.1478
819.30 0.1477
819.40 0.1476
819.50 0.1476
819.60 0.1475
819.70 0.1474
819.80 0.1473
819.90 0.1473
820.00 0.1472
820.10 0.1471
820.20 0.1471
820.30 0.147
820.40 0.1469
820.50 0.1469
820.60 0.1468
820.70 0.1467
820.80 0.1466
820.90 0.1466
821.00 0.1465
821.10 0.1464
821.20 0.1464
821.30 0.1463
821.40 0.1462
821.50 0.1462
821.60 0.1461
821.70 0.146
821.80 0.146
821.90 0.1459
822.00 0.1458
822.10 0.1457
822.20 0.1457
822.30 0.1456
822.40 0.1455
822.50 0.1455
822.60 0.1454
822.70 0.1453
822.80 0.1453
822.90 0.1452
823.00 0.1451
823.10 0.1451
823.20 0.145
823.30 0.1449
823.40 0.1449
823.50 0.1448
823.60 0.1447
823.70 0.1446
823.80 0.1446
823.90 0.1445
824.00 0.1444
824.10 0.1444
824.20 0.1443
824.30 0.1442
824.40 0.1442
824.50 0.1441
824.60 0.144
824.70 0.144
824.80 0.1439
824.90 0.1438
825.00 0.1438
825.10 0.1437
825.20 0.1436
825.30 0.1436
825.40 0.1435
825.50 0.1434
825.60 0.1434
825.70 0.1433
825.80 0.1432
825.90 0.1431
826.00 0.1431
826.10 0.143
826.20 0.1429
826.30 0.1429
826.40 0.1428
826.50 0.1427
826.60 0.1427
826.70 0.1426
826.80 0.1425
826.90 0.1425
827.00 0.1424
827.10 0.1423
827.20 0.1423
827.30 0.1422
827.40 0.1421
827.50 0.1421
827.60 0.142
827.70 0.1419
827.80 0.1419
827.90 0.1418
828.00 0.1417
828.10 0.1417
828.20 0.1416
828.30 0.1415
828.40 0.1415
828.50 0.1414
828.60 0.1413
828.70 0.1413
828.80 0.1412
828.90 0.1411
829.00 0.1411
829.10 0.141
829.20 0.1409
829.30 0.1409
829.40 0.1408
829.50 0.1407
829.60 0.1407
829.70 0.1406
829.80 0.1405
829.90 0.1405
830.00 0.1404
830.10 0.1403
830.20 0.1403
830.30 0.1402
830.40 0.1401
830.50 0.1401
830.60 0.14
830.70 0.1399
830.80 0.1399
830.90 0.1398
831.00 0.1398
831.10 0.1397
831.20 0.1396
831.30 0.1396
831.40 0.1395
831.50 0.1394
831.60 0.1394
831.70 0.1393
831.80 0.1392
831.90 0.1392
832.00 0.1391
832.10 0.139
832.20 0.139
832.30 0.1389
832.40 0.1388
832.50 0.1388
832.60 0.1387
832.70 0.1386
832.80 0.1386
832.90 0.1385
833.00 0.1384
833.10 0.1384
833.20 0.1383
833.30 0.1383
833.40 0.1382
833.50 0.1381
833.60 0.1381
833.70 0.138
833.80 0.1379
833.90 0.1379
834.00 0.1378
834.10 0.1377
834.20 0.1377
834.30 0.1376
834.40 0.1375
834.50 0.1375
834.60 0.1374
834.70 0.1373
834.80 0.1373
834.90 0.1372
835.00 0.1372
835.10 0.1371
835.20 0.137
835.30 0.137
835.40 0.1369
835.50 0.1368
835.60 0.1368
835.70 0.1367
835.80 0.1366
835.90 0.1366
836.00 0.1365
836.10 0.1365
836.20 0.1364
836.30 0.1363
836.40 0.1363
836.50 0.1362
836.60 0.1361
836.70 0.1361
836.80 0.136
836.90 0.1359
837.00 0.1359
837.10 0.1358
837.20 0.1357
837.30 0.1357
837.40 0.1356
837.50 0.1356
837.60 0.1355
837.70 0.1354
837.80 0.1354
837.90 0.1353
838.00 0.1352
838.10 0.1352
838.20 0.1351
838.30 0.1351
838.40 0.135
838.50 0.1349
838.60 0.1349
838.70 0.1348
838.80 0.1347
838.90 0.1347
839.00 0.1346
839.10 0.1346
839.20 0.1345
839.30 0.1344
839.40 0.1344
839.50 0.1343
839.60 0.1342
839.70 0.1342
839.80 0.1341
839.90 0.1341
840.00 0.134
840.10 0.1339
840.20 0.1339
840.30 0.1338
840.40 0.1337
840.50 0.1337
840.60 0.1336
840.70 0.1336
840.80 0.1335
840.90 0.1334
841.00 0.1334
841.10 0.1333
841.20 0.1332
841.30 0.1332
841.40 0.1331
841.50 0.1331
841.60 0.133
841.70 0.1329
841.80 0.1329
841.90 0.1328
842.00 0.1327
842.10 0.1327
842.20 0.1326
842.30 0.1326
842.40 0.1325
842.50 0.1324
842.60 0.1324
842.70 0.1323
842.80 0.1323
842.90 0.1322
843.00 0.1321
843.10 0.1321
843.20 0.132
843.30 0.132
843.40 0.1319
843.50 0.1318
843.60 0.1318
843.70 0.1317
843.80 0.1316
843.90 0.1316
844.00 0.1315
844.10 0.1315
844.20 0.1314
844.30 0.1313
844.40 0.1313
844.50 0.1312
844.60 0.1312
844.70 0.1311
844.80 0.131
844.90 0.131
845.00 0.1309
845.10 0.1309
845.20 0.1308
845.30 0.1307
845.40 0.1307
845.50 0.1306
845.60 0.1306
845.70 0.1305
845.80 0.1304
845.90 0.1304
846.00 0.1303
846.10 0.1303
846.20 0.1302
846.30 0.1301
846.40 0.1301
846.50 0.13
846.60 0.13
846.70 0.1299
846.80 0.1298
846.90 0.1298
847.00 0.1297
847.10 0.1296
847.20 0.1296
847.30 0.1295
847.40 0.1295
847.50 0.1294
847.60 0.1294
847.70 0.1293
847.80 0.1292
847.90 0.1292
848.00 0.1291
848.10 0.1291
848.20 0.129
848.30 0.1289
848.40 0.1289
848.50 0.1288
848.60 0.1288
848.70 0.1287
848.80 0.1286
848.90 0.1286
849.00 0.1285
849.10 0.1285
849.20 0.1284
849.30 0.1283
849.40 0.1283
849.50 0.1282
849.60 0.1282
849.70 0.1281
849.80 0.128
849.90 0.128
850.00 0.1279
850.10 0.1279
850.20 0.1278
850.30 0.1278
850.40 0.1277
850.50 0.1276
850.60 0.1276
850.70 0.1275
850.80 0.1275
850.90 0.1274
851.00 0.1273
851.10 0.1273
851.20 0.1272
851.30 0.1272
851.40 0.1271
851.50 0.127
851.60 0.127
851.70 0.1269
851.80 0.1269
851.90 0.1268
852.00 0.1268
852.10 0.1267
852.20 0.1266
852.30 0.1266
852.40 0.1265
852.50 0.1265
852.60 0.1264
852.70 0.1263
852.80 0.1263
852.90 0.1262
853.00 0.1262
853.10 0.1261
853.20 0.1261
853.30 0.126
853.40 0.1259
853.50 0.1259
853.60 0.1258
853.70 0.1258
853.80 0.1257
853.90 0.1257
854.00 0.1256
854.10 0.1255
854.20 0.1255
854.30 0.1254
854.40 0.1254
854.50 0.1253
854.60 0.1253
854.70 0.1252
854.80 0.1251
854.90 0.1251
855.00 0.125
855.10 0.125
855.20 0.1249
855.30 0.1249
855.40 0.1248
855.50 0.1247
855.60 0.1247
855.70 0.1246
855.80 0.1246
855.90 0.1245
856.00 0.1245
856.10 0.1244
856.20 0.1243
856.30 0.1243
856.40 0.1242
856.50 0.1242
856.60 0.1241
856.70 0.1241
856.80 0.124
856.90 0.1239
857.00 0.1239
857.10 0.1238
857.20 0.1238
857.30 0.1237
857.40 0.1237
857.50 0.1236
857.60 0.1235
857.70 0.1235
857.80 0.1234
857.90 0.1234
858.00 0.1233
858.10 0.1233
858.20 0.1232
858.30 0.1232
858.40 0.1231
858.50 0.123
858.60 0.123
858.70 0.1229
858.80 0.1229
858.90 0.1228
859.00 0.1228
859.10 0.1227
859.20 0.1227
859.30 0.1226
859.40 0.1225
859.50 0.1225
859.60 0.1224
859.70 0.1224
859.80 0.1223
859.90 0.1223
860.00 0.1222
860.10 0.1222
860.20 0.1221
860.30 0.122
860.40 0.122
860.50 0.1219
860.60 0.1219
860.70 0.1218
860.80 0.1218
860.90 0.1217
861.00 0.1217
861.10 0.1216
861.20 0.1216
861.30 0.1215
861.40 0.1214
861.50 0.1214
861.60 0.1213
861.70 0.1213
861.80 0.1212
861.90 0.1212
862.00 0.1211
862.10 0.1211
862.20 0.121
862.30 0.1209
862.40 0.1209
862.50 0.1208
862.60 0.1208
862.70 0.1207
862.80 0.1207
862.90 0.1206
863.00 0.1206
863.10 0.1205
863.20 0.1205
863.30 0.1204
863.40 0.1203
863.50 0.1203
863.60 0.1202
863.70 0.1202
863.80 0.1201
863.90 0.1201
864.00 0.12
864.10 0.12
864.20 0.1199
864.30 0.1199
864.40 0.1198
864.50 0.1197
864.60 0.1197
864.70 0.1196
864.80 0.1196
864.90 0.1195
865.00 0.1195
865.10 0.1194
865.20 0.1194
865.30 0.1193
865.40 0.1193
865.50 0.1192
865.60 0.1192
865.70 0.1191
865.80 0.119
865.90 0.119
866.00 0.1189
866.10 0.1189
866.20 0.1188
866.30 0.1188
866.40 0.1187
866.50 0.1187
866.60 0.1186
866.70 0.1186
866.80 0.1185
866.90 0.1185
867.00 0.1184
867.10 0.1183
867.20 0.1183
867.30 0.1182
867.40 0.1182
867.50 0.1181
867.60 0.1181
867.70 0.118
867.80 0.118
867.90 0.1179
868.00 0.1179
868.10 0.1178
868.20 0.1178
868.30 0.1177
868.40 0.1177
868.50 0.1176
868.60 0.1175
868.70 0.1175
868.80 0.1174
868.90 0.1174
869.00 0.1173
869.10 0.1173
869.20 0.1172
869.30 0.1172
869.40 0.1171
869.50 0.1171
869.60 0.117
869.70 0.117
869.80 0.1169
869.90 0.1169
870.00 0.1168
870.10 0.1168
870.20 0.1167
870.30 0.1167
870.40 0.1166
870.50 0.1165
870.60 0.1165
870.70 0.1164
870.80 0.1164
870.90 0.1163
871.00 0.1163
871.10 0.1162
871.20 0.1162
871.30 0.1161
871.40 0.1161
871.50 0.116
871.60 0.116
871.70 0.1159
871.80 0.1159
871.90 0.1158
872.00 0.1158
872.10 0.1157
872.20 0.1157
872.30 0.1156
872.40 0.1156
872.50 0.1155
872.60 0.1155
872.70 0.1154
872.80 0.1154
872.90 0.1153
873.00 0.1152
873.10 0.1152
873.20 0.1151
873.30 0.1151
873.40 0.115
873.50 0.115
873.60 0.1149
873.70 0.1149
873.80 0.1148
873.90 0.1148
874.00 0.1147
874.10 0.1147
874.20 0.1146
874.30 0.1146
874.40 0.1145
874.50 0.1145
874.60 0.1144
874.70 0.1144
874.80 0.1143
874.90 0.1143
875.00 0.1142
875.10 0.1142
875.20 0.1141
875.30 0.1141
875.40 0.114
875.50 0.114
875.60 0.1139
875.70 0.1139
875.80 0.1138
875.90 0.1138
876.00 0.1137
876.10 0.1137
876.20 0.1136
876.30 0.1136
876.40 0.1135
876.50 0.1135
876.60 0.1134
876.70 0.1134
876.80 0.1133
876.90 0.1133
877.00 0.1132
877.10 0.1132
877.20 0.1131
877.30 0.113
877.40 0.113
877.50 0.1129
877.60 0.1129
877.70 0.1128
877.80 0.1128
877.90 0.1127
878.00 0.1127
878.10 0.1126
878.20 0.1126
878.30 0.1125
878.40 0.1125
878.50 0.1124
878.60 0.1124
878.70 0.1123
878.80 0.1123
878.90 0.1122
879.00 0.1122
879.10 0.1121
879.20 0.1121
879.30 0.112
879.40 0.112
879.50 0.112
879.60 0.1119
879.70 0.1119
879.80 0.1118
879.90 0.1118
880.00 0.1117
880.10 0.1117
880.20 0.1116
880.30 0.1116
880.40 0.1115
880.50 0.1115
880.60 0.1114
880.70 0.1114
880.80 0.1113
880.90 0.1113
881.00 0.1112
881.10 0.1112
881.20 0.1111
881.30 0.1111
881.40 0.111
881.50 0.111
881.60 0.1109
881.70 0.1109
881.80 0.1108
881.90 0.1108
882.00 0.1107
882.10 0.1107
882.20 0.1106
882.30 0.1106
882.40 0.1105
882.50 0.1105
882.60 0.1104
882.70 0.1104
882.80 0.1103
882.90 0.1103
883.00 0.1102
883.10 0.1102
883.20 0.1101
883.30 0.1101
883.40 0.11
883.50 0.11
883.60 0.1099
883.70 0.1099
883.80 0.1098
883.90 0.1098
884.00 0.1097
884.10 0.1097
884.20 0.1096
884.30 0.1096
884.40 0.1095
884.50 0.1095
884.60 0.1094
884.70 0.1094
884.80 0.1093
884.90 0.1093
885.00 0.1093
885.10 0.1092
885.20 0.1092
885.30 0.1091
885.40 0.1091
885.50 0.109
885.60 0.109
885.70 0.1089
885.80 0.1089
885.90 0.1088
886.00 0.1088
886.10 0.1087
886.20 0.1087
886.30 0.1086
886.40 0.1086
886.50 0.1085
886.60 0.1085
886.70 0.1084
886.80 0.1084
886.90 0.1083
887.00 0.1083
887.10 0.1082
887.20 0.1082
887.30 0.1081
887.40 0.1081
887.50 0.1081
887.60 0.108
887.70 0.108
887.80 0.1079
887.90 0.1079
888.00 0.1078
888.10 0.1078
888.20 0.1077
888.30 0.1077
888.40 0.1076
888.50 0.1076
888.60 0.1075
888.70 0.1075
888.80 0.1074
888.90 0.1074
889.00 0.1073
889.10 0.1073
889.20 0.1072
889.30 0.1072
889.40 0.1072
889.50 0.1071
889.60 0.1071
889.70 0.107
889.80 0.107
889.90 0.1069
890.00 0.1069
890.10 0.1068
890.20 0.1068
890.30 0.1067
890.40 0.1067
890.50 0.1066
890.60 0.1066
890.70 0.1065
890.80 0.1065
890.90 0.1064
891.00 0.1064
891.10 0.1064
891.20 0.1063
891.30 0.1063
891.40 0.1062
891.50 0.1062
891.60 0.1061
891.70 0.1061
891.80 0.106
891.90 0.106
892.00 0.1059
892.10 0.1059
892.20 0.1058
892.30 0.1058
892.40 0.1058
892.50 0.1057
892.60 0.1057
892.70 0.1056
892.80 0.1056
892.90 0.1055
893.00 0.1055
893.10 0.1054
893.20 0.1054
893.30 0.1053
893.40 0.1053
893.50 0.1052
893.60 0.1052
893.70 0.1052
893.80 0.1051
893.90 0.1051
894.00 0.105
894.10 0.105
894.20 0.1049
894.30 0.1049
894.40 0.1048
894.50 0.1048
894.60 0.1047
894.70 0.1047
894.80 0.1046
894.90 0.1046
895.00 0.1046
895.10 0.1045
895.20 0.1045
895.30 0.1044
895.40 0.1044
895.50 0.1043
895.60 0.1043
895.70 0.1042
895.80 0.1042
895.90 0.1041
896.00 0.1041
896.10 0.1041
896.20 0.104
896.30 0.104
896.40 0.1039
896.50 0.1039
896.60 0.1038
896.70 0.1038
896.80 0.1037
896.90 0.1037
897.00 0.1036
897.10 0.1036
897.20 0.1036
897.30 0.1035
897.40 0.1035
897.50 0.1034
897.60 0.1034
897.70 0.1033
897.80 0.1033
897.90 0.1032
898.00 0.1032
898.10 0.1032
898.20 0.1031
898.30 0.1031
898.40 0.103
898.50 0.103
898.60 0.1029
898.70 0.1029
898.80 0.1028
898.90 0.1028
899.00 0.1028
899.10 0.1027
899.20 0.1027
899.30 0.1026
899.40 0.1026
899.50 0.1025
899.60 0.1025
899.70 0.1024
899.80 0.1024
899.90 0.1024
900.00 0.1023
900.10 0.1023
900.20 0.1022
900.30 0.1022
900.40 0.1021
900.50 0.1021
900.60 0.102
900.70 0.102
900.80 0.102
900.90 0.1019
901.00 0.1019
901.10 0.1018
901.20 0.1018
901.30 0.1017
901.40 0.1017
901.50 0.1016
901.60 0.1016
901.70 0.1016
901.80 0.1015
901.90 0.1015
902.00 0.1014
902.10 0.1014
902.20 0.1013
902.30 0.1013
902.40 0.1012
902.50 0.1012
902.60 0.1012
902.70 0.1011
902.80 0.1011
902.90 0.101
903.00 0.101
903.10 0.1009
903.20 0.1009
903.30 0.1009
903.40 0.1008
903.50 0.1008
903.60 0.1007
903.70 0.1007
903.80 0.1006
903.90 0.1006
904.00 0.1005
904.10 0.1005
904.20 0.1005
904.30 0.1004
904.40 0.1004
904.50 0.1003
904.60 0.1003
904.70 0.1002
904.80 0.1002
904.90 0.1002
905.00 0.1001
905.10 0.1001
905.20 0.1
905.30 0.09998
905.40 0.09994
905.50 0.0999
905.60 0.09986
905.70 0.09981
905.80 0.09977
905.90 0.09973
906.00 0.09968
906.10 0.09964
906.20 0.0996
906.30 0.09955
906.40 0.09951
906.50 0.09947
906.60 0.09942
906.70 0.09938
906.80 0.09934
906.90 0.0993
907.00 0.09925
907.10 0.09921
907.20 0.09917
907.30 0.09912
907.40 0.09908
907.50 0.09904
907.60 0.099
907.70 0.09895
907.80 0.09891
907.90 0.09887
908.00 0.09883
908.10 0.09878
908.20 0.09874
908.30 0.0987
908.40 0.09866
908.50 0.09862
908.60 0.09857
908.70 0.09853
908.80 0.09849
908.90 0.09845
909.00 0.0984
909.10 0.09836
909.20 0.09832
909.30 0.09828
909.40 0.09824
909.50 0.09819
909.60 0.09815
909.70 0.09811
909.80 0.09807
909.90 0.09802
910.00 0.09798
910.10 0.09794
910.20 0.0979
910.30 0.09786
910.40 0.09781
910.50 0.09777
910.60 0.09773
910.70 0.09769
910.80 0.09765
910.90 0.0976
911.00 0.09756
911.10 0.09752
911.20 0.09748
911.30 0.09744
911.40 0.09739
911.50 0.09735
911.60 0.09731
911.70 0.09727
911.80 0.09723
911.90 0.09719
912.00 0.09714
912.10 0.0971
912.20 0.09706
912.30 0.09702
912.40 0.09698
912.50 0.09694
912.60 0.0969
912.70 0.09685
912.80 0.09681
912.90 0.09677
913.00 0.09673
913.10 0.09669
913.20 0.09665
913.30 0.09661
913.40 0.09657
913.50 0.09652
913.60 0.09648
913.70 0.09644
913.80 0.0964
913.90 0.09636
914.00 0.09632
914.10 0.09628
914.20 0.09624
914.30 0.0962
914.40 0.09615
914.50 0.09611
914.60 0.09607
914.70 0.09603
914.80 0.09599
914.90 0.09595
915.00 0.09591
915.10 0.09587
915.20 0.09583
915.30 0.09579
915.40 0.09575
915.50 0.0957
915.60 0.09566
915.70 0.09562
915.80 0.09558
915.90 0.09554
916.00 0.0955
916.10 0.09546
916.20 0.09542
916.30 0.09538
916.40 0.09534
916.50 0.0953
916.60 0.09526
916.70 0.09522
916.80 0.09517
916.90 0.09513
917.00 0.09509
917.10 0.09505
917.20 0.09501
917.30 0.09497
917.40 0.09493
917.50 0.09489
917.60 0.09485
917.70 0.09481
917.80 0.09477
917.90 0.09473
918.00 0.09469
918.10 0.09465
918.20 0.09461
918.30 0.09457
918.40 0.09453
918.50 0.09449
918.60 0.09445
918.70 0.09441
918.80 0.09437
918.90 0.09433
919.00 0.09429
919.10 0.09425
919.20 0.09421
919.30 0.09417
919.40 0.09413
919.50 0.09409
919.60 0.09405
919.70 0.09401
919.80 0.09397
919.90 0.09393
920.00 0.09389
920.10 0.09385
920.20 0.09382
920.30 0.09378
920.40 0.09374
920.50 0.0937
920.60 0.09366
920.70 0.09362
920.80 0.09358
920.90 0.09354
921.00 0.0935
921.10 0.09346
921.20 0.09342
921.30 0.09338
921.40 0.09334
921.50 0.0933
921.60 0.09326
921.70 0.09322
921.80 0.09318
921.90 0.09314
922.00 0.0931
922.10 0.09306
922.20 0.09302
922.30 0.09298
922.40 0.09295
922.50 0.09291
922.60 0.09287
922.70 0.09283
922.80 0.09279
922.90 0.09275
923.00 0.09271
923.10 0.09267
923.20 0.09263
923.30 0.09259
923.40 0.09255
923.50 0.09251
923.60 0.09248
923.70 0.09244
923.80 0.0924
923.90 0.09236
924.00 0.09232
924.10 0.09228
924.20 0.09224
924.30 0.0922
924.40 0.09216
924.50 0.09212
924.60 0.09209
924.70 0.09205
924.80 0.09201
924.90 0.09197
925.00 0.09193
925.10 0.09189
925.20 0.09185
925.30 0.09181
925.40 0.09177
925.50 0.09174
925.60 0.0917
925.70 0.09166
925.80 0.09162
925.90 0.09158
926.00 0.09154
926.10 0.0915
926.20 0.09146
926.30 0.09143
926.40 0.09139
926.50 0.09135
926.60 0.09131
926.70 0.09127
926.80 0.09123
926.90 0.09119
927.00 0.09116
927.10 0.09112
927.20 0.09108
927.30 0.09104
927.40 0.091
927.50 0.09096
927.60 0.09093
927.70 0.09089
927.80 0.09085
927.90 0.09081
928.00 0.09077
928.10 0.09074
928.20 0.0907
928.30 0.09066
928.40 0.09062
928.50 0.09058
928.60 0.09055
928.70 0.09051
928.80 0.09047
928.90 0.09043
929.00 0.09039
929.10 0.09036
929.20 0.09032
929.30 0.09028
929.40 0.09024
929.50 0.0902
929.60 0.09017
929.70 0.09013
929.80 0.09009
929.90 0.09005
930.00 0.09001
930.10 0.08998
930.20 0.08994
930.30 0.0899
930.40 0.08986
930.50 0.08983
930.60 0.08979
930.70 0.08975
930.80 0.08971
930.90 0.08967
931.00 0.08964
931.10 0.0896
931.20 0.08956
931.30 0.08952
931.40 0.08949
931.50 0.08945
931.60 0.08941
931.70 0.08937
931.80 0.08934
931.90 0.0893
932.00 0.08926
932.10 0.08922
932.20 0.08919
932.30 0.08915
932.40 0.08911
932.50 0.08907
932.60 0.08904
932.70 0.089
932.80 0.08896
932.90 0.08893
933.00 0.08889
933.10 0.08885
933.20 0.08881
933.30 0.08878
933.40 0.08874
933.50 0.0887
933.60 0.08867
933.70 0.08863
933.80 0.08859
933.90 0.08855
934.00 0.08852
934.10 0.08848
934.20 0.08844
934.30 0.08841
934.40 0.08837
934.50 0.08833
934.60 0.0883
934.70 0.08826
934.80 0.08822
934.90 0.08819
935.00 0.08815
935.10 0.08811
935.20 0.08807
935.30 0.08804
935.40 0.088
935.50 0.08796
935.60 0.08793
935.70 0.08789
935.80 0.08785
935.90 0.08782
936.00 0.08778
936.10 0.08774
936.20 0.08771
936.30 0.08767
936.40 0.08763
936.50 0.0876
936.60 0.08756
936.70 0.08752
936.80 0.08749
936.90 0.08745
937.00 0.08742
937.10 0.08738
937.20 0.08734
937.30 0.08731
937.40 0.08727
937.50 0.08723
937.60 0.0872
937.70 0.08716
937.80 0.08712
937.90 0.08709
938.00 0.08705
938.10 0.08702
938.20 0.08698
938.30 0.08694
938.40 0.08691
938.50 0.08687
938.60 0.08684
938.70 0.0868
938.80 0.08676
938.90 0.08673
939.00 0.08669
939.10 0.08665
939.20 0.08662
939.30 0.08658
939.40 0.08655
939.50 0.08651
939.60 0.08647
939.70 0.08644
939.80 0.0864
939.90 0.08637
940.00 0.08633
940.10 0.0863
940.20 0.08626
940.30 0.08622
940.40 0.08619
940.50 0.08615
940.60 0.08612
940.70 0.08608
940.80 0.08604
940.90 0.08601
941.00 0.08597
941.10 0.08594
941.20 0.0859
941.30 0.08587
941.40 0.08583
941.50 0.08579
941.60 0.08576
941.70 0.08572
941.80 0.08569
941.90 0.08565
942.00 0.08562
942.10 0.08558
942.20 0.08555
942.30 0.08551
942.40 0.08547
942.50 0.08544
942.60 0.0854
942.70 0.08537
942.80 0.08533
942.90 0.0853
943.00 0.08526
943.10 0.08523
943.20 0.08519
943.30 0.08516
943.40 0.08512
943.50 0.08509
943.60 0.08505
943.70 0.08502
943.80 0.08498
943.90 0.08495
944.00 0.08491
944.10 0.08487
944.20 0.08484
944.30 0.0848
944.40 0.08477
944.50 0.08473
944.60 0.0847
944.70 0.08466
944.80 0.08463
944.90 0.08459
945.00 0.08456
945.10 0.08452
945.20 0.08449
945.30 0.08445
945.40 0.08442
945.50 0.08438
945.60 0.08435
945.70 0.08432
945.80 0.08428
945.90 0.08425
946.00 0.08421
946.10 0.08418
946.20 0.08414
946.30 0.08411
946.40 0.08407
946.50 0.08404
946.60 0.084
946.70 0.08397
946.80 0.08393
946.90 0.0839
947.00 0.08386
947.10 0.08383
947.20 0.08379
947.30 0.08376
947.40 0.08373
947.50 0.08369
947.60 0.08366
947.70 0.08362
947.80 0.08359
947.90 0.08355
948.00 0.08352
948.10 0.08349
948.20 0.08345
948.30 0.08342
948.40 0.08338
948.50 0.08335
948.60 0.08331
948.70 0.08328
948.80 0.08325
948.90 0.08321
949.00 0.08318
949.10 0.08314
949.20 0.08311
949.30 0.08307
949.40 0.08304
949.50 0.08301
949.60 0.08297
949.70 0.08294
949.80 0.0829
949.90 0.08287
950.00 0.08284
950.10 0.0828
950.20 0.08277
950.30 0.08274
950.40 0.0827
950.50 0.08267
950.60 0.08263
950.70 0.0826
950.80 0.08257
950.90 0.08253
951.00 0.0825
951.10 0.08247
951.20 0.08243
951.30 0.0824
951.40 0.08236
951.50 0.08233
951.60 0.0823
951.70 0.08226
951.80 0.08223
951.90 0.0822
952.00 0.08216
952.10 0.08213
952.20 0.0821
952.30 0.08206
952.40 0.08203
952.50 0.082
952.60 0.08196
952.70 0.08193
952.80 0.0819
952.90 0.08186
953.00 0.08183
953.10 0.0818
953.20 0.08176
953.30 0.08173
953.40 0.0817
953.50 0.08166
953.60 0.08163
953.70 0.0816
953.80 0.08157
953.90 0.08153
954.00 0.0815
954.10 0.08147
954.20 0.08143
954.30 0.0814
954.40 0.08137
954.50 0.08134
954.60 0.0813
954.70 0.08127
954.80 0.08124
954.90 0.0812
955.00 0.08117
955.10 0.08114
955.20 0.0811
955.30 0.08107
955.40 0.08104
955.50 0.081
955.60 0.08097
955.70 0.08094
955.80 0.0809
955.90 0.08087
956.00 0.08084
956.10 0.0808
956.20 0.08077
956.30 0.08074
956.40 0.0807
956.50 0.08067
956.60 0.08064
956.70 0.0806
956.80 0.08057
956.90 0.08054
957.00 0.08051
957.10 0.08047
957.20 0.08044
957.30 0.08041
957.40 0.08037
957.50 0.08034
957.60 0.08031
957.70 0.08028
957.80 0.08024
957.90 0.08021
958.00 0.08018
958.10 0.08014
958.20 0.08011
958.30 0.08008
958.40 0.08005
958.50 0.08001
958.60 0.07998
958.70 0.07995
958.80 0.07992
958.90 0.07988
959.00 0.07985
959.10 0.07982
959.20 0.07979
959.30 0.07975
959.40 0.07972
959.50 0.07969
959.60 0.07966
959.70 0.07962
959.80 0.07959
959.90 0.07956
960.00 0.07953
960.10 0.0795
960.20 0.07946
960.30 0.07943
960.40 0.0794
960.50 0.07937
960.60 0.07934
960.70 0.0793
960.80 0.07927
960.90 0.07924
961.00 0.07921
961.10 0.07917
961.20 0.07914
961.30 0.07911
961.40 0.07908
961.50 0.07905
961.60 0.07901
961.70 0.07898
961.80 0.07895
961.90 0.07892
962.00 0.07889
962.10 0.07886
962.20 0.07882
962.30 0.07879
962.40 0.07876
962.50 0.07873
962.60 0.0787
962.70 0.07866
962.80 0.07863
962.90 0.0786
963.00 0.07857
963.10 0.07854
963.20 0.07851
963.30 0.07847
963.40 0.07844
963.50 0.07841
963.60 0.07838
963.70 0.07835
963.80 0.07832
963.90 0.07828
964.00 0.07825
964.10 0.07822
964.20 0.07819
964.30 0.07816
964.40 0.07813
964.50 0.0781
964.60 0.07806
964.70 0.07803
964.80 0.078
964.90 0.07797
965.00 0.07794
965.10 0.07791
965.20 0.07788
965.30 0.07784
965.40 0.07781
965.50 0.07778
965.60 0.07775
965.70 0.07772
965.80 0.07769
965.90 0.07766
966.00 0.07763
966.10 0.07759
966.20 0.07756
966.30 0.07753
966.40 0.0775
966.50 0.07747
966.60 0.07744
966.70 0.07741
966.80 0.07738
966.90 0.07734
967.00 0.07731
967.10 0.07728
967.20 0.07725
967.30 0.07722
967.40 0.07719
967.50 0.07716
967.60 0.07713
967.70 0.0771
967.80 0.07707
967.90 0.07703
968.00 0.077
968.10 0.07697
968.20 0.07694
968.30 0.07691
968.40 0.07688
968.50 0.07685
968.60 0.07682
968.70 0.07679
968.80 0.07676
968.90 0.07673
969.00 0.07669
969.10 0.07666
969.20 0.07663
969.30 0.0766
969.40 0.07657
969.50 0.07654
969.60 0.07651
969.70 0.07648
969.80 0.07645
969.90 0.07642
970.00 0.07639
970.10 0.07636
970.20 0.07632
970.30 0.07629
970.40 0.07626
970.50 0.07623
970.60 0.0762
970.70 0.07617
970.80 0.07614
970.90 0.07611
971.00 0.07608
971.10 0.07605
971.20 0.07602
971.30 0.07599
971.40 0.07596
971.50 0.07593
971.60 0.0759
971.70 0.07587
971.80 0.07584
971.90 0.07581
972.00 0.07577
972.10 0.07574
972.20 0.07571
972.30 0.07568
972.40 0.07565
972.50 0.07562
972.60 0.07559
972.70 0.07556
972.80 0.07553
972.90 0.0755
973.00 0.07547
973.10 0.07544
973.20 0.07541
973.30 0.07538
973.40 0.07535
973.50 0.07532
973.60 0.07529
973.70 0.07526
973.80 0.07523
973.90 0.0752
974.00 0.07517
974.10 0.07514
974.20 0.07511
974.30 0.07508
974.40 0.07505
974.50 0.07502
974.60 0.07499
974.70 0.07496
974.80 0.07493
974.90 0.0749
975.00 0.07487
975.10 0.07484
975.20 0.07481
975.30 0.07478
975.40 0.07475
975.50 0.07472
975.60 0.07469
975.70 0.07466
975.80 0.07463
975.90 0.0746
976.00 0.07457
976.10 0.07454
976.20 0.07451
976.30 0.07448
976.40 0.07445
976.50 0.07442
976.60 0.07439
976.70 0.07436
976.80 0.07433
976.90 0.0743
977.00 0.07427
977.10 0.07424
977.20 0.07421
977.30 0.07418
977.40 0.07415
977.50 0.07412
977.60 0.07409
977.70 0.07406
977.80 0.07403
977.90 0.074
978.00 0.07397
978.10 0.07394
978.20 0.07391
978.30 0.07388
978.40 0.07385
978.50 0.07382
978.60 0.07379
978.70 0.07376
978.80 0.07373
978.90 0.0737
979.00 0.07367
979.10 0.07365
979.20 0.07362
979.30 0.07359
979.40 0.07356
979.50 0.07353
979.60 0.0735
979.70 0.07347
979.80 0.07344
979.90 0.07341
980.00 0.07338
980.10 0.07335
980.20 0.07332
980.30 0.07329
980.40 0.07326
980.50 0.07323
980.60 0.0732
980.70 0.07317
980.80 0.07314
980.90 0.07311
981.00 0.07308
981.10 0.07306
981.20 0.07303
981.30 0.073
981.40 0.07297
981.50 0.07294
981.60 0.07291
981.70 0.07288
981.80 0.07285
981.90 0.07282
982.00 0.07279
982.10 0.07276
982.20 0.07273
982.30 0.0727
982.40 0.07267
982.50 0.07264
982.60 0.07262
982.70 0.07259
982.80 0.07256
982.90 0.07253
983.00 0.0725
983.10 0.07247
983.20 0.07244
983.30 0.07241
983.40 0.07238
983.50 0.07235
983.60 0.07232
983.70 0.07229
983.80 0.07227
983.90 0.07224
984.00 0.07221
984.10 0.07218
984.20 0.07215
984.30 0.07212
984.40 0.07209
984.50 0.07206
984.60 0.07203
984.70 0.072
984.80 0.07198
984.90 0.07195
985.00 0.07192
985.10 0.07189
985.20 0.07186
985.30 0.07183
985.40 0.0718
985.50 0.07177
985.60 0.07174
985.70 0.07172
985.80 0.07169
985.90 0.07166
986.00 0.07163
986.10 0.0716
986.20 0.07157
986.30 0.07154
986.40 0.07151
986.50 0.07148
986.60 0.07146
986.70 0.07143
986.80 0.0714
986.90 0.07137
987.00 0.07134
987.10 0.07131
987.20 0.07128
987.30 0.07125
987.40 0.07123
987.50 0.0712
987.60 0.07117
987.70 0.07114
987.80 0.07111
987.90 0.07108
988.00 0.07105
988.10 0.07103
988.20 0.071
988.30 0.07097
988.40 0.07094
988.50 0.07091
988.60 0.07088
988.70 0.07085
988.80 0.07083
988.90 0.0708
989.00 0.07077
989.10 0.07074
989.20 0.07071
989.30 0.07068
989.40 0.07065
989.50 0.07063
989.60 0.0706
989.70 0.07057
989.80 0.07054
989.90 0.07051
990.00 0.07048
990.10 0.07046
990.20 0.07043
990.30 0.0704
990.40 0.07037
990.50 0.07034
990.60 0.07031
990.70 0.07028
990.80 0.07026
990.90 0.07023
991.00 0.0702
991.10 0.07017
991.20 0.07014
991.30 0.07012
991.40 0.07009
991.50 0.07006
991.60 0.07003
991.70 0.07
991.80 0.06997
991.90 0.06995
992.00 0.06992
992.10 0.06989
992.20 0.06986
992.30 0.06983
992.40 0.0698
992.50 0.06978
992.60 0.06975
992.70 0.06972
992.80 0.06969
992.90 0.06966
993.00 0.06964
993.10 0.06961
993.20 0.06958
993.30 0.06955
993.40 0.06952
993.50 0.0695
993.60 0.06947
993.70 0.06944
993.80 0.06941
993.90 0.06938
994.00 0.06936
994.10 0.06933
994.20 0.0693
994.30 0.06927
994.40 0.06924
994.50 0.06922
994.60 0.06919
994.70 0.06916
994.80 0.06913
994.90 0.06911
995.00 0.06908
995.10 0.06905
995.20 0.06902
995.30 0.06899
995.40 0.06897
995.50 0.06894
995.60 0.06891
995.70 0.06888
995.80 0.06886
995.90 0.06883
996.00 0.0688
996.10 0.06877
996.20 0.06875
996.30 0.06872
996.40 0.06869
996.50 0.06866
996.60 0.06864
996.70 0.06861
996.80 0.06858
996.90 0.06855
997.00 0.06853
997.10 0.0685
997.20 0.06847
997.30 0.06844
997.40 0.06842
997.50 0.06839
997.60 0.06836
997.70 0.06833
997.80 0.06831
997.90 0.06828
998.00 0.06825
998.10 0.06823
998.20 0.0682
998.30 0.06817
998.40 0.06814
998.50 0.06812
998.60 0.06809
998.70 0.06806
998.80 0.06804
998.90 0.06801
999.00 0.06798
999.10 0.06796
999.20 0.06793
999.30 0.0679
999.40 0.06787
999.50 0.06785
999.60 0.06782
999.70 0.06779
999.80 0.06776
999.90 0.06773
1000.00 0.06771
1000.10 0.06768
1000.20 0.06765
1000.30 0.06762
1000.40 0.06759
1000.50 0.06756
1000.60 0.06753
1000.70 0.06751
1000.80 0.06748
1000.90 0.06745
1001.00 0.06742
1001.10 0.06739
1001.20 0.06736
1001.30 0.06734
1001.40 0.06731
1001.50 0.06728
1001.60 0.06725
1001.70 0.06722
1001.80 0.0672
1001.90 0.06717
1002.00 0.06715
1002.10 0.06712
1002.20 0.0671
1002.30 0.06707
1002.40 0.06705
1002.50 0.06702
1002.60 0.06699
1002.70 0.06697
1002.80 0.06694
1002.90 0.06692
1003.00 0.06689
1003.10 0.06687
1003.20 0.06684
1003.30 0.06682
1003.40 0.06679
1003.50 0.06677
1003.60 0.06674
1003.70 0.06672
1003.80 0.0667
1003.90 0.06667
1004.00 0.06665
1004.10 0.06662
1004.20 0.0666
1004.30 0.06657
1004.40 0.06655
1004.50 0.06652
1004.60 0.0665
1004.70 0.06647
1004.80 0.06645
1004.90 0.06642
1005.00 0.06639
1005.10 0.06637
1005.20 0.06634
1005.30 0.06632
1005.40 0.06629
1005.50 0.06627
1005.60 0.06624
1005.70 0.06621
1005.80 0.06618
1005.90 0.06616
1006.00 0.06613
1006.10 0.0661
1006.20 0.06608
1006.30 0.06605
1006.40 0.06602
1006.50 0.066
1006.60 0.06597
1006.70 0.06594
1006.80 0.06592
1006.90 0.06589
1007.00 0.06587
1007.10 0.06584
1007.20 0.06581
1007.30 0.06579
1007.40 0.06576
1007.50 0.06574
1007.60 0.06571
1007.70 0.06568
1007.80 0.06566
1007.90 0.06563
1008.00 0.06561
1008.10 0.06558
1008.20 0.06556
1008.30 0.06553
1008.40 0.06551
1008.50 0.06548
1008.60 0.06546
1008.70 0.06543
1008.80 0.0654
1008.90 0.06538
1009.00 0.06535
1009.10 0.06533
1009.20 0.0653
1009.30 0.06528
1009.40 0.06525
1009.50 0.06523
1009.60 0.0652
1009.70 0.06518
1009.80 0.06515
1009.90 0.06513
1010.00 0.0651
1010.10 0.06508
1010.20 0.06505
1010.30 0.06503
1010.40 0.06501
1010.50 0.06498
1010.60 0.06496
1010.70 0.06493
1010.80 0.06491
1010.90 0.06488
1011.00 0.06486
1011.10 0.06483
1011.20 0.06481
1011.30 0.06478
1011.40 0.06476
1011.50 0.06473
1011.60 0.06471
1011.70 0.06469
1011.80 0.06466
1011.90 0.06464
1012.00 0.06461
1012.10 0.06459
1012.20 0.06456
1012.30 0.06454
1012.40 0.06452
1012.50 0.06449
1012.60 0.06447
1012.70 0.06444
1012.80 0.06442
1012.90 0.0644
1013.00 0.06437
1013.10 0.06435
1013.20 0.06432
1013.30 0.0643
1013.40 0.06428
1013.50 0.06425
1013.60 0.06423
1013.70 0.0642
1013.80 0.06418
1013.90 0.06416
1014.00 0.06413
1014.10 0.06411
1014.20 0.06408
1014.30 0.06406
1014.40 0.06404
1014.50 0.06401
1014.60 0.06399
1014.70 0.06396
1014.80 0.06394
1014.90 0.06392
1015.00 0.06389
1015.10 0.06387
1015.20 0.06385
1015.30 0.06382
1015.40 0.0638
1015.50 0.06377
1015.60 0.06375
1015.70 0.06373
1015.80 0.0637
1015.90 0.06368
1016.00 0.06366
1016.10 0.06363
1016.20 0.06361
1016.30 0.06358
1016.40 0.06356
1016.50 0.06354
1016.60 0.06351
1016.70 0.06349
1016.80 0.06347
1016.90 0.06344
1017.00 0.06342
1017.10 0.0634
1017.20 0.06337
1017.30 0.06335
1017.40 0.06332
1017.50 0.0633
1017.60 0.06328
1017.70 0.06325
1017.80 0.06323
1017.90 0.06321
1018.00 0.06318
1018.10 0.06316
1018.20 0.06314
1018.30 0.06311
1018.40 0.06309
1018.50 0.06307
1018.60 0.06304
1018.70 0.06302
1018.80 0.063
1018.90 0.06297
1019.00 0.06295
1019.10 0.06292
1019.20 0.0629
1019.30 0.06288
1019.40 0.06285
1019.50 0.06283
1019.60 0.06281
1019.70 0.06278
1019.80 0.06276
1019.90 0.06274
1020.00 0.06271
1020.10 0.06269
1020.20 0.06267
1020.30 0.06264
1020.40 0.06262
1020.50 0.0626
1020.60 0.06257
1020.70 0.06255
1020.80 0.06253
1020.90 0.0625
1021.00 0.06248
1021.10 0.06246
1021.20 0.06243
1021.30 0.06241
1021.40 0.06239
1021.50 0.06236
1021.60 0.06234
1021.70 0.06232
1021.80 0.0623
1021.90 0.06227
1022.00 0.06225
1022.10 0.06223
1022.20 0.0622
1022.30 0.06218
1022.40 0.06216
1022.50 0.06213
1022.60 0.06211
1022.70 0.06209
1022.80 0.06206
1022.90 0.06204
1023.00 0.06202
1023.10 0.06199
1023.20 0.06197
1023.30 0.06195
1023.40 0.06192
1023.50 0.0619
1023.60 0.06188
1023.70 0.06186
1023.80 0.06183
1023.90 0.06181
1024.00 0.06179
1024.10 0.06176
1024.20 0.06174
1024.30 0.06172
1024.40 0.06169
1024.50 0.06167
1024.60 0.06165
1024.70 0.06163
1024.80 0.0616
1024.90 0.06158
1025.00 0.06156
1025.10 0.06153
1025.20 0.06151
1025.30 0.06149
1025.40 0.06146
1025.50 0.06144
1025.60 0.06142
1025.70 0.0614
1025.80 0.06137
1025.90 0.06135
1026.00 0.06133
1026.10 0.0613
1026.20 0.06128
1026.30 0.06126
1026.40 0.06124
1026.50 0.06121
1026.60 0.06119
1026.70 0.06117
1026.80 0.06114
1026.90 0.06112
1027.00 0.0611
1027.10 0.06108
1027.20 0.06105
1027.30 0.06103
1027.40 0.06101
1027.50 0.06098
1027.60 0.06096
1027.70 0.06094
1027.80 0.06092
1027.90 0.06089
1028.00 0.06087
1028.10 0.06085
1028.20 0.06083
1028.30 0.0608
1028.40 0.06078
1028.50 0.06076
1028.60 0.06073
1028.70 0.06071
1028.80 0.06069
1028.90 0.06067
1029.00 0.06064
1029.10 0.06062
1029.20 0.0606
1029.30 0.06058
1029.40 0.06055
1029.50 0.06053
1029.60 0.06051
1029.70 0.06049
1029.80 0.06046
1029.90 0.06044
1030.00 0.06042
1030.10 0.0604
1030.20 0.06037
1030.30 0.06035
1030.40 0.06033
1030.50 0.0603
1030.60 0.06028
1030.70 0.06026
1030.80 0.06024
1030.90 0.06021
1031.00 0.06019
1031.10 0.06017
1031.20 0.06015
1031.30 0.06012
1031.40 0.0601
1031.50 0.06008
1031.60 0.06006
1031.70 0.06003
1031.80 0.06001
1031.90 0.05999
1032.00 0.05997
1032.10 0.05995
1032.20 0.05992
1032.30 0.0599
1032.40 0.05988
1032.50 0.05986
1032.60 0.05983
1032.70 0.05981
1032.80 0.05979
1032.90 0.05977
1033.00 0.05974
1033.10 0.05972
1033.20 0.0597
1033.30 0.05968
1033.40 0.05965
1033.50 0.05963
1033.60 0.05961
1033.70 0.05959
1033.80 0.05957
1033.90 0.05954
1034.00 0.05952
1034.10 0.0595
1034.20 0.05948
1034.30 0.05945
1034.40 0.05943
1034.50 0.05941
1034.60 0.05939
1034.70 0.05936
1034.80 0.05934
1034.90 0.05932
1035.00 0.0593
1035.10 0.05928
1035.20 0.05925
1035.30 0.05923
1035.40 0.05921
1035.50 0.05919
1035.60 0.05917
1035.70 0.05914
1035.80 0.05912
1035.90 0.0591
1036.00 0.05908
1036.10 0.05905
1036.20 0.05903
1036.30 0.05901
1036.40 0.05899
1036.50 0.05897
1036.60 0.05894
1036.70 0.05892
1036.80 0.0589
1036.90 0.05888
1037.00 0.05886
1037.10 0.05883
1037.20 0.05881
1037.30 0.05879
1037.40 0.05877
1037.50 0.05875
1037.60 0.05872
1037.70 0.0587
1037.80 0.05868
1037.90 0.05866
1038.00 0.05864
1038.10 0.05861
1038.20 0.05859
1038.30 0.05857
1038.40 0.05855
1038.50 0.05853
1038.60 0.0585
1038.70 0.05848
1038.80 0.05846
1038.90 0.05844
1039.00 0.05842
1039.10 0.05839
1039.20 0.05837
1039.30 0.05835
1039.40 0.05833
1039.50 0.05831
1039.60 0.05829
1039.70 0.05826
1039.80 0.05824
1039.90 0.05822
1040.00 0.0582
1040.10 0.05818
1040.20 0.05815
1040.30 0.05813
1040.40 0.05811
1040.50 0.05809
1040.60 0.05807
1040.70 0.05805
1040.80 0.05802
1040.90 0.058
1041.00 0.05798
1041.10 0.05796
1041.20 0.05794
1041.30 0.05792
1041.40 0.05789
1041.50 0.05787
1041.60 0.05785
1041.70 0.05783
1041.80 0.05781
1041.90 0.05779
1042.00 0.05776
1042.10 0.05774
1042.20 0.05772
1042.30 0.0577
1042.40 0.05768
1042.50 0.05766
1042.60 0.05763
1042.70 0.05761
1042.80 0.05759
1042.90 0.05757
1043.00 0.05755
1043.10 0.05753
1043.20 0.0575
1043.30 0.05748
1043.40 0.05746
1043.50 0.05744
1043.60 0.05742
1043.70 0.0574
1043.80 0.05738
1043.90 0.05735
1044.00 0.05733
1044.10 0.05731
1044.20 0.05729
1044.30 0.05727
1044.40 0.05725
1044.50 0.05723
1044.60 0.0572
1044.70 0.05718
1044.80 0.05716
1044.90 0.05714
1045.00 0.05712
1045.10 0.0571
1045.20 0.05708
1045.30 0.05705
1045.40 0.05703
1045.50 0.05701
1045.60 0.05699
1045.70 0.05697
1045.80 0.05695
1045.90 0.05693
1046.00 0.0569
1046.10 0.05688
1046.20 0.05686
1046.30 0.05684
1046.40 0.05682
1046.50 0.0568
1046.60 0.05678
1046.70 0.05676
1046.80 0.05673
1046.90 0.05671
1047.00 0.05669
1047.10 0.05667
1047.20 0.05665
1047.30 0.05663
1047.40 0.05661
1047.50 0.05659
1047.60 0.05656
1047.70 0.05654
1047.80 0.05652
1047.90 0.0565
1048.00 0.05648
1048.10 0.05646
1048.20 0.05644
1048.30 0.05642
1048.40 0.0564
1048.50 0.05637
1048.60 0.05635
1048.70 0.05633
1048.80 0.05631
1048.90 0.05629
1049.00 0.05627
1049.10 0.05625
1049.20 0.05623
1049.30 0.05621
1049.40 0.05618
1049.50 0.05616
1049.60 0.05614
1049.70 0.05612
1049.80 0.0561
1049.90 0.05608
1050.00 0.05606
1050.10 0.05604
1050.20 0.05602
1050.30 0.056
1050.40 0.05597
1050.50 0.05595
1050.60 0.05593
1050.70 0.05591
1050.80 0.05589
1050.90 0.05587
1051.00 0.05585
1051.10 0.05583
1051.20 0.05581
1051.30 0.05579
1051.40 0.05576
1051.50 0.05574
1051.60 0.05572
1051.70 0.0557
1051.80 0.05568
1051.90 0.05566
1052.00 0.05564
1052.10 0.05562
1052.20 0.0556
1052.30 0.05558
1052.40 0.05556
1052.50 0.05554
1052.60 0.05551
1052.70 0.05549
1052.80 0.05547
1052.90 0.05545
1053.00 0.05543
1053.10 0.05541
1053.20 0.05539
1053.30 0.05537
1053.40 0.05535
1053.50 0.05533
1053.60 0.05531
1053.70 0.05529
1053.80 0.05526
1053.90 0.05524
1054.00 0.05522
1054.10 0.0552
1054.20 0.05518
1054.30 0.05516
1054.40 0.05514
1054.50 0.05512
1054.60 0.0551
1054.70 0.05508
1054.80 0.05506
1054.90 0.05504
1055.00 0.05502
1055.10 0.055
1055.20 0.05498
1055.30 0.05495
1055.40 0.05493
1055.50 0.05491
1055.60 0.05489
1055.70 0.05487
1055.80 0.05485
1055.90 0.05483
1056.00 0.05481
1056.10 0.05479
1056.20 0.05477
1056.30 0.05475
1056.40 0.05473
1056.50 0.05471
1056.60 0.05469
1056.70 0.05467
1056.80 0.05465
1056.90 0.05463
1057.00 0.0546
1057.10 0.05458
1057.20 0.05456
1057.30 0.05454
1057.40 0.05452
1057.50 0.0545
1057.60 0.05448
1057.70 0.05446
1057.80 0.05444
1057.90 0.05442
1058.00 0.0544
1058.10 0.05438
1058.20 0.05436
1058.30 0.05434
1058.40 0.05432
1058.50 0.0543
1058.60 0.05428
1058.70 0.05426
1058.80 0.05424
1058.90 0.05422
1059.00 0.0542
1059.10 0.05418
1059.20 0.05416
1059.30 0.05413
1059.40 0.05411
1059.50 0.05409
1059.60 0.05407
1059.70 0.05405
1059.80 0.05403
1059.90 0.05401
1060.00 0.05399
1060.10 0.05397
1060.20 0.05395
1060.30 0.05393
1060.40 0.05391
1060.50 0.05389
1060.60 0.05387
1060.70 0.05385
1060.80 0.05383
1060.90 0.05381
1061.00 0.05379
1061.10 0.05377
1061.20 0.05375
1061.30 0.05373
1061.40 0.05371
1061.50 0.05369
1061.60 0.05367
1061.70 0.05365
1061.80 0.05363
1061.90 0.05361
1062.00 0.05359
1062.10 0.05357
1062.20 0.05355
1062.30 0.05353
1062.40 0.05351
1062.50 0.05349
1062.60 0.05347
1062.70 0.05345
1062.80 0.05343
1062.90 0.05341
1063.00 0.05339
1063.10 0.05337
1063.20 0.05335
1063.30 0.05333
1063.40 0.0533
1063.50 0.05328
1063.60 0.05326
1063.70 0.05324
1063.80 0.05322
1063.90 0.0532
1064.00 0.05318
1064.10 0.05316
1064.20 0.05314
1064.30 0.05312
1064.40 0.0531
1064.50 0.05308
1064.60 0.05306
1064.70 0.05304
1064.80 0.05302
1064.90 0.053
1065.00 0.05298
1065.10 0.05296
1065.20 0.05294
1065.30 0.05292
1065.40 0.0529
1065.50 0.05288
1065.60 0.05286
1065.70 0.05284
1065.80 0.05282
1065.90 0.0528
1066.00 0.05278
1066.10 0.05276
1066.20 0.05274
1066.30 0.05272
1066.40 0.0527
1066.50 0.05268
1066.60 0.05266
1066.70 0.05264
1066.80 0.05262
1066.90 0.0526
1067.00 0.05258
1067.10 0.05256
1067.20 0.05254
1067.30 0.05252
1067.40 0.0525
1067.50 0.05248
1067.60 0.05246
1067.70 0.05244
1067.80 0.05242
1067.90 0.0524
1068.00 0.05238
1068.10 0.05236
1068.20 0.05234
1068.30 0.05232
1068.40 0.0523
1068.50 0.05228
1068.60 0.05226
1068.70 0.05225
1068.80 0.05223
1068.90 0.05221
1069.00 0.05219
1069.10 0.05217
1069.20 0.05215
1069.30 0.05213
1069.40 0.05211
1069.50 0.05209
1069.60 0.05207
1069.70 0.05205
1069.80 0.05203
1069.90 0.05201
1070.00 0.05199
1070.10 0.05197
1070.20 0.05195
1070.30 0.05193
1070.40 0.05191
1070.50 0.05189
1070.60 0.05187
1070.70 0.05185
1070.80 0.05183
1070.90 0.05181
1071.00 0.05179
1071.10 0.05177
1071.20 0.05175
1071.30 0.05173
1071.40 0.05171
1071.50 0.05169
1071.60 0.05167
1071.70 0.05165
1071.80 0.05163
1071.90 0.05161
1072.00 0.05159
1072.10 0.05157
1072.20 0.05155
1072.30 0.05153
1072.40 0.05151
1072.50 0.05149
1072.60 0.05147
1072.70 0.05145
1072.80 0.05143
1072.90 0.05141
1073.00 0.05139
1073.10 0.05138
1073.20 0.05136
1073.30 0.05134
1073.40 0.05132
1073.50 0.0513
1073.60 0.05128
1073.70 0.05126
1073.80 0.05124
1073.90 0.05122
1074.00 0.0512
1074.10 0.05118
1074.20 0.05116
1074.30 0.05114
1074.40 0.05112
1074.50 0.0511
1074.60 0.05108
1074.70 0.05106
1074.80 0.05104
1074.90 0.05102
1075.00 0.051
1075.10 0.05098
1075.20 0.05096
1075.30 0.05094
1075.40 0.05092
1075.50 0.0509
1075.60 0.05088
1075.70 0.05086
1075.80 0.05084
1075.90 0.05082
1076.00 0.0508
1076.10 0.05078
1076.20 0.05077
1076.30 0.05075
1076.40 0.05073
1076.50 0.05071
1076.60 0.05069
1076.70 0.05067
1076.80 0.05065
1076.90 0.05063
1077.00 0.05061
1077.10 0.05059
1077.20 0.05057
1077.30 0.05055
1077.40 0.05053
1077.50 0.05051
1077.60 0.05049
1077.70 0.05047
1077.80 0.05045
1077.90 0.05043
1078.00 0.05041
1078.10 0.05039
1078.20 0.05037
1078.30 0.05035
1078.40 0.05033
1078.50 0.05031
1078.60 0.0503
1078.70 0.05028
1078.80 0.05026
1078.90 0.05024
1079.00 0.05022
1079.10 0.0502
1079.20 0.05018
1079.30 0.05016
1079.40 0.05014
1079.50 0.05012
1079.60 0.0501
1079.70 0.05008
1079.80 0.05006
1079.90 0.05004
1080.00 0.05002
1080.10 0.05
1080.20 0.04998
1080.30 0.04996
1080.40 0.04994
1080.50 0.04992
1080.60 0.0499
1080.70 0.04989
1080.80 0.04987
1080.90 0.04985
1081.00 0.04983
1081.10 0.04981
1081.20 0.04979
1081.30 0.04977
1081.40 0.04975
1081.50 0.04973
1081.60 0.04971
1081.70 0.04969
1081.80 0.04967
1081.90 0.04965
1082.00 0.04963
1082.10 0.04961
1082.20 0.04959
1082.30 0.04957
1082.40 0.04955
1082.50 0.04954
1082.60 0.04952
1082.70 0.0495
1082.80 0.04948
1082.90 0.04946
1083.00 0.04944
1083.10 0.04942
1083.20 0.0494
1083.30 0.04938
1083.40 0.04936
1083.50 0.04934
1083.60 0.04932
1083.70 0.0493
1083.80 0.04928
1083.90 0.04926
1084.00 0.04924
1084.10 0.04923
1084.20 0.04921
1084.30 0.04919
1084.40 0.04917
1084.50 0.04915
1084.60 0.04913
1084.70 0.04911
1084.80 0.04909
1084.90 0.04907
1085.00 0.04905
1085.10 0.04903
1085.20 0.04901
1085.30 0.04899
1085.40 0.04898
1085.50 0.04896
1085.60 0.04894
1085.70 0.04892
1085.80 0.0489
1085.90 0.04888
1086.00 0.04886
1086.10 0.04884
1086.20 0.04882
1086.30 0.0488
1086.40 0.04878
1086.50 0.04876
1086.60 0.04875
1086.70 0.04873
1086.80 0.04871
1086.90 0.04869
1087.00 0.04867
1087.10 0.04865
1087.20 0.04863
1087.30 0.04861
1087.40 0.04859
1087.50 0.04858
1087.60 0.04856
1087.70 0.04854
1087.80 0.04852
1087.90 0.0485
1088.00 0.04848
1088.10 0.04846
1088.20 0.04844
1088.30 0.04842
1088.40 0.04841
1088.50 0.04839
1088.60 0.04837
1088.70 0.04835
1088.80 0.04833
1088.90 0.04831
1089.00 0.04829
1089.10 0.04828
1089.20 0.04826
1089.30 0.04824
1089.40 0.04822
1089.50 0.0482
1089.60 0.04818
1089.70 0.04816
1089.80 0.04815
1089.90 0.04813
1090.00 0.04811
1090.10 0.04809
1090.20 0.04807
1090.30 0.04805
1090.40 0.04803
1090.50 0.04802
1090.60 0.048
1090.70 0.04798
1090.80 0.04796
1090.90 0.04794
1091.00 0.04793
1091.10 0.04791
1091.20 0.04789
1091.30 0.04787
1091.40 0.04785
1091.50 0.04783
1091.60 0.04782
1091.70 0.0478
1091.80 0.04778
1091.90 0.04776
1092.00 0.04774
1092.10 0.04773
1092.20 0.04771
1092.30 0.04769
1092.40 0.04767
1092.50 0.04765
1092.60 0.04764
1092.70 0.04762
1092.80 0.0476
1092.90 0.04758
1093.00 0.04757
1093.10 0.04755
1093.20 0.04754
1093.30 0.04752
1093.40 0.04751
1093.50 0.0475
1093.60 0.04749
1093.70 0.04748
1093.80 0.04746
1093.90 0.04745
1094.00 0.04742
1094.10 0.0474
1094.20 0.04738
1094.30 0.04736
1094.40 0.04734
1094.50 0.04733
1094.60 0.04731
1094.70 0.04729
1094.80 0.04727
1094.90 0.04726
1095.00 0.04724
1095.10 0.04722
1095.20 0.04721
1095.30 0.04719
1095.40 0.04718
1095.50 0.04716
1095.60 0.04714
1095.70 0.04713
1095.80 0.04711
1095.90 0.0471
1096.00 0.04708
1096.10 0.04707
1096.20 0.04705
1096.30 0.04703
1096.40 0.04702
1096.50 0.047
1096.60 0.04699
1096.70 0.04697
1096.80 0.04696
1096.90 0.04694
1097.00 0.04693
1097.10 0.04691
1097.20 0.04689
1097.30 0.04688
1097.40 0.04686
1097.50 0.04685
1097.60 0.04683
1097.70 0.04682
1097.80 0.0468
1097.90 0.04679
1098.00 0.04677
1098.10 0.04676
1098.20 0.04674
1098.30 0.04673
1098.40 0.04671
1098.50 0.0467
1098.60 0.04668
1098.70 0.04666
1098.80 0.04665
1098.90 0.04663
1099.00 0.04662
1099.10 0.0466
1099.20 0.04659
1099.30 0.04657
1099.40 0.04656
1099.50 0.04654
1099.60 0.04653
1099.70 0.04651
1099.80 0.0465
1099.90 0.04648
1100.00 0.04647
1100.10 0.04645
1100.20 0.04644
1100.30 0.04642
1100.40 0.04641
1100.50 0.04639
1100.60 0.04638
1100.70 0.04636
1100.80 0.04635
1100.90 0.04633
1101.00 0.04632
1101.10 0.0463
1101.20 0.04629
1101.30 0.04627
1101.40 0.04626
1101.50 0.04624
1101.60 0.04623
1101.70 0.04621
1101.80 0.0462
1101.90 0.04618
1102.00 0.04617
1102.10 0.04615
1102.20 0.04614
1102.30 0.04613
1102.40 0.04611
1102.50 0.0461
1102.60 0.04608
1102.70 0.04607
1102.80 0.04605
1102.90 0.04604
1103.00 0.04602
1103.10 0.04601
1103.20 0.04599
1103.30 0.04598
1103.40 0.04596
1103.50 0.04595
1103.60 0.04593
1103.70 0.04592
1103.80 0.0459
1103.90 0.04589
1104.00 0.04587
1104.10 0.04586
1104.20 0.04584
1104.30 0.04583
1104.40 0.04581
1104.50 0.0458
1104.60 0.04579
1104.70 0.04577
1104.80 0.04576
1104.90 0.04574
1105.00 0.04573
1105.10 0.04571
1105.20 0.0457
1105.30 0.04568
1105.40 0.04567
1105.50 0.04565
1105.60 0.04564
1105.70 0.04562
1105.80 0.04561
1105.90 0.04559
1106.00 0.04558
1106.10 0.04556
1106.20 0.04555
1106.30 0.04553
1106.40 0.04552
1106.50 0.04551
1106.60 0.04549
1106.70 0.04548
1106.80 0.04546
1106.90 0.04545
1107.00 0.04543
1107.10 0.04542
1107.20 0.0454
1107.30 0.04539
1107.40 0.04537
1107.50 0.04536
1107.60 0.04534
1107.70 0.04533
1107.80 0.04531
1107.90 0.0453
1108.00 0.04528
1108.10 0.04527
1108.20 0.04526
1108.30 0.04524
1108.40 0.04523
1108.50 0.04521
1108.60 0.0452
1108.70 0.04518
1108.80 0.04517
1108.90 0.04515
1109.00 0.04514
1109.10 0.04512
1109.20 0.04511
1109.30 0.04509
1109.40 0.04508
1109.50 0.04506
1109.60 0.04505
1109.70 0.04503
1109.80 0.04502
1109.90 0.045
1110.00 0.04499
1110.10 0.04498
1110.20 0.04496
1110.30 0.04495
1110.40 0.04493
1110.50 0.04492
1110.60 0.0449
1110.70 0.04489
1110.80 0.04487
1110.90 0.04486
1111.00 0.04484
1111.10 0.04483
1111.20 0.04481
1111.30 0.0448
1111.40 0.04478
1111.50 0.04477
1111.60 0.04475
1111.70 0.04474
1111.80 0.04473
1111.90 0.04471
1112.00 0.0447
1112.10 0.04468
1112.20 0.04467
1112.30 0.04465
1112.40 0.04464
1112.50 0.04462
1112.60 0.04461
1112.70 0.04459
1112.80 0.04458
1112.90 0.04456
1113.00 0.04455
1113.10 0.04453
1113.20 0.04452
1113.30 0.0445
1113.40 0.04449
1113.50 0.04447
1113.60 0.04446
1113.70 0.04444
1113.80 0.04443
1113.90 0.04442
1114.00 0.0444
1114.10 0.04439
1114.20 0.04437
1114.30 0.04436
1114.40 0.04434
1114.50 0.04433
1114.60 0.04431
1114.70 0.0443
1114.80 0.04428
1114.90 0.04427
1115.00 0.04425
1115.10 0.04424
1115.20 0.04422
1115.30 0.04421
1115.40 0.04419
1115.50 0.04418
1115.60 0.04416
1115.70 0.04415
1115.80 0.04414
1115.90 0.04412
1116.00 0.04411
1116.10 0.04409
1116.20 0.04408
1116.30 0.04406
1116.40 0.04405
1116.50 0.04403
1116.60 0.04402
1116.70 0.044
1116.80 0.04399
1116.90 0.04397
1117.00 0.04396
1117.10 0.04394
1117.20 0.04393
1117.30 0.04391
1117.40 0.0439
1117.50 0.04389
1117.60 0.04387
1117.70 0.04386
1117.80 0.04384
1117.90 0.04383
1118.00 0.04381
1118.10 0.0438
1118.20 0.04378
1118.30 0.04377
1118.40 0.04375
1118.50 0.04374
1118.60 0.04372
1118.70 0.04371
1118.80 0.04369
1118.90 0.04368
1119.00 0.04366
1119.10 0.04365
1119.20 0.04364
1119.30 0.04362
1119.40 0.04361
1119.50 0.04359
1119.60 0.04358
1119.70 0.04356
1119.80 0.04355
1119.90 0.04353
1120.00 0.04352
1120.10 0.0435
1120.20 0.04349
1120.30 0.04347
1120.40 0.04346
1120.50 0.04344
1120.60 0.04343
1120.70 0.04342
1120.80 0.0434
1120.90 0.04339
1121.00 0.04337
1121.10 0.04336
1121.20 0.04334
1121.30 0.04333
1121.40 0.04331
1121.50 0.0433
1121.60 0.04328
1121.70 0.04327
1121.80 0.04325
1121.90 0.04324
1122.00 0.04323
1122.10 0.04321
1122.20 0.0432
1122.30 0.04318
1122.40 0.04317
1122.50 0.04315
1122.60 0.04314
1122.70 0.04312
1122.80 0.04311
1122.90 0.04309
1123.00 0.04308
1123.10 0.04306
1123.20 0.04305
1123.30 0.04304
1123.40 0.04302
1123.50 0.04301
1123.60 0.04299
1123.70 0.04298
1123.80 0.04296
1123.90 0.04295
1124.00 0.04293
1124.10 0.04292
1124.20 0.0429
1124.30 0.04289
1124.40 0.04288
1124.50 0.04286
1124.60 0.04285
1124.70 0.04283
1124.80 0.04282
1124.90 0.0428
1125.00 0.04279
1125.10 0.04277
1125.20 0.04276
1125.30 0.04274
1125.40 0.04273
1125.50 0.04272
1125.60 0.0427
1125.70 0.04269
1125.80 0.04267
1125.90 0.04266
1126.00 0.04264
1126.10 0.04263
1126.20 0.04261
1126.30 0.0426
1126.40 0.04259
1126.50 0.04257
1126.60 0.04256
1126.70 0.04254
1126.80 0.04253
1126.90 0.04251
1127.00 0.0425
1127.10 0.04248
1127.20 0.04247
1127.30 0.04246
1127.40 0.04244
1127.50 0.04243
1127.60 0.04241
1127.70 0.0424
1127.80 0.04238
1127.90 0.04237
1128.00 0.04235
1128.10 0.04234
1128.20 0.04233
1128.30 0.04231
1128.40 0.0423
1128.50 0.04228
1128.60 0.04227
1128.70 0.04225
1128.80 0.04224
1128.90 0.04222
1129.00 0.04221
1129.10 0.0422
1129.20 0.04218
1129.30 0.04217
1129.40 0.04215
1129.50 0.04214
1129.60 0.04212
1129.70 0.04211
1129.80 0.0421
1129.90 0.04208
1130.00 0.04207
1130.10 0.04205
1130.20 0.04204
1130.30 0.04202
1130.40 0.04201
1130.50 0.042
1130.60 0.04198
1130.70 0.04197
1130.80 0.04195
1130.90 0.04194
1131.00 0.04192
1131.10 0.04191
1131.20 0.0419
1131.30 0.04188
1131.40 0.04187
1131.50 0.04185
1131.60 0.04184
1131.70 0.04182
1131.80 0.04181
1131.90 0.0418
1132.00 0.04178
1132.10 0.04177
1132.20 0.04175
1132.30 0.04174
1132.40 0.04172
1132.50 0.04171
1132.60 0.0417
1132.70 0.04168
1132.80 0.04167
1132.90 0.04165
1133.00 0.04164
1133.10 0.04163
1133.20 0.04161
1133.30 0.0416
1133.40 0.04158
1133.50 0.04157
1133.60 0.04155
1133.70 0.04154
1133.80 0.04153
1133.90 0.04151
1134.00 0.0415
1134.10 0.04148
1134.20 0.04147
1134.30 0.04146
1134.40 0.04144
1134.50 0.04143
1134.60 0.04141
1134.70 0.0414
1134.80 0.04138
1134.90 0.04137
1135.00 0.04136
1135.10 0.04134
1135.20 0.04133
1135.30 0.04131
1135.40 0.0413
1135.50 0.04129
1135.60 0.04127
1135.70 0.04126
1135.80 0.04124
1135.90 0.04123
1136.00 0.04122
1136.10 0.0412
1136.20 0.04119
1136.30 0.04117
1136.40 0.04116
1136.50 0.04115
1136.60 0.04113
1136.70 0.04112
1136.80 0.0411
1136.90 0.04109
1137.00 0.04108
1137.10 0.04106
1137.20 0.04105
1137.30 0.04103
1137.40 0.04102
1137.50 0.04101
1137.60 0.04099
1137.70 0.04098
1137.80 0.04096
1137.90 0.04095
1138.00 0.04094
1138.10 0.04092
1138.20 0.04091
1138.30 0.04089
1138.40 0.04088
1138.50 0.04087
1138.60 0.04085
1138.70 0.04084
1138.80 0.04082
1138.90 0.04081
1139.00 0.0408
1139.10 0.04078
1139.20 0.04077
1139.30 0.04075
1139.40 0.04074
1139.50 0.04073
1139.60 0.04071
1139.70 0.0407
1139.80 0.04068
1139.90 0.04067
1140.00 0.04066
1140.10 0.04064
1140.20 0.04063
1140.30 0.04062
1140.40 0.0406
1140.50 0.04059
1140.60 0.04057
1140.70 0.04056
1140.80 0.04055
1140.90 0.04053
1141.00 0.04052
1141.10 0.0405
1141.20 0.04049
1141.30 0.04048
1141.40 0.04046
1141.50 0.04045
1141.60 0.04044
1141.70 0.04042
1141.80 0.04041
1141.90 0.04039
1142.00 0.04038
1142.10 0.04037
1142.20 0.04035
1142.30 0.04034
1142.40 0.04033
1142.50 0.04031
1142.60 0.0403
1142.70 0.04028
1142.80 0.04027
1142.90 0.04026
1143.00 0.04024
1143.10 0.04023
1143.20 0.04022
1143.30 0.0402
1143.40 0.04019
1143.50 0.04018
1143.60 0.04016
1143.70 0.04015
1143.80 0.04013
1143.90 0.04012
1144.00 0.04011
1144.10 0.04009
1144.20 0.04008
1144.30 0.04007
1144.40 0.04005
1144.50 0.04004
1144.60 0.04003
1144.70 0.04001
1144.80 0.04
1144.90 0.03998
1145.00 0.03997
1145.10 0.03996
1145.20 0.03994
1145.30 0.03993
1145.40 0.03992
1145.50 0.0399
1145.60 0.03989
1145.70 0.03988
1145.80 0.03986
1145.90 0.03985
1146.00 0.03983
1146.10 0.03982
1146.20 0.03981
1146.30 0.03979
1146.40 0.03978
1146.50 0.03977
1146.60 0.03975
1146.70 0.03974
1146.80 0.03973
1146.90 0.03971
1147.00 0.0397
1147.10 0.03969
1147.20 0.03967
1147.30 0.03966
1147.40 0.03965
1147.50 0.03963
1147.60 0.03962
1147.70 0.03961
1147.80 0.03959
1147.90 0.03958
1148.00 0.03956
1148.10 0.03955
1148.20 0.03954
1148.30 0.03952
1148.40 0.03951
1148.50 0.0395
1148.60 0.03948
1148.70 0.03947
1148.80 0.03946
1148.90 0.03944
1149.00 0.03943
1149.10 0.03942
1149.20 0.0394
1149.30 0.03939
1149.40 0.03938
1149.50 0.03936
1149.60 0.03935
1149.70 0.03934
1149.80 0.03932
1149.90 0.03931
1150.00 0.0393
1150.10 0.03928
1150.20 0.03927
1150.30 0.03926
1150.40 0.03924
1150.50 0.03923
1150.60 0.03922
1150.70 0.0392
1150.80 0.03919
1150.90 0.03918
1151.00 0.03916
1151.10 0.03915
1151.20 0.03914
1151.30 0.03912
1151.40 0.03911
1151.50 0.0391
1151.60 0.03908
1151.70 0.03907
1151.80 0.03906
1151.90 0.03904
1152.00 0.03903
1152.10 0.03902
1152.20 0.039
1152.30 0.03899
1152.40 0.03898
1152.50 0.03896
1152.60 0.03895
1152.70 0.03894
1152.80 0.03893
1152.90 0.03891
1153.00 0.0389
1153.10 0.03889
1153.20 0.03887
1153.30 0.03886
1153.40 0.03885
1153.50 0.03883
1153.60 0.03882
1153.70 0.03881
1153.80 0.03879
1153.90 0.03878
1154.00 0.03877
1154.10 0.03875
1154.20 0.03874
1154.30 0.03873
1154.40 0.03871
1154.50 0.0387
1154.60 0.03869
1154.70 0.03868
1154.80 0.03866
1154.90 0.03865
1155.00 0.03864
1155.10 0.03862
1155.20 0.03861
1155.30 0.0386
1155.40 0.03858
1155.50 0.03857
1155.60 0.03856
1155.70 0.03854
1155.80 0.03853
1155.90 0.03852
1156.00 0.03851
1156.10 0.03849
1156.20 0.03848
1156.30 0.03847
1156.40 0.03845
1156.50 0.03844
1156.60 0.03843
1156.70 0.03841
1156.80 0.0384
1156.90 0.03839
1157.00 0.03838
1157.10 0.03836
1157.20 0.03835
1157.30 0.03834
1157.40 0.03832
1157.50 0.03831
1157.60 0.0383
1157.70 0.03828
1157.80 0.03827
1157.90 0.03826
1158.00 0.03825
1158.10 0.03823
1158.20 0.03822
1158.30 0.03821
1158.40 0.03819
1158.50 0.03818
1158.60 0.03817
1158.70 0.03816
1158.80 0.03814
1158.90 0.03813
1159.00 0.03812
1159.10 0.0381
1159.20 0.03809
1159.30 0.03808
1159.40 0.03807
1159.50 0.03805
1159.60 0.03804
1159.70 0.03803
1159.80 0.03801
1159.90 0.038
1160.00 0.03799
1160.10 0.03798
1160.20 0.03796
1160.30 0.03795
1160.40 0.03794
1160.50 0.03792
1160.60 0.03791
1160.70 0.0379
1160.80 0.03789
1160.90 0.03787
1161.00 0.03786
1161.10 0.03785
1161.20 0.03784
1161.30 0.03782
1161.40 0.03781
1161.50 0.0378
1161.60 0.03778
1161.70 0.03777
1161.80 0.03776
1161.90 0.03775
1162.00 0.03773
1162.10 0.03772
1162.20 0.03771
1162.30 0.0377
1162.40 0.03768
1162.50 0.03767
1162.60 0.03766
1162.70 0.03764
1162.80 0.03763
1162.90 0.03762
1163.00 0.03761
1163.10 0.03759
1163.20 0.03758
1163.30 0.03757
1163.40 0.03756
1163.50 0.03754
1163.60 0.03753
1163.70 0.03752
1163.80 0.03751
1163.90 0.03749
1164.00 0.03748
1164.10 0.03747
1164.20 0.03746
1164.30 0.03744
1164.40 0.03743
1164.50 0.03742
1164.60 0.0374
1164.70 0.03739
1164.80 0.03738
1164.90 0.03737
1165.00 0.03735
1165.10 0.03734
1165.20 0.03733
1165.30 0.03732
1165.40 0.0373
1165.50 0.03729
1165.60 0.03728
1165.70 0.03727
1165.80 0.03725
1165.90 0.03724
1166.00 0.03723
1166.10 0.03722
1166.20 0.0372
1166.30 0.03719
1166.40 0.03718
1166.50 0.03717
1166.60 0.03715
1166.70 0.03714
1166.80 0.03713
1166.90 0.03712
1167.00 0.0371
1167.10 0.03709
1167.20 0.03708
1167.30 0.03707
1167.40 0.03705
1167.50 0.03704
1167.60 0.03703
1167.70 0.03702
1167.80 0.037
1167.90 0.03699
1168.00 0.03698
1168.10 0.03697
1168.20 0.03695
1168.30 0.03694
1168.40 0.03693
1168.50 0.03692
1168.60 0.03691
1168.70 0.03689
1168.80 0.03688
1168.90 0.03687
1169.00 0.03686
1169.10 0.03684
1169.20 0.03683
1169.30 0.03682
1169.40 0.03681
1169.50 0.03679
1169.60 0.03678
1169.70 0.03677
1169.80 0.03676
1169.90 0.03674
1170.00 0.03673
1170.10 0.03672
1170.20 0.03671
1170.30 0.0367
1170.40 0.03668
1170.50 0.03667
1170.60 0.03666
1170.70 0.03665
1170.80 0.03663
1170.90 0.03662
1171.00 0.03661
1171.10 0.0366
1171.20 0.03658
1171.30 0.03657
1171.40 0.03656
1171.50 0.03655
1171.60 0.03654
1171.70 0.03652
1171.80 0.03651
1171.90 0.0365
1172.00 0.03649
1172.10 0.03647
1172.20 0.03646
1172.30 0.03645
1172.40 0.03644
1172.50 0.03643
1172.60 0.03641
1172.70 0.0364
1172.80 0.03639
1172.90 0.03638
1173.00 0.03637
1173.10 0.03635
1173.20 0.03634
1173.30 0.03633
1173.40 0.03632
1173.50 0.0363
1173.60 0.03629
1173.70 0.03628
1173.80 0.03627
1173.90 0.03626
1174.00 0.03624
1174.10 0.03623
1174.20 0.03622
1174.30 0.03621
1174.40 0.0362
1174.50 0.03618
1174.60 0.03617
1174.70 0.03616
1174.80 0.03615
1174.90 0.03614
1175.00 0.03612
1175.10 0.03611
1175.20 0.0361
1175.30 0.03609
1175.40 0.03608
1175.50 0.03606
1175.60 0.03605
1175.70 0.03604
1175.80 0.03603
1175.90 0.03601
1176.00 0.036
1176.10 0.03599
1176.20 0.03598
1176.30 0.03597
1176.40 0.03595
1176.50 0.03594
1176.60 0.03593
1176.70 0.03592
1176.80 0.03591
1176.90 0.03589
1177.00 0.03588
1177.10 0.03587
1177.20 0.03586
1177.30 0.03585
1177.40 0.03583
1177.50 0.03582
1177.60 0.03581
1177.70 0.0358
1177.80 0.03579
1177.90 0.03578
1178.00 0.03576
1178.10 0.03575
1178.20 0.03574
1178.30 0.03573
1178.40 0.03572
1178.50 0.0357
1178.60 0.03569
1178.70 0.03568
1178.80 0.03567
1178.90 0.03566
1179.00 0.03564
1179.10 0.03563
1179.20 0.03562
1179.30 0.03561
1179.40 0.0356
1179.50 0.03559
1179.60 0.03557
1179.70 0.03556
1179.80 0.03555
1179.90 0.03554
1180.00 0.03553
1180.10 0.03551
1180.20 0.0355
1180.30 0.03549
1180.40 0.03548
1180.50 0.03547
1180.60 0.03546
1180.70 0.03544
1180.80 0.03543
1180.90 0.03542
1181.00 0.03541
1181.10 0.0354
1181.20 0.03538
1181.30 0.03537
1181.40 0.03536
1181.50 0.03535
1181.60 0.03534
1181.70 0.03533
1181.80 0.03531
1181.90 0.0353
1182.00 0.03529
1182.10 0.03528
1182.20 0.03527
1182.30 0.03526
1182.40 0.03524
1182.50 0.03523
1182.60 0.03522
1182.70 0.03521
1182.80 0.0352
1182.90 0.03519
1183.00 0.03517
1183.10 0.03516
1183.20 0.03515
1183.30 0.03514
1183.40 0.03513
1183.50 0.03512
1183.60 0.0351
1183.70 0.03509
1183.80 0.03508
1183.90 0.03507
1184.00 0.03506
1184.10 0.03505
1184.20 0.03503
1184.30 0.03502
1184.40 0.03501
1184.50 0.035
1184.60 0.03499
1184.70 0.03498
1184.80 0.03496
1184.90 0.03495
1185.00 0.03494
1185.10 0.03493
1185.20 0.03492
1185.30 0.03491
1185.40 0.03489
1185.50 0.03488
1185.60 0.03487
1185.70 0.03486
1185.80 0.03485
1185.90 0.03484
1186.00 0.03483
1186.10 0.03481
1186.20 0.0348
1186.30 0.03479
1186.40 0.03478
1186.50 0.03477
1186.60 0.03476
1186.70 0.03474
1186.80 0.03473
1186.90 0.03472
1187.00 0.03471
1187.10 0.0347
1187.20 0.03469
1187.30 0.03468
1187.40 0.03466
1187.50 0.03465
1187.60 0.03464
1187.70 0.03463
1187.80 0.03462
1187.90 0.03461
1188.00 0.0346
1188.10 0.03458
1188.20 0.03457
1188.30 0.03456
1188.40 0.03455
1188.50 0.03454
1188.60 0.03453
1188.70 0.03452
1188.80 0.0345
1188.90 0.03449
1189.00 0.03448
1189.10 0.03447
1189.20 0.03446
1189.30 0.03445
1189.40 0.03444
1189.50 0.03443
1189.60 0.03441
1189.70 0.0344
1189.80 0.03439
1189.90 0.03438
1190.00 0.03437
1190.10 0.03436
1190.20 0.03435
1190.30 0.03433
1190.40 0.03432
1190.50 0.03431
1190.60 0.0343
1190.70 0.03429
1190.80 0.03428
1190.90 0.03427
1191.00 0.03425
1191.10 0.03424
1191.20 0.03423
1191.30 0.03422
1191.40 0.03421
1191.50 0.0342
1191.60 0.03419
1191.70 0.03418
1191.80 0.03416
1191.90 0.03415
1192.00 0.03414
1192.10 0.03413
1192.20 0.03412
1192.30 0.03411
1192.40 0.0341
1192.50 0.03409
1192.60 0.03407
1192.70 0.03406
1192.80 0.03405
1192.90 0.03404
1193.00 0.03403
1193.10 0.03402
1193.20 0.03401
1193.30 0.034
1193.40 0.03399
1193.50 0.03397
1193.60 0.03396
1193.70 0.03395
1193.80 0.03394
1193.90 0.03393
1194.00 0.03392
1194.10 0.03391
1194.20 0.0339
1194.30 0.03388
1194.40 0.03387
1194.50 0.03386
1194.60 0.03385
1194.70 0.03384
1194.80 0.03383
1194.90 0.03382
1195.00 0.03381
1195.10 0.0338
1195.20 0.03378
1195.30 0.03377
1195.40 0.03376
1195.50 0.03375
1195.60 0.03374
1195.70 0.03373
1195.80 0.03372
1195.90 0.03371
1196.00 0.0337
1196.10 0.03368
1196.20 0.03367
1196.30 0.03366
1196.40 0.03365
1196.50 0.03364
1196.60 0.03363
1196.70 0.03362
1196.80 0.03361
1196.90 0.0336
1197.00 0.03358
1197.10 0.03357
1197.20 0.03356
1197.30 0.03355
1197.40 0.03354
1197.50 0.03353
1197.60 0.03352
1197.70 0.03351
1197.80 0.0335
1197.90 0.03349
1198.00 0.03347
1198.10 0.03346
1198.20 0.03345
1198.30 0.03344
1198.40 0.03343
1198.50 0.03342
1198.60 0.03341
1198.70 0.0334
1198.80 0.03339
1198.90 0.03338
1199.00 0.03337
1199.10 0.03335
1199.20 0.03334
1199.30 0.03333
1199.40 0.03332
1199.50 0.03331
1199.60 0.0333
1199.70 0.03329
1199.80 0.03328
1199.90 0.03327
1200.00 0
