# Version 2.1 - nm, norm@500 to 1, cut digits, bergeron_2250_80.dat_2250
# Wavelength(nm)  Flambda(ergs/cm^s/s/nm)
300.00 0.05021
300.10 0.05037
300.20 0.05053
300.30 0.05069
300.40 0.05085
300.50 0.05101
300.60 0.05118
300.70 0.05134
300.80 0.0515
300.90 0.05166
301.00 0.05182
301.10 0.05198
301.20 0.05214
301.30 0.0523
301.40 0.05246
301.50 0.05262
301.60 0.05278
301.70 0.05294
301.80 0.0531
301.90 0.05326
302.00 0.05342
302.10 0.05358
302.20 0.05375
302.30 0.05392
302.40 0.05409
302.50 0.05426
302.60 0.05443
302.70 0.0546
302.80 0.05477
302.90 0.05493
303.00 0.0551
303.10 0.05527
303.20 0.05544
303.30 0.0556
303.40 0.05577
303.50 0.05594
303.60 0.0561
303.70 0.05627
303.80 0.05643
303.90 0.0566
304.00 0.05677
304.10 0.05694
304.20 0.05712
304.30 0.0573
304.40 0.05747
304.50 0.05765
304.60 0.05782
304.70 0.058
304.80 0.05817
304.90 0.05835
305.00 0.05852
305.10 0.0587
305.20 0.05887
305.30 0.05905
305.40 0.05922
305.50 0.05939
305.60 0.05957
305.70 0.05974
305.80 0.05991
305.90 0.06008
306.00 0.06026
306.10 0.06044
306.20 0.06063
306.30 0.06081
306.40 0.06099
306.50 0.06118
306.60 0.06136
306.70 0.06154
306.80 0.06172
306.90 0.06191
307.00 0.06209
307.10 0.06227
307.20 0.06245
307.30 0.06263
307.40 0.06281
307.50 0.06299
307.60 0.06317
307.70 0.06335
307.80 0.06353
307.90 0.06371
308.00 0.0639
308.10 0.06409
308.20 0.06428
308.30 0.06447
308.40 0.06466
308.50 0.06485
308.60 0.06504
308.70 0.06523
308.80 0.06542
308.90 0.06561
309.00 0.0658
309.10 0.06598
309.20 0.06617
309.30 0.06636
309.40 0.06655
309.50 0.06674
309.60 0.06693
309.70 0.06711
309.80 0.0673
309.90 0.06749
310.00 0.06768
310.10 0.06788
310.20 0.06807
310.30 0.06827
310.40 0.06847
310.50 0.06867
310.60 0.06887
310.70 0.06906
310.80 0.06926
310.90 0.06946
311.00 0.06966
311.10 0.06985
311.20 0.07005
311.30 0.07025
311.40 0.07044
311.50 0.07064
311.60 0.07083
311.70 0.07103
311.80 0.07122
311.90 0.07142
312.00 0.07161
312.10 0.07181
312.20 0.07201
312.30 0.07221
312.40 0.07241
312.50 0.07262
312.60 0.07283
312.70 0.07303
312.80 0.07324
312.90 0.07344
313.00 0.07365
313.10 0.07385
313.20 0.07406
313.30 0.07426
313.40 0.07446
313.50 0.07467
313.60 0.07487
313.70 0.07507
313.80 0.07527
313.90 0.07548
314.00 0.07569
314.10 0.07589
314.20 0.07611
314.30 0.07632
314.40 0.07653
314.50 0.07675
314.60 0.07696
314.70 0.07717
314.80 0.07738
314.90 0.0776
315.00 0.07781
315.10 0.07802
315.20 0.07823
315.30 0.07844
315.40 0.07865
315.50 0.07886
315.60 0.07907
315.70 0.07928
315.80 0.07949
315.90 0.0797
316.00 0.07992
316.10 0.08013
316.20 0.08035
316.30 0.08057
316.40 0.08079
316.50 0.08101
316.60 0.08123
316.70 0.08145
316.80 0.08167
316.90 0.08189
317.00 0.08211
317.10 0.08233
317.20 0.08255
317.30 0.08277
317.40 0.08299
317.50 0.0832
317.60 0.08342
317.70 0.08364
317.80 0.08386
317.90 0.08408
318.00 0.0843
318.10 0.08452
318.20 0.08475
318.30 0.08498
318.40 0.08521
318.50 0.08543
318.60 0.08566
318.70 0.08589
318.80 0.08612
318.90 0.08634
319.00 0.08657
319.10 0.0868
319.20 0.08702
319.30 0.08725
319.40 0.08748
319.50 0.0877
319.60 0.08793
319.70 0.08815
319.80 0.08838
319.90 0.0886
320.00 0.08883
320.10 0.08907
320.20 0.0893
320.30 0.08954
320.40 0.08977
320.50 0.09001
320.60 0.09024
320.70 0.09048
320.80 0.09072
320.90 0.09095
321.00 0.09119
321.10 0.09142
321.20 0.09165
321.30 0.09189
321.40 0.09212
321.50 0.09235
321.60 0.09259
321.70 0.09282
321.80 0.09305
321.90 0.09328
322.00 0.09352
322.10 0.09376
322.20 0.09401
322.30 0.09425
322.40 0.09449
322.50 0.09474
322.60 0.09498
322.70 0.09523
322.80 0.09547
322.90 0.09571
323.00 0.09595
323.10 0.0962
323.20 0.09644
323.30 0.09668
323.40 0.09692
323.50 0.09716
323.60 0.0974
323.70 0.09764
323.80 0.09788
323.90 0.09813
324.00 0.09837
324.10 0.09862
324.20 0.09887
324.30 0.09912
324.40 0.09937
324.50 0.09963
324.60 0.09988
324.70 0.1001
324.80 0.1004
324.90 0.1006
325.00 0.1009
325.10 0.1011
325.20 0.1014
325.30 0.1016
325.40 0.1019
325.50 0.1021
325.60 0.1024
325.70 0.1026
325.80 0.1029
325.90 0.1031
326.00 0.1034
326.10 0.1036
326.20 0.1039
326.30 0.1042
326.40 0.1044
326.50 0.1047
326.60 0.1049
326.70 0.1052
326.80 0.1054
326.90 0.1057
327.00 0.106
327.10 0.1062
327.20 0.1065
327.30 0.1067
327.40 0.107
327.50 0.1073
327.60 0.1075
327.70 0.1078
327.80 0.108
327.90 0.1083
328.00 0.1085
328.10 0.1088
328.20 0.1091
328.30 0.1093
328.40 0.1096
328.50 0.1099
328.60 0.1101
328.70 0.1104
328.80 0.1107
328.90 0.1109
329.00 0.1112
329.10 0.1115
329.20 0.1117
329.30 0.112
329.40 0.1123
329.50 0.1125
329.60 0.1128
329.70 0.1131
329.80 0.1133
329.90 0.1136
330.00 0.1139
330.10 0.1141
330.20 0.1144
330.30 0.1147
330.40 0.115
330.50 0.1152
330.60 0.1155
330.70 0.1158
330.80 0.1161
330.90 0.1163
331.00 0.1166
331.10 0.1169
331.20 0.1172
331.30 0.1174
331.40 0.1177
331.50 0.118
331.60 0.1183
331.70 0.1185
331.80 0.1188
331.90 0.1191
332.00 0.1193
332.10 0.1196
332.20 0.1199
332.30 0.1202
332.40 0.1205
332.50 0.1208
332.60 0.121
332.70 0.1213
332.80 0.1216
332.90 0.1219
333.00 0.1222
333.10 0.1225
333.20 0.1227
333.30 0.123
333.40 0.1233
333.50 0.1236
333.60 0.1239
333.70 0.1241
333.80 0.1244
333.90 0.1247
334.00 0.125
334.10 0.1253
334.20 0.1256
334.30 0.1259
334.40 0.1262
334.50 0.1264
334.60 0.1267
334.70 0.127
334.80 0.1273
334.90 0.1276
335.00 0.1279
335.10 0.1282
335.20 0.1285
335.30 0.1288
335.40 0.1291
335.50 0.1294
335.60 0.1296
335.70 0.1299
335.80 0.1302
335.90 0.1305
336.00 0.1308
336.10 0.1311
336.20 0.1314
336.30 0.1317
336.40 0.132
336.50 0.1323
336.60 0.1326
336.70 0.1329
336.80 0.1332
336.90 0.1335
337.00 0.1338
337.10 0.1341
337.20 0.1344
337.30 0.1347
337.40 0.135
337.50 0.1353
337.60 0.1356
337.70 0.1359
337.80 0.1362
337.90 0.1365
338.00 0.1368
338.10 0.1371
338.20 0.1374
338.30 0.1377
338.40 0.138
338.50 0.1383
338.60 0.1386
338.70 0.1389
338.80 0.1392
338.90 0.1395
339.00 0.1398
339.10 0.1401
339.20 0.1405
339.30 0.1408
339.40 0.1411
339.50 0.1414
339.60 0.1417
339.70 0.142
339.80 0.1423
339.90 0.1426
340.00 0.1429
340.10 0.1432
340.20 0.1435
340.30 0.1438
340.40 0.1442
340.50 0.1445
340.60 0.1448
340.70 0.1451
340.80 0.1454
340.90 0.1457
341.00 0.146
341.10 0.1464
341.20 0.1467
341.30 0.147
341.40 0.1473
341.50 0.1476
341.60 0.1479
341.70 0.1482
341.80 0.1486
341.90 0.1489
342.00 0.1492
342.10 0.1495
342.20 0.1498
342.30 0.1502
342.40 0.1505
342.50 0.1508
342.60 0.1511
342.70 0.1515
342.80 0.1518
342.90 0.1521
343.00 0.1524
343.10 0.1527
343.20 0.1531
343.30 0.1534
343.40 0.1537
343.50 0.154
343.60 0.1544
343.70 0.1547
343.80 0.155
343.90 0.1553
344.00 0.1556
344.10 0.156
344.20 0.1563
344.30 0.1566
344.40 0.157
344.50 0.1573
344.60 0.1576
344.70 0.158
344.80 0.1583
344.90 0.1586
345.00 0.159
345.10 0.1593
345.20 0.1596
345.30 0.1599
345.40 0.1603
345.50 0.1606
345.60 0.1609
345.70 0.1613
345.80 0.1616
345.90 0.1619
346.00 0.1622
346.10 0.1626
346.20 0.1629
346.30 0.1633
346.40 0.1636
346.50 0.164
346.60 0.1643
346.70 0.1646
346.80 0.165
346.90 0.1653
347.00 0.1657
347.10 0.166
347.20 0.1663
347.30 0.1667
347.40 0.167
347.50 0.1673
347.60 0.1677
347.70 0.168
347.80 0.1683
347.90 0.1687
348.00 0.169
348.10 0.1694
348.20 0.1697
348.30 0.1701
348.40 0.1704
348.50 0.1708
348.60 0.1711
348.70 0.1715
348.80 0.1718
348.90 0.1722
349.00 0.1725
349.10 0.1729
349.20 0.1732
349.30 0.1735
349.40 0.1739
349.50 0.1742
349.60 0.1746
349.70 0.1749
349.80 0.1753
349.90 0.1756
350.00 0.176
350.10 0.1763
350.20 0.1767
350.30 0.177
350.40 0.1774
350.50 0.1777
350.60 0.1781
350.70 0.1785
350.80 0.1788
350.90 0.1792
351.00 0.1795
351.10 0.1799
351.20 0.1802
351.30 0.1806
351.40 0.1809
351.50 0.1813
351.60 0.1816
351.70 0.182
351.80 0.1823
351.90 0.1827
352.00 0.183
352.10 0.1834
352.20 0.1838
352.30 0.1841
352.40 0.1845
352.50 0.1849
352.60 0.1852
352.70 0.1856
352.80 0.186
352.90 0.1863
353.00 0.1867
353.10 0.1871
353.20 0.1874
353.30 0.1878
353.40 0.1881
353.50 0.1885
353.60 0.1889
353.70 0.1892
353.80 0.1896
353.90 0.1899
354.00 0.1903
354.10 0.1907
354.20 0.191
354.30 0.1914
354.40 0.1918
354.50 0.1922
354.60 0.1925
354.70 0.1929
354.80 0.1933
354.90 0.1937
355.00 0.194
355.10 0.1944
355.20 0.1948
355.30 0.1951
355.40 0.1955
355.50 0.1959
355.60 0.1962
355.70 0.1966
355.80 0.197
355.90 0.1973
356.00 0.1977
356.10 0.1981
356.20 0.1985
356.30 0.1989
356.40 0.1992
356.50 0.1996
356.60 0.2
356.70 0.2004
356.80 0.2008
356.90 0.2011
357.00 0.2015
357.10 0.2019
357.20 0.2023
357.30 0.2026
357.40 0.203
357.50 0.2034
357.60 0.2038
357.70 0.2042
357.80 0.2045
357.90 0.2049
358.00 0.2053
358.10 0.2057
358.20 0.2061
358.30 0.2064
358.40 0.2068
358.50 0.2072
358.60 0.2076
358.70 0.208
358.80 0.2084
358.90 0.2088
359.00 0.2092
359.10 0.2095
359.20 0.2099
359.30 0.2103
359.40 0.2107
359.50 0.2111
359.60 0.2115
359.70 0.2119
359.80 0.2122
359.90 0.2126
360.00 0.213
360.10 0.2134
360.20 0.2138
360.30 0.2142
360.40 0.2146
360.50 0.215
360.60 0.2154
360.70 0.2158
360.80 0.2162
360.90 0.2166
361.00 0.217
361.10 0.2174
361.20 0.2178
361.30 0.2181
361.40 0.2185
361.50 0.2189
361.60 0.2193
361.70 0.2197
361.80 0.2201
361.90 0.2205
362.00 0.2209
362.10 0.2213
362.20 0.2217
362.30 0.2221
362.40 0.2225
362.50 0.2229
362.60 0.2233
362.70 0.2237
362.80 0.2241
362.90 0.2245
363.00 0.2249
363.10 0.2253
363.20 0.2257
363.30 0.2261
363.40 0.2265
363.50 0.2269
363.60 0.2273
363.70 0.2277
363.80 0.2281
363.90 0.2285
364.00 0.2289
364.10 0.2293
364.20 0.2297
364.30 0.2301
364.40 0.2305
364.50 0.231
364.60 0.2314
364.70 0.2318
364.80 0.2322
364.90 0.2326
365.00 0.233
365.10 0.2334
365.20 0.2338
365.30 0.2342
365.40 0.2347
365.50 0.2351
365.60 0.2355
365.70 0.2359
365.80 0.2363
365.90 0.2367
366.00 0.2371
366.10 0.2375
366.20 0.2379
366.30 0.2384
366.40 0.2388
366.50 0.2392
366.60 0.2396
366.70 0.24
366.80 0.2405
366.90 0.2409
367.00 0.2413
367.10 0.2417
367.20 0.2421
367.30 0.2425
367.40 0.243
367.50 0.2434
367.60 0.2438
367.70 0.2442
367.80 0.2446
367.90 0.245
368.00 0.2454
368.10 0.2459
368.20 0.2463
368.30 0.2467
368.40 0.2472
368.50 0.2476
368.60 0.248
368.70 0.2484
368.80 0.2489
368.90 0.2493
369.00 0.2497
369.10 0.2501
369.20 0.2506
369.30 0.251
369.40 0.2514
369.50 0.2518
369.60 0.2523
369.70 0.2527
369.80 0.2531
369.90 0.2535
370.00 0.2539
370.10 0.2544
370.20 0.2548
370.30 0.2552
370.40 0.2557
370.50 0.2561
370.60 0.2565
370.70 0.257
370.80 0.2574
370.90 0.2578
371.00 0.2583
371.10 0.2587
371.20 0.2591
371.30 0.2596
371.40 0.26
371.50 0.2604
371.60 0.2609
371.70 0.2613
371.80 0.2617
371.90 0.2621
372.00 0.2626
372.10 0.263
372.20 0.2635
372.30 0.2639
372.40 0.2643
372.50 0.2648
372.60 0.2652
372.70 0.2657
372.80 0.2661
372.90 0.2665
373.00 0.267
373.10 0.2674
373.20 0.2679
373.30 0.2683
373.40 0.2687
373.50 0.2692
373.60 0.2696
373.70 0.27
373.80 0.2705
373.90 0.2709
374.00 0.2713
374.10 0.2718
374.20 0.2722
374.30 0.2727
374.40 0.2731
374.50 0.2736
374.60 0.274
374.70 0.2745
374.80 0.2749
374.90 0.2754
375.00 0.2758
375.10 0.2763
375.20 0.2767
375.30 0.2772
375.40 0.2776
375.50 0.2781
375.60 0.2785
375.70 0.2789
375.80 0.2794
375.90 0.2798
376.00 0.2803
376.10 0.2807
376.20 0.2812
376.30 0.2816
376.40 0.2821
376.50 0.2825
376.60 0.283
376.70 0.2834
376.80 0.2839
376.90 0.2843
377.00 0.2848
377.10 0.2852
377.20 0.2857
377.30 0.2861
377.40 0.2866
377.50 0.2871
377.60 0.2875
377.70 0.288
377.80 0.2884
377.90 0.2889
378.00 0.2893
378.10 0.2898
378.20 0.2903
378.30 0.2907
378.40 0.2912
378.50 0.2916
378.60 0.2921
378.70 0.2925
378.80 0.293
378.90 0.2935
379.00 0.2939
379.10 0.2944
379.20 0.2948
379.30 0.2953
379.40 0.2958
379.50 0.2962
379.60 0.2967
379.70 0.2972
379.80 0.2976
379.90 0.2981
380.00 0.2985
380.10 0.299
380.20 0.2995
380.30 0.2999
380.40 0.3004
380.50 0.3009
380.60 0.3013
380.70 0.3018
380.80 0.3023
380.90 0.3027
381.00 0.3032
381.10 0.3037
381.20 0.3041
381.30 0.3046
381.40 0.3051
381.50 0.3055
381.60 0.306
381.70 0.3065
381.80 0.3069
381.90 0.3074
382.00 0.3079
382.10 0.3083
382.20 0.3088
382.30 0.3093
382.40 0.3098
382.50 0.3102
382.60 0.3107
382.70 0.3112
382.80 0.3117
382.90 0.3121
383.00 0.3126
383.10 0.3131
383.20 0.3136
383.30 0.314
383.40 0.3145
383.50 0.315
383.60 0.3154
383.70 0.3159
383.80 0.3164
383.90 0.3169
384.00 0.3174
384.10 0.3178
384.20 0.3183
384.30 0.3188
384.40 0.3193
384.50 0.3197
384.60 0.3202
384.70 0.3207
384.80 0.3212
384.90 0.3217
385.00 0.3221
385.10 0.3226
385.20 0.3231
385.30 0.3236
385.40 0.3241
385.50 0.3246
385.60 0.325
385.70 0.3255
385.80 0.326
385.90 0.3265
386.00 0.327
386.10 0.3275
386.20 0.3279
386.30 0.3284
386.40 0.3289
386.50 0.3294
386.60 0.3299
386.70 0.3304
386.80 0.3309
386.90 0.3313
387.00 0.3318
387.10 0.3323
387.20 0.3328
387.30 0.3333
387.40 0.3338
387.50 0.3343
387.60 0.3348
387.70 0.3352
387.80 0.3357
387.90 0.3362
388.00 0.3367
388.10 0.3372
388.20 0.3377
388.30 0.3382
388.40 0.3387
388.50 0.3392
388.60 0.3397
388.70 0.3402
388.80 0.3406
388.90 0.3411
389.00 0.3416
389.10 0.3421
389.20 0.3426
389.30 0.3431
389.40 0.3436
389.50 0.3441
389.60 0.3446
389.70 0.3451
389.80 0.3456
389.90 0.3461
390.00 0.3466
390.10 0.3471
390.20 0.3476
390.30 0.3481
390.40 0.3486
390.50 0.3491
390.60 0.3496
390.70 0.3501
390.80 0.3506
390.90 0.3511
391.00 0.3516
391.10 0.3521
391.20 0.3526
391.30 0.3531
391.40 0.3536
391.50 0.3541
391.60 0.3546
391.70 0.3551
391.80 0.3556
391.90 0.3561
392.00 0.3566
392.10 0.3571
392.20 0.3576
392.30 0.3581
392.40 0.3586
392.50 0.3591
392.60 0.3596
392.70 0.3601
392.80 0.3606
392.90 0.3611
393.00 0.3616
393.10 0.3621
393.20 0.3626
393.30 0.3631
393.40 0.3636
393.50 0.3642
393.60 0.3647
393.70 0.3652
393.80 0.3657
393.90 0.3662
394.00 0.3667
394.10 0.3672
394.20 0.3677
394.30 0.3682
394.40 0.3687
394.50 0.3692
394.60 0.3698
394.70 0.3703
394.80 0.3708
394.90 0.3713
395.00 0.3718
395.10 0.3723
395.20 0.3728
395.30 0.3733
395.40 0.3739
395.50 0.3744
395.60 0.3749
395.70 0.3754
395.80 0.3759
395.90 0.3764
396.00 0.3769
396.10 0.3774
396.20 0.378
396.30 0.3785
396.40 0.379
396.50 0.3795
396.60 0.38
396.70 0.3805
396.80 0.3811
396.90 0.3816
397.00 0.3821
397.10 0.3826
397.20 0.3831
397.30 0.3837
397.40 0.3842
397.50 0.3847
397.60 0.3852
397.70 0.3857
397.80 0.3863
397.90 0.3868
398.00 0.3873
398.10 0.3878
398.20 0.3883
398.30 0.3889
398.40 0.3894
398.50 0.3899
398.60 0.3904
398.70 0.3909
398.80 0.3915
398.90 0.392
399.00 0.3925
399.10 0.393
399.20 0.3936
399.30 0.3941
399.40 0.3946
399.50 0.3951
399.60 0.3957
399.70 0.3962
399.80 0.3967
399.90 0.3972
400.00 0.3978
400.10 0.3983
400.20 0.3988
400.30 0.3993
400.40 0.3999
400.50 0.4004
400.60 0.4009
400.70 0.4015
400.80 0.402
400.90 0.4025
401.00 0.403
401.10 0.4036
401.20 0.4041
401.30 0.4046
401.40 0.4052
401.50 0.4057
401.60 0.4062
401.70 0.4068
401.80 0.4073
401.90 0.4078
402.00 0.4084
402.10 0.4089
402.20 0.4094
402.30 0.4099
402.40 0.4105
402.50 0.411
402.60 0.4115
402.70 0.4121
402.80 0.4126
402.90 0.4131
403.00 0.4137
403.10 0.4142
403.20 0.4148
403.30 0.4153
403.40 0.4158
403.50 0.4164
403.60 0.4169
403.70 0.4174
403.80 0.418
403.90 0.4185
404.00 0.419
404.10 0.4196
404.20 0.4201
404.30 0.4207
404.40 0.4212
404.50 0.4217
404.60 0.4223
404.70 0.4228
404.80 0.4234
404.90 0.4239
405.00 0.4244
405.10 0.425
405.20 0.4255
405.30 0.4261
405.40 0.4266
405.50 0.4271
405.60 0.4277
405.70 0.4282
405.80 0.4288
405.90 0.4293
406.00 0.4298
406.10 0.4304
406.20 0.4309
406.30 0.4315
406.40 0.432
406.50 0.4326
406.60 0.4331
406.70 0.4336
406.80 0.4342
406.90 0.4347
407.00 0.4353
407.10 0.4358
407.20 0.4364
407.30 0.4369
407.40 0.4375
407.50 0.438
407.60 0.4386
407.70 0.4391
407.80 0.4397
407.90 0.4402
408.00 0.4407
408.10 0.4413
408.20 0.4418
408.30 0.4424
408.40 0.4429
408.50 0.4435
408.60 0.444
408.70 0.4446
408.80 0.4451
408.90 0.4457
409.00 0.4462
409.10 0.4468
409.20 0.4473
409.30 0.4479
409.40 0.4484
409.50 0.449
409.60 0.4495
409.70 0.4501
409.80 0.4506
409.90 0.4512
410.00 0.4517
410.10 0.4523
410.20 0.4529
410.30 0.4534
410.40 0.454
410.50 0.4545
410.60 0.4551
410.70 0.4556
410.80 0.4562
410.90 0.4567
411.00 0.4573
411.10 0.4578
411.20 0.4584
411.30 0.459
411.40 0.4595
411.50 0.4601
411.60 0.4606
411.70 0.4612
411.80 0.4617
411.90 0.4623
412.00 0.4628
412.10 0.4634
412.20 0.464
412.30 0.4645
412.40 0.4651
412.50 0.4656
412.60 0.4662
412.70 0.4668
412.80 0.4673
412.90 0.4679
413.00 0.4684
413.10 0.469
413.20 0.4696
413.30 0.4701
413.40 0.4707
413.50 0.4712
413.60 0.4718
413.70 0.4724
413.80 0.4729
413.90 0.4735
414.00 0.4741
414.10 0.4746
414.20 0.4752
414.30 0.4757
414.40 0.4763
414.50 0.4769
414.60 0.4774
414.70 0.478
414.80 0.4786
414.90 0.4791
415.00 0.4797
415.10 0.4802
415.20 0.4808
415.30 0.4814
415.40 0.4819
415.50 0.4825
415.60 0.4831
415.70 0.4836
415.80 0.4842
415.90 0.4848
416.00 0.4853
416.10 0.4859
416.20 0.4865
416.30 0.487
416.40 0.4876
416.50 0.4882
416.60 0.4887
416.70 0.4893
416.80 0.4899
416.90 0.4904
417.00 0.491
417.10 0.4916
417.20 0.4922
417.30 0.4927
417.40 0.4933
417.50 0.4939
417.60 0.4944
417.70 0.495
417.80 0.4956
417.90 0.4961
418.00 0.4967
418.10 0.4973
418.20 0.4979
418.30 0.4984
418.40 0.499
418.50 0.4996
418.60 0.5001
418.70 0.5007
418.80 0.5013
418.90 0.5019
419.00 0.5024
419.10 0.503
419.20 0.5036
419.30 0.5042
419.40 0.5047
419.50 0.5053
419.60 0.5059
419.70 0.5064
419.80 0.507
419.90 0.5076
420.00 0.5082
420.10 0.5088
420.20 0.5093
420.30 0.5099
420.40 0.5105
420.50 0.5111
420.60 0.5116
420.70 0.5122
420.80 0.5128
420.90 0.5134
421.00 0.5139
421.10 0.5145
421.20 0.5151
421.30 0.5157
421.40 0.5162
421.50 0.5168
421.60 0.5174
421.70 0.518
421.80 0.5186
421.90 0.5191
422.00 0.5197
422.10 0.5203
422.20 0.5209
422.30 0.5215
422.40 0.522
422.50 0.5226
422.60 0.5232
422.70 0.5238
422.80 0.5244
422.90 0.5249
423.00 0.5255
423.10 0.5261
423.20 0.5267
423.30 0.5273
423.40 0.5278
423.50 0.5284
423.60 0.529
423.70 0.5296
423.80 0.5302
423.90 0.5308
424.00 0.5313
424.10 0.5319
424.20 0.5325
424.30 0.5331
424.40 0.5337
424.50 0.5343
424.60 0.5348
424.70 0.5354
424.80 0.536
424.90 0.5366
425.00 0.5372
425.10 0.5378
425.20 0.5384
425.30 0.5389
425.40 0.5395
425.50 0.5401
425.60 0.5407
425.70 0.5413
425.80 0.5419
425.90 0.5425
426.00 0.543
426.10 0.5436
426.20 0.5442
426.30 0.5448
426.40 0.5454
426.50 0.546
426.60 0.5466
426.70 0.5472
426.80 0.5477
426.90 0.5483
427.00 0.5489
427.10 0.5495
427.20 0.5501
427.30 0.5507
427.40 0.5513
427.50 0.5519
427.60 0.5525
427.70 0.553
427.80 0.5536
427.90 0.5542
428.00 0.5548
428.10 0.5554
428.20 0.556
428.30 0.5566
428.40 0.5572
428.50 0.5578
428.60 0.5584
428.70 0.5589
428.80 0.5595
428.90 0.5601
429.00 0.5607
429.10 0.5613
429.20 0.5619
429.30 0.5625
429.40 0.5631
429.50 0.5637
429.60 0.5643
429.70 0.5649
429.80 0.5655
429.90 0.5661
430.00 0.5667
430.10 0.5672
430.20 0.5678
430.30 0.5684
430.40 0.569
430.50 0.5696
430.60 0.5702
430.70 0.5708
430.80 0.5714
430.90 0.572
431.00 0.5726
431.10 0.5732
431.20 0.5738
431.30 0.5744
431.40 0.575
431.50 0.5756
431.60 0.5762
431.70 0.5768
431.80 0.5774
431.90 0.578
432.00 0.5786
432.10 0.5792
432.20 0.5798
432.30 0.5803
432.40 0.5809
432.50 0.5815
432.60 0.5821
432.70 0.5827
432.80 0.5833
432.90 0.5839
433.00 0.5845
433.10 0.5851
433.20 0.5857
433.30 0.5863
433.40 0.5869
433.50 0.5875
433.60 0.5881
433.70 0.5887
433.80 0.5893
433.90 0.5899
434.00 0.5905
434.10 0.5911
434.20 0.5917
434.30 0.5923
434.40 0.5929
434.50 0.5935
434.60 0.5941
434.70 0.5947
434.80 0.5953
434.90 0.5959
435.00 0.5965
435.10 0.5971
435.20 0.5977
435.30 0.5983
435.40 0.5989
435.50 0.5995
435.60 0.6001
435.70 0.6007
435.80 0.6013
435.90 0.602
436.00 0.6026
436.10 0.6032
436.20 0.6038
436.30 0.6044
436.40 0.605
436.50 0.6056
436.60 0.6062
436.70 0.6068
436.80 0.6074
436.90 0.608
437.00 0.6086
437.10 0.6092
437.20 0.6098
437.30 0.6104
437.40 0.611
437.50 0.6116
437.60 0.6122
437.70 0.6128
437.80 0.6134
437.90 0.614
438.00 0.6146
438.10 0.6152
438.20 0.6158
438.30 0.6165
438.40 0.6171
438.50 0.6177
438.60 0.6183
438.70 0.6189
438.80 0.6195
438.90 0.6201
439.00 0.6207
439.10 0.6213
439.20 0.6219
439.30 0.6225
439.40 0.6231
439.50 0.6237
439.60 0.6243
439.70 0.625
439.80 0.6256
439.90 0.6262
440.00 0.6268
440.10 0.6274
440.20 0.628
440.30 0.6286
440.40 0.6292
440.50 0.6298
440.60 0.6304
440.70 0.631
440.80 0.6316
440.90 0.6323
441.00 0.6329
441.10 0.6335
441.20 0.6341
441.30 0.6347
441.40 0.6353
441.50 0.6359
441.60 0.6365
441.70 0.6371
441.80 0.6377
441.90 0.6384
442.00 0.639
442.10 0.6396
442.20 0.6402
442.30 0.6408
442.40 0.6414
442.50 0.642
442.60 0.6426
442.70 0.6432
442.80 0.6439
442.90 0.6445
443.00 0.6451
443.10 0.6457
443.20 0.6463
443.30 0.6469
443.40 0.6475
443.50 0.6481
443.60 0.6488
443.70 0.6494
443.80 0.65
443.90 0.6506
444.00 0.6512
444.10 0.6518
444.20 0.6524
444.30 0.653
444.40 0.6537
444.50 0.6543
444.60 0.6549
444.70 0.6555
444.80 0.6561
444.90 0.6567
445.00 0.6573
445.10 0.6579
445.20 0.6586
445.30 0.6592
445.40 0.6598
445.50 0.6604
445.60 0.661
445.70 0.6616
445.80 0.6622
445.90 0.6629
446.00 0.6635
446.10 0.6641
446.20 0.6647
446.30 0.6654
446.40 0.666
446.50 0.6665
446.60 0.6672
446.70 0.6678
446.80 0.6684
446.90 0.669
447.00 0.6696
447.10 0.6703
447.20 0.6709
447.30 0.6715
447.40 0.6721
447.50 0.6727
447.60 0.6733
447.70 0.674
447.80 0.6746
447.90 0.6752
448.00 0.6758
448.10 0.6764
448.20 0.677
448.30 0.6776
448.40 0.6782
448.50 0.6789
448.60 0.6795
448.70 0.6801
448.80 0.6807
448.90 0.6813
449.00 0.682
449.10 0.6826
449.20 0.6832
449.30 0.6838
449.40 0.6844
449.50 0.685
449.60 0.6857
449.70 0.6863
449.80 0.6869
449.90 0.6875
450.00 0.6881
450.10 0.6888
450.20 0.6894
450.30 0.69
450.40 0.6906
450.50 0.6912
450.60 0.6919
450.70 0.6925
450.80 0.6931
450.90 0.6937
451.00 0.6944
451.10 0.6949
451.20 0.6956
451.30 0.6962
451.40 0.6968
451.50 0.6974
451.60 0.698
451.70 0.6987
451.80 0.6993
451.90 0.6999
452.00 0.7006
452.10 0.7012
452.20 0.7018
452.30 0.7024
452.40 0.703
452.50 0.7036
452.60 0.7042
452.70 0.7049
452.80 0.7055
452.90 0.7061
453.00 0.7067
453.10 0.7074
453.20 0.708
453.30 0.7086
453.40 0.7092
453.50 0.7098
453.60 0.7105
453.70 0.7111
453.80 0.7117
453.90 0.7123
454.00 0.713
454.10 0.7136
454.20 0.7142
454.30 0.7148
454.40 0.7154
454.50 0.7161
454.60 0.7167
454.70 0.7173
454.80 0.7179
454.90 0.7186
455.00 0.7192
455.10 0.7198
455.20 0.7205
455.30 0.7211
455.40 0.7217
455.50 0.7223
455.60 0.723
455.70 0.7236
455.80 0.7242
455.90 0.7248
456.00 0.7254
456.10 0.7261
456.20 0.7267
456.30 0.7273
456.40 0.7279
456.50 0.7286
456.60 0.7292
456.70 0.7298
456.80 0.7304
456.90 0.731
457.00 0.7317
457.10 0.7323
457.20 0.7329
457.30 0.7335
457.40 0.7341
457.50 0.7348
457.60 0.7354
457.70 0.736
457.80 0.7366
457.90 0.7373
458.00 0.7379
458.10 0.7385
458.20 0.7391
458.30 0.7398
458.40 0.7404
458.50 0.741
458.60 0.7416
458.70 0.7423
458.80 0.7429
458.90 0.7435
459.00 0.7441
459.10 0.7448
459.20 0.7454
459.30 0.746
459.40 0.7467
459.50 0.7473
459.60 0.7479
459.70 0.7485
459.80 0.7492
459.90 0.7498
460.00 0.7504
460.10 0.751
460.20 0.7517
460.30 0.7523
460.40 0.7529
460.50 0.7535
460.60 0.7542
460.70 0.7548
460.80 0.7554
460.90 0.756
461.00 0.7566
461.10 0.7573
461.20 0.7579
461.30 0.7585
461.40 0.7591
461.50 0.7598
461.60 0.7604
461.70 0.761
461.80 0.7616
461.90 0.7623
462.00 0.7629
462.10 0.7635
462.20 0.7641
462.30 0.7648
462.40 0.7654
462.50 0.766
462.60 0.7667
462.70 0.7673
462.80 0.7679
462.90 0.7685
463.00 0.7692
463.10 0.7698
463.20 0.7704
463.30 0.771
463.40 0.7717
463.50 0.7723
463.60 0.7729
463.70 0.7735
463.80 0.7742
463.90 0.7748
464.00 0.7754
464.10 0.776
464.20 0.7767
464.30 0.7773
464.40 0.7779
464.50 0.7786
464.60 0.7792
464.70 0.7798
464.80 0.7805
464.90 0.7811
465.00 0.7817
465.10 0.7823
465.20 0.783
465.30 0.7836
465.40 0.7842
465.50 0.7848
465.60 0.7855
465.70 0.7861
465.80 0.7867
465.90 0.7873
466.00 0.788
466.10 0.7886
466.20 0.7892
466.30 0.7898
466.40 0.7905
466.50 0.7911
466.60 0.7917
466.70 0.7924
466.80 0.793
466.90 0.7936
467.00 0.7942
467.10 0.7949
467.20 0.7955
467.30 0.7961
467.40 0.7968
467.50 0.7974
467.60 0.798
467.70 0.7986
467.80 0.7993
467.90 0.7999
468.00 0.8005
468.10 0.8011
468.20 0.8017
468.30 0.8024
468.40 0.803
468.50 0.8036
468.60 0.8043
468.70 0.8049
468.80 0.8055
468.90 0.8062
469.00 0.8068
469.10 0.8074
469.20 0.808
469.30 0.8087
469.40 0.8093
469.50 0.8099
469.60 0.8105
469.70 0.8112
469.80 0.8118
469.90 0.8124
470.00 0.813
470.10 0.8137
470.20 0.8143
470.30 0.8149
470.40 0.8156
470.50 0.8162
470.60 0.8168
470.70 0.8175
470.80 0.8181
470.90 0.8187
471.00 0.8194
471.10 0.82
471.20 0.8206
471.30 0.8213
471.40 0.8219
471.50 0.8225
471.60 0.8231
471.70 0.8237
471.80 0.8244
471.90 0.825
472.00 0.8256
472.10 0.8262
472.20 0.8269
472.30 0.8275
472.40 0.8281
472.50 0.8288
472.60 0.8294
472.70 0.83
472.80 0.8306
472.90 0.8313
473.00 0.8319
473.10 0.8325
473.20 0.8332
473.30 0.8338
473.40 0.8344
473.50 0.835
473.60 0.8357
473.70 0.8363
473.80 0.8369
473.90 0.8376
474.00 0.8382
474.10 0.8388
474.20 0.8394
474.30 0.8401
474.40 0.8407
474.50 0.8413
474.60 0.842
474.70 0.8426
474.80 0.8432
474.90 0.8438
475.00 0.8445
475.10 0.8451
475.20 0.8457
475.30 0.8464
475.40 0.847
475.50 0.8476
475.60 0.8482
475.70 0.8489
475.80 0.8495
475.90 0.8501
476.00 0.8508
476.10 0.8514
476.20 0.852
476.30 0.8526
476.40 0.8533
476.50 0.8539
476.60 0.8545
476.70 0.8551
476.80 0.8557
476.90 0.8564
477.00 0.857
477.10 0.8576
477.20 0.8582
477.30 0.8589
477.40 0.8595
477.50 0.8601
477.60 0.8608
477.70 0.8614
477.80 0.862
477.90 0.8626
478.00 0.8633
478.10 0.8639
478.20 0.8645
478.30 0.8651
478.40 0.8658
478.50 0.8664
478.60 0.867
478.70 0.8677
478.80 0.8683
478.90 0.8689
479.00 0.8695
479.10 0.8702
479.20 0.8708
479.30 0.8714
479.40 0.8721
479.50 0.8727
479.60 0.8733
479.70 0.8739
479.80 0.8746
479.90 0.8752
480.00 0.8758
480.10 0.8765
480.20 0.8771
480.30 0.8777
480.40 0.8783
480.50 0.879
480.60 0.8796
480.70 0.8802
480.80 0.8808
480.90 0.8815
481.00 0.8821
481.10 0.8827
481.20 0.8833
481.30 0.884
481.40 0.8846
481.50 0.8852
481.60 0.8858
481.70 0.8865
481.80 0.8871
481.90 0.8877
482.00 0.8884
482.10 0.889
482.20 0.8896
482.30 0.8902
482.40 0.8909
482.50 0.8915
482.60 0.8921
482.70 0.8927
482.80 0.8934
482.90 0.894
483.00 0.8946
483.10 0.8952
483.20 0.8959
483.30 0.8965
483.40 0.8971
483.50 0.8977
483.60 0.8984
483.70 0.899
483.80 0.8996
483.90 0.9003
484.00 0.9009
484.10 0.9015
484.20 0.9021
484.30 0.9027
484.40 0.9034
484.50 0.904
484.60 0.9046
484.70 0.9052
484.80 0.9058
484.90 0.9065
485.00 0.9071
485.10 0.9077
485.20 0.9083
485.30 0.909
485.40 0.9096
485.50 0.9102
485.60 0.9108
485.70 0.9115
485.80 0.9121
485.90 0.9127
486.00 0.9134
486.10 0.914
486.20 0.9146
486.30 0.9152
486.40 0.9158
486.50 0.9164
486.60 0.9171
486.70 0.9177
486.80 0.9184
486.90 0.919
487.00 0.9196
487.10 0.9202
487.20 0.9208
487.30 0.9215
487.40 0.9221
487.50 0.9227
487.60 0.9233
487.70 0.924
487.80 0.9246
487.90 0.9252
488.00 0.9258
488.10 0.9265
488.20 0.9271
488.30 0.9277
488.40 0.9283
488.50 0.9289
488.60 0.9296
488.70 0.9302
488.80 0.9308
488.90 0.9314
489.00 0.932
489.10 0.9326
489.20 0.9333
489.30 0.9339
489.40 0.9345
489.50 0.9351
489.60 0.9358
489.70 0.9364
489.80 0.937
489.90 0.9376
490.00 0.9383
490.10 0.9389
490.20 0.9395
490.30 0.9401
490.40 0.9408
490.50 0.9414
490.60 0.942
490.70 0.9426
490.80 0.9432
490.90 0.9439
491.00 0.9445
491.10 0.9451
491.20 0.9457
491.30 0.9464
491.40 0.947
491.50 0.9476
491.60 0.9482
491.70 0.9488
491.80 0.9495
491.90 0.9501
492.00 0.9507
492.10 0.9513
492.20 0.9519
492.30 0.9526
492.40 0.9532
492.50 0.9538
492.60 0.9544
492.70 0.955
492.80 0.9557
492.90 0.9563
493.00 0.9569
493.10 0.9575
493.20 0.9581
493.30 0.9588
493.40 0.9594
493.50 0.96
493.60 0.9606
493.70 0.9612
493.80 0.9618
493.90 0.9625
494.00 0.9631
494.10 0.9637
494.20 0.9643
494.30 0.9649
494.40 0.9655
494.50 0.9662
494.60 0.9668
494.70 0.9674
494.80 0.968
494.90 0.9686
495.00 0.9692
495.10 0.9698
495.20 0.9705
495.30 0.9711
495.40 0.9717
495.50 0.9723
495.60 0.9729
495.70 0.9736
495.80 0.9742
495.90 0.9748
496.00 0.9754
496.10 0.976
496.20 0.9766
496.30 0.9773
496.40 0.9779
496.50 0.9785
496.60 0.9791
496.70 0.9797
496.80 0.9804
496.90 0.981
497.00 0.9816
497.10 0.9822
497.20 0.9828
497.30 0.9835
497.40 0.9841
497.50 0.9847
497.60 0.9853
497.70 0.9859
497.80 0.9865
497.90 0.9871
498.00 0.9878
498.10 0.9884
498.20 0.989
498.30 0.9896
498.40 0.9902
498.50 0.9908
498.60 0.9914
498.70 0.9921
498.80 0.9927
498.90 0.9933
499.00 0.9939
499.10 0.9945
499.20 0.9951
499.30 0.9957
499.40 0.9963
499.50 0.997
499.60 0.9976
499.70 0.9982
499.80 0.9988
499.90 0.9994
500.00 1
500.10 1.001
500.20 1.001
500.30 1.002
500.40 1.002
500.50 1.003
500.60 1.004
500.70 1.004
500.80 1.005
500.90 1.006
501.00 1.006
501.10 1.007
501.20 1.007
501.30 1.008
501.40 1.009
501.50 1.009
501.60 1.01
501.70 1.01
501.80 1.011
501.90 1.012
502.00 1.012
502.10 1.013
502.20 1.013
502.30 1.014
502.40 1.015
502.50 1.015
502.60 1.016
502.70 1.017
502.80 1.017
502.90 1.018
503.00 1.018
503.10 1.019
503.20 1.02
503.30 1.02
503.40 1.021
503.50 1.021
503.60 1.022
503.70 1.023
503.80 1.023
503.90 1.024
504.00 1.024
504.10 1.025
504.20 1.026
504.30 1.026
504.40 1.027
504.50 1.027
504.60 1.028
504.70 1.029
504.80 1.029
504.90 1.03
505.00 1.03
505.10 1.031
505.20 1.032
505.30 1.032
505.40 1.033
505.50 1.034
505.60 1.034
505.70 1.035
505.80 1.035
505.90 1.036
506.00 1.037
506.10 1.037
506.20 1.038
506.30 1.038
506.40 1.039
506.50 1.04
506.60 1.04
506.70 1.041
506.80 1.041
506.90 1.042
507.00 1.043
507.10 1.043
507.20 1.044
507.30 1.044
507.40 1.045
507.50 1.046
507.60 1.046
507.70 1.047
507.80 1.047
507.90 1.048
508.00 1.049
508.10 1.049
508.20 1.05
508.30 1.05
508.40 1.051
508.50 1.052
508.60 1.052
508.70 1.053
508.80 1.053
508.90 1.054
509.00 1.055
509.10 1.055
509.20 1.056
509.30 1.056
509.40 1.057
509.50 1.058
509.60 1.058
509.70 1.059
509.80 1.059
509.90 1.06
510.00 1.061
510.10 1.061
510.20 1.062
510.30 1.062
510.40 1.063
510.50 1.064
510.60 1.064
510.70 1.065
510.80 1.065
510.90 1.066
511.00 1.067
511.10 1.067
511.20 1.068
511.30 1.068
511.40 1.069
511.50 1.07
511.60 1.07
511.70 1.071
511.80 1.071
511.90 1.072
512.00 1.073
512.10 1.073
512.20 1.074
512.30 1.074
512.40 1.075
512.50 1.076
512.60 1.076
512.70 1.077
512.80 1.077
512.90 1.078
513.00 1.079
513.10 1.079
513.20 1.08
513.30 1.08
513.40 1.081
513.50 1.082
513.60 1.082
513.70 1.083
513.80 1.083
513.90 1.084
514.00 1.085
514.10 1.085
514.20 1.086
514.30 1.086
514.40 1.087
514.50 1.088
514.60 1.088
514.70 1.089
514.80 1.089
514.90 1.09
515.00 1.091
515.10 1.091
515.20 1.092
515.30 1.092
515.40 1.093
515.50 1.094
515.60 1.094
515.70 1.095
515.80 1.095
515.90 1.096
516.00 1.096
516.10 1.097
516.20 1.098
516.30 1.098
516.40 1.099
516.50 1.099
516.60 1.1
516.70 1.101
516.80 1.101
516.90 1.102
517.00 1.102
517.10 1.103
517.20 1.104
517.30 1.104
517.40 1.105
517.50 1.105
517.60 1.106
517.70 1.106
517.80 1.107
517.90 1.108
518.00 1.108
518.10 1.109
518.20 1.109
518.30 1.11
518.40 1.111
518.50 1.111
518.60 1.112
518.70 1.112
518.80 1.113
518.90 1.114
519.00 1.114
519.10 1.115
519.20 1.115
519.30 1.116
519.40 1.116
519.50 1.117
519.60 1.118
519.70 1.118
519.80 1.119
519.90 1.119
520.00 1.12
520.10 1.121
520.20 1.121
520.30 1.122
520.40 1.122
520.50 1.123
520.60 1.123
520.70 1.124
520.80 1.125
520.90 1.125
521.00 1.126
521.10 1.126
521.20 1.127
521.30 1.128
521.40 1.128
521.50 1.129
521.60 1.129
521.70 1.13
521.80 1.13
521.90 1.131
522.00 1.132
522.10 1.132
522.20 1.133
522.30 1.133
522.40 1.134
522.50 1.134
522.60 1.135
522.70 1.136
522.80 1.136
522.90 1.137
523.00 1.137
523.10 1.138
523.20 1.139
523.30 1.139
523.40 1.14
523.50 1.14
523.60 1.141
523.70 1.141
523.80 1.142
523.90 1.143
524.00 1.143
524.10 1.144
524.20 1.144
524.30 1.145
524.40 1.145
524.50 1.146
524.60 1.147
524.70 1.147
524.80 1.148
524.90 1.148
525.00 1.149
525.10 1.15
525.20 1.15
525.30 1.151
525.40 1.151
525.50 1.152
525.60 1.152
525.70 1.153
525.80 1.154
525.90 1.154
526.00 1.155
526.10 1.155
526.20 1.156
526.30 1.156
526.40 1.157
526.50 1.158
526.60 1.158
526.70 1.159
526.80 1.159
526.90 1.16
527.00 1.16
527.10 1.161
527.20 1.162
527.30 1.162
527.40 1.163
527.50 1.163
527.60 1.164
527.70 1.164
527.80 1.165
527.90 1.166
528.00 1.166
528.10 1.167
528.20 1.167
528.30 1.168
528.40 1.168
528.50 1.169
528.60 1.17
528.70 1.17
528.80 1.171
528.90 1.171
529.00 1.172
529.10 1.172
529.20 1.173
529.30 1.173
529.40 1.174
529.50 1.175
529.60 1.175
529.70 1.176
529.80 1.176
529.90 1.177
530.00 1.177
530.10 1.178
530.20 1.179
530.30 1.179
530.40 1.18
530.50 1.18
530.60 1.181
530.70 1.181
530.80 1.182
530.90 1.182
531.00 1.183
531.10 1.184
531.20 1.184
531.30 1.185
531.40 1.185
531.50 1.186
531.60 1.186
531.70 1.187
531.80 1.188
531.90 1.188
532.00 1.189
532.10 1.189
532.20 1.19
532.30 1.19
532.40 1.191
532.50 1.191
532.60 1.192
532.70 1.193
532.80 1.193
532.90 1.194
533.00 1.194
533.10 1.195
533.20 1.195
533.30 1.196
533.40 1.196
533.50 1.197
533.60 1.198
533.70 1.198
533.80 1.199
533.90 1.199
534.00 1.2
534.10 1.2
534.20 1.201
534.30 1.201
534.40 1.202
534.50 1.203
534.60 1.203
534.70 1.204
534.80 1.204
534.90 1.205
535.00 1.205
535.10 1.206
535.20 1.206
535.30 1.207
535.40 1.208
535.50 1.208
535.60 1.209
535.70 1.209
535.80 1.21
535.90 1.21
536.00 1.211
536.10 1.211
536.20 1.212
536.30 1.212
536.40 1.213
536.50 1.214
536.60 1.214
536.70 1.215
536.80 1.215
536.90 1.216
537.00 1.216
537.10 1.217
537.20 1.217
537.30 1.218
537.40 1.218
537.50 1.219
537.60 1.22
537.70 1.22
537.80 1.221
537.90 1.221
538.00 1.222
538.10 1.222
538.20 1.223
538.30 1.223
538.40 1.224
538.50 1.224
538.60 1.225
538.70 1.226
538.80 1.226
538.90 1.227
539.00 1.227
539.10 1.228
539.20 1.228
539.30 1.229
539.40 1.229
539.50 1.23
539.60 1.23
539.70 1.231
539.80 1.231
539.90 1.232
540.00 1.233
540.10 1.233
540.20 1.234
540.30 1.234
540.40 1.235
540.50 1.235
540.60 1.236
540.70 1.236
540.80 1.237
540.90 1.237
541.00 1.238
541.10 1.238
541.20 1.239
541.30 1.24
541.40 1.24
541.50 1.241
541.60 1.241
541.70 1.242
541.80 1.242
541.90 1.243
542.00 1.243
542.10 1.244
542.20 1.244
542.30 1.245
542.40 1.245
542.50 1.246
542.60 1.246
542.70 1.247
542.80 1.248
542.90 1.248
543.00 1.249
543.10 1.249
543.20 1.25
543.30 1.25
543.40 1.251
543.50 1.251
543.60 1.252
543.70 1.252
543.80 1.253
543.90 1.253
544.00 1.254
544.10 1.254
544.20 1.255
544.30 1.255
544.40 1.256
544.50 1.256
544.60 1.257
544.70 1.258
544.80 1.258
544.90 1.259
545.00 1.259
545.10 1.26
545.20 1.26
545.30 1.261
545.40 1.261
545.50 1.262
545.60 1.262
545.70 1.263
545.80 1.263
545.90 1.264
546.00 1.264
546.10 1.265
546.20 1.265
546.30 1.266
546.40 1.266
546.50 1.267
546.60 1.267
546.70 1.268
546.80 1.268
546.90 1.269
547.00 1.269
547.10 1.27
547.20 1.271
547.30 1.271
547.40 1.272
547.50 1.272
547.60 1.273
547.70 1.273
547.80 1.274
547.90 1.274
548.00 1.275
548.10 1.275
548.20 1.276
548.30 1.276
548.40 1.277
548.50 1.277
548.60 1.278
548.70 1.278
548.80 1.279
548.90 1.279
549.00 1.28
549.10 1.28
549.20 1.281
549.30 1.281
549.40 1.282
549.50 1.282
549.60 1.283
549.70 1.283
549.80 1.284
549.90 1.284
550.00 1.285
550.10 1.285
550.20 1.286
550.30 1.286
550.40 1.287
550.50 1.287
550.60 1.288
550.70 1.288
550.80 1.289
550.90 1.289
551.00 1.29
551.10 1.29
551.20 1.291
551.30 1.291
551.40 1.292
551.50 1.292
551.60 1.293
551.70 1.293
551.80 1.294
551.90 1.294
552.00 1.295
552.10 1.295
552.20 1.296
552.30 1.296
552.40 1.297
552.50 1.297
552.60 1.298
552.70 1.298
552.80 1.299
552.90 1.299
553.00 1.3
553.10 1.3
553.20 1.301
553.30 1.301
553.40 1.302
553.50 1.302
553.60 1.303
553.70 1.303
553.80 1.304
553.90 1.304
554.00 1.305
554.10 1.305
554.20 1.306
554.30 1.306
554.40 1.307
554.50 1.307
554.60 1.308
554.70 1.308
554.80 1.309
554.90 1.309
555.00 1.31
555.10 1.31
555.20 1.311
555.30 1.311
555.40 1.312
555.50 1.312
555.60 1.313
555.70 1.313
555.80 1.314
555.90 1.314
556.00 1.314
556.10 1.315
556.20 1.315
556.30 1.316
556.40 1.316
556.50 1.317
556.60 1.317
556.70 1.318
556.80 1.318
556.90 1.319
557.00 1.319
557.10 1.32
557.20 1.32
557.30 1.321
557.40 1.321
557.50 1.322
557.60 1.322
557.70 1.323
557.80 1.323
557.90 1.324
558.00 1.324
558.10 1.325
558.20 1.325
558.30 1.325
558.40 1.326
558.50 1.326
558.60 1.327
558.70 1.327
558.80 1.328
558.90 1.328
559.00 1.329
559.10 1.329
559.20 1.33
559.30 1.33
559.40 1.331
559.50 1.331
559.60 1.332
559.70 1.332
559.80 1.333
559.90 1.333
560.00 1.333
560.10 1.334
560.20 1.334
560.30 1.335
560.40 1.335
560.50 1.336
560.60 1.336
560.70 1.337
560.80 1.337
560.90 1.338
561.00 1.338
561.10 1.339
561.20 1.339
561.30 1.339
561.40 1.34
561.50 1.34
561.60 1.341
561.70 1.341
561.80 1.342
561.90 1.342
562.00 1.343
562.10 1.343
562.20 1.344
562.30 1.344
562.40 1.345
562.50 1.345
562.60 1.345
562.70 1.346
562.80 1.346
562.90 1.347
563.00 1.347
563.10 1.348
563.20 1.348
563.30 1.349
563.40 1.349
563.50 1.35
563.60 1.35
563.70 1.35
563.80 1.351
563.90 1.351
564.00 1.352
564.10 1.352
564.20 1.353
564.30 1.353
564.40 1.354
564.50 1.354
564.60 1.354
564.70 1.355
564.80 1.355
564.90 1.356
565.00 1.356
565.10 1.357
565.20 1.357
565.30 1.358
565.40 1.358
565.50 1.358
565.60 1.359
565.70 1.359
565.80 1.36
565.90 1.36
566.00 1.361
566.10 1.361
566.20 1.362
566.30 1.362
566.40 1.362
566.50 1.363
566.60 1.363
566.70 1.364
566.80 1.364
566.90 1.365
567.00 1.365
567.10 1.365
567.20 1.366
567.30 1.366
567.40 1.367
567.50 1.367
567.60 1.368
567.70 1.368
567.80 1.368
567.90 1.369
568.00 1.369
568.10 1.37
568.20 1.37
568.30 1.371
568.40 1.371
568.50 1.371
568.60 1.372
568.70 1.372
568.80 1.373
568.90 1.373
569.00 1.374
569.10 1.374
569.20 1.374
569.30 1.375
569.40 1.375
569.50 1.376
569.60 1.376
569.70 1.376
569.80 1.377
569.90 1.377
570.00 1.378
570.10 1.378
570.20 1.379
570.30 1.379
570.40 1.379
570.50 1.38
570.60 1.38
570.70 1.381
570.80 1.381
570.90 1.381
571.00 1.382
571.10 1.382
571.20 1.383
571.30 1.383
571.40 1.383
571.50 1.384
571.60 1.384
571.70 1.385
571.80 1.385
571.90 1.386
572.00 1.386
572.10 1.386
572.20 1.387
572.30 1.387
572.40 1.388
572.50 1.388
572.60 1.388
572.70 1.389
572.80 1.389
572.90 1.39
573.00 1.39
573.10 1.39
573.20 1.391
573.30 1.391
573.40 1.392
573.50 1.392
573.60 1.392
573.70 1.393
573.80 1.393
573.90 1.394
574.00 1.394
574.10 1.394
574.20 1.395
574.30 1.395
574.40 1.396
574.50 1.396
574.60 1.396
574.70 1.397
574.80 1.397
574.90 1.397
575.00 1.398
575.10 1.398
575.20 1.399
575.30 1.399
575.40 1.399
575.50 1.4
575.60 1.4
575.70 1.401
575.80 1.401
575.90 1.401
576.00 1.402
576.10 1.402
576.20 1.402
576.30 1.403
576.40 1.403
576.50 1.404
576.60 1.404
576.70 1.404
576.80 1.405
576.90 1.405
577.00 1.406
577.10 1.406
577.20 1.406
577.30 1.407
577.40 1.407
577.50 1.407
577.60 1.408
577.70 1.408
577.80 1.409
577.90 1.409
578.00 1.409
578.10 1.41
578.20 1.41
578.30 1.41
578.40 1.411
578.50 1.411
578.60 1.411
578.70 1.412
578.80 1.412
578.90 1.413
579.00 1.413
579.10 1.413
579.20 1.414
579.30 1.414
579.40 1.414
579.50 1.415
579.60 1.415
579.70 1.415
579.80 1.416
579.90 1.416
580.00 1.417
580.10 1.417
580.20 1.417
580.30 1.418
580.40 1.418
580.50 1.418
580.60 1.419
580.70 1.419
580.80 1.419
580.90 1.42
581.00 1.42
581.10 1.42
581.20 1.421
581.30 1.421
581.40 1.421
581.50 1.422
581.60 1.422
581.70 1.423
581.80 1.423
581.90 1.423
582.00 1.424
582.10 1.424
582.20 1.424
582.30 1.425
582.40 1.425
582.50 1.425
582.60 1.426
582.70 1.426
582.80 1.426
582.90 1.427
583.00 1.427
583.10 1.427
583.20 1.428
583.30 1.428
583.40 1.428
583.50 1.429
583.60 1.429
583.70 1.429
583.80 1.43
583.90 1.43
584.00 1.43
584.10 1.431
584.20 1.431
584.30 1.431
584.40 1.432
584.50 1.432
584.60 1.432
584.70 1.433
584.80 1.433
584.90 1.433
585.00 1.434
585.10 1.434
585.20 1.434
585.30 1.435
585.40 1.435
585.50 1.435
585.60 1.435
585.70 1.436
585.80 1.436
585.90 1.436
586.00 1.437
586.10 1.437
586.20 1.437
586.30 1.438
586.40 1.438
586.50 1.438
586.60 1.439
586.70 1.439
586.80 1.439
586.90 1.439
587.00 1.44
587.10 1.44
587.20 1.44
587.30 1.441
587.40 1.441
587.50 1.441
587.60 1.442
587.70 1.442
587.80 1.442
587.90 1.442
588.00 1.443
588.10 1.443
588.20 1.443
588.30 1.444
588.40 1.444
588.50 1.444
588.60 1.445
588.70 1.445
588.80 1.445
588.90 1.445
589.00 1.446
589.10 1.446
589.20 1.446
589.30 1.447
589.40 1.447
589.50 1.447
589.60 1.447
589.70 1.448
589.80 1.448
589.90 1.448
590.00 1.448
590.10 1.449
590.20 1.449
590.30 1.449
590.40 1.45
590.50 1.45
590.60 1.45
590.70 1.45
590.80 1.451
590.90 1.451
591.00 1.451
591.10 1.451
591.20 1.452
591.30 1.452
591.40 1.452
591.50 1.453
591.60 1.453
591.70 1.453
591.80 1.453
591.90 1.454
592.00 1.454
592.10 1.454
592.20 1.454
592.30 1.455
592.40 1.455
592.50 1.455
592.60 1.455
592.70 1.456
592.80 1.456
592.90 1.456
593.00 1.456
593.10 1.457
593.20 1.457
593.30 1.457
593.40 1.457
593.50 1.458
593.60 1.458
593.70 1.458
593.80 1.458
593.90 1.459
594.00 1.459
594.10 1.459
594.20 1.459
594.30 1.46
594.40 1.46
594.50 1.46
594.60 1.46
594.70 1.461
594.80 1.461
594.90 1.461
595.00 1.461
595.10 1.462
595.20 1.462
595.30 1.462
595.40 1.462
595.50 1.463
595.60 1.463
595.70 1.463
595.80 1.463
595.90 1.464
596.00 1.464
596.10 1.464
596.20 1.464
596.30 1.464
596.40 1.465
596.50 1.465
596.60 1.465
596.70 1.465
596.80 1.466
596.90 1.466
597.00 1.466
597.10 1.466
597.20 1.466
597.30 1.467
597.40 1.467
597.50 1.467
597.60 1.467
597.70 1.468
597.80 1.468
597.90 1.468
598.00 1.468
598.10 1.468
598.20 1.469
598.30 1.469
598.40 1.469
598.50 1.469
598.60 1.469
598.70 1.47
598.80 1.47
598.90 1.47
599.00 1.47
599.10 1.47
599.20 1.471
599.30 1.471
599.40 1.471
599.50 1.471
599.60 1.471
599.70 1.472
599.80 1.472
599.90 1.472
600.00 1.472
600.10 1.472
600.20 1.473
600.30 1.473
600.40 1.473
600.50 1.473
600.60 1.473
600.70 1.474
600.80 1.474
600.90 1.474
601.00 1.474
601.10 1.474
601.20 1.474
601.30 1.475
601.40 1.475
601.50 1.475
601.60 1.475
601.70 1.475
601.80 1.476
601.90 1.476
602.00 1.476
602.10 1.476
602.20 1.476
602.30 1.476
602.40 1.477
602.50 1.477
602.60 1.477
602.70 1.477
602.80 1.477
602.90 1.477
603.00 1.478
603.10 1.478
603.20 1.478
603.30 1.478
603.40 1.478
603.50 1.478
603.60 1.478
603.70 1.479
603.80 1.479
603.90 1.479
604.00 1.479
604.10 1.479
604.20 1.479
604.30 1.48
604.40 1.48
604.50 1.48
604.60 1.48
604.70 1.48
604.80 1.48
604.90 1.48
605.00 1.481
605.10 1.481
605.20 1.481
605.30 1.481
605.40 1.481
605.50 1.481
605.60 1.481
605.70 1.481
605.80 1.482
605.90 1.482
606.00 1.482
606.10 1.482
606.20 1.482
606.30 1.482
606.40 1.482
606.50 1.482
606.60 1.483
606.70 1.483
606.80 1.483
606.90 1.483
607.00 1.483
607.10 1.483
607.20 1.483
607.30 1.483
607.40 1.484
607.50 1.484
607.60 1.484
607.70 1.484
607.80 1.484
607.90 1.484
608.00 1.484
608.10 1.484
608.20 1.484
608.30 1.485
608.40 1.485
608.50 1.485
608.60 1.485
608.70 1.485
608.80 1.485
608.90 1.485
609.00 1.485
609.10 1.485
609.20 1.485
609.30 1.486
609.40 1.486
609.50 1.486
609.60 1.486
609.70 1.486
609.80 1.486
609.90 1.486
610.00 1.486
610.10 1.486
610.20 1.486
610.30 1.486
610.40 1.486
610.50 1.487
610.60 1.487
610.70 1.487
610.80 1.487
610.90 1.487
611.00 1.487
611.10 1.487
611.20 1.487
611.30 1.487
611.40 1.487
611.50 1.487
611.60 1.487
611.70 1.487
611.80 1.487
611.90 1.487
612.00 1.488
612.10 1.488
612.20 1.488
612.30 1.488
612.40 1.488
612.50 1.488
612.60 1.488
612.70 1.488
612.80 1.488
612.90 1.488
613.00 1.488
613.10 1.488
613.20 1.488
613.30 1.488
613.40 1.488
613.50 1.488
613.60 1.488
613.70 1.488
613.80 1.488
613.90 1.488
614.00 1.488
614.10 1.488
614.20 1.488
614.30 1.489
614.40 1.489
614.50 1.489
614.60 1.489
614.70 1.489
614.80 1.489
614.90 1.489
615.00 1.489
615.10 1.489
615.20 1.489
615.30 1.489
615.40 1.489
615.50 1.489
615.60 1.489
615.70 1.489
615.80 1.489
615.90 1.489
616.00 1.489
616.10 1.489
616.20 1.489
616.30 1.489
616.40 1.489
616.50 1.489
616.60 1.489
616.70 1.489
616.80 1.489
616.90 1.489
617.00 1.489
617.10 1.489
617.20 1.489
617.30 1.489
617.40 1.489
617.50 1.489
617.60 1.489
617.70 1.489
617.80 1.489
617.90 1.489
618.00 1.489
618.10 1.488
618.20 1.488
618.30 1.488
618.40 1.488
618.50 1.488
618.60 1.488
618.70 1.488
618.80 1.488
618.90 1.488
619.00 1.488
619.10 1.488
619.20 1.488
619.30 1.488
619.40 1.488
619.50 1.488
619.60 1.488
619.70 1.488
619.80 1.488
619.90 1.488
620.00 1.488
620.10 1.488
620.20 1.488
620.30 1.488
620.40 1.487
620.50 1.487
620.60 1.487
620.70 1.487
620.80 1.487
620.90 1.487
621.00 1.487
621.10 1.487
621.20 1.487
621.30 1.487
621.40 1.487
621.50 1.487
621.60 1.487
621.70 1.487
621.80 1.487
621.90 1.486
622.00 1.486
622.10 1.486
622.20 1.486
622.30 1.486
622.40 1.486
622.50 1.486
622.60 1.486
622.70 1.486
622.80 1.486
622.90 1.486
623.00 1.486
623.10 1.485
623.20 1.485
623.30 1.485
623.40 1.485
623.50 1.485
623.60 1.485
623.70 1.485
623.80 1.485
623.90 1.485
624.00 1.485
624.10 1.484
624.20 1.484
624.30 1.484
624.40 1.484
624.50 1.484
624.60 1.484
624.70 1.484
624.80 1.484
624.90 1.483
625.00 1.483
625.10 1.483
625.20 1.483
625.30 1.483
625.40 1.483
625.50 1.483
625.60 1.483
625.70 1.482
625.80 1.482
625.90 1.482
626.00 1.482
626.10 1.482
626.20 1.482
626.30 1.482
626.40 1.481
626.50 1.481
626.60 1.481
626.70 1.481
626.80 1.481
626.90 1.481
627.00 1.481
627.10 1.48
627.20 1.48
627.30 1.48
627.40 1.48
627.50 1.48
627.60 1.48
627.70 1.479
627.80 1.479
627.90 1.479
628.00 1.479
628.10 1.479
628.20 1.479
628.30 1.478
628.40 1.478
628.50 1.478
628.60 1.478
628.70 1.478
628.80 1.477
628.90 1.477
629.00 1.477
629.10 1.477
629.20 1.477
629.30 1.476
629.40 1.476
629.50 1.476
629.60 1.476
629.70 1.476
629.80 1.475
629.90 1.475
630.00 1.475
630.10 1.475
630.20 1.475
630.30 1.474
630.40 1.474
630.50 1.474
630.60 1.474
630.70 1.474
630.80 1.473
630.90 1.473
631.00 1.473
631.10 1.473
631.20 1.473
631.30 1.472
631.40 1.472
631.50 1.472
631.60 1.472
631.70 1.471
631.80 1.471
631.90 1.471
632.00 1.471
632.10 1.47
632.20 1.47
632.30 1.47
632.40 1.47
632.50 1.469
632.60 1.469
632.70 1.469
632.80 1.469
632.90 1.468
633.00 1.468
633.10 1.468
633.20 1.468
633.30 1.467
633.40 1.467
633.50 1.467
633.60 1.467
633.70 1.466
633.80 1.466
633.90 1.466
634.00 1.466
634.10 1.465
634.20 1.465
634.30 1.465
634.40 1.464
634.50 1.464
634.60 1.464
634.70 1.464
634.80 1.463
634.90 1.463
635.00 1.463
635.10 1.462
635.20 1.462
635.30 1.462
635.40 1.461
635.50 1.461
635.60 1.461
635.70 1.461
635.80 1.46
635.90 1.46
636.00 1.46
636.10 1.459
636.20 1.459
636.30 1.459
636.40 1.458
636.50 1.458
636.60 1.458
636.70 1.457
636.80 1.457
636.90 1.457
637.00 1.456
637.10 1.456
637.20 1.456
637.30 1.455
637.40 1.455
637.50 1.455
637.60 1.454
637.70 1.454
637.80 1.454
637.90 1.453
638.00 1.453
638.10 1.453
638.20 1.452
638.30 1.452
638.40 1.452
638.50 1.451
638.60 1.451
638.70 1.451
638.80 1.45
638.90 1.45
639.00 1.45
639.10 1.449
639.20 1.449
639.30 1.448
639.40 1.448
639.50 1.448
639.60 1.447
639.70 1.447
639.80 1.447
639.90 1.446
640.00 1.446
640.10 1.445
640.20 1.445
640.30 1.445
640.40 1.444
640.50 1.444
640.60 1.443
640.70 1.443
640.80 1.443
640.90 1.442
641.00 1.442
641.10 1.441
641.20 1.441
641.30 1.441
641.40 1.44
641.50 1.44
641.60 1.439
641.70 1.439
641.80 1.438
641.90 1.438
642.00 1.438
642.10 1.437
642.20 1.437
642.30 1.436
642.40 1.436
642.50 1.435
642.60 1.435
642.70 1.434
642.80 1.434
642.90 1.434
643.00 1.433
643.10 1.433
643.20 1.432
643.30 1.432
643.40 1.431
643.50 1.431
643.60 1.43
643.70 1.43
643.80 1.429
643.90 1.429
644.00 1.428
644.10 1.428
644.20 1.427
644.30 1.427
644.40 1.426
644.50 1.426
644.60 1.425
644.70 1.425
644.80 1.425
644.90 1.424
645.00 1.424
645.10 1.423
645.20 1.423
645.30 1.422
645.40 1.422
645.50 1.421
645.60 1.421
645.70 1.42
645.80 1.42
645.90 1.419
646.00 1.419
646.10 1.418
646.20 1.417
646.30 1.417
646.40 1.416
646.50 1.416
646.60 1.415
646.70 1.415
646.80 1.414
646.90 1.414
647.00 1.413
647.10 1.413
647.20 1.412
647.30 1.412
647.40 1.411
647.50 1.411
647.60 1.41
647.70 1.41
647.80 1.409
647.90 1.408
648.00 1.408
648.10 1.407
648.20 1.407
648.30 1.406
648.40 1.406
648.50 1.405
648.60 1.405
648.70 1.404
648.80 1.403
648.90 1.403
649.00 1.402
649.10 1.402
649.20 1.401
649.30 1.401
649.40 1.4
649.50 1.399
649.60 1.399
649.70 1.398
649.80 1.398
649.90 1.397
650.00 1.396
650.10 1.396
650.20 1.395
650.30 1.395
650.40 1.394
650.50 1.393
650.60 1.393
650.70 1.392
650.80 1.391
650.90 1.391
651.00 1.39
651.10 1.39
651.20 1.389
651.30 1.388
651.40 1.388
651.50 1.387
651.60 1.386
651.70 1.386
651.80 1.385
651.90 1.385
652.00 1.384
652.10 1.383
652.20 1.383
652.30 1.382
652.40 1.381
652.50 1.381
652.60 1.38
652.70 1.379
652.80 1.379
652.90 1.378
653.00 1.377
653.10 1.377
653.20 1.376
653.30 1.375
653.40 1.375
653.50 1.374
653.60 1.373
653.70 1.373
653.80 1.372
653.90 1.371
654.00 1.371
654.10 1.37
654.20 1.369
654.30 1.369
654.40 1.368
654.50 1.367
654.60 1.366
654.70 1.366
654.80 1.365
654.90 1.364
655.00 1.364
655.10 1.363
655.20 1.362
655.30 1.361
655.40 1.361
655.50 1.36
655.60 1.359
655.70 1.359
655.80 1.358
655.90 1.357
656.00 1.356
656.10 1.356
656.20 1.355
656.30 1.354
656.40 1.353
656.50 1.353
656.60 1.352
656.70 1.351
656.80 1.35
656.90 1.35
657.00 1.349
657.10 1.348
657.20 1.347
657.30 1.347
657.40 1.346
657.50 1.345
657.60 1.344
657.70 1.344
657.80 1.343
657.90 1.342
658.00 1.341
658.10 1.341
658.20 1.34
658.30 1.339
658.40 1.338
658.50 1.337
658.60 1.337
658.70 1.336
658.80 1.335
658.90 1.334
659.00 1.333
659.10 1.333
659.20 1.332
659.30 1.331
659.40 1.33
659.50 1.329
659.60 1.329
659.70 1.328
659.80 1.327
659.90 1.326
660.00 1.325
660.10 1.325
660.20 1.324
660.30 1.323
660.40 1.322
660.50 1.321
660.60 1.32
660.70 1.32
660.80 1.319
660.90 1.318
661.00 1.317
661.10 1.316
661.20 1.315
661.30 1.314
661.40 1.314
661.50 1.313
661.60 1.312
661.70 1.311
661.80 1.31
661.90 1.309
662.00 1.308
662.10 1.308
662.20 1.307
662.30 1.306
662.40 1.305
662.50 1.304
662.60 1.303
662.70 1.302
662.80 1.301
662.90 1.3
663.00 1.3
663.10 1.299
663.20 1.298
663.30 1.297
663.40 1.296
663.50 1.295
663.60 1.294
663.70 1.293
663.80 1.292
663.90 1.291
664.00 1.291
664.10 1.29
664.20 1.289
664.30 1.288
664.40 1.287
664.50 1.286
664.60 1.285
664.70 1.284
664.80 1.283
664.90 1.282
665.00 1.281
665.10 1.28
665.20 1.279
665.30 1.278
665.40 1.277
665.50 1.277
665.60 1.276
665.70 1.275
665.80 1.274
665.90 1.273
666.00 1.272
666.10 1.271
666.20 1.27
666.30 1.269
666.40 1.268
666.50 1.267
666.60 1.266
666.70 1.265
666.80 1.264
666.90 1.263
667.00 1.262
667.10 1.261
667.20 1.26
667.30 1.259
667.40 1.258
667.50 1.257
667.60 1.256
667.70 1.255
667.80 1.254
667.90 1.253
668.00 1.252
668.10 1.251
668.20 1.25
668.30 1.249
668.40 1.248
668.50 1.247
668.60 1.246
668.70 1.245
668.80 1.244
668.90 1.243
669.00 1.242
669.10 1.241
669.20 1.24
669.30 1.239
669.40 1.238
669.50 1.237
669.60 1.236
669.70 1.234
669.80 1.233
669.90 1.232
670.00 1.231
670.10 1.23
670.20 1.229
670.30 1.228
670.40 1.227
670.50 1.226
670.60 1.225
670.70 1.224
670.80 1.223
670.90 1.222
671.00 1.221
671.10 1.22
671.20 1.218
671.30 1.217
671.40 1.216
671.50 1.215
671.60 1.214
671.70 1.213
671.80 1.212
671.90 1.211
672.00 1.21
672.10 1.209
672.20 1.208
672.30 1.206
672.40 1.205
672.50 1.204
672.60 1.203
672.70 1.202
672.80 1.201
672.90 1.2
673.00 1.199
673.10 1.197
673.20 1.196
673.30 1.195
673.40 1.194
673.50 1.193
673.60 1.192
673.70 1.191
673.80 1.19
673.90 1.188
674.00 1.187
674.10 1.186
674.20 1.185
674.30 1.184
674.40 1.183
674.50 1.182
674.60 1.18
674.70 1.179
674.80 1.178
674.90 1.177
675.00 1.176
675.10 1.175
675.20 1.173
675.30 1.172
675.40 1.171
675.50 1.17
675.60 1.169
675.70 1.167
675.80 1.166
675.90 1.165
676.00 1.164
676.10 1.163
676.20 1.162
676.30 1.16
676.40 1.159
676.50 1.158
676.60 1.157
676.70 1.156
676.80 1.154
676.90 1.153
677.00 1.152
677.10 1.151
677.20 1.15
677.30 1.148
677.40 1.147
677.50 1.146
677.60 1.145
677.70 1.143
677.80 1.142
677.90 1.141
678.00 1.14
678.10 1.139
678.20 1.137
678.30 1.136
678.40 1.135
678.50 1.134
678.60 1.132
678.70 1.131
678.80 1.13
678.90 1.129
679.00 1.127
679.10 1.126
679.20 1.125
679.30 1.124
679.40 1.122
679.50 1.121
679.60 1.12
679.70 1.119
679.80 1.117
679.90 1.116
680.00 1.115
680.10 1.114
680.20 1.112
680.30 1.111
680.40 1.11
680.50 1.108
680.60 1.107
680.70 1.106
680.80 1.105
680.90 1.103
681.00 1.102
681.10 1.101
681.20 1.1
681.30 1.098
681.40 1.097
681.50 1.096
681.60 1.094
681.70 1.093
681.80 1.092
681.90 1.09
682.00 1.089
682.10 1.088
682.20 1.087
682.30 1.085
682.40 1.084
682.50 1.083
682.60 1.081
682.70 1.08
682.80 1.079
682.90 1.077
683.00 1.076
683.10 1.075
683.20 1.073
683.30 1.072
683.40 1.071
683.50 1.069
683.60 1.068
683.70 1.067
683.80 1.065
683.90 1.064
684.00 1.063
684.10 1.061
684.20 1.06
684.30 1.059
684.40 1.057
684.50 1.056
684.60 1.055
684.70 1.053
684.80 1.052
684.90 1.051
685.00 1.049
685.10 1.048
685.20 1.047
685.30 1.045
685.40 1.044
685.50 1.042
685.60 1.041
685.70 1.04
685.80 1.038
685.90 1.037
686.00 1.036
686.10 1.034
686.20 1.033
686.30 1.032
686.40 1.03
686.50 1.029
686.60 1.027
686.70 1.026
686.80 1.025
686.90 1.023
687.00 1.022
687.10 1.02
687.20 1.019
687.30 1.018
687.40 1.016
687.50 1.015
687.60 1.014
687.70 1.012
687.80 1.011
687.90 1.009
688.00 1.008
688.10 1.007
688.20 1.005
688.30 1.004
688.40 1.002
688.50 1.001
688.60 0.9996
688.70 0.9982
688.80 0.9968
688.90 0.9954
689.00 0.994
689.10 0.9926
689.20 0.9912
689.30 0.9898
689.40 0.9883
689.50 0.9868
689.60 0.9854
689.70 0.9839
689.80 0.9825
689.90 0.981
690.00 0.9796
690.10 0.9781
690.20 0.9767
690.30 0.9752
690.40 0.9738
690.50 0.9723
690.60 0.9709
690.70 0.9694
690.80 0.968
690.90 0.9666
691.00 0.9651
691.10 0.9637
691.20 0.9622
691.30 0.9608
691.40 0.9593
691.50 0.9579
691.60 0.9565
691.70 0.955
691.80 0.9536
691.90 0.9522
692.00 0.9507
692.10 0.9493
692.20 0.9478
692.30 0.9464
692.40 0.945
692.50 0.9435
692.60 0.9421
692.70 0.9407
692.80 0.9393
692.90 0.9378
693.00 0.9364
693.10 0.935
693.20 0.9335
693.30 0.9321
693.40 0.9307
693.50 0.9293
693.60 0.9278
693.70 0.9264
693.80 0.925
693.90 0.9236
694.00 0.9222
694.10 0.9207
694.20 0.9193
694.30 0.9179
694.40 0.9165
694.50 0.9151
694.60 0.9137
694.70 0.9122
694.80 0.9108
694.90 0.9094
695.00 0.908
695.10 0.9065
695.20 0.9051
695.30 0.9036
695.40 0.9022
695.50 0.9007
695.60 0.8993
695.70 0.8978
695.80 0.8963
695.90 0.8949
696.00 0.8934
696.10 0.892
696.20 0.8905
696.30 0.8891
696.40 0.8876
696.50 0.8862
696.60 0.8847
696.70 0.8833
696.80 0.8818
696.90 0.8804
697.00 0.8789
697.10 0.8775
697.20 0.8761
697.30 0.8746
697.40 0.8732
697.50 0.8717
697.60 0.8703
697.70 0.8689
697.80 0.8674
697.90 0.866
698.00 0.8645
698.10 0.8631
698.20 0.8617
698.30 0.8602
698.40 0.8588
698.50 0.8574
698.60 0.8559
698.70 0.8545
698.80 0.8531
698.90 0.8516
699.00 0.8502
699.10 0.8488
699.20 0.8473
699.30 0.8459
699.40 0.8445
699.50 0.8431
699.60 0.8416
699.70 0.8402
699.80 0.8388
699.90 0.8374
700.00 0.836
700.10 0.8345
700.20 0.8331
700.30 0.8316
700.40 0.8302
700.50 0.8288
700.60 0.8273
700.70 0.8259
700.80 0.8245
700.90 0.823
701.00 0.8216
701.10 0.8202
701.20 0.8188
701.30 0.8173
701.40 0.8159
701.50 0.8145
701.60 0.8131
701.70 0.8116
701.80 0.8102
701.90 0.8088
702.00 0.8074
702.10 0.8059
702.20 0.8045
702.30 0.8031
702.40 0.8017
702.50 0.8003
702.60 0.7988
702.70 0.7974
702.80 0.796
702.90 0.7946
703.00 0.7932
703.10 0.7918
703.20 0.7904
703.30 0.7889
703.40 0.7875
703.50 0.7861
703.60 0.7847
703.70 0.7833
703.80 0.7819
703.90 0.7805
704.00 0.7791
704.10 0.7777
704.20 0.7763
704.30 0.7749
704.40 0.7735
704.50 0.7721
704.60 0.7707
704.70 0.7693
704.80 0.7679
704.90 0.7665
705.00 0.7651
705.10 0.7637
705.20 0.7623
705.30 0.761
705.40 0.7596
705.50 0.7582
705.60 0.7569
705.70 0.7555
705.80 0.7541
705.90 0.7528
706.00 0.7514
706.10 0.7501
706.20 0.7487
706.30 0.7473
706.40 0.746
706.50 0.7446
706.60 0.7433
706.70 0.7419
706.80 0.7406
706.90 0.7392
707.00 0.7379
707.10 0.7365
707.20 0.7351
707.30 0.7338
707.40 0.7324
707.50 0.7311
707.60 0.7297
707.70 0.7284
707.80 0.7271
707.90 0.7257
708.00 0.7244
708.10 0.723
708.20 0.7217
708.30 0.7203
708.40 0.719
708.50 0.7176
708.60 0.7163
708.70 0.715
708.80 0.7136
708.90 0.7123
709.00 0.7109
709.10 0.7096
709.20 0.7083
709.30 0.7069
709.40 0.7056
709.50 0.7043
709.60 0.7029
709.70 0.7016
709.80 0.7003
709.90 0.6989
710.00 0.6976
710.10 0.6963
710.20 0.695
710.30 0.6938
710.40 0.6925
710.50 0.6912
710.60 0.69
710.70 0.6887
710.80 0.6874
710.90 0.6862
711.00 0.6849
711.10 0.6836
711.20 0.6824
711.30 0.6811
711.40 0.6798
711.50 0.6786
711.60 0.6773
711.70 0.676
711.80 0.6748
711.90 0.6735
712.00 0.6722
712.10 0.671
712.20 0.6697
712.30 0.6685
712.40 0.6672
712.50 0.666
712.60 0.6647
712.70 0.6634
712.80 0.6622
712.90 0.6609
713.00 0.6597
713.10 0.6584
713.20 0.6572
713.30 0.6559
713.40 0.6547
713.50 0.6534
713.60 0.6522
713.70 0.6509
713.80 0.6497
713.90 0.6484
714.00 0.6472
714.10 0.6459
714.20 0.6447
714.30 0.6434
714.40 0.6422
714.50 0.6409
714.60 0.6397
714.70 0.6385
714.80 0.6372
714.90 0.636
715.00 0.6347
715.10 0.6336
715.20 0.6324
715.30 0.6313
715.40 0.6301
715.50 0.6289
715.60 0.6278
715.70 0.6266
715.80 0.6255
715.90 0.6243
716.00 0.6232
716.10 0.622
716.20 0.6208
716.30 0.6197
716.40 0.6185
716.50 0.6174
716.60 0.6162
716.70 0.6151
716.80 0.6139
716.90 0.6128
717.00 0.6116
717.10 0.6105
717.20 0.6093
717.30 0.6082
717.40 0.607
717.50 0.6059
717.60 0.6047
717.70 0.6036
717.80 0.6025
717.90 0.6013
718.00 0.6002
718.10 0.599
718.20 0.5979
718.30 0.5967
718.40 0.5956
718.50 0.5945
718.60 0.5933
718.70 0.5922
718.80 0.591
718.90 0.5899
719.00 0.5888
719.10 0.5876
719.20 0.5865
719.30 0.5854
719.40 0.5842
719.50 0.5831
719.60 0.582
719.70 0.5808
719.80 0.5797
719.90 0.5786
720.00 0.5774
720.10 0.5764
720.20 0.5754
720.30 0.5744
720.40 0.5733
720.50 0.5723
720.60 0.5713
720.70 0.5703
720.80 0.5693
720.90 0.5682
721.00 0.5672
721.10 0.5662
721.20 0.5652
721.30 0.5642
721.40 0.5632
721.50 0.5621
721.60 0.5611
721.70 0.5601
721.80 0.5591
721.90 0.5581
722.00 0.5571
722.10 0.5561
722.20 0.555
722.30 0.554
722.40 0.553
722.50 0.552
722.60 0.551
722.70 0.55
722.80 0.549
722.90 0.548
723.00 0.547
723.10 0.546
723.20 0.545
723.30 0.544
723.40 0.5429
723.50 0.5419
723.60 0.5409
723.70 0.5399
723.80 0.5389
723.90 0.5379
724.00 0.5369
724.10 0.5359
724.20 0.5349
724.30 0.5339
724.40 0.5329
724.50 0.5319
724.60 0.5309
724.70 0.5299
724.80 0.5289
724.90 0.5279
725.00 0.5269
725.10 0.5261
725.20 0.5252
725.30 0.5243
725.40 0.5234
725.50 0.5225
725.60 0.5217
725.70 0.5208
725.80 0.5199
725.90 0.519
726.00 0.5181
726.10 0.5173
726.20 0.5164
726.30 0.5155
726.40 0.5146
726.50 0.5138
726.60 0.5129
726.70 0.512
726.80 0.5111
726.90 0.5103
727.00 0.5094
727.10 0.5085
727.20 0.5076
727.30 0.5068
727.40 0.5059
727.50 0.505
727.60 0.5042
727.70 0.5033
727.80 0.5024
727.90 0.5016
728.00 0.5007
728.10 0.4998
728.20 0.499
728.30 0.4981
728.40 0.4972
728.50 0.4964
728.60 0.4955
728.70 0.4946
728.80 0.4938
728.90 0.4929
729.00 0.492
729.10 0.4912
729.20 0.4903
729.30 0.4894
729.40 0.4886
729.50 0.4877
729.60 0.4869
729.70 0.486
729.80 0.4851
729.90 0.4843
730.00 0.4834
730.10 0.4828
730.20 0.4821
730.30 0.4814
730.40 0.4808
730.50 0.4801
730.60 0.4795
730.70 0.4788
730.80 0.4782
730.90 0.4775
731.00 0.4769
731.10 0.4762
731.20 0.4755
731.30 0.4749
731.40 0.4742
731.50 0.4736
731.60 0.4729
731.70 0.4723
731.80 0.4716
731.90 0.471
732.00 0.4703
732.10 0.4697
732.20 0.469
732.30 0.4684
732.40 0.4677
732.50 0.4671
732.60 0.4664
732.70 0.4658
732.80 0.4651
732.90 0.4645
733.00 0.4638
733.10 0.4632
733.20 0.4625
733.30 0.4619
733.40 0.4612
733.50 0.4606
733.60 0.4599
733.70 0.4593
733.80 0.4586
733.90 0.458
734.00 0.4573
734.10 0.4567
734.20 0.4561
734.30 0.4554
734.40 0.4548
734.50 0.4541
734.60 0.4535
734.70 0.4528
734.80 0.4522
734.90 0.4516
735.00 0.4509
735.10 0.4503
735.20 0.4496
735.30 0.449
735.40 0.4484
735.50 0.4477
735.60 0.4471
735.70 0.4464
735.80 0.4458
735.90 0.4452
736.00 0.4445
736.10 0.4439
736.20 0.4432
736.30 0.4426
736.40 0.442
736.50 0.4413
736.60 0.4407
736.70 0.4401
736.80 0.4394
736.90 0.4388
737.00 0.4382
737.10 0.4375
737.20 0.4369
737.30 0.4362
737.40 0.4356
737.50 0.435
737.60 0.4343
737.70 0.4337
737.80 0.4331
737.90 0.4324
738.00 0.4318
738.10 0.4312
738.20 0.4306
738.30 0.4299
738.40 0.4293
738.50 0.4287
738.60 0.428
738.70 0.4274
738.80 0.4268
738.90 0.4261
739.00 0.4255
739.10 0.4249
739.20 0.4243
739.30 0.4236
739.40 0.423
739.50 0.4224
739.60 0.4218
739.70 0.4211
739.80 0.4205
739.90 0.4199
740.00 0.4192
740.10 0.4188
740.20 0.4184
740.30 0.418
740.40 0.4176
740.50 0.4172
740.60 0.4168
740.70 0.4164
740.80 0.416
740.90 0.4156
741.00 0.4152
741.10 0.4148
741.20 0.4144
741.30 0.414
741.40 0.4136
741.50 0.4132
741.60 0.4128
741.70 0.4124
741.80 0.412
741.90 0.4116
742.00 0.4112
742.10 0.4108
742.20 0.4104
742.30 0.41
742.40 0.4096
742.50 0.4092
742.60 0.4088
742.70 0.4084
742.80 0.408
742.90 0.4076
743.00 0.4072
743.10 0.4068
743.20 0.4064
743.30 0.406
743.40 0.4056
743.50 0.4052
743.60 0.4049
743.70 0.4045
743.80 0.4041
743.90 0.4037
744.00 0.4033
744.10 0.4029
744.20 0.4025
744.30 0.4021
744.40 0.4017
744.50 0.4013
744.60 0.4009
744.70 0.4005
744.80 0.4001
744.90 0.3997
745.00 0.3993
745.10 0.3989
745.20 0.3985
745.30 0.3981
745.40 0.3978
745.50 0.3974
745.60 0.397
745.70 0.3966
745.80 0.3962
745.90 0.3958
746.00 0.3954
746.10 0.395
746.20 0.3946
746.30 0.3942
746.40 0.3938
746.50 0.3934
746.60 0.3931
746.70 0.3927
746.80 0.3923
746.90 0.3919
747.00 0.3915
747.10 0.3911
747.20 0.3907
747.30 0.3903
747.40 0.3899
747.50 0.3895
747.60 0.3892
747.70 0.3888
747.80 0.3884
747.90 0.388
748.00 0.3876
748.10 0.3872
748.20 0.3868
748.30 0.3864
748.40 0.3861
748.50 0.3857
748.60 0.3853
748.70 0.3849
748.80 0.3845
748.90 0.3841
749.00 0.3837
749.10 0.3834
749.20 0.383
749.30 0.3826
749.40 0.3822
749.50 0.3818
749.60 0.3814
749.70 0.381
749.80 0.3807
749.90 0.3803
750.00 0.3799
750.10 0.3796
750.20 0.3794
750.30 0.3791
750.40 0.3789
750.50 0.3786
750.60 0.3783
750.70 0.3781
750.80 0.3778
750.90 0.3776
751.00 0.3773
751.10 0.3771
751.20 0.3768
751.30 0.3765
751.40 0.3763
751.50 0.376
751.60 0.3758
751.70 0.3755
751.80 0.3753
751.90 0.375
752.00 0.3748
752.10 0.3745
752.20 0.3742
752.30 0.374
752.40 0.3737
752.50 0.3735
752.60 0.3732
752.70 0.373
752.80 0.3727
752.90 0.3725
753.00 0.3722
753.10 0.372
753.20 0.3717
753.30 0.3714
753.40 0.3712
753.50 0.3709
753.60 0.3707
753.70 0.3704
753.80 0.3702
753.90 0.3699
754.00 0.3697
754.10 0.3694
754.20 0.3692
754.30 0.3689
754.40 0.3687
754.50 0.3684
754.60 0.3681
754.70 0.3679
754.80 0.3676
754.90 0.3674
755.00 0.3671
755.10 0.3669
755.20 0.3666
755.30 0.3664
755.40 0.3661
755.50 0.3659
755.60 0.3656
755.70 0.3654
755.80 0.3651
755.90 0.3649
756.00 0.3646
756.10 0.3644
756.20 0.3641
756.30 0.3639
756.40 0.3636
756.50 0.3634
756.60 0.3631
756.70 0.3629
756.80 0.3626
756.90 0.3624
757.00 0.3621
757.10 0.3619
757.20 0.3616
757.30 0.3614
757.40 0.3611
757.50 0.3609
757.60 0.3606
757.70 0.3604
757.80 0.3601
757.90 0.3599
758.00 0.3596
758.10 0.3594
758.20 0.3591
758.30 0.3589
758.40 0.3586
758.50 0.3584
758.60 0.3581
758.70 0.3579
758.80 0.3576
758.90 0.3574
759.00 0.3572
759.10 0.3569
759.20 0.3567
759.30 0.3564
759.40 0.3562
759.50 0.3559
759.60 0.3557
759.70 0.3554
759.80 0.3552
759.90 0.3549
760.00 0.3547
760.10 0.3545
760.20 0.3543
760.30 0.3542
760.40 0.354
760.50 0.3538
760.60 0.3536
760.70 0.3534
760.80 0.3533
760.90 0.3531
761.00 0.3529
761.10 0.3527
761.20 0.3526
761.30 0.3524
761.40 0.3522
761.50 0.352
761.60 0.3519
761.70 0.3517
761.80 0.3515
761.90 0.3513
762.00 0.3512
762.10 0.351
762.20 0.3508
762.30 0.3506
762.40 0.3505
762.50 0.3503
762.60 0.3501
762.70 0.3499
762.80 0.3498
762.90 0.3496
763.00 0.3494
763.10 0.3492
763.20 0.3491
763.30 0.3489
763.40 0.3487
763.50 0.3485
763.60 0.3484
763.70 0.3482
763.80 0.348
763.90 0.3478
764.00 0.3477
764.10 0.3475
764.20 0.3473
764.30 0.3471
764.40 0.347
764.50 0.3468
764.60 0.3466
764.70 0.3465
764.80 0.3463
764.90 0.3461
765.00 0.3459
765.10 0.3458
765.20 0.3456
765.30 0.3454
765.40 0.3452
765.50 0.3451
765.60 0.3449
765.70 0.3447
765.80 0.3446
765.90 0.3444
766.00 0.3442
766.10 0.344
766.20 0.3439
766.30 0.3437
766.40 0.3435
766.50 0.3433
766.60 0.3432
766.70 0.343
766.80 0.3428
766.90 0.3427
767.00 0.3425
767.10 0.3423
767.20 0.3421
767.30 0.342
767.40 0.3418
767.50 0.3416
767.60 0.3415
767.70 0.3413
767.80 0.3411
767.90 0.3409
768.00 0.3408
768.10 0.3406
768.20 0.3404
768.30 0.3403
768.40 0.3401
768.50 0.3399
768.60 0.3398
768.70 0.3396
768.80 0.3394
768.90 0.3392
769.00 0.3391
769.10 0.3389
769.20 0.3387
769.30 0.3386
769.40 0.3384
769.50 0.3382
769.60 0.3381
769.70 0.3379
769.80 0.3377
769.90 0.3375
770.00 0.3374
770.10 0.3373
770.20 0.3372
770.30 0.3371
770.40 0.337
770.50 0.3369
770.60 0.3369
770.70 0.3368
770.80 0.3367
770.90 0.3366
771.00 0.3365
771.10 0.3364
771.20 0.3363
771.30 0.3362
771.40 0.3362
771.50 0.3361
771.60 0.336
771.70 0.3359
771.80 0.3358
771.90 0.3357
772.00 0.3356
772.10 0.3355
772.20 0.3355
772.30 0.3354
772.40 0.3353
772.50 0.3352
772.60 0.3351
772.70 0.335
772.80 0.3349
772.90 0.3348
773.00 0.3348
773.10 0.3347
773.20 0.3346
773.30 0.3345
773.40 0.3344
773.50 0.3343
773.60 0.3342
773.70 0.3342
773.80 0.3341
773.90 0.334
774.00 0.3339
774.10 0.3338
774.20 0.3337
774.30 0.3336
774.40 0.3336
774.50 0.3335
774.60 0.3334
774.70 0.3333
774.80 0.3332
774.90 0.3331
775.00 0.333
775.10 0.333
775.20 0.3329
775.30 0.3328
775.40 0.3327
775.50 0.3326
775.60 0.3325
775.70 0.3324
775.80 0.3323
775.90 0.3323
776.00 0.3322
776.10 0.3321
776.20 0.332
776.30 0.3319
776.40 0.3318
776.50 0.3318
776.60 0.3317
776.70 0.3316
776.80 0.3315
776.90 0.3314
777.00 0.3313
777.10 0.3312
777.20 0.3312
777.30 0.3311
777.40 0.331
777.50 0.3309
777.60 0.3308
777.70 0.3307
777.80 0.3306
777.90 0.3306
778.00 0.3305
778.10 0.3304
778.20 0.3303
778.30 0.3302
778.40 0.3301
778.50 0.33
778.60 0.33
778.70 0.3299
778.80 0.3298
778.90 0.3297
779.00 0.3296
779.10 0.3295
779.20 0.3295
779.30 0.3294
779.40 0.3293
779.50 0.3292
779.60 0.3291
779.70 0.329
779.80 0.3289
779.90 0.3289
780.00 0.3288
780.10 0.3288
780.20 0.3288
780.30 0.3288
780.40 0.3289
780.50 0.3289
780.60 0.3289
780.70 0.3289
780.80 0.329
780.90 0.329
781.00 0.329
781.10 0.329
781.20 0.329
781.30 0.3291
781.40 0.3291
781.50 0.3291
781.60 0.3291
781.70 0.3292
781.80 0.3292
781.90 0.3292
782.00 0.3292
782.10 0.3292
782.20 0.3293
782.30 0.3293
782.40 0.3293
782.50 0.3293
782.60 0.3294
782.70 0.3294
782.80 0.3294
782.90 0.3294
783.00 0.3294
783.10 0.3295
783.20 0.3295
783.30 0.3295
783.40 0.3295
783.50 0.3295
783.60 0.3296
783.70 0.3296
783.80 0.3296
783.90 0.3296
784.00 0.3297
784.10 0.3297
784.20 0.3297
784.30 0.3297
784.40 0.3297
784.50 0.3298
784.60 0.3298
784.70 0.3298
784.80 0.3298
784.90 0.3298
785.00 0.3299
785.10 0.3299
785.20 0.3299
785.30 0.3299
785.40 0.33
785.50 0.33
785.60 0.33
785.70 0.33
785.80 0.33
785.90 0.3301
786.00 0.3301
786.10 0.3301
786.20 0.3301
786.30 0.3301
786.40 0.3302
786.50 0.3302
786.60 0.3302
786.70 0.3302
786.80 0.3302
786.90 0.3303
787.00 0.3303
787.10 0.3303
787.20 0.3303
787.30 0.3304
787.40 0.3304
787.50 0.3304
787.60 0.3304
787.70 0.3304
787.80 0.3305
787.90 0.3305
788.00 0.3305
788.10 0.3305
788.20 0.3305
788.30 0.3306
788.40 0.3306
788.50 0.3306
788.60 0.3306
788.70 0.3306
788.80 0.3307
788.90 0.3307
789.00 0.3307
789.10 0.3307
789.20 0.3307
789.30 0.3308
789.40 0.3308
789.50 0.3308
789.60 0.3308
789.70 0.3308
789.80 0.3309
789.90 0.3309
790.00 0.3309
790.10 0.331
790.20 0.331
790.30 0.3311
790.40 0.3312
790.50 0.3313
790.60 0.3313
790.70 0.3314
790.80 0.3315
790.90 0.3315
791.00 0.3316
791.10 0.3317
791.20 0.3318
791.30 0.3318
791.40 0.3319
791.50 0.332
791.60 0.332
791.70 0.3321
791.80 0.3322
791.90 0.3323
792.00 0.3323
792.10 0.3324
792.20 0.3325
792.30 0.3325
792.40 0.3326
792.50 0.3327
792.60 0.3327
792.70 0.3328
792.80 0.3329
792.90 0.333
793.00 0.333
793.10 0.3331
793.20 0.3332
793.30 0.3332
793.40 0.3333
793.50 0.3334
793.60 0.3334
793.70 0.3335
793.80 0.3336
793.90 0.3337
794.00 0.3337
794.10 0.3338
794.20 0.3339
794.30 0.3339
794.40 0.334
794.50 0.3341
794.60 0.3341
794.70 0.3342
794.80 0.3343
794.90 0.3343
795.00 0.3344
795.10 0.3345
795.20 0.3345
795.30 0.3346
795.40 0.3347
795.50 0.3348
795.60 0.3348
795.70 0.3349
795.80 0.335
795.90 0.335
796.00 0.3351
796.10 0.3352
796.20 0.3352
796.30 0.3353
796.40 0.3354
796.50 0.3354
796.60 0.3355
796.70 0.3356
796.80 0.3356
796.90 0.3357
797.00 0.3358
797.10 0.3359
797.20 0.3359
797.30 0.336
797.40 0.3361
797.50 0.3361
797.60 0.3362
797.70 0.3363
797.80 0.3363
797.90 0.3364
798.00 0.3365
798.10 0.3365
798.20 0.3366
798.30 0.3367
798.40 0.3367
798.50 0.3368
798.60 0.3369
798.70 0.3369
798.80 0.337
798.90 0.3371
799.00 0.3371
799.10 0.3372
799.20 0.3373
799.30 0.3373
799.40 0.3374
799.50 0.3375
799.60 0.3375
799.70 0.3376
799.80 0.3377
799.90 0.3377
800.00 0.3378
800.10 0.3378
800.20 0.3379
800.30 0.3379
800.40 0.3379
800.50 0.3379
800.60 0.338
800.70 0.338
800.80 0.338
800.90 0.338
801.00 0.3381
801.10 0.3381
801.20 0.3381
801.30 0.3381
801.40 0.3382
801.50 0.3382
801.60 0.3382
801.70 0.3382
801.80 0.3383
801.90 0.3383
802.00 0.3383
802.10 0.3383
802.20 0.3384
802.30 0.3384
802.40 0.3384
802.50 0.3384
802.60 0.3385
802.70 0.3385
802.80 0.3385
802.90 0.3385
803.00 0.3386
803.10 0.3386
803.20 0.3386
803.30 0.3386
803.40 0.3387
803.50 0.3387
803.60 0.3387
803.70 0.3387
803.80 0.3388
803.90 0.3388
804.00 0.3388
804.10 0.3388
804.20 0.3389
804.30 0.3389
804.40 0.3389
804.50 0.3389
804.60 0.339
804.70 0.339
804.80 0.339
804.90 0.339
805.00 0.3391
805.10 0.3391
805.20 0.3391
805.30 0.3391
805.40 0.3392
805.50 0.3392
805.60 0.3392
805.70 0.3392
805.80 0.3393
805.90 0.3393
806.00 0.3393
806.10 0.3393
806.20 0.3394
806.30 0.3394
806.40 0.3394
806.50 0.3394
806.60 0.3395
806.70 0.3395
806.80 0.3395
806.90 0.3395
807.00 0.3395
807.10 0.3396
807.20 0.3396
807.30 0.3396
807.40 0.3396
807.50 0.3397
807.60 0.3397
807.70 0.3397
807.80 0.3397
807.90 0.3398
808.00 0.3398
808.10 0.3398
808.20 0.3398
808.30 0.3399
808.40 0.3399
808.50 0.3399
808.60 0.3399
808.70 0.34
808.80 0.34
808.90 0.34
809.00 0.34
809.10 0.3401
809.20 0.3401
809.30 0.3401
809.40 0.3401
809.50 0.3401
809.60 0.3402
809.70 0.3402
809.80 0.3402
809.90 0.3402
810.00 0.3403
810.10 0.3402
810.20 0.3402
810.30 0.3402
810.40 0.3401
810.50 0.3401
810.60 0.3401
810.70 0.3401
810.80 0.34
810.90 0.34
811.00 0.34
811.10 0.3399
811.20 0.3399
811.30 0.3399
811.40 0.3398
811.50 0.3398
811.60 0.3398
811.70 0.3398
811.80 0.3397
811.90 0.3397
812.00 0.3397
812.10 0.3396
812.20 0.3396
812.30 0.3396
812.40 0.3395
812.50 0.3395
812.60 0.3395
812.70 0.3395
812.80 0.3394
812.90 0.3394
813.00 0.3394
813.10 0.3393
813.20 0.3393
813.30 0.3393
813.40 0.3392
813.50 0.3392
813.60 0.3392
813.70 0.3392
813.80 0.3391
813.90 0.3391
814.00 0.3391
814.10 0.339
814.20 0.339
814.30 0.339
814.40 0.3389
814.50 0.3389
814.60 0.3389
814.70 0.3389
814.80 0.3388
814.90 0.3388
815.00 0.3388
815.10 0.3387
815.20 0.3387
815.30 0.3387
815.40 0.3386
815.50 0.3386
815.60 0.3386
815.70 0.3386
815.80 0.3385
815.90 0.3385
816.00 0.3385
816.10 0.3384
816.20 0.3384
816.30 0.3384
816.40 0.3383
816.50 0.3383
816.60 0.3383
816.70 0.3383
816.80 0.3382
816.90 0.3382
817.00 0.3382
817.10 0.3381
817.20 0.3381
817.30 0.3381
817.40 0.338
817.50 0.338
817.60 0.338
817.70 0.338
817.80 0.3379
817.90 0.3379
818.00 0.3379
818.10 0.3378
818.20 0.3378
818.30 0.3378
818.40 0.3377
818.50 0.3377
818.60 0.3377
818.70 0.3377
818.80 0.3376
818.90 0.3376
819.00 0.3376
819.10 0.3375
819.20 0.3375
819.30 0.3375
819.40 0.3374
819.50 0.3374
819.60 0.3374
819.70 0.3374
819.80 0.3373
819.90 0.3373
820.00 0.3373
820.10 0.3372
820.20 0.3372
820.30 0.3372
820.40 0.3371
820.50 0.3371
820.60 0.337
820.70 0.337
820.80 0.337
820.90 0.3369
821.00 0.3369
821.10 0.3369
821.20 0.3368
821.30 0.3368
821.40 0.3368
821.50 0.3367
821.60 0.3367
821.70 0.3366
821.80 0.3366
821.90 0.3366
822.00 0.3365
822.10 0.3365
822.20 0.3365
822.30 0.3364
822.40 0.3364
822.50 0.3363
822.60 0.3363
822.70 0.3363
822.80 0.3362
822.90 0.3362
823.00 0.3361
823.10 0.3361
823.20 0.3361
823.30 0.336
823.40 0.336
823.50 0.336
823.60 0.3359
823.70 0.3359
823.80 0.3358
823.90 0.3358
824.00 0.3358
824.10 0.3357
824.20 0.3357
824.30 0.3357
824.40 0.3356
824.50 0.3356
824.60 0.3355
824.70 0.3355
824.80 0.3355
824.90 0.3354
825.00 0.3354
825.10 0.3353
825.20 0.3353
825.30 0.3353
825.40 0.3352
825.50 0.3352
825.60 0.3352
825.70 0.3351
825.80 0.3351
825.90 0.335
826.00 0.335
826.10 0.335
826.20 0.3349
826.30 0.3349
826.40 0.3349
826.50 0.3348
826.60 0.3348
826.70 0.3347
826.80 0.3347
826.90 0.3347
827.00 0.3346
827.10 0.3346
827.20 0.3345
827.30 0.3345
827.40 0.3345
827.50 0.3344
827.60 0.3344
827.70 0.3344
827.80 0.3343
827.90 0.3343
828.00 0.3343
828.10 0.3342
828.20 0.3342
828.30 0.3341
828.40 0.3341
828.50 0.3341
828.60 0.334
828.70 0.334
828.80 0.334
828.90 0.3339
829.00 0.3339
829.10 0.3339
829.20 0.3338
829.30 0.3338
829.40 0.3337
829.50 0.3337
829.60 0.3337
829.70 0.3336
829.80 0.3336
829.90 0.3336
830.00 0.3335
830.10 0.3335
830.20 0.3334
830.30 0.3334
830.40 0.3334
830.50 0.3333
830.60 0.3333
830.70 0.3333
830.80 0.3332
830.90 0.3332
831.00 0.3332
831.10 0.3331
831.20 0.3331
831.30 0.333
831.40 0.333
831.50 0.333
831.60 0.3329
831.70 0.3329
831.80 0.3329
831.90 0.3328
832.00 0.3328
832.10 0.3328
832.20 0.3327
832.30 0.3327
832.40 0.3326
832.50 0.3326
832.60 0.3326
832.70 0.3325
832.80 0.3325
832.90 0.3325
833.00 0.3324
833.10 0.3324
833.20 0.3323
833.30 0.3323
833.40 0.3323
833.50 0.3322
833.60 0.3322
833.70 0.3322
833.80 0.3321
833.90 0.3321
834.00 0.332
834.10 0.332
834.20 0.332
834.30 0.3319
834.40 0.3319
834.50 0.3319
834.60 0.3318
834.70 0.3318
834.80 0.3318
834.90 0.3317
835.00 0.3317
835.10 0.3316
835.20 0.3316
835.30 0.3316
835.40 0.3315
835.50 0.3315
835.60 0.3315
835.70 0.3314
835.80 0.3314
835.90 0.3313
836.00 0.3313
836.10 0.3313
836.20 0.3312
836.30 0.3312
836.40 0.3312
836.50 0.3311
836.60 0.3311
836.70 0.3311
836.80 0.331
836.90 0.331
837.00 0.3309
837.10 0.3309
837.20 0.3309
837.30 0.3308
837.40 0.3308
837.50 0.3307
837.60 0.3307
837.70 0.3307
837.80 0.3306
837.90 0.3306
838.00 0.3305
838.10 0.3305
838.20 0.3305
838.30 0.3304
838.40 0.3304
838.50 0.3304
838.60 0.3303
838.70 0.3303
838.80 0.3302
838.90 0.3302
839.00 0.3302
839.10 0.3301
839.20 0.3301
839.30 0.33
839.40 0.33
839.50 0.33
839.60 0.3299
839.70 0.3299
839.80 0.3298
839.90 0.3298
840.00 0.3298
840.10 0.3297
840.20 0.3297
840.30 0.3296
840.40 0.3296
840.50 0.3296
840.60 0.3295
840.70 0.3295
840.80 0.3295
840.90 0.3294
841.00 0.3294
841.10 0.3293
841.20 0.3293
841.30 0.3293
841.40 0.3292
841.50 0.3292
841.60 0.3291
841.70 0.3291
841.80 0.3291
841.90 0.329
842.00 0.329
842.10 0.3289
842.20 0.3289
842.30 0.3289
842.40 0.3288
842.50 0.3288
842.60 0.3287
842.70 0.3287
842.80 0.3287
842.90 0.3286
843.00 0.3286
843.10 0.3285
843.20 0.3285
843.30 0.3284
843.40 0.3284
843.50 0.3284
843.60 0.3283
843.70 0.3283
843.80 0.3282
843.90 0.3282
844.00 0.3282
844.10 0.3281
844.20 0.3281
844.30 0.328
844.40 0.328
844.50 0.3279
844.60 0.3279
844.70 0.3279
844.80 0.3278
844.90 0.3278
845.00 0.3277
845.10 0.3277
845.20 0.3277
845.30 0.3276
845.40 0.3276
845.50 0.3275
845.60 0.3275
845.70 0.3275
845.80 0.3274
845.90 0.3274
846.00 0.3273
846.10 0.3273
846.20 0.3272
846.30 0.3272
846.40 0.3272
846.50 0.3271
846.60 0.3271
846.70 0.327
846.80 0.327
846.90 0.327
847.00 0.3269
847.10 0.3269
847.20 0.3268
847.30 0.3268
847.40 0.3267
847.50 0.3267
847.60 0.3266
847.70 0.3266
847.80 0.3266
847.90 0.3265
848.00 0.3265
848.10 0.3264
848.20 0.3264
848.30 0.3263
848.40 0.3263
848.50 0.3262
848.60 0.3262
848.70 0.3261
848.80 0.3261
848.90 0.3261
849.00 0.326
849.10 0.326
849.20 0.3259
849.30 0.3259
849.40 0.3258
849.50 0.3258
849.60 0.3257
849.70 0.3257
849.80 0.3256
849.90 0.3256
850.00 0.3256
850.10 0.3255
850.20 0.3255
850.30 0.3254
850.40 0.3254
850.50 0.3253
850.60 0.3253
850.70 0.3252
850.80 0.3252
850.90 0.3251
851.00 0.3251
851.10 0.3251
851.20 0.325
851.30 0.325
851.40 0.3249
851.50 0.3249
851.60 0.3248
851.70 0.3248
851.80 0.3247
851.90 0.3247
852.00 0.3246
852.10 0.3246
852.20 0.3245
852.30 0.3245
852.40 0.3244
852.50 0.3244
852.60 0.3243
852.70 0.3243
852.80 0.3242
852.90 0.3242
853.00 0.3241
853.10 0.3241
853.20 0.324
853.30 0.324
853.40 0.3239
853.50 0.3239
853.60 0.3238
853.70 0.3238
853.80 0.3237
853.90 0.3237
854.00 0.3236
854.10 0.3236
854.20 0.3235
854.30 0.3235
854.40 0.3234
854.50 0.3234
854.60 0.3233
854.70 0.3233
854.80 0.3232
854.90 0.3232
855.00 0.3231
855.10 0.3231
855.20 0.323
855.30 0.323
855.40 0.3229
855.50 0.3229
855.60 0.3228
855.70 0.3228
855.80 0.3227
855.90 0.3227
856.00 0.3226
856.10 0.3226
856.20 0.3225
856.30 0.3225
856.40 0.3224
856.50 0.3224
856.60 0.3223
856.70 0.3223
856.80 0.3222
856.90 0.3222
857.00 0.3221
857.10 0.3221
857.20 0.322
857.30 0.322
857.40 0.3219
857.50 0.3219
857.60 0.3218
857.70 0.3218
857.80 0.3217
857.90 0.3216
858.00 0.3216
858.10 0.3215
858.20 0.3215
858.30 0.3214
858.40 0.3214
858.50 0.3213
858.60 0.3213
858.70 0.3212
858.80 0.3212
858.90 0.3211
859.00 0.3211
859.10 0.321
859.20 0.3209
859.30 0.3209
859.40 0.3208
859.50 0.3208
859.60 0.3207
859.70 0.3207
859.80 0.3206
859.90 0.3206
860.00 0.3205
860.10 0.3205
860.20 0.3204
860.30 0.3203
860.40 0.3203
860.50 0.3202
860.60 0.3202
860.70 0.3201
860.80 0.3201
860.90 0.32
861.00 0.32
861.10 0.3199
861.20 0.3199
861.30 0.3198
861.40 0.3198
861.50 0.3197
861.60 0.3196
861.70 0.3196
861.80 0.3195
861.90 0.3195
862.00 0.3194
862.10 0.3194
862.20 0.3193
862.30 0.3193
862.40 0.3192
862.50 0.3191
862.60 0.3191
862.70 0.319
862.80 0.319
862.90 0.3189
863.00 0.3189
863.10 0.3188
863.20 0.3187
863.30 0.3187
863.40 0.3186
863.50 0.3186
863.60 0.3185
863.70 0.3185
863.80 0.3184
863.90 0.3183
864.00 0.3183
864.10 0.3182
864.20 0.3182
864.30 0.3181
864.40 0.3181
864.50 0.318
864.60 0.3179
864.70 0.3179
864.80 0.3178
864.90 0.3178
865.00 0.3177
865.10 0.3177
865.20 0.3176
865.30 0.3175
865.40 0.3175
865.50 0.3174
865.60 0.3174
865.70 0.3173
865.80 0.3173
865.90 0.3172
866.00 0.3171
866.10 0.3171
866.20 0.317
866.30 0.317
866.40 0.3169
866.50 0.3169
866.60 0.3168
866.70 0.3167
866.80 0.3167
866.90 0.3166
867.00 0.3166
867.10 0.3165
867.20 0.3164
867.30 0.3164
867.40 0.3163
867.50 0.3162
867.60 0.3161
867.70 0.3161
867.80 0.316
867.90 0.3159
868.00 0.3159
868.10 0.3158
868.20 0.3157
868.30 0.3156
868.40 0.3156
868.50 0.3155
868.60 0.3154
868.70 0.3153
868.80 0.3153
868.90 0.3152
869.00 0.3151
869.10 0.3151
869.20 0.315
869.30 0.3149
869.40 0.3148
869.50 0.3148
869.60 0.3147
869.70 0.3146
869.80 0.3145
869.90 0.3145
870.00 0.3144
870.10 0.3143
870.20 0.3143
870.30 0.3142
870.40 0.3141
870.50 0.314
870.60 0.314
870.70 0.3139
870.80 0.3138
870.90 0.3138
871.00 0.3137
871.10 0.3136
871.20 0.3135
871.30 0.3135
871.40 0.3134
871.50 0.3133
871.60 0.3132
871.70 0.3132
871.80 0.3131
871.90 0.313
872.00 0.313
872.10 0.3129
872.20 0.3128
872.30 0.3127
872.40 0.3126
872.50 0.3125
872.60 0.3124
872.70 0.3124
872.80 0.3123
872.90 0.3122
873.00 0.3121
873.10 0.312
873.20 0.3119
873.30 0.3118
873.40 0.3118
873.50 0.3117
873.60 0.3116
873.70 0.3115
873.80 0.3114
873.90 0.3113
874.00 0.3112
874.10 0.3111
874.20 0.3111
874.30 0.311
874.40 0.3109
874.50 0.3108
874.60 0.3107
874.70 0.3106
874.80 0.3105
874.90 0.3105
875.00 0.3104
875.10 0.3103
875.20 0.3102
875.30 0.3101
875.40 0.31
875.50 0.3099
875.60 0.3099
875.70 0.3098
875.80 0.3097
875.90 0.3096
876.00 0.3095
876.10 0.3094
876.20 0.3093
876.30 0.3093
876.40 0.3092
876.50 0.3091
876.60 0.309
876.70 0.3089
876.80 0.3088
876.90 0.3088
877.00 0.3087
877.10 0.3086
877.20 0.3085
877.30 0.3083
877.40 0.3082
877.50 0.3081
877.60 0.308
877.70 0.3079
877.80 0.3078
877.90 0.3077
878.00 0.3076
878.10 0.3075
878.20 0.3074
878.30 0.3073
878.40 0.3072
878.50 0.3071
878.60 0.3069
878.70 0.3068
878.80 0.3067
878.90 0.3066
879.00 0.3065
879.10 0.3064
879.20 0.3063
879.30 0.3062
879.40 0.3061
879.50 0.306
879.60 0.3059
879.70 0.3058
879.80 0.3057
879.90 0.3056
880.00 0.3055
880.10 0.3053
880.20 0.3052
880.30 0.3051
880.40 0.305
880.50 0.3049
880.60 0.3048
880.70 0.3047
880.80 0.3046
880.90 0.3045
881.00 0.3044
881.10 0.3043
881.20 0.3042
881.30 0.3041
881.40 0.304
881.50 0.3039
881.60 0.3037
881.70 0.3036
881.80 0.3035
881.90 0.3034
882.00 0.3033
882.10 0.3032
882.20 0.3031
882.30 0.3029
882.40 0.3028
882.50 0.3027
882.60 0.3026
882.70 0.3024
882.80 0.3023
882.90 0.3022
883.00 0.3021
883.10 0.3019
883.20 0.3018
883.30 0.3017
883.40 0.3016
883.50 0.3014
883.60 0.3013
883.70 0.3012
883.80 0.301
883.90 0.3009
884.00 0.3008
884.10 0.3007
884.20 0.3005
884.30 0.3004
884.40 0.3003
884.50 0.3002
884.60 0.3
884.70 0.2999
884.80 0.2998
884.90 0.2997
885.00 0.2995
885.10 0.2994
885.20 0.2993
885.30 0.2992
885.40 0.299
885.50 0.2989
885.60 0.2988
885.70 0.2987
885.80 0.2985
885.90 0.2984
886.00 0.2983
886.10 0.2982
886.20 0.298
886.30 0.2979
886.40 0.2978
886.50 0.2977
886.60 0.2975
886.70 0.2974
886.80 0.2973
886.90 0.2972
887.00 0.297
887.10 0.2969
887.20 0.2967
887.30 0.2966
887.40 0.2965
887.50 0.2963
887.60 0.2962
887.70 0.296
887.80 0.2959
887.90 0.2957
888.00 0.2956
888.10 0.2954
888.20 0.2953
888.30 0.2952
888.40 0.295
888.50 0.2949
888.60 0.2947
888.70 0.2946
888.80 0.2944
888.90 0.2943
889.00 0.2942
889.10 0.294
889.20 0.2939
889.30 0.2937
889.40 0.2936
889.50 0.2934
889.60 0.2933
889.70 0.2932
889.80 0.293
889.90 0.2929
890.00 0.2927
890.10 0.2926
890.20 0.2924
890.30 0.2923
890.40 0.2922
890.50 0.292
890.60 0.2919
890.70 0.2917
890.80 0.2916
890.90 0.2914
891.00 0.2913
891.10 0.2912
891.20 0.291
891.30 0.2909
891.40 0.2907
891.50 0.2906
891.60 0.2905
891.70 0.2903
891.80 0.2902
891.90 0.29
892.00 0.2899
892.10 0.2897
892.20 0.2896
892.30 0.2894
892.40 0.2892
892.50 0.2891
892.60 0.2889
892.70 0.2887
892.80 0.2886
892.90 0.2884
893.00 0.2882
893.10 0.2881
893.20 0.2879
893.30 0.2878
893.40 0.2876
893.50 0.2874
893.60 0.2873
893.70 0.2871
893.80 0.2869
893.90 0.2868
894.00 0.2866
894.10 0.2864
894.20 0.2863
894.30 0.2861
894.40 0.286
894.50 0.2858
894.60 0.2856
894.70 0.2855
894.80 0.2853
894.90 0.2851
895.00 0.285
895.10 0.2848
895.20 0.2846
895.30 0.2845
895.40 0.2843
895.50 0.2842
895.60 0.284
895.70 0.2838
895.80 0.2837
895.90 0.2835
896.00 0.2833
896.10 0.2832
896.20 0.283
896.30 0.2829
896.40 0.2827
896.50 0.2825
896.60 0.2824
896.70 0.2822
896.80 0.2821
896.90 0.2819
897.00 0.2817
897.10 0.2816
897.20 0.2814
897.30 0.2812
897.40 0.281
897.50 0.2809
897.60 0.2807
897.70 0.2805
897.80 0.2803
897.90 0.2802
898.00 0.28
898.10 0.2798
898.20 0.2797
898.30 0.2795
898.40 0.2793
898.50 0.2791
898.60 0.279
898.70 0.2788
898.80 0.2786
898.90 0.2785
899.00 0.2783
899.10 0.2781
899.20 0.2779
899.30 0.2778
899.40 0.2776
899.50 0.2774
899.60 0.2773
899.70 0.2771
899.80 0.2769
899.90 0.2767
900.00 0.2766
900.10 0.2764
900.20 0.2762
900.30 0.2761
900.40 0.2759
900.50 0.2757
900.60 0.2755
900.70 0.2754
900.80 0.2752
900.90 0.275
901.00 0.2749
901.10 0.2747
901.20 0.2745
901.30 0.2744
901.40 0.2742
901.50 0.274
901.60 0.2738
901.70 0.2737
901.80 0.2735
901.90 0.2733
902.00 0.2732
902.10 0.273
902.20 0.2728
902.30 0.2726
902.40 0.2725
902.50 0.2723
902.60 0.2721
902.70 0.2719
902.80 0.2718
902.90 0.2716
903.00 0.2714
903.10 0.2712
903.20 0.2711
903.30 0.2709
903.40 0.2707
903.50 0.2705
903.60 0.2704
903.70 0.2702
903.80 0.27
903.90 0.2698
904.00 0.2697
904.10 0.2695
904.20 0.2693
904.30 0.2691
904.40 0.269
904.50 0.2688
904.60 0.2686
904.70 0.2685
904.80 0.2683
904.90 0.2681
905.00 0.2679
905.10 0.2678
905.20 0.2676
905.30 0.2674
905.40 0.2672
905.50 0.2671
905.60 0.2669
905.70 0.2667
905.80 0.2665
905.90 0.2664
906.00 0.2662
906.10 0.266
906.20 0.2659
906.30 0.2657
906.40 0.2655
906.50 0.2653
906.60 0.2652
906.70 0.265
906.80 0.2648
906.90 0.2646
907.00 0.2645
907.10 0.2643
907.20 0.2641
907.30 0.2639
907.40 0.2637
907.50 0.2635
907.60 0.2633
907.70 0.2631
907.80 0.2629
907.90 0.2627
908.00 0.2625
908.10 0.2623
908.20 0.2621
908.30 0.2619
908.40 0.2617
908.50 0.2615
908.60 0.2613
908.70 0.2611
908.80 0.2609
908.90 0.2608
909.00 0.2606
909.10 0.2604
909.20 0.2602
909.30 0.26
909.40 0.2598
909.50 0.2596
909.60 0.2594
909.70 0.2592
909.80 0.259
909.90 0.2588
910.00 0.2586
910.10 0.2584
910.20 0.2582
910.30 0.258
910.40 0.2578
910.50 0.2576
910.60 0.2574
910.70 0.2573
910.80 0.2571
910.90 0.2569
911.00 0.2567
911.10 0.2565
911.20 0.2563
911.30 0.2561
911.40 0.2559
911.50 0.2557
911.60 0.2555
911.70 0.2553
911.80 0.2551
911.90 0.2549
912.00 0.2547
912.10 0.2545
912.20 0.2543
912.30 0.2541
912.40 0.2539
912.50 0.2537
912.60 0.2535
912.70 0.2533
912.80 0.253
912.90 0.2528
913.00 0.2526
913.10 0.2524
913.20 0.2522
913.30 0.252
913.40 0.2518
913.50 0.2516
913.60 0.2514
913.70 0.2511
913.80 0.2509
913.90 0.2507
914.00 0.2505
914.10 0.2503
914.20 0.2501
914.30 0.2499
914.40 0.2497
914.50 0.2495
914.60 0.2493
914.70 0.249
914.80 0.2488
914.90 0.2486
915.00 0.2484
915.10 0.2482
915.20 0.248
915.30 0.2478
915.40 0.2476
915.50 0.2474
915.60 0.2472
915.70 0.247
915.80 0.2467
915.90 0.2465
916.00 0.2463
916.10 0.2461
916.20 0.2459
916.30 0.2457
916.40 0.2455
916.50 0.2453
916.60 0.2451
916.70 0.2449
916.80 0.2447
916.90 0.2444
917.00 0.2442
917.10 0.244
917.20 0.2438
917.30 0.2436
917.40 0.2434
917.50 0.2432
917.60 0.2429
917.70 0.2427
917.80 0.2425
917.90 0.2423
918.00 0.2421
918.10 0.2419
918.20 0.2416
918.30 0.2414
918.40 0.2412
918.50 0.241
918.60 0.2408
918.70 0.2406
918.80 0.2403
918.90 0.2401
919.00 0.2399
919.10 0.2397
919.20 0.2395
919.30 0.2393
919.40 0.2391
919.50 0.2388
919.60 0.2386
919.70 0.2384
919.80 0.2382
919.90 0.238
920.00 0.2378
920.10 0.2375
920.20 0.2373
920.30 0.2371
920.40 0.2369
920.50 0.2367
920.60 0.2365
920.70 0.2363
920.80 0.236
920.90 0.2358
921.00 0.2356
921.10 0.2354
921.20 0.2352
921.30 0.235
921.40 0.2348
921.50 0.2346
921.60 0.2343
921.70 0.2341
921.80 0.2339
921.90 0.2337
922.00 0.2335
922.10 0.2333
922.20 0.233
922.30 0.2328
922.40 0.2326
922.50 0.2324
922.60 0.2322
922.70 0.2319
922.80 0.2317
922.90 0.2315
923.00 0.2313
923.10 0.2311
923.20 0.2308
923.30 0.2306
923.40 0.2304
923.50 0.2302
923.60 0.2299
923.70 0.2297
923.80 0.2295
923.90 0.2293
924.00 0.2291
924.10 0.2288
924.20 0.2286
924.30 0.2284
924.40 0.2282
924.50 0.228
924.60 0.2277
924.70 0.2275
924.80 0.2273
924.90 0.2271
925.00 0.2269
925.10 0.2267
925.20 0.2264
925.30 0.2262
925.40 0.226
925.50 0.2258
925.60 0.2256
925.70 0.2253
925.80 0.2251
925.90 0.2249
926.00 0.2247
926.10 0.2245
926.20 0.2242
926.30 0.224
926.40 0.2238
926.50 0.2236
926.60 0.2234
926.70 0.2232
926.80 0.2229
926.90 0.2227
927.00 0.2225
927.10 0.2223
927.20 0.2221
927.30 0.2218
927.40 0.2216
927.50 0.2214
927.60 0.2212
927.70 0.2209
927.80 0.2207
927.90 0.2205
928.00 0.2202
928.10 0.22
928.20 0.2198
928.30 0.2196
928.40 0.2193
928.50 0.2191
928.60 0.2189
928.70 0.2187
928.80 0.2185
928.90 0.2182
929.00 0.218
929.10 0.2178
929.20 0.2176
929.30 0.2173
929.40 0.2171
929.50 0.2169
929.60 0.2167
929.70 0.2164
929.80 0.2162
929.90 0.216
930.00 0.2158
930.10 0.2155
930.20 0.2153
930.30 0.2151
930.40 0.2149
930.50 0.2146
930.60 0.2144
930.70 0.2142
930.80 0.214
930.90 0.2138
931.00 0.2135
931.10 0.2133
931.20 0.2131
931.30 0.2129
931.40 0.2126
931.50 0.2124
931.60 0.2122
931.70 0.212
931.80 0.2118
931.90 0.2115
932.00 0.2113
932.10 0.2111
932.20 0.2109
932.30 0.2106
932.40 0.2104
932.50 0.2102
932.60 0.21
932.70 0.2097
932.80 0.2095
932.90 0.2093
933.00 0.2091
933.10 0.2088
933.20 0.2086
933.30 0.2084
933.40 0.2082
933.50 0.208
933.60 0.2077
933.70 0.2075
933.80 0.2073
933.90 0.2071
934.00 0.2068
934.10 0.2066
934.20 0.2064
934.30 0.2062
934.40 0.2059
934.50 0.2057
934.60 0.2055
934.70 0.2053
934.80 0.2051
934.90 0.2048
935.00 0.2046
935.10 0.2044
935.20 0.2042
935.30 0.2039
935.40 0.2037
935.50 0.2035
935.60 0.2033
935.70 0.203
935.80 0.2028
935.90 0.2026
936.00 0.2024
936.10 0.2021
936.20 0.2019
936.30 0.2017
936.40 0.2015
936.50 0.2013
936.60 0.201
936.70 0.2008
936.80 0.2006
936.90 0.2004
937.00 0.2001
937.10 0.1999
937.20 0.1997
937.30 0.1995
937.40 0.1993
937.50 0.199
937.60 0.1988
937.70 0.1986
937.80 0.1984
937.90 0.1981
938.00 0.1979
938.10 0.1977
938.20 0.1975
938.30 0.1973
938.40 0.197
938.50 0.1968
938.60 0.1966
938.70 0.1964
938.80 0.1961
938.90 0.1959
939.00 0.1957
939.10 0.1955
939.20 0.1952
939.30 0.195
939.40 0.1948
939.50 0.1946
939.60 0.1943
939.70 0.1941
939.80 0.1939
939.90 0.1937
940.00 0.1934
940.10 0.1932
940.20 0.193
940.30 0.1928
940.40 0.1925
940.50 0.1923
940.60 0.1921
940.70 0.1919
940.80 0.1917
940.90 0.1914
941.00 0.1912
941.10 0.191
941.20 0.1908
941.30 0.1906
941.40 0.1903
941.50 0.1901
941.60 0.1899
941.70 0.1897
941.80 0.1895
941.90 0.1892
942.00 0.189
942.10 0.1888
942.20 0.1886
942.30 0.1884
942.40 0.1881
942.50 0.1879
942.60 0.1877
942.70 0.1875
942.80 0.1873
942.90 0.187
943.00 0.1868
943.10 0.1866
943.20 0.1864
943.30 0.1862
943.40 0.186
943.50 0.1857
943.60 0.1855
943.70 0.1853
943.80 0.1851
943.90 0.1849
944.00 0.1846
944.10 0.1844
944.20 0.1842
944.30 0.184
944.40 0.1838
944.50 0.1836
944.60 0.1833
944.70 0.1831
944.80 0.1829
944.90 0.1827
945.00 0.1825
945.10 0.1823
945.20 0.182
945.30 0.1818
945.40 0.1816
945.50 0.1814
945.60 0.1812
945.70 0.181
945.80 0.1807
945.90 0.1805
946.00 0.1803
946.10 0.1801
946.20 0.1799
946.30 0.1797
946.40 0.1794
946.50 0.1792
946.60 0.179
946.70 0.1788
946.80 0.1786
946.90 0.1784
947.00 0.1782
947.10 0.1779
947.20 0.1777
947.30 0.1775
947.40 0.1773
947.50 0.1771
947.60 0.1769
947.70 0.1766
947.80 0.1764
947.90 0.1762
948.00 0.176
948.10 0.1758
948.20 0.1756
948.30 0.1753
948.40 0.1751
948.50 0.1749
948.60 0.1747
948.70 0.1745
948.80 0.1743
948.90 0.1741
949.00 0.1738
949.10 0.1736
949.20 0.1734
949.30 0.1732
949.40 0.173
949.50 0.1728
949.60 0.1726
949.70 0.1724
949.80 0.1721
949.90 0.1719
950.00 0.1717
950.10 0.1715
950.20 0.1713
950.30 0.1711
950.40 0.1709
950.50 0.1707
950.60 0.1705
950.70 0.1702
950.80 0.17
950.90 0.1698
951.00 0.1696
951.10 0.1694
951.20 0.1692
951.30 0.169
951.40 0.1688
951.50 0.1686
951.60 0.1683
951.70 0.1681
951.80 0.1679
951.90 0.1677
952.00 0.1675
952.10 0.1673
952.20 0.1671
952.30 0.1669
952.40 0.1667
952.50 0.1665
952.60 0.1663
952.70 0.1661
952.80 0.1659
952.90 0.1656
953.00 0.1654
953.10 0.1652
953.20 0.165
953.30 0.1648
953.40 0.1646
953.50 0.1644
953.60 0.1642
953.70 0.164
953.80 0.1638
953.90 0.1636
954.00 0.1634
954.10 0.1632
954.20 0.1629
954.30 0.1627
954.40 0.1625
954.50 0.1623
954.60 0.1621
954.70 0.1619
954.80 0.1617
954.90 0.1615
955.00 0.1613
955.10 0.1611
955.20 0.1609
955.30 0.1607
955.40 0.1605
955.50 0.1603
955.60 0.1601
955.70 0.1599
955.80 0.1597
955.90 0.1595
956.00 0.1592
956.10 0.159
956.20 0.1588
956.30 0.1586
956.40 0.1584
956.50 0.1582
956.60 0.158
956.70 0.1578
956.80 0.1576
956.90 0.1574
957.00 0.1572
957.10 0.157
957.20 0.1568
957.30 0.1566
957.40 0.1564
957.50 0.1562
957.60 0.156
957.70 0.1558
957.80 0.1556
957.90 0.1554
958.00 0.1552
958.10 0.155
958.20 0.1548
958.30 0.1546
958.40 0.1544
958.50 0.1542
958.60 0.154
958.70 0.1538
958.80 0.1536
958.90 0.1534
959.00 0.1532
959.10 0.153
959.20 0.1528
959.30 0.1526
959.40 0.1524
959.50 0.1522
959.60 0.152
959.70 0.1518
959.80 0.1516
959.90 0.1514
960.00 0.1512
960.10 0.151
960.20 0.1508
960.30 0.1506
960.40 0.1504
960.50 0.1502
960.60 0.15
960.70 0.1498
960.80 0.1496
960.90 0.1494
961.00 0.1492
961.10 0.149
961.20 0.1488
961.30 0.1486
961.40 0.1484
961.50 0.1482
961.60 0.148
961.70 0.1478
961.80 0.1476
961.90 0.1474
962.00 0.1473
962.10 0.1471
962.20 0.1469
962.30 0.1467
962.40 0.1465
962.50 0.1463
962.60 0.1461
962.70 0.1459
962.80 0.1457
962.90 0.1455
963.00 0.1453
963.10 0.1451
963.20 0.1449
963.30 0.1448
963.40 0.1446
963.50 0.1444
963.60 0.1442
963.70 0.144
963.80 0.1438
963.90 0.1436
964.00 0.1434
964.10 0.1432
964.20 0.143
964.30 0.1428
964.40 0.1427
964.50 0.1425
964.60 0.1423
964.70 0.1421
964.80 0.1419
964.90 0.1417
965.00 0.1415
965.10 0.1413
965.20 0.1411
965.30 0.1409
965.40 0.1407
965.50 0.1405
965.60 0.1403
965.70 0.1401
965.80 0.14
965.90 0.1398
966.00 0.1396
966.10 0.1394
966.20 0.1392
966.30 0.139
966.40 0.1388
966.50 0.1386
966.60 0.1384
966.70 0.1383
966.80 0.1381
966.90 0.1379
967.00 0.1377
967.10 0.1375
967.20 0.1373
967.30 0.1371
967.40 0.137
967.50 0.1368
967.60 0.1366
967.70 0.1364
967.80 0.1362
967.90 0.1361
968.00 0.1359
968.10 0.1357
968.20 0.1355
968.30 0.1353
968.40 0.1351
968.50 0.135
968.60 0.1348
968.70 0.1346
968.80 0.1344
968.90 0.1342
969.00 0.1341
969.10 0.1339
969.20 0.1337
969.30 0.1335
969.40 0.1333
969.50 0.1332
969.60 0.133
969.70 0.1328
969.80 0.1326
969.90 0.1324
970.00 0.1323
970.10 0.1321
970.20 0.1319
970.30 0.1317
970.40 0.1316
970.50 0.1314
970.60 0.1312
970.70 0.131
970.80 0.1309
970.90 0.1307
971.00 0.1305
971.10 0.1303
971.20 0.1301
971.30 0.13
971.40 0.1298
971.50 0.1296
971.60 0.1294
971.70 0.1293
971.80 0.1291
971.90 0.1289
972.00 0.1287
972.10 0.1286
972.20 0.1284
972.30 0.1282
972.40 0.1281
972.50 0.1279
972.60 0.1277
972.70 0.1275
972.80 0.1274
972.90 0.1272
973.00 0.127
973.10 0.1269
973.20 0.1267
973.30 0.1265
973.40 0.1263
973.50 0.1262
973.60 0.126
973.70 0.1258
973.80 0.1257
973.90 0.1255
974.00 0.1253
974.10 0.1252
974.20 0.125
974.30 0.1248
974.40 0.1246
974.50 0.1245
974.60 0.1243
974.70 0.1241
974.80 0.124
974.90 0.1238
975.00 0.1236
975.10 0.1235
975.20 0.1233
975.30 0.1231
975.40 0.123
975.50 0.1228
975.60 0.1226
975.70 0.1225
975.80 0.1223
975.90 0.1221
976.00 0.122
976.10 0.1218
976.20 0.1216
976.30 0.1215
976.40 0.1213
976.50 0.1211
976.60 0.121
976.70 0.1208
976.80 0.1206
976.90 0.1205
977.00 0.1203
977.10 0.1201
977.20 0.12
977.30 0.1198
977.40 0.1197
977.50 0.1195
977.60 0.1193
977.70 0.1192
977.80 0.119
977.90 0.1189
978.00 0.1187
978.10 0.1185
978.20 0.1184
978.30 0.1182
978.40 0.1181
978.50 0.1179
978.60 0.1178
978.70 0.1176
978.80 0.1174
978.90 0.1173
979.00 0.1171
979.10 0.117
979.20 0.1168
979.30 0.1167
979.40 0.1165
979.50 0.1163
979.60 0.1162
979.70 0.116
979.80 0.1159
979.90 0.1157
980.00 0.1156
980.10 0.1154
980.20 0.1152
980.30 0.1151
980.40 0.1149
980.50 0.1148
980.60 0.1146
980.70 0.1145
980.80 0.1143
980.90 0.1141
981.00 0.114
981.10 0.1138
981.20 0.1137
981.30 0.1135
981.40 0.1134
981.50 0.1132
981.60 0.1131
981.70 0.1129
981.80 0.1127
981.90 0.1126
982.00 0.1124
982.10 0.1123
982.20 0.1121
982.30 0.112
982.40 0.1118
982.50 0.1117
982.60 0.1115
982.70 0.1114
982.80 0.1112
982.90 0.1111
983.00 0.1109
983.10 0.1108
983.20 0.1106
983.30 0.1105
983.40 0.1103
983.50 0.1102
983.60 0.11
983.70 0.1099
983.80 0.1097
983.90 0.1096
984.00 0.1095
984.10 0.1093
984.20 0.1092
984.30 0.109
984.40 0.1089
984.50 0.1087
984.60 0.1086
984.70 0.1084
984.80 0.1083
984.90 0.1081
985.00 0.108
985.10 0.1079
985.20 0.1077
985.30 0.1076
985.40 0.1074
985.50 0.1073
985.60 0.1072
985.70 0.107
985.80 0.1069
985.90 0.1068
986.00 0.1066
986.10 0.1065
986.20 0.1063
986.30 0.1062
986.40 0.1061
986.50 0.1059
986.60 0.1058
986.70 0.1056
986.80 0.1055
986.90 0.1054
987.00 0.1052
987.10 0.1051
987.20 0.1049
987.30 0.1048
987.40 0.1047
987.50 0.1045
987.60 0.1044
987.70 0.1042
987.80 0.1041
987.90 0.1039
988.00 0.1038
988.10 0.1037
988.20 0.1035
988.30 0.1034
988.40 0.1032
988.50 0.1031
988.60 0.1029
988.70 0.1028
988.80 0.1027
988.90 0.1025
989.00 0.1024
989.10 0.1022
989.20 0.1021
989.30 0.1019
989.40 0.1018
989.50 0.1017
989.60 0.1015
989.70 0.1014
989.80 0.1012
989.90 0.1011
990.00 0.1009
990.10 0.1008
990.20 0.1007
990.30 0.1005
990.40 0.1004
990.50 0.1002
990.60 0.1001
990.70 0.09995
990.80 0.09981
990.90 0.09967
991.00 0.09953
991.10 0.09939
991.20 0.09925
991.30 0.09911
991.40 0.09896
991.50 0.09882
991.60 0.09868
991.70 0.09854
991.80 0.0984
991.90 0.09826
992.00 0.09812
992.10 0.09798
992.20 0.09784
992.30 0.0977
992.40 0.09756
992.50 0.09742
992.60 0.09728
992.70 0.09714
992.80 0.097
992.90 0.09686
993.00 0.09672
993.10 0.09658
993.20 0.09644
993.30 0.0963
993.40 0.09616
993.50 0.09602
993.60 0.09588
993.70 0.09574
993.80 0.0956
993.90 0.09546
994.00 0.09532
994.10 0.09518
994.20 0.09504
994.30 0.0949
994.40 0.09476
994.50 0.09462
994.60 0.09448
994.70 0.09432
994.80 0.09415
994.90 0.09398
995.00 0.09381
995.10 0.09364
995.20 0.09347
995.30 0.0933
995.40 0.09313
995.50 0.09296
995.60 0.09279
995.70 0.09264
995.80 0.09251
995.90 0.09237
996.00 0.09224
996.10 0.09211
996.20 0.09197
996.30 0.09184
996.40 0.0917
996.50 0.09157
996.60 0.09144
996.70 0.0913
996.80 0.09117
996.90 0.09103
997.00 0.0909
997.10 0.09077
997.20 0.09064
997.30 0.09051
997.40 0.09038
997.50 0.09025
997.60 0.09011
997.70 0.08999
997.80 0.08986
997.90 0.08973
998.00 0.0896
998.10 0.08948
998.20 0.08935
998.30 0.08922
998.40 0.0891
998.50 0.08897
998.60 0.08884
998.70 0.08872
998.80 0.08859
998.90 0.08846
999.00 0.08834
999.10 0.08821
999.20 0.08808
999.30 0.08796
999.40 0.08783
999.50 0.0877
999.60 0.08758
999.70 0.08746
999.80 0.08733
999.90 0.08721
1000.00 0.08709
1000.10 0.08697
1000.20 0.08685
1000.30 0.08673
1000.40 0.08661
1000.50 0.08649
1000.60 0.08637
1000.70 0.08625
1000.80 0.08612
1000.90 0.086
1001.00 0.08588
1001.10 0.08576
1001.20 0.08564
1001.30 0.08552
1001.40 0.0854
1001.50 0.08528
1001.60 0.08516
1001.70 0.08504
1001.80 0.08492
1001.90 0.08481
1002.00 0.08469
1002.10 0.08457
1002.20 0.08446
1002.30 0.08434
1002.40 0.08423
1002.50 0.08411
1002.60 0.084
1002.70 0.08388
1002.80 0.08377
1002.90 0.08365
1003.00 0.08354
1003.10 0.08342
1003.20 0.08331
1003.30 0.08319
1003.40 0.08308
1003.50 0.08297
1003.60 0.08286
1003.70 0.08274
1003.80 0.08263
1003.90 0.08252
1004.00 0.08241
1004.10 0.0823
1004.20 0.08219
1004.30 0.08207
1004.40 0.08196
1004.50 0.08185
1004.60 0.08174
1004.70 0.08163
1004.80 0.08152
1004.90 0.08138
1005.00 0.08123
1005.10 0.08111
1005.20 0.081
1005.30 0.0809
1005.40 0.08079
1005.50 0.08068
1005.60 0.08057
1005.70 0.08047
1005.80 0.08036
1005.90 0.08026
1006.00 0.08015
1006.10 0.08004
1006.20 0.07994
1006.30 0.07984
1006.40 0.07973
1006.50 0.07963
1006.60 0.07952
1006.70 0.07942
1006.80 0.07932
1006.90 0.07921
1007.00 0.07911
1007.10 0.07901
1007.20 0.07891
1007.30 0.07881
1007.40 0.0787
1007.50 0.0786
1007.60 0.0785
1007.70 0.0784
1007.80 0.07831
1007.90 0.07821
1008.00 0.07811
1008.10 0.07801
1008.20 0.07792
1008.30 0.07782
1008.40 0.07772
1008.50 0.07762
1008.60 0.07753
1008.70 0.07743
1008.80 0.07733
1008.90 0.07723
1009.00 0.07714
1009.10 0.07704
1009.20 0.07694
1009.30 0.07685
1009.40 0.07675
1009.50 0.07665
1009.60 0.07656
1009.70 0.07646
1009.80 0.07637
1009.90 0.07628
1010.00 0.07619
1010.10 0.0761
1010.20 0.076
1010.30 0.07591
1010.40 0.07582
1010.50 0.07573
1010.60 0.07564
1010.70 0.07555
1010.80 0.07546
1010.90 0.07537
1011.00 0.07527
1011.10 0.07518
1011.20 0.07509
1011.30 0.075
1011.40 0.07491
1011.50 0.07482
1011.60 0.07473
1011.70 0.07464
1011.80 0.07455
1011.90 0.07446
1012.00 0.07438
1012.10 0.07429
1012.20 0.0742
1012.30 0.07412
1012.40 0.07403
1012.50 0.07395
1012.60 0.07386
1012.70 0.07378
1012.80 0.07369
1012.90 0.07361
1013.00 0.07352
1013.10 0.07344
1013.20 0.07335
1013.30 0.07327
1013.40 0.07318
1013.50 0.0731
1013.60 0.07301
1013.70 0.07293
1013.80 0.07285
1013.90 0.07276
1014.00 0.07268
1014.10 0.0726
1014.20 0.07252
1014.30 0.07244
1014.40 0.07236
1014.50 0.07227
1014.60 0.07219
1014.70 0.07212
1014.80 0.07205
1014.90 0.07198
1015.00 0.07191
1015.10 0.07184
1015.20 0.07177
1015.30 0.0717
1015.40 0.07163
1015.50 0.07156
1015.60 0.07149
1015.70 0.07142
1015.80 0.07135
1015.90 0.07128
1016.00 0.07121
1016.10 0.07114
1016.20 0.07107
1016.30 0.071
1016.40 0.07093
1016.50 0.07086
1016.60 0.07079
1016.70 0.07071
1016.80 0.07063
1016.90 0.07056
1017.00 0.07048
1017.10 0.0704
1017.20 0.07033
1017.30 0.07025
1017.40 0.07018
1017.50 0.0701
1017.60 0.07003
1017.70 0.06995
1017.80 0.06987
1017.90 0.0698
1018.00 0.06972
1018.10 0.06965
1018.20 0.06957
1018.30 0.0695
1018.40 0.06942
1018.50 0.06935
1018.60 0.06927
1018.70 0.0692
1018.80 0.06912
1018.90 0.06905
1019.00 0.06898
1019.10 0.0689
1019.20 0.06883
1019.30 0.06876
1019.40 0.06868
1019.50 0.06861
1019.60 0.06854
1019.70 0.06846
1019.80 0.06839
1019.90 0.06832
1020.00 0.06825
1020.10 0.06817
1020.20 0.0681
1020.30 0.06803
1020.40 0.06795
1020.50 0.06788
1020.60 0.06781
1020.70 0.06774
1020.80 0.06766
1020.90 0.06759
1021.00 0.06752
1021.10 0.06745
1021.20 0.06738
1021.30 0.06731
1021.40 0.06724
1021.50 0.06717
1021.60 0.06709
1021.70 0.06702
1021.80 0.06695
1021.90 0.06688
1022.00 0.06681
1022.10 0.06674
1022.20 0.06667
1022.30 0.0666
1022.40 0.06653
1022.50 0.06646
1022.60 0.0664
1022.70 0.06633
1022.80 0.06626
1022.90 0.06619
1023.00 0.06612
1023.10 0.06605
1023.20 0.06598
1023.30 0.06591
1023.40 0.06584
1023.50 0.06578
1023.60 0.06571
1023.70 0.06564
1023.80 0.06557
1023.90 0.0655
1024.00 0.06543
1024.10 0.06536
1024.20 0.0653
1024.30 0.06523
1024.40 0.06516
1024.50 0.06509
1024.60 0.06502
1024.70 0.06495
1024.80 0.06489
1024.90 0.06482
1025.00 0.06475
1025.10 0.06468
1025.20 0.06462
1025.30 0.06455
1025.40 0.06448
1025.50 0.06441
1025.60 0.06435
1025.70 0.06428
1025.80 0.06421
1025.90 0.06415
1026.00 0.06408
1026.10 0.06401
1026.20 0.06394
1026.30 0.06388
1026.40 0.06381
1026.50 0.06374
1026.60 0.06368
1026.70 0.06361
1026.80 0.06354
1026.90 0.06348
1027.00 0.06341
1027.10 0.06335
1027.20 0.06328
1027.30 0.06322
1027.40 0.06316
1027.50 0.0631
1027.60 0.06304
1027.70 0.06298
1027.80 0.06292
1027.90 0.06285
1028.00 0.06279
1028.10 0.06273
1028.20 0.06267
1028.30 0.06261
1028.40 0.06255
1028.50 0.06249
1028.60 0.06242
1028.70 0.06236
1028.80 0.0623
1028.90 0.06224
1029.00 0.06218
1029.10 0.06212
1029.20 0.06206
1029.30 0.06199
1029.40 0.06193
1029.50 0.06187
1029.60 0.06181
1029.70 0.06175
1029.80 0.06169
1029.90 0.06163
1030.00 0.06157
1030.10 0.06151
1030.20 0.06144
1030.30 0.06138
1030.40 0.06132
1030.50 0.06126
1030.60 0.0612
1030.70 0.06114
1030.80 0.06108
1030.90 0.06102
1031.00 0.06096
1031.10 0.0609
1031.20 0.06084
1031.30 0.06078
1031.40 0.06071
1031.50 0.06065
1031.60 0.06059
1031.70 0.06053
1031.80 0.06047
1031.90 0.06041
1032.00 0.06035
1032.10 0.06029
1032.20 0.06024
1032.30 0.06018
1032.40 0.06013
1032.50 0.06007
1032.60 0.06001
1032.70 0.05996
1032.80 0.0599
1032.90 0.05985
1033.00 0.05979
1033.10 0.05973
1033.20 0.05968
1033.30 0.05962
1033.40 0.05957
1033.50 0.05951
1033.60 0.05945
1033.70 0.0594
1033.80 0.05934
1033.90 0.05929
1034.00 0.05923
1034.10 0.05917
1034.20 0.05912
1034.30 0.05906
1034.40 0.05901
1034.50 0.05895
1034.60 0.0589
1034.70 0.05884
1034.80 0.05878
1034.90 0.05873
1035.00 0.05867
1035.10 0.05862
1035.20 0.05856
1035.30 0.05851
1035.40 0.05845
1035.50 0.0584
1035.60 0.05834
1035.70 0.05828
1035.80 0.05823
1035.90 0.05817
1036.00 0.05812
1036.10 0.05806
1036.20 0.05801
1036.30 0.05795
1036.40 0.0579
1036.50 0.05784
1036.60 0.05779
1036.70 0.05773
1036.80 0.05768
1036.90 0.05762
1037.00 0.05756
1037.10 0.05752
1037.20 0.05747
1037.30 0.05742
1037.40 0.05737
1037.50 0.05732
1037.60 0.05727
1037.70 0.05722
1037.80 0.05717
1037.90 0.05712
1038.00 0.05707
1038.10 0.05702
1038.20 0.05697
1038.30 0.05692
1038.40 0.05688
1038.50 0.05683
1038.60 0.05678
1038.70 0.05673
1038.80 0.05668
1038.90 0.05663
1039.00 0.05658
1039.10 0.05653
1039.20 0.05648
1039.30 0.05643
1039.40 0.05638
1039.50 0.05634
1039.60 0.05629
1039.70 0.05624
1039.80 0.05619
1039.90 0.05614
1040.00 0.05609
1040.10 0.05604
1040.20 0.05599
1040.30 0.05594
1040.40 0.0559
1040.50 0.05585
1040.60 0.0558
1040.70 0.05575
1040.80 0.0557
1040.90 0.05565
1041.00 0.0556
1041.10 0.05556
1041.20 0.05551
1041.30 0.05546
1041.40 0.05541
1041.50 0.05536
1041.60 0.05531
1041.70 0.05526
1041.80 0.05521
1041.90 0.05517
1042.00 0.05512
1042.10 0.05507
1042.20 0.05503
1042.30 0.05499
1042.40 0.05494
1042.50 0.0549
1042.60 0.05486
1042.70 0.05482
1042.80 0.05477
1042.90 0.05473
1043.00 0.05469
1043.10 0.05464
1043.20 0.0546
1043.30 0.05456
1043.40 0.05451
1043.50 0.05447
1043.60 0.05443
1043.70 0.05438
1043.80 0.05434
1043.90 0.0543
1044.00 0.05426
1044.10 0.05421
1044.20 0.05417
1044.30 0.05413
1044.40 0.05408
1044.50 0.05404
1044.60 0.054
1044.70 0.05396
1044.80 0.05391
1044.90 0.05387
1045.00 0.05383
1045.10 0.05378
1045.20 0.05374
1045.30 0.0537
1045.40 0.05366
1045.50 0.05361
1045.60 0.05357
1045.70 0.05353
1045.80 0.05348
1045.90 0.05344
1046.00 0.0534
1046.10 0.05336
1046.20 0.05331
1046.30 0.05327
1046.40 0.05323
1046.50 0.05319
1046.60 0.05314
1046.70 0.0531
1046.80 0.05306
1046.90 0.05302
1047.00 0.05297
1047.10 0.05294
1047.20 0.0529
1047.30 0.05286
1047.40 0.05282
1047.50 0.05279
1047.60 0.05275
1047.70 0.05271
1047.80 0.05267
1047.90 0.05264
1048.00 0.0526
1048.10 0.05256
1048.20 0.05252
1048.30 0.05249
1048.40 0.05245
1048.50 0.05241
1048.60 0.05238
1048.70 0.05234
1048.80 0.0523
1048.90 0.05226
1049.00 0.05223
1049.10 0.05219
1049.20 0.05215
1049.30 0.05211
1049.40 0.05208
1049.50 0.05204
1049.60 0.052
1049.70 0.05197
1049.80 0.05193
1049.90 0.05189
1050.00 0.05185
1050.10 0.05182
1050.20 0.05178
1050.30 0.05174
1050.40 0.05171
1050.50 0.05167
1050.60 0.05163
1050.70 0.05159
1050.80 0.05156
1050.90 0.05152
1051.00 0.05148
1051.10 0.05145
1051.20 0.05141
1051.30 0.05137
1051.40 0.05134
1051.50 0.0513
1051.60 0.05126
1051.70 0.05123
1051.80 0.05119
1051.90 0.05115
1052.00 0.05111
1052.10 0.05108
1052.20 0.05105
1052.30 0.05102
1052.40 0.05098
1052.50 0.05095
1052.60 0.05092
1052.70 0.05088
1052.80 0.05085
1052.90 0.05082
1053.00 0.05078
1053.10 0.05075
1053.20 0.05072
1053.30 0.05068
1053.40 0.05065
1053.50 0.05062
1053.60 0.05059
1053.70 0.05055
1053.80 0.05052
1053.90 0.05049
1054.00 0.05045
1054.10 0.05042
1054.20 0.05039
1054.30 0.05035
1054.40 0.05032
1054.50 0.05029
1054.60 0.05026
1054.70 0.05022
1054.80 0.05019
1054.90 0.05016
1055.00 0.05012
1055.10 0.05009
1055.20 0.05006
1055.30 0.05003
1055.40 0.04999
1055.50 0.04996
1055.60 0.04993
1055.70 0.04989
1055.80 0.04986
1055.90 0.04983
1056.00 0.0498
1056.10 0.04976
1056.20 0.04973
1056.30 0.0497
1056.40 0.04967
1056.50 0.04963
1056.60 0.0496
1056.70 0.04957
1056.80 0.04953
1056.90 0.0495
1057.00 0.04947
1057.10 0.04944
1057.20 0.04941
1057.30 0.04938
1057.40 0.04935
1057.50 0.04933
1057.60 0.0493
1057.70 0.04927
1057.80 0.04924
1057.90 0.04921
1058.00 0.04918
1058.10 0.04915
1058.20 0.04912
1058.30 0.04909
1058.40 0.04907
1058.50 0.04904
1058.60 0.04901
1058.70 0.04898
1058.80 0.04895
1058.90 0.04892
1059.00 0.04889
1059.10 0.04886
1059.20 0.04884
1059.30 0.04881
1059.40 0.04878
1059.50 0.04875
1059.60 0.04872
1059.70 0.04869
1059.80 0.04866
1059.90 0.04864
1060.00 0.04861
1060.10 0.04858
1060.20 0.04855
1060.30 0.04852
1060.40 0.04849
1060.50 0.04846
1060.60 0.04844
1060.70 0.04841
1060.80 0.04838
1060.90 0.04835
1061.00 0.04832
1061.10 0.04829
1061.20 0.04826
1061.30 0.04824
1061.40 0.04821
1061.50 0.04818
1061.60 0.04815
1061.70 0.04812
1061.80 0.04809
1061.90 0.04806
1062.00 0.04804
1062.10 0.04801
1062.20 0.04799
1062.30 0.04796
1062.40 0.04794
1062.50 0.04791
1062.60 0.04789
1062.70 0.04786
1062.80 0.04784
1062.90 0.04781
1063.00 0.04779
1063.10 0.04777
1063.20 0.04774
1063.30 0.04772
1063.40 0.04769
1063.50 0.04767
1063.60 0.04764
1063.70 0.04762
1063.80 0.04759
1063.90 0.04757
1064.00 0.04754
1064.10 0.04752
1064.20 0.04749
1064.30 0.04747
1064.40 0.04745
1064.50 0.04742
1064.60 0.0474
1064.70 0.04737
1064.80 0.04735
1064.90 0.04732
1065.00 0.0473
1065.10 0.04727
1065.20 0.04725
1065.30 0.04723
1065.40 0.0472
1065.50 0.04718
1065.60 0.04715
1065.70 0.04713
1065.80 0.0471
1065.90 0.04708
1066.00 0.04705
1066.10 0.04703
1066.20 0.04701
1066.30 0.04698
1066.40 0.04696
1066.50 0.04693
1066.60 0.04691
1066.70 0.04688
1066.80 0.04686
1066.90 0.04684
1067.00 0.04681
1067.10 0.04679
1067.20 0.04677
1067.30 0.04675
1067.40 0.04672
1067.50 0.0467
1067.60 0.04668
1067.70 0.04666
1067.80 0.04664
1067.90 0.04662
1068.00 0.0466
1068.10 0.04657
1068.20 0.04655
1068.30 0.04653
1068.40 0.04651
1068.50 0.04649
1068.60 0.04647
1068.70 0.04644
1068.80 0.04642
1068.90 0.0464
1069.00 0.04638
1069.10 0.04636
1069.20 0.04634
1069.30 0.04632
1069.40 0.04629
1069.50 0.04627
1069.60 0.04625
1069.70 0.04623
1069.80 0.04621
1069.90 0.04619
1070.00 0.04617
1070.10 0.04614
1070.20 0.04612
1070.30 0.0461
1070.40 0.04608
1070.50 0.04606
1070.60 0.04604
1070.70 0.04602
1070.80 0.04599
1070.90 0.04597
1071.00 0.04595
1071.10 0.04593
1071.20 0.04591
1071.30 0.04589
1071.40 0.04587
1071.50 0.04584
1071.60 0.04582
1071.70 0.0458
1071.80 0.04578
1071.90 0.04576
1072.00 0.04574
1072.10 0.04572
1072.20 0.0457
1072.30 0.04569
1072.40 0.04567
1072.50 0.04565
1072.60 0.04563
1072.70 0.04562
1072.80 0.0456
1072.90 0.04558
1073.00 0.04556
1073.10 0.04555
1073.20 0.04553
1073.30 0.04551
1073.40 0.04549
1073.50 0.04548
1073.60 0.04546
1073.70 0.04545
1073.80 0.04543
1073.90 0.04542
1074.00 0.0454
1074.10 0.04539
1074.20 0.04537
1074.30 0.04536
1074.40 0.04534
1074.50 0.04533
1074.60 0.04531
1074.70 0.0453
1074.80 0.04528
1074.90 0.04527
1075.00 0.04525
1075.10 0.04524
1075.20 0.04522
1075.30 0.04521
1075.40 0.04519
1075.50 0.04518
1075.60 0.04516
1075.70 0.04515
1075.80 0.04513
1075.90 0.04512
1076.00 0.0451
1076.10 0.04509
1076.20 0.04507
1076.30 0.04506
1076.40 0.04504
1076.50 0.04503
1076.60 0.04501
1076.70 0.045
1076.80 0.04498
1076.90 0.04497
1077.00 0.04495
1077.10 0.04494
1077.20 0.04493
1077.30 0.04491
1077.40 0.0449
1077.50 0.04489
1077.60 0.04488
1077.70 0.04486
1077.80 0.04485
1077.90 0.04484
1078.00 0.04483
1078.10 0.04482
1078.20 0.04481
1078.30 0.04479
1078.40 0.04478
1078.50 0.04477
1078.60 0.04476
1078.70 0.04475
1078.80 0.04473
1078.90 0.04472
1079.00 0.04471
1079.10 0.0447
1079.20 0.04469
1079.30 0.04467
1079.40 0.04466
1079.50 0.04465
1079.60 0.04464
1079.70 0.04463
1079.80 0.04463
1079.90 0.04462
1080.00 0.04461
1080.10 0.0446
1080.20 0.04459
1080.30 0.04458
1080.40 0.04457
1080.50 0.04456
1080.60 0.04456
1080.70 0.04455
1080.80 0.04454
1080.90 0.04453
1081.00 0.04452
1081.10 0.04451
1081.20 0.0445
1081.30 0.04449
1081.40 0.04448
1081.50 0.04448
1081.60 0.04447
1081.70 0.04446
1081.80 0.04445
1081.90 0.04444
1082.00 0.04443
1082.10 0.04442
1082.20 0.04442
1082.30 0.04441
1082.40 0.0444
1082.50 0.04439
1082.60 0.04438
1082.70 0.04438
1082.80 0.04437
1082.90 0.04436
1083.00 0.04435
1083.10 0.04434
1083.20 0.04434
1083.30 0.04433
1083.40 0.04432
1083.50 0.04431
1083.60 0.0443
1083.70 0.0443
1083.80 0.04429
1083.90 0.04428
1084.00 0.04428
1084.10 0.04427
1084.20 0.04426
1084.30 0.04425
1084.40 0.04425
1084.50 0.04424
1084.60 0.04424
1084.70 0.04423
1084.80 0.04422
1084.90 0.04422
1085.00 0.04421
1085.10 0.04421
1085.20 0.0442
1085.30 0.04419
1085.40 0.04419
1085.50 0.04418
1085.60 0.04418
1085.70 0.04417
1085.80 0.04416
1085.90 0.04416
1086.00 0.04415
1086.10 0.04415
1086.20 0.04414
1086.30 0.04414
1086.40 0.04413
1086.50 0.04412
1086.60 0.04412
1086.70 0.04411
1086.80 0.04411
1086.90 0.0441
1087.00 0.0441
1087.10 0.0441
1087.20 0.04409
1087.30 0.04409
1087.40 0.04408
1087.50 0.04408
1087.60 0.04407
1087.70 0.04407
1087.80 0.04407
1087.90 0.04406
1088.00 0.04406
1088.10 0.04405
1088.20 0.04405
1088.30 0.04405
1088.40 0.04404
1088.50 0.04404
1088.60 0.04404
1088.70 0.04403
1088.80 0.04403
1088.90 0.04403
1089.00 0.04402
1089.10 0.04402
1089.20 0.04402
1089.30 0.04402
1089.40 0.04401
1089.50 0.04401
1089.60 0.04401
1089.70 0.04401
1089.80 0.044
1089.90 0.044
1090.00 0.044
1090.10 0.04399
1090.20 0.04399
1090.30 0.04399
1090.40 0.04399
1090.50 0.04398
1090.60 0.04398
1090.70 0.04398
1090.80 0.04398
1090.90 0.04398
1091.00 0.04398
1091.10 0.04398
1091.20 0.04397
1091.30 0.04397
1091.40 0.04397
1091.50 0.04397
1091.60 0.04397
1091.70 0.04397
1091.80 0.04397
1091.90 0.04396
1092.00 0.04396
1092.10 0.04396
1092.20 0.04396
1092.30 0.04396
1092.40 0.04396
1092.50 0.04396
1092.60 0.04396
1092.70 0.04396
1092.80 0.04398
1092.90 0.044
1093.00 0.04401
1093.10 0.04402
1093.20 0.04402
1093.30 0.04402
1093.40 0.04402
1093.50 0.04402
1093.60 0.04402
1093.70 0.04402
1093.80 0.04402
1093.90 0.04402
1094.00 0.04402
1094.10 0.04402
1094.20 0.04402
1094.30 0.04402
1094.40 0.04403
1094.50 0.04403
1094.60 0.04403
1094.70 0.04403
1094.80 0.04403
1094.90 0.04403
1095.00 0.04403
1095.10 0.04403
1095.20 0.04403
1095.30 0.04403
1095.40 0.04403
1095.50 0.04403
1095.60 0.04403
1095.70 0.04404
1095.80 0.04404
1095.90 0.04404
1096.00 0.04404
1096.10 0.04404
1096.20 0.04404
1096.30 0.04404
1096.40 0.04404
1096.50 0.04404
1096.60 0.04405
1096.70 0.04405
1096.80 0.04405
1096.90 0.04405
1097.00 0.04405
1097.10 0.04405
1097.20 0.04405
1097.30 0.04406
1097.40 0.04406
1097.50 0.04406
1097.60 0.04406
1097.70 0.04406
1097.80 0.04407
1097.90 0.04407
1098.00 0.04407
1098.10 0.04407
1098.20 0.04407
1098.30 0.04407
1098.40 0.04408
1098.50 0.04408
1098.60 0.04408
1098.70 0.04408
1098.80 0.04409
1098.90 0.04409
1099.00 0.04409
1099.10 0.04409
1099.20 0.0441
1099.30 0.0441
1099.40 0.0441
1099.50 0.0441
1099.60 0.04411
1099.70 0.04411
1099.80 0.04411
1099.90 0.04411
1100.00 0.04412
1100.10 0.04412
1100.20 0.04412
1100.30 0.04412
1100.40 0.04413
1100.50 0.04413
1100.60 0.04413
1100.70 0.04414
1100.80 0.04414
1100.90 0.04414
1101.00 0.04415
1101.10 0.04415
1101.20 0.04415
1101.30 0.04416
1101.40 0.04416
1101.50 0.04416
1101.60 0.04416
1101.70 0.04417
1101.80 0.04417
1101.90 0.04417
1102.00 0.04418
1102.10 0.04418
1102.20 0.04418
1102.30 0.04419
1102.40 0.04419
1102.50 0.0442
1102.60 0.0442
1102.70 0.0442
1102.80 0.04421
1102.90 0.04421
1103.00 0.04421
1103.10 0.04422
1103.20 0.04422
1103.30 0.04423
1103.40 0.04423
1103.50 0.04423
1103.60 0.04424
1103.70 0.04424
1103.80 0.04425
1103.90 0.04425
1104.00 0.04426
1104.10 0.04426
1104.20 0.04427
1104.30 0.04427
1104.40 0.04428
1104.50 0.04428
1104.60 0.04429
1104.70 0.04429
1104.80 0.04429
1104.90 0.0443
1105.00 0.0443
1105.10 0.04431
1105.20 0.04431
1105.30 0.04432
1105.40 0.04432
1105.50 0.04433
1105.60 0.04433
1105.70 0.04434
1105.80 0.04434
1105.90 0.04435
1106.00 0.04435
1106.10 0.04436
1106.20 0.04436
1106.30 0.04437
1106.40 0.04437
1106.50 0.04438
1106.60 0.04438
1106.70 0.04439
1106.80 0.04439
1106.90 0.0444
1107.00 0.0444
1107.10 0.04441
1107.20 0.04442
1107.30 0.04442
1107.40 0.04443
1107.50 0.04443
1107.60 0.04444
1107.70 0.04444
1107.80 0.04445
1107.90 0.04446
1108.00 0.04446
1108.10 0.04447
1108.20 0.04447
1108.30 0.04448
1108.40 0.04449
1108.50 0.04449
1108.60 0.0445
1108.70 0.0445
1108.80 0.04451
1108.90 0.04452
1109.00 0.04452
1109.10 0.04453
1109.20 0.04453
1109.30 0.04454
1109.40 0.04455
1109.50 0.04455
1109.60 0.04456
1109.70 0.04457
1109.80 0.04457
1109.90 0.04458
1110.00 0.04459
1110.10 0.04459
1110.20 0.0446
1110.30 0.04461
1110.40 0.04461
1110.50 0.04462
1110.60 0.04463
1110.70 0.04463
1110.80 0.04464
1110.90 0.04465
1111.00 0.04466
1111.10 0.04466
1111.20 0.04467
1111.30 0.04468
1111.40 0.04468
1111.50 0.04469
1111.60 0.0447
1111.70 0.0447
1111.80 0.04471
1111.90 0.04472
1112.00 0.04472
1112.10 0.04473
1112.20 0.04474
1112.30 0.04475
1112.40 0.04475
1112.50 0.04476
1112.60 0.04477
1112.70 0.04478
1112.80 0.04478
1112.90 0.04479
1113.00 0.0448
1113.10 0.04481
1113.20 0.04482
1113.30 0.04482
1113.40 0.04483
1113.50 0.04484
1113.60 0.04485
1113.70 0.04486
1113.80 0.04486
1113.90 0.04487
1114.00 0.04488
1114.10 0.04489
1114.20 0.0449
1114.30 0.04491
1114.40 0.04492
1114.50 0.04492
1114.60 0.04493
1114.70 0.04494
1114.80 0.04495
1114.90 0.04496
1115.00 0.04497
1115.10 0.04498
1115.20 0.04498
1115.30 0.04499
1115.40 0.045
1115.50 0.04501
1115.60 0.04502
1115.70 0.04503
1115.80 0.04504
1115.90 0.04504
1116.00 0.04505
1116.10 0.04506
1116.20 0.04507
1116.30 0.04508
1116.40 0.04509
1116.50 0.0451
1116.60 0.0451
1116.70 0.04511
1116.80 0.04512
1116.90 0.04513
1117.00 0.04514
1117.10 0.04515
1117.20 0.04516
1117.30 0.04517
1117.40 0.04518
1117.50 0.04519
1117.60 0.0452
1117.70 0.04521
1117.80 0.04522
1117.90 0.04523
1118.00 0.04524
1118.10 0.04525
1118.20 0.04526
1118.30 0.04527
1118.40 0.04528
1118.50 0.04529
1118.60 0.0453
1118.70 0.04531
1118.80 0.04532
1118.90 0.04533
1119.00 0.04534
1119.10 0.04535
1119.20 0.04536
1119.30 0.04537
1119.40 0.04538
1119.50 0.04539
1119.60 0.0454
1119.70 0.04541
1119.80 0.04542
1119.90 0.04543
1120.00 0.04544
1120.10 0.04545
1120.20 0.04546
1120.30 0.04547
1120.40 0.04548
1120.50 0.04549
1120.60 0.0455
1120.70 0.04551
1120.80 0.04552
1120.90 0.04553
1121.00 0.04554
1121.10 0.04555
1121.20 0.04556
1121.30 0.04557
1121.40 0.04558
1121.50 0.04559
1121.60 0.0456
1121.70 0.04561
1121.80 0.04562
1121.90 0.04563
1122.00 0.04564
1122.10 0.04565
1122.20 0.04566
1122.30 0.04568
1122.40 0.04569
1122.50 0.0457
1122.60 0.04572
1122.70 0.04573
1122.80 0.04574
1122.90 0.04575
1123.00 0.04577
1123.10 0.04578
1123.20 0.04579
1123.30 0.04581
1123.40 0.04582
1123.50 0.04583
1123.60 0.04584
1123.70 0.04586
1123.80 0.04587
1123.90 0.04588
1124.00 0.0459
1124.10 0.04591
1124.20 0.04592
1124.30 0.04593
1124.40 0.04595
1124.50 0.04596
1124.60 0.04597
1124.70 0.04599
1124.80 0.046
1124.90 0.04601
1125.00 0.04602
1125.10 0.04604
1125.20 0.04605
1125.30 0.04606
1125.40 0.04608
1125.50 0.04609
1125.60 0.0461
1125.70 0.04611
1125.80 0.04613
1125.90 0.04614
1126.00 0.04615
1126.10 0.04617
1126.20 0.04618
1126.30 0.04619
1126.40 0.0462
1126.50 0.04622
1126.60 0.04623
1126.70 0.04624
1126.80 0.04625
1126.90 0.04627
1127.00 0.04628
1127.10 0.0463
1127.20 0.04631
1127.30 0.04633
1127.40 0.04635
1127.50 0.04636
1127.60 0.04638
1127.70 0.0464
1127.80 0.04641
1127.90 0.04643
1128.00 0.04645
1128.10 0.04646
1128.20 0.04648
1128.30 0.0465
1128.40 0.04651
1128.50 0.04653
1128.60 0.04655
1128.70 0.04656
1128.80 0.04658
1128.90 0.0466
1129.00 0.04661
1129.10 0.04663
1129.20 0.04665
1129.30 0.04666
1129.40 0.04668
1129.50 0.04669
1129.60 0.04671
1129.70 0.04673
1129.80 0.04674
1129.90 0.04676
1130.00 0.04678
1130.10 0.04679
1130.20 0.04681
1130.30 0.04683
1130.40 0.04684
1130.50 0.04686
1130.60 0.04688
1130.70 0.04689
1130.80 0.04691
1130.90 0.04693
1131.00 0.04694
1131.10 0.04696
1131.20 0.04697
1131.30 0.04699
1131.40 0.04701
1131.50 0.04702
1131.60 0.04704
1131.70 0.04706
1131.80 0.04707
1131.90 0.04709
1132.00 0.04711
1132.10 0.04712
1132.20 0.04714
1132.30 0.04715
1132.40 0.04717
1132.50 0.04719
1132.60 0.0472
1132.70 0.04722
1132.80 0.04724
1132.90 0.04725
1133.00 0.04727
1133.10 0.04729
1133.20 0.0473
1133.30 0.04732
1133.40 0.04733
1133.50 0.04735
1133.60 0.04737
1133.70 0.04738
1133.80 0.0474
1133.90 0.04742
1134.00 0.04743
1134.10 0.04745
1134.20 0.04746
1134.30 0.04748
1134.40 0.0475
1134.50 0.04751
1134.60 0.04753
1134.70 0.04755
1134.80 0.04756
1134.90 0.04758
1135.00 0.04759
1135.10 0.04761
1135.20 0.04763
1135.30 0.04764
1135.40 0.04766
1135.50 0.04768
1135.60 0.04769
1135.70 0.04771
1135.80 0.04772
1135.90 0.04774
1136.00 0.04776
1136.10 0.04777
1136.20 0.04779
1136.30 0.0478
1136.40 0.04782
1136.50 0.04784
1136.60 0.04785
1136.70 0.04787
1136.80 0.04789
1136.90 0.0479
1137.00 0.04792
1137.10 0.04793
1137.20 0.04795
1137.30 0.04797
1137.40 0.04799
1137.50 0.048
1137.60 0.04802
1137.70 0.04804
1137.80 0.04806
1137.90 0.04807
1138.00 0.04809
1138.10 0.04811
1138.20 0.04812
1138.30 0.04814
1138.40 0.04816
1138.50 0.04818
1138.60 0.04819
1138.70 0.04821
1138.80 0.04823
1138.90 0.04824
1139.00 0.04826
1139.10 0.04828
1139.20 0.0483
1139.30 0.04831
1139.40 0.04833
1139.50 0.04835
1139.60 0.04836
1139.70 0.04838
1139.80 0.0484
1139.90 0.04841
1140.00 0.04843
1140.10 0.04845
1140.20 0.04847
1140.30 0.04848
1140.40 0.0485
1140.50 0.04852
1140.60 0.04853
1140.70 0.04855
1140.80 0.04857
1140.90 0.04858
1141.00 0.0486
1141.10 0.04862
1141.20 0.04864
1141.30 0.04865
1141.40 0.04867
1141.50 0.04869
1141.60 0.0487
1141.70 0.04872
1141.80 0.04874
1141.90 0.04875
1142.00 0.04877
1142.10 0.04879
1142.20 0.04881
1142.30 0.04883
1142.40 0.04885
1142.50 0.04887
1142.60 0.04888
1142.70 0.0489
1142.80 0.04892
1142.90 0.04894
1143.00 0.04896
1143.10 0.04898
1143.20 0.049
1143.30 0.04902
1143.40 0.04904
1143.50 0.04906
1143.60 0.04907
1143.70 0.04909
1143.80 0.04911
1143.90 0.04913
1144.00 0.04915
1144.10 0.04917
1144.20 0.04919
1144.30 0.04921
1144.40 0.04923
1144.50 0.04924
1144.60 0.04926
1144.70 0.04928
1144.80 0.0493
1144.90 0.04932
1145.00 0.04934
1145.10 0.04936
1145.20 0.04938
1145.30 0.0494
1145.40 0.04941
1145.50 0.04943
1145.60 0.04945
1145.70 0.04947
1145.80 0.04949
1145.90 0.04951
1146.00 0.04953
1146.10 0.04955
1146.20 0.04956
1146.30 0.04958
1146.40 0.0496
1146.50 0.04962
1146.60 0.04964
1146.70 0.04966
1146.80 0.04968
1146.90 0.0497
1147.00 0.04971
1147.10 0.04973
1147.20 0.04975
1147.30 0.04976
1147.40 0.04978
1147.50 0.04979
1147.60 0.04981
1147.70 0.04983
1147.80 0.04984
1147.90 0.04986
1148.00 0.04987
1148.10 0.04989
1148.20 0.04991
1148.30 0.04992
1148.40 0.04994
1148.50 0.04995
1148.60 0.04997
1148.70 0.04999
1148.80 0.05
1148.90 0.05002
1149.00 0.05003
1149.10 0.05005
1149.20 0.05007
1149.30 0.05008
1149.40 0.0501
1149.50 0.05011
1149.60 0.05013
1149.70 0.05014
1149.80 0.05016
1149.90 0.05018
1150.00 0.05019
1150.10 0.05021
1150.20 0.05022
1150.30 0.05024
1150.40 0.05026
1150.50 0.05027
1150.60 0.05029
1150.70 0.0503
1150.80 0.05032
1150.90 0.05033
1151.00 0.05035
1151.10 0.05037
1151.20 0.05038
1151.30 0.0504
1151.40 0.05041
1151.50 0.05043
1151.60 0.05044
1151.70 0.05046
1151.80 0.05048
1151.90 0.05049
1152.00 0.05051
1152.10 0.05052
1152.20 0.05054
1152.30 0.05055
1152.40 0.05057
1152.50 0.05059
1152.60 0.0506
1152.70 0.05062
1152.80 0.05063
1152.90 0.05065
1153.00 0.05067
1153.10 0.05068
1153.20 0.0507
1153.30 0.05071
1153.40 0.05073
1153.50 0.05075
1153.60 0.05076
1153.70 0.05078
1153.80 0.05079
1153.90 0.05081
1154.00 0.05083
1154.10 0.05084
1154.20 0.05086
1154.30 0.05087
1154.40 0.05089
1154.50 0.05091
1154.60 0.05092
1154.70 0.05094
1154.80 0.05095
1154.90 0.05097
1155.00 0.05098
1155.10 0.051
1155.20 0.05102
1155.30 0.05103
1155.40 0.05105
1155.50 0.05106
1155.60 0.05108
1155.70 0.0511
1155.80 0.05111
1155.90 0.05113
1156.00 0.05114
1156.10 0.05116
1156.20 0.05117
1156.30 0.05119
1156.40 0.05121
1156.50 0.05122
1156.60 0.05124
1156.70 0.05125
1156.80 0.05127
1156.90 0.05128
1157.00 0.0513
1157.10 0.05131
1157.20 0.05133
1157.30 0.05134
1157.40 0.05135
1157.50 0.05136
1157.60 0.05137
1157.70 0.05139
1157.80 0.0514
1157.90 0.05141
1158.00 0.05142
1158.10 0.05144
1158.20 0.05145
1158.30 0.05146
1158.40 0.05147
1158.50 0.05149
1158.60 0.0515
1158.70 0.05151
1158.80 0.05152
1158.90 0.05153
1159.00 0.05155
1159.10 0.05156
1159.20 0.05157
1159.30 0.05158
1159.40 0.0516
1159.50 0.05161
1159.60 0.05162
1159.70 0.05163
1159.80 0.05164
1159.90 0.05166
1160.00 0.05167
1160.10 0.05168
1160.20 0.05169
1160.30 0.05171
1160.40 0.05172
1160.50 0.05173
1160.60 0.05174
1160.70 0.05175
1160.80 0.05177
1160.90 0.05178
1161.00 0.05179
1161.10 0.0518
1161.20 0.05181
1161.30 0.05183
1161.40 0.05184
1161.50 0.05185
1161.60 0.05186
1161.70 0.05188
1161.80 0.05189
1161.90 0.0519
1162.00 0.05191
1162.10 0.05192
1162.20 0.05193
1162.30 0.05194
1162.40 0.05195
1162.50 0.05196
1162.60 0.05197
1162.70 0.05198
1162.80 0.05199
1162.90 0.052
1163.00 0.05201
1163.10 0.05202
1163.20 0.05203
1163.30 0.05204
1163.40 0.05204
1163.50 0.05205
1163.60 0.05206
1163.70 0.05207
1163.80 0.05208
1163.90 0.05209
1164.00 0.0521
1164.10 0.05211
1164.20 0.05212
1164.30 0.05213
1164.40 0.05214
1164.50 0.05215
1164.60 0.05216
1164.70 0.05217
1164.80 0.05218
1164.90 0.05219
1165.00 0.0522
1165.10 0.05221
1165.20 0.05222
1165.30 0.05223
1165.40 0.05223
1165.50 0.05224
1165.60 0.05225
1165.70 0.05226
1165.80 0.05227
1165.90 0.05228
1166.00 0.05229
1166.10 0.0523
1166.20 0.05231
1166.30 0.05232
1166.40 0.05233
1166.50 0.05234
1166.60 0.05235
1166.70 0.05236
1166.80 0.05237
1166.90 0.05238
1167.00 0.05238
1167.10 0.05239
1167.20 0.0524
1167.30 0.05241
1167.40 0.05242
1167.50 0.05243
1167.60 0.05243
1167.70 0.05244
1167.80 0.05245
1167.90 0.05246
1168.00 0.05247
1168.10 0.05248
1168.20 0.05248
1168.30 0.05249
1168.40 0.0525
1168.50 0.05251
1168.60 0.05252
1168.70 0.05252
1168.80 0.05253
1168.90 0.05254
1169.00 0.05255
1169.10 0.05256
1169.20 0.05257
1169.30 0.05257
1169.40 0.05258
1169.50 0.05259
1169.60 0.0526
1169.70 0.05261
1169.80 0.05261
1169.90 0.05262
1170.00 0.05263
1170.10 0.05264
1170.20 0.05265
1170.30 0.05266
1170.40 0.05266
1170.50 0.05267
1170.60 0.05268
1170.70 0.05269
1170.80 0.0527
1170.90 0.0527
1171.00 0.05271
1171.10 0.05272
1171.20 0.05273
1171.30 0.05274
1171.40 0.05274
1171.50 0.05275
1171.60 0.05276
1171.70 0.05277
1171.80 0.05278
1171.90 0.05279
1172.00 0.05279
1172.10 0.0528
1172.20 0.0528
1172.30 0.0528
1172.40 0.0528
1172.50 0.05281
1172.60 0.05281
1172.70 0.05281
1172.80 0.05281
1172.90 0.05282
1173.00 0.05282
1173.10 0.05282
1173.20 0.05282
1173.30 0.05282
1173.40 0.05283
1173.50 0.05283
1173.60 0.05283
1173.70 0.05283
1173.80 0.05284
1173.90 0.05284
1174.00 0.05284
1174.10 0.05284
1174.20 0.05285
1174.30 0.05285
1174.40 0.05285
1174.50 0.05285
1174.60 0.05286
1174.70 0.05286
1174.80 0.05286
1174.90 0.05286
1175.00 0.05287
1175.10 0.05287
1175.20 0.05287
1175.30 0.05287
1175.40 0.05288
1175.50 0.05288
1175.60 0.05288
1175.70 0.05288
1175.80 0.05288
1175.90 0.05289
1176.00 0.05289
1176.10 0.05289
1176.20 0.05289
1176.30 0.0529
1176.40 0.0529
1176.50 0.0529
1176.60 0.0529
1176.70 0.05291
1176.80 0.05291
1176.90 0.05291
1177.00 0.05291
1177.10 0.05291
1177.20 0.05291
1177.30 0.05291
1177.40 0.05291
1177.50 0.0529
1177.60 0.0529
1177.70 0.0529
1177.80 0.0529
1177.90 0.0529
1178.00 0.0529
1178.10 0.05289
1178.20 0.05289
1178.30 0.05289
1178.40 0.05289
1178.50 0.05289
1178.60 0.05288
1178.70 0.05288
1178.80 0.05288
1178.90 0.05288
1179.00 0.05288
1179.10 0.05288
1179.20 0.05287
1179.30 0.05287
1179.40 0.05287
1179.50 0.05287
1179.60 0.05287
1179.70 0.05286
1179.80 0.05286
1179.90 0.05286
1180.00 0.05286
1180.10 0.05286
1180.20 0.05286
1180.30 0.05285
1180.40 0.05285
1180.50 0.05285
1180.60 0.05285
1180.70 0.05285
1180.80 0.05284
1180.90 0.05284
1181.00 0.05284
1181.10 0.05284
1181.20 0.05284
1181.30 0.05283
1181.40 0.05283
1181.50 0.05283
1181.60 0.05283
1181.70 0.05283
1181.80 0.05283
1181.90 0.05282
1182.00 0.05282
1182.10 0.05281
1182.20 0.05281
1182.30 0.0528
1182.40 0.05279
1182.50 0.05278
1182.60 0.05277
1182.70 0.05277
1182.80 0.05276
1182.90 0.05275
1183.00 0.05274
1183.10 0.05273
1183.20 0.05273
1183.30 0.05272
1183.40 0.05271
1183.50 0.0527
1183.60 0.05269
1183.70 0.05269
1183.80 0.05268
1183.90 0.05267
1184.00 0.05266
1184.10 0.05265
1184.20 0.05265
1184.30 0.05264
1184.40 0.05263
1184.50 0.05262
1184.60 0.05261
1184.70 0.05261
1184.80 0.0526
1184.90 0.05259
1185.00 0.05258
1185.10 0.05257
1185.20 0.05257
1185.30 0.05256
1185.40 0.05255
1185.50 0.05254
1185.60 0.05253
1185.70 0.05253
1185.80 0.05252
1185.90 0.05251
1186.00 0.0525
1186.10 0.05249
1186.20 0.05249
1186.30 0.05248
1186.40 0.05247
1186.50 0.05246
1186.60 0.05245
1186.70 0.05245
1186.80 0.05244
1186.90 0.05243
1187.00 0.05242
1187.10 0.05242
1187.20 0.05241
1187.30 0.0524
1187.40 0.0524
1187.50 0.05239
1187.60 0.05238
1187.70 0.05238
1187.80 0.05237
1187.90 0.05236
1188.00 0.05236
1188.10 0.05235
1188.20 0.05234
1188.30 0.05234
1188.40 0.05233
1188.50 0.05232
1188.60 0.05232
1188.70 0.05231
1188.80 0.0523
1188.90 0.0523
1189.00 0.05229
1189.10 0.05228
1189.20 0.05228
1189.30 0.05227
1189.40 0.05226
1189.50 0.05226
1189.60 0.05225
1189.70 0.05224
1189.80 0.05224
1189.90 0.05223
1190.00 0.05222
1190.10 0.05222
1190.20 0.05221
1190.30 0.0522
1190.40 0.0522
1190.50 0.05219
1190.60 0.05218
1190.70 0.05218
1190.80 0.05217
1190.90 0.05216
1191.00 0.05216
1191.10 0.05215
1191.20 0.05214
1191.30 0.05214
1191.40 0.05213
1191.50 0.05212
1191.60 0.05212
1191.70 0.05211
1191.80 0.05211
1191.90 0.0521
1192.00 0.05209
1192.10 0.05208
1192.20 0.05208
1192.30 0.05207
1192.40 0.05206
1192.50 0.05205
1192.60 0.05204
1192.70 0.05204
1192.80 0.05203
1192.90 0.05202
1193.00 0.05201
1193.10 0.05201
1193.20 0.052
1193.30 0.05199
1193.40 0.05198
1193.50 0.05197
1193.60 0.05197
1193.70 0.05196
1193.80 0.05195
1193.90 0.05194
1194.00 0.05193
1194.10 0.05193
1194.20 0.05192
1194.30 0.05191
1194.40 0.0519
1194.50 0.0519
1194.60 0.05189
1194.70 0.05188
1194.80 0.05187
1194.90 0.05186
1195.00 0.05186
1195.10 0.05185
1195.20 0.05184
1195.30 0.05183
1195.40 0.05183
1195.50 0.05182
1195.60 0.05181
1195.70 0.0518
1195.80 0.05179
1195.90 0.05179
1196.00 0.05178
1196.10 0.05177
1196.20 0.05176
1196.30 0.05176
1196.40 0.05175
1196.50 0.05174
1196.60 0.05173
1196.70 0.05172
1196.80 0.05172
1196.90 0.05171
1197.00 0.0517
1197.10 0.05169
1197.20 0.05168
1197.30 0.05167
1197.40 0.05165
1197.50 0.05164
1197.60 0.05163
1197.70 0.05162
1197.80 0.05161
1197.90 0.0516
1198.00 0.05158
1198.10 0.05157
1198.20 0.05156
1198.30 0.05155
1198.40 0.05154
1198.50 0.05152
1198.60 0.05151
1198.70 0.0515
1198.80 0.05149
1198.90 0.05148
1199.00 0.05147
1199.10 0.05145
1199.20 0.05144
1199.30 0.05143
1199.40 0.05142
1199.50 0.05141
1199.60 0.0514
1199.70 0.05138
1199.80 0.05137
1199.90 0.05136
1200.00 0
