# Version 2.1 - nm, norm@500 to 1, cut digits, bergeron_1750_65.dat_1750
# Wavelength(nm)  Flambda(ergs/cm^s/s/nm)
300.00 0.01017
300.10 0.01022
300.20 0.01027
300.30 0.01032
300.40 0.01037
300.50 0.01042
300.60 0.01047
300.70 0.01052
300.80 0.01056
300.90 0.01061
301.00 0.01066
301.10 0.01071
301.20 0.01076
301.30 0.01081
301.40 0.01086
301.50 0.0109
301.60 0.01095
301.70 0.011
301.80 0.01105
301.90 0.0111
302.00 0.01115
302.10 0.0112
302.20 0.01125
302.30 0.0113
302.40 0.01136
302.50 0.01141
302.60 0.01146
302.70 0.01151
302.80 0.01157
302.90 0.01162
303.00 0.01167
303.10 0.01172
303.20 0.01178
303.30 0.01183
303.40 0.01188
303.50 0.01193
303.60 0.01198
303.70 0.01203
303.80 0.01209
303.90 0.01214
304.00 0.01219
304.10 0.01225
304.20 0.0123
304.30 0.01236
304.40 0.01242
304.50 0.01247
304.60 0.01253
304.70 0.01259
304.80 0.01264
304.90 0.0127
305.00 0.01275
305.10 0.01281
305.20 0.01287
305.30 0.01292
305.40 0.01298
305.50 0.01303
305.60 0.01309
305.70 0.01314
305.80 0.0132
305.90 0.01325
306.00 0.01331
306.10 0.01337
306.20 0.01343
306.30 0.01349
306.40 0.01355
306.50 0.01361
306.60 0.01367
306.70 0.01373
306.80 0.01379
306.90 0.01385
307.00 0.01391
307.10 0.01397
307.20 0.01403
307.30 0.01409
307.40 0.01415
307.50 0.01421
307.60 0.01427
307.70 0.01433
307.80 0.01439
307.90 0.01445
308.00 0.01451
308.10 0.01458
308.20 0.01464
308.30 0.01471
308.40 0.01477
308.50 0.01483
308.60 0.0149
308.70 0.01496
308.80 0.01503
308.90 0.01509
309.00 0.01516
309.10 0.01522
309.20 0.01529
309.30 0.01535
309.40 0.01541
309.50 0.01548
309.60 0.01554
309.70 0.0156
309.80 0.01567
309.90 0.01573
310.00 0.0158
310.10 0.01587
310.20 0.01593
310.30 0.016
310.40 0.01607
310.50 0.01614
310.60 0.01621
310.70 0.01628
310.80 0.01635
310.90 0.01642
311.00 0.01649
311.10 0.01656
311.20 0.01663
311.30 0.0167
311.40 0.01676
311.50 0.01683
311.60 0.0169
311.70 0.01697
311.80 0.01704
311.90 0.01711
312.00 0.01717
312.10 0.01724
312.20 0.01731
312.30 0.01739
312.40 0.01746
312.50 0.01753
312.60 0.01761
312.70 0.01768
312.80 0.01776
312.90 0.01783
313.00 0.0179
313.10 0.01798
313.20 0.01805
313.30 0.01812
313.40 0.0182
313.50 0.01827
313.60 0.01834
313.70 0.01842
313.80 0.01849
313.90 0.01856
314.00 0.01864
314.10 0.01871
314.20 0.01879
314.30 0.01887
314.40 0.01895
314.50 0.01903
314.60 0.01911
314.70 0.01919
314.80 0.01926
314.90 0.01934
315.00 0.01942
315.10 0.0195
315.20 0.01958
315.30 0.01965
315.40 0.01973
315.50 0.01981
315.60 0.01989
315.70 0.01997
315.80 0.02004
315.90 0.02012
316.00 0.0202
316.10 0.02028
316.20 0.02037
316.30 0.02045
316.40 0.02053
316.50 0.02062
316.60 0.0207
316.70 0.02078
316.80 0.02087
316.90 0.02095
317.00 0.02103
317.10 0.02112
317.20 0.0212
317.30 0.02128
317.40 0.02137
317.50 0.02145
317.60 0.02153
317.70 0.02161
317.80 0.0217
317.90 0.02178
318.00 0.02187
318.10 0.02195
318.20 0.02204
318.30 0.02213
318.40 0.02222
318.50 0.02231
318.60 0.0224
318.70 0.02249
318.80 0.02257
318.90 0.02266
319.00 0.02275
319.10 0.02284
319.20 0.02293
319.30 0.02302
319.40 0.02311
319.50 0.02319
319.60 0.02328
319.70 0.02337
319.80 0.02346
319.90 0.02354
320.00 0.02364
320.10 0.02373
320.20 0.02382
320.30 0.02392
320.40 0.02401
320.50 0.02411
320.60 0.0242
320.70 0.0243
320.80 0.02439
320.90 0.02448
321.00 0.02458
321.10 0.02467
321.20 0.02477
321.30 0.02486
321.40 0.02495
321.50 0.02505
321.60 0.02514
321.70 0.02523
321.80 0.02533
321.90 0.02542
322.00 0.02552
322.10 0.02562
322.20 0.02571
322.30 0.02581
322.40 0.02592
322.50 0.02602
322.60 0.02612
322.70 0.02622
322.80 0.02632
322.90 0.02642
323.00 0.02652
323.10 0.02662
323.20 0.02672
323.30 0.02682
323.40 0.02691
323.50 0.02701
323.60 0.02711
323.70 0.02721
323.80 0.02731
323.90 0.02741
324.00 0.02751
324.10 0.02762
324.20 0.02772
324.30 0.02783
324.40 0.02794
324.50 0.02804
324.60 0.02815
324.70 0.02825
324.80 0.02836
324.90 0.02847
325.00 0.02857
325.10 0.02868
325.20 0.02878
325.30 0.02889
325.40 0.02899
325.50 0.0291
325.60 0.0292
325.70 0.02931
325.80 0.02941
325.90 0.02952
326.00 0.02963
326.10 0.02974
326.20 0.02985
326.30 0.02996
326.40 0.03008
326.50 0.03019
326.60 0.0303
326.70 0.03041
326.80 0.03053
326.90 0.03064
327.00 0.03075
327.10 0.03086
327.20 0.03097
327.30 0.03109
327.40 0.0312
327.50 0.03131
327.60 0.03142
327.70 0.03153
327.80 0.03164
327.90 0.03175
328.00 0.03187
328.10 0.03199
328.20 0.0321
328.30 0.03222
328.40 0.03234
328.50 0.03246
328.60 0.03258
328.70 0.0327
328.80 0.03282
328.90 0.03294
329.00 0.03306
329.10 0.03317
329.20 0.03329
329.30 0.03341
329.40 0.03353
329.50 0.03365
329.60 0.03376
329.70 0.03388
329.80 0.034
329.90 0.03411
330.00 0.03423
330.10 0.03436
330.20 0.03448
330.30 0.03461
330.40 0.03474
330.50 0.03486
330.60 0.03499
330.70 0.03511
330.80 0.03524
330.90 0.03537
331.00 0.03549
331.10 0.03562
331.20 0.03574
331.30 0.03586
331.40 0.03599
331.50 0.03611
331.60 0.03624
331.70 0.03636
331.80 0.03649
331.90 0.03661
332.00 0.03673
332.10 0.03687
332.20 0.037
332.30 0.03713
332.40 0.03727
332.50 0.0374
332.60 0.03753
332.70 0.03767
332.80 0.0378
332.90 0.03793
333.00 0.03806
333.10 0.03819
333.20 0.03833
333.30 0.03846
333.40 0.03859
333.50 0.03872
333.60 0.03885
333.70 0.03898
333.80 0.03911
333.90 0.03924
334.00 0.03938
334.10 0.03952
334.20 0.03966
334.30 0.0398
334.40 0.03994
334.50 0.04008
334.60 0.04022
334.70 0.04036
334.80 0.0405
334.90 0.04064
335.00 0.04077
335.10 0.04091
335.20 0.04105
335.30 0.04119
335.40 0.04133
335.50 0.04147
335.60 0.04161
335.70 0.04174
335.80 0.04188
335.90 0.04202
336.00 0.04216
336.10 0.0423
336.20 0.04245
336.30 0.0426
336.40 0.04275
336.50 0.0429
336.60 0.04304
336.70 0.04319
336.80 0.04334
336.90 0.04349
337.00 0.04363
337.10 0.04378
337.20 0.04392
337.30 0.04407
337.40 0.04422
337.50 0.04436
337.60 0.04451
337.70 0.04465
337.80 0.0448
337.90 0.04494
338.00 0.04509
338.10 0.04525
338.20 0.0454
338.30 0.04556
338.40 0.04571
338.50 0.04587
338.60 0.04602
338.70 0.04618
338.80 0.04633
338.90 0.04648
339.00 0.04664
339.10 0.04679
339.20 0.04695
339.30 0.0471
339.40 0.04725
339.50 0.04741
339.60 0.04756
339.70 0.04771
339.80 0.04786
339.90 0.04802
340.00 0.04817
340.10 0.04833
340.20 0.0485
340.30 0.04866
340.40 0.04882
340.50 0.04899
340.60 0.04915
340.70 0.04931
340.80 0.04948
340.90 0.04964
341.00 0.0498
341.10 0.04996
341.20 0.05012
341.30 0.05029
341.40 0.05045
341.50 0.05061
341.60 0.05077
341.70 0.05093
341.80 0.05109
341.90 0.05125
342.00 0.05141
342.10 0.05158
342.20 0.05175
342.30 0.05193
342.40 0.0521
342.50 0.05227
342.60 0.05244
342.70 0.05261
342.80 0.05278
342.90 0.05295
343.00 0.05312
343.10 0.05329
343.20 0.05346
343.30 0.05363
343.40 0.0538
343.50 0.05397
343.60 0.05414
343.70 0.0543
343.80 0.05447
343.90 0.05464
344.00 0.05481
344.10 0.05499
344.20 0.05517
344.30 0.05535
344.40 0.05553
344.50 0.05571
344.60 0.05589
344.70 0.05607
344.80 0.05625
344.90 0.05643
345.00 0.0566
345.10 0.05678
345.20 0.05696
345.30 0.05714
345.40 0.05732
345.50 0.05749
345.60 0.05767
345.70 0.05785
345.80 0.05802
345.90 0.0582
346.00 0.05838
346.10 0.05857
346.20 0.05875
346.30 0.05894
346.40 0.05913
346.50 0.05932
346.60 0.05951
346.70 0.05969
346.80 0.05988
346.90 0.06007
347.00 0.06026
347.10 0.06044
347.20 0.06063
347.30 0.06082
347.40 0.061
347.50 0.06119
347.60 0.06137
347.70 0.06156
347.80 0.06174
347.90 0.06193
348.00 0.06211
348.10 0.06231
348.20 0.06251
348.30 0.06271
348.40 0.0629
348.50 0.0631
348.60 0.0633
348.70 0.06349
348.80 0.06369
348.90 0.06389
349.00 0.06408
349.10 0.06428
349.20 0.06447
349.30 0.06467
349.40 0.06486
349.50 0.06506
349.60 0.06525
349.70 0.06545
349.80 0.06564
349.90 0.06583
350.00 0.06603
350.10 0.06623
350.20 0.06644
350.30 0.06665
350.40 0.06685
350.50 0.06706
350.60 0.06726
350.70 0.06747
350.80 0.06767
350.90 0.06788
351.00 0.06808
351.10 0.06829
351.20 0.06849
351.30 0.0687
351.40 0.0689
351.50 0.0691
351.60 0.06931
351.70 0.06951
351.80 0.06971
351.90 0.06991
352.00 0.07012
352.10 0.07033
352.20 0.07055
352.30 0.07076
352.40 0.07098
352.50 0.07119
352.60 0.07141
352.70 0.07162
352.80 0.07184
352.90 0.07205
353.00 0.07227
353.10 0.07248
353.20 0.07269
353.30 0.07291
353.40 0.07312
353.50 0.07333
353.60 0.07354
353.70 0.07376
353.80 0.07397
353.90 0.07418
354.00 0.07439
354.10 0.07462
354.20 0.07484
354.30 0.07507
354.40 0.07529
354.50 0.07552
354.60 0.07574
354.70 0.07596
354.80 0.07619
354.90 0.07641
355.00 0.07663
355.10 0.07686
355.20 0.07708
355.30 0.0773
355.40 0.07752
355.50 0.07775
355.60 0.07797
355.70 0.07819
355.80 0.07841
355.90 0.07863
356.00 0.07885
356.10 0.07909
356.20 0.07932
356.30 0.07956
356.40 0.07979
356.50 0.08002
356.60 0.08026
356.70 0.08049
356.80 0.08072
356.90 0.08096
357.00 0.08119
357.10 0.08142
357.20 0.08166
357.30 0.08189
357.40 0.08212
357.50 0.08235
357.60 0.08258
357.70 0.08281
357.80 0.08304
357.90 0.08327
358.00 0.0835
358.10 0.08375
358.20 0.08399
358.30 0.08424
358.40 0.08448
358.50 0.08473
358.60 0.08497
358.70 0.08521
358.80 0.08546
358.90 0.0857
359.00 0.08594
359.10 0.08618
359.20 0.08643
359.30 0.08667
359.40 0.08691
359.50 0.08715
359.60 0.08739
359.70 0.08763
359.80 0.08787
359.90 0.08811
360.00 0.08835
360.10 0.08861
360.20 0.08886
360.30 0.08912
360.40 0.08937
360.50 0.08963
360.60 0.08988
360.70 0.09013
360.80 0.09039
360.90 0.09064
361.00 0.09089
361.10 0.09114
361.20 0.0914
361.30 0.09165
361.40 0.0919
361.50 0.09215
361.60 0.0924
361.70 0.09265
361.80 0.0929
361.90 0.09315
362.00 0.0934
362.10 0.09366
362.20 0.09392
362.30 0.09418
362.40 0.09444
362.50 0.09471
362.60 0.09497
362.70 0.09522
362.80 0.09548
362.90 0.09574
363.00 0.096
363.10 0.09627
363.20 0.09654
363.30 0.09681
363.40 0.09707
363.50 0.09734
363.60 0.09761
363.70 0.09787
363.80 0.09814
363.90 0.09841
364.00 0.09867
364.10 0.09894
364.20 0.0992
364.30 0.09947
364.40 0.09973
364.50 0.1
364.60 0.1003
364.70 0.1006
364.80 0.1008
364.90 0.1011
365.00 0.1014
365.10 0.1017
365.20 0.1019
365.30 0.1022
365.40 0.1025
365.50 0.1027
365.60 0.103
365.70 0.1033
365.80 0.1036
365.90 0.1038
366.00 0.1041
366.10 0.1044
366.20 0.1047
366.30 0.105
366.40 0.1053
366.50 0.1055
366.60 0.1058
366.70 0.1061
366.80 0.1064
366.90 0.1067
367.00 0.107
367.10 0.1072
367.20 0.1075
367.30 0.1078
367.40 0.1081
367.50 0.1084
367.60 0.1087
367.70 0.1089
367.80 0.1092
367.90 0.1095
368.00 0.1098
368.10 0.1101
368.20 0.1104
368.30 0.1107
368.40 0.111
368.50 0.1113
368.60 0.1116
368.70 0.1119
368.80 0.1122
368.90 0.1124
369.00 0.1127
369.10 0.113
369.20 0.1133
369.30 0.1136
369.40 0.1139
369.50 0.1142
369.60 0.1145
369.70 0.1148
369.80 0.1151
369.90 0.1154
370.00 0.1157
370.10 0.116
370.20 0.1163
370.30 0.1166
370.40 0.1169
370.50 0.1172
370.60 0.1175
370.70 0.1178
370.80 0.1181
370.90 0.1184
371.00 0.1187
371.10 0.119
371.20 0.1193
371.30 0.1196
371.40 0.12
371.50 0.1203
371.60 0.1206
371.70 0.1209
371.80 0.1212
371.90 0.1215
372.00 0.1218
372.10 0.1221
372.20 0.1224
372.30 0.1227
372.40 0.123
372.50 0.1234
372.60 0.1237
372.70 0.124
372.80 0.1243
372.90 0.1246
373.00 0.1249
373.10 0.1253
373.20 0.1256
373.30 0.1259
373.40 0.1262
373.50 0.1265
373.60 0.1268
373.70 0.1272
373.80 0.1275
373.90 0.1278
374.00 0.1281
374.10 0.1284
374.20 0.1288
374.30 0.1291
374.40 0.1294
374.50 0.1297
374.60 0.1301
374.70 0.1304
374.80 0.1307
374.90 0.1311
375.00 0.1314
375.10 0.1317
375.20 0.132
375.30 0.1324
375.40 0.1327
375.50 0.133
375.60 0.1333
375.70 0.1337
375.80 0.134
375.90 0.1343
376.00 0.1346
376.10 0.135
376.20 0.1353
376.30 0.1356
376.40 0.136
376.50 0.1363
376.60 0.1367
376.70 0.137
376.80 0.1373
376.90 0.1377
377.00 0.138
377.10 0.1383
377.20 0.1387
377.30 0.139
377.40 0.1394
377.50 0.1397
377.60 0.14
377.70 0.1404
377.80 0.1407
377.90 0.1411
378.00 0.1414
378.10 0.1418
378.20 0.1421
378.30 0.1425
378.40 0.1428
378.50 0.1431
378.60 0.1435
378.70 0.1438
378.80 0.1442
378.90 0.1445
379.00 0.1449
379.10 0.1452
379.20 0.1456
379.30 0.1459
379.40 0.1463
379.50 0.1467
379.60 0.147
379.70 0.1474
379.80 0.1477
379.90 0.1481
380.00 0.1484
380.10 0.1488
380.20 0.1491
380.30 0.1495
380.40 0.1499
380.50 0.1502
380.60 0.1506
380.70 0.1509
380.80 0.1513
380.90 0.1516
381.00 0.152
381.10 0.1524
381.20 0.1527
381.30 0.1531
381.40 0.1535
381.50 0.1538
381.60 0.1542
381.70 0.1545
381.80 0.1549
381.90 0.1553
382.00 0.1556
382.10 0.156
382.20 0.1564
382.30 0.1568
382.40 0.1571
382.50 0.1575
382.60 0.1579
382.70 0.1582
382.80 0.1586
382.90 0.159
383.00 0.1594
383.10 0.1597
383.20 0.1601
383.30 0.1605
383.40 0.1609
383.50 0.1612
383.60 0.1616
383.70 0.162
383.80 0.1624
383.90 0.1627
384.00 0.1631
384.10 0.1635
384.20 0.1639
384.30 0.1643
384.40 0.1646
384.50 0.165
384.60 0.1654
384.70 0.1658
384.80 0.1662
384.90 0.1666
385.00 0.1669
385.10 0.1673
385.20 0.1677
385.30 0.1681
385.40 0.1685
385.50 0.1689
385.60 0.1693
385.70 0.1697
385.80 0.17
385.90 0.1704
386.00 0.1708
386.10 0.1712
386.20 0.1716
386.30 0.172
386.40 0.1724
386.50 0.1728
386.60 0.1732
386.70 0.1736
386.80 0.174
386.90 0.1744
387.00 0.1748
387.10 0.1752
387.20 0.1756
387.30 0.176
387.40 0.1764
387.50 0.1768
387.60 0.1772
387.70 0.1776
387.80 0.178
387.90 0.1784
388.00 0.1788
388.10 0.1792
388.20 0.1796
388.30 0.18
388.40 0.1804
388.50 0.1808
388.60 0.1812
388.70 0.1816
388.80 0.182
388.90 0.1824
389.00 0.1828
389.10 0.1832
389.20 0.1837
389.30 0.1841
389.40 0.1845
389.50 0.1849
389.60 0.1853
389.70 0.1857
389.80 0.1861
389.90 0.1865
390.00 0.187
390.10 0.1874
390.20 0.1878
390.30 0.1882
390.40 0.1886
390.50 0.189
390.60 0.1895
390.70 0.1899
390.80 0.1903
390.90 0.1907
391.00 0.1911
391.10 0.1916
391.20 0.192
391.30 0.1924
391.40 0.1928
391.50 0.1933
391.60 0.1937
391.70 0.1941
391.80 0.1945
391.90 0.195
392.00 0.1954
392.10 0.1958
392.20 0.1962
392.30 0.1967
392.40 0.1971
392.50 0.1975
392.60 0.198
392.70 0.1984
392.80 0.1988
392.90 0.1993
393.00 0.1997
393.10 0.2001
393.20 0.2006
393.30 0.201
393.40 0.2014
393.50 0.2019
393.60 0.2023
393.70 0.2027
393.80 0.2032
393.90 0.2036
394.00 0.2041
394.10 0.2045
394.20 0.2049
394.30 0.2054
394.40 0.2058
394.50 0.2063
394.60 0.2067
394.70 0.2072
394.80 0.2076
394.90 0.208
395.00 0.2085
395.10 0.2089
395.20 0.2094
395.30 0.2098
395.40 0.2103
395.50 0.2107
395.60 0.2112
395.70 0.2116
395.80 0.2121
395.90 0.2125
396.00 0.213
396.10 0.2134
396.20 0.2139
396.30 0.2143
396.40 0.2148
396.50 0.2153
396.60 0.2157
396.70 0.2162
396.80 0.2166
396.90 0.2171
397.00 0.2175
397.10 0.218
397.20 0.2185
397.30 0.2189
397.40 0.2194
397.50 0.2198
397.60 0.2203
397.70 0.2208
397.80 0.2212
397.90 0.2217
398.00 0.2222
398.10 0.2226
398.20 0.2231
398.30 0.2236
398.40 0.224
398.50 0.2245
398.60 0.225
398.70 0.2254
398.80 0.2259
398.90 0.2264
399.00 0.2268
399.10 0.2273
399.20 0.2278
399.30 0.2282
399.40 0.2287
399.50 0.2292
399.60 0.2297
399.70 0.2301
399.80 0.2306
399.90 0.2311
400.00 0.2316
400.10 0.2321
400.20 0.2325
400.30 0.233
400.40 0.2335
400.50 0.234
400.60 0.2344
400.70 0.2349
400.80 0.2354
400.90 0.2359
401.00 0.2364
401.10 0.2369
401.20 0.2373
401.30 0.2378
401.40 0.2383
401.50 0.2388
401.60 0.2393
401.70 0.2398
401.80 0.2403
401.90 0.2408
402.00 0.2412
402.10 0.2417
402.20 0.2422
402.30 0.2427
402.40 0.2432
402.50 0.2437
402.60 0.2442
402.70 0.2447
402.80 0.2452
402.90 0.2457
403.00 0.2462
403.10 0.2467
403.20 0.2472
403.30 0.2477
403.40 0.2482
403.50 0.2487
403.60 0.2491
403.70 0.2497
403.80 0.2502
403.90 0.2507
404.00 0.2512
404.10 0.2517
404.20 0.2522
404.30 0.2527
404.40 0.2532
404.50 0.2537
404.60 0.2542
404.70 0.2547
404.80 0.2552
404.90 0.2557
405.00 0.2562
405.10 0.2567
405.20 0.2572
405.30 0.2577
405.40 0.2583
405.50 0.2588
405.60 0.2593
405.70 0.2598
405.80 0.2603
405.90 0.2608
406.00 0.2613
406.10 0.2619
406.20 0.2624
406.30 0.2629
406.40 0.2634
406.50 0.2639
406.60 0.2644
406.70 0.265
406.80 0.2655
406.90 0.266
407.00 0.2665
407.10 0.267
407.20 0.2676
407.30 0.2681
407.40 0.2686
407.50 0.2691
407.60 0.2697
407.70 0.2702
407.80 0.2707
407.90 0.2712
408.00 0.2718
408.10 0.2723
408.20 0.2728
408.30 0.2733
408.40 0.2739
408.50 0.2744
408.60 0.2749
408.70 0.2755
408.80 0.276
408.90 0.2765
409.00 0.277
409.10 0.2776
409.20 0.2781
409.30 0.2787
409.40 0.2792
409.50 0.2797
409.60 0.2803
409.70 0.2808
409.80 0.2814
409.90 0.2819
410.00 0.2824
410.10 0.283
410.20 0.2835
410.30 0.284
410.40 0.2846
410.50 0.2851
410.60 0.2857
410.70 0.2862
410.80 0.2868
410.90 0.2873
411.00 0.2879
411.10 0.2884
411.20 0.289
411.30 0.2895
411.40 0.2901
411.50 0.2906
411.60 0.2911
411.70 0.2917
411.80 0.2923
411.90 0.2928
412.00 0.2934
412.10 0.2939
412.20 0.2945
412.30 0.295
412.40 0.2956
412.50 0.2961
412.60 0.2967
412.70 0.2972
412.80 0.2978
412.90 0.2984
413.00 0.2989
413.10 0.2995
413.20 0.3
413.30 0.3006
413.40 0.3012
413.50 0.3017
413.60 0.3023
413.70 0.3028
413.80 0.3034
413.90 0.304
414.00 0.3045
414.10 0.3051
414.20 0.3057
414.30 0.3062
414.40 0.3068
414.50 0.3074
414.60 0.3079
414.70 0.3085
414.80 0.3091
414.90 0.3096
415.00 0.3102
415.10 0.3108
415.20 0.3114
415.30 0.3119
415.40 0.3125
415.50 0.3131
415.60 0.3137
415.70 0.3142
415.80 0.3148
415.90 0.3154
416.00 0.316
416.10 0.3165
416.20 0.3171
416.30 0.3177
416.40 0.3183
416.50 0.3189
416.60 0.3194
416.70 0.32
416.80 0.3206
416.90 0.3212
417.00 0.3218
417.10 0.3223
417.20 0.3229
417.30 0.3235
417.40 0.3241
417.50 0.3247
417.60 0.3253
417.70 0.3259
417.80 0.3265
417.90 0.3271
418.00 0.3277
418.10 0.3282
418.20 0.3288
418.30 0.3294
418.40 0.33
418.50 0.3306
418.60 0.3312
418.70 0.3318
418.80 0.3324
418.90 0.333
419.00 0.3336
419.10 0.3342
419.20 0.3348
419.30 0.3354
419.40 0.336
419.50 0.3366
419.60 0.3372
419.70 0.3378
419.80 0.3384
419.90 0.339
420.00 0.3396
420.10 0.3402
420.20 0.3408
420.30 0.3414
420.40 0.342
420.50 0.3426
420.60 0.3432
420.70 0.3438
420.80 0.3444
420.90 0.345
421.00 0.3456
421.10 0.3462
421.20 0.3469
421.30 0.3475
421.40 0.3481
421.50 0.3487
421.60 0.3493
421.70 0.3499
421.80 0.3505
421.90 0.3511
422.00 0.3518
422.10 0.3524
422.20 0.353
422.30 0.3536
422.40 0.3542
422.50 0.3549
422.60 0.3555
422.70 0.3561
422.80 0.3567
422.90 0.3573
423.00 0.358
423.10 0.3586
423.20 0.3592
423.30 0.3598
423.40 0.3604
423.50 0.3611
423.60 0.3617
423.70 0.3623
423.80 0.3629
423.90 0.3636
424.00 0.3642
424.10 0.3648
424.20 0.3655
424.30 0.3661
424.40 0.3667
424.50 0.3674
424.60 0.368
424.70 0.3686
424.80 0.3692
424.90 0.3699
425.00 0.3705
425.10 0.3711
425.20 0.3718
425.30 0.3724
425.40 0.3731
425.50 0.3737
425.60 0.3743
425.70 0.375
425.80 0.3756
425.90 0.3762
426.00 0.3769
426.10 0.3775
426.20 0.3782
426.30 0.3788
426.40 0.3795
426.50 0.3801
426.60 0.3807
426.70 0.3814
426.80 0.382
426.90 0.3827
427.00 0.3833
427.10 0.384
427.20 0.3846
427.30 0.3853
427.40 0.3859
427.50 0.3866
427.60 0.3872
427.70 0.3879
427.80 0.3885
427.90 0.3892
428.00 0.3898
428.10 0.3905
428.20 0.3911
428.30 0.3918
428.40 0.3924
428.50 0.3931
428.60 0.3937
428.70 0.3944
428.80 0.3951
428.90 0.3957
429.00 0.3964
429.10 0.397
429.20 0.3977
429.30 0.3984
429.40 0.399
429.50 0.3997
429.60 0.4003
429.70 0.401
429.80 0.4017
429.90 0.4023
430.00 0.403
430.10 0.4037
430.20 0.4043
430.30 0.405
430.40 0.4057
430.50 0.4063
430.60 0.407
430.70 0.4077
430.80 0.4083
430.90 0.409
431.00 0.4097
431.10 0.4103
431.20 0.411
431.30 0.4117
431.40 0.4124
431.50 0.413
431.60 0.4137
431.70 0.4144
431.80 0.4151
431.90 0.4157
432.00 0.4164
432.10 0.4171
432.20 0.4178
432.30 0.4184
432.40 0.4191
432.50 0.4198
432.60 0.4205
432.70 0.4212
432.80 0.4219
432.90 0.4225
433.00 0.4232
433.10 0.4239
433.20 0.4246
433.30 0.4253
433.40 0.426
433.50 0.4266
433.60 0.4273
433.70 0.428
433.80 0.4287
433.90 0.4294
434.00 0.4301
434.10 0.4308
434.20 0.4315
434.30 0.4322
434.40 0.4328
434.50 0.4335
434.60 0.4342
434.70 0.4349
434.80 0.4356
434.90 0.4363
435.00 0.437
435.10 0.4377
435.20 0.4384
435.30 0.4391
435.40 0.4398
435.50 0.4405
435.60 0.4412
435.70 0.4419
435.80 0.4426
435.90 0.4433
436.00 0.444
436.10 0.4447
436.20 0.4454
436.30 0.4461
436.40 0.4468
436.50 0.4475
436.60 0.4482
436.70 0.4489
436.80 0.4496
436.90 0.4503
437.00 0.451
437.10 0.4517
437.20 0.4524
437.30 0.4532
437.40 0.4539
437.50 0.4546
437.60 0.4553
437.70 0.456
437.80 0.4567
437.90 0.4574
438.00 0.4581
438.10 0.4588
438.20 0.4596
438.30 0.4603
438.40 0.461
438.50 0.4617
438.60 0.4624
438.70 0.4631
438.80 0.4639
438.90 0.4646
439.00 0.4653
439.10 0.466
439.20 0.4667
439.30 0.4675
439.40 0.4682
439.50 0.4689
439.60 0.4696
439.70 0.4704
439.80 0.4711
439.90 0.4718
440.00 0.4725
440.10 0.4733
440.20 0.474
440.30 0.4747
440.40 0.4754
440.50 0.4762
440.60 0.4769
440.70 0.4776
440.80 0.4784
440.90 0.4791
441.00 0.4798
441.10 0.4805
441.20 0.4813
441.30 0.482
441.40 0.4827
441.50 0.4835
441.60 0.4842
441.70 0.4849
441.80 0.4857
441.90 0.4864
442.00 0.4872
442.10 0.4879
442.20 0.4886
442.30 0.4894
442.40 0.4901
442.50 0.4908
442.60 0.4916
442.70 0.4923
442.80 0.4931
442.90 0.4938
443.00 0.4945
443.10 0.4953
443.20 0.496
443.30 0.4968
443.40 0.4975
443.50 0.4983
443.60 0.499
443.70 0.4998
443.80 0.5005
443.90 0.5013
444.00 0.502
444.10 0.5027
444.20 0.5035
444.30 0.5043
444.40 0.505
444.50 0.5058
444.60 0.5065
444.70 0.5073
444.80 0.508
444.90 0.5088
445.00 0.5095
445.10 0.5103
445.20 0.511
445.30 0.5118
445.40 0.5125
445.50 0.5133
445.60 0.5141
445.70 0.5148
445.80 0.5156
445.90 0.5163
446.00 0.5171
446.10 0.5178
446.20 0.5186
446.30 0.5194
446.40 0.5201
446.50 0.5209
446.60 0.5217
446.70 0.5224
446.80 0.5232
446.90 0.524
447.00 0.5247
447.10 0.5255
447.20 0.5263
447.30 0.527
447.40 0.5278
447.50 0.5286
447.60 0.5293
447.70 0.5301
447.80 0.5309
447.90 0.5316
448.00 0.5324
448.10 0.5332
448.20 0.5339
448.30 0.5347
448.40 0.5355
448.50 0.5363
448.60 0.537
448.70 0.5378
448.80 0.5386
448.90 0.5394
449.00 0.5401
449.10 0.5409
449.20 0.5417
449.30 0.5425
449.40 0.5433
449.50 0.544
449.60 0.5448
449.70 0.5456
449.80 0.5464
449.90 0.5472
450.00 0.548
450.10 0.5487
450.20 0.5495
450.30 0.5503
450.40 0.5511
450.50 0.5519
450.60 0.5527
450.70 0.5534
450.80 0.5542
450.90 0.555
451.00 0.5558
451.10 0.5566
451.20 0.5574
451.30 0.5582
451.40 0.559
451.50 0.5597
451.60 0.5605
451.70 0.5613
451.80 0.5621
451.90 0.5629
452.00 0.5637
452.10 0.5645
452.20 0.5653
452.30 0.5661
452.40 0.5669
452.50 0.5677
452.60 0.5685
452.70 0.5693
452.80 0.5701
452.90 0.5709
453.00 0.5717
453.10 0.5725
453.20 0.5733
453.30 0.5741
453.40 0.5749
453.50 0.5757
453.60 0.5765
453.70 0.5773
453.80 0.5781
453.90 0.5789
454.00 0.5797
454.10 0.5805
454.20 0.5813
454.30 0.5821
454.40 0.5829
454.50 0.5837
454.60 0.5845
454.70 0.5854
454.80 0.5862
454.90 0.587
455.00 0.5878
455.10 0.5886
455.20 0.5894
455.30 0.5902
455.40 0.591
455.50 0.5918
455.60 0.5926
455.70 0.5935
455.80 0.5943
455.90 0.5951
456.00 0.5959
456.10 0.5967
456.20 0.5975
456.30 0.5984
456.40 0.5992
456.50 0.6
456.60 0.6008
456.70 0.6016
456.80 0.6025
456.90 0.6033
457.00 0.6041
457.10 0.6049
457.20 0.6057
457.30 0.6066
457.40 0.6074
457.50 0.6082
457.60 0.609
457.70 0.6099
457.80 0.6107
457.90 0.6115
458.00 0.6123
458.10 0.6132
458.20 0.614
458.30 0.6148
458.40 0.6156
458.50 0.6165
458.60 0.6173
458.70 0.6181
458.80 0.619
458.90 0.6198
459.00 0.6206
459.10 0.6215
459.20 0.6223
459.30 0.6231
459.40 0.6239
459.50 0.6248
459.60 0.6256
459.70 0.6264
459.80 0.6273
459.90 0.6281
460.00 0.6289
460.10 0.6298
460.20 0.6306
460.30 0.6315
460.40 0.6323
460.50 0.6331
460.60 0.634
460.70 0.6348
460.80 0.6357
460.90 0.6365
461.00 0.6373
461.10 0.6382
461.20 0.639
461.30 0.6399
461.40 0.6407
461.50 0.6416
461.60 0.6424
461.70 0.6433
461.80 0.6441
461.90 0.6449
462.00 0.6458
462.10 0.6466
462.20 0.6475
462.30 0.6483
462.40 0.6492
462.50 0.65
462.60 0.6509
462.70 0.6517
462.80 0.6526
462.90 0.6534
463.00 0.6543
463.10 0.6551
463.20 0.656
463.30 0.6568
463.40 0.6577
463.50 0.6586
463.60 0.6594
463.70 0.6603
463.80 0.6611
463.90 0.662
464.00 0.6628
464.10 0.6637
464.20 0.6645
464.30 0.6654
464.40 0.6663
464.50 0.6671
464.60 0.668
464.70 0.6688
464.80 0.6697
464.90 0.6706
465.00 0.6714
465.10 0.6723
465.20 0.6731
465.30 0.674
465.40 0.6749
465.50 0.6757
465.60 0.6766
465.70 0.6775
465.80 0.6783
465.90 0.6792
466.00 0.6801
466.10 0.6809
466.20 0.6818
466.30 0.6827
466.40 0.6835
466.50 0.6844
466.60 0.6853
466.70 0.6862
466.80 0.687
466.90 0.6879
467.00 0.6888
467.10 0.6896
467.20 0.6905
467.30 0.6914
467.40 0.6923
467.50 0.6931
467.60 0.694
467.70 0.6949
467.80 0.6958
467.90 0.6966
468.00 0.6975
468.10 0.6984
468.20 0.6993
468.30 0.7002
468.40 0.701
468.50 0.7019
468.60 0.7028
468.70 0.7037
468.80 0.7046
468.90 0.7054
469.00 0.7063
469.10 0.7072
469.20 0.7081
469.30 0.709
469.40 0.7098
469.50 0.7107
469.60 0.7116
469.70 0.7125
469.80 0.7134
469.90 0.7143
470.00 0.7151
470.10 0.716
470.20 0.7169
470.30 0.7178
470.40 0.7187
470.50 0.7196
470.60 0.7205
470.70 0.7214
470.80 0.7223
470.90 0.7231
471.00 0.724
471.10 0.7249
471.20 0.7258
471.30 0.7267
471.40 0.7276
471.50 0.7285
471.60 0.7294
471.70 0.7303
471.80 0.7312
471.90 0.7321
472.00 0.733
472.10 0.7339
472.20 0.7348
472.30 0.7357
472.40 0.7366
472.50 0.7375
472.60 0.7384
472.70 0.7393
472.80 0.7402
472.90 0.7411
473.00 0.742
473.10 0.7428
473.20 0.7438
473.30 0.7447
473.40 0.7456
473.50 0.7465
473.60 0.7474
473.70 0.7483
473.80 0.7492
473.90 0.7501
474.00 0.751
474.10 0.7519
474.20 0.7528
474.30 0.7537
474.40 0.7546
474.50 0.7555
474.60 0.7564
474.70 0.7573
474.80 0.7582
474.90 0.7591
475.00 0.76
475.10 0.7609
475.20 0.7619
475.30 0.7628
475.40 0.7637
475.50 0.7646
475.60 0.7655
475.70 0.7664
475.80 0.7673
475.90 0.7683
476.00 0.7692
476.10 0.7701
476.20 0.771
476.30 0.7719
476.40 0.7728
476.50 0.7737
476.60 0.7747
476.70 0.7756
476.80 0.7765
476.90 0.7774
477.00 0.7783
477.10 0.7792
477.20 0.7802
477.30 0.7811
477.40 0.782
477.50 0.7829
477.60 0.7838
477.70 0.7848
477.80 0.7857
477.90 0.7866
478.00 0.7875
478.10 0.7884
478.20 0.7894
478.30 0.7903
478.40 0.7912
478.50 0.7922
478.60 0.7931
478.70 0.794
478.80 0.7949
478.90 0.7959
479.00 0.7968
479.10 0.7977
479.20 0.7986
479.30 0.7996
479.40 0.8005
479.50 0.8014
479.60 0.8023
479.70 0.8033
479.80 0.8042
479.90 0.8051
480.00 0.8061
480.10 0.807
480.20 0.8079
480.30 0.8089
480.40 0.8098
480.50 0.8107
480.60 0.8117
480.70 0.8126
480.80 0.8135
480.90 0.8145
481.00 0.8154
481.10 0.8163
481.20 0.8173
481.30 0.8182
481.40 0.8191
481.50 0.8201
481.60 0.821
481.70 0.822
481.80 0.8229
481.90 0.8238
482.00 0.8248
482.10 0.8257
482.20 0.8266
482.30 0.8276
482.40 0.8285
482.50 0.8295
482.60 0.8304
482.70 0.8314
482.80 0.8323
482.90 0.8333
483.00 0.8342
483.10 0.8351
483.20 0.8361
483.30 0.837
483.40 0.838
483.50 0.8389
483.60 0.8399
483.70 0.8408
483.80 0.8418
483.90 0.8427
484.00 0.8437
484.10 0.8446
484.20 0.8455
484.30 0.8465
484.40 0.8474
484.50 0.8484
484.60 0.8493
484.70 0.8503
484.80 0.8512
484.90 0.8522
485.00 0.8531
485.10 0.8541
485.20 0.855
485.30 0.856
485.40 0.8569
485.50 0.8579
485.60 0.8589
485.70 0.8598
485.80 0.8608
485.90 0.8617
486.00 0.8627
486.10 0.8636
486.20 0.8646
486.30 0.8655
486.40 0.8665
486.50 0.8675
486.60 0.8684
486.70 0.8694
486.80 0.8703
486.90 0.8713
487.00 0.8722
487.10 0.8732
487.20 0.8742
487.30 0.8751
487.40 0.8761
487.50 0.8771
487.60 0.878
487.70 0.879
487.80 0.8799
487.90 0.8809
488.00 0.8819
488.10 0.8828
488.20 0.8838
488.30 0.8848
488.40 0.8857
488.50 0.8867
488.60 0.8877
488.70 0.8886
488.80 0.8896
488.90 0.8906
489.00 0.8915
489.10 0.8925
489.20 0.8934
489.30 0.8944
489.40 0.8954
489.50 0.8964
489.60 0.8973
489.70 0.8983
489.80 0.8993
489.90 0.9002
490.00 0.9012
490.10 0.9022
490.20 0.9032
490.30 0.9041
490.40 0.9051
490.50 0.9061
490.60 0.907
490.70 0.908
490.80 0.909
490.90 0.91
491.00 0.9109
491.10 0.9119
491.20 0.9129
491.30 0.9139
491.40 0.9148
491.50 0.9158
491.60 0.9168
491.70 0.9178
491.80 0.9187
491.90 0.9197
492.00 0.9207
492.10 0.9217
492.20 0.9226
492.30 0.9236
492.40 0.9246
492.50 0.9256
492.60 0.9266
492.70 0.9276
492.80 0.9285
492.90 0.9295
493.00 0.9305
493.10 0.9315
493.20 0.9324
493.30 0.9334
493.40 0.9344
493.50 0.9354
493.60 0.9364
493.70 0.9374
493.80 0.9384
493.90 0.9393
494.00 0.9403
494.10 0.9413
494.20 0.9423
494.30 0.9433
494.40 0.9443
494.50 0.9453
494.60 0.9462
494.70 0.9472
494.80 0.9482
494.90 0.9492
495.00 0.9502
495.10 0.9512
495.20 0.9522
495.30 0.9532
495.40 0.9541
495.50 0.9551
495.60 0.9561
495.70 0.9571
495.80 0.9581
495.90 0.9591
496.00 0.9601
496.10 0.9611
496.20 0.9621
496.30 0.9631
496.40 0.9641
496.50 0.965
496.60 0.966
496.70 0.967
496.80 0.968
496.90 0.969
497.00 0.97
497.10 0.971
497.20 0.972
497.30 0.973
497.40 0.974
497.50 0.975
497.60 0.976
497.70 0.977
497.80 0.978
497.90 0.979
498.00 0.98
498.10 0.981
498.20 0.982
498.30 0.983
498.40 0.984
498.50 0.985
498.60 0.986
498.70 0.987
498.80 0.988
498.90 0.989
499.00 0.99
499.10 0.991
499.20 0.992
499.30 0.993
499.40 0.994
499.50 0.995
499.60 0.996
499.70 0.997
499.80 0.998
499.90 0.999
500.00 1
500.10 1.001
500.20 1.002
500.30 1.003
500.40 1.004
500.50 1.005
500.60 1.006
500.70 1.007
500.80 1.008
500.90 1.009
501.00 1.01
501.10 1.011
501.20 1.012
501.30 1.013
501.40 1.014
501.50 1.015
501.60 1.016
501.70 1.017
501.80 1.018
501.90 1.019
502.00 1.02
502.10 1.021
502.20 1.022
502.30 1.023
502.40 1.024
502.50 1.025
502.60 1.026
502.70 1.027
502.80 1.028
502.90 1.029
503.00 1.03
503.10 1.031
503.20 1.032
503.30 1.033
503.40 1.034
503.50 1.035
503.60 1.036
503.70 1.037
503.80 1.038
503.90 1.039
504.00 1.04
504.10 1.041
504.20 1.042
504.30 1.043
504.40 1.044
504.50 1.045
504.60 1.046
504.70 1.048
504.80 1.049
504.90 1.05
505.00 1.051
505.10 1.052
505.20 1.053
505.30 1.054
505.40 1.055
505.50 1.056
505.60 1.057
505.70 1.058
505.80 1.059
505.90 1.06
506.00 1.061
506.10 1.062
506.20 1.063
506.30 1.064
506.40 1.065
506.50 1.066
506.60 1.067
506.70 1.068
506.80 1.069
506.90 1.07
507.00 1.071
507.10 1.072
507.20 1.073
507.30 1.074
507.40 1.075
507.50 1.076
507.60 1.077
507.70 1.078
507.80 1.079
507.90 1.08
508.00 1.081
508.10 1.082
508.20 1.083
508.30 1.084
508.40 1.085
508.50 1.086
508.60 1.087
508.70 1.088
508.80 1.089
508.90 1.09
509.00 1.091
509.10 1.092
509.20 1.094
509.30 1.095
509.40 1.096
509.50 1.097
509.60 1.098
509.70 1.099
509.80 1.1
509.90 1.101
510.00 1.102
510.10 1.103
510.20 1.104
510.30 1.105
510.40 1.106
510.50 1.107
510.60 1.108
510.70 1.109
510.80 1.11
510.90 1.111
511.00 1.112
511.10 1.113
511.20 1.114
511.30 1.115
511.40 1.116
511.50 1.117
511.60 1.118
511.70 1.119
511.80 1.12
511.90 1.121
512.00 1.122
512.10 1.123
512.20 1.125
512.30 1.126
512.40 1.127
512.50 1.128
512.60 1.129
512.70 1.13
512.80 1.131
512.90 1.132
513.00 1.133
513.10 1.134
513.20 1.135
513.30 1.136
513.40 1.137
513.50 1.138
513.60 1.139
513.70 1.14
513.80 1.141
513.90 1.142
514.00 1.143
514.10 1.144
514.20 1.145
514.30 1.146
514.40 1.147
514.50 1.148
514.60 1.149
514.70 1.15
514.80 1.152
514.90 1.153
515.00 1.154
515.10 1.155
515.20 1.156
515.30 1.157
515.40 1.158
515.50 1.159
515.60 1.16
515.70 1.161
515.80 1.162
515.90 1.163
516.00 1.164
516.10 1.165
516.20 1.166
516.30 1.167
516.40 1.168
516.50 1.169
516.60 1.17
516.70 1.171
516.80 1.172
516.90 1.173
517.00 1.174
517.10 1.176
517.20 1.177
517.30 1.178
517.40 1.179
517.50 1.18
517.60 1.181
517.70 1.182
517.80 1.183
517.90 1.184
518.00 1.185
518.10 1.186
518.20 1.187
518.30 1.188
518.40 1.189
518.50 1.19
518.60 1.191
518.70 1.192
518.80 1.193
518.90 1.194
519.00 1.195
519.10 1.196
519.20 1.197
519.30 1.199
519.40 1.2
519.50 1.201
519.60 1.202
519.70 1.203
519.80 1.204
519.90 1.205
520.00 1.206
520.10 1.207
520.20 1.208
520.30 1.209
520.40 1.21
520.50 1.211
520.60 1.212
520.70 1.213
520.80 1.214
520.90 1.215
521.00 1.216
521.10 1.217
521.20 1.219
521.30 1.22
521.40 1.221
521.50 1.222
521.60 1.223
521.70 1.224
521.80 1.225
521.90 1.226
522.00 1.227
522.10 1.228
522.20 1.229
522.30 1.23
522.40 1.231
522.50 1.232
522.60 1.233
522.70 1.234
522.80 1.235
522.90 1.236
523.00 1.237
523.10 1.239
523.20 1.24
523.30 1.241
523.40 1.242
523.50 1.243
523.60 1.244
523.70 1.245
523.80 1.246
523.90 1.247
524.00 1.248
524.10 1.249
524.20 1.25
524.30 1.251
524.40 1.252
524.50 1.253
524.60 1.254
524.70 1.255
524.80 1.256
524.90 1.258
525.00 1.259
525.10 1.26
525.20 1.261
525.30 1.262
525.40 1.263
525.50 1.264
525.60 1.265
525.70 1.266
525.80 1.267
525.90 1.268
526.00 1.269
526.10 1.27
526.20 1.271
526.30 1.272
526.40 1.273
526.50 1.274
526.60 1.275
526.70 1.277
526.80 1.278
526.90 1.279
527.00 1.28
527.10 1.281
527.20 1.282
527.30 1.283
527.40 1.284
527.50 1.285
527.60 1.286
527.70 1.287
527.80 1.288
527.90 1.289
528.00 1.29
528.10 1.291
528.20 1.292
528.30 1.293
528.40 1.295
528.50 1.296
528.60 1.297
528.70 1.298
528.80 1.299
528.90 1.3
529.00 1.301
529.10 1.302
529.20 1.303
529.30 1.304
529.40 1.305
529.50 1.306
529.60 1.307
529.70 1.308
529.80 1.309
529.90 1.31
530.00 1.312
530.10 1.313
530.20 1.314
530.30 1.315
530.40 1.316
530.50 1.317
530.60 1.318
530.70 1.319
530.80 1.32
530.90 1.321
531.00 1.322
531.10 1.323
531.20 1.324
531.30 1.325
531.40 1.326
531.50 1.327
531.60 1.328
531.70 1.33
531.80 1.331
531.90 1.332
532.00 1.333
532.10 1.334
532.20 1.335
532.30 1.336
532.40 1.337
532.50 1.338
532.60 1.339
532.70 1.34
532.80 1.341
532.90 1.342
533.00 1.343
533.10 1.344
533.20 1.345
533.30 1.347
533.40 1.348
533.50 1.349
533.60 1.35
533.70 1.351
533.80 1.352
533.90 1.353
534.00 1.354
534.10 1.355
534.20 1.356
534.30 1.357
534.40 1.358
534.50 1.359
534.60 1.36
534.70 1.361
534.80 1.362
534.90 1.363
535.00 1.365
535.10 1.366
535.20 1.367
535.30 1.368
535.40 1.369
535.50 1.37
535.60 1.371
535.70 1.372
535.80 1.373
535.90 1.374
536.00 1.375
536.10 1.376
536.20 1.377
536.30 1.378
536.40 1.38
536.50 1.381
536.60 1.382
536.70 1.383
536.80 1.384
536.90 1.385
537.00 1.386
537.10 1.387
537.20 1.388
537.30 1.389
537.40 1.39
537.50 1.391
537.60 1.392
537.70 1.393
537.80 1.394
537.90 1.395
538.00 1.396
538.10 1.397
538.20 1.399
538.30 1.4
538.40 1.401
538.50 1.402
538.60 1.403
538.70 1.404
538.80 1.405
538.90 1.406
539.00 1.407
539.10 1.408
539.20 1.409
539.30 1.41
539.40 1.411
539.50 1.412
539.60 1.413
539.70 1.414
539.80 1.416
539.90 1.417
540.00 1.418
540.10 1.419
540.20 1.42
540.30 1.421
540.40 1.422
540.50 1.423
540.60 1.424
540.70 1.425
540.80 1.426
540.90 1.427
541.00 1.428
541.10 1.429
541.20 1.43
541.30 1.431
541.40 1.432
541.50 1.434
541.60 1.435
541.70 1.436
541.80 1.437
541.90 1.438
542.00 1.439
542.10 1.44
542.20 1.441
542.30 1.442
542.40 1.443
542.50 1.444
542.60 1.445
542.70 1.446
542.80 1.447
542.90 1.448
543.00 1.449
543.10 1.45
543.20 1.452
543.30 1.453
543.40 1.454
543.50 1.455
543.60 1.456
543.70 1.457
543.80 1.458
543.90 1.459
544.00 1.46
544.10 1.461
544.20 1.462
544.30 1.463
544.40 1.464
544.50 1.465
544.60 1.466
544.70 1.467
544.80 1.468
544.90 1.47
545.00 1.471
545.10 1.472
545.20 1.473
545.30 1.474
545.40 1.475
545.50 1.476
545.60 1.477
545.70 1.478
545.80 1.479
545.90 1.48
546.00 1.481
546.10 1.482
546.20 1.483
546.30 1.484
546.40 1.485
546.50 1.486
546.60 1.487
546.70 1.488
546.80 1.49
546.90 1.491
547.00 1.492
547.10 1.493
547.20 1.494
547.30 1.495
547.40 1.496
547.50 1.497
547.60 1.498
547.70 1.499
547.80 1.5
547.90 1.501
548.00 1.502
548.10 1.503
548.20 1.504
548.30 1.505
548.40 1.506
548.50 1.507
548.60 1.508
548.70 1.509
548.80 1.51
548.90 1.512
549.00 1.513
549.10 1.514
549.20 1.515
549.30 1.516
549.40 1.517
549.50 1.518
549.60 1.519
549.70 1.52
549.80 1.521
549.90 1.522
550.00 1.523
550.10 1.524
550.20 1.525
550.30 1.526
550.40 1.527
550.50 1.528
550.60 1.529
550.70 1.53
550.80 1.532
550.90 1.533
551.00 1.534
551.10 1.535
551.20 1.536
551.30 1.537
551.40 1.538
551.50 1.539
551.60 1.54
551.70 1.541
551.80 1.542
551.90 1.543
552.00 1.544
552.10 1.545
552.20 1.546
552.30 1.547
552.40 1.548
552.50 1.549
552.60 1.55
552.70 1.551
552.80 1.552
552.90 1.553
553.00 1.554
553.10 1.555
553.20 1.556
553.30 1.557
553.40 1.559
553.50 1.56
553.60 1.561
553.70 1.562
553.80 1.563
553.90 1.564
554.00 1.565
554.10 1.566
554.20 1.567
554.30 1.568
554.40 1.569
554.50 1.57
554.60 1.571
554.70 1.572
554.80 1.573
554.90 1.574
555.00 1.575
555.10 1.576
555.20 1.577
555.30 1.578
555.40 1.579
555.50 1.58
555.60 1.581
555.70 1.582
555.80 1.583
555.90 1.584
556.00 1.585
556.10 1.586
556.20 1.587
556.30 1.588
556.40 1.589
556.50 1.59
556.60 1.591
556.70 1.592
556.80 1.594
556.90 1.595
557.00 1.596
557.10 1.597
557.20 1.598
557.30 1.599
557.40 1.6
557.50 1.601
557.60 1.602
557.70 1.603
557.80 1.604
557.90 1.605
558.00 1.606
558.10 1.607
558.20 1.608
558.30 1.609
558.40 1.61
558.50 1.611
558.60 1.612
558.70 1.613
558.80 1.614
558.90 1.615
559.00 1.616
559.10 1.617
559.20 1.618
559.30 1.619
559.40 1.62
559.50 1.621
559.60 1.622
559.70 1.623
559.80 1.624
559.90 1.625
560.00 1.626
560.10 1.627
560.20 1.628
560.30 1.629
560.40 1.63
560.50 1.631
560.60 1.632
560.70 1.633
560.80 1.634
560.90 1.635
561.00 1.636
561.10 1.637
561.20 1.638
561.30 1.639
561.40 1.64
561.50 1.641
561.60 1.642
561.70 1.643
561.80 1.644
561.90 1.645
562.00 1.646
562.10 1.647
562.20 1.648
562.30 1.649
562.40 1.65
562.50 1.651
562.60 1.652
562.70 1.653
562.80 1.654
562.90 1.655
563.00 1.656
563.10 1.657
563.20 1.658
563.30 1.659
563.40 1.66
563.50 1.661
563.60 1.662
563.70 1.663
563.80 1.664
563.90 1.665
564.00 1.666
564.10 1.667
564.20 1.668
564.30 1.669
564.40 1.67
564.50 1.671
564.60 1.672
564.70 1.673
564.80 1.674
564.90 1.675
565.00 1.676
565.10 1.677
565.20 1.678
565.30 1.679
565.40 1.68
565.50 1.681
565.60 1.682
565.70 1.683
565.80 1.684
565.90 1.685
566.00 1.686
566.10 1.687
566.20 1.688
566.30 1.689
566.40 1.69
566.50 1.691
566.60 1.692
566.70 1.693
566.80 1.694
566.90 1.695
567.00 1.696
567.10 1.697
567.20 1.698
567.30 1.699
567.40 1.7
567.50 1.701
567.60 1.702
567.70 1.703
567.80 1.704
567.90 1.705
568.00 1.706
568.10 1.707
568.20 1.708
568.30 1.708
568.40 1.709
568.50 1.71
568.60 1.711
568.70 1.712
568.80 1.713
568.90 1.714
569.00 1.715
569.10 1.716
569.20 1.717
569.30 1.718
569.40 1.719
569.50 1.72
569.60 1.721
569.70 1.722
569.80 1.723
569.90 1.724
570.00 1.725
570.10 1.726
570.20 1.727
570.30 1.728
570.40 1.729
570.50 1.73
570.60 1.731
570.70 1.731
570.80 1.732
570.90 1.733
571.00 1.734
571.10 1.735
571.20 1.736
571.30 1.737
571.40 1.738
571.50 1.739
571.60 1.74
571.70 1.741
571.80 1.742
571.90 1.743
572.00 1.744
572.10 1.745
572.20 1.746
572.30 1.747
572.40 1.748
572.50 1.748
572.60 1.749
572.70 1.75
572.80 1.751
572.90 1.752
573.00 1.753
573.10 1.754
573.20 1.755
573.30 1.756
573.40 1.757
573.50 1.758
573.60 1.759
573.70 1.76
573.80 1.761
573.90 1.761
574.00 1.762
574.10 1.763
574.20 1.764
574.30 1.765
574.40 1.766
574.50 1.767
574.60 1.768
574.70 1.769
574.80 1.77
574.90 1.771
575.00 1.772
575.10 1.772
575.20 1.773
575.30 1.774
575.40 1.775
575.50 1.776
575.60 1.777
575.70 1.778
575.80 1.779
575.90 1.78
576.00 1.781
576.10 1.782
576.20 1.783
576.30 1.783
576.40 1.784
576.50 1.785
576.60 1.786
576.70 1.787
576.80 1.788
576.90 1.789
577.00 1.79
577.10 1.791
577.20 1.792
577.30 1.792
577.40 1.793
577.50 1.794
577.60 1.795
577.70 1.796
577.80 1.797
577.90 1.798
578.00 1.799
578.10 1.8
578.20 1.801
578.30 1.801
578.40 1.802
578.50 1.803
578.60 1.804
578.70 1.805
578.80 1.806
578.90 1.807
579.00 1.808
579.10 1.809
579.20 1.81
579.30 1.81
579.40 1.811
579.50 1.812
579.60 1.813
579.70 1.814
579.80 1.815
579.90 1.816
580.00 1.817
580.10 1.817
580.20 1.818
580.30 1.819
580.40 1.82
580.50 1.821
580.60 1.822
580.70 1.823
580.80 1.824
580.90 1.824
581.00 1.825
581.10 1.826
581.20 1.827
581.30 1.828
581.40 1.829
581.50 1.83
581.60 1.831
581.70 1.831
581.80 1.832
581.90 1.833
582.00 1.834
582.10 1.835
582.20 1.836
582.30 1.837
582.40 1.837
582.50 1.838
582.60 1.839
582.70 1.84
582.80 1.841
582.90 1.842
583.00 1.843
583.10 1.843
583.20 1.844
583.30 1.845
583.40 1.846
583.50 1.847
583.60 1.848
583.70 1.849
583.80 1.849
583.90 1.85
584.00 1.851
584.10 1.852
584.20 1.853
584.30 1.854
584.40 1.854
584.50 1.855
584.60 1.856
584.70 1.857
584.80 1.858
584.90 1.859
585.00 1.859
585.10 1.86
585.20 1.861
585.30 1.862
585.40 1.863
585.50 1.864
585.60 1.864
585.70 1.865
585.80 1.866
585.90 1.867
586.00 1.868
586.10 1.868
586.20 1.869
586.30 1.87
586.40 1.871
586.50 1.872
586.60 1.872
586.70 1.873
586.80 1.874
586.90 1.875
587.00 1.876
587.10 1.876
587.20 1.877
587.30 1.878
587.40 1.879
587.50 1.879
587.60 1.88
587.70 1.881
587.80 1.882
587.90 1.883
588.00 1.883
588.10 1.884
588.20 1.885
588.30 1.886
588.40 1.887
588.50 1.887
588.60 1.888
588.70 1.889
588.80 1.89
588.90 1.89
589.00 1.891
589.10 1.892
589.20 1.893
589.30 1.893
589.40 1.894
589.50 1.895
589.60 1.896
589.70 1.896
589.80 1.897
589.90 1.898
590.00 1.899
590.10 1.899
590.20 1.9
590.30 1.901
590.40 1.902
590.50 1.902
590.60 1.903
590.70 1.904
590.80 1.905
590.90 1.905
591.00 1.906
591.10 1.907
591.20 1.908
591.30 1.908
591.40 1.909
591.50 1.91
591.60 1.911
591.70 1.911
591.80 1.912
591.90 1.913
592.00 1.914
592.10 1.914
592.20 1.915
592.30 1.916
592.40 1.916
592.50 1.917
592.60 1.918
592.70 1.919
592.80 1.919
592.90 1.92
593.00 1.921
593.10 1.921
593.20 1.922
593.30 1.923
593.40 1.924
593.50 1.924
593.60 1.925
593.70 1.926
593.80 1.926
593.90 1.927
594.00 1.928
594.10 1.928
594.20 1.929
594.30 1.93
594.40 1.931
594.50 1.931
594.60 1.932
594.70 1.933
594.80 1.933
594.90 1.934
595.00 1.935
595.10 1.935
595.20 1.936
595.30 1.937
595.40 1.937
595.50 1.938
595.60 1.939
595.70 1.939
595.80 1.94
595.90 1.941
596.00 1.941
596.10 1.942
596.20 1.943
596.30 1.943
596.40 1.944
596.50 1.945
596.60 1.945
596.70 1.946
596.80 1.947
596.90 1.947
597.00 1.948
597.10 1.949
597.20 1.949
597.30 1.95
597.40 1.951
597.50 1.951
597.60 1.952
597.70 1.953
597.80 1.953
597.90 1.954
598.00 1.955
598.10 1.955
598.20 1.956
598.30 1.956
598.40 1.957
598.50 1.958
598.60 1.958
598.70 1.959
598.80 1.96
598.90 1.96
599.00 1.961
599.10 1.961
599.20 1.962
599.30 1.963
599.40 1.963
599.50 1.964
599.60 1.964
599.70 1.965
599.80 1.966
599.90 1.966
600.00 1.967
600.10 1.967
600.20 1.968
600.30 1.969
600.40 1.969
600.50 1.97
600.60 1.97
600.70 1.971
600.80 1.972
600.90 1.972
601.00 1.973
601.10 1.973
601.20 1.974
601.30 1.975
601.40 1.975
601.50 1.976
601.60 1.976
601.70 1.977
601.80 1.977
601.90 1.978
602.00 1.979
602.10 1.979
602.20 1.98
602.30 1.98
602.40 1.981
602.50 1.981
602.60 1.982
602.70 1.982
602.80 1.983
602.90 1.983
603.00 1.984
603.10 1.985
603.20 1.985
603.30 1.986
603.40 1.986
603.50 1.987
603.60 1.987
603.70 1.988
603.80 1.988
603.90 1.989
604.00 1.989
604.10 1.99
604.20 1.99
604.30 1.991
604.40 1.991
604.50 1.992
604.60 1.992
604.70 1.993
604.80 1.993
604.90 1.994
605.00 1.994
605.10 1.995
605.20 1.995
605.30 1.996
605.40 1.996
605.50 1.997
605.60 1.997
605.70 1.998
605.80 1.998
605.90 1.999
606.00 1.999
606.10 2
606.20 2
606.30 2.001
606.40 2.001
606.50 2.002
606.60 2.002
606.70 2.003
606.80 2.003
606.90 2.003
607.00 2.004
607.10 2.004
607.20 2.005
607.30 2.005
607.40 2.006
607.50 2.006
607.60 2.007
607.70 2.007
607.80 2.007
607.90 2.008
608.00 2.008
608.10 2.009
608.20 2.009
608.30 2.01
608.40 2.01
608.50 2.011
608.60 2.011
608.70 2.011
608.80 2.012
608.90 2.012
609.00 2.013
609.10 2.013
609.20 2.013
609.30 2.014
609.40 2.014
609.50 2.015
609.60 2.015
609.70 2.015
609.80 2.016
609.90 2.016
610.00 2.016
610.10 2.017
610.20 2.017
610.30 2.018
610.40 2.018
610.50 2.018
610.60 2.019
610.70 2.019
610.80 2.019
610.90 2.02
611.00 2.02
611.10 2.021
611.20 2.021
611.30 2.021
611.40 2.022
611.50 2.022
611.60 2.022
611.70 2.023
611.80 2.023
611.90 2.023
612.00 2.024
612.10 2.024
612.20 2.024
612.30 2.025
612.40 2.025
612.50 2.025
612.60 2.026
612.70 2.026
612.80 2.026
612.90 2.027
613.00 2.027
613.10 2.027
613.20 2.027
613.30 2.028
613.40 2.028
613.50 2.028
613.60 2.029
613.70 2.029
613.80 2.029
613.90 2.029
614.00 2.03
614.10 2.03
614.20 2.03
614.30 2.031
614.40 2.031
614.50 2.031
614.60 2.031
614.70 2.032
614.80 2.032
614.90 2.032
615.00 2.032
615.10 2.033
615.20 2.033
615.30 2.033
615.40 2.033
615.50 2.033
615.60 2.034
615.70 2.034
615.80 2.034
615.90 2.034
616.00 2.035
616.10 2.035
616.20 2.035
616.30 2.035
616.40 2.035
616.50 2.036
616.60 2.036
616.70 2.036
616.80 2.036
616.90 2.036
617.00 2.037
617.10 2.037
617.20 2.037
617.30 2.037
617.40 2.037
617.50 2.037
617.60 2.038
617.70 2.038
617.80 2.038
617.90 2.038
618.00 2.038
618.10 2.038
618.20 2.039
618.30 2.039
618.40 2.039
618.50 2.039
618.60 2.039
618.70 2.039
618.80 2.039
618.90 2.04
619.00 2.04
619.10 2.04
619.20 2.04
619.30 2.04
619.40 2.04
619.50 2.04
619.60 2.04
619.70 2.041
619.80 2.041
619.90 2.041
620.00 2.041
620.10 2.041
620.20 2.041
620.30 2.041
620.40 2.041
620.50 2.041
620.60 2.041
620.70 2.041
620.80 2.041
620.90 2.041
621.00 2.042
621.10 2.042
621.20 2.042
621.30 2.042
621.40 2.042
621.50 2.042
621.60 2.042
621.70 2.042
621.80 2.042
621.90 2.042
622.00 2.042
622.10 2.042
622.20 2.042
622.30 2.042
622.40 2.042
622.50 2.042
622.60 2.042
622.70 2.042
622.80 2.042
622.90 2.042
623.00 2.042
623.10 2.042
623.20 2.042
623.30 2.042
623.40 2.042
623.50 2.042
623.60 2.042
623.70 2.042
623.80 2.042
623.90 2.042
624.00 2.042
624.10 2.042
624.20 2.042
624.30 2.042
624.40 2.042
624.50 2.042
624.60 2.042
624.70 2.042
624.80 2.042
624.90 2.042
625.00 2.042
625.10 2.042
625.20 2.042
625.30 2.042
625.40 2.042
625.50 2.042
625.60 2.041
625.70 2.041
625.80 2.041
625.90 2.041
626.00 2.041
626.10 2.041
626.20 2.041
626.30 2.041
626.40 2.041
626.50 2.04
626.60 2.04
626.70 2.04
626.80 2.04
626.90 2.04
627.00 2.04
627.10 2.04
627.20 2.04
627.30 2.039
627.40 2.039
627.50 2.039
627.60 2.039
627.70 2.039
627.80 2.039
627.90 2.038
628.00 2.038
628.10 2.038
628.20 2.038
628.30 2.038
628.40 2.038
628.50 2.037
628.60 2.037
628.70 2.037
628.80 2.037
628.90 2.037
629.00 2.036
629.10 2.036
629.20 2.036
629.30 2.036
629.40 2.036
629.50 2.035
629.60 2.035
629.70 2.035
629.80 2.035
629.90 2.034
630.00 2.034
630.10 2.034
630.20 2.034
630.30 2.033
630.40 2.033
630.50 2.033
630.60 2.033
630.70 2.032
630.80 2.032
630.90 2.032
631.00 2.032
631.10 2.031
631.20 2.031
631.30 2.031
631.40 2.03
631.50 2.03
631.60 2.03
631.70 2.029
631.80 2.029
631.90 2.029
632.00 2.028
632.10 2.028
632.20 2.028
632.30 2.028
632.40 2.027
632.50 2.027
632.60 2.026
632.70 2.026
632.80 2.026
632.90 2.025
633.00 2.025
633.10 2.025
633.20 2.024
633.30 2.024
633.40 2.024
633.50 2.023
633.60 2.023
633.70 2.022
633.80 2.022
633.90 2.022
634.00 2.021
634.10 2.021
634.20 2.02
634.30 2.02
634.40 2.02
634.50 2.019
634.60 2.019
634.70 2.018
634.80 2.018
634.90 2.017
635.00 2.017
635.10 2.017
635.20 2.016
635.30 2.016
635.40 2.015
635.50 2.015
635.60 2.014
635.70 2.014
635.80 2.013
635.90 2.013
636.00 2.012
636.10 2.012
636.20 2.011
636.30 2.011
636.40 2.01
636.50 2.01
636.60 2.009
636.70 2.009
636.80 2.008
636.90 2.008
637.00 2.007
637.10 2.007
637.20 2.006
637.30 2.006
637.40 2.005
637.50 2.005
637.60 2.004
637.70 2.003
637.80 2.003
637.90 2.002
638.00 2.002
638.10 2.001
638.20 2.001
638.30 2
638.40 2
638.50 1.999
638.60 1.998
638.70 1.998
638.80 1.997
638.90 1.997
639.00 1.996
639.10 1.995
639.20 1.995
639.30 1.994
639.40 1.994
639.50 1.993
639.60 1.992
639.70 1.992
639.80 1.991
639.90 1.99
640.00 1.99
640.10 1.989
640.20 1.988
640.30 1.988
640.40 1.987
640.50 1.986
640.60 1.986
640.70 1.985
640.80 1.984
640.90 1.984
641.00 1.983
641.10 1.982
641.20 1.981
641.30 1.981
641.40 1.98
641.50 1.979
641.60 1.978
641.70 1.978
641.80 1.977
641.90 1.976
642.00 1.976
642.10 1.975
642.20 1.974
642.30 1.973
642.40 1.972
642.50 1.972
642.60 1.971
642.70 1.97
642.80 1.969
642.90 1.968
643.00 1.967
643.10 1.967
643.20 1.966
643.30 1.965
643.40 1.964
643.50 1.963
643.60 1.962
643.70 1.962
643.80 1.961
643.90 1.96
644.00 1.959
644.10 1.958
644.20 1.957
644.30 1.956
644.40 1.956
644.50 1.955
644.60 1.954
644.70 1.953
644.80 1.952
644.90 1.951
645.00 1.95
645.10 1.949
645.20 1.948
645.30 1.947
645.40 1.947
645.50 1.946
645.60 1.945
645.70 1.944
645.80 1.943
645.90 1.942
646.00 1.941
646.10 1.94
646.20 1.939
646.30 1.938
646.40 1.937
646.50 1.936
646.60 1.935
646.70 1.934
646.80 1.933
646.90 1.932
647.00 1.931
647.10 1.93
647.20 1.929
647.30 1.928
647.40 1.927
647.50 1.926
647.60 1.925
647.70 1.924
647.80 1.923
647.90 1.922
648.00 1.921
648.10 1.92
648.20 1.919
648.30 1.918
648.40 1.917
648.50 1.916
648.60 1.915
648.70 1.914
648.80 1.913
648.90 1.912
649.00 1.911
649.10 1.91
649.20 1.909
649.30 1.908
649.40 1.906
649.50 1.905
649.60 1.904
649.70 1.903
649.80 1.902
649.90 1.901
650.00 1.9
650.10 1.899
650.20 1.897
650.30 1.896
650.40 1.895
650.50 1.894
650.60 1.893
650.70 1.892
650.80 1.89
650.90 1.889
651.00 1.888
651.10 1.887
651.20 1.886
651.30 1.885
651.40 1.883
651.50 1.882
651.60 1.881
651.70 1.88
651.80 1.879
651.90 1.877
652.00 1.876
652.10 1.875
652.20 1.874
652.30 1.872
652.40 1.871
652.50 1.87
652.60 1.869
652.70 1.867
652.80 1.866
652.90 1.865
653.00 1.864
653.10 1.862
653.20 1.861
653.30 1.86
653.40 1.859
653.50 1.857
653.60 1.856
653.70 1.855
653.80 1.853
653.90 1.852
654.00 1.851
654.10 1.849
654.20 1.848
654.30 1.847
654.40 1.845
654.50 1.844
654.60 1.843
654.70 1.841
654.80 1.84
654.90 1.839
655.00 1.837
655.10 1.836
655.20 1.835
655.30 1.833
655.40 1.832
655.50 1.831
655.60 1.829
655.70 1.828
655.80 1.826
655.90 1.825
656.00 1.824
656.10 1.822
656.20 1.821
656.30 1.819
656.40 1.818
656.50 1.816
656.60 1.815
656.70 1.814
656.80 1.812
656.90 1.811
657.00 1.809
657.10 1.808
657.20 1.806
657.30 1.805
657.40 1.803
657.50 1.802
657.60 1.8
657.70 1.799
657.80 1.798
657.90 1.796
658.00 1.795
658.10 1.793
658.20 1.792
658.30 1.79
658.40 1.788
658.50 1.787
658.60 1.785
658.70 1.784
658.80 1.782
658.90 1.781
659.00 1.779
659.10 1.778
659.20 1.776
659.30 1.775
659.40 1.773
659.50 1.772
659.60 1.77
659.70 1.768
659.80 1.767
659.90 1.765
660.00 1.764
660.10 1.762
660.20 1.761
660.30 1.759
660.40 1.757
660.50 1.756
660.60 1.754
660.70 1.752
660.80 1.751
660.90 1.749
661.00 1.748
661.10 1.746
661.20 1.744
661.30 1.743
661.40 1.741
661.50 1.739
661.60 1.738
661.70 1.736
661.80 1.734
661.90 1.733
662.00 1.731
662.10 1.73
662.20 1.728
662.30 1.726
662.40 1.724
662.50 1.723
662.60 1.721
662.70 1.719
662.80 1.718
662.90 1.716
663.00 1.714
663.10 1.713
663.20 1.711
663.30 1.709
663.40 1.707
663.50 1.706
663.60 1.704
663.70 1.702
663.80 1.7
663.90 1.699
664.00 1.697
664.10 1.695
664.20 1.694
664.30 1.692
664.40 1.69
664.50 1.688
664.60 1.686
664.70 1.685
664.80 1.683
664.90 1.681
665.00 1.679
665.10 1.678
665.20 1.676
665.30 1.674
665.40 1.672
665.50 1.67
665.60 1.668
665.70 1.667
665.80 1.665
665.90 1.663
666.00 1.661
666.10 1.659
666.20 1.658
666.30 1.656
666.40 1.654
666.50 1.652
666.60 1.65
666.70 1.648
666.80 1.646
666.90 1.645
667.00 1.643
667.10 1.641
667.20 1.639
667.30 1.637
667.40 1.635
667.50 1.633
667.60 1.631
667.70 1.63
667.80 1.628
667.90 1.626
668.00 1.624
668.10 1.622
668.20 1.62
668.30 1.618
668.40 1.616
668.50 1.614
668.60 1.612
668.70 1.61
668.80 1.608
668.90 1.607
669.00 1.605
669.10 1.603
669.20 1.601
669.30 1.599
669.40 1.597
669.50 1.595
669.60 1.593
669.70 1.591
669.80 1.589
669.90 1.587
670.00 1.585
670.10 1.583
670.20 1.581
670.30 1.579
670.40 1.577
670.50 1.575
670.60 1.573
670.70 1.571
670.80 1.569
670.90 1.567
671.00 1.565
671.10 1.563
671.20 1.561
671.30 1.559
671.40 1.557
671.50 1.555
671.60 1.553
671.70 1.551
671.80 1.549
671.90 1.547
672.00 1.545
672.10 1.543
672.20 1.541
672.30 1.539
672.40 1.537
672.50 1.535
672.60 1.533
672.70 1.531
672.80 1.529
672.90 1.527
673.00 1.524
673.10 1.522
673.20 1.52
673.30 1.518
673.40 1.516
673.50 1.514
673.60 1.512
673.70 1.51
673.80 1.508
673.90 1.506
674.00 1.504
674.10 1.502
674.20 1.499
674.30 1.497
674.40 1.495
674.50 1.493
674.60 1.491
674.70 1.489
674.80 1.487
674.90 1.485
675.00 1.483
675.10 1.48
675.20 1.478
675.30 1.476
675.40 1.474
675.50 1.472
675.60 1.47
675.70 1.468
675.80 1.466
675.90 1.463
676.00 1.461
676.10 1.459
676.20 1.457
676.30 1.455
676.40 1.453
676.50 1.451
676.60 1.448
676.70 1.446
676.80 1.444
676.90 1.442
677.00 1.44
677.10 1.438
677.20 1.436
677.30 1.433
677.40 1.431
677.50 1.429
677.60 1.427
677.70 1.425
677.80 1.422
677.90 1.42
678.00 1.418
678.10 1.416
678.20 1.414
678.30 1.412
678.40 1.409
678.50 1.407
678.60 1.405
678.70 1.403
678.80 1.401
678.90 1.398
679.00 1.396
679.10 1.394
679.20 1.392
679.30 1.39
679.40 1.387
679.50 1.385
679.60 1.383
679.70 1.381
679.80 1.379
679.90 1.376
680.00 1.374
680.10 1.372
680.20 1.37
680.30 1.367
680.40 1.365
680.50 1.363
680.60 1.361
680.70 1.358
680.80 1.356
680.90 1.354
681.00 1.352
681.10 1.35
681.20 1.347
681.30 1.345
681.40 1.343
681.50 1.341
681.60 1.338
681.70 1.336
681.80 1.334
681.90 1.332
682.00 1.329
682.10 1.327
682.20 1.325
682.30 1.323
682.40 1.32
682.50 1.318
682.60 1.316
682.70 1.313
682.80 1.311
682.90 1.309
683.00 1.307
683.10 1.304
683.20 1.302
683.30 1.3
683.40 1.298
683.50 1.295
683.60 1.293
683.70 1.291
683.80 1.288
683.90 1.286
684.00 1.284
684.10 1.282
684.20 1.279
684.30 1.277
684.40 1.275
684.50 1.272
684.60 1.27
684.70 1.268
684.80 1.266
684.90 1.263
685.00 1.261
685.10 1.259
685.20 1.256
685.30 1.254
685.40 1.252
685.50 1.25
685.60 1.247
685.70 1.245
685.80 1.243
685.90 1.24
686.00 1.238
686.10 1.236
686.20 1.234
686.30 1.231
686.40 1.229
686.50 1.227
686.60 1.224
686.70 1.222
686.80 1.22
686.90 1.218
687.00 1.215
687.10 1.213
687.20 1.211
687.30 1.208
687.40 1.206
687.50 1.204
687.60 1.201
687.70 1.199
687.80 1.197
687.90 1.195
688.00 1.192
688.10 1.19
688.20 1.188
688.30 1.185
688.40 1.183
688.50 1.181
688.60 1.178
688.70 1.176
688.80 1.174
688.90 1.172
689.00 1.169
689.10 1.167
689.20 1.165
689.30 1.162
689.40 1.16
689.50 1.158
689.60 1.155
689.70 1.153
689.80 1.151
689.90 1.148
690.00 1.146
690.10 1.144
690.20 1.142
690.30 1.139
690.40 1.137
690.50 1.135
690.60 1.132
690.70 1.13
690.80 1.128
690.90 1.125
691.00 1.123
691.10 1.121
691.20 1.119
691.30 1.116
691.40 1.114
691.50 1.112
691.60 1.109
691.70 1.107
691.80 1.105
691.90 1.102
692.00 1.1
692.10 1.098
692.20 1.096
692.30 1.093
692.40 1.091
692.50 1.089
692.60 1.087
692.70 1.084
692.80 1.082
692.90 1.08
693.00 1.077
693.10 1.075
693.20 1.073
693.30 1.071
693.40 1.068
693.50 1.066
693.60 1.064
693.70 1.062
693.80 1.059
693.90 1.057
694.00 1.055
694.10 1.052
694.20 1.05
694.30 1.048
694.40 1.046
694.50 1.043
694.60 1.041
694.70 1.039
694.80 1.037
694.90 1.034
695.00 1.032
695.10 1.03
695.20 1.028
695.30 1.026
695.40 1.023
695.50 1.021
695.60 1.019
695.70 1.017
695.80 1.014
695.90 1.012
696.00 1.01
696.10 1.008
696.20 1.005
696.30 1.003
696.40 1.001
696.50 0.9988
696.60 0.9966
696.70 0.9944
696.80 0.9922
696.90 0.99
697.00 0.9878
697.10 0.9856
697.20 0.9833
697.30 0.9811
697.40 0.9789
697.50 0.9767
697.60 0.9745
697.70 0.9723
697.80 0.9701
697.90 0.9679
698.00 0.9657
698.10 0.9635
698.20 0.9613
698.30 0.9591
698.40 0.9569
698.50 0.9547
698.60 0.9526
698.70 0.9504
698.80 0.9482
698.90 0.946
699.00 0.9438
699.10 0.9416
699.20 0.9394
699.30 0.9372
699.40 0.9351
699.50 0.9329
699.60 0.9307
699.70 0.9285
699.80 0.9263
699.90 0.9242
700.00 0.922
700.10 0.9199
700.20 0.9178
700.30 0.9157
700.40 0.9136
700.50 0.9114
700.60 0.9093
700.70 0.9072
700.80 0.9051
700.90 0.903
701.00 0.9009
701.10 0.8988
701.20 0.8967
701.30 0.8946
701.40 0.8925
701.50 0.8904
701.60 0.8883
701.70 0.8862
701.80 0.8841
701.90 0.882
702.00 0.88
702.10 0.8779
702.20 0.8758
702.30 0.8737
702.40 0.8716
702.50 0.8695
702.60 0.8674
702.70 0.8654
702.80 0.8633
702.90 0.8612
703.00 0.8591
703.10 0.857
703.20 0.855
703.30 0.8529
703.40 0.8508
703.50 0.8487
703.60 0.8467
703.70 0.8446
703.80 0.8425
703.90 0.8404
704.00 0.8384
704.10 0.8363
704.20 0.8342
704.30 0.8322
704.40 0.8301
704.50 0.8281
704.60 0.826
704.70 0.8239
704.80 0.8219
704.90 0.8198
705.00 0.8178
705.10 0.8158
705.20 0.8139
705.30 0.8119
705.40 0.81
705.50 0.8081
705.60 0.8061
705.70 0.8042
705.80 0.8023
705.90 0.8003
706.00 0.7984
706.10 0.7965
706.20 0.7945
706.30 0.7926
706.40 0.7907
706.50 0.7887
706.60 0.7868
706.70 0.7849
706.80 0.783
706.90 0.781
707.00 0.7791
707.10 0.7772
707.20 0.7753
707.30 0.7734
707.40 0.7714
707.50 0.7695
707.60 0.7676
707.70 0.7657
707.80 0.7638
707.90 0.7619
708.00 0.7599
708.10 0.758
708.20 0.7561
708.30 0.7542
708.40 0.7523
708.50 0.7504
708.60 0.7485
708.70 0.7466
708.80 0.7447
708.90 0.7428
709.00 0.7409
709.10 0.739
709.20 0.7371
709.30 0.7352
709.40 0.7333
709.50 0.7314
709.60 0.7295
709.70 0.7276
709.80 0.7257
709.90 0.7238
710.00 0.7219
710.10 0.7202
710.20 0.7184
710.30 0.7167
710.40 0.7149
710.50 0.7132
710.60 0.7114
710.70 0.7097
710.80 0.7079
710.90 0.7062
711.00 0.7045
711.10 0.7027
711.20 0.701
711.30 0.6992
711.40 0.6975
711.50 0.6958
711.60 0.694
711.70 0.6923
711.80 0.6905
711.90 0.6888
712.00 0.6871
712.10 0.6853
712.20 0.6836
712.30 0.6819
712.40 0.6801
712.50 0.6784
712.60 0.6767
712.70 0.675
712.80 0.6732
712.90 0.6715
713.00 0.6698
713.10 0.6681
713.20 0.6663
713.30 0.6646
713.40 0.6629
713.50 0.6612
713.60 0.6595
713.70 0.6577
713.80 0.656
713.90 0.6543
714.00 0.6526
714.10 0.6509
714.20 0.6492
714.30 0.6475
714.40 0.6457
714.50 0.644
714.60 0.6423
714.70 0.6406
714.80 0.6389
714.90 0.6372
715.00 0.6355
715.10 0.634
715.20 0.6324
715.30 0.6309
715.40 0.6293
715.50 0.6278
715.60 0.6262
715.70 0.6247
715.80 0.6232
715.90 0.6216
716.00 0.6201
716.10 0.6185
716.20 0.617
716.30 0.6155
716.40 0.6139
716.50 0.6124
716.60 0.6109
716.70 0.6093
716.80 0.6078
716.90 0.6063
717.00 0.6047
717.10 0.6032
717.20 0.6017
717.30 0.6002
717.40 0.5986
717.50 0.5971
717.60 0.5956
717.70 0.5941
717.80 0.5925
717.90 0.591
718.00 0.5895
718.10 0.588
718.20 0.5864
718.30 0.5849
718.40 0.5834
718.50 0.5819
718.60 0.5804
718.70 0.5789
718.80 0.5773
718.90 0.5758
719.00 0.5743
719.10 0.5728
719.20 0.5713
719.30 0.5698
719.40 0.5683
719.50 0.5668
719.60 0.5653
719.70 0.5637
719.80 0.5622
719.90 0.5607
720.00 0.5592
720.10 0.5579
720.20 0.5566
720.30 0.5552
720.40 0.5539
720.50 0.5526
720.60 0.5513
720.70 0.5499
720.80 0.5486
720.90 0.5473
721.00 0.546
721.10 0.5447
721.20 0.5433
721.30 0.542
721.40 0.5407
721.50 0.5394
721.60 0.5381
721.70 0.5367
721.80 0.5354
721.90 0.5341
722.00 0.5328
722.10 0.5315
722.20 0.5302
722.30 0.5289
722.40 0.5276
722.50 0.5262
722.60 0.5249
722.70 0.5236
722.80 0.5223
722.90 0.521
723.00 0.5197
723.10 0.5184
723.20 0.5171
723.30 0.5158
723.40 0.5145
723.50 0.5132
723.60 0.5119
723.70 0.5106
723.80 0.5093
723.90 0.508
724.00 0.5067
724.10 0.5054
724.20 0.5041
724.30 0.5028
724.40 0.5015
724.50 0.5002
724.60 0.4989
724.70 0.4976
724.80 0.4963
724.90 0.495
725.00 0.4937
725.10 0.4926
725.20 0.4915
725.30 0.4903
725.40 0.4892
725.50 0.4881
725.60 0.487
725.70 0.4859
725.80 0.4847
725.90 0.4836
726.00 0.4825
726.10 0.4814
726.20 0.4803
726.30 0.4792
726.40 0.4781
726.50 0.4769
726.60 0.4758
726.70 0.4747
726.80 0.4736
726.90 0.4725
727.00 0.4714
727.10 0.4703
727.20 0.4692
727.30 0.4681
727.40 0.467
727.50 0.4659
727.60 0.4648
727.70 0.4636
727.80 0.4625
727.90 0.4614
728.00 0.4603
728.10 0.4592
728.20 0.4581
728.30 0.457
728.40 0.4559
728.50 0.4548
728.60 0.4537
728.70 0.4526
728.80 0.4515
728.90 0.4504
729.00 0.4493
729.10 0.4482
729.20 0.4471
729.30 0.446
729.40 0.4449
729.50 0.4439
729.60 0.4428
729.70 0.4417
729.80 0.4406
729.90 0.4395
730.00 0.4384
730.10 0.4376
730.20 0.4368
730.30 0.436
730.40 0.4352
730.50 0.4343
730.60 0.4335
730.70 0.4327
730.80 0.4319
730.90 0.4311
731.00 0.4303
731.10 0.4295
731.20 0.4287
731.30 0.4279
731.40 0.4271
731.50 0.4263
731.60 0.4255
731.70 0.4247
731.80 0.4239
731.90 0.4231
732.00 0.4223
732.10 0.4215
732.20 0.4207
732.30 0.4199
732.40 0.4191
732.50 0.4183
732.60 0.4175
732.70 0.4167
732.80 0.4159
732.90 0.4151
733.00 0.4143
733.10 0.4135
733.20 0.4127
733.30 0.4119
733.40 0.4112
733.50 0.4104
733.60 0.4096
733.70 0.4088
733.80 0.408
733.90 0.4072
734.00 0.4064
734.10 0.4056
734.20 0.4048
734.30 0.404
734.40 0.4032
734.50 0.4024
734.60 0.4017
734.70 0.4009
734.80 0.4001
734.90 0.3993
735.00 0.3985
735.10 0.3977
735.20 0.3969
735.30 0.3961
735.40 0.3954
735.50 0.3946
735.60 0.3938
735.70 0.393
735.80 0.3922
735.90 0.3914
736.00 0.3907
736.10 0.3899
736.20 0.3891
736.30 0.3883
736.40 0.3875
736.50 0.3867
736.60 0.386
736.70 0.3852
736.80 0.3844
736.90 0.3836
737.00 0.3828
737.10 0.3821
737.20 0.3813
737.30 0.3805
737.40 0.3797
737.50 0.379
737.60 0.3782
737.70 0.3774
737.80 0.3766
737.90 0.3759
738.00 0.3751
738.10 0.3743
738.20 0.3735
738.30 0.3728
738.40 0.372
738.50 0.3712
738.60 0.3704
738.70 0.3697
738.80 0.3689
738.90 0.3681
739.00 0.3674
739.10 0.3666
739.20 0.3658
739.30 0.365
739.40 0.3643
739.50 0.3635
739.60 0.3627
739.70 0.362
739.80 0.3612
739.90 0.3604
740.00 0.3597
740.10 0.3592
740.20 0.3587
740.30 0.3582
740.40 0.3577
740.50 0.3573
740.60 0.3568
740.70 0.3563
740.80 0.3558
740.90 0.3554
741.00 0.3549
741.10 0.3544
741.20 0.3539
741.30 0.3534
741.40 0.353
741.50 0.3525
741.60 0.352
741.70 0.3515
741.80 0.3511
741.90 0.3506
742.00 0.3501
742.10 0.3496
742.20 0.3492
742.30 0.3487
742.40 0.3482
742.50 0.3477
742.60 0.3473
742.70 0.3468
742.80 0.3463
742.90 0.3459
743.00 0.3454
743.10 0.3449
743.20 0.3444
743.30 0.344
743.40 0.3435
743.50 0.343
743.60 0.3425
743.70 0.3421
743.80 0.3416
743.90 0.3411
744.00 0.3407
744.10 0.3402
744.20 0.3397
744.30 0.3393
744.40 0.3388
744.50 0.3383
744.60 0.3378
744.70 0.3374
744.80 0.3369
744.90 0.3364
745.00 0.336
745.10 0.3355
745.20 0.335
745.30 0.3346
745.40 0.3341
745.50 0.3336
745.60 0.3332
745.70 0.3327
745.80 0.3322
745.90 0.3318
746.00 0.3313
746.10 0.3308
746.20 0.3304
746.30 0.3299
746.40 0.3295
746.50 0.329
746.60 0.3285
746.70 0.3281
746.80 0.3276
746.90 0.3271
747.00 0.3267
747.10 0.3262
747.20 0.3257
747.30 0.3253
747.40 0.3248
747.50 0.3244
747.60 0.3239
747.70 0.3234
747.80 0.323
747.90 0.3225
748.00 0.3221
748.10 0.3216
748.20 0.3211
748.30 0.3207
748.40 0.3202
748.50 0.3198
748.60 0.3193
748.70 0.3188
748.80 0.3184
748.90 0.3179
749.00 0.3175
749.10 0.317
749.20 0.3165
749.30 0.3161
749.40 0.3156
749.50 0.3152
749.60 0.3147
749.70 0.3143
749.80 0.3138
749.90 0.3133
750.00 0.3129
750.10 0.3126
750.20 0.3123
750.30 0.312
750.40 0.3117
750.50 0.3114
750.60 0.3111
750.70 0.3109
750.80 0.3106
750.90 0.3103
751.00 0.31
751.10 0.3097
751.20 0.3094
751.30 0.3091
751.40 0.3088
751.50 0.3085
751.60 0.3083
751.70 0.308
751.80 0.3077
751.90 0.3074
752.00 0.3071
752.10 0.3068
752.20 0.3065
752.30 0.3062
752.40 0.306
752.50 0.3057
752.60 0.3054
752.70 0.3051
752.80 0.3048
752.90 0.3045
753.00 0.3042
753.10 0.304
753.20 0.3037
753.30 0.3034
753.40 0.3031
753.50 0.3028
753.60 0.3025
753.70 0.3022
753.80 0.302
753.90 0.3017
754.00 0.3014
754.10 0.3011
754.20 0.3008
754.30 0.3005
754.40 0.3002
754.50 0.3
754.60 0.2997
754.70 0.2994
754.80 0.2991
754.90 0.2988
755.00 0.2985
755.10 0.2983
755.20 0.298
755.30 0.2977
755.40 0.2974
755.50 0.2971
755.60 0.2968
755.70 0.2966
755.80 0.2963
755.90 0.296
756.00 0.2957
756.10 0.2954
756.20 0.2951
756.30 0.2949
756.40 0.2946
756.50 0.2943
756.60 0.294
756.70 0.2937
756.80 0.2935
756.90 0.2932
757.00 0.2929
757.10 0.2926
757.20 0.2923
757.30 0.2921
757.40 0.2918
757.50 0.2915
757.60 0.2912
757.70 0.2909
757.80 0.2907
757.90 0.2904
758.00 0.2901
758.10 0.2898
758.20 0.2895
758.30 0.2893
758.40 0.289
758.50 0.2887
758.60 0.2884
758.70 0.2881
758.80 0.2879
758.90 0.2876
759.00 0.2873
759.10 0.287
759.20 0.2868
759.30 0.2865
759.40 0.2862
759.50 0.2859
759.60 0.2856
759.70 0.2854
759.80 0.2851
759.90 0.2848
760.00 0.2845
760.10 0.2844
760.20 0.2842
760.30 0.284
760.40 0.2838
760.50 0.2836
760.60 0.2834
760.70 0.2833
760.80 0.2831
760.90 0.2829
761.00 0.2827
761.10 0.2825
761.20 0.2823
761.30 0.2822
761.40 0.282
761.50 0.2818
761.60 0.2816
761.70 0.2814
761.80 0.2813
761.90 0.2811
762.00 0.2809
762.10 0.2807
762.20 0.2805
762.30 0.2803
762.40 0.2802
762.50 0.28
762.60 0.2798
762.70 0.2796
762.80 0.2794
762.90 0.2793
763.00 0.2791
763.10 0.2789
763.20 0.2787
763.30 0.2785
763.40 0.2784
763.50 0.2782
763.60 0.278
763.70 0.2778
763.80 0.2776
763.90 0.2775
764.00 0.2773
764.10 0.2771
764.20 0.2769
764.30 0.2767
764.40 0.2766
764.50 0.2764
764.60 0.2762
764.70 0.276
764.80 0.2758
764.90 0.2757
765.00 0.2755
765.10 0.2753
765.20 0.2751
765.30 0.275
765.40 0.2748
765.50 0.2746
765.60 0.2744
765.70 0.2742
765.80 0.2741
765.90 0.2739
766.00 0.2737
766.10 0.2735
766.20 0.2733
766.30 0.2732
766.40 0.273
766.50 0.2728
766.60 0.2726
766.70 0.2725
766.80 0.2723
766.90 0.2721
767.00 0.2719
767.10 0.2717
767.20 0.2716
767.30 0.2714
767.40 0.2712
767.50 0.271
767.60 0.2709
767.70 0.2707
767.80 0.2705
767.90 0.2703
768.00 0.2702
768.10 0.27
768.20 0.2698
768.30 0.2696
768.40 0.2695
768.50 0.2693
768.60 0.2691
768.70 0.2689
768.80 0.2687
768.90 0.2686
769.00 0.2684
769.10 0.2682
769.20 0.268
769.30 0.2679
769.40 0.2677
769.50 0.2675
769.60 0.2673
769.70 0.2672
769.80 0.267
769.90 0.2668
770.00 0.2666
770.10 0.2666
770.20 0.2665
770.30 0.2664
770.40 0.2663
770.50 0.2662
770.60 0.2661
770.70 0.266
770.80 0.2659
770.90 0.2658
771.00 0.2658
771.10 0.2657
771.20 0.2656
771.30 0.2655
771.40 0.2654
771.50 0.2653
771.60 0.2652
771.70 0.2651
771.80 0.2651
771.90 0.265
772.00 0.2649
772.10 0.2648
772.20 0.2647
772.30 0.2646
772.40 0.2645
772.50 0.2644
772.60 0.2644
772.70 0.2643
772.80 0.2642
772.90 0.2641
773.00 0.264
773.10 0.2639
773.20 0.2638
773.30 0.2637
773.40 0.2637
773.50 0.2636
773.60 0.2635
773.70 0.2634
773.80 0.2633
773.90 0.2632
774.00 0.2631
774.10 0.263
774.20 0.263
774.30 0.2629
774.40 0.2628
774.50 0.2627
774.60 0.2626
774.70 0.2625
774.80 0.2624
774.90 0.2624
775.00 0.2623
775.10 0.2622
775.20 0.2621
775.30 0.262
775.40 0.2619
775.50 0.2618
775.60 0.2617
775.70 0.2617
775.80 0.2616
775.90 0.2615
776.00 0.2614
776.10 0.2613
776.20 0.2612
776.30 0.2611
776.40 0.2611
776.50 0.261
776.60 0.2609
776.70 0.2608
776.80 0.2607
776.90 0.2606
777.00 0.2605
777.10 0.2605
777.20 0.2604
777.30 0.2603
777.40 0.2602
777.50 0.2601
777.60 0.26
777.70 0.2599
777.80 0.2599
777.90 0.2598
778.00 0.2597
778.10 0.2596
778.20 0.2595
778.30 0.2594
778.40 0.2593
778.50 0.2593
778.60 0.2592
778.70 0.2591
778.80 0.259
778.90 0.2589
779.00 0.2588
779.10 0.2587
779.20 0.2587
779.30 0.2586
779.40 0.2585
779.50 0.2584
779.60 0.2583
779.70 0.2582
779.80 0.2581
779.90 0.2581
780.00 0.258
780.10 0.258
780.20 0.2581
780.30 0.2581
780.40 0.2582
780.50 0.2582
780.60 0.2583
780.70 0.2584
780.80 0.2584
780.90 0.2585
781.00 0.2585
781.10 0.2586
781.20 0.2586
781.30 0.2587
781.40 0.2587
781.50 0.2588
781.60 0.2588
781.70 0.2589
781.80 0.2589
781.90 0.259
782.00 0.259
782.10 0.2591
782.20 0.2591
782.30 0.2592
782.40 0.2593
782.50 0.2593
782.60 0.2594
782.70 0.2594
782.80 0.2595
782.90 0.2595
783.00 0.2596
783.10 0.2596
783.20 0.2597
783.30 0.2597
783.40 0.2598
783.50 0.2598
783.60 0.2599
783.70 0.2599
783.80 0.26
783.90 0.26
784.00 0.2601
784.10 0.2601
784.20 0.2602
784.30 0.2602
784.40 0.2603
784.50 0.2604
784.60 0.2604
784.70 0.2605
784.80 0.2605
784.90 0.2606
785.00 0.2606
785.10 0.2607
785.20 0.2607
785.30 0.2608
785.40 0.2608
785.50 0.2609
785.60 0.2609
785.70 0.261
785.80 0.261
785.90 0.2611
786.00 0.2611
786.10 0.2612
786.20 0.2612
786.30 0.2613
786.40 0.2613
786.50 0.2614
786.60 0.2614
786.70 0.2615
786.80 0.2615
786.90 0.2616
787.00 0.2616
787.10 0.2617
787.20 0.2617
787.30 0.2618
787.40 0.2618
787.50 0.2619
787.60 0.2619
787.70 0.262
787.80 0.262
787.90 0.2621
788.00 0.2622
788.10 0.2622
788.20 0.2623
788.30 0.2623
788.40 0.2624
788.50 0.2624
788.60 0.2625
788.70 0.2625
788.80 0.2626
788.90 0.2626
789.00 0.2627
789.10 0.2627
789.20 0.2628
789.30 0.2628
789.40 0.2629
789.50 0.2629
789.60 0.263
789.70 0.263
789.80 0.2631
789.90 0.2631
790.00 0.2632
790.10 0.2633
790.20 0.2634
790.30 0.2635
790.40 0.2637
790.50 0.2638
790.60 0.2639
790.70 0.264
790.80 0.2642
790.90 0.2643
791.00 0.2644
791.10 0.2645
791.20 0.2647
791.30 0.2648
791.40 0.2649
791.50 0.265
791.60 0.2652
791.70 0.2653
791.80 0.2654
791.90 0.2655
792.00 0.2657
792.10 0.2658
792.20 0.2659
792.30 0.266
792.40 0.2662
792.50 0.2663
792.60 0.2664
792.70 0.2665
792.80 0.2667
792.90 0.2668
793.00 0.2669
793.10 0.267
793.20 0.2672
793.30 0.2673
793.40 0.2674
793.50 0.2675
793.60 0.2677
793.70 0.2678
793.80 0.2679
793.90 0.268
794.00 0.2681
794.10 0.2683
794.20 0.2684
794.30 0.2685
794.40 0.2686
794.50 0.2688
794.60 0.2689
794.70 0.269
794.80 0.2691
794.90 0.2693
795.00 0.2694
795.10 0.2695
795.20 0.2696
795.30 0.2697
795.40 0.2699
795.50 0.27
795.60 0.2701
795.70 0.2702
795.80 0.2704
795.90 0.2705
796.00 0.2706
796.10 0.2707
796.20 0.2708
796.30 0.271
796.40 0.2711
796.50 0.2712
796.60 0.2713
796.70 0.2714
796.80 0.2716
796.90 0.2717
797.00 0.2718
797.10 0.2719
797.20 0.2721
797.30 0.2722
797.40 0.2723
797.50 0.2724
797.60 0.2725
797.70 0.2727
797.80 0.2728
797.90 0.2729
798.00 0.273
798.10 0.2731
798.20 0.2733
798.30 0.2734
798.40 0.2735
798.50 0.2736
798.60 0.2737
798.70 0.2739
798.80 0.274
798.90 0.2741
799.00 0.2742
799.10 0.2743
799.20 0.2745
799.30 0.2746
799.40 0.2747
799.50 0.2748
799.60 0.2749
799.70 0.2751
799.80 0.2752
799.90 0.2753
800.00 0.2754
800.10 0.2755
800.20 0.2755
800.30 0.2756
800.40 0.2757
800.50 0.2757
800.60 0.2758
800.70 0.2759
800.80 0.2759
800.90 0.276
801.00 0.2761
801.10 0.2761
801.20 0.2762
801.30 0.2763
801.40 0.2763
801.50 0.2764
801.60 0.2765
801.70 0.2765
801.80 0.2766
801.90 0.2767
802.00 0.2767
802.10 0.2768
802.20 0.2769
802.30 0.2769
802.40 0.277
802.50 0.2771
802.60 0.2771
802.70 0.2772
802.80 0.2773
802.90 0.2773
803.00 0.2774
803.10 0.2775
803.20 0.2775
803.30 0.2776
803.40 0.2777
803.50 0.2777
803.60 0.2778
803.70 0.2778
803.80 0.2779
803.90 0.278
804.00 0.278
804.10 0.2781
804.20 0.2782
804.30 0.2782
804.40 0.2783
804.50 0.2784
804.60 0.2784
804.70 0.2785
804.80 0.2786
804.90 0.2786
805.00 0.2787
805.10 0.2788
805.20 0.2788
805.30 0.2789
805.40 0.2789
805.50 0.279
805.60 0.2791
805.70 0.2791
805.80 0.2792
805.90 0.2793
806.00 0.2793
806.10 0.2794
806.20 0.2795
806.30 0.2795
806.40 0.2796
806.50 0.2797
806.60 0.2797
806.70 0.2798
806.80 0.2798
806.90 0.2799
807.00 0.28
807.10 0.28
807.20 0.2801
807.30 0.2802
807.40 0.2802
807.50 0.2803
807.60 0.2804
807.70 0.2804
807.80 0.2805
807.90 0.2805
808.00 0.2806
808.10 0.2807
808.20 0.2807
808.30 0.2808
808.40 0.2809
808.50 0.2809
808.60 0.281
808.70 0.281
808.80 0.2811
808.90 0.2812
809.00 0.2812
809.10 0.2813
809.20 0.2814
809.30 0.2814
809.40 0.2815
809.50 0.2815
809.60 0.2816
809.70 0.2817
809.80 0.2817
809.90 0.2818
810.00 0.2819
810.10 0.2819
810.20 0.2819
810.30 0.2819
810.40 0.2819
810.50 0.2819
810.60 0.282
810.70 0.282
810.80 0.282
810.90 0.282
811.00 0.282
811.10 0.282
811.20 0.282
811.30 0.2821
811.40 0.2821
811.50 0.2821
811.60 0.2821
811.70 0.2821
811.80 0.2821
811.90 0.2821
812.00 0.2822
812.10 0.2822
812.20 0.2822
812.30 0.2822
812.40 0.2822
812.50 0.2822
812.60 0.2822
812.70 0.2823
812.80 0.2823
812.90 0.2823
813.00 0.2823
813.10 0.2823
813.20 0.2823
813.30 0.2823
813.40 0.2824
813.50 0.2824
813.60 0.2824
813.70 0.2824
813.80 0.2824
813.90 0.2824
814.00 0.2824
814.10 0.2825
814.20 0.2825
814.30 0.2825
814.40 0.2825
814.50 0.2825
814.60 0.2825
814.70 0.2825
814.80 0.2826
814.90 0.2826
815.00 0.2826
815.10 0.2826
815.20 0.2826
815.30 0.2826
815.40 0.2826
815.50 0.2827
815.60 0.2827
815.70 0.2827
815.80 0.2827
815.90 0.2827
816.00 0.2827
816.10 0.2827
816.20 0.2828
816.30 0.2828
816.40 0.2828
816.50 0.2828
816.60 0.2828
816.70 0.2828
816.80 0.2828
816.90 0.2829
817.00 0.2829
817.10 0.2829
817.20 0.2829
817.30 0.2829
817.40 0.2829
817.50 0.2829
817.60 0.283
817.70 0.283
817.80 0.283
817.90 0.283
818.00 0.283
818.10 0.283
818.20 0.283
818.30 0.2831
818.40 0.2831
818.50 0.2831
818.60 0.2831
818.70 0.2831
818.80 0.2831
818.90 0.2831
819.00 0.2831
819.10 0.2832
819.20 0.2832
819.30 0.2832
819.40 0.2832
819.50 0.2832
819.60 0.2832
819.70 0.2832
819.80 0.2833
819.90 0.2833
820.00 0.2833
820.10 0.2833
820.20 0.2833
820.30 0.2834
820.40 0.2834
820.50 0.2835
820.60 0.2835
820.70 0.2835
820.80 0.2836
820.90 0.2836
821.00 0.2837
821.10 0.2837
821.20 0.2837
821.30 0.2838
821.40 0.2838
821.50 0.2839
821.60 0.2839
821.70 0.2839
821.80 0.284
821.90 0.284
822.00 0.2841
822.10 0.2841
822.20 0.2842
822.30 0.2843
822.40 0.2843
822.50 0.2844
822.60 0.2844
822.70 0.2845
822.80 0.2846
822.90 0.2846
823.00 0.2847
823.10 0.2847
823.20 0.2848
823.30 0.2849
823.40 0.2849
823.50 0.285
823.60 0.285
823.70 0.2851
823.80 0.2852
823.90 0.2852
824.00 0.2853
824.10 0.2853
824.20 0.2854
824.30 0.2855
824.40 0.2855
824.50 0.2856
824.60 0.2856
824.70 0.2857
824.80 0.2857
824.90 0.2858
825.00 0.2859
825.10 0.2859
825.20 0.286
825.30 0.286
825.40 0.2861
825.50 0.2862
825.60 0.2862
825.70 0.2863
825.80 0.2863
825.90 0.2864
826.00 0.2865
826.10 0.2865
826.20 0.2866
826.30 0.2866
826.40 0.2867
826.50 0.2868
826.60 0.2868
826.70 0.2869
826.80 0.2869
826.90 0.287
827.00 0.2871
827.10 0.2871
827.20 0.2872
827.30 0.2873
827.40 0.2873
827.50 0.2874
827.60 0.2875
827.70 0.2876
827.80 0.2876
827.90 0.2877
828.00 0.2878
828.10 0.2879
828.20 0.2879
828.30 0.288
828.40 0.2881
828.50 0.2881
828.60 0.2882
828.70 0.2883
828.80 0.2884
828.90 0.2884
829.00 0.2885
829.10 0.2886
829.20 0.2886
829.30 0.2887
829.40 0.2888
829.50 0.2889
829.60 0.2889
829.70 0.289
829.80 0.2891
829.90 0.2891
830.00 0.2892
830.10 0.2893
830.20 0.2894
830.30 0.2894
830.40 0.2895
830.50 0.2896
830.60 0.2897
830.70 0.2897
830.80 0.2898
830.90 0.2899
831.00 0.2899
831.10 0.29
831.20 0.2901
831.30 0.2902
831.40 0.2902
831.50 0.2903
831.60 0.2904
831.70 0.2904
831.80 0.2905
831.90 0.2906
832.00 0.2906
832.10 0.2907
832.20 0.2908
832.30 0.2908
832.40 0.2909
832.50 0.2909
832.60 0.291
832.70 0.291
832.80 0.2911
832.90 0.2911
833.00 0.2912
833.10 0.2912
833.20 0.2913
833.30 0.2913
833.40 0.2914
833.50 0.2914
833.60 0.2915
833.70 0.2915
833.80 0.2916
833.90 0.2917
834.00 0.2917
834.10 0.2918
834.20 0.2918
834.30 0.2919
834.40 0.2919
834.50 0.292
834.60 0.292
834.70 0.2921
834.80 0.2921
834.90 0.2922
835.00 0.2922
835.10 0.2923
835.20 0.2923
835.30 0.2924
835.40 0.2924
835.50 0.2925
835.60 0.2925
835.70 0.2926
835.80 0.2926
835.90 0.2927
836.00 0.2927
836.10 0.2928
836.20 0.2928
836.30 0.2929
836.40 0.293
836.50 0.293
836.60 0.2931
836.70 0.2931
836.80 0.2932
836.90 0.2932
837.00 0.2933
837.10 0.2933
837.20 0.2933
837.30 0.2934
837.40 0.2934
837.50 0.2935
837.60 0.2935
837.70 0.2935
837.80 0.2936
837.90 0.2936
838.00 0.2936
838.10 0.2937
838.20 0.2937
838.30 0.2938
838.40 0.2938
838.50 0.2938
838.60 0.2939
838.70 0.2939
838.80 0.2939
838.90 0.294
839.00 0.294
839.10 0.2941
839.20 0.2941
839.30 0.2941
839.40 0.2942
839.50 0.2942
839.60 0.2943
839.70 0.2943
839.80 0.2943
839.90 0.2944
840.00 0.2944
840.10 0.2944
840.20 0.2945
840.30 0.2945
840.40 0.2946
840.50 0.2946
840.60 0.2946
840.70 0.2947
840.80 0.2947
840.90 0.2947
841.00 0.2948
841.10 0.2948
841.20 0.2949
841.30 0.2949
841.40 0.2949
841.50 0.295
841.60 0.295
841.70 0.295
841.80 0.2951
841.90 0.2951
842.00 0.2952
842.10 0.2952
842.20 0.2952
842.30 0.2952
842.40 0.2952
842.50 0.2953
842.60 0.2953
842.70 0.2953
842.80 0.2953
842.90 0.2954
843.00 0.2954
843.10 0.2954
843.20 0.2954
843.30 0.2955
843.40 0.2955
843.50 0.2955
843.60 0.2955
843.70 0.2956
843.80 0.2956
843.90 0.2956
844.00 0.2956
844.10 0.2957
844.20 0.2957
844.30 0.2957
844.40 0.2957
844.50 0.2957
844.60 0.2958
844.70 0.2958
844.80 0.2958
844.90 0.2958
845.00 0.2959
845.10 0.2959
845.20 0.2959
845.30 0.2959
845.40 0.296
845.50 0.296
845.60 0.296
845.70 0.296
845.80 0.2961
845.90 0.2961
846.00 0.2961
846.10 0.2961
846.20 0.2961
846.30 0.2962
846.40 0.2962
846.50 0.2962
846.60 0.2962
846.70 0.2963
846.80 0.2963
846.90 0.2963
847.00 0.2963
847.10 0.2964
847.20 0.2964
847.30 0.2964
847.40 0.2964
847.50 0.2964
847.60 0.2965
847.70 0.2965
847.80 0.2965
847.90 0.2965
848.00 0.2966
848.10 0.2966
848.20 0.2966
848.30 0.2966
848.40 0.2967
848.50 0.2967
848.60 0.2967
848.70 0.2967
848.80 0.2968
848.90 0.2968
849.00 0.2968
849.10 0.2968
849.20 0.2969
849.30 0.2969
849.40 0.2969
849.50 0.2969
849.60 0.2969
849.70 0.297
849.80 0.297
849.90 0.297
850.00 0.297
850.10 0.2971
850.20 0.2971
850.30 0.2971
850.40 0.2971
850.50 0.2972
850.60 0.2972
850.70 0.2972
850.80 0.2972
850.90 0.2972
851.00 0.2973
851.10 0.2973
851.20 0.2973
851.30 0.2973
851.40 0.2974
851.50 0.2974
851.60 0.2974
851.70 0.2974
851.80 0.2975
851.90 0.2975
852.00 0.2975
852.10 0.2975
852.20 0.2976
852.30 0.2976
852.40 0.2976
852.50 0.2976
852.60 0.2977
852.70 0.2977
852.80 0.2977
852.90 0.2977
853.00 0.2978
853.10 0.2978
853.20 0.2978
853.30 0.2978
853.40 0.2979
853.50 0.2979
853.60 0.2979
853.70 0.298
853.80 0.298
853.90 0.298
854.00 0.298
854.10 0.2981
854.20 0.2981
854.30 0.2981
854.40 0.2981
854.50 0.2982
854.60 0.2982
854.70 0.2982
854.80 0.2982
854.90 0.2983
855.00 0.2983
855.10 0.2983
855.20 0.2984
855.30 0.2984
855.40 0.2984
855.50 0.2984
855.60 0.2985
855.70 0.2985
855.80 0.2985
855.90 0.2985
856.00 0.2986
856.10 0.2986
856.20 0.2986
856.30 0.2986
856.40 0.2987
856.50 0.2987
856.60 0.2987
856.70 0.2987
856.80 0.2988
856.90 0.2988
857.00 0.2988
857.10 0.2989
857.20 0.2989
857.30 0.2989
857.40 0.2989
857.50 0.299
857.60 0.299
857.70 0.299
857.80 0.2991
857.90 0.2991
858.00 0.2991
858.10 0.2992
858.20 0.2992
858.30 0.2992
858.40 0.2992
858.50 0.2993
858.60 0.2993
858.70 0.2993
858.80 0.2994
858.90 0.2994
859.00 0.2994
859.10 0.2995
859.20 0.2995
859.30 0.2995
859.40 0.2995
859.50 0.2996
859.60 0.2996
859.70 0.2996
859.80 0.2997
859.90 0.2997
860.00 0.2997
860.10 0.2998
860.20 0.2998
860.30 0.2998
860.40 0.2998
860.50 0.2999
860.60 0.2999
860.70 0.2999
860.80 0.3
860.90 0.3
861.00 0.3
861.10 0.3001
861.20 0.3001
861.30 0.3001
861.40 0.3001
861.50 0.3002
861.60 0.3002
861.70 0.3002
861.80 0.3003
861.90 0.3003
862.00 0.3003
862.10 0.3004
862.20 0.3004
862.30 0.3004
862.40 0.3005
862.50 0.3005
862.60 0.3006
862.70 0.3006
862.80 0.3006
862.90 0.3007
863.00 0.3007
863.10 0.3008
863.20 0.3008
863.30 0.3008
863.40 0.3009
863.50 0.3009
863.60 0.301
863.70 0.301
863.80 0.301
863.90 0.3011
864.00 0.3011
864.10 0.3012
864.20 0.3012
864.30 0.3012
864.40 0.3013
864.50 0.3013
864.60 0.3014
864.70 0.3014
864.80 0.3014
864.90 0.3015
865.00 0.3015
865.10 0.3016
865.20 0.3016
865.30 0.3016
865.40 0.3017
865.50 0.3017
865.60 0.3017
865.70 0.3018
865.80 0.3018
865.90 0.3019
866.00 0.3019
866.10 0.3019
866.20 0.302
866.30 0.302
866.40 0.3021
866.50 0.3021
866.60 0.3021
866.70 0.3022
866.80 0.3022
866.90 0.3023
867.00 0.3023
867.10 0.3023
867.20 0.3023
867.30 0.3024
867.40 0.3024
867.50 0.3024
867.60 0.3024
867.70 0.3024
867.80 0.3024
867.90 0.3025
868.00 0.3025
868.10 0.3025
868.20 0.3025
868.30 0.3025
868.40 0.3026
868.50 0.3026
868.60 0.3026
868.70 0.3026
868.80 0.3026
868.90 0.3027
869.00 0.3027
869.10 0.3027
869.20 0.3027
869.30 0.3027
869.40 0.3027
869.50 0.3028
869.60 0.3028
869.70 0.3028
869.80 0.3028
869.90 0.3028
870.00 0.3029
870.10 0.3029
870.20 0.3029
870.30 0.3029
870.40 0.3029
870.50 0.303
870.60 0.303
870.70 0.303
870.80 0.303
870.90 0.303
871.00 0.303
871.10 0.3031
871.20 0.3031
871.30 0.3031
871.40 0.3031
871.50 0.3031
871.60 0.3032
871.70 0.3032
871.80 0.3032
871.90 0.3032
872.00 0.3032
872.10 0.3032
872.20 0.3032
872.30 0.3032
872.40 0.3032
872.50 0.3032
872.60 0.3032
872.70 0.3032
872.80 0.3032
872.90 0.3032
873.00 0.3032
873.10 0.3032
873.20 0.3032
873.30 0.3032
873.40 0.3032
873.50 0.3032
873.60 0.3032
873.70 0.3032
873.80 0.3032
873.90 0.3032
874.00 0.3032
874.10 0.3032
874.20 0.3032
874.30 0.3032
874.40 0.3032
874.50 0.3032
874.60 0.3032
874.70 0.3032
874.80 0.3032
874.90 0.3032
875.00 0.3032
875.10 0.3032
875.20 0.3032
875.30 0.3032
875.40 0.3032
875.50 0.3032
875.60 0.3032
875.70 0.3032
875.80 0.3032
875.90 0.3032
876.00 0.3032
876.10 0.3032
876.20 0.3032
876.30 0.3032
876.40 0.3032
876.50 0.3032
876.60 0.3032
876.70 0.3032
876.80 0.3032
876.90 0.3032
877.00 0.3032
877.10 0.3032
877.20 0.3031
877.30 0.3031
877.40 0.303
877.50 0.303
877.60 0.3029
877.70 0.3029
877.80 0.3028
877.90 0.3028
878.00 0.3027
878.10 0.3027
878.20 0.3026
878.30 0.3026
878.40 0.3025
878.50 0.3025
878.60 0.3024
878.70 0.3024
878.80 0.3024
878.90 0.3023
879.00 0.3023
879.10 0.3022
879.20 0.3022
879.30 0.3021
879.40 0.3021
879.50 0.302
879.60 0.302
879.70 0.3019
879.80 0.3019
879.90 0.3018
880.00 0.3018
880.10 0.3017
880.20 0.3017
880.30 0.3016
880.40 0.3016
880.50 0.3015
880.60 0.3015
880.70 0.3014
880.80 0.3014
880.90 0.3014
881.00 0.3013
881.10 0.3013
881.20 0.3012
881.30 0.3012
881.40 0.3011
881.50 0.3011
881.60 0.301
881.70 0.301
881.80 0.3009
881.90 0.3009
882.00 0.3008
882.10 0.3007
882.20 0.3007
882.30 0.3006
882.40 0.3005
882.50 0.3004
882.60 0.3003
882.70 0.3003
882.80 0.3002
882.90 0.3001
883.00 0.3
883.10 0.2999
883.20 0.2998
883.30 0.2998
883.40 0.2997
883.50 0.2996
883.60 0.2995
883.70 0.2994
883.80 0.2993
883.90 0.2993
884.00 0.2992
884.10 0.2991
884.20 0.299
884.30 0.2989
884.40 0.2989
884.50 0.2988
884.60 0.2987
884.70 0.2986
884.80 0.2985
884.90 0.2984
885.00 0.2984
885.10 0.2983
885.20 0.2982
885.30 0.2981
885.40 0.298
885.50 0.298
885.60 0.2979
885.70 0.2978
885.80 0.2977
885.90 0.2976
886.00 0.2975
886.10 0.2975
886.20 0.2974
886.30 0.2973
886.40 0.2972
886.50 0.2971
886.60 0.2971
886.70 0.297
886.80 0.2969
886.90 0.2968
887.00 0.2967
887.10 0.2966
887.20 0.2965
887.30 0.2964
887.40 0.2963
887.50 0.2962
887.60 0.296
887.70 0.2959
887.80 0.2958
887.90 0.2957
888.00 0.2956
888.10 0.2955
888.20 0.2954
888.30 0.2952
888.40 0.2951
888.50 0.295
888.60 0.2949
888.70 0.2948
888.80 0.2947
888.90 0.2945
889.00 0.2944
889.10 0.2943
889.20 0.2942
889.30 0.2941
889.40 0.294
889.50 0.2939
889.60 0.2937
889.70 0.2936
889.80 0.2935
889.90 0.2934
890.00 0.2933
890.10 0.2932
890.20 0.2931
890.30 0.293
890.40 0.2928
890.50 0.2927
890.60 0.2926
890.70 0.2925
890.80 0.2924
890.90 0.2923
891.00 0.2922
891.10 0.292
891.20 0.2919
891.30 0.2918
891.40 0.2917
891.50 0.2916
891.60 0.2915
891.70 0.2914
891.80 0.2912
891.90 0.2911
892.00 0.291
892.10 0.2909
892.20 0.2908
892.30 0.2906
892.40 0.2905
892.50 0.2904
892.60 0.2902
892.70 0.2901
892.80 0.29
892.90 0.2898
893.00 0.2897
893.10 0.2895
893.20 0.2894
893.30 0.2893
893.40 0.2891
893.50 0.289
893.60 0.2889
893.70 0.2887
893.80 0.2886
893.90 0.2885
894.00 0.2883
894.10 0.2882
894.20 0.2881
894.30 0.2879
894.40 0.2878
894.50 0.2877
894.60 0.2875
894.70 0.2874
894.80 0.2873
894.90 0.2872
895.00 0.287
895.10 0.2869
895.20 0.2868
895.30 0.2866
895.40 0.2865
895.50 0.2864
895.60 0.2862
895.70 0.2861
895.80 0.286
895.90 0.2858
896.00 0.2857
896.10 0.2856
896.20 0.2854
896.30 0.2853
896.40 0.2852
896.50 0.285
896.60 0.2849
896.70 0.2848
896.80 0.2846
896.90 0.2845
897.00 0.2844
897.10 0.2842
897.20 0.2841
897.30 0.2839
897.40 0.2838
897.50 0.2836
897.60 0.2834
897.70 0.2833
897.80 0.2831
897.90 0.283
898.00 0.2828
898.10 0.2827
898.20 0.2825
898.30 0.2824
898.40 0.2822
898.50 0.2821
898.60 0.2819
898.70 0.2818
898.80 0.2816
898.90 0.2814
899.00 0.2813
899.10 0.2811
899.20 0.281
899.30 0.2808
899.40 0.2807
899.50 0.2805
899.60 0.2804
899.70 0.2802
899.80 0.2801
899.90 0.2799
900.00 0.2798
900.10 0.2796
900.20 0.2795
900.30 0.2793
900.40 0.2792
900.50 0.279
900.60 0.2788
900.70 0.2787
900.80 0.2785
900.90 0.2784
901.00 0.2782
901.10 0.2781
901.20 0.2779
901.30 0.2778
901.40 0.2776
901.50 0.2775
901.60 0.2773
901.70 0.2772
901.80 0.277
901.90 0.2769
902.00 0.2767
902.10 0.2765
902.20 0.2764
902.30 0.2762
902.40 0.276
902.50 0.2759
902.60 0.2757
902.70 0.2755
902.80 0.2754
902.90 0.2752
903.00 0.275
903.10 0.2748
903.20 0.2747
903.30 0.2745
903.40 0.2743
903.50 0.2742
903.60 0.274
903.70 0.2738
903.80 0.2736
903.90 0.2735
904.00 0.2733
904.10 0.2731
904.20 0.273
904.30 0.2728
904.40 0.2726
904.50 0.2725
904.60 0.2723
904.70 0.2721
904.80 0.2719
904.90 0.2718
905.00 0.2716
905.10 0.2714
905.20 0.2713
905.30 0.2711
905.40 0.2709
905.50 0.2708
905.60 0.2706
905.70 0.2704
905.80 0.2703
905.90 0.2701
906.00 0.2699
906.10 0.2698
906.20 0.2696
906.30 0.2694
906.40 0.2692
906.50 0.2691
906.60 0.2689
906.70 0.2687
906.80 0.2686
906.90 0.2684
907.00 0.2682
907.10 0.268
907.20 0.2678
907.30 0.2676
907.40 0.2675
907.50 0.2673
907.60 0.2671
907.70 0.2669
907.80 0.2667
907.90 0.2665
908.00 0.2663
908.10 0.2661
908.20 0.2659
908.30 0.2657
908.40 0.2655
908.50 0.2653
908.60 0.2651
908.70 0.2649
908.80 0.2647
908.90 0.2645
909.00 0.2643
909.10 0.2641
909.20 0.2639
909.30 0.2637
909.40 0.2635
909.50 0.2634
909.60 0.2632
909.70 0.263
909.80 0.2628
909.90 0.2626
910.00 0.2624
910.10 0.2622
910.20 0.262
910.30 0.2618
910.40 0.2616
910.50 0.2614
910.60 0.2612
910.70 0.261
910.80 0.2608
910.90 0.2606
911.00 0.2605
911.10 0.2603
911.20 0.2601
911.30 0.2599
911.40 0.2597
911.50 0.2595
911.60 0.2593
911.70 0.2591
911.80 0.2589
911.90 0.2587
912.00 0.2585
912.10 0.2583
912.20 0.2581
912.30 0.2579
912.40 0.2577
912.50 0.2574
912.60 0.2572
912.70 0.257
912.80 0.2568
912.90 0.2566
913.00 0.2564
913.10 0.2562
913.20 0.2559
913.30 0.2557
913.40 0.2555
913.50 0.2553
913.60 0.2551
913.70 0.2549
913.80 0.2547
913.90 0.2544
914.00 0.2542
914.10 0.254
914.20 0.2538
914.30 0.2536
914.40 0.2534
914.50 0.2532
914.60 0.2529
914.70 0.2527
914.80 0.2525
914.90 0.2523
915.00 0.2521
915.10 0.2519
915.20 0.2517
915.30 0.2514
915.40 0.2512
915.50 0.251
915.60 0.2508
915.70 0.2506
915.80 0.2504
915.90 0.2502
916.00 0.25
916.10 0.2497
916.20 0.2495
916.30 0.2493
916.40 0.2491
916.50 0.2489
916.60 0.2487
916.70 0.2485
916.80 0.2483
916.90 0.248
917.00 0.2478
917.10 0.2476
917.20 0.2474
917.30 0.2471
917.40 0.2469
917.50 0.2467
917.60 0.2464
917.70 0.2462
917.80 0.246
917.90 0.2458
918.00 0.2455
918.10 0.2453
918.20 0.2451
918.30 0.2448
918.40 0.2446
918.50 0.2444
918.60 0.2441
918.70 0.2439
918.80 0.2437
918.90 0.2434
919.00 0.2432
919.10 0.243
919.20 0.2428
919.30 0.2425
919.40 0.2423
919.50 0.2421
919.60 0.2418
919.70 0.2416
919.80 0.2414
919.90 0.2412
920.00 0.2409
920.10 0.2407
920.20 0.2405
920.30 0.2402
920.40 0.24
920.50 0.2398
920.60 0.2395
920.70 0.2393
920.80 0.2391
920.90 0.2389
921.00 0.2386
921.10 0.2384
921.20 0.2382
921.30 0.238
921.40 0.2377
921.50 0.2375
921.60 0.2373
921.70 0.237
921.80 0.2368
921.90 0.2366
922.00 0.2364
922.10 0.2361
922.20 0.2359
922.30 0.2356
922.40 0.2354
922.50 0.2351
922.60 0.2349
922.70 0.2347
922.80 0.2344
922.90 0.2342
923.00 0.2339
923.10 0.2337
923.20 0.2335
923.30 0.2332
923.40 0.233
923.50 0.2327
923.60 0.2325
923.70 0.2322
923.80 0.232
923.90 0.2318
924.00 0.2315
924.10 0.2313
924.20 0.231
924.30 0.2308
924.40 0.2306
924.50 0.2303
924.60 0.2301
924.70 0.2298
924.80 0.2296
924.90 0.2294
925.00 0.2291
925.10 0.2289
925.20 0.2286
925.30 0.2284
925.40 0.2282
925.50 0.2279
925.60 0.2277
925.70 0.2274
925.80 0.2272
925.90 0.227
926.00 0.2267
926.10 0.2265
926.20 0.2262
926.30 0.226
926.40 0.2258
926.50 0.2255
926.60 0.2253
926.70 0.225
926.80 0.2248
926.90 0.2246
927.00 0.2243
927.10 0.2241
927.20 0.2238
927.30 0.2236
927.40 0.2233
927.50 0.2231
927.60 0.2228
927.70 0.2226
927.80 0.2223
927.90 0.2221
928.00 0.2218
928.10 0.2216
928.20 0.2213
928.30 0.2211
928.40 0.2208
928.50 0.2206
928.60 0.2203
928.70 0.22
928.80 0.2198
928.90 0.2195
929.00 0.2193
929.10 0.219
929.20 0.2188
929.30 0.2185
929.40 0.2183
929.50 0.218
929.60 0.2178
929.70 0.2175
929.80 0.2173
929.90 0.217
930.00 0.2168
930.10 0.2165
930.20 0.2163
930.30 0.216
930.40 0.2158
930.50 0.2155
930.60 0.2153
930.70 0.215
930.80 0.2148
930.90 0.2145
931.00 0.2143
931.10 0.214
931.20 0.2138
931.30 0.2136
931.40 0.2133
931.50 0.2131
931.60 0.2128
931.70 0.2126
931.80 0.2123
931.90 0.2121
932.00 0.2118
932.10 0.2116
932.20 0.2113
932.30 0.2111
932.40 0.2108
932.50 0.2106
932.60 0.2103
932.70 0.2101
932.80 0.2098
932.90 0.2095
933.00 0.2093
933.10 0.209
933.20 0.2088
933.30 0.2085
933.40 0.2083
933.50 0.208
933.60 0.2078
933.70 0.2075
933.80 0.2073
933.90 0.207
934.00 0.2068
934.10 0.2065
934.20 0.2063
934.30 0.206
934.40 0.2058
934.50 0.2055
934.60 0.2053
934.70 0.205
934.80 0.2048
934.90 0.2045
935.00 0.2043
935.10 0.204
935.20 0.2038
935.30 0.2035
935.40 0.2033
935.50 0.203
935.60 0.2028
935.70 0.2025
935.80 0.2023
935.90 0.202
936.00 0.2018
936.10 0.2015
936.20 0.2013
936.30 0.201
936.40 0.2008
936.50 0.2005
936.60 0.2003
936.70 0.2
936.80 0.1998
936.90 0.1995
937.00 0.1993
937.10 0.199
937.20 0.1987
937.30 0.1985
937.40 0.1982
937.50 0.198
937.60 0.1977
937.70 0.1975
937.80 0.1972
937.90 0.197
938.00 0.1967
938.10 0.1965
938.20 0.1962
938.30 0.196
938.40 0.1957
938.50 0.1955
938.60 0.1952
938.70 0.195
938.80 0.1947
938.90 0.1944
939.00 0.1942
939.10 0.1939
939.20 0.1937
939.30 0.1934
939.40 0.1932
939.50 0.1929
939.60 0.1927
939.70 0.1924
939.80 0.1922
939.90 0.1919
940.00 0.1916
940.10 0.1914
940.20 0.1911
940.30 0.1909
940.40 0.1906
940.50 0.1904
940.60 0.1901
940.70 0.1899
940.80 0.1896
940.90 0.1894
941.00 0.1891
941.10 0.1889
941.20 0.1886
941.30 0.1884
941.40 0.1881
941.50 0.1879
941.60 0.1876
941.70 0.1874
941.80 0.1871
941.90 0.1869
942.00 0.1866
942.10 0.1864
942.20 0.1862
942.30 0.1859
942.40 0.1857
942.50 0.1854
942.60 0.1852
942.70 0.1849
942.80 0.1847
942.90 0.1844
943.00 0.1842
943.10 0.1839
943.20 0.1837
943.30 0.1834
943.40 0.1832
943.50 0.1829
943.60 0.1827
943.70 0.1824
943.80 0.1822
943.90 0.1819
944.00 0.1817
944.10 0.1815
944.20 0.1812
944.30 0.181
944.40 0.1807
944.50 0.1805
944.60 0.1802
944.70 0.18
944.80 0.1797
944.90 0.1795
945.00 0.1792
945.10 0.179
945.20 0.1787
945.30 0.1785
945.40 0.1783
945.50 0.178
945.60 0.1778
945.70 0.1775
945.80 0.1773
945.90 0.177
946.00 0.1768
946.10 0.1765
946.20 0.1763
946.30 0.1761
946.40 0.1758
946.50 0.1756
946.60 0.1753
946.70 0.1751
946.80 0.1748
946.90 0.1746
947.00 0.1744
947.10 0.1741
947.20 0.1739
947.30 0.1736
947.40 0.1734
947.50 0.1731
947.60 0.1729
947.70 0.1727
947.80 0.1724
947.90 0.1722
948.00 0.1719
948.10 0.1717
948.20 0.1714
948.30 0.1712
948.40 0.171
948.50 0.1707
948.60 0.1705
948.70 0.1702
948.80 0.17
948.90 0.1698
949.00 0.1695
949.10 0.1693
949.20 0.169
949.30 0.1688
949.40 0.1686
949.50 0.1683
949.60 0.1681
949.70 0.1678
949.80 0.1676
949.90 0.1674
950.00 0.1671
950.10 0.1669
950.20 0.1666
950.30 0.1664
950.40 0.1662
950.50 0.1659
950.60 0.1657
950.70 0.1655
950.80 0.1652
950.90 0.165
951.00 0.1647
951.10 0.1645
951.20 0.1643
951.30 0.164
951.40 0.1638
951.50 0.1635
951.60 0.1633
951.70 0.1631
951.80 0.1628
951.90 0.1626
952.00 0.1624
952.10 0.1621
952.20 0.1619
952.30 0.1617
952.40 0.1614
952.50 0.1612
952.60 0.1609
952.70 0.1607
952.80 0.1605
952.90 0.1602
953.00 0.16
953.10 0.1598
953.20 0.1595
953.30 0.1593
953.40 0.1591
953.50 0.1588
953.60 0.1586
953.70 0.1584
953.80 0.1581
953.90 0.1579
954.00 0.1577
954.10 0.1574
954.20 0.1572
954.30 0.157
954.40 0.1567
954.50 0.1565
954.60 0.1563
954.70 0.156
954.80 0.1558
954.90 0.1556
955.00 0.1553
955.10 0.1551
955.20 0.1549
955.30 0.1546
955.40 0.1544
955.50 0.1542
955.60 0.1539
955.70 0.1537
955.80 0.1535
955.90 0.1532
956.00 0.153
956.10 0.1528
956.20 0.1525
956.30 0.1523
956.40 0.1521
956.50 0.1518
956.60 0.1516
956.70 0.1514
956.80 0.1511
956.90 0.1509
957.00 0.1507
957.10 0.1504
957.20 0.1502
957.30 0.15
957.40 0.1497
957.50 0.1495
957.60 0.1493
957.70 0.1491
957.80 0.1488
957.90 0.1486
958.00 0.1484
958.10 0.1482
958.20 0.1479
958.30 0.1477
958.40 0.1475
958.50 0.1472
958.60 0.147
958.70 0.1468
958.80 0.1466
958.90 0.1463
959.00 0.1461
959.10 0.1459
959.20 0.1457
959.30 0.1454
959.40 0.1452
959.50 0.145
959.60 0.1448
959.70 0.1445
959.80 0.1443
959.90 0.1441
960.00 0.1439
960.10 0.1436
960.20 0.1434
960.30 0.1432
960.40 0.143
960.50 0.1427
960.60 0.1425
960.70 0.1423
960.80 0.1421
960.90 0.1419
961.00 0.1416
961.10 0.1414
961.20 0.1412
961.30 0.141
961.40 0.1407
961.50 0.1405
961.60 0.1403
961.70 0.1401
961.80 0.1399
961.90 0.1396
962.00 0.1394
962.10 0.1392
962.20 0.139
962.30 0.1388
962.40 0.1385
962.50 0.1383
962.60 0.1381
962.70 0.1379
962.80 0.1377
962.90 0.1374
963.00 0.1372
963.10 0.137
963.20 0.1368
963.30 0.1366
963.40 0.1364
963.50 0.1361
963.60 0.1359
963.70 0.1357
963.80 0.1355
963.90 0.1353
964.00 0.1351
964.10 0.1348
964.20 0.1346
964.30 0.1344
964.40 0.1342
964.50 0.134
964.60 0.1337
964.70 0.1335
964.80 0.1333
964.90 0.1331
965.00 0.1329
965.10 0.1326
965.20 0.1324
965.30 0.1322
965.40 0.132
965.50 0.1318
965.60 0.1315
965.70 0.1313
965.80 0.1311
965.90 0.1309
966.00 0.1307
966.10 0.1304
966.20 0.1302
966.30 0.13
966.40 0.1298
966.50 0.1296
966.60 0.1294
966.70 0.1292
966.80 0.1289
966.90 0.1287
967.00 0.1285
967.10 0.1283
967.20 0.1281
967.30 0.1279
967.40 0.1277
967.50 0.1275
967.60 0.1273
967.70 0.1271
967.80 0.1269
967.90 0.1266
968.00 0.1264
968.10 0.1262
968.20 0.126
968.30 0.1258
968.40 0.1256
968.50 0.1254
968.60 0.1252
968.70 0.125
968.80 0.1248
968.90 0.1246
969.00 0.1244
969.10 0.1242
969.20 0.124
969.30 0.1238
969.40 0.1236
969.50 0.1234
969.60 0.1232
969.70 0.1229
969.80 0.1227
969.90 0.1225
970.00 0.1223
970.10 0.1221
970.20 0.1219
970.30 0.1217
970.40 0.1215
970.50 0.1213
970.60 0.1211
970.70 0.1209
970.80 0.1207
970.90 0.1205
971.00 0.1203
971.10 0.1201
971.20 0.1199
971.30 0.1197
971.40 0.1195
971.50 0.1193
971.60 0.1191
971.70 0.1189
971.80 0.1187
971.90 0.1185
972.00 0.1183
972.10 0.1181
972.20 0.1179
972.30 0.1177
972.40 0.1176
972.50 0.1174
972.60 0.1172
972.70 0.117
972.80 0.1168
972.90 0.1166
973.00 0.1164
973.10 0.1162
973.20 0.116
973.30 0.1158
973.40 0.1156
973.50 0.1154
973.60 0.1152
973.70 0.115
973.80 0.1148
973.90 0.1146
974.00 0.1144
974.10 0.1142
974.20 0.114
974.30 0.1139
974.40 0.1137
974.50 0.1135
974.60 0.1133
974.70 0.1131
974.80 0.1129
974.90 0.1127
975.00 0.1125
975.10 0.1123
975.20 0.1121
975.30 0.1119
975.40 0.1117
975.50 0.1116
975.60 0.1114
975.70 0.1112
975.80 0.111
975.90 0.1108
976.00 0.1106
976.10 0.1104
976.20 0.1102
976.30 0.11
976.40 0.1098
976.50 0.1096
976.60 0.1095
976.70 0.1093
976.80 0.1091
976.90 0.1089
977.00 0.1087
977.10 0.1085
977.20 0.1083
977.30 0.1082
977.40 0.108
977.50 0.1078
977.60 0.1076
977.70 0.1074
977.80 0.1073
977.90 0.1071
978.00 0.1069
978.10 0.1067
978.20 0.1065
978.30 0.1064
978.40 0.1062
978.50 0.106
978.60 0.1058
978.70 0.1056
978.80 0.1055
978.90 0.1053
979.00 0.1051
979.10 0.1049
979.20 0.1048
979.30 0.1046
979.40 0.1044
979.50 0.1042
979.60 0.104
979.70 0.1039
979.80 0.1037
979.90 0.1035
980.00 0.1033
980.10 0.1032
980.20 0.103
980.30 0.1028
980.40 0.1026
980.50 0.1024
980.60 0.1023
980.70 0.1021
980.80 0.1019
980.90 0.1017
981.00 0.1016
981.10 0.1014
981.20 0.1012
981.30 0.101
981.40 0.1008
981.50 0.1007
981.60 0.1005
981.70 0.1003
981.80 0.1001
981.90 0.09996
982.00 0.09978
982.10 0.09962
982.20 0.09945
982.30 0.09928
982.40 0.09911
982.50 0.09894
982.60 0.09877
982.70 0.0986
982.80 0.09843
982.90 0.09826
983.00 0.09809
983.10 0.09792
983.20 0.09776
983.30 0.09759
983.40 0.09742
983.50 0.09725
983.60 0.09708
983.70 0.09691
983.80 0.09674
983.90 0.09658
984.00 0.09641
984.10 0.09624
984.20 0.09607
984.30 0.0959
984.40 0.09574
984.50 0.09557
984.60 0.0954
984.70 0.09524
984.80 0.09508
984.90 0.09493
985.00 0.09477
985.10 0.09461
985.20 0.09445
985.30 0.0943
985.40 0.09414
985.50 0.09398
985.60 0.09383
985.70 0.09367
985.80 0.09351
985.90 0.09336
986.00 0.0932
986.10 0.09304
986.20 0.09289
986.30 0.09273
986.40 0.09258
986.50 0.09242
986.60 0.09226
986.70 0.09211
986.80 0.09195
986.90 0.0918
987.00 0.09164
987.10 0.09148
987.20 0.09131
987.30 0.09115
987.40 0.09099
987.50 0.09083
987.60 0.09066
987.70 0.0905
987.80 0.09034
987.90 0.09018
988.00 0.09002
988.10 0.08985
988.20 0.08969
988.30 0.08953
988.40 0.08937
988.50 0.08921
988.60 0.08904
988.70 0.08888
988.80 0.08872
988.90 0.08856
989.00 0.0884
989.10 0.08824
989.20 0.08808
989.30 0.08792
989.40 0.08775
989.50 0.08759
989.60 0.08743
989.70 0.08727
989.80 0.08711
989.90 0.08695
990.00 0.08679
990.10 0.08663
990.20 0.08647
990.30 0.08631
990.40 0.08615
990.50 0.08599
990.60 0.08583
990.70 0.08567
990.80 0.08551
990.90 0.08535
991.00 0.08519
991.10 0.08503
991.20 0.08487
991.30 0.08471
991.40 0.08455
991.50 0.08439
991.60 0.08424
991.70 0.08408
991.80 0.08392
991.90 0.08376
992.00 0.0836
992.10 0.08344
992.20 0.08328
992.30 0.08313
992.40 0.08297
992.50 0.08281
992.60 0.08265
992.70 0.08249
992.80 0.08234
992.90 0.08218
993.00 0.08202
993.10 0.08186
993.20 0.08171
993.30 0.08155
993.40 0.08139
993.50 0.08123
993.60 0.08108
993.70 0.08092
993.80 0.08076
993.90 0.0806
994.00 0.08045
994.10 0.08029
994.20 0.08013
994.30 0.07998
994.40 0.07982
994.50 0.07966
994.60 0.07951
994.70 0.07932
994.80 0.07913
994.90 0.07893
995.00 0.07874
995.10 0.07855
995.20 0.07835
995.30 0.07816
995.40 0.07797
995.50 0.07777
995.60 0.07758
995.70 0.07742
995.80 0.07727
995.90 0.07712
996.00 0.07697
996.10 0.07682
996.20 0.07667
996.30 0.07652
996.40 0.07637
996.50 0.07622
996.60 0.07607
996.70 0.07592
996.80 0.07577
996.90 0.07562
997.00 0.07547
997.10 0.07532
997.20 0.07518
997.30 0.07503
997.40 0.07488
997.50 0.07474
997.60 0.07459
997.70 0.07445
997.80 0.07431
997.90 0.07416
998.00 0.07402
998.10 0.07388
998.20 0.07374
998.30 0.0736
998.40 0.07346
998.50 0.07331
998.60 0.07317
998.70 0.07303
998.80 0.07289
998.90 0.07275
999.00 0.07261
999.10 0.07247
999.20 0.07233
999.30 0.07219
999.40 0.07205
999.50 0.0719
999.60 0.07176
999.70 0.07163
999.80 0.07149
999.90 0.07136
1000.00 0.07122
1000.10 0.07109
1000.20 0.07096
1000.30 0.07082
1000.40 0.07069
1000.50 0.07055
1000.60 0.07042
1000.70 0.07029
1000.80 0.07015
1000.90 0.07002
1001.00 0.06988
1001.10 0.06975
1001.20 0.06962
1001.30 0.06948
1001.40 0.06935
1001.50 0.06922
1001.60 0.06908
1001.70 0.06895
1001.80 0.06882
1001.90 0.06869
1002.00 0.06856
1002.10 0.06843
1002.20 0.06831
1002.30 0.06818
1002.40 0.06805
1002.50 0.06792
1002.60 0.0678
1002.70 0.06767
1002.80 0.06754
1002.90 0.06742
1003.00 0.06729
1003.10 0.06716
1003.20 0.06704
1003.30 0.06691
1003.40 0.06679
1003.50 0.06666
1003.60 0.06654
1003.70 0.06641
1003.80 0.06629
1003.90 0.06617
1004.00 0.06604
1004.10 0.06592
1004.20 0.0658
1004.30 0.06567
1004.40 0.06555
1004.50 0.06543
1004.60 0.06531
1004.70 0.06519
1004.80 0.06507
1004.90 0.06491
1005.00 0.06474
1005.10 0.06461
1005.20 0.06449
1005.30 0.06437
1005.40 0.06426
1005.50 0.06414
1005.60 0.06402
1005.70 0.0639
1005.80 0.06379
1005.90 0.06367
1006.00 0.06355
1006.10 0.06344
1006.20 0.06332
1006.30 0.06321
1006.40 0.0631
1006.50 0.06298
1006.60 0.06287
1006.70 0.06276
1006.80 0.06264
1006.90 0.06253
1007.00 0.06242
1007.10 0.06231
1007.20 0.06219
1007.30 0.06208
1007.40 0.06197
1007.50 0.06186
1007.60 0.06175
1007.70 0.06164
1007.80 0.06154
1007.90 0.06143
1008.00 0.06132
1008.10 0.06122
1008.20 0.06111
1008.30 0.06101
1008.40 0.0609
1008.50 0.06079
1008.60 0.06069
1008.70 0.06058
1008.80 0.06048
1008.90 0.06037
1009.00 0.06026
1009.10 0.06016
1009.20 0.06005
1009.30 0.05995
1009.40 0.05984
1009.50 0.05974
1009.60 0.05963
1009.70 0.05953
1009.80 0.05943
1009.90 0.05933
1010.00 0.05923
1010.10 0.05913
1010.20 0.05903
1010.30 0.05893
1010.40 0.05883
1010.50 0.05873
1010.60 0.05863
1010.70 0.05853
1010.80 0.05844
1010.90 0.05834
1011.00 0.05824
1011.10 0.05814
1011.20 0.05804
1011.30 0.05794
1011.40 0.05784
1011.50 0.05774
1011.60 0.05764
1011.70 0.05755
1011.80 0.05745
1011.90 0.05735
1012.00 0.05726
1012.10 0.05717
1012.20 0.05707
1012.30 0.05698
1012.40 0.05689
1012.50 0.0568
1012.60 0.0567
1012.70 0.05661
1012.80 0.05652
1012.90 0.05643
1013.00 0.05634
1013.10 0.05624
1013.20 0.05615
1013.30 0.05606
1013.40 0.05597
1013.50 0.05588
1013.60 0.05579
1013.70 0.0557
1013.80 0.05561
1013.90 0.05552
1014.00 0.05543
1014.10 0.05534
1014.20 0.05525
1014.30 0.05517
1014.40 0.05508
1014.50 0.05499
1014.60 0.0549
1014.70 0.05482
1014.80 0.05475
1014.90 0.05467
1015.00 0.05459
1015.10 0.05452
1015.20 0.05444
1015.30 0.05437
1015.40 0.05429
1015.50 0.05421
1015.60 0.05414
1015.70 0.05406
1015.80 0.05399
1015.90 0.05391
1016.00 0.05384
1016.10 0.05376
1016.20 0.05368
1016.30 0.05361
1016.40 0.05353
1016.50 0.05346
1016.60 0.05338
1016.70 0.0533
1016.80 0.05322
1016.90 0.05313
1017.00 0.05305
1017.10 0.05297
1017.20 0.05289
1017.30 0.05281
1017.40 0.05273
1017.50 0.05264
1017.60 0.05256
1017.70 0.05248
1017.80 0.0524
1017.90 0.05232
1018.00 0.05224
1018.10 0.05216
1018.20 0.05208
1018.30 0.052
1018.40 0.05192
1018.50 0.05184
1018.60 0.05175
1018.70 0.05168
1018.80 0.0516
1018.90 0.05152
1019.00 0.05144
1019.10 0.05136
1019.20 0.05128
1019.30 0.0512
1019.40 0.05112
1019.50 0.05105
1019.60 0.05097
1019.70 0.05089
1019.80 0.05081
1019.90 0.05073
1020.00 0.05065
1020.10 0.05057
1020.20 0.0505
1020.30 0.05042
1020.40 0.05034
1020.50 0.05026
1020.60 0.05018
1020.70 0.05011
1020.80 0.05003
1020.90 0.04995
1021.00 0.04988
1021.10 0.0498
1021.20 0.04973
1021.30 0.04965
1021.40 0.04957
1021.50 0.0495
1021.60 0.04942
1021.70 0.04935
1021.80 0.04927
1021.90 0.04919
1022.00 0.04912
1022.10 0.04904
1022.20 0.04897
1022.30 0.0489
1022.40 0.04882
1022.50 0.04875
1022.60 0.04868
1022.70 0.0486
1022.80 0.04853
1022.90 0.04846
1023.00 0.04838
1023.10 0.04831
1023.20 0.04824
1023.30 0.04816
1023.40 0.04809
1023.50 0.04802
1023.60 0.04795
1023.70 0.04787
1023.80 0.0478
1023.90 0.04773
1024.00 0.04765
1024.10 0.04758
1024.20 0.04751
1024.30 0.04743
1024.40 0.04736
1024.50 0.04729
1024.60 0.04722
1024.70 0.04714
1024.80 0.04707
1024.90 0.047
1025.00 0.04693
1025.10 0.04685
1025.20 0.04678
1025.30 0.04671
1025.40 0.04664
1025.50 0.04657
1025.60 0.04649
1025.70 0.04642
1025.80 0.04635
1025.90 0.04628
1026.00 0.04621
1026.10 0.04613
1026.20 0.04606
1026.30 0.04599
1026.40 0.04592
1026.50 0.04585
1026.60 0.04578
1026.70 0.0457
1026.80 0.04563
1026.90 0.04556
1027.00 0.04549
1027.10 0.04542
1027.20 0.04536
1027.30 0.04529
1027.40 0.04523
1027.50 0.04517
1027.60 0.0451
1027.70 0.04504
1027.80 0.04497
1027.90 0.04491
1028.00 0.04484
1028.10 0.04478
1028.20 0.04471
1028.30 0.04465
1028.40 0.04458
1028.50 0.04452
1028.60 0.04446
1028.70 0.04439
1028.80 0.04433
1028.90 0.04426
1029.00 0.0442
1029.10 0.04413
1029.20 0.04407
1029.30 0.04401
1029.40 0.04394
1029.50 0.04388
1029.60 0.04381
1029.70 0.04375
1029.80 0.04368
1029.90 0.04362
1030.00 0.04356
1030.10 0.04349
1030.20 0.04343
1030.30 0.04336
1030.40 0.0433
1030.50 0.04324
1030.60 0.04317
1030.70 0.04311
1030.80 0.04305
1030.90 0.04298
1031.00 0.04292
1031.10 0.04285
1031.20 0.04279
1031.30 0.04273
1031.40 0.04266
1031.50 0.0426
1031.60 0.04254
1031.70 0.04247
1031.80 0.04241
1031.90 0.04234
1032.00 0.04228
1032.10 0.04222
1032.20 0.04216
1032.30 0.04211
1032.40 0.04205
1032.50 0.04199
1032.60 0.04193
1032.70 0.04187
1032.80 0.04181
1032.90 0.04176
1033.00 0.0417
1033.10 0.04164
1033.20 0.04158
1033.30 0.04152
1033.40 0.04147
1033.50 0.04141
1033.60 0.04135
1033.70 0.04129
1033.80 0.04123
1033.90 0.04118
1034.00 0.04112
1034.10 0.04106
1034.20 0.041
1034.30 0.04095
1034.40 0.04089
1034.50 0.04083
1034.60 0.04077
1034.70 0.04071
1034.80 0.04066
1034.90 0.0406
1035.00 0.04054
1035.10 0.04048
1035.20 0.04043
1035.30 0.04037
1035.40 0.04031
1035.50 0.04025
1035.60 0.0402
1035.70 0.04014
1035.80 0.04008
1035.90 0.04002
1036.00 0.03997
1036.10 0.03991
1036.20 0.03985
1036.30 0.03979
1036.40 0.03974
1036.50 0.03968
1036.60 0.03962
1036.70 0.03956
1036.80 0.03951
1036.90 0.03945
1037.00 0.03939
1037.10 0.03934
1037.20 0.03929
1037.30 0.03924
1037.40 0.03919
1037.50 0.03914
1037.60 0.03909
1037.70 0.03904
1037.80 0.03899
1037.90 0.03894
1038.00 0.03889
1038.10 0.03884
1038.20 0.03879
1038.30 0.03874
1038.40 0.03869
1038.50 0.03864
1038.60 0.03859
1038.70 0.03854
1038.80 0.03849
1038.90 0.03844
1039.00 0.03839
1039.10 0.03834
1039.20 0.03829
1039.30 0.03824
1039.40 0.03819
1039.50 0.03814
1039.60 0.03809
1039.70 0.03804
1039.80 0.03799
1039.90 0.03794
1040.00 0.03789
1040.10 0.03784
1040.20 0.03779
1040.30 0.03774
1040.40 0.03769
1040.50 0.03764
1040.60 0.03759
1040.70 0.03754
1040.80 0.03749
1040.90 0.03744
1041.00 0.03739
1041.10 0.03734
1041.20 0.03729
1041.30 0.03724
1041.40 0.03719
1041.50 0.03715
1041.60 0.0371
1041.70 0.03705
1041.80 0.037
1041.90 0.03695
1042.00 0.0369
1042.10 0.03685
1042.20 0.03681
1042.30 0.03677
1042.40 0.03672
1042.50 0.03668
1042.60 0.03664
1042.70 0.03659
1042.80 0.03655
1042.90 0.03651
1043.00 0.03646
1043.10 0.03642
1043.20 0.03638
1043.30 0.03633
1043.40 0.03629
1043.50 0.03625
1043.60 0.0362
1043.70 0.03616
1043.80 0.03612
1043.90 0.03607
1044.00 0.03603
1044.10 0.03599
1044.20 0.03594
1044.30 0.0359
1044.40 0.03586
1044.50 0.03581
1044.60 0.03577
1044.70 0.03573
1044.80 0.03568
1044.90 0.03564
1045.00 0.0356
1045.10 0.03555
1045.20 0.03551
1045.30 0.03547
1045.40 0.03542
1045.50 0.03538
1045.60 0.03534
1045.70 0.0353
1045.80 0.03525
1045.90 0.03521
1046.00 0.03517
1046.10 0.03512
1046.20 0.03508
1046.30 0.03504
1046.40 0.03499
1046.50 0.03495
1046.60 0.03491
1046.70 0.03487
1046.80 0.03482
1046.90 0.03478
1047.00 0.03474
1047.10 0.0347
1047.20 0.03466
1047.30 0.03463
1047.40 0.03459
1047.50 0.03455
1047.60 0.03451
1047.70 0.03448
1047.80 0.03444
1047.90 0.0344
1048.00 0.03437
1048.10 0.03433
1048.20 0.03429
1048.30 0.03425
1048.40 0.03422
1048.50 0.03418
1048.60 0.03414
1048.70 0.03411
1048.80 0.03407
1048.90 0.03403
1049.00 0.03399
1049.10 0.03396
1049.20 0.03392
1049.30 0.03388
1049.40 0.03385
1049.50 0.03381
1049.60 0.03377
1049.70 0.03374
1049.80 0.0337
1049.90 0.03366
1050.00 0.03363
1050.10 0.03359
1050.20 0.03355
1050.30 0.03351
1050.40 0.03348
1050.50 0.03344
1050.60 0.0334
1050.70 0.03337
1050.80 0.03333
1050.90 0.03329
1051.00 0.03326
1051.10 0.03322
1051.20 0.03318
1051.30 0.03315
1051.40 0.03311
1051.50 0.03307
1051.60 0.03304
1051.70 0.033
1051.80 0.03296
1051.90 0.03293
1052.00 0.03289
1052.10 0.03286
1052.20 0.03282
1052.30 0.03279
1052.40 0.03276
1052.50 0.03272
1052.60 0.03269
1052.70 0.03266
1052.80 0.03262
1052.90 0.03259
1053.00 0.03256
1053.10 0.03252
1053.20 0.03249
1053.30 0.03246
1053.40 0.03242
1053.50 0.03239
1053.60 0.03236
1053.70 0.03232
1053.80 0.03229
1053.90 0.03226
1054.00 0.03222
1054.10 0.03219
1054.20 0.03216
1054.30 0.03212
1054.40 0.03209
1054.50 0.03206
1054.60 0.03202
1054.70 0.03199
1054.80 0.03196
1054.90 0.03192
1055.00 0.03189
1055.10 0.03186
1055.20 0.03182
1055.30 0.03179
1055.40 0.03176
1055.50 0.03172
1055.60 0.03169
1055.70 0.03166
1055.80 0.03162
1055.90 0.03159
1056.00 0.03156
1056.10 0.03153
1056.20 0.03149
1056.30 0.03146
1056.40 0.03143
1056.50 0.03139
1056.60 0.03136
1056.70 0.03133
1056.80 0.03129
1056.90 0.03126
1057.00 0.03123
1057.10 0.0312
1057.20 0.03117
1057.30 0.03114
1057.40 0.03111
1057.50 0.03108
1057.60 0.03105
1057.70 0.03102
1057.80 0.03099
1057.90 0.03096
1058.00 0.03093
1058.10 0.0309
1058.20 0.03087
1058.30 0.03084
1058.40 0.03081
1058.50 0.03079
1058.60 0.03076
1058.70 0.03073
1058.80 0.0307
1058.90 0.03067
1059.00 0.03064
1059.10 0.03061
1059.20 0.03058
1059.30 0.03055
1059.40 0.03052
1059.50 0.03049
1059.60 0.03046
1059.70 0.03043
1059.80 0.0304
1059.90 0.03037
1060.00 0.03034
1060.10 0.03032
1060.20 0.03029
1060.30 0.03026
1060.40 0.03023
1060.50 0.0302
1060.60 0.03017
1060.70 0.03014
1060.80 0.03011
1060.90 0.03008
1061.00 0.03005
1061.10 0.03002
1061.20 0.02999
1061.30 0.02996
1061.40 0.02994
1061.50 0.02991
1061.60 0.02988
1061.70 0.02985
1061.80 0.02982
1061.90 0.02979
1062.00 0.02976
1062.10 0.02973
1062.20 0.02971
1062.30 0.02968
1062.40 0.02966
1062.50 0.02963
1062.60 0.02961
1062.70 0.02958
1062.80 0.02956
1062.90 0.02953
1063.00 0.0295
1063.10 0.02948
1063.20 0.02945
1063.30 0.02943
1063.40 0.0294
1063.50 0.02938
1063.60 0.02935
1063.70 0.02933
1063.80 0.0293
1063.90 0.02927
1064.00 0.02925
1064.10 0.02922
1064.20 0.0292
1064.30 0.02917
1064.40 0.02915
1064.50 0.02912
1064.60 0.0291
1064.70 0.02907
1064.80 0.02905
1064.90 0.02902
1065.00 0.029
1065.10 0.02897
1065.20 0.02894
1065.30 0.02892
1065.40 0.02889
1065.50 0.02887
1065.60 0.02884
1065.70 0.02882
1065.80 0.02879
1065.90 0.02877
1066.00 0.02874
1066.10 0.02872
1066.20 0.02869
1066.30 0.02867
1066.40 0.02864
1066.50 0.02862
1066.60 0.02859
1066.70 0.02857
1066.80 0.02854
1066.90 0.02851
1067.00 0.02849
1067.10 0.02847
1067.20 0.02844
1067.30 0.02842
1067.40 0.0284
1067.50 0.02837
1067.60 0.02835
1067.70 0.02833
1067.80 0.0283
1067.90 0.02828
1068.00 0.02826
1068.10 0.02823
1068.20 0.02821
1068.30 0.02819
1068.40 0.02816
1068.50 0.02814
1068.60 0.02812
1068.70 0.02809
1068.80 0.02807
1068.90 0.02805
1069.00 0.02803
1069.10 0.028
1069.20 0.02798
1069.30 0.02796
1069.40 0.02793
1069.50 0.02791
1069.60 0.02789
1069.70 0.02786
1069.80 0.02784
1069.90 0.02782
1070.00 0.02779
1070.10 0.02777
1070.20 0.02775
1070.30 0.02773
1070.40 0.0277
1070.50 0.02768
1070.60 0.02766
1070.70 0.02763
1070.80 0.02761
1070.90 0.02759
1071.00 0.02756
1071.10 0.02754
1071.20 0.02752
1071.30 0.0275
1071.40 0.02747
1071.50 0.02745
1071.60 0.02743
1071.70 0.0274
1071.80 0.02738
1071.90 0.02736
1072.00 0.02734
1072.10 0.02732
1072.20 0.0273
1072.30 0.02728
1072.40 0.02726
1072.50 0.02724
1072.60 0.02722
1072.70 0.02721
1072.80 0.02719
1072.90 0.02717
1073.00 0.02715
1073.10 0.02713
1073.20 0.02711
1073.30 0.0271
1073.40 0.02708
1073.50 0.02706
1073.60 0.02704
1073.70 0.02703
1073.80 0.02701
1073.90 0.02699
1074.00 0.02698
1074.10 0.02696
1074.20 0.02695
1074.30 0.02693
1074.40 0.02691
1074.50 0.0269
1074.60 0.02688
1074.70 0.02687
1074.80 0.02685
1074.90 0.02683
1075.00 0.02682
1075.10 0.0268
1075.20 0.02679
1075.30 0.02677
1075.40 0.02676
1075.50 0.02674
1075.60 0.02672
1075.70 0.02671
1075.80 0.02669
1075.90 0.02668
1076.00 0.02666
1076.10 0.02664
1076.20 0.02663
1076.30 0.02661
1076.40 0.0266
1076.50 0.02658
1076.60 0.02656
1076.70 0.02655
1076.80 0.02653
1076.90 0.02652
1077.00 0.0265
1077.10 0.02649
1077.20 0.02647
1077.30 0.02646
1077.40 0.02645
1077.50 0.02643
1077.60 0.02642
1077.70 0.02641
1077.80 0.02639
1077.90 0.02638
1078.00 0.02637
1078.10 0.02635
1078.20 0.02634
1078.30 0.02633
1078.40 0.02632
1078.50 0.0263
1078.60 0.02629
1078.70 0.02628
1078.80 0.02627
1078.90 0.02625
1079.00 0.02624
1079.10 0.02623
1079.20 0.02621
1079.30 0.0262
1079.40 0.02619
1079.50 0.02618
1079.60 0.02617
1079.70 0.02616
1079.80 0.02615
1079.90 0.02614
1080.00 0.02613
1080.10 0.02612
1080.20 0.02611
1080.30 0.0261
1080.40 0.02609
1080.50 0.02608
1080.60 0.02607
1080.70 0.02606
1080.80 0.02605
1080.90 0.02604
1081.00 0.02603
1081.10 0.02602
1081.20 0.02601
1081.30 0.026
1081.40 0.026
1081.50 0.02599
1081.60 0.02598
1081.70 0.02597
1081.80 0.02596
1081.90 0.02595
1082.00 0.02594
1082.10 0.02593
1082.20 0.02592
1082.30 0.02591
1082.40 0.0259
1082.50 0.02589
1082.60 0.02588
1082.70 0.02587
1082.80 0.02586
1082.90 0.02586
1083.00 0.02585
1083.10 0.02584
1083.20 0.02583
1083.30 0.02582
1083.40 0.02581
1083.50 0.0258
1083.60 0.02579
1083.70 0.02579
1083.80 0.02578
1083.90 0.02577
1084.00 0.02576
1084.10 0.02575
1084.20 0.02575
1084.30 0.02574
1084.40 0.02573
1084.50 0.02572
1084.60 0.02572
1084.70 0.02571
1084.80 0.0257
1084.90 0.0257
1085.00 0.02569
1085.10 0.02568
1085.20 0.02568
1085.30 0.02567
1085.40 0.02566
1085.50 0.02565
1085.60 0.02565
1085.70 0.02564
1085.80 0.02563
1085.90 0.02563
1086.00 0.02562
1086.10 0.02561
1086.20 0.02561
1086.30 0.0256
1086.40 0.02559
1086.50 0.02559
1086.60 0.02558
1086.70 0.02557
1086.80 0.02557
1086.90 0.02556
1087.00 0.02556
1087.10 0.02555
1087.20 0.02555
1087.30 0.02554
1087.40 0.02554
1087.50 0.02553
1087.60 0.02553
1087.70 0.02552
1087.80 0.02552
1087.90 0.02551
1088.00 0.02551
1088.10 0.0255
1088.20 0.0255
1088.30 0.02549
1088.40 0.02549
1088.50 0.02548
1088.60 0.02548
1088.70 0.02547
1088.80 0.02547
1088.90 0.02547
1089.00 0.02546
1089.10 0.02546
1089.20 0.02545
1089.30 0.02545
1089.40 0.02545
1089.50 0.02544
1089.60 0.02544
1089.70 0.02543
1089.80 0.02543
1089.90 0.02543
1090.00 0.02542
1090.10 0.02542
1090.20 0.02542
1090.30 0.02541
1090.40 0.02541
1090.50 0.0254
1090.60 0.0254
1090.70 0.0254
1090.80 0.0254
1090.90 0.02539
1091.00 0.02539
1091.10 0.02539
1091.20 0.02539
1091.30 0.02538
1091.40 0.02538
1091.50 0.02538
1091.60 0.02538
1091.70 0.02537
1091.80 0.02537
1091.90 0.02537
1092.00 0.02537
1092.10 0.02537
1092.20 0.02536
1092.30 0.02536
1092.40 0.02536
1092.50 0.02536
1092.60 0.02536
1092.70 0.02536
1092.80 0.02538
1092.90 0.02539
1093.00 0.02541
1093.10 0.02542
1093.20 0.02542
1093.30 0.02542
1093.40 0.02542
1093.50 0.02542
1093.60 0.02542
1093.70 0.02542
1093.80 0.02541
1093.90 0.02541
1094.00 0.02541
1094.10 0.02541
1094.20 0.02541
1094.30 0.02541
1094.40 0.02541
1094.50 0.02541
1094.60 0.02541
1094.70 0.02541
1094.80 0.02541
1094.90 0.02541
1095.00 0.02541
1095.10 0.0254
1095.20 0.0254
1095.30 0.0254
1095.40 0.0254
1095.50 0.0254
1095.60 0.0254
1095.70 0.0254
1095.80 0.0254
1095.90 0.0254
1096.00 0.0254
1096.10 0.0254
1096.20 0.0254
1096.30 0.0254
1096.40 0.0254
1096.50 0.0254
1096.60 0.0254
1096.70 0.0254
1096.80 0.0254
1096.90 0.0254
1097.00 0.0254
1097.10 0.0254
1097.20 0.0254
1097.30 0.0254
1097.40 0.0254
1097.50 0.0254
1097.60 0.0254
1097.70 0.0254
1097.80 0.0254
1097.90 0.0254
1098.00 0.0254
1098.10 0.0254
1098.20 0.0254
1098.30 0.0254
1098.40 0.0254
1098.50 0.0254
1098.60 0.0254
1098.70 0.0254
1098.80 0.02541
1098.90 0.02541
1099.00 0.02541
1099.10 0.02541
1099.20 0.02541
1099.30 0.02541
1099.40 0.02541
1099.50 0.02541
1099.60 0.02541
1099.70 0.02541
1099.80 0.02541
1099.90 0.02541
1100.00 0.02542
1100.10 0.02542
1100.20 0.02542
1100.30 0.02542
1100.40 0.02542
1100.50 0.02542
1100.60 0.02542
1100.70 0.02542
1100.80 0.02542
1100.90 0.02543
1101.00 0.02543
1101.10 0.02543
1101.20 0.02543
1101.30 0.02543
1101.40 0.02543
1101.50 0.02543
1101.60 0.02543
1101.70 0.02544
1101.80 0.02544
1101.90 0.02544
1102.00 0.02544
1102.10 0.02544
1102.20 0.02544
1102.30 0.02545
1102.40 0.02545
1102.50 0.02545
1102.60 0.02545
1102.70 0.02545
1102.80 0.02545
1102.90 0.02546
1103.00 0.02546
1103.10 0.02546
1103.20 0.02546
1103.30 0.02546
1103.40 0.02547
1103.50 0.02547
1103.60 0.02547
1103.70 0.02547
1103.80 0.02547
1103.90 0.02547
1104.00 0.02548
1104.10 0.02548
1104.20 0.02548
1104.30 0.02548
1104.40 0.02548
1104.50 0.02549
1104.60 0.02549
1104.70 0.02549
1104.80 0.02549
1104.90 0.02549
1105.00 0.0255
1105.10 0.0255
1105.20 0.0255
1105.30 0.0255
1105.40 0.0255
1105.50 0.02551
1105.60 0.02551
1105.70 0.02551
1105.80 0.02551
1105.90 0.02552
1106.00 0.02552
1106.10 0.02552
1106.20 0.02553
1106.30 0.02553
1106.40 0.02553
1106.50 0.02553
1106.60 0.02554
1106.70 0.02554
1106.80 0.02554
1106.90 0.02555
1107.00 0.02555
1107.10 0.02555
1107.20 0.02556
1107.30 0.02556
1107.40 0.02556
1107.50 0.02557
1107.60 0.02557
1107.70 0.02557
1107.80 0.02558
1107.90 0.02558
1108.00 0.02559
1108.10 0.02559
1108.20 0.02559
1108.30 0.0256
1108.40 0.0256
1108.50 0.0256
1108.60 0.02561
1108.70 0.02561
1108.80 0.02562
1108.90 0.02562
1109.00 0.02562
1109.10 0.02563
1109.20 0.02563
1109.30 0.02564
1109.40 0.02564
1109.50 0.02564
1109.60 0.02565
1109.70 0.02565
1109.80 0.02566
1109.90 0.02566
1110.00 0.02567
1110.10 0.02567
1110.20 0.02568
1110.30 0.02568
1110.40 0.02568
1110.50 0.02569
1110.60 0.02569
1110.70 0.0257
1110.80 0.0257
1110.90 0.02571
1111.00 0.02571
1111.10 0.02572
1111.20 0.02572
1111.30 0.02573
1111.40 0.02573
1111.50 0.02574
1111.60 0.02574
1111.70 0.02574
1111.80 0.02575
1111.90 0.02575
1112.00 0.02576
1112.10 0.02576
1112.20 0.02577
1112.30 0.02577
1112.40 0.02578
1112.50 0.02579
1112.60 0.02579
1112.70 0.0258
1112.80 0.0258
1112.90 0.02581
1113.00 0.02581
1113.10 0.02582
1113.20 0.02582
1113.30 0.02583
1113.40 0.02583
1113.50 0.02584
1113.60 0.02585
1113.70 0.02585
1113.80 0.02586
1113.90 0.02586
1114.00 0.02587
1114.10 0.02588
1114.20 0.02588
1114.30 0.02589
1114.40 0.0259
1114.50 0.0259
1114.60 0.02591
1114.70 0.02592
1114.80 0.02592
1114.90 0.02593
1115.00 0.02593
1115.10 0.02594
1115.20 0.02595
1115.30 0.02595
1115.40 0.02596
1115.50 0.02597
1115.60 0.02597
1115.70 0.02598
1115.80 0.02598
1115.90 0.02599
1116.00 0.026
1116.10 0.026
1116.20 0.02601
1116.30 0.02602
1116.40 0.02602
1116.50 0.02603
1116.60 0.02603
1116.70 0.02604
1116.80 0.02605
1116.90 0.02605
1117.00 0.02606
1117.10 0.02607
1117.20 0.02607
1117.30 0.02608
1117.40 0.02609
1117.50 0.0261
1117.60 0.0261
1117.70 0.02611
1117.80 0.02612
1117.90 0.02613
1118.00 0.02613
1118.10 0.02614
1118.20 0.02615
1118.30 0.02616
1118.40 0.02616
1118.50 0.02617
1118.60 0.02618
1118.70 0.02619
1118.80 0.02619
1118.90 0.0262
1119.00 0.02621
1119.10 0.02622
1119.20 0.02622
1119.30 0.02623
1119.40 0.02624
1119.50 0.02625
1119.60 0.02625
1119.70 0.02626
1119.80 0.02627
1119.90 0.02628
1120.00 0.02628
1120.10 0.02629
1120.20 0.0263
1120.30 0.0263
1120.40 0.02631
1120.50 0.02632
1120.60 0.02633
1120.70 0.02633
1120.80 0.02634
1120.90 0.02635
1121.00 0.02636
1121.10 0.02636
1121.20 0.02637
1121.30 0.02638
1121.40 0.02639
1121.50 0.02639
1121.60 0.0264
1121.70 0.02641
1121.80 0.02642
1121.90 0.02642
1122.00 0.02643
1122.10 0.02644
1122.20 0.02645
1122.30 0.02647
1122.40 0.02648
1122.50 0.02649
1122.60 0.0265
1122.70 0.02651
1122.80 0.02652
1122.90 0.02653
1123.00 0.02655
1123.10 0.02656
1123.20 0.02657
1123.30 0.02658
1123.40 0.02659
1123.50 0.0266
1123.60 0.02662
1123.70 0.02663
1123.80 0.02664
1123.90 0.02665
1124.00 0.02666
1124.10 0.02667
1124.20 0.02669
1124.30 0.0267
1124.40 0.02671
1124.50 0.02672
1124.60 0.02673
1124.70 0.02674
1124.80 0.02675
1124.90 0.02677
1125.00 0.02678
1125.10 0.02679
1125.20 0.0268
1125.30 0.02681
1125.40 0.02682
1125.50 0.02684
1125.60 0.02685
1125.70 0.02686
1125.80 0.02687
1125.90 0.02688
1126.00 0.02689
1126.10 0.0269
1126.20 0.02692
1126.30 0.02693
1126.40 0.02694
1126.50 0.02695
1126.60 0.02696
1126.70 0.02697
1126.80 0.02698
1126.90 0.027
1127.00 0.02701
1127.10 0.02702
1127.20 0.02704
1127.30 0.02706
1127.40 0.02707
1127.50 0.02709
1127.60 0.0271
1127.70 0.02712
1127.80 0.02714
1127.90 0.02715
1128.00 0.02717
1128.10 0.02718
1128.20 0.0272
1128.30 0.02722
1128.40 0.02723
1128.50 0.02725
1128.60 0.02726
1128.70 0.02728
1128.80 0.0273
1128.90 0.02731
1129.00 0.02733
1129.10 0.02734
1129.20 0.02736
1129.30 0.02738
1129.40 0.02739
1129.50 0.02741
1129.60 0.02742
1129.70 0.02744
1129.80 0.02746
1129.90 0.02747
1130.00 0.02749
1130.10 0.0275
1130.20 0.02752
1130.30 0.02754
1130.40 0.02755
1130.50 0.02757
1130.60 0.02758
1130.70 0.0276
1130.80 0.02762
1130.90 0.02763
1131.00 0.02765
1131.10 0.02766
1131.20 0.02768
1131.30 0.02769
1131.40 0.02771
1131.50 0.02773
1131.60 0.02774
1131.70 0.02776
1131.80 0.02777
1131.90 0.02779
1132.00 0.02781
1132.10 0.02782
1132.20 0.02784
1132.30 0.02786
1132.40 0.02787
1132.50 0.02789
1132.60 0.02791
1132.70 0.02792
1132.80 0.02794
1132.90 0.02796
1133.00 0.02797
1133.10 0.02799
1133.20 0.02801
1133.30 0.02802
1133.40 0.02804
1133.50 0.02806
1133.60 0.02807
1133.70 0.02809
1133.80 0.02811
1133.90 0.02812
1134.00 0.02814
1134.10 0.02816
1134.20 0.02817
1134.30 0.02819
1134.40 0.02821
1134.50 0.02822
1134.60 0.02824
1134.70 0.02826
1134.80 0.02827
1134.90 0.02829
1135.00 0.02831
1135.10 0.02832
1135.20 0.02834
1135.30 0.02836
1135.40 0.02837
1135.50 0.02839
1135.60 0.02841
1135.70 0.02842
1135.80 0.02844
1135.90 0.02845
1136.00 0.02847
1136.10 0.02849
1136.20 0.0285
1136.30 0.02852
1136.40 0.02854
1136.50 0.02855
1136.60 0.02857
1136.70 0.02859
1136.80 0.0286
1136.90 0.02862
1137.00 0.02864
1137.10 0.02865
1137.20 0.02867
1137.30 0.02869
1137.40 0.02871
1137.50 0.02873
1137.60 0.02875
1137.70 0.02877
1137.80 0.02878
1137.90 0.0288
1138.00 0.02882
1138.10 0.02884
1138.20 0.02886
1138.30 0.02888
1138.40 0.02889
1138.50 0.02891
1138.60 0.02893
1138.70 0.02895
1138.80 0.02897
1138.90 0.02899
1139.00 0.029
1139.10 0.02902
1139.20 0.02904
1139.30 0.02906
1139.40 0.02908
1139.50 0.0291
1139.60 0.02911
1139.70 0.02913
1139.80 0.02915
1139.90 0.02917
1140.00 0.02919
1140.10 0.02921
1140.20 0.02922
1140.30 0.02924
1140.40 0.02926
1140.50 0.02928
1140.60 0.0293
1140.70 0.02932
1140.80 0.02933
1140.90 0.02935
1141.00 0.02937
1141.10 0.02939
1141.20 0.02941
1141.30 0.02942
1141.40 0.02944
1141.50 0.02946
1141.60 0.02948
1141.70 0.0295
1141.80 0.02952
1141.90 0.02953
1142.00 0.02955
1142.10 0.02957
1142.20 0.02959
1142.30 0.02962
1142.40 0.02964
1142.50 0.02966
1142.60 0.02968
1142.70 0.0297
1142.80 0.02972
1142.90 0.02974
1143.00 0.02977
1143.10 0.02979
1143.20 0.02981
1143.30 0.02983
1143.40 0.02985
1143.50 0.02987
1143.60 0.02989
1143.70 0.02992
1143.80 0.02994
1143.90 0.02996
1144.00 0.02998
1144.10 0.03
1144.20 0.03002
1144.30 0.03004
1144.40 0.03006
1144.50 0.03009
1144.60 0.03011
1144.70 0.03013
1144.80 0.03015
1144.90 0.03017
1145.00 0.03019
1145.10 0.03021
1145.20 0.03023
1145.30 0.03026
1145.40 0.03028
1145.50 0.0303
1145.60 0.03032
1145.70 0.03034
1145.80 0.03036
1145.90 0.03038
1146.00 0.0304
1146.10 0.03042
1146.20 0.03045
1146.30 0.03047
1146.40 0.03049
1146.50 0.03051
1146.60 0.03053
1146.70 0.03055
1146.80 0.03057
1146.90 0.03059
1147.00 0.03061
1147.10 0.03063
1147.20 0.03065
1147.30 0.03067
1147.40 0.03069
1147.50 0.03071
1147.60 0.03073
1147.70 0.03075
1147.80 0.03077
1147.90 0.03078
1148.00 0.0308
1148.10 0.03082
1148.20 0.03084
1148.30 0.03086
1148.40 0.03088
1148.50 0.0309
1148.60 0.03092
1148.70 0.03094
1148.80 0.03095
1148.90 0.03097
1149.00 0.03099
1149.10 0.03101
1149.20 0.03103
1149.30 0.03105
1149.40 0.03107
1149.50 0.03109
1149.60 0.03111
1149.70 0.03112
1149.80 0.03114
1149.90 0.03116
1150.00 0.03118
1150.10 0.0312
1150.20 0.03122
1150.30 0.03124
1150.40 0.03126
1150.50 0.03127
1150.60 0.03129
1150.70 0.03131
1150.80 0.03133
1150.90 0.03135
1151.00 0.03137
1151.10 0.03139
1151.20 0.03141
1151.30 0.03142
1151.40 0.03144
1151.50 0.03146
1151.60 0.03148
1151.70 0.0315
1151.80 0.03152
1151.90 0.03154
1152.00 0.03155
1152.10 0.03157
1152.20 0.03159
1152.30 0.03161
1152.40 0.03163
1152.50 0.03165
1152.60 0.03167
1152.70 0.03169
1152.80 0.03171
1152.90 0.03173
1153.00 0.03175
1153.10 0.03177
1153.20 0.03179
1153.30 0.03181
1153.40 0.03183
1153.50 0.03185
1153.60 0.03187
1153.70 0.03189
1153.80 0.03191
1153.90 0.03193
1154.00 0.03195
1154.10 0.03197
1154.20 0.03199
1154.30 0.03201
1154.40 0.03203
1154.50 0.03205
1154.60 0.03207
1154.70 0.03209
1154.80 0.03211
1154.90 0.03213
1155.00 0.03215
1155.10 0.03217
1155.20 0.03219
1155.30 0.03221
1155.40 0.03223
1155.50 0.03225
1155.60 0.03227
1155.70 0.03229
1155.80 0.03231
1155.90 0.03233
1156.00 0.03235
1156.10 0.03237
1156.20 0.03238
1156.30 0.0324
1156.40 0.03242
1156.50 0.03244
1156.60 0.03246
1156.70 0.03248
1156.80 0.0325
1156.90 0.03252
1157.00 0.03254
1157.10 0.03256
1157.20 0.03257
1157.30 0.03259
1157.40 0.03261
1157.50 0.03262
1157.60 0.03264
1157.70 0.03266
1157.80 0.03267
1157.90 0.03269
1158.00 0.03271
1158.10 0.03272
1158.20 0.03274
1158.30 0.03276
1158.40 0.03277
1158.50 0.03279
1158.60 0.03281
1158.70 0.03282
1158.80 0.03284
1158.90 0.03286
1159.00 0.03287
1159.10 0.03289
1159.20 0.03291
1159.30 0.03292
1159.40 0.03294
1159.50 0.03295
1159.60 0.03297
1159.70 0.03299
1159.80 0.033
1159.90 0.03302
1160.00 0.03304
1160.10 0.03305
1160.20 0.03307
1160.30 0.03309
1160.40 0.0331
1160.50 0.03312
1160.60 0.03314
1160.70 0.03315
1160.80 0.03317
1160.90 0.03318
1161.00 0.0332
1161.10 0.03322
1161.20 0.03323
1161.30 0.03325
1161.40 0.03327
1161.50 0.03328
1161.60 0.0333
1161.70 0.03331
1161.80 0.03333
1161.90 0.03335
1162.00 0.03336
1162.10 0.03338
1162.20 0.03339
1162.30 0.03341
1162.40 0.03342
1162.50 0.03343
1162.60 0.03345
1162.70 0.03346
1162.80 0.03348
1162.90 0.03349
1163.00 0.03351
1163.10 0.03352
1163.20 0.03353
1163.30 0.03355
1163.40 0.03356
1163.50 0.03358
1163.60 0.03359
1163.70 0.0336
1163.80 0.03362
1163.90 0.03363
1164.00 0.03365
1164.10 0.03366
1164.20 0.03368
1164.30 0.03369
1164.40 0.0337
1164.50 0.03372
1164.60 0.03373
1164.70 0.03375
1164.80 0.03376
1164.90 0.03377
1165.00 0.03379
1165.10 0.0338
1165.20 0.03382
1165.30 0.03383
1165.40 0.03384
1165.50 0.03386
1165.60 0.03387
1165.70 0.03389
1165.80 0.0339
1165.90 0.03391
1166.00 0.03393
1166.10 0.03394
1166.20 0.03396
1166.30 0.03397
1166.40 0.03398
1166.50 0.034
1166.60 0.03401
1166.70 0.03403
1166.80 0.03404
1166.90 0.03405
1167.00 0.03407
1167.10 0.03408
1167.20 0.0341
1167.30 0.03411
1167.40 0.03412
1167.50 0.03414
1167.60 0.03415
1167.70 0.03417
1167.80 0.03418
1167.90 0.03419
1168.00 0.03421
1168.10 0.03422
1168.20 0.03423
1168.30 0.03425
1168.40 0.03426
1168.50 0.03428
1168.60 0.03429
1168.70 0.0343
1168.80 0.03432
1168.90 0.03433
1169.00 0.03435
1169.10 0.03436
1169.20 0.03437
1169.30 0.03439
1169.40 0.0344
1169.50 0.03441
1169.60 0.03443
1169.70 0.03444
1169.80 0.03446
1169.90 0.03447
1170.00 0.03448
1170.10 0.0345
1170.20 0.03451
1170.30 0.03452
1170.40 0.03454
1170.50 0.03455
1170.60 0.03457
1170.70 0.03458
1170.80 0.03459
1170.90 0.03461
1171.00 0.03462
1171.10 0.03463
1171.20 0.03465
1171.30 0.03466
1171.40 0.03467
1171.50 0.03469
1171.60 0.0347
1171.70 0.03472
1171.80 0.03473
1171.90 0.03474
1172.00 0.03476
1172.10 0.03476
1172.20 0.03477
1172.30 0.03478
1172.40 0.03478
1172.50 0.03479
1172.60 0.0348
1172.70 0.0348
1172.80 0.03481
1172.90 0.03482
1173.00 0.03482
1173.10 0.03483
1173.20 0.03484
1173.30 0.03484
1173.40 0.03485
1173.50 0.03486
1173.60 0.03487
1173.70 0.03487
1173.80 0.03488
1173.90 0.03489
1174.00 0.03489
1174.10 0.0349
1174.20 0.03491
1174.30 0.03491
1174.40 0.03492
1174.50 0.03493
1174.60 0.03493
1174.70 0.03494
1174.80 0.03495
1174.90 0.03495
1175.00 0.03496
1175.10 0.03497
1175.20 0.03497
1175.30 0.03498
1175.40 0.03499
1175.50 0.03499
1175.60 0.035
1175.70 0.03501
1175.80 0.03501
1175.90 0.03502
1176.00 0.03503
1176.10 0.03503
1176.20 0.03504
1176.30 0.03505
1176.40 0.03505
1176.50 0.03506
1176.60 0.03507
1176.70 0.03507
1176.80 0.03508
1176.90 0.03509
1177.00 0.03509
1177.10 0.03509
1177.20 0.0351
1177.30 0.0351
1177.40 0.0351
1177.50 0.0351
1177.60 0.0351
1177.70 0.03511
1177.80 0.03511
1177.90 0.03511
1178.00 0.03511
1178.10 0.03511
1178.20 0.03511
1178.30 0.03512
1178.40 0.03512
1178.50 0.03512
1178.60 0.03512
1178.70 0.03512
1178.80 0.03512
1178.90 0.03513
1179.00 0.03513
1179.10 0.03513
1179.20 0.03513
1179.30 0.03513
1179.40 0.03514
1179.50 0.03514
1179.60 0.03514
1179.70 0.03514
1179.80 0.03514
1179.90 0.03514
1180.00 0.03515
1180.10 0.03515
1180.20 0.03515
1180.30 0.03515
1180.40 0.03515
1180.50 0.03515
1180.60 0.03516
1180.70 0.03516
1180.80 0.03516
1180.90 0.03516
1181.00 0.03516
1181.10 0.03516
1181.20 0.03517
1181.30 0.03517
1181.40 0.03517
1181.50 0.03517
1181.60 0.03517
1181.70 0.03518
1181.80 0.03518
1181.90 0.03518
1182.00 0.03518
1182.10 0.03517
1182.20 0.03517
1182.30 0.03516
1182.40 0.03516
1182.50 0.03515
1182.60 0.03515
1182.70 0.03514
1182.80 0.03513
1182.90 0.03513
1183.00 0.03512
1183.10 0.03512
1183.20 0.03511
1183.30 0.0351
1183.40 0.0351
1183.50 0.03509
1183.60 0.03509
1183.70 0.03508
1183.80 0.03508
1183.90 0.03507
1184.00 0.03506
1184.10 0.03506
1184.20 0.03505
1184.30 0.03505
1184.40 0.03504
1184.50 0.03503
1184.60 0.03503
1184.70 0.03502
1184.80 0.03502
1184.90 0.03501
1185.00 0.03501
1185.10 0.035
1185.20 0.03499
1185.30 0.03499
1185.40 0.03498
1185.50 0.03498
1185.60 0.03497
1185.70 0.03497
1185.80 0.03496
1185.90 0.03495
1186.00 0.03495
1186.10 0.03494
1186.20 0.03494
1186.30 0.03493
1186.40 0.03492
1186.50 0.03492
1186.60 0.03491
1186.70 0.03491
1186.80 0.0349
1186.90 0.0349
1187.00 0.03489
1187.10 0.03489
1187.20 0.03488
1187.30 0.03488
1187.40 0.03488
1187.50 0.03487
1187.60 0.03487
1187.70 0.03486
1187.80 0.03486
1187.90 0.03486
1188.00 0.03485
1188.10 0.03485
1188.20 0.03485
1188.30 0.03484
1188.40 0.03484
1188.50 0.03484
1188.60 0.03483
1188.70 0.03483
1188.80 0.03483
1188.90 0.03482
1189.00 0.03482
1189.10 0.03481
1189.20 0.03481
1189.30 0.03481
1189.40 0.0348
1189.50 0.0348
1189.60 0.0348
1189.70 0.03479
1189.80 0.03479
1189.90 0.03479
1190.00 0.03478
1190.10 0.03478
1190.20 0.03477
1190.30 0.03477
1190.40 0.03477
1190.50 0.03476
1190.60 0.03476
1190.70 0.03476
1190.80 0.03475
1190.90 0.03475
1191.00 0.03475
1191.10 0.03474
1191.20 0.03474
1191.30 0.03474
1191.40 0.03473
1191.50 0.03473
1191.60 0.03472
1191.70 0.03472
1191.80 0.03472
1191.90 0.03471
1192.00 0.03471
1192.10 0.03471
1192.20 0.0347
1192.30 0.0347
1192.40 0.03469
1192.50 0.03469
1192.60 0.03468
1192.70 0.03468
1192.80 0.03467
1192.90 0.03467
1193.00 0.03466
1193.10 0.03466
1193.20 0.03465
1193.30 0.03465
1193.40 0.03464
1193.50 0.03464
1193.60 0.03463
1193.70 0.03463
1193.80 0.03462
1193.90 0.03462
1194.00 0.03461
1194.10 0.03461
1194.20 0.03461
1194.30 0.0346
1194.40 0.0346
1194.50 0.03459
1194.60 0.03459
1194.70 0.03458
1194.80 0.03458
1194.90 0.03457
1195.00 0.03457
1195.10 0.03456
1195.20 0.03456
1195.30 0.03455
1195.40 0.03455
1195.50 0.03454
1195.60 0.03454
1195.70 0.03453
1195.80 0.03453
1195.90 0.03452
1196.00 0.03452
1196.10 0.03451
1196.20 0.03451
1196.30 0.03451
1196.40 0.0345
1196.50 0.0345
1196.60 0.03449
1196.70 0.03449
1196.80 0.03448
1196.90 0.03448
1197.00 0.03447
1197.10 0.03446
1197.20 0.03445
1197.30 0.03444
1197.40 0.03443
1197.50 0.03443
1197.60 0.03442
1197.70 0.03441
1197.80 0.0344
1197.90 0.03439
1198.00 0.03438
1198.10 0.03437
1198.20 0.03436
1198.30 0.03435
1198.40 0.03434
1198.50 0.03433
1198.60 0.03432
1198.70 0.03431
1198.80 0.0343
1198.90 0.0343
1199.00 0.03429
1199.10 0.03428
1199.20 0.03427
1199.30 0.03426
1199.40 0.03425
1199.50 0.03424
1199.60 0.03423
1199.70 0.03422
1199.80 0.03421
1199.90 0.0342
1200.00 0
