# Version 2.1 - nm, norm@500 to 1, cut digits, bergeron_75000_85.dat_75000
# Wavelength(nm)  Flambda(ergs/cm^s/s/nm)
300.00 6.624
300.10 6.616
300.20 6.607
300.30 6.599
300.40 6.591
300.50 6.583
300.60 6.575
300.70 6.567
300.80 6.558
300.90 6.55
301.00 6.542
301.10 6.534
301.20 6.526
301.30 6.518
301.40 6.51
301.50 6.502
301.60 6.494
301.70 6.486
301.80 6.478
301.90 6.47
302.00 6.462
302.10 6.454
302.20 6.446
302.30 6.438
302.40 6.43
302.50 6.422
302.60 6.415
302.70 6.407
302.80 6.399
302.90 6.391
303.00 6.383
303.10 6.375
303.20 6.367
303.30 6.36
303.40 6.352
303.50 6.344
303.60 6.336
303.70 6.329
303.80 6.321
303.90 6.313
304.00 6.305
304.10 6.298
304.20 6.29
304.30 6.282
304.40 6.275
304.50 6.267
304.60 6.259
304.70 6.252
304.80 6.244
304.90 6.236
305.00 6.229
305.10 6.221
305.20 6.214
305.30 6.206
305.40 6.198
305.50 6.191
305.60 6.183
305.70 6.176
305.80 6.168
305.90 6.161
306.00 6.153
306.10 6.146
306.20 6.138
306.30 6.131
306.40 6.123
306.50 6.116
306.60 6.109
306.70 6.101
306.80 6.094
306.90 6.086
307.00 6.079
307.10 6.072
307.20 6.064
307.30 6.057
307.40 6.05
307.50 6.042
307.60 6.035
307.70 6.028
307.80 6.02
307.90 6.013
308.00 6.006
308.10 5.999
308.20 5.991
308.30 5.984
308.40 5.977
308.50 5.97
308.60 5.963
308.70 5.955
308.80 5.948
308.90 5.941
309.00 5.934
309.10 5.927
309.20 5.92
309.30 5.912
309.40 5.905
309.50 5.898
309.60 5.891
309.70 5.884
309.80 5.877
309.90 5.87
310.00 5.863
310.10 5.856
310.20 5.849
310.30 5.842
310.40 5.835
310.50 5.828
310.60 5.821
310.70 5.814
310.80 5.807
310.90 5.8
311.00 5.793
311.10 5.786
311.20 5.779
311.30 5.772
311.40 5.765
311.50 5.758
311.60 5.751
311.70 5.745
311.80 5.738
311.90 5.731
312.00 5.724
312.10 5.717
312.20 5.71
312.30 5.704
312.40 5.697
312.50 5.69
312.60 5.683
312.70 5.676
312.80 5.67
312.90 5.663
313.00 5.656
313.10 5.649
313.20 5.643
313.30 5.636
313.40 5.629
313.50 5.623
313.60 5.616
313.70 5.609
313.80 5.603
313.90 5.596
314.00 5.589
314.10 5.583
314.20 5.576
314.30 5.569
314.40 5.563
314.50 5.556
314.60 5.55
314.70 5.543
314.80 5.537
314.90 5.53
315.00 5.523
315.10 5.517
315.20 5.51
315.30 5.504
315.40 5.497
315.50 5.491
315.60 5.484
315.70 5.478
315.80 5.472
315.90 5.465
316.00 5.459
316.10 5.452
316.20 5.446
316.30 5.439
316.40 5.433
316.50 5.426
316.60 5.42
316.70 5.414
316.80 5.407
316.90 5.401
317.00 5.395
317.10 5.388
317.20 5.382
317.30 5.376
317.40 5.369
317.50 5.363
317.60 5.357
317.70 5.35
317.80 5.344
317.90 5.338
318.00 5.332
318.10 5.325
318.20 5.319
318.30 5.313
318.40 5.307
318.50 5.301
318.60 5.294
318.70 5.288
318.80 5.282
318.90 5.276
319.00 5.27
319.10 5.263
319.20 5.257
319.30 5.251
319.40 5.245
319.50 5.239
319.60 5.233
319.70 5.227
319.80 5.221
319.90 5.214
320.00 5.208
320.10 5.202
320.20 5.196
320.30 5.19
320.40 5.184
320.50 5.178
320.60 5.172
320.70 5.166
320.80 5.16
320.90 5.154
321.00 5.148
321.10 5.142
321.20 5.136
321.30 5.13
321.40 5.124
321.50 5.118
321.60 5.112
321.70 5.106
321.80 5.101
321.90 5.095
322.00 5.089
322.10 5.083
322.20 5.077
322.30 5.071
322.40 5.065
322.50 5.059
322.60 5.053
322.70 5.048
322.80 5.042
322.90 5.036
323.00 5.03
323.10 5.024
323.20 5.019
323.30 5.013
323.40 5.007
323.50 5.001
323.60 4.995
323.70 4.99
323.80 4.984
323.90 4.978
324.00 4.972
324.10 4.967
324.20 4.961
324.30 4.955
324.40 4.95
324.50 4.944
324.60 4.938
324.70 4.933
324.80 4.927
324.90 4.921
325.00 4.916
325.10 4.91
325.20 4.904
325.30 4.899
325.40 4.893
325.50 4.887
325.60 4.882
325.70 4.876
325.80 4.871
325.90 4.865
326.00 4.859
326.10 4.854
326.20 4.848
326.30 4.843
326.40 4.837
326.50 4.832
326.60 4.826
326.70 4.821
326.80 4.815
326.90 4.81
327.00 4.804
327.10 4.799
327.20 4.793
327.30 4.788
327.40 4.782
327.50 4.777
327.60 4.771
327.70 4.766
327.80 4.761
327.90 4.755
328.00 4.75
328.10 4.744
328.20 4.739
328.30 4.734
328.40 4.728
328.50 4.723
328.60 4.717
328.70 4.712
328.80 4.707
328.90 4.701
329.00 4.696
329.10 4.691
329.20 4.685
329.30 4.68
329.40 4.675
329.50 4.669
329.60 4.664
329.70 4.659
329.80 4.654
329.90 4.648
330.00 4.643
330.10 4.638
330.20 4.633
330.30 4.627
330.40 4.622
330.50 4.617
330.60 4.612
330.70 4.607
330.80 4.601
330.90 4.596
331.00 4.591
331.10 4.586
331.20 4.581
331.30 4.575
331.40 4.57
331.50 4.565
331.60 4.56
331.70 4.555
331.80 4.55
331.90 4.545
332.00 4.539
332.10 4.534
332.20 4.529
332.30 4.524
332.40 4.519
332.50 4.514
332.60 4.509
332.70 4.504
332.80 4.499
332.90 4.494
333.00 4.489
333.10 4.484
333.20 4.479
333.30 4.474
333.40 4.469
333.50 4.464
333.60 4.459
333.70 4.454
333.80 4.449
333.90 4.444
334.00 4.439
334.10 4.434
334.20 4.429
334.30 4.424
334.40 4.419
334.50 4.414
334.60 4.409
334.70 4.404
334.80 4.399
334.90 4.394
335.00 4.389
335.10 4.384
335.20 4.38
335.30 4.375
335.40 4.37
335.50 4.365
335.60 4.36
335.70 4.355
335.80 4.35
335.90 4.345
336.00 4.341
336.10 4.336
336.20 4.331
336.30 4.326
336.40 4.321
336.50 4.317
336.60 4.312
336.70 4.307
336.80 4.302
336.90 4.297
337.00 4.293
337.10 4.288
337.20 4.283
337.30 4.278
337.40 4.274
337.50 4.269
337.60 4.264
337.70 4.259
337.80 4.255
337.90 4.25
338.00 4.245
338.10 4.241
338.20 4.236
338.30 4.231
338.40 4.227
338.50 4.222
338.60 4.217
338.70 4.213
338.80 4.208
338.90 4.203
339.00 4.199
339.10 4.194
339.20 4.189
339.30 4.185
339.40 4.18
339.50 4.176
339.60 4.171
339.70 4.166
339.80 4.162
339.90 4.157
340.00 4.153
340.10 4.148
340.20 4.144
340.30 4.139
340.40 4.134
340.50 4.13
340.60 4.125
340.70 4.121
340.80 4.116
340.90 4.112
341.00 4.107
341.10 4.103
341.20 4.098
341.30 4.094
341.40 4.089
341.50 4.085
341.60 4.08
341.70 4.076
341.80 4.071
341.90 4.067
342.00 4.062
342.10 4.058
342.20 4.054
342.30 4.049
342.40 4.045
342.50 4.04
342.60 4.036
342.70 4.032
342.80 4.027
342.90 4.023
343.00 4.018
343.10 4.014
343.20 4.01
343.30 4.005
343.40 4.001
343.50 3.996
343.60 3.992
343.70 3.988
343.80 3.983
343.90 3.979
344.00 3.975
344.10 3.97
344.20 3.966
344.30 3.962
344.40 3.957
344.50 3.953
344.60 3.949
344.70 3.945
344.80 3.94
344.90 3.936
345.00 3.932
345.10 3.928
345.20 3.923
345.30 3.919
345.40 3.915
345.50 3.911
345.60 3.906
345.70 3.902
345.80 3.898
345.90 3.894
346.00 3.889
346.10 3.885
346.20 3.881
346.30 3.877
346.40 3.873
346.50 3.868
346.60 3.864
346.70 3.86
346.80 3.856
346.90 3.852
347.00 3.848
347.10 3.843
347.20 3.839
347.30 3.835
347.40 3.831
347.50 3.827
347.60 3.823
347.70 3.819
347.80 3.814
347.90 3.81
348.00 3.806
348.10 3.802
348.20 3.798
348.30 3.794
348.40 3.79
348.50 3.786
348.60 3.782
348.70 3.778
348.80 3.774
348.90 3.77
349.00 3.766
349.10 3.762
349.20 3.758
349.30 3.754
349.40 3.749
349.50 3.745
349.60 3.741
349.70 3.737
349.80 3.733
349.90 3.729
350.00 3.725
350.10 3.721
350.20 3.717
350.30 3.713
350.40 3.71
350.50 3.706
350.60 3.702
350.70 3.698
350.80 3.694
350.90 3.69
351.00 3.686
351.10 3.682
351.20 3.678
351.30 3.674
351.40 3.67
351.50 3.666
351.60 3.662
351.70 3.658
351.80 3.654
351.90 3.651
352.00 3.647
352.10 3.643
352.20 3.639
352.30 3.635
352.40 3.631
352.50 3.627
352.60 3.624
352.70 3.62
352.80 3.616
352.90 3.612
353.00 3.608
353.10 3.604
353.20 3.601
353.30 3.597
353.40 3.593
353.50 3.589
353.60 3.585
353.70 3.581
353.80 3.578
353.90 3.574
354.00 3.57
354.10 3.566
354.20 3.563
354.30 3.559
354.40 3.555
354.50 3.551
354.60 3.547
354.70 3.544
354.80 3.54
354.90 3.536
355.00 3.533
355.10 3.529
355.20 3.525
355.30 3.521
355.40 3.518
355.50 3.514
355.60 3.51
355.70 3.506
355.80 3.503
355.90 3.499
356.00 3.495
356.10 3.492
356.20 3.488
356.30 3.484
356.40 3.481
356.50 3.477
356.60 3.473
356.70 3.47
356.80 3.466
356.90 3.462
357.00 3.459
357.10 3.455
357.20 3.452
357.30 3.448
357.40 3.444
357.50 3.441
357.60 3.437
357.70 3.433
357.80 3.43
357.90 3.426
358.00 3.423
358.10 3.419
358.20 3.416
358.30 3.412
358.40 3.408
358.50 3.405
358.60 3.401
358.70 3.398
358.80 3.394
358.90 3.391
359.00 3.387
359.10 3.384
359.20 3.38
359.30 3.377
359.40 3.373
359.50 3.369
359.60 3.366
359.70 3.362
359.80 3.359
359.90 3.355
360.00 3.352
360.10 3.348
360.20 3.345
360.30 3.341
360.40 3.338
360.50 3.335
360.60 3.331
360.70 3.328
360.80 3.324
360.90 3.321
361.00 3.317
361.10 3.314
361.20 3.31
361.30 3.307
361.40 3.303
361.50 3.3
361.60 3.297
361.70 3.293
361.80 3.29
361.90 3.286
362.00 3.283
362.10 3.28
362.20 3.276
362.30 3.273
362.40 3.269
362.50 3.266
362.60 3.263
362.70 3.259
362.80 3.256
362.90 3.252
363.00 3.249
363.10 3.246
363.20 3.242
363.30 3.239
363.40 3.236
363.50 3.232
363.60 3.229
363.70 3.226
363.80 3.222
363.90 3.219
364.00 3.216
364.10 3.212
364.20 3.209
364.30 3.206
364.40 3.202
364.50 3.199
364.60 3.196
364.70 3.193
364.80 3.189
364.90 3.186
365.00 3.183
365.10 3.18
365.20 3.176
365.30 3.173
365.40 3.17
365.50 3.166
365.60 3.163
365.70 3.16
365.80 3.157
365.90 3.153
366.00 3.15
366.10 3.147
366.20 3.144
366.30 3.14
366.40 3.137
366.50 3.134
366.60 3.131
366.70 3.127
366.80 3.124
366.90 3.121
367.00 3.118
367.10 3.115
367.20 3.111
367.30 3.108
367.40 3.105
367.50 3.102
367.60 3.098
367.70 3.095
367.80 3.092
367.90 3.089
368.00 3.086
368.10 3.082
368.20 3.079
368.30 3.076
368.40 3.073
368.50 3.069
368.60 3.066
368.70 3.063
368.80 3.06
368.90 3.057
369.00 3.053
369.10 3.05
369.20 3.047
369.30 3.044
369.40 3.041
369.50 3.037
369.60 3.034
369.70 3.031
369.80 3.028
369.90 3.025
370.00 3.022
370.10 3.018
370.20 3.015
370.30 3.012
370.40 3.009
370.50 3.006
370.60 3.003
370.70 3
370.80 2.997
370.90 2.993
371.00 2.99
371.10 2.987
371.20 2.984
371.30 2.981
371.40 2.978
371.50 2.975
371.60 2.972
371.70 2.969
371.80 2.966
371.90 2.963
372.00 2.96
372.10 2.957
372.20 2.954
372.30 2.951
372.40 2.948
372.50 2.945
372.60 2.942
372.70 2.939
372.80 2.936
372.90 2.933
373.00 2.93
373.10 2.927
373.20 2.924
373.30 2.921
373.40 2.918
373.50 2.915
373.60 2.912
373.70 2.909
373.80 2.906
373.90 2.903
374.00 2.9
374.10 2.897
374.20 2.894
374.30 2.891
374.40 2.888
374.50 2.885
374.60 2.882
374.70 2.879
374.80 2.876
374.90 2.874
375.00 2.871
375.10 2.868
375.20 2.865
375.30 2.862
375.40 2.859
375.50 2.856
375.60 2.853
375.70 2.85
375.80 2.847
375.90 2.844
376.00 2.841
376.10 2.838
376.20 2.835
376.30 2.833
376.40 2.83
376.50 2.827
376.60 2.824
376.70 2.821
376.80 2.818
376.90 2.815
377.00 2.813
377.10 2.81
377.20 2.807
377.30 2.804
377.40 2.801
377.50 2.798
377.60 2.796
377.70 2.793
377.80 2.79
377.90 2.787
378.00 2.784
378.10 2.782
378.20 2.779
378.30 2.776
378.40 2.773
378.50 2.771
378.60 2.768
378.70 2.765
378.80 2.762
378.90 2.76
379.00 2.757
379.10 2.754
379.20 2.751
379.30 2.749
379.40 2.746
379.50 2.743
379.60 2.741
379.70 2.738
379.80 2.735
379.90 2.733
380.00 2.73
380.10 2.727
380.20 2.725
380.30 2.722
380.40 2.719
380.50 2.717
380.60 2.714
380.70 2.711
380.80 2.709
380.90 2.706
381.00 2.703
381.10 2.701
381.20 2.698
381.30 2.696
381.40 2.693
381.50 2.69
381.60 2.688
381.70 2.685
381.80 2.683
381.90 2.68
382.00 2.677
382.10 2.675
382.20 2.672
382.30 2.67
382.40 2.667
382.50 2.664
382.60 2.662
382.70 2.659
382.80 2.657
382.90 2.654
383.00 2.652
383.10 2.649
383.20 2.647
383.30 2.644
383.40 2.642
383.50 2.639
383.60 2.637
383.70 2.634
383.80 2.632
383.90 2.629
384.00 2.627
384.10 2.624
384.20 2.622
384.30 2.62
384.40 2.617
384.50 2.615
384.60 2.613
384.70 2.61
384.80 2.608
384.90 2.605
385.00 2.603
385.10 2.601
385.20 2.598
385.30 2.596
385.40 2.593
385.50 2.591
385.60 2.588
385.70 2.586
385.80 2.584
385.90 2.581
386.00 2.579
386.10 2.576
386.20 2.574
386.30 2.571
386.40 2.569
386.50 2.566
386.60 2.564
386.70 2.561
386.80 2.559
386.90 2.556
387.00 2.554
387.10 2.551
387.20 2.549
387.30 2.546
387.40 2.544
387.50 2.541
387.60 2.539
387.70 2.536
387.80 2.534
387.90 2.531
388.00 2.529
388.10 2.526
388.20 2.524
388.30 2.521
388.40 2.519
388.50 2.516
388.60 2.514
388.70 2.512
388.80 2.509
388.90 2.507
389.00 2.505
389.10 2.503
389.20 2.501
389.30 2.499
389.40 2.496
389.50 2.494
389.60 2.492
389.70 2.491
389.80 2.489
389.90 2.487
390.00 2.485
390.10 2.483
390.20 2.481
390.30 2.479
390.40 2.477
390.50 2.475
390.60 2.473
390.70 2.471
390.80 2.469
390.90 2.467
391.00 2.465
391.10 2.463
391.20 2.461
391.30 2.459
391.40 2.457
391.50 2.455
391.60 2.452
391.70 2.45
391.80 2.448
391.90 2.446
392.00 2.444
392.10 2.441
392.20 2.439
392.30 2.437
392.40 2.434
392.50 2.432
392.60 2.43
392.70 2.427
392.80 2.425
392.90 2.422
393.00 2.42
393.10 2.417
393.20 2.415
393.30 2.412
393.40 2.409
393.50 2.407
393.60 2.404
393.70 2.401
393.80 2.399
393.90 2.396
394.00 2.393
394.10 2.39
394.20 2.387
394.30 2.384
394.40 2.382
394.50 2.379
394.60 2.376
394.70 2.373
394.80 2.37
394.90 2.367
395.00 2.364
395.10 2.36
395.20 2.357
395.30 2.354
395.40 2.351
395.50 2.348
395.60 2.345
395.70 2.341
395.80 2.338
395.90 2.335
396.00 2.332
396.10 2.329
396.20 2.326
396.30 2.322
396.40 2.319
396.50 2.316
396.60 2.313
396.70 2.31
396.80 2.307
396.90 2.305
397.00 2.302
397.10 2.301
397.20 2.299
397.30 2.298
397.40 2.297
397.50 2.296
397.60 2.296
397.70 2.295
397.80 2.294
397.90 2.293
398.00 2.292
398.10 2.292
398.20 2.291
398.30 2.29
398.40 2.289
398.50 2.289
398.60 2.288
398.70 2.287
398.80 2.286
398.90 2.285
399.00 2.284
399.10 2.284
399.20 2.283
399.30 2.282
399.40 2.281
399.50 2.28
399.60 2.279
399.70 2.278
399.80 2.277
399.90 2.275
400.00 2.274
400.10 2.273
400.20 2.272
400.30 2.271
400.40 2.269
400.50 2.268
400.60 2.267
400.70 2.265
400.80 2.264
400.90 2.263
401.00 2.261
401.10 2.26
401.20 2.258
401.30 2.256
401.40 2.255
401.50 2.253
401.60 2.252
401.70 2.25
401.80 2.248
401.90 2.246
402.00 2.245
402.10 2.243
402.20 2.241
402.30 2.239
402.40 2.237
402.50 2.235
402.60 2.233
402.70 2.231
402.80 2.229
402.90 2.227
403.00 2.225
403.10 2.223
403.20 2.221
403.30 2.219
403.40 2.217
403.50 2.214
403.60 2.212
403.70 2.21
403.80 2.207
403.90 2.205
404.00 2.202
404.10 2.2
404.20 2.197
404.30 2.195
404.40 2.192
404.50 2.19
404.60 2.187
404.70 2.184
404.80 2.182
404.90 2.179
405.00 2.176
405.10 2.173
405.20 2.17
405.30 2.167
405.40 2.164
405.50 2.161
405.60 2.158
405.70 2.155
405.80 2.152
405.90 2.149
406.00 2.145
406.10 2.142
406.20 2.139
406.30 2.135
406.40 2.132
406.50 2.128
406.60 2.125
406.70 2.121
406.80 2.117
406.90 2.114
407.00 2.11
407.10 2.106
407.20 2.102
407.30 2.098
407.40 2.094
407.50 2.09
407.60 2.086
407.70 2.081
407.80 2.077
407.90 2.073
408.00 2.068
408.10 2.064
408.20 2.059
408.30 2.055
408.40 2.05
408.50 2.046
408.60 2.041
408.70 2.036
408.80 2.032
408.90 2.027
409.00 2.022
409.10 2.018
409.20 2.013
409.30 2.008
409.40 2.004
409.50 2
409.60 1.996
409.70 1.992
409.80 1.99
409.90 1.987
410.00 1.986
410.10 1.986
410.20 1.985
410.30 1.982
410.40 1.979
410.50 1.977
410.60 1.976
410.70 1.976
410.80 1.976
410.90 1.977
411.00 1.978
411.10 1.979
411.20 1.98
411.30 1.981
411.40 1.982
411.50 1.983
411.60 1.984
411.70 1.986
411.80 1.987
411.90 1.988
412.00 1.989
412.10 1.99
412.20 1.991
412.30 1.992
412.40 1.992
412.50 1.993
412.60 1.994
412.70 1.995
412.80 1.995
412.90 1.996
413.00 1.996
413.10 1.996
413.20 1.997
413.30 1.997
413.40 1.997
413.50 1.997
413.60 1.998
413.70 1.998
413.80 1.998
413.90 1.998
414.00 1.997
414.10 1.997
414.20 1.997
414.30 1.997
414.40 1.997
414.50 1.996
414.60 1.996
414.70 1.995
414.80 1.995
414.90 1.994
415.00 1.994
415.10 1.993
415.20 1.993
415.30 1.992
415.40 1.991
415.50 1.99
415.60 1.99
415.70 1.989
415.80 1.988
415.90 1.987
416.00 1.986
416.10 1.985
416.20 1.984
416.30 1.983
416.40 1.982
416.50 1.981
416.60 1.98
416.70 1.979
416.80 1.978
416.90 1.977
417.00 1.976
417.10 1.975
417.20 1.973
417.30 1.972
417.40 1.971
417.50 1.97
417.60 1.969
417.70 1.967
417.80 1.966
417.90 1.965
418.00 1.963
418.10 1.962
418.20 1.961
418.30 1.959
418.40 1.958
418.50 1.956
418.60 1.955
418.70 1.954
418.80 1.952
418.90 1.951
419.00 1.949
419.10 1.948
419.20 1.946
419.30 1.945
419.40 1.943
419.50 1.942
419.60 1.94
419.70 1.939
419.80 1.937
419.90 1.936
420.00 1.934
420.10 1.933
420.20 1.931
420.30 1.929
420.40 1.928
420.50 1.926
420.60 1.925
420.70 1.923
420.80 1.921
420.90 1.92
421.00 1.918
421.10 1.916
421.20 1.915
421.30 1.913
421.40 1.911
421.50 1.91
421.60 1.908
421.70 1.906
421.80 1.905
421.90 1.903
422.00 1.901
422.10 1.899
422.20 1.898
422.30 1.896
422.40 1.894
422.50 1.892
422.60 1.891
422.70 1.889
422.80 1.887
422.90 1.885
423.00 1.884
423.10 1.882
423.20 1.88
423.30 1.878
423.40 1.876
423.50 1.875
423.60 1.873
423.70 1.871
423.80 1.869
423.90 1.867
424.00 1.865
424.10 1.863
424.20 1.861
424.30 1.86
424.40 1.858
424.50 1.856
424.60 1.854
424.70 1.852
424.80 1.85
424.90 1.848
425.00 1.846
425.10 1.844
425.20 1.842
425.30 1.84
425.40 1.838
425.50 1.836
425.60 1.834
425.70 1.832
425.80 1.83
425.90 1.828
426.00 1.826
426.10 1.823
426.20 1.821
426.30 1.819
426.40 1.817
426.50 1.815
426.60 1.812
426.70 1.81
426.80 1.808
426.90 1.806
427.00 1.803
427.10 1.801
427.20 1.799
427.30 1.796
427.40 1.794
427.50 1.791
427.60 1.789
427.70 1.786
427.80 1.784
427.90 1.781
428.00 1.779
428.10 1.776
428.20 1.774
428.30 1.771
428.40 1.768
428.50 1.765
428.60 1.763
428.70 1.76
428.80 1.757
428.90 1.754
429.00 1.751
429.10 1.748
429.20 1.745
429.30 1.742
429.40 1.739
429.50 1.735
429.60 1.732
429.70 1.729
429.80 1.725
429.90 1.722
430.00 1.718
430.10 1.715
430.20 1.711
430.30 1.707
430.40 1.704
430.50 1.7
430.60 1.696
430.70 1.692
430.80 1.688
430.90 1.683
431.00 1.679
431.10 1.675
431.20 1.671
431.30 1.666
431.40 1.661
431.50 1.657
431.60 1.652
431.70 1.647
431.80 1.642
431.90 1.637
432.00 1.632
432.10 1.627
432.20 1.622
432.30 1.617
432.40 1.611
432.50 1.606
432.60 1.6
432.70 1.595
432.80 1.589
432.90 1.584
433.00 1.578
433.10 1.573
433.20 1.567
433.30 1.562
433.40 1.557
433.50 1.551
433.60 1.546
433.70 1.541
433.80 1.535
433.90 1.528
434.00 1.523
434.10 1.522
434.20 1.525
434.30 1.529
434.40 1.532
434.50 1.535
434.60 1.538
434.70 1.54
434.80 1.543
434.90 1.546
435.00 1.549
435.10 1.551
435.20 1.554
435.30 1.557
435.40 1.56
435.50 1.563
435.60 1.565
435.70 1.568
435.80 1.57
435.90 1.573
436.00 1.575
436.10 1.578
436.20 1.58
436.30 1.582
436.40 1.584
436.50 1.586
436.60 1.588
436.70 1.59
436.80 1.591
436.90 1.593
437.00 1.594
437.10 1.596
437.20 1.597
437.30 1.598
437.40 1.599
437.50 1.6
437.60 1.601
437.70 1.602
437.80 1.603
437.90 1.604
438.00 1.604
438.10 1.605
438.20 1.606
438.30 1.606
438.40 1.606
438.50 1.607
438.60 1.607
438.70 1.607
438.80 1.607
438.90 1.607
439.00 1.608
439.10 1.608
439.20 1.607
439.30 1.607
439.40 1.607
439.50 1.607
439.60 1.607
439.70 1.607
439.80 1.606
439.90 1.606
440.00 1.605
440.10 1.605
440.20 1.605
440.30 1.604
440.40 1.604
440.50 1.603
440.60 1.602
440.70 1.602
440.80 1.601
440.90 1.601
441.00 1.6
441.10 1.599
441.20 1.598
441.30 1.598
441.40 1.597
441.50 1.596
441.60 1.595
441.70 1.594
441.80 1.594
441.90 1.593
442.00 1.592
442.10 1.591
442.20 1.59
442.30 1.589
442.40 1.588
442.50 1.587
442.60 1.586
442.70 1.585
442.80 1.584
442.90 1.583
443.00 1.582
443.10 1.581
443.20 1.58
443.30 1.579
443.40 1.578
443.50 1.577
443.60 1.576
443.70 1.575
443.80 1.574
443.90 1.573
444.00 1.572
444.10 1.571
444.20 1.57
444.30 1.568
444.40 1.567
444.50 1.566
444.60 1.565
444.70 1.564
444.80 1.563
444.90 1.562
445.00 1.56
445.10 1.559
445.20 1.558
445.30 1.557
445.40 1.556
445.50 1.555
445.60 1.553
445.70 1.552
445.80 1.551
445.90 1.55
446.00 1.549
446.10 1.548
446.20 1.546
446.30 1.545
446.40 1.544
446.50 1.543
446.60 1.542
446.70 1.54
446.80 1.539
446.90 1.538
447.00 1.537
447.10 1.536
447.20 1.534
447.30 1.533
447.40 1.532
447.50 1.531
447.60 1.529
447.70 1.528
447.80 1.527
447.90 1.526
448.00 1.525
448.10 1.523
448.20 1.522
448.30 1.521
448.40 1.52
448.50 1.518
448.60 1.517
448.70 1.516
448.80 1.515
448.90 1.514
449.00 1.512
449.10 1.511
449.20 1.51
449.30 1.509
449.40 1.507
449.50 1.506
449.60 1.505
449.70 1.504
449.80 1.503
449.90 1.501
450.00 1.5
450.10 1.499
450.20 1.498
450.30 1.496
450.40 1.495
450.50 1.494
450.60 1.493
450.70 1.491
450.80 1.49
450.90 1.489
451.00 1.488
451.10 1.487
451.20 1.485
451.30 1.484
451.40 1.483
451.50 1.482
451.60 1.48
451.70 1.479
451.80 1.478
451.90 1.477
452.00 1.476
452.10 1.474
452.20 1.473
452.30 1.472
452.40 1.471
452.50 1.469
452.60 1.468
452.70 1.467
452.80 1.466
452.90 1.465
453.00 1.463
453.10 1.462
453.20 1.461
453.30 1.46
453.40 1.458
453.50 1.457
453.60 1.456
453.70 1.455
453.80 1.454
453.90 1.452
454.00 1.451
454.10 1.45
454.20 1.449
454.30 1.448
454.40 1.446
454.50 1.445
454.60 1.444
454.70 1.443
454.80 1.442
454.90 1.44
455.00 1.439
455.10 1.438
455.20 1.437
455.30 1.436
455.40 1.434
455.50 1.433
455.60 1.432
455.70 1.431
455.80 1.43
455.90 1.428
456.00 1.427
456.10 1.426
456.20 1.425
456.30 1.424
456.40 1.422
456.50 1.421
456.60 1.42
456.70 1.419
456.80 1.418
456.90 1.416
457.00 1.415
457.10 1.414
457.20 1.413
457.30 1.412
457.40 1.411
457.50 1.409
457.60 1.408
457.70 1.407
457.80 1.406
457.90 1.405
458.00 1.403
458.10 1.402
458.20 1.401
458.30 1.4
458.40 1.399
458.50 1.398
458.60 1.396
458.70 1.395
458.80 1.394
458.90 1.393
459.00 1.392
459.10 1.391
459.20 1.389
459.30 1.388
459.40 1.387
459.50 1.386
459.60 1.385
459.70 1.384
459.80 1.383
459.90 1.381
460.00 1.38
460.10 1.379
460.20 1.378
460.30 1.377
460.40 1.376
460.50 1.374
460.60 1.373
460.70 1.372
460.80 1.371
460.90 1.37
461.00 1.369
461.10 1.368
461.20 1.366
461.30 1.365
461.40 1.364
461.50 1.363
461.60 1.362
461.70 1.361
461.80 1.36
461.90 1.358
462.00 1.357
462.10 1.356
462.20 1.355
462.30 1.354
462.40 1.353
462.50 1.352
462.60 1.35
462.70 1.349
462.80 1.348
462.90 1.347
463.00 1.346
463.10 1.345
463.20 1.344
463.30 1.343
463.40 1.341
463.50 1.34
463.60 1.339
463.70 1.338
463.80 1.337
463.90 1.336
464.00 1.335
464.10 1.334
464.20 1.332
464.30 1.331
464.40 1.33
464.50 1.329
464.60 1.328
464.70 1.327
464.80 1.326
464.90 1.325
465.00 1.324
465.10 1.322
465.20 1.321
465.30 1.32
465.40 1.319
465.50 1.318
465.60 1.317
465.70 1.316
465.80 1.315
465.90 1.314
466.00 1.312
466.10 1.311
466.20 1.31
466.30 1.309
466.40 1.308
466.50 1.307
466.60 1.306
466.70 1.305
466.80 1.304
466.90 1.303
467.00 1.301
467.10 1.3
467.20 1.299
467.30 1.298
467.40 1.297
467.50 1.296
467.60 1.295
467.70 1.294
467.80 1.293
467.90 1.292
468.00 1.29
468.10 1.289
468.20 1.288
468.30 1.287
468.40 1.286
468.50 1.285
468.60 1.284
468.70 1.283
468.80 1.282
468.90 1.281
469.00 1.28
469.10 1.278
469.20 1.277
469.30 1.276
469.40 1.275
469.50 1.274
469.60 1.273
469.70 1.272
469.80 1.271
469.90 1.27
470.00 1.269
470.10 1.268
470.20 1.266
470.30 1.265
470.40 1.264
470.50 1.263
470.60 1.262
470.70 1.261
470.80 1.26
470.90 1.259
471.00 1.258
471.10 1.257
471.20 1.256
471.30 1.254
471.40 1.253
471.50 1.252
471.60 1.251
471.70 1.25
471.80 1.249
471.90 1.248
472.00 1.247
472.10 1.246
472.20 1.245
472.30 1.244
472.40 1.242
472.50 1.241
472.60 1.24
472.70 1.239
472.80 1.238
472.90 1.237
473.00 1.236
473.10 1.235
473.20 1.234
473.30 1.233
473.40 1.231
473.50 1.23
473.60 1.229
473.70 1.228
473.80 1.227
473.90 1.226
474.00 1.225
474.10 1.224
474.20 1.223
474.30 1.221
474.40 1.22
474.50 1.219
474.60 1.218
474.70 1.217
474.80 1.216
474.90 1.215
475.00 1.213
475.10 1.212
475.20 1.211
475.30 1.21
475.40 1.209
475.50 1.208
475.60 1.207
475.70 1.205
475.80 1.204
475.90 1.203
476.00 1.202
476.10 1.201
476.20 1.2
476.30 1.198
476.40 1.197
476.50 1.196
476.60 1.195
476.70 1.193
476.80 1.192
476.90 1.191
477.00 1.19
477.10 1.189
477.20 1.187
477.30 1.186
477.40 1.185
477.50 1.184
477.60 1.182
477.70 1.181
477.80 1.18
477.90 1.178
478.00 1.177
478.10 1.176
478.20 1.174
478.30 1.173
478.40 1.172
478.50 1.17
478.60 1.169
478.70 1.168
478.80 1.166
478.90 1.165
479.00 1.163
479.10 1.162
479.20 1.16
479.30 1.159
479.40 1.157
479.50 1.156
479.60 1.154
479.70 1.153
479.80 1.151
479.90 1.15
480.00 1.148
480.10 1.147
480.20 1.145
480.30 1.143
480.40 1.141
480.50 1.139
480.60 1.138
480.70 1.136
480.80 1.134
480.90 1.132
481.00 1.131
481.10 1.129
481.20 1.127
481.30 1.125
481.40 1.122
481.50 1.12
481.60 1.118
481.70 1.116
481.80 1.114
481.90 1.112
482.00 1.11
482.10 1.108
482.20 1.105
482.30 1.102
482.40 1.1
482.50 1.097
482.60 1.095
482.70 1.092
482.80 1.089
482.90 1.087
483.00 1.084
483.10 1.082
483.20 1.079
483.30 1.075
483.40 1.072
483.50 1.069
483.60 1.066
483.70 1.062
483.80 1.059
483.90 1.056
484.00 1.053
484.10 1.049
484.20 1.046
484.30 1.042
484.40 1.038
484.50 1.035
484.60 1.031
484.70 1.027
484.80 1.023
484.90 1.019
485.00 1.015
485.10 1.011
485.20 1.007
485.30 1.003
485.40 0.9994
485.50 0.9957
485.60 0.9923
485.70 0.9891
485.80 0.9875
485.90 0.9865
486.00 0.9896
486.10 1
486.20 0.9957
486.30 0.985
486.40 0.983
486.50 0.9824
486.60 0.9833
486.70 0.985
486.80 0.987
486.90 0.9893
487.00 0.9916
487.10 0.994
487.20 0.9964
487.30 0.9988
487.40 1.001
487.50 1.004
487.60 1.006
487.70 1.008
487.80 1.01
487.90 1.012
488.00 1.014
488.10 1.017
488.20 1.018
488.30 1.02
488.40 1.021
488.50 1.023
488.60 1.024
488.70 1.026
488.80 1.028
488.90 1.029
489.00 1.031
489.10 1.032
489.20 1.033
489.30 1.034
489.40 1.035
489.50 1.036
489.60 1.037
489.70 1.038
489.80 1.038
489.90 1.039
490.00 1.04
490.10 1.041
490.20 1.041
490.30 1.042
490.40 1.042
490.50 1.042
490.60 1.043
490.70 1.043
490.80 1.044
490.90 1.044
491.00 1.044
491.10 1.045
491.20 1.045
491.30 1.045
491.40 1.045
491.50 1.045
491.60 1.045
491.70 1.045
491.80 1.045
491.90 1.044
492.00 1.044
492.10 1.044
492.20 1.044
492.30 1.044
492.40 1.044
492.50 1.043
492.60 1.043
492.70 1.043
492.80 1.043
492.90 1.042
493.00 1.042
493.10 1.042
493.20 1.042
493.30 1.041
493.40 1.041
493.50 1.04
493.60 1.04
493.70 1.039
493.80 1.039
493.90 1.039
494.00 1.038
494.10 1.038
494.20 1.037
494.30 1.037
494.40 1.036
494.50 1.036
494.60 1.035
494.70 1.035
494.80 1.034
494.90 1.033
495.00 1.033
495.10 1.032
495.20 1.032
495.30 1.031
495.40 1.031
495.50 1.03
495.60 1.029
495.70 1.029
495.80 1.028
495.90 1.028
496.00 1.027
496.10 1.026
496.20 1.026
496.30 1.025
496.40 1.025
496.50 1.024
496.60 1.023
496.70 1.023
496.80 1.022
496.90 1.021
497.00 1.021
497.10 1.02
497.20 1.019
497.30 1.019
497.40 1.018
497.50 1.017
497.60 1.017
497.70 1.016
497.80 1.015
497.90 1.015
498.00 1.014
498.10 1.013
498.20 1.013
498.30 1.012
498.40 1.011
498.50 1.011
498.60 1.01
498.70 1.009
498.80 1.008
498.90 1.008
499.00 1.007
499.10 1.006
499.20 1.006
499.30 1.005
499.40 1.004
499.50 1.004
499.60 1.003
499.70 1.002
499.80 1.001
499.90 1.001
500.00 1
500.10 0.9993
500.20 0.9986
500.30 0.9979
500.40 0.9972
500.50 0.9964
500.60 0.9957
500.70 0.995
500.80 0.9943
500.90 0.9936
501.00 0.9929
501.10 0.9922
501.20 0.9914
501.30 0.9907
501.40 0.99
501.50 0.9893
501.60 0.9886
501.70 0.9878
501.80 0.9871
501.90 0.9864
502.00 0.9857
502.10 0.985
502.20 0.9843
502.30 0.9835
502.40 0.9828
502.50 0.9821
502.60 0.9814
502.70 0.9807
502.80 0.9799
502.90 0.9792
503.00 0.9785
503.10 0.9778
503.20 0.9771
503.30 0.9764
503.40 0.9756
503.50 0.9749
503.60 0.9742
503.70 0.9735
503.80 0.9728
503.90 0.9721
504.00 0.9713
504.10 0.9706
504.20 0.9699
504.30 0.9692
504.40 0.9685
504.50 0.9677
504.60 0.967
504.70 0.9663
504.80 0.9656
504.90 0.9649
505.00 0.9642
505.10 0.9635
505.20 0.9627
505.30 0.962
505.40 0.9613
505.50 0.9606
505.60 0.9599
505.70 0.9592
505.80 0.9585
505.90 0.9578
506.00 0.957
506.10 0.9563
506.20 0.9556
506.30 0.9549
506.40 0.9542
506.50 0.9535
506.60 0.9528
506.70 0.9521
506.80 0.9514
506.90 0.9507
507.00 0.95
507.10 0.9492
507.20 0.9485
507.30 0.9478
507.40 0.9471
507.50 0.9464
507.60 0.9457
507.70 0.945
507.80 0.9443
507.90 0.9436
508.00 0.9429
508.10 0.9422
508.20 0.9415
508.30 0.9408
508.40 0.9401
508.50 0.9394
508.60 0.9387
508.70 0.938
508.80 0.9373
508.90 0.9366
509.00 0.9359
509.10 0.9352
509.20 0.9345
509.30 0.9338
509.40 0.9331
509.50 0.9324
509.60 0.9317
509.70 0.931
509.80 0.9303
509.90 0.9296
510.00 0.9289
510.10 0.9282
510.20 0.9276
510.30 0.9269
510.40 0.9262
510.50 0.9255
510.60 0.9248
510.70 0.9241
510.80 0.9234
510.90 0.9227
511.00 0.922
511.10 0.9214
511.20 0.9207
511.30 0.92
511.40 0.9193
511.50 0.9186
511.60 0.9179
511.70 0.9172
511.80 0.9166
511.90 0.9159
512.00 0.9152
512.10 0.9145
512.20 0.9138
512.30 0.9132
512.40 0.9125
512.50 0.9118
512.60 0.9111
512.70 0.9104
512.80 0.9098
512.90 0.9091
513.00 0.9084
513.10 0.9077
513.20 0.9071
513.30 0.9064
513.40 0.9057
513.50 0.905
513.60 0.9044
513.70 0.9037
513.80 0.903
513.90 0.9023
514.00 0.9017
514.10 0.901
514.20 0.9003
514.30 0.8997
514.40 0.899
514.50 0.8983
514.60 0.8976
514.70 0.897
514.80 0.8963
514.90 0.8957
515.00 0.895
515.10 0.8943
515.20 0.8937
515.30 0.893
515.40 0.8923
515.50 0.8917
515.60 0.891
515.70 0.8903
515.80 0.8897
515.90 0.889
516.00 0.8884
516.10 0.8877
516.20 0.887
516.30 0.8864
516.40 0.8857
516.50 0.8851
516.60 0.8844
516.70 0.8838
516.80 0.8831
516.90 0.8824
517.00 0.8818
517.10 0.8811
517.20 0.8805
517.30 0.8798
517.40 0.8792
517.50 0.8785
517.60 0.8779
517.70 0.8772
517.80 0.8766
517.90 0.8759
518.00 0.8753
518.10 0.8746
518.20 0.874
518.30 0.8733
518.40 0.8727
518.50 0.872
518.60 0.8714
518.70 0.8708
518.80 0.8701
518.90 0.8695
519.00 0.8688
519.10 0.8682
519.20 0.8675
519.30 0.8669
519.40 0.8663
519.50 0.8656
519.60 0.865
519.70 0.8643
519.80 0.8637
519.90 0.8631
520.00 0.8624
520.10 0.8618
520.20 0.8612
520.30 0.8605
520.40 0.8599
520.50 0.8593
520.60 0.8586
520.70 0.858
520.80 0.8574
520.90 0.8567
521.00 0.8561
521.10 0.8555
521.20 0.8548
521.30 0.8542
521.40 0.8536
521.50 0.8529
521.60 0.8523
521.70 0.8517
521.80 0.8511
521.90 0.8504
522.00 0.8498
522.10 0.8492
522.20 0.8486
522.30 0.8479
522.40 0.8473
522.50 0.8467
522.60 0.8461
522.70 0.8454
522.80 0.8448
522.90 0.8442
523.00 0.8436
523.10 0.843
523.20 0.8423
523.30 0.8417
523.40 0.8411
523.50 0.8405
523.60 0.8399
523.70 0.8393
523.80 0.8386
523.90 0.838
524.00 0.8374
524.10 0.8368
524.20 0.8362
524.30 0.8356
524.40 0.835
524.50 0.8343
524.60 0.8337
524.70 0.8331
524.80 0.8325
524.90 0.8319
525.00 0.8313
525.10 0.8307
525.20 0.8301
525.30 0.8295
525.40 0.8289
525.50 0.8283
525.60 0.8277
525.70 0.827
525.80 0.8264
525.90 0.8258
526.00 0.8252
526.10 0.8246
526.20 0.824
526.30 0.8234
526.40 0.8228
526.50 0.8222
526.60 0.8216
526.70 0.821
526.80 0.8204
526.90 0.8198
527.00 0.8192
527.10 0.8186
527.20 0.818
527.30 0.8174
527.40 0.8168
527.50 0.8162
527.60 0.8156
527.70 0.815
527.80 0.8145
527.90 0.8139
528.00 0.8133
528.10 0.8127
528.20 0.8121
528.30 0.8115
528.40 0.8109
528.50 0.8103
528.60 0.8097
528.70 0.8091
528.80 0.8085
528.90 0.808
529.00 0.8074
529.10 0.8068
529.20 0.8062
529.30 0.8056
529.40 0.805
529.50 0.8044
529.60 0.8039
529.70 0.8033
529.80 0.8027
529.90 0.8021
530.00 0.8015
530.10 0.8009
530.20 0.8004
530.30 0.7998
530.40 0.7992
530.50 0.7986
530.60 0.798
530.70 0.7975
530.80 0.7969
530.90 0.7963
531.00 0.7957
531.10 0.7951
531.20 0.7946
531.30 0.794
531.40 0.7934
531.50 0.7928
531.60 0.7923
531.70 0.7917
531.80 0.7911
531.90 0.7906
532.00 0.79
532.10 0.7894
532.20 0.7888
532.30 0.7883
532.40 0.7877
532.50 0.7871
532.60 0.7866
532.70 0.786
532.80 0.7854
532.90 0.7849
533.00 0.7843
533.10 0.7837
533.20 0.7832
533.30 0.7826
533.40 0.782
533.50 0.7815
533.60 0.7809
533.70 0.7803
533.80 0.7798
533.90 0.7792
534.00 0.7786
534.10 0.7781
534.20 0.7775
534.30 0.777
534.40 0.7764
534.50 0.7758
534.60 0.7753
534.70 0.7747
534.80 0.7742
534.90 0.7736
535.00 0.7731
535.10 0.7725
535.20 0.7719
535.30 0.7714
535.40 0.7708
535.50 0.7703
535.60 0.7697
535.70 0.7692
535.80 0.7686
535.90 0.7681
536.00 0.7675
536.10 0.767
536.20 0.7664
536.30 0.7659
536.40 0.7653
536.50 0.7648
536.60 0.7642
536.70 0.7637
536.80 0.7631
536.90 0.7626
537.00 0.762
537.10 0.7615
537.20 0.7609
537.30 0.7604
537.40 0.7598
537.50 0.7593
537.60 0.7587
537.70 0.7582
537.80 0.7577
537.90 0.7571
538.00 0.7566
538.10 0.756
538.20 0.7555
538.30 0.755
538.40 0.7544
538.50 0.7539
538.60 0.7533
538.70 0.7528
538.80 0.7523
538.90 0.7517
539.00 0.7512
539.10 0.7506
539.20 0.7501
539.30 0.7496
539.40 0.749
539.50 0.7485
539.60 0.748
539.70 0.7474
539.80 0.7469
539.90 0.7464
540.00 0.7458
540.10 0.7453
540.20 0.7448
540.30 0.7442
540.40 0.7437
540.50 0.7432
540.60 0.7426
540.70 0.7421
540.80 0.7416
540.90 0.7411
541.00 0.7405
541.10 0.74
541.20 0.7395
541.30 0.739
541.40 0.7384
541.50 0.7379
541.60 0.7374
541.70 0.7369
541.80 0.7363
541.90 0.7358
542.00 0.7353
542.10 0.7348
542.20 0.7342
542.30 0.7337
542.40 0.7332
542.50 0.7327
542.60 0.7321
542.70 0.7316
542.80 0.7311
542.90 0.7306
543.00 0.7301
543.10 0.7296
543.20 0.729
543.30 0.7285
543.40 0.728
543.50 0.7275
543.60 0.727
543.70 0.7265
543.80 0.7259
543.90 0.7254
544.00 0.7249
544.10 0.7244
544.20 0.7239
544.30 0.7234
544.40 0.7229
544.50 0.7223
544.60 0.7218
544.70 0.7213
544.80 0.7208
544.90 0.7203
545.00 0.7198
545.10 0.7193
545.20 0.7188
545.30 0.7183
545.40 0.7178
545.50 0.7173
545.60 0.7167
545.70 0.7162
545.80 0.7157
545.90 0.7152
546.00 0.7147
546.10 0.7142
546.20 0.7137
546.30 0.7132
546.40 0.7127
546.50 0.7122
546.60 0.7117
546.70 0.7112
546.80 0.7107
546.90 0.7102
547.00 0.7097
547.10 0.7092
547.20 0.7087
547.30 0.7082
547.40 0.7077
547.50 0.7072
547.60 0.7067
547.70 0.7062
547.80 0.7057
547.90 0.7052
548.00 0.7047
548.10 0.7042
548.20 0.7037
548.30 0.7032
548.40 0.7027
548.50 0.7022
548.60 0.7017
548.70 0.7013
548.80 0.7008
548.90 0.7003
549.00 0.6998
549.10 0.6993
549.20 0.6988
549.30 0.6983
549.40 0.6978
549.50 0.6973
549.60 0.6968
549.70 0.6963
549.80 0.6959
549.90 0.6954
550.00 0.6949
550.10 0.6944
550.20 0.6939
550.30 0.6934
550.40 0.6929
550.50 0.6925
550.60 0.692
550.70 0.6915
550.80 0.691
550.90 0.6905
551.00 0.69
551.10 0.6895
551.20 0.6891
551.30 0.6886
551.40 0.6881
551.50 0.6876
551.60 0.6871
551.70 0.6867
551.80 0.6862
551.90 0.6857
552.00 0.6852
552.10 0.6847
552.20 0.6843
552.30 0.6838
552.40 0.6833
552.50 0.6828
552.60 0.6824
552.70 0.6819
552.80 0.6814
552.90 0.6809
553.00 0.6805
553.10 0.68
553.20 0.6795
553.30 0.679
553.40 0.6786
553.50 0.6781
553.60 0.6776
553.70 0.6771
553.80 0.6767
553.90 0.6762
554.00 0.6757
554.10 0.6753
554.20 0.6748
554.30 0.6743
554.40 0.6738
554.50 0.6734
554.60 0.6729
554.70 0.6724
554.80 0.672
554.90 0.6715
555.00 0.671
555.10 0.6706
555.20 0.6701
555.30 0.6696
555.40 0.6692
555.50 0.6687
555.60 0.6682
555.70 0.6678
555.80 0.6673
555.90 0.6669
556.00 0.6664
556.10 0.6659
556.20 0.6655
556.30 0.665
556.40 0.6645
556.50 0.6641
556.60 0.6636
556.70 0.6632
556.80 0.6627
556.90 0.6622
557.00 0.6618
557.10 0.6613
557.20 0.6609
557.30 0.6604
557.40 0.66
557.50 0.6595
557.60 0.659
557.70 0.6586
557.80 0.6581
557.90 0.6577
558.00 0.6572
558.10 0.6568
558.20 0.6563
558.30 0.6559
558.40 0.6554
558.50 0.655
558.60 0.6545
558.70 0.6541
558.80 0.6536
558.90 0.6531
559.00 0.6527
559.10 0.6522
559.20 0.6518
559.30 0.6513
559.40 0.6509
559.50 0.6504
559.60 0.65
559.70 0.6496
559.80 0.6491
559.90 0.6487
560.00 0.6482
560.10 0.6478
560.20 0.6473
560.30 0.6469
560.40 0.6464
560.50 0.646
560.60 0.6455
560.70 0.6451
560.80 0.6446
560.90 0.6442
561.00 0.6438
561.10 0.6433
561.20 0.6429
561.30 0.6424
561.40 0.642
561.50 0.6415
561.60 0.6411
561.70 0.6407
561.80 0.6402
561.90 0.6398
562.00 0.6393
562.10 0.6389
562.20 0.6385
562.30 0.638
562.40 0.6376
562.50 0.6372
562.60 0.6367
562.70 0.6363
562.80 0.6358
562.90 0.6354
563.00 0.635
563.10 0.6345
563.20 0.6341
563.30 0.6337
563.40 0.6332
563.50 0.6328
563.60 0.6324
563.70 0.6319
563.80 0.6315
563.90 0.6311
564.00 0.6306
564.10 0.6302
564.20 0.6298
564.30 0.6293
564.40 0.6289
564.50 0.6285
564.60 0.6281
564.70 0.6276
564.80 0.6272
564.90 0.6268
565.00 0.6263
565.10 0.6259
565.20 0.6255
565.30 0.6251
565.40 0.6246
565.50 0.6242
565.60 0.6238
565.70 0.6234
565.80 0.6229
565.90 0.6225
566.00 0.6221
566.10 0.6217
566.20 0.6212
566.30 0.6208
566.40 0.6204
566.50 0.62
566.60 0.6195
566.70 0.6191
566.80 0.6187
566.90 0.6183
567.00 0.6179
567.10 0.6174
567.20 0.617
567.30 0.6166
567.40 0.6162
567.50 0.6158
567.60 0.6153
567.70 0.6149
567.80 0.6145
567.90 0.6141
568.00 0.6137
568.10 0.6132
568.20 0.6128
568.30 0.6124
568.40 0.612
568.50 0.6116
568.60 0.6112
568.70 0.6108
568.80 0.6103
568.90 0.6099
569.00 0.6095
569.10 0.6091
569.20 0.6087
569.30 0.6083
569.40 0.6079
569.50 0.6074
569.60 0.607
569.70 0.6066
569.80 0.6062
569.90 0.6058
570.00 0.6054
570.10 0.605
570.20 0.6046
570.30 0.6042
570.40 0.6037
570.50 0.6033
570.60 0.6029
570.70 0.6025
570.80 0.6021
570.90 0.6017
571.00 0.6013
571.10 0.6009
571.20 0.6005
571.30 0.6001
571.40 0.5997
571.50 0.5993
571.60 0.5989
571.70 0.5985
571.80 0.5981
571.90 0.5977
572.00 0.5973
572.10 0.5968
572.20 0.5964
572.30 0.596
572.40 0.5956
572.50 0.5952
572.60 0.5948
572.70 0.5944
572.80 0.594
572.90 0.5936
573.00 0.5932
573.10 0.5928
573.20 0.5924
573.30 0.592
573.40 0.5916
573.50 0.5912
573.60 0.5908
573.70 0.5904
573.80 0.59
573.90 0.5897
574.00 0.5893
574.10 0.5889
574.20 0.5885
574.30 0.5881
574.40 0.5877
574.50 0.5873
574.60 0.5869
574.70 0.5865
574.80 0.5861
574.90 0.5857
575.00 0.5853
575.10 0.5849
575.20 0.5845
575.30 0.5841
575.40 0.5837
575.50 0.5833
575.60 0.583
575.70 0.5826
575.80 0.5822
575.90 0.5818
576.00 0.5814
576.10 0.581
576.20 0.5806
576.30 0.5802
576.40 0.5798
576.50 0.5794
576.60 0.5791
576.70 0.5787
576.80 0.5783
576.90 0.5779
577.00 0.5775
577.10 0.5771
577.20 0.5767
577.30 0.5763
577.40 0.576
577.50 0.5756
577.60 0.5752
577.70 0.5748
577.80 0.5744
577.90 0.574
578.00 0.5737
578.10 0.5733
578.20 0.5729
578.30 0.5725
578.40 0.5721
578.50 0.5717
578.60 0.5714
578.70 0.571
578.80 0.5706
578.90 0.5702
579.00 0.5698
579.10 0.5695
579.20 0.5691
579.30 0.5687
579.40 0.5683
579.50 0.5679
579.60 0.5676
579.70 0.5672
579.80 0.5668
579.90 0.5664
580.00 0.566
580.10 0.5657
580.20 0.5653
580.30 0.5649
580.40 0.5645
580.50 0.5642
580.60 0.5638
580.70 0.5634
580.80 0.563
580.90 0.5627
581.00 0.5623
581.10 0.5619
581.20 0.5615
581.30 0.5612
581.40 0.5608
581.50 0.5604
581.60 0.5601
581.70 0.5597
581.80 0.5593
581.90 0.5589
582.00 0.5586
582.10 0.5582
582.20 0.5578
582.30 0.5575
582.40 0.5571
582.50 0.5567
582.60 0.5563
582.70 0.556
582.80 0.5556
582.90 0.5552
583.00 0.5549
583.10 0.5545
583.20 0.5541
583.30 0.5538
583.40 0.5534
583.50 0.553
583.60 0.5527
583.70 0.5523
583.80 0.5519
583.90 0.5516
584.00 0.5512
584.10 0.5508
584.20 0.5505
584.30 0.5501
584.40 0.5498
584.50 0.5494
584.60 0.549
584.70 0.5487
584.80 0.5483
584.90 0.5479
585.00 0.5476
585.10 0.5472
585.20 0.5469
585.30 0.5465
585.40 0.5461
585.50 0.5458
585.60 0.5454
585.70 0.545
585.80 0.5447
585.90 0.5443
586.00 0.544
586.10 0.5436
586.20 0.5433
586.30 0.5429
586.40 0.5425
586.50 0.5422
586.60 0.5418
586.70 0.5415
586.80 0.5411
586.90 0.5408
587.00 0.5404
587.10 0.54
587.20 0.5397
587.30 0.5393
587.40 0.539
587.50 0.5386
587.60 0.5383
587.70 0.5379
587.80 0.5376
587.90 0.5372
588.00 0.5369
588.10 0.5365
588.20 0.5361
588.30 0.5358
588.40 0.5354
588.50 0.5351
588.60 0.5347
588.70 0.5344
588.80 0.534
588.90 0.5337
589.00 0.5333
589.10 0.533
589.20 0.5326
589.30 0.5323
589.40 0.5319
589.50 0.5316
589.60 0.5312
589.70 0.5309
589.80 0.5305
589.90 0.5302
590.00 0.5298
590.10 0.5295
590.20 0.5292
590.30 0.5288
590.40 0.5285
590.50 0.5281
590.60 0.5278
590.70 0.5274
590.80 0.5271
590.90 0.5267
591.00 0.5264
591.10 0.526
591.20 0.5257
591.30 0.5254
591.40 0.525
591.50 0.5247
591.60 0.5243
591.70 0.524
591.80 0.5236
591.90 0.5233
592.00 0.523
592.10 0.5226
592.20 0.5223
592.30 0.5219
592.40 0.5216
592.50 0.5213
592.60 0.5209
592.70 0.5206
592.80 0.5202
592.90 0.5199
593.00 0.5196
593.10 0.5192
593.20 0.5189
593.30 0.5185
593.40 0.5182
593.50 0.5179
593.60 0.5175
593.70 0.5172
593.80 0.5169
593.90 0.5165
594.00 0.5162
594.10 0.5158
594.20 0.5155
594.30 0.5152
594.40 0.5148
594.50 0.5145
594.60 0.5142
594.70 0.5138
594.80 0.5135
594.90 0.5132
595.00 0.5128
595.10 0.5125
595.20 0.5122
595.30 0.5118
595.40 0.5115
595.50 0.5112
595.60 0.5108
595.70 0.5105
595.80 0.5102
595.90 0.5098
596.00 0.5095
596.10 0.5092
596.20 0.5089
596.30 0.5085
596.40 0.5082
596.50 0.5079
596.60 0.5075
596.70 0.5072
596.80 0.5069
596.90 0.5066
597.00 0.5062
597.10 0.5059
597.20 0.5056
597.30 0.5052
597.40 0.5049
597.50 0.5046
597.60 0.5043
597.70 0.5039
597.80 0.5036
597.90 0.5033
598.00 0.503
598.10 0.5026
598.20 0.5023
598.30 0.502
598.40 0.5017
598.50 0.5013
598.60 0.501
598.70 0.5007
598.80 0.5004
598.90 0.5
599.00 0.4997
599.10 0.4994
599.20 0.4991
599.30 0.4987
599.40 0.4984
599.50 0.4981
599.60 0.4978
599.70 0.4975
599.80 0.4971
599.90 0.4968
600.00 0.4965
600.10 0.4962
600.20 0.4959
600.30 0.4955
600.40 0.4952
600.50 0.4949
600.60 0.4946
600.70 0.4943
600.80 0.4939
600.90 0.4936
601.00 0.4933
601.10 0.493
601.20 0.4927
601.30 0.4924
601.40 0.492
601.50 0.4917
601.60 0.4914
601.70 0.4911
601.80 0.4908
601.90 0.4905
602.00 0.4901
602.10 0.4898
602.20 0.4895
602.30 0.4892
602.40 0.4889
602.50 0.4886
602.60 0.4883
602.70 0.4879
602.80 0.4876
602.90 0.4873
603.00 0.487
603.10 0.4867
603.20 0.4864
603.30 0.4861
603.40 0.4858
603.50 0.4854
603.60 0.4851
603.70 0.4848
603.80 0.4845
603.90 0.4842
604.00 0.4839
604.10 0.4836
604.20 0.4833
604.30 0.483
604.40 0.4827
604.50 0.4823
604.60 0.482
604.70 0.4817
604.80 0.4814
604.90 0.4811
605.00 0.4808
605.10 0.4805
605.20 0.4802
605.30 0.4799
605.40 0.4796
605.50 0.4793
605.60 0.479
605.70 0.4787
605.80 0.4783
605.90 0.478
606.00 0.4777
606.10 0.4774
606.20 0.4771
606.30 0.4768
606.40 0.4765
606.50 0.4762
606.60 0.4759
606.70 0.4756
606.80 0.4753
606.90 0.475
607.00 0.4747
607.10 0.4744
607.20 0.4741
607.30 0.4738
607.40 0.4735
607.50 0.4732
607.60 0.4729
607.70 0.4726
607.80 0.4723
607.90 0.472
608.00 0.4717
608.10 0.4714
608.20 0.4711
608.30 0.4708
608.40 0.4705
608.50 0.4702
608.60 0.4699
608.70 0.4696
608.80 0.4693
608.90 0.469
609.00 0.4687
609.10 0.4684
609.20 0.4681
609.30 0.4678
609.40 0.4675
609.50 0.4672
609.60 0.4669
609.70 0.4666
609.80 0.4663
609.90 0.466
610.00 0.4657
610.10 0.4654
610.20 0.4651
610.30 0.4648
610.40 0.4645
610.50 0.4642
610.60 0.4639
610.70 0.4637
610.80 0.4634
610.90 0.4631
611.00 0.4628
611.10 0.4625
611.20 0.4622
611.30 0.4619
611.40 0.4616
611.50 0.4613
611.60 0.461
611.70 0.4607
611.80 0.4604
611.90 0.4601
612.00 0.4598
612.10 0.4596
612.20 0.4593
612.30 0.459
612.40 0.4587
612.50 0.4584
612.60 0.4581
612.70 0.4578
612.80 0.4575
612.90 0.4572
613.00 0.4569
613.10 0.4567
613.20 0.4564
613.30 0.4561
613.40 0.4558
613.50 0.4555
613.60 0.4552
613.70 0.4549
613.80 0.4546
613.90 0.4544
614.00 0.4541
614.10 0.4538
614.20 0.4535
614.30 0.4532
614.40 0.4529
614.50 0.4526
614.60 0.4524
614.70 0.4521
614.80 0.4518
614.90 0.4515
615.00 0.4512
615.10 0.4509
615.20 0.4506
615.30 0.4504
615.40 0.4501
615.50 0.4498
615.60 0.4495
615.70 0.4492
615.80 0.4489
615.90 0.4487
616.00 0.4484
616.10 0.4481
616.20 0.4478
616.30 0.4475
616.40 0.4473
616.50 0.447
616.60 0.4467
616.70 0.4464
616.80 0.4461
616.90 0.4458
617.00 0.4456
617.10 0.4453
617.20 0.445
617.30 0.4447
617.40 0.4444
617.50 0.4442
617.60 0.4439
617.70 0.4436
617.80 0.4433
617.90 0.4431
618.00 0.4428
618.10 0.4425
618.20 0.4422
618.30 0.4419
618.40 0.4417
618.50 0.4414
618.60 0.4411
618.70 0.4408
618.80 0.4406
618.90 0.4403
619.00 0.44
619.10 0.4397
619.20 0.4395
619.30 0.4392
619.40 0.4389
619.50 0.4386
619.60 0.4384
619.70 0.4381
619.80 0.4378
619.90 0.4375
620.00 0.4373
620.10 0.437
620.20 0.4367
620.30 0.4364
620.40 0.4362
620.50 0.4359
620.60 0.4356
620.70 0.4353
620.80 0.4351
620.90 0.4348
621.00 0.4345
621.10 0.4343
621.20 0.434
621.30 0.4337
621.40 0.4334
621.50 0.4332
621.60 0.4329
621.70 0.4326
621.80 0.4324
621.90 0.4321
622.00 0.4318
622.10 0.4315
622.20 0.4313
622.30 0.431
622.40 0.4307
622.50 0.4305
622.60 0.4302
622.70 0.4299
622.80 0.4297
622.90 0.4294
623.00 0.4291
623.10 0.4289
623.20 0.4286
623.30 0.4283
623.40 0.4281
623.50 0.4278
623.60 0.4275
623.70 0.4273
623.80 0.427
623.90 0.4267
624.00 0.4265
624.10 0.4262
624.20 0.4259
624.30 0.4257
624.40 0.4254
624.50 0.4251
624.60 0.4249
624.70 0.4246
624.80 0.4243
624.90 0.4241
625.00 0.4238
625.10 0.4235
625.20 0.4233
625.30 0.423
625.40 0.4228
625.50 0.4225
625.60 0.4222
625.70 0.422
625.80 0.4217
625.90 0.4214
626.00 0.4212
626.10 0.4209
626.20 0.4207
626.30 0.4204
626.40 0.4201
626.50 0.4199
626.60 0.4196
626.70 0.4194
626.80 0.4191
626.90 0.4188
627.00 0.4186
627.10 0.4183
627.20 0.4181
627.30 0.4178
627.40 0.4175
627.50 0.4173
627.60 0.417
627.70 0.4168
627.80 0.4165
627.90 0.4162
628.00 0.416
628.10 0.4157
628.20 0.4155
628.30 0.4152
628.40 0.4149
628.50 0.4147
628.60 0.4144
628.70 0.4142
628.80 0.4139
628.90 0.4137
629.00 0.4134
629.10 0.4131
629.20 0.4129
629.30 0.4126
629.40 0.4124
629.50 0.4121
629.60 0.4119
629.70 0.4116
629.80 0.4114
629.90 0.4111
630.00 0.4108
630.10 0.4106
630.20 0.4103
630.30 0.4101
630.40 0.4098
630.50 0.4096
630.60 0.4093
630.70 0.4091
630.80 0.4088
630.90 0.4086
631.00 0.4083
631.10 0.408
631.20 0.4078
631.30 0.4075
631.40 0.4073
631.50 0.407
631.60 0.4068
631.70 0.4065
631.80 0.4063
631.90 0.406
632.00 0.4058
632.10 0.4055
632.20 0.4053
632.30 0.405
632.40 0.4048
632.50 0.4045
632.60 0.4043
632.70 0.404
632.80 0.4038
632.90 0.4035
633.00 0.4033
633.10 0.403
633.20 0.4028
633.30 0.4025
633.40 0.4023
633.50 0.402
633.60 0.4018
633.70 0.4015
633.80 0.4013
633.90 0.401
634.00 0.4008
634.10 0.4005
634.20 0.4003
634.30 0.4
634.40 0.3998
634.50 0.3995
634.60 0.3993
634.70 0.399
634.80 0.3988
634.90 0.3985
635.00 0.3983
635.10 0.398
635.20 0.3978
635.30 0.3975
635.40 0.3973
635.50 0.397
635.60 0.3968
635.70 0.3966
635.80 0.3963
635.90 0.3961
636.00 0.3958
636.10 0.3956
636.20 0.3953
636.30 0.3951
636.40 0.3948
636.50 0.3946
636.60 0.3943
636.70 0.3941
636.80 0.3938
636.90 0.3936
637.00 0.3934
637.10 0.3931
637.20 0.3929
637.30 0.3926
637.40 0.3924
637.50 0.3921
637.60 0.3919
637.70 0.3916
637.80 0.3914
637.90 0.3911
638.00 0.3909
638.10 0.3907
638.20 0.3904
638.30 0.3902
638.40 0.3899
638.50 0.3897
638.60 0.3894
638.70 0.3892
638.80 0.3889
638.90 0.3887
639.00 0.3885
639.10 0.3882
639.20 0.388
639.30 0.3877
639.40 0.3875
639.50 0.3872
639.60 0.387
639.70 0.3867
639.80 0.3865
639.90 0.3863
640.00 0.386
640.10 0.3858
640.20 0.3855
640.30 0.3853
640.40 0.385
640.50 0.3848
640.60 0.3845
640.70 0.3843
640.80 0.3841
640.90 0.3838
641.00 0.3836
641.10 0.3833
641.20 0.3831
641.30 0.3828
641.40 0.3826
641.50 0.3823
641.60 0.3821
641.70 0.3818
641.80 0.3816
641.90 0.3814
642.00 0.3811
642.10 0.3809
642.20 0.3806
642.30 0.3804
642.40 0.3801
642.50 0.3799
642.60 0.3796
642.70 0.3794
642.80 0.3791
642.90 0.3789
643.00 0.3786
643.10 0.3784
643.20 0.3781
643.30 0.3779
643.40 0.3776
643.50 0.3774
643.60 0.3771
643.70 0.3769
643.80 0.3766
643.90 0.3764
644.00 0.3761
644.10 0.3759
644.20 0.3756
644.30 0.3754
644.40 0.3751
644.50 0.3749
644.60 0.3746
644.70 0.3744
644.80 0.3741
644.90 0.3739
645.00 0.3736
645.10 0.3733
645.20 0.3731
645.30 0.3728
645.40 0.3726
645.50 0.3723
645.60 0.372
645.70 0.3718
645.80 0.3715
645.90 0.3713
646.00 0.371
646.10 0.3707
646.20 0.3705
646.30 0.3702
646.40 0.3699
646.50 0.3697
646.60 0.3694
646.70 0.3691
646.80 0.3688
646.90 0.3686
647.00 0.3683
647.10 0.368
647.20 0.3678
647.30 0.3675
647.40 0.3672
647.50 0.3669
647.60 0.3666
647.70 0.3663
647.80 0.366
647.90 0.3658
648.00 0.3655
648.10 0.3652
648.20 0.3649
648.30 0.3646
648.40 0.3643
648.50 0.364
648.60 0.3637
648.70 0.3633
648.80 0.363
648.90 0.3627
649.00 0.3624
649.10 0.3621
649.20 0.3618
649.30 0.3615
649.40 0.3611
649.50 0.3608
649.60 0.3604
649.70 0.3601
649.80 0.3597
649.90 0.3594
650.00 0.359
650.10 0.3587
650.20 0.3583
650.30 0.358
650.40 0.3576
650.50 0.3572
650.60 0.3568
650.70 0.3564
650.80 0.356
650.90 0.3556
651.00 0.3552
651.10 0.3548
651.20 0.3544
651.30 0.354
651.40 0.3535
651.50 0.353
651.60 0.3525
651.70 0.352
651.80 0.3516
651.90 0.3511
652.00 0.3506
652.10 0.3501
652.20 0.3496
652.30 0.3491
652.40 0.3485
652.50 0.3479
652.60 0.3474
652.70 0.3468
652.80 0.3462
652.90 0.3456
653.00 0.345
653.10 0.3444
653.20 0.3438
653.30 0.3432
653.40 0.3424
653.50 0.3417
653.60 0.3409
653.70 0.3402
653.80 0.3394
653.90 0.3387
654.00 0.3379
654.10 0.3372
654.20 0.3364
654.30 0.3356
654.40 0.3348
654.50 0.3339
654.60 0.333
654.70 0.3322
654.80 0.3313
654.90 0.3304
655.00 0.3295
655.10 0.3285
655.20 0.3276
655.30 0.3267
655.40 0.3258
655.50 0.3249
655.60 0.324
655.70 0.3232
655.80 0.3226
655.90 0.3221
656.00 0.3225
656.10 0.3234
656.20 0.3335
656.30 0.347
656.40 0.3272
656.50 0.322
656.60 0.3212
656.70 0.3206
656.80 0.3209
656.90 0.3212
657.00 0.3217
657.10 0.3222
657.20 0.3227
657.30 0.3233
657.40 0.3238
657.50 0.3243
657.60 0.3249
657.70 0.3254
657.80 0.3259
657.90 0.3264
658.00 0.3269
658.10 0.3274
658.20 0.3278
658.30 0.3283
658.40 0.3286
658.50 0.329
658.60 0.3293
658.70 0.3297
658.80 0.33
658.90 0.3304
659.00 0.3307
659.10 0.3311
659.20 0.3314
659.30 0.3317
659.40 0.3319
659.50 0.3321
659.60 0.3323
659.70 0.3324
659.80 0.3326
659.90 0.3328
660.00 0.333
660.10 0.3332
660.20 0.3334
660.30 0.3335
660.40 0.3336
660.50 0.3336
660.60 0.3337
660.70 0.3338
660.80 0.3338
660.90 0.3339
661.00 0.334
661.10 0.334
661.20 0.3341
661.30 0.3341
661.40 0.3341
661.50 0.3341
661.60 0.3341
661.70 0.334
661.80 0.334
661.90 0.334
662.00 0.334
662.10 0.334
662.20 0.3339
662.30 0.3339
662.40 0.3338
662.50 0.3338
662.60 0.3337
662.70 0.3336
662.80 0.3335
662.90 0.3335
663.00 0.3334
663.10 0.3333
663.20 0.3332
663.30 0.3332
663.40 0.3331
663.50 0.3329
663.60 0.3328
663.70 0.3327
663.80 0.3326
663.90 0.3325
664.00 0.3324
664.10 0.3323
664.20 0.3322
664.30 0.3321
664.40 0.3319
664.50 0.3318
664.60 0.3317
664.70 0.3315
664.80 0.3314
664.90 0.3313
665.00 0.3311
665.10 0.331
665.20 0.3309
665.30 0.3307
665.40 0.3306
665.50 0.3304
665.60 0.3303
665.70 0.3301
665.80 0.33
665.90 0.3298
666.00 0.3297
666.10 0.3295
666.20 0.3294
666.30 0.3292
666.40 0.3291
666.50 0.3289
666.60 0.3288
666.70 0.3286
666.80 0.3284
666.90 0.3283
667.00 0.3281
667.10 0.328
667.20 0.3278
667.30 0.3277
667.40 0.3275
667.50 0.3273
667.60 0.3272
667.70 0.327
667.80 0.3268
667.90 0.3267
668.00 0.3265
668.10 0.3263
668.20 0.3262
668.30 0.326
668.40 0.3258
668.50 0.3257
668.60 0.3255
668.70 0.3253
668.80 0.3252
668.90 0.325
669.00 0.3248
669.10 0.3246
669.20 0.3245
669.30 0.3243
669.40 0.3241
669.50 0.324
669.60 0.3238
669.70 0.3236
669.80 0.3234
669.90 0.3233
670.00 0.3231
670.10 0.3229
670.20 0.3228
670.30 0.3226
670.40 0.3224
670.50 0.3222
670.60 0.3221
670.70 0.3219
670.80 0.3217
670.90 0.3215
671.00 0.3214
671.10 0.3212
671.20 0.321
671.30 0.3208
671.40 0.3207
671.50 0.3205
671.60 0.3203
671.70 0.3201
671.80 0.32
671.90 0.3198
672.00 0.3196
672.10 0.3194
672.20 0.3193
672.30 0.3191
672.40 0.3189
672.50 0.3187
672.60 0.3186
672.70 0.3184
672.80 0.3182
672.90 0.318
673.00 0.3179
673.10 0.3177
673.20 0.3175
673.30 0.3173
673.40 0.3172
673.50 0.317
673.60 0.3168
673.70 0.3166
673.80 0.3164
673.90 0.3163
674.00 0.3161
674.10 0.3159
674.20 0.3157
674.30 0.3156
674.40 0.3154
674.50 0.3152
674.60 0.315
674.70 0.3149
674.80 0.3147
674.90 0.3145
675.00 0.3143
675.10 0.3142
675.20 0.314
675.30 0.3138
675.40 0.3136
675.50 0.3135
675.60 0.3133
675.70 0.3131
675.80 0.3129
675.90 0.3128
676.00 0.3126
676.10 0.3124
676.20 0.3122
676.30 0.3121
676.40 0.3119
676.50 0.3117
676.60 0.3115
676.70 0.3114
676.80 0.3112
676.90 0.311
677.00 0.3108
677.10 0.3107
677.20 0.3105
677.30 0.3103
677.40 0.3101
677.50 0.31
677.60 0.3098
677.70 0.3096
677.80 0.3094
677.90 0.3093
678.00 0.3091
678.10 0.3089
678.20 0.3087
678.30 0.3086
678.40 0.3084
678.50 0.3082
678.60 0.3081
678.70 0.3079
678.80 0.3077
678.90 0.3075
679.00 0.3074
679.10 0.3072
679.20 0.307
679.30 0.3068
679.40 0.3067
679.50 0.3065
679.60 0.3063
679.70 0.3062
679.80 0.306
679.90 0.3058
680.00 0.3056
680.10 0.3055
680.20 0.3053
680.30 0.3051
680.40 0.3049
680.50 0.3048
680.60 0.3046
680.70 0.3044
680.80 0.3043
680.90 0.3041
681.00 0.3039
681.10 0.3037
681.20 0.3036
681.30 0.3034
681.40 0.3032
681.50 0.3031
681.60 0.3029
681.70 0.3027
681.80 0.3026
681.90 0.3024
682.00 0.3022
682.10 0.302
682.20 0.3019
682.30 0.3017
682.40 0.3015
682.50 0.3014
682.60 0.3012
682.70 0.301
682.80 0.3009
682.90 0.3007
683.00 0.3005
683.10 0.3003
683.20 0.3002
683.30 0.3
683.40 0.2998
683.50 0.2997
683.60 0.2995
683.70 0.2993
683.80 0.2992
683.90 0.299
684.00 0.2988
684.10 0.2987
684.20 0.2985
684.30 0.2983
684.40 0.2982
684.50 0.298
684.60 0.2978
684.70 0.2977
684.80 0.2975
684.90 0.2973
685.00 0.2971
685.10 0.297
685.20 0.2968
685.30 0.2966
685.40 0.2965
685.50 0.2963
685.60 0.2961
685.70 0.296
685.80 0.2958
685.90 0.2956
686.00 0.2955
686.10 0.2953
686.20 0.2951
686.30 0.295
686.40 0.2948
686.50 0.2947
686.60 0.2945
686.70 0.2943
686.80 0.2942
686.90 0.294
687.00 0.2938
687.10 0.2937
687.20 0.2935
687.30 0.2933
687.40 0.2932
687.50 0.293
687.60 0.2928
687.70 0.2927
687.80 0.2925
687.90 0.2923
688.00 0.2922
688.10 0.292
688.20 0.2919
688.30 0.2917
688.40 0.2915
688.50 0.2914
688.60 0.2912
688.70 0.291
688.80 0.2909
688.90 0.2907
689.00 0.2905
689.10 0.2904
689.20 0.2902
689.30 0.2901
689.40 0.2899
689.50 0.2897
689.60 0.2896
689.70 0.2894
689.80 0.2892
689.90 0.2891
690.00 0.2889
690.10 0.2888
690.20 0.2886
690.30 0.2884
690.40 0.2883
690.50 0.2881
690.60 0.288
690.70 0.2878
690.80 0.2876
690.90 0.2875
691.00 0.2873
691.10 0.2872
691.20 0.287
691.30 0.2868
691.40 0.2867
691.50 0.2865
691.60 0.2864
691.70 0.2862
691.80 0.286
691.90 0.2859
692.00 0.2857
692.10 0.2856
692.20 0.2854
692.30 0.2852
692.40 0.2851
692.50 0.2849
692.60 0.2848
692.70 0.2846
692.80 0.2844
692.90 0.2843
693.00 0.2841
693.10 0.284
693.20 0.2838
693.30 0.2836
693.40 0.2835
693.50 0.2833
693.60 0.2832
693.70 0.283
693.80 0.2829
693.90 0.2827
694.00 0.2825
694.10 0.2824
694.20 0.2822
694.30 0.2821
694.40 0.2819
694.50 0.2818
694.60 0.2816
694.70 0.2814
694.80 0.2813
694.90 0.2811
695.00 0.281
695.10 0.2808
695.20 0.2807
695.30 0.2805
695.40 0.2803
695.50 0.2802
695.60 0.28
695.70 0.2799
695.80 0.2797
695.90 0.2796
696.00 0.2794
696.10 0.2793
696.20 0.2791
696.30 0.2789
696.40 0.2788
696.50 0.2786
696.60 0.2785
696.70 0.2783
696.80 0.2782
696.90 0.278
697.00 0.2779
697.10 0.2777
697.20 0.2776
697.30 0.2774
697.40 0.2772
697.50 0.2771
697.60 0.2769
697.70 0.2768
697.80 0.2766
697.90 0.2765
698.00 0.2763
698.10 0.2762
698.20 0.276
698.30 0.2759
698.40 0.2757
698.50 0.2756
698.60 0.2754
698.70 0.2753
698.80 0.2751
698.90 0.2749
699.00 0.2748
699.10 0.2746
699.20 0.2745
699.30 0.2743
699.40 0.2742
699.50 0.274
699.60 0.2739
699.70 0.2737
699.80 0.2736
699.90 0.2734
700.00 0.2733
700.10 0.2731
700.20 0.273
700.30 0.2728
700.40 0.2727
700.50 0.2725
700.60 0.2724
700.70 0.2722
700.80 0.2721
700.90 0.2719
701.00 0.2718
701.10 0.2716
701.20 0.2715
701.30 0.2713
701.40 0.2712
701.50 0.271
701.60 0.2709
701.70 0.2707
701.80 0.2706
701.90 0.2704
702.00 0.2703
702.10 0.2701
702.20 0.27
702.30 0.2698
702.40 0.2697
702.50 0.2695
702.60 0.2694
702.70 0.2692
702.80 0.2691
702.90 0.2689
703.00 0.2688
703.10 0.2686
703.20 0.2685
703.30 0.2683
703.40 0.2682
703.50 0.268
703.60 0.2679
703.70 0.2678
703.80 0.2676
703.90 0.2675
704.00 0.2673
704.10 0.2672
704.20 0.267
704.30 0.2669
704.40 0.2667
704.50 0.2666
704.60 0.2664
704.70 0.2663
704.80 0.2661
704.90 0.266
705.00 0.2658
705.10 0.2657
705.20 0.2655
705.30 0.2654
705.40 0.2653
705.50 0.2651
705.60 0.265
705.70 0.2648
705.80 0.2647
705.90 0.2645
706.00 0.2644
706.10 0.2642
706.20 0.2641
706.30 0.264
706.40 0.2638
706.50 0.2637
706.60 0.2635
706.70 0.2634
706.80 0.2632
706.90 0.2631
707.00 0.2629
707.10 0.2628
707.20 0.2627
707.30 0.2625
707.40 0.2624
707.50 0.2622
707.60 0.2621
707.70 0.2619
707.80 0.2618
707.90 0.2616
708.00 0.2615
708.10 0.2614
708.20 0.2612
708.30 0.2611
708.40 0.2609
708.50 0.2608
708.60 0.2606
708.70 0.2605
708.80 0.2604
708.90 0.2602
709.00 0.2601
709.10 0.2599
709.20 0.2598
709.30 0.2596
709.40 0.2595
709.50 0.2594
709.60 0.2592
709.70 0.2591
709.80 0.2589
709.90 0.2588
710.00 0.2586
710.10 0.2585
710.20 0.2584
710.30 0.2582
710.40 0.2581
710.50 0.2579
710.60 0.2578
710.70 0.2577
710.80 0.2575
710.90 0.2574
711.00 0.2572
711.10 0.2571
711.20 0.257
711.30 0.2568
711.40 0.2567
711.50 0.2565
711.60 0.2564
711.70 0.2563
711.80 0.2561
711.90 0.256
712.00 0.2559
712.10 0.2557
712.20 0.2556
712.30 0.2554
712.40 0.2553
712.50 0.2552
712.60 0.255
712.70 0.2549
712.80 0.2547
712.90 0.2546
713.00 0.2545
713.10 0.2543
713.20 0.2542
713.30 0.254
713.40 0.2539
713.50 0.2538
713.60 0.2536
713.70 0.2535
713.80 0.2534
713.90 0.2532
714.00 0.2531
714.10 0.2529
714.20 0.2528
714.30 0.2527
714.40 0.2525
714.50 0.2524
714.60 0.2523
714.70 0.2521
714.80 0.252
714.90 0.2518
715.00 0.2517
715.10 0.2516
715.20 0.2514
715.30 0.2513
715.40 0.2512
715.50 0.251
715.60 0.2509
715.70 0.2508
715.80 0.2506
715.90 0.2505
716.00 0.2503
716.10 0.2502
716.20 0.2501
716.30 0.2499
716.40 0.2498
716.50 0.2497
716.60 0.2495
716.70 0.2494
716.80 0.2493
716.90 0.2491
717.00 0.249
717.10 0.2489
717.20 0.2487
717.30 0.2486
717.40 0.2485
717.50 0.2483
717.60 0.2482
717.70 0.2481
717.80 0.2479
717.90 0.2478
718.00 0.2477
718.10 0.2475
718.20 0.2474
718.30 0.2473
718.40 0.2471
718.50 0.247
718.60 0.2469
718.70 0.2467
718.80 0.2466
718.90 0.2465
719.00 0.2463
719.10 0.2462
719.20 0.2461
719.30 0.2459
719.40 0.2458
719.50 0.2457
719.60 0.2455
719.70 0.2454
719.80 0.2453
719.90 0.2451
720.00 0.245
720.10 0.2449
720.20 0.2447
720.30 0.2446
720.40 0.2445
720.50 0.2443
720.60 0.2442
720.70 0.2441
720.80 0.2439
720.90 0.2438
721.00 0.2437
721.10 0.2435
721.20 0.2434
721.30 0.2433
721.40 0.2432
721.50 0.243
721.60 0.2429
721.70 0.2428
721.80 0.2426
721.90 0.2425
722.00 0.2424
722.10 0.2422
722.20 0.2421
722.30 0.242
722.40 0.2419
722.50 0.2417
722.60 0.2416
722.70 0.2415
722.80 0.2413
722.90 0.2412
723.00 0.2411
723.10 0.2409
723.20 0.2408
723.30 0.2407
723.40 0.2406
723.50 0.2404
723.60 0.2403
723.70 0.2402
723.80 0.24
723.90 0.2399
724.00 0.2398
724.10 0.2397
724.20 0.2395
724.30 0.2394
724.40 0.2393
724.50 0.2391
724.60 0.239
724.70 0.2389
724.80 0.2388
724.90 0.2386
725.00 0.2385
725.10 0.2384
725.20 0.2382
725.30 0.2381
725.40 0.238
725.50 0.2379
725.60 0.2377
725.70 0.2376
725.80 0.2375
725.90 0.2374
726.00 0.2372
726.10 0.2371
726.20 0.237
726.30 0.2368
726.40 0.2367
726.50 0.2366
726.60 0.2365
726.70 0.2363
726.80 0.2362
726.90 0.2361
727.00 0.236
727.10 0.2358
727.20 0.2357
727.30 0.2356
727.40 0.2355
727.50 0.2353
727.60 0.2352
727.70 0.2351
727.80 0.235
727.90 0.2348
728.00 0.2347
728.10 0.2346
728.20 0.2345
728.30 0.2343
728.40 0.2342
728.50 0.2341
728.60 0.234
728.70 0.2338
728.80 0.2337
728.90 0.2336
729.00 0.2335
729.10 0.2333
729.20 0.2332
729.30 0.2331
729.40 0.233
729.50 0.2328
729.60 0.2327
729.70 0.2326
729.80 0.2325
729.90 0.2323
730.00 0.2322
730.10 0.2321
730.20 0.232
730.30 0.2318
730.40 0.2317
730.50 0.2316
730.60 0.2315
730.70 0.2314
730.80 0.2312
730.90 0.2311
731.00 0.231
731.10 0.2309
731.20 0.2308
731.30 0.2306
731.40 0.2305
731.50 0.2304
731.60 0.2303
731.70 0.2301
731.80 0.23
731.90 0.2299
732.00 0.2298
732.10 0.2297
732.20 0.2295
732.30 0.2294
732.40 0.2293
732.50 0.2292
732.60 0.2291
732.70 0.2289
732.80 0.2288
732.90 0.2287
733.00 0.2286
733.10 0.2284
733.20 0.2283
733.30 0.2282
733.40 0.2281
733.50 0.228
733.60 0.2278
733.70 0.2277
733.80 0.2276
733.90 0.2275
734.00 0.2274
734.10 0.2272
734.20 0.2271
734.30 0.227
734.40 0.2269
734.50 0.2268
734.60 0.2266
734.70 0.2265
734.80 0.2264
734.90 0.2263
735.00 0.2262
735.10 0.226
735.20 0.2259
735.30 0.2258
735.40 0.2257
735.50 0.2256
735.60 0.2255
735.70 0.2253
735.80 0.2252
735.90 0.2251
736.00 0.225
736.10 0.2249
736.20 0.2247
736.30 0.2246
736.40 0.2245
736.50 0.2244
736.60 0.2243
736.70 0.2241
736.80 0.224
736.90 0.2239
737.00 0.2238
737.10 0.2237
737.20 0.2236
737.30 0.2234
737.40 0.2233
737.50 0.2232
737.60 0.2231
737.70 0.223
737.80 0.2228
737.90 0.2227
738.00 0.2226
738.10 0.2225
738.20 0.2224
738.30 0.2223
738.40 0.2221
738.50 0.222
738.60 0.2219
738.70 0.2218
738.80 0.2217
738.90 0.2216
739.00 0.2214
739.10 0.2213
739.20 0.2212
739.30 0.2211
739.40 0.221
739.50 0.2208
739.60 0.2207
739.70 0.2206
739.80 0.2205
739.90 0.2204
740.00 0.2203
740.10 0.2201
740.20 0.22
740.30 0.2199
740.40 0.2198
740.50 0.2197
740.60 0.2196
740.70 0.2195
740.80 0.2193
740.90 0.2192
741.00 0.2191
741.10 0.219
741.20 0.2189
741.30 0.2188
741.40 0.2187
741.50 0.2186
741.60 0.2184
741.70 0.2183
741.80 0.2182
741.90 0.2181
742.00 0.218
742.10 0.2179
742.20 0.2178
742.30 0.2176
742.40 0.2175
742.50 0.2174
742.60 0.2173
742.70 0.2172
742.80 0.2171
742.90 0.217
743.00 0.2169
743.10 0.2167
743.20 0.2166
743.30 0.2165
743.40 0.2164
743.50 0.2163
743.60 0.2162
743.70 0.2161
743.80 0.2159
743.90 0.2158
744.00 0.2157
744.10 0.2156
744.20 0.2155
744.30 0.2154
744.40 0.2153
744.50 0.2152
744.60 0.2151
744.70 0.2149
744.80 0.2148
744.90 0.2147
745.00 0.2146
745.10 0.2145
745.20 0.2144
745.30 0.2143
745.40 0.2142
745.50 0.214
745.60 0.2139
745.70 0.2138
745.80 0.2137
745.90 0.2136
746.00 0.2135
746.10 0.2134
746.20 0.2133
746.30 0.2132
746.40 0.213
746.50 0.2129
746.60 0.2128
746.70 0.2127
746.80 0.2126
746.90 0.2125
747.00 0.2124
747.10 0.2123
747.20 0.2122
747.30 0.212
747.40 0.2119
747.50 0.2118
747.60 0.2117
747.70 0.2116
747.80 0.2115
747.90 0.2114
748.00 0.2113
748.10 0.2112
748.20 0.211
748.30 0.2109
748.40 0.2108
748.50 0.2107
748.60 0.2106
748.70 0.2105
748.80 0.2104
748.90 0.2103
749.00 0.2102
749.10 0.2101
749.20 0.2099
749.30 0.2098
749.40 0.2097
749.50 0.2096
749.60 0.2095
749.70 0.2094
749.80 0.2093
749.90 0.2092
750.00 0.2091
750.10 0.209
750.20 0.2089
750.30 0.2088
750.40 0.2086
750.50 0.2085
750.60 0.2084
750.70 0.2083
750.80 0.2082
750.90 0.2081
751.00 0.208
751.10 0.2079
751.20 0.2078
751.30 0.2077
751.40 0.2076
751.50 0.2075
751.60 0.2074
751.70 0.2073
751.80 0.2071
751.90 0.207
752.00 0.2069
752.10 0.2068
752.20 0.2067
752.30 0.2066
752.40 0.2065
752.50 0.2064
752.60 0.2063
752.70 0.2062
752.80 0.2061
752.90 0.206
753.00 0.2059
753.10 0.2058
753.20 0.2057
753.30 0.2056
753.40 0.2055
753.50 0.2053
753.60 0.2052
753.70 0.2051
753.80 0.205
753.90 0.2049
754.00 0.2048
754.10 0.2047
754.20 0.2046
754.30 0.2045
754.40 0.2044
754.50 0.2043
754.60 0.2042
754.70 0.2041
754.80 0.204
754.90 0.2039
755.00 0.2038
755.10 0.2037
755.20 0.2036
755.30 0.2035
755.40 0.2033
755.50 0.2032
755.60 0.2031
755.70 0.203
755.80 0.2029
755.90 0.2028
756.00 0.2027
756.10 0.2026
756.20 0.2025
756.30 0.2024
756.40 0.2023
756.50 0.2022
756.60 0.2021
756.70 0.202
756.80 0.2019
756.90 0.2018
757.00 0.2017
757.10 0.2016
757.20 0.2015
757.30 0.2014
757.40 0.2013
757.50 0.2012
757.60 0.2011
757.70 0.201
757.80 0.2008
757.90 0.2007
758.00 0.2006
758.10 0.2005
758.20 0.2004
758.30 0.2003
758.40 0.2002
758.50 0.2001
758.60 0.2
758.70 0.1999
758.80 0.1998
758.90 0.1997
759.00 0.1996
759.10 0.1995
759.20 0.1994
759.30 0.1993
759.40 0.1992
759.50 0.1991
759.60 0.199
759.70 0.1989
759.80 0.1988
759.90 0.1987
760.00 0.1986
760.10 0.1985
760.20 0.1984
760.30 0.1983
760.40 0.1982
760.50 0.1981
760.60 0.198
760.70 0.1979
760.80 0.1978
760.90 0.1977
761.00 0.1976
761.10 0.1975
761.20 0.1974
761.30 0.1973
761.40 0.1972
761.50 0.1971
761.60 0.197
761.70 0.1969
761.80 0.1968
761.90 0.1967
762.00 0.1966
762.10 0.1965
762.20 0.1964
762.30 0.1963
762.40 0.1962
762.50 0.1961
762.60 0.196
762.70 0.1959
762.80 0.1958
762.90 0.1957
763.00 0.1956
763.10 0.1955
763.20 0.1954
763.30 0.1953
763.40 0.1952
763.50 0.1951
763.60 0.195
763.70 0.1949
763.80 0.1948
763.90 0.1947
764.00 0.1946
764.10 0.1945
764.20 0.1944
764.30 0.1943
764.40 0.1942
764.50 0.1941
764.60 0.194
764.70 0.1939
764.80 0.1938
764.90 0.1937
765.00 0.1936
765.10 0.1935
765.20 0.1934
765.30 0.1933
765.40 0.1932
765.50 0.1931
765.60 0.193
765.70 0.1929
765.80 0.1928
765.90 0.1927
766.00 0.1926
766.10 0.1925
766.20 0.1924
766.30 0.1923
766.40 0.1922
766.50 0.1921
766.60 0.192
766.70 0.1919
766.80 0.1918
766.90 0.1917
767.00 0.1916
767.10 0.1916
767.20 0.1915
767.30 0.1914
767.40 0.1913
767.50 0.1912
767.60 0.1911
767.70 0.191
767.80 0.1909
767.90 0.1908
768.00 0.1907
768.10 0.1906
768.20 0.1905
768.30 0.1904
768.40 0.1903
768.50 0.1902
768.60 0.1901
768.70 0.19
768.80 0.1899
768.90 0.1898
769.00 0.1897
769.10 0.1896
769.20 0.1895
769.30 0.1894
769.40 0.1893
769.50 0.1892
769.60 0.1891
769.70 0.189
769.80 0.1889
769.90 0.1888
770.00 0.1887
770.10 0.1887
770.20 0.1886
770.30 0.1885
770.40 0.1884
770.50 0.1883
770.60 0.1882
770.70 0.1881
770.80 0.188
770.90 0.1879
771.00 0.1878
771.10 0.1877
771.20 0.1876
771.30 0.1875
771.40 0.1874
771.50 0.1873
771.60 0.1872
771.70 0.1871
771.80 0.1871
771.90 0.187
772.00 0.1869
772.10 0.1868
772.20 0.1867
772.30 0.1866
772.40 0.1865
772.50 0.1864
772.60 0.1863
772.70 0.1862
772.80 0.1861
772.90 0.186
773.00 0.1859
773.10 0.1858
773.20 0.1857
773.30 0.1857
773.40 0.1856
773.50 0.1855
773.60 0.1854
773.70 0.1853
773.80 0.1852
773.90 0.1851
774.00 0.185
774.10 0.1849
774.20 0.1848
774.30 0.1847
774.40 0.1846
774.50 0.1845
774.60 0.1844
774.70 0.1844
774.80 0.1843
774.90 0.1842
775.00 0.1841
775.10 0.184
775.20 0.1839
775.30 0.1838
775.40 0.1837
775.50 0.1836
775.60 0.1835
775.70 0.1834
775.80 0.1833
775.90 0.1832
776.00 0.1832
776.10 0.1831
776.20 0.183
776.30 0.1829
776.40 0.1828
776.50 0.1827
776.60 0.1826
776.70 0.1825
776.80 0.1824
776.90 0.1823
777.00 0.1822
777.10 0.1821
777.20 0.1821
777.30 0.182
777.40 0.1819
777.50 0.1818
777.60 0.1817
777.70 0.1816
777.80 0.1815
777.90 0.1814
778.00 0.1813
778.10 0.1812
778.20 0.1811
778.30 0.181
778.40 0.181
778.50 0.1809
778.60 0.1808
778.70 0.1807
778.80 0.1806
778.90 0.1805
779.00 0.1804
779.10 0.1803
779.20 0.1802
779.30 0.1801
779.40 0.1801
779.50 0.18
779.60 0.1799
779.70 0.1798
779.80 0.1797
779.90 0.1796
780.00 0.1795
780.10 0.1794
780.20 0.1793
780.30 0.1792
780.40 0.1792
780.50 0.1791
780.60 0.179
780.70 0.1789
780.80 0.1788
780.90 0.1787
781.00 0.1786
781.10 0.1785
781.20 0.1784
781.30 0.1784
781.40 0.1783
781.50 0.1782
781.60 0.1781
781.70 0.178
781.80 0.1779
781.90 0.1778
782.00 0.1777
782.10 0.1777
782.20 0.1776
782.30 0.1775
782.40 0.1774
782.50 0.1773
782.60 0.1772
782.70 0.1771
782.80 0.177
782.90 0.177
783.00 0.1769
783.10 0.1768
783.20 0.1767
783.30 0.1766
783.40 0.1765
783.50 0.1764
783.60 0.1763
783.70 0.1763
783.80 0.1762
783.90 0.1761
784.00 0.176
784.10 0.1759
784.20 0.1758
784.30 0.1757
784.40 0.1756
784.50 0.1756
784.60 0.1755
784.70 0.1754
784.80 0.1753
784.90 0.1752
785.00 0.1751
785.10 0.175
785.20 0.1749
785.30 0.1749
785.40 0.1748
785.50 0.1747
785.60 0.1746
785.70 0.1745
785.80 0.1744
785.90 0.1743
786.00 0.1743
786.10 0.1742
786.20 0.1741
786.30 0.174
786.40 0.1739
786.50 0.1738
786.60 0.1737
786.70 0.1737
786.80 0.1736
786.90 0.1735
787.00 0.1734
787.10 0.1733
787.20 0.1732
787.30 0.1731
787.40 0.1731
787.50 0.173
787.60 0.1729
787.70 0.1728
787.80 0.1727
787.90 0.1726
788.00 0.1725
788.10 0.1725
788.20 0.1724
788.30 0.1723
788.40 0.1722
788.50 0.1721
788.60 0.172
788.70 0.1719
788.80 0.1719
788.90 0.1718
789.00 0.1717
789.10 0.1716
789.20 0.1715
789.30 0.1714
789.40 0.1713
789.50 0.1713
789.60 0.1712
789.70 0.1711
789.80 0.171
789.90 0.1709
790.00 0.1708
790.10 0.1707
790.20 0.1707
790.30 0.1706
790.40 0.1705
790.50 0.1704
790.60 0.1703
790.70 0.1702
790.80 0.1702
790.90 0.1701
791.00 0.17
791.10 0.1699
791.20 0.1698
791.30 0.1698
791.40 0.1697
791.50 0.1696
791.60 0.1695
791.70 0.1694
791.80 0.1693
791.90 0.1693
792.00 0.1692
792.10 0.1691
792.20 0.169
792.30 0.1689
792.40 0.1688
792.50 0.1688
792.60 0.1687
792.70 0.1686
792.80 0.1685
792.90 0.1684
793.00 0.1683
793.10 0.1683
793.20 0.1682
793.30 0.1681
793.40 0.168
793.50 0.1679
793.60 0.1679
793.70 0.1678
793.80 0.1677
793.90 0.1676
794.00 0.1675
794.10 0.1674
794.20 0.1674
794.30 0.1673
794.40 0.1672
794.50 0.1671
794.60 0.167
794.70 0.167
794.80 0.1669
794.90 0.1668
795.00 0.1667
795.10 0.1666
795.20 0.1665
795.30 0.1665
795.40 0.1664
795.50 0.1663
795.60 0.1662
795.70 0.1661
795.80 0.1661
795.90 0.166
796.00 0.1659
796.10 0.1658
796.20 0.1657
796.30 0.1657
796.40 0.1656
796.50 0.1655
796.60 0.1654
796.70 0.1653
796.80 0.1652
796.90 0.1652
797.00 0.1651
797.10 0.165
797.20 0.1649
797.30 0.1648
797.40 0.1648
797.50 0.1647
797.60 0.1646
797.70 0.1645
797.80 0.1644
797.90 0.1644
798.00 0.1643
798.10 0.1642
798.20 0.1641
798.30 0.164
798.40 0.164
798.50 0.1639
798.60 0.1638
798.70 0.1637
798.80 0.1636
798.90 0.1636
799.00 0.1635
799.10 0.1634
799.20 0.1633
799.30 0.1632
799.40 0.1632
799.50 0.1631
799.60 0.163
799.70 0.1629
799.80 0.1628
799.90 0.1628
800.00 0.1627
800.10 0.1626
800.20 0.1625
800.30 0.1624
800.40 0.1624
800.50 0.1623
800.60 0.1622
800.70 0.1621
800.80 0.162
800.90 0.162
801.00 0.1619
801.10 0.1618
801.20 0.1617
801.30 0.1617
801.40 0.1616
801.50 0.1615
801.60 0.1614
801.70 0.1613
801.80 0.1613
801.90 0.1612
802.00 0.1611
802.10 0.161
802.20 0.161
802.30 0.1609
802.40 0.1608
802.50 0.1607
802.60 0.1606
802.70 0.1606
802.80 0.1605
802.90 0.1604
803.00 0.1603
803.10 0.1603
803.20 0.1602
803.30 0.1601
803.40 0.16
803.50 0.1599
803.60 0.1599
803.70 0.1598
803.80 0.1597
803.90 0.1596
804.00 0.1596
804.10 0.1595
804.20 0.1594
804.30 0.1593
804.40 0.1593
804.50 0.1592
804.60 0.1591
804.70 0.159
804.80 0.1589
804.90 0.1589
805.00 0.1588
805.10 0.1587
805.20 0.1586
805.30 0.1586
805.40 0.1585
805.50 0.1584
805.60 0.1583
805.70 0.1583
805.80 0.1582
805.90 0.1581
806.00 0.158
806.10 0.158
806.20 0.1579
806.30 0.1578
806.40 0.1577
806.50 0.1576
806.60 0.1576
806.70 0.1575
806.80 0.1574
806.90 0.1573
807.00 0.1573
807.10 0.1572
807.20 0.1571
807.30 0.157
807.40 0.157
807.50 0.1569
807.60 0.1568
807.70 0.1567
807.80 0.1567
807.90 0.1566
808.00 0.1565
808.10 0.1564
808.20 0.1564
808.30 0.1563
808.40 0.1562
808.50 0.1561
808.60 0.1561
808.70 0.156
808.80 0.1559
808.90 0.1558
809.00 0.1558
809.10 0.1557
809.20 0.1556
809.30 0.1555
809.40 0.1554
809.50 0.1554
809.60 0.1553
809.70 0.1552
809.80 0.1551
809.90 0.1551
810.00 0.155
810.10 0.1549
810.20 0.1548
810.30 0.1548
810.40 0.1547
810.50 0.1546
810.60 0.1546
810.70 0.1545
810.80 0.1544
810.90 0.1543
811.00 0.1543
811.10 0.1542
811.20 0.1541
811.30 0.154
811.40 0.154
811.50 0.1539
811.60 0.1538
811.70 0.1537
811.80 0.1537
811.90 0.1536
812.00 0.1535
812.10 0.1535
812.20 0.1534
812.30 0.1533
812.40 0.1532
812.50 0.1532
812.60 0.1531
812.70 0.153
812.80 0.1529
812.90 0.1529
813.00 0.1528
813.10 0.1527
813.20 0.1527
813.30 0.1526
813.40 0.1525
813.50 0.1524
813.60 0.1524
813.70 0.1523
813.80 0.1522
813.90 0.1521
814.00 0.1521
814.10 0.152
814.20 0.1519
814.30 0.1519
814.40 0.1518
814.50 0.1517
814.60 0.1516
814.70 0.1516
814.80 0.1515
814.90 0.1514
815.00 0.1513
815.10 0.1513
815.20 0.1512
815.30 0.1511
815.40 0.1511
815.50 0.151
815.60 0.1509
815.70 0.1508
815.80 0.1508
815.90 0.1507
816.00 0.1506
816.10 0.1506
816.20 0.1505
816.30 0.1504
816.40 0.1503
816.50 0.1503
816.60 0.1502
816.70 0.1501
816.80 0.15
816.90 0.15
817.00 0.1499
817.10 0.1498
817.20 0.1498
817.30 0.1497
817.40 0.1496
817.50 0.1495
817.60 0.1495
817.70 0.1494
817.80 0.1493
817.90 0.1493
818.00 0.1492
818.10 0.1491
818.20 0.149
818.30 0.149
818.40 0.1489
818.50 0.1488
818.60 0.1488
818.70 0.1487
818.80 0.1486
818.90 0.1485
819.00 0.1485
819.10 0.1484
819.20 0.1483
819.30 0.1483
819.40 0.1482
819.50 0.1481
819.60 0.1481
819.70 0.148
819.80 0.1479
819.90 0.1478
820.00 0.1478
820.10 0.1477
820.20 0.1476
820.30 0.1476
820.40 0.1475
820.50 0.1474
820.60 0.1473
820.70 0.1473
820.80 0.1472
820.90 0.1471
821.00 0.1471
821.10 0.147
821.20 0.1469
821.30 0.1469
821.40 0.1468
821.50 0.1467
821.60 0.1467
821.70 0.1466
821.80 0.1465
821.90 0.1464
822.00 0.1464
822.10 0.1463
822.20 0.1462
822.30 0.1462
822.40 0.1461
822.50 0.146
822.60 0.146
822.70 0.1459
822.80 0.1458
822.90 0.1458
823.00 0.1457
823.10 0.1456
823.20 0.1455
823.30 0.1455
823.40 0.1454
823.50 0.1453
823.60 0.1453
823.70 0.1452
823.80 0.1451
823.90 0.1451
824.00 0.145
824.10 0.1449
824.20 0.1449
824.30 0.1448
824.40 0.1447
824.50 0.1447
824.60 0.1446
824.70 0.1445
824.80 0.1445
824.90 0.1444
825.00 0.1443
825.10 0.1442
825.20 0.1442
825.30 0.1441
825.40 0.144
825.50 0.144
825.60 0.1439
825.70 0.1438
825.80 0.1438
825.90 0.1437
826.00 0.1436
826.10 0.1436
826.20 0.1435
826.30 0.1434
826.40 0.1434
826.50 0.1433
826.60 0.1432
826.70 0.1432
826.80 0.1431
826.90 0.143
827.00 0.143
827.10 0.1429
827.20 0.1428
827.30 0.1428
827.40 0.1427
827.50 0.1426
827.60 0.1426
827.70 0.1425
827.80 0.1424
827.90 0.1424
828.00 0.1423
828.10 0.1422
828.20 0.1422
828.30 0.1421
828.40 0.142
828.50 0.142
828.60 0.1419
828.70 0.1418
828.80 0.1418
828.90 0.1417
829.00 0.1416
829.10 0.1416
829.20 0.1415
829.30 0.1414
829.40 0.1414
829.50 0.1413
829.60 0.1412
829.70 0.1412
829.80 0.1411
829.90 0.141
830.00 0.141
830.10 0.1409
830.20 0.1408
830.30 0.1408
830.40 0.1407
830.50 0.1406
830.60 0.1406
830.70 0.1405
830.80 0.1404
830.90 0.1404
831.00 0.1403
831.10 0.1402
831.20 0.1402
831.30 0.1401
831.40 0.14
831.50 0.14
831.60 0.1399
831.70 0.1398
831.80 0.1398
831.90 0.1397
832.00 0.1396
832.10 0.1396
832.20 0.1395
832.30 0.1394
832.40 0.1394
832.50 0.1393
832.60 0.1393
832.70 0.1392
832.80 0.1391
832.90 0.1391
833.00 0.139
833.10 0.1389
833.20 0.1389
833.30 0.1388
833.40 0.1387
833.50 0.1387
833.60 0.1386
833.70 0.1385
833.80 0.1385
833.90 0.1384
834.00 0.1383
834.10 0.1383
834.20 0.1382
834.30 0.1382
834.40 0.1381
834.50 0.138
834.60 0.138
834.70 0.1379
834.80 0.1378
834.90 0.1378
835.00 0.1377
835.10 0.1376
835.20 0.1376
835.30 0.1375
835.40 0.1374
835.50 0.1374
835.60 0.1373
835.70 0.1373
835.80 0.1372
835.90 0.1371
836.00 0.1371
836.10 0.137
836.20 0.1369
836.30 0.1369
836.40 0.1368
836.50 0.1367
836.60 0.1367
836.70 0.1366
836.80 0.1365
836.90 0.1365
837.00 0.1364
837.10 0.1364
837.20 0.1363
837.30 0.1362
837.40 0.1362
837.50 0.1361
837.60 0.136
837.70 0.136
837.80 0.1359
837.90 0.1358
838.00 0.1358
838.10 0.1357
838.20 0.1357
838.30 0.1356
838.40 0.1355
838.50 0.1355
838.60 0.1354
838.70 0.1353
838.80 0.1353
838.90 0.1352
839.00 0.1352
839.10 0.1351
839.20 0.135
839.30 0.135
839.40 0.1349
839.50 0.1348
839.60 0.1348
839.70 0.1347
839.80 0.1347
839.90 0.1346
840.00 0.1345
840.10 0.1345
840.20 0.1344
840.30 0.1343
840.40 0.1343
840.50 0.1342
840.60 0.1342
840.70 0.1341
840.80 0.134
840.90 0.134
841.00 0.1339
841.10 0.1338
841.20 0.1338
841.30 0.1337
841.40 0.1337
841.50 0.1336
841.60 0.1335
841.70 0.1335
841.80 0.1334
841.90 0.1333
842.00 0.1333
842.10 0.1332
842.20 0.1332
842.30 0.1331
842.40 0.133
842.50 0.133
842.60 0.1329
842.70 0.1329
842.80 0.1328
842.90 0.1327
843.00 0.1327
843.10 0.1326
843.20 0.1325
843.30 0.1325
843.40 0.1324
843.50 0.1324
843.60 0.1323
843.70 0.1322
843.80 0.1322
843.90 0.1321
844.00 0.1321
844.10 0.132
844.20 0.1319
844.30 0.1319
844.40 0.1318
844.50 0.1318
844.60 0.1317
844.70 0.1316
844.80 0.1316
844.90 0.1315
845.00 0.1314
845.10 0.1314
845.20 0.1313
845.30 0.1313
845.40 0.1312
845.50 0.1311
845.60 0.1311
845.70 0.131
845.80 0.131
845.90 0.1309
846.00 0.1308
846.10 0.1308
846.20 0.1307
846.30 0.1307
846.40 0.1306
846.50 0.1305
846.60 0.1305
846.70 0.1304
846.80 0.1304
846.90 0.1303
847.00 0.1302
847.10 0.1302
847.20 0.1301
847.30 0.1301
847.40 0.13
847.50 0.1299
847.60 0.1299
847.70 0.1298
847.80 0.1298
847.90 0.1297
848.00 0.1296
848.10 0.1296
848.20 0.1295
848.30 0.1295
848.40 0.1294
848.50 0.1293
848.60 0.1293
848.70 0.1292
848.80 0.1292
848.90 0.1291
849.00 0.129
849.10 0.129
849.20 0.1289
849.30 0.1289
849.40 0.1288
849.50 0.1288
849.60 0.1287
849.70 0.1286
849.80 0.1286
849.90 0.1285
850.00 0.1285
850.10 0.1284
850.20 0.1283
850.30 0.1283
850.40 0.1282
850.50 0.1282
850.60 0.1281
850.70 0.128
850.80 0.128
850.90 0.1279
851.00 0.1279
851.10 0.1278
851.20 0.1277
851.30 0.1277
851.40 0.1276
851.50 0.1276
851.60 0.1275
851.70 0.1275
851.80 0.1274
851.90 0.1273
852.00 0.1273
852.10 0.1272
852.20 0.1272
852.30 0.1271
852.40 0.127
852.50 0.127
852.60 0.1269
852.70 0.1269
852.80 0.1268
852.90 0.1268
853.00 0.1267
853.10 0.1266
853.20 0.1266
853.30 0.1265
853.40 0.1265
853.50 0.1264
853.60 0.1264
853.70 0.1263
853.80 0.1262
853.90 0.1262
854.00 0.1261
854.10 0.1261
854.20 0.126
854.30 0.1259
854.40 0.1259
854.50 0.1258
854.60 0.1258
854.70 0.1257
854.80 0.1257
854.90 0.1256
855.00 0.1255
855.10 0.1255
855.20 0.1254
855.30 0.1254
855.40 0.1253
855.50 0.1253
855.60 0.1252
855.70 0.1251
855.80 0.1251
855.90 0.125
856.00 0.125
856.10 0.1249
856.20 0.1249
856.30 0.1248
856.40 0.1247
856.50 0.1247
856.60 0.1246
856.70 0.1246
856.80 0.1245
856.90 0.1245
857.00 0.1244
857.10 0.1243
857.20 0.1243
857.30 0.1242
857.40 0.1242
857.50 0.1241
857.60 0.1241
857.70 0.124
857.80 0.124
857.90 0.1239
858.00 0.1238
858.10 0.1238
858.20 0.1237
858.30 0.1237
858.40 0.1236
858.50 0.1236
858.60 0.1235
858.70 0.1235
858.80 0.1234
858.90 0.1233
859.00 0.1233
859.10 0.1232
859.20 0.1232
859.30 0.1231
859.40 0.1231
859.50 0.123
859.60 0.1229
859.70 0.1229
859.80 0.1228
859.90 0.1228
860.00 0.1227
860.10 0.1227
860.20 0.1226
860.30 0.1226
860.40 0.1225
860.50 0.1224
860.60 0.1224
860.70 0.1223
860.80 0.1223
860.90 0.1222
861.00 0.1222
861.10 0.1221
861.20 0.1221
861.30 0.122
861.40 0.122
861.50 0.1219
861.60 0.1218
861.70 0.1218
861.80 0.1217
861.90 0.1217
862.00 0.1216
862.10 0.1216
862.20 0.1215
862.30 0.1215
862.40 0.1214
862.50 0.1213
862.60 0.1213
862.70 0.1212
862.80 0.1212
862.90 0.1211
863.00 0.1211
863.10 0.121
863.20 0.121
863.30 0.1209
863.40 0.1209
863.50 0.1208
863.60 0.1207
863.70 0.1207
863.80 0.1206
863.90 0.1206
864.00 0.1205
864.10 0.1205
864.20 0.1204
864.30 0.1204
864.40 0.1203
864.50 0.1203
864.60 0.1202
864.70 0.1201
864.80 0.1201
864.90 0.12
865.00 0.12
865.10 0.1199
865.20 0.1199
865.30 0.1198
865.40 0.1198
865.50 0.1197
865.60 0.1197
865.70 0.1196
865.80 0.1195
865.90 0.1195
866.00 0.1194
866.10 0.1194
866.20 0.1193
866.30 0.1193
866.40 0.1192
866.50 0.1192
866.60 0.1191
866.70 0.1191
866.80 0.119
866.90 0.119
867.00 0.1189
867.10 0.1188
867.20 0.1188
867.30 0.1187
867.40 0.1187
867.50 0.1186
867.60 0.1186
867.70 0.1185
867.80 0.1185
867.90 0.1184
868.00 0.1184
868.10 0.1183
868.20 0.1183
868.30 0.1182
868.40 0.1182
868.50 0.1181
868.60 0.1181
868.70 0.118
868.80 0.1179
868.90 0.1179
869.00 0.1178
869.10 0.1178
869.20 0.1177
869.30 0.1177
869.40 0.1176
869.50 0.1176
869.60 0.1175
869.70 0.1175
869.80 0.1174
869.90 0.1174
870.00 0.1173
870.10 0.1173
870.20 0.1172
870.30 0.1172
870.40 0.1171
870.50 0.1171
870.60 0.117
870.70 0.1169
870.80 0.1169
870.90 0.1168
871.00 0.1168
871.10 0.1167
871.20 0.1167
871.30 0.1166
871.40 0.1166
871.50 0.1165
871.60 0.1165
871.70 0.1164
871.80 0.1164
871.90 0.1163
872.00 0.1163
872.10 0.1162
872.20 0.1162
872.30 0.1161
872.40 0.1161
872.50 0.116
872.60 0.116
872.70 0.1159
872.80 0.1158
872.90 0.1158
873.00 0.1157
873.10 0.1157
873.20 0.1156
873.30 0.1156
873.40 0.1155
873.50 0.1155
873.60 0.1154
873.70 0.1154
873.80 0.1153
873.90 0.1153
874.00 0.1152
874.10 0.1152
874.20 0.1151
874.30 0.1151
874.40 0.115
874.50 0.115
874.60 0.1149
874.70 0.1149
874.80 0.1148
874.90 0.1148
875.00 0.1147
875.10 0.1147
875.20 0.1146
875.30 0.1146
875.40 0.1145
875.50 0.1145
875.60 0.1144
875.70 0.1144
875.80 0.1143
875.90 0.1143
876.00 0.1142
876.10 0.1142
876.20 0.1141
876.30 0.1141
876.40 0.114
876.50 0.114
876.60 0.1139
876.70 0.1138
876.80 0.1138
876.90 0.1137
877.00 0.1137
877.10 0.1136
877.20 0.1136
877.30 0.1135
877.40 0.1135
877.50 0.1134
877.60 0.1134
877.70 0.1133
877.80 0.1133
877.90 0.1132
878.00 0.1132
878.10 0.1131
878.20 0.1131
878.30 0.113
878.40 0.113
878.50 0.1129
878.60 0.1129
878.70 0.1128
878.80 0.1128
878.90 0.1127
879.00 0.1127
879.10 0.1126
879.20 0.1126
879.30 0.1125
879.40 0.1125
879.50 0.1124
879.60 0.1124
879.70 0.1123
879.80 0.1123
879.90 0.1122
880.00 0.1122
880.10 0.1121
880.20 0.1121
880.30 0.112
880.40 0.112
880.50 0.1119
880.60 0.1119
880.70 0.1118
880.80 0.1118
880.90 0.1117
881.00 0.1117
881.10 0.1116
881.20 0.1116
881.30 0.1115
881.40 0.1115
881.50 0.1115
881.60 0.1114
881.70 0.1114
881.80 0.1113
881.90 0.1113
882.00 0.1112
882.10 0.1112
882.20 0.1111
882.30 0.1111
882.40 0.111
882.50 0.111
882.60 0.1109
882.70 0.1109
882.80 0.1108
882.90 0.1108
883.00 0.1107
883.10 0.1107
883.20 0.1106
883.30 0.1106
883.40 0.1105
883.50 0.1105
883.60 0.1104
883.70 0.1104
883.80 0.1103
883.90 0.1103
884.00 0.1102
884.10 0.1102
884.20 0.1101
884.30 0.1101
884.40 0.11
884.50 0.11
884.60 0.1099
884.70 0.1099
884.80 0.1098
884.90 0.1098
885.00 0.1097
885.10 0.1097
885.20 0.1096
885.30 0.1096
885.40 0.1096
885.50 0.1095
885.60 0.1095
885.70 0.1094
885.80 0.1094
885.90 0.1093
886.00 0.1093
886.10 0.1092
886.20 0.1092
886.30 0.1091
886.40 0.1091
886.50 0.109
886.60 0.109
886.70 0.1089
886.80 0.1089
886.90 0.1088
887.00 0.1088
887.10 0.1087
887.20 0.1087
887.30 0.1086
887.40 0.1086
887.50 0.1085
887.60 0.1085
887.70 0.1084
887.80 0.1084
887.90 0.1084
888.00 0.1083
888.10 0.1083
888.20 0.1082
888.30 0.1082
888.40 0.1081
888.50 0.1081
888.60 0.108
888.70 0.108
888.80 0.1079
888.90 0.1079
889.00 0.1078
889.10 0.1078
889.20 0.1077
889.30 0.1077
889.40 0.1076
889.50 0.1076
889.60 0.1075
889.70 0.1075
889.80 0.1075
889.90 0.1074
890.00 0.1074
890.10 0.1073
890.20 0.1073
890.30 0.1072
890.40 0.1072
890.50 0.1071
890.60 0.1071
890.70 0.107
890.80 0.107
890.90 0.1069
891.00 0.1069
891.10 0.1068
891.20 0.1068
891.30 0.1067
891.40 0.1067
891.50 0.1067
891.60 0.1066
891.70 0.1066
891.80 0.1065
891.90 0.1065
892.00 0.1064
892.10 0.1064
892.20 0.1063
892.30 0.1063
892.40 0.1062
892.50 0.1062
892.60 0.1061
892.70 0.1061
892.80 0.1061
892.90 0.106
893.00 0.106
893.10 0.1059
893.20 0.1059
893.30 0.1058
893.40 0.1058
893.50 0.1057
893.60 0.1057
893.70 0.1056
893.80 0.1056
893.90 0.1055
894.00 0.1055
894.10 0.1055
894.20 0.1054
894.30 0.1054
894.40 0.1053
894.50 0.1053
894.60 0.1052
894.70 0.1052
894.80 0.1051
894.90 0.1051
895.00 0.105
895.10 0.105
895.20 0.105
895.30 0.1049
895.40 0.1049
895.50 0.1048
895.60 0.1048
895.70 0.1047
895.80 0.1047
895.90 0.1046
896.00 0.1046
896.10 0.1045
896.20 0.1045
896.30 0.1044
896.40 0.1044
896.50 0.1044
896.60 0.1043
896.70 0.1043
896.80 0.1042
896.90 0.1042
897.00 0.1041
897.10 0.1041
897.20 0.104
897.30 0.104
897.40 0.104
897.50 0.1039
897.60 0.1039
897.70 0.1038
897.80 0.1038
897.90 0.1037
898.00 0.1037
898.10 0.1036
898.20 0.1036
898.30 0.1035
898.40 0.1035
898.50 0.1035
898.60 0.1034
898.70 0.1034
898.80 0.1033
898.90 0.1033
899.00 0.1032
899.10 0.1032
899.20 0.1031
899.30 0.1031
899.40 0.1031
899.50 0.103
899.60 0.103
899.70 0.1029
899.80 0.1029
899.90 0.1028
900.00 0.1028
900.10 0.1027
900.20 0.1027
900.30 0.1027
900.40 0.1026
900.50 0.1026
900.60 0.1025
900.70 0.1025
900.80 0.1024
900.90 0.1024
901.00 0.1023
901.10 0.1023
901.20 0.1023
901.30 0.1022
901.40 0.1022
901.50 0.1021
901.60 0.1021
901.70 0.102
901.80 0.102
901.90 0.102
902.00 0.1019
902.10 0.1019
902.20 0.1018
902.30 0.1018
902.40 0.1017
902.50 0.1017
902.60 0.1016
902.70 0.1016
902.80 0.1016
902.90 0.1015
903.00 0.1015
903.10 0.1014
903.20 0.1014
903.30 0.1013
903.40 0.1013
903.50 0.1013
903.60 0.1012
903.70 0.1012
903.80 0.1011
903.90 0.1011
904.00 0.101
904.10 0.101
904.20 0.1009
904.30 0.1009
904.40 0.1009
904.50 0.1008
904.60 0.1008
904.70 0.1007
904.80 0.1007
904.90 0.1006
905.00 0.1006
905.10 0.1006
905.20 0.1005
905.30 0.1005
905.40 0.1004
905.50 0.1004
905.60 0.1003
905.70 0.1003
905.80 0.1003
905.90 0.1002
906.00 0.1002
906.10 0.1001
906.20 0.1001
906.30 0.1
906.40 0.09999
906.50 0.09995
906.60 0.09991
906.70 0.09986
906.80 0.09982
906.90 0.09978
907.00 0.09973
907.10 0.09969
907.20 0.09965
907.30 0.09961
907.40 0.09956
907.50 0.09952
907.60 0.09948
907.70 0.09944
907.80 0.09939
907.90 0.09935
908.00 0.09931
908.10 0.09927
908.20 0.09922
908.30 0.09918
908.40 0.09914
908.50 0.0991
908.60 0.09905
908.70 0.09901
908.80 0.09897
908.90 0.09893
909.00 0.09888
909.10 0.09884
909.20 0.0988
909.30 0.09876
909.40 0.09872
909.50 0.09867
909.60 0.09863
909.70 0.09859
909.80 0.09855
909.90 0.0985
910.00 0.09846
910.10 0.09842
910.20 0.09838
910.30 0.09834
910.40 0.09829
910.50 0.09825
910.60 0.09821
910.70 0.09817
910.80 0.09813
910.90 0.09808
911.00 0.09804
911.10 0.098
911.20 0.09796
911.30 0.09792
911.40 0.09787
911.50 0.09783
911.60 0.09779
911.70 0.09775
911.80 0.09771
911.90 0.09766
912.00 0.09762
912.10 0.09758
912.20 0.09754
912.30 0.0975
912.40 0.09746
912.50 0.09742
912.60 0.09737
912.70 0.09733
912.80 0.09729
912.90 0.09725
913.00 0.09721
913.10 0.09717
913.20 0.09713
913.30 0.09708
913.40 0.09704
913.50 0.097
913.60 0.09696
913.70 0.09692
913.80 0.09688
913.90 0.09684
914.00 0.0968
914.10 0.09675
914.20 0.09671
914.30 0.09667
914.40 0.09663
914.50 0.09659
914.60 0.09655
914.70 0.09651
914.80 0.09647
914.90 0.09643
915.00 0.09639
915.10 0.09634
915.20 0.0963
915.30 0.09626
915.40 0.09622
915.50 0.09618
915.60 0.09614
915.70 0.0961
915.80 0.09606
915.90 0.09602
916.00 0.09598
916.10 0.09594
916.20 0.09589
916.30 0.09585
916.40 0.09581
916.50 0.09577
916.60 0.09573
916.70 0.09569
916.80 0.09565
916.90 0.09561
917.00 0.09557
917.10 0.09553
917.20 0.09549
917.30 0.09545
917.40 0.09541
917.50 0.09537
917.60 0.09533
917.70 0.09529
917.80 0.09525
917.90 0.09521
918.00 0.09517
918.10 0.09513
918.20 0.09509
918.30 0.09505
918.40 0.09501
918.50 0.09497
918.60 0.09493
918.70 0.09489
918.80 0.09485
918.90 0.09481
919.00 0.09477
919.10 0.09473
919.20 0.09469
919.30 0.09465
919.40 0.09461
919.50 0.09457
919.60 0.09453
919.70 0.09449
919.80 0.09445
919.90 0.09441
920.00 0.09437
920.10 0.09433
920.20 0.09429
920.30 0.09425
920.40 0.09421
920.50 0.09417
920.60 0.09413
920.70 0.09409
920.80 0.09405
920.90 0.09401
921.00 0.09398
921.10 0.09394
921.20 0.0939
921.30 0.09386
921.40 0.09382
921.50 0.09378
921.60 0.09374
921.70 0.0937
921.80 0.09366
921.90 0.09362
922.00 0.09358
922.10 0.09354
922.20 0.0935
922.30 0.09346
922.40 0.09342
922.50 0.09338
922.60 0.09334
922.70 0.09331
922.80 0.09327
922.90 0.09323
923.00 0.09319
923.10 0.09315
923.20 0.09311
923.30 0.09307
923.40 0.09303
923.50 0.09299
923.60 0.09295
923.70 0.09291
923.80 0.09287
923.90 0.09283
924.00 0.0928
924.10 0.09276
924.20 0.09272
924.30 0.09268
924.40 0.09264
924.50 0.0926
924.60 0.09256
924.70 0.09252
924.80 0.09248
924.90 0.09244
925.00 0.09241
925.10 0.09237
925.20 0.09233
925.30 0.09229
925.40 0.09225
925.50 0.09221
925.60 0.09217
925.70 0.09213
925.80 0.09209
925.90 0.09206
926.00 0.09202
926.10 0.09198
926.20 0.09194
926.30 0.0919
926.40 0.09186
926.50 0.09182
926.60 0.09178
926.70 0.09174
926.80 0.09171
926.90 0.09167
927.00 0.09163
927.10 0.09159
927.20 0.09155
927.30 0.09151
927.40 0.09148
927.50 0.09144
927.60 0.0914
927.70 0.09136
927.80 0.09132
927.90 0.09129
928.00 0.09125
928.10 0.09121
928.20 0.09117
928.30 0.09113
928.40 0.09109
928.50 0.09106
928.60 0.09102
928.70 0.09098
928.80 0.09094
928.90 0.0909
929.00 0.09087
929.10 0.09083
929.20 0.09079
929.30 0.09075
929.40 0.09072
929.50 0.09068
929.60 0.09064
929.70 0.0906
929.80 0.09056
929.90 0.09053
930.00 0.09049
930.10 0.09045
930.20 0.09041
930.30 0.09037
930.40 0.09034
930.50 0.0903
930.60 0.09026
930.70 0.09022
930.80 0.09019
930.90 0.09015
931.00 0.09011
931.10 0.09007
931.20 0.09004
931.30 0.09
931.40 0.08996
931.50 0.08992
931.60 0.08988
931.70 0.08985
931.80 0.08981
931.90 0.08977
932.00 0.08973
932.10 0.0897
932.20 0.08966
932.30 0.08962
932.40 0.08958
932.50 0.08955
932.60 0.08951
932.70 0.08947
932.80 0.08944
932.90 0.0894
933.00 0.08936
933.10 0.08932
933.20 0.08929
933.30 0.08925
933.40 0.08921
933.50 0.08918
933.60 0.08914
933.70 0.0891
933.80 0.08906
933.90 0.08903
934.00 0.08899
934.10 0.08895
934.20 0.08892
934.30 0.08888
934.40 0.08884
934.50 0.0888
934.60 0.08877
934.70 0.08873
934.80 0.08869
934.90 0.08866
935.00 0.08862
935.10 0.08858
935.20 0.08855
935.30 0.08851
935.40 0.08847
935.50 0.08844
935.60 0.0884
935.70 0.08836
935.80 0.08832
935.90 0.08829
936.00 0.08825
936.10 0.08821
936.20 0.08818
936.30 0.08814
936.40 0.0881
936.50 0.08807
936.60 0.08803
936.70 0.08799
936.80 0.08796
936.90 0.08792
937.00 0.08788
937.10 0.08785
937.20 0.08781
937.30 0.08777
937.40 0.08774
937.50 0.0877
937.60 0.08766
937.70 0.08763
937.80 0.08759
937.90 0.08756
938.00 0.08752
938.10 0.08748
938.20 0.08745
938.30 0.08741
938.40 0.08737
938.50 0.08734
938.60 0.0873
938.70 0.08726
938.80 0.08723
938.90 0.08719
939.00 0.08715
939.10 0.08712
939.20 0.08708
939.30 0.08705
939.40 0.08701
939.50 0.08697
939.60 0.08694
939.70 0.0869
939.80 0.08686
939.90 0.08683
940.00 0.08679
940.10 0.08676
940.20 0.08672
940.30 0.08668
940.40 0.08665
940.50 0.08661
940.60 0.08658
940.70 0.08654
940.80 0.0865
940.90 0.08647
941.00 0.08643
941.10 0.0864
941.20 0.08636
941.30 0.08632
941.40 0.08629
941.50 0.08625
941.60 0.08621
941.70 0.08618
941.80 0.08614
941.90 0.08611
942.00 0.08607
942.10 0.08604
942.20 0.086
942.30 0.08596
942.40 0.08593
942.50 0.08589
942.60 0.08586
942.70 0.08582
942.80 0.08578
942.90 0.08575
943.00 0.08571
943.10 0.08568
943.20 0.08564
943.30 0.08561
943.40 0.08557
943.50 0.08553
943.60 0.0855
943.70 0.08546
943.80 0.08543
943.90 0.08539
944.00 0.08536
944.10 0.08532
944.20 0.08528
944.30 0.08525
944.40 0.08521
944.50 0.08518
944.60 0.08514
944.70 0.08511
944.80 0.08507
944.90 0.08504
945.00 0.085
945.10 0.08497
945.20 0.08493
945.30 0.0849
945.40 0.08486
945.50 0.08482
945.60 0.08479
945.70 0.08475
945.80 0.08472
945.90 0.08468
946.00 0.08465
946.10 0.08461
946.20 0.08458
946.30 0.08454
946.40 0.08451
946.50 0.08447
946.60 0.08444
946.70 0.0844
946.80 0.08437
946.90 0.08433
947.00 0.0843
947.10 0.08426
947.20 0.08423
947.30 0.08419
947.40 0.08416
947.50 0.08412
947.60 0.08409
947.70 0.08405
947.80 0.08402
947.90 0.08398
948.00 0.08395
948.10 0.08391
948.20 0.08388
948.30 0.08384
948.40 0.08381
948.50 0.08377
948.60 0.08374
948.70 0.0837
948.80 0.08367
948.90 0.08363
949.00 0.0836
949.10 0.08357
949.20 0.08353
949.30 0.0835
949.40 0.08346
949.50 0.08343
949.60 0.08339
949.70 0.08336
949.80 0.08332
949.90 0.08329
950.00 0.08326
950.10 0.08322
950.20 0.08319
950.30 0.08315
950.40 0.08312
950.50 0.08308
950.60 0.08305
950.70 0.08302
950.80 0.08298
950.90 0.08295
951.00 0.08291
951.10 0.08288
951.20 0.08285
951.30 0.08281
951.40 0.08278
951.50 0.08274
951.60 0.08271
951.70 0.08268
951.80 0.08264
951.90 0.08261
952.00 0.08258
952.10 0.08254
952.20 0.08251
952.30 0.08248
952.40 0.08244
952.50 0.08241
952.60 0.08238
952.70 0.08234
952.80 0.08231
952.90 0.08228
953.00 0.08224
953.10 0.08221
953.20 0.08218
953.30 0.08214
953.40 0.08211
953.50 0.08208
953.60 0.08205
953.70 0.08201
953.80 0.08198
953.90 0.08195
954.00 0.08192
954.10 0.08188
954.20 0.08185
954.30 0.08182
954.40 0.08179
954.50 0.08176
954.60 0.08172
954.70 0.08169
954.80 0.08166
954.90 0.08162
955.00 0.08159
955.10 0.08155
955.20 0.08152
955.30 0.08148
955.40 0.08145
955.50 0.08142
955.60 0.08138
955.70 0.08135
955.80 0.08132
955.90 0.08128
956.00 0.08125
956.10 0.08122
956.20 0.08118
956.30 0.08115
956.40 0.08112
956.50 0.08108
956.60 0.08105
956.70 0.08102
956.80 0.08098
956.90 0.08095
957.00 0.08092
957.10 0.08089
957.20 0.08085
957.30 0.08082
957.40 0.08079
957.50 0.08076
957.60 0.08072
957.70 0.08069
957.80 0.08066
957.90 0.08063
958.00 0.08059
958.10 0.08056
958.20 0.08053
958.30 0.0805
958.40 0.08046
958.50 0.08043
958.60 0.0804
958.70 0.08037
958.80 0.08033
958.90 0.0803
959.00 0.08027
959.10 0.08024
959.20 0.08021
959.30 0.08017
959.40 0.08014
959.50 0.08011
959.60 0.08008
959.70 0.08005
959.80 0.08001
959.90 0.07998
960.00 0.07995
960.10 0.07992
960.20 0.07989
960.30 0.07986
960.40 0.07982
960.50 0.07979
960.60 0.07976
960.70 0.07973
960.80 0.0797
960.90 0.07967
961.00 0.07963
961.10 0.0796
961.20 0.07957
961.30 0.07954
961.40 0.07951
961.50 0.07948
961.60 0.07944
961.70 0.07941
961.80 0.07938
961.90 0.07935
962.00 0.07932
962.10 0.07929
962.20 0.07926
962.30 0.07922
962.40 0.07919
962.50 0.07916
962.60 0.07913
962.70 0.0791
962.80 0.07907
962.90 0.07904
963.00 0.07901
963.10 0.07897
963.20 0.07894
963.30 0.07891
963.40 0.07888
963.50 0.07885
963.60 0.07882
963.70 0.07879
963.80 0.07876
963.90 0.07873
964.00 0.07869
964.10 0.07866
964.20 0.07863
964.30 0.0786
964.40 0.07857
964.50 0.07854
964.60 0.07851
964.70 0.07848
964.80 0.07845
964.90 0.07841
965.00 0.07838
965.10 0.07835
965.20 0.07832
965.30 0.07829
965.40 0.07826
965.50 0.07823
965.60 0.0782
965.70 0.07817
965.80 0.07814
965.90 0.0781
966.00 0.07807
966.10 0.07804
966.20 0.07801
966.30 0.07798
966.40 0.07795
966.50 0.07792
966.60 0.07789
966.70 0.07786
966.80 0.07783
966.90 0.0778
967.00 0.07777
967.10 0.07773
967.20 0.0777
967.30 0.07767
967.40 0.07764
967.50 0.07761
967.60 0.07758
967.70 0.07755
967.80 0.07752
967.90 0.07749
968.00 0.07746
968.10 0.07743
968.20 0.0774
968.30 0.07737
968.40 0.07734
968.50 0.07731
968.60 0.07727
968.70 0.07724
968.80 0.07721
968.90 0.07718
969.00 0.07715
969.10 0.07712
969.20 0.07709
969.30 0.07706
969.40 0.07703
969.50 0.077
969.60 0.07697
969.70 0.07694
969.80 0.07691
969.90 0.07688
970.00 0.07685
970.10 0.07682
970.20 0.07679
970.30 0.07676
970.40 0.07672
970.50 0.07669
970.60 0.07666
970.70 0.07663
970.80 0.0766
970.90 0.07657
971.00 0.07654
971.10 0.07651
971.20 0.07648
971.30 0.07645
971.40 0.07642
971.50 0.07639
971.60 0.07636
971.70 0.07633
971.80 0.0763
971.90 0.07627
972.00 0.07624
972.10 0.07621
972.20 0.07618
972.30 0.07615
972.40 0.07612
972.50 0.07609
972.60 0.07606
972.70 0.07603
972.80 0.076
972.90 0.07597
973.00 0.07594
973.10 0.07591
973.20 0.07587
973.30 0.07584
973.40 0.07581
973.50 0.07578
973.60 0.07575
973.70 0.07572
973.80 0.07569
973.90 0.07566
974.00 0.07563
974.10 0.0756
974.20 0.07557
974.30 0.07554
974.40 0.07551
974.50 0.07548
974.60 0.07545
974.70 0.07542
974.80 0.07539
974.90 0.07536
975.00 0.07533
975.10 0.0753
975.20 0.07527
975.30 0.07524
975.40 0.07521
975.50 0.07518
975.60 0.07515
975.70 0.07512
975.80 0.07509
975.90 0.07506
976.00 0.07503
976.10 0.075
976.20 0.07497
976.30 0.07494
976.40 0.07491
976.50 0.07488
976.60 0.07485
976.70 0.07482
976.80 0.07479
976.90 0.07476
977.00 0.07473
977.10 0.0747
977.20 0.07467
977.30 0.07464
977.40 0.07461
977.50 0.07458
977.60 0.07455
977.70 0.07452
977.80 0.07449
977.90 0.07446
978.00 0.07443
978.10 0.0744
978.20 0.07437
978.30 0.07434
978.40 0.07431
978.50 0.07428
978.60 0.07425
978.70 0.07422
978.80 0.07419
978.90 0.07416
979.00 0.07413
979.10 0.0741
979.20 0.07407
979.30 0.07404
979.40 0.07401
979.50 0.07398
979.60 0.07395
979.70 0.07392
979.80 0.07389
979.90 0.07386
980.00 0.07383
980.10 0.07381
980.20 0.07378
980.30 0.07375
980.40 0.07372
980.50 0.07369
980.60 0.07366
980.70 0.07363
980.80 0.0736
980.90 0.07357
981.00 0.07354
981.10 0.07351
981.20 0.07348
981.30 0.07345
981.40 0.07342
981.50 0.07339
981.60 0.07336
981.70 0.07333
981.80 0.0733
981.90 0.07327
982.00 0.07324
982.10 0.07321
982.20 0.07318
982.30 0.07315
982.40 0.07312
982.50 0.07309
982.60 0.07306
982.70 0.07303
982.80 0.07301
982.90 0.07298
983.00 0.07295
983.10 0.07292
983.20 0.07289
983.30 0.07286
983.40 0.07283
983.50 0.0728
983.60 0.07277
983.70 0.07274
983.80 0.07271
983.90 0.07268
984.00 0.07265
984.10 0.07262
984.20 0.07259
984.30 0.07256
984.40 0.07253
984.50 0.0725
984.60 0.07247
984.70 0.07244
984.80 0.07241
984.90 0.07238
985.00 0.07236
985.10 0.07233
985.20 0.0723
985.30 0.07227
985.40 0.07224
985.50 0.07221
985.60 0.07218
985.70 0.07215
985.80 0.07212
985.90 0.07209
986.00 0.07206
986.10 0.07203
986.20 0.072
986.30 0.07197
986.40 0.07194
986.50 0.07191
986.60 0.07188
986.70 0.07185
986.80 0.07183
986.90 0.0718
987.00 0.07177
987.10 0.07174
987.20 0.07171
987.30 0.07168
987.40 0.07165
987.50 0.07162
987.60 0.07159
987.70 0.07156
987.80 0.07153
987.90 0.0715
988.00 0.07147
988.10 0.07144
988.20 0.07141
988.30 0.07138
988.40 0.07136
988.50 0.07133
988.60 0.0713
988.70 0.07127
988.80 0.07124
988.90 0.07121
989.00 0.07118
989.10 0.07115
989.20 0.07112
989.30 0.07109
989.40 0.07106
989.50 0.07103
989.60 0.071
989.70 0.07097
989.80 0.07094
989.90 0.07091
990.00 0.07089
990.10 0.07086
990.20 0.07083
990.30 0.0708
990.40 0.07077
990.50 0.07074
990.60 0.07071
990.70 0.07068
990.80 0.07065
990.90 0.07062
991.00 0.07059
991.10 0.07056
991.20 0.07053
991.30 0.0705
991.40 0.07048
991.50 0.07045
991.60 0.07042
991.70 0.07039
991.80 0.07036
991.90 0.07033
992.00 0.0703
992.10 0.07027
992.20 0.07024
992.30 0.07021
992.40 0.07018
992.50 0.07015
992.60 0.07012
992.70 0.0701
992.80 0.07007
992.90 0.07004
993.00 0.07001
993.10 0.06998
993.20 0.06995
993.30 0.06992
993.40 0.06989
993.50 0.06986
993.60 0.06983
993.70 0.0698
993.80 0.06977
993.90 0.06974
994.00 0.06972
994.10 0.06969
994.20 0.06966
994.30 0.06963
994.40 0.0696
994.50 0.06957
994.60 0.06954
994.70 0.06951
994.80 0.06948
994.90 0.06945
995.00 0.06942
995.10 0.0694
995.20 0.06937
995.30 0.06934
995.40 0.06931
995.50 0.06928
995.60 0.06925
995.70 0.06922
995.80 0.06919
995.90 0.06916
996.00 0.06913
996.10 0.0691
996.20 0.06908
996.30 0.06905
996.40 0.06902
996.50 0.06899
996.60 0.06896
996.70 0.06893
996.80 0.0689
996.90 0.06887
997.00 0.06884
997.10 0.06881
997.20 0.06879
997.30 0.06876
997.40 0.06873
997.50 0.0687
997.60 0.06867
997.70 0.06864
997.80 0.06861
997.90 0.06858
998.00 0.06856
998.10 0.06853
998.20 0.0685
998.30 0.06847
998.40 0.06844
998.50 0.06841
998.60 0.06838
998.70 0.06836
998.80 0.06833
998.90 0.0683
999.00 0.06827
999.10 0.06824
999.20 0.06821
999.30 0.06818
999.40 0.06816
999.50 0.06813
999.60 0.0681
999.70 0.06807
999.80 0.06804
999.90 0.06801
1000.00 0.06798
1000.10 0.06795
1000.20 0.06792
1000.30 0.06789
1000.40 0.06786
1000.50 0.06783
1000.60 0.0678
1000.70 0.06778
1000.80 0.06775
1000.90 0.06772
1001.00 0.06769
1001.10 0.06766
1001.20 0.06763
1001.30 0.0676
1001.40 0.06757
1001.50 0.06754
1001.60 0.06751
1001.70 0.06748
1001.80 0.06746
1001.90 0.06743
1002.00 0.06741
1002.10 0.06738
1002.20 0.06735
1002.30 0.06733
1002.40 0.0673
1002.50 0.06728
1002.60 0.06725
1002.70 0.06723
1002.80 0.0672
1002.90 0.06718
1003.00 0.06715
1003.10 0.06713
1003.20 0.0671
1003.30 0.06708
1003.40 0.06705
1003.50 0.06703
1003.60 0.06701
1003.70 0.06698
1003.80 0.06696
1003.90 0.06694
1004.00 0.06692
1004.10 0.06689
1004.20 0.06687
1004.30 0.06685
1004.40 0.06683
1004.50 0.06681
1004.60 0.06678
1004.70 0.06676
1004.80 0.06673
1004.90 0.06671
1005.00 0.06668
1005.10 0.06665
1005.20 0.06663
1005.30 0.0666
1005.40 0.06657
1005.50 0.06654
1005.60 0.06651
1005.70 0.06649
1005.80 0.06646
1005.90 0.06643
1006.00 0.0664
1006.10 0.06637
1006.20 0.06634
1006.30 0.06631
1006.40 0.06629
1006.50 0.06626
1006.60 0.06623
1006.70 0.0662
1006.80 0.06618
1006.90 0.06615
1007.00 0.06612
1007.10 0.0661
1007.20 0.06607
1007.30 0.06604
1007.40 0.06602
1007.50 0.06599
1007.60 0.06597
1007.70 0.06594
1007.80 0.06592
1007.90 0.06589
1008.00 0.06587
1008.10 0.06584
1008.20 0.06582
1008.30 0.06579
1008.40 0.06577
1008.50 0.06575
1008.60 0.06572
1008.70 0.0657
1008.80 0.06567
1008.90 0.06565
1009.00 0.06562
1009.10 0.0656
1009.20 0.06558
1009.30 0.06555
1009.40 0.06553
1009.50 0.0655
1009.60 0.06548
1009.70 0.06546
1009.80 0.06543
1009.90 0.06541
1010.00 0.06539
1010.10 0.06536
1010.20 0.06534
1010.30 0.06532
1010.40 0.06529
1010.50 0.06527
1010.60 0.06525
1010.70 0.06522
1010.80 0.0652
1010.90 0.06518
1011.00 0.06515
1011.10 0.06513
1011.20 0.06511
1011.30 0.06508
1011.40 0.06506
1011.50 0.06504
1011.60 0.06501
1011.70 0.06499
1011.80 0.06497
1011.90 0.06495
1012.00 0.06492
1012.10 0.0649
1012.20 0.06488
1012.30 0.06485
1012.40 0.06483
1012.50 0.06481
1012.60 0.06478
1012.70 0.06476
1012.80 0.06474
1012.90 0.06472
1013.00 0.06469
1013.10 0.06467
1013.20 0.06465
1013.30 0.06463
1013.40 0.0646
1013.50 0.06458
1013.60 0.06456
1013.70 0.06453
1013.80 0.06451
1013.90 0.06449
1014.00 0.06447
1014.10 0.06444
1014.20 0.06442
1014.30 0.0644
1014.40 0.06437
1014.50 0.06435
1014.60 0.06433
1014.70 0.06431
1014.80 0.06428
1014.90 0.06426
1015.00 0.06424
1015.10 0.06421
1015.20 0.06419
1015.30 0.06417
1015.40 0.06415
1015.50 0.06412
1015.60 0.0641
1015.70 0.06408
1015.80 0.06406
1015.90 0.06403
1016.00 0.06401
1016.10 0.06399
1016.20 0.06396
1016.30 0.06394
1016.40 0.06392
1016.50 0.0639
1016.60 0.06387
1016.70 0.06385
1016.80 0.06383
1016.90 0.06381
1017.00 0.06378
1017.10 0.06376
1017.20 0.06374
1017.30 0.06371
1017.40 0.06369
1017.50 0.06367
1017.60 0.06365
1017.70 0.06362
1017.80 0.0636
1017.90 0.06358
1018.00 0.06356
1018.10 0.06353
1018.20 0.06351
1018.30 0.06349
1018.40 0.06346
1018.50 0.06344
1018.60 0.06342
1018.70 0.0634
1018.80 0.06337
1018.90 0.06335
1019.00 0.06333
1019.10 0.06331
1019.20 0.06328
1019.30 0.06326
1019.40 0.06324
1019.50 0.06321
1019.60 0.06319
1019.70 0.06317
1019.80 0.06315
1019.90 0.06312
1020.00 0.0631
1020.10 0.06308
1020.20 0.06305
1020.30 0.06303
1020.40 0.06301
1020.50 0.06299
1020.60 0.06296
1020.70 0.06294
1020.80 0.06292
1020.90 0.0629
1021.00 0.06287
1021.10 0.06285
1021.20 0.06283
1021.30 0.0628
1021.40 0.06278
1021.50 0.06276
1021.60 0.06274
1021.70 0.06271
1021.80 0.06269
1021.90 0.06267
1022.00 0.06265
1022.10 0.06262
1022.20 0.0626
1022.30 0.06258
1022.40 0.06255
1022.50 0.06253
1022.60 0.06251
1022.70 0.06249
1022.80 0.06246
1022.90 0.06244
1023.00 0.06242
1023.10 0.06239
1023.20 0.06237
1023.30 0.06235
1023.40 0.06233
1023.50 0.0623
1023.60 0.06228
1023.70 0.06226
1023.80 0.06224
1023.90 0.06221
1024.00 0.06219
1024.10 0.06217
1024.20 0.06215
1024.30 0.06212
1024.40 0.0621
1024.50 0.06208
1024.60 0.06205
1024.70 0.06203
1024.80 0.06201
1024.90 0.06199
1025.00 0.06196
1025.10 0.06194
1025.20 0.06192
1025.30 0.0619
1025.40 0.06187
1025.50 0.06185
1025.60 0.06183
1025.70 0.0618
1025.80 0.06178
1025.90 0.06176
1026.00 0.06174
1026.10 0.06171
1026.20 0.06169
1026.30 0.06167
1026.40 0.06165
1026.50 0.06162
1026.60 0.0616
1026.70 0.06158
1026.80 0.06156
1026.90 0.06153
1027.00 0.06151
1027.10 0.06149
1027.20 0.06147
1027.30 0.06144
1027.40 0.06142
1027.50 0.0614
1027.60 0.06137
1027.70 0.06135
1027.80 0.06133
1027.90 0.06131
1028.00 0.06128
1028.10 0.06126
1028.20 0.06124
1028.30 0.06122
1028.40 0.06119
1028.50 0.06117
1028.60 0.06115
1028.70 0.06113
1028.80 0.0611
1028.90 0.06108
1029.00 0.06106
1029.10 0.06104
1029.20 0.06101
1029.30 0.06099
1029.40 0.06097
1029.50 0.06095
1029.60 0.06092
1029.70 0.0609
1029.80 0.06088
1029.90 0.06086
1030.00 0.06083
1030.10 0.06081
1030.20 0.06079
1030.30 0.06077
1030.40 0.06074
1030.50 0.06072
1030.60 0.0607
1030.70 0.06068
1030.80 0.06065
1030.90 0.06063
1031.00 0.06061
1031.10 0.06059
1031.20 0.06056
1031.30 0.06054
1031.40 0.06052
1031.50 0.0605
1031.60 0.06047
1031.70 0.06045
1031.80 0.06043
1031.90 0.06041
1032.00 0.06038
1032.10 0.06036
1032.20 0.06034
1032.30 0.06032
1032.40 0.0603
1032.50 0.06027
1032.60 0.06025
1032.70 0.06023
1032.80 0.06021
1032.90 0.06018
1033.00 0.06016
1033.10 0.06014
1033.20 0.06012
1033.30 0.06009
1033.40 0.06007
1033.50 0.06005
1033.60 0.06003
1033.70 0.06
1033.80 0.05998
1033.90 0.05996
1034.00 0.05994
1034.10 0.05992
1034.20 0.05989
1034.30 0.05987
1034.40 0.05985
1034.50 0.05983
1034.60 0.0598
1034.70 0.05978
1034.80 0.05976
1034.90 0.05974
1035.00 0.05972
1035.10 0.05969
1035.20 0.05967
1035.30 0.05965
1035.40 0.05963
1035.50 0.0596
1035.60 0.05958
1035.70 0.05956
1035.80 0.05954
1035.90 0.05952
1036.00 0.05949
1036.10 0.05947
1036.20 0.05945
1036.30 0.05943
1036.40 0.05941
1036.50 0.05938
1036.60 0.05936
1036.70 0.05934
1036.80 0.05932
1036.90 0.0593
1037.00 0.05927
1037.10 0.05925
1037.20 0.05923
1037.30 0.05921
1037.40 0.05919
1037.50 0.05916
1037.60 0.05914
1037.70 0.05912
1037.80 0.0591
1037.90 0.05908
1038.00 0.05905
1038.10 0.05903
1038.20 0.05901
1038.30 0.05899
1038.40 0.05897
1038.50 0.05894
1038.60 0.05892
1038.70 0.0589
1038.80 0.05888
1038.90 0.05886
1039.00 0.05883
1039.10 0.05881
1039.20 0.05879
1039.30 0.05877
1039.40 0.05875
1039.50 0.05872
1039.60 0.0587
1039.70 0.05868
1039.80 0.05866
1039.90 0.05864
1040.00 0.05861
1040.10 0.05859
1040.20 0.05857
1040.30 0.05855
1040.40 0.05853
1040.50 0.05851
1040.60 0.05848
1040.70 0.05846
1040.80 0.05844
1040.90 0.05842
1041.00 0.0584
1041.10 0.05837
1041.20 0.05835
1041.30 0.05833
1041.40 0.05831
1041.50 0.05829
1041.60 0.05827
1041.70 0.05824
1041.80 0.05822
1041.90 0.0582
1042.00 0.05818
1042.10 0.05816
1042.20 0.05814
1042.30 0.05811
1042.40 0.05809
1042.50 0.05807
1042.60 0.05805
1042.70 0.05803
1042.80 0.05801
1042.90 0.05798
1043.00 0.05796
1043.10 0.05794
1043.20 0.05792
1043.30 0.0579
1043.40 0.05788
1043.50 0.05785
1043.60 0.05783
1043.70 0.05781
1043.80 0.05779
1043.90 0.05777
1044.00 0.05775
1044.10 0.05773
1044.20 0.0577
1044.30 0.05768
1044.40 0.05766
1044.50 0.05764
1044.60 0.05762
1044.70 0.0576
1044.80 0.05757
1044.90 0.05755
1045.00 0.05753
1045.10 0.05751
1045.20 0.05749
1045.30 0.05747
1045.40 0.05745
1045.50 0.05742
1045.60 0.0574
1045.70 0.05738
1045.80 0.05736
1045.90 0.05734
1046.00 0.05732
1046.10 0.0573
1046.20 0.05727
1046.30 0.05725
1046.40 0.05723
1046.50 0.05721
1046.60 0.05719
1046.70 0.05717
1046.80 0.05715
1046.90 0.05712
1047.00 0.0571
1047.10 0.05708
1047.20 0.05706
1047.30 0.05704
1047.40 0.05702
1047.50 0.057
1047.60 0.05698
1047.70 0.05695
1047.80 0.05693
1047.90 0.05691
1048.00 0.05689
1048.10 0.05687
1048.20 0.05685
1048.30 0.05683
1048.40 0.05681
1048.50 0.05678
1048.60 0.05676
1048.70 0.05674
1048.80 0.05672
1048.90 0.0567
1049.00 0.05668
1049.10 0.05666
1049.20 0.05664
1049.30 0.05662
1049.40 0.05659
1049.50 0.05657
1049.60 0.05655
1049.70 0.05653
1049.80 0.05651
1049.90 0.05649
1050.00 0.05647
1050.10 0.05645
1050.20 0.05643
1050.30 0.0564
1050.40 0.05638
1050.50 0.05636
1050.60 0.05634
1050.70 0.05632
1050.80 0.0563
1050.90 0.05628
1051.00 0.05626
1051.10 0.05624
1051.20 0.05621
1051.30 0.05619
1051.40 0.05617
1051.50 0.05615
1051.60 0.05613
1051.70 0.05611
1051.80 0.05609
1051.90 0.05607
1052.00 0.05605
1052.10 0.05603
1052.20 0.056
1052.30 0.05598
1052.40 0.05596
1052.50 0.05594
1052.60 0.05592
1052.70 0.0559
1052.80 0.05588
1052.90 0.05586
1053.00 0.05584
1053.10 0.05582
1053.20 0.0558
1053.30 0.05578
1053.40 0.05575
1053.50 0.05573
1053.60 0.05571
1053.70 0.05569
1053.80 0.05567
1053.90 0.05565
1054.00 0.05563
1054.10 0.05561
1054.20 0.05559
1054.30 0.05557
1054.40 0.05555
1054.50 0.05553
1054.60 0.0555
1054.70 0.05548
1054.80 0.05546
1054.90 0.05544
1055.00 0.05542
1055.10 0.0554
1055.20 0.05538
1055.30 0.05536
1055.40 0.05534
1055.50 0.05532
1055.60 0.0553
1055.70 0.05528
1055.80 0.05526
1055.90 0.05524
1056.00 0.05521
1056.10 0.05519
1056.20 0.05517
1056.30 0.05515
1056.40 0.05513
1056.50 0.05511
1056.60 0.05509
1056.70 0.05507
1056.80 0.05505
1056.90 0.05503
1057.00 0.05501
1057.10 0.05499
1057.20 0.05497
1057.30 0.05495
1057.40 0.05493
1057.50 0.05491
1057.60 0.05488
1057.70 0.05486
1057.80 0.05484
1057.90 0.05482
1058.00 0.0548
1058.10 0.05478
1058.20 0.05476
1058.30 0.05474
1058.40 0.05472
1058.50 0.0547
1058.60 0.05468
1058.70 0.05466
1058.80 0.05464
1058.90 0.05462
1059.00 0.0546
1059.10 0.05458
1059.20 0.05456
1059.30 0.05454
1059.40 0.05451
1059.50 0.05449
1059.60 0.05447
1059.70 0.05445
1059.80 0.05443
1059.90 0.05441
1060.00 0.05439
1060.10 0.05437
1060.20 0.05435
1060.30 0.05433
1060.40 0.05431
1060.50 0.05429
1060.60 0.05427
1060.70 0.05425
1060.80 0.05423
1060.90 0.05421
1061.00 0.05419
1061.10 0.05417
1061.20 0.05415
1061.30 0.05413
1061.40 0.05411
1061.50 0.05409
1061.60 0.05407
1061.70 0.05405
1061.80 0.05403
1061.90 0.05401
1062.00 0.05398
1062.10 0.05396
1062.20 0.05394
1062.30 0.05392
1062.40 0.0539
1062.50 0.05388
1062.60 0.05386
1062.70 0.05384
1062.80 0.05382
1062.90 0.0538
1063.00 0.05378
1063.10 0.05376
1063.20 0.05374
1063.30 0.05372
1063.40 0.0537
1063.50 0.05368
1063.60 0.05366
1063.70 0.05364
1063.80 0.05362
1063.90 0.0536
1064.00 0.05358
1064.10 0.05356
1064.20 0.05354
1064.30 0.05352
1064.40 0.0535
1064.50 0.05348
1064.60 0.05346
1064.70 0.05344
1064.80 0.05342
1064.90 0.0534
1065.00 0.05338
1065.10 0.05336
1065.20 0.05334
1065.30 0.05332
1065.40 0.0533
1065.50 0.05328
1065.60 0.05326
1065.70 0.05324
1065.80 0.05321
1065.90 0.05319
1066.00 0.05317
1066.10 0.05315
1066.20 0.05313
1066.30 0.05311
1066.40 0.05309
1066.50 0.05307
1066.60 0.05305
1066.70 0.05303
1066.80 0.05301
1066.90 0.05299
1067.00 0.05297
1067.10 0.05295
1067.20 0.05293
1067.30 0.05291
1067.40 0.05289
1067.50 0.05287
1067.60 0.05285
1067.70 0.05283
1067.80 0.05281
1067.90 0.05279
1068.00 0.05277
1068.10 0.05275
1068.20 0.05273
1068.30 0.05271
1068.40 0.05269
1068.50 0.05267
1068.60 0.05265
1068.70 0.05263
1068.80 0.05261
1068.90 0.05259
1069.00 0.05257
1069.10 0.05255
1069.20 0.05253
1069.30 0.05251
1069.40 0.05249
1069.50 0.05247
1069.60 0.05245
1069.70 0.05243
1069.80 0.05241
1069.90 0.05239
1070.00 0.05237
1070.10 0.05235
1070.20 0.05233
1070.30 0.05231
1070.40 0.05229
1070.50 0.05227
1070.60 0.05225
1070.70 0.05223
1070.80 0.05221
1070.90 0.05219
1071.00 0.05217
1071.10 0.05215
1071.20 0.05213
1071.30 0.05211
1071.40 0.05209
1071.50 0.05207
1071.60 0.05205
1071.70 0.05203
1071.80 0.05201
1071.90 0.05199
1072.00 0.05197
1072.10 0.05195
1072.20 0.05193
1072.30 0.05191
1072.40 0.05189
1072.50 0.05187
1072.60 0.05185
1072.70 0.05183
1072.80 0.05181
1072.90 0.05179
1073.00 0.05177
1073.10 0.05175
1073.20 0.05173
1073.30 0.05171
1073.40 0.05169
1073.50 0.05167
1073.60 0.05165
1073.70 0.05163
1073.80 0.0516
1073.90 0.05158
1074.00 0.05156
1074.10 0.05154
1074.20 0.05152
1074.30 0.0515
1074.40 0.05148
1074.50 0.05146
1074.60 0.05144
1074.70 0.05142
1074.80 0.0514
1074.90 0.05138
1075.00 0.05136
1075.10 0.05134
1075.20 0.05132
1075.30 0.0513
1075.40 0.05128
1075.50 0.05126
1075.60 0.05124
1075.70 0.05122
1075.80 0.0512
1075.90 0.05118
1076.00 0.05116
1076.10 0.05114
1076.20 0.05112
1076.30 0.0511
1076.40 0.05108
1076.50 0.05106
1076.60 0.05104
1076.70 0.05102
1076.80 0.051
1076.90 0.05098
1077.00 0.05096
1077.10 0.05094
1077.20 0.05092
1077.30 0.0509
1077.40 0.05088
1077.50 0.05086
1077.60 0.05084
1077.70 0.05081
1077.80 0.05079
1077.90 0.05077
1078.00 0.05075
1078.10 0.05073
1078.20 0.05071
1078.30 0.05069
1078.40 0.05067
1078.50 0.05065
1078.60 0.05063
1078.70 0.05061
1078.80 0.05059
1078.90 0.05057
1079.00 0.05055
1079.10 0.05053
1079.20 0.05051
1079.30 0.05049
1079.40 0.05047
1079.50 0.05045
1079.60 0.05043
1079.70 0.05041
1079.80 0.05038
1079.90 0.05036
1080.00 0.05034
1080.10 0.05032
1080.20 0.0503
1080.30 0.05028
1080.40 0.05026
1080.50 0.05024
1080.60 0.05022
1080.70 0.0502
1080.80 0.05018
1080.90 0.05016
1081.00 0.05014
1081.10 0.05012
1081.20 0.0501
1081.30 0.05007
1081.40 0.05005
1081.50 0.05003
1081.60 0.05001
1081.70 0.04999
1081.80 0.04997
1081.90 0.04995
1082.00 0.04993
1082.10 0.04991
1082.20 0.04989
1082.30 0.04987
1082.40 0.04985
1082.50 0.04983
1082.60 0.0498
1082.70 0.04978
1082.80 0.04976
1082.90 0.04974
1083.00 0.04972
1083.10 0.0497
1083.20 0.04968
1083.30 0.04966
1083.40 0.04964
1083.50 0.04962
1083.60 0.0496
1083.70 0.04957
1083.80 0.04955
1083.90 0.04953
1084.00 0.04951
1084.10 0.04949
1084.20 0.04947
1084.30 0.04945
1084.40 0.04943
1084.50 0.04941
1084.60 0.04939
1084.70 0.04936
1084.80 0.04934
1084.90 0.04932
1085.00 0.0493
1085.10 0.04928
1085.20 0.04926
1085.30 0.04924
1085.40 0.04922
1085.50 0.0492
1085.60 0.04918
1085.70 0.04915
1085.80 0.04913
1085.90 0.04911
1086.00 0.04909
1086.10 0.04907
1086.20 0.04905
1086.30 0.04903
1086.40 0.04901
1086.50 0.04899
1086.60 0.04897
1086.70 0.04894
1086.80 0.04892
1086.90 0.0489
1087.00 0.04888
1087.10 0.04886
1087.20 0.04884
1087.30 0.04882
1087.40 0.0488
1087.50 0.04878
1087.60 0.04876
1087.70 0.04874
1087.80 0.04872
1087.90 0.04869
1088.00 0.04867
1088.10 0.04865
1088.20 0.04863
1088.30 0.04861
1088.40 0.04859
1088.50 0.04857
1088.60 0.04855
1088.70 0.04853
1088.80 0.04851
1088.90 0.04849
1089.00 0.04847
1089.10 0.04845
1089.20 0.04843
1089.30 0.04841
1089.40 0.04839
1089.50 0.04837
1089.60 0.04835
1089.70 0.04833
1089.80 0.04831
1089.90 0.04829
1090.00 0.04827
1090.10 0.04825
1090.20 0.04823
1090.30 0.04821
1090.40 0.04819
1090.50 0.04817
1090.60 0.04815
1090.70 0.04813
1090.80 0.04811
1090.90 0.04809
1091.00 0.04807
1091.10 0.04805
1091.20 0.04803
1091.30 0.04801
1091.40 0.04799
1091.50 0.04797
1091.60 0.04795
1091.70 0.04794
1091.80 0.04792
1091.90 0.0479
1092.00 0.04788
1092.10 0.04786
1092.20 0.04784
1092.30 0.04782
1092.40 0.0478
1092.50 0.04779
1092.60 0.04777
1092.70 0.04775
1092.80 0.04773
1092.90 0.04771
1093.00 0.0477
1093.10 0.04768
1093.20 0.04766
1093.30 0.04765
1093.40 0.04764
1093.50 0.04763
1093.60 0.04763
1093.70 0.04763
1093.80 0.04762
1093.90 0.0476
1094.00 0.04757
1094.10 0.04754
1094.20 0.04751
1094.30 0.04749
1094.40 0.04747
1094.50 0.04745
1094.60 0.04743
1094.70 0.04742
1094.80 0.0474
1094.90 0.04738
1095.00 0.04737
1095.10 0.04735
1095.20 0.04734
1095.30 0.04732
1095.40 0.04731
1095.50 0.04729
1095.60 0.04728
1095.70 0.04726
1095.80 0.04725
1095.90 0.04723
1096.00 0.04722
1096.10 0.0472
1096.20 0.04719
1096.30 0.04717
1096.40 0.04716
1096.50 0.04714
1096.60 0.04713
1096.70 0.04711
1096.80 0.0471
1096.90 0.04709
1097.00 0.04707
1097.10 0.04706
1097.20 0.04704
1097.30 0.04703
1097.40 0.04702
1097.50 0.047
1097.60 0.04699
1097.70 0.04697
1097.80 0.04696
1097.90 0.04695
1098.00 0.04693
1098.10 0.04692
1098.20 0.0469
1098.30 0.04689
1098.40 0.04688
1098.50 0.04686
1098.60 0.04685
1098.70 0.04684
1098.80 0.04682
1098.90 0.04681
1099.00 0.0468
1099.10 0.04678
1099.20 0.04677
1099.30 0.04676
1099.40 0.04674
1099.50 0.04673
1099.60 0.04672
1099.70 0.0467
1099.80 0.04669
1099.90 0.04668
1100.00 0.04666
1100.10 0.04665
1100.20 0.04664
1100.30 0.04662
1100.40 0.04661
1100.50 0.0466
1100.60 0.04658
1100.70 0.04657
1100.80 0.04656
1100.90 0.04655
1101.00 0.04653
1101.10 0.04652
1101.20 0.04651
1101.30 0.04649
1101.40 0.04648
1101.50 0.04647
1101.60 0.04645
1101.70 0.04644
1101.80 0.04643
1101.90 0.04641
1102.00 0.0464
1102.10 0.04639
1102.20 0.04637
1102.30 0.04636
1102.40 0.04635
1102.50 0.04633
1102.60 0.04632
1102.70 0.04631
1102.80 0.04629
1102.90 0.04628
1103.00 0.04627
1103.10 0.04625
1103.20 0.04624
1103.30 0.04623
1103.40 0.04621
1103.50 0.0462
1103.60 0.04619
1103.70 0.04617
1103.80 0.04616
1103.90 0.04615
1104.00 0.04613
1104.10 0.04612
1104.20 0.04611
1104.30 0.04609
1104.40 0.04608
1104.50 0.04607
1104.60 0.04605
1104.70 0.04604
1104.80 0.04603
1104.90 0.04601
1105.00 0.046
1105.10 0.04599
1105.20 0.04597
1105.30 0.04596
1105.40 0.04595
1105.50 0.04593
1105.60 0.04592
1105.70 0.0459
1105.80 0.04589
1105.90 0.04588
1106.00 0.04586
1106.10 0.04585
1106.20 0.04584
1106.30 0.04582
1106.40 0.04581
1106.50 0.04579
1106.60 0.04578
1106.70 0.04577
1106.80 0.04575
1106.90 0.04574
1107.00 0.04573
1107.10 0.04571
1107.20 0.0457
1107.30 0.04568
1107.40 0.04567
1107.50 0.04566
1107.60 0.04564
1107.70 0.04563
1107.80 0.04561
1107.90 0.0456
1108.00 0.04559
1108.10 0.04557
1108.20 0.04556
1108.30 0.04554
1108.40 0.04553
1108.50 0.04552
1108.60 0.0455
1108.70 0.04549
1108.80 0.04547
1108.90 0.04546
1109.00 0.04545
1109.10 0.04543
1109.20 0.04542
1109.30 0.0454
1109.40 0.04539
1109.50 0.04538
1109.60 0.04536
1109.70 0.04535
1109.80 0.04533
1109.90 0.04532
1110.00 0.0453
1110.10 0.04529
1110.20 0.04527
1110.30 0.04526
1110.40 0.04525
1110.50 0.04523
1110.60 0.04522
1110.70 0.0452
1110.80 0.04519
1110.90 0.04517
1111.00 0.04516
1111.10 0.04515
1111.20 0.04513
1111.30 0.04512
1111.40 0.0451
1111.50 0.04509
1111.60 0.04507
1111.70 0.04506
1111.80 0.04505
1111.90 0.04503
1112.00 0.04502
1112.10 0.045
1112.20 0.04499
1112.30 0.04497
1112.40 0.04496
1112.50 0.04494
1112.60 0.04493
1112.70 0.04492
1112.80 0.0449
1112.90 0.04489
1113.00 0.04487
1113.10 0.04486
1113.20 0.04484
1113.30 0.04483
1113.40 0.04481
1113.50 0.0448
1113.60 0.04479
1113.70 0.04477
1113.80 0.04476
1113.90 0.04474
1114.00 0.04473
1114.10 0.04471
1114.20 0.0447
1114.30 0.04468
1114.40 0.04467
1114.50 0.04465
1114.60 0.04464
1114.70 0.04462
1114.80 0.04461
1114.90 0.04459
1115.00 0.04458
1115.10 0.04457
1115.20 0.04455
1115.30 0.04454
1115.40 0.04452
1115.50 0.04451
1115.60 0.04449
1115.70 0.04448
1115.80 0.04446
1115.90 0.04445
1116.00 0.04443
1116.10 0.04442
1116.20 0.04441
1116.30 0.04439
1116.40 0.04438
1116.50 0.04436
1116.60 0.04435
1116.70 0.04433
1116.80 0.04432
1116.90 0.0443
1117.00 0.04429
1117.10 0.04427
1117.20 0.04426
1117.30 0.04424
1117.40 0.04423
1117.50 0.04421
1117.60 0.0442
1117.70 0.04419
1117.80 0.04417
1117.90 0.04416
1118.00 0.04414
1118.10 0.04413
1118.20 0.04411
1118.30 0.0441
1118.40 0.04408
1118.50 0.04407
1118.60 0.04405
1118.70 0.04404
1118.80 0.04402
1118.90 0.04401
1119.00 0.04399
1119.10 0.04398
1119.20 0.04396
1119.30 0.04395
1119.40 0.04393
1119.50 0.04392
1119.60 0.04391
1119.70 0.04389
1119.80 0.04388
1119.90 0.04386
1120.00 0.04385
1120.10 0.04383
1120.20 0.04382
1120.30 0.0438
1120.40 0.04379
1120.50 0.04377
1120.60 0.04376
1120.70 0.04374
1120.80 0.04373
1120.90 0.04371
1121.00 0.0437
1121.10 0.04369
1121.20 0.04367
1121.30 0.04366
1121.40 0.04364
1121.50 0.04363
1121.60 0.04361
1121.70 0.0436
1121.80 0.04358
1121.90 0.04357
1122.00 0.04355
1122.10 0.04354
1122.20 0.04352
1122.30 0.04351
1122.40 0.04349
1122.50 0.04348
1122.60 0.04347
1122.70 0.04345
1122.80 0.04344
1122.90 0.04342
1123.00 0.04341
1123.10 0.04339
1123.20 0.04338
1123.30 0.04336
1123.40 0.04335
1123.50 0.04333
1123.60 0.04332
1123.70 0.0433
1123.80 0.04329
1123.90 0.04327
1124.00 0.04326
1124.10 0.04325
1124.20 0.04323
1124.30 0.04322
1124.40 0.0432
1124.50 0.04319
1124.60 0.04317
1124.70 0.04316
1124.80 0.04314
1124.90 0.04313
1125.00 0.04311
1125.10 0.0431
1125.20 0.04308
1125.30 0.04307
1125.40 0.04306
1125.50 0.04304
1125.60 0.04303
1125.70 0.04301
1125.80 0.043
1125.90 0.04298
1126.00 0.04297
1126.10 0.04295
1126.20 0.04294
1126.30 0.04292
1126.40 0.04291
1126.50 0.04289
1126.60 0.04288
1126.70 0.04287
1126.80 0.04285
1126.90 0.04284
1127.00 0.04282
1127.10 0.04281
1127.20 0.04279
1127.30 0.04278
1127.40 0.04276
1127.50 0.04275
1127.60 0.04273
1127.70 0.04272
1127.80 0.04271
1127.90 0.04269
1128.00 0.04268
1128.10 0.04266
1128.20 0.04265
1128.30 0.04263
1128.40 0.04262
1128.50 0.0426
1128.60 0.04259
1128.70 0.04258
1128.80 0.04256
1128.90 0.04255
1129.00 0.04253
1129.10 0.04252
1129.20 0.0425
1129.30 0.04249
1129.40 0.04247
1129.50 0.04246
1129.60 0.04244
1129.70 0.04243
1129.80 0.04242
1129.90 0.0424
1130.00 0.04239
1130.10 0.04237
1130.20 0.04236
1130.30 0.04234
1130.40 0.04233
1130.50 0.04232
1130.60 0.0423
1130.70 0.04229
1130.80 0.04227
1130.90 0.04226
1131.00 0.04224
1131.10 0.04223
1131.20 0.04221
1131.30 0.0422
1131.40 0.04219
1131.50 0.04217
1131.60 0.04216
1131.70 0.04214
1131.80 0.04213
1131.90 0.04211
1132.00 0.0421
1132.10 0.04208
1132.20 0.04207
1132.30 0.04206
1132.40 0.04204
1132.50 0.04203
1132.60 0.04201
1132.70 0.042
1132.80 0.04198
1132.90 0.04197
1133.00 0.04196
1133.10 0.04194
1133.20 0.04193
1133.30 0.04191
1133.40 0.0419
1133.50 0.04188
1133.60 0.04187
1133.70 0.04186
1133.80 0.04184
1133.90 0.04183
1134.00 0.04181
1134.10 0.0418
1134.20 0.04178
1134.30 0.04177
1134.40 0.04176
1134.50 0.04174
1134.60 0.04173
1134.70 0.04171
1134.80 0.0417
1134.90 0.04168
1135.00 0.04167
1135.10 0.04166
1135.20 0.04164
1135.30 0.04163
1135.40 0.04161
1135.50 0.0416
1135.60 0.04159
1135.70 0.04157
1135.80 0.04156
1135.90 0.04154
1136.00 0.04153
1136.10 0.04151
1136.20 0.0415
1136.30 0.04149
1136.40 0.04147
1136.50 0.04146
1136.60 0.04144
1136.70 0.04143
1136.80 0.04142
1136.90 0.0414
1137.00 0.04139
1137.10 0.04137
1137.20 0.04136
1137.30 0.04134
1137.40 0.04133
1137.50 0.04132
1137.60 0.0413
1137.70 0.04129
1137.80 0.04127
1137.90 0.04126
1138.00 0.04125
1138.10 0.04123
1138.20 0.04122
1138.30 0.0412
1138.40 0.04119
1138.50 0.04118
1138.60 0.04116
1138.70 0.04115
1138.80 0.04113
1138.90 0.04112
1139.00 0.04111
1139.10 0.04109
1139.20 0.04108
1139.30 0.04106
1139.40 0.04105
1139.50 0.04104
1139.60 0.04102
1139.70 0.04101
1139.80 0.04099
1139.90 0.04098
1140.00 0.04097
1140.10 0.04095
1140.20 0.04094
1140.30 0.04092
1140.40 0.04091
1140.50 0.0409
1140.60 0.04088
1140.70 0.04087
1140.80 0.04085
1140.90 0.04084
1141.00 0.04083
1141.10 0.04081
1141.20 0.0408
1141.30 0.04078
1141.40 0.04077
1141.50 0.04076
1141.60 0.04074
1141.70 0.04073
1141.80 0.04072
1141.90 0.0407
1142.00 0.04069
1142.10 0.04067
1142.20 0.04066
1142.30 0.04065
1142.40 0.04063
1142.50 0.04062
1142.60 0.0406
1142.70 0.04059
1142.80 0.04058
1142.90 0.04056
1143.00 0.04055
1143.10 0.04054
1143.20 0.04052
1143.30 0.04051
1143.40 0.04049
1143.50 0.04048
1143.60 0.04047
1143.70 0.04045
1143.80 0.04044
1143.90 0.04043
1144.00 0.04041
1144.10 0.0404
1144.20 0.04038
1144.30 0.04037
1144.40 0.04036
1144.50 0.04034
1144.60 0.04033
1144.70 0.04032
1144.80 0.0403
1144.90 0.04029
1145.00 0.04027
1145.10 0.04026
1145.20 0.04025
1145.30 0.04023
1145.40 0.04022
1145.50 0.04021
1145.60 0.04019
1145.70 0.04018
1145.80 0.04016
1145.90 0.04015
1146.00 0.04014
1146.10 0.04012
1146.20 0.04011
1146.30 0.0401
1146.40 0.04008
1146.50 0.04007
1146.60 0.04005
1146.70 0.04004
1146.80 0.04003
1146.90 0.04001
1147.00 0.04
1147.10 0.03999
1147.20 0.03997
1147.30 0.03996
1147.40 0.03995
1147.50 0.03993
1147.60 0.03992
1147.70 0.03991
1147.80 0.03989
1147.90 0.03988
1148.00 0.03986
1148.10 0.03985
1148.20 0.03984
1148.30 0.03982
1148.40 0.03981
1148.50 0.0398
1148.60 0.03978
1148.70 0.03977
1148.80 0.03976
1148.90 0.03974
1149.00 0.03973
1149.10 0.03972
1149.20 0.0397
1149.30 0.03969
1149.40 0.03968
1149.50 0.03966
1149.60 0.03965
1149.70 0.03964
1149.80 0.03962
1149.90 0.03961
1150.00 0.0396
1150.10 0.03958
1150.20 0.03957
1150.30 0.03955
1150.40 0.03954
1150.50 0.03953
1150.60 0.03951
1150.70 0.0395
1150.80 0.03949
1150.90 0.03947
1151.00 0.03946
1151.10 0.03945
1151.20 0.03943
1151.30 0.03942
1151.40 0.03941
1151.50 0.03939
1151.60 0.03938
1151.70 0.03937
1151.80 0.03935
1151.90 0.03934
1152.00 0.03933
1152.10 0.03931
1152.20 0.0393
1152.30 0.03929
1152.40 0.03927
1152.50 0.03926
1152.60 0.03925
1152.70 0.03923
1152.80 0.03922
1152.90 0.03921
1153.00 0.03919
1153.10 0.03918
1153.20 0.03917
1153.30 0.03915
1153.40 0.03914
1153.50 0.03913
1153.60 0.03912
1153.70 0.0391
1153.80 0.03909
1153.90 0.03908
1154.00 0.03906
1154.10 0.03905
1154.20 0.03904
1154.30 0.03902
1154.40 0.03901
1154.50 0.039
1154.60 0.03898
1154.70 0.03897
1154.80 0.03896
1154.90 0.03894
1155.00 0.03893
1155.10 0.03892
1155.20 0.0389
1155.30 0.03889
1155.40 0.03888
1155.50 0.03886
1155.60 0.03885
1155.70 0.03884
1155.80 0.03882
1155.90 0.03881
1156.00 0.0388
1156.10 0.03879
1156.20 0.03877
1156.30 0.03876
1156.40 0.03875
1156.50 0.03873
1156.60 0.03872
1156.70 0.03871
1156.80 0.03869
1156.90 0.03868
1157.00 0.03867
1157.10 0.03865
1157.20 0.03864
1157.30 0.03863
1157.40 0.03862
1157.50 0.0386
1157.60 0.03859
1157.70 0.03858
1157.80 0.03856
1157.90 0.03855
1158.00 0.03854
1158.10 0.03852
1158.20 0.03851
1158.30 0.0385
1158.40 0.03849
1158.50 0.03847
1158.60 0.03846
1158.70 0.03845
1158.80 0.03843
1158.90 0.03842
1159.00 0.03841
1159.10 0.03839
1159.20 0.03838
1159.30 0.03837
1159.40 0.03836
1159.50 0.03834
1159.60 0.03833
1159.70 0.03832
1159.80 0.0383
1159.90 0.03829
1160.00 0.03828
1160.10 0.03827
1160.20 0.03825
1160.30 0.03824
1160.40 0.03823
1160.50 0.03821
1160.60 0.0382
1160.70 0.03819
1160.80 0.03818
1160.90 0.03816
1161.00 0.03815
1161.10 0.03814
1161.20 0.03812
1161.30 0.03811
1161.40 0.0381
1161.50 0.03809
1161.60 0.03807
1161.70 0.03806
1161.80 0.03805
1161.90 0.03803
1162.00 0.03802
1162.10 0.03801
1162.20 0.038
1162.30 0.03798
1162.40 0.03797
1162.50 0.03796
1162.60 0.03794
1162.70 0.03793
1162.80 0.03792
1162.90 0.03791
1163.00 0.03789
1163.10 0.03788
1163.20 0.03787
1163.30 0.03786
1163.40 0.03784
1163.50 0.03783
1163.60 0.03782
1163.70 0.0378
1163.80 0.03779
1163.90 0.03778
1164.00 0.03777
1164.10 0.03775
1164.20 0.03774
1164.30 0.03773
1164.40 0.03772
1164.50 0.0377
1164.60 0.03769
1164.70 0.03768
1164.80 0.03767
1164.90 0.03765
1165.00 0.03764
1165.10 0.03763
1165.20 0.03761
1165.30 0.0376
1165.40 0.03759
1165.50 0.03758
1165.60 0.03756
1165.70 0.03755
1165.80 0.03754
1165.90 0.03753
1166.00 0.03751
1166.10 0.0375
1166.20 0.03749
1166.30 0.03748
1166.40 0.03746
1166.50 0.03745
1166.60 0.03744
1166.70 0.03743
1166.80 0.03741
1166.90 0.0374
1167.00 0.03739
1167.10 0.03738
1167.20 0.03736
1167.30 0.03735
1167.40 0.03734
1167.50 0.03733
1167.60 0.03731
1167.70 0.0373
1167.80 0.03729
1167.90 0.03728
1168.00 0.03726
1168.10 0.03725
1168.20 0.03724
1168.30 0.03723
1168.40 0.03721
1168.50 0.0372
1168.60 0.03719
1168.70 0.03718
1168.80 0.03716
1168.90 0.03715
1169.00 0.03714
1169.10 0.03713
1169.20 0.03711
1169.30 0.0371
1169.40 0.03709
1169.50 0.03708
1169.60 0.03706
1169.70 0.03705
1169.80 0.03704
1169.90 0.03703
1170.00 0.03701
1170.10 0.037
1170.20 0.03699
1170.30 0.03698
1170.40 0.03696
1170.50 0.03695
1170.60 0.03694
1170.70 0.03693
1170.80 0.03692
1170.90 0.0369
1171.00 0.03689
1171.10 0.03688
1171.20 0.03687
1171.30 0.03685
1171.40 0.03684
1171.50 0.03683
1171.60 0.03682
1171.70 0.0368
1171.80 0.03679
1171.90 0.03678
1172.00 0.03677
1172.10 0.03675
1172.20 0.03674
1172.30 0.03673
1172.40 0.03672
1172.50 0.03671
1172.60 0.03669
1172.70 0.03668
1172.80 0.03667
1172.90 0.03666
1173.00 0.03664
1173.10 0.03663
1173.20 0.03662
1173.30 0.03661
1173.40 0.0366
1173.50 0.03658
1173.60 0.03657
1173.70 0.03656
1173.80 0.03655
1173.90 0.03653
1174.00 0.03652
1174.10 0.03651
1174.20 0.0365
1174.30 0.03649
1174.40 0.03647
1174.50 0.03646
1174.60 0.03645
1174.70 0.03644
1174.80 0.03643
1174.90 0.03641
1175.00 0.0364
1175.10 0.03639
1175.20 0.03638
1175.30 0.03636
1175.40 0.03635
1175.50 0.03634
1175.60 0.03633
1175.70 0.03632
1175.80 0.0363
1175.90 0.03629
1176.00 0.03628
1176.10 0.03627
1176.20 0.03626
1176.30 0.03624
1176.40 0.03623
1176.50 0.03622
1176.60 0.03621
1176.70 0.0362
1176.80 0.03618
1176.90 0.03617
1177.00 0.03616
1177.10 0.03615
1177.20 0.03614
1177.30 0.03612
1177.40 0.03611
1177.50 0.0361
1177.60 0.03609
1177.70 0.03608
1177.80 0.03606
1177.90 0.03605
1178.00 0.03604
1178.10 0.03603
1178.20 0.03602
1178.30 0.036
1178.40 0.03599
1178.50 0.03598
1178.60 0.03597
1178.70 0.03596
1178.80 0.03594
1178.90 0.03593
1179.00 0.03592
1179.10 0.03591
1179.20 0.0359
1179.30 0.03588
1179.40 0.03587
1179.50 0.03586
1179.60 0.03585
1179.70 0.03584
1179.80 0.03582
1179.90 0.03581
1180.00 0.0358
1180.10 0.03579
1180.20 0.03578
1180.30 0.03576
1180.40 0.03575
1180.50 0.03574
1180.60 0.03573
1180.70 0.03572
1180.80 0.03571
1180.90 0.03569
1181.00 0.03568
1181.10 0.03567
1181.20 0.03566
1181.30 0.03565
1181.40 0.03563
1181.50 0.03562
1181.60 0.03561
1181.70 0.0356
1181.80 0.03559
1181.90 0.03558
1182.00 0.03556
1182.10 0.03555
1182.20 0.03554
1182.30 0.03553
1182.40 0.03552
1182.50 0.0355
1182.60 0.03549
1182.70 0.03548
1182.80 0.03547
1182.90 0.03546
1183.00 0.03545
1183.10 0.03543
1183.20 0.03542
1183.30 0.03541
1183.40 0.0354
1183.50 0.03539
1183.60 0.03538
1183.70 0.03536
1183.80 0.03535
1183.90 0.03534
1184.00 0.03533
1184.10 0.03532
1184.20 0.03531
1184.30 0.03529
1184.40 0.03528
1184.50 0.03527
1184.60 0.03526
1184.70 0.03525
1184.80 0.03524
1184.90 0.03522
1185.00 0.03521
1185.10 0.0352
1185.20 0.03519
1185.30 0.03518
1185.40 0.03517
1185.50 0.03515
1185.60 0.03514
1185.70 0.03513
1185.80 0.03512
1185.90 0.03511
1186.00 0.0351
1186.10 0.03508
1186.20 0.03507
1186.30 0.03506
1186.40 0.03505
1186.50 0.03504
1186.60 0.03503
1186.70 0.03501
1186.80 0.035
1186.90 0.03499
1187.00 0.03498
1187.10 0.03497
1187.20 0.03496
1187.30 0.03495
1187.40 0.03493
1187.50 0.03492
1187.60 0.03491
1187.70 0.0349
1187.80 0.03489
1187.90 0.03488
1188.00 0.03486
1188.10 0.03485
1188.20 0.03484
1188.30 0.03483
1188.40 0.03482
1188.50 0.03481
1188.60 0.0348
1188.70 0.03478
1188.80 0.03477
1188.90 0.03476
1189.00 0.03475
1189.10 0.03474
1189.20 0.03473
1189.30 0.03472
1189.40 0.0347
1189.50 0.03469
1189.60 0.03468
1189.70 0.03467
1189.80 0.03466
1189.90 0.03465
1190.00 0.03464
1190.10 0.03462
1190.20 0.03461
1190.30 0.0346
1190.40 0.03459
1190.50 0.03458
1190.60 0.03457
1190.70 0.03456
1190.80 0.03454
1190.90 0.03453
1191.00 0.03452
1191.10 0.03451
1191.20 0.0345
1191.30 0.03449
1191.40 0.03448
1191.50 0.03447
1191.60 0.03445
1191.70 0.03444
1191.80 0.03443
1191.90 0.03442
1192.00 0.03441
1192.10 0.0344
1192.20 0.03439
1192.30 0.03437
1192.40 0.03436
1192.50 0.03435
1192.60 0.03434
1192.70 0.03433
1192.80 0.03432
1192.90 0.03431
1193.00 0.0343
1193.10 0.03428
1193.20 0.03427
1193.30 0.03426
1193.40 0.03425
1193.50 0.03424
1193.60 0.03423
1193.70 0.03422
1193.80 0.03421
1193.90 0.03419
1194.00 0.03418
1194.10 0.03417
1194.20 0.03416
1194.30 0.03415
1194.40 0.03414
1194.50 0.03413
1194.60 0.03412
1194.70 0.0341
1194.80 0.03409
1194.90 0.03408
1195.00 0.03407
1195.10 0.03406
1195.20 0.03405
1195.30 0.03404
1195.40 0.03403
1195.50 0.03402
1195.60 0.034
1195.70 0.03399
1195.80 0.03398
1195.90 0.03397
1196.00 0.03396
1196.10 0.03395
1196.20 0.03394
1196.30 0.03393
1196.40 0.03391
1196.50 0.0339
1196.60 0.03389
1196.70 0.03388
1196.80 0.03387
1196.90 0.03386
1197.00 0.03385
1197.10 0.03384
1197.20 0.03383
1197.30 0.03381
1197.40 0.0338
1197.50 0.03379
1197.60 0.03378
1197.70 0.03377
1197.80 0.03376
1197.90 0.03375
1198.00 0.03374
1198.10 0.03373
1198.20 0.03372
1198.30 0.0337
1198.40 0.03369
1198.50 0.03368
1198.60 0.03367
1198.70 0.03366
1198.80 0.03365
1198.90 0.03364
1199.00 0.03363
1199.10 0.03362
1199.20 0.03361
1199.30 0.03359
1199.40 0.03358
1199.50 0.03357
1199.60 0.03356
1199.70 0.03355
1199.80 0.03354
1199.90 0.03353
1200.00 0
