# Version 2.1 - nm, norm@500 to 1, cut digits, bergeron_130000_85.dat_130000
# Wavelength(nm)  Flambda(ergs/cm^s/s/nm)
300.00 7.013
300.10 7.004
300.20 6.995
300.30 6.986
300.40 6.977
300.50 6.968
300.60 6.959
300.70 6.951
300.80 6.942
300.90 6.933
301.00 6.924
301.10 6.916
301.20 6.907
301.30 6.898
301.40 6.889
301.50 6.881
301.60 6.872
301.70 6.863
301.80 6.855
301.90 6.846
302.00 6.837
302.10 6.829
302.20 6.82
302.30 6.811
302.40 6.803
302.50 6.794
302.60 6.786
302.70 6.777
302.80 6.769
302.90 6.76
303.00 6.752
303.10 6.743
303.20 6.735
303.30 6.726
303.40 6.718
303.50 6.709
303.60 6.701
303.70 6.692
303.80 6.684
303.90 6.676
304.00 6.667
304.10 6.659
304.20 6.651
304.30 6.642
304.40 6.634
304.50 6.626
304.60 6.617
304.70 6.609
304.80 6.601
304.90 6.593
305.00 6.584
305.10 6.576
305.20 6.568
305.30 6.56
305.40 6.551
305.50 6.543
305.60 6.535
305.70 6.527
305.80 6.519
305.90 6.511
306.00 6.503
306.10 6.494
306.20 6.486
306.30 6.478
306.40 6.47
306.50 6.462
306.60 6.454
306.70 6.446
306.80 6.438
306.90 6.43
307.00 6.422
307.10 6.414
307.20 6.406
307.30 6.398
307.40 6.39
307.50 6.382
307.60 6.374
307.70 6.367
307.80 6.359
307.90 6.351
308.00 6.343
308.10 6.335
308.20 6.327
308.30 6.319
308.40 6.312
308.50 6.304
308.60 6.296
308.70 6.288
308.80 6.28
308.90 6.273
309.00 6.265
309.10 6.257
309.20 6.25
309.30 6.242
309.40 6.234
309.50 6.226
309.60 6.219
309.70 6.211
309.80 6.203
309.90 6.196
310.00 6.188
310.10 6.181
310.20 6.173
310.30 6.165
310.40 6.158
310.50 6.15
310.60 6.143
310.70 6.135
310.80 6.128
310.90 6.12
311.00 6.113
311.10 6.105
311.20 6.098
311.30 6.09
311.40 6.083
311.50 6.075
311.60 6.068
311.70 6.06
311.80 6.053
311.90 6.046
312.00 6.038
312.10 6.031
312.20 6.023
312.30 6.016
312.40 6.009
312.50 6.001
312.60 5.994
312.70 5.987
312.80 5.979
312.90 5.972
313.00 5.965
313.10 5.958
313.20 5.95
313.30 5.943
313.40 5.936
313.50 5.929
313.60 5.921
313.70 5.914
313.80 5.907
313.90 5.9
314.00 5.893
314.10 5.885
314.20 5.878
314.30 5.871
314.40 5.864
314.50 5.857
314.60 5.85
314.70 5.843
314.80 5.836
314.90 5.829
315.00 5.821
315.10 5.814
315.20 5.807
315.30 5.8
315.40 5.793
315.50 5.786
315.60 5.779
315.70 5.772
315.80 5.765
315.90 5.758
316.00 5.751
316.10 5.745
316.20 5.738
316.30 5.731
316.40 5.724
316.50 5.717
316.60 5.71
316.70 5.703
316.80 5.696
316.90 5.689
317.00 5.682
317.10 5.676
317.20 5.669
317.30 5.662
317.40 5.655
317.50 5.648
317.60 5.642
317.70 5.635
317.80 5.628
317.90 5.621
318.00 5.615
318.10 5.608
318.20 5.601
318.30 5.594
318.40 5.588
318.50 5.581
318.60 5.574
318.70 5.568
318.80 5.561
318.90 5.554
319.00 5.548
319.10 5.541
319.20 5.534
319.30 5.528
319.40 5.521
319.50 5.515
319.60 5.508
319.70 5.501
319.80 5.495
319.90 5.488
320.00 5.482
320.10 5.475
320.20 5.469
320.30 5.462
320.40 5.456
320.50 5.449
320.60 5.443
320.70 5.436
320.80 5.43
320.90 5.423
321.00 5.417
321.10 5.41
321.20 5.404
321.30 5.397
321.40 5.391
321.50 5.385
321.60 5.378
321.70 5.372
321.80 5.365
321.90 5.359
322.00 5.353
322.10 5.346
322.20 5.34
322.30 5.334
322.40 5.327
322.50 5.321
322.60 5.315
322.70 5.308
322.80 5.302
322.90 5.296
323.00 5.29
323.10 5.283
323.20 5.277
323.30 5.271
323.40 5.265
323.50 5.258
323.60 5.252
323.70 5.246
323.80 5.24
323.90 5.234
324.00 5.228
324.10 5.221
324.20 5.215
324.30 5.209
324.40 5.203
324.50 5.197
324.60 5.191
324.70 5.185
324.80 5.178
324.90 5.172
325.00 5.166
325.10 5.16
325.20 5.154
325.30 5.148
325.40 5.142
325.50 5.136
325.60 5.13
325.70 5.124
325.80 5.118
325.90 5.112
326.00 5.106
326.10 5.1
326.20 5.094
326.30 5.088
326.40 5.082
326.50 5.076
326.60 5.07
326.70 5.064
326.80 5.058
326.90 5.052
327.00 5.047
327.10 5.041
327.20 5.035
327.30 5.029
327.40 5.023
327.50 5.017
327.60 5.011
327.70 5.005
327.80 5
327.90 4.994
328.00 4.988
328.10 4.982
328.20 4.976
328.30 4.971
328.40 4.965
328.50 4.959
328.60 4.953
328.70 4.948
328.80 4.942
328.90 4.936
329.00 4.93
329.10 4.925
329.20 4.919
329.30 4.913
329.40 4.907
329.50 4.902
329.60 4.896
329.70 4.89
329.80 4.885
329.90 4.879
330.00 4.873
330.10 4.868
330.20 4.862
330.30 4.857
330.40 4.851
330.50 4.845
330.60 4.84
330.70 4.834
330.80 4.829
330.90 4.823
331.00 4.817
331.10 4.812
331.20 4.806
331.30 4.801
331.40 4.795
331.50 4.79
331.60 4.784
331.70 4.779
331.80 4.773
331.90 4.768
332.00 4.762
332.10 4.757
332.20 4.751
332.30 4.746
332.40 4.74
332.50 4.735
332.60 4.729
332.70 4.724
332.80 4.719
332.90 4.713
333.00 4.708
333.10 4.702
333.20 4.697
333.30 4.692
333.40 4.686
333.50 4.681
333.60 4.675
333.70 4.67
333.80 4.665
333.90 4.659
334.00 4.654
334.10 4.649
334.20 4.643
334.30 4.638
334.40 4.633
334.50 4.627
334.60 4.622
334.70 4.617
334.80 4.612
334.90 4.606
335.00 4.601
335.10 4.596
335.20 4.591
335.30 4.585
335.40 4.58
335.50 4.575
335.60 4.57
335.70 4.564
335.80 4.559
335.90 4.554
336.00 4.549
336.10 4.544
336.20 4.539
336.30 4.533
336.40 4.528
336.50 4.523
336.60 4.518
336.70 4.513
336.80 4.508
336.90 4.503
337.00 4.497
337.10 4.492
337.20 4.487
337.30 4.482
337.40 4.477
337.50 4.472
337.60 4.467
337.70 4.462
337.80 4.457
337.90 4.452
338.00 4.447
338.10 4.442
338.20 4.437
338.30 4.432
338.40 4.427
338.50 4.422
338.60 4.417
338.70 4.412
338.80 4.407
338.90 4.402
339.00 4.397
339.10 4.392
339.20 4.387
339.30 4.382
339.40 4.377
339.50 4.372
339.60 4.367
339.70 4.362
339.80 4.357
339.90 4.352
340.00 4.347
340.10 4.343
340.20 4.338
340.30 4.333
340.40 4.328
340.50 4.323
340.60 4.318
340.70 4.313
340.80 4.309
340.90 4.304
341.00 4.299
341.10 4.294
341.20 4.289
341.30 4.284
341.40 4.28
341.50 4.275
341.60 4.27
341.70 4.265
341.80 4.26
341.90 4.256
342.00 4.251
342.10 4.246
342.20 4.241
342.30 4.237
342.40 4.232
342.50 4.227
342.60 4.223
342.70 4.218
342.80 4.213
342.90 4.208
343.00 4.204
343.10 4.199
343.20 4.194
343.30 4.19
343.40 4.185
343.50 4.18
343.60 4.176
343.70 4.171
343.80 4.166
343.90 4.162
344.00 4.157
344.10 4.152
344.20 4.148
344.30 4.143
344.40 4.139
344.50 4.134
344.60 4.129
344.70 4.125
344.80 4.12
344.90 4.116
345.00 4.111
345.10 4.107
345.20 4.102
345.30 4.098
345.40 4.093
345.50 4.088
345.60 4.084
345.70 4.079
345.80 4.075
345.90 4.07
346.00 4.066
346.10 4.061
346.20 4.057
346.30 4.052
346.40 4.048
346.50 4.043
346.60 4.039
346.70 4.035
346.80 4.03
346.90 4.026
347.00 4.021
347.10 4.017
347.20 4.012
347.30 4.008
347.40 4.003
347.50 3.999
347.60 3.995
347.70 3.99
347.80 3.986
347.90 3.981
348.00 3.977
348.10 3.973
348.20 3.968
348.30 3.964
348.40 3.96
348.50 3.955
348.60 3.951
348.70 3.947
348.80 3.942
348.90 3.938
349.00 3.934
349.10 3.929
349.20 3.925
349.30 3.921
349.40 3.916
349.50 3.912
349.60 3.908
349.70 3.904
349.80 3.899
349.90 3.895
350.00 3.891
350.10 3.886
350.20 3.882
350.30 3.878
350.40 3.874
350.50 3.87
350.60 3.865
350.70 3.861
350.80 3.857
350.90 3.853
351.00 3.848
351.10 3.844
351.20 3.84
351.30 3.836
351.40 3.832
351.50 3.828
351.60 3.823
351.70 3.819
351.80 3.815
351.90 3.811
352.00 3.807
352.10 3.803
352.20 3.798
352.30 3.794
352.40 3.79
352.50 3.786
352.60 3.782
352.70 3.778
352.80 3.774
352.90 3.77
353.00 3.766
353.10 3.762
353.20 3.757
353.30 3.753
353.40 3.749
353.50 3.745
353.60 3.741
353.70 3.737
353.80 3.733
353.90 3.729
354.00 3.725
354.10 3.721
354.20 3.717
354.30 3.713
354.40 3.709
354.50 3.705
354.60 3.701
354.70 3.697
354.80 3.693
354.90 3.689
355.00 3.685
355.10 3.681
355.20 3.677
355.30 3.673
355.40 3.669
355.50 3.665
355.60 3.661
355.70 3.657
355.80 3.653
355.90 3.649
356.00 3.645
356.10 3.641
356.20 3.638
356.30 3.634
356.40 3.63
356.50 3.626
356.60 3.622
356.70 3.618
356.80 3.614
356.90 3.61
357.00 3.606
357.10 3.603
357.20 3.599
357.30 3.595
357.40 3.591
357.50 3.587
357.60 3.583
357.70 3.579
357.80 3.576
357.90 3.572
358.00 3.568
358.10 3.564
358.20 3.56
358.30 3.557
358.40 3.553
358.50 3.549
358.60 3.545
358.70 3.541
358.80 3.538
358.90 3.534
359.00 3.53
359.10 3.526
359.20 3.523
359.30 3.519
359.40 3.515
359.50 3.511
359.60 3.507
359.70 3.504
359.80 3.5
359.90 3.496
360.00 3.493
360.10 3.489
360.20 3.485
360.30 3.481
360.40 3.478
360.50 3.474
360.60 3.47
360.70 3.467
360.80 3.463
360.90 3.459
361.00 3.456
361.10 3.452
361.20 3.448
361.30 3.445
361.40 3.441
361.50 3.437
361.60 3.434
361.70 3.43
361.80 3.426
361.90 3.423
362.00 3.419
362.10 3.416
362.20 3.412
362.30 3.408
362.40 3.405
362.50 3.401
362.60 3.397
362.70 3.394
362.80 3.39
362.90 3.387
363.00 3.383
363.10 3.38
363.20 3.376
363.30 3.372
363.40 3.369
363.50 3.365
363.60 3.362
363.70 3.358
363.80 3.355
363.90 3.351
364.00 3.348
364.10 3.344
364.20 3.341
364.30 3.337
364.40 3.334
364.50 3.33
364.60 3.327
364.70 3.323
364.80 3.32
364.90 3.316
365.00 3.313
365.10 3.309
365.20 3.306
365.30 3.302
365.40 3.299
365.50 3.295
365.60 3.292
365.70 3.288
365.80 3.285
365.90 3.281
366.00 3.278
366.10 3.275
366.20 3.271
366.30 3.268
366.40 3.264
366.50 3.261
366.60 3.257
366.70 3.254
366.80 3.251
366.90 3.247
367.00 3.244
367.10 3.24
367.20 3.237
367.30 3.234
367.40 3.23
367.50 3.227
367.60 3.223
367.70 3.22
367.80 3.217
367.90 3.213
368.00 3.21
368.10 3.207
368.20 3.203
368.30 3.2
368.40 3.196
368.50 3.193
368.60 3.19
368.70 3.186
368.80 3.183
368.90 3.18
369.00 3.176
369.10 3.173
369.20 3.17
369.30 3.166
369.40 3.163
369.50 3.16
369.60 3.156
369.70 3.153
369.80 3.15
369.90 3.146
370.00 3.143
370.10 3.14
370.20 3.136
370.30 3.133
370.40 3.13
370.50 3.126
370.60 3.123
370.70 3.12
370.80 3.117
370.90 3.113
371.00 3.11
371.10 3.107
371.20 3.104
371.30 3.1
371.40 3.097
371.50 3.094
371.60 3.091
371.70 3.087
371.80 3.084
371.90 3.081
372.00 3.078
372.10 3.075
372.20 3.071
372.30 3.068
372.40 3.065
372.50 3.062
372.60 3.059
372.70 3.056
372.80 3.053
372.90 3.049
373.00 3.046
373.10 3.043
373.20 3.04
373.30 3.037
373.40 3.034
373.50 3.031
373.60 3.028
373.70 3.024
373.80 3.021
373.90 3.018
374.00 3.015
374.10 3.012
374.20 3.009
374.30 3.006
374.40 3.003
374.50 2.999
374.60 2.996
374.70 2.993
374.80 2.99
374.90 2.987
375.00 2.984
375.10 2.981
375.20 2.978
375.30 2.975
375.40 2.972
375.50 2.969
375.60 2.965
375.70 2.962
375.80 2.959
375.90 2.956
376.00 2.953
376.10 2.95
376.20 2.947
376.30 2.944
376.40 2.941
376.50 2.938
376.60 2.935
376.70 2.932
376.80 2.929
376.90 2.926
377.00 2.923
377.10 2.92
377.20 2.917
377.30 2.914
377.40 2.911
377.50 2.908
377.60 2.905
377.70 2.902
377.80 2.899
377.90 2.896
378.00 2.893
378.10 2.89
378.20 2.887
378.30 2.884
378.40 2.881
378.50 2.878
378.60 2.876
378.70 2.873
378.80 2.87
378.90 2.867
379.00 2.864
379.10 2.861
379.20 2.858
379.30 2.855
379.40 2.852
379.50 2.849
379.60 2.846
379.70 2.844
379.80 2.841
379.90 2.838
380.00 2.835
380.10 2.832
380.20 2.829
380.30 2.826
380.40 2.824
380.50 2.821
380.60 2.818
380.70 2.815
380.80 2.812
380.90 2.809
381.00 2.807
381.10 2.804
381.20 2.801
381.30 2.798
381.40 2.795
381.50 2.792
381.60 2.79
381.70 2.787
381.80 2.784
381.90 2.781
382.00 2.779
382.10 2.776
382.20 2.773
382.30 2.77
382.40 2.767
382.50 2.765
382.60 2.762
382.70 2.759
382.80 2.757
382.90 2.754
383.00 2.751
383.10 2.748
383.20 2.746
383.30 2.743
383.40 2.74
383.50 2.737
383.60 2.735
383.70 2.732
383.80 2.729
383.90 2.727
384.00 2.724
384.10 2.721
384.20 2.719
384.30 2.716
384.40 2.713
384.50 2.711
384.60 2.708
384.70 2.705
384.80 2.703
384.90 2.7
385.00 2.697
385.10 2.695
385.20 2.692
385.30 2.689
385.40 2.687
385.50 2.684
385.60 2.682
385.70 2.679
385.80 2.676
385.90 2.674
386.00 2.671
386.10 2.668
386.20 2.666
386.30 2.663
386.40 2.661
386.50 2.658
386.60 2.655
386.70 2.653
386.80 2.65
386.90 2.648
387.00 2.645
387.10 2.642
387.20 2.64
387.30 2.637
387.40 2.635
387.50 2.632
387.60 2.629
387.70 2.627
387.80 2.624
387.90 2.622
388.00 2.619
388.10 2.616
388.20 2.614
388.30 2.611
388.40 2.609
388.50 2.606
388.60 2.604
388.70 2.601
388.80 2.599
388.90 2.597
389.00 2.594
389.10 2.592
389.20 2.589
389.30 2.587
389.40 2.584
389.50 2.582
389.60 2.579
389.70 2.577
389.80 2.574
389.90 2.572
390.00 2.57
390.10 2.567
390.20 2.565
390.30 2.563
390.40 2.56
390.50 2.558
390.60 2.555
390.70 2.553
390.80 2.551
390.90 2.548
391.00 2.546
391.10 2.543
391.20 2.541
391.30 2.539
391.40 2.536
391.50 2.534
391.60 2.531
391.70 2.529
391.80 2.527
391.90 2.524
392.00 2.522
392.10 2.519
392.20 2.517
392.30 2.514
392.40 2.512
392.50 2.51
392.60 2.507
392.70 2.505
392.80 2.502
392.90 2.5
393.00 2.497
393.10 2.495
393.20 2.492
393.30 2.49
393.40 2.487
393.50 2.485
393.60 2.482
393.70 2.479
393.80 2.477
393.90 2.474
394.00 2.472
394.10 2.469
394.20 2.467
394.30 2.464
394.40 2.461
394.50 2.459
394.60 2.456
394.70 2.454
394.80 2.451
394.90 2.448
395.00 2.446
395.10 2.443
395.20 2.44
395.30 2.438
395.40 2.435
395.50 2.433
395.60 2.43
395.70 2.427
395.80 2.425
395.90 2.422
396.00 2.419
396.10 2.417
396.20 2.414
396.30 2.412
396.40 2.409
396.50 2.407
396.60 2.404
396.70 2.402
396.80 2.399
396.90 2.397
397.00 2.394
397.10 2.392
397.20 2.39
397.30 2.388
397.40 2.386
397.50 2.385
397.60 2.383
397.70 2.381
397.80 2.379
397.90 2.377
398.00 2.375
398.10 2.374
398.20 2.372
398.30 2.37
398.40 2.368
398.50 2.366
398.60 2.365
398.70 2.363
398.80 2.361
398.90 2.359
399.00 2.357
399.10 2.356
399.20 2.354
399.30 2.352
399.40 2.35
399.50 2.348
399.60 2.346
399.70 2.345
399.80 2.343
399.90 2.341
400.00 2.339
400.10 2.337
400.20 2.335
400.30 2.333
400.40 2.331
400.50 2.329
400.60 2.328
400.70 2.326
400.80 2.324
400.90 2.322
401.00 2.32
401.10 2.318
401.20 2.316
401.30 2.314
401.40 2.312
401.50 2.31
401.60 2.308
401.70 2.306
401.80 2.303
401.90 2.301
402.00 2.299
402.10 2.297
402.20 2.295
402.30 2.293
402.40 2.291
402.50 2.289
402.60 2.287
402.70 2.284
402.80 2.282
402.90 2.28
403.00 2.278
403.10 2.276
403.20 2.273
403.30 2.271
403.40 2.269
403.50 2.267
403.60 2.264
403.70 2.262
403.80 2.26
403.90 2.257
404.00 2.255
404.10 2.253
404.20 2.25
404.30 2.248
404.40 2.246
404.50 2.243
404.60 2.241
404.70 2.238
404.80 2.236
404.90 2.233
405.00 2.231
405.10 2.228
405.20 2.226
405.30 2.223
405.40 2.221
405.50 2.218
405.60 2.216
405.70 2.213
405.80 2.21
405.90 2.208
406.00 2.205
406.10 2.202
406.20 2.2
406.30 2.197
406.40 2.194
406.50 2.191
406.60 2.189
406.70 2.186
406.80 2.183
406.90 2.18
407.00 2.177
407.10 2.174
407.20 2.171
407.30 2.168
407.40 2.166
407.50 2.163
407.60 2.16
407.70 2.157
407.80 2.154
407.90 2.15
408.00 2.147
408.10 2.144
408.20 2.141
408.30 2.138
408.40 2.135
408.50 2.132
408.60 2.129
408.70 2.126
408.80 2.123
408.90 2.119
409.00 2.116
409.10 2.113
409.20 2.11
409.30 2.107
409.40 2.105
409.50 2.102
409.60 2.099
409.70 2.097
409.80 2.095
409.90 2.094
410.00 2.092
410.10 2.091
410.20 2.09
410.30 2.087
410.40 2.084
410.50 2.082
410.60 2.08
410.70 2.078
410.80 2.077
410.90 2.076
411.00 2.075
411.10 2.074
411.20 2.073
411.30 2.072
411.40 2.071
411.50 2.071
411.60 2.07
411.70 2.069
411.80 2.069
411.90 2.068
412.00 2.067
412.10 2.066
412.20 2.066
412.30 2.065
412.40 2.064
412.50 2.063
412.60 2.062
412.70 2.062
412.80 2.061
412.90 2.06
413.00 2.059
413.10 2.058
413.20 2.057
413.30 2.056
413.40 2.055
413.50 2.054
413.60 2.053
413.70 2.052
413.80 2.051
413.90 2.05
414.00 2.049
414.10 2.047
414.20 2.046
414.30 2.045
414.40 2.044
414.50 2.043
414.60 2.041
414.70 2.04
414.80 2.039
414.90 2.038
415.00 2.036
415.10 2.035
415.20 2.034
415.30 2.032
415.40 2.031
415.50 2.029
415.60 2.028
415.70 2.027
415.80 2.025
415.90 2.024
416.00 2.022
416.10 2.021
416.20 2.019
416.30 2.018
416.40 2.016
416.50 2.015
416.60 2.013
416.70 2.012
416.80 2.01
416.90 2.009
417.00 2.007
417.10 2.006
417.20 2.004
417.30 2.003
417.40 2.001
417.50 1.999
417.60 1.998
417.70 1.996
417.80 1.995
417.90 1.993
418.00 1.991
418.10 1.99
418.20 1.988
418.30 1.986
418.40 1.985
418.50 1.983
418.60 1.982
418.70 1.98
418.80 1.978
418.90 1.977
419.00 1.975
419.10 1.973
419.20 1.972
419.30 1.97
419.40 1.968
419.50 1.966
419.60 1.965
419.70 1.963
419.80 1.961
419.90 1.96
420.00 1.958
420.10 1.956
420.20 1.954
420.30 1.953
420.40 1.951
420.50 1.949
420.60 1.948
420.70 1.946
420.80 1.944
420.90 1.942
421.00 1.941
421.10 1.939
421.20 1.937
421.30 1.935
421.40 1.934
421.50 1.932
421.60 1.93
421.70 1.928
421.80 1.927
421.90 1.925
422.00 1.923
422.10 1.921
422.20 1.92
422.30 1.918
422.40 1.916
422.50 1.914
422.60 1.912
422.70 1.911
422.80 1.909
422.90 1.907
423.00 1.905
423.10 1.904
423.20 1.902
423.30 1.9
423.40 1.898
423.50 1.896
423.60 1.894
423.70 1.893
423.80 1.891
423.90 1.889
424.00 1.887
424.10 1.885
424.20 1.884
424.30 1.882
424.40 1.88
424.50 1.878
424.60 1.876
424.70 1.874
424.80 1.872
424.90 1.871
425.00 1.869
425.10 1.867
425.20 1.865
425.30 1.863
425.40 1.861
425.50 1.859
425.60 1.857
425.70 1.856
425.80 1.854
425.90 1.852
426.00 1.85
426.10 1.848
426.20 1.846
426.30 1.844
426.40 1.842
426.50 1.84
426.60 1.838
426.70 1.836
426.80 1.834
426.90 1.832
427.00 1.83
427.10 1.828
427.20 1.826
427.30 1.824
427.40 1.822
427.50 1.82
427.60 1.818
427.70 1.815
427.80 1.813
427.90 1.811
428.00 1.809
428.10 1.807
428.20 1.805
428.30 1.802
428.40 1.8
428.50 1.798
428.60 1.796
428.70 1.793
428.80 1.791
428.90 1.789
429.00 1.786
429.10 1.784
429.20 1.782
429.30 1.779
429.40 1.777
429.50 1.774
429.60 1.772
429.70 1.769
429.80 1.767
429.90 1.764
430.00 1.761
430.10 1.759
430.20 1.756
430.30 1.753
430.40 1.751
430.50 1.748
430.60 1.745
430.70 1.742
430.80 1.739
430.90 1.736
431.00 1.733
431.10 1.73
431.20 1.727
431.30 1.724
431.40 1.721
431.50 1.717
431.60 1.714
431.70 1.711
431.80 1.708
431.90 1.704
432.00 1.701
432.10 1.697
432.20 1.694
432.30 1.691
432.40 1.687
432.50 1.684
432.60 1.68
432.70 1.677
432.80 1.673
432.90 1.67
433.00 1.666
433.10 1.663
433.20 1.659
433.30 1.656
433.40 1.653
433.50 1.649
433.60 1.646
433.70 1.642
433.80 1.638
433.90 1.633
434.00 1.631
434.10 1.629
434.20 1.629
434.30 1.631
434.40 1.632
434.50 1.633
434.60 1.634
434.70 1.634
434.80 1.635
434.90 1.635
435.00 1.636
435.10 1.637
435.20 1.637
435.30 1.638
435.40 1.638
435.50 1.639
435.60 1.639
435.70 1.64
435.80 1.641
435.90 1.641
436.00 1.641
436.10 1.642
436.20 1.642
436.30 1.643
436.40 1.643
436.50 1.643
436.60 1.643
436.70 1.644
436.80 1.644
436.90 1.644
437.00 1.644
437.10 1.644
437.20 1.644
437.30 1.644
437.40 1.644
437.50 1.643
437.60 1.643
437.70 1.643
437.80 1.643
437.90 1.642
438.00 1.642
438.10 1.642
438.20 1.641
438.30 1.641
438.40 1.64
438.50 1.64
438.60 1.639
438.70 1.638
438.80 1.638
438.90 1.637
439.00 1.636
439.10 1.636
439.20 1.635
439.30 1.634
439.40 1.633
439.50 1.633
439.60 1.632
439.70 1.631
439.80 1.63
439.90 1.629
440.00 1.628
440.10 1.627
440.20 1.626
440.30 1.625
440.40 1.624
440.50 1.623
440.60 1.622
440.70 1.621
440.80 1.62
440.90 1.619
441.00 1.618
441.10 1.617
441.20 1.616
441.30 1.615
441.40 1.614
441.50 1.613
441.60 1.612
441.70 1.61
441.80 1.609
441.90 1.608
442.00 1.607
442.10 1.606
442.20 1.605
442.30 1.604
442.40 1.602
442.50 1.601
442.60 1.6
442.70 1.599
442.80 1.598
442.90 1.596
443.00 1.595
443.10 1.594
443.20 1.593
443.30 1.591
443.40 1.59
443.50 1.589
443.60 1.588
443.70 1.587
443.80 1.585
443.90 1.584
444.00 1.583
444.10 1.582
444.20 1.58
444.30 1.579
444.40 1.578
444.50 1.576
444.60 1.575
444.70 1.574
444.80 1.573
444.90 1.571
445.00 1.57
445.10 1.569
445.20 1.568
445.30 1.566
445.40 1.565
445.50 1.564
445.60 1.562
445.70 1.561
445.80 1.56
445.90 1.559
446.00 1.557
446.10 1.556
446.20 1.555
446.30 1.554
446.40 1.552
446.50 1.551
446.60 1.55
446.70 1.548
446.80 1.547
446.90 1.546
447.00 1.545
447.10 1.543
447.20 1.542
447.30 1.541
447.40 1.539
447.50 1.538
447.60 1.537
447.70 1.535
447.80 1.534
447.90 1.533
448.00 1.532
448.10 1.53
448.20 1.529
448.30 1.528
448.40 1.527
448.50 1.525
448.60 1.524
448.70 1.523
448.80 1.521
448.90 1.52
449.00 1.519
449.10 1.518
449.20 1.516
449.30 1.515
449.40 1.514
449.50 1.512
449.60 1.511
449.70 1.51
449.80 1.509
449.90 1.507
450.00 1.506
450.10 1.505
450.20 1.503
450.30 1.502
450.40 1.501
450.50 1.5
450.60 1.498
450.70 1.497
450.80 1.496
450.90 1.495
451.00 1.493
451.10 1.492
451.20 1.491
451.30 1.49
451.40 1.488
451.50 1.487
451.60 1.486
451.70 1.484
451.80 1.483
451.90 1.482
452.00 1.481
452.10 1.479
452.20 1.478
452.30 1.477
452.40 1.476
452.50 1.474
452.60 1.473
452.70 1.472
452.80 1.471
452.90 1.469
453.00 1.468
453.10 1.467
453.20 1.466
453.30 1.464
453.40 1.463
453.50 1.462
453.60 1.461
453.70 1.46
453.80 1.458
453.90 1.457
454.00 1.456
454.10 1.455
454.20 1.453
454.30 1.452
454.40 1.451
454.50 1.45
454.60 1.448
454.70 1.447
454.80 1.446
454.90 1.445
455.00 1.443
455.10 1.442
455.20 1.441
455.30 1.44
455.40 1.439
455.50 1.437
455.60 1.436
455.70 1.435
455.80 1.434
455.90 1.433
456.00 1.431
456.10 1.43
456.20 1.429
456.30 1.428
456.40 1.426
456.50 1.425
456.60 1.424
456.70 1.423
456.80 1.422
456.90 1.42
457.00 1.419
457.10 1.418
457.20 1.417
457.30 1.416
457.40 1.414
457.50 1.413
457.60 1.412
457.70 1.411
457.80 1.41
457.90 1.408
458.00 1.407
458.10 1.406
458.20 1.405
458.30 1.404
458.40 1.402
458.50 1.401
458.60 1.4
458.70 1.399
458.80 1.398
458.90 1.397
459.00 1.395
459.10 1.394
459.20 1.393
459.30 1.392
459.40 1.391
459.50 1.389
459.60 1.388
459.70 1.387
459.80 1.386
459.90 1.385
460.00 1.384
460.10 1.382
460.20 1.381
460.30 1.38
460.40 1.379
460.50 1.378
460.60 1.377
460.70 1.375
460.80 1.374
460.90 1.373
461.00 1.372
461.10 1.371
461.20 1.37
461.30 1.369
461.40 1.367
461.50 1.366
461.60 1.365
461.70 1.364
461.80 1.363
461.90 1.362
462.00 1.36
462.10 1.359
462.20 1.358
462.30 1.357
462.40 1.356
462.50 1.355
462.60 1.354
462.70 1.352
462.80 1.351
462.90 1.35
463.00 1.349
463.10 1.348
463.20 1.347
463.30 1.346
463.40 1.345
463.50 1.343
463.60 1.342
463.70 1.341
463.80 1.34
463.90 1.339
464.00 1.338
464.10 1.337
464.20 1.335
464.30 1.334
464.40 1.333
464.50 1.332
464.60 1.331
464.70 1.33
464.80 1.329
464.90 1.328
465.00 1.327
465.10 1.325
465.20 1.324
465.30 1.323
465.40 1.322
465.50 1.321
465.60 1.32
465.70 1.319
465.80 1.318
465.90 1.316
466.00 1.315
466.10 1.314
466.20 1.313
466.30 1.312
466.40 1.311
466.50 1.31
466.60 1.309
466.70 1.308
466.80 1.307
466.90 1.305
467.00 1.304
467.10 1.303
467.20 1.302
467.30 1.301
467.40 1.3
467.50 1.299
467.60 1.298
467.70 1.297
467.80 1.296
467.90 1.295
468.00 1.293
468.10 1.292
468.20 1.291
468.30 1.29
468.40 1.289
468.50 1.288
468.60 1.287
468.70 1.286
468.80 1.285
468.90 1.284
469.00 1.283
469.10 1.281
469.20 1.28
469.30 1.279
469.40 1.278
469.50 1.277
469.60 1.276
469.70 1.275
469.80 1.274
469.90 1.273
470.00 1.272
470.10 1.271
470.20 1.27
470.30 1.269
470.40 1.267
470.50 1.266
470.60 1.265
470.70 1.264
470.80 1.263
470.90 1.262
471.00 1.261
471.10 1.26
471.20 1.259
471.30 1.258
471.40 1.257
471.50 1.256
471.60 1.255
471.70 1.254
471.80 1.252
471.90 1.251
472.00 1.25
472.10 1.249
472.20 1.248
472.30 1.247
472.40 1.246
472.50 1.245
472.60 1.244
472.70 1.243
472.80 1.242
472.90 1.241
473.00 1.24
473.10 1.239
473.20 1.238
473.30 1.236
473.40 1.235
473.50 1.234
473.60 1.233
473.70 1.232
473.80 1.231
473.90 1.23
474.00 1.229
474.10 1.228
474.20 1.227
474.30 1.226
474.40 1.225
474.50 1.224
474.60 1.223
474.70 1.221
474.80 1.22
474.90 1.219
475.00 1.218
475.10 1.217
475.20 1.216
475.30 1.215
475.40 1.214
475.50 1.213
475.60 1.212
475.70 1.211
475.80 1.21
475.90 1.209
476.00 1.207
476.10 1.206
476.20 1.205
476.30 1.204
476.40 1.203
476.50 1.202
476.60 1.201
476.70 1.2
476.80 1.199
476.90 1.198
477.00 1.196
477.10 1.195
477.20 1.194
477.30 1.193
477.40 1.192
477.50 1.191
477.60 1.19
477.70 1.188
477.80 1.187
477.90 1.186
478.00 1.185
478.10 1.184
478.20 1.183
478.30 1.182
478.40 1.18
478.50 1.179
478.60 1.178
478.70 1.177
478.80 1.176
478.90 1.174
479.00 1.173
479.10 1.172
479.20 1.171
479.30 1.169
479.40 1.168
479.50 1.167
479.60 1.166
479.70 1.164
479.80 1.163
479.90 1.162
480.00 1.16
480.10 1.159
480.20 1.158
480.30 1.156
480.40 1.155
480.50 1.154
480.60 1.152
480.70 1.151
480.80 1.149
480.90 1.148
481.00 1.146
481.10 1.145
481.20 1.144
481.30 1.142
481.40 1.14
481.50 1.139
481.60 1.137
481.70 1.135
481.80 1.134
481.90 1.132
482.00 1.13
482.10 1.129
482.20 1.127
482.30 1.125
482.40 1.123
482.50 1.121
482.60 1.119
482.70 1.117
482.80 1.115
482.90 1.114
483.00 1.112
483.10 1.11
483.20 1.107
483.30 1.105
483.40 1.103
483.50 1.1
483.60 1.098
483.70 1.096
483.80 1.094
483.90 1.091
484.00 1.089
484.10 1.087
484.20 1.084
484.30 1.081
484.40 1.079
484.50 1.076
484.60 1.074
484.70 1.071
484.80 1.068
484.90 1.066
485.00 1.063
485.10 1.06
485.20 1.058
485.30 1.055
485.40 1.053
485.50 1.051
485.60 1.049
485.70 1.048
485.80 1.048
485.90 1.049
486.00 1.053
486.10 1.059
486.20 1.057
486.30 1.048
486.40 1.044
486.50 1.042
486.60 1.041
486.70 1.04
486.80 1.041
486.90 1.041
487.00 1.042
487.10 1.043
487.20 1.044
487.30 1.045
487.40 1.046
487.50 1.047
487.60 1.048
487.70 1.049
487.80 1.05
487.90 1.051
488.00 1.051
488.10 1.052
488.20 1.053
488.30 1.054
488.40 1.054
488.50 1.055
488.60 1.055
488.70 1.056
488.80 1.056
488.90 1.057
489.00 1.058
489.10 1.058
489.20 1.058
489.30 1.059
489.40 1.059
489.50 1.059
489.60 1.059
489.70 1.059
489.80 1.059
489.90 1.059
490.00 1.06
490.10 1.06
490.20 1.06
490.30 1.059
490.40 1.059
490.50 1.059
490.60 1.059
490.70 1.059
490.80 1.059
490.90 1.058
491.00 1.058
491.10 1.058
491.20 1.058
491.30 1.057
491.40 1.057
491.50 1.057
491.60 1.056
491.70 1.056
491.80 1.055
491.90 1.055
492.00 1.055
492.10 1.054
492.20 1.054
492.30 1.053
492.40 1.053
492.50 1.052
492.60 1.052
492.70 1.051
492.80 1.05
492.90 1.05
493.00 1.049
493.10 1.049
493.20 1.048
493.30 1.048
493.40 1.047
493.50 1.046
493.60 1.046
493.70 1.045
493.80 1.045
493.90 1.044
494.00 1.043
494.10 1.043
494.20 1.042
494.30 1.041
494.40 1.041
494.50 1.04
494.60 1.039
494.70 1.039
494.80 1.038
494.90 1.037
495.00 1.037
495.10 1.036
495.20 1.035
495.30 1.035
495.40 1.034
495.50 1.033
495.60 1.032
495.70 1.032
495.80 1.031
495.90 1.03
496.00 1.03
496.10 1.029
496.20 1.028
496.30 1.027
496.40 1.027
496.50 1.026
496.60 1.025
496.70 1.025
496.80 1.024
496.90 1.023
497.00 1.022
497.10 1.022
497.20 1.021
497.30 1.02
497.40 1.019
497.50 1.019
497.60 1.018
497.70 1.017
497.80 1.016
497.90 1.016
498.00 1.015
498.10 1.014
498.20 1.013
498.30 1.013
498.40 1.012
498.50 1.011
498.60 1.01
498.70 1.01
498.80 1.009
498.90 1.008
499.00 1.007
499.10 1.007
499.20 1.006
499.30 1.005
499.40 1.004
499.50 1.004
499.60 1.003
499.70 1.002
499.80 1.001
499.90 1.001
500.00 1
500.10 0.9993
500.20 0.9985
500.30 0.9978
500.40 0.997
500.50 0.9963
500.60 0.9955
500.70 0.9948
500.80 0.994
500.90 0.9933
501.00 0.9925
501.10 0.9918
501.20 0.991
501.30 0.9903
501.40 0.9895
501.50 0.9888
501.60 0.988
501.70 0.9873
501.80 0.9865
501.90 0.9858
502.00 0.9851
502.10 0.9843
502.20 0.9836
502.30 0.9828
502.40 0.9821
502.50 0.9813
502.60 0.9806
502.70 0.9799
502.80 0.9791
502.90 0.9784
503.00 0.9776
503.10 0.9769
503.20 0.9761
503.30 0.9754
503.40 0.9747
503.50 0.9739
503.60 0.9732
503.70 0.9724
503.80 0.9717
503.90 0.971
504.00 0.9702
504.10 0.9695
504.20 0.9688
504.30 0.968
504.40 0.9673
504.50 0.9666
504.60 0.9658
504.70 0.9651
504.80 0.9644
504.90 0.9636
505.00 0.9629
505.10 0.9622
505.20 0.9614
505.30 0.9607
505.40 0.96
505.50 0.9592
505.60 0.9585
505.70 0.9578
505.80 0.9571
505.90 0.9563
506.00 0.9556
506.10 0.9549
506.20 0.9542
506.30 0.9534
506.40 0.9527
506.50 0.952
506.60 0.9513
506.70 0.9505
506.80 0.9498
506.90 0.9491
507.00 0.9484
507.10 0.9477
507.20 0.9469
507.30 0.9462
507.40 0.9455
507.50 0.9448
507.60 0.9441
507.70 0.9433
507.80 0.9426
507.90 0.9419
508.00 0.9412
508.10 0.9405
508.20 0.9398
508.30 0.9391
508.40 0.9383
508.50 0.9376
508.60 0.9369
508.70 0.9362
508.80 0.9355
508.90 0.9348
509.00 0.9341
509.10 0.9334
509.20 0.9327
509.30 0.932
509.40 0.9312
509.50 0.9305
509.60 0.9298
509.70 0.9291
509.80 0.9284
509.90 0.9277
510.00 0.927
510.10 0.9263
510.20 0.9256
510.30 0.9249
510.40 0.9242
510.50 0.9235
510.60 0.9228
510.70 0.9221
510.80 0.9214
510.90 0.9207
511.00 0.92
511.10 0.9193
511.20 0.9186
511.30 0.9179
511.40 0.9172
511.50 0.9165
511.60 0.9159
511.70 0.9152
511.80 0.9145
511.90 0.9138
512.00 0.9131
512.10 0.9124
512.20 0.9117
512.30 0.911
512.40 0.9103
512.50 0.9096
512.60 0.909
512.70 0.9083
512.80 0.9076
512.90 0.9069
513.00 0.9062
513.10 0.9055
513.20 0.9048
513.30 0.9042
513.40 0.9035
513.50 0.9028
513.60 0.9021
513.70 0.9014
513.80 0.9008
513.90 0.9001
514.00 0.8994
514.10 0.8987
514.20 0.898
514.30 0.8974
514.40 0.8967
514.50 0.896
514.60 0.8953
514.70 0.8947
514.80 0.894
514.90 0.8933
515.00 0.8926
515.10 0.892
515.20 0.8913
515.30 0.8906
515.40 0.89
515.50 0.8893
515.60 0.8886
515.70 0.888
515.80 0.8873
515.90 0.8866
516.00 0.886
516.10 0.8853
516.20 0.8846
516.30 0.884
516.40 0.8833
516.50 0.8826
516.60 0.882
516.70 0.8813
516.80 0.8806
516.90 0.88
517.00 0.8793
517.10 0.8787
517.20 0.878
517.30 0.8773
517.40 0.8767
517.50 0.876
517.60 0.8754
517.70 0.8747
517.80 0.8741
517.90 0.8734
518.00 0.8728
518.10 0.8721
518.20 0.8714
518.30 0.8708
518.40 0.8701
518.50 0.8695
518.60 0.8688
518.70 0.8682
518.80 0.8675
518.90 0.8669
519.00 0.8662
519.10 0.8656
519.20 0.8649
519.30 0.8643
519.40 0.8637
519.50 0.863
519.60 0.8624
519.70 0.8617
519.80 0.8611
519.90 0.8604
520.00 0.8598
520.10 0.8592
520.20 0.8585
520.30 0.8579
520.40 0.8572
520.50 0.8566
520.60 0.856
520.70 0.8553
520.80 0.8547
520.90 0.854
521.00 0.8534
521.10 0.8528
521.20 0.8521
521.30 0.8515
521.40 0.8509
521.50 0.8502
521.60 0.8496
521.70 0.849
521.80 0.8483
521.90 0.8477
522.00 0.8471
522.10 0.8464
522.20 0.8458
522.30 0.8452
522.40 0.8446
522.50 0.8439
522.60 0.8433
522.70 0.8427
522.80 0.842
522.90 0.8414
523.00 0.8408
523.10 0.8402
523.20 0.8395
523.30 0.8389
523.40 0.8383
523.50 0.8377
523.60 0.8371
523.70 0.8364
523.80 0.8358
523.90 0.8352
524.00 0.8346
524.10 0.834
524.20 0.8333
524.30 0.8327
524.40 0.8321
524.50 0.8315
524.60 0.8309
524.70 0.8303
524.80 0.8296
524.90 0.829
525.00 0.8284
525.10 0.8278
525.20 0.8272
525.30 0.8266
525.40 0.826
525.50 0.8254
525.60 0.8247
525.70 0.8241
525.80 0.8235
525.90 0.8229
526.00 0.8223
526.10 0.8217
526.20 0.8211
526.30 0.8205
526.40 0.8199
526.50 0.8193
526.60 0.8187
526.70 0.8181
526.80 0.8175
526.90 0.8169
527.00 0.8163
527.10 0.8157
527.20 0.8151
527.30 0.8145
527.40 0.8139
527.50 0.8133
527.60 0.8127
527.70 0.8121
527.80 0.8115
527.90 0.8109
528.00 0.8103
528.10 0.8097
528.20 0.8091
528.30 0.8085
528.40 0.8079
528.50 0.8073
528.60 0.8067
528.70 0.8061
528.80 0.8055
528.90 0.8049
529.00 0.8043
529.10 0.8037
529.20 0.8031
529.30 0.8026
529.40 0.802
529.50 0.8014
529.60 0.8008
529.70 0.8002
529.80 0.7996
529.90 0.799
530.00 0.7984
530.10 0.7979
530.20 0.7973
530.30 0.7967
530.40 0.7961
530.50 0.7955
530.60 0.7949
530.70 0.7944
530.80 0.7938
530.90 0.7932
531.00 0.7926
531.10 0.792
531.20 0.7915
531.30 0.7909
531.40 0.7903
531.50 0.7897
531.60 0.7891
531.70 0.7886
531.80 0.788
531.90 0.7874
532.00 0.7868
532.10 0.7863
532.20 0.7857
532.30 0.7851
532.40 0.7845
532.50 0.784
532.60 0.7834
532.70 0.7828
532.80 0.7823
532.90 0.7817
533.00 0.7811
533.10 0.7805
533.20 0.78
533.30 0.7794
533.40 0.7788
533.50 0.7783
533.60 0.7777
533.70 0.7771
533.80 0.7766
533.90 0.776
534.00 0.7754
534.10 0.7749
534.20 0.7743
534.30 0.7737
534.40 0.7732
534.50 0.7726
534.60 0.7721
534.70 0.7715
534.80 0.7709
534.90 0.7704
535.00 0.7698
535.10 0.7693
535.20 0.7687
535.30 0.7681
535.40 0.7676
535.50 0.767
535.60 0.7665
535.70 0.7659
535.80 0.7654
535.90 0.7648
536.00 0.7642
536.10 0.7637
536.20 0.7631
536.30 0.7626
536.40 0.762
536.50 0.7615
536.60 0.7609
536.70 0.7604
536.80 0.7598
536.90 0.7593
537.00 0.7587
537.10 0.7582
537.20 0.7576
537.30 0.7571
537.40 0.7565
537.50 0.756
537.60 0.7554
537.70 0.7549
537.80 0.7543
537.90 0.7538
538.00 0.7533
538.10 0.7527
538.20 0.7522
538.30 0.7516
538.40 0.7511
538.50 0.7505
538.60 0.75
538.70 0.7494
538.80 0.7489
538.90 0.7484
539.00 0.7478
539.10 0.7473
539.20 0.7467
539.30 0.7462
539.40 0.7457
539.50 0.7451
539.60 0.7446
539.70 0.7441
539.80 0.7435
539.90 0.743
540.00 0.7425
540.10 0.7419
540.20 0.7414
540.30 0.7408
540.40 0.7403
540.50 0.7398
540.60 0.7393
540.70 0.7387
540.80 0.7382
540.90 0.7377
541.00 0.7371
541.10 0.7366
541.20 0.7361
541.30 0.7355
541.40 0.735
541.50 0.7345
541.60 0.734
541.70 0.7334
541.80 0.7329
541.90 0.7324
542.00 0.7318
542.10 0.7313
542.20 0.7308
542.30 0.7303
542.40 0.7298
542.50 0.7292
542.60 0.7287
542.70 0.7282
542.80 0.7277
542.90 0.7271
543.00 0.7266
543.10 0.7261
543.20 0.7256
543.30 0.7251
543.40 0.7245
543.50 0.724
543.60 0.7235
543.70 0.723
543.80 0.7225
543.90 0.722
544.00 0.7214
544.10 0.7209
544.20 0.7204
544.30 0.7199
544.40 0.7194
544.50 0.7189
544.60 0.7183
544.70 0.7178
544.80 0.7173
544.90 0.7168
545.00 0.7163
545.10 0.7158
545.20 0.7153
545.30 0.7148
545.40 0.7143
545.50 0.7137
545.60 0.7132
545.70 0.7127
545.80 0.7122
545.90 0.7117
546.00 0.7112
546.10 0.7107
546.20 0.7102
546.30 0.7097
546.40 0.7092
546.50 0.7087
546.60 0.7082
546.70 0.7077
546.80 0.7072
546.90 0.7067
547.00 0.7062
547.10 0.7057
547.20 0.7052
547.30 0.7047
547.40 0.7042
547.50 0.7036
547.60 0.7031
547.70 0.7027
547.80 0.7022
547.90 0.7017
548.00 0.7012
548.10 0.7007
548.20 0.7002
548.30 0.6997
548.40 0.6992
548.50 0.6987
548.60 0.6982
548.70 0.6977
548.80 0.6972
548.90 0.6967
549.00 0.6962
549.10 0.6957
549.20 0.6952
549.30 0.6947
549.40 0.6942
549.50 0.6937
549.60 0.6932
549.70 0.6928
549.80 0.6923
549.90 0.6918
550.00 0.6913
550.10 0.6908
550.20 0.6903
550.30 0.6898
550.40 0.6893
550.50 0.6888
550.60 0.6884
550.70 0.6879
550.80 0.6874
550.90 0.6869
551.00 0.6864
551.10 0.6859
551.20 0.6854
551.30 0.685
551.40 0.6845
551.50 0.684
551.60 0.6835
551.70 0.683
551.80 0.6825
551.90 0.6821
552.00 0.6816
552.10 0.6811
552.20 0.6806
552.30 0.6801
552.40 0.6797
552.50 0.6792
552.60 0.6787
552.70 0.6782
552.80 0.6778
552.90 0.6773
553.00 0.6768
553.10 0.6763
553.20 0.6758
553.30 0.6754
553.40 0.6749
553.50 0.6744
553.60 0.6739
553.70 0.6735
553.80 0.673
553.90 0.6725
554.00 0.6721
554.10 0.6716
554.20 0.6711
554.30 0.6706
554.40 0.6702
554.50 0.6697
554.60 0.6692
554.70 0.6688
554.80 0.6683
554.90 0.6678
555.00 0.6674
555.10 0.6669
555.20 0.6664
555.30 0.6659
555.40 0.6655
555.50 0.665
555.60 0.6645
555.70 0.6641
555.80 0.6636
555.90 0.6632
556.00 0.6627
556.10 0.6622
556.20 0.6618
556.30 0.6613
556.40 0.6608
556.50 0.6604
556.60 0.6599
556.70 0.6595
556.80 0.659
556.90 0.6585
557.00 0.6581
557.10 0.6576
557.20 0.6572
557.30 0.6567
557.40 0.6562
557.50 0.6558
557.60 0.6553
557.70 0.6549
557.80 0.6544
557.90 0.6539
558.00 0.6535
558.10 0.653
558.20 0.6526
558.30 0.6521
558.40 0.6517
558.50 0.6512
558.60 0.6508
558.70 0.6503
558.80 0.6499
558.90 0.6494
559.00 0.6489
559.10 0.6485
559.20 0.648
559.30 0.6476
559.40 0.6471
559.50 0.6467
559.60 0.6462
559.70 0.6458
559.80 0.6453
559.90 0.6449
560.00 0.6444
560.10 0.644
560.20 0.6436
560.30 0.6431
560.40 0.6427
560.50 0.6422
560.60 0.6418
560.70 0.6413
560.80 0.6409
560.90 0.6404
561.00 0.64
561.10 0.6395
561.20 0.6391
561.30 0.6387
561.40 0.6382
561.50 0.6378
561.60 0.6373
561.70 0.6369
561.80 0.6364
561.90 0.636
562.00 0.6356
562.10 0.6351
562.20 0.6347
562.30 0.6342
562.40 0.6338
562.50 0.6334
562.60 0.6329
562.70 0.6325
562.80 0.6321
562.90 0.6316
563.00 0.6312
563.10 0.6307
563.20 0.6303
563.30 0.6299
563.40 0.6294
563.50 0.629
563.60 0.6286
563.70 0.6281
563.80 0.6277
563.90 0.6273
564.00 0.6268
564.10 0.6264
564.20 0.626
564.30 0.6255
564.40 0.6251
564.50 0.6247
564.60 0.6242
564.70 0.6238
564.80 0.6234
564.90 0.623
565.00 0.6225
565.10 0.6221
565.20 0.6217
565.30 0.6212
565.40 0.6208
565.50 0.6204
565.60 0.62
565.70 0.6195
565.80 0.6191
565.90 0.6187
566.00 0.6182
566.10 0.6178
566.20 0.6174
566.30 0.617
566.40 0.6165
566.50 0.6161
566.60 0.6157
566.70 0.6153
566.80 0.6149
566.90 0.6144
567.00 0.614
567.10 0.6136
567.20 0.6132
567.30 0.6128
567.40 0.6123
567.50 0.6119
567.60 0.6115
567.70 0.6111
567.80 0.6107
567.90 0.6102
568.00 0.6098
568.10 0.6094
568.20 0.609
568.30 0.6086
568.40 0.6081
568.50 0.6077
568.60 0.6073
568.70 0.6069
568.80 0.6065
568.90 0.6061
569.00 0.6056
569.10 0.6052
569.20 0.6048
569.30 0.6044
569.40 0.604
569.50 0.6036
569.60 0.6032
569.70 0.6028
569.80 0.6023
569.90 0.6019
570.00 0.6015
570.10 0.6011
570.20 0.6007
570.30 0.6003
570.40 0.5999
570.50 0.5995
570.60 0.5991
570.70 0.5987
570.80 0.5982
570.90 0.5978
571.00 0.5974
571.10 0.597
571.20 0.5966
571.30 0.5962
571.40 0.5958
571.50 0.5954
571.60 0.595
571.70 0.5946
571.80 0.5942
571.90 0.5938
572.00 0.5934
572.10 0.593
572.20 0.5926
572.30 0.5922
572.40 0.5918
572.50 0.5914
572.60 0.591
572.70 0.5906
572.80 0.5902
572.90 0.5897
573.00 0.5893
573.10 0.5889
573.20 0.5885
573.30 0.5881
573.40 0.5877
573.50 0.5874
573.60 0.587
573.70 0.5866
573.80 0.5862
573.90 0.5858
574.00 0.5854
574.10 0.585
574.20 0.5846
574.30 0.5842
574.40 0.5838
574.50 0.5834
574.60 0.583
574.70 0.5826
574.80 0.5822
574.90 0.5818
575.00 0.5814
575.10 0.581
575.20 0.5806
575.30 0.5802
575.40 0.5798
575.50 0.5794
575.60 0.579
575.70 0.5787
575.80 0.5783
575.90 0.5779
576.00 0.5775
576.10 0.5771
576.20 0.5767
576.30 0.5763
576.40 0.5759
576.50 0.5755
576.60 0.5751
576.70 0.5748
576.80 0.5744
576.90 0.574
577.00 0.5736
577.10 0.5732
577.20 0.5728
577.30 0.5724
577.40 0.572
577.50 0.5717
577.60 0.5713
577.70 0.5709
577.80 0.5705
577.90 0.5701
578.00 0.5697
578.10 0.5693
578.20 0.569
578.30 0.5686
578.40 0.5682
578.50 0.5678
578.60 0.5674
578.70 0.567
578.80 0.5667
578.90 0.5663
579.00 0.5659
579.10 0.5655
579.20 0.5651
579.30 0.5648
579.40 0.5644
579.50 0.564
579.60 0.5636
579.70 0.5632
579.80 0.5629
579.90 0.5625
580.00 0.5621
580.10 0.5617
580.20 0.5614
580.30 0.561
580.40 0.5606
580.50 0.5602
580.60 0.5599
580.70 0.5595
580.80 0.5591
580.90 0.5587
581.00 0.5584
581.10 0.558
581.20 0.5576
581.30 0.5572
581.40 0.5569
581.50 0.5565
581.60 0.5561
581.70 0.5557
581.80 0.5554
581.90 0.555
582.00 0.5546
582.10 0.5543
582.20 0.5539
582.30 0.5535
582.40 0.5531
582.50 0.5528
582.60 0.5524
582.70 0.552
582.80 0.5517
582.90 0.5513
583.00 0.5509
583.10 0.5506
583.20 0.5502
583.30 0.5498
583.40 0.5495
583.50 0.5491
583.60 0.5487
583.70 0.5484
583.80 0.548
583.90 0.5476
584.00 0.5473
584.10 0.5469
584.20 0.5465
584.30 0.5462
584.40 0.5458
584.50 0.5454
584.60 0.5451
584.70 0.5447
584.80 0.5443
584.90 0.544
585.00 0.5436
585.10 0.5433
585.20 0.5429
585.30 0.5425
585.40 0.5422
585.50 0.5418
585.60 0.5415
585.70 0.5411
585.80 0.5407
585.90 0.5404
586.00 0.54
586.10 0.5397
586.20 0.5393
586.30 0.5389
586.40 0.5386
586.50 0.5382
586.60 0.5379
586.70 0.5375
586.80 0.5372
586.90 0.5368
587.00 0.5364
587.10 0.5361
587.20 0.5357
587.30 0.5354
587.40 0.535
587.50 0.5347
587.60 0.5343
587.70 0.534
587.80 0.5336
587.90 0.5333
588.00 0.5329
588.10 0.5325
588.20 0.5322
588.30 0.5318
588.40 0.5315
588.50 0.5311
588.60 0.5308
588.70 0.5304
588.80 0.5301
588.90 0.5297
589.00 0.5294
589.10 0.529
589.20 0.5287
589.30 0.5283
589.40 0.528
589.50 0.5276
589.60 0.5273
589.70 0.5269
589.80 0.5266
589.90 0.5262
590.00 0.5259
590.10 0.5255
590.20 0.5252
590.30 0.5248
590.40 0.5245
590.50 0.5242
590.60 0.5238
590.70 0.5235
590.80 0.5231
590.90 0.5228
591.00 0.5224
591.10 0.5221
591.20 0.5217
591.30 0.5214
591.40 0.5211
591.50 0.5207
591.60 0.5204
591.70 0.52
591.80 0.5197
591.90 0.5193
592.00 0.519
592.10 0.5187
592.20 0.5183
592.30 0.518
592.40 0.5176
592.50 0.5173
592.60 0.517
592.70 0.5166
592.80 0.5163
592.90 0.5159
593.00 0.5156
593.10 0.5153
593.20 0.5149
593.30 0.5146
593.40 0.5142
593.50 0.5139
593.60 0.5136
593.70 0.5132
593.80 0.5129
593.90 0.5126
594.00 0.5122
594.10 0.5119
594.20 0.5115
594.30 0.5112
594.40 0.5109
594.50 0.5105
594.60 0.5102
594.70 0.5099
594.80 0.5095
594.90 0.5092
595.00 0.5089
595.10 0.5085
595.20 0.5082
595.30 0.5079
595.40 0.5075
595.50 0.5072
595.60 0.5069
595.70 0.5065
595.80 0.5062
595.90 0.5059
596.00 0.5056
596.10 0.5052
596.20 0.5049
596.30 0.5046
596.40 0.5042
596.50 0.5039
596.60 0.5036
596.70 0.5032
596.80 0.5029
596.90 0.5026
597.00 0.5023
597.10 0.5019
597.20 0.5016
597.30 0.5013
597.40 0.5009
597.50 0.5006
597.60 0.5003
597.70 0.5
597.80 0.4996
597.90 0.4993
598.00 0.499
598.10 0.4987
598.20 0.4983
598.30 0.498
598.40 0.4977
598.50 0.4974
598.60 0.497
598.70 0.4967
598.80 0.4964
598.90 0.4961
599.00 0.4957
599.10 0.4954
599.20 0.4951
599.30 0.4948
599.40 0.4945
599.50 0.4941
599.60 0.4938
599.70 0.4935
599.80 0.4932
599.90 0.4929
600.00 0.4925
600.10 0.4922
600.20 0.4919
600.30 0.4916
600.40 0.4913
600.50 0.4909
600.60 0.4906
600.70 0.4903
600.80 0.49
600.90 0.4897
601.00 0.4893
601.10 0.489
601.20 0.4887
601.30 0.4884
601.40 0.4881
601.50 0.4878
601.60 0.4874
601.70 0.4871
601.80 0.4868
601.90 0.4865
602.00 0.4862
602.10 0.4859
602.20 0.4856
602.30 0.4852
602.40 0.4849
602.50 0.4846
602.60 0.4843
602.70 0.484
602.80 0.4837
602.90 0.4834
603.00 0.4831
603.10 0.4827
603.20 0.4824
603.30 0.4821
603.40 0.4818
603.50 0.4815
603.60 0.4812
603.70 0.4809
603.80 0.4806
603.90 0.4803
604.00 0.4799
604.10 0.4796
604.20 0.4793
604.30 0.479
604.40 0.4787
604.50 0.4784
604.60 0.4781
604.70 0.4778
604.80 0.4775
604.90 0.4772
605.00 0.4769
605.10 0.4765
605.20 0.4762
605.30 0.4759
605.40 0.4756
605.50 0.4753
605.60 0.475
605.70 0.4747
605.80 0.4744
605.90 0.4741
606.00 0.4738
606.10 0.4735
606.20 0.4732
606.30 0.4729
606.40 0.4726
606.50 0.4723
606.60 0.472
606.70 0.4717
606.80 0.4714
606.90 0.4711
607.00 0.4708
607.10 0.4704
607.20 0.4701
607.30 0.4698
607.40 0.4695
607.50 0.4692
607.60 0.4689
607.70 0.4686
607.80 0.4683
607.90 0.468
608.00 0.4677
608.10 0.4674
608.20 0.4671
608.30 0.4668
608.40 0.4665
608.50 0.4662
608.60 0.4659
608.70 0.4656
608.80 0.4653
608.90 0.465
609.00 0.4648
609.10 0.4645
609.20 0.4642
609.30 0.4639
609.40 0.4636
609.50 0.4633
609.60 0.463
609.70 0.4627
609.80 0.4624
609.90 0.4621
610.00 0.4618
610.10 0.4615
610.20 0.4612
610.30 0.4609
610.40 0.4606
610.50 0.4603
610.60 0.46
610.70 0.4597
610.80 0.4594
610.90 0.4591
611.00 0.4588
611.10 0.4585
611.20 0.4583
611.30 0.458
611.40 0.4577
611.50 0.4574
611.60 0.4571
611.70 0.4568
611.80 0.4565
611.90 0.4562
612.00 0.4559
612.10 0.4556
612.20 0.4553
612.30 0.4551
612.40 0.4548
612.50 0.4545
612.60 0.4542
612.70 0.4539
612.80 0.4536
612.90 0.4533
613.00 0.453
613.10 0.4527
613.20 0.4525
613.30 0.4522
613.40 0.4519
613.50 0.4516
613.60 0.4513
613.70 0.451
613.80 0.4507
613.90 0.4504
614.00 0.4502
614.10 0.4499
614.20 0.4496
614.30 0.4493
614.40 0.449
614.50 0.4487
614.60 0.4484
614.70 0.4482
614.80 0.4479
614.90 0.4476
615.00 0.4473
615.10 0.447
615.20 0.4467
615.30 0.4465
615.40 0.4462
615.50 0.4459
615.60 0.4456
615.70 0.4453
615.80 0.445
615.90 0.4448
616.00 0.4445
616.10 0.4442
616.20 0.4439
616.30 0.4436
616.40 0.4434
616.50 0.4431
616.60 0.4428
616.70 0.4425
616.80 0.4422
616.90 0.442
617.00 0.4417
617.10 0.4414
617.20 0.4411
617.30 0.4408
617.40 0.4406
617.50 0.4403
617.60 0.44
617.70 0.4397
617.80 0.4394
617.90 0.4392
618.00 0.4389
618.10 0.4386
618.20 0.4383
618.30 0.4381
618.40 0.4378
618.50 0.4375
618.60 0.4372
618.70 0.437
618.80 0.4367
618.90 0.4364
619.00 0.4361
619.10 0.4358
619.20 0.4356
619.30 0.4353
619.40 0.435
619.50 0.4348
619.60 0.4345
619.70 0.4342
619.80 0.4339
619.90 0.4337
620.00 0.4334
620.10 0.4331
620.20 0.4328
620.30 0.4326
620.40 0.4323
620.50 0.432
620.60 0.4318
620.70 0.4315
620.80 0.4312
620.90 0.4309
621.00 0.4307
621.10 0.4304
621.20 0.4301
621.30 0.4299
621.40 0.4296
621.50 0.4293
621.60 0.429
621.70 0.4288
621.80 0.4285
621.90 0.4282
622.00 0.428
622.10 0.4277
622.20 0.4274
622.30 0.4272
622.40 0.4269
622.50 0.4266
622.60 0.4264
622.70 0.4261
622.80 0.4258
622.90 0.4256
623.00 0.4253
623.10 0.425
623.20 0.4248
623.30 0.4245
623.40 0.4242
623.50 0.424
623.60 0.4237
623.70 0.4234
623.80 0.4232
623.90 0.4229
624.00 0.4226
624.10 0.4224
624.20 0.4221
624.30 0.4218
624.40 0.4216
624.50 0.4213
624.60 0.421
624.70 0.4208
624.80 0.4205
624.90 0.4203
625.00 0.42
625.10 0.4197
625.20 0.4195
625.30 0.4192
625.40 0.4189
625.50 0.4187
625.60 0.4184
625.70 0.4182
625.80 0.4179
625.90 0.4176
626.00 0.4174
626.10 0.4171
626.20 0.4169
626.30 0.4166
626.40 0.4163
626.50 0.4161
626.60 0.4158
626.70 0.4156
626.80 0.4153
626.90 0.415
627.00 0.4148
627.10 0.4145
627.20 0.4143
627.30 0.414
627.40 0.4137
627.50 0.4135
627.60 0.4132
627.70 0.413
627.80 0.4127
627.90 0.4125
628.00 0.4122
628.10 0.4119
628.20 0.4117
628.30 0.4114
628.40 0.4112
628.50 0.4109
628.60 0.4107
628.70 0.4104
628.80 0.4102
628.90 0.4099
629.00 0.4096
629.10 0.4094
629.20 0.4091
629.30 0.4089
629.40 0.4086
629.50 0.4084
629.60 0.4081
629.70 0.4079
629.80 0.4076
629.90 0.4074
630.00 0.4071
630.10 0.4068
630.20 0.4066
630.30 0.4063
630.40 0.4061
630.50 0.4058
630.60 0.4056
630.70 0.4053
630.80 0.4051
630.90 0.4048
631.00 0.4046
631.10 0.4043
631.20 0.4041
631.30 0.4038
631.40 0.4036
631.50 0.4033
631.60 0.4031
631.70 0.4028
631.80 0.4026
631.90 0.4023
632.00 0.4021
632.10 0.4018
632.20 0.4016
632.30 0.4013
632.40 0.4011
632.50 0.4008
632.60 0.4006
632.70 0.4003
632.80 0.4001
632.90 0.3998
633.00 0.3996
633.10 0.3993
633.20 0.3991
633.30 0.3988
633.40 0.3986
633.50 0.3983
633.60 0.3981
633.70 0.3979
633.80 0.3976
633.90 0.3974
634.00 0.3971
634.10 0.3969
634.20 0.3966
634.30 0.3964
634.40 0.3961
634.50 0.3959
634.60 0.3956
634.70 0.3954
634.80 0.3951
634.90 0.3949
635.00 0.3947
635.10 0.3944
635.20 0.3942
635.30 0.3939
635.40 0.3937
635.50 0.3934
635.60 0.3932
635.70 0.393
635.80 0.3927
635.90 0.3925
636.00 0.3922
636.10 0.392
636.20 0.3917
636.30 0.3915
636.40 0.3913
636.50 0.391
636.60 0.3908
636.70 0.3905
636.80 0.3903
636.90 0.39
637.00 0.3898
637.10 0.3896
637.20 0.3893
637.30 0.3891
637.40 0.3888
637.50 0.3886
637.60 0.3884
637.70 0.3881
637.80 0.3879
637.90 0.3876
638.00 0.3874
638.10 0.3871
638.20 0.3869
638.30 0.3867
638.40 0.3864
638.50 0.3862
638.60 0.3859
638.70 0.3857
638.80 0.3855
638.90 0.3852
639.00 0.385
639.10 0.3847
639.20 0.3845
639.30 0.3843
639.40 0.384
639.50 0.3838
639.60 0.3836
639.70 0.3833
639.80 0.3831
639.90 0.3828
640.00 0.3826
640.10 0.3824
640.20 0.3821
640.30 0.3819
640.40 0.3816
640.50 0.3814
640.60 0.3812
640.70 0.3809
640.80 0.3807
640.90 0.3805
641.00 0.3802
641.10 0.38
641.20 0.3797
641.30 0.3795
641.40 0.3793
641.50 0.379
641.60 0.3788
641.70 0.3786
641.80 0.3783
641.90 0.3781
642.00 0.3779
642.10 0.3776
642.20 0.3774
642.30 0.3771
642.40 0.3769
642.50 0.3767
642.60 0.3764
642.70 0.3762
642.80 0.376
642.90 0.3757
643.00 0.3755
643.10 0.3752
643.20 0.375
643.30 0.3748
643.40 0.3745
643.50 0.3743
643.60 0.3741
643.70 0.3738
643.80 0.3736
643.90 0.3733
644.00 0.3731
644.10 0.3729
644.20 0.3726
644.30 0.3724
644.40 0.3722
644.50 0.3719
644.60 0.3717
644.70 0.3714
644.80 0.3712
644.90 0.371
645.00 0.3707
645.10 0.3705
645.20 0.3702
645.30 0.37
645.40 0.3698
645.50 0.3695
645.60 0.3693
645.70 0.369
645.80 0.3688
645.90 0.3686
646.00 0.3683
646.10 0.3681
646.20 0.3678
646.30 0.3676
646.40 0.3673
646.50 0.3671
646.60 0.3668
646.70 0.3666
646.80 0.3664
646.90 0.3661
647.00 0.3659
647.10 0.3656
647.20 0.3654
647.30 0.3651
647.40 0.3649
647.50 0.3646
647.60 0.3644
647.70 0.3641
647.80 0.3639
647.90 0.3636
648.00 0.3633
648.10 0.3631
648.20 0.3628
648.30 0.3626
648.40 0.3623
648.50 0.3621
648.60 0.3618
648.70 0.3615
648.80 0.3613
648.90 0.361
649.00 0.3607
649.10 0.3605
649.20 0.3602
649.30 0.3599
649.40 0.3596
649.50 0.3594
649.60 0.3591
649.70 0.3588
649.80 0.3585
649.90 0.3582
650.00 0.3579
650.10 0.3576
650.20 0.3574
650.30 0.3571
650.40 0.3568
650.50 0.3564
650.60 0.3561
650.70 0.3558
650.80 0.3555
650.90 0.3552
651.00 0.3549
651.10 0.3545
651.20 0.3542
651.30 0.3539
651.40 0.3535
651.50 0.3532
651.60 0.3528
651.70 0.3524
651.80 0.3521
651.90 0.3517
652.00 0.3513
652.10 0.351
652.20 0.3506
652.30 0.3502
652.40 0.3498
652.50 0.3494
652.60 0.3489
652.70 0.3485
652.80 0.348
652.90 0.3476
653.00 0.3472
653.10 0.3467
653.20 0.3463
653.30 0.3458
653.40 0.3453
653.50 0.3447
653.60 0.3442
653.70 0.3436
653.80 0.3431
653.90 0.3426
654.00 0.342
654.10 0.3415
654.20 0.3409
654.30 0.3404
654.40 0.3398
654.50 0.3391
654.60 0.3385
654.70 0.3379
654.80 0.3373
654.90 0.3366
655.00 0.336
655.10 0.3354
655.20 0.3347
655.30 0.3341
655.40 0.3335
655.50 0.3329
655.60 0.3324
655.70 0.332
655.80 0.3318
655.90 0.3318
656.00 0.3332
656.10 0.335
656.20 0.345
656.30 0.3533
656.40 0.3395
656.50 0.3332
656.60 0.3314
656.70 0.33
656.80 0.3298
656.90 0.3297
657.00 0.3298
657.10 0.33
657.20 0.3302
657.30 0.3304
657.40 0.3306
657.50 0.3309
657.60 0.3311
657.70 0.3313
657.80 0.3316
657.90 0.3318
658.00 0.332
658.10 0.3322
658.20 0.3325
658.30 0.3327
658.40 0.3328
658.50 0.3329
658.60 0.3331
658.70 0.3332
658.80 0.3333
658.90 0.3335
659.00 0.3336
659.10 0.3337
659.20 0.3339
659.30 0.334
659.40 0.334
659.50 0.334
659.60 0.3341
659.70 0.3341
659.80 0.3341
659.90 0.3342
660.00 0.3342
660.10 0.3342
660.20 0.3342
660.30 0.3342
660.40 0.3342
660.50 0.3341
660.60 0.3341
660.70 0.334
660.80 0.334
660.90 0.3339
661.00 0.3339
661.10 0.3338
661.20 0.3338
661.30 0.3337
661.40 0.3336
661.50 0.3335
661.60 0.3334
661.70 0.3333
661.80 0.3332
661.90 0.3331
662.00 0.333
662.10 0.3329
662.20 0.3328
662.30 0.3327
662.40 0.3326
662.50 0.3324
662.60 0.3323
662.70 0.3322
662.80 0.332
662.90 0.3319
663.00 0.3318
663.10 0.3316
663.20 0.3315
663.30 0.3314
663.40 0.3312
663.50 0.3311
663.60 0.3309
663.70 0.3308
663.80 0.3306
663.90 0.3304
664.00 0.3303
664.10 0.3301
664.20 0.33
664.30 0.3298
664.40 0.3297
664.50 0.3295
664.60 0.3293
664.70 0.3292
664.80 0.329
664.90 0.3289
665.00 0.3287
665.10 0.3285
665.20 0.3284
665.30 0.3282
665.40 0.328
665.50 0.3279
665.60 0.3277
665.70 0.3275
665.80 0.3273
665.90 0.3272
666.00 0.327
666.10 0.3268
666.20 0.3267
666.30 0.3265
666.40 0.3263
666.50 0.3261
666.60 0.326
666.70 0.3258
666.80 0.3256
666.90 0.3254
667.00 0.3253
667.10 0.3251
667.20 0.3249
667.30 0.3247
667.40 0.3246
667.50 0.3244
667.60 0.3242
667.70 0.324
667.80 0.3239
667.90 0.3237
668.00 0.3235
668.10 0.3233
668.20 0.3231
668.30 0.323
668.40 0.3228
668.50 0.3226
668.60 0.3224
668.70 0.3222
668.80 0.3221
668.90 0.3219
669.00 0.3217
669.10 0.3215
669.20 0.3214
669.30 0.3212
669.40 0.321
669.50 0.3208
669.60 0.3206
669.70 0.3205
669.80 0.3203
669.90 0.3201
670.00 0.3199
670.10 0.3197
670.20 0.3196
670.30 0.3194
670.40 0.3192
670.50 0.319
670.60 0.3188
670.70 0.3187
670.80 0.3185
670.90 0.3183
671.00 0.3181
671.10 0.3179
671.20 0.3178
671.30 0.3176
671.40 0.3174
671.50 0.3172
671.60 0.317
671.70 0.3169
671.80 0.3167
671.90 0.3165
672.00 0.3163
672.10 0.3161
672.20 0.316
672.30 0.3158
672.40 0.3156
672.50 0.3154
672.60 0.3152
672.70 0.3151
672.80 0.3149
672.90 0.3147
673.00 0.3145
673.10 0.3143
673.20 0.3142
673.30 0.314
673.40 0.3138
673.50 0.3136
673.60 0.3134
673.70 0.3133
673.80 0.3131
673.90 0.3129
674.00 0.3127
674.10 0.3126
674.20 0.3124
674.30 0.3122
674.40 0.312
674.50 0.3118
674.60 0.3117
674.70 0.3115
674.80 0.3113
674.90 0.3111
675.00 0.311
675.10 0.3108
675.20 0.3106
675.30 0.3104
675.40 0.3102
675.50 0.3101
675.60 0.3099
675.70 0.3097
675.80 0.3095
675.90 0.3094
676.00 0.3092
676.10 0.309
676.20 0.3088
676.30 0.3086
676.40 0.3085
676.50 0.3083
676.60 0.3081
676.70 0.3079
676.80 0.3078
676.90 0.3076
677.00 0.3074
677.10 0.3072
677.20 0.3071
677.30 0.3069
677.40 0.3067
677.50 0.3065
677.60 0.3064
677.70 0.3062
677.80 0.306
677.90 0.3058
678.00 0.3057
678.10 0.3055
678.20 0.3053
678.30 0.3051
678.40 0.305
678.50 0.3048
678.60 0.3046
678.70 0.3044
678.80 0.3043
678.90 0.3041
679.00 0.3039
679.10 0.3037
679.20 0.3036
679.30 0.3034
679.40 0.3032
679.50 0.3031
679.60 0.3029
679.70 0.3027
679.80 0.3025
679.90 0.3024
680.00 0.3022
680.10 0.302
680.20 0.3018
680.30 0.3017
680.40 0.3015
680.50 0.3013
680.60 0.3012
680.70 0.301
680.80 0.3008
680.90 0.3006
681.00 0.3005
681.10 0.3003
681.20 0.3001
681.30 0.3
681.40 0.2998
681.50 0.2996
681.60 0.2994
681.70 0.2993
681.80 0.2991
681.90 0.2989
682.00 0.2988
682.10 0.2986
682.20 0.2984
682.30 0.2983
682.40 0.2981
682.50 0.2979
682.60 0.2977
682.70 0.2976
682.80 0.2974
682.90 0.2972
683.00 0.2971
683.10 0.2969
683.20 0.2967
683.30 0.2966
683.40 0.2964
683.50 0.2962
683.60 0.2961
683.70 0.2959
683.80 0.2957
683.90 0.2955
684.00 0.2954
684.10 0.2952
684.20 0.295
684.30 0.2949
684.40 0.2947
684.50 0.2945
684.60 0.2944
684.70 0.2942
684.80 0.294
684.90 0.2939
685.00 0.2937
685.10 0.2935
685.20 0.2934
685.30 0.2932
685.40 0.293
685.50 0.2929
685.60 0.2927
685.70 0.2925
685.80 0.2924
685.90 0.2922
686.00 0.292
686.10 0.2919
686.20 0.2917
686.30 0.2915
686.40 0.2914
686.50 0.2912
686.60 0.291
686.70 0.2909
686.80 0.2907
686.90 0.2906
687.00 0.2904
687.10 0.2902
687.20 0.2901
687.30 0.2899
687.40 0.2897
687.50 0.2896
687.60 0.2894
687.70 0.2892
687.80 0.2891
687.90 0.2889
688.00 0.2887
688.10 0.2886
688.20 0.2884
688.30 0.2883
688.40 0.2881
688.50 0.2879
688.60 0.2878
688.70 0.2876
688.80 0.2874
688.90 0.2873
689.00 0.2871
689.10 0.287
689.20 0.2868
689.30 0.2866
689.40 0.2865
689.50 0.2863
689.60 0.2861
689.70 0.286
689.80 0.2858
689.90 0.2857
690.00 0.2855
690.10 0.2853
690.20 0.2852
690.30 0.285
690.40 0.2849
690.50 0.2847
690.60 0.2845
690.70 0.2844
690.80 0.2842
690.90 0.2841
691.00 0.2839
691.10 0.2837
691.20 0.2836
691.30 0.2834
691.40 0.2833
691.50 0.2831
691.60 0.2829
691.70 0.2828
691.80 0.2826
691.90 0.2825
692.00 0.2823
692.10 0.2821
692.20 0.282
692.30 0.2818
692.40 0.2817
692.50 0.2815
692.60 0.2814
692.70 0.2812
692.80 0.281
692.90 0.2809
693.00 0.2807
693.10 0.2806
693.20 0.2804
693.30 0.2802
693.40 0.2801
693.50 0.2799
693.60 0.2798
693.70 0.2796
693.80 0.2795
693.90 0.2793
694.00 0.2791
694.10 0.279
694.20 0.2788
694.30 0.2787
694.40 0.2785
694.50 0.2784
694.60 0.2782
694.70 0.278
694.80 0.2779
694.90 0.2777
695.00 0.2776
695.10 0.2774
695.20 0.2773
695.30 0.2771
695.40 0.277
695.50 0.2768
695.60 0.2766
695.70 0.2765
695.80 0.2763
695.90 0.2762
696.00 0.276
696.10 0.2759
696.20 0.2757
696.30 0.2756
696.40 0.2754
696.50 0.2753
696.60 0.2751
696.70 0.2749
696.80 0.2748
696.90 0.2746
697.00 0.2745
697.10 0.2743
697.20 0.2742
697.30 0.274
697.40 0.2739
697.50 0.2737
697.60 0.2736
697.70 0.2734
697.80 0.2733
697.90 0.2731
698.00 0.273
698.10 0.2728
698.20 0.2726
698.30 0.2725
698.40 0.2723
698.50 0.2722
698.60 0.272
698.70 0.2719
698.80 0.2717
698.90 0.2716
699.00 0.2714
699.10 0.2713
699.20 0.2711
699.30 0.271
699.40 0.2708
699.50 0.2707
699.60 0.2705
699.70 0.2704
699.80 0.2702
699.90 0.2701
700.00 0.2699
700.10 0.2698
700.20 0.2696
700.30 0.2695
700.40 0.2693
700.50 0.2692
700.60 0.269
700.70 0.2689
700.80 0.2687
700.90 0.2686
701.00 0.2684
701.10 0.2683
701.20 0.2681
701.30 0.268
701.40 0.2678
701.50 0.2677
701.60 0.2675
701.70 0.2674
701.80 0.2672
701.90 0.2671
702.00 0.2669
702.10 0.2668
702.20 0.2666
702.30 0.2665
702.40 0.2663
702.50 0.2662
702.60 0.266
702.70 0.2659
702.80 0.2657
702.90 0.2656
703.00 0.2655
703.10 0.2653
703.20 0.2652
703.30 0.265
703.40 0.2649
703.50 0.2647
703.60 0.2646
703.70 0.2644
703.80 0.2643
703.90 0.2641
704.00 0.264
704.10 0.2638
704.20 0.2637
704.30 0.2635
704.40 0.2634
704.50 0.2632
704.60 0.2631
704.70 0.263
704.80 0.2628
704.90 0.2627
705.00 0.2625
705.10 0.2624
705.20 0.2622
705.30 0.2621
705.40 0.2619
705.50 0.2618
705.60 0.2617
705.70 0.2615
705.80 0.2614
705.90 0.2612
706.00 0.2611
706.10 0.2609
706.20 0.2608
706.30 0.2606
706.40 0.2605
706.50 0.2604
706.60 0.2602
706.70 0.2601
706.80 0.2599
706.90 0.2598
707.00 0.2596
707.10 0.2595
707.20 0.2594
707.30 0.2592
707.40 0.2591
707.50 0.2589
707.60 0.2588
707.70 0.2586
707.80 0.2585
707.90 0.2584
708.00 0.2582
708.10 0.2581
708.20 0.2579
708.30 0.2578
708.40 0.2576
708.50 0.2575
708.60 0.2574
708.70 0.2572
708.80 0.2571
708.90 0.2569
709.00 0.2568
709.10 0.2566
709.20 0.2565
709.30 0.2564
709.40 0.2562
709.50 0.2561
709.60 0.2559
709.70 0.2558
709.80 0.2557
709.90 0.2555
710.00 0.2554
710.10 0.2552
710.20 0.2551
710.30 0.255
710.40 0.2548
710.50 0.2547
710.60 0.2545
710.70 0.2544
710.80 0.2543
710.90 0.2541
711.00 0.254
711.10 0.2538
711.20 0.2537
711.30 0.2536
711.40 0.2534
711.50 0.2533
711.60 0.2531
711.70 0.253
711.80 0.2529
711.90 0.2527
712.00 0.2526
712.10 0.2525
712.20 0.2523
712.30 0.2522
712.40 0.252
712.50 0.2519
712.60 0.2518
712.70 0.2516
712.80 0.2515
712.90 0.2513
713.00 0.2512
713.10 0.2511
713.20 0.2509
713.30 0.2508
713.40 0.2507
713.50 0.2505
713.60 0.2504
713.70 0.2502
713.80 0.2501
713.90 0.25
714.00 0.2498
714.10 0.2497
714.20 0.2496
714.30 0.2494
714.40 0.2493
714.50 0.2492
714.60 0.249
714.70 0.2489
714.80 0.2487
714.90 0.2486
715.00 0.2485
715.10 0.2483
715.20 0.2482
715.30 0.2481
715.40 0.2479
715.50 0.2478
715.60 0.2477
715.70 0.2475
715.80 0.2474
715.90 0.2473
716.00 0.2471
716.10 0.247
716.20 0.2469
716.30 0.2467
716.40 0.2466
716.50 0.2464
716.60 0.2463
716.70 0.2462
716.80 0.246
716.90 0.2459
717.00 0.2458
717.10 0.2456
717.20 0.2455
717.30 0.2454
717.40 0.2452
717.50 0.2451
717.60 0.245
717.70 0.2448
717.80 0.2447
717.90 0.2446
718.00 0.2444
718.10 0.2443
718.20 0.2442
718.30 0.244
718.40 0.2439
718.50 0.2438
718.60 0.2436
718.70 0.2435
718.80 0.2434
718.90 0.2433
719.00 0.2431
719.10 0.243
719.20 0.2429
719.30 0.2427
719.40 0.2426
719.50 0.2425
719.60 0.2423
719.70 0.2422
719.80 0.2421
719.90 0.2419
720.00 0.2418
720.10 0.2417
720.20 0.2415
720.30 0.2414
720.40 0.2413
720.50 0.2411
720.60 0.241
720.70 0.2409
720.80 0.2408
720.90 0.2406
721.00 0.2405
721.10 0.2404
721.20 0.2402
721.30 0.2401
721.40 0.24
721.50 0.2398
721.60 0.2397
721.70 0.2396
721.80 0.2395
721.90 0.2393
722.00 0.2392
722.10 0.2391
722.20 0.2389
722.30 0.2388
722.40 0.2387
722.50 0.2386
722.60 0.2384
722.70 0.2383
722.80 0.2382
722.90 0.238
723.00 0.2379
723.10 0.2378
723.20 0.2377
723.30 0.2375
723.40 0.2374
723.50 0.2373
723.60 0.2371
723.70 0.237
723.80 0.2369
723.90 0.2368
724.00 0.2366
724.10 0.2365
724.20 0.2364
724.30 0.2362
724.40 0.2361
724.50 0.236
724.60 0.2359
724.70 0.2357
724.80 0.2356
724.90 0.2355
725.00 0.2353
725.10 0.2352
725.20 0.2351
725.30 0.235
725.40 0.2348
725.50 0.2347
725.60 0.2346
725.70 0.2345
725.80 0.2343
725.90 0.2342
726.00 0.2341
726.10 0.234
726.20 0.2338
726.30 0.2337
726.40 0.2336
726.50 0.2335
726.60 0.2333
726.70 0.2332
726.80 0.2331
726.90 0.233
727.00 0.2328
727.10 0.2327
727.20 0.2326
727.30 0.2325
727.40 0.2323
727.50 0.2322
727.60 0.2321
727.70 0.232
727.80 0.2318
727.90 0.2317
728.00 0.2316
728.10 0.2315
728.20 0.2313
728.30 0.2312
728.40 0.2311
728.50 0.231
728.60 0.2308
728.70 0.2307
728.80 0.2306
728.90 0.2305
729.00 0.2303
729.10 0.2302
729.20 0.2301
729.30 0.23
729.40 0.2299
729.50 0.2297
729.60 0.2296
729.70 0.2295
729.80 0.2294
729.90 0.2292
730.00 0.2291
730.10 0.229
730.20 0.2289
730.30 0.2287
730.40 0.2286
730.50 0.2285
730.60 0.2284
730.70 0.2283
730.80 0.2281
730.90 0.228
731.00 0.2279
731.10 0.2278
731.20 0.2277
731.30 0.2275
731.40 0.2274
731.50 0.2273
731.60 0.2272
731.70 0.2271
731.80 0.2269
731.90 0.2268
732.00 0.2267
732.10 0.2266
732.20 0.2265
732.30 0.2263
732.40 0.2262
732.50 0.2261
732.60 0.226
732.70 0.2259
732.80 0.2257
732.90 0.2256
733.00 0.2255
733.10 0.2254
733.20 0.2253
733.30 0.2251
733.40 0.225
733.50 0.2249
733.60 0.2248
733.70 0.2247
733.80 0.2245
733.90 0.2244
734.00 0.2243
734.10 0.2242
734.20 0.2241
734.30 0.2239
734.40 0.2238
734.50 0.2237
734.60 0.2236
734.70 0.2235
734.80 0.2233
734.90 0.2232
735.00 0.2231
735.10 0.223
735.20 0.2229
735.30 0.2228
735.40 0.2226
735.50 0.2225
735.60 0.2224
735.70 0.2223
735.80 0.2222
735.90 0.222
736.00 0.2219
736.10 0.2218
736.20 0.2217
736.30 0.2216
736.40 0.2215
736.50 0.2213
736.60 0.2212
736.70 0.2211
736.80 0.221
736.90 0.2209
737.00 0.2207
737.10 0.2206
737.20 0.2205
737.30 0.2204
737.40 0.2203
737.50 0.2202
737.60 0.22
737.70 0.2199
737.80 0.2198
737.90 0.2197
738.00 0.2196
738.10 0.2195
738.20 0.2193
738.30 0.2192
738.40 0.2191
738.50 0.219
738.60 0.2189
738.70 0.2188
738.80 0.2186
738.90 0.2185
739.00 0.2184
739.10 0.2183
739.20 0.2182
739.30 0.2181
739.40 0.2179
739.50 0.2178
739.60 0.2177
739.70 0.2176
739.80 0.2175
739.90 0.2174
740.00 0.2172
740.10 0.2171
740.20 0.217
740.30 0.2169
740.40 0.2168
740.50 0.2167
740.60 0.2166
740.70 0.2165
740.80 0.2163
740.90 0.2162
741.00 0.2161
741.10 0.216
741.20 0.2159
741.30 0.2158
741.40 0.2157
741.50 0.2155
741.60 0.2154
741.70 0.2153
741.80 0.2152
741.90 0.2151
742.00 0.215
742.10 0.2149
742.20 0.2148
742.30 0.2146
742.40 0.2145
742.50 0.2144
742.60 0.2143
742.70 0.2142
742.80 0.2141
742.90 0.214
743.00 0.2139
743.10 0.2138
743.20 0.2136
743.30 0.2135
743.40 0.2134
743.50 0.2133
743.60 0.2132
743.70 0.2131
743.80 0.213
743.90 0.2129
744.00 0.2127
744.10 0.2126
744.20 0.2125
744.30 0.2124
744.40 0.2123
744.50 0.2122
744.60 0.2121
744.70 0.212
744.80 0.2119
744.90 0.2117
745.00 0.2116
745.10 0.2115
745.20 0.2114
745.30 0.2113
745.40 0.2112
745.50 0.2111
745.60 0.211
745.70 0.2109
745.80 0.2107
745.90 0.2106
746.00 0.2105
746.10 0.2104
746.20 0.2103
746.30 0.2102
746.40 0.2101
746.50 0.21
746.60 0.2099
746.70 0.2098
746.80 0.2096
746.90 0.2095
747.00 0.2094
747.10 0.2093
747.20 0.2092
747.30 0.2091
747.40 0.209
747.50 0.2089
747.60 0.2088
747.70 0.2087
747.80 0.2085
747.90 0.2084
748.00 0.2083
748.10 0.2082
748.20 0.2081
748.30 0.208
748.40 0.2079
748.50 0.2078
748.60 0.2077
748.70 0.2076
748.80 0.2074
748.90 0.2073
749.00 0.2072
749.10 0.2071
749.20 0.207
749.30 0.2069
749.40 0.2068
749.50 0.2067
749.60 0.2066
749.70 0.2065
749.80 0.2064
749.90 0.2063
750.00 0.2061
750.10 0.206
750.20 0.2059
750.30 0.2058
750.40 0.2057
750.50 0.2056
750.60 0.2055
750.70 0.2054
750.80 0.2053
750.90 0.2052
751.00 0.2051
751.10 0.205
751.20 0.2049
751.30 0.2048
751.40 0.2047
751.50 0.2046
751.60 0.2044
751.70 0.2043
751.80 0.2042
751.90 0.2041
752.00 0.204
752.10 0.2039
752.20 0.2038
752.30 0.2037
752.40 0.2036
752.50 0.2035
752.60 0.2034
752.70 0.2033
752.80 0.2032
752.90 0.2031
753.00 0.203
753.10 0.2029
753.20 0.2028
753.30 0.2027
753.40 0.2026
753.50 0.2024
753.60 0.2023
753.70 0.2022
753.80 0.2021
753.90 0.202
754.00 0.2019
754.10 0.2018
754.20 0.2017
754.30 0.2016
754.40 0.2015
754.50 0.2014
754.60 0.2013
754.70 0.2012
754.80 0.2011
754.90 0.201
755.00 0.2009
755.10 0.2008
755.20 0.2007
755.30 0.2006
755.40 0.2005
755.50 0.2004
755.60 0.2003
755.70 0.2002
755.80 0.2001
755.90 0.1999
756.00 0.1998
756.10 0.1997
756.20 0.1996
756.30 0.1995
756.40 0.1994
756.50 0.1993
756.60 0.1992
756.70 0.1991
756.80 0.199
756.90 0.1989
757.00 0.1988
757.10 0.1987
757.20 0.1986
757.30 0.1985
757.40 0.1984
757.50 0.1983
757.60 0.1982
757.70 0.1981
757.80 0.198
757.90 0.1979
758.00 0.1978
758.10 0.1977
758.20 0.1976
758.30 0.1975
758.40 0.1974
758.50 0.1973
758.60 0.1972
758.70 0.1971
758.80 0.197
758.90 0.1969
759.00 0.1968
759.10 0.1967
759.20 0.1966
759.30 0.1965
759.40 0.1964
759.50 0.1963
759.60 0.1961
759.70 0.196
759.80 0.1959
759.90 0.1958
760.00 0.1957
760.10 0.1956
760.20 0.1955
760.30 0.1954
760.40 0.1953
760.50 0.1952
760.60 0.1951
760.70 0.195
760.80 0.1949
760.90 0.1948
761.00 0.1947
761.10 0.1946
761.20 0.1945
761.30 0.1944
761.40 0.1944
761.50 0.1943
761.60 0.1942
761.70 0.1941
761.80 0.194
761.90 0.1939
762.00 0.1938
762.10 0.1937
762.20 0.1936
762.30 0.1935
762.40 0.1934
762.50 0.1933
762.60 0.1932
762.70 0.1931
762.80 0.193
762.90 0.1929
763.00 0.1928
763.10 0.1927
763.20 0.1926
763.30 0.1925
763.40 0.1924
763.50 0.1923
763.60 0.1922
763.70 0.1921
763.80 0.192
763.90 0.1919
764.00 0.1918
764.10 0.1917
764.20 0.1916
764.30 0.1915
764.40 0.1914
764.50 0.1913
764.60 0.1912
764.70 0.1911
764.80 0.191
764.90 0.1909
765.00 0.1908
765.10 0.1907
765.20 0.1906
765.30 0.1905
765.40 0.1904
765.50 0.1903
765.60 0.1902
765.70 0.1901
765.80 0.19
765.90 0.1899
766.00 0.1898
766.10 0.1897
766.20 0.1896
766.30 0.1895
766.40 0.1894
766.50 0.1894
766.60 0.1893
766.70 0.1892
766.80 0.1891
766.90 0.189
767.00 0.1889
767.10 0.1888
767.20 0.1887
767.30 0.1886
767.40 0.1885
767.50 0.1884
767.60 0.1883
767.70 0.1882
767.80 0.1881
767.90 0.188
768.00 0.1879
768.10 0.1878
768.20 0.1877
768.30 0.1876
768.40 0.1875
768.50 0.1874
768.60 0.1873
768.70 0.1872
768.80 0.1871
768.90 0.187
769.00 0.1869
769.10 0.1868
769.20 0.1868
769.30 0.1867
769.40 0.1866
769.50 0.1865
769.60 0.1864
769.70 0.1863
769.80 0.1862
769.90 0.1861
770.00 0.186
770.10 0.1859
770.20 0.1858
770.30 0.1857
770.40 0.1856
770.50 0.1855
770.60 0.1854
770.70 0.1853
770.80 0.1852
770.90 0.1851
771.00 0.1851
771.10 0.185
771.20 0.1849
771.30 0.1848
771.40 0.1847
771.50 0.1846
771.60 0.1845
771.70 0.1844
771.80 0.1843
771.90 0.1842
772.00 0.1841
772.10 0.184
772.20 0.1839
772.30 0.1838
772.40 0.1838
772.50 0.1837
772.60 0.1836
772.70 0.1835
772.80 0.1834
772.90 0.1833
773.00 0.1832
773.10 0.1831
773.20 0.183
773.30 0.1829
773.40 0.1828
773.50 0.1827
773.60 0.1826
773.70 0.1826
773.80 0.1825
773.90 0.1824
774.00 0.1823
774.10 0.1822
774.20 0.1821
774.30 0.182
774.40 0.1819
774.50 0.1818
774.60 0.1817
774.70 0.1816
774.80 0.1815
774.90 0.1815
775.00 0.1814
775.10 0.1813
775.20 0.1812
775.30 0.1811
775.40 0.181
775.50 0.1809
775.60 0.1808
775.70 0.1807
775.80 0.1806
775.90 0.1805
776.00 0.1804
776.10 0.1804
776.20 0.1803
776.30 0.1802
776.40 0.1801
776.50 0.18
776.60 0.1799
776.70 0.1798
776.80 0.1797
776.90 0.1796
777.00 0.1795
777.10 0.1795
777.20 0.1794
777.30 0.1793
777.40 0.1792
777.50 0.1791
777.60 0.179
777.70 0.1789
777.80 0.1788
777.90 0.1787
778.00 0.1786
778.10 0.1785
778.20 0.1785
778.30 0.1784
778.40 0.1783
778.50 0.1782
778.60 0.1781
778.70 0.178
778.80 0.1779
778.90 0.1778
779.00 0.1777
779.10 0.1776
779.20 0.1776
779.30 0.1775
779.40 0.1774
779.50 0.1773
779.60 0.1772
779.70 0.1771
779.80 0.177
779.90 0.1769
780.00 0.1768
780.10 0.1768
780.20 0.1767
780.30 0.1766
780.40 0.1765
780.50 0.1764
780.60 0.1763
780.70 0.1762
780.80 0.1761
780.90 0.176
781.00 0.176
781.10 0.1759
781.20 0.1758
781.30 0.1757
781.40 0.1756
781.50 0.1755
781.60 0.1754
781.70 0.1754
781.80 0.1753
781.90 0.1752
782.00 0.1751
782.10 0.175
782.20 0.1749
782.30 0.1748
782.40 0.1747
782.50 0.1747
782.60 0.1746
782.70 0.1745
782.80 0.1744
782.90 0.1743
783.00 0.1742
783.10 0.1741
783.20 0.174
783.30 0.174
783.40 0.1739
783.50 0.1738
783.60 0.1737
783.70 0.1736
783.80 0.1735
783.90 0.1734
784.00 0.1734
784.10 0.1733
784.20 0.1732
784.30 0.1731
784.40 0.173
784.50 0.1729
784.60 0.1728
784.70 0.1728
784.80 0.1727
784.90 0.1726
785.00 0.1725
785.10 0.1724
785.20 0.1723
785.30 0.1722
785.40 0.1722
785.50 0.1721
785.60 0.172
785.70 0.1719
785.80 0.1718
785.90 0.1717
786.00 0.1716
786.10 0.1716
786.20 0.1715
786.30 0.1714
786.40 0.1713
786.50 0.1712
786.60 0.1711
786.70 0.171
786.80 0.171
786.90 0.1709
787.00 0.1708
787.10 0.1707
787.20 0.1706
787.30 0.1705
787.40 0.1704
787.50 0.1704
787.60 0.1703
787.70 0.1702
787.80 0.1701
787.90 0.17
788.00 0.1699
788.10 0.1698
788.20 0.1698
788.30 0.1697
788.40 0.1696
788.50 0.1695
788.60 0.1694
788.70 0.1693
788.80 0.1693
788.90 0.1692
789.00 0.1691
789.10 0.169
789.20 0.1689
789.30 0.1688
789.40 0.1687
789.50 0.1687
789.60 0.1686
789.70 0.1685
789.80 0.1684
789.90 0.1683
790.00 0.1682
790.10 0.1682
790.20 0.1681
790.30 0.168
790.40 0.1679
790.50 0.1678
790.60 0.1677
790.70 0.1677
790.80 0.1676
790.90 0.1675
791.00 0.1674
791.10 0.1673
791.20 0.1673
791.30 0.1672
791.40 0.1671
791.50 0.167
791.60 0.1669
791.70 0.1668
791.80 0.1668
791.90 0.1667
792.00 0.1666
792.10 0.1665
792.20 0.1664
792.30 0.1664
792.40 0.1663
792.50 0.1662
792.60 0.1661
792.70 0.166
792.80 0.1659
792.90 0.1659
793.00 0.1658
793.10 0.1657
793.20 0.1656
793.30 0.1655
793.40 0.1655
793.50 0.1654
793.60 0.1653
793.70 0.1652
793.80 0.1651
793.90 0.1651
794.00 0.165
794.10 0.1649
794.20 0.1648
794.30 0.1647
794.40 0.1646
794.50 0.1646
794.60 0.1645
794.70 0.1644
794.80 0.1643
794.90 0.1642
795.00 0.1642
795.10 0.1641
795.20 0.164
795.30 0.1639
795.40 0.1638
795.50 0.1638
795.60 0.1637
795.70 0.1636
795.80 0.1635
795.90 0.1634
796.00 0.1634
796.10 0.1633
796.20 0.1632
796.30 0.1631
796.40 0.163
796.50 0.163
796.60 0.1629
796.70 0.1628
796.80 0.1627
796.90 0.1626
797.00 0.1626
797.10 0.1625
797.20 0.1624
797.30 0.1623
797.40 0.1622
797.50 0.1622
797.60 0.1621
797.70 0.162
797.80 0.1619
797.90 0.1618
798.00 0.1618
798.10 0.1617
798.20 0.1616
798.30 0.1615
798.40 0.1614
798.50 0.1614
798.60 0.1613
798.70 0.1612
798.80 0.1611
798.90 0.161
799.00 0.161
799.10 0.1609
799.20 0.1608
799.30 0.1607
799.40 0.1606
799.50 0.1606
799.60 0.1605
799.70 0.1604
799.80 0.1603
799.90 0.1602
800.00 0.1602
800.10 0.1601
800.20 0.16
800.30 0.1599
800.40 0.1599
800.50 0.1598
800.60 0.1597
800.70 0.1596
800.80 0.1595
800.90 0.1595
801.00 0.1594
801.10 0.1593
801.20 0.1592
801.30 0.1592
801.40 0.1591
801.50 0.159
801.60 0.1589
801.70 0.1589
801.80 0.1588
801.90 0.1587
802.00 0.1586
802.10 0.1585
802.20 0.1585
802.30 0.1584
802.40 0.1583
802.50 0.1582
802.60 0.1582
802.70 0.1581
802.80 0.158
802.90 0.1579
803.00 0.1579
803.10 0.1578
803.20 0.1577
803.30 0.1576
803.40 0.1575
803.50 0.1575
803.60 0.1574
803.70 0.1573
803.80 0.1572
803.90 0.1572
804.00 0.1571
804.10 0.157
804.20 0.1569
804.30 0.1569
804.40 0.1568
804.50 0.1567
804.60 0.1566
804.70 0.1566
804.80 0.1565
804.90 0.1564
805.00 0.1563
805.10 0.1563
805.20 0.1562
805.30 0.1561
805.40 0.156
805.50 0.1559
805.60 0.1559
805.70 0.1558
805.80 0.1557
805.90 0.1556
806.00 0.1556
806.10 0.1555
806.20 0.1554
806.30 0.1553
806.40 0.1553
806.50 0.1552
806.60 0.1551
806.70 0.155
806.80 0.155
806.90 0.1549
807.00 0.1548
807.10 0.1547
807.20 0.1547
807.30 0.1546
807.40 0.1545
807.50 0.1544
807.60 0.1544
807.70 0.1543
807.80 0.1542
807.90 0.1541
808.00 0.1541
808.10 0.154
808.20 0.1539
808.30 0.1538
808.40 0.1538
808.50 0.1537
808.60 0.1536
808.70 0.1535
808.80 0.1535
808.90 0.1534
809.00 0.1533
809.10 0.1532
809.20 0.1532
809.30 0.1531
809.40 0.153
809.50 0.1529
809.60 0.1529
809.70 0.1528
809.80 0.1527
809.90 0.1526
810.00 0.1526
810.10 0.1525
810.20 0.1524
810.30 0.1523
810.40 0.1523
810.50 0.1522
810.60 0.1521
810.70 0.1521
810.80 0.152
810.90 0.1519
811.00 0.1518
811.10 0.1518
811.20 0.1517
811.30 0.1516
811.40 0.1515
811.50 0.1515
811.60 0.1514
811.70 0.1513
811.80 0.1513
811.90 0.1512
812.00 0.1511
812.10 0.151
812.20 0.151
812.30 0.1509
812.40 0.1508
812.50 0.1508
812.60 0.1507
812.70 0.1506
812.80 0.1505
812.90 0.1505
813.00 0.1504
813.10 0.1503
813.20 0.1502
813.30 0.1502
813.40 0.1501
813.50 0.15
813.60 0.15
813.70 0.1499
813.80 0.1498
813.90 0.1497
814.00 0.1497
814.10 0.1496
814.20 0.1495
814.30 0.1495
814.40 0.1494
814.50 0.1493
814.60 0.1492
814.70 0.1492
814.80 0.1491
814.90 0.149
815.00 0.149
815.10 0.1489
815.20 0.1488
815.30 0.1487
815.40 0.1487
815.50 0.1486
815.60 0.1485
815.70 0.1485
815.80 0.1484
815.90 0.1483
816.00 0.1482
816.10 0.1482
816.20 0.1481
816.30 0.148
816.40 0.148
816.50 0.1479
816.60 0.1478
816.70 0.1477
816.80 0.1477
816.90 0.1476
817.00 0.1475
817.10 0.1475
817.20 0.1474
817.30 0.1473
817.40 0.1472
817.50 0.1472
817.60 0.1471
817.70 0.147
817.80 0.147
817.90 0.1469
818.00 0.1468
818.10 0.1468
818.20 0.1467
818.30 0.1466
818.40 0.1465
818.50 0.1465
818.60 0.1464
818.70 0.1463
818.80 0.1463
818.90 0.1462
819.00 0.1461
819.10 0.146
819.20 0.146
819.30 0.1459
819.40 0.1458
819.50 0.1458
819.60 0.1457
819.70 0.1456
819.80 0.1456
819.90 0.1455
820.00 0.1454
820.10 0.1453
820.20 0.1453
820.30 0.1452
820.40 0.1451
820.50 0.1451
820.60 0.145
820.70 0.1449
820.80 0.1449
820.90 0.1448
821.00 0.1447
821.10 0.1447
821.20 0.1446
821.30 0.1445
821.40 0.1445
821.50 0.1444
821.60 0.1443
821.70 0.1442
821.80 0.1442
821.90 0.1441
822.00 0.144
822.10 0.144
822.20 0.1439
822.30 0.1438
822.40 0.1438
822.50 0.1437
822.60 0.1436
822.70 0.1436
822.80 0.1435
822.90 0.1434
823.00 0.1434
823.10 0.1433
823.20 0.1432
823.30 0.1432
823.40 0.1431
823.50 0.143
823.60 0.1429
823.70 0.1429
823.80 0.1428
823.90 0.1427
824.00 0.1427
824.10 0.1426
824.20 0.1425
824.30 0.1425
824.40 0.1424
824.50 0.1423
824.60 0.1423
824.70 0.1422
824.80 0.1421
824.90 0.1421
825.00 0.142
825.10 0.1419
825.20 0.1419
825.30 0.1418
825.40 0.1417
825.50 0.1417
825.60 0.1416
825.70 0.1415
825.80 0.1415
825.90 0.1414
826.00 0.1413
826.10 0.1413
826.20 0.1412
826.30 0.1411
826.40 0.1411
826.50 0.141
826.60 0.1409
826.70 0.1409
826.80 0.1408
826.90 0.1407
827.00 0.1407
827.10 0.1406
827.20 0.1405
827.30 0.1405
827.40 0.1404
827.50 0.1403
827.60 0.1403
827.70 0.1402
827.80 0.1401
827.90 0.1401
828.00 0.14
828.10 0.1399
828.20 0.1399
828.30 0.1398
828.40 0.1397
828.50 0.1397
828.60 0.1396
828.70 0.1395
828.80 0.1395
828.90 0.1394
829.00 0.1393
829.10 0.1393
829.20 0.1392
829.30 0.1391
829.40 0.1391
829.50 0.139
829.60 0.1389
829.70 0.1389
829.80 0.1388
829.90 0.1388
830.00 0.1387
830.10 0.1386
830.20 0.1386
830.30 0.1385
830.40 0.1384
830.50 0.1384
830.60 0.1383
830.70 0.1382
830.80 0.1382
830.90 0.1381
831.00 0.138
831.10 0.138
831.20 0.1379
831.30 0.1378
831.40 0.1378
831.50 0.1377
831.60 0.1376
831.70 0.1376
831.80 0.1375
831.90 0.1374
832.00 0.1374
832.10 0.1373
832.20 0.1373
832.30 0.1372
832.40 0.1371
832.50 0.1371
832.60 0.137
832.70 0.1369
832.80 0.1369
832.90 0.1368
833.00 0.1367
833.10 0.1367
833.20 0.1366
833.30 0.1365
833.40 0.1365
833.50 0.1364
833.60 0.1364
833.70 0.1363
833.80 0.1362
833.90 0.1362
834.00 0.1361
834.10 0.136
834.20 0.136
834.30 0.1359
834.40 0.1358
834.50 0.1358
834.60 0.1357
834.70 0.1357
834.80 0.1356
834.90 0.1355
835.00 0.1355
835.10 0.1354
835.20 0.1353
835.30 0.1353
835.40 0.1352
835.50 0.1351
835.60 0.1351
835.70 0.135
835.80 0.135
835.90 0.1349
836.00 0.1348
836.10 0.1348
836.20 0.1347
836.30 0.1346
836.40 0.1346
836.50 0.1345
836.60 0.1344
836.70 0.1344
836.80 0.1343
836.90 0.1343
837.00 0.1342
837.10 0.1341
837.20 0.1341
837.30 0.134
837.40 0.1339
837.50 0.1339
837.60 0.1338
837.70 0.1338
837.80 0.1337
837.90 0.1336
838.00 0.1336
838.10 0.1335
838.20 0.1334
838.30 0.1334
838.40 0.1333
838.50 0.1333
838.60 0.1332
838.70 0.1331
838.80 0.1331
838.90 0.133
839.00 0.133
839.10 0.1329
839.20 0.1328
839.30 0.1328
839.40 0.1327
839.50 0.1326
839.60 0.1326
839.70 0.1325
839.80 0.1325
839.90 0.1324
840.00 0.1323
840.10 0.1323
840.20 0.1322
840.30 0.1321
840.40 0.1321
840.50 0.132
840.60 0.132
840.70 0.1319
840.80 0.1318
840.90 0.1318
841.00 0.1317
841.10 0.1317
841.20 0.1316
841.30 0.1315
841.40 0.1315
841.50 0.1314
841.60 0.1313
841.70 0.1313
841.80 0.1312
841.90 0.1312
842.00 0.1311
842.10 0.131
842.20 0.131
842.30 0.1309
842.40 0.1309
842.50 0.1308
842.60 0.1307
842.70 0.1307
842.80 0.1306
842.90 0.1306
843.00 0.1305
843.10 0.1304
843.20 0.1304
843.30 0.1303
843.40 0.1303
843.50 0.1302
843.60 0.1301
843.70 0.1301
843.80 0.13
843.90 0.13
844.00 0.1299
844.10 0.1298
844.20 0.1298
844.30 0.1297
844.40 0.1297
844.50 0.1296
844.60 0.1295
844.70 0.1295
844.80 0.1294
844.90 0.1294
845.00 0.1293
845.10 0.1292
845.20 0.1292
845.30 0.1291
845.40 0.1291
845.50 0.129
845.60 0.1289
845.70 0.1289
845.80 0.1288
845.90 0.1288
846.00 0.1287
846.10 0.1286
846.20 0.1286
846.30 0.1285
846.40 0.1285
846.50 0.1284
846.60 0.1283
846.70 0.1283
846.80 0.1282
846.90 0.1282
847.00 0.1281
847.10 0.128
847.20 0.128
847.30 0.1279
847.40 0.1279
847.50 0.1278
847.60 0.1277
847.70 0.1277
847.80 0.1276
847.90 0.1276
848.00 0.1275
848.10 0.1274
848.20 0.1274
848.30 0.1273
848.40 0.1273
848.50 0.1272
848.60 0.1272
848.70 0.1271
848.80 0.127
848.90 0.127
849.00 0.1269
849.10 0.1269
849.20 0.1268
849.30 0.1267
849.40 0.1267
849.50 0.1266
849.60 0.1266
849.70 0.1265
849.80 0.1265
849.90 0.1264
850.00 0.1263
850.10 0.1263
850.20 0.1262
850.30 0.1262
850.40 0.1261
850.50 0.126
850.60 0.126
850.70 0.1259
850.80 0.1259
850.90 0.1258
851.00 0.1258
851.10 0.1257
851.20 0.1256
851.30 0.1256
851.40 0.1255
851.50 0.1255
851.60 0.1254
851.70 0.1253
851.80 0.1253
851.90 0.1252
852.00 0.1252
852.10 0.1251
852.20 0.1251
852.30 0.125
852.40 0.1249
852.50 0.1249
852.60 0.1248
852.70 0.1248
852.80 0.1247
852.90 0.1247
853.00 0.1246
853.10 0.1245
853.20 0.1245
853.30 0.1244
853.40 0.1244
853.50 0.1243
853.60 0.1243
853.70 0.1242
853.80 0.1241
853.90 0.1241
854.00 0.124
854.10 0.124
854.20 0.1239
854.30 0.1239
854.40 0.1238
854.50 0.1238
854.60 0.1237
854.70 0.1236
854.80 0.1236
854.90 0.1235
855.00 0.1235
855.10 0.1234
855.20 0.1234
855.30 0.1233
855.40 0.1232
855.50 0.1232
855.60 0.1231
855.70 0.1231
855.80 0.123
855.90 0.123
856.00 0.1229
856.10 0.1228
856.20 0.1228
856.30 0.1227
856.40 0.1227
856.50 0.1226
856.60 0.1226
856.70 0.1225
856.80 0.1225
856.90 0.1224
857.00 0.1223
857.10 0.1223
857.20 0.1222
857.30 0.1222
857.40 0.1221
857.50 0.1221
857.60 0.122
857.70 0.122
857.80 0.1219
857.90 0.1218
858.00 0.1218
858.10 0.1217
858.20 0.1217
858.30 0.1216
858.40 0.1216
858.50 0.1215
858.60 0.1215
858.70 0.1214
858.80 0.1213
858.90 0.1213
859.00 0.1212
859.10 0.1212
859.20 0.1211
859.30 0.1211
859.40 0.121
859.50 0.121
859.60 0.1209
859.70 0.1208
859.80 0.1208
859.90 0.1207
860.00 0.1207
860.10 0.1206
860.20 0.1206
860.30 0.1205
860.40 0.1205
860.50 0.1204
860.60 0.1204
860.70 0.1203
860.80 0.1202
860.90 0.1202
861.00 0.1201
861.10 0.1201
861.20 0.12
861.30 0.12
861.40 0.1199
861.50 0.1199
861.60 0.1198
861.70 0.1198
861.80 0.1197
861.90 0.1196
862.00 0.1196
862.10 0.1195
862.20 0.1195
862.30 0.1194
862.40 0.1194
862.50 0.1193
862.60 0.1193
862.70 0.1192
862.80 0.1192
862.90 0.1191
863.00 0.119
863.10 0.119
863.20 0.1189
863.30 0.1189
863.40 0.1188
863.50 0.1188
863.60 0.1187
863.70 0.1187
863.80 0.1186
863.90 0.1186
864.00 0.1185
864.10 0.1185
864.20 0.1184
864.30 0.1183
864.40 0.1183
864.50 0.1182
864.60 0.1182
864.70 0.1181
864.80 0.1181
864.90 0.118
865.00 0.118
865.10 0.1179
865.20 0.1179
865.30 0.1178
865.40 0.1178
865.50 0.1177
865.60 0.1177
865.70 0.1176
865.80 0.1175
865.90 0.1175
866.00 0.1174
866.10 0.1174
866.20 0.1173
866.30 0.1173
866.40 0.1172
866.50 0.1172
866.60 0.1171
866.70 0.1171
866.80 0.117
866.90 0.117
867.00 0.1169
867.10 0.1169
867.20 0.1168
867.30 0.1167
867.40 0.1167
867.50 0.1166
867.60 0.1166
867.70 0.1165
867.80 0.1165
867.90 0.1164
868.00 0.1164
868.10 0.1163
868.20 0.1163
868.30 0.1162
868.40 0.1162
868.50 0.1161
868.60 0.1161
868.70 0.116
868.80 0.116
868.90 0.1159
869.00 0.1159
869.10 0.1158
869.20 0.1158
869.30 0.1157
869.40 0.1156
869.50 0.1156
869.60 0.1155
869.70 0.1155
869.80 0.1154
869.90 0.1154
870.00 0.1153
870.10 0.1153
870.20 0.1152
870.30 0.1152
870.40 0.1151
870.50 0.1151
870.60 0.115
870.70 0.115
870.80 0.1149
870.90 0.1149
871.00 0.1148
871.10 0.1148
871.20 0.1147
871.30 0.1147
871.40 0.1146
871.50 0.1146
871.60 0.1145
871.70 0.1145
871.80 0.1144
871.90 0.1144
872.00 0.1143
872.10 0.1143
872.20 0.1142
872.30 0.1141
872.40 0.1141
872.50 0.114
872.60 0.114
872.70 0.1139
872.80 0.1139
872.90 0.1138
873.00 0.1138
873.10 0.1137
873.20 0.1137
873.30 0.1136
873.40 0.1136
873.50 0.1135
873.60 0.1135
873.70 0.1134
873.80 0.1134
873.90 0.1133
874.00 0.1133
874.10 0.1132
874.20 0.1132
874.30 0.1131
874.40 0.1131
874.50 0.113
874.60 0.113
874.70 0.1129
874.80 0.1129
874.90 0.1128
875.00 0.1128
875.10 0.1127
875.20 0.1127
875.30 0.1126
875.40 0.1126
875.50 0.1125
875.60 0.1125
875.70 0.1124
875.80 0.1124
875.90 0.1123
876.00 0.1123
876.10 0.1122
876.20 0.1122
876.30 0.1121
876.40 0.1121
876.50 0.112
876.60 0.112
876.70 0.1119
876.80 0.1119
876.90 0.1118
877.00 0.1118
877.10 0.1117
877.20 0.1117
877.30 0.1116
877.40 0.1116
877.50 0.1115
877.60 0.1115
877.70 0.1114
877.80 0.1114
877.90 0.1113
878.00 0.1113
878.10 0.1112
878.20 0.1112
878.30 0.1111
878.40 0.1111
878.50 0.111
878.60 0.111
878.70 0.1109
878.80 0.1109
878.90 0.1108
879.00 0.1108
879.10 0.1107
879.20 0.1107
879.30 0.1106
879.40 0.1106
879.50 0.1105
879.60 0.1105
879.70 0.1104
879.80 0.1104
879.90 0.1103
880.00 0.1103
880.10 0.1102
880.20 0.1102
880.30 0.1101
880.40 0.1101
880.50 0.11
880.60 0.11
880.70 0.1099
880.80 0.1099
880.90 0.1098
881.00 0.1098
881.10 0.1097
881.20 0.1097
881.30 0.1096
881.40 0.1096
881.50 0.1096
881.60 0.1095
881.70 0.1095
881.80 0.1094
881.90 0.1094
882.00 0.1093
882.10 0.1093
882.20 0.1092
882.30 0.1092
882.40 0.1091
882.50 0.1091
882.60 0.109
882.70 0.109
882.80 0.1089
882.90 0.1089
883.00 0.1088
883.10 0.1088
883.20 0.1087
883.30 0.1087
883.40 0.1086
883.50 0.1086
883.60 0.1085
883.70 0.1085
883.80 0.1084
883.90 0.1084
884.00 0.1083
884.10 0.1083
884.20 0.1082
884.30 0.1082
884.40 0.1082
884.50 0.1081
884.60 0.1081
884.70 0.108
884.80 0.108
884.90 0.1079
885.00 0.1079
885.10 0.1078
885.20 0.1078
885.30 0.1077
885.40 0.1077
885.50 0.1076
885.60 0.1076
885.70 0.1075
885.80 0.1075
885.90 0.1074
886.00 0.1074
886.10 0.1073
886.20 0.1073
886.30 0.1072
886.40 0.1072
886.50 0.1072
886.60 0.1071
886.70 0.1071
886.80 0.107
886.90 0.107
887.00 0.1069
887.10 0.1069
887.20 0.1068
887.30 0.1068
887.40 0.1067
887.50 0.1067
887.60 0.1066
887.70 0.1066
887.80 0.1065
887.90 0.1065
888.00 0.1064
888.10 0.1064
888.20 0.1064
888.30 0.1063
888.40 0.1063
888.50 0.1062
888.60 0.1062
888.70 0.1061
888.80 0.1061
888.90 0.106
889.00 0.106
889.10 0.1059
889.20 0.1059
889.30 0.1058
889.40 0.1058
889.50 0.1057
889.60 0.1057
889.70 0.1057
889.80 0.1056
889.90 0.1056
890.00 0.1055
890.10 0.1055
890.20 0.1054
890.30 0.1054
890.40 0.1053
890.50 0.1053
890.60 0.1052
890.70 0.1052
890.80 0.1051
890.90 0.1051
891.00 0.105
891.10 0.105
891.20 0.105
891.30 0.1049
891.40 0.1049
891.50 0.1048
891.60 0.1048
891.70 0.1047
891.80 0.1047
891.90 0.1046
892.00 0.1046
892.10 0.1045
892.20 0.1045
892.30 0.1044
892.40 0.1044
892.50 0.1044
892.60 0.1043
892.70 0.1043
892.80 0.1042
892.90 0.1042
893.00 0.1041
893.10 0.1041
893.20 0.104
893.30 0.104
893.40 0.1039
893.50 0.1039
893.60 0.1039
893.70 0.1038
893.80 0.1038
893.90 0.1037
894.00 0.1037
894.10 0.1036
894.20 0.1036
894.30 0.1035
894.40 0.1035
894.50 0.1034
894.60 0.1034
894.70 0.1034
894.80 0.1033
894.90 0.1033
895.00 0.1032
895.10 0.1032
895.20 0.1031
895.30 0.1031
895.40 0.103
895.50 0.103
895.60 0.103
895.70 0.1029
895.80 0.1029
895.90 0.1028
896.00 0.1028
896.10 0.1027
896.20 0.1027
896.30 0.1026
896.40 0.1026
896.50 0.1025
896.60 0.1025
896.70 0.1025
896.80 0.1024
896.90 0.1024
897.00 0.1023
897.10 0.1023
897.20 0.1022
897.30 0.1022
897.40 0.1021
897.50 0.1021
897.60 0.1021
897.70 0.102
897.80 0.102
897.90 0.1019
898.00 0.1019
898.10 0.1018
898.20 0.1018
898.30 0.1017
898.40 0.1017
898.50 0.1017
898.60 0.1016
898.70 0.1016
898.80 0.1015
898.90 0.1015
899.00 0.1014
899.10 0.1014
899.20 0.1013
899.30 0.1013
899.40 0.1013
899.50 0.1012
899.60 0.1012
899.70 0.1011
899.80 0.1011
899.90 0.101
900.00 0.101
900.10 0.101
900.20 0.1009
900.30 0.1009
900.40 0.1008
900.50 0.1008
900.60 0.1007
900.70 0.1007
900.80 0.1006
900.90 0.1006
901.00 0.1006
901.10 0.1005
901.20 0.1005
901.30 0.1004
901.40 0.1004
901.50 0.1003
901.60 0.1003
901.70 0.1003
901.80 0.1002
901.90 0.1002
902.00 0.1001
902.10 0.1001
902.20 0.1
902.30 0.09999
902.40 0.09995
902.50 0.0999
902.60 0.09986
902.70 0.09982
902.80 0.09977
902.90 0.09973
903.00 0.09969
903.10 0.09965
903.20 0.0996
903.30 0.09956
903.40 0.09952
903.50 0.09947
903.60 0.09943
903.70 0.09939
903.80 0.09934
903.90 0.0993
904.00 0.09926
904.10 0.09921
904.20 0.09917
904.30 0.09913
904.40 0.09908
904.50 0.09904
904.60 0.099
904.70 0.09896
904.80 0.09891
904.90 0.09887
905.00 0.09883
905.10 0.09878
905.20 0.09874
905.30 0.0987
905.40 0.09866
905.50 0.09861
905.60 0.09857
905.70 0.09853
905.80 0.09848
905.90 0.09844
906.00 0.0984
906.10 0.09836
906.20 0.09831
906.30 0.09827
906.40 0.09823
906.50 0.09819
906.60 0.09814
906.70 0.0981
906.80 0.09806
906.90 0.09801
907.00 0.09797
907.10 0.09793
907.20 0.09789
907.30 0.09785
907.40 0.0978
907.50 0.09776
907.60 0.09772
907.70 0.09768
907.80 0.09764
907.90 0.09759
908.00 0.09755
908.10 0.09751
908.20 0.09747
908.30 0.09743
908.40 0.09738
908.50 0.09734
908.60 0.0973
908.70 0.09726
908.80 0.09722
908.90 0.09717
909.00 0.09713
909.10 0.09709
909.20 0.09705
909.30 0.09701
909.40 0.09697
909.50 0.09692
909.60 0.09688
909.70 0.09684
909.80 0.0968
909.90 0.09676
910.00 0.09672
910.10 0.09667
910.20 0.09663
910.30 0.09659
910.40 0.09655
910.50 0.09651
910.60 0.09647
910.70 0.09642
910.80 0.09638
910.90 0.09634
911.00 0.0963
911.10 0.09626
911.20 0.09622
911.30 0.09618
911.40 0.09613
911.50 0.09609
911.60 0.09605
911.70 0.09601
911.80 0.09597
911.90 0.09593
912.00 0.09589
912.10 0.09584
912.20 0.0958
912.30 0.09576
912.40 0.09572
912.50 0.09568
912.60 0.09564
912.70 0.0956
912.80 0.09556
912.90 0.09552
913.00 0.09548
913.10 0.09544
913.20 0.0954
913.30 0.09535
913.40 0.09531
913.50 0.09527
913.60 0.09523
913.70 0.09519
913.80 0.09515
913.90 0.09511
914.00 0.09507
914.10 0.09503
914.20 0.09499
914.30 0.09495
914.40 0.09491
914.50 0.09487
914.60 0.09483
914.70 0.09479
914.80 0.09475
914.90 0.09471
915.00 0.09466
915.10 0.09462
915.20 0.09458
915.30 0.09454
915.40 0.0945
915.50 0.09446
915.60 0.09442
915.70 0.09438
915.80 0.09434
915.90 0.0943
916.00 0.09426
916.10 0.09422
916.20 0.09418
916.30 0.09414
916.40 0.0941
916.50 0.09406
916.60 0.09402
916.70 0.09398
916.80 0.09394
916.90 0.0939
917.00 0.09386
917.10 0.09382
917.20 0.09378
917.30 0.09374
917.40 0.0937
917.50 0.09366
917.60 0.09362
917.70 0.09358
917.80 0.09354
917.90 0.0935
918.00 0.09346
918.10 0.09342
918.20 0.09338
918.30 0.09334
918.40 0.0933
918.50 0.09327
918.60 0.09323
918.70 0.09319
918.80 0.09315
918.90 0.09311
919.00 0.09307
919.10 0.09303
919.20 0.09299
919.30 0.09295
919.40 0.09291
919.50 0.09287
919.60 0.09283
919.70 0.09279
919.80 0.09275
919.90 0.09271
920.00 0.09267
920.10 0.09264
920.20 0.0926
920.30 0.09256
920.40 0.09252
920.50 0.09248
920.60 0.09244
920.70 0.0924
920.80 0.09236
920.90 0.09232
921.00 0.09228
921.10 0.09224
921.20 0.09221
921.30 0.09217
921.40 0.09213
921.50 0.09209
921.60 0.09205
921.70 0.09201
921.80 0.09197
921.90 0.09193
922.00 0.09189
922.10 0.09185
922.20 0.09182
922.30 0.09178
922.40 0.09174
922.50 0.0917
922.60 0.09166
922.70 0.09162
922.80 0.09158
922.90 0.09154
923.00 0.0915
923.10 0.09146
923.20 0.09143
923.30 0.09139
923.40 0.09135
923.50 0.09131
923.60 0.09127
923.70 0.09123
923.80 0.09119
923.90 0.09115
924.00 0.09112
924.10 0.09108
924.20 0.09104
924.30 0.091
924.40 0.09096
924.50 0.09092
924.60 0.09088
924.70 0.09085
924.80 0.09081
924.90 0.09077
925.00 0.09073
925.10 0.09069
925.20 0.09065
925.30 0.09061
925.40 0.09058
925.50 0.09054
925.60 0.0905
925.70 0.09046
925.80 0.09042
925.90 0.09038
926.00 0.09034
926.10 0.09031
926.20 0.09027
926.30 0.09023
926.40 0.09019
926.50 0.09015
926.60 0.09011
926.70 0.09008
926.80 0.09004
926.90 0.09
927.00 0.08996
927.10 0.08992
927.20 0.08988
927.30 0.08985
927.40 0.08981
927.50 0.08977
927.60 0.08973
927.70 0.0897
927.80 0.08966
927.90 0.08962
928.00 0.08958
928.10 0.08954
928.20 0.08951
928.30 0.08947
928.40 0.08943
928.50 0.08939
928.60 0.08936
928.70 0.08932
928.80 0.08928
928.90 0.08924
929.00 0.0892
929.10 0.08917
929.20 0.08913
929.30 0.08909
929.40 0.08905
929.50 0.08902
929.60 0.08898
929.70 0.08894
929.80 0.0889
929.90 0.08887
930.00 0.08883
930.10 0.08879
930.20 0.08875
930.30 0.08872
930.40 0.08868
930.50 0.08864
930.60 0.0886
930.70 0.08857
930.80 0.08853
930.90 0.08849
931.00 0.08845
931.10 0.08842
931.20 0.08838
931.30 0.08834
931.40 0.0883
931.50 0.08827
931.60 0.08823
931.70 0.08819
931.80 0.08816
931.90 0.08812
932.00 0.08808
932.10 0.08804
932.20 0.08801
932.30 0.08797
932.40 0.08793
932.50 0.0879
932.60 0.08786
932.70 0.08782
932.80 0.08779
932.90 0.08775
933.00 0.08771
933.10 0.08767
933.20 0.08764
933.30 0.0876
933.40 0.08756
933.50 0.08753
933.60 0.08749
933.70 0.08745
933.80 0.08742
933.90 0.08738
934.00 0.08734
934.10 0.08731
934.20 0.08727
934.30 0.08723
934.40 0.0872
934.50 0.08716
934.60 0.08712
934.70 0.08709
934.80 0.08705
934.90 0.08702
935.00 0.08698
935.10 0.08694
935.20 0.08691
935.30 0.08687
935.40 0.08683
935.50 0.0868
935.60 0.08676
935.70 0.08672
935.80 0.08669
935.90 0.08665
936.00 0.08662
936.10 0.08658
936.20 0.08654
936.30 0.08651
936.40 0.08647
936.50 0.08643
936.60 0.0864
936.70 0.08636
936.80 0.08633
936.90 0.08629
937.00 0.08625
937.10 0.08622
937.20 0.08618
937.30 0.08614
937.40 0.08611
937.50 0.08607
937.60 0.08604
937.70 0.086
937.80 0.08597
937.90 0.08593
938.00 0.08589
938.10 0.08586
938.20 0.08582
938.30 0.08579
938.40 0.08575
938.50 0.08571
938.60 0.08568
938.70 0.08564
938.80 0.08561
938.90 0.08557
939.00 0.08554
939.10 0.0855
939.20 0.08546
939.30 0.08543
939.40 0.08539
939.50 0.08536
939.60 0.08532
939.70 0.08529
939.80 0.08525
939.90 0.08522
940.00 0.08518
940.10 0.08514
940.20 0.08511
940.30 0.08507
940.40 0.08504
940.50 0.085
940.60 0.08497
940.70 0.08493
940.80 0.0849
940.90 0.08486
941.00 0.08483
941.10 0.08479
941.20 0.08476
941.30 0.08472
941.40 0.08468
941.50 0.08465
941.60 0.08461
941.70 0.08458
941.80 0.08454
941.90 0.08451
942.00 0.08447
942.10 0.08444
942.20 0.0844
942.30 0.08437
942.40 0.08433
942.50 0.0843
942.60 0.08426
942.70 0.08423
942.80 0.08419
942.90 0.08416
943.00 0.08412
943.10 0.08409
943.20 0.08405
943.30 0.08402
943.40 0.08398
943.50 0.08395
943.60 0.08391
943.70 0.08388
943.80 0.08384
943.90 0.08381
944.00 0.08378
944.10 0.08374
944.20 0.08371
944.30 0.08367
944.40 0.08364
944.50 0.0836
944.60 0.08357
944.70 0.08353
944.80 0.0835
944.90 0.08346
945.00 0.08343
945.10 0.08339
945.20 0.08336
945.30 0.08333
945.40 0.08329
945.50 0.08326
945.60 0.08322
945.70 0.08319
945.80 0.08315
945.90 0.08312
946.00 0.08309
946.10 0.08305
946.20 0.08302
946.30 0.08298
946.40 0.08295
946.50 0.08291
946.60 0.08288
946.70 0.08285
946.80 0.08281
946.90 0.08278
947.00 0.08274
947.10 0.08271
947.20 0.08267
947.30 0.08264
947.40 0.08261
947.50 0.08257
947.60 0.08254
947.70 0.0825
947.80 0.08247
947.90 0.08244
948.00 0.0824
948.10 0.08237
948.20 0.08234
948.30 0.0823
948.40 0.08227
948.50 0.08223
948.60 0.0822
948.70 0.08217
948.80 0.08213
948.90 0.0821
949.00 0.08207
949.10 0.08203
949.20 0.082
949.30 0.08196
949.40 0.08193
949.50 0.0819
949.60 0.08186
949.70 0.08183
949.80 0.0818
949.90 0.08176
950.00 0.08173
950.10 0.0817
950.20 0.08166
950.30 0.08163
950.40 0.0816
950.50 0.08156
950.60 0.08153
950.70 0.0815
950.80 0.08146
950.90 0.08143
951.00 0.0814
951.10 0.08136
951.20 0.08133
951.30 0.0813
951.40 0.08127
951.50 0.08123
951.60 0.0812
951.70 0.08117
951.80 0.08113
951.90 0.0811
952.00 0.08107
952.10 0.08104
952.20 0.081
952.30 0.08097
952.40 0.08094
952.50 0.0809
952.60 0.08087
952.70 0.08084
952.80 0.08081
952.90 0.08077
953.00 0.08074
953.10 0.08071
953.20 0.08068
953.30 0.08064
953.40 0.08061
953.50 0.08058
953.60 0.08055
953.70 0.08051
953.80 0.08048
953.90 0.08045
954.00 0.08042
954.10 0.08039
954.20 0.08035
954.30 0.08032
954.40 0.08029
954.50 0.08026
954.60 0.08022
954.70 0.08019
954.80 0.08016
954.90 0.08012
955.00 0.08009
955.10 0.08006
955.20 0.08002
955.30 0.07999
955.40 0.07996
955.50 0.07992
955.60 0.07989
955.70 0.07986
955.80 0.07982
955.90 0.07979
956.00 0.07976
956.10 0.07972
956.20 0.07969
956.30 0.07966
956.40 0.07962
956.50 0.07959
956.60 0.07956
956.70 0.07952
956.80 0.07949
956.90 0.07946
957.00 0.07943
957.10 0.07939
957.20 0.07936
957.30 0.07933
957.40 0.07929
957.50 0.07926
957.60 0.07923
957.70 0.0792
957.80 0.07916
957.90 0.07913
958.00 0.0791
958.10 0.07907
958.20 0.07903
958.30 0.079
958.40 0.07897
958.50 0.07894
958.60 0.0789
958.70 0.07887
958.80 0.07884
958.90 0.07881
959.00 0.07877
959.10 0.07874
959.20 0.07871
959.30 0.07868
959.40 0.07864
959.50 0.07861
959.60 0.07858
959.70 0.07855
959.80 0.07851
959.90 0.07848
960.00 0.07845
960.10 0.07842
960.20 0.07839
960.30 0.07835
960.40 0.07832
960.50 0.07829
960.60 0.07826
960.70 0.07823
960.80 0.07819
960.90 0.07816
961.00 0.07813
961.10 0.0781
961.20 0.07807
961.30 0.07803
961.40 0.078
961.50 0.07797
961.60 0.07794
961.70 0.07791
961.80 0.07788
961.90 0.07784
962.00 0.07781
962.10 0.07778
962.20 0.07775
962.30 0.07772
962.40 0.07768
962.50 0.07765
962.60 0.07762
962.70 0.07759
962.80 0.07756
962.90 0.07753
963.00 0.0775
963.10 0.07746
963.20 0.07743
963.30 0.0774
963.40 0.07737
963.50 0.07734
963.60 0.07731
963.70 0.07728
963.80 0.07724
963.90 0.07721
964.00 0.07718
964.10 0.07715
964.20 0.07712
964.30 0.07709
964.40 0.07706
964.50 0.07703
964.60 0.07699
964.70 0.07696
964.80 0.07693
964.90 0.0769
965.00 0.07687
965.10 0.07684
965.20 0.07681
965.30 0.07678
965.40 0.07674
965.50 0.07671
965.60 0.07668
965.70 0.07665
965.80 0.07662
965.90 0.07659
966.00 0.07656
966.10 0.07653
966.20 0.0765
966.30 0.07647
966.40 0.07643
966.50 0.0764
966.60 0.07637
966.70 0.07634
966.80 0.07631
966.90 0.07628
967.00 0.07625
967.10 0.07622
967.20 0.07619
967.30 0.07616
967.40 0.07613
967.50 0.0761
967.60 0.07606
967.70 0.07603
967.80 0.076
967.90 0.07597
968.00 0.07594
968.10 0.07591
968.20 0.07588
968.30 0.07585
968.40 0.07582
968.50 0.07579
968.60 0.07576
968.70 0.07573
968.80 0.0757
968.90 0.07567
969.00 0.07564
969.10 0.0756
969.20 0.07557
969.30 0.07554
969.40 0.07551
969.50 0.07548
969.60 0.07545
969.70 0.07542
969.80 0.07539
969.90 0.07536
970.00 0.07533
970.10 0.0753
970.20 0.07527
970.30 0.07524
970.40 0.07521
970.50 0.07518
970.60 0.07515
970.70 0.07512
970.80 0.07509
970.90 0.07506
971.00 0.07503
971.10 0.075
971.20 0.07497
971.30 0.07494
971.40 0.07491
971.50 0.07488
971.60 0.07485
971.70 0.07482
971.80 0.07479
971.90 0.07476
972.00 0.07473
972.10 0.0747
972.20 0.07467
972.30 0.07464
972.40 0.07461
972.50 0.07458
972.60 0.07455
972.70 0.07452
972.80 0.07449
972.90 0.07446
973.00 0.07443
973.10 0.0744
973.20 0.07437
973.30 0.07434
973.40 0.07431
973.50 0.07428
973.60 0.07425
973.70 0.07422
973.80 0.07419
973.90 0.07416
974.00 0.07413
974.10 0.0741
974.20 0.07407
974.30 0.07404
974.40 0.07401
974.50 0.07398
974.60 0.07395
974.70 0.07392
974.80 0.07389
974.90 0.07386
975.00 0.07383
975.10 0.0738
975.20 0.07377
975.30 0.07374
975.40 0.07371
975.50 0.07368
975.60 0.07365
975.70 0.07362
975.80 0.07359
975.90 0.07356
976.00 0.07353
976.10 0.0735
976.20 0.07347
976.30 0.07344
976.40 0.07341
976.50 0.07339
976.60 0.07336
976.70 0.07333
976.80 0.0733
976.90 0.07327
977.00 0.07324
977.10 0.07321
977.20 0.07318
977.30 0.07315
977.40 0.07312
977.50 0.07309
977.60 0.07306
977.70 0.07303
977.80 0.073
977.90 0.07297
978.00 0.07294
978.10 0.07292
978.20 0.07289
978.30 0.07286
978.40 0.07283
978.50 0.0728
978.60 0.07277
978.70 0.07274
978.80 0.07271
978.90 0.07268
979.00 0.07265
979.10 0.07262
979.20 0.07259
979.30 0.07256
979.40 0.07254
979.50 0.07251
979.60 0.07248
979.70 0.07245
979.80 0.07242
979.90 0.07239
980.00 0.07236
980.10 0.07233
980.20 0.0723
980.30 0.07227
980.40 0.07224
980.50 0.07222
980.60 0.07219
980.70 0.07216
980.80 0.07213
980.90 0.0721
981.00 0.07207
981.10 0.07204
981.20 0.07201
981.30 0.07198
981.40 0.07196
981.50 0.07193
981.60 0.0719
981.70 0.07187
981.80 0.07184
981.90 0.07181
982.00 0.07178
982.10 0.07175
982.20 0.07172
982.30 0.0717
982.40 0.07167
982.50 0.07164
982.60 0.07161
982.70 0.07158
982.80 0.07155
982.90 0.07152
983.00 0.07149
983.10 0.07147
983.20 0.07144
983.30 0.07141
983.40 0.07138
983.50 0.07135
983.60 0.07132
983.70 0.07129
983.80 0.07127
983.90 0.07124
984.00 0.07121
984.10 0.07118
984.20 0.07115
984.30 0.07112
984.40 0.07109
984.50 0.07107
984.60 0.07104
984.70 0.07101
984.80 0.07098
984.90 0.07095
985.00 0.07092
985.10 0.0709
985.20 0.07087
985.30 0.07084
985.40 0.07081
985.50 0.07078
985.60 0.07075
985.70 0.07072
985.80 0.0707
985.90 0.07067
986.00 0.07064
986.10 0.07061
986.20 0.07058
986.30 0.07055
986.40 0.07053
986.50 0.0705
986.60 0.07047
986.70 0.07044
986.80 0.07041
986.90 0.07039
987.00 0.07036
987.10 0.07033
987.20 0.0703
987.30 0.07027
987.40 0.07024
987.50 0.07022
987.60 0.07019
987.70 0.07016
987.80 0.07013
987.90 0.0701
988.00 0.07008
988.10 0.07005
988.20 0.07002
988.30 0.06999
988.40 0.06996
988.50 0.06994
988.60 0.06991
988.70 0.06988
988.80 0.06985
988.90 0.06982
989.00 0.0698
989.10 0.06977
989.20 0.06974
989.30 0.06971
989.40 0.06968
989.50 0.06966
989.60 0.06963
989.70 0.0696
989.80 0.06957
989.90 0.06954
990.00 0.06952
990.10 0.06949
990.20 0.06946
990.30 0.06943
990.40 0.06941
990.50 0.06938
990.60 0.06935
990.70 0.06932
990.80 0.06929
990.90 0.06927
991.00 0.06924
991.10 0.06921
991.20 0.06918
991.30 0.06916
991.40 0.06913
991.50 0.0691
991.60 0.06907
991.70 0.06905
991.80 0.06902
991.90 0.06899
992.00 0.06896
992.10 0.06894
992.20 0.06891
992.30 0.06888
992.40 0.06885
992.50 0.06883
992.60 0.0688
992.70 0.06877
992.80 0.06874
992.90 0.06872
993.00 0.06869
993.10 0.06866
993.20 0.06863
993.30 0.06861
993.40 0.06858
993.50 0.06855
993.60 0.06852
993.70 0.0685
993.80 0.06847
993.90 0.06844
994.00 0.06841
994.10 0.06839
994.20 0.06836
994.30 0.06833
994.40 0.06831
994.50 0.06828
994.60 0.06825
994.70 0.06822
994.80 0.0682
994.90 0.06817
995.00 0.06814
995.10 0.06811
995.20 0.06809
995.30 0.06806
995.40 0.06803
995.50 0.06801
995.60 0.06798
995.70 0.06795
995.80 0.06793
995.90 0.0679
996.00 0.06787
996.10 0.06784
996.20 0.06782
996.30 0.06779
996.40 0.06776
996.50 0.06774
996.60 0.06771
996.70 0.06768
996.80 0.06766
996.90 0.06763
997.00 0.0676
997.10 0.06758
997.20 0.06755
997.30 0.06752
997.40 0.0675
997.50 0.06747
997.60 0.06744
997.70 0.06742
997.80 0.06739
997.90 0.06736
998.00 0.06734
998.10 0.06731
998.20 0.06728
998.30 0.06726
998.40 0.06723
998.50 0.06721
998.60 0.06718
998.70 0.06715
998.80 0.06713
998.90 0.0671
999.00 0.06707
999.10 0.06705
999.20 0.06702
999.30 0.06699
999.40 0.06697
999.50 0.06694
999.60 0.06692
999.70 0.06689
999.80 0.06686
999.90 0.06683
1000.00 0.06681
1000.10 0.06678
1000.20 0.06675
1000.30 0.06672
1000.40 0.0667
1000.50 0.06667
1000.60 0.06664
1000.70 0.06661
1000.80 0.06659
1000.90 0.06656
1001.00 0.06653
1001.10 0.06651
1001.20 0.06648
1001.30 0.06645
1001.40 0.06642
1001.50 0.0664
1001.60 0.06637
1001.70 0.06634
1001.80 0.06632
1001.90 0.06629
1002.00 0.06627
1002.10 0.06624
1002.20 0.06622
1002.30 0.0662
1002.40 0.06617
1002.50 0.06615
1002.60 0.06612
1002.70 0.0661
1002.80 0.06607
1002.90 0.06605
1003.00 0.06603
1003.10 0.066
1003.20 0.06598
1003.30 0.06595
1003.40 0.06593
1003.50 0.06591
1003.60 0.06588
1003.70 0.06586
1003.80 0.06583
1003.90 0.06581
1004.00 0.06579
1004.10 0.06576
1004.20 0.06574
1004.30 0.06572
1004.40 0.06569
1004.50 0.06567
1004.60 0.06564
1004.70 0.06562
1004.80 0.06559
1004.90 0.06556
1005.00 0.06554
1005.10 0.06551
1005.20 0.06549
1005.30 0.06546
1005.40 0.06544
1005.50 0.06541
1005.60 0.06538
1005.70 0.06536
1005.80 0.06533
1005.90 0.0653
1006.00 0.06528
1006.10 0.06525
1006.20 0.06522
1006.30 0.06519
1006.40 0.06517
1006.50 0.06514
1006.60 0.06511
1006.70 0.06508
1006.80 0.06506
1006.90 0.06503
1007.00 0.065
1007.10 0.06498
1007.20 0.06495
1007.30 0.06492
1007.40 0.0649
1007.50 0.06487
1007.60 0.06484
1007.70 0.06482
1007.80 0.06479
1007.90 0.06477
1008.00 0.06474
1008.10 0.06471
1008.20 0.06469
1008.30 0.06466
1008.40 0.06464
1008.50 0.06461
1008.60 0.06459
1008.70 0.06456
1008.80 0.06453
1008.90 0.06451
1009.00 0.06448
1009.10 0.06446
1009.20 0.06443
1009.30 0.06441
1009.40 0.06438
1009.50 0.06436
1009.60 0.06433
1009.70 0.0643
1009.80 0.06428
1009.90 0.06425
1010.00 0.06423
1010.10 0.0642
1010.20 0.06418
1010.30 0.06415
1010.40 0.06413
1010.50 0.0641
1010.60 0.06408
1010.70 0.06406
1010.80 0.06403
1010.90 0.06401
1011.00 0.06398
1011.10 0.06396
1011.20 0.06393
1011.30 0.06391
1011.40 0.06388
1011.50 0.06386
1011.60 0.06383
1011.70 0.06381
1011.80 0.06378
1011.90 0.06376
1012.00 0.06373
1012.10 0.06371
1012.20 0.06368
1012.30 0.06366
1012.40 0.06364
1012.50 0.06361
1012.60 0.06359
1012.70 0.06356
1012.80 0.06354
1012.90 0.06351
1013.00 0.06349
1013.10 0.06347
1013.20 0.06344
1013.30 0.06342
1013.40 0.06339
1013.50 0.06337
1013.60 0.06334
1013.70 0.06332
1013.80 0.0633
1013.90 0.06327
1014.00 0.06325
1014.10 0.06322
1014.20 0.0632
1014.30 0.06317
1014.40 0.06315
1014.50 0.06313
1014.60 0.0631
1014.70 0.06308
1014.80 0.06305
1014.90 0.06303
1015.00 0.06301
1015.10 0.06298
1015.20 0.06296
1015.30 0.06293
1015.40 0.06291
1015.50 0.06289
1015.60 0.06286
1015.70 0.06284
1015.80 0.06282
1015.90 0.06279
1016.00 0.06277
1016.10 0.06274
1016.20 0.06272
1016.30 0.0627
1016.40 0.06267
1016.50 0.06265
1016.60 0.06262
1016.70 0.0626
1016.80 0.06258
1016.90 0.06255
1017.00 0.06253
1017.10 0.06251
1017.20 0.06248
1017.30 0.06246
1017.40 0.06243
1017.50 0.06241
1017.60 0.06239
1017.70 0.06236
1017.80 0.06234
1017.90 0.06232
1018.00 0.06229
1018.10 0.06227
1018.20 0.06225
1018.30 0.06222
1018.40 0.0622
1018.50 0.06217
1018.60 0.06215
1018.70 0.06213
1018.80 0.0621
1018.90 0.06208
1019.00 0.06206
1019.10 0.06203
1019.20 0.06201
1019.30 0.06199
1019.40 0.06196
1019.50 0.06194
1019.60 0.06192
1019.70 0.06189
1019.80 0.06187
1019.90 0.06185
1020.00 0.06182
1020.10 0.0618
1020.20 0.06178
1020.30 0.06175
1020.40 0.06173
1020.50 0.0617
1020.60 0.06168
1020.70 0.06166
1020.80 0.06163
1020.90 0.06161
1021.00 0.06159
1021.10 0.06156
1021.20 0.06154
1021.30 0.06152
1021.40 0.06149
1021.50 0.06147
1021.60 0.06145
1021.70 0.06142
1021.80 0.0614
1021.90 0.06138
1022.00 0.06136
1022.10 0.06133
1022.20 0.06131
1022.30 0.06129
1022.40 0.06126
1022.50 0.06124
1022.60 0.06122
1022.70 0.06119
1022.80 0.06117
1022.90 0.06115
1023.00 0.06112
1023.10 0.0611
1023.20 0.06108
1023.30 0.06105
1023.40 0.06103
1023.50 0.06101
1023.60 0.06098
1023.70 0.06096
1023.80 0.06094
1023.90 0.06092
1024.00 0.06089
1024.10 0.06087
1024.20 0.06085
1024.30 0.06082
1024.40 0.0608
1024.50 0.06078
1024.60 0.06075
1024.70 0.06073
1024.80 0.06071
1024.90 0.06069
1025.00 0.06066
1025.10 0.06064
1025.20 0.06062
1025.30 0.06059
1025.40 0.06057
1025.50 0.06055
1025.60 0.06052
1025.70 0.0605
1025.80 0.06048
1025.90 0.06046
1026.00 0.06043
1026.10 0.06041
1026.20 0.06039
1026.30 0.06036
1026.40 0.06034
1026.50 0.06032
1026.60 0.0603
1026.70 0.06027
1026.80 0.06025
1026.90 0.06023
1027.00 0.06021
1027.10 0.06018
1027.20 0.06016
1027.30 0.06014
1027.40 0.06011
1027.50 0.06009
1027.60 0.06007
1027.70 0.06005
1027.80 0.06002
1027.90 0.06
1028.00 0.05998
1028.10 0.05996
1028.20 0.05993
1028.30 0.05991
1028.40 0.05989
1028.50 0.05987
1028.60 0.05984
1028.70 0.05982
1028.80 0.0598
1028.90 0.05977
1029.00 0.05975
1029.10 0.05973
1029.20 0.05971
1029.30 0.05968
1029.40 0.05966
1029.50 0.05964
1029.60 0.05962
1029.70 0.05959
1029.80 0.05957
1029.90 0.05955
1030.00 0.05953
1030.10 0.0595
1030.20 0.05948
1030.30 0.05946
1030.40 0.05944
1030.50 0.05941
1030.60 0.05939
1030.70 0.05937
1030.80 0.05935
1030.90 0.05932
1031.00 0.0593
1031.10 0.05928
1031.20 0.05926
1031.30 0.05923
1031.40 0.05921
1031.50 0.05919
1031.60 0.05917
1031.70 0.05915
1031.80 0.05912
1031.90 0.0591
1032.00 0.05908
1032.10 0.05906
1032.20 0.05903
1032.30 0.05901
1032.40 0.05899
1032.50 0.05897
1032.60 0.05894
1032.70 0.05892
1032.80 0.0589
1032.90 0.05888
1033.00 0.05886
1033.10 0.05883
1033.20 0.05881
1033.30 0.05879
1033.40 0.05877
1033.50 0.05875
1033.60 0.05872
1033.70 0.0587
1033.80 0.05868
1033.90 0.05866
1034.00 0.05863
1034.10 0.05861
1034.20 0.05859
1034.30 0.05857
1034.40 0.05855
1034.50 0.05852
1034.60 0.0585
1034.70 0.05848
1034.80 0.05846
1034.90 0.05844
1035.00 0.05841
1035.10 0.05839
1035.20 0.05837
1035.30 0.05835
1035.40 0.05833
1035.50 0.0583
1035.60 0.05828
1035.70 0.05826
1035.80 0.05824
1035.90 0.05822
1036.00 0.05819
1036.10 0.05817
1036.20 0.05815
1036.30 0.05813
1036.40 0.05811
1036.50 0.05808
1036.60 0.05806
1036.70 0.05804
1036.80 0.05802
1036.90 0.058
1037.00 0.05797
1037.10 0.05795
1037.20 0.05793
1037.30 0.05791
1037.40 0.05789
1037.50 0.05787
1037.60 0.05784
1037.70 0.05782
1037.80 0.0578
1037.90 0.05778
1038.00 0.05776
1038.10 0.05774
1038.20 0.05771
1038.30 0.05769
1038.40 0.05767
1038.50 0.05765
1038.60 0.05763
1038.70 0.05761
1038.80 0.05758
1038.90 0.05756
1039.00 0.05754
1039.10 0.05752
1039.20 0.0575
1039.30 0.05748
1039.40 0.05745
1039.50 0.05743
1039.60 0.05741
1039.70 0.05739
1039.80 0.05737
1039.90 0.05735
1040.00 0.05732
1040.10 0.0573
1040.20 0.05728
1040.30 0.05726
1040.40 0.05724
1040.50 0.05722
1040.60 0.0572
1040.70 0.05717
1040.80 0.05715
1040.90 0.05713
1041.00 0.05711
1041.10 0.05709
1041.20 0.05707
1041.30 0.05704
1041.40 0.05702
1041.50 0.057
1041.60 0.05698
1041.70 0.05696
1041.80 0.05694
1041.90 0.05692
1042.00 0.05689
1042.10 0.05687
1042.20 0.05685
1042.30 0.05683
1042.40 0.05681
1042.50 0.05679
1042.60 0.05677
1042.70 0.05675
1042.80 0.05672
1042.90 0.0567
1043.00 0.05668
1043.10 0.05666
1043.20 0.05664
1043.30 0.05662
1043.40 0.0566
1043.50 0.05658
1043.60 0.05655
1043.70 0.05653
1043.80 0.05651
1043.90 0.05649
1044.00 0.05647
1044.10 0.05645
1044.20 0.05643
1044.30 0.05641
1044.40 0.05639
1044.50 0.05636
1044.60 0.05634
1044.70 0.05632
1044.80 0.0563
1044.90 0.05628
1045.00 0.05626
1045.10 0.05624
1045.20 0.05622
1045.30 0.05619
1045.40 0.05617
1045.50 0.05615
1045.60 0.05613
1045.70 0.05611
1045.80 0.05609
1045.90 0.05607
1046.00 0.05605
1046.10 0.05603
1046.20 0.05601
1046.30 0.05598
1046.40 0.05596
1046.50 0.05594
1046.60 0.05592
1046.70 0.0559
1046.80 0.05588
1046.90 0.05586
1047.00 0.05584
1047.10 0.05582
1047.20 0.0558
1047.30 0.05577
1047.40 0.05575
1047.50 0.05573
1047.60 0.05571
1047.70 0.05569
1047.80 0.05567
1047.90 0.05565
1048.00 0.05563
1048.10 0.05561
1048.20 0.05559
1048.30 0.05557
1048.40 0.05555
1048.50 0.05553
1048.60 0.0555
1048.70 0.05548
1048.80 0.05546
1048.90 0.05544
1049.00 0.05542
1049.10 0.0554
1049.20 0.05538
1049.30 0.05536
1049.40 0.05534
1049.50 0.05532
1049.60 0.0553
1049.70 0.05528
1049.80 0.05526
1049.90 0.05524
1050.00 0.05521
1050.10 0.05519
1050.20 0.05517
1050.30 0.05515
1050.40 0.05513
1050.50 0.05511
1050.60 0.05509
1050.70 0.05507
1050.80 0.05505
1050.90 0.05503
1051.00 0.05501
1051.10 0.05499
1051.20 0.05497
1051.30 0.05495
1051.40 0.05493
1051.50 0.05491
1051.60 0.05489
1051.70 0.05486
1051.80 0.05484
1051.90 0.05482
1052.00 0.0548
1052.10 0.05478
1052.20 0.05476
1052.30 0.05474
1052.40 0.05472
1052.50 0.0547
1052.60 0.05468
1052.70 0.05466
1052.80 0.05464
1052.90 0.05462
1053.00 0.0546
1053.10 0.05458
1053.20 0.05456
1053.30 0.05454
1053.40 0.05452
1053.50 0.0545
1053.60 0.05448
1053.70 0.05446
1053.80 0.05444
1053.90 0.05442
1054.00 0.0544
1054.10 0.05438
1054.20 0.05436
1054.30 0.05434
1054.40 0.05432
1054.50 0.05429
1054.60 0.05427
1054.70 0.05425
1054.80 0.05423
1054.90 0.05421
1055.00 0.05419
1055.10 0.05417
1055.20 0.05415
1055.30 0.05413
1055.40 0.05411
1055.50 0.05409
1055.60 0.05407
1055.70 0.05405
1055.80 0.05403
1055.90 0.05401
1056.00 0.05399
1056.10 0.05397
1056.20 0.05395
1056.30 0.05393
1056.40 0.05391
1056.50 0.05389
1056.60 0.05387
1056.70 0.05385
1056.80 0.05383
1056.90 0.05381
1057.00 0.05379
1057.10 0.05377
1057.20 0.05375
1057.30 0.05373
1057.40 0.05371
1057.50 0.05369
1057.60 0.05367
1057.70 0.05365
1057.80 0.05363
1057.90 0.05361
1058.00 0.05359
1058.10 0.05357
1058.20 0.05355
1058.30 0.05353
1058.40 0.05351
1058.50 0.05349
1058.60 0.05347
1058.70 0.05345
1058.80 0.05343
1058.90 0.05341
1059.00 0.05339
1059.10 0.05337
1059.20 0.05335
1059.30 0.05333
1059.40 0.05331
1059.50 0.05329
1059.60 0.05327
1059.70 0.05325
1059.80 0.05323
1059.90 0.05321
1060.00 0.05319
1060.10 0.05317
1060.20 0.05315
1060.30 0.05313
1060.40 0.05311
1060.50 0.05309
1060.60 0.05307
1060.70 0.05306
1060.80 0.05304
1060.90 0.05302
1061.00 0.053
1061.10 0.05298
1061.20 0.05296
1061.30 0.05294
1061.40 0.05292
1061.50 0.0529
1061.60 0.05288
1061.70 0.05286
1061.80 0.05284
1061.90 0.05282
1062.00 0.0528
1062.10 0.05278
1062.20 0.05276
1062.30 0.05274
1062.40 0.05272
1062.50 0.0527
1062.60 0.05268
1062.70 0.05266
1062.80 0.05264
1062.90 0.05262
1063.00 0.0526
1063.10 0.05258
1063.20 0.05256
1063.30 0.05254
1063.40 0.05252
1063.50 0.05251
1063.60 0.05249
1063.70 0.05247
1063.80 0.05245
1063.90 0.05243
1064.00 0.05241
1064.10 0.05239
1064.20 0.05237
1064.30 0.05235
1064.40 0.05233
1064.50 0.05231
1064.60 0.05229
1064.70 0.05227
1064.80 0.05225
1064.90 0.05223
1065.00 0.05221
1065.10 0.05219
1065.20 0.05217
1065.30 0.05216
1065.40 0.05214
1065.50 0.05212
1065.60 0.0521
1065.70 0.05208
1065.80 0.05206
1065.90 0.05204
1066.00 0.05202
1066.10 0.052
1066.20 0.05198
1066.30 0.05196
1066.40 0.05194
1066.50 0.05192
1066.60 0.0519
1066.70 0.05188
1066.80 0.05186
1066.90 0.05185
1067.00 0.05183
1067.10 0.05181
1067.20 0.05179
1067.30 0.05177
1067.40 0.05175
1067.50 0.05173
1067.60 0.05171
1067.70 0.05169
1067.80 0.05167
1067.90 0.05165
1068.00 0.05163
1068.10 0.05161
1068.20 0.0516
1068.30 0.05158
1068.40 0.05156
1068.50 0.05154
1068.60 0.05152
1068.70 0.0515
1068.80 0.05148
1068.90 0.05146
1069.00 0.05144
1069.10 0.05142
1069.20 0.0514
1069.30 0.05138
1069.40 0.05137
1069.50 0.05135
1069.60 0.05133
1069.70 0.05131
1069.80 0.05129
1069.90 0.05127
1070.00 0.05125
1070.10 0.05123
1070.20 0.05121
1070.30 0.05119
1070.40 0.05117
1070.50 0.05116
1070.60 0.05114
1070.70 0.05112
1070.80 0.0511
1070.90 0.05108
1071.00 0.05106
1071.10 0.05104
1071.20 0.05102
1071.30 0.051
1071.40 0.05098
1071.50 0.05097
1071.60 0.05095
1071.70 0.05093
1071.80 0.05091
1071.90 0.05089
1072.00 0.05087
1072.10 0.05085
1072.20 0.05083
1072.30 0.05081
1072.40 0.05079
1072.50 0.05078
1072.60 0.05076
1072.70 0.05074
1072.80 0.05072
1072.90 0.0507
1073.00 0.05068
1073.10 0.05066
1073.20 0.05064
1073.30 0.05062
1073.40 0.05061
1073.50 0.05059
1073.60 0.05057
1073.70 0.05055
1073.80 0.05053
1073.90 0.05051
1074.00 0.05049
1074.10 0.05047
1074.20 0.05045
1074.30 0.05044
1074.40 0.05042
1074.50 0.0504
1074.60 0.05038
1074.70 0.05036
1074.80 0.05034
1074.90 0.05032
1075.00 0.0503
1075.10 0.05029
1075.20 0.05027
1075.30 0.05025
1075.40 0.05023
1075.50 0.05021
1075.60 0.05019
1075.70 0.05017
1075.80 0.05015
1075.90 0.05014
1076.00 0.05012
1076.10 0.0501
1076.20 0.05008
1076.30 0.05006
1076.40 0.05004
1076.50 0.05002
1076.60 0.05
1076.70 0.04999
1076.80 0.04997
1076.90 0.04995
1077.00 0.04993
1077.10 0.04991
1077.20 0.04989
1077.30 0.04987
1077.40 0.04986
1077.50 0.04984
1077.60 0.04982
1077.70 0.0498
1077.80 0.04978
1077.90 0.04976
1078.00 0.04974
1078.10 0.04972
1078.20 0.04971
1078.30 0.04969
1078.40 0.04967
1078.50 0.04965
1078.60 0.04963
1078.70 0.04961
1078.80 0.04959
1078.90 0.04958
1079.00 0.04956
1079.10 0.04954
1079.20 0.04952
1079.30 0.0495
1079.40 0.04948
1079.50 0.04946
1079.60 0.04945
1079.70 0.04943
1079.80 0.04941
1079.90 0.04939
1080.00 0.04937
1080.10 0.04935
1080.20 0.04933
1080.30 0.04932
1080.40 0.0493
1080.50 0.04928
1080.60 0.04926
1080.70 0.04924
1080.80 0.04922
1080.90 0.04921
1081.00 0.04919
1081.10 0.04917
1081.20 0.04915
1081.30 0.04913
1081.40 0.04911
1081.50 0.04909
1081.60 0.04908
1081.70 0.04906
1081.80 0.04904
1081.90 0.04902
1082.00 0.049
1082.10 0.04898
1082.20 0.04897
1082.30 0.04895
1082.40 0.04893
1082.50 0.04891
1082.60 0.04889
1082.70 0.04887
1082.80 0.04886
1082.90 0.04884
1083.00 0.04882
1083.10 0.0488
1083.20 0.04878
1083.30 0.04876
1083.40 0.04875
1083.50 0.04873
1083.60 0.04871
1083.70 0.04869
1083.80 0.04867
1083.90 0.04865
1084.00 0.04864
1084.10 0.04862
1084.20 0.0486
1084.30 0.04858
1084.40 0.04856
1084.50 0.04855
1084.60 0.04853
1084.70 0.04851
1084.80 0.04849
1084.90 0.04847
1085.00 0.04846
1085.10 0.04844
1085.20 0.04842
1085.30 0.0484
1085.40 0.04838
1085.50 0.04837
1085.60 0.04835
1085.70 0.04833
1085.80 0.04831
1085.90 0.04829
1086.00 0.04828
1086.10 0.04826
1086.20 0.04824
1086.30 0.04822
1086.40 0.0482
1086.50 0.04819
1086.60 0.04817
1086.70 0.04815
1086.80 0.04813
1086.90 0.04812
1087.00 0.0481
1087.10 0.04808
1087.20 0.04806
1087.30 0.04805
1087.40 0.04803
1087.50 0.04801
1087.60 0.04799
1087.70 0.04798
1087.80 0.04796
1087.90 0.04794
1088.00 0.04792
1088.10 0.04791
1088.20 0.04789
1088.30 0.04787
1088.40 0.04785
1088.50 0.04784
1088.60 0.04782
1088.70 0.0478
1088.80 0.04779
1088.90 0.04777
1089.00 0.04775
1089.10 0.04774
1089.20 0.04772
1089.30 0.0477
1089.40 0.04769
1089.50 0.04767
1089.60 0.04765
1089.70 0.04764
1089.80 0.04762
1089.90 0.0476
1090.00 0.04759
1090.10 0.04757
1090.20 0.04755
1090.30 0.04754
1090.40 0.04752
1090.50 0.0475
1090.60 0.04749
1090.70 0.04747
1090.80 0.04746
1090.90 0.04744
1091.00 0.04743
1091.10 0.04741
1091.20 0.0474
1091.30 0.04738
1091.40 0.04736
1091.50 0.04735
1091.60 0.04733
1091.70 0.04732
1091.80 0.0473
1091.90 0.04729
1092.00 0.04727
1092.10 0.04726
1092.20 0.04724
1092.30 0.04723
1092.40 0.04721
1092.50 0.0472
1092.60 0.04718
1092.70 0.04717
1092.80 0.04716
1092.90 0.04714
1093.00 0.04713
1093.10 0.04712
1093.20 0.04711
1093.30 0.0471
1093.40 0.04709
1093.50 0.04709
1093.60 0.04709
1093.70 0.04708
1093.80 0.04707
1093.90 0.04705
1094.00 0.04702
1094.10 0.04699
1094.20 0.04696
1094.30 0.04693
1094.40 0.04691
1094.50 0.04689
1094.60 0.04687
1094.70 0.04685
1094.80 0.04683
1094.90 0.0468
1095.00 0.04678
1095.10 0.04676
1095.20 0.04675
1095.30 0.04673
1095.40 0.04671
1095.50 0.04669
1095.60 0.04667
1095.70 0.04665
1095.80 0.04663
1095.90 0.04662
1096.00 0.0466
1096.10 0.04658
1096.20 0.04656
1096.30 0.04654
1096.40 0.04652
1096.50 0.0465
1096.60 0.04649
1096.70 0.04647
1096.80 0.04645
1096.90 0.04643
1097.00 0.04642
1097.10 0.0464
1097.20 0.04638
1097.30 0.04636
1097.40 0.04635
1097.50 0.04633
1097.60 0.04631
1097.70 0.0463
1097.80 0.04628
1097.90 0.04626
1098.00 0.04624
1098.10 0.04623
1098.20 0.04621
1098.30 0.04619
1098.40 0.04618
1098.50 0.04616
1098.60 0.04614
1098.70 0.04613
1098.80 0.04611
1098.90 0.04609
1099.00 0.04608
1099.10 0.04606
1099.20 0.04604
1099.30 0.04603
1099.40 0.04601
1099.50 0.046
1099.60 0.04598
1099.70 0.04596
1099.80 0.04595
1099.90 0.04593
1100.00 0.04591
1100.10 0.0459
1100.20 0.04588
1100.30 0.04586
1100.40 0.04585
1100.50 0.04583
1100.60 0.04582
1100.70 0.0458
1100.80 0.04578
1100.90 0.04577
1101.00 0.04575
1101.10 0.04574
1101.20 0.04572
1101.30 0.04571
1101.40 0.04569
1101.50 0.04567
1101.60 0.04566
1101.70 0.04564
1101.80 0.04563
1101.90 0.04561
1102.00 0.04559
1102.10 0.04558
1102.20 0.04556
1102.30 0.04555
1102.40 0.04553
1102.50 0.04552
1102.60 0.0455
1102.70 0.04549
1102.80 0.04547
1102.90 0.04545
1103.00 0.04544
1103.10 0.04542
1103.20 0.04541
1103.30 0.04539
1103.40 0.04538
1103.50 0.04536
1103.60 0.04535
1103.70 0.04533
1103.80 0.04531
1103.90 0.0453
1104.00 0.04528
1104.10 0.04527
1104.20 0.04525
1104.30 0.04524
1104.40 0.04522
1104.50 0.04521
1104.60 0.04519
1104.70 0.04518
1104.80 0.04516
1104.90 0.04514
1105.00 0.04513
1105.10 0.04511
1105.20 0.0451
1105.30 0.04508
1105.40 0.04507
1105.50 0.04505
1105.60 0.04504
1105.70 0.04502
1105.80 0.04501
1105.90 0.04499
1106.00 0.04498
1106.10 0.04496
1106.20 0.04494
1106.30 0.04493
1106.40 0.04491
1106.50 0.0449
1106.60 0.04488
1106.70 0.04487
1106.80 0.04485
1106.90 0.04484
1107.00 0.04482
1107.10 0.04481
1107.20 0.04479
1107.30 0.04478
1107.40 0.04476
1107.50 0.04475
1107.60 0.04473
1107.70 0.04471
1107.80 0.0447
1107.90 0.04468
1108.00 0.04467
1108.10 0.04465
1108.20 0.04464
1108.30 0.04462
1108.40 0.04461
1108.50 0.04459
1108.60 0.04458
1108.70 0.04456
1108.80 0.04455
1108.90 0.04453
1109.00 0.04452
1109.10 0.0445
1109.20 0.04449
1109.30 0.04447
1109.40 0.04446
1109.50 0.04444
1109.60 0.04442
1109.70 0.04441
1109.80 0.04439
1109.90 0.04438
1110.00 0.04436
1110.10 0.04435
1110.20 0.04433
1110.30 0.04432
1110.40 0.0443
1110.50 0.04429
1110.60 0.04427
1110.70 0.04426
1110.80 0.04424
1110.90 0.04423
1111.00 0.04421
1111.10 0.0442
1111.20 0.04418
1111.30 0.04417
1111.40 0.04415
1111.50 0.04414
1111.60 0.04412
1111.70 0.04411
1111.80 0.04409
1111.90 0.04408
1112.00 0.04406
1112.10 0.04405
1112.20 0.04403
1112.30 0.04402
1112.40 0.044
1112.50 0.04398
1112.60 0.04397
1112.70 0.04395
1112.80 0.04394
1112.90 0.04392
1113.00 0.04391
1113.10 0.04389
1113.20 0.04388
1113.30 0.04386
1113.40 0.04385
1113.50 0.04383
1113.60 0.04382
1113.70 0.0438
1113.80 0.04379
1113.90 0.04377
1114.00 0.04376
1114.10 0.04374
1114.20 0.04373
1114.30 0.04371
1114.40 0.0437
1114.50 0.04368
1114.60 0.04367
1114.70 0.04365
1114.80 0.04364
1114.90 0.04362
1115.00 0.04361
1115.10 0.04359
1115.20 0.04358
1115.30 0.04356
1115.40 0.04355
1115.50 0.04353
1115.60 0.04352
1115.70 0.0435
1115.80 0.04349
1115.90 0.04347
1116.00 0.04346
1116.10 0.04344
1116.20 0.04343
1116.30 0.04341
1116.40 0.0434
1116.50 0.04338
1116.60 0.04337
1116.70 0.04335
1116.80 0.04334
1116.90 0.04332
1117.00 0.04331
1117.10 0.04329
1117.20 0.04328
1117.30 0.04326
1117.40 0.04325
1117.50 0.04323
1117.60 0.04322
1117.70 0.0432
1117.80 0.04319
1117.90 0.04317
1118.00 0.04316
1118.10 0.04314
1118.20 0.04313
1118.30 0.04311
1118.40 0.0431
1118.50 0.04308
1118.60 0.04307
1118.70 0.04305
1118.80 0.04304
1118.90 0.04302
1119.00 0.04301
1119.10 0.04299
1119.20 0.04298
1119.30 0.04297
1119.40 0.04295
1119.50 0.04294
1119.60 0.04292
1119.70 0.04291
1119.80 0.04289
1119.90 0.04288
1120.00 0.04286
1120.10 0.04285
1120.20 0.04283
1120.30 0.04282
1120.40 0.0428
1120.50 0.04279
1120.60 0.04277
1120.70 0.04276
1120.80 0.04274
1120.90 0.04273
1121.00 0.04271
1121.10 0.0427
1121.20 0.04268
1121.30 0.04267
1121.40 0.04265
1121.50 0.04264
1121.60 0.04262
1121.70 0.04261
1121.80 0.0426
1121.90 0.04258
1122.00 0.04257
1122.10 0.04255
1122.20 0.04254
1122.30 0.04252
1122.40 0.04251
1122.50 0.04249
1122.60 0.04248
1122.70 0.04246
1122.80 0.04245
1122.90 0.04243
1123.00 0.04242
1123.10 0.0424
1123.20 0.04239
1123.30 0.04237
1123.40 0.04236
1123.50 0.04235
1123.60 0.04233
1123.70 0.04232
1123.80 0.0423
1123.90 0.04229
1124.00 0.04227
1124.10 0.04226
1124.20 0.04224
1124.30 0.04223
1124.40 0.04221
1124.50 0.0422
1124.60 0.04218
1124.70 0.04217
1124.80 0.04216
1124.90 0.04214
1125.00 0.04213
1125.10 0.04211
1125.20 0.0421
1125.30 0.04208
1125.40 0.04207
1125.50 0.04205
1125.60 0.04204
1125.70 0.04202
1125.80 0.04201
1125.90 0.042
1126.00 0.04198
1126.10 0.04197
1126.20 0.04195
1126.30 0.04194
1126.40 0.04192
1126.50 0.04191
1126.60 0.04189
1126.70 0.04188
1126.80 0.04186
1126.90 0.04185
1127.00 0.04184
1127.10 0.04182
1127.20 0.04181
1127.30 0.04179
1127.40 0.04178
1127.50 0.04176
1127.60 0.04175
1127.70 0.04173
1127.80 0.04172
1127.90 0.04171
1128.00 0.04169
1128.10 0.04168
1128.20 0.04166
1128.30 0.04165
1128.40 0.04163
1128.50 0.04162
1128.60 0.04161
1128.70 0.04159
1128.80 0.04158
1128.90 0.04156
1129.00 0.04155
1129.10 0.04153
1129.20 0.04152
1129.30 0.0415
1129.40 0.04149
1129.50 0.04148
1129.60 0.04146
1129.70 0.04145
1129.80 0.04143
1129.90 0.04142
1130.00 0.0414
1130.10 0.04139
1130.20 0.04138
1130.30 0.04136
1130.40 0.04135
1130.50 0.04133
1130.60 0.04132
1130.70 0.0413
1130.80 0.04129
1130.90 0.04128
1131.00 0.04126
1131.10 0.04125
1131.20 0.04123
1131.30 0.04122
1131.40 0.0412
1131.50 0.04119
1131.60 0.04118
1131.70 0.04116
1131.80 0.04115
1131.90 0.04113
1132.00 0.04112
1132.10 0.04111
1132.20 0.04109
1132.30 0.04108
1132.40 0.04106
1132.50 0.04105
1132.60 0.04103
1132.70 0.04102
1132.80 0.04101
1132.90 0.04099
1133.00 0.04098
1133.10 0.04096
1133.20 0.04095
1133.30 0.04094
1133.40 0.04092
1133.50 0.04091
1133.60 0.04089
1133.70 0.04088
1133.80 0.04087
1133.90 0.04085
1134.00 0.04084
1134.10 0.04082
1134.20 0.04081
1134.30 0.0408
1134.40 0.04078
1134.50 0.04077
1134.60 0.04075
1134.70 0.04074
1134.80 0.04072
1134.90 0.04071
1135.00 0.0407
1135.10 0.04068
1135.20 0.04067
1135.30 0.04065
1135.40 0.04064
1135.50 0.04063
1135.60 0.04061
1135.70 0.0406
1135.80 0.04058
1135.90 0.04057
1136.00 0.04056
1136.10 0.04054
1136.20 0.04053
1136.30 0.04051
1136.40 0.0405
1136.50 0.04049
1136.60 0.04047
1136.70 0.04046
1136.80 0.04044
1136.90 0.04043
1137.00 0.04042
1137.10 0.0404
1137.20 0.04039
1137.30 0.04038
1137.40 0.04036
1137.50 0.04035
1137.60 0.04033
1137.70 0.04032
1137.80 0.04031
1137.90 0.04029
1138.00 0.04028
1138.10 0.04026
1138.20 0.04025
1138.30 0.04024
1138.40 0.04022
1138.50 0.04021
1138.60 0.0402
1138.70 0.04018
1138.80 0.04017
1138.90 0.04015
1139.00 0.04014
1139.10 0.04013
1139.20 0.04011
1139.30 0.0401
1139.40 0.04009
1139.50 0.04007
1139.60 0.04006
1139.70 0.04004
1139.80 0.04003
1139.90 0.04002
1140.00 0.04
1140.10 0.03999
1140.20 0.03998
1140.30 0.03996
1140.40 0.03995
1140.50 0.03993
1140.60 0.03992
1140.70 0.03991
1140.80 0.03989
1140.90 0.03988
1141.00 0.03987
1141.10 0.03985
1141.20 0.03984
1141.30 0.03982
1141.40 0.03981
1141.50 0.0398
1141.60 0.03978
1141.70 0.03977
1141.80 0.03976
1141.90 0.03974
1142.00 0.03973
1142.10 0.03972
1142.20 0.0397
1142.30 0.03969
1142.40 0.03967
1142.50 0.03966
1142.60 0.03965
1142.70 0.03963
1142.80 0.03962
1142.90 0.03961
1143.00 0.03959
1143.10 0.03958
1143.20 0.03957
1143.30 0.03955
1143.40 0.03954
1143.50 0.03953
1143.60 0.03951
1143.70 0.0395
1143.80 0.03948
1143.90 0.03947
1144.00 0.03946
1144.10 0.03944
1144.20 0.03943
1144.30 0.03942
1144.40 0.0394
1144.50 0.03939
1144.60 0.03938
1144.70 0.03936
1144.80 0.03935
1144.90 0.03934
1145.00 0.03932
1145.10 0.03931
1145.20 0.0393
1145.30 0.03928
1145.40 0.03927
1145.50 0.03926
1145.60 0.03924
1145.70 0.03923
1145.80 0.03922
1145.90 0.0392
1146.00 0.03919
1146.10 0.03918
1146.20 0.03916
1146.30 0.03915
1146.40 0.03914
1146.50 0.03912
1146.60 0.03911
1146.70 0.03909
1146.80 0.03908
1146.90 0.03907
1147.00 0.03905
1147.10 0.03904
1147.20 0.03903
1147.30 0.03901
1147.40 0.039
1147.50 0.03899
1147.60 0.03897
1147.70 0.03896
1147.80 0.03895
1147.90 0.03894
1148.00 0.03892
1148.10 0.03891
1148.20 0.0389
1148.30 0.03888
1148.40 0.03887
1148.50 0.03886
1148.60 0.03884
1148.70 0.03883
1148.80 0.03882
1148.90 0.0388
1149.00 0.03879
1149.10 0.03878
1149.20 0.03876
1149.30 0.03875
1149.40 0.03874
1149.50 0.03872
1149.60 0.03871
1149.70 0.0387
1149.80 0.03868
1149.90 0.03867
1150.00 0.03866
1150.10 0.03864
1150.20 0.03863
1150.30 0.03862
1150.40 0.0386
1150.50 0.03859
1150.60 0.03858
1150.70 0.03857
1150.80 0.03855
1150.90 0.03854
1151.00 0.03853
1151.10 0.03851
1151.20 0.0385
1151.30 0.03849
1151.40 0.03847
1151.50 0.03846
1151.60 0.03845
1151.70 0.03843
1151.80 0.03842
1151.90 0.03841
1152.00 0.03839
1152.10 0.03838
1152.20 0.03837
1152.30 0.03836
1152.40 0.03834
1152.50 0.03833
1152.60 0.03832
1152.70 0.0383
1152.80 0.03829
1152.90 0.03828
1153.00 0.03826
1153.10 0.03825
1153.20 0.03824
1153.30 0.03823
1153.40 0.03821
1153.50 0.0382
1153.60 0.03819
1153.70 0.03817
1153.80 0.03816
1153.90 0.03815
1154.00 0.03813
1154.10 0.03812
1154.20 0.03811
1154.30 0.0381
1154.40 0.03808
1154.50 0.03807
1154.60 0.03806
1154.70 0.03804
1154.80 0.03803
1154.90 0.03802
1155.00 0.03801
1155.10 0.03799
1155.20 0.03798
1155.30 0.03797
1155.40 0.03795
1155.50 0.03794
1155.60 0.03793
1155.70 0.03792
1155.80 0.0379
1155.90 0.03789
1156.00 0.03788
1156.10 0.03786
1156.20 0.03785
1156.30 0.03784
1156.40 0.03783
1156.50 0.03781
1156.60 0.0378
1156.70 0.03779
1156.80 0.03777
1156.90 0.03776
1157.00 0.03775
1157.10 0.03774
1157.20 0.03772
1157.30 0.03771
1157.40 0.0377
1157.50 0.03768
1157.60 0.03767
1157.70 0.03766
1157.80 0.03765
1157.90 0.03763
1158.00 0.03762
1158.10 0.03761
1158.20 0.0376
1158.30 0.03758
1158.40 0.03757
1158.50 0.03756
1158.60 0.03754
1158.70 0.03753
1158.80 0.03752
1158.90 0.03751
1159.00 0.03749
1159.10 0.03748
1159.20 0.03747
1159.30 0.03746
1159.40 0.03744
1159.50 0.03743
1159.60 0.03742
1159.70 0.0374
1159.80 0.03739
1159.90 0.03738
1160.00 0.03737
1160.10 0.03735
1160.20 0.03734
1160.30 0.03733
1160.40 0.03732
1160.50 0.0373
1160.60 0.03729
1160.70 0.03728
1160.80 0.03727
1160.90 0.03725
1161.00 0.03724
1161.10 0.03723
1161.20 0.03722
1161.30 0.0372
1161.40 0.03719
1161.50 0.03718
1161.60 0.03717
1161.70 0.03715
1161.80 0.03714
1161.90 0.03713
1162.00 0.03711
1162.10 0.0371
1162.20 0.03709
1162.30 0.03708
1162.40 0.03706
1162.50 0.03705
1162.60 0.03704
1162.70 0.03703
1162.80 0.03702
1162.90 0.037
1163.00 0.03699
1163.10 0.03698
1163.20 0.03697
1163.30 0.03695
1163.40 0.03694
1163.50 0.03693
1163.60 0.03692
1163.70 0.0369
1163.80 0.03689
1163.90 0.03688
1164.00 0.03687
1164.10 0.03685
1164.20 0.03684
1164.30 0.03683
1164.40 0.03682
1164.50 0.0368
1164.60 0.03679
1164.70 0.03678
1164.80 0.03677
1164.90 0.03675
1165.00 0.03674
1165.10 0.03673
1165.20 0.03672
1165.30 0.0367
1165.40 0.03669
1165.50 0.03668
1165.60 0.03667
1165.70 0.03666
1165.80 0.03664
1165.90 0.03663
1166.00 0.03662
1166.10 0.03661
1166.20 0.03659
1166.30 0.03658
1166.40 0.03657
1166.50 0.03656
1166.60 0.03654
1166.70 0.03653
1166.80 0.03652
1166.90 0.03651
1167.00 0.03649
1167.10 0.03648
1167.20 0.03647
1167.30 0.03646
1167.40 0.03645
1167.50 0.03643
1167.60 0.03642
1167.70 0.03641
1167.80 0.0364
1167.90 0.03639
1168.00 0.03637
1168.10 0.03636
1168.20 0.03635
1168.30 0.03634
1168.40 0.03632
1168.50 0.03631
1168.60 0.0363
1168.70 0.03629
1168.80 0.03628
1168.90 0.03626
1169.00 0.03625
1169.10 0.03624
1169.20 0.03623
1169.30 0.03621
1169.40 0.0362
1169.50 0.03619
1169.60 0.03618
1169.70 0.03617
1169.80 0.03615
1169.90 0.03614
1170.00 0.03613
1170.10 0.03612
1170.20 0.03611
1170.30 0.03609
1170.40 0.03608
1170.50 0.03607
1170.60 0.03606
1170.70 0.03604
1170.80 0.03603
1170.90 0.03602
1171.00 0.03601
1171.10 0.036
1171.20 0.03598
1171.30 0.03597
1171.40 0.03596
1171.50 0.03595
1171.60 0.03594
1171.70 0.03592
1171.80 0.03591
1171.90 0.0359
1172.00 0.03589
1172.10 0.03588
1172.20 0.03586
1172.30 0.03585
1172.40 0.03584
1172.50 0.03583
1172.60 0.03582
1172.70 0.0358
1172.80 0.03579
1172.90 0.03578
1173.00 0.03577
1173.10 0.03576
1173.20 0.03574
1173.30 0.03573
1173.40 0.03572
1173.50 0.03571
1173.60 0.0357
1173.70 0.03568
1173.80 0.03567
1173.90 0.03566
1174.00 0.03565
1174.10 0.03564
1174.20 0.03563
1174.30 0.03561
1174.40 0.0356
1174.50 0.03559
1174.60 0.03558
1174.70 0.03557
1174.80 0.03555
1174.90 0.03554
1175.00 0.03553
1175.10 0.03552
1175.20 0.03551
1175.30 0.03549
1175.40 0.03548
1175.50 0.03547
1175.60 0.03546
1175.70 0.03545
1175.80 0.03544
1175.90 0.03542
1176.00 0.03541
1176.10 0.0354
1176.20 0.03539
1176.30 0.03538
1176.40 0.03536
1176.50 0.03535
1176.60 0.03534
1176.70 0.03533
1176.80 0.03532
1176.90 0.0353
1177.00 0.03529
1177.10 0.03528
1177.20 0.03527
1177.30 0.03526
1177.40 0.03525
1177.50 0.03523
1177.60 0.03522
1177.70 0.03521
1177.80 0.0352
1177.90 0.03519
1178.00 0.03518
1178.10 0.03516
1178.20 0.03515
1178.30 0.03514
1178.40 0.03513
1178.50 0.03512
1178.60 0.03511
1178.70 0.03509
1178.80 0.03508
1178.90 0.03507
1179.00 0.03506
1179.10 0.03505
1179.20 0.03504
1179.30 0.03502
1179.40 0.03501
1179.50 0.035
1179.60 0.03499
1179.70 0.03498
1179.80 0.03497
1179.90 0.03495
1180.00 0.03494
1180.10 0.03493
1180.20 0.03492
1180.30 0.03491
1180.40 0.0349
1180.50 0.03488
1180.60 0.03487
1180.70 0.03486
1180.80 0.03485
1180.90 0.03484
1181.00 0.03483
1181.10 0.03482
1181.20 0.0348
1181.30 0.03479
1181.40 0.03478
1181.50 0.03477
1181.60 0.03476
1181.70 0.03475
1181.80 0.03473
1181.90 0.03472
1182.00 0.03471
1182.10 0.0347
1182.20 0.03469
1182.30 0.03468
1182.40 0.03466
1182.50 0.03465
1182.60 0.03464
1182.70 0.03463
1182.80 0.03462
1182.90 0.03461
1183.00 0.0346
1183.10 0.03458
1183.20 0.03457
1183.30 0.03456
1183.40 0.03455
1183.50 0.03454
1183.60 0.03453
1183.70 0.03452
1183.80 0.0345
1183.90 0.03449
1184.00 0.03448
1184.10 0.03447
1184.20 0.03446
1184.30 0.03445
1184.40 0.03444
1184.50 0.03442
1184.60 0.03441
1184.70 0.0344
1184.80 0.03439
1184.90 0.03438
1185.00 0.03437
1185.10 0.03436
1185.20 0.03434
1185.30 0.03433
1185.40 0.03432
1185.50 0.03431
1185.60 0.0343
1185.70 0.03429
1185.80 0.03428
1185.90 0.03427
1186.00 0.03425
1186.10 0.03424
1186.20 0.03423
1186.30 0.03422
1186.40 0.03421
1186.50 0.0342
1186.60 0.03419
1186.70 0.03417
1186.80 0.03416
1186.90 0.03415
1187.00 0.03414
1187.10 0.03413
1187.20 0.03412
1187.30 0.03411
1187.40 0.0341
1187.50 0.03408
1187.60 0.03407
1187.70 0.03406
1187.80 0.03405
1187.90 0.03404
1188.00 0.03403
1188.10 0.03402
1188.20 0.03401
1188.30 0.03399
1188.40 0.03398
1188.50 0.03397
1188.60 0.03396
1188.70 0.03395
1188.80 0.03394
1188.90 0.03393
1189.00 0.03392
1189.10 0.0339
1189.20 0.03389
1189.30 0.03388
1189.40 0.03387
1189.50 0.03386
1189.60 0.03385
1189.70 0.03384
1189.80 0.03383
1189.90 0.03382
1190.00 0.0338
1190.10 0.03379
1190.20 0.03378
1190.30 0.03377
1190.40 0.03376
1190.50 0.03375
1190.60 0.03374
1190.70 0.03373
1190.80 0.03371
1190.90 0.0337
1191.00 0.03369
1191.10 0.03368
1191.20 0.03367
1191.30 0.03366
1191.40 0.03365
1191.50 0.03364
1191.60 0.03363
1191.70 0.03361
1191.80 0.0336
1191.90 0.03359
1192.00 0.03358
1192.10 0.03357
1192.20 0.03356
1192.30 0.03355
1192.40 0.03354
1192.50 0.03353
1192.60 0.03352
1192.70 0.0335
1192.80 0.03349
1192.90 0.03348
1193.00 0.03347
1193.10 0.03346
1193.20 0.03345
1193.30 0.03344
1193.40 0.03343
1193.50 0.03342
1193.60 0.03341
1193.70 0.03339
1193.80 0.03338
1193.90 0.03337
1194.00 0.03336
1194.10 0.03335
1194.20 0.03334
1194.30 0.03333
1194.40 0.03332
1194.50 0.03331
1194.60 0.0333
1194.70 0.03329
1194.80 0.03327
1194.90 0.03326
1195.00 0.03325
1195.10 0.03324
1195.20 0.03323
1195.30 0.03322
1195.40 0.03321
1195.50 0.0332
1195.60 0.03319
1195.70 0.03318
1195.80 0.03316
1195.90 0.03315
1196.00 0.03314
1196.10 0.03313
1196.20 0.03312
1196.30 0.03311
1196.40 0.0331
1196.50 0.03309
1196.60 0.03308
1196.70 0.03307
1196.80 0.03306
1196.90 0.03305
1197.00 0.03303
1197.10 0.03302
1197.20 0.03301
1197.30 0.033
1197.40 0.03299
1197.50 0.03298
1197.60 0.03297
1197.70 0.03296
1197.80 0.03295
1197.90 0.03294
1198.00 0.03293
1198.10 0.03292
1198.20 0.0329
1198.30 0.03289
1198.40 0.03288
1198.50 0.03287
1198.60 0.03286
1198.70 0.03285
1198.80 0.03284
1198.90 0.03283
1199.00 0.03282
1199.10 0.03281
1199.20 0.0328
1199.30 0.03279
1199.40 0.03278
1199.50 0.03276
1199.60 0.03275
1199.70 0.03274
1199.80 0.03273
1199.90 0.03272
1200.00 0
