# Version 2.1 - nm, norm@500 to 1, cut digits, bergeron_25000_70.dat_25000
# Wavelength(nm)  Flambda(ergs/cm^s/s/nm)
300.00 4.081
300.10 4.077
300.20 4.072
300.30 4.068
300.40 4.064
300.50 4.059
300.60 4.055
300.70 4.051
300.80 4.047
300.90 4.042
301.00 4.038
301.10 4.034
301.20 4.03
301.30 4.025
301.40 4.021
301.50 4.017
301.60 4.013
301.70 4.008
301.80 4.004
301.90 4
302.00 3.996
302.10 3.992
302.20 3.987
302.30 3.983
302.40 3.979
302.50 3.975
302.60 3.971
302.70 3.967
302.80 3.963
302.90 3.958
303.00 3.954
303.10 3.95
303.20 3.946
303.30 3.942
303.40 3.938
303.50 3.934
303.60 3.93
303.70 3.925
303.80 3.921
303.90 3.917
304.00 3.913
304.10 3.909
304.20 3.905
304.30 3.901
304.40 3.897
304.50 3.893
304.60 3.889
304.70 3.885
304.80 3.881
304.90 3.877
305.00 3.873
305.10 3.869
305.20 3.865
305.30 3.861
305.40 3.857
305.50 3.853
305.60 3.849
305.70 3.845
305.80 3.841
305.90 3.837
306.00 3.833
306.10 3.829
306.20 3.825
306.30 3.821
306.40 3.817
306.50 3.813
306.60 3.809
306.70 3.805
306.80 3.801
306.90 3.797
307.00 3.793
307.10 3.789
307.20 3.785
307.30 3.782
307.40 3.778
307.50 3.774
307.60 3.77
307.70 3.766
307.80 3.762
307.90 3.758
308.00 3.754
308.10 3.75
308.20 3.747
308.30 3.743
308.40 3.739
308.50 3.735
308.60 3.731
308.70 3.727
308.80 3.724
308.90 3.72
309.00 3.716
309.10 3.712
309.20 3.708
309.30 3.704
309.40 3.701
309.50 3.697
309.60 3.693
309.70 3.689
309.80 3.686
309.90 3.682
310.00 3.678
310.10 3.674
310.20 3.67
310.30 3.667
310.40 3.663
310.50 3.659
310.60 3.655
310.70 3.652
310.80 3.648
310.90 3.644
311.00 3.641
311.10 3.637
311.20 3.633
311.30 3.629
311.40 3.626
311.50 3.622
311.60 3.618
311.70 3.615
311.80 3.611
311.90 3.607
312.00 3.604
312.10 3.6
312.20 3.596
312.30 3.593
312.40 3.589
312.50 3.585
312.60 3.582
312.70 3.578
312.80 3.574
312.90 3.571
313.00 3.567
313.10 3.564
313.20 3.56
313.30 3.556
313.40 3.553
313.50 3.549
313.60 3.546
313.70 3.542
313.80 3.538
313.90 3.535
314.00 3.531
314.10 3.528
314.20 3.524
314.30 3.521
314.40 3.517
314.50 3.513
314.60 3.51
314.70 3.506
314.80 3.503
314.90 3.499
315.00 3.496
315.10 3.492
315.20 3.489
315.30 3.485
315.40 3.482
315.50 3.478
315.60 3.475
315.70 3.471
315.80 3.468
315.90 3.464
316.00 3.461
316.10 3.457
316.20 3.454
316.30 3.45
316.40 3.447
316.50 3.443
316.60 3.44
316.70 3.436
316.80 3.433
316.90 3.43
317.00 3.426
317.10 3.423
317.20 3.419
317.30 3.416
317.40 3.412
317.50 3.409
317.60 3.406
317.70 3.402
317.80 3.399
317.90 3.395
318.00 3.392
318.10 3.389
318.20 3.385
318.30 3.382
318.40 3.378
318.50 3.375
318.60 3.372
318.70 3.368
318.80 3.365
318.90 3.362
319.00 3.358
319.10 3.355
319.20 3.352
319.30 3.348
319.40 3.345
319.50 3.342
319.60 3.338
319.70 3.335
319.80 3.332
319.90 3.328
320.00 3.325
320.10 3.322
320.20 3.318
320.30 3.315
320.40 3.312
320.50 3.308
320.60 3.305
320.70 3.302
320.80 3.299
320.90 3.295
321.00 3.292
321.10 3.289
321.20 3.286
321.30 3.282
321.40 3.279
321.50 3.276
321.60 3.273
321.70 3.269
321.80 3.266
321.90 3.263
322.00 3.26
322.10 3.256
322.20 3.253
322.30 3.25
322.40 3.247
322.50 3.244
322.60 3.24
322.70 3.237
322.80 3.234
322.90 3.231
323.00 3.228
323.10 3.224
323.20 3.221
323.30 3.218
323.40 3.215
323.50 3.212
323.60 3.209
323.70 3.205
323.80 3.202
323.90 3.199
324.00 3.196
324.10 3.193
324.20 3.19
324.30 3.187
324.40 3.183
324.50 3.18
324.60 3.177
324.70 3.174
324.80 3.171
324.90 3.168
325.00 3.165
325.10 3.162
325.20 3.158
325.30 3.155
325.40 3.152
325.50 3.149
325.60 3.146
325.70 3.143
325.80 3.14
325.90 3.137
326.00 3.134
326.10 3.131
326.20 3.128
326.30 3.125
326.40 3.122
326.50 3.119
326.60 3.116
326.70 3.112
326.80 3.109
326.90 3.106
327.00 3.103
327.10 3.1
327.20 3.097
327.30 3.094
327.40 3.091
327.50 3.088
327.60 3.085
327.70 3.082
327.80 3.079
327.90 3.076
328.00 3.073
328.10 3.07
328.20 3.067
328.30 3.064
328.40 3.061
328.50 3.058
328.60 3.055
328.70 3.052
328.80 3.05
328.90 3.047
329.00 3.044
329.10 3.041
329.20 3.038
329.30 3.035
329.40 3.032
329.50 3.029
329.60 3.026
329.70 3.023
329.80 3.02
329.90 3.017
330.00 3.014
330.10 3.011
330.20 3.008
330.30 3.006
330.40 3.003
330.50 3
330.60 2.997
330.70 2.994
330.80 2.991
330.90 2.988
331.00 2.985
331.10 2.982
331.20 2.98
331.30 2.977
331.40 2.974
331.50 2.971
331.60 2.968
331.70 2.965
331.80 2.962
331.90 2.959
332.00 2.957
332.10 2.954
332.20 2.951
332.30 2.948
332.40 2.945
332.50 2.942
332.60 2.94
332.70 2.937
332.80 2.934
332.90 2.931
333.00 2.928
333.10 2.926
333.20 2.923
333.30 2.92
333.40 2.917
333.50 2.914
333.60 2.912
333.70 2.909
333.80 2.906
333.90 2.903
334.00 2.9
334.10 2.898
334.20 2.895
334.30 2.892
334.40 2.889
334.50 2.887
334.60 2.884
334.70 2.881
334.80 2.878
334.90 2.876
335.00 2.873
335.10 2.87
335.20 2.867
335.30 2.865
335.40 2.862
335.50 2.859
335.60 2.856
335.70 2.854
335.80 2.851
335.90 2.848
336.00 2.846
336.10 2.843
336.20 2.84
336.30 2.837
336.40 2.835
336.50 2.832
336.60 2.829
336.70 2.827
336.80 2.824
336.90 2.821
337.00 2.819
337.10 2.816
337.20 2.813
337.30 2.811
337.40 2.808
337.50 2.805
337.60 2.803
337.70 2.8
337.80 2.797
337.90 2.795
338.00 2.792
338.10 2.789
338.20 2.787
338.30 2.784
338.40 2.782
338.50 2.779
338.60 2.776
338.70 2.774
338.80 2.771
338.90 2.768
339.00 2.766
339.10 2.763
339.20 2.761
339.30 2.758
339.40 2.755
339.50 2.753
339.60 2.75
339.70 2.748
339.80 2.745
339.90 2.742
340.00 2.74
340.10 2.737
340.20 2.735
340.30 2.732
340.40 2.73
340.50 2.727
340.60 2.724
340.70 2.722
340.80 2.719
340.90 2.717
341.00 2.714
341.10 2.712
341.20 2.709
341.30 2.707
341.40 2.704
341.50 2.701
341.60 2.699
341.70 2.696
341.80 2.694
341.90 2.691
342.00 2.689
342.10 2.686
342.20 2.684
342.30 2.681
342.40 2.679
342.50 2.676
342.60 2.674
342.70 2.671
342.80 2.669
342.90 2.666
343.00 2.664
343.10 2.661
343.20 2.659
343.30 2.656
343.40 2.654
343.50 2.651
343.60 2.649
343.70 2.646
343.80 2.644
343.90 2.642
344.00 2.639
344.10 2.637
344.20 2.634
344.30 2.632
344.40 2.629
344.50 2.627
344.60 2.624
344.70 2.622
344.80 2.619
344.90 2.617
345.00 2.615
345.10 2.612
345.20 2.61
345.30 2.607
345.40 2.605
345.50 2.603
345.60 2.6
345.70 2.598
345.80 2.595
345.90 2.593
346.00 2.59
346.10 2.588
346.20 2.586
346.30 2.583
346.40 2.581
346.50 2.578
346.60 2.576
346.70 2.574
346.80 2.571
346.90 2.569
347.00 2.567
347.10 2.564
347.20 2.562
347.30 2.559
347.40 2.557
347.50 2.555
347.60 2.552
347.70 2.55
347.80 2.548
347.90 2.545
348.00 2.543
348.10 2.541
348.20 2.538
348.30 2.536
348.40 2.534
348.50 2.531
348.60 2.529
348.70 2.527
348.80 2.524
348.90 2.522
349.00 2.52
349.10 2.517
349.20 2.515
349.30 2.513
349.40 2.51
349.50 2.508
349.60 2.506
349.70 2.504
349.80 2.501
349.90 2.499
350.00 2.497
350.10 2.494
350.20 2.492
350.30 2.49
350.40 2.487
350.50 2.485
350.60 2.483
350.70 2.481
350.80 2.478
350.90 2.476
351.00 2.474
351.10 2.472
351.20 2.469
351.30 2.467
351.40 2.465
351.50 2.463
351.60 2.46
351.70 2.458
351.80 2.456
351.90 2.454
352.00 2.451
352.10 2.449
352.20 2.447
352.30 2.445
352.40 2.442
352.50 2.44
352.60 2.438
352.70 2.436
352.80 2.434
352.90 2.431
353.00 2.429
353.10 2.427
353.20 2.425
353.30 2.422
353.40 2.42
353.50 2.418
353.60 2.416
353.70 2.414
353.80 2.411
353.90 2.409
354.00 2.407
354.10 2.405
354.20 2.403
354.30 2.401
354.40 2.398
354.50 2.396
354.60 2.394
354.70 2.392
354.80 2.39
354.90 2.388
355.00 2.385
355.10 2.383
355.20 2.381
355.30 2.379
355.40 2.377
355.50 2.375
355.60 2.372
355.70 2.37
355.80 2.368
355.90 2.366
356.00 2.364
356.10 2.362
356.20 2.36
356.30 2.357
356.40 2.355
356.50 2.353
356.60 2.351
356.70 2.349
356.80 2.347
356.90 2.345
357.00 2.343
357.10 2.341
357.20 2.338
357.30 2.336
357.40 2.334
357.50 2.332
357.60 2.33
357.70 2.328
357.80 2.326
357.90 2.324
358.00 2.322
358.10 2.32
358.20 2.317
358.30 2.315
358.40 2.313
358.50 2.311
358.60 2.309
358.70 2.307
358.80 2.305
358.90 2.303
359.00 2.301
359.10 2.299
359.20 2.297
359.30 2.295
359.40 2.293
359.50 2.291
359.60 2.289
359.70 2.286
359.80 2.284
359.90 2.282
360.00 2.28
360.10 2.278
360.20 2.276
360.30 2.274
360.40 2.272
360.50 2.27
360.60 2.268
360.70 2.266
360.80 2.264
360.90 2.262
361.00 2.26
361.10 2.258
361.20 2.256
361.30 2.254
361.40 2.252
361.50 2.25
361.60 2.248
361.70 2.246
361.80 2.244
361.90 2.242
362.00 2.24
362.10 2.238
362.20 2.236
362.30 2.234
362.40 2.232
362.50 2.23
362.60 2.228
362.70 2.226
362.80 2.224
362.90 2.222
363.00 2.22
363.10 2.218
363.20 2.216
363.30 2.214
363.40 2.212
363.50 2.21
363.60 2.208
363.70 2.206
363.80 2.204
363.90 2.203
364.00 2.201
364.10 2.199
364.20 2.197
364.30 2.195
364.40 2.193
364.50 2.191
364.60 2.189
364.70 2.187
364.80 2.185
364.90 2.183
365.00 2.181
365.10 2.179
365.20 2.177
365.30 2.175
365.40 2.173
365.50 2.172
365.60 2.17
365.70 2.168
365.80 2.166
365.90 2.164
366.00 2.162
366.10 2.16
366.20 2.157
366.30 2.155
366.40 2.153
366.50 2.151
366.60 2.148
366.70 2.146
366.80 2.144
366.90 2.141
367.00 2.139
367.10 2.137
367.20 2.135
367.30 2.132
367.40 2.13
367.50 2.128
367.60 2.126
367.70 2.123
367.80 2.121
367.90 2.119
368.00 2.116
368.10 2.114
368.20 2.112
368.30 2.11
368.40 2.108
368.50 2.106
368.60 2.104
368.70 2.101
368.80 2.099
368.90 2.097
369.00 2.095
369.10 2.093
369.20 2.091
369.30 2.089
369.40 2.087
369.50 2.084
369.60 2.082
369.70 2.08
369.80 2.078
369.90 2.076
370.00 2.074
370.10 2.072
370.20 2.07
370.30 2.068
370.40 2.066
370.50 2.064
370.60 2.063
370.70 2.061
370.80 2.059
370.90 2.057
371.00 2.055
371.10 2.053
371.20 2.051
371.30 2.05
371.40 2.048
371.50 2.046
371.60 2.044
371.70 2.042
371.80 2.04
371.90 2.038
372.00 2.037
372.10 2.035
372.20 2.034
372.30 2.033
372.40 2.032
372.50 2.031
372.60 2.03
372.70 2.028
372.80 2.027
372.90 2.026
373.00 2.025
373.10 2.024
373.20 2.023
373.30 2.022
373.40 2.02
373.50 2.019
373.60 2.018
373.70 2.017
373.80 2.016
373.90 2.015
374.00 2.014
374.10 2.013
374.20 2.012
374.30 2.011
374.40 2.01
374.50 2.01
374.60 2.009
374.70 2.008
374.80 2.007
374.90 2.007
375.00 2.006
375.10 2.005
375.20 2.004
375.30 2.003
375.40 2.003
375.50 2.002
375.60 2.001
375.70 2
375.80 2
375.90 1.999
376.00 1.998
376.10 1.993
376.20 1.988
376.30 1.983
376.40 1.978
376.50 1.973
376.60 1.967
376.70 1.962
376.80 1.957
376.90 1.952
377.00 1.947
377.10 1.952
377.20 1.956
377.30 1.96
377.40 1.964
377.50 1.969
377.60 1.973
377.70 1.977
377.80 1.982
377.90 1.986
378.00 1.99
378.10 1.986
378.20 1.982
378.30 1.977
378.40 1.973
378.50 1.969
378.60 1.964
378.70 1.96
378.80 1.956
378.90 1.952
379.00 1.947
379.10 1.94
379.20 1.932
379.30 1.925
379.40 1.917
379.50 1.91
379.60 1.902
379.70 1.895
379.80 1.887
379.90 1.88
380.00 1.872
380.10 1.884
380.20 1.895
380.30 1.907
380.40 1.918
380.50 1.929
380.60 1.941
380.70 1.952
380.80 1.964
380.90 1.975
381.00 1.986
381.10 1.988
381.20 1.99
381.30 1.993
381.40 1.995
381.50 1.997
381.60 1.994
381.70 1.991
381.80 1.985
381.90 1.978
382.00 1.97
382.10 1.959
382.20 1.948
382.30 1.927
382.40 1.906
382.50 1.885
382.60 1.864
382.70 1.843
382.80 1.822
382.90 1.801
383.00 1.78
383.10 1.759
383.20 1.738
383.30 1.71
383.40 1.681
383.50 1.655
383.60 1.66
383.70 1.687
383.80 1.715
383.90 1.743
384.00 1.77
384.10 1.796
384.20 1.821
384.30 1.844
384.40 1.867
384.50 1.888
384.60 1.907
384.70 1.926
384.80 1.942
384.90 1.958
385.00 1.972
385.10 1.984
385.20 1.996
385.30 2.006
385.40 2.015
385.50 2.022
385.60 2.028
385.70 2.032
385.80 2.036
385.90 2.038
386.00 2.038
386.10 2.037
386.20 2.035
386.30 2.031
386.40 2.026
386.50 2.02
386.60 2.011
386.70 2.002
386.80 1.991
386.90 1.978
387.00 1.964
387.10 1.949
387.20 1.931
387.30 1.913
387.40 1.892
387.50 1.87
387.60 1.846
387.70 1.821
387.80 1.793
387.90 1.764
388.00 1.734
388.10 1.702
388.20 1.668
388.30 1.632
388.40 1.594
388.50 1.555
388.60 1.515
388.70 1.472
388.80 1.435
388.90 1.402
389.00 1.43
389.10 1.465
389.20 1.506
389.30 1.544
389.40 1.582
389.50 1.618
389.60 1.652
389.70 1.684
389.80 1.716
389.90 1.745
390.00 1.773
390.10 1.8
390.20 1.824
390.30 1.848
390.40 1.871
390.50 1.891
390.60 1.911
390.70 1.93
390.80 1.947
390.90 1.963
391.00 1.978
391.10 1.992
391.20 2.005
391.30 2.017
391.40 2.027
391.50 2.037
391.60 2.046
391.70 2.054
391.80 2.061
391.90 2.068
392.00 2.073
392.10 2.078
392.20 2.082
392.30 2.085
392.40 2.088
392.50 2.09
392.60 2.09
392.70 2.091
392.80 2.09
392.90 2.089
393.00 2.087
393.10 2.084
393.20 2.081
393.30 2.077
393.40 2.072
393.50 2.066
393.60 2.06
393.70 2.053
393.80 2.044
393.90 2.036
394.00 2.026
394.10 2.015
394.20 2.003
394.30 1.991
394.40 1.977
394.50 1.963
394.60 1.948
394.70 1.931
394.80 1.913
394.90 1.894
395.00 1.874
395.10 1.853
395.20 1.83
395.30 1.806
395.40 1.781
395.50 1.755
395.60 1.727
395.70 1.697
395.80 1.667
395.90 1.635
396.00 1.601
396.10 1.566
396.20 1.529
396.30 1.491
396.40 1.451
396.50 1.409
396.60 1.364
396.70 1.318
396.80 1.265
396.90 1.209
397.00 1.148
397.10 1.202
397.20 1.254
397.30 1.306
397.40 1.351
397.50 1.394
397.60 1.434
397.70 1.472
397.80 1.508
397.90 1.543
398.00 1.575
398.10 1.607
398.20 1.637
398.30 1.665
398.40 1.691
398.50 1.717
398.60 1.741
398.70 1.764
398.80 1.786
398.90 1.806
399.00 1.825
399.10 1.843
399.20 1.86
399.30 1.876
399.40 1.891
399.50 1.905
399.60 1.918
399.70 1.93
399.80 1.942
399.90 1.953
400.00 1.963
400.10 1.972
400.20 1.98
400.30 1.988
400.40 1.996
400.50 2.002
400.60 2.009
400.70 2.015
400.80 2.02
400.90 2.025
401.00 2.029
401.10 2.033
401.20 2.037
401.30 2.04
401.40 2.043
401.50 2.046
401.60 2.049
401.70 2.051
401.80 2.053
401.90 2.054
402.00 2.055
402.10 2.057
402.20 2.057
402.30 2.058
402.40 2.058
402.50 2.059
402.60 2.059
402.70 2.059
402.80 2.058
402.90 2.058
403.00 2.057
403.10 2.056
403.20 2.055
403.30 2.054
403.40 2.053
403.50 2.051
403.60 2.049
403.70 2.048
403.80 2.046
403.90 2.043
404.00 2.041
404.10 2.039
404.20 2.036
404.30 2.033
404.40 2.03
404.50 2.027
404.60 2.024
404.70 2.02
404.80 2.016
404.90 2.012
405.00 2.008
405.10 2.004
405.20 1.999
405.30 1.994
405.40 1.989
405.50 1.984
405.60 1.978
405.70 1.972
405.80 1.966
405.90 1.959
406.00 1.952
406.10 1.945
406.20 1.937
406.30 1.929
406.40 1.921
406.50 1.912
406.60 1.903
406.70 1.893
406.80 1.882
406.90 1.872
407.00 1.86
407.10 1.848
407.20 1.835
407.30 1.822
407.40 1.808
407.50 1.794
407.60 1.778
407.70 1.762
407.80 1.745
407.90 1.727
408.00 1.709
408.10 1.689
408.20 1.668
408.30 1.647
408.40 1.625
408.50 1.601
408.60 1.576
408.70 1.55
408.80 1.523
408.90 1.495
409.00 1.465
409.10 1.434
409.20 1.402
409.30 1.369
409.40 1.333
409.50 1.297
409.60 1.259
409.70 1.217
409.80 1.172
409.90 1.125
410.00 1.065
410.10 1.011
410.20 0.9617
410.30 1.032
410.40 1.094
410.50 1.147
410.60 1.19
410.70 1.231
410.80 1.269
410.90 1.304
411.00 1.337
411.10 1.37
411.20 1.4
411.30 1.429
411.40 1.457
411.50 1.483
411.60 1.508
411.70 1.531
411.80 1.554
411.90 1.575
412.00 1.595
412.10 1.614
412.20 1.632
412.30 1.649
412.40 1.665
412.50 1.68
412.60 1.694
412.70 1.708
412.80 1.72
412.90 1.732
413.00 1.743
413.10 1.754
413.20 1.763
413.30 1.772
413.40 1.781
413.50 1.789
413.60 1.796
413.70 1.803
413.80 1.81
413.90 1.816
414.00 1.821
414.10 1.827
414.20 1.831
414.30 1.836
414.40 1.84
414.50 1.844
414.60 1.847
414.70 1.851
414.80 1.854
414.90 1.856
415.00 1.859
415.10 1.861
415.20 1.863
415.30 1.865
415.40 1.867
415.50 1.868
415.60 1.87
415.70 1.871
415.80 1.872
415.90 1.873
416.00 1.873
416.10 1.874
416.20 1.875
416.30 1.875
416.40 1.875
416.50 1.876
416.60 1.876
416.70 1.876
416.80 1.876
416.90 1.876
417.00 1.875
417.10 1.875
417.20 1.875
417.30 1.874
417.40 1.874
417.50 1.874
417.60 1.873
417.70 1.872
417.80 1.872
417.90 1.871
418.00 1.87
418.10 1.87
418.20 1.869
418.30 1.868
418.40 1.867
418.50 1.866
418.60 1.865
418.70 1.864
418.80 1.863
418.90 1.862
419.00 1.861
419.10 1.86
419.20 1.859
419.30 1.858
419.40 1.857
419.50 1.856
419.60 1.855
419.70 1.854
419.80 1.852
419.90 1.851
420.00 1.85
420.10 1.849
420.20 1.847
420.30 1.846
420.40 1.845
420.50 1.843
420.60 1.842
420.70 1.841
420.80 1.839
420.90 1.838
421.00 1.837
421.10 1.835
421.20 1.834
421.30 1.832
421.40 1.831
421.50 1.829
421.60 1.828
421.70 1.827
421.80 1.825
421.90 1.824
422.00 1.822
422.10 1.82
422.20 1.819
422.30 1.817
422.40 1.816
422.50 1.814
422.60 1.813
422.70 1.811
422.80 1.809
422.90 1.808
423.00 1.806
423.10 1.805
423.20 1.803
423.30 1.801
423.40 1.799
423.50 1.798
423.60 1.796
423.70 1.794
423.80 1.793
423.90 1.791
424.00 1.789
424.10 1.787
424.20 1.785
424.30 1.784
424.40 1.782
424.50 1.78
424.60 1.778
424.70 1.776
424.80 1.774
424.90 1.772
425.00 1.77
425.10 1.768
425.20 1.766
425.30 1.764
425.40 1.762
425.50 1.76
425.60 1.758
425.70 1.756
425.80 1.754
425.90 1.752
426.00 1.75
426.10 1.747
426.20 1.745
426.30 1.743
426.40 1.74
426.50 1.738
426.60 1.736
426.70 1.733
426.80 1.731
426.90 1.728
427.00 1.726
427.10 1.723
427.20 1.72
427.30 1.717
427.40 1.715
427.50 1.712
427.60 1.709
427.70 1.706
427.80 1.703
427.90 1.7
428.00 1.696
428.10 1.693
428.20 1.69
428.30 1.686
428.40 1.682
428.50 1.679
428.60 1.675
428.70 1.671
428.80 1.667
428.90 1.663
429.00 1.658
429.10 1.654
429.20 1.649
429.30 1.644
429.40 1.639
429.50 1.634
429.60 1.628
429.70 1.623
429.80 1.617
429.90 1.611
430.00 1.604
430.10 1.597
430.20 1.59
430.30 1.583
430.40 1.575
430.50 1.567
430.60 1.559
430.70 1.55
430.80 1.541
430.90 1.532
431.00 1.522
431.10 1.511
431.20 1.501
431.30 1.489
431.40 1.477
431.50 1.465
431.60 1.451
431.70 1.438
431.80 1.423
431.90 1.408
432.00 1.392
432.10 1.375
432.20 1.358
432.30 1.339
432.40 1.32
432.50 1.3
432.60 1.279
432.70 1.257
432.80 1.234
432.90 1.21
433.00 1.185
433.10 1.159
433.20 1.132
433.30 1.103
433.40 1.073
433.50 1.04
433.60 1.006
433.70 0.9665
433.80 0.9204
433.90 0.8679
434.00 0.785
434.10 0.7861
434.20 0.871
434.30 0.9212
434.40 0.9652
434.50 1.003
434.60 1.035
434.70 1.066
434.80 1.095
434.90 1.121
435.00 1.147
435.10 1.171
435.20 1.194
435.30 1.216
435.40 1.237
435.50 1.256
435.60 1.275
435.70 1.293
435.80 1.309
435.90 1.325
436.00 1.34
436.10 1.354
436.20 1.367
436.30 1.38
436.40 1.392
436.50 1.403
436.60 1.414
436.70 1.423
436.80 1.432
436.90 1.441
437.00 1.449
437.10 1.457
437.20 1.464
437.30 1.471
437.40 1.477
437.50 1.483
437.60 1.488
437.70 1.493
437.80 1.498
437.90 1.502
438.00 1.506
438.10 1.51
438.20 1.514
438.30 1.517
438.40 1.52
438.50 1.523
438.60 1.525
438.70 1.528
438.80 1.53
438.90 1.532
439.00 1.534
439.10 1.535
439.20 1.537
439.30 1.538
439.40 1.539
439.50 1.541
439.60 1.542
439.70 1.542
439.80 1.543
439.90 1.544
440.00 1.544
440.10 1.545
440.20 1.545
440.30 1.546
440.40 1.546
440.50 1.546
440.60 1.546
440.70 1.546
440.80 1.546
440.90 1.546
441.00 1.546
441.10 1.546
441.20 1.546
441.30 1.545
441.40 1.545
441.50 1.545
441.60 1.544
441.70 1.544
441.80 1.543
441.90 1.543
442.00 1.542
442.10 1.542
442.20 1.541
442.30 1.541
442.40 1.54
442.50 1.54
442.60 1.539
442.70 1.538
442.80 1.537
442.90 1.537
443.00 1.536
443.10 1.535
443.20 1.534
443.30 1.534
443.40 1.533
443.50 1.532
443.60 1.531
443.70 1.53
443.80 1.53
443.90 1.529
444.00 1.528
444.10 1.527
444.20 1.526
444.30 1.525
444.40 1.524
444.50 1.523
444.60 1.522
444.70 1.521
444.80 1.52
444.90 1.519
445.00 1.518
445.10 1.517
445.20 1.516
445.30 1.515
445.40 1.514
445.50 1.513
445.60 1.512
445.70 1.511
445.80 1.51
445.90 1.509
446.00 1.508
446.10 1.507
446.20 1.506
446.30 1.505
446.40 1.504
446.50 1.503
446.60 1.502
446.70 1.501
446.80 1.5
446.90 1.499
447.00 1.498
447.10 1.497
447.20 1.496
447.30 1.494
447.40 1.493
447.50 1.492
447.60 1.491
447.70 1.49
447.80 1.489
447.90 1.488
448.00 1.487
448.10 1.486
448.20 1.485
448.30 1.484
448.40 1.482
448.50 1.481
448.60 1.48
448.70 1.479
448.80 1.478
448.90 1.477
449.00 1.476
449.10 1.475
449.20 1.474
449.30 1.473
449.40 1.471
449.50 1.47
449.60 1.469
449.70 1.468
449.80 1.467
449.90 1.466
450.00 1.465
450.10 1.464
450.20 1.463
450.30 1.461
450.40 1.46
450.50 1.459
450.60 1.458
450.70 1.457
450.80 1.456
450.90 1.455
451.00 1.454
451.10 1.453
451.20 1.451
451.30 1.45
451.40 1.449
451.50 1.448
451.60 1.447
451.70 1.446
451.80 1.445
451.90 1.444
452.00 1.443
452.10 1.441
452.20 1.44
452.30 1.439
452.40 1.438
452.50 1.437
452.60 1.436
452.70 1.435
452.80 1.434
452.90 1.432
453.00 1.431
453.10 1.43
453.20 1.429
453.30 1.428
453.40 1.427
453.50 1.426
453.60 1.425
453.70 1.424
453.80 1.423
453.90 1.421
454.00 1.42
454.10 1.419
454.20 1.418
454.30 1.417
454.40 1.416
454.50 1.415
454.60 1.414
454.70 1.413
454.80 1.411
454.90 1.41
455.00 1.409
455.10 1.408
455.20 1.407
455.30 1.406
455.40 1.405
455.50 1.404
455.60 1.403
455.70 1.402
455.80 1.4
455.90 1.399
456.00 1.398
456.10 1.397
456.20 1.396
456.30 1.395
456.40 1.394
456.50 1.393
456.60 1.392
456.70 1.391
456.80 1.39
456.90 1.388
457.00 1.387
457.10 1.386
457.20 1.385
457.30 1.384
457.40 1.383
457.50 1.382
457.60 1.381
457.70 1.38
457.80 1.379
457.90 1.378
458.00 1.377
458.10 1.375
458.20 1.374
458.30 1.373
458.40 1.372
458.50 1.371
458.60 1.37
458.70 1.369
458.80 1.368
458.90 1.367
459.00 1.366
459.10 1.365
459.20 1.364
459.30 1.363
459.40 1.361
459.50 1.36
459.60 1.359
459.70 1.358
459.80 1.357
459.90 1.356
460.00 1.355
460.10 1.354
460.20 1.353
460.30 1.352
460.40 1.351
460.50 1.35
460.60 1.349
460.70 1.348
460.80 1.347
460.90 1.345
461.00 1.344
461.10 1.343
461.20 1.342
461.30 1.341
461.40 1.34
461.50 1.339
461.60 1.338
461.70 1.337
461.80 1.336
461.90 1.335
462.00 1.334
462.10 1.333
462.20 1.332
462.30 1.331
462.40 1.33
462.50 1.329
462.60 1.328
462.70 1.326
462.80 1.325
462.90 1.324
463.00 1.323
463.10 1.322
463.20 1.321
463.30 1.32
463.40 1.319
463.50 1.318
463.60 1.317
463.70 1.316
463.80 1.315
463.90 1.314
464.00 1.313
464.10 1.312
464.20 1.311
464.30 1.31
464.40 1.309
464.50 1.308
464.60 1.307
464.70 1.306
464.80 1.305
464.90 1.304
465.00 1.303
465.10 1.301
465.20 1.3
465.30 1.299
465.40 1.298
465.50 1.297
465.60 1.296
465.70 1.295
465.80 1.294
465.90 1.293
466.00 1.292
466.10 1.291
466.20 1.29
466.30 1.289
466.40 1.288
466.50 1.287
466.60 1.286
466.70 1.285
466.80 1.284
466.90 1.283
467.00 1.282
467.10 1.281
467.20 1.28
467.30 1.279
467.40 1.278
467.50 1.277
467.60 1.276
467.70 1.275
467.80 1.274
467.90 1.273
468.00 1.272
468.10 1.271
468.20 1.27
468.30 1.269
468.40 1.268
468.50 1.266
468.60 1.265
468.70 1.264
468.80 1.263
468.90 1.262
469.00 1.261
469.10 1.26
469.20 1.259
469.30 1.258
469.40 1.257
469.50 1.256
469.60 1.255
469.70 1.254
469.80 1.253
469.90 1.252
470.00 1.251
470.10 1.25
470.20 1.249
470.30 1.248
470.40 1.247
470.50 1.246
470.60 1.245
470.70 1.244
470.80 1.243
470.90 1.242
471.00 1.241
471.10 1.24
471.20 1.239
471.30 1.238
471.40 1.237
471.50 1.236
471.60 1.234
471.70 1.233
471.80 1.232
471.90 1.231
472.00 1.23
472.10 1.229
472.20 1.228
472.30 1.227
472.40 1.226
472.50 1.225
472.60 1.224
472.70 1.223
472.80 1.222
472.90 1.221
473.00 1.22
473.10 1.219
473.20 1.218
473.30 1.217
473.40 1.215
473.50 1.214
473.60 1.213
473.70 1.212
473.80 1.211
473.90 1.21
474.00 1.209
474.10 1.208
474.20 1.207
474.30 1.206
474.40 1.205
474.50 1.203
474.60 1.202
474.70 1.201
474.80 1.2
474.90 1.199
475.00 1.198
475.10 1.197
475.20 1.195
475.30 1.194
475.40 1.193
475.50 1.192
475.60 1.191
475.70 1.19
475.80 1.188
475.90 1.187
476.00 1.186
476.10 1.185
476.20 1.184
476.30 1.182
476.40 1.181
476.50 1.18
476.60 1.179
476.70 1.177
476.80 1.176
476.90 1.175
477.00 1.174
477.10 1.172
477.20 1.171
477.30 1.169
477.40 1.168
477.50 1.167
477.60 1.165
477.70 1.164
477.80 1.162
477.90 1.161
478.00 1.16
478.10 1.158
478.20 1.157
478.30 1.155
478.40 1.153
478.50 1.152
478.60 1.15
478.70 1.149
478.80 1.147
478.90 1.145
479.00 1.144
479.10 1.142
479.20 1.14
479.30 1.138
479.40 1.136
479.50 1.134
479.60 1.132
479.70 1.13
479.80 1.128
479.90 1.127
480.00 1.125
480.10 1.123
480.20 1.12
480.30 1.118
480.40 1.115
480.50 1.113
480.60 1.11
480.70 1.108
480.80 1.105
480.90 1.102
481.00 1.1
481.10 1.097
481.20 1.094
481.30 1.091
481.40 1.087
481.50 1.084
481.60 1.08
481.70 1.077
481.80 1.073
481.90 1.07
482.00 1.066
482.10 1.063
482.20 1.058
482.30 1.053
482.40 1.048
482.50 1.043
482.60 1.037
482.70 1.032
482.80 1.027
482.90 1.022
483.00 1.017
483.10 1.012
483.20 1.005
483.30 0.9966
483.40 0.9887
483.50 0.9808
483.60 0.9729
483.70 0.965
483.80 0.9571
483.90 0.9492
484.00 0.9413
484.10 0.9334
484.20 0.9235
484.30 0.9125
484.40 0.9016
484.50 0.8907
484.60 0.8799
484.70 0.8671
484.80 0.8535
484.90 0.84
485.00 0.8264
485.10 0.8129
485.20 0.7976
485.30 0.7816
485.40 0.7643
485.50 0.7463
485.60 0.7262
485.70 0.7051
485.80 0.6786
485.90 0.6496
486.00 0.6105
486.10 0.5318
486.20 0.5685
486.30 0.6254
486.40 0.6572
486.50 0.6856
486.60 0.7084
486.70 0.7287
486.80 0.7466
486.90 0.7634
487.00 0.7789
487.10 0.7937
487.20 0.8069
487.30 0.8192
487.40 0.8315
487.50 0.8438
487.60 0.8561
487.70 0.8665
487.80 0.876
487.90 0.8854
488.00 0.8948
488.10 0.9043
488.20 0.9116
488.30 0.9179
488.40 0.9242
488.50 0.9305
488.60 0.9368
488.70 0.9431
488.80 0.9494
488.90 0.9557
489.00 0.962
489.10 0.9682
489.20 0.9726
489.30 0.976
489.40 0.9795
489.50 0.9829
489.60 0.9863
489.70 0.9898
489.80 0.9932
489.90 0.9966
490.00 1
490.10 1.003
490.20 1.006
490.30 1.008
490.40 1.009
490.50 1.011
490.60 1.013
490.70 1.014
490.80 1.016
490.90 1.018
491.00 1.02
491.10 1.021
491.20 1.023
491.30 1.023
491.40 1.024
491.50 1.025
491.60 1.026
491.70 1.026
491.80 1.027
491.90 1.028
492.00 1.029
492.10 1.029
492.20 1.03
492.30 1.03
492.40 1.03
492.50 1.03
492.60 1.031
492.70 1.031
492.80 1.031
492.90 1.031
493.00 1.032
493.10 1.032
493.20 1.032
493.30 1.032
493.40 1.031
493.50 1.031
493.60 1.031
493.70 1.031
493.80 1.031
493.90 1.031
494.00 1.031
494.10 1.031
494.20 1.03
494.30 1.03
494.40 1.03
494.50 1.029
494.60 1.029
494.70 1.029
494.80 1.028
494.90 1.028
495.00 1.028
495.10 1.027
495.20 1.027
495.30 1.027
495.40 1.026
495.50 1.026
495.60 1.025
495.70 1.025
495.80 1.024
495.90 1.024
496.00 1.023
496.10 1.023
496.20 1.022
496.30 1.022
496.40 1.021
496.50 1.021
496.60 1.02
496.70 1.02
496.80 1.019
496.90 1.019
497.00 1.018
497.10 1.018
497.20 1.017
497.30 1.017
497.40 1.016
497.50 1.015
497.60 1.015
497.70 1.014
497.80 1.014
497.90 1.013
498.00 1.012
498.10 1.012
498.20 1.011
498.30 1.011
498.40 1.01
498.50 1.009
498.60 1.009
498.70 1.008
498.80 1.008
498.90 1.007
499.00 1.006
499.10 1.006
499.20 1.005
499.30 1.004
499.40 1.004
499.50 1.003
499.60 1.003
499.70 1.002
499.80 1.001
499.90 1.001
500.00 1
500.10 0.9994
500.20 0.9987
500.30 0.9981
500.40 0.9974
500.50 0.9968
500.60 0.9961
500.70 0.9955
500.80 0.9948
500.90 0.9942
501.00 0.9935
501.10 0.9929
501.20 0.9922
501.30 0.9915
501.40 0.9909
501.50 0.9902
501.60 0.9895
501.70 0.9889
501.80 0.9882
501.90 0.9876
502.00 0.9869
502.10 0.9863
502.20 0.9856
502.30 0.9849
502.40 0.9843
502.50 0.9836
502.60 0.9829
502.70 0.9823
502.80 0.9816
502.90 0.9809
503.00 0.9803
503.10 0.9796
503.20 0.9789
503.30 0.9783
503.40 0.9776
503.50 0.9769
503.60 0.9763
503.70 0.9756
503.80 0.9749
503.90 0.9743
504.00 0.9736
504.10 0.9729
504.20 0.9723
504.30 0.9716
504.40 0.9709
504.50 0.9702
504.60 0.9696
504.70 0.9689
504.80 0.9682
504.90 0.9676
505.00 0.9669
505.10 0.9662
505.20 0.9656
505.30 0.9649
505.40 0.9642
505.50 0.9636
505.60 0.9629
505.70 0.9622
505.80 0.9616
505.90 0.9609
506.00 0.9602
506.10 0.9596
506.20 0.9589
506.30 0.9582
506.40 0.9576
506.50 0.9569
506.60 0.9562
506.70 0.9556
506.80 0.9549
506.90 0.9542
507.00 0.9536
507.10 0.9529
507.20 0.9523
507.30 0.9516
507.40 0.9509
507.50 0.9503
507.60 0.9496
507.70 0.9489
507.80 0.9483
507.90 0.9476
508.00 0.947
508.10 0.9463
508.20 0.9456
508.30 0.945
508.40 0.9443
508.50 0.9437
508.60 0.943
508.70 0.9423
508.80 0.9417
508.90 0.941
509.00 0.9404
509.10 0.9397
509.20 0.939
509.30 0.9384
509.40 0.9377
509.50 0.9371
509.60 0.9364
509.70 0.9358
509.80 0.9351
509.90 0.9345
510.00 0.9338
510.10 0.9332
510.20 0.9325
510.30 0.9318
510.40 0.9312
510.50 0.9305
510.60 0.9299
510.70 0.9292
510.80 0.9286
510.90 0.9279
511.00 0.9273
511.10 0.9266
511.20 0.926
511.30 0.9253
511.40 0.9247
511.50 0.924
511.60 0.9234
511.70 0.9228
511.80 0.9221
511.90 0.9215
512.00 0.9208
512.10 0.9202
512.20 0.9195
512.30 0.9189
512.40 0.9182
512.50 0.9176
512.60 0.917
512.70 0.9163
512.80 0.9157
512.90 0.915
513.00 0.9144
513.10 0.9138
513.20 0.9131
513.30 0.9125
513.40 0.9118
513.50 0.9112
513.60 0.9106
513.70 0.9099
513.80 0.9093
513.90 0.9086
514.00 0.908
514.10 0.9074
514.20 0.9067
514.30 0.9061
514.40 0.9055
514.50 0.9048
514.60 0.9042
514.70 0.9036
514.80 0.9029
514.90 0.9023
515.00 0.9017
515.10 0.9011
515.20 0.9004
515.30 0.8998
515.40 0.8992
515.50 0.8985
515.60 0.8979
515.70 0.8973
515.80 0.8967
515.90 0.896
516.00 0.8954
516.10 0.8948
516.20 0.8941
516.30 0.8935
516.40 0.8929
516.50 0.8923
516.60 0.8917
516.70 0.891
516.80 0.8904
516.90 0.8898
517.00 0.8892
517.10 0.8885
517.20 0.8879
517.30 0.8873
517.40 0.8867
517.50 0.8861
517.60 0.8855
517.70 0.8848
517.80 0.8842
517.90 0.8836
518.00 0.883
518.10 0.8824
518.20 0.8818
518.30 0.8811
518.40 0.8805
518.50 0.8799
518.60 0.8793
518.70 0.8787
518.80 0.8781
518.90 0.8775
519.00 0.8769
519.10 0.8762
519.20 0.8756
519.30 0.875
519.40 0.8744
519.50 0.8738
519.60 0.8732
519.70 0.8726
519.80 0.872
519.90 0.8714
520.00 0.8708
520.10 0.8702
520.20 0.8696
520.30 0.869
520.40 0.8683
520.50 0.8677
520.60 0.8671
520.70 0.8665
520.80 0.8659
520.90 0.8653
521.00 0.8647
521.10 0.8641
521.20 0.8635
521.30 0.8629
521.40 0.8623
521.50 0.8617
521.60 0.8611
521.70 0.8605
521.80 0.8599
521.90 0.8593
522.00 0.8588
522.10 0.8582
522.20 0.8576
522.30 0.857
522.40 0.8564
522.50 0.8558
522.60 0.8552
522.70 0.8546
522.80 0.854
522.90 0.8534
523.00 0.8528
523.10 0.8522
523.20 0.8516
523.30 0.851
523.40 0.8505
523.50 0.8499
523.60 0.8493
523.70 0.8487
523.80 0.8481
523.90 0.8475
524.00 0.8469
524.10 0.8464
524.20 0.8458
524.30 0.8452
524.40 0.8446
524.50 0.844
524.60 0.8434
524.70 0.8428
524.80 0.8423
524.90 0.8417
525.00 0.8411
525.10 0.8405
525.20 0.8399
525.30 0.8394
525.40 0.8388
525.50 0.8382
525.60 0.8376
525.70 0.837
525.80 0.8365
525.90 0.8359
526.00 0.8353
526.10 0.8347
526.20 0.8342
526.30 0.8336
526.40 0.833
526.50 0.8324
526.60 0.8319
526.70 0.8313
526.80 0.8307
526.90 0.8302
527.00 0.8296
527.10 0.829
527.20 0.8284
527.30 0.8279
527.40 0.8273
527.50 0.8267
527.60 0.8262
527.70 0.8256
527.80 0.825
527.90 0.8245
528.00 0.8239
528.10 0.8233
528.20 0.8228
528.30 0.8222
528.40 0.8216
528.50 0.8211
528.60 0.8205
528.70 0.8199
528.80 0.8194
528.90 0.8188
529.00 0.8182
529.10 0.8177
529.20 0.8171
529.30 0.8166
529.40 0.816
529.50 0.8154
529.60 0.8149
529.70 0.8143
529.80 0.8138
529.90 0.8132
530.00 0.8127
530.10 0.8121
530.20 0.8115
530.30 0.811
530.40 0.8104
530.50 0.8099
530.60 0.8093
530.70 0.8088
530.80 0.8082
530.90 0.8077
531.00 0.8071
531.10 0.8066
531.20 0.806
531.30 0.8055
531.40 0.8049
531.50 0.8044
531.60 0.8038
531.70 0.8033
531.80 0.8027
531.90 0.8022
532.00 0.8016
532.10 0.8011
532.20 0.8005
532.30 0.8
532.40 0.7994
532.50 0.7989
532.60 0.7983
532.70 0.7978
532.80 0.7972
532.90 0.7967
533.00 0.7962
533.10 0.7956
533.20 0.7951
533.30 0.7945
533.40 0.794
533.50 0.7934
533.60 0.7929
533.70 0.7924
533.80 0.7918
533.90 0.7913
534.00 0.7907
534.10 0.7902
534.20 0.7897
534.30 0.7891
534.40 0.7886
534.50 0.7881
534.60 0.7875
534.70 0.787
534.80 0.7865
534.90 0.7859
535.00 0.7854
535.10 0.7849
535.20 0.7843
535.30 0.7838
535.40 0.7833
535.50 0.7827
535.60 0.7822
535.70 0.7817
535.80 0.7811
535.90 0.7806
536.00 0.7801
536.10 0.7795
536.20 0.779
536.30 0.7785
536.40 0.778
536.50 0.7774
536.60 0.7769
536.70 0.7764
536.80 0.7759
536.90 0.7753
537.00 0.7748
537.10 0.7743
537.20 0.7738
537.30 0.7732
537.40 0.7727
537.50 0.7722
537.60 0.7717
537.70 0.7711
537.80 0.7706
537.90 0.7701
538.00 0.7696
538.10 0.7691
538.20 0.7685
538.30 0.768
538.40 0.7675
538.50 0.767
538.60 0.7665
538.70 0.7659
538.80 0.7654
538.90 0.7649
539.00 0.7644
539.10 0.7639
539.20 0.7634
539.30 0.7628
539.40 0.7623
539.50 0.7618
539.60 0.7613
539.70 0.7608
539.80 0.7603
539.90 0.7598
540.00 0.7592
540.10 0.7587
540.20 0.7582
540.30 0.7577
540.40 0.7572
540.50 0.7567
540.60 0.7562
540.70 0.7557
540.80 0.7552
540.90 0.7547
541.00 0.7542
541.10 0.7536
541.20 0.7531
541.30 0.7526
541.40 0.7521
541.50 0.7516
541.60 0.7511
541.70 0.7506
541.80 0.7501
541.90 0.7496
542.00 0.7491
542.10 0.7486
542.20 0.7481
542.30 0.7476
542.40 0.7471
542.50 0.7466
542.60 0.7461
542.70 0.7456
542.80 0.7451
542.90 0.7446
543.00 0.7441
543.10 0.7436
543.20 0.7431
543.30 0.7426
543.40 0.7421
543.50 0.7416
543.60 0.7411
543.70 0.7406
543.80 0.7401
543.90 0.7396
544.00 0.7391
544.10 0.7386
544.20 0.7381
544.30 0.7376
544.40 0.7371
544.50 0.7366
544.60 0.7362
544.70 0.7357
544.80 0.7352
544.90 0.7347
545.00 0.7342
545.10 0.7337
545.20 0.7332
545.30 0.7327
545.40 0.7322
545.50 0.7317
545.60 0.7312
545.70 0.7308
545.80 0.7303
545.90 0.7298
546.00 0.7293
546.10 0.7288
546.20 0.7283
546.30 0.7278
546.40 0.7274
546.50 0.7269
546.60 0.7264
546.70 0.7259
546.80 0.7254
546.90 0.7249
547.00 0.7244
547.10 0.724
547.20 0.7235
547.30 0.723
547.40 0.7225
547.50 0.722
547.60 0.7216
547.70 0.7211
547.80 0.7206
547.90 0.7201
548.00 0.7196
548.10 0.7192
548.20 0.7187
548.30 0.7182
548.40 0.7177
548.50 0.7173
548.60 0.7168
548.70 0.7163
548.80 0.7158
548.90 0.7154
549.00 0.7149
549.10 0.7144
549.20 0.7139
549.30 0.7135
549.40 0.713
549.50 0.7125
549.60 0.712
549.70 0.7116
549.80 0.7111
549.90 0.7106
550.00 0.7101
550.10 0.7097
550.20 0.7092
550.30 0.7087
550.40 0.7083
550.50 0.7078
550.60 0.7073
550.70 0.7069
550.80 0.7064
550.90 0.7059
551.00 0.7055
551.10 0.705
551.20 0.7045
551.30 0.7041
551.40 0.7036
551.50 0.7031
551.60 0.7027
551.70 0.7022
551.80 0.7017
551.90 0.7013
552.00 0.7008
552.10 0.7003
552.20 0.6999
552.30 0.6994
552.40 0.699
552.50 0.6985
552.60 0.698
552.70 0.6976
552.80 0.6971
552.90 0.6967
553.00 0.6962
553.10 0.6957
553.20 0.6953
553.30 0.6948
553.40 0.6944
553.50 0.6939
553.60 0.6935
553.70 0.693
553.80 0.6925
553.90 0.6921
554.00 0.6916
554.10 0.6912
554.20 0.6907
554.30 0.6903
554.40 0.6898
554.50 0.6894
554.60 0.6889
554.70 0.6884
554.80 0.688
554.90 0.6875
555.00 0.6871
555.10 0.6866
555.20 0.6862
555.30 0.6857
555.40 0.6853
555.50 0.6848
555.60 0.6844
555.70 0.6839
555.80 0.6835
555.90 0.683
556.00 0.6826
556.10 0.6821
556.20 0.6817
556.30 0.6812
556.40 0.6808
556.50 0.6804
556.60 0.6799
556.70 0.6795
556.80 0.679
556.90 0.6786
557.00 0.6781
557.10 0.6777
557.20 0.6772
557.30 0.6768
557.40 0.6764
557.50 0.6759
557.60 0.6755
557.70 0.675
557.80 0.6746
557.90 0.6741
558.00 0.6737
558.10 0.6733
558.20 0.6728
558.30 0.6724
558.40 0.6719
558.50 0.6715
558.60 0.6711
558.70 0.6706
558.80 0.6702
558.90 0.6698
559.00 0.6693
559.10 0.6689
559.20 0.6684
559.30 0.668
559.40 0.6676
559.50 0.6671
559.60 0.6667
559.70 0.6663
559.80 0.6658
559.90 0.6654
560.00 0.665
560.10 0.6645
560.20 0.6641
560.30 0.6637
560.40 0.6632
560.50 0.6628
560.60 0.6624
560.70 0.6619
560.80 0.6615
560.90 0.6611
561.00 0.6606
561.10 0.6602
561.20 0.6598
561.30 0.6594
561.40 0.6589
561.50 0.6585
561.60 0.6581
561.70 0.6576
561.80 0.6572
561.90 0.6568
562.00 0.6564
562.10 0.6559
562.20 0.6555
562.30 0.6551
562.40 0.6547
562.50 0.6542
562.60 0.6538
562.70 0.6534
562.80 0.653
562.90 0.6525
563.00 0.6521
563.10 0.6517
563.20 0.6513
563.30 0.6508
563.40 0.6504
563.50 0.65
563.60 0.6496
563.70 0.6492
563.80 0.6487
563.90 0.6483
564.00 0.6479
564.10 0.6475
564.20 0.6471
564.30 0.6466
564.40 0.6462
564.50 0.6458
564.60 0.6454
564.70 0.645
564.80 0.6446
564.90 0.6441
565.00 0.6437
565.10 0.6433
565.20 0.6429
565.30 0.6425
565.40 0.6421
565.50 0.6416
565.60 0.6412
565.70 0.6408
565.80 0.6404
565.90 0.64
566.00 0.6396
566.10 0.6392
566.20 0.6388
566.30 0.6383
566.40 0.6379
566.50 0.6375
566.60 0.6371
566.70 0.6367
566.80 0.6363
566.90 0.6359
567.00 0.6355
567.10 0.6351
567.20 0.6346
567.30 0.6342
567.40 0.6338
567.50 0.6334
567.60 0.633
567.70 0.6326
567.80 0.6322
567.90 0.6318
568.00 0.6314
568.10 0.631
568.20 0.6306
568.30 0.6302
568.40 0.6298
568.50 0.6294
568.60 0.629
568.70 0.6285
568.80 0.6281
568.90 0.6277
569.00 0.6273
569.10 0.6269
569.20 0.6265
569.30 0.6261
569.40 0.6257
569.50 0.6253
569.60 0.6249
569.70 0.6245
569.80 0.6241
569.90 0.6237
570.00 0.6233
570.10 0.6229
570.20 0.6225
570.30 0.6221
570.40 0.6217
570.50 0.6213
570.60 0.6209
570.70 0.6205
570.80 0.6201
570.90 0.6197
571.00 0.6193
571.10 0.6189
571.20 0.6185
571.30 0.6182
571.40 0.6178
571.50 0.6174
571.60 0.617
571.70 0.6166
571.80 0.6162
571.90 0.6158
572.00 0.6154
572.10 0.615
572.20 0.6146
572.30 0.6142
572.40 0.6138
572.50 0.6134
572.60 0.613
572.70 0.6126
572.80 0.6123
572.90 0.6119
573.00 0.6115
573.10 0.6111
573.20 0.6107
573.30 0.6103
573.40 0.6099
573.50 0.6095
573.60 0.6091
573.70 0.6088
573.80 0.6084
573.90 0.608
574.00 0.6076
574.10 0.6072
574.20 0.6068
574.30 0.6064
574.40 0.606
574.50 0.6057
574.60 0.6053
574.70 0.6049
574.80 0.6045
574.90 0.6041
575.00 0.6037
575.10 0.6033
575.20 0.603
575.30 0.6026
575.40 0.6022
575.50 0.6018
575.60 0.6014
575.70 0.6011
575.80 0.6007
575.90 0.6003
576.00 0.5999
576.10 0.5995
576.20 0.5991
576.30 0.5988
576.40 0.5984
576.50 0.598
576.60 0.5976
576.70 0.5972
576.80 0.5969
576.90 0.5965
577.00 0.5961
577.10 0.5957
577.20 0.5954
577.30 0.595
577.40 0.5946
577.50 0.5942
577.60 0.5938
577.70 0.5935
577.80 0.5931
577.90 0.5927
578.00 0.5923
578.10 0.592
578.20 0.5916
578.30 0.5912
578.40 0.5908
578.50 0.5905
578.60 0.5901
578.70 0.5897
578.80 0.5894
578.90 0.589
579.00 0.5886
579.10 0.5882
579.20 0.5879
579.30 0.5875
579.40 0.5871
579.50 0.5868
579.60 0.5864
579.70 0.586
579.80 0.5856
579.90 0.5853
580.00 0.5849
580.10 0.5845
580.20 0.5842
580.30 0.5838
580.40 0.5834
580.50 0.5831
580.60 0.5827
580.70 0.5823
580.80 0.582
580.90 0.5816
581.00 0.5812
581.10 0.5809
581.20 0.5805
581.30 0.5801
581.40 0.5798
581.50 0.5794
581.60 0.579
581.70 0.5787
581.80 0.5783
581.90 0.5779
582.00 0.5776
582.10 0.5772
582.20 0.5769
582.30 0.5765
582.40 0.5761
582.50 0.5758
582.60 0.5754
582.70 0.575
582.80 0.5747
582.90 0.5743
583.00 0.574
583.10 0.5736
583.20 0.5732
583.30 0.5729
583.40 0.5725
583.50 0.5722
583.60 0.5718
583.70 0.5714
583.80 0.5711
583.90 0.5707
584.00 0.5704
584.10 0.57
584.20 0.5697
584.30 0.5693
584.40 0.5689
584.50 0.5686
584.60 0.5682
584.70 0.5679
584.80 0.5675
584.90 0.5672
585.00 0.5668
585.10 0.5665
585.20 0.5661
585.30 0.5657
585.40 0.5654
585.50 0.565
585.60 0.5647
585.70 0.5643
585.80 0.564
585.90 0.5636
586.00 0.5633
586.10 0.5629
586.20 0.5626
586.30 0.5622
586.40 0.5619
586.50 0.5615
586.60 0.5612
586.70 0.5608
586.80 0.5605
586.90 0.5601
587.00 0.5598
587.10 0.5594
587.20 0.5591
587.30 0.5587
587.40 0.5584
587.50 0.558
587.60 0.5577
587.70 0.5573
587.80 0.557
587.90 0.5566
588.00 0.5563
588.10 0.5559
588.20 0.5556
588.30 0.5552
588.40 0.5549
588.50 0.5546
588.60 0.5542
588.70 0.5539
588.80 0.5535
588.90 0.5532
589.00 0.5528
589.10 0.5525
589.20 0.5521
589.30 0.5518
589.40 0.5515
589.50 0.5511
589.60 0.5508
589.70 0.5504
589.80 0.5501
589.90 0.5497
590.00 0.5494
590.10 0.5491
590.20 0.5487
590.30 0.5484
590.40 0.548
590.50 0.5477
590.60 0.5474
590.70 0.547
590.80 0.5467
590.90 0.5463
591.00 0.546
591.10 0.5457
591.20 0.5453
591.30 0.545
591.40 0.5447
591.50 0.5443
591.60 0.544
591.70 0.5436
591.80 0.5433
591.90 0.543
592.00 0.5426
592.10 0.5423
592.20 0.542
592.30 0.5416
592.40 0.5413
592.50 0.541
592.60 0.5406
592.70 0.5403
592.80 0.54
592.90 0.5396
593.00 0.5393
593.10 0.539
593.20 0.5386
593.30 0.5383
593.40 0.538
593.50 0.5376
593.60 0.5373
593.70 0.537
593.80 0.5366
593.90 0.5363
594.00 0.536
594.10 0.5356
594.20 0.5353
594.30 0.535
594.40 0.5346
594.50 0.5343
594.60 0.534
594.70 0.5337
594.80 0.5333
594.90 0.533
595.00 0.5327
595.10 0.5323
595.20 0.532
595.30 0.5317
595.40 0.5314
595.50 0.531
595.60 0.5307
595.70 0.5304
595.80 0.53
595.90 0.5297
596.00 0.5294
596.10 0.5291
596.20 0.5287
596.30 0.5284
596.40 0.5281
596.50 0.5278
596.60 0.5274
596.70 0.5271
596.80 0.5268
596.90 0.5265
597.00 0.5261
597.10 0.5258
597.20 0.5255
597.30 0.5252
597.40 0.5249
597.50 0.5245
597.60 0.5242
597.70 0.5239
597.80 0.5236
597.90 0.5232
598.00 0.5229
598.10 0.5226
598.20 0.5223
598.30 0.522
598.40 0.5216
598.50 0.5213
598.60 0.521
598.70 0.5207
598.80 0.5204
598.90 0.52
599.00 0.5197
599.10 0.5194
599.20 0.5191
599.30 0.5188
599.40 0.5185
599.50 0.5181
599.60 0.5178
599.70 0.5175
599.80 0.5172
599.90 0.5169
600.00 0.5166
600.10 0.5162
600.20 0.5159
600.30 0.5156
600.40 0.5153
600.50 0.515
600.60 0.5147
600.70 0.5144
600.80 0.514
600.90 0.5137
601.00 0.5134
601.10 0.5131
601.20 0.5128
601.30 0.5125
601.40 0.5122
601.50 0.5118
601.60 0.5115
601.70 0.5112
601.80 0.5109
601.90 0.5106
602.00 0.5103
602.10 0.51
602.20 0.5097
602.30 0.5094
602.40 0.509
602.50 0.5087
602.60 0.5084
602.70 0.5081
602.80 0.5078
602.90 0.5075
603.00 0.5072
603.10 0.5069
603.20 0.5066
603.30 0.5063
603.40 0.506
603.50 0.5056
603.60 0.5053
603.70 0.505
603.80 0.5047
603.90 0.5044
604.00 0.5041
604.10 0.5038
604.20 0.5035
604.30 0.5032
604.40 0.5029
604.50 0.5026
604.60 0.5023
604.70 0.502
604.80 0.5017
604.90 0.5014
605.00 0.5011
605.10 0.5007
605.20 0.5004
605.30 0.5001
605.40 0.4998
605.50 0.4995
605.60 0.4992
605.70 0.4989
605.80 0.4986
605.90 0.4983
606.00 0.498
606.10 0.4977
606.20 0.4974
606.30 0.4971
606.40 0.4968
606.50 0.4965
606.60 0.4962
606.70 0.4959
606.80 0.4956
606.90 0.4953
607.00 0.495
607.10 0.4947
607.20 0.4944
607.30 0.4941
607.40 0.4938
607.50 0.4935
607.60 0.4932
607.70 0.4929
607.80 0.4926
607.90 0.4923
608.00 0.492
608.10 0.4917
608.20 0.4914
608.30 0.4911
608.40 0.4908
608.50 0.4905
608.60 0.4902
608.70 0.4899
608.80 0.4897
608.90 0.4894
609.00 0.4891
609.10 0.4888
609.20 0.4885
609.30 0.4882
609.40 0.4879
609.50 0.4876
609.60 0.4873
609.70 0.487
609.80 0.4867
609.90 0.4864
610.00 0.4861
610.10 0.4858
610.20 0.4855
610.30 0.4852
610.40 0.485
610.50 0.4847
610.60 0.4844
610.70 0.4841
610.80 0.4838
610.90 0.4835
611.00 0.4832
611.10 0.4829
611.20 0.4826
611.30 0.4823
611.40 0.482
611.50 0.4817
611.60 0.4815
611.70 0.4812
611.80 0.4809
611.90 0.4806
612.00 0.4803
612.10 0.48
612.20 0.4797
612.30 0.4794
612.40 0.4791
612.50 0.4789
612.60 0.4786
612.70 0.4783
612.80 0.478
612.90 0.4777
613.00 0.4774
613.10 0.4771
613.20 0.4768
613.30 0.4766
613.40 0.4763
613.50 0.476
613.60 0.4757
613.70 0.4754
613.80 0.4751
613.90 0.4748
614.00 0.4746
614.10 0.4743
614.20 0.474
614.30 0.4737
614.40 0.4734
614.50 0.4731
614.60 0.4729
614.70 0.4726
614.80 0.4723
614.90 0.472
615.00 0.4717
615.10 0.4714
615.20 0.4712
615.30 0.4709
615.40 0.4706
615.50 0.4703
615.60 0.47
615.70 0.4698
615.80 0.4695
615.90 0.4692
616.00 0.4689
616.10 0.4686
616.20 0.4684
616.30 0.4681
616.40 0.4678
616.50 0.4675
616.60 0.4672
616.70 0.467
616.80 0.4667
616.90 0.4664
617.00 0.4661
617.10 0.4658
617.20 0.4656
617.30 0.4653
617.40 0.465
617.50 0.4647
617.60 0.4644
617.70 0.4642
617.80 0.4639
617.90 0.4636
618.00 0.4633
618.10 0.4631
618.20 0.4628
618.30 0.4625
618.40 0.4622
618.50 0.462
618.60 0.4617
618.70 0.4614
618.80 0.4611
618.90 0.4609
619.00 0.4606
619.10 0.4603
619.20 0.46
619.30 0.4598
619.40 0.4595
619.50 0.4592
619.60 0.4589
619.70 0.4587
619.80 0.4584
619.90 0.4581
620.00 0.4578
620.10 0.4576
620.20 0.4573
620.30 0.457
620.40 0.4568
620.50 0.4565
620.60 0.4562
620.70 0.4559
620.80 0.4557
620.90 0.4554
621.00 0.4551
621.10 0.4549
621.20 0.4546
621.30 0.4543
621.40 0.4541
621.50 0.4538
621.60 0.4535
621.70 0.4532
621.80 0.453
621.90 0.4527
622.00 0.4524
622.10 0.4522
622.20 0.4519
622.30 0.4516
622.40 0.4514
622.50 0.4511
622.60 0.4508
622.70 0.4506
622.80 0.4503
622.90 0.45
623.00 0.4498
623.10 0.4495
623.20 0.4492
623.30 0.449
623.40 0.4487
623.50 0.4484
623.60 0.4482
623.70 0.4479
623.80 0.4476
623.90 0.4474
624.00 0.4471
624.10 0.4468
624.20 0.4466
624.30 0.4463
624.40 0.446
624.50 0.4458
624.60 0.4455
624.70 0.4452
624.80 0.445
624.90 0.4447
625.00 0.4444
625.10 0.4442
625.20 0.4439
625.30 0.4437
625.40 0.4434
625.50 0.4431
625.60 0.4429
625.70 0.4426
625.80 0.4423
625.90 0.4421
626.00 0.4418
626.10 0.4416
626.20 0.4413
626.30 0.441
626.40 0.4408
626.50 0.4405
626.60 0.4402
626.70 0.44
626.80 0.4397
626.90 0.4395
627.00 0.4392
627.10 0.4389
627.20 0.4387
627.30 0.4384
627.40 0.4382
627.50 0.4379
627.60 0.4376
627.70 0.4374
627.80 0.4371
627.90 0.4369
628.00 0.4366
628.10 0.4364
628.20 0.4361
628.30 0.4358
628.40 0.4356
628.50 0.4353
628.60 0.4351
628.70 0.4348
628.80 0.4345
628.90 0.4343
629.00 0.434
629.10 0.4338
629.20 0.4335
629.30 0.4333
629.40 0.433
629.50 0.4327
629.60 0.4325
629.70 0.4322
629.80 0.432
629.90 0.4317
630.00 0.4315
630.10 0.4312
630.20 0.431
630.30 0.4307
630.40 0.4304
630.50 0.4302
630.60 0.4299
630.70 0.4297
630.80 0.4294
630.90 0.4292
631.00 0.4289
631.10 0.4287
631.20 0.4284
631.30 0.4282
631.40 0.4279
631.50 0.4276
631.60 0.4274
631.70 0.4271
631.80 0.4269
631.90 0.4266
632.00 0.4264
632.10 0.4261
632.20 0.4259
632.30 0.4256
632.40 0.4254
632.50 0.4251
632.60 0.4249
632.70 0.4246
632.80 0.4244
632.90 0.4241
633.00 0.4238
633.10 0.4236
633.20 0.4233
633.30 0.4231
633.40 0.4228
633.50 0.4226
633.60 0.4223
633.70 0.4221
633.80 0.4218
633.90 0.4216
634.00 0.4213
634.10 0.4211
634.20 0.4208
634.30 0.4206
634.40 0.4203
634.50 0.4201
634.60 0.4198
634.70 0.4196
634.80 0.4193
634.90 0.4191
635.00 0.4188
635.10 0.4186
635.20 0.4183
635.30 0.4181
635.40 0.4178
635.50 0.4176
635.60 0.4173
635.70 0.4171
635.80 0.4168
635.90 0.4166
636.00 0.4163
636.10 0.4161
636.20 0.4158
636.30 0.4156
636.40 0.4153
636.50 0.4151
636.60 0.4148
636.70 0.4146
636.80 0.4143
636.90 0.4141
637.00 0.4138
637.10 0.4136
637.20 0.4133
637.30 0.4131
637.40 0.4128
637.50 0.4126
637.60 0.4123
637.70 0.4121
637.80 0.4118
637.90 0.4116
638.00 0.4113
638.10 0.4111
638.20 0.4108
638.30 0.4106
638.40 0.4103
638.50 0.4101
638.60 0.4098
638.70 0.4096
638.80 0.4093
638.90 0.4091
639.00 0.4088
639.10 0.4086
639.20 0.4083
639.30 0.4081
639.40 0.4078
639.50 0.4076
639.60 0.4073
639.70 0.4071
639.80 0.4068
639.90 0.4066
640.00 0.4063
640.10 0.4061
640.20 0.4058
640.30 0.4056
640.40 0.4053
640.50 0.4051
640.60 0.4048
640.70 0.4046
640.80 0.4043
640.90 0.4041
641.00 0.4038
641.10 0.4035
641.20 0.4033
641.30 0.403
641.40 0.4028
641.50 0.4025
641.60 0.4023
641.70 0.402
641.80 0.4018
641.90 0.4015
642.00 0.4012
642.10 0.401
642.20 0.4007
642.30 0.4005
642.40 0.4002
642.50 0.4
642.60 0.3997
642.70 0.3994
642.80 0.3992
642.90 0.3989
643.00 0.3987
643.10 0.3984
643.20 0.3981
643.30 0.3979
643.40 0.3976
643.50 0.3973
643.60 0.3971
643.70 0.3968
643.80 0.3965
643.90 0.3963
644.00 0.396
644.10 0.3957
644.20 0.3955
644.30 0.3952
644.40 0.3949
644.50 0.3946
644.60 0.3944
644.70 0.3941
644.80 0.3938
644.90 0.3935
645.00 0.3932
645.10 0.393
645.20 0.3927
645.30 0.3924
645.40 0.3921
645.50 0.3918
645.60 0.3915
645.70 0.3912
645.80 0.391
645.90 0.3907
646.00 0.3904
646.10 0.3901
646.20 0.3898
646.30 0.3895
646.40 0.3892
646.50 0.3889
646.60 0.3885
646.70 0.3882
646.80 0.3879
646.90 0.3876
647.00 0.3873
647.10 0.387
647.20 0.3867
647.30 0.3863
647.40 0.386
647.50 0.3857
647.60 0.3853
647.70 0.385
647.80 0.3846
647.90 0.3843
648.00 0.3839
648.10 0.3836
648.20 0.3832
648.30 0.3829
648.40 0.3825
648.50 0.3821
648.60 0.3817
648.70 0.3813
648.80 0.3809
648.90 0.3805
649.00 0.3801
649.10 0.3797
649.20 0.3793
649.30 0.3789
649.40 0.3784
649.50 0.3779
649.60 0.3774
649.70 0.3769
649.80 0.3764
649.90 0.376
650.00 0.3755
650.10 0.375
650.20 0.3745
650.30 0.374
650.40 0.3734
650.50 0.3728
650.60 0.3722
650.70 0.3715
650.80 0.3709
650.90 0.3703
651.00 0.3697
651.10 0.3691
651.20 0.3685
651.30 0.3678
651.40 0.3669
651.50 0.3661
651.60 0.3653
651.70 0.3644
651.80 0.3636
651.90 0.3627
652.00 0.3619
652.10 0.361
652.20 0.3602
652.30 0.3593
652.40 0.358
652.50 0.3568
652.60 0.3556
652.70 0.3543
652.80 0.3531
652.90 0.3519
653.00 0.3506
653.10 0.3494
653.20 0.3482
653.30 0.3468
653.40 0.3449
653.50 0.343
653.60 0.3411
653.70 0.3392
653.80 0.3373
653.90 0.3355
654.00 0.3336
654.10 0.3317
654.20 0.3298
654.30 0.3278
654.40 0.3251
654.50 0.3225
654.60 0.3198
654.70 0.3172
654.80 0.3144
654.90 0.311
655.00 0.3077
655.10 0.3043
655.20 0.3009
655.30 0.2974
655.40 0.2933
655.50 0.2891
655.60 0.2843
655.70 0.2793
655.80 0.2733
655.90 0.2668
656.00 0.258
656.10 0.2485
656.20 0.2272
656.30 0.1722
656.40 0.2378
656.50 0.2518
656.60 0.2605
656.70 0.2685
656.80 0.2742
656.90 0.2796
657.00 0.2841
657.10 0.2884
657.20 0.2922
657.30 0.2958
657.40 0.2988
657.50 0.3019
657.60 0.3049
657.70 0.3079
657.80 0.3108
657.90 0.313
658.00 0.3153
658.10 0.3176
658.20 0.3198
658.30 0.3219
658.40 0.3234
658.50 0.3249
658.60 0.3264
658.70 0.3279
658.80 0.3294
658.90 0.3308
659.00 0.3323
659.10 0.3338
659.20 0.3353
659.30 0.3366
659.40 0.3374
659.50 0.3382
659.60 0.3391
659.70 0.3399
659.80 0.3407
659.90 0.3415
660.00 0.3423
660.10 0.3431
660.20 0.3439
660.30 0.3446
660.40 0.345
660.50 0.3454
660.60 0.3458
660.70 0.3463
660.80 0.3467
660.90 0.3471
661.00 0.3475
661.10 0.3479
661.20 0.3483
661.30 0.3487
661.40 0.3488
661.50 0.349
661.60 0.3492
661.70 0.3494
661.80 0.3496
661.90 0.3497
662.00 0.3499
662.10 0.3501
662.20 0.3503
662.30 0.3504
662.40 0.3505
662.50 0.3505
662.60 0.3506
662.70 0.3506
662.80 0.3507
662.90 0.3507
663.00 0.3508
663.10 0.3508
663.20 0.3509
663.30 0.3509
663.40 0.3509
663.50 0.3508
663.60 0.3508
663.70 0.3508
663.80 0.3507
663.90 0.3507
664.00 0.3507
664.10 0.3506
664.20 0.3506
664.30 0.3505
664.40 0.3505
664.50 0.3504
664.60 0.3503
664.70 0.3502
664.80 0.3501
664.90 0.35
665.00 0.35
665.10 0.3499
665.20 0.3498
665.30 0.3497
665.40 0.3496
665.50 0.3495
665.60 0.3494
665.70 0.3492
665.80 0.3491
665.90 0.349
666.00 0.3489
666.10 0.3488
666.20 0.3487
666.30 0.3486
666.40 0.3484
666.50 0.3483
666.60 0.3481
666.70 0.348
666.80 0.3479
666.90 0.3477
667.00 0.3476
667.10 0.3475
667.20 0.3473
667.30 0.3472
667.40 0.347
667.50 0.3469
667.60 0.3468
667.70 0.3466
667.80 0.3465
667.90 0.3463
668.00 0.3462
668.10 0.346
668.20 0.3459
668.30 0.3457
668.40 0.3455
668.50 0.3454
668.60 0.3452
668.70 0.3451
668.80 0.3449
668.90 0.3448
669.00 0.3446
669.10 0.3444
669.20 0.3443
669.30 0.3441
669.40 0.344
669.50 0.3438
669.60 0.3436
669.70 0.3435
669.80 0.3433
669.90 0.3431
670.00 0.343
670.10 0.3428
670.20 0.3426
670.30 0.3425
670.40 0.3423
670.50 0.3421
670.60 0.342
670.70 0.3418
670.80 0.3416
670.90 0.3415
671.00 0.3413
671.10 0.3411
671.20 0.341
671.30 0.3408
671.40 0.3406
671.50 0.3405
671.60 0.3403
671.70 0.3401
671.80 0.3399
671.90 0.3398
672.00 0.3396
672.10 0.3394
672.20 0.3393
672.30 0.3391
672.40 0.3389
672.50 0.3387
672.60 0.3386
672.70 0.3384
672.80 0.3382
672.90 0.338
673.00 0.3379
673.10 0.3377
673.20 0.3375
673.30 0.3374
673.40 0.3372
673.50 0.337
673.60 0.3368
673.70 0.3367
673.80 0.3365
673.90 0.3363
674.00 0.3361
674.10 0.336
674.20 0.3358
674.30 0.3356
674.40 0.3354
674.50 0.3353
674.60 0.3351
674.70 0.3349
674.80 0.3347
674.90 0.3346
675.00 0.3344
675.10 0.3342
675.20 0.334
675.30 0.3339
675.40 0.3337
675.50 0.3335
675.60 0.3333
675.70 0.3332
675.80 0.333
675.90 0.3328
676.00 0.3326
676.10 0.3325
676.20 0.3323
676.30 0.3321
676.40 0.3319
676.50 0.3318
676.60 0.3316
676.70 0.3314
676.80 0.3312
676.90 0.3311
677.00 0.3309
677.10 0.3307
677.20 0.3305
677.30 0.3304
677.40 0.3302
677.50 0.33
677.60 0.3298
677.70 0.3297
677.80 0.3295
677.90 0.3293
678.00 0.3291
678.10 0.329
678.20 0.3288
678.30 0.3286
678.40 0.3284
678.50 0.3283
678.60 0.3281
678.70 0.3279
678.80 0.3277
678.90 0.3276
679.00 0.3274
679.10 0.3272
679.20 0.327
679.30 0.3269
679.40 0.3267
679.50 0.3265
679.60 0.3264
679.70 0.3262
679.80 0.326
679.90 0.3258
680.00 0.3257
680.10 0.3255
680.20 0.3253
680.30 0.3251
680.40 0.325
680.50 0.3248
680.60 0.3246
680.70 0.3244
680.80 0.3243
680.90 0.3241
681.00 0.3239
681.10 0.3238
681.20 0.3236
681.30 0.3234
681.40 0.3232
681.50 0.3231
681.60 0.3229
681.70 0.3227
681.80 0.3225
681.90 0.3224
682.00 0.3222
682.10 0.322
682.20 0.3219
682.30 0.3217
682.40 0.3215
682.50 0.3213
682.60 0.3212
682.70 0.321
682.80 0.3208
682.90 0.3207
683.00 0.3205
683.10 0.3203
683.20 0.3201
683.30 0.32
683.40 0.3198
683.50 0.3196
683.60 0.3195
683.70 0.3193
683.80 0.3191
683.90 0.3189
684.00 0.3188
684.10 0.3186
684.20 0.3184
684.30 0.3183
684.40 0.3181
684.50 0.3179
684.60 0.3178
684.70 0.3176
684.80 0.3174
684.90 0.3173
685.00 0.3171
685.10 0.3169
685.20 0.3167
685.30 0.3166
685.40 0.3164
685.50 0.3162
685.60 0.3161
685.70 0.3159
685.80 0.3157
685.90 0.3156
686.00 0.3154
686.10 0.3152
686.20 0.3151
686.30 0.3149
686.40 0.3147
686.50 0.3146
686.60 0.3144
686.70 0.3142
686.80 0.314
686.90 0.3139
687.00 0.3137
687.10 0.3135
687.20 0.3134
687.30 0.3132
687.40 0.313
687.50 0.3129
687.60 0.3127
687.70 0.3125
687.80 0.3124
687.90 0.3122
688.00 0.312
688.10 0.3119
688.20 0.3117
688.30 0.3115
688.40 0.3114
688.50 0.3112
688.60 0.311
688.70 0.3109
688.80 0.3107
688.90 0.3106
689.00 0.3104
689.10 0.3102
689.20 0.3101
689.30 0.3099
689.40 0.3097
689.50 0.3096
689.60 0.3094
689.70 0.3092
689.80 0.3091
689.90 0.3089
690.00 0.3087
690.10 0.3086
690.20 0.3084
690.30 0.3082
690.40 0.3081
690.50 0.3079
690.60 0.3078
690.70 0.3076
690.80 0.3074
690.90 0.3073
691.00 0.3071
691.10 0.3069
691.20 0.3068
691.30 0.3066
691.40 0.3064
691.50 0.3063
691.60 0.3061
691.70 0.306
691.80 0.3058
691.90 0.3056
692.00 0.3055
692.10 0.3053
692.20 0.3051
692.30 0.305
692.40 0.3048
692.50 0.3047
692.60 0.3045
692.70 0.3043
692.80 0.3042
692.90 0.304
693.00 0.3039
693.10 0.3037
693.20 0.3035
693.30 0.3034
693.40 0.3032
693.50 0.303
693.60 0.3029
693.70 0.3027
693.80 0.3026
693.90 0.3024
694.00 0.3022
694.10 0.3021
694.20 0.3019
694.30 0.3018
694.40 0.3016
694.50 0.3014
694.60 0.3013
694.70 0.3011
694.80 0.301
694.90 0.3008
695.00 0.3006
695.10 0.3005
695.20 0.3003
695.30 0.3002
695.40 0.3
695.50 0.2998
695.60 0.2997
695.70 0.2995
695.80 0.2994
695.90 0.2992
696.00 0.2991
696.10 0.2989
696.20 0.2987
696.30 0.2986
696.40 0.2984
696.50 0.2983
696.60 0.2981
696.70 0.2979
696.80 0.2978
696.90 0.2976
697.00 0.2975
697.10 0.2973
697.20 0.2972
697.30 0.297
697.40 0.2968
697.50 0.2967
697.60 0.2965
697.70 0.2964
697.80 0.2962
697.90 0.2961
698.00 0.2959
698.10 0.2958
698.20 0.2956
698.30 0.2954
698.40 0.2953
698.50 0.2951
698.60 0.295
698.70 0.2948
698.80 0.2947
698.90 0.2945
699.00 0.2943
699.10 0.2942
699.20 0.294
699.30 0.2939
699.40 0.2937
699.50 0.2936
699.60 0.2934
699.70 0.2933
699.80 0.2931
699.90 0.2929
700.00 0.2928
700.10 0.2926
700.20 0.2925
700.30 0.2923
700.40 0.2922
700.50 0.292
700.60 0.2919
700.70 0.2917
700.80 0.2916
700.90 0.2914
701.00 0.2913
701.10 0.2911
701.20 0.291
701.30 0.2908
701.40 0.2906
701.50 0.2905
701.60 0.2903
701.70 0.2902
701.80 0.29
701.90 0.2899
702.00 0.2897
702.10 0.2896
702.20 0.2894
702.30 0.2893
702.40 0.2891
702.50 0.289
702.60 0.2888
702.70 0.2887
702.80 0.2885
702.90 0.2884
703.00 0.2882
703.10 0.2881
703.20 0.2879
703.30 0.2878
703.40 0.2876
703.50 0.2875
703.60 0.2873
703.70 0.2872
703.80 0.287
703.90 0.2869
704.00 0.2867
704.10 0.2865
704.20 0.2864
704.30 0.2862
704.40 0.2861
704.50 0.2859
704.60 0.2858
704.70 0.2856
704.80 0.2855
704.90 0.2853
705.00 0.2852
705.10 0.285
705.20 0.2849
705.30 0.2847
705.40 0.2846
705.50 0.2845
705.60 0.2843
705.70 0.2842
705.80 0.284
705.90 0.2839
706.00 0.2837
706.10 0.2836
706.20 0.2834
706.30 0.2833
706.40 0.2831
706.50 0.283
706.60 0.2828
706.70 0.2827
706.80 0.2825
706.90 0.2824
707.00 0.2822
707.10 0.2821
707.20 0.2819
707.30 0.2818
707.40 0.2816
707.50 0.2815
707.60 0.2813
707.70 0.2812
707.80 0.2811
707.90 0.2809
708.00 0.2808
708.10 0.2806
708.20 0.2805
708.30 0.2803
708.40 0.2802
708.50 0.28
708.60 0.2799
708.70 0.2797
708.80 0.2796
708.90 0.2794
709.00 0.2793
709.10 0.2792
709.20 0.279
709.30 0.2789
709.40 0.2787
709.50 0.2786
709.60 0.2784
709.70 0.2783
709.80 0.2781
709.90 0.278
710.00 0.2778
710.10 0.2777
710.20 0.2776
710.30 0.2774
710.40 0.2773
710.50 0.2771
710.60 0.277
710.70 0.2768
710.80 0.2767
710.90 0.2765
711.00 0.2764
711.10 0.2763
711.20 0.2761
711.30 0.276
711.40 0.2758
711.50 0.2757
711.60 0.2755
711.70 0.2754
711.80 0.2753
711.90 0.2751
712.00 0.275
712.10 0.2748
712.20 0.2747
712.30 0.2745
712.40 0.2744
712.50 0.2743
712.60 0.2741
712.70 0.274
712.80 0.2738
712.90 0.2737
713.00 0.2735
713.10 0.2734
713.20 0.2733
713.30 0.2731
713.40 0.273
713.50 0.2728
713.60 0.2727
713.70 0.2726
713.80 0.2724
713.90 0.2723
714.00 0.2721
714.10 0.272
714.20 0.2718
714.30 0.2717
714.40 0.2716
714.50 0.2714
714.60 0.2713
714.70 0.2711
714.80 0.271
714.90 0.2709
715.00 0.2707
715.10 0.2706
715.20 0.2704
715.30 0.2703
715.40 0.2702
715.50 0.27
715.60 0.2699
715.70 0.2697
715.80 0.2696
715.90 0.2695
716.00 0.2693
716.10 0.2692
716.20 0.2691
716.30 0.2689
716.40 0.2688
716.50 0.2686
716.60 0.2685
716.70 0.2684
716.80 0.2682
716.90 0.2681
717.00 0.2679
717.10 0.2678
717.20 0.2677
717.30 0.2675
717.40 0.2674
717.50 0.2673
717.60 0.2671
717.70 0.267
717.80 0.2668
717.90 0.2667
718.00 0.2666
718.10 0.2664
718.20 0.2663
718.30 0.2662
718.40 0.266
718.50 0.2659
718.60 0.2657
718.70 0.2656
718.80 0.2655
718.90 0.2653
719.00 0.2652
719.10 0.2651
719.20 0.2649
719.30 0.2648
719.40 0.2646
719.50 0.2645
719.60 0.2644
719.70 0.2642
719.80 0.2641
719.90 0.264
720.00 0.2638
720.10 0.2637
720.20 0.2636
720.30 0.2634
720.40 0.2633
720.50 0.2632
720.60 0.263
720.70 0.2629
720.80 0.2627
720.90 0.2626
721.00 0.2625
721.10 0.2623
721.20 0.2622
721.30 0.2621
721.40 0.2619
721.50 0.2618
721.60 0.2617
721.70 0.2615
721.80 0.2614
721.90 0.2613
722.00 0.2611
722.10 0.261
722.20 0.2609
722.30 0.2607
722.40 0.2606
722.50 0.2605
722.60 0.2603
722.70 0.2602
722.80 0.2601
722.90 0.2599
723.00 0.2598
723.10 0.2597
723.20 0.2595
723.30 0.2594
723.40 0.2593
723.50 0.2591
723.60 0.259
723.70 0.2589
723.80 0.2587
723.90 0.2586
724.00 0.2585
724.10 0.2583
724.20 0.2582
724.30 0.2581
724.40 0.2579
724.50 0.2578
724.60 0.2577
724.70 0.2575
724.80 0.2574
724.90 0.2573
725.00 0.2571
725.10 0.257
725.20 0.2569
725.30 0.2568
725.40 0.2566
725.50 0.2565
725.60 0.2564
725.70 0.2562
725.80 0.2561
725.90 0.256
726.00 0.2558
726.10 0.2557
726.20 0.2556
726.30 0.2555
726.40 0.2553
726.50 0.2552
726.60 0.2551
726.70 0.2549
726.80 0.2548
726.90 0.2547
727.00 0.2545
727.10 0.2544
727.20 0.2543
727.30 0.2542
727.40 0.254
727.50 0.2539
727.60 0.2538
727.70 0.2536
727.80 0.2535
727.90 0.2534
728.00 0.2532
728.10 0.2531
728.20 0.253
728.30 0.2529
728.40 0.2527
728.50 0.2526
728.60 0.2525
728.70 0.2523
728.80 0.2522
728.90 0.2521
729.00 0.252
729.10 0.2518
729.20 0.2517
729.30 0.2516
729.40 0.2514
729.50 0.2513
729.60 0.2512
729.70 0.2511
729.80 0.2509
729.90 0.2508
730.00 0.2507
730.10 0.2506
730.20 0.2504
730.30 0.2503
730.40 0.2502
730.50 0.25
730.60 0.2499
730.70 0.2498
730.80 0.2497
730.90 0.2495
731.00 0.2494
731.10 0.2493
731.20 0.2492
731.30 0.249
731.40 0.2489
731.50 0.2488
731.60 0.2487
731.70 0.2485
731.80 0.2484
731.90 0.2483
732.00 0.2482
732.10 0.248
732.20 0.2479
732.30 0.2478
732.40 0.2477
732.50 0.2475
732.60 0.2474
732.70 0.2473
732.80 0.2472
732.90 0.247
733.00 0.2469
733.10 0.2468
733.20 0.2467
733.30 0.2465
733.40 0.2464
733.50 0.2463
733.60 0.2462
733.70 0.246
733.80 0.2459
733.90 0.2458
734.00 0.2457
734.10 0.2456
734.20 0.2454
734.30 0.2453
734.40 0.2452
734.50 0.2451
734.60 0.2449
734.70 0.2448
734.80 0.2447
734.90 0.2446
735.00 0.2444
735.10 0.2443
735.20 0.2442
735.30 0.2441
735.40 0.2439
735.50 0.2438
735.60 0.2437
735.70 0.2436
735.80 0.2435
735.90 0.2433
736.00 0.2432
736.10 0.2431
736.20 0.243
736.30 0.2428
736.40 0.2427
736.50 0.2426
736.60 0.2425
736.70 0.2424
736.80 0.2422
736.90 0.2421
737.00 0.242
737.10 0.2419
737.20 0.2417
737.30 0.2416
737.40 0.2415
737.50 0.2414
737.60 0.2413
737.70 0.2411
737.80 0.241
737.90 0.2409
738.00 0.2408
738.10 0.2406
738.20 0.2405
738.30 0.2404
738.40 0.2403
738.50 0.2402
738.60 0.24
738.70 0.2399
738.80 0.2398
738.90 0.2397
739.00 0.2396
739.10 0.2394
739.20 0.2393
739.30 0.2392
739.40 0.2391
739.50 0.2389
739.60 0.2388
739.70 0.2387
739.80 0.2386
739.90 0.2385
740.00 0.2383
740.10 0.2382
740.20 0.2381
740.30 0.238
740.40 0.2379
740.50 0.2378
740.60 0.2376
740.70 0.2375
740.80 0.2374
740.90 0.2373
741.00 0.2372
741.10 0.237
741.20 0.2369
741.30 0.2368
741.40 0.2367
741.50 0.2366
741.60 0.2365
741.70 0.2363
741.80 0.2362
741.90 0.2361
742.00 0.236
742.10 0.2359
742.20 0.2358
742.30 0.2356
742.40 0.2355
742.50 0.2354
742.60 0.2353
742.70 0.2352
742.80 0.235
742.90 0.2349
743.00 0.2348
743.10 0.2347
743.20 0.2346
743.30 0.2345
743.40 0.2343
743.50 0.2342
743.60 0.2341
743.70 0.234
743.80 0.2339
743.90 0.2338
744.00 0.2336
744.10 0.2335
744.20 0.2334
744.30 0.2333
744.40 0.2332
744.50 0.2331
744.60 0.2329
744.70 0.2328
744.80 0.2327
744.90 0.2326
745.00 0.2325
745.10 0.2324
745.20 0.2323
745.30 0.2321
745.40 0.232
745.50 0.2319
745.60 0.2318
745.70 0.2317
745.80 0.2316
745.90 0.2314
746.00 0.2313
746.10 0.2312
746.20 0.2311
746.30 0.231
746.40 0.2309
746.50 0.2308
746.60 0.2306
746.70 0.2305
746.80 0.2304
746.90 0.2303
747.00 0.2302
747.10 0.2301
747.20 0.23
747.30 0.2298
747.40 0.2297
747.50 0.2296
747.60 0.2295
747.70 0.2294
747.80 0.2293
747.90 0.2291
748.00 0.229
748.10 0.2289
748.20 0.2288
748.30 0.2287
748.40 0.2286
748.50 0.2285
748.60 0.2284
748.70 0.2282
748.80 0.2281
748.90 0.228
749.00 0.2279
749.10 0.2278
749.20 0.2277
749.30 0.2276
749.40 0.2274
749.50 0.2273
749.60 0.2272
749.70 0.2271
749.80 0.227
749.90 0.2269
750.00 0.2268
750.10 0.2267
750.20 0.2265
750.30 0.2264
750.40 0.2263
750.50 0.2262
750.60 0.2261
750.70 0.226
750.80 0.2259
750.90 0.2258
751.00 0.2257
751.10 0.2255
751.20 0.2254
751.30 0.2253
751.40 0.2252
751.50 0.2251
751.60 0.225
751.70 0.2249
751.80 0.2248
751.90 0.2247
752.00 0.2245
752.10 0.2244
752.20 0.2243
752.30 0.2242
752.40 0.2241
752.50 0.224
752.60 0.2239
752.70 0.2238
752.80 0.2237
752.90 0.2236
753.00 0.2234
753.10 0.2233
753.20 0.2232
753.30 0.2231
753.40 0.223
753.50 0.2229
753.60 0.2228
753.70 0.2227
753.80 0.2226
753.90 0.2225
754.00 0.2223
754.10 0.2222
754.20 0.2221
754.30 0.222
754.40 0.2219
754.50 0.2218
754.60 0.2217
754.70 0.2216
754.80 0.2215
754.90 0.2214
755.00 0.2213
755.10 0.2211
755.20 0.221
755.30 0.2209
755.40 0.2208
755.50 0.2207
755.60 0.2206
755.70 0.2205
755.80 0.2204
755.90 0.2203
756.00 0.2202
756.10 0.2201
756.20 0.22
756.30 0.2198
756.40 0.2197
756.50 0.2196
756.60 0.2195
756.70 0.2194
756.80 0.2193
756.90 0.2192
757.00 0.2191
757.10 0.219
757.20 0.2189
757.30 0.2188
757.40 0.2187
757.50 0.2185
757.60 0.2184
757.70 0.2183
757.80 0.2182
757.90 0.2181
758.00 0.218
758.10 0.2179
758.20 0.2178
758.30 0.2177
758.40 0.2176
758.50 0.2175
758.60 0.2174
758.70 0.2173
758.80 0.2172
758.90 0.217
759.00 0.2169
759.10 0.2168
759.20 0.2167
759.30 0.2166
759.40 0.2165
759.50 0.2164
759.60 0.2163
759.70 0.2162
759.80 0.2161
759.90 0.216
760.00 0.2159
760.10 0.2158
760.20 0.2157
760.30 0.2156
760.40 0.2155
760.50 0.2154
760.60 0.2152
760.70 0.2151
760.80 0.215
760.90 0.2149
761.00 0.2148
761.10 0.2147
761.20 0.2146
761.30 0.2145
761.40 0.2144
761.50 0.2143
761.60 0.2142
761.70 0.2141
761.80 0.214
761.90 0.2139
762.00 0.2138
762.10 0.2137
762.20 0.2136
762.30 0.2135
762.40 0.2134
762.50 0.2133
762.60 0.2132
762.70 0.2131
762.80 0.213
762.90 0.2129
763.00 0.2128
763.10 0.2127
763.20 0.2125
763.30 0.2124
763.40 0.2123
763.50 0.2122
763.60 0.2121
763.70 0.212
763.80 0.2119
763.90 0.2118
764.00 0.2117
764.10 0.2116
764.20 0.2115
764.30 0.2114
764.40 0.2113
764.50 0.2112
764.60 0.2111
764.70 0.211
764.80 0.2109
764.90 0.2108
765.00 0.2107
765.10 0.2106
765.20 0.2105
765.30 0.2104
765.40 0.2103
765.50 0.2102
765.60 0.2101
765.70 0.21
765.80 0.2099
765.90 0.2098
766.00 0.2097
766.10 0.2096
766.20 0.2095
766.30 0.2094
766.40 0.2093
766.50 0.2092
766.60 0.2091
766.70 0.209
766.80 0.2089
766.90 0.2088
767.00 0.2087
767.10 0.2086
767.20 0.2085
767.30 0.2084
767.40 0.2083
767.50 0.2082
767.60 0.2081
767.70 0.2079
767.80 0.2078
767.90 0.2077
768.00 0.2076
768.10 0.2075
768.20 0.2074
768.30 0.2073
768.40 0.2072
768.50 0.2071
768.60 0.207
768.70 0.2069
768.80 0.2068
768.90 0.2067
769.00 0.2066
769.10 0.2065
769.20 0.2064
769.30 0.2063
769.40 0.2062
769.50 0.2061
769.60 0.206
769.70 0.2059
769.80 0.2058
769.90 0.2057
770.00 0.2056
770.10 0.2055
770.20 0.2054
770.30 0.2053
770.40 0.2052
770.50 0.2051
770.60 0.205
770.70 0.2049
770.80 0.2048
770.90 0.2048
771.00 0.2047
771.10 0.2046
771.20 0.2045
771.30 0.2044
771.40 0.2043
771.50 0.2042
771.60 0.2041
771.70 0.204
771.80 0.2039
771.90 0.2038
772.00 0.2037
772.10 0.2036
772.20 0.2035
772.30 0.2034
772.40 0.2033
772.50 0.2032
772.60 0.2031
772.70 0.203
772.80 0.2029
772.90 0.2028
773.00 0.2027
773.10 0.2026
773.20 0.2025
773.30 0.2024
773.40 0.2023
773.50 0.2022
773.60 0.2021
773.70 0.202
773.80 0.2019
773.90 0.2018
774.00 0.2017
774.10 0.2016
774.20 0.2015
774.30 0.2014
774.40 0.2013
774.50 0.2012
774.60 0.2011
774.70 0.2011
774.80 0.201
774.90 0.2009
775.00 0.2008
775.10 0.2007
775.20 0.2006
775.30 0.2005
775.40 0.2004
775.50 0.2003
775.60 0.2002
775.70 0.2001
775.80 0.2
775.90 0.1999
776.00 0.1998
776.10 0.1997
776.20 0.1996
776.30 0.1995
776.40 0.1994
776.50 0.1993
776.60 0.1992
776.70 0.1991
776.80 0.199
776.90 0.1989
777.00 0.1988
777.10 0.1987
777.20 0.1987
777.30 0.1986
777.40 0.1985
777.50 0.1984
777.60 0.1983
777.70 0.1982
777.80 0.1981
777.90 0.198
778.00 0.1979
778.10 0.1978
778.20 0.1977
778.30 0.1976
778.40 0.1975
778.50 0.1974
778.60 0.1973
778.70 0.1972
778.80 0.1971
778.90 0.197
779.00 0.1969
779.10 0.1968
779.20 0.1968
779.30 0.1967
779.40 0.1966
779.50 0.1965
779.60 0.1964
779.70 0.1963
779.80 0.1962
779.90 0.1961
780.00 0.196
780.10 0.1959
780.20 0.1958
780.30 0.1957
780.40 0.1956
780.50 0.1955
780.60 0.1954
780.70 0.1953
780.80 0.1953
780.90 0.1952
781.00 0.1951
781.10 0.195
781.20 0.1949
781.30 0.1948
781.40 0.1947
781.50 0.1946
781.60 0.1945
781.70 0.1944
781.80 0.1943
781.90 0.1942
782.00 0.1941
782.10 0.1941
782.20 0.194
782.30 0.1939
782.40 0.1938
782.50 0.1937
782.60 0.1936
782.70 0.1935
782.80 0.1934
782.90 0.1933
783.00 0.1932
783.10 0.1931
783.20 0.193
783.30 0.193
783.40 0.1929
783.50 0.1928
783.60 0.1927
783.70 0.1926
783.80 0.1925
783.90 0.1924
784.00 0.1923
784.10 0.1922
784.20 0.1921
784.30 0.192
784.40 0.192
784.50 0.1919
784.60 0.1918
784.70 0.1917
784.80 0.1916
784.90 0.1915
785.00 0.1914
785.10 0.1913
785.20 0.1912
785.30 0.1911
785.40 0.191
785.50 0.191
785.60 0.1909
785.70 0.1908
785.80 0.1907
785.90 0.1906
786.00 0.1905
786.10 0.1904
786.20 0.1903
786.30 0.1902
786.40 0.1901
786.50 0.1901
786.60 0.19
786.70 0.1899
786.80 0.1898
786.90 0.1897
787.00 0.1896
787.10 0.1895
787.20 0.1894
787.30 0.1893
787.40 0.1892
787.50 0.1892
787.60 0.1891
787.70 0.189
787.80 0.1889
787.90 0.1888
788.00 0.1887
788.10 0.1886
788.20 0.1885
788.30 0.1884
788.40 0.1883
788.50 0.1883
788.60 0.1882
788.70 0.1881
788.80 0.188
788.90 0.1879
789.00 0.1878
789.10 0.1877
789.20 0.1876
789.30 0.1875
789.40 0.1875
789.50 0.1874
789.60 0.1873
789.70 0.1872
789.80 0.1871
789.90 0.187
790.00 0.1869
790.10 0.1868
790.20 0.1867
790.30 0.1867
790.40 0.1866
790.50 0.1865
790.60 0.1864
790.70 0.1863
790.80 0.1862
790.90 0.1861
791.00 0.186
791.10 0.186
791.20 0.1859
791.30 0.1858
791.40 0.1857
791.50 0.1856
791.60 0.1855
791.70 0.1854
791.80 0.1854
791.90 0.1853
792.00 0.1852
792.10 0.1851
792.20 0.185
792.30 0.1849
792.40 0.1848
792.50 0.1847
792.60 0.1847
792.70 0.1846
792.80 0.1845
792.90 0.1844
793.00 0.1843
793.10 0.1842
793.20 0.1841
793.30 0.1841
793.40 0.184
793.50 0.1839
793.60 0.1838
793.70 0.1837
793.80 0.1836
793.90 0.1835
794.00 0.1835
794.10 0.1834
794.20 0.1833
794.30 0.1832
794.40 0.1831
794.50 0.183
794.60 0.1829
794.70 0.1829
794.80 0.1828
794.90 0.1827
795.00 0.1826
795.10 0.1825
795.20 0.1824
795.30 0.1823
795.40 0.1823
795.50 0.1822
795.60 0.1821
795.70 0.182
795.80 0.1819
795.90 0.1818
796.00 0.1817
796.10 0.1817
796.20 0.1816
796.30 0.1815
796.40 0.1814
796.50 0.1813
796.60 0.1812
796.70 0.1811
796.80 0.1811
796.90 0.181
797.00 0.1809
797.10 0.1808
797.20 0.1807
797.30 0.1806
797.40 0.1806
797.50 0.1805
797.60 0.1804
797.70 0.1803
797.80 0.1802
797.90 0.1801
798.00 0.18
798.10 0.18
798.20 0.1799
798.30 0.1798
798.40 0.1797
798.50 0.1796
798.60 0.1795
798.70 0.1795
798.80 0.1794
798.90 0.1793
799.00 0.1792
799.10 0.1791
799.20 0.179
799.30 0.1789
799.40 0.1789
799.50 0.1788
799.60 0.1787
799.70 0.1786
799.80 0.1785
799.90 0.1784
800.00 0.1784
800.10 0.1783
800.20 0.1782
800.30 0.1781
800.40 0.178
800.50 0.178
800.60 0.1779
800.70 0.1778
800.80 0.1777
800.90 0.1776
801.00 0.1775
801.10 0.1775
801.20 0.1774
801.30 0.1773
801.40 0.1772
801.50 0.1771
801.60 0.177
801.70 0.177
801.80 0.1769
801.90 0.1768
802.00 0.1767
802.10 0.1766
802.20 0.1766
802.30 0.1765
802.40 0.1764
802.50 0.1763
802.60 0.1762
802.70 0.1761
802.80 0.1761
802.90 0.176
803.00 0.1759
803.10 0.1758
803.20 0.1757
803.30 0.1757
803.40 0.1756
803.50 0.1755
803.60 0.1754
803.70 0.1753
803.80 0.1753
803.90 0.1752
804.00 0.1751
804.10 0.175
804.20 0.1749
804.30 0.1748
804.40 0.1748
804.50 0.1747
804.60 0.1746
804.70 0.1745
804.80 0.1744
804.90 0.1744
805.00 0.1743
805.10 0.1742
805.20 0.1741
805.30 0.174
805.40 0.174
805.50 0.1739
805.60 0.1738
805.70 0.1737
805.80 0.1736
805.90 0.1736
806.00 0.1735
806.10 0.1734
806.20 0.1733
806.30 0.1732
806.40 0.1732
806.50 0.1731
806.60 0.173
806.70 0.1729
806.80 0.1728
806.90 0.1728
807.00 0.1727
807.10 0.1726
807.20 0.1725
807.30 0.1724
807.40 0.1724
807.50 0.1723
807.60 0.1722
807.70 0.1721
807.80 0.172
807.90 0.172
808.00 0.1719
808.10 0.1718
808.20 0.1717
808.30 0.1716
808.40 0.1716
808.50 0.1715
808.60 0.1714
808.70 0.1713
808.80 0.1712
808.90 0.1712
809.00 0.1711
809.10 0.171
809.20 0.1709
809.30 0.1708
809.40 0.1708
809.50 0.1707
809.60 0.1706
809.70 0.1705
809.80 0.1704
809.90 0.1704
810.00 0.1703
810.10 0.1702
810.20 0.1701
810.30 0.1701
810.40 0.17
810.50 0.1699
810.60 0.1698
810.70 0.1697
810.80 0.1697
810.90 0.1696
811.00 0.1695
811.10 0.1694
811.20 0.1694
811.30 0.1693
811.40 0.1692
811.50 0.1691
811.60 0.169
811.70 0.169
811.80 0.1689
811.90 0.1688
812.00 0.1687
812.10 0.1687
812.20 0.1686
812.30 0.1685
812.40 0.1684
812.50 0.1684
812.60 0.1683
812.70 0.1682
812.80 0.1681
812.90 0.168
813.00 0.168
813.10 0.1679
813.20 0.1678
813.30 0.1677
813.40 0.1677
813.50 0.1676
813.60 0.1675
813.70 0.1674
813.80 0.1674
813.90 0.1673
814.00 0.1672
814.10 0.1671
814.20 0.1671
814.30 0.167
814.40 0.1669
814.50 0.1668
814.60 0.1667
814.70 0.1667
814.80 0.1666
814.90 0.1665
815.00 0.1664
815.10 0.1664
815.20 0.1663
815.30 0.1662
815.40 0.1661
815.50 0.1661
815.60 0.166
815.70 0.1659
815.80 0.1658
815.90 0.1658
816.00 0.1657
816.10 0.1656
816.20 0.1655
816.30 0.1655
816.40 0.1654
816.50 0.1653
816.60 0.1652
816.70 0.1652
816.80 0.1651
816.90 0.165
817.00 0.1649
817.10 0.1648
817.20 0.1648
817.30 0.1647
817.40 0.1646
817.50 0.1645
817.60 0.1645
817.70 0.1644
817.80 0.1643
817.90 0.1642
818.00 0.1642
818.10 0.1641
818.20 0.164
818.30 0.1639
818.40 0.1639
818.50 0.1638
818.60 0.1637
818.70 0.1636
818.80 0.1636
818.90 0.1635
819.00 0.1634
819.10 0.1633
819.20 0.1633
819.30 0.1632
819.40 0.1631
819.50 0.163
819.60 0.163
819.70 0.1629
819.80 0.1628
819.90 0.1627
820.00 0.1627
820.10 0.1626
820.20 0.1625
820.30 0.1625
820.40 0.1624
820.50 0.1623
820.60 0.1622
820.70 0.1622
820.80 0.1621
820.90 0.162
821.00 0.1619
821.10 0.1619
821.20 0.1618
821.30 0.1617
821.40 0.1616
821.50 0.1616
821.60 0.1615
821.70 0.1614
821.80 0.1613
821.90 0.1613
822.00 0.1612
822.10 0.1611
822.20 0.1611
822.30 0.161
822.40 0.1609
822.50 0.1608
822.60 0.1608
822.70 0.1607
822.80 0.1606
822.90 0.1605
823.00 0.1605
823.10 0.1604
823.20 0.1603
823.30 0.1603
823.40 0.1602
823.50 0.1601
823.60 0.16
823.70 0.16
823.80 0.1599
823.90 0.1598
824.00 0.1597
824.10 0.1597
824.20 0.1596
824.30 0.1595
824.40 0.1595
824.50 0.1594
824.60 0.1593
824.70 0.1592
824.80 0.1592
824.90 0.1591
825.00 0.159
825.10 0.159
825.20 0.1589
825.30 0.1588
825.40 0.1587
825.50 0.1587
825.60 0.1586
825.70 0.1585
825.80 0.1584
825.90 0.1584
826.00 0.1583
826.10 0.1582
826.20 0.1582
826.30 0.1581
826.40 0.158
826.50 0.1579
826.60 0.1579
826.70 0.1578
826.80 0.1577
826.90 0.1577
827.00 0.1576
827.10 0.1575
827.20 0.1574
827.30 0.1574
827.40 0.1573
827.50 0.1572
827.60 0.1572
827.70 0.1571
827.80 0.157
827.90 0.1569
828.00 0.1569
828.10 0.1568
828.20 0.1567
828.30 0.1567
828.40 0.1566
828.50 0.1565
828.60 0.1564
828.70 0.1564
828.80 0.1563
828.90 0.1562
829.00 0.1562
829.10 0.1561
829.20 0.156
829.30 0.156
829.40 0.1559
829.50 0.1558
829.60 0.1557
829.70 0.1557
829.80 0.1556
829.90 0.1555
830.00 0.1555
830.10 0.1554
830.20 0.1553
830.30 0.1552
830.40 0.1552
830.50 0.1551
830.60 0.155
830.70 0.155
830.80 0.1549
830.90 0.1548
831.00 0.1548
831.10 0.1547
831.20 0.1546
831.30 0.1545
831.40 0.1545
831.50 0.1544
831.60 0.1543
831.70 0.1543
831.80 0.1542
831.90 0.1541
832.00 0.154
832.10 0.154
832.20 0.1539
832.30 0.1538
832.40 0.1538
832.50 0.1537
832.60 0.1536
832.70 0.1535
832.80 0.1535
832.90 0.1534
833.00 0.1533
833.10 0.1533
833.20 0.1532
833.30 0.1531
833.40 0.1531
833.50 0.153
833.60 0.1529
833.70 0.1528
833.80 0.1528
833.90 0.1527
834.00 0.1526
834.10 0.1526
834.20 0.1525
834.30 0.1524
834.40 0.1523
834.50 0.1523
834.60 0.1522
834.70 0.1521
834.80 0.1521
834.90 0.152
835.00 0.1519
835.10 0.1519
835.20 0.1518
835.30 0.1517
835.40 0.1516
835.50 0.1516
835.60 0.1515
835.70 0.1514
835.80 0.1514
835.90 0.1513
836.00 0.1512
836.10 0.1511
836.20 0.1511
836.30 0.151
836.40 0.1509
836.50 0.1509
836.60 0.1508
836.70 0.1507
836.80 0.1507
836.90 0.1506
837.00 0.1505
837.10 0.1505
837.20 0.1504
837.30 0.1503
837.40 0.1502
837.50 0.1502
837.60 0.1501
837.70 0.15
837.80 0.15
837.90 0.1499
838.00 0.1498
838.10 0.1498
838.20 0.1497
838.30 0.1496
838.40 0.1496
838.50 0.1495
838.60 0.1494
838.70 0.1494
838.80 0.1493
838.90 0.1492
839.00 0.1492
839.10 0.1491
839.20 0.149
839.30 0.149
839.40 0.1489
839.50 0.1488
839.60 0.1488
839.70 0.1487
839.80 0.1486
839.90 0.1486
840.00 0.1485
840.10 0.1484
840.20 0.1484
840.30 0.1483
840.40 0.1482
840.50 0.1481
840.60 0.1481
840.70 0.148
840.80 0.1479
840.90 0.1479
841.00 0.1478
841.10 0.1477
841.20 0.1477
841.30 0.1476
841.40 0.1475
841.50 0.1475
841.60 0.1474
841.70 0.1473
841.80 0.1473
841.90 0.1472
842.00 0.1471
842.10 0.1471
842.20 0.147
842.30 0.1469
842.40 0.1469
842.50 0.1468
842.60 0.1467
842.70 0.1467
842.80 0.1466
842.90 0.1465
843.00 0.1465
843.10 0.1464
843.20 0.1463
843.30 0.1463
843.40 0.1462
843.50 0.1462
843.60 0.1461
843.70 0.146
843.80 0.146
843.90 0.1459
844.00 0.1458
844.10 0.1458
844.20 0.1457
844.30 0.1456
844.40 0.1456
844.50 0.1455
844.60 0.1454
844.70 0.1454
844.80 0.1453
844.90 0.1452
845.00 0.1452
845.10 0.1451
845.20 0.145
845.30 0.145
845.40 0.1449
845.50 0.1448
845.60 0.1448
845.70 0.1447
845.80 0.1446
845.90 0.1446
846.00 0.1445
846.10 0.1444
846.20 0.1444
846.30 0.1443
846.40 0.1443
846.50 0.1442
846.60 0.1441
846.70 0.1441
846.80 0.144
846.90 0.1439
847.00 0.1439
847.10 0.1438
847.20 0.1437
847.30 0.1437
847.40 0.1436
847.50 0.1435
847.60 0.1435
847.70 0.1434
847.80 0.1434
847.90 0.1433
848.00 0.1432
848.10 0.1432
848.20 0.1431
848.30 0.143
848.40 0.143
848.50 0.1429
848.60 0.1428
848.70 0.1428
848.80 0.1427
848.90 0.1427
849.00 0.1426
849.10 0.1425
849.20 0.1425
849.30 0.1424
849.40 0.1423
849.50 0.1423
849.60 0.1422
849.70 0.1422
849.80 0.1421
849.90 0.142
850.00 0.142
850.10 0.1419
850.20 0.1418
850.30 0.1418
850.40 0.1417
850.50 0.1417
850.60 0.1416
850.70 0.1415
850.80 0.1415
850.90 0.1414
851.00 0.1413
851.10 0.1413
851.20 0.1412
851.30 0.1411
851.40 0.1411
851.50 0.141
851.60 0.141
851.70 0.1409
851.80 0.1408
851.90 0.1408
852.00 0.1407
852.10 0.1406
852.20 0.1406
852.30 0.1405
852.40 0.1405
852.50 0.1404
852.60 0.1403
852.70 0.1403
852.80 0.1402
852.90 0.1402
853.00 0.1401
853.10 0.14
853.20 0.14
853.30 0.1399
853.40 0.1399
853.50 0.1398
853.60 0.1397
853.70 0.1397
853.80 0.1396
853.90 0.1396
854.00 0.1395
854.10 0.1394
854.20 0.1394
854.30 0.1393
854.40 0.1393
854.50 0.1392
854.60 0.1391
854.70 0.1391
854.80 0.139
854.90 0.139
855.00 0.1389
855.10 0.1388
855.20 0.1388
855.30 0.1387
855.40 0.1387
855.50 0.1386
855.60 0.1385
855.70 0.1385
855.80 0.1384
855.90 0.1384
856.00 0.1383
856.10 0.1382
856.20 0.1382
856.30 0.1381
856.40 0.1381
856.50 0.138
856.60 0.1379
856.70 0.1379
856.80 0.1378
856.90 0.1378
857.00 0.1377
857.10 0.1376
857.20 0.1376
857.30 0.1375
857.40 0.1375
857.50 0.1374
857.60 0.1373
857.70 0.1373
857.80 0.1372
857.90 0.1372
858.00 0.1371
858.10 0.1371
858.20 0.137
858.30 0.1369
858.40 0.1369
858.50 0.1368
858.60 0.1368
858.70 0.1367
858.80 0.1367
858.90 0.1366
859.00 0.1365
859.10 0.1365
859.20 0.1364
859.30 0.1364
859.40 0.1363
859.50 0.1362
859.60 0.1362
859.70 0.1361
859.80 0.1361
859.90 0.136
860.00 0.136
860.10 0.1359
860.20 0.1358
860.30 0.1358
860.40 0.1357
860.50 0.1357
860.60 0.1356
860.70 0.1356
860.80 0.1355
860.90 0.1354
861.00 0.1354
861.10 0.1353
861.20 0.1353
861.30 0.1352
861.40 0.1352
861.50 0.1351
861.60 0.135
861.70 0.135
861.80 0.1349
861.90 0.1349
862.00 0.1348
862.10 0.1348
862.20 0.1347
862.30 0.1346
862.40 0.1346
862.50 0.1345
862.60 0.1345
862.70 0.1344
862.80 0.1344
862.90 0.1343
863.00 0.1342
863.10 0.1342
863.20 0.1341
863.30 0.1341
863.40 0.134
863.50 0.134
863.60 0.1339
863.70 0.1338
863.80 0.1338
863.90 0.1337
864.00 0.1337
864.10 0.1336
864.20 0.1336
864.30 0.1335
864.40 0.1334
864.50 0.1334
864.60 0.1333
864.70 0.1333
864.80 0.1332
864.90 0.1332
865.00 0.1331
865.10 0.133
865.20 0.133
865.30 0.1329
865.40 0.1329
865.50 0.1328
865.60 0.1328
865.70 0.1327
865.80 0.1326
865.90 0.1326
866.00 0.1325
866.10 0.1325
866.20 0.1324
866.30 0.1324
866.40 0.1323
866.50 0.1322
866.60 0.1322
866.70 0.1321
866.80 0.1321
866.90 0.132
867.00 0.132
867.10 0.1319
867.20 0.1319
867.30 0.1318
867.40 0.1317
867.50 0.1317
867.60 0.1316
867.70 0.1316
867.80 0.1315
867.90 0.1315
868.00 0.1314
868.10 0.1314
868.20 0.1313
868.30 0.1313
868.40 0.1312
868.50 0.1312
868.60 0.1311
868.70 0.1311
868.80 0.131
868.90 0.131
869.00 0.1309
869.10 0.1309
869.20 0.1308
869.30 0.1307
869.40 0.1307
869.50 0.1306
869.60 0.1306
869.70 0.1305
869.80 0.1305
869.90 0.1304
870.00 0.1304
870.10 0.1303
870.20 0.1303
870.30 0.1302
870.40 0.1302
870.50 0.1301
870.60 0.1301
870.70 0.13
870.80 0.13
870.90 0.1299
871.00 0.1299
871.10 0.1298
871.20 0.1298
871.30 0.1297
871.40 0.1297
871.50 0.1296
871.60 0.1295
871.70 0.1295
871.80 0.1294
871.90 0.1294
872.00 0.1293
872.10 0.1293
872.20 0.1292
872.30 0.1292
872.40 0.1291
872.50 0.1291
872.60 0.129
872.70 0.129
872.80 0.1289
872.90 0.1289
873.00 0.1288
873.10 0.1288
873.20 0.1287
873.30 0.1287
873.40 0.1286
873.50 0.1285
873.60 0.1285
873.70 0.1284
873.80 0.1284
873.90 0.1283
874.00 0.1283
874.10 0.1282
874.20 0.1282
874.30 0.1281
874.40 0.1281
874.50 0.128
874.60 0.128
874.70 0.1279
874.80 0.1279
874.90 0.1278
875.00 0.1278
875.10 0.1277
875.20 0.1277
875.30 0.1276
875.40 0.1276
875.50 0.1275
875.60 0.1274
875.70 0.1274
875.80 0.1273
875.90 0.1273
876.00 0.1272
876.10 0.1272
876.20 0.1271
876.30 0.1271
876.40 0.127
876.50 0.127
876.60 0.1269
876.70 0.1269
876.80 0.1268
876.90 0.1268
877.00 0.1267
877.10 0.1267
877.20 0.1266
877.30 0.1266
877.40 0.1265
877.50 0.1265
877.60 0.1264
877.70 0.1264
877.80 0.1263
877.90 0.1263
878.00 0.1262
878.10 0.1262
878.20 0.1261
878.30 0.1261
878.40 0.126
878.50 0.126
878.60 0.1259
878.70 0.1259
878.80 0.1258
878.90 0.1258
879.00 0.1257
879.10 0.1257
879.20 0.1256
879.30 0.1256
879.40 0.1255
879.50 0.1255
879.60 0.1254
879.70 0.1254
879.80 0.1253
879.90 0.1253
880.00 0.1252
880.10 0.1252
880.20 0.1251
880.30 0.1251
880.40 0.125
880.50 0.125
880.60 0.1249
880.70 0.1249
880.80 0.1248
880.90 0.1248
881.00 0.1247
881.10 0.1247
881.20 0.1246
881.30 0.1246
881.40 0.1245
881.50 0.1245
881.60 0.1244
881.70 0.1244
881.80 0.1243
881.90 0.1243
882.00 0.1242
882.10 0.1242
882.20 0.1241
882.30 0.124
882.40 0.124
882.50 0.1239
882.60 0.1238
882.70 0.1238
882.80 0.1237
882.90 0.1237
883.00 0.1236
883.10 0.1235
883.20 0.1235
883.30 0.1234
883.40 0.1233
883.50 0.1233
883.60 0.1232
883.70 0.1231
883.80 0.1231
883.90 0.123
884.00 0.123
884.10 0.1229
884.20 0.1228
884.30 0.1228
884.40 0.1227
884.50 0.1226
884.60 0.1226
884.70 0.1225
884.80 0.1224
884.90 0.1224
885.00 0.1223
885.10 0.1223
885.20 0.1222
885.30 0.1221
885.40 0.1221
885.50 0.122
885.60 0.1219
885.70 0.1219
885.80 0.1218
885.90 0.1218
886.00 0.1217
886.10 0.1216
886.20 0.1216
886.30 0.1215
886.40 0.1214
886.50 0.1214
886.60 0.1213
886.70 0.1213
886.80 0.1212
886.90 0.1211
887.00 0.1211
887.10 0.121
887.20 0.121
887.30 0.121
887.40 0.121
887.50 0.1209
887.60 0.1209
887.70 0.1209
887.80 0.1208
887.90 0.1208
888.00 0.1208
888.10 0.1208
888.20 0.1207
888.30 0.1207
888.40 0.1207
888.50 0.1207
888.60 0.1206
888.70 0.1206
888.80 0.1206
888.90 0.1206
889.00 0.1205
889.10 0.1205
889.20 0.1205
889.30 0.1204
889.40 0.1204
889.50 0.1204
889.60 0.1204
889.70 0.1203
889.80 0.1203
889.90 0.1203
890.00 0.1203
890.10 0.1202
890.20 0.1202
890.30 0.1202
890.40 0.1202
890.50 0.1201
890.60 0.1201
890.70 0.1201
890.80 0.1201
890.90 0.12
891.00 0.12
891.10 0.12
891.20 0.1199
891.30 0.1199
891.40 0.1199
891.50 0.1199
891.60 0.1198
891.70 0.1198
891.80 0.1198
891.90 0.1198
892.00 0.1197
892.10 0.1197
892.20 0.1196
892.30 0.1195
892.40 0.1195
892.50 0.1194
892.60 0.1194
892.70 0.1193
892.80 0.1192
892.90 0.1192
893.00 0.1191
893.10 0.119
893.20 0.119
893.30 0.1189
893.40 0.1188
893.50 0.1188
893.60 0.1187
893.70 0.1187
893.80 0.1186
893.90 0.1185
894.00 0.1185
894.10 0.1184
894.20 0.1183
894.30 0.1183
894.40 0.1182
894.50 0.1182
894.60 0.1181
894.70 0.118
894.80 0.118
894.90 0.1179
895.00 0.1178
895.10 0.1178
895.20 0.1177
895.30 0.1177
895.40 0.1176
895.50 0.1175
895.60 0.1175
895.70 0.1174
895.80 0.1173
895.90 0.1173
896.00 0.1172
896.10 0.1172
896.20 0.1171
896.30 0.117
896.40 0.117
896.50 0.1169
896.60 0.1168
896.70 0.1168
896.80 0.1167
896.90 0.1167
897.00 0.1166
897.10 0.1165
897.20 0.1164
897.30 0.1163
897.40 0.1162
897.50 0.1161
897.60 0.1161
897.70 0.116
897.80 0.1159
897.90 0.1158
898.00 0.1157
898.10 0.1156
898.20 0.1155
898.30 0.1154
898.40 0.1153
898.50 0.1153
898.60 0.1152
898.70 0.1151
898.80 0.115
898.90 0.1149
899.00 0.1148
899.10 0.1147
899.20 0.1146
899.30 0.1145
899.40 0.1145
899.50 0.1144
899.60 0.1143
899.70 0.1142
899.80 0.1141
899.90 0.114
900.00 0.1139
900.10 0.1138
900.20 0.1137
900.30 0.1137
900.40 0.1136
900.50 0.1135
900.60 0.1134
900.70 0.1133
900.80 0.1132
900.90 0.1131
901.00 0.113
901.10 0.113
901.20 0.1129
901.30 0.1128
901.40 0.1127
901.50 0.1126
901.60 0.1125
901.70 0.1124
901.80 0.1123
901.90 0.1122
902.00 0.1122
902.10 0.1122
902.20 0.1122
902.30 0.1122
902.40 0.1122
902.50 0.1122
902.60 0.1122
902.70 0.1123
902.80 0.1123
902.90 0.1123
903.00 0.1123
903.10 0.1123
903.20 0.1123
903.30 0.1123
903.40 0.1123
903.50 0.1124
903.60 0.1124
903.70 0.1124
903.80 0.1124
903.90 0.1124
904.00 0.1124
904.10 0.1124
904.20 0.1124
904.30 0.1125
904.40 0.1125
904.50 0.1125
904.60 0.1125
904.70 0.1125
904.80 0.1125
904.90 0.1125
905.00 0.1125
905.10 0.1126
905.20 0.1126
905.30 0.1126
905.40 0.1126
905.50 0.1126
905.60 0.1126
905.70 0.1126
905.80 0.1126
905.90 0.1127
906.00 0.1127
906.10 0.1127
906.20 0.1127
906.30 0.1127
906.40 0.1127
906.50 0.1127
906.60 0.1128
906.70 0.1128
906.80 0.1128
906.90 0.1128
907.00 0.1128
907.10 0.1128
907.20 0.1127
907.30 0.1127
907.40 0.1127
907.50 0.1126
907.60 0.1126
907.70 0.1126
907.80 0.1126
907.90 0.1125
908.00 0.1125
908.10 0.1125
908.20 0.1124
908.30 0.1124
908.40 0.1124
908.50 0.1123
908.60 0.1123
908.70 0.1123
908.80 0.1123
908.90 0.1122
909.00 0.1122
909.10 0.1122
909.20 0.1121
909.30 0.1121
909.40 0.1121
909.50 0.112
909.60 0.112
909.70 0.112
909.80 0.112
909.90 0.1119
910.00 0.1119
910.10 0.1119
910.20 0.1118
910.30 0.1118
910.40 0.1118
910.50 0.1117
910.60 0.1117
910.70 0.1117
910.80 0.1117
910.90 0.1116
911.00 0.1116
911.10 0.1116
911.20 0.1115
911.30 0.1115
911.40 0.1115
911.50 0.1114
911.60 0.1114
911.70 0.1114
911.80 0.1114
911.90 0.1113
912.00 0.1113
912.10 0.1112
912.20 0.1111
912.30 0.1111
912.40 0.111
912.50 0.1109
912.60 0.1108
912.70 0.1108
912.80 0.1107
912.90 0.1106
913.00 0.1106
913.10 0.1105
913.20 0.1104
913.30 0.1103
913.40 0.1103
913.50 0.1102
913.60 0.1101
913.70 0.11
913.80 0.11
913.90 0.1099
914.00 0.1098
914.10 0.1097
914.20 0.1097
914.30 0.1096
914.40 0.1095
914.50 0.1095
914.60 0.1094
914.70 0.1093
914.80 0.1092
914.90 0.1092
915.00 0.1091
915.10 0.109
915.20 0.1089
915.30 0.1089
915.40 0.1088
915.50 0.1087
915.60 0.1086
915.70 0.1086
915.80 0.1085
915.90 0.1084
916.00 0.1084
916.10 0.1083
916.20 0.1082
916.30 0.1081
916.40 0.1081
916.50 0.108
916.60 0.1079
916.70 0.1078
916.80 0.1078
916.90 0.1077
917.00 0.1076
917.10 0.1075
917.20 0.1074
917.30 0.1072
917.40 0.1071
917.50 0.1069
917.60 0.1068
917.70 0.1067
917.80 0.1065
917.90 0.1064
918.00 0.1063
918.10 0.1061
918.20 0.106
918.30 0.1059
918.40 0.1057
918.50 0.1056
918.60 0.1055
918.70 0.1053
918.80 0.1052
918.90 0.1051
919.00 0.1049
919.10 0.1048
919.20 0.1046
919.30 0.1045
919.40 0.1044
919.50 0.1042
919.60 0.1041
919.70 0.104
919.80 0.1038
919.90 0.1037
920.00 0.1036
920.10 0.1034
920.20 0.1033
920.30 0.1032
920.40 0.103
920.50 0.1029
920.60 0.1028
920.70 0.1026
920.80 0.1025
920.90 0.1024
921.00 0.1022
921.10 0.1021
921.20 0.102
921.30 0.1018
921.40 0.1017
921.50 0.1016
921.60 0.1014
921.70 0.1013
921.80 0.1012
921.90 0.101
922.00 0.1009
922.10 0.1009
922.20 0.1009
922.30 0.101
922.40 0.101
922.50 0.101
922.60 0.1011
922.70 0.1011
922.80 0.1011
922.90 0.1012
923.00 0.1012
923.10 0.1012
923.20 0.1013
923.30 0.1013
923.40 0.1013
923.50 0.1014
923.60 0.1014
923.70 0.1014
923.80 0.1015
923.90 0.1015
924.00 0.1015
924.10 0.1016
924.20 0.1016
924.30 0.1016
924.40 0.1016
924.50 0.1017
924.60 0.1017
924.70 0.1017
924.80 0.1018
924.90 0.1018
925.00 0.1018
925.10 0.1019
925.20 0.1019
925.30 0.1019
925.40 0.102
925.50 0.102
925.60 0.102
925.70 0.1021
925.80 0.1021
925.90 0.1021
926.00 0.1021
926.10 0.1022
926.20 0.1022
926.30 0.1022
926.40 0.1023
926.50 0.1023
926.60 0.1023
926.70 0.1024
926.80 0.1024
926.90 0.1024
927.00 0.1025
927.10 0.1025
927.20 0.1025
927.30 0.1025
927.40 0.1025
927.50 0.1025
927.60 0.1025
927.70 0.1026
927.80 0.1026
927.90 0.1026
928.00 0.1026
928.10 0.1026
928.20 0.1026
928.30 0.1026
928.40 0.1027
928.50 0.1027
928.60 0.1027
928.70 0.1027
928.80 0.1027
928.90 0.1027
929.00 0.1027
929.10 0.1028
929.20 0.1028
929.30 0.1028
929.40 0.1028
929.50 0.1028
929.60 0.1028
929.70 0.1029
929.80 0.1029
929.90 0.1029
930.00 0.1029
930.10 0.1029
930.20 0.1029
930.30 0.1029
930.40 0.103
930.50 0.103
930.60 0.103
930.70 0.103
930.80 0.103
930.90 0.103
931.00 0.103
931.10 0.103
931.20 0.1031
931.30 0.1031
931.40 0.1031
931.50 0.1031
931.60 0.1031
931.70 0.1031
931.80 0.1031
931.90 0.1032
932.00 0.1032
932.10 0.1032
932.20 0.1031
932.30 0.1031
932.40 0.1031
932.50 0.1031
932.60 0.1031
932.70 0.1031
932.80 0.103
932.90 0.103
933.00 0.103
933.10 0.103
933.20 0.103
933.30 0.103
933.40 0.1029
933.50 0.1029
933.60 0.1029
933.70 0.1029
933.80 0.1029
933.90 0.1029
934.00 0.1028
934.10 0.1028
934.20 0.1028
934.30 0.1028
934.40 0.1028
934.50 0.1027
934.60 0.1027
934.70 0.1027
934.80 0.1026
934.90 0.1026
935.00 0.1026
935.10 0.1025
935.20 0.1025
935.30 0.1025
935.40 0.1025
935.50 0.1024
935.60 0.1024
935.70 0.1024
935.80 0.1023
935.90 0.1023
936.00 0.1023
936.10 0.1022
936.20 0.1022
936.30 0.1022
936.40 0.1022
936.50 0.1021
936.60 0.1021
936.70 0.1021
936.80 0.102
936.90 0.102
937.00 0.102
937.10 0.1019
937.20 0.1019
937.30 0.1019
937.40 0.1018
937.50 0.1018
937.60 0.1017
937.70 0.1017
937.80 0.1017
937.90 0.1016
938.00 0.1016
938.10 0.1016
938.20 0.1015
938.30 0.1015
938.40 0.1014
938.50 0.1014
938.60 0.1013
938.70 0.1013
938.80 0.1013
938.90 0.1012
939.00 0.1012
939.10 0.1011
939.20 0.1011
939.30 0.101
939.40 0.101
939.50 0.1009
939.60 0.1009
939.70 0.1008
939.80 0.1008
939.90 0.1008
940.00 0.1007
940.10 0.1007
940.20 0.1006
940.30 0.1006
940.40 0.1005
940.50 0.1005
940.60 0.1004
940.70 0.1004
940.80 0.1003
940.90 0.1003
941.00 0.1002
941.10 0.1002
941.20 0.1001
941.30 0.1
941.40 0.09999
941.50 0.09994
941.60 0.09989
941.70 0.09983
941.80 0.09978
941.90 0.09973
942.00 0.09967
942.10 0.09962
942.20 0.09956
942.30 0.0995
942.40 0.09944
942.50 0.09937
942.60 0.09931
942.70 0.09924
942.80 0.09918
942.90 0.09911
943.00 0.09905
943.10 0.09898
943.20 0.09892
943.30 0.09885
943.40 0.09879
943.50 0.09872
943.60 0.09866
943.70 0.09859
943.80 0.09853
943.90 0.09847
944.00 0.0984
944.10 0.09834
944.20 0.09827
944.30 0.09821
944.40 0.09813
944.50 0.09806
944.60 0.09798
944.70 0.09791
944.80 0.09783
944.90 0.09776
945.00 0.09768
945.10 0.09761
945.20 0.09753
945.30 0.09745
945.40 0.09737
945.50 0.09728
945.60 0.09719
945.70 0.0971
945.80 0.09702
945.90 0.09693
946.00 0.09684
946.10 0.09675
946.20 0.09666
946.30 0.09658
946.40 0.09649
946.50 0.0964
946.60 0.09631
946.70 0.09623
946.80 0.09614
946.90 0.09605
947.00 0.09596
947.10 0.09587
947.20 0.09577
947.30 0.09567
947.40 0.09555
947.50 0.09544
947.60 0.09532
947.70 0.09521
947.80 0.09509
947.90 0.09498
948.00 0.09486
948.10 0.09475
948.20 0.09463
948.30 0.09452
948.40 0.0944
948.50 0.09429
948.60 0.09417
948.70 0.09406
948.80 0.09394
948.90 0.09383
949.00 0.09371
949.10 0.0936
949.20 0.09349
949.30 0.09337
949.40 0.09322
949.50 0.09307
949.60 0.09292
949.70 0.09277
949.80 0.09261
949.90 0.09246
950.00 0.09231
950.10 0.09216
950.20 0.09201
950.30 0.09186
950.40 0.09171
950.50 0.09156
950.60 0.0914
950.70 0.09125
950.80 0.0911
950.90 0.09095
951.00 0.0908
951.10 0.09065
951.20 0.0905
951.30 0.09035
951.40 0.09017
951.50 0.08998
951.60 0.0898
951.70 0.08962
951.80 0.08944
951.90 0.08925
952.00 0.08907
952.10 0.08887
952.20 0.08866
952.30 0.08846
952.40 0.08825
952.50 0.08805
952.60 0.08785
952.70 0.08764
952.80 0.08744
952.90 0.08721
953.00 0.08698
953.10 0.08676
953.20 0.08653
953.30 0.0863
953.40 0.08608
953.50 0.08585
953.60 0.08561
953.70 0.08537
953.80 0.08512
953.90 0.08488
954.00 0.08464
954.10 0.08439
954.20 0.08415
954.30 0.08391
954.40 0.08368
954.50 0.0835
954.60 0.08346
954.70 0.08343
954.80 0.0836
954.90 0.08377
955.00 0.08394
955.10 0.08411
955.20 0.08429
955.30 0.08447
955.40 0.08465
955.50 0.08483
955.60 0.08501
955.70 0.08518
955.80 0.08536
955.90 0.08551
956.00 0.08566
956.10 0.08581
956.20 0.08596
956.30 0.08611
956.40 0.08625
956.50 0.0864
956.60 0.08655
956.70 0.0867
956.80 0.08685
956.90 0.087
957.00 0.08715
957.10 0.08727
957.20 0.08739
957.30 0.08752
957.40 0.08761
957.50 0.0877
957.60 0.0878
957.70 0.08789
957.80 0.08798
957.90 0.08808
958.00 0.08817
958.10 0.08826
958.20 0.08836
958.30 0.08845
958.40 0.08854
958.50 0.08864
958.60 0.08873
958.70 0.08882
958.80 0.08891
958.90 0.08901
959.00 0.0891
959.10 0.08919
959.20 0.08929
959.30 0.08938
959.40 0.08943
959.50 0.08948
959.60 0.08953
959.70 0.08958
959.80 0.08963
959.90 0.08968
960.00 0.08973
960.10 0.08978
960.20 0.08983
960.30 0.08989
960.40 0.08994
960.50 0.08999
960.60 0.09004
960.70 0.09009
960.80 0.09014
960.90 0.09019
961.00 0.09024
961.10 0.09029
961.20 0.09034
961.30 0.09039
961.40 0.09042
961.50 0.09045
961.60 0.09048
961.70 0.09051
961.80 0.09054
961.90 0.09057
962.00 0.0906
962.10 0.09061
962.20 0.09063
962.30 0.09065
962.40 0.09067
962.50 0.09068
962.60 0.0907
962.70 0.09072
962.80 0.09074
962.90 0.09075
963.00 0.09077
963.10 0.09079
963.20 0.09081
963.30 0.09082
963.40 0.09083
963.50 0.09084
963.60 0.09084
963.70 0.09085
963.80 0.09085
963.90 0.09086
964.00 0.09087
964.10 0.09087
964.20 0.09088
964.30 0.09089
964.40 0.09088
964.50 0.09088
964.60 0.09087
964.70 0.09087
964.80 0.09086
964.90 0.09086
965.00 0.09085
965.10 0.09085
965.20 0.09084
965.30 0.09084
965.40 0.09083
965.50 0.09083
965.60 0.09083
965.70 0.09082
965.80 0.09082
965.90 0.09081
966.00 0.09081
966.10 0.0908
966.20 0.0908
966.30 0.09079
966.40 0.09078
966.50 0.09077
966.60 0.09076
966.70 0.09074
966.80 0.09073
966.90 0.09072
967.00 0.09071
967.10 0.09069
967.20 0.09067
967.30 0.09066
967.40 0.09064
967.50 0.09063
967.60 0.09061
967.70 0.09059
967.80 0.09058
967.90 0.09056
968.00 0.09054
968.10 0.09053
968.20 0.09051
968.30 0.0905
968.40 0.09047
968.50 0.09045
968.60 0.09043
968.70 0.09041
968.80 0.09039
968.90 0.09037
969.00 0.09034
969.10 0.09032
969.20 0.0903
969.30 0.09028
969.40 0.09026
969.50 0.09024
969.60 0.09021
969.70 0.09019
969.80 0.09017
969.90 0.09015
970.00 0.09013
970.10 0.09011
970.20 0.09009
970.30 0.09006
970.40 0.09004
970.50 0.09001
970.60 0.08999
970.70 0.08996
970.80 0.08994
970.90 0.08991
971.00 0.08988
971.10 0.08986
971.20 0.08983
971.30 0.08981
971.40 0.08978
971.50 0.08976
971.60 0.08973
971.70 0.0897
971.80 0.08968
971.90 0.08965
972.00 0.08963
972.10 0.0896
972.20 0.08957
972.30 0.08954
972.40 0.08951
972.50 0.08948
972.60 0.08946
972.70 0.08943
972.80 0.0894
972.90 0.08937
973.00 0.08934
973.10 0.08931
973.20 0.08928
973.30 0.08925
973.40 0.08923
973.50 0.0892
973.60 0.08917
973.70 0.08914
973.80 0.08911
973.90 0.08908
974.00 0.08905
974.10 0.08903
974.20 0.089
974.30 0.08897
974.40 0.08894
974.50 0.08891
974.60 0.08887
974.70 0.08884
974.80 0.08881
974.90 0.08878
975.00 0.08875
975.10 0.08872
975.20 0.08869
975.30 0.08865
975.40 0.08862
975.50 0.08859
975.60 0.08856
975.70 0.08853
975.80 0.0885
975.90 0.08847
976.00 0.08844
976.10 0.08841
976.20 0.08837
976.30 0.08834
976.40 0.08831
976.50 0.08828
976.60 0.08825
976.70 0.08822
976.80 0.08819
976.90 0.08816
977.00 0.08813
977.10 0.08809
977.20 0.08806
977.30 0.08802
977.40 0.08799
977.50 0.08795
977.60 0.08792
977.70 0.08789
977.80 0.08785
977.90 0.08782
978.00 0.08778
978.10 0.08775
978.20 0.08772
978.30 0.08768
978.40 0.08765
978.50 0.08761
978.60 0.08758
978.70 0.08755
978.80 0.08751
978.90 0.08748
979.00 0.08745
979.10 0.08741
979.20 0.08738
979.30 0.08734
979.40 0.08731
979.50 0.08728
979.60 0.08724
979.70 0.08721
979.80 0.08717
979.90 0.08714
980.00 0.08711
980.10 0.08707
980.20 0.08704
980.30 0.08701
980.40 0.08697
980.50 0.08694
980.60 0.0869
980.70 0.08687
980.80 0.08684
980.90 0.0868
981.00 0.08677
981.10 0.08674
981.20 0.0867
981.30 0.08667
981.40 0.08664
981.50 0.0866
981.60 0.08657
981.70 0.08653
981.80 0.0865
981.90 0.08647
982.00 0.08643
982.10 0.0864
982.20 0.08636
982.30 0.08632
982.40 0.08629
982.50 0.08625
982.60 0.08621
982.70 0.08618
982.80 0.08614
982.90 0.08611
983.00 0.08607
983.10 0.08603
983.20 0.086
983.30 0.08596
983.40 0.08592
983.50 0.08589
983.60 0.08585
983.70 0.08582
983.80 0.08578
983.90 0.08574
984.00 0.08571
984.10 0.08567
984.20 0.08563
984.30 0.0856
984.40 0.08556
984.50 0.08553
984.60 0.08549
984.70 0.08545
984.80 0.08541
984.90 0.08537
985.00 0.08534
985.10 0.0853
985.20 0.08526
985.30 0.08522
985.40 0.08518
985.50 0.08514
985.60 0.0851
985.70 0.08507
985.80 0.08503
985.90 0.08499
986.00 0.08495
986.10 0.08491
986.20 0.08487
986.30 0.08483
986.40 0.0848
986.50 0.08476
986.60 0.08472
986.70 0.08468
986.80 0.08464
986.90 0.0846
987.00 0.08457
987.10 0.08452
987.20 0.08448
987.30 0.08444
987.40 0.0844
987.50 0.08436
987.60 0.08432
987.70 0.08428
987.80 0.08424
987.90 0.0842
988.00 0.08415
988.10 0.08411
988.20 0.08407
988.30 0.08403
988.40 0.08399
988.50 0.08395
988.60 0.08391
988.70 0.08386
988.80 0.08382
988.90 0.08377
989.00 0.08373
989.10 0.08369
989.20 0.08364
989.30 0.0836
989.40 0.08355
989.50 0.08351
989.60 0.08346
989.70 0.08342
989.80 0.08337
989.90 0.08333
990.00 0.08328
990.10 0.08324
990.20 0.08319
990.30 0.08315
990.40 0.08311
990.50 0.08306
990.60 0.08302
990.70 0.08297
990.80 0.08292
990.90 0.08287
991.00 0.08282
991.10 0.08277
991.20 0.08272
991.30 0.08267
991.40 0.08262
991.50 0.08257
991.60 0.08253
991.70 0.08248
991.80 0.08243
991.90 0.08238
992.00 0.08233
992.10 0.08228
992.20 0.08222
992.30 0.08217
992.40 0.08212
992.50 0.08206
992.60 0.08201
992.70 0.08195
992.80 0.08189
992.90 0.08183
993.00 0.08177
993.10 0.08172
993.20 0.08166
993.30 0.0816
993.40 0.08154
993.50 0.08148
993.60 0.08142
993.70 0.08136
993.80 0.0813
993.90 0.08124
994.00 0.08118
994.10 0.08112
994.20 0.08106
994.30 0.081
994.40 0.08094
994.50 0.08088
994.60 0.08083
994.70 0.08076
994.80 0.08069
994.90 0.08062
995.00 0.08055
995.10 0.08048
995.20 0.08041
995.30 0.08034
995.40 0.08027
995.50 0.0802
995.60 0.08014
995.70 0.08006
995.80 0.07998
995.90 0.0799
996.00 0.07982
996.10 0.07974
996.20 0.07966
996.30 0.07958
996.40 0.0795
996.50 0.07942
996.60 0.07934
996.70 0.07926
996.80 0.07918
996.90 0.0791
997.00 0.07902
997.10 0.07892
997.20 0.07883
997.30 0.07874
997.40 0.07865
997.50 0.07856
997.60 0.07847
997.70 0.07836
997.80 0.07825
997.90 0.07813
998.00 0.07802
998.10 0.07791
998.20 0.0778
998.30 0.07768
998.40 0.07757
998.50 0.07746
998.60 0.07735
998.70 0.07724
998.80 0.07712
998.90 0.07701
999.00 0.0769
999.10 0.07679
999.20 0.07668
999.30 0.07657
999.40 0.07645
999.50 0.07634
999.60 0.07623
999.70 0.07608
999.80 0.07593
999.90 0.07577
1000.00 0.07561
1000.10 0.07546
1000.20 0.0753
1000.30 0.07515
1000.40 0.07499
1000.50 0.07483
1000.60 0.07468
1000.70 0.07452
1000.80 0.07436
1000.90 0.07421
1001.00 0.07405
1001.10 0.0739
1001.20 0.07374
1001.30 0.07359
1001.40 0.07343
1001.50 0.07327
1001.60 0.07312
1001.70 0.07294
1001.80 0.07274
1001.90 0.07255
1002.00 0.07236
1002.10 0.07213
1002.20 0.07191
1002.30 0.07168
1002.40 0.07146
1002.50 0.07123
1002.60 0.07101
1002.70 0.07078
1002.80 0.07056
1002.90 0.07033
1003.00 0.07011
1003.10 0.06988
1003.20 0.06962
1003.30 0.06934
1003.40 0.06906
1003.50 0.06878
1003.60 0.06851
1003.70 0.06823
1003.80 0.06795
1003.90 0.06764
1004.00 0.06733
1004.10 0.06701
1004.20 0.06669
1004.30 0.06637
1004.40 0.06604
1004.50 0.06571
1004.60 0.06543
1004.70 0.06521
1004.80 0.06514
1004.90 0.06513
1005.00 0.06512
1005.10 0.06522
1005.20 0.06536
1005.30 0.0655
1005.40 0.06564
1005.50 0.06588
1005.60 0.06615
1005.70 0.06642
1005.80 0.06669
1005.90 0.06696
1006.00 0.06723
1006.10 0.0675
1006.20 0.06773
1006.30 0.06795
1006.40 0.06816
1006.50 0.06838
1006.60 0.06859
1006.70 0.06881
1006.80 0.06902
1006.90 0.06923
1007.00 0.06945
1007.10 0.06962
1007.20 0.06979
1007.30 0.06996
1007.40 0.07013
1007.50 0.0703
1007.60 0.07047
1007.70 0.0706
1007.80 0.07072
1007.90 0.07084
1008.00 0.07096
1008.10 0.07107
1008.20 0.07119
1008.30 0.07131
1008.40 0.07143
1008.50 0.07155
1008.60 0.07166
1008.70 0.07178
1008.80 0.0719
1008.90 0.07202
1009.00 0.07213
1009.10 0.07225
1009.20 0.07237
1009.30 0.07249
1009.40 0.0726
1009.50 0.07272
1009.60 0.07284
1009.70 0.07292
1009.80 0.07298
1009.90 0.07304
1010.00 0.07311
1010.10 0.07317
1010.20 0.07324
1010.30 0.0733
1010.40 0.07337
1010.50 0.07343
1010.60 0.07349
1010.70 0.07356
1010.80 0.07362
1010.90 0.07368
1011.00 0.07375
1011.10 0.07381
1011.20 0.07388
1011.30 0.07394
1011.40 0.074
1011.50 0.07407
1011.60 0.07413
1011.70 0.07418
1011.80 0.07422
1011.90 0.07426
1012.00 0.0743
1012.10 0.07433
1012.20 0.07436
1012.30 0.07438
1012.40 0.07441
1012.50 0.07444
1012.60 0.07447
1012.70 0.07449
1012.80 0.07452
1012.90 0.07455
1013.00 0.07458
1013.10 0.0746
1013.20 0.07463
1013.30 0.07466
1013.40 0.07469
1013.50 0.07471
1013.60 0.07474
1013.70 0.07476
1013.80 0.07477
1013.90 0.07478
1014.00 0.0748
1014.10 0.07481
1014.20 0.07482
1014.30 0.07484
1014.40 0.07485
1014.50 0.07486
1014.60 0.07487
1014.70 0.07488
1014.80 0.07488
1014.90 0.07488
1015.00 0.07488
1015.10 0.07489
1015.20 0.07489
1015.30 0.07489
1015.40 0.07489
1015.50 0.07489
1015.60 0.07489
1015.70 0.07489
1015.80 0.0749
1015.90 0.0749
1016.00 0.0749
1016.10 0.0749
1016.20 0.0749
1016.30 0.0749
1016.40 0.07491
1016.50 0.07491
1016.60 0.07491
1016.70 0.0749
1016.80 0.0749
1016.90 0.07489
1017.00 0.07489
1017.10 0.07488
1017.20 0.07487
1017.30 0.07486
1017.40 0.07485
1017.50 0.07484
1017.60 0.07483
1017.70 0.07482
1017.80 0.07481
1017.90 0.0748
1018.00 0.07479
1018.10 0.07478
1018.20 0.07477
1018.30 0.07477
1018.40 0.07476
1018.50 0.07475
1018.60 0.07474
1018.70 0.07472
1018.80 0.07471
1018.90 0.07469
1019.00 0.07468
1019.10 0.07466
1019.20 0.07465
1019.30 0.07463
1019.40 0.07462
1019.50 0.0746
1019.60 0.07459
1019.70 0.07457
1019.80 0.07456
1019.90 0.07454
1020.00 0.07453
1020.10 0.07451
1020.20 0.0745
1020.30 0.07448
1020.40 0.07447
1020.50 0.07445
1020.60 0.07444
1020.70 0.07442
1020.80 0.0744
1020.90 0.07438
1021.00 0.07436
1021.10 0.07435
1021.20 0.07433
1021.30 0.07431
1021.40 0.07429
1021.50 0.07427
1021.60 0.07425
1021.70 0.07424
1021.80 0.07422
1021.90 0.0742
1022.00 0.07418
1022.10 0.07416
1022.20 0.07414
1022.30 0.07412
1022.40 0.0741
1022.50 0.07407
1022.60 0.07405
1022.70 0.07403
1022.80 0.07401
1022.90 0.07399
1023.00 0.07397
1023.10 0.07395
1023.20 0.07393
1023.30 0.07391
1023.40 0.07388
1023.50 0.07386
1023.60 0.07384
1023.70 0.07382
1023.80 0.0738
1023.90 0.07378
1024.00 0.07376
1024.10 0.07374
1024.20 0.07372
1024.30 0.0737
1024.40 0.07367
1024.50 0.07365
1024.60 0.07363
1024.70 0.07361
1024.80 0.07359
1024.90 0.07356
1025.00 0.07354
1025.10 0.07352
1025.20 0.07349
1025.30 0.07347
1025.40 0.07345
1025.50 0.07343
1025.60 0.0734
1025.70 0.07338
1025.80 0.07336
1025.90 0.07333
1026.00 0.07331
1026.10 0.07329
1026.20 0.07326
1026.30 0.07324
1026.40 0.07322
1026.50 0.07319
1026.60 0.07317
1026.70 0.07315
1026.80 0.07313
1026.90 0.0731
1027.00 0.07308
1027.10 0.07306
1027.20 0.07303
1027.30 0.07301
1027.40 0.07298
1027.50 0.07296
1027.60 0.07293
1027.70 0.07291
1027.80 0.07288
1027.90 0.07286
1028.00 0.07283
1028.10 0.07281
1028.20 0.07279
1028.30 0.07276
1028.40 0.07274
1028.50 0.07271
1028.60 0.07269
1028.70 0.07266
1028.80 0.07264
1028.90 0.07261
1029.00 0.07259
1029.10 0.07257
1029.20 0.07254
1029.30 0.07252
1029.40 0.07249
1029.50 0.07247
1029.60 0.07244
1029.70 0.07242
1029.80 0.07239
1029.90 0.07237
1030.00 0.07235
1030.10 0.07232
1030.20 0.0723
1030.30 0.07227
1030.40 0.07225
1030.50 0.07222
1030.60 0.0722
1030.70 0.07218
1030.80 0.07215
1030.90 0.07213
1031.00 0.0721
1031.10 0.07208
1031.20 0.07205
1031.30 0.07203
1031.40 0.07201
1031.50 0.07198
1031.60 0.07196
1031.70 0.07193
1031.80 0.07191
1031.90 0.07188
1032.00 0.07186
1032.10 0.07183
1032.20 0.07181
1032.30 0.07178
1032.40 0.07176
1032.50 0.07173
1032.60 0.07171
1032.70 0.07168
1032.80 0.07166
1032.90 0.07163
1033.00 0.07161
1033.10 0.07158
1033.20 0.07156
1033.30 0.07153
1033.40 0.07151
1033.50 0.07148
1033.60 0.07146
1033.70 0.07143
1033.80 0.07141
1033.90 0.07138
1034.00 0.07136
1034.10 0.07133
1034.20 0.07131
1034.30 0.07128
1034.40 0.07126
1034.50 0.07123
1034.60 0.07121
1034.70 0.07118
1034.80 0.07116
1034.90 0.07113
1035.00 0.0711
1035.10 0.07108
1035.20 0.07105
1035.30 0.07103
1035.40 0.071
1035.50 0.07098
1035.60 0.07095
1035.70 0.07093
1035.80 0.0709
1035.90 0.07088
1036.00 0.07085
1036.10 0.07083
1036.20 0.07081
1036.30 0.07078
1036.40 0.07076
1036.50 0.07073
1036.60 0.07071
1036.70 0.07068
1036.80 0.07066
1036.90 0.07063
1037.00 0.07061
1037.10 0.07058
1037.20 0.07056
1037.30 0.07053
1037.40 0.0705
1037.50 0.07048
1037.60 0.07045
1037.70 0.07043
1037.80 0.0704
1037.90 0.07038
1038.00 0.07035
1038.10 0.07033
1038.20 0.0703
1038.30 0.07028
1038.40 0.07025
1038.50 0.07023
1038.60 0.0702
1038.70 0.07018
1038.80 0.07015
1038.90 0.07013
1039.00 0.0701
1039.10 0.07008
1039.20 0.07005
1039.30 0.07003
1039.40 0.07
1039.50 0.06998
1039.60 0.06995
1039.70 0.06993
1039.80 0.0699
1039.90 0.06988
1040.00 0.06985
1040.10 0.06982
1040.20 0.0698
1040.30 0.06977
1040.40 0.06975
1040.50 0.06972
1040.60 0.0697
1040.70 0.06967
1040.80 0.06965
1040.90 0.06962
1041.00 0.0696
1041.10 0.06957
1041.20 0.06955
1041.30 0.06952
1041.40 0.0695
1041.50 0.06947
1041.60 0.06945
1041.70 0.06942
1041.80 0.0694
1041.90 0.06938
1042.00 0.06935
1042.10 0.06933
1042.20 0.0693
1042.30 0.06927
1042.40 0.06925
1042.50 0.06922
1042.60 0.0692
1042.70 0.06917
1042.80 0.06915
1042.90 0.06912
1043.00 0.0691
1043.10 0.06907
1043.20 0.06905
1043.30 0.06902
1043.40 0.069
1043.50 0.06897
1043.60 0.06895
1043.70 0.06892
1043.80 0.0689
1043.90 0.06887
1044.00 0.06885
1044.10 0.06882
1044.20 0.0688
1044.30 0.06877
1044.40 0.06875
1044.50 0.06873
1044.60 0.0687
1044.70 0.06868
1044.80 0.06865
1044.90 0.06863
1045.00 0.0686
1045.10 0.06858
1045.20 0.06855
1045.30 0.06853
1045.40 0.0685
1045.50 0.06848
1045.60 0.06845
1045.70 0.06843
1045.80 0.0684
1045.90 0.06838
1046.00 0.06835
1046.10 0.06833
1046.20 0.0683
1046.30 0.06828
1046.40 0.06825
1046.50 0.06823
1046.60 0.0682
1046.70 0.06818
1046.80 0.06815
1046.90 0.06813
1047.00 0.06811
1047.10 0.06808
1047.20 0.06806
1047.30 0.06803
1047.40 0.06801
1047.50 0.06798
1047.60 0.06796
1047.70 0.06793
1047.80 0.06791
1047.90 0.06788
1048.00 0.06786
1048.10 0.06783
1048.20 0.06781
1048.30 0.06778
1048.40 0.06776
1048.50 0.06773
1048.60 0.06771
1048.70 0.06768
1048.80 0.06766
1048.90 0.06764
1049.00 0.06761
1049.10 0.06759
1049.20 0.06756
1049.30 0.06754
1049.40 0.06751
1049.50 0.06749
1049.60 0.06746
1049.70 0.06744
1049.80 0.06741
1049.90 0.06739
1050.00 0.06736
1050.10 0.06734
1050.20 0.06732
1050.30 0.06729
1050.40 0.06727
1050.50 0.06724
1050.60 0.06722
1050.70 0.06719
1050.80 0.06717
1050.90 0.06714
1051.00 0.06712
1051.10 0.06709
1051.20 0.06707
1051.30 0.06705
1051.40 0.06702
1051.50 0.067
1051.60 0.06697
1051.70 0.06695
1051.80 0.06692
1051.90 0.0669
1052.00 0.06687
1052.10 0.06685
1052.20 0.06683
1052.30 0.0668
1052.40 0.06678
1052.50 0.06675
1052.60 0.06673
1052.70 0.0667
1052.80 0.06668
1052.90 0.06665
1053.00 0.06663
1053.10 0.06661
1053.20 0.06658
1053.30 0.06656
1053.40 0.06653
1053.50 0.06651
1053.60 0.06648
1053.70 0.06646
1053.80 0.06643
1053.90 0.06641
1054.00 0.06639
1054.10 0.06636
1054.20 0.06634
1054.30 0.06631
1054.40 0.06629
1054.50 0.06626
1054.60 0.06624
1054.70 0.06622
1054.80 0.06619
1054.90 0.06617
1055.00 0.06614
1055.10 0.06612
1055.20 0.06609
1055.30 0.06607
1055.40 0.06605
1055.50 0.06602
1055.60 0.066
1055.70 0.06597
1055.80 0.06595
1055.90 0.06592
1056.00 0.0659
1056.10 0.06588
1056.20 0.06585
1056.30 0.06583
1056.40 0.0658
1056.50 0.06578
1056.60 0.06575
1056.70 0.06573
1056.80 0.06571
1056.90 0.06568
1057.00 0.06566
1057.10 0.06563
1057.20 0.06561
1057.30 0.06559
1057.40 0.06556
1057.50 0.06554
1057.60 0.06551
1057.70 0.06549
1057.80 0.06546
1057.90 0.06544
1058.00 0.06542
1058.10 0.06539
1058.20 0.06537
1058.30 0.06534
1058.40 0.06532
1058.50 0.06529
1058.60 0.06527
1058.70 0.06525
1058.80 0.06522
1058.90 0.0652
1059.00 0.06517
1059.10 0.06515
1059.20 0.06512
1059.30 0.0651
1059.40 0.06508
1059.50 0.06505
1059.60 0.06503
1059.70 0.065
1059.80 0.06498
1059.90 0.06496
1060.00 0.06493
1060.10 0.06491
1060.20 0.06488
1060.30 0.06486
1060.40 0.06483
1060.50 0.06481
1060.60 0.06479
1060.70 0.06476
1060.80 0.06474
1060.90 0.06471
1061.00 0.06469
1061.10 0.06467
1061.20 0.06464
1061.30 0.06462
1061.40 0.06459
1061.50 0.06457
1061.60 0.06455
1061.70 0.06452
1061.80 0.0645
1061.90 0.06447
1062.00 0.06445
1062.10 0.06443
1062.20 0.0644
1062.30 0.06438
1062.40 0.06435
1062.50 0.06433
1062.60 0.0643
1062.70 0.06428
1062.80 0.06426
1062.90 0.06423
1063.00 0.06421
1063.10 0.06418
1063.20 0.06416
1063.30 0.06413
1063.40 0.06411
1063.50 0.06409
1063.60 0.06406
1063.70 0.06404
1063.80 0.06401
1063.90 0.06399
1064.00 0.06396
1064.10 0.06394
1064.20 0.06392
1064.30 0.06389
1064.40 0.06387
1064.50 0.06384
1064.60 0.06382
1064.70 0.06379
1064.80 0.06377
1064.90 0.06375
1065.00 0.06372
1065.10 0.0637
1065.20 0.06367
1065.30 0.06365
1065.40 0.06363
1065.50 0.0636
1065.60 0.06358
1065.70 0.06355
1065.80 0.06353
1065.90 0.0635
1066.00 0.06348
1066.10 0.06346
1066.20 0.06343
1066.30 0.06341
1066.40 0.06338
1066.50 0.06336
1066.60 0.06334
1066.70 0.06331
1066.80 0.06329
1066.90 0.06326
1067.00 0.06324
1067.10 0.06321
1067.20 0.06319
1067.30 0.06316
1067.40 0.06314
1067.50 0.06311
1067.60 0.06309
1067.70 0.06306
1067.80 0.06304
1067.90 0.06301
1068.00 0.06299
1068.10 0.06296
1068.20 0.06294
1068.30 0.06291
1068.40 0.06289
1068.50 0.06286
1068.60 0.06284
1068.70 0.06281
1068.80 0.06279
1068.90 0.06276
1069.00 0.06274
1069.10 0.06272
1069.20 0.06269
1069.30 0.06267
1069.40 0.06264
1069.50 0.06262
1069.60 0.06259
1069.70 0.06257
1069.80 0.06254
1069.90 0.06252
1070.00 0.06249
1070.10 0.06247
1070.20 0.06244
1070.30 0.06242
1070.40 0.06239
1070.50 0.06237
1070.60 0.06234
1070.70 0.06232
1070.80 0.06229
1070.90 0.06227
1071.00 0.06224
1071.10 0.06222
1071.20 0.06219
1071.30 0.06217
1071.40 0.06214
1071.50 0.06212
1071.60 0.0621
1071.70 0.06207
1071.80 0.06205
1071.90 0.06202
1072.00 0.062
1072.10 0.06197
1072.20 0.06194
1072.30 0.06192
1072.40 0.06189
1072.50 0.06187
1072.60 0.06184
1072.70 0.06181
1072.80 0.06179
1072.90 0.06176
1073.00 0.06174
1073.10 0.06171
1073.20 0.06169
1073.30 0.06166
1073.40 0.06163
1073.50 0.06161
1073.60 0.06158
1073.70 0.06155
1073.80 0.06152
1073.90 0.0615
1074.00 0.06147
1074.10 0.06144
1074.20 0.06141
1074.30 0.06139
1074.40 0.06136
1074.50 0.06133
1074.60 0.0613
1074.70 0.06128
1074.80 0.06125
1074.90 0.06122
1075.00 0.06119
1075.10 0.06117
1075.20 0.06114
1075.30 0.06111
1075.40 0.06108
1075.50 0.06106
1075.60 0.06103
1075.70 0.061
1075.80 0.06097
1075.90 0.06095
1076.00 0.06092
1076.10 0.06089
1076.20 0.06086
1076.30 0.06084
1076.40 0.06081
1076.50 0.06078
1076.60 0.06075
1076.70 0.06073
1076.80 0.0607
1076.90 0.06067
1077.00 0.06064
1077.10 0.06062
1077.20 0.06059
1077.30 0.06056
1077.40 0.06053
1077.50 0.0605
1077.60 0.06047
1077.70 0.06043
1077.80 0.0604
1077.90 0.06037
1078.00 0.06034
1078.10 0.06031
1078.20 0.06028
1078.30 0.06025
1078.40 0.06021
1078.50 0.06018
1078.60 0.06015
1078.70 0.06012
1078.80 0.06009
1078.90 0.06006
1079.00 0.06003
1079.10 0.06
1079.20 0.05996
1079.30 0.05993
1079.40 0.0599
1079.50 0.05987
1079.60 0.05983
1079.70 0.0598
1079.80 0.05976
1079.90 0.05973
1080.00 0.05969
1080.10 0.05966
1080.20 0.05962
1080.30 0.05958
1080.40 0.05955
1080.50 0.05951
1080.60 0.05948
1080.70 0.05944
1080.80 0.05941
1080.90 0.05937
1081.00 0.05934
1081.10 0.0593
1081.20 0.05927
1081.30 0.05923
1081.40 0.05919
1081.50 0.05916
1081.60 0.05912
1081.70 0.05908
1081.80 0.05904
1081.90 0.059
1082.00 0.05896
1082.10 0.05892
1082.20 0.05887
1082.30 0.05883
1082.40 0.05879
1082.50 0.05874
1082.60 0.0587
1082.70 0.05866
1082.80 0.05861
1082.90 0.05857
1083.00 0.05853
1083.10 0.05848
1083.20 0.05844
1083.30 0.0584
1083.40 0.05835
1083.50 0.05831
1083.60 0.05826
1083.70 0.05821
1083.80 0.05816
1083.90 0.05811
1084.00 0.05806
1084.10 0.05801
1084.20 0.05796
1084.30 0.05791
1084.40 0.05786
1084.50 0.05781
1084.60 0.05774
1084.70 0.05768
1084.80 0.05762
1084.90 0.05756
1085.00 0.0575
1085.10 0.05744
1085.20 0.05738
1085.30 0.05732
1085.40 0.05725
1085.50 0.05719
1085.60 0.05713
1085.70 0.05707
1085.80 0.05701
1085.90 0.05695
1086.00 0.05689
1086.10 0.05683
1086.20 0.05677
1086.30 0.05671
1086.40 0.05664
1086.50 0.05658
1086.60 0.05651
1086.70 0.05643
1086.80 0.05636
1086.90 0.05628
1087.00 0.05621
1087.10 0.05612
1087.20 0.05604
1087.30 0.05595
1087.40 0.05586
1087.50 0.05577
1087.60 0.05569
1087.70 0.0556
1087.80 0.05551
1087.90 0.05543
1088.00 0.05534
1088.10 0.05525
1088.20 0.05516
1088.30 0.05508
1088.40 0.05499
1088.50 0.05489
1088.60 0.05477
1088.70 0.05465
1088.80 0.05453
1088.90 0.05441
1089.00 0.05429
1089.10 0.05417
1089.20 0.05405
1089.30 0.05393
1089.40 0.05381
1089.50 0.05369
1089.60 0.05358
1089.70 0.05346
1089.80 0.05334
1089.90 0.05322
1090.00 0.0531
1090.10 0.05298
1090.20 0.05286
1090.30 0.05274
1090.40 0.05262
1090.50 0.05248
1090.60 0.05231
1090.70 0.05214
1090.80 0.05196
1090.90 0.05179
1091.00 0.05162
1091.10 0.05144
1091.20 0.05127
1091.30 0.0511
1091.40 0.05093
1091.50 0.05075
1091.60 0.05058
1091.70 0.05041
1091.80 0.05024
1091.90 0.05006
1092.00 0.04988
1092.10 0.04964
1092.20 0.04941
1092.30 0.04917
1092.40 0.04894
1092.50 0.0487
1092.60 0.04847
1092.70 0.04821
1092.80 0.04793
1092.90 0.04764
1093.00 0.04736
1093.10 0.04706
1093.20 0.04674
1093.30 0.04642
1093.40 0.04608
1093.50 0.04574
1093.60 0.04537
1093.70 0.0451
1093.80 0.04494
1093.90 0.04493
1094.00 0.04526
1094.10 0.04559
1094.20 0.04592
1094.30 0.04623
1094.40 0.0465
1094.50 0.04676
1094.60 0.04703
1094.70 0.0473
1094.80 0.04756
1094.90 0.04783
1095.00 0.04807
1095.10 0.04824
1095.20 0.04841
1095.30 0.04859
1095.40 0.04876
1095.50 0.04893
1095.60 0.04911
1095.70 0.04928
1095.80 0.04945
1095.90 0.04962
1096.00 0.0498
1096.10 0.04997
1096.20 0.05014
1096.30 0.05032
1096.40 0.05049
1096.50 0.05064
1096.60 0.05076
1096.70 0.05089
1096.80 0.05101
1096.90 0.05113
1097.00 0.05125
1097.10 0.05134
1097.20 0.05143
1097.30 0.05152
1097.40 0.05161
1097.50 0.0517
1097.60 0.05179
1097.70 0.05189
1097.80 0.05198
1097.90 0.05207
1098.00 0.05216
1098.10 0.05225
1098.20 0.05234
1098.30 0.05243
1098.40 0.05252
1098.50 0.0526
1098.60 0.05265
1098.70 0.05271
1098.80 0.05276
1098.90 0.05281
1099.00 0.05287
1099.10 0.05292
1099.20 0.05298
1099.30 0.05303
1099.40 0.05308
1099.50 0.05314
1099.60 0.05319
1099.70 0.05325
1099.80 0.0533
1099.90 0.05335
1100.00 0.05341
1100.10 0.05346
1100.20 0.05351
1100.30 0.05357
1100.40 0.05362
1100.50 0.05367
1100.60 0.0537
1100.70 0.05372
1100.80 0.05375
1100.90 0.05378
1101.00 0.05381
1101.10 0.05384
1101.20 0.05387
1101.30 0.0539
1101.40 0.05393
1101.50 0.05396
1101.60 0.05398
1101.70 0.05401
1101.80 0.05404
1101.90 0.05407
1102.00 0.0541
1102.10 0.05412
1102.20 0.05414
1102.30 0.05415
1102.40 0.05417
1102.50 0.05419
1102.60 0.0542
1102.70 0.05422
1102.80 0.05423
1102.90 0.05424
1103.00 0.05425
1103.10 0.05427
1103.20 0.05428
1103.30 0.05429
1103.40 0.05431
1103.50 0.05432
1103.60 0.05432
1103.70 0.05432
1103.80 0.05433
1103.90 0.05433
1104.00 0.05434
1104.10 0.05434
1104.20 0.05434
1104.30 0.05435
1104.40 0.05435
1104.50 0.05435
1104.60 0.05436
1104.70 0.05436
1104.80 0.05437
1104.90 0.05437
1105.00 0.05437
1105.10 0.05438
1105.20 0.05438
1105.30 0.05439
1105.40 0.05439
1105.50 0.05439
1105.60 0.05439
1105.70 0.05438
1105.80 0.05438
1105.90 0.05438
1106.00 0.05437
1106.10 0.05437
1106.20 0.05437
1106.30 0.05436
1106.40 0.05436
1106.50 0.05436
1106.60 0.05435
1106.70 0.05435
1106.80 0.05435
1106.90 0.05434
1107.00 0.05434
1107.10 0.05433
1107.20 0.05433
1107.30 0.05432
1107.40 0.05432
1107.50 0.05431
1107.60 0.0543
1107.70 0.05429
1107.80 0.05428
1107.90 0.05427
1108.00 0.05426
1108.10 0.05425
1108.20 0.05425
1108.30 0.05424
1108.40 0.05423
1108.50 0.05422
1108.60 0.05421
1108.70 0.0542
1108.80 0.05419
1108.90 0.05418
1109.00 0.05417
1109.10 0.05416
1109.20 0.05416
1109.30 0.05415
1109.40 0.05414
1109.50 0.05413
1109.60 0.05412
1109.70 0.0541
1109.80 0.05409
1109.90 0.05408
1110.00 0.05407
1110.10 0.05405
1110.20 0.05404
1110.30 0.05403
1110.40 0.05402
1110.50 0.05401
1110.60 0.05399
1110.70 0.05398
1110.80 0.05397
1110.90 0.05396
1111.00 0.05394
1111.10 0.05393
1111.20 0.05392
1111.30 0.05391
1111.40 0.0539
1111.50 0.05388
1111.60 0.05387
1111.70 0.05386
1111.80 0.05385
1111.90 0.05383
1112.00 0.05382
1112.10 0.05381
1112.20 0.05379
1112.30 0.05378
1112.40 0.05377
1112.50 0.05375
1112.60 0.05374
1112.70 0.05372
1112.80 0.05371
1112.90 0.0537
1113.00 0.05368
1113.10 0.05367
1113.20 0.05365
1113.30 0.05364
1113.40 0.05363
1113.50 0.05361
1113.60 0.0536
1113.70 0.05358
1113.80 0.05356
1113.90 0.05355
1114.00 0.05353
1114.10 0.05352
1114.20 0.0535
1114.30 0.05349
1114.40 0.05347
1114.50 0.05346
1114.60 0.05344
1114.70 0.05343
1114.80 0.05341
1114.90 0.0534
1115.00 0.05338
1115.10 0.05336
1115.20 0.05335
1115.30 0.05333
1115.40 0.05332
1115.50 0.0533
1115.60 0.05329
1115.70 0.05327
1115.80 0.05326
1115.90 0.05324
1116.00 0.05323
1116.10 0.05321
1116.20 0.0532
1116.30 0.05318
1116.40 0.05317
1116.50 0.05315
1116.60 0.05313
1116.70 0.05312
1116.80 0.0531
1116.90 0.05309
1117.00 0.05307
1117.10 0.05306
1117.20 0.05304
1117.30 0.05302
1117.40 0.05301
1117.50 0.05299
1117.60 0.05297
1117.70 0.05296
1117.80 0.05294
1117.90 0.05293
1118.00 0.05291
1118.10 0.05289
1118.20 0.05288
1118.30 0.05286
1118.40 0.05284
1118.50 0.05283
1118.60 0.05281
1118.70 0.05279
1118.80 0.05278
1118.90 0.05276
1119.00 0.05274
1119.10 0.05273
1119.20 0.05271
1119.30 0.05269
1119.40 0.05268
1119.50 0.05266
1119.60 0.05265
1119.70 0.05263
1119.80 0.05261
1119.90 0.0526
1120.00 0.05258
1120.10 0.05256
1120.20 0.05255
1120.30 0.05253
1120.40 0.05251
1120.50 0.0525
1120.60 0.05248
1120.70 0.05247
1120.80 0.05245
1120.90 0.05243
1121.00 0.05242
1121.10 0.0524
1121.20 0.05238
1121.30 0.05237
1121.40 0.05235
1121.50 0.05233
1121.60 0.05232
1121.70 0.0523
1121.80 0.05229
1121.90 0.05227
1122.00 0.05225
1122.10 0.05224
1122.20 0.05222
1122.30 0.0522
1122.40 0.05219
1122.50 0.05217
1122.60 0.05215
1122.70 0.05213
1122.80 0.05212
1122.90 0.0521
1123.00 0.05208
1123.10 0.05207
1123.20 0.05205
1123.30 0.05203
1123.40 0.05202
1123.50 0.052
1123.60 0.05198
1123.70 0.05197
1123.80 0.05195
1123.90 0.05193
1124.00 0.05192
1124.10 0.0519
1124.20 0.05188
1124.30 0.05186
1124.40 0.05185
1124.50 0.05183
1124.60 0.05181
1124.70 0.0518
1124.80 0.05178
1124.90 0.05176
1125.00 0.05175
1125.10 0.05173
1125.20 0.05171
1125.30 0.0517
1125.40 0.05168
1125.50 0.05166
1125.60 0.05165
1125.70 0.05163
1125.80 0.05161
1125.90 0.0516
1126.00 0.05158
1126.10 0.05156
1126.20 0.05155
1126.30 0.05153
1126.40 0.05151
1126.50 0.0515
1126.60 0.05148
1126.70 0.05146
1126.80 0.05145
1126.90 0.05143
1127.00 0.05141
1127.10 0.0514
1127.20 0.05138
1127.30 0.05136
1127.40 0.05134
1127.50 0.05133
1127.60 0.05131
1127.70 0.05129
1127.80 0.05128
1127.90 0.05126
1128.00 0.05124
1128.10 0.05123
1128.20 0.05121
1128.30 0.05119
1128.40 0.05118
1128.50 0.05116
1128.60 0.05114
1128.70 0.05113
1128.80 0.05111
1128.90 0.05109
1129.00 0.05107
1129.10 0.05106
1129.20 0.05104
1129.30 0.05102
1129.40 0.05101
1129.50 0.05099
1129.60 0.05097
1129.70 0.05096
1129.80 0.05094
1129.90 0.05092
1130.00 0.05091
1130.10 0.05089
1130.20 0.05087
1130.30 0.05086
1130.40 0.05084
1130.50 0.05082
1130.60 0.05081
1130.70 0.05079
1130.80 0.05077
1130.90 0.05076
1131.00 0.05074
1131.10 0.05072
1131.20 0.05071
1131.30 0.05069
1131.40 0.05067
1131.50 0.05066
1131.60 0.05064
1131.70 0.05062
1131.80 0.05061
1131.90 0.05059
1132.00 0.05057
1132.10 0.05056
1132.20 0.05054
1132.30 0.05052
1132.40 0.0505
1132.50 0.05049
1132.60 0.05047
1132.70 0.05045
1132.80 0.05044
1132.90 0.05042
1133.00 0.0504
1133.10 0.05039
1133.20 0.05037
1133.30 0.05035
1133.40 0.05034
1133.50 0.05032
1133.60 0.0503
1133.70 0.05029
1133.80 0.05027
1133.90 0.05025
1134.00 0.05024
1134.10 0.05022
1134.20 0.0502
1134.30 0.05019
1134.40 0.05017
1134.50 0.05015
1134.60 0.05014
1134.70 0.05012
1134.80 0.0501
1134.90 0.05009
1135.00 0.05007
1135.10 0.05005
1135.20 0.05004
1135.30 0.05002
1135.40 0.05
1135.50 0.04999
1135.60 0.04997
1135.70 0.04995
1135.80 0.04994
1135.90 0.04992
1136.00 0.04991
1136.10 0.04989
1136.20 0.04987
1136.30 0.04986
1136.40 0.04984
1136.50 0.04982
1136.60 0.04981
1136.70 0.04979
1136.80 0.04977
1136.90 0.04976
1137.00 0.04974
1137.10 0.04972
1137.20 0.04971
1137.30 0.04969
1137.40 0.04967
1137.50 0.04966
1137.60 0.04964
1137.70 0.04962
1137.80 0.04961
1137.90 0.04959
1138.00 0.04957
1138.10 0.04956
1138.20 0.04954
1138.30 0.04953
1138.40 0.04951
1138.50 0.04949
1138.60 0.04948
1138.70 0.04946
1138.80 0.04944
1138.90 0.04943
1139.00 0.04941
1139.10 0.04939
1139.20 0.04938
1139.30 0.04936
1139.40 0.04934
1139.50 0.04933
1139.60 0.04931
1139.70 0.0493
1139.80 0.04928
1139.90 0.04926
1140.00 0.04925
1140.10 0.04923
1140.20 0.04921
1140.30 0.0492
1140.40 0.04918
1140.50 0.04916
1140.60 0.04915
1140.70 0.04913
1140.80 0.04911
1140.90 0.0491
1141.00 0.04908
1141.10 0.04907
1141.20 0.04905
1141.30 0.04903
1141.40 0.04902
1141.50 0.049
1141.60 0.04898
1141.70 0.04897
1141.80 0.04895
1141.90 0.04894
1142.00 0.04892
1142.10 0.0489
1142.20 0.04889
1142.30 0.04887
1142.40 0.04885
1142.50 0.04884
1142.60 0.04882
1142.70 0.04881
1142.80 0.04879
1142.90 0.04877
1143.00 0.04876
1143.10 0.04874
1143.20 0.04872
1143.30 0.04871
1143.40 0.04869
1143.50 0.04868
1143.60 0.04866
1143.70 0.04864
1143.80 0.04863
1143.90 0.04861
1144.00 0.0486
1144.10 0.04858
1144.20 0.04856
1144.30 0.04855
1144.40 0.04853
1144.50 0.04851
1144.60 0.0485
1144.70 0.04848
1144.80 0.04847
1144.90 0.04845
1145.00 0.04843
1145.10 0.04842
1145.20 0.0484
1145.30 0.04839
1145.40 0.04837
1145.50 0.04835
1145.60 0.04834
1145.70 0.04832
1145.80 0.04831
1145.90 0.04829
1146.00 0.04827
1146.10 0.04826
1146.20 0.04824
1146.30 0.04823
1146.40 0.04821
1146.50 0.04819
1146.60 0.04818
1146.70 0.04816
1146.80 0.04815
1146.90 0.04813
1147.00 0.04811
1147.10 0.0481
1147.20 0.04808
1147.30 0.04807
1147.40 0.04805
1147.50 0.04803
1147.60 0.04802
1147.70 0.048
1147.80 0.04799
1147.90 0.04797
1148.00 0.04795
1148.10 0.04794
1148.20 0.04792
1148.30 0.04791
1148.40 0.04789
1148.50 0.04787
1148.60 0.04786
1148.70 0.04784
1148.80 0.04783
1148.90 0.04781
1149.00 0.04779
1149.10 0.04778
1149.20 0.04776
1149.30 0.04775
1149.40 0.04773
1149.50 0.04772
1149.60 0.0477
1149.70 0.04768
1149.80 0.04767
1149.90 0.04765
1150.00 0.04764
1150.10 0.04762
1150.20 0.04761
1150.30 0.04759
1150.40 0.04757
1150.50 0.04756
1150.60 0.04754
1150.70 0.04753
1150.80 0.04751
1150.90 0.04749
1151.00 0.04748
1151.10 0.04746
1151.20 0.04745
1151.30 0.04743
1151.40 0.04742
1151.50 0.0474
1151.60 0.04738
1151.70 0.04737
1151.80 0.04735
1151.90 0.04734
1152.00 0.04732
1152.10 0.04731
1152.20 0.04729
1152.30 0.04727
1152.40 0.04726
1152.50 0.04724
1152.60 0.04723
1152.70 0.04721
1152.80 0.0472
1152.90 0.04718
1153.00 0.04717
1153.10 0.04715
1153.20 0.04713
1153.30 0.04712
1153.40 0.0471
1153.50 0.04709
1153.60 0.04707
1153.70 0.04706
1153.80 0.04704
1153.90 0.04702
1154.00 0.04701
1154.10 0.04699
1154.20 0.04698
1154.30 0.04696
1154.40 0.04695
1154.50 0.04693
1154.60 0.04692
1154.70 0.0469
1154.80 0.04688
1154.90 0.04687
1155.00 0.04685
1155.10 0.04684
1155.20 0.04682
1155.30 0.04681
1155.40 0.04679
1155.50 0.04678
1155.60 0.04676
1155.70 0.04675
1155.80 0.04673
1155.90 0.04671
1156.00 0.0467
1156.10 0.04668
1156.20 0.04667
1156.30 0.04665
1156.40 0.04664
1156.50 0.04662
1156.60 0.04661
1156.70 0.04659
1156.80 0.04658
1156.90 0.04656
1157.00 0.04654
1157.10 0.04653
1157.20 0.04651
1157.30 0.0465
1157.40 0.04648
1157.50 0.04647
1157.60 0.04645
1157.70 0.04644
1157.80 0.04642
1157.90 0.04641
1158.00 0.04639
1158.10 0.04638
1158.20 0.04636
1158.30 0.04635
1158.40 0.04633
1158.50 0.04631
1158.60 0.0463
1158.70 0.04628
1158.80 0.04627
1158.90 0.04625
1159.00 0.04624
1159.10 0.04622
1159.20 0.04621
1159.30 0.04619
1159.40 0.04618
1159.50 0.04616
1159.60 0.04615
1159.70 0.04613
1159.80 0.04612
1159.90 0.0461
1160.00 0.04609
1160.10 0.04607
1160.20 0.04606
1160.30 0.04604
1160.40 0.04603
1160.50 0.04601
1160.60 0.046
1160.70 0.04598
1160.80 0.04596
1160.90 0.04595
1161.00 0.04593
1161.10 0.04592
1161.20 0.0459
1161.30 0.04589
1161.40 0.04587
1161.50 0.04586
1161.60 0.04584
1161.70 0.04583
1161.80 0.04581
1161.90 0.0458
1162.00 0.04578
1162.10 0.04577
1162.20 0.04575
1162.30 0.04574
1162.40 0.04572
1162.50 0.04571
1162.60 0.04569
1162.70 0.04568
1162.80 0.04566
1162.90 0.04565
1163.00 0.04563
1163.10 0.04562
1163.20 0.0456
1163.30 0.04559
1163.40 0.04557
1163.50 0.04556
1163.60 0.04554
1163.70 0.04553
1163.80 0.04551
1163.90 0.0455
1164.00 0.04548
1164.10 0.04547
1164.20 0.04545
1164.30 0.04544
1164.40 0.04542
1164.50 0.04541
1164.60 0.04539
1164.70 0.04538
1164.80 0.04536
1164.90 0.04535
1165.00 0.04533
1165.10 0.04532
1165.20 0.0453
1165.30 0.04529
1165.40 0.04527
1165.50 0.04526
1165.60 0.04524
1165.70 0.04523
1165.80 0.04521
1165.90 0.0452
1166.00 0.04518
1166.10 0.04517
1166.20 0.04516
1166.30 0.04514
1166.40 0.04513
1166.50 0.04511
1166.60 0.0451
1166.70 0.04508
1166.80 0.04507
1166.90 0.04505
1167.00 0.04504
1167.10 0.04502
1167.20 0.04501
1167.30 0.04499
1167.40 0.04498
1167.50 0.04496
1167.60 0.04495
1167.70 0.04493
1167.80 0.04492
1167.90 0.0449
1168.00 0.04489
1168.10 0.04487
1168.20 0.04486
1168.30 0.04484
1168.40 0.04483
1168.50 0.04482
1168.60 0.0448
1168.70 0.04479
1168.80 0.04477
1168.90 0.04476
1169.00 0.04474
1169.10 0.04473
1169.20 0.04471
1169.30 0.0447
1169.40 0.04468
1169.50 0.04467
1169.60 0.04465
1169.70 0.04464
1169.80 0.04463
1169.90 0.04461
1170.00 0.0446
1170.10 0.04458
1170.20 0.04457
1170.30 0.04455
1170.40 0.04454
1170.50 0.04452
1170.60 0.04451
1170.70 0.04449
1170.80 0.04448
1170.90 0.04446
1171.00 0.04445
1171.10 0.04444
1171.20 0.04442
1171.30 0.04441
1171.40 0.04439
1171.50 0.04438
1171.60 0.04436
1171.70 0.04435
1171.80 0.04433
1171.90 0.04432
1172.00 0.0443
1172.10 0.04429
1172.20 0.04428
1172.30 0.04426
1172.40 0.04425
1172.50 0.04423
1172.60 0.04422
1172.70 0.0442
1172.80 0.04419
1172.90 0.04417
1173.00 0.04416
1173.10 0.04415
1173.20 0.04413
1173.30 0.04412
1173.40 0.0441
1173.50 0.04409
1173.60 0.04407
1173.70 0.04406
1173.80 0.04404
1173.90 0.04403
1174.00 0.04402
1174.10 0.044
1174.20 0.04399
1174.30 0.04397
1174.40 0.04396
1174.50 0.04394
1174.60 0.04393
1174.70 0.04392
1174.80 0.0439
1174.90 0.04389
1175.00 0.04387
1175.10 0.04386
1175.20 0.04384
1175.30 0.04383
1175.40 0.04382
1175.50 0.0438
1175.60 0.04379
1175.70 0.04377
1175.80 0.04376
1175.90 0.04374
1176.00 0.04373
1176.10 0.04372
1176.20 0.0437
1176.30 0.04369
1176.40 0.04367
1176.50 0.04366
1176.60 0.04364
1176.70 0.04363
1176.80 0.04362
1176.90 0.0436
1177.00 0.04359
1177.10 0.04357
1177.20 0.04356
1177.30 0.04354
1177.40 0.04353
1177.50 0.04352
1177.60 0.0435
1177.70 0.04349
1177.80 0.04347
1177.90 0.04346
1178.00 0.04345
1178.10 0.04343
1178.20 0.04342
1178.30 0.0434
1178.40 0.04339
1178.50 0.04337
1178.60 0.04336
1178.70 0.04335
1178.80 0.04333
1178.90 0.04332
1179.00 0.0433
1179.10 0.04329
1179.20 0.04328
1179.30 0.04326
1179.40 0.04325
1179.50 0.04323
1179.60 0.04322
1179.70 0.04321
1179.80 0.04319
1179.90 0.04318
1180.00 0.04316
1180.10 0.04315
1180.20 0.04314
1180.30 0.04312
1180.40 0.04311
1180.50 0.04309
1180.60 0.04308
1180.70 0.04307
1180.80 0.04305
1180.90 0.04304
1181.00 0.04302
1181.10 0.04301
1181.20 0.043
1181.30 0.04298
1181.40 0.04297
1181.50 0.04295
1181.60 0.04294
1181.70 0.04293
1181.80 0.04291
1181.90 0.0429
1182.00 0.04288
1182.10 0.04287
1182.20 0.04286
1182.30 0.04284
1182.40 0.04283
1182.50 0.04281
1182.60 0.0428
1182.70 0.04279
1182.80 0.04277
1182.90 0.04276
1183.00 0.04274
1183.10 0.04273
1183.20 0.04272
1183.30 0.0427
1183.40 0.04269
1183.50 0.04268
1183.60 0.04266
1183.70 0.04265
1183.80 0.04263
1183.90 0.04262
1184.00 0.04261
1184.10 0.04259
1184.20 0.04258
1184.30 0.04256
1184.40 0.04255
1184.50 0.04254
1184.60 0.04252
1184.70 0.04251
1184.80 0.0425
1184.90 0.04248
1185.00 0.04247
1185.10 0.04245
1185.20 0.04244
1185.30 0.04243
1185.40 0.04241
1185.50 0.0424
1185.60 0.04239
1185.70 0.04237
1185.80 0.04236
1185.90 0.04234
1186.00 0.04233
1186.10 0.04232
1186.20 0.0423
1186.30 0.04229
1186.40 0.04228
1186.50 0.04226
1186.60 0.04225
1186.70 0.04223
1186.80 0.04222
1186.90 0.04221
1187.00 0.04219
1187.10 0.04218
1187.20 0.04217
1187.30 0.04215
1187.40 0.04214
1187.50 0.04213
1187.60 0.04211
1187.70 0.0421
1187.80 0.04209
1187.90 0.04207
1188.00 0.04206
1188.10 0.04204
1188.20 0.04203
1188.30 0.04202
1188.40 0.042
1188.50 0.04199
1188.60 0.04198
1188.70 0.04196
1188.80 0.04195
1188.90 0.04194
1189.00 0.04192
1189.10 0.04191
1189.20 0.0419
1189.30 0.04188
1189.40 0.04187
1189.50 0.04185
1189.60 0.04184
1189.70 0.04183
1189.80 0.04181
1189.90 0.0418
1190.00 0.04179
1190.10 0.04177
1190.20 0.04176
1190.30 0.04175
1190.40 0.04173
1190.50 0.04172
1190.60 0.04171
1190.70 0.04169
1190.80 0.04168
1190.90 0.04167
1191.00 0.04165
1191.10 0.04164
1191.20 0.04163
1191.30 0.04161
1191.40 0.0416
1191.50 0.04159
1191.60 0.04157
1191.70 0.04156
1191.80 0.04154
1191.90 0.04153
1192.00 0.04152
1192.10 0.0415
1192.20 0.04149
1192.30 0.04148
1192.40 0.04146
1192.50 0.04145
1192.60 0.04144
1192.70 0.04142
1192.80 0.04141
1192.90 0.0414
1193.00 0.04138
1193.10 0.04137
1193.20 0.04136
1193.30 0.04134
1193.40 0.04133
1193.50 0.04132
1193.60 0.0413
1193.70 0.04129
1193.80 0.04128
1193.90 0.04126
1194.00 0.04125
1194.10 0.04124
1194.20 0.04123
1194.30 0.04121
1194.40 0.0412
1194.50 0.04119
1194.60 0.04117
1194.70 0.04116
1194.80 0.04115
1194.90 0.04113
1195.00 0.04112
1195.10 0.04111
1195.20 0.04109
1195.30 0.04108
1195.40 0.04107
1195.50 0.04105
1195.60 0.04104
1195.70 0.04103
1195.80 0.04101
1195.90 0.041
1196.00 0.04099
1196.10 0.04097
1196.20 0.04096
1196.30 0.04095
1196.40 0.04093
1196.50 0.04092
1196.60 0.04091
1196.70 0.04089
1196.80 0.04088
1196.90 0.04087
1197.00 0.04086
1197.10 0.04084
1197.20 0.04083
1197.30 0.04082
1197.40 0.0408
1197.50 0.04079
1197.60 0.04078
1197.70 0.04076
1197.80 0.04075
1197.90 0.04074
1198.00 0.04072
1198.10 0.04071
1198.20 0.0407
1198.30 0.04069
1198.40 0.04067
1198.50 0.04066
1198.60 0.04065
1198.70 0.04063
1198.80 0.04062
1198.90 0.04061
1199.00 0.04059
1199.10 0.04058
1199.20 0.04057
1199.30 0.04055
1199.40 0.04054
1199.50 0.04053
1199.60 0.04052
1199.70 0.0405
1199.80 0.04049
1199.90 0.04048
1200.00 0
