# Version 2.1 - nm, norm@500 to 1, cut digits, bergeron_4250_75.dat_4250
# Wavelength(nm)  Flambda(ergs/cm^s/s/nm)
300.00 0.2013
300.10 0.2016
300.20 0.202
300.30 0.2023
300.40 0.2027
300.50 0.203
300.60 0.2034
300.70 0.2038
300.80 0.2041
300.90 0.2045
301.00 0.2048
301.10 0.2052
301.20 0.2055
301.30 0.2059
301.40 0.2062
301.50 0.2066
301.60 0.2069
301.70 0.2073
301.80 0.2076
301.90 0.208
302.00 0.2083
302.10 0.2087
302.20 0.2091
302.30 0.2094
302.40 0.2098
302.50 0.2102
302.60 0.2105
302.70 0.2109
302.80 0.2112
302.90 0.2116
303.00 0.212
303.10 0.2123
303.20 0.2127
303.30 0.213
303.40 0.2134
303.50 0.2138
303.60 0.2141
303.70 0.2145
303.80 0.2148
303.90 0.2152
304.00 0.2155
304.10 0.2159
304.20 0.2163
304.30 0.2166
304.40 0.217
304.50 0.2174
304.60 0.2178
304.70 0.2181
304.80 0.2185
304.90 0.2189
305.00 0.2192
305.10 0.2196
305.20 0.2199
305.30 0.2203
305.40 0.2207
305.50 0.221
305.60 0.2214
305.70 0.2218
305.80 0.2221
305.90 0.2225
306.00 0.2229
306.10 0.2232
306.20 0.2236
306.30 0.224
306.40 0.2243
306.50 0.2247
306.60 0.2251
306.70 0.2255
306.80 0.2258
306.90 0.2262
307.00 0.2266
307.10 0.2269
307.20 0.2273
307.30 0.2277
307.40 0.2281
307.50 0.2284
307.60 0.2288
307.70 0.2292
307.80 0.2295
307.90 0.2299
308.00 0.2303
308.10 0.2306
308.20 0.231
308.30 0.2314
308.40 0.2318
308.50 0.2322
308.60 0.2325
308.70 0.2329
308.80 0.2333
308.90 0.2337
309.00 0.234
309.10 0.2344
309.20 0.2348
309.30 0.2352
309.40 0.2355
309.50 0.2359
309.60 0.2363
309.70 0.2367
309.80 0.237
309.90 0.2374
310.00 0.2378
310.10 0.2382
310.20 0.2385
310.30 0.2389
310.40 0.2393
310.50 0.2397
310.60 0.2401
310.70 0.2405
310.80 0.2408
310.90 0.2412
311.00 0.2416
311.10 0.242
311.20 0.2424
311.30 0.2428
311.40 0.2431
311.50 0.2435
311.60 0.2439
311.70 0.2443
311.80 0.2446
311.90 0.245
312.00 0.2454
312.10 0.2458
312.20 0.2462
312.30 0.2465
312.40 0.2469
312.50 0.2473
312.60 0.2477
312.70 0.2481
312.80 0.2485
312.90 0.2489
313.00 0.2492
313.10 0.2496
313.20 0.25
313.30 0.2504
313.40 0.2508
313.50 0.2512
313.60 0.2515
313.70 0.2519
313.80 0.2523
313.90 0.2527
314.00 0.2531
314.10 0.2535
314.20 0.2539
314.30 0.2542
314.40 0.2546
314.50 0.255
314.60 0.2554
314.70 0.2558
314.80 0.2562
314.90 0.2566
315.00 0.257
315.10 0.2574
315.20 0.2578
315.30 0.2582
315.40 0.2585
315.50 0.2589
315.60 0.2593
315.70 0.2597
315.80 0.2601
315.90 0.2605
316.00 0.2609
316.10 0.2613
316.20 0.2617
316.30 0.2621
316.40 0.2625
316.50 0.2629
316.60 0.2633
316.70 0.2636
316.80 0.264
316.90 0.2644
317.00 0.2648
317.10 0.2652
317.20 0.2656
317.30 0.266
317.40 0.2664
317.50 0.2668
317.60 0.2672
317.70 0.2676
317.80 0.268
317.90 0.2684
318.00 0.2688
318.10 0.2692
318.20 0.2696
318.30 0.27
318.40 0.2704
318.50 0.2708
318.60 0.2712
318.70 0.2716
318.80 0.272
318.90 0.2724
319.00 0.2728
319.10 0.2732
319.20 0.2736
319.30 0.274
319.40 0.2744
319.50 0.2748
319.60 0.2751
319.70 0.2755
319.80 0.2759
319.90 0.2763
320.00 0.2767
320.10 0.2771
320.20 0.2775
320.30 0.2779
320.40 0.2784
320.50 0.2788
320.60 0.2792
320.70 0.2796
320.80 0.28
320.90 0.2804
321.00 0.2808
321.10 0.2812
321.20 0.2816
321.30 0.282
321.40 0.2824
321.50 0.2828
321.60 0.2832
321.70 0.2836
321.80 0.284
321.90 0.2844
322.00 0.2848
322.10 0.2852
322.20 0.2856
322.30 0.286
322.40 0.2864
322.50 0.2868
322.60 0.2872
322.70 0.2877
322.80 0.2881
322.90 0.2885
323.00 0.2889
323.10 0.2893
323.20 0.2897
323.30 0.2901
323.40 0.2905
323.50 0.2909
323.60 0.2913
323.70 0.2917
323.80 0.2921
323.90 0.2925
324.00 0.2929
324.10 0.2933
324.20 0.2937
324.30 0.2942
324.40 0.2946
324.50 0.295
324.60 0.2954
324.70 0.2958
324.80 0.2962
324.90 0.2966
325.00 0.297
325.10 0.2975
325.20 0.2979
325.30 0.2983
325.40 0.2987
325.50 0.2991
325.60 0.2995
325.70 0.2999
325.80 0.3003
325.90 0.3007
326.00 0.3011
326.10 0.3015
326.20 0.302
326.30 0.3024
326.40 0.3028
326.50 0.3032
326.60 0.3036
326.70 0.3041
326.80 0.3045
326.90 0.3049
327.00 0.3053
327.10 0.3057
327.20 0.3061
327.30 0.3065
327.40 0.307
327.50 0.3074
327.60 0.3078
327.70 0.3082
327.80 0.3086
327.90 0.309
328.00 0.3094
328.10 0.3098
328.20 0.3103
328.30 0.3107
328.40 0.3111
328.50 0.3115
328.60 0.3119
328.70 0.3124
328.80 0.3128
328.90 0.3132
329.00 0.3136
329.10 0.314
329.20 0.3145
329.30 0.3149
329.40 0.3153
329.50 0.3157
329.60 0.3161
329.70 0.3165
329.80 0.3169
329.90 0.3173
330.00 0.3178
330.10 0.3182
330.20 0.3186
330.30 0.319
330.40 0.3195
330.50 0.3199
330.60 0.3203
330.70 0.3207
330.80 0.3212
330.90 0.3216
331.00 0.322
331.10 0.3224
331.20 0.3228
331.30 0.3233
331.40 0.3237
331.50 0.3241
331.60 0.3245
331.70 0.3249
331.80 0.3254
331.90 0.3258
332.00 0.3262
332.10 0.3266
332.20 0.327
332.30 0.3275
332.40 0.3279
332.50 0.3283
332.60 0.3288
332.70 0.3292
332.80 0.3296
332.90 0.33
333.00 0.3305
333.10 0.3309
333.20 0.3313
333.30 0.3317
333.40 0.3322
333.50 0.3326
333.60 0.333
333.70 0.3334
333.80 0.3338
333.90 0.3343
334.00 0.3347
334.10 0.3351
334.20 0.3356
334.30 0.336
334.40 0.3364
334.50 0.3368
334.60 0.3373
334.70 0.3377
334.80 0.3381
334.90 0.3386
335.00 0.339
335.10 0.3394
335.20 0.3398
335.30 0.3403
335.40 0.3407
335.50 0.3411
335.60 0.3415
335.70 0.342
335.80 0.3424
335.90 0.3428
336.00 0.3432
336.10 0.3437
336.20 0.3441
336.30 0.3445
336.40 0.345
336.50 0.3454
336.60 0.3458
336.70 0.3463
336.80 0.3467
336.90 0.3471
337.00 0.3476
337.10 0.348
337.20 0.3484
337.30 0.3489
337.40 0.3493
337.50 0.3497
337.60 0.3501
337.70 0.3506
337.80 0.351
337.90 0.3514
338.00 0.3519
338.10 0.3523
338.20 0.3527
338.30 0.3532
338.40 0.3536
338.50 0.354
338.60 0.3545
338.70 0.3549
338.80 0.3553
338.90 0.3558
339.00 0.3562
339.10 0.3566
339.20 0.3571
339.30 0.3575
339.40 0.3579
339.50 0.3584
339.60 0.3588
339.70 0.3592
339.80 0.3597
339.90 0.3601
340.00 0.3605
340.10 0.3609
340.20 0.3614
340.30 0.3618
340.40 0.3623
340.50 0.3627
340.60 0.3631
340.70 0.3636
340.80 0.364
340.90 0.3645
341.00 0.3649
341.10 0.3653
341.20 0.3658
341.30 0.3662
341.40 0.3666
341.50 0.3671
341.60 0.3675
341.70 0.3679
341.80 0.3684
341.90 0.3688
342.00 0.3692
342.10 0.3697
342.20 0.3701
342.30 0.3706
342.40 0.371
342.50 0.3714
342.60 0.3719
342.70 0.3723
342.80 0.3728
342.90 0.3732
343.00 0.3736
343.10 0.3741
343.20 0.3745
343.30 0.3749
343.40 0.3754
343.50 0.3758
343.60 0.3763
343.70 0.3767
343.80 0.3771
343.90 0.3776
344.00 0.378
344.10 0.3784
344.20 0.3789
344.30 0.3793
344.40 0.3798
344.50 0.3802
344.60 0.3807
344.70 0.3811
344.80 0.3815
344.90 0.382
345.00 0.3824
345.10 0.3829
345.20 0.3833
345.30 0.3837
345.40 0.3842
345.50 0.3846
345.60 0.3851
345.70 0.3855
345.80 0.3859
345.90 0.3864
346.00 0.3868
346.10 0.3872
346.20 0.3877
346.30 0.3881
346.40 0.3886
346.50 0.389
346.60 0.3895
346.70 0.3899
346.80 0.3904
346.90 0.3908
347.00 0.3912
347.10 0.3917
347.20 0.3921
347.30 0.3926
347.40 0.393
347.50 0.3934
347.60 0.3939
347.70 0.3943
347.80 0.3948
347.90 0.3952
348.00 0.3956
348.10 0.3961
348.20 0.3965
348.30 0.397
348.40 0.3974
348.50 0.3979
348.60 0.3983
348.70 0.3988
348.80 0.3992
348.90 0.3997
349.00 0.4001
349.10 0.4006
349.20 0.401
349.30 0.4014
349.40 0.4019
349.50 0.4023
349.60 0.4028
349.70 0.4032
349.80 0.4037
349.90 0.4041
350.00 0.4045
350.10 0.405
350.20 0.4054
350.30 0.4059
350.40 0.4063
350.50 0.4068
350.60 0.4072
350.70 0.4077
350.80 0.4081
350.90 0.4086
351.00 0.409
351.10 0.4095
351.20 0.4099
351.30 0.4104
351.40 0.4108
351.50 0.4113
351.60 0.4117
351.70 0.4121
351.80 0.4126
351.90 0.413
352.00 0.4135
352.10 0.4139
352.20 0.4144
352.30 0.4148
352.40 0.4153
352.50 0.4157
352.60 0.4162
352.70 0.4166
352.80 0.4171
352.90 0.4175
353.00 0.418
353.10 0.4184
353.20 0.4189
353.30 0.4193
353.40 0.4198
353.50 0.4202
353.60 0.4206
353.70 0.4211
353.80 0.4215
353.90 0.422
354.00 0.4224
354.10 0.4229
354.20 0.4233
354.30 0.4238
354.40 0.4242
354.50 0.4247
354.60 0.4251
354.70 0.4256
354.80 0.426
354.90 0.4265
355.00 0.4269
355.10 0.4274
355.20 0.4278
355.30 0.4283
355.40 0.4287
355.50 0.4292
355.60 0.4296
355.70 0.4301
355.80 0.4305
355.90 0.431
356.00 0.4314
356.10 0.4319
356.20 0.4323
356.30 0.4328
356.40 0.4332
356.50 0.4337
356.60 0.4341
356.70 0.4346
356.80 0.435
356.90 0.4355
357.00 0.4359
357.10 0.4364
357.20 0.4368
357.30 0.4373
357.40 0.4377
357.50 0.4382
357.60 0.4386
357.70 0.4391
357.80 0.4395
357.90 0.44
358.00 0.4404
358.10 0.4409
358.20 0.4413
358.30 0.4418
358.40 0.4422
358.50 0.4427
358.60 0.4432
358.70 0.4436
358.80 0.4441
358.90 0.4445
359.00 0.445
359.10 0.4454
359.20 0.4459
359.30 0.4463
359.40 0.4468
359.50 0.4472
359.60 0.4477
359.70 0.4481
359.80 0.4486
359.90 0.449
360.00 0.4495
360.10 0.4499
360.20 0.4504
360.30 0.4508
360.40 0.4513
360.50 0.4517
360.60 0.4522
360.70 0.4527
360.80 0.4531
360.90 0.4536
361.00 0.454
361.10 0.4545
361.20 0.4549
361.30 0.4554
361.40 0.4558
361.50 0.4563
361.60 0.4567
361.70 0.4572
361.80 0.4576
361.90 0.4581
362.00 0.4585
362.10 0.459
362.20 0.4594
362.30 0.4599
362.40 0.4603
362.50 0.4608
362.60 0.4612
362.70 0.4617
362.80 0.4622
362.90 0.4626
363.00 0.4631
363.10 0.4635
363.20 0.464
363.30 0.4644
363.40 0.4649
363.50 0.4653
363.60 0.4658
363.70 0.4662
363.80 0.4667
363.90 0.4672
364.00 0.4676
364.10 0.4681
364.20 0.4685
364.30 0.469
364.40 0.4694
364.50 0.4699
364.60 0.4703
364.70 0.4708
364.80 0.4712
364.90 0.4717
365.00 0.4721
365.10 0.4726
365.20 0.4731
365.30 0.4735
365.40 0.474
365.50 0.4744
365.60 0.4749
365.70 0.4753
365.80 0.4758
365.90 0.4762
366.00 0.4767
366.10 0.4771
366.20 0.4776
366.30 0.4781
366.40 0.4785
366.50 0.479
366.60 0.4794
366.70 0.4799
366.80 0.4803
366.90 0.4808
367.00 0.4813
367.10 0.4817
367.20 0.4822
367.30 0.4826
367.40 0.4831
367.50 0.4835
367.60 0.484
367.70 0.4844
367.80 0.4849
367.90 0.4853
368.00 0.4858
368.10 0.4862
368.20 0.4867
368.30 0.4872
368.40 0.4876
368.50 0.4881
368.60 0.4885
368.70 0.489
368.80 0.4895
368.90 0.4899
369.00 0.4904
369.10 0.4908
369.20 0.4913
369.30 0.4917
369.40 0.4922
369.50 0.4926
369.60 0.4931
369.70 0.4935
369.80 0.494
369.90 0.4944
370.00 0.4949
370.10 0.4953
370.20 0.4958
370.30 0.4963
370.40 0.4967
370.50 0.4972
370.60 0.4976
370.70 0.4981
370.80 0.4986
370.90 0.499
371.00 0.4995
371.10 0.4999
371.20 0.5004
371.30 0.5008
371.40 0.5013
371.50 0.5017
371.60 0.5022
371.70 0.5026
371.80 0.5031
371.90 0.5035
372.00 0.504
372.10 0.5045
372.20 0.5049
372.30 0.5054
372.40 0.5058
372.50 0.5063
372.60 0.5068
372.70 0.5072
372.80 0.5077
372.90 0.5081
373.00 0.5086
373.10 0.509
373.20 0.5095
373.30 0.51
373.40 0.5104
373.50 0.5109
373.60 0.5113
373.70 0.5118
373.80 0.5122
373.90 0.5127
374.00 0.5131
374.10 0.5136
374.20 0.514
374.30 0.5145
374.40 0.515
374.50 0.5154
374.60 0.5159
374.70 0.5163
374.80 0.5168
374.90 0.5173
375.00 0.5177
375.10 0.5182
375.20 0.5186
375.30 0.5191
375.40 0.5195
375.50 0.52
375.60 0.5204
375.70 0.5209
375.80 0.5213
375.90 0.5218
376.00 0.5222
376.10 0.5227
376.20 0.5232
376.30 0.5236
376.40 0.5241
376.50 0.5245
376.60 0.525
376.70 0.5254
376.80 0.5259
376.90 0.5263
377.00 0.5268
377.10 0.5273
377.20 0.5277
377.30 0.5282
377.40 0.5286
377.50 0.5291
377.60 0.5295
377.70 0.53
377.80 0.5304
377.90 0.5309
378.00 0.5314
378.10 0.5318
378.20 0.5323
378.30 0.5327
378.40 0.5332
378.50 0.5336
378.60 0.5341
378.70 0.5345
378.80 0.535
378.90 0.5354
379.00 0.5359
379.10 0.5364
379.20 0.5368
379.30 0.5373
379.40 0.5377
379.50 0.5382
379.60 0.5386
379.70 0.5391
379.80 0.5395
379.90 0.54
380.00 0.5405
380.10 0.5409
380.20 0.5414
380.30 0.5418
380.40 0.5423
380.50 0.5427
380.60 0.5432
380.70 0.5436
380.80 0.5441
380.90 0.5446
381.00 0.545
381.10 0.5455
381.20 0.5459
381.30 0.5464
381.40 0.5468
381.50 0.5473
381.60 0.5477
381.70 0.5482
381.80 0.5486
381.90 0.5491
382.00 0.5495
382.10 0.55
382.20 0.5505
382.30 0.5509
382.40 0.5514
382.50 0.5518
382.60 0.5523
382.70 0.5527
382.80 0.5532
382.90 0.5537
383.00 0.5541
383.10 0.5546
383.20 0.555
383.30 0.5555
383.40 0.5559
383.50 0.5564
383.60 0.5568
383.70 0.5573
383.80 0.5577
383.90 0.5582
384.00 0.5586
384.10 0.5591
384.20 0.5595
384.30 0.56
384.40 0.5605
384.50 0.5609
384.60 0.5614
384.70 0.5618
384.80 0.5623
384.90 0.5627
385.00 0.5632
385.10 0.5636
385.20 0.5641
385.30 0.5645
385.40 0.565
385.50 0.5654
385.60 0.5659
385.70 0.5664
385.80 0.5668
385.90 0.5673
386.00 0.5677
386.10 0.5682
386.20 0.5686
386.30 0.5691
386.40 0.5695
386.50 0.57
386.60 0.5704
386.70 0.5709
386.80 0.5713
386.90 0.5718
387.00 0.5722
387.10 0.5727
387.20 0.5731
387.30 0.5736
387.40 0.5741
387.50 0.5745
387.60 0.575
387.70 0.5754
387.80 0.5759
387.90 0.5763
388.00 0.5768
388.10 0.5772
388.20 0.5777
388.30 0.5781
388.40 0.5786
388.50 0.579
388.60 0.5795
388.70 0.5799
388.80 0.5804
388.90 0.5808
389.00 0.5813
389.10 0.5817
389.20 0.5822
389.30 0.5826
389.40 0.5831
389.50 0.5835
389.60 0.584
389.70 0.5844
389.80 0.5849
389.90 0.5853
390.00 0.5858
390.10 0.5863
390.20 0.5867
390.30 0.5872
390.40 0.5876
390.50 0.5881
390.60 0.5885
390.70 0.589
390.80 0.5894
390.90 0.5899
391.00 0.5903
391.10 0.5908
391.20 0.5912
391.30 0.5917
391.40 0.5921
391.50 0.5926
391.60 0.593
391.70 0.5935
391.80 0.5939
391.90 0.5944
392.00 0.5948
392.10 0.5953
392.20 0.5957
392.30 0.5962
392.40 0.5966
392.50 0.5971
392.60 0.5975
392.70 0.598
392.80 0.5984
392.90 0.5989
393.00 0.5993
393.10 0.5998
393.20 0.6002
393.30 0.6007
393.40 0.6011
393.50 0.6016
393.60 0.602
393.70 0.6025
393.80 0.6029
393.90 0.6034
394.00 0.6038
394.10 0.6043
394.20 0.6047
394.30 0.6051
394.40 0.6056
394.50 0.606
394.60 0.6065
394.70 0.6069
394.80 0.6074
394.90 0.6078
395.00 0.6083
395.10 0.6087
395.20 0.6092
395.30 0.6096
395.40 0.6101
395.50 0.6105
395.60 0.611
395.70 0.6114
395.80 0.6119
395.90 0.6123
396.00 0.6128
396.10 0.6132
396.20 0.6137
396.30 0.6141
396.40 0.6146
396.50 0.615
396.60 0.6154
396.70 0.6159
396.80 0.6163
396.90 0.6168
397.00 0.6172
397.10 0.6177
397.20 0.6181
397.30 0.6186
397.40 0.619
397.50 0.6195
397.60 0.6199
397.70 0.6204
397.80 0.6208
397.90 0.6213
398.00 0.6217
398.10 0.6221
398.20 0.6226
398.30 0.623
398.40 0.6235
398.50 0.6239
398.60 0.6244
398.70 0.6248
398.80 0.6253
398.90 0.6257
399.00 0.6262
399.10 0.6266
399.20 0.627
399.30 0.6275
399.40 0.6279
399.50 0.6284
399.60 0.6288
399.70 0.6293
399.80 0.6297
399.90 0.6302
400.00 0.6306
400.10 0.631
400.20 0.6315
400.30 0.6319
400.40 0.6324
400.50 0.6328
400.60 0.6333
400.70 0.6337
400.80 0.6342
400.90 0.6346
401.00 0.635
401.10 0.6355
401.20 0.6359
401.30 0.6364
401.40 0.6368
401.50 0.6373
401.60 0.6377
401.70 0.6381
401.80 0.6386
401.90 0.639
402.00 0.6395
402.10 0.6399
402.20 0.6404
402.30 0.6408
402.40 0.6412
402.50 0.6417
402.60 0.6421
402.70 0.6426
402.80 0.643
402.90 0.6434
403.00 0.6439
403.10 0.6443
403.20 0.6448
403.30 0.6452
403.40 0.6457
403.50 0.6461
403.60 0.6465
403.70 0.647
403.80 0.6474
403.90 0.6479
404.00 0.6483
404.10 0.6487
404.20 0.6492
404.30 0.6496
404.40 0.6501
404.50 0.6505
404.60 0.6509
404.70 0.6514
404.80 0.6518
404.90 0.6523
405.00 0.6527
405.10 0.6531
405.20 0.6536
405.30 0.654
405.40 0.6545
405.50 0.6549
405.60 0.6553
405.70 0.6558
405.80 0.6562
405.90 0.6567
406.00 0.6571
406.10 0.6575
406.20 0.658
406.30 0.6584
406.40 0.6589
406.50 0.6593
406.60 0.6597
406.70 0.6602
406.80 0.6606
406.90 0.661
407.00 0.6615
407.10 0.6619
407.20 0.6624
407.30 0.6628
407.40 0.6632
407.50 0.6637
407.60 0.6641
407.70 0.6645
407.80 0.665
407.90 0.6654
408.00 0.6658
408.10 0.6663
408.20 0.6667
408.30 0.6672
408.40 0.6676
408.50 0.668
408.60 0.6685
408.70 0.6689
408.80 0.6693
408.90 0.6698
409.00 0.6702
409.10 0.6707
409.20 0.6711
409.30 0.6715
409.40 0.6719
409.50 0.6724
409.60 0.6728
409.70 0.6732
409.80 0.6737
409.90 0.6741
410.00 0.6745
410.10 0.675
410.20 0.6754
410.30 0.6758
410.40 0.6763
410.50 0.6767
410.60 0.6772
410.70 0.6776
410.80 0.678
410.90 0.6785
411.00 0.6789
411.10 0.6793
411.20 0.6798
411.30 0.6802
411.40 0.6806
411.50 0.6811
411.60 0.6815
411.70 0.6819
411.80 0.6824
411.90 0.6828
412.00 0.6832
412.10 0.6837
412.20 0.6841
412.30 0.6845
412.40 0.685
412.50 0.6854
412.60 0.6858
412.70 0.6863
412.80 0.6867
412.90 0.6871
413.00 0.6876
413.10 0.688
413.20 0.6884
413.30 0.6888
413.40 0.6893
413.50 0.6897
413.60 0.6901
413.70 0.6906
413.80 0.691
413.90 0.6914
414.00 0.6919
414.10 0.6923
414.20 0.6927
414.30 0.6931
414.40 0.6936
414.50 0.694
414.60 0.6944
414.70 0.6949
414.80 0.6953
414.90 0.6957
415.00 0.6962
415.10 0.6966
415.20 0.697
415.30 0.6974
415.40 0.6979
415.50 0.6983
415.60 0.6987
415.70 0.6991
415.80 0.6996
415.90 0.7
416.00 0.7004
416.10 0.7009
416.20 0.7013
416.30 0.7017
416.40 0.7021
416.50 0.7026
416.60 0.703
416.70 0.7034
416.80 0.7039
416.90 0.7043
417.00 0.7047
417.10 0.7051
417.20 0.7055
417.30 0.706
417.40 0.7064
417.50 0.7068
417.60 0.7073
417.70 0.7077
417.80 0.7081
417.90 0.7085
418.00 0.709
418.10 0.7094
418.20 0.7098
418.30 0.7102
418.40 0.7107
418.50 0.7111
418.60 0.7115
418.70 0.7119
418.80 0.7124
418.90 0.7128
419.00 0.7132
419.10 0.7136
419.20 0.7141
419.30 0.7145
419.40 0.7149
419.50 0.7153
419.60 0.7157
419.70 0.7162
419.80 0.7166
419.90 0.717
420.00 0.7174
420.10 0.7179
420.20 0.7183
420.30 0.7187
420.40 0.7191
420.50 0.7195
420.60 0.72
420.70 0.7204
420.80 0.7208
420.90 0.7212
421.00 0.7216
421.10 0.7221
421.20 0.7225
421.30 0.7229
421.40 0.7233
421.50 0.7238
421.60 0.7242
421.70 0.7246
421.80 0.725
421.90 0.7254
422.00 0.7259
422.10 0.7263
422.20 0.7267
422.30 0.7271
422.40 0.7275
422.50 0.728
422.60 0.7284
422.70 0.7288
422.80 0.7292
422.90 0.7296
423.00 0.73
423.10 0.7305
423.20 0.7309
423.30 0.7313
423.40 0.7317
423.50 0.7321
423.60 0.7326
423.70 0.733
423.80 0.7334
423.90 0.7338
424.00 0.7342
424.10 0.7346
424.20 0.7351
424.30 0.7355
424.40 0.7359
424.50 0.7363
424.60 0.7367
424.70 0.7371
424.80 0.7375
424.90 0.738
425.00 0.7384
425.10 0.7388
425.20 0.7392
425.30 0.7396
425.40 0.74
425.50 0.7405
425.60 0.7409
425.70 0.7413
425.80 0.7417
425.90 0.7421
426.00 0.7425
426.10 0.7429
426.20 0.7434
426.30 0.7438
426.40 0.7442
426.50 0.7446
426.60 0.745
426.70 0.7454
426.80 0.7458
426.90 0.7463
427.00 0.7467
427.10 0.7471
427.20 0.7475
427.30 0.7479
427.40 0.7483
427.50 0.7487
427.60 0.7491
427.70 0.7496
427.80 0.75
427.90 0.7504
428.00 0.7508
428.10 0.7512
428.20 0.7516
428.30 0.752
428.40 0.7524
428.50 0.7528
428.60 0.7533
428.70 0.7537
428.80 0.7541
428.90 0.7545
429.00 0.7549
429.10 0.7553
429.20 0.7557
429.30 0.7561
429.40 0.7565
429.50 0.7569
429.60 0.7573
429.70 0.7578
429.80 0.7582
429.90 0.7586
430.00 0.759
430.10 0.7594
430.20 0.7598
430.30 0.7602
430.40 0.7606
430.50 0.761
430.60 0.7614
430.70 0.7618
430.80 0.7622
430.90 0.7627
431.00 0.7631
431.10 0.7635
431.20 0.7639
431.30 0.7643
431.40 0.7647
431.50 0.7651
431.60 0.7655
431.70 0.7659
431.80 0.7663
431.90 0.7667
432.00 0.7671
432.10 0.7675
432.20 0.7679
432.30 0.7683
432.40 0.7687
432.50 0.7691
432.60 0.7695
432.70 0.7699
432.80 0.7703
432.90 0.7707
433.00 0.7711
433.10 0.7716
433.20 0.772
433.30 0.7723
433.40 0.7727
433.50 0.7731
433.60 0.7735
433.70 0.7739
433.80 0.7743
433.90 0.7747
434.00 0.775
434.10 0.7754
434.20 0.7759
434.30 0.7763
434.40 0.7767
434.50 0.7771
434.60 0.7776
434.70 0.778
434.80 0.7784
434.90 0.7788
435.00 0.7792
435.10 0.7796
435.20 0.78
435.30 0.7804
435.40 0.7808
435.50 0.7812
435.60 0.7816
435.70 0.782
435.80 0.7824
435.90 0.7828
436.00 0.7832
436.10 0.7836
436.20 0.784
436.30 0.7844
436.40 0.7848
436.50 0.7852
436.60 0.7856
436.70 0.786
436.80 0.7864
436.90 0.7868
437.00 0.7872
437.10 0.7876
437.20 0.788
437.30 0.7884
437.40 0.7888
437.50 0.7892
437.60 0.7896
437.70 0.79
437.80 0.7903
437.90 0.7907
438.00 0.7911
438.10 0.7915
438.20 0.7919
438.30 0.7923
438.40 0.7927
438.50 0.7931
438.60 0.7935
438.70 0.7939
438.80 0.7943
438.90 0.7947
439.00 0.7951
439.10 0.7955
439.20 0.7959
439.30 0.7963
439.40 0.7967
439.50 0.7971
439.60 0.7974
439.70 0.7978
439.80 0.7982
439.90 0.7986
440.00 0.799
440.10 0.7994
440.20 0.7998
440.30 0.8002
440.40 0.8006
440.50 0.801
440.60 0.8014
440.70 0.8017
440.80 0.8021
440.90 0.8025
441.00 0.8029
441.10 0.8033
441.20 0.8037
441.30 0.8041
441.40 0.8045
441.50 0.8049
441.60 0.8053
441.70 0.8056
441.80 0.806
441.90 0.8064
442.00 0.8068
442.10 0.8072
442.20 0.8076
442.30 0.808
442.40 0.8084
442.50 0.8088
442.60 0.8091
442.70 0.8095
442.80 0.8099
442.90 0.8103
443.00 0.8107
443.10 0.8111
443.20 0.8115
443.30 0.8119
443.40 0.8122
443.50 0.8126
443.60 0.813
443.70 0.8134
443.80 0.8138
443.90 0.8142
444.00 0.8146
444.10 0.8149
444.20 0.8153
444.30 0.8157
444.40 0.8161
444.50 0.8165
444.60 0.8169
444.70 0.8173
444.80 0.8176
444.90 0.818
445.00 0.8184
445.10 0.8188
445.20 0.8192
445.30 0.8195
445.40 0.8199
445.50 0.8203
445.60 0.8207
445.70 0.8211
445.80 0.8215
445.90 0.8218
446.00 0.8222
446.10 0.8226
446.20 0.823
446.30 0.8234
446.40 0.8238
446.50 0.8241
446.60 0.8245
446.70 0.8249
446.80 0.8253
446.90 0.8257
447.00 0.826
447.10 0.8264
447.20 0.8268
447.30 0.8272
447.40 0.8276
447.50 0.8279
447.60 0.8283
447.70 0.8287
447.80 0.8291
447.90 0.8294
448.00 0.8298
448.10 0.8302
448.20 0.8306
448.30 0.831
448.40 0.8313
448.50 0.8317
448.60 0.8321
448.70 0.8325
448.80 0.8328
448.90 0.8332
449.00 0.8336
449.10 0.834
449.20 0.8344
449.30 0.8347
449.40 0.8351
449.50 0.8355
449.60 0.8359
449.70 0.8362
449.80 0.8366
449.90 0.837
450.00 0.8374
450.10 0.8377
450.20 0.8381
450.30 0.8385
450.40 0.8389
450.50 0.8392
450.60 0.8396
450.70 0.84
450.80 0.8403
450.90 0.8407
451.00 0.8411
451.10 0.8415
451.20 0.8418
451.30 0.8422
451.40 0.8426
451.50 0.843
451.60 0.8433
451.70 0.8437
451.80 0.8441
451.90 0.8444
452.00 0.8448
452.10 0.8452
452.20 0.8455
452.30 0.8459
452.40 0.8463
452.50 0.8467
452.60 0.847
452.70 0.8474
452.80 0.8478
452.90 0.8481
453.00 0.8485
453.10 0.8489
453.20 0.8492
453.30 0.8496
453.40 0.85
453.50 0.8503
453.60 0.8507
453.70 0.8511
453.80 0.8515
453.90 0.8518
454.00 0.8522
454.10 0.8526
454.20 0.8529
454.30 0.8533
454.40 0.8537
454.50 0.854
454.60 0.8544
454.70 0.8548
454.80 0.8551
454.90 0.8555
455.00 0.8559
455.10 0.8562
455.20 0.8566
455.30 0.8569
455.40 0.8573
455.50 0.8577
455.60 0.858
455.70 0.8584
455.80 0.8588
455.90 0.8591
456.00 0.8595
456.10 0.8599
456.20 0.8602
456.30 0.8606
456.40 0.8609
456.50 0.8613
456.60 0.8617
456.70 0.862
456.80 0.8624
456.90 0.8628
457.00 0.8631
457.10 0.8635
457.20 0.8638
457.30 0.8642
457.40 0.8646
457.50 0.8649
457.60 0.8653
457.70 0.8656
457.80 0.866
457.90 0.8664
458.00 0.8667
458.10 0.8671
458.20 0.8674
458.30 0.8678
458.40 0.8682
458.50 0.8685
458.60 0.8689
458.70 0.8692
458.80 0.8696
458.90 0.87
459.00 0.8703
459.10 0.8707
459.20 0.871
459.30 0.8714
459.40 0.8717
459.50 0.8721
459.60 0.8725
459.70 0.8728
459.80 0.8732
459.90 0.8735
460.00 0.8739
460.10 0.8742
460.20 0.8746
460.30 0.8749
460.40 0.8753
460.50 0.8757
460.60 0.876
460.70 0.8764
460.80 0.8767
460.90 0.8771
461.00 0.8774
461.10 0.8778
461.20 0.8781
461.30 0.8785
461.40 0.8788
461.50 0.8792
461.60 0.8795
461.70 0.8799
461.80 0.8803
461.90 0.8806
462.00 0.881
462.10 0.8813
462.20 0.8817
462.30 0.882
462.40 0.8824
462.50 0.8827
462.60 0.8831
462.70 0.8834
462.80 0.8838
462.90 0.8841
463.00 0.8845
463.10 0.8848
463.20 0.8852
463.30 0.8855
463.40 0.8859
463.50 0.8862
463.60 0.8866
463.70 0.8869
463.80 0.8873
463.90 0.8876
464.00 0.888
464.10 0.8883
464.20 0.8887
464.30 0.889
464.40 0.8893
464.50 0.8897
464.60 0.89
464.70 0.8904
464.80 0.8907
464.90 0.8911
465.00 0.8914
465.10 0.8918
465.20 0.8921
465.30 0.8925
465.40 0.8928
465.50 0.8932
465.60 0.8935
465.70 0.8938
465.80 0.8942
465.90 0.8945
466.00 0.8949
466.10 0.8952
466.20 0.8956
466.30 0.8959
466.40 0.8963
466.50 0.8966
466.60 0.8969
466.70 0.8973
466.80 0.8976
466.90 0.898
467.00 0.8983
467.10 0.8987
467.20 0.899
467.30 0.8993
467.40 0.8997
467.50 0.9
467.60 0.9004
467.70 0.9007
467.80 0.901
467.90 0.9014
468.00 0.9017
468.10 0.9021
468.20 0.9024
468.30 0.9027
468.40 0.9031
468.50 0.9034
468.60 0.9038
468.70 0.9041
468.80 0.9044
468.90 0.9048
469.00 0.9051
469.10 0.9055
469.20 0.9058
469.30 0.9061
469.40 0.9065
469.50 0.9068
469.60 0.9071
469.70 0.9075
469.80 0.9078
469.90 0.9081
470.00 0.9085
470.10 0.9088
470.20 0.9092
470.30 0.9095
470.40 0.9098
470.50 0.9102
470.60 0.9105
470.70 0.9108
470.80 0.9112
470.90 0.9115
471.00 0.9118
471.10 0.9122
471.20 0.9125
471.30 0.9128
471.40 0.9132
471.50 0.9135
471.60 0.9138
471.70 0.9142
471.80 0.9145
471.90 0.9148
472.00 0.9152
472.10 0.9155
472.20 0.9158
472.30 0.9162
472.40 0.9165
472.50 0.9168
472.60 0.9171
472.70 0.9175
472.80 0.9178
472.90 0.9181
473.00 0.9185
473.10 0.9188
473.20 0.9191
473.30 0.9195
473.40 0.9198
473.50 0.9201
473.60 0.9204
473.70 0.9208
473.80 0.9211
473.90 0.9214
474.00 0.9218
474.10 0.9221
474.20 0.9224
474.30 0.9227
474.40 0.9231
474.50 0.9234
474.60 0.9237
474.70 0.924
474.80 0.9244
474.90 0.9247
475.00 0.925
475.10 0.9254
475.20 0.9257
475.30 0.926
475.40 0.9263
475.50 0.9267
475.60 0.927
475.70 0.9273
475.80 0.9276
475.90 0.928
476.00 0.9283
476.10 0.9286
476.20 0.9289
476.30 0.9293
476.40 0.9296
476.50 0.9299
476.60 0.9302
476.70 0.9305
476.80 0.9309
476.90 0.9312
477.00 0.9315
477.10 0.9318
477.20 0.9321
477.30 0.9325
477.40 0.9328
477.50 0.9331
477.60 0.9334
477.70 0.9338
477.80 0.9341
477.90 0.9344
478.00 0.9347
478.10 0.935
478.20 0.9353
478.30 0.9357
478.40 0.936
478.50 0.9363
478.60 0.9366
478.70 0.9369
478.80 0.9373
478.90 0.9376
479.00 0.9379
479.10 0.9382
479.20 0.9385
479.30 0.9389
479.40 0.9392
479.50 0.9395
479.60 0.9398
479.70 0.9401
479.80 0.9404
479.90 0.9407
480.00 0.9411
480.10 0.9414
480.20 0.9417
480.30 0.942
480.40 0.9423
480.50 0.9426
480.60 0.943
480.70 0.9433
480.80 0.9436
480.90 0.9439
481.00 0.9442
481.10 0.9445
481.20 0.9448
481.30 0.9452
481.40 0.9455
481.50 0.9458
481.60 0.9461
481.70 0.9464
481.80 0.9467
481.90 0.947
482.00 0.9473
482.10 0.9476
482.20 0.948
482.30 0.9483
482.40 0.9486
482.50 0.9489
482.60 0.9492
482.70 0.9495
482.80 0.9498
482.90 0.9501
483.00 0.9504
483.10 0.9508
483.20 0.9511
483.30 0.9514
483.40 0.9517
483.50 0.952
483.60 0.9523
483.70 0.9526
483.80 0.9529
483.90 0.9532
484.00 0.9535
484.10 0.9538
484.20 0.9541
484.30 0.9544
484.40 0.9547
484.50 0.955
484.60 0.9553
484.70 0.9556
484.80 0.9559
484.90 0.9562
485.00 0.9565
485.10 0.9568
485.20 0.9571
485.30 0.9574
485.40 0.9577
485.50 0.958
485.60 0.9583
485.70 0.9585
485.80 0.9587
485.90 0.9589
486.00 0.959
486.10 0.9591
486.20 0.9595
486.30 0.96
486.40 0.9605
486.50 0.9609
486.60 0.9613
486.70 0.9616
486.80 0.9619
486.90 0.9623
487.00 0.9626
487.10 0.9629
487.20 0.9632
487.30 0.9635
487.40 0.9638
487.50 0.9641
487.60 0.9644
487.70 0.9647
487.80 0.965
487.90 0.9653
488.00 0.9656
488.10 0.9659
488.20 0.9662
488.30 0.9665
488.40 0.9668
488.50 0.9671
488.60 0.9674
488.70 0.9677
488.80 0.968
488.90 0.9683
489.00 0.9686
489.10 0.9689
489.20 0.9692
489.30 0.9695
489.40 0.9698
489.50 0.9701
489.60 0.9704
489.70 0.9707
489.80 0.971
489.90 0.9713
490.00 0.9716
490.10 0.9719
490.20 0.9722
490.30 0.9725
490.40 0.9728
490.50 0.9731
490.60 0.9734
490.70 0.9737
490.80 0.9739
490.90 0.9742
491.00 0.9745
491.10 0.9748
491.20 0.9751
491.30 0.9754
491.40 0.9757
491.50 0.976
491.60 0.9763
491.70 0.9766
491.80 0.9769
491.90 0.9772
492.00 0.9774
492.10 0.9777
492.20 0.978
492.30 0.9783
492.40 0.9786
492.50 0.9789
492.60 0.9792
492.70 0.9795
492.80 0.9798
492.90 0.98
493.00 0.9803
493.10 0.9806
493.20 0.9809
493.30 0.9812
493.40 0.9815
493.50 0.9818
493.60 0.982
493.70 0.9823
493.80 0.9826
493.90 0.9829
494.00 0.9832
494.10 0.9835
494.20 0.9837
494.30 0.984
494.40 0.9843
494.50 0.9846
494.60 0.9849
494.70 0.9852
494.80 0.9855
494.90 0.9858
495.00 0.9861
495.10 0.9864
495.20 0.9866
495.30 0.9869
495.40 0.9872
495.50 0.9875
495.60 0.9878
495.70 0.988
495.80 0.9883
495.90 0.9886
496.00 0.9889
496.10 0.9892
496.20 0.9894
496.30 0.9897
496.40 0.99
496.50 0.9903
496.60 0.9906
496.70 0.9909
496.80 0.9911
496.90 0.9914
497.00 0.9917
497.10 0.992
497.20 0.9923
497.30 0.9926
497.40 0.9929
497.50 0.9931
497.60 0.9934
497.70 0.9937
497.80 0.994
497.90 0.9943
498.00 0.9945
498.10 0.9948
498.20 0.9951
498.30 0.9954
498.40 0.9956
498.50 0.9959
498.60 0.9962
498.70 0.9964
498.80 0.9967
498.90 0.997
499.00 0.9973
499.10 0.9975
499.20 0.9978
499.30 0.9981
499.40 0.9983
499.50 0.9986
499.60 0.9989
499.70 0.9992
499.80 0.9994
499.90 0.9997
500.00 1
500.10 1
500.20 1.001
500.30 1.001
500.40 1.001
500.50 1.001
500.60 1.002
500.70 1.002
500.80 1.002
500.90 1.002
501.00 1.003
501.10 1.003
501.20 1.003
501.30 1.004
501.40 1.004
501.50 1.004
501.60 1.004
501.70 1.005
501.80 1.005
501.90 1.005
502.00 1.005
502.10 1.006
502.20 1.006
502.30 1.006
502.40 1.007
502.50 1.007
502.60 1.007
502.70 1.007
502.80 1.008
502.90 1.008
503.00 1.008
503.10 1.008
503.20 1.009
503.30 1.009
503.40 1.009
503.50 1.009
503.60 1.01
503.70 1.01
503.80 1.01
503.90 1.01
504.00 1.011
504.10 1.011
504.20 1.011
504.30 1.012
504.40 1.012
504.50 1.012
504.60 1.012
504.70 1.013
504.80 1.013
504.90 1.013
505.00 1.013
505.10 1.014
505.20 1.014
505.30 1.014
505.40 1.014
505.50 1.015
505.60 1.015
505.70 1.015
505.80 1.016
505.90 1.016
506.00 1.016
506.10 1.016
506.20 1.017
506.30 1.017
506.40 1.017
506.50 1.017
506.60 1.018
506.70 1.018
506.80 1.018
506.90 1.018
507.00 1.019
507.10 1.019
507.20 1.019
507.30 1.019
507.40 1.02
507.50 1.02
507.60 1.02
507.70 1.02
507.80 1.021
507.90 1.021
508.00 1.021
508.10 1.021
508.20 1.022
508.30 1.022
508.40 1.022
508.50 1.023
508.60 1.023
508.70 1.023
508.80 1.023
508.90 1.024
509.00 1.024
509.10 1.024
509.20 1.024
509.30 1.025
509.40 1.025
509.50 1.025
509.60 1.025
509.70 1.026
509.80 1.026
509.90 1.026
510.00 1.026
510.10 1.027
510.20 1.027
510.30 1.027
510.40 1.027
510.50 1.028
510.60 1.028
510.70 1.028
510.80 1.028
510.90 1.029
511.00 1.029
511.10 1.029
511.20 1.029
511.30 1.03
511.40 1.03
511.50 1.03
511.60 1.03
511.70 1.031
511.80 1.031
511.90 1.031
512.00 1.031
512.10 1.032
512.20 1.032
512.30 1.032
512.40 1.032
512.50 1.033
512.60 1.033
512.70 1.033
512.80 1.033
512.90 1.034
513.00 1.034
513.10 1.034
513.20 1.034
513.30 1.035
513.40 1.035
513.50 1.035
513.60 1.035
513.70 1.036
513.80 1.036
513.90 1.036
514.00 1.036
514.10 1.037
514.20 1.037
514.30 1.037
514.40 1.037
514.50 1.037
514.60 1.038
514.70 1.038
514.80 1.038
514.90 1.038
515.00 1.039
515.10 1.039
515.20 1.039
515.30 1.039
515.40 1.04
515.50 1.04
515.60 1.04
515.70 1.04
515.80 1.041
515.90 1.041
516.00 1.041
516.10 1.041
516.20 1.042
516.30 1.042
516.40 1.042
516.50 1.042
516.60 1.043
516.70 1.043
516.80 1.043
516.90 1.043
517.00 1.043
517.10 1.044
517.20 1.044
517.30 1.044
517.40 1.044
517.50 1.045
517.60 1.045
517.70 1.045
517.80 1.045
517.90 1.046
518.00 1.046
518.10 1.046
518.20 1.046
518.30 1.047
518.40 1.047
518.50 1.047
518.60 1.047
518.70 1.047
518.80 1.048
518.90 1.048
519.00 1.048
519.10 1.048
519.20 1.049
519.30 1.049
519.40 1.049
519.50 1.049
519.60 1.05
519.70 1.05
519.80 1.05
519.90 1.05
520.00 1.051
520.10 1.051
520.20 1.051
520.30 1.051
520.40 1.051
520.50 1.052
520.60 1.052
520.70 1.052
520.80 1.052
520.90 1.053
521.00 1.053
521.10 1.053
521.20 1.053
521.30 1.053
521.40 1.054
521.50 1.054
521.60 1.054
521.70 1.054
521.80 1.055
521.90 1.055
522.00 1.055
522.10 1.055
522.20 1.056
522.30 1.056
522.40 1.056
522.50 1.056
522.60 1.056
522.70 1.057
522.80 1.057
522.90 1.057
523.00 1.057
523.10 1.058
523.20 1.058
523.30 1.058
523.40 1.058
523.50 1.058
523.60 1.059
523.70 1.059
523.80 1.059
523.90 1.059
524.00 1.06
524.10 1.06
524.20 1.06
524.30 1.06
524.40 1.06
524.50 1.061
524.60 1.061
524.70 1.061
524.80 1.061
524.90 1.062
525.00 1.062
525.10 1.062
525.20 1.062
525.30 1.062
525.40 1.063
525.50 1.063
525.60 1.063
525.70 1.063
525.80 1.064
525.90 1.064
526.00 1.064
526.10 1.064
526.20 1.064
526.30 1.065
526.40 1.065
526.50 1.065
526.60 1.065
526.70 1.066
526.80 1.066
526.90 1.066
527.00 1.066
527.10 1.066
527.20 1.067
527.30 1.067
527.40 1.067
527.50 1.067
527.60 1.067
527.70 1.068
527.80 1.068
527.90 1.068
528.00 1.068
528.10 1.069
528.20 1.069
528.30 1.069
528.40 1.069
528.50 1.069
528.60 1.07
528.70 1.07
528.80 1.07
528.90 1.07
529.00 1.07
529.10 1.071
529.20 1.071
529.30 1.071
529.40 1.071
529.50 1.072
529.60 1.072
529.70 1.072
529.80 1.072
529.90 1.072
530.00 1.073
530.10 1.073
530.20 1.073
530.30 1.073
530.40 1.073
530.50 1.074
530.60 1.074
530.70 1.074
530.80 1.074
530.90 1.074
531.00 1.075
531.10 1.075
531.20 1.075
531.30 1.075
531.40 1.076
531.50 1.076
531.60 1.076
531.70 1.076
531.80 1.076
531.90 1.077
532.00 1.077
532.10 1.077
532.20 1.077
532.30 1.077
532.40 1.078
532.50 1.078
532.60 1.078
532.70 1.078
532.80 1.078
532.90 1.079
533.00 1.079
533.10 1.079
533.20 1.079
533.30 1.079
533.40 1.08
533.50 1.08
533.60 1.08
533.70 1.08
533.80 1.08
533.90 1.081
534.00 1.081
534.10 1.081
534.20 1.081
534.30 1.081
534.40 1.082
534.50 1.082
534.60 1.082
534.70 1.082
534.80 1.082
534.90 1.083
535.00 1.083
535.10 1.083
535.20 1.083
535.30 1.083
535.40 1.084
535.50 1.084
535.60 1.084
535.70 1.084
535.80 1.084
535.90 1.085
536.00 1.085
536.10 1.085
536.20 1.085
536.30 1.085
536.40 1.086
536.50 1.086
536.60 1.086
536.70 1.086
536.80 1.086
536.90 1.087
537.00 1.087
537.10 1.087
537.20 1.087
537.30 1.087
537.40 1.088
537.50 1.088
537.60 1.088
537.70 1.088
537.80 1.088
537.90 1.089
538.00 1.089
538.10 1.089
538.20 1.089
538.30 1.089
538.40 1.09
538.50 1.09
538.60 1.09
538.70 1.09
538.80 1.09
538.90 1.091
539.00 1.091
539.10 1.091
539.20 1.091
539.30 1.091
539.40 1.091
539.50 1.092
539.60 1.092
539.70 1.092
539.80 1.092
539.90 1.092
540.00 1.093
540.10 1.093
540.20 1.093
540.30 1.093
540.40 1.093
540.50 1.094
540.60 1.094
540.70 1.094
540.80 1.094
540.90 1.094
541.00 1.095
541.10 1.095
541.20 1.095
541.30 1.095
541.40 1.095
541.50 1.095
541.60 1.096
541.70 1.096
541.80 1.096
541.90 1.096
542.00 1.096
542.10 1.097
542.20 1.097
542.30 1.097
542.40 1.097
542.50 1.097
542.60 1.097
542.70 1.098
542.80 1.098
542.90 1.098
543.00 1.098
543.10 1.098
543.20 1.099
543.30 1.099
543.40 1.099
543.50 1.099
543.60 1.099
543.70 1.1
543.80 1.1
543.90 1.1
544.00 1.1
544.10 1.1
544.20 1.1
544.30 1.101
544.40 1.101
544.50 1.101
544.60 1.101
544.70 1.101
544.80 1.101
544.90 1.102
545.00 1.102
545.10 1.102
545.20 1.102
545.30 1.102
545.40 1.103
545.50 1.103
545.60 1.103
545.70 1.103
545.80 1.103
545.90 1.103
546.00 1.104
546.10 1.104
546.20 1.104
546.30 1.104
546.40 1.104
546.50 1.105
546.60 1.105
546.70 1.105
546.80 1.105
546.90 1.105
547.00 1.105
547.10 1.106
547.20 1.106
547.30 1.106
547.40 1.106
547.50 1.106
547.60 1.106
547.70 1.107
547.80 1.107
547.90 1.107
548.00 1.107
548.10 1.107
548.20 1.108
548.30 1.108
548.40 1.108
548.50 1.108
548.60 1.108
548.70 1.108
548.80 1.109
548.90 1.109
549.00 1.109
549.10 1.109
549.20 1.109
549.30 1.109
549.40 1.11
549.50 1.11
549.60 1.11
549.70 1.11
549.80 1.11
549.90 1.11
550.00 1.111
550.10 1.111
550.20 1.111
550.30 1.111
550.40 1.111
550.50 1.111
550.60 1.112
550.70 1.112
550.80 1.112
550.90 1.112
551.00 1.112
551.10 1.112
551.20 1.113
551.30 1.113
551.40 1.113
551.50 1.113
551.60 1.113
551.70 1.113
551.80 1.114
551.90 1.114
552.00 1.114
552.10 1.114
552.20 1.114
552.30 1.114
552.40 1.115
552.50 1.115
552.60 1.115
552.70 1.115
552.80 1.115
552.90 1.115
553.00 1.116
553.10 1.116
553.20 1.116
553.30 1.116
553.40 1.116
553.50 1.116
553.60 1.117
553.70 1.117
553.80 1.117
553.90 1.117
554.00 1.117
554.10 1.117
554.20 1.118
554.30 1.118
554.40 1.118
554.50 1.118
554.60 1.118
554.70 1.118
554.80 1.118
554.90 1.119
555.00 1.119
555.10 1.119
555.20 1.119
555.30 1.119
555.40 1.119
555.50 1.12
555.60 1.12
555.70 1.12
555.80 1.12
555.90 1.12
556.00 1.12
556.10 1.121
556.20 1.121
556.30 1.121
556.40 1.121
556.50 1.121
556.60 1.121
556.70 1.122
556.80 1.122
556.90 1.122
557.00 1.122
557.10 1.122
557.20 1.122
557.30 1.122
557.40 1.123
557.50 1.123
557.60 1.123
557.70 1.123
557.80 1.123
557.90 1.123
558.00 1.124
558.10 1.124
558.20 1.124
558.30 1.124
558.40 1.124
558.50 1.124
558.60 1.124
558.70 1.125
558.80 1.125
558.90 1.125
559.00 1.125
559.10 1.125
559.20 1.125
559.30 1.126
559.40 1.126
559.50 1.126
559.60 1.126
559.70 1.126
559.80 1.126
559.90 1.126
560.00 1.127
560.10 1.127
560.20 1.127
560.30 1.127
560.40 1.127
560.50 1.127
560.60 1.127
560.70 1.128
560.80 1.128
560.90 1.128
561.00 1.128
561.10 1.128
561.20 1.128
561.30 1.129
561.40 1.129
561.50 1.129
561.60 1.129
561.70 1.129
561.80 1.129
561.90 1.129
562.00 1.13
562.10 1.13
562.20 1.13
562.30 1.13
562.40 1.13
562.50 1.13
562.60 1.13
562.70 1.131
562.80 1.131
562.90 1.131
563.00 1.131
563.10 1.131
563.20 1.131
563.30 1.131
563.40 1.132
563.50 1.132
563.60 1.132
563.70 1.132
563.80 1.132
563.90 1.132
564.00 1.132
564.10 1.133
564.20 1.133
564.30 1.133
564.40 1.133
564.50 1.133
564.60 1.133
564.70 1.133
564.80 1.134
564.90 1.134
565.00 1.134
565.10 1.134
565.20 1.134
565.30 1.134
565.40 1.134
565.50 1.135
565.60 1.135
565.70 1.135
565.80 1.135
565.90 1.135
566.00 1.135
566.10 1.135
566.20 1.136
566.30 1.136
566.40 1.136
566.50 1.136
566.60 1.136
566.70 1.136
566.80 1.136
566.90 1.136
567.00 1.137
567.10 1.137
567.20 1.137
567.30 1.137
567.40 1.137
567.50 1.137
567.60 1.137
567.70 1.138
567.80 1.138
567.90 1.138
568.00 1.138
568.10 1.138
568.20 1.138
568.30 1.138
568.40 1.139
568.50 1.139
568.60 1.139
568.70 1.139
568.80 1.139
568.90 1.139
569.00 1.139
569.10 1.139
569.20 1.14
569.30 1.14
569.40 1.14
569.50 1.14
569.60 1.14
569.70 1.14
569.80 1.14
569.90 1.14
570.00 1.141
570.10 1.141
570.20 1.141
570.30 1.141
570.40 1.141
570.50 1.141
570.60 1.141
570.70 1.142
570.80 1.142
570.90 1.142
571.00 1.142
571.10 1.142
571.20 1.142
571.30 1.142
571.40 1.142
571.50 1.143
571.60 1.143
571.70 1.143
571.80 1.143
571.90 1.143
572.00 1.143
572.10 1.143
572.20 1.143
572.30 1.144
572.40 1.144
572.50 1.144
572.60 1.144
572.70 1.144
572.80 1.144
572.90 1.144
573.00 1.144
573.10 1.145
573.20 1.145
573.30 1.145
573.40 1.145
573.50 1.145
573.60 1.145
573.70 1.145
573.80 1.145
573.90 1.146
574.00 1.146
574.10 1.146
574.20 1.146
574.30 1.146
574.40 1.146
574.50 1.146
574.60 1.146
574.70 1.147
574.80 1.147
574.90 1.147
575.00 1.147
575.10 1.147
575.20 1.147
575.30 1.147
575.40 1.147
575.50 1.148
575.60 1.148
575.70 1.148
575.80 1.148
575.90 1.148
576.00 1.148
576.10 1.148
576.20 1.148
576.30 1.149
576.40 1.149
576.50 1.149
576.60 1.149
576.70 1.149
576.80 1.149
576.90 1.149
577.00 1.149
577.10 1.149
577.20 1.15
577.30 1.15
577.40 1.15
577.50 1.15
577.60 1.15
577.70 1.15
577.80 1.15
577.90 1.15
578.00 1.151
578.10 1.151
578.20 1.151
578.30 1.151
578.40 1.151
578.50 1.151
578.60 1.151
578.70 1.151
578.80 1.151
578.90 1.152
579.00 1.152
579.10 1.152
579.20 1.152
579.30 1.152
579.40 1.152
579.50 1.152
579.60 1.152
579.70 1.153
579.80 1.153
579.90 1.153
580.00 1.153
580.10 1.153
580.20 1.153
580.30 1.153
580.40 1.153
580.50 1.153
580.60 1.154
580.70 1.154
580.80 1.154
580.90 1.154
581.00 1.154
581.10 1.154
581.20 1.154
581.30 1.154
581.40 1.154
581.50 1.155
581.60 1.155
581.70 1.155
581.80 1.155
581.90 1.155
582.00 1.155
582.10 1.155
582.20 1.155
582.30 1.155
582.40 1.155
582.50 1.156
582.60 1.156
582.70 1.156
582.80 1.156
582.90 1.156
583.00 1.156
583.10 1.156
583.20 1.156
583.30 1.156
583.40 1.157
583.50 1.157
583.60 1.157
583.70 1.157
583.80 1.157
583.90 1.157
584.00 1.157
584.10 1.157
584.20 1.157
584.30 1.158
584.40 1.158
584.50 1.158
584.60 1.158
584.70 1.158
584.80 1.158
584.90 1.158
585.00 1.158
585.10 1.158
585.20 1.158
585.30 1.159
585.40 1.159
585.50 1.159
585.60 1.159
585.70 1.159
585.80 1.159
585.90 1.159
586.00 1.159
586.10 1.159
586.20 1.16
586.30 1.16
586.40 1.16
586.50 1.16
586.60 1.16
586.70 1.16
586.80 1.16
586.90 1.16
587.00 1.16
587.10 1.16
587.20 1.16
587.30 1.161
587.40 1.161
587.50 1.161
587.60 1.161
587.70 1.161
587.80 1.161
587.90 1.161
588.00 1.161
588.10 1.161
588.20 1.161
588.30 1.162
588.40 1.162
588.50 1.162
588.60 1.162
588.70 1.162
588.80 1.162
588.90 1.162
589.00 1.162
589.10 1.162
589.20 1.162
589.30 1.163
589.40 1.163
589.50 1.163
589.60 1.163
589.70 1.163
589.80 1.163
589.90 1.163
590.00 1.163
590.10 1.163
590.20 1.163
590.30 1.164
590.40 1.164
590.50 1.164
590.60 1.164
590.70 1.164
590.80 1.164
590.90 1.164
591.00 1.164
591.10 1.164
591.20 1.164
591.30 1.164
591.40 1.165
591.50 1.165
591.60 1.165
591.70 1.165
591.80 1.165
591.90 1.165
592.00 1.165
592.10 1.165
592.20 1.165
592.30 1.165
592.40 1.165
592.50 1.166
592.60 1.166
592.70 1.166
592.80 1.166
592.90 1.166
593.00 1.166
593.10 1.166
593.20 1.166
593.30 1.166
593.40 1.166
593.50 1.166
593.60 1.167
593.70 1.167
593.80 1.167
593.90 1.167
594.00 1.167
594.10 1.167
594.20 1.167
594.30 1.167
594.40 1.167
594.50 1.167
594.60 1.167
594.70 1.168
594.80 1.168
594.90 1.168
595.00 1.168
595.10 1.168
595.20 1.168
595.30 1.168
595.40 1.168
595.50 1.168
595.60 1.168
595.70 1.168
595.80 1.168
595.90 1.169
596.00 1.169
596.10 1.169
596.20 1.169
596.30 1.169
596.40 1.169
596.50 1.169
596.60 1.169
596.70 1.169
596.80 1.169
596.90 1.169
597.00 1.169
597.10 1.17
597.20 1.17
597.30 1.17
597.40 1.17
597.50 1.17
597.60 1.17
597.70 1.17
597.80 1.17
597.90 1.17
598.00 1.17
598.10 1.17
598.20 1.17
598.30 1.171
598.40 1.171
598.50 1.171
598.60 1.171
598.70 1.171
598.80 1.171
598.90 1.171
599.00 1.171
599.10 1.171
599.20 1.171
599.30 1.171
599.40 1.171
599.50 1.172
599.60 1.172
599.70 1.172
599.80 1.172
599.90 1.172
600.00 1.172
600.10 1.172
600.20 1.172
600.30 1.172
600.40 1.172
600.50 1.172
600.60 1.172
600.70 1.172
600.80 1.173
600.90 1.173
601.00 1.173
601.10 1.173
601.20 1.173
601.30 1.173
601.40 1.173
601.50 1.173
601.60 1.173
601.70 1.173
601.80 1.173
601.90 1.173
602.00 1.173
602.10 1.174
602.20 1.174
602.30 1.174
602.40 1.174
602.50 1.174
602.60 1.174
602.70 1.174
602.80 1.174
602.90 1.174
603.00 1.174
603.10 1.174
603.20 1.174
603.30 1.174
603.40 1.175
603.50 1.175
603.60 1.175
603.70 1.175
603.80 1.175
603.90 1.175
604.00 1.175
604.10 1.175
604.20 1.175
604.30 1.175
604.40 1.175
604.50 1.175
604.60 1.175
604.70 1.175
604.80 1.175
604.90 1.176
605.00 1.176
605.10 1.176
605.20 1.176
605.30 1.176
605.40 1.176
605.50 1.176
605.60 1.176
605.70 1.176
605.80 1.176
605.90 1.176
606.00 1.176
606.10 1.176
606.20 1.176
606.30 1.177
606.40 1.177
606.50 1.177
606.60 1.177
606.70 1.177
606.80 1.177
606.90 1.177
607.00 1.177
607.10 1.177
607.20 1.177
607.30 1.177
607.40 1.177
607.50 1.177
607.60 1.177
607.70 1.177
607.80 1.178
607.90 1.178
608.00 1.178
608.10 1.178
608.20 1.178
608.30 1.178
608.40 1.178
608.50 1.178
608.60 1.178
608.70 1.178
608.80 1.178
608.90 1.178
609.00 1.178
609.10 1.178
609.20 1.178
609.30 1.178
609.40 1.179
609.50 1.179
609.60 1.179
609.70 1.179
609.80 1.179
609.90 1.179
610.00 1.179
610.10 1.179
610.20 1.179
610.30 1.179
610.40 1.179
610.50 1.179
610.60 1.179
610.70 1.179
610.80 1.179
610.90 1.18
611.00 1.18
611.10 1.18
611.20 1.18
611.30 1.18
611.40 1.18
611.50 1.18
611.60 1.18
611.70 1.18
611.80 1.18
611.90 1.18
612.00 1.18
612.10 1.18
612.20 1.18
612.30 1.18
612.40 1.18
612.50 1.18
612.60 1.181
612.70 1.181
612.80 1.181
612.90 1.181
613.00 1.181
613.10 1.181
613.20 1.181
613.30 1.181
613.40 1.181
613.50 1.181
613.60 1.181
613.70 1.181
613.80 1.181
613.90 1.181
614.00 1.181
614.10 1.181
614.20 1.181
614.30 1.181
614.40 1.182
614.50 1.182
614.60 1.182
614.70 1.182
614.80 1.182
614.90 1.182
615.00 1.182
615.10 1.182
615.20 1.182
615.30 1.182
615.40 1.182
615.50 1.182
615.60 1.182
615.70 1.182
615.80 1.182
615.90 1.182
616.00 1.182
616.10 1.182
616.20 1.183
616.30 1.183
616.40 1.183
616.50 1.183
616.60 1.183
616.70 1.183
616.80 1.183
616.90 1.183
617.00 1.183
617.10 1.183
617.20 1.183
617.30 1.183
617.40 1.183
617.50 1.183
617.60 1.183
617.70 1.183
617.80 1.183
617.90 1.183
618.00 1.183
618.10 1.183
618.20 1.184
618.30 1.184
618.40 1.184
618.50 1.184
618.60 1.184
618.70 1.184
618.80 1.184
618.90 1.184
619.00 1.184
619.10 1.184
619.20 1.184
619.30 1.184
619.40 1.184
619.50 1.184
619.60 1.184
619.70 1.184
619.80 1.184
619.90 1.184
620.00 1.184
620.10 1.184
620.20 1.184
620.30 1.185
620.40 1.185
620.50 1.185
620.60 1.185
620.70 1.185
620.80 1.185
620.90 1.185
621.00 1.185
621.10 1.185
621.20 1.185
621.30 1.185
621.40 1.185
621.50 1.185
621.60 1.185
621.70 1.185
621.80 1.185
621.90 1.185
622.00 1.185
622.10 1.185
622.20 1.185
622.30 1.185
622.40 1.186
622.50 1.186
622.60 1.186
622.70 1.186
622.80 1.186
622.90 1.186
623.00 1.186
623.10 1.186
623.20 1.186
623.30 1.186
623.40 1.186
623.50 1.186
623.60 1.186
623.70 1.186
623.80 1.186
623.90 1.186
624.00 1.186
624.10 1.186
624.20 1.186
624.30 1.186
624.40 1.186
624.50 1.186
624.60 1.186
624.70 1.186
624.80 1.186
624.90 1.187
625.00 1.187
625.10 1.187
625.20 1.187
625.30 1.187
625.40 1.187
625.50 1.187
625.60 1.187
625.70 1.187
625.80 1.187
625.90 1.187
626.00 1.187
626.10 1.187
626.20 1.187
626.30 1.187
626.40 1.187
626.50 1.187
626.60 1.187
626.70 1.187
626.80 1.187
626.90 1.187
627.00 1.187
627.10 1.187
627.20 1.187
627.30 1.187
627.40 1.187
627.50 1.188
627.60 1.188
627.70 1.188
627.80 1.188
627.90 1.188
628.00 1.188
628.10 1.188
628.20 1.188
628.30 1.188
628.40 1.188
628.50 1.188
628.60 1.188
628.70 1.188
628.80 1.188
628.90 1.188
629.00 1.188
629.10 1.188
629.20 1.188
629.30 1.188
629.40 1.188
629.50 1.188
629.60 1.188
629.70 1.188
629.80 1.188
629.90 1.188
630.00 1.188
630.10 1.188
630.20 1.188
630.30 1.188
630.40 1.188
630.50 1.189
630.60 1.189
630.70 1.189
630.80 1.189
630.90 1.189
631.00 1.189
631.10 1.189
631.20 1.189
631.30 1.189
631.40 1.189
631.50 1.189
631.60 1.189
631.70 1.189
631.80 1.189
631.90 1.189
632.00 1.189
632.10 1.189
632.20 1.189
632.30 1.189
632.40 1.189
632.50 1.189
632.60 1.189
632.70 1.189
632.80 1.189
632.90 1.189
633.00 1.189
633.10 1.189
633.20 1.189
633.30 1.189
633.40 1.189
633.50 1.189
633.60 1.189
633.70 1.189
633.80 1.189
633.90 1.19
634.00 1.19
634.10 1.19
634.20 1.19
634.30 1.19
634.40 1.19
634.50 1.19
634.60 1.19
634.70 1.19
634.80 1.19
634.90 1.19
635.00 1.19
635.10 1.19
635.20 1.19
635.30 1.19
635.40 1.19
635.50 1.19
635.60 1.19
635.70 1.19
635.80 1.19
635.90 1.19
636.00 1.19
636.10 1.19
636.20 1.19
636.30 1.19
636.40 1.19
636.50 1.19
636.60 1.19
636.70 1.19
636.80 1.19
636.90 1.19
637.00 1.19
637.10 1.19
637.20 1.19
637.30 1.19
637.40 1.19
637.50 1.19
637.60 1.19
637.70 1.19
637.80 1.19
637.90 1.19
638.00 1.19
638.10 1.191
638.20 1.191
638.30 1.191
638.40 1.191
638.50 1.191
638.60 1.191
638.70 1.191
638.80 1.191
638.90 1.191
639.00 1.191
639.10 1.191
639.20 1.191
639.30 1.191
639.40 1.191
639.50 1.191
639.60 1.191
639.70 1.191
639.80 1.191
639.90 1.191
640.00 1.191
640.10 1.191
640.20 1.191
640.30 1.191
640.40 1.191
640.50 1.191
640.60 1.191
640.70 1.191
640.80 1.191
640.90 1.191
641.00 1.191
641.10 1.191
641.20 1.191
641.30 1.191
641.40 1.191
641.50 1.191
641.60 1.191
641.70 1.191
641.80 1.191
641.90 1.191
642.00 1.191
642.10 1.191
642.20 1.191
642.30 1.191
642.40 1.191
642.50 1.191
642.60 1.191
642.70 1.191
642.80 1.191
642.90 1.191
643.00 1.191
643.10 1.191
643.20 1.191
643.30 1.191
643.40 1.191
643.50 1.191
643.60 1.192
643.70 1.192
643.80 1.192
643.90 1.192
644.00 1.192
644.10 1.192
644.20 1.192
644.30 1.192
644.40 1.192
644.50 1.192
644.60 1.192
644.70 1.192
644.80 1.192
644.90 1.192
645.00 1.192
645.10 1.192
645.20 1.192
645.30 1.192
645.40 1.192
645.50 1.192
645.60 1.192
645.70 1.192
645.80 1.192
645.90 1.192
646.00 1.192
646.10 1.192
646.20 1.192
646.30 1.192
646.40 1.192
646.50 1.192
646.60 1.192
646.70 1.192
646.80 1.192
646.90 1.192
647.00 1.192
647.10 1.192
647.20 1.192
647.30 1.192
647.40 1.192
647.50 1.192
647.60 1.192
647.70 1.192
647.80 1.192
647.90 1.192
648.00 1.192
648.10 1.192
648.20 1.192
648.30 1.192
648.40 1.192
648.50 1.192
648.60 1.192
648.70 1.192
648.80 1.192
648.90 1.192
649.00 1.192
649.10 1.192
649.20 1.192
649.30 1.192
649.40 1.192
649.50 1.192
649.60 1.192
649.70 1.192
649.80 1.192
649.90 1.192
650.00 1.192
650.10 1.192
650.20 1.192
650.30 1.192
650.40 1.192
650.50 1.192
650.60 1.192
650.70 1.192
650.80 1.192
650.90 1.192
651.00 1.192
651.10 1.192
651.20 1.192
651.30 1.192
651.40 1.192
651.50 1.192
651.60 1.192
651.70 1.192
651.80 1.192
651.90 1.192
652.00 1.192
652.10 1.192
652.20 1.192
652.30 1.192
652.40 1.192
652.50 1.192
652.60 1.192
652.70 1.192
652.80 1.192
652.90 1.192
653.00 1.192
653.10 1.192
653.20 1.192
653.30 1.192
653.40 1.192
653.50 1.192
653.60 1.192
653.70 1.192
653.80 1.192
653.90 1.192
654.00 1.192
654.10 1.192
654.20 1.192
654.30 1.192
654.40 1.192
654.50 1.192
654.60 1.192
654.70 1.192
654.80 1.192
654.90 1.192
655.00 1.192
655.10 1.192
655.20 1.192
655.30 1.192
655.40 1.192
655.50 1.192
655.60 1.191
655.70 1.191
655.80 1.191
655.90 1.191
656.00 1.19
656.10 1.189
656.20 1.189
656.30 1.188
656.40 1.189
656.50 1.19
656.60 1.19
656.70 1.191
656.80 1.191
656.90 1.191
657.00 1.191
657.10 1.192
657.20 1.192
657.30 1.192
657.40 1.192
657.50 1.192
657.60 1.192
657.70 1.192
657.80 1.192
657.90 1.192
658.00 1.192
658.10 1.192
658.20 1.192
658.30 1.192
658.40 1.192
658.50 1.192
658.60 1.192
658.70 1.192
658.80 1.192
658.90 1.192
659.00 1.192
659.10 1.192
659.20 1.192
659.30 1.192
659.40 1.192
659.50 1.192
659.60 1.192
659.70 1.192
659.80 1.192
659.90 1.192
660.00 1.192
660.10 1.192
660.20 1.192
660.30 1.192
660.40 1.192
660.50 1.192
660.60 1.192
660.70 1.192
660.80 1.192
660.90 1.192
661.00 1.192
661.10 1.192
661.20 1.192
661.30 1.192
661.40 1.192
661.50 1.192
661.60 1.192
661.70 1.192
661.80 1.192
661.90 1.192
662.00 1.192
662.10 1.192
662.20 1.192
662.30 1.192
662.40 1.192
662.50 1.192
662.60 1.192
662.70 1.192
662.80 1.192
662.90 1.192
663.00 1.192
663.10 1.192
663.20 1.192
663.30 1.192
663.40 1.192
663.50 1.192
663.60 1.192
663.70 1.192
663.80 1.192
663.90 1.192
664.00 1.192
664.10 1.192
664.20 1.192
664.30 1.192
664.40 1.192
664.50 1.192
664.60 1.192
664.70 1.192
664.80 1.192
664.90 1.192
665.00 1.192
665.10 1.192
665.20 1.192
665.30 1.192
665.40 1.192
665.50 1.191
665.60 1.191
665.70 1.191
665.80 1.191
665.90 1.191
666.00 1.191
666.10 1.191
666.20 1.191
666.30 1.191
666.40 1.191
666.50 1.191
666.60 1.191
666.70 1.191
666.80 1.191
666.90 1.191
667.00 1.191
667.10 1.191
667.20 1.191
667.30 1.191
667.40 1.191
667.50 1.191
667.60 1.191
667.70 1.191
667.80 1.191
667.90 1.191
668.00 1.191
668.10 1.191
668.20 1.191
668.30 1.191
668.40 1.191
668.50 1.191
668.60 1.191
668.70 1.191
668.80 1.191
668.90 1.191
669.00 1.191
669.10 1.191
669.20 1.191
669.30 1.191
669.40 1.191
669.50 1.191
669.60 1.191
669.70 1.191
669.80 1.191
669.90 1.191
670.00 1.191
670.10 1.191
670.20 1.191
670.30 1.191
670.40 1.191
670.50 1.191
670.60 1.191
670.70 1.191
670.80 1.191
670.90 1.191
671.00 1.191
671.10 1.191
671.20 1.191
671.30 1.191
671.40 1.19
671.50 1.19
671.60 1.19
671.70 1.19
671.80 1.19
671.90 1.19
672.00 1.19
672.10 1.19
672.20 1.19
672.30 1.19
672.40 1.19
672.50 1.19
672.60 1.19
672.70 1.19
672.80 1.19
672.90 1.19
673.00 1.19
673.10 1.19
673.20 1.19
673.30 1.19
673.40 1.19
673.50 1.19
673.60 1.19
673.70 1.19
673.80 1.19
673.90 1.19
674.00 1.19
674.10 1.19
674.20 1.19
674.30 1.19
674.40 1.19
674.50 1.19
674.60 1.19
674.70 1.19
674.80 1.19
674.90 1.19
675.00 1.19
675.10 1.19
675.20 1.19
675.30 1.19
675.40 1.19
675.50 1.19
675.60 1.19
675.70 1.19
675.80 1.19
675.90 1.189
676.00 1.189
676.10 1.189
676.20 1.189
676.30 1.189
676.40 1.189
676.50 1.189
676.60 1.189
676.70 1.189
676.80 1.189
676.90 1.189
677.00 1.189
677.10 1.189
677.20 1.189
677.30 1.189
677.40 1.189
677.50 1.189
677.60 1.189
677.70 1.189
677.80 1.189
677.90 1.189
678.00 1.189
678.10 1.189
678.20 1.189
678.30 1.189
678.40 1.189
678.50 1.189
678.60 1.189
678.70 1.189
678.80 1.189
678.90 1.189
679.00 1.189
679.10 1.189
679.20 1.189
679.30 1.189
679.40 1.189
679.50 1.189
679.60 1.188
679.70 1.188
679.80 1.188
679.90 1.188
680.00 1.188
680.10 1.188
680.20 1.188
680.30 1.188
680.40 1.188
680.50 1.188
680.60 1.188
680.70 1.188
680.80 1.188
680.90 1.188
681.00 1.188
681.10 1.188
681.20 1.188
681.30 1.188
681.40 1.188
681.50 1.188
681.60 1.188
681.70 1.188
681.80 1.188
681.90 1.188
682.00 1.188
682.10 1.188
682.20 1.188
682.30 1.188
682.40 1.188
682.50 1.188
682.60 1.188
682.70 1.188
682.80 1.188
682.90 1.188
683.00 1.187
683.10 1.187
683.20 1.187
683.30 1.187
683.40 1.187
683.50 1.187
683.60 1.187
683.70 1.187
683.80 1.187
683.90 1.187
684.00 1.187
684.10 1.187
684.20 1.187
684.30 1.187
684.40 1.187
684.50 1.187
684.60 1.187
684.70 1.187
684.80 1.187
684.90 1.187
685.00 1.187
685.10 1.187
685.20 1.187
685.30 1.187
685.40 1.187
685.50 1.187
685.60 1.187
685.70 1.187
685.80 1.187
685.90 1.186
686.00 1.186
686.10 1.186
686.20 1.186
686.30 1.186
686.40 1.186
686.50 1.186
686.60 1.186
686.70 1.186
686.80 1.186
686.90 1.186
687.00 1.186
687.10 1.186
687.20 1.186
687.30 1.186
687.40 1.186
687.50 1.186
687.60 1.186
687.70 1.186
687.80 1.186
687.90 1.186
688.00 1.186
688.10 1.186
688.20 1.186
688.30 1.186
688.40 1.186
688.50 1.186
688.60 1.185
688.70 1.185
688.80 1.185
688.90 1.185
689.00 1.185
689.10 1.185
689.20 1.185
689.30 1.185
689.40 1.185
689.50 1.185
689.60 1.185
689.70 1.185
689.80 1.185
689.90 1.185
690.00 1.185
690.10 1.185
690.20 1.185
690.30 1.185
690.40 1.185
690.50 1.185
690.60 1.185
690.70 1.185
690.80 1.185
690.90 1.185
691.00 1.185
691.10 1.184
691.20 1.184
691.30 1.184
691.40 1.184
691.50 1.184
691.60 1.184
691.70 1.184
691.80 1.184
691.90 1.184
692.00 1.184
692.10 1.184
692.20 1.184
692.30 1.184
692.40 1.184
692.50 1.184
692.60 1.184
692.70 1.184
692.80 1.184
692.90 1.184
693.00 1.184
693.10 1.184
693.20 1.184
693.30 1.184
693.40 1.184
693.50 1.183
693.60 1.183
693.70 1.183
693.80 1.183
693.90 1.183
694.00 1.183
694.10 1.183
694.20 1.183
694.30 1.183
694.40 1.183
694.50 1.183
694.60 1.183
694.70 1.183
694.80 1.183
694.90 1.183
695.00 1.183
695.10 1.183
695.20 1.183
695.30 1.183
695.40 1.183
695.50 1.183
695.60 1.183
695.70 1.183
695.80 1.182
695.90 1.182
696.00 1.182
696.10 1.182
696.20 1.182
696.30 1.182
696.40 1.182
696.50 1.182
696.60 1.182
696.70 1.182
696.80 1.182
696.90 1.182
697.00 1.182
697.10 1.182
697.20 1.182
697.30 1.182
697.40 1.182
697.50 1.182
697.60 1.182
697.70 1.182
697.80 1.182
697.90 1.181
698.00 1.181
698.10 1.181
698.20 1.181
698.30 1.181
698.40 1.181
698.50 1.181
698.60 1.181
698.70 1.181
698.80 1.181
698.90 1.181
699.00 1.181
699.10 1.181
699.20 1.181
699.30 1.181
699.40 1.181
699.50 1.181
699.60 1.181
699.70 1.181
699.80 1.181
699.90 1.181
700.00 1.181
700.10 1.18
700.20 1.18
700.30 1.18
700.40 1.18
700.50 1.18
700.60 1.18
700.70 1.18
700.80 1.18
700.90 1.18
701.00 1.18
701.10 1.18
701.20 1.18
701.30 1.18
701.40 1.18
701.50 1.18
701.60 1.18
701.70 1.18
701.80 1.18
701.90 1.18
702.00 1.179
702.10 1.179
702.20 1.179
702.30 1.179
702.40 1.179
702.50 1.179
702.60 1.179
702.70 1.179
702.80 1.179
702.90 1.179
703.00 1.179
703.10 1.179
703.20 1.179
703.30 1.179
703.40 1.179
703.50 1.179
703.60 1.179
703.70 1.179
703.80 1.179
703.90 1.179
704.00 1.178
704.10 1.178
704.20 1.178
704.30 1.178
704.40 1.178
704.50 1.178
704.60 1.178
704.70 1.178
704.80 1.178
704.90 1.178
705.00 1.178
705.10 1.178
705.20 1.178
705.30 1.178
705.40 1.178
705.50 1.178
705.60 1.178
705.70 1.178
705.80 1.178
705.90 1.177
706.00 1.177
706.10 1.177
706.20 1.177
706.30 1.177
706.40 1.177
706.50 1.177
706.60 1.177
706.70 1.177
706.80 1.177
706.90 1.177
707.00 1.177
707.10 1.177
707.20 1.177
707.30 1.177
707.40 1.177
707.50 1.177
707.60 1.177
707.70 1.176
707.80 1.176
707.90 1.176
708.00 1.176
708.10 1.176
708.20 1.176
708.30 1.176
708.40 1.176
708.50 1.176
708.60 1.176
708.70 1.176
708.80 1.176
708.90 1.176
709.00 1.176
709.10 1.176
709.20 1.176
709.30 1.176
709.40 1.175
709.50 1.175
709.60 1.175
709.70 1.175
709.80 1.175
709.90 1.175
710.00 1.175
710.10 1.175
710.20 1.175
710.30 1.175
710.40 1.175
710.50 1.175
710.60 1.175
710.70 1.175
710.80 1.175
710.90 1.175
711.00 1.175
711.10 1.174
711.20 1.174
711.30 1.174
711.40 1.174
711.50 1.174
711.60 1.174
711.70 1.174
711.80 1.174
711.90 1.174
712.00 1.174
712.10 1.174
712.20 1.174
712.30 1.174
712.40 1.174
712.50 1.174
712.60 1.174
712.70 1.174
712.80 1.173
712.90 1.173
713.00 1.173
713.10 1.173
713.20 1.173
713.30 1.173
713.40 1.173
713.50 1.173
713.60 1.173
713.70 1.173
713.80 1.173
713.90 1.173
714.00 1.173
714.10 1.173
714.20 1.173
714.30 1.173
714.40 1.173
714.50 1.172
714.60 1.172
714.70 1.172
714.80 1.172
714.90 1.172
715.00 1.172
715.10 1.172
715.20 1.172
715.30 1.172
715.40 1.172
715.50 1.172
715.60 1.172
715.70 1.172
715.80 1.172
715.90 1.172
716.00 1.172
716.10 1.171
716.20 1.171
716.30 1.171
716.40 1.171
716.50 1.171
716.60 1.171
716.70 1.171
716.80 1.171
716.90 1.171
717.00 1.171
717.10 1.171
717.20 1.171
717.30 1.171
717.40 1.171
717.50 1.171
717.60 1.17
717.70 1.17
717.80 1.17
717.90 1.17
718.00 1.17
718.10 1.17
718.20 1.17
718.30 1.17
718.40 1.17
718.50 1.17
718.60 1.17
718.70 1.17
718.80 1.17
718.90 1.17
719.00 1.17
719.10 1.17
719.20 1.169
719.30 1.169
719.40 1.169
719.50 1.169
719.60 1.169
719.70 1.169
719.80 1.169
719.90 1.169
720.00 1.169
720.10 1.169
720.20 1.169
720.30 1.169
720.40 1.169
720.50 1.169
720.60 1.169
720.70 1.168
720.80 1.168
720.90 1.168
721.00 1.168
721.10 1.168
721.20 1.168
721.30 1.168
721.40 1.168
721.50 1.168
721.60 1.168
721.70 1.168
721.80 1.168
721.90 1.168
722.00 1.168
722.10 1.168
722.20 1.167
722.30 1.167
722.40 1.167
722.50 1.167
722.60 1.167
722.70 1.167
722.80 1.167
722.90 1.167
723.00 1.167
723.10 1.167
723.20 1.167
723.30 1.167
723.40 1.167
723.50 1.167
723.60 1.167
723.70 1.166
723.80 1.166
723.90 1.166
724.00 1.166
724.10 1.166
724.20 1.166
724.30 1.166
724.40 1.166
724.50 1.166
724.60 1.166
724.70 1.166
724.80 1.166
724.90 1.166
725.00 1.166
725.10 1.166
725.20 1.165
725.30 1.165
725.40 1.165
725.50 1.165
725.60 1.165
725.70 1.165
725.80 1.165
725.90 1.165
726.00 1.165
726.10 1.165
726.20 1.165
726.30 1.165
726.40 1.165
726.50 1.164
726.60 1.164
726.70 1.164
726.80 1.164
726.90 1.164
727.00 1.164
727.10 1.164
727.20 1.164
727.30 1.164
727.40 1.164
727.50 1.164
727.60 1.164
727.70 1.164
727.80 1.164
727.90 1.163
728.00 1.163
728.10 1.163
728.20 1.163
728.30 1.163
728.40 1.163
728.50 1.163
728.60 1.163
728.70 1.163
728.80 1.163
728.90 1.163
729.00 1.163
729.10 1.163
729.20 1.163
729.30 1.162
729.40 1.162
729.50 1.162
729.60 1.162
729.70 1.162
729.80 1.162
729.90 1.162
730.00 1.162
730.10 1.162
730.20 1.162
730.30 1.162
730.40 1.162
730.50 1.162
730.60 1.162
730.70 1.161
730.80 1.161
730.90 1.161
731.00 1.161
731.10 1.161
731.20 1.161
731.30 1.161
731.40 1.161
731.50 1.161
731.60 1.161
731.70 1.161
731.80 1.161
731.90 1.161
732.00 1.16
732.10 1.16
732.20 1.16
732.30 1.16
732.40 1.16
732.50 1.16
732.60 1.16
732.70 1.16
732.80 1.16
732.90 1.16
733.00 1.16
733.10 1.16
733.20 1.16
733.30 1.159
733.40 1.159
733.50 1.159
733.60 1.159
733.70 1.159
733.80 1.159
733.90 1.159
734.00 1.159
734.10 1.159
734.20 1.159
734.30 1.159
734.40 1.159
734.50 1.159
734.60 1.158
734.70 1.158
734.80 1.158
734.90 1.158
735.00 1.158
735.10 1.158
735.20 1.158
735.30 1.158
735.40 1.158
735.50 1.158
735.60 1.158
735.70 1.158
735.80 1.158
735.90 1.157
736.00 1.157
736.10 1.157
736.20 1.157
736.30 1.157
736.40 1.157
736.50 1.157
736.60 1.157
736.70 1.157
736.80 1.157
736.90 1.157
737.00 1.157
737.10 1.157
737.20 1.156
737.30 1.156
737.40 1.156
737.50 1.156
737.60 1.156
737.70 1.156
737.80 1.156
737.90 1.156
738.00 1.156
738.10 1.156
738.20 1.156
738.30 1.156
738.40 1.156
738.50 1.155
738.60 1.155
738.70 1.155
738.80 1.155
738.90 1.155
739.00 1.155
739.10 1.155
739.20 1.155
739.30 1.155
739.40 1.155
739.50 1.155
739.60 1.155
739.70 1.155
739.80 1.154
739.90 1.154
740.00 1.154
740.10 1.154
740.20 1.154
740.30 1.154
740.40 1.154
740.50 1.154
740.60 1.154
740.70 1.154
740.80 1.154
740.90 1.154
741.00 1.153
741.10 1.153
741.20 1.153
741.30 1.153
741.40 1.153
741.50 1.153
741.60 1.153
741.70 1.153
741.80 1.153
741.90 1.153
742.00 1.153
742.10 1.153
742.20 1.152
742.30 1.152
742.40 1.152
742.50 1.152
742.60 1.152
742.70 1.152
742.80 1.152
742.90 1.152
743.00 1.152
743.10 1.152
743.20 1.152
743.30 1.152
743.40 1.151
743.50 1.151
743.60 1.151
743.70 1.151
743.80 1.151
743.90 1.151
744.00 1.151
744.10 1.151
744.20 1.151
744.30 1.151
744.40 1.151
744.50 1.151
744.60 1.15
744.70 1.15
744.80 1.15
744.90 1.15
745.00 1.15
745.10 1.15
745.20 1.15
745.30 1.15
745.40 1.15
745.50 1.15
745.60 1.15
745.70 1.15
745.80 1.149
745.90 1.149
746.00 1.149
746.10 1.149
746.20 1.149
746.30 1.149
746.40 1.149
746.50 1.149
746.60 1.149
746.70 1.149
746.80 1.149
746.90 1.149
747.00 1.148
747.10 1.148
747.20 1.148
747.30 1.148
747.40 1.148
747.50 1.148
747.60 1.148
747.70 1.148
747.80 1.148
747.90 1.148
748.00 1.148
748.10 1.148
748.20 1.147
748.30 1.147
748.40 1.147
748.50 1.147
748.60 1.147
748.70 1.147
748.80 1.147
748.90 1.147
749.00 1.147
749.10 1.147
749.20 1.147
749.30 1.147
749.40 1.146
749.50 1.146
749.60 1.146
749.70 1.146
749.80 1.146
749.90 1.146
750.00 1.146
750.10 1.146
750.20 1.146
750.30 1.146
750.40 1.146
750.50 1.146
750.60 1.145
750.70 1.145
750.80 1.145
750.90 1.145
751.00 1.145
751.10 1.145
751.20 1.145
751.30 1.145
751.40 1.145
751.50 1.145
751.60 1.145
751.70 1.144
751.80 1.144
751.90 1.144
752.00 1.144
752.10 1.144
752.20 1.144
752.30 1.144
752.40 1.144
752.50 1.144
752.60 1.144
752.70 1.144
752.80 1.143
752.90 1.143
753.00 1.143
753.10 1.143
753.20 1.143
753.30 1.143
753.40 1.143
753.50 1.143
753.60 1.143
753.70 1.143
753.80 1.143
753.90 1.143
754.00 1.142
754.10 1.142
754.20 1.142
754.30 1.142
754.40 1.142
754.50 1.142
754.60 1.142
754.70 1.142
754.80 1.142
754.90 1.142
755.00 1.142
755.10 1.141
755.20 1.141
755.30 1.141
755.40 1.141
755.50 1.141
755.60 1.141
755.70 1.141
755.80 1.141
755.90 1.141
756.00 1.141
756.10 1.141
756.20 1.14
756.30 1.14
756.40 1.14
756.50 1.14
756.60 1.14
756.70 1.14
756.80 1.14
756.90 1.14
757.00 1.14
757.10 1.14
757.20 1.14
757.30 1.139
757.40 1.139
757.50 1.139
757.60 1.139
757.70 1.139
757.80 1.139
757.90 1.139
758.00 1.139
758.10 1.139
758.20 1.139
758.30 1.139
758.40 1.138
758.50 1.138
758.60 1.138
758.70 1.138
758.80 1.138
758.90 1.138
759.00 1.138
759.10 1.138
759.20 1.138
759.30 1.138
759.40 1.138
759.50 1.138
759.60 1.137
759.70 1.137
759.80 1.137
759.90 1.137
760.00 1.137
760.10 1.137
760.20 1.137
760.30 1.137
760.40 1.137
760.50 1.137
760.60 1.137
760.70 1.136
760.80 1.136
760.90 1.136
761.00 1.136
761.10 1.136
761.20 1.136
761.30 1.136
761.40 1.136
761.50 1.136
761.60 1.136
761.70 1.135
761.80 1.135
761.90 1.135
762.00 1.135
762.10 1.135
762.20 1.135
762.30 1.135
762.40 1.135
762.50 1.135
762.60 1.135
762.70 1.135
762.80 1.134
762.90 1.134
763.00 1.134
763.10 1.134
763.20 1.134
763.30 1.134
763.40 1.134
763.50 1.134
763.60 1.134
763.70 1.134
763.80 1.133
763.90 1.133
764.00 1.133
764.10 1.133
764.20 1.133
764.30 1.133
764.40 1.133
764.50 1.133
764.60 1.133
764.70 1.133
764.80 1.133
764.90 1.132
765.00 1.132
765.10 1.132
765.20 1.132
765.30 1.132
765.40 1.132
765.50 1.132
765.60 1.132
765.70 1.132
765.80 1.132
765.90 1.132
766.00 1.131
766.10 1.131
766.20 1.131
766.30 1.131
766.40 1.131
766.50 1.131
766.60 1.131
766.70 1.131
766.80 1.131
766.90 1.131
767.00 1.13
767.10 1.13
767.20 1.13
767.30 1.13
767.40 1.13
767.50 1.13
767.60 1.13
767.70 1.13
767.80 1.13
767.90 1.13
768.00 1.13
768.10 1.129
768.20 1.129
768.30 1.129
768.40 1.129
768.50 1.129
768.60 1.129
768.70 1.129
768.80 1.129
768.90 1.129
769.00 1.129
769.10 1.128
769.20 1.128
769.30 1.128
769.40 1.128
769.50 1.128
769.60 1.128
769.70 1.128
769.80 1.128
769.90 1.128
770.00 1.128
770.10 1.128
770.20 1.127
770.30 1.127
770.40 1.127
770.50 1.127
770.60 1.127
770.70 1.127
770.80 1.127
770.90 1.127
771.00 1.127
771.10 1.127
771.20 1.126
771.30 1.126
771.40 1.126
771.50 1.126
771.60 1.126
771.70 1.126
771.80 1.126
771.90 1.126
772.00 1.126
772.10 1.126
772.20 1.125
772.30 1.125
772.40 1.125
772.50 1.125
772.60 1.125
772.70 1.125
772.80 1.125
772.90 1.125
773.00 1.125
773.10 1.125
773.20 1.124
773.30 1.124
773.40 1.124
773.50 1.124
773.60 1.124
773.70 1.124
773.80 1.124
773.90 1.124
774.00 1.124
774.10 1.124
774.20 1.123
774.30 1.123
774.40 1.123
774.50 1.123
774.60 1.123
774.70 1.123
774.80 1.123
774.90 1.123
775.00 1.123
775.10 1.123
775.20 1.122
775.30 1.122
775.40 1.122
775.50 1.122
775.60 1.122
775.70 1.122
775.80 1.122
775.90 1.122
776.00 1.122
776.10 1.122
776.20 1.121
776.30 1.121
776.40 1.121
776.50 1.121
776.60 1.121
776.70 1.121
776.80 1.121
776.90 1.121
777.00 1.121
777.10 1.121
777.20 1.121
777.30 1.12
777.40 1.12
777.50 1.12
777.60 1.12
777.70 1.12
777.80 1.12
777.90 1.12
778.00 1.12
778.10 1.12
778.20 1.12
778.30 1.119
778.40 1.119
778.50 1.119
778.60 1.119
778.70 1.119
778.80 1.119
778.90 1.119
779.00 1.119
779.10 1.119
779.20 1.119
779.30 1.118
779.40 1.118
779.50 1.118
779.60 1.118
779.70 1.118
779.80 1.118
779.90 1.118
780.00 1.118
780.10 1.118
780.20 1.118
780.30 1.117
780.40 1.117
780.50 1.117
780.60 1.117
780.70 1.117
780.80 1.117
780.90 1.117
781.00 1.117
781.10 1.117
781.20 1.116
781.30 1.116
781.40 1.116
781.50 1.116
781.60 1.116
781.70 1.116
781.80 1.116
781.90 1.116
782.00 1.116
782.10 1.116
782.20 1.115
782.30 1.115
782.40 1.115
782.50 1.115
782.60 1.115
782.70 1.115
782.80 1.115
782.90 1.115
783.00 1.115
783.10 1.115
783.20 1.114
783.30 1.114
783.40 1.114
783.50 1.114
783.60 1.114
783.70 1.114
783.80 1.114
783.90 1.114
784.00 1.114
784.10 1.113
784.20 1.113
784.30 1.113
784.40 1.113
784.50 1.113
784.60 1.113
784.70 1.113
784.80 1.113
784.90 1.113
785.00 1.113
785.10 1.112
785.20 1.112
785.30 1.112
785.40 1.112
785.50 1.112
785.60 1.112
785.70 1.112
785.80 1.112
785.90 1.112
786.00 1.112
786.10 1.111
786.20 1.111
786.30 1.111
786.40 1.111
786.50 1.111
786.60 1.111
786.70 1.111
786.80 1.111
786.90 1.111
787.00 1.11
787.10 1.11
787.20 1.11
787.30 1.11
787.40 1.11
787.50 1.11
787.60 1.11
787.70 1.11
787.80 1.11
787.90 1.11
788.00 1.109
788.10 1.109
788.20 1.109
788.30 1.109
788.40 1.109
788.50 1.109
788.60 1.109
788.70 1.109
788.80 1.109
788.90 1.109
789.00 1.108
789.10 1.108
789.20 1.108
789.30 1.108
789.40 1.108
789.50 1.108
789.60 1.108
789.70 1.108
789.80 1.108
789.90 1.108
790.00 1.107
790.10 1.107
790.20 1.107
790.30 1.107
790.40 1.107
790.50 1.107
790.60 1.107
790.70 1.107
790.80 1.107
790.90 1.106
791.00 1.106
791.10 1.106
791.20 1.106
791.30 1.106
791.40 1.106
791.50 1.106
791.60 1.106
791.70 1.106
791.80 1.105
791.90 1.105
792.00 1.105
792.10 1.105
792.20 1.105
792.30 1.105
792.40 1.105
792.50 1.105
792.60 1.105
792.70 1.104
792.80 1.104
792.90 1.104
793.00 1.104
793.10 1.104
793.20 1.104
793.30 1.104
793.40 1.104
793.50 1.104
793.60 1.104
793.70 1.103
793.80 1.103
793.90 1.103
794.00 1.103
794.10 1.103
794.20 1.103
794.30 1.103
794.40 1.103
794.50 1.103
794.60 1.102
794.70 1.102
794.80 1.102
794.90 1.102
795.00 1.102
795.10 1.102
795.20 1.102
795.30 1.102
795.40 1.102
795.50 1.101
795.60 1.101
795.70 1.101
795.80 1.101
795.90 1.101
796.00 1.101
796.10 1.101
796.20 1.101
796.30 1.101
796.40 1.101
796.50 1.1
796.60 1.1
796.70 1.1
796.80 1.1
796.90 1.1
797.00 1.1
797.10 1.1
797.20 1.1
797.30 1.1
797.40 1.099
797.50 1.099
797.60 1.099
797.70 1.099
797.80 1.099
797.90 1.099
798.00 1.099
798.10 1.099
798.20 1.099
798.30 1.098
798.40 1.098
798.50 1.098
798.60 1.098
798.70 1.098
798.80 1.098
798.90 1.098
799.00 1.098
799.10 1.098
799.20 1.098
799.30 1.097
799.40 1.097
799.50 1.097
799.60 1.097
799.70 1.097
799.80 1.097
799.90 1.097
800.00 1.097
800.10 1.097
800.20 1.096
800.30 1.096
800.40 1.096
800.50 1.096
800.60 1.096
800.70 1.096
800.80 1.096
800.90 1.096
801.00 1.096
801.10 1.095
801.20 1.095
801.30 1.095
801.40 1.095
801.50 1.095
801.60 1.095
801.70 1.095
801.80 1.095
801.90 1.095
802.00 1.094
802.10 1.094
802.20 1.094
802.30 1.094
802.40 1.094
802.50 1.094
802.60 1.094
802.70 1.094
802.80 1.094
802.90 1.093
803.00 1.093
803.10 1.093
803.20 1.093
803.30 1.093
803.40 1.093
803.50 1.093
803.60 1.093
803.70 1.093
803.80 1.092
803.90 1.092
804.00 1.092
804.10 1.092
804.20 1.092
804.30 1.092
804.40 1.092
804.50 1.092
804.60 1.092
804.70 1.091
804.80 1.091
804.90 1.091
805.00 1.091
805.10 1.091
805.20 1.091
805.30 1.091
805.40 1.091
805.50 1.091
805.60 1.09
805.70 1.09
805.80 1.09
805.90 1.09
806.00 1.09
806.10 1.09
806.20 1.09
806.30 1.09
806.40 1.09
806.50 1.089
806.60 1.089
806.70 1.089
806.80 1.089
806.90 1.089
807.00 1.089
807.10 1.089
807.20 1.089
807.30 1.089
807.40 1.088
807.50 1.088
807.60 1.088
807.70 1.088
807.80 1.088
807.90 1.088
808.00 1.088
808.10 1.088
808.20 1.088
808.30 1.087
808.40 1.087
808.50 1.087
808.60 1.087
808.70 1.087
808.80 1.087
808.90 1.087
809.00 1.087
809.10 1.087
809.20 1.086
809.30 1.086
809.40 1.086
809.50 1.086
809.60 1.086
809.70 1.086
809.80 1.086
809.90 1.086
810.00 1.086
810.10 1.085
810.20 1.085
810.30 1.085
810.40 1.085
810.50 1.085
810.60 1.085
810.70 1.085
810.80 1.085
810.90 1.085
811.00 1.084
811.10 1.084
811.20 1.084
811.30 1.084
811.40 1.084
811.50 1.084
811.60 1.084
811.70 1.084
811.80 1.083
811.90 1.083
812.00 1.083
812.10 1.083
812.20 1.083
812.30 1.083
812.40 1.083
812.50 1.083
812.60 1.083
812.70 1.082
812.80 1.082
812.90 1.082
813.00 1.082
813.10 1.082
813.20 1.082
813.30 1.082
813.40 1.082
813.50 1.082
813.60 1.081
813.70 1.081
813.80 1.081
813.90 1.081
814.00 1.081
814.10 1.081
814.20 1.081
814.30 1.081
814.40 1.08
814.50 1.08
814.60 1.08
814.70 1.08
814.80 1.08
814.90 1.08
815.00 1.08
815.10 1.08
815.20 1.08
815.30 1.079
815.40 1.079
815.50 1.079
815.60 1.079
815.70 1.079
815.80 1.079
815.90 1.079
816.00 1.079
816.10 1.079
816.20 1.078
816.30 1.078
816.40 1.078
816.50 1.078
816.60 1.078
816.70 1.078
816.80 1.078
816.90 1.078
817.00 1.077
817.10 1.077
817.20 1.077
817.30 1.077
817.40 1.077
817.50 1.077
817.60 1.077
817.70 1.077
817.80 1.077
817.90 1.076
818.00 1.076
818.10 1.076
818.20 1.076
818.30 1.076
818.40 1.076
818.50 1.076
818.60 1.076
818.70 1.076
818.80 1.075
818.90 1.075
819.00 1.075
819.10 1.075
819.20 1.075
819.30 1.075
819.40 1.075
819.50 1.075
819.60 1.075
819.70 1.074
819.80 1.074
819.90 1.074
820.00 1.074
820.10 1.074
820.20 1.074
820.30 1.074
820.40 1.074
820.50 1.074
820.60 1.073
820.70 1.073
820.80 1.073
820.90 1.073
821.00 1.073
821.10 1.073
821.20 1.073
821.30 1.073
821.40 1.072
821.50 1.072
821.60 1.072
821.70 1.072
821.80 1.072
821.90 1.072
822.00 1.072
822.10 1.072
822.20 1.072
822.30 1.071
822.40 1.071
822.50 1.071
822.60 1.071
822.70 1.071
822.80 1.071
822.90 1.071
823.00 1.071
823.10 1.07
823.20 1.07
823.30 1.07
823.40 1.07
823.50 1.07
823.60 1.07
823.70 1.07
823.80 1.07
823.90 1.07
824.00 1.069
824.10 1.069
824.20 1.069
824.30 1.069
824.40 1.069
824.50 1.069
824.60 1.069
824.70 1.069
824.80 1.068
824.90 1.068
825.00 1.068
825.10 1.068
825.20 1.068
825.30 1.068
825.40 1.068
825.50 1.068
825.60 1.068
825.70 1.067
825.80 1.067
825.90 1.067
826.00 1.067
826.10 1.067
826.20 1.067
826.30 1.067
826.40 1.067
826.50 1.066
826.60 1.066
826.70 1.066
826.80 1.066
826.90 1.066
827.00 1.066
827.10 1.066
827.20 1.066
827.30 1.066
827.40 1.065
827.50 1.065
827.60 1.065
827.70 1.065
827.80 1.065
827.90 1.065
828.00 1.065
828.10 1.065
828.20 1.064
828.30 1.064
828.40 1.064
828.50 1.064
828.60 1.064
828.70 1.064
828.80 1.064
828.90 1.064
829.00 1.063
829.10 1.063
829.20 1.063
829.30 1.063
829.40 1.063
829.50 1.063
829.60 1.063
829.70 1.063
829.80 1.063
829.90 1.062
830.00 1.062
830.10 1.062
830.20 1.062
830.30 1.062
830.40 1.062
830.50 1.062
830.60 1.062
830.70 1.061
830.80 1.061
830.90 1.061
831.00 1.061
831.10 1.061
831.20 1.061
831.30 1.061
831.40 1.061
831.50 1.06
831.60 1.06
831.70 1.06
831.80 1.06
831.90 1.06
832.00 1.06
832.10 1.06
832.20 1.06
832.30 1.06
832.40 1.059
832.50 1.059
832.60 1.059
832.70 1.059
832.80 1.059
832.90 1.059
833.00 1.059
833.10 1.059
833.20 1.058
833.30 1.058
833.40 1.058
833.50 1.058
833.60 1.058
833.70 1.058
833.80 1.058
833.90 1.058
834.00 1.057
834.10 1.057
834.20 1.057
834.30 1.057
834.40 1.057
834.50 1.057
834.60 1.057
834.70 1.057
834.80 1.057
834.90 1.056
835.00 1.056
835.10 1.056
835.20 1.056
835.30 1.056
835.40 1.056
835.50 1.056
835.60 1.056
835.70 1.055
835.80 1.055
835.90 1.055
836.00 1.055
836.10 1.055
836.20 1.055
836.30 1.055
836.40 1.055
836.50 1.054
836.60 1.054
836.70 1.054
836.80 1.054
836.90 1.054
837.00 1.054
837.10 1.054
837.20 1.054
837.30 1.054
837.40 1.053
837.50 1.053
837.60 1.053
837.70 1.053
837.80 1.053
837.90 1.053
838.00 1.053
838.10 1.053
838.20 1.052
838.30 1.052
838.40 1.052
838.50 1.052
838.60 1.052
838.70 1.052
838.80 1.052
838.90 1.052
839.00 1.051
839.10 1.051
839.20 1.051
839.30 1.051
839.40 1.051
839.50 1.051
839.60 1.051
839.70 1.051
839.80 1.05
839.90 1.05
840.00 1.05
840.10 1.05
840.20 1.05
840.30 1.05
840.40 1.05
840.50 1.05
840.60 1.049
840.70 1.049
840.80 1.049
840.90 1.049
841.00 1.049
841.10 1.049
841.20 1.049
841.30 1.049
841.40 1.049
841.50 1.048
841.60 1.048
841.70 1.048
841.80 1.048
841.90 1.048
842.00 1.048
842.10 1.048
842.20 1.048
842.30 1.047
842.40 1.047
842.50 1.047
842.60 1.047
842.70 1.047
842.80 1.047
842.90 1.047
843.00 1.047
843.10 1.046
843.20 1.046
843.30 1.046
843.40 1.046
843.50 1.046
843.60 1.046
843.70 1.046
843.80 1.046
843.90 1.045
844.00 1.045
844.10 1.045
844.20 1.045
844.30 1.045
844.40 1.045
844.50 1.045
844.60 1.045
844.70 1.044
844.80 1.044
844.90 1.044
845.00 1.044
845.10 1.044
845.20 1.044
845.30 1.044
845.40 1.044
845.50 1.043
845.60 1.043
845.70 1.043
845.80 1.043
845.90 1.043
846.00 1.043
846.10 1.043
846.20 1.043
846.30 1.043
846.40 1.042
846.50 1.042
846.60 1.042
846.70 1.042
846.80 1.042
846.90 1.042
847.00 1.042
847.10 1.042
847.20 1.041
847.30 1.041
847.40 1.041
847.50 1.041
847.60 1.041
847.70 1.041
847.80 1.041
847.90 1.041
848.00 1.04
848.10 1.04
848.20 1.04
848.30 1.04
848.40 1.04
848.50 1.04
848.60 1.04
848.70 1.04
848.80 1.039
848.90 1.039
849.00 1.039
849.10 1.039
849.20 1.039
849.30 1.039
849.40 1.039
849.50 1.039
849.60 1.038
849.70 1.038
849.80 1.038
849.90 1.038
850.00 1.038
850.10 1.038
850.20 1.038
850.30 1.038
850.40 1.037
850.50 1.037
850.60 1.037
850.70 1.037
850.80 1.037
850.90 1.037
851.00 1.037
851.10 1.037
851.20 1.036
851.30 1.036
851.40 1.036
851.50 1.036
851.60 1.036
851.70 1.036
851.80 1.036
851.90 1.036
852.00 1.035
852.10 1.035
852.20 1.035
852.30 1.035
852.40 1.035
852.50 1.035
852.60 1.035
852.70 1.035
852.80 1.034
852.90 1.034
853.00 1.034
853.10 1.034
853.20 1.034
853.30 1.034
853.40 1.034
853.50 1.034
853.60 1.033
853.70 1.033
853.80 1.033
853.90 1.033
854.00 1.033
854.10 1.033
854.20 1.033
854.30 1.033
854.40 1.032
854.50 1.032
854.60 1.032
854.70 1.032
854.80 1.032
854.90 1.032
855.00 1.032
855.10 1.032
855.20 1.031
855.30 1.031
855.40 1.031
855.50 1.031
855.60 1.031
855.70 1.031
855.80 1.031
855.90 1.031
856.00 1.03
856.10 1.03
856.20 1.03
856.30 1.03
856.40 1.03
856.50 1.03
856.60 1.03
856.70 1.03
856.80 1.029
856.90 1.029
857.00 1.029
857.10 1.029
857.20 1.029
857.30 1.029
857.40 1.029
857.50 1.029
857.60 1.028
857.70 1.028
857.80 1.028
857.90 1.028
858.00 1.028
858.10 1.028
858.20 1.028
858.30 1.028
858.40 1.027
858.50 1.027
858.60 1.027
858.70 1.027
858.80 1.027
858.90 1.027
859.00 1.027
859.10 1.027
859.20 1.026
859.30 1.026
859.40 1.026
859.50 1.026
859.60 1.026
859.70 1.026
859.80 1.026
859.90 1.026
860.00 1.025
860.10 1.025
860.20 1.025
860.30 1.025
860.40 1.025
860.50 1.025
860.60 1.025
860.70 1.025
860.80 1.024
860.90 1.024
861.00 1.024
861.10 1.024
861.20 1.024
861.30 1.024
861.40 1.024
861.50 1.024
861.60 1.023
861.70 1.023
861.80 1.023
861.90 1.023
862.00 1.023
862.10 1.023
862.20 1.023
862.30 1.023
862.40 1.022
862.50 1.022
862.60 1.022
862.70 1.022
862.80 1.022
862.90 1.022
863.00 1.022
863.10 1.022
863.20 1.021
863.30 1.021
863.40 1.021
863.50 1.021
863.60 1.021
863.70 1.021
863.80 1.021
863.90 1.021
864.00 1.02
864.10 1.02
864.20 1.02
864.30 1.02
864.40 1.02
864.50 1.02
864.60 1.02
864.70 1.019
864.80 1.019
864.90 1.019
865.00 1.019
865.10 1.019
865.20 1.019
865.30 1.019
865.40 1.019
865.50 1.018
865.60 1.018
865.70 1.018
865.80 1.018
865.90 1.018
866.00 1.018
866.10 1.018
866.20 1.018
866.30 1.017
866.40 1.017
866.50 1.017
866.60 1.017
866.70 1.017
866.80 1.017
866.90 1.017
867.00 1.017
867.10 1.016
867.20 1.016
867.30 1.016
867.40 1.016
867.50 1.016
867.60 1.016
867.70 1.016
867.80 1.016
867.90 1.015
868.00 1.015
868.10 1.015
868.20 1.015
868.30 1.015
868.40 1.015
868.50 1.015
868.60 1.015
868.70 1.014
868.80 1.014
868.90 1.014
869.00 1.014
869.10 1.014
869.20 1.014
869.30 1.014
869.40 1.014
869.50 1.013
869.60 1.013
869.70 1.013
869.80 1.013
869.90 1.013
870.00 1.013
870.10 1.013
870.20 1.013
870.30 1.012
870.40 1.012
870.50 1.012
870.60 1.012
870.70 1.012
870.80 1.012
870.90 1.012
871.00 1.011
871.10 1.011
871.20 1.011
871.30 1.011
871.40 1.011
871.50 1.011
871.60 1.011
871.70 1.011
871.80 1.01
871.90 1.01
872.00 1.01
872.10 1.01
872.20 1.01
872.30 1.01
872.40 1.01
872.50 1.01
872.60 1.009
872.70 1.009
872.80 1.009
872.90 1.009
873.00 1.009
873.10 1.009
873.20 1.009
873.30 1.009
873.40 1.008
873.50 1.008
873.60 1.008
873.70 1.008
873.80 1.008
873.90 1.008
874.00 1.008
874.10 1.008
874.20 1.007
874.30 1.007
874.40 1.007
874.50 1.007
874.60 1.007
874.70 1.007
874.80 1.007
874.90 1.006
875.00 1.006
875.10 1.006
875.20 1.006
875.30 1.006
875.40 1.006
875.50 1.006
875.60 1.006
875.70 1.005
875.80 1.005
875.90 1.005
876.00 1.005
876.10 1.005
876.20 1.005
876.30 1.005
876.40 1.005
876.50 1.004
876.60 1.004
876.70 1.004
876.80 1.004
876.90 1.004
877.00 1.004
877.10 1.004
877.20 1.004
877.30 1.003
877.40 1.003
877.50 1.003
877.60 1.003
877.70 1.003
877.80 1.003
877.90 1.003
878.00 1.003
878.10 1.002
878.20 1.002
878.30 1.002
878.40 1.002
878.50 1.002
878.60 1.002
878.70 1.002
878.80 1.001
878.90 1.001
879.00 1.001
879.10 1.001
879.20 1.001
879.30 1.001
879.40 1.001
879.50 1.001
879.60 1
879.70 1
879.80 1
879.90 1
880.00 0.9999
880.10 0.9998
880.20 0.9997
880.30 0.9995
880.40 0.9994
880.50 0.9993
880.60 0.9991
880.70 0.999
880.80 0.9989
880.90 0.9988
881.00 0.9986
881.10 0.9985
881.20 0.9984
881.30 0.9982
881.40 0.9981
881.50 0.998
881.60 0.9979
881.70 0.9977
881.80 0.9976
881.90 0.9975
882.00 0.9973
882.10 0.9972
882.20 0.9971
882.30 0.9969
882.40 0.9968
882.50 0.9967
882.60 0.9966
882.70 0.9964
882.80 0.9963
882.90 0.9962
883.00 0.996
883.10 0.9959
883.20 0.9958
883.30 0.9956
883.40 0.9955
883.50 0.9954
883.60 0.9952
883.70 0.9951
883.80 0.995
883.90 0.9949
884.00 0.9947
884.10 0.9946
884.20 0.9945
884.30 0.9943
884.40 0.9942
884.50 0.9941
884.60 0.9939
884.70 0.9938
884.80 0.9937
884.90 0.9936
885.00 0.9934
885.10 0.9933
885.20 0.9932
885.30 0.993
885.40 0.9929
885.50 0.9928
885.60 0.9926
885.70 0.9925
885.80 0.9924
885.90 0.9923
886.00 0.9921
886.10 0.992
886.20 0.9919
886.30 0.9917
886.40 0.9916
886.50 0.9915
886.60 0.9914
886.70 0.9912
886.80 0.9911
886.90 0.991
887.00 0.9908
887.10 0.9907
887.20 0.9906
887.30 0.9904
887.40 0.9903
887.50 0.9902
887.60 0.99
887.70 0.9899
887.80 0.9898
887.90 0.9896
888.00 0.9895
888.10 0.9894
888.20 0.9893
888.30 0.9891
888.40 0.989
888.50 0.9889
888.60 0.9887
888.70 0.9886
888.80 0.9885
888.90 0.9883
889.00 0.9882
889.10 0.9881
889.20 0.9879
889.30 0.9878
889.40 0.9877
889.50 0.9875
889.60 0.9874
889.70 0.9873
889.80 0.9871
889.90 0.987
890.00 0.9869
890.10 0.9868
890.20 0.9866
890.30 0.9865
890.40 0.9864
890.50 0.9862
890.60 0.9861
890.70 0.986
890.80 0.9858
890.90 0.9857
891.00 0.9856
891.10 0.9854
891.20 0.9853
891.30 0.9852
891.40 0.9851
891.50 0.9849
891.60 0.9848
891.70 0.9847
891.80 0.9845
891.90 0.9844
892.00 0.9843
892.10 0.9841
892.20 0.984
892.30 0.9839
892.40 0.9837
892.50 0.9836
892.60 0.9835
892.70 0.9833
892.80 0.9832
892.90 0.9831
893.00 0.983
893.10 0.9828
893.20 0.9827
893.30 0.9826
893.40 0.9824
893.50 0.9823
893.60 0.9822
893.70 0.982
893.80 0.9819
893.90 0.9818
894.00 0.9817
894.10 0.9815
894.20 0.9814
894.30 0.9813
894.40 0.9811
894.50 0.981
894.60 0.9809
894.70 0.9807
894.80 0.9806
894.90 0.9805
895.00 0.9803
895.10 0.9802
895.20 0.9801
895.30 0.98
895.40 0.9798
895.50 0.9797
895.60 0.9796
895.70 0.9794
895.80 0.9793
895.90 0.9792
896.00 0.979
896.10 0.9789
896.20 0.9788
896.30 0.9787
896.40 0.9785
896.50 0.9784
896.60 0.9783
896.70 0.9781
896.80 0.978
896.90 0.9779
897.00 0.9778
897.10 0.9776
897.20 0.9775
897.30 0.9774
897.40 0.9772
897.50 0.9771
897.60 0.977
897.70 0.9768
897.80 0.9767
897.90 0.9766
898.00 0.9764
898.10 0.9763
898.20 0.9762
898.30 0.976
898.40 0.9759
898.50 0.9758
898.60 0.9756
898.70 0.9755
898.80 0.9754
898.90 0.9752
899.00 0.9751
899.10 0.975
899.20 0.9748
899.30 0.9747
899.40 0.9746
899.50 0.9744
899.60 0.9743
899.70 0.9742
899.80 0.974
899.90 0.9739
900.00 0.9738
900.10 0.9736
900.20 0.9735
900.30 0.9734
900.40 0.9732
900.50 0.9731
900.60 0.973
900.70 0.9728
900.80 0.9727
900.90 0.9726
901.00 0.9724
901.10 0.9723
901.20 0.9722
901.30 0.972
901.40 0.9719
901.50 0.9718
901.60 0.9716
901.70 0.9715
901.80 0.9714
901.90 0.9713
902.00 0.9711
902.10 0.971
902.20 0.9708
902.30 0.9707
902.40 0.9706
902.50 0.9704
902.60 0.9703
902.70 0.9702
902.80 0.97
902.90 0.9699
903.00 0.9697
903.10 0.9696
903.20 0.9695
903.30 0.9693
903.40 0.9692
903.50 0.9691
903.60 0.9689
903.70 0.9688
903.80 0.9686
903.90 0.9685
904.00 0.9684
904.10 0.9682
904.20 0.9681
904.30 0.968
904.40 0.9678
904.50 0.9677
904.60 0.9675
904.70 0.9674
904.80 0.9673
904.90 0.9671
905.00 0.967
905.10 0.9669
905.20 0.9667
905.30 0.9666
905.40 0.9664
905.50 0.9663
905.60 0.9662
905.70 0.966
905.80 0.9659
905.90 0.9658
906.00 0.9656
906.10 0.9655
906.20 0.9653
906.30 0.9652
906.40 0.9651
906.50 0.9649
906.60 0.9648
906.70 0.9647
906.80 0.9645
906.90 0.9644
907.00 0.9643
907.10 0.9641
907.20 0.964
907.30 0.9638
907.40 0.9637
907.50 0.9636
907.60 0.9634
907.70 0.9633
907.80 0.9632
907.90 0.963
908.00 0.9629
908.10 0.9628
908.20 0.9626
908.30 0.9625
908.40 0.9624
908.50 0.9622
908.60 0.9621
908.70 0.962
908.80 0.9618
908.90 0.9617
909.00 0.9615
909.10 0.9614
909.20 0.9613
909.30 0.9611
909.40 0.961
909.50 0.9609
909.60 0.9607
909.70 0.9606
909.80 0.9605
909.90 0.9603
910.00 0.9602
910.10 0.9601
910.20 0.9599
910.30 0.9598
910.40 0.9597
910.50 0.9595
910.60 0.9594
910.70 0.9593
910.80 0.9591
910.90 0.959
911.00 0.9589
911.10 0.9587
911.20 0.9586
911.30 0.9584
911.40 0.9583
911.50 0.9582
911.60 0.958
911.70 0.9579
911.80 0.9578
911.90 0.9576
912.00 0.9575
912.10 0.9574
912.20 0.9572
912.30 0.9571
912.40 0.957
912.50 0.9568
912.60 0.9567
912.70 0.9566
912.80 0.9564
912.90 0.9563
913.00 0.9562
913.10 0.956
913.20 0.9559
913.30 0.9558
913.40 0.9556
913.50 0.9555
913.60 0.9554
913.70 0.9552
913.80 0.9551
913.90 0.955
914.00 0.9548
914.10 0.9547
914.20 0.9546
914.30 0.9544
914.40 0.9543
914.50 0.9542
914.60 0.954
914.70 0.9539
914.80 0.9538
914.90 0.9536
915.00 0.9535
915.10 0.9534
915.20 0.9532
915.30 0.9531
915.40 0.953
915.50 0.9528
915.60 0.9527
915.70 0.9526
915.80 0.9524
915.90 0.9523
916.00 0.9522
916.10 0.952
916.20 0.9519
916.30 0.9518
916.40 0.9516
916.50 0.9515
916.60 0.9514
916.70 0.9512
916.80 0.9511
916.90 0.951
917.00 0.9508
917.10 0.9507
917.20 0.9506
917.30 0.9504
917.40 0.9503
917.50 0.9501
917.60 0.95
917.70 0.9499
917.80 0.9497
917.90 0.9496
918.00 0.9495
918.10 0.9493
918.20 0.9492
918.30 0.9491
918.40 0.9489
918.50 0.9488
918.60 0.9487
918.70 0.9485
918.80 0.9484
918.90 0.9483
919.00 0.9481
919.10 0.948
919.20 0.9479
919.30 0.9477
919.40 0.9476
919.50 0.9474
919.60 0.9473
919.70 0.9472
919.80 0.947
919.90 0.9469
920.00 0.9468
920.10 0.9466
920.20 0.9465
920.30 0.9464
920.40 0.9462
920.50 0.9461
920.60 0.946
920.70 0.9458
920.80 0.9457
920.90 0.9456
921.00 0.9454
921.10 0.9453
921.20 0.9452
921.30 0.945
921.40 0.9449
921.50 0.9448
921.60 0.9446
921.70 0.9445
921.80 0.9444
921.90 0.9442
922.00 0.9441
922.10 0.944
922.20 0.9438
922.30 0.9437
922.40 0.9435
922.50 0.9434
922.60 0.9433
922.70 0.9431
922.80 0.943
922.90 0.9429
923.00 0.9427
923.10 0.9426
923.20 0.9425
923.30 0.9423
923.40 0.9422
923.50 0.942
923.60 0.9419
923.70 0.9418
923.80 0.9416
923.90 0.9415
924.00 0.9414
924.10 0.9412
924.20 0.9411
924.30 0.941
924.40 0.9408
924.50 0.9407
924.60 0.9406
924.70 0.9404
924.80 0.9403
924.90 0.9401
925.00 0.94
925.10 0.9399
925.20 0.9397
925.30 0.9396
925.40 0.9395
925.50 0.9393
925.60 0.9392
925.70 0.9391
925.80 0.9389
925.90 0.9388
926.00 0.9387
926.10 0.9385
926.20 0.9384
926.30 0.9383
926.40 0.9381
926.50 0.938
926.60 0.9378
926.70 0.9377
926.80 0.9376
926.90 0.9374
927.00 0.9373
927.10 0.9372
927.20 0.937
927.30 0.9369
927.40 0.9368
927.50 0.9366
927.60 0.9365
927.70 0.9363
927.80 0.9362
927.90 0.9361
928.00 0.9359
928.10 0.9358
928.20 0.9357
928.30 0.9355
928.40 0.9354
928.50 0.9353
928.60 0.9351
928.70 0.935
928.80 0.9348
928.90 0.9347
929.00 0.9346
929.10 0.9344
929.20 0.9343
929.30 0.9342
929.40 0.934
929.50 0.9339
929.60 0.9338
929.70 0.9336
929.80 0.9335
929.90 0.9333
930.00 0.9332
930.10 0.9331
930.20 0.9329
930.30 0.9328
930.40 0.9327
930.50 0.9325
930.60 0.9324
930.70 0.9323
930.80 0.9321
930.90 0.932
931.00 0.9319
931.10 0.9317
931.20 0.9316
931.30 0.9315
931.40 0.9313
931.50 0.9312
931.60 0.931
931.70 0.9309
931.80 0.9308
931.90 0.9306
932.00 0.9305
932.10 0.9304
932.20 0.9302
932.30 0.9301
932.40 0.93
932.50 0.9298
932.60 0.9297
932.70 0.9295
932.80 0.9294
932.90 0.9293
933.00 0.9291
933.10 0.929
933.20 0.9289
933.30 0.9287
933.40 0.9286
933.50 0.9285
933.60 0.9283
933.70 0.9282
933.80 0.9281
933.90 0.9279
934.00 0.9278
934.10 0.9276
934.20 0.9275
934.30 0.9274
934.40 0.9272
934.50 0.9271
934.60 0.927
934.70 0.9268
934.80 0.9267
934.90 0.9265
935.00 0.9264
935.10 0.9263
935.20 0.9261
935.30 0.926
935.40 0.9259
935.50 0.9257
935.60 0.9256
935.70 0.9255
935.80 0.9253
935.90 0.9252
936.00 0.925
936.10 0.9249
936.20 0.9248
936.30 0.9246
936.40 0.9245
936.50 0.9244
936.60 0.9242
936.70 0.9241
936.80 0.924
936.90 0.9238
937.00 0.9237
937.10 0.9235
937.20 0.9234
937.30 0.9233
937.40 0.9231
937.50 0.923
937.60 0.9229
937.70 0.9227
937.80 0.9226
937.90 0.9225
938.00 0.9223
938.10 0.9222
938.20 0.922
938.30 0.9219
938.40 0.9218
938.50 0.9216
938.60 0.9215
938.70 0.9214
938.80 0.9212
938.90 0.9211
939.00 0.921
939.10 0.9208
939.20 0.9207
939.30 0.9205
939.40 0.9204
939.50 0.9203
939.60 0.9201
939.70 0.92
939.80 0.9199
939.90 0.9197
940.00 0.9196
940.10 0.9194
940.20 0.9193
940.30 0.9192
940.40 0.919
940.50 0.9189
940.60 0.9188
940.70 0.9186
940.80 0.9185
940.90 0.9184
941.00 0.9182
941.10 0.9181
941.20 0.9179
941.30 0.9178
941.40 0.9177
941.50 0.9175
941.60 0.9174
941.70 0.9173
941.80 0.9171
941.90 0.917
942.00 0.9169
942.10 0.9167
942.20 0.9166
942.30 0.9164
942.40 0.9163
942.50 0.9162
942.60 0.916
942.70 0.9159
942.80 0.9157
942.90 0.9156
943.00 0.9155
943.10 0.9153
943.20 0.9152
943.30 0.915
943.40 0.9149
943.50 0.9148
943.60 0.9146
943.70 0.9145
943.80 0.9144
943.90 0.9142
944.00 0.9141
944.10 0.9139
944.20 0.9138
944.30 0.9137
944.40 0.9135
944.50 0.9134
944.60 0.9133
944.70 0.9131
944.80 0.913
944.90 0.9128
945.00 0.9127
945.10 0.9126
945.20 0.9124
945.30 0.9123
945.40 0.9122
945.50 0.912
945.60 0.9119
945.70 0.9117
945.80 0.9116
945.90 0.9115
946.00 0.9113
946.10 0.9112
946.20 0.9111
946.30 0.9109
946.40 0.9108
946.50 0.9107
946.60 0.9105
946.70 0.9104
946.80 0.9102
946.90 0.9101
947.00 0.91
947.10 0.9098
947.20 0.9097
947.30 0.9096
947.40 0.9094
947.50 0.9093
947.60 0.9091
947.70 0.909
947.80 0.9089
947.90 0.9087
948.00 0.9086
948.10 0.9085
948.20 0.9083
948.30 0.9082
948.40 0.908
948.50 0.9079
948.60 0.9078
948.70 0.9076
948.80 0.9075
948.90 0.9074
949.00 0.9072
949.10 0.9071
949.20 0.9069
949.30 0.9068
949.40 0.9067
949.50 0.9065
949.60 0.9064
949.70 0.9063
949.80 0.9061
949.90 0.906
950.00 0.9058
950.10 0.9057
950.20 0.9056
950.30 0.9054
950.40 0.9053
950.50 0.9052
950.60 0.905
950.70 0.9049
950.80 0.9047
950.90 0.9046
951.00 0.9045
951.10 0.9043
951.20 0.9042
951.30 0.9041
951.40 0.9039
951.50 0.9038
951.60 0.9036
951.70 0.9035
951.80 0.9034
951.90 0.9032
952.00 0.9031
952.10 0.9029
952.20 0.9028
952.30 0.9027
952.40 0.9025
952.50 0.9024
952.60 0.9022
952.70 0.9021
952.80 0.902
952.90 0.9018
953.00 0.9017
953.10 0.9016
953.20 0.9014
953.30 0.9013
953.40 0.9011
953.50 0.901
953.60 0.9009
953.70 0.9007
953.80 0.9006
953.90 0.9005
954.00 0.9003
954.10 0.9002
954.20 0.9001
954.30 0.8999
954.40 0.8998
954.50 0.8996
954.60 0.8995
954.70 0.8993
954.80 0.8992
954.90 0.8991
955.00 0.8989
955.10 0.8988
955.20 0.8987
955.30 0.8985
955.40 0.8984
955.50 0.8982
955.60 0.8981
955.70 0.898
955.80 0.8978
955.90 0.8977
956.00 0.8975
956.10 0.8974
956.20 0.8973
956.30 0.8971
956.40 0.897
956.50 0.8969
956.60 0.8967
956.70 0.8966
956.80 0.8964
956.90 0.8963
957.00 0.8962
957.10 0.896
957.20 0.8959
957.30 0.8958
957.40 0.8956
957.50 0.8955
957.60 0.8953
957.70 0.8952
957.80 0.8951
957.90 0.8949
958.00 0.8948
958.10 0.8947
958.20 0.8945
958.30 0.8944
958.40 0.8942
958.50 0.8941
958.60 0.894
958.70 0.8938
958.80 0.8937
958.90 0.8935
959.00 0.8934
959.10 0.8933
959.20 0.8931
959.30 0.893
959.40 0.8928
959.50 0.8927
959.60 0.8926
959.70 0.8924
959.80 0.8923
959.90 0.8922
960.00 0.892
960.10 0.8919
960.20 0.8917
960.30 0.8916
960.40 0.8915
960.50 0.8913
960.60 0.8912
960.70 0.8911
960.80 0.8909
960.90 0.8908
961.00 0.8906
961.10 0.8905
961.20 0.8904
961.30 0.8902
961.40 0.8901
961.50 0.89
961.60 0.8898
961.70 0.8897
961.80 0.8895
961.90 0.8894
962.00 0.8893
962.10 0.8891
962.20 0.889
962.30 0.8888
962.40 0.8887
962.50 0.8886
962.60 0.8884
962.70 0.8883
962.80 0.8882
962.90 0.888
963.00 0.8879
963.10 0.8877
963.20 0.8876
963.30 0.8875
963.40 0.8873
963.50 0.8872
963.60 0.887
963.70 0.8869
963.80 0.8868
963.90 0.8866
964.00 0.8865
964.10 0.8864
964.20 0.8862
964.30 0.8861
964.40 0.8859
964.50 0.8858
964.60 0.8857
964.70 0.8855
964.80 0.8854
964.90 0.8852
965.00 0.8851
965.10 0.885
965.20 0.8848
965.30 0.8847
965.40 0.8845
965.50 0.8844
965.60 0.8843
965.70 0.8841
965.80 0.884
965.90 0.8839
966.00 0.8837
966.10 0.8836
966.20 0.8834
966.30 0.8833
966.40 0.8832
966.50 0.883
966.60 0.8829
966.70 0.8827
966.80 0.8826
966.90 0.8825
967.00 0.8823
967.10 0.8822
967.20 0.8821
967.30 0.8819
967.40 0.8818
967.50 0.8816
967.60 0.8815
967.70 0.8814
967.80 0.8812
967.90 0.8811
968.00 0.881
968.10 0.8808
968.20 0.8807
968.30 0.8805
968.40 0.8804
968.50 0.8803
968.60 0.8801
968.70 0.88
968.80 0.8798
968.90 0.8797
969.00 0.8796
969.10 0.8794
969.20 0.8793
969.30 0.8791
969.40 0.879
969.50 0.8789
969.60 0.8787
969.70 0.8786
969.80 0.8784
969.90 0.8783
970.00 0.8782
970.10 0.878
970.20 0.8779
970.30 0.8778
970.40 0.8776
970.50 0.8775
970.60 0.8773
970.70 0.8772
970.80 0.8771
970.90 0.8769
971.00 0.8768
971.10 0.8766
971.20 0.8765
971.30 0.8764
971.40 0.8762
971.50 0.8761
971.60 0.876
971.70 0.8758
971.80 0.8757
971.90 0.8755
972.00 0.8754
972.10 0.8753
972.20 0.8751
972.30 0.875
972.40 0.8749
972.50 0.8747
972.60 0.8746
972.70 0.8744
972.80 0.8743
972.90 0.8742
973.00 0.874
973.10 0.8739
973.20 0.8738
973.30 0.8736
973.40 0.8735
973.50 0.8733
973.60 0.8732
973.70 0.8731
973.80 0.8729
973.90 0.8728
974.00 0.8726
974.10 0.8725
974.20 0.8724
974.30 0.8722
974.40 0.8721
974.50 0.872
974.60 0.8718
974.70 0.8717
974.80 0.8715
974.90 0.8714
975.00 0.8713
975.10 0.8711
975.20 0.871
975.30 0.8708
975.40 0.8707
975.50 0.8706
975.60 0.8704
975.70 0.8703
975.80 0.8702
975.90 0.87
976.00 0.8699
976.10 0.8697
976.20 0.8696
976.30 0.8695
976.40 0.8693
976.50 0.8692
976.60 0.869
976.70 0.8689
976.80 0.8688
976.90 0.8686
977.00 0.8685
977.10 0.8684
977.20 0.8682
977.30 0.8681
977.40 0.8679
977.50 0.8678
977.60 0.8677
977.70 0.8675
977.80 0.8674
977.90 0.8672
978.00 0.8671
978.10 0.867
978.20 0.8668
978.30 0.8667
978.40 0.8665
978.50 0.8664
978.60 0.8663
978.70 0.8661
978.80 0.866
978.90 0.8658
979.00 0.8657
979.10 0.8656
979.20 0.8654
979.30 0.8653
979.40 0.8652
979.50 0.865
979.60 0.8649
979.70 0.8647
979.80 0.8646
979.90 0.8645
980.00 0.8643
980.10 0.8642
980.20 0.864
980.30 0.8639
980.40 0.8638
980.50 0.8636
980.60 0.8635
980.70 0.8634
980.80 0.8632
980.90 0.8631
981.00 0.8629
981.10 0.8628
981.20 0.8627
981.30 0.8625
981.40 0.8624
981.50 0.8623
981.60 0.8621
981.70 0.862
981.80 0.8618
981.90 0.8617
982.00 0.8616
982.10 0.8614
982.20 0.8613
982.30 0.8612
982.40 0.861
982.50 0.8609
982.60 0.8607
982.70 0.8606
982.80 0.8605
982.90 0.8603
983.00 0.8602
983.10 0.8601
983.20 0.8599
983.30 0.8598
983.40 0.8596
983.50 0.8595
983.60 0.8594
983.70 0.8592
983.80 0.8591
983.90 0.859
984.00 0.8588
984.10 0.8587
984.20 0.8585
984.30 0.8584
984.40 0.8583
984.50 0.8581
984.60 0.858
984.70 0.8579
984.80 0.8577
984.90 0.8576
985.00 0.8574
985.10 0.8573
985.20 0.8572
985.30 0.857
985.40 0.8569
985.50 0.8567
985.60 0.8566
985.70 0.8565
985.80 0.8563
985.90 0.8562
986.00 0.856
986.10 0.8559
986.20 0.8558
986.30 0.8556
986.40 0.8555
986.50 0.8554
986.60 0.8552
986.70 0.8551
986.80 0.8549
986.90 0.8548
987.00 0.8547
987.10 0.8545
987.20 0.8544
987.30 0.8543
987.40 0.8541
987.50 0.854
987.60 0.8538
987.70 0.8537
987.80 0.8536
987.90 0.8534
988.00 0.8533
988.10 0.8532
988.20 0.853
988.30 0.8529
988.40 0.8527
988.50 0.8526
988.60 0.8525
988.70 0.8523
988.80 0.8522
988.90 0.8521
989.00 0.8519
989.10 0.8518
989.20 0.8516
989.30 0.8515
989.40 0.8514
989.50 0.8512
989.60 0.8511
989.70 0.851
989.80 0.8508
989.90 0.8507
990.00 0.8505
990.10 0.8504
990.20 0.8503
990.30 0.8501
990.40 0.85
990.50 0.8499
990.60 0.8497
990.70 0.8496
990.80 0.8494
990.90 0.8493
991.00 0.8492
991.10 0.849
991.20 0.8489
991.30 0.8488
991.40 0.8486
991.50 0.8485
991.60 0.8484
991.70 0.8482
991.80 0.8481
991.90 0.8479
992.00 0.8478
992.10 0.8477
992.20 0.8475
992.30 0.8474
992.40 0.8472
992.50 0.8471
992.60 0.847
992.70 0.8468
992.80 0.8467
992.90 0.8466
993.00 0.8464
993.10 0.8463
993.20 0.8461
993.30 0.846
993.40 0.8459
993.50 0.8457
993.60 0.8456
993.70 0.8455
993.80 0.8453
993.90 0.8452
994.00 0.8451
994.10 0.8449
994.20 0.8448
994.30 0.8446
994.40 0.8445
994.50 0.8444
994.60 0.8442
994.70 0.8441
994.80 0.844
994.90 0.8438
995.00 0.8437
995.10 0.8436
995.20 0.8434
995.30 0.8433
995.40 0.8431
995.50 0.843
995.60 0.8429
995.70 0.8427
995.80 0.8426
995.90 0.8425
996.00 0.8423
996.10 0.8422
996.20 0.8421
996.30 0.8419
996.40 0.8418
996.50 0.8416
996.60 0.8415
996.70 0.8414
996.80 0.8412
996.90 0.8411
997.00 0.841
997.10 0.8408
997.20 0.8407
997.30 0.8405
997.40 0.8404
997.50 0.8403
997.60 0.8401
997.70 0.84
997.80 0.8399
997.90 0.8397
998.00 0.8396
998.10 0.8395
998.20 0.8393
998.30 0.8392
998.40 0.839
998.50 0.8389
998.60 0.8388
998.70 0.8386
998.80 0.8385
998.90 0.8384
999.00 0.8382
999.10 0.8381
999.20 0.838
999.30 0.8378
999.40 0.8377
999.50 0.8375
999.60 0.8374
999.70 0.8373
999.80 0.8371
999.90 0.837
1000.00 0.8369
1000.10 0.8367
1000.20 0.8366
1000.30 0.8365
1000.40 0.8363
1000.50 0.8362
1000.60 0.8361
1000.70 0.8359
1000.80 0.8358
1000.90 0.8356
1001.00 0.8355
1001.10 0.8354
1001.20 0.8352
1001.30 0.8351
1001.40 0.835
1001.50 0.8348
1001.60 0.8347
1001.70 0.8346
1001.80 0.8344
1001.90 0.8343
1002.00 0.8341
1002.10 0.834
1002.20 0.8339
1002.30 0.8337
1002.40 0.8336
1002.50 0.8335
1002.60 0.8333
1002.70 0.8332
1002.80 0.8331
1002.90 0.8329
1003.00 0.8328
1003.10 0.8327
1003.20 0.8325
1003.30 0.8324
1003.40 0.8323
1003.50 0.8321
1003.60 0.832
1003.70 0.8318
1003.80 0.8317
1003.90 0.8316
1004.00 0.8314
1004.10 0.8313
1004.20 0.8312
1004.30 0.831
1004.40 0.8309
1004.50 0.8308
1004.60 0.8306
1004.70 0.8305
1004.80 0.8303
1004.90 0.8302
1005.00 0.8301
1005.10 0.8299
1005.20 0.8298
1005.30 0.8297
1005.40 0.8295
1005.50 0.8294
1005.60 0.8293
1005.70 0.8291
1005.80 0.829
1005.90 0.8289
1006.00 0.8287
1006.10 0.8286
1006.20 0.8285
1006.30 0.8283
1006.40 0.8282
1006.50 0.8281
1006.60 0.8279
1006.70 0.8278
1006.80 0.8276
1006.90 0.8275
1007.00 0.8274
1007.10 0.8272
1007.20 0.8271
1007.30 0.827
1007.40 0.8268
1007.50 0.8267
1007.60 0.8266
1007.70 0.8264
1007.80 0.8263
1007.90 0.8262
1008.00 0.826
1008.10 0.8259
1008.20 0.8258
1008.30 0.8256
1008.40 0.8255
1008.50 0.8254
1008.60 0.8252
1008.70 0.8251
1008.80 0.825
1008.90 0.8248
1009.00 0.8247
1009.10 0.8246
1009.20 0.8244
1009.30 0.8243
1009.40 0.8242
1009.50 0.824
1009.60 0.8239
1009.70 0.8237
1009.80 0.8236
1009.90 0.8235
1010.00 0.8233
1010.10 0.8232
1010.20 0.8231
1010.30 0.8229
1010.40 0.8228
1010.50 0.8227
1010.60 0.8225
1010.70 0.8224
1010.80 0.8223
1010.90 0.8221
1011.00 0.822
1011.10 0.8219
1011.20 0.8217
1011.30 0.8216
1011.40 0.8215
1011.50 0.8213
1011.60 0.8212
1011.70 0.821
1011.80 0.8209
1011.90 0.8208
1012.00 0.8206
1012.10 0.8205
1012.20 0.8204
1012.30 0.8202
1012.40 0.8201
1012.50 0.82
1012.60 0.8198
1012.70 0.8197
1012.80 0.8196
1012.90 0.8194
1013.00 0.8193
1013.10 0.8192
1013.20 0.819
1013.30 0.8189
1013.40 0.8188
1013.50 0.8186
1013.60 0.8185
1013.70 0.8183
1013.80 0.8182
1013.90 0.8181
1014.00 0.8179
1014.10 0.8178
1014.20 0.8177
1014.30 0.8175
1014.40 0.8174
1014.50 0.8173
1014.60 0.8171
1014.70 0.817
1014.80 0.8169
1014.90 0.8167
1015.00 0.8166
1015.10 0.8165
1015.20 0.8163
1015.30 0.8162
1015.40 0.8161
1015.50 0.8159
1015.60 0.8158
1015.70 0.8157
1015.80 0.8155
1015.90 0.8154
1016.00 0.8153
1016.10 0.8151
1016.20 0.815
1016.30 0.8149
1016.40 0.8147
1016.50 0.8146
1016.60 0.8145
1016.70 0.8143
1016.80 0.8142
1016.90 0.8141
1017.00 0.8139
1017.10 0.8138
1017.20 0.8137
1017.30 0.8135
1017.40 0.8134
1017.50 0.8133
1017.60 0.8131
1017.70 0.813
1017.80 0.8129
1017.90 0.8127
1018.00 0.8126
1018.10 0.8125
1018.20 0.8123
1018.30 0.8122
1018.40 0.8121
1018.50 0.8119
1018.60 0.8118
1018.70 0.8117
1018.80 0.8115
1018.90 0.8114
1019.00 0.8113
1019.10 0.8111
1019.20 0.811
1019.30 0.8109
1019.40 0.8107
1019.50 0.8106
1019.60 0.8105
1019.70 0.8103
1019.80 0.8102
1019.90 0.8101
1020.00 0.8099
1020.10 0.8098
1020.20 0.8097
1020.30 0.8095
1020.40 0.8094
1020.50 0.8093
1020.60 0.8091
1020.70 0.809
1020.80 0.8089
1020.90 0.8087
1021.00 0.8086
1021.10 0.8085
1021.20 0.8083
1021.30 0.8082
1021.40 0.8081
1021.50 0.8079
1021.60 0.8078
1021.70 0.8077
1021.80 0.8075
1021.90 0.8074
1022.00 0.8073
1022.10 0.8071
1022.20 0.807
1022.30 0.8069
1022.40 0.8067
1022.50 0.8066
1022.60 0.8065
1022.70 0.8063
1022.80 0.8062
1022.90 0.8061
1023.00 0.8059
1023.10 0.8058
1023.20 0.8057
1023.30 0.8055
1023.40 0.8054
1023.50 0.8053
1023.60 0.8051
1023.70 0.805
1023.80 0.8049
1023.90 0.8047
1024.00 0.8046
1024.10 0.8045
1024.20 0.8043
1024.30 0.8042
1024.40 0.8041
1024.50 0.8039
1024.60 0.8038
1024.70 0.8037
1024.80 0.8035
1024.90 0.8034
1025.00 0.8033
1025.10 0.8031
1025.20 0.803
1025.30 0.8029
1025.40 0.8028
1025.50 0.8026
1025.60 0.8025
1025.70 0.8024
1025.80 0.8022
1025.90 0.8021
1026.00 0.802
1026.10 0.8018
1026.20 0.8017
1026.30 0.8016
1026.40 0.8014
1026.50 0.8013
1026.60 0.8012
1026.70 0.801
1026.80 0.8009
1026.90 0.8008
1027.00 0.8006
1027.10 0.8005
1027.20 0.8004
1027.30 0.8003
1027.40 0.8001
1027.50 0.8
1027.60 0.7999
1027.70 0.7997
1027.80 0.7996
1027.90 0.7995
1028.00 0.7993
1028.10 0.7992
1028.20 0.7991
1028.30 0.7989
1028.40 0.7988
1028.50 0.7987
1028.60 0.7985
1028.70 0.7984
1028.80 0.7983
1028.90 0.7981
1029.00 0.798
1029.10 0.7979
1029.20 0.7978
1029.30 0.7976
1029.40 0.7975
1029.50 0.7974
1029.60 0.7972
1029.70 0.7971
1029.80 0.797
1029.90 0.7968
1030.00 0.7967
1030.10 0.7966
1030.20 0.7964
1030.30 0.7963
1030.40 0.7962
1030.50 0.796
1030.60 0.7959
1030.70 0.7958
1030.80 0.7957
1030.90 0.7955
1031.00 0.7954
1031.10 0.7953
1031.20 0.7951
1031.30 0.795
1031.40 0.7949
1031.50 0.7947
1031.60 0.7946
1031.70 0.7945
1031.80 0.7944
1031.90 0.7942
1032.00 0.7941
1032.10 0.794
1032.20 0.7938
1032.30 0.7937
1032.40 0.7936
1032.50 0.7934
1032.60 0.7933
1032.70 0.7932
1032.80 0.793
1032.90 0.7929
1033.00 0.7928
1033.10 0.7926
1033.20 0.7925
1033.30 0.7924
1033.40 0.7923
1033.50 0.7921
1033.60 0.792
1033.70 0.7919
1033.80 0.7917
1033.90 0.7916
1034.00 0.7915
1034.10 0.7913
1034.20 0.7912
1034.30 0.7911
1034.40 0.791
1034.50 0.7908
1034.60 0.7907
1034.70 0.7906
1034.80 0.7904
1034.90 0.7903
1035.00 0.7902
1035.10 0.79
1035.20 0.7899
1035.30 0.7898
1035.40 0.7897
1035.50 0.7895
1035.60 0.7894
1035.70 0.7893
1035.80 0.7891
1035.90 0.789
1036.00 0.7889
1036.10 0.7887
1036.20 0.7886
1036.30 0.7885
1036.40 0.7884
1036.50 0.7882
1036.60 0.7881
1036.70 0.788
1036.80 0.7878
1036.90 0.7877
1037.00 0.7876
1037.10 0.7874
1037.20 0.7873
1037.30 0.7872
1037.40 0.7871
1037.50 0.7869
1037.60 0.7868
1037.70 0.7867
1037.80 0.7865
1037.90 0.7864
1038.00 0.7863
1038.10 0.7862
1038.20 0.786
1038.30 0.7859
1038.40 0.7858
1038.50 0.7856
1038.60 0.7855
1038.70 0.7854
1038.80 0.7852
1038.90 0.7851
1039.00 0.785
1039.10 0.7849
1039.20 0.7847
1039.30 0.7846
1039.40 0.7845
1039.50 0.7843
1039.60 0.7842
1039.70 0.7841
1039.80 0.784
1039.90 0.7838
1040.00 0.7837
1040.10 0.7836
1040.20 0.7834
1040.30 0.7833
1040.40 0.7832
1040.50 0.7831
1040.60 0.7829
1040.70 0.7828
1040.80 0.7827
1040.90 0.7825
1041.00 0.7824
1041.10 0.7823
1041.20 0.7822
1041.30 0.782
1041.40 0.7819
1041.50 0.7818
1041.60 0.7816
1041.70 0.7815
1041.80 0.7814
1041.90 0.7813
1042.00 0.7811
1042.10 0.781
1042.20 0.7809
1042.30 0.7807
1042.40 0.7806
1042.50 0.7805
1042.60 0.7804
1042.70 0.7802
1042.80 0.7801
1042.90 0.78
1043.00 0.7798
1043.10 0.7797
1043.20 0.7796
1043.30 0.7795
1043.40 0.7793
1043.50 0.7792
1043.60 0.7791
1043.70 0.779
1043.80 0.7788
1043.90 0.7787
1044.00 0.7786
1044.10 0.7784
1044.20 0.7783
1044.30 0.7782
1044.40 0.7781
1044.50 0.7779
1044.60 0.7778
1044.70 0.7777
1044.80 0.7775
1044.90 0.7774
1045.00 0.7773
1045.10 0.7772
1045.20 0.777
1045.30 0.7769
1045.40 0.7768
1045.50 0.7767
1045.60 0.7765
1045.70 0.7764
1045.80 0.7763
1045.90 0.7761
1046.00 0.776
1046.10 0.7759
1046.20 0.7758
1046.30 0.7756
1046.40 0.7755
1046.50 0.7754
1046.60 0.7753
1046.70 0.7751
1046.80 0.775
1046.90 0.7749
1047.00 0.7748
1047.10 0.7746
1047.20 0.7745
1047.30 0.7744
1047.40 0.7742
1047.50 0.7741
1047.60 0.774
1047.70 0.7739
1047.80 0.7737
1047.90 0.7736
1048.00 0.7735
1048.10 0.7734
1048.20 0.7732
1048.30 0.7731
1048.40 0.773
1048.50 0.7728
1048.60 0.7727
1048.70 0.7726
1048.80 0.7725
1048.90 0.7723
1049.00 0.7722
1049.10 0.7721
1049.20 0.772
1049.30 0.7718
1049.40 0.7717
1049.50 0.7716
1049.60 0.7715
1049.70 0.7713
1049.80 0.7712
1049.90 0.7711
1050.00 0.771
1050.10 0.7708
1050.20 0.7707
1050.30 0.7706
1050.40 0.7704
1050.50 0.7703
1050.60 0.7702
1050.70 0.7701
1050.80 0.7699
1050.90 0.7698
1051.00 0.7697
1051.10 0.7696
1051.20 0.7694
1051.30 0.7693
1051.40 0.7692
1051.50 0.7691
1051.60 0.7689
1051.70 0.7688
1051.80 0.7687
1051.90 0.7686
1052.00 0.7684
1052.10 0.7683
1052.20 0.7682
1052.30 0.7681
1052.40 0.7679
1052.50 0.7678
1052.60 0.7677
1052.70 0.7676
1052.80 0.7674
1052.90 0.7673
1053.00 0.7672
1053.10 0.7671
1053.20 0.7669
1053.30 0.7668
1053.40 0.7667
1053.50 0.7665
1053.60 0.7664
1053.70 0.7663
1053.80 0.7662
1053.90 0.766
1054.00 0.7659
1054.10 0.7658
1054.20 0.7657
1054.30 0.7655
1054.40 0.7654
1054.50 0.7653
1054.60 0.7652
1054.70 0.765
1054.80 0.7649
1054.90 0.7648
1055.00 0.7647
1055.10 0.7645
1055.20 0.7644
1055.30 0.7643
1055.40 0.7642
1055.50 0.764
1055.60 0.7639
1055.70 0.7638
1055.80 0.7637
1055.90 0.7635
1056.00 0.7634
1056.10 0.7633
1056.20 0.7632
1056.30 0.7631
1056.40 0.7629
1056.50 0.7628
1056.60 0.7627
1056.70 0.7626
1056.80 0.7624
1056.90 0.7623
1057.00 0.7622
1057.10 0.7621
1057.20 0.7619
1057.30 0.7618
1057.40 0.7617
1057.50 0.7616
1057.60 0.7614
1057.70 0.7613
1057.80 0.7612
1057.90 0.7611
1058.00 0.7609
1058.10 0.7608
1058.20 0.7607
1058.30 0.7606
1058.40 0.7604
1058.50 0.7603
1058.60 0.7602
1058.70 0.7601
1058.80 0.7599
1058.90 0.7598
1059.00 0.7597
1059.10 0.7596
1059.20 0.7594
1059.30 0.7593
1059.40 0.7592
1059.50 0.7591
1059.60 0.759
1059.70 0.7588
1059.80 0.7587
1059.90 0.7586
1060.00 0.7585
1060.10 0.7583
1060.20 0.7582
1060.30 0.7581
1060.40 0.758
1060.50 0.7578
1060.60 0.7577
1060.70 0.7576
1060.80 0.7575
1060.90 0.7573
1061.00 0.7572
1061.10 0.7571
1061.20 0.757
1061.30 0.7569
1061.40 0.7567
1061.50 0.7566
1061.60 0.7565
1061.70 0.7564
1061.80 0.7562
1061.90 0.7561
1062.00 0.756
1062.10 0.7559
1062.20 0.7557
1062.30 0.7556
1062.40 0.7555
1062.50 0.7554
1062.60 0.7553
1062.70 0.7551
1062.80 0.755
1062.90 0.7549
1063.00 0.7548
1063.10 0.7546
1063.20 0.7545
1063.30 0.7544
1063.40 0.7543
1063.50 0.7541
1063.60 0.754
1063.70 0.7539
1063.80 0.7538
1063.90 0.7537
1064.00 0.7535
1064.10 0.7534
1064.20 0.7533
1064.30 0.7532
1064.40 0.753
1064.50 0.7529
1064.60 0.7528
1064.70 0.7527
1064.80 0.7526
1064.90 0.7524
1065.00 0.7523
1065.10 0.7522
1065.20 0.7521
1065.30 0.7519
1065.40 0.7518
1065.50 0.7517
1065.60 0.7516
1065.70 0.7515
1065.80 0.7513
1065.90 0.7512
1066.00 0.7511
1066.10 0.751
1066.20 0.7509
1066.30 0.7507
1066.40 0.7506
1066.50 0.7505
1066.60 0.7504
1066.70 0.7502
1066.80 0.7501
1066.90 0.75
1067.00 0.7499
1067.10 0.7498
1067.20 0.7496
1067.30 0.7495
1067.40 0.7494
1067.50 0.7493
1067.60 0.7492
1067.70 0.749
1067.80 0.7489
1067.90 0.7488
1068.00 0.7487
1068.10 0.7485
1068.20 0.7484
1068.30 0.7483
1068.40 0.7482
1068.50 0.7481
1068.60 0.7479
1068.70 0.7478
1068.80 0.7477
1068.90 0.7476
1069.00 0.7475
1069.10 0.7473
1069.20 0.7472
1069.30 0.7471
1069.40 0.747
1069.50 0.7468
1069.60 0.7467
1069.70 0.7466
1069.80 0.7465
1069.90 0.7464
1070.00 0.7462
1070.10 0.7461
1070.20 0.746
1070.30 0.7459
1070.40 0.7458
1070.50 0.7456
1070.60 0.7455
1070.70 0.7454
1070.80 0.7453
1070.90 0.7452
1071.00 0.745
1071.10 0.7449
1071.20 0.7448
1071.30 0.7447
1071.40 0.7446
1071.50 0.7444
1071.60 0.7443
1071.70 0.7442
1071.80 0.7441
1071.90 0.744
1072.00 0.7438
1072.10 0.7437
1072.20 0.7436
1072.30 0.7435
1072.40 0.7434
1072.50 0.7432
1072.60 0.7431
1072.70 0.743
1072.80 0.7429
1072.90 0.7427
1073.00 0.7426
1073.10 0.7425
1073.20 0.7424
1073.30 0.7423
1073.40 0.7421
1073.50 0.742
1073.60 0.7419
1073.70 0.7418
1073.80 0.7417
1073.90 0.7415
1074.00 0.7414
1074.10 0.7413
1074.20 0.7412
1074.30 0.7411
1074.40 0.7409
1074.50 0.7408
1074.60 0.7407
1074.70 0.7406
1074.80 0.7405
1074.90 0.7403
1075.00 0.7402
1075.10 0.7401
1075.20 0.74
1075.30 0.7399
1075.40 0.7397
1075.50 0.7396
1075.60 0.7395
1075.70 0.7394
1075.80 0.7393
1075.90 0.7391
1076.00 0.739
1076.10 0.7389
1076.20 0.7388
1076.30 0.7387
1076.40 0.7385
1076.50 0.7384
1076.60 0.7383
1076.70 0.7382
1076.80 0.7381
1076.90 0.7379
1077.00 0.7378
1077.10 0.7377
1077.20 0.7376
1077.30 0.7375
1077.40 0.7373
1077.50 0.7372
1077.60 0.7371
1077.70 0.737
1077.80 0.7369
1077.90 0.7367
1078.00 0.7366
1078.10 0.7365
1078.20 0.7364
1078.30 0.7363
1078.40 0.7362
1078.50 0.736
1078.60 0.7359
1078.70 0.7358
1078.80 0.7357
1078.90 0.7356
1079.00 0.7354
1079.10 0.7353
1079.20 0.7352
1079.30 0.7351
1079.40 0.735
1079.50 0.7348
1079.60 0.7347
1079.70 0.7346
1079.80 0.7345
1079.90 0.7344
1080.00 0.7343
1080.10 0.7341
1080.20 0.734
1080.30 0.7339
1080.40 0.7338
1080.50 0.7337
1080.60 0.7335
1080.70 0.7334
1080.80 0.7333
1080.90 0.7332
1081.00 0.7331
1081.10 0.733
1081.20 0.7328
1081.30 0.7327
1081.40 0.7326
1081.50 0.7325
1081.60 0.7324
1081.70 0.7323
1081.80 0.7321
1081.90 0.732
1082.00 0.7319
1082.10 0.7318
1082.20 0.7317
1082.30 0.7315
1082.40 0.7314
1082.50 0.7313
1082.60 0.7312
1082.70 0.7311
1082.80 0.7309
1082.90 0.7308
1083.00 0.7307
1083.10 0.7306
1083.20 0.7305
1083.30 0.7304
1083.40 0.7302
1083.50 0.7301
1083.60 0.73
1083.70 0.7299
1083.80 0.7298
1083.90 0.7296
1084.00 0.7295
1084.10 0.7294
1084.20 0.7293
1084.30 0.7292
1084.40 0.729
1084.50 0.7289
1084.60 0.7288
1084.70 0.7287
1084.80 0.7286
1084.90 0.7285
1085.00 0.7283
1085.10 0.7282
1085.20 0.7281
1085.30 0.728
1085.40 0.7279
1085.50 0.7278
1085.60 0.7276
1085.70 0.7275
1085.80 0.7274
1085.90 0.7273
1086.00 0.7272
1086.10 0.7271
1086.20 0.7269
1086.30 0.7268
1086.40 0.7267
1086.50 0.7266
1086.60 0.7265
1086.70 0.7264
1086.80 0.7262
1086.90 0.7261
1087.00 0.726
1087.10 0.7259
1087.20 0.7258
1087.30 0.7256
1087.40 0.7255
1087.50 0.7254
1087.60 0.7253
1087.70 0.7252
1087.80 0.7251
1087.90 0.7249
1088.00 0.7248
1088.10 0.7247
1088.20 0.7246
1088.30 0.7245
1088.40 0.7244
1088.50 0.7242
1088.60 0.7241
1088.70 0.724
1088.80 0.7239
1088.90 0.7238
1089.00 0.7237
1089.10 0.7235
1089.20 0.7234
1089.30 0.7233
1089.40 0.7232
1089.50 0.7231
1089.60 0.723
1089.70 0.7228
1089.80 0.7227
1089.90 0.7226
1090.00 0.7225
1090.10 0.7224
1090.20 0.7223
1090.30 0.7221
1090.40 0.722
1090.50 0.7219
1090.60 0.7218
1090.70 0.7217
1090.80 0.7216
1090.90 0.7214
1091.00 0.7213
1091.10 0.7212
1091.20 0.7211
1091.30 0.721
1091.40 0.7209
1091.50 0.7207
1091.60 0.7206
1091.70 0.7205
1091.80 0.7204
1091.90 0.7203
1092.00 0.7202
1092.10 0.72
1092.20 0.7199
1092.30 0.7198
1092.40 0.7197
1092.50 0.7196
1092.60 0.7195
1092.70 0.7193
1092.80 0.7192
1092.90 0.7191
1093.00 0.719
1093.10 0.7189
1093.20 0.7188
1093.30 0.7187
1093.40 0.7185
1093.50 0.7184
1093.60 0.7183
1093.70 0.7182
1093.80 0.7181
1093.90 0.718
1094.00 0.7178
1094.10 0.7177
1094.20 0.7176
1094.30 0.7175
1094.40 0.7174
1094.50 0.7173
1094.60 0.7171
1094.70 0.717
1094.80 0.7169
1094.90 0.7168
1095.00 0.7167
1095.10 0.7166
1095.20 0.7165
1095.30 0.7163
1095.40 0.7162
1095.50 0.7161
1095.60 0.716
1095.70 0.7159
1095.80 0.7158
1095.90 0.7156
1096.00 0.7155
1096.10 0.7154
1096.20 0.7153
1096.30 0.7152
1096.40 0.7151
1096.50 0.715
1096.60 0.7148
1096.70 0.7147
1096.80 0.7146
1096.90 0.7145
1097.00 0.7144
1097.10 0.7143
1097.20 0.7142
1097.30 0.714
1097.40 0.7139
1097.50 0.7138
1097.60 0.7137
1097.70 0.7136
1097.80 0.7135
1097.90 0.7133
1098.00 0.7132
1098.10 0.7131
1098.20 0.713
1098.30 0.7129
1098.40 0.7128
1098.50 0.7127
1098.60 0.7125
1098.70 0.7124
1098.80 0.7123
1098.90 0.7122
1099.00 0.7121
1099.10 0.712
1099.20 0.7118
1099.30 0.7117
1099.40 0.7116
1099.50 0.7115
1099.60 0.7114
1099.70 0.7113
1099.80 0.7111
1099.90 0.711
1100.00 0.7109
1100.10 0.7108
1100.20 0.7107
1100.30 0.7106
1100.40 0.7105
1100.50 0.7103
1100.60 0.7102
1100.70 0.7101
1100.80 0.71
1100.90 0.7099
1101.00 0.7098
1101.10 0.7097
1101.20 0.7095
1101.30 0.7094
1101.40 0.7093
1101.50 0.7092
1101.60 0.7091
1101.70 0.709
1101.80 0.7089
1101.90 0.7088
1102.00 0.7086
1102.10 0.7085
1102.20 0.7084
1102.30 0.7083
1102.40 0.7082
1102.50 0.7081
1102.60 0.7079
1102.70 0.7078
1102.80 0.7077
1102.90 0.7076
1103.00 0.7075
1103.10 0.7074
1103.20 0.7073
1103.30 0.7071
1103.40 0.707
1103.50 0.7069
1103.60 0.7068
1103.70 0.7067
1103.80 0.7066
1103.90 0.7065
1104.00 0.7063
1104.10 0.7062
1104.20 0.7061
1104.30 0.706
1104.40 0.7059
1104.50 0.7058
1104.60 0.7057
1104.70 0.7055
1104.80 0.7054
1104.90 0.7053
1105.00 0.7052
1105.10 0.7051
1105.20 0.705
1105.30 0.7049
1105.40 0.7047
1105.50 0.7046
1105.60 0.7045
1105.70 0.7044
1105.80 0.7043
1105.90 0.7042
1106.00 0.7041
1106.10 0.7039
1106.20 0.7038
1106.30 0.7037
1106.40 0.7036
1106.50 0.7035
1106.60 0.7034
1106.70 0.7033
1106.80 0.7031
1106.90 0.703
1107.00 0.7029
1107.10 0.7028
1107.20 0.7027
1107.30 0.7026
1107.40 0.7025
1107.50 0.7024
1107.60 0.7022
1107.70 0.7021
1107.80 0.702
1107.90 0.7019
1108.00 0.7018
1108.10 0.7017
1108.20 0.7016
1108.30 0.7014
1108.40 0.7013
1108.50 0.7012
1108.60 0.7011
1108.70 0.701
1108.80 0.7009
1108.90 0.7008
1109.00 0.7006
1109.10 0.7005
1109.20 0.7004
1109.30 0.7003
1109.40 0.7002
1109.50 0.7001
1109.60 0.7
1109.70 0.6999
1109.80 0.6997
1109.90 0.6996
1110.00 0.6995
1110.10 0.6994
1110.20 0.6993
1110.30 0.6992
1110.40 0.6991
1110.50 0.6989
1110.60 0.6988
1110.70 0.6987
1110.80 0.6986
1110.90 0.6985
1111.00 0.6984
1111.10 0.6983
1111.20 0.6982
1111.30 0.698
1111.40 0.6979
1111.50 0.6978
1111.60 0.6977
1111.70 0.6976
1111.80 0.6975
1111.90 0.6974
1112.00 0.6973
1112.10 0.6971
1112.20 0.697
1112.30 0.6969
1112.40 0.6968
1112.50 0.6967
1112.60 0.6966
1112.70 0.6965
1112.80 0.6963
1112.90 0.6962
1113.00 0.6961
1113.10 0.696
1113.20 0.6959
1113.30 0.6958
1113.40 0.6957
1113.50 0.6956
1113.60 0.6954
1113.70 0.6953
1113.80 0.6952
1113.90 0.6951
1114.00 0.695
1114.10 0.6949
1114.20 0.6948
1114.30 0.6947
1114.40 0.6945
1114.50 0.6944
1114.60 0.6943
1114.70 0.6942
1114.80 0.6941
1114.90 0.694
1115.00 0.6939
1115.10 0.6938
1115.20 0.6936
1115.30 0.6935
1115.40 0.6934
1115.50 0.6933
1115.60 0.6932
1115.70 0.6931
1115.80 0.693
1115.90 0.6929
1116.00 0.6927
1116.10 0.6926
1116.20 0.6925
1116.30 0.6924
1116.40 0.6923
1116.50 0.6922
1116.60 0.6921
1116.70 0.692
1116.80 0.6918
1116.90 0.6917
1117.00 0.6916
1117.10 0.6915
1117.20 0.6914
1117.30 0.6913
1117.40 0.6912
1117.50 0.6911
1117.60 0.6909
1117.70 0.6908
1117.80 0.6907
1117.90 0.6906
1118.00 0.6905
1118.10 0.6904
1118.20 0.6903
1118.30 0.6902
1118.40 0.6901
1118.50 0.6899
1118.60 0.6898
1118.70 0.6897
1118.80 0.6896
1118.90 0.6895
1119.00 0.6894
1119.10 0.6893
1119.20 0.6892
1119.30 0.6891
1119.40 0.6889
1119.50 0.6888
1119.60 0.6887
1119.70 0.6886
1119.80 0.6885
1119.90 0.6884
1120.00 0.6883
1120.10 0.6882
1120.20 0.688
1120.30 0.6879
1120.40 0.6878
1120.50 0.6877
1120.60 0.6876
1120.70 0.6875
1120.80 0.6874
1120.90 0.6873
1121.00 0.6872
1121.10 0.6871
1121.20 0.6869
1121.30 0.6868
1121.40 0.6867
1121.50 0.6866
1121.60 0.6865
1121.70 0.6864
1121.80 0.6863
1121.90 0.6862
1122.00 0.6861
1122.10 0.6859
1122.20 0.6858
1122.30 0.6857
1122.40 0.6856
1122.50 0.6855
1122.60 0.6854
1122.70 0.6853
1122.80 0.6852
1122.90 0.685
1123.00 0.6849
1123.10 0.6848
1123.20 0.6847
1123.30 0.6846
1123.40 0.6845
1123.50 0.6844
1123.60 0.6843
1123.70 0.6842
1123.80 0.684
1123.90 0.6839
1124.00 0.6838
1124.10 0.6837
1124.20 0.6836
1124.30 0.6835
1124.40 0.6834
1124.50 0.6833
1124.60 0.6832
1124.70 0.683
1124.80 0.6829
1124.90 0.6828
1125.00 0.6827
1125.10 0.6826
1125.20 0.6825
1125.30 0.6824
1125.40 0.6823
1125.50 0.6822
1125.60 0.6821
1125.70 0.6819
1125.80 0.6818
1125.90 0.6817
1126.00 0.6816
1126.10 0.6815
1126.20 0.6814
1126.30 0.6813
1126.40 0.6812
1126.50 0.6811
1126.60 0.6809
1126.70 0.6808
1126.80 0.6807
1126.90 0.6806
1127.00 0.6805
1127.10 0.6804
1127.20 0.6803
1127.30 0.6802
1127.40 0.6801
1127.50 0.6799
1127.60 0.6798
1127.70 0.6797
1127.80 0.6796
1127.90 0.6795
1128.00 0.6794
1128.10 0.6793
1128.20 0.6792
1128.30 0.6791
1128.40 0.679
1128.50 0.6788
1128.60 0.6787
1128.70 0.6786
1128.80 0.6785
1128.90 0.6784
1129.00 0.6783
1129.10 0.6782
1129.20 0.6781
1129.30 0.678
1129.40 0.6778
1129.50 0.6777
1129.60 0.6776
1129.70 0.6775
1129.80 0.6774
1129.90 0.6773
1130.00 0.6772
1130.10 0.6771
1130.20 0.677
1130.30 0.6769
1130.40 0.6767
1130.50 0.6766
1130.60 0.6765
1130.70 0.6764
1130.80 0.6763
1130.90 0.6762
1131.00 0.6761
1131.10 0.676
1131.20 0.6759
1131.30 0.6758
1131.40 0.6756
1131.50 0.6755
1131.60 0.6754
1131.70 0.6753
1131.80 0.6752
1131.90 0.6751
1132.00 0.675
1132.10 0.6749
1132.20 0.6748
1132.30 0.6747
1132.40 0.6745
1132.50 0.6744
1132.60 0.6743
1132.70 0.6742
1132.80 0.6741
1132.90 0.674
1133.00 0.6739
1133.10 0.6738
1133.20 0.6737
1133.30 0.6736
1133.40 0.6734
1133.50 0.6733
1133.60 0.6732
1133.70 0.6731
1133.80 0.673
1133.90 0.6729
1134.00 0.6728
1134.10 0.6727
1134.20 0.6726
1134.30 0.6725
1134.40 0.6723
1134.50 0.6722
1134.60 0.6721
1134.70 0.672
1134.80 0.6719
1134.90 0.6718
1135.00 0.6717
1135.10 0.6716
1135.20 0.6715
1135.30 0.6714
1135.40 0.6713
1135.50 0.6711
1135.60 0.671
1135.70 0.6709
1135.80 0.6708
1135.90 0.6707
1136.00 0.6706
1136.10 0.6705
1136.20 0.6704
1136.30 0.6703
1136.40 0.6702
1136.50 0.6701
1136.60 0.6699
1136.70 0.6698
1136.80 0.6697
1136.90 0.6696
1137.00 0.6695
1137.10 0.6694
1137.20 0.6693
1137.30 0.6692
1137.40 0.6691
1137.50 0.669
1137.60 0.6688
1137.70 0.6687
1137.80 0.6686
1137.90 0.6685
1138.00 0.6684
1138.10 0.6683
1138.20 0.6682
1138.30 0.6681
1138.40 0.668
1138.50 0.6679
1138.60 0.6677
1138.70 0.6676
1138.80 0.6675
1138.90 0.6674
1139.00 0.6673
1139.10 0.6672
1139.20 0.6671
1139.30 0.667
1139.40 0.6669
1139.50 0.6668
1139.60 0.6667
1139.70 0.6665
1139.80 0.6664
1139.90 0.6663
1140.00 0.6662
1140.10 0.6661
1140.20 0.666
1140.30 0.6659
1140.40 0.6658
1140.50 0.6657
1140.60 0.6656
1140.70 0.6655
1140.80 0.6653
1140.90 0.6652
1141.00 0.6651
1141.10 0.665
1141.20 0.6649
1141.30 0.6648
1141.40 0.6647
1141.50 0.6646
1141.60 0.6645
1141.70 0.6644
1141.80 0.6643
1141.90 0.6641
1142.00 0.664
1142.10 0.6639
1142.20 0.6638
1142.30 0.6637
1142.40 0.6636
1142.50 0.6635
1142.60 0.6634
1142.70 0.6633
1142.80 0.6632
1142.90 0.6631
1143.00 0.6629
1143.10 0.6628
1143.20 0.6627
1143.30 0.6626
1143.40 0.6625
1143.50 0.6624
1143.60 0.6623
1143.70 0.6622
1143.80 0.6621
1143.90 0.662
1144.00 0.6619
1144.10 0.6618
1144.20 0.6616
1144.30 0.6615
1144.40 0.6614
1144.50 0.6613
1144.60 0.6612
1144.70 0.6611
1144.80 0.661
1144.90 0.6609
1145.00 0.6608
1145.10 0.6607
1145.20 0.6606
1145.30 0.6605
1145.40 0.6603
1145.50 0.6602
1145.60 0.6601
1145.70 0.66
1145.80 0.6599
1145.90 0.6598
1146.00 0.6597
1146.10 0.6596
1146.20 0.6595
1146.30 0.6594
1146.40 0.6593
1146.50 0.6592
1146.60 0.6591
1146.70 0.6589
1146.80 0.6588
1146.90 0.6587
1147.00 0.6586
1147.10 0.6585
1147.20 0.6584
1147.30 0.6583
1147.40 0.6582
1147.50 0.6581
1147.60 0.658
1147.70 0.6579
1147.80 0.6578
1147.90 0.6576
1148.00 0.6575
1148.10 0.6574
1148.20 0.6573
1148.30 0.6572
1148.40 0.6571
1148.50 0.657
1148.60 0.6569
1148.70 0.6568
1148.80 0.6567
1148.90 0.6566
1149.00 0.6565
1149.10 0.6563
1149.20 0.6562
1149.30 0.6561
1149.40 0.656
1149.50 0.6559
1149.60 0.6558
1149.70 0.6557
1149.80 0.6556
1149.90 0.6555
1150.00 0.6554
1150.10 0.6553
1150.20 0.6552
1150.30 0.6551
1150.40 0.6549
1150.50 0.6548
1150.60 0.6547
1150.70 0.6546
1150.80 0.6545
1150.90 0.6544
1151.00 0.6543
1151.10 0.6542
1151.20 0.6541
1151.30 0.654
1151.40 0.6539
1151.50 0.6538
1151.60 0.6537
1151.70 0.6535
1151.80 0.6534
1151.90 0.6533
1152.00 0.6532
1152.10 0.6531
1152.20 0.653
1152.30 0.6529
1152.40 0.6528
1152.50 0.6527
1152.60 0.6526
1152.70 0.6525
1152.80 0.6524
1152.90 0.6522
1153.00 0.6521
1153.10 0.652
1153.20 0.6519
1153.30 0.6518
1153.40 0.6517
1153.50 0.6516
1153.60 0.6515
1153.70 0.6514
1153.80 0.6513
1153.90 0.6512
1154.00 0.6511
1154.10 0.651
1154.20 0.6508
1154.30 0.6507
1154.40 0.6506
1154.50 0.6505
1154.60 0.6504
1154.70 0.6503
1154.80 0.6502
1154.90 0.6501
1155.00 0.65
1155.10 0.6499
1155.20 0.6498
1155.30 0.6497
1155.40 0.6496
1155.50 0.6494
1155.60 0.6493
1155.70 0.6492
1155.80 0.6491
1155.90 0.649
1156.00 0.6489
1156.10 0.6488
1156.20 0.6487
1156.30 0.6486
1156.40 0.6485
1156.50 0.6484
1156.60 0.6483
1156.70 0.6482
1156.80 0.6481
1156.90 0.6479
1157.00 0.6478
1157.10 0.6477
1157.20 0.6476
1157.30 0.6475
1157.40 0.6474
1157.50 0.6473
1157.60 0.6472
1157.70 0.6471
1157.80 0.647
1157.90 0.6469
1158.00 0.6468
1158.10 0.6467
1158.20 0.6465
1158.30 0.6464
1158.40 0.6463
1158.50 0.6462
1158.60 0.6461
1158.70 0.646
1158.80 0.6459
1158.90 0.6458
1159.00 0.6457
1159.10 0.6456
1159.20 0.6455
1159.30 0.6454
1159.40 0.6453
1159.50 0.6452
1159.60 0.645
1159.70 0.6449
1159.80 0.6448
1159.90 0.6447
1160.00 0.6446
1160.10 0.6445
1160.20 0.6444
1160.30 0.6443
1160.40 0.6442
1160.50 0.6441
1160.60 0.644
1160.70 0.6439
1160.80 0.6438
1160.90 0.6437
1161.00 0.6435
1161.10 0.6434
1161.20 0.6433
1161.30 0.6432
1161.40 0.6431
1161.50 0.643
1161.60 0.6429
1161.70 0.6428
1161.80 0.6427
1161.90 0.6426
1162.00 0.6425
1162.10 0.6424
1162.20 0.6423
1162.30 0.6422
1162.40 0.6421
1162.50 0.6419
1162.60 0.6418
1162.70 0.6417
1162.80 0.6416
1162.90 0.6415
1163.00 0.6414
1163.10 0.6413
1163.20 0.6412
1163.30 0.6411
1163.40 0.641
1163.50 0.6409
1163.60 0.6408
1163.70 0.6407
1163.80 0.6406
1163.90 0.6404
1164.00 0.6403
1164.10 0.6402
1164.20 0.6401
1164.30 0.64
1164.40 0.6399
1164.50 0.6398
1164.60 0.6397
1164.70 0.6396
1164.80 0.6395
1164.90 0.6394
1165.00 0.6393
1165.10 0.6392
1165.20 0.6391
1165.30 0.639
1165.40 0.6388
1165.50 0.6387
1165.60 0.6386
1165.70 0.6385
1165.80 0.6384
1165.90 0.6383
1166.00 0.6382
1166.10 0.6381
1166.20 0.638
1166.30 0.6379
1166.40 0.6378
1166.50 0.6377
1166.60 0.6376
1166.70 0.6375
1166.80 0.6374
1166.90 0.6373
1167.00 0.6371
1167.10 0.637
1167.20 0.6369
1167.30 0.6368
1167.40 0.6367
1167.50 0.6366
1167.60 0.6365
1167.70 0.6364
1167.80 0.6363
1167.90 0.6362
1168.00 0.6361
1168.10 0.636
1168.20 0.6359
1168.30 0.6358
1168.40 0.6357
1168.50 0.6355
1168.60 0.6354
1168.70 0.6353
1168.80 0.6352
1168.90 0.6351
1169.00 0.635
1169.10 0.6349
1169.20 0.6348
1169.30 0.6347
1169.40 0.6346
1169.50 0.6345
1169.60 0.6344
1169.70 0.6343
1169.80 0.6342
1169.90 0.6341
1170.00 0.6339
1170.10 0.6338
1170.20 0.6337
1170.30 0.6336
1170.40 0.6335
1170.50 0.6334
1170.60 0.6333
1170.70 0.6332
1170.80 0.6331
1170.90 0.633
1171.00 0.6329
1171.10 0.6328
1171.20 0.6327
1171.30 0.6326
1171.40 0.6325
1171.50 0.6324
1171.60 0.6323
1171.70 0.6321
1171.80 0.632
1171.90 0.6319
1172.00 0.6318
1172.10 0.6317
1172.20 0.6316
1172.30 0.6315
1172.40 0.6314
1172.50 0.6313
1172.60 0.6312
1172.70 0.6311
1172.80 0.631
1172.90 0.6309
1173.00 0.6308
1173.10 0.6307
1173.20 0.6306
1173.30 0.6304
1173.40 0.6303
1173.50 0.6302
1173.60 0.6301
1173.70 0.63
1173.80 0.6299
1173.90 0.6298
1174.00 0.6297
1174.10 0.6296
1174.20 0.6295
1174.30 0.6294
1174.40 0.6293
1174.50 0.6292
1174.60 0.6291
1174.70 0.629
1174.80 0.6289
1174.90 0.6288
1175.00 0.6286
1175.10 0.6285
1175.20 0.6284
1175.30 0.6283
1175.40 0.6282
1175.50 0.6281
1175.60 0.628
1175.70 0.6279
1175.80 0.6278
1175.90 0.6277
1176.00 0.6276
1176.10 0.6275
1176.20 0.6274
1176.30 0.6273
1176.40 0.6272
1176.50 0.6271
1176.60 0.627
1176.70 0.6269
1176.80 0.6267
1176.90 0.6266
1177.00 0.6265
1177.10 0.6264
1177.20 0.6263
1177.30 0.6262
1177.40 0.6261
1177.50 0.626
1177.60 0.6259
1177.70 0.6258
1177.80 0.6257
1177.90 0.6256
1178.00 0.6255
1178.10 0.6254
1178.20 0.6253
1178.30 0.6252
1178.40 0.6251
1178.50 0.625
1178.60 0.6248
1178.70 0.6247
1178.80 0.6246
1178.90 0.6245
1179.00 0.6244
1179.10 0.6243
1179.20 0.6242
1179.30 0.6241
1179.40 0.624
1179.50 0.6239
1179.60 0.6238
1179.70 0.6237
1179.80 0.6236
1179.90 0.6235
1180.00 0.6234
1180.10 0.6233
1180.20 0.6232
1180.30 0.6231
1180.40 0.6229
1180.50 0.6228
1180.60 0.6227
1180.70 0.6226
1180.80 0.6225
1180.90 0.6224
1181.00 0.6223
1181.10 0.6222
1181.20 0.6221
1181.30 0.622
1181.40 0.6219
1181.50 0.6218
1181.60 0.6217
1181.70 0.6216
1181.80 0.6215
1181.90 0.6214
1182.00 0.6213
1182.10 0.6212
1182.20 0.6211
1182.30 0.6209
1182.40 0.6208
1182.50 0.6207
1182.60 0.6206
1182.70 0.6205
1182.80 0.6204
1182.90 0.6203
1183.00 0.6202
1183.10 0.6201
1183.20 0.62
1183.30 0.6199
1183.40 0.6198
1183.50 0.6197
1183.60 0.6196
1183.70 0.6195
1183.80 0.6194
1183.90 0.6193
1184.00 0.6192
1184.10 0.6191
1184.20 0.6189
1184.30 0.6188
1184.40 0.6187
1184.50 0.6186
1184.60 0.6185
1184.70 0.6184
1184.80 0.6183
1184.90 0.6182
1185.00 0.6181
1185.10 0.618
1185.20 0.6179
1185.30 0.6178
1185.40 0.6177
1185.50 0.6176
1185.60 0.6175
1185.70 0.6174
1185.80 0.6173
1185.90 0.6172
1186.00 0.6171
1186.10 0.617
1186.20 0.6168
1186.30 0.6167
1186.40 0.6166
1186.50 0.6165
1186.60 0.6164
1186.70 0.6163
1186.80 0.6162
1186.90 0.6161
1187.00 0.616
1187.10 0.6159
1187.20 0.6158
1187.30 0.6157
1187.40 0.6156
1187.50 0.6155
1187.60 0.6154
1187.70 0.6153
1187.80 0.6152
1187.90 0.6151
1188.00 0.615
1188.10 0.6149
1188.20 0.6148
1188.30 0.6146
1188.40 0.6145
1188.50 0.6144
1188.60 0.6143
1188.70 0.6142
1188.80 0.6141
1188.90 0.614
1189.00 0.6139
1189.10 0.6138
1189.20 0.6137
1189.30 0.6136
1189.40 0.6135
1189.50 0.6134
1189.60 0.6133
1189.70 0.6132
1189.80 0.6131
1189.90 0.613
1190.00 0.6129
1190.10 0.6128
1190.20 0.6127
1190.30 0.6126
1190.40 0.6125
1190.50 0.6123
1190.60 0.6122
1190.70 0.6121
1190.80 0.612
1190.90 0.6119
1191.00 0.6118
1191.10 0.6117
1191.20 0.6116
1191.30 0.6115
1191.40 0.6114
1191.50 0.6113
1191.60 0.6112
1191.70 0.6111
1191.80 0.611
1191.90 0.6109
1192.00 0.6108
1192.10 0.6107
1192.20 0.6106
1192.30 0.6105
1192.40 0.6104
1192.50 0.6103
1192.60 0.6102
1192.70 0.6101
1192.80 0.6099
1192.90 0.6098
1193.00 0.6097
1193.10 0.6096
1193.20 0.6095
1193.30 0.6094
1193.40 0.6093
1193.50 0.6092
1193.60 0.6091
1193.70 0.609
1193.80 0.6089
1193.90 0.6088
1194.00 0.6087
1194.10 0.6086
1194.20 0.6085
1194.30 0.6084
1194.40 0.6083
1194.50 0.6082
1194.60 0.6081
1194.70 0.608
1194.80 0.6079
1194.90 0.6078
1195.00 0.6077
1195.10 0.6075
1195.20 0.6074
1195.30 0.6073
1195.40 0.6072
1195.50 0.6071
1195.60 0.607
1195.70 0.6069
1195.80 0.6068
1195.90 0.6067
1196.00 0.6066
1196.10 0.6065
1196.20 0.6064
1196.30 0.6063
1196.40 0.6062
1196.50 0.6061
1196.60 0.606
1196.70 0.6059
1196.80 0.6058
1196.90 0.6057
1197.00 0.6056
1197.10 0.6055
1197.20 0.6054
1197.30 0.6053
1197.40 0.6052
1197.50 0.6051
1197.60 0.605
1197.70 0.6048
1197.80 0.6047
1197.90 0.6046
1198.00 0.6045
1198.10 0.6044
1198.20 0.6043
1198.30 0.6042
1198.40 0.6041
1198.50 0.604
1198.60 0.6039
1198.70 0.6038
1198.80 0.6037
1198.90 0.6036
1199.00 0.6035
1199.10 0.6034
1199.20 0.6033
1199.30 0.6032
1199.40 0.6031
1199.50 0.603
1199.60 0.6029
1199.70 0.6028
1199.80 0.6027
1199.90 0.6026
1200.00 0
