# Version 2.1 - nm, norm@500 to 1, cut digits, bergeron_50000_85.dat_50000
# Wavelength(nm)  Flambda(ergs/cm^s/s/nm)
300.00 6.209
300.10 6.202
300.20 6.194
300.30 6.187
300.40 6.18
300.50 6.172
300.60 6.165
300.70 6.157
300.80 6.15
300.90 6.142
301.00 6.135
301.10 6.128
301.20 6.12
301.30 6.113
301.40 6.106
301.50 6.098
301.60 6.091
301.70 6.084
301.80 6.076
301.90 6.069
302.00 6.062
302.10 6.054
302.20 6.047
302.30 6.04
302.40 6.033
302.50 6.025
302.60 6.018
302.70 6.011
302.80 6.004
302.90 5.997
303.00 5.989
303.10 5.982
303.20 5.975
303.30 5.968
303.40 5.961
303.50 5.954
303.60 5.947
303.70 5.939
303.80 5.932
303.90 5.925
304.00 5.918
304.10 5.911
304.20 5.904
304.30 5.897
304.40 5.89
304.50 5.883
304.60 5.876
304.70 5.869
304.80 5.862
304.90 5.855
305.00 5.848
305.10 5.841
305.20 5.834
305.30 5.827
305.40 5.82
305.50 5.813
305.60 5.807
305.70 5.8
305.80 5.793
305.90 5.786
306.00 5.779
306.10 5.772
306.20 5.765
306.30 5.759
306.40 5.752
306.50 5.745
306.60 5.738
306.70 5.731
306.80 5.725
306.90 5.718
307.00 5.711
307.10 5.704
307.20 5.698
307.30 5.691
307.40 5.684
307.50 5.677
307.60 5.671
307.70 5.664
307.80 5.657
307.90 5.651
308.00 5.644
308.10 5.637
308.20 5.631
308.30 5.624
308.40 5.617
308.50 5.611
308.60 5.604
308.70 5.598
308.80 5.591
308.90 5.584
309.00 5.578
309.10 5.571
309.20 5.565
309.30 5.558
309.40 5.552
309.50 5.545
309.60 5.539
309.70 5.532
309.80 5.526
309.90 5.519
310.00 5.513
310.10 5.506
310.20 5.5
310.30 5.493
310.40 5.487
310.50 5.481
310.60 5.474
310.70 5.468
310.80 5.461
310.90 5.455
311.00 5.449
311.10 5.442
311.20 5.436
311.30 5.43
311.40 5.423
311.50 5.417
311.60 5.411
311.70 5.404
311.80 5.398
311.90 5.392
312.00 5.385
312.10 5.379
312.20 5.373
312.30 5.367
312.40 5.36
312.50 5.354
312.60 5.348
312.70 5.342
312.80 5.335
312.90 5.329
313.00 5.323
313.10 5.317
313.20 5.311
313.30 5.305
313.40 5.298
313.50 5.292
313.60 5.286
313.70 5.28
313.80 5.274
313.90 5.268
314.00 5.262
314.10 5.256
314.20 5.25
314.30 5.243
314.40 5.237
314.50 5.231
314.60 5.225
314.70 5.219
314.80 5.213
314.90 5.207
315.00 5.201
315.10 5.195
315.20 5.189
315.30 5.183
315.40 5.177
315.50 5.171
315.60 5.165
315.70 5.159
315.80 5.153
315.90 5.147
316.00 5.142
316.10 5.136
316.20 5.13
316.30 5.124
316.40 5.118
316.50 5.112
316.60 5.106
316.70 5.1
316.80 5.094
316.90 5.089
317.00 5.083
317.10 5.077
317.20 5.071
317.30 5.065
317.40 5.059
317.50 5.054
317.60 5.048
317.70 5.042
317.80 5.036
317.90 5.031
318.00 5.025
318.10 5.019
318.20 5.013
318.30 5.008
318.40 5.002
318.50 4.996
318.60 4.99
318.70 4.985
318.80 4.979
318.90 4.973
319.00 4.968
319.10 4.962
319.20 4.956
319.30 4.951
319.40 4.945
319.50 4.939
319.60 4.934
319.70 4.928
319.80 4.923
319.90 4.917
320.00 4.911
320.10 4.906
320.20 4.9
320.30 4.895
320.40 4.889
320.50 4.884
320.60 4.878
320.70 4.872
320.80 4.867
320.90 4.861
321.00 4.856
321.10 4.85
321.20 4.845
321.30 4.839
321.40 4.834
321.50 4.828
321.60 4.823
321.70 4.817
321.80 4.812
321.90 4.807
322.00 4.801
322.10 4.796
322.20 4.79
322.30 4.785
322.40 4.779
322.50 4.774
322.60 4.769
322.70 4.763
322.80 4.758
322.90 4.753
323.00 4.747
323.10 4.742
323.20 4.737
323.30 4.731
323.40 4.726
323.50 4.721
323.60 4.715
323.70 4.71
323.80 4.705
323.90 4.699
324.00 4.694
324.10 4.689
324.20 4.683
324.30 4.678
324.40 4.673
324.50 4.668
324.60 4.662
324.70 4.657
324.80 4.652
324.90 4.647
325.00 4.642
325.10 4.636
325.20 4.631
325.30 4.626
325.40 4.621
325.50 4.616
325.60 4.61
325.70 4.605
325.80 4.6
325.90 4.595
326.00 4.59
326.10 4.585
326.20 4.58
326.30 4.574
326.40 4.569
326.50 4.564
326.60 4.559
326.70 4.554
326.80 4.549
326.90 4.544
327.00 4.539
327.10 4.534
327.20 4.529
327.30 4.524
327.40 4.519
327.50 4.514
327.60 4.509
327.70 4.504
327.80 4.499
327.90 4.494
328.00 4.489
328.10 4.484
328.20 4.479
328.30 4.474
328.40 4.469
328.50 4.464
328.60 4.459
328.70 4.454
328.80 4.449
328.90 4.444
329.00 4.439
329.10 4.434
329.20 4.429
329.30 4.424
329.40 4.419
329.50 4.414
329.60 4.41
329.70 4.405
329.80 4.4
329.90 4.395
330.00 4.39
330.10 4.385
330.20 4.38
330.30 4.376
330.40 4.371
330.50 4.366
330.60 4.361
330.70 4.356
330.80 4.352
330.90 4.347
331.00 4.342
331.10 4.337
331.20 4.332
331.30 4.328
331.40 4.323
331.50 4.318
331.60 4.313
331.70 4.309
331.80 4.304
331.90 4.299
332.00 4.294
332.10 4.29
332.20 4.285
332.30 4.28
332.40 4.276
332.50 4.271
332.60 4.266
332.70 4.261
332.80 4.257
332.90 4.252
333.00 4.247
333.10 4.243
333.20 4.238
333.30 4.234
333.40 4.229
333.50 4.224
333.60 4.22
333.70 4.215
333.80 4.21
333.90 4.206
334.00 4.201
334.10 4.197
334.20 4.192
334.30 4.187
334.40 4.183
334.50 4.178
334.60 4.174
334.70 4.169
334.80 4.165
334.90 4.16
335.00 4.156
335.10 4.151
335.20 4.146
335.30 4.142
335.40 4.137
335.50 4.133
335.60 4.128
335.70 4.124
335.80 4.119
335.90 4.115
336.00 4.11
336.10 4.106
336.20 4.102
336.30 4.097
336.40 4.093
336.50 4.088
336.60 4.084
336.70 4.079
336.80 4.075
336.90 4.07
337.00 4.066
337.10 4.062
337.20 4.057
337.30 4.053
337.40 4.048
337.50 4.044
337.60 4.04
337.70 4.035
337.80 4.031
337.90 4.027
338.00 4.022
338.10 4.018
338.20 4.014
338.30 4.009
338.40 4.005
338.50 4.001
338.60 3.996
338.70 3.992
338.80 3.988
338.90 3.983
339.00 3.979
339.10 3.975
339.20 3.97
339.30 3.966
339.40 3.962
339.50 3.958
339.60 3.953
339.70 3.949
339.80 3.945
339.90 3.941
340.00 3.936
340.10 3.932
340.20 3.928
340.30 3.924
340.40 3.92
340.50 3.915
340.60 3.911
340.70 3.907
340.80 3.903
340.90 3.899
341.00 3.894
341.10 3.89
341.20 3.886
341.30 3.882
341.40 3.878
341.50 3.874
341.60 3.869
341.70 3.865
341.80 3.861
341.90 3.857
342.00 3.853
342.10 3.849
342.20 3.845
342.30 3.84
342.40 3.836
342.50 3.832
342.60 3.828
342.70 3.824
342.80 3.82
342.90 3.816
343.00 3.812
343.10 3.808
343.20 3.804
343.30 3.8
343.40 3.796
343.50 3.792
343.60 3.788
343.70 3.784
343.80 3.779
343.90 3.775
344.00 3.771
344.10 3.767
344.20 3.763
344.30 3.759
344.40 3.755
344.50 3.751
344.60 3.748
344.70 3.744
344.80 3.74
344.90 3.736
345.00 3.732
345.10 3.728
345.20 3.724
345.30 3.72
345.40 3.716
345.50 3.712
345.60 3.708
345.70 3.704
345.80 3.7
345.90 3.696
346.00 3.692
346.10 3.688
346.20 3.684
346.30 3.681
346.40 3.677
346.50 3.673
346.60 3.669
346.70 3.665
346.80 3.661
346.90 3.657
347.00 3.653
347.10 3.65
347.20 3.646
347.30 3.642
347.40 3.638
347.50 3.634
347.60 3.63
347.70 3.627
347.80 3.623
347.90 3.619
348.00 3.615
348.10 3.611
348.20 3.607
348.30 3.604
348.40 3.6
348.50 3.596
348.60 3.592
348.70 3.589
348.80 3.585
348.90 3.581
349.00 3.577
349.10 3.574
349.20 3.57
349.30 3.566
349.40 3.562
349.50 3.559
349.60 3.555
349.70 3.551
349.80 3.547
349.90 3.544
350.00 3.54
350.10 3.536
350.20 3.533
350.30 3.529
350.40 3.525
350.50 3.522
350.60 3.518
350.70 3.514
350.80 3.511
350.90 3.507
351.00 3.503
351.10 3.5
351.20 3.496
351.30 3.492
351.40 3.489
351.50 3.485
351.60 3.481
351.70 3.478
351.80 3.474
351.90 3.47
352.00 3.467
352.10 3.463
352.20 3.46
352.30 3.456
352.40 3.452
352.50 3.449
352.60 3.445
352.70 3.442
352.80 3.438
352.90 3.435
353.00 3.431
353.10 3.427
353.20 3.424
353.30 3.42
353.40 3.417
353.50 3.413
353.60 3.41
353.70 3.406
353.80 3.403
353.90 3.399
354.00 3.395
354.10 3.392
354.20 3.388
354.30 3.385
354.40 3.381
354.50 3.378
354.60 3.374
354.70 3.371
354.80 3.368
354.90 3.364
355.00 3.361
355.10 3.357
355.20 3.354
355.30 3.35
355.40 3.347
355.50 3.343
355.60 3.34
355.70 3.336
355.80 3.333
355.90 3.329
356.00 3.326
356.10 3.323
356.20 3.319
356.30 3.316
356.40 3.312
356.50 3.309
356.60 3.306
356.70 3.302
356.80 3.299
356.90 3.295
357.00 3.292
357.10 3.289
357.20 3.285
357.30 3.282
357.40 3.278
357.50 3.275
357.60 3.272
357.70 3.268
357.80 3.265
357.90 3.262
358.00 3.258
358.10 3.255
358.20 3.252
358.30 3.248
358.40 3.245
358.50 3.242
358.60 3.238
358.70 3.235
358.80 3.232
358.90 3.228
359.00 3.225
359.10 3.222
359.20 3.219
359.30 3.215
359.40 3.212
359.50 3.209
359.60 3.205
359.70 3.202
359.80 3.199
359.90 3.196
360.00 3.192
360.10 3.189
360.20 3.186
360.30 3.183
360.40 3.179
360.50 3.176
360.60 3.173
360.70 3.17
360.80 3.166
360.90 3.163
361.00 3.16
361.10 3.157
361.20 3.154
361.30 3.15
361.40 3.147
361.50 3.144
361.60 3.141
361.70 3.138
361.80 3.134
361.90 3.131
362.00 3.128
362.10 3.125
362.20 3.122
362.30 3.119
362.40 3.115
362.50 3.112
362.60 3.109
362.70 3.106
362.80 3.103
362.90 3.1
363.00 3.096
363.10 3.093
363.20 3.09
363.30 3.087
363.40 3.084
363.50 3.081
363.60 3.078
363.70 3.075
363.80 3.072
363.90 3.068
364.00 3.065
364.10 3.062
364.20 3.059
364.30 3.056
364.40 3.053
364.50 3.05
364.60 3.047
364.70 3.044
364.80 3.041
364.90 3.038
365.00 3.035
365.10 3.032
365.20 3.029
365.30 3.025
365.40 3.022
365.50 3.019
365.60 3.016
365.70 3.013
365.80 3.01
365.90 3.007
366.00 3.004
366.10 3.001
366.20 2.998
366.30 2.995
366.40 2.992
366.50 2.989
366.60 2.986
366.70 2.983
366.80 2.98
366.90 2.977
367.00 2.974
367.10 2.97
367.20 2.967
367.30 2.964
367.40 2.961
367.50 2.958
367.60 2.955
367.70 2.952
367.80 2.949
367.90 2.946
368.00 2.943
368.10 2.94
368.20 2.937
368.30 2.934
368.40 2.931
368.50 2.928
368.60 2.925
368.70 2.922
368.80 2.919
368.90 2.916
369.00 2.913
369.10 2.909
369.20 2.906
369.30 2.903
369.40 2.9
369.50 2.897
369.60 2.894
369.70 2.891
369.80 2.888
369.90 2.885
370.00 2.882
370.10 2.879
370.20 2.876
370.30 2.873
370.40 2.87
370.50 2.867
370.60 2.864
370.70 2.862
370.80 2.859
370.90 2.856
371.00 2.853
371.10 2.85
371.20 2.847
371.30 2.844
371.40 2.841
371.50 2.838
371.60 2.835
371.70 2.832
371.80 2.829
371.90 2.826
372.00 2.823
372.10 2.821
372.20 2.818
372.30 2.815
372.40 2.812
372.50 2.809
372.60 2.807
372.70 2.804
372.80 2.801
372.90 2.798
373.00 2.795
373.10 2.793
373.20 2.79
373.30 2.787
373.40 2.784
373.50 2.781
373.60 2.779
373.70 2.776
373.80 2.773
373.90 2.77
374.00 2.768
374.10 2.765
374.20 2.762
374.30 2.759
374.40 2.756
374.50 2.754
374.60 2.751
374.70 2.748
374.80 2.745
374.90 2.742
375.00 2.74
375.10 2.737
375.20 2.734
375.30 2.731
375.40 2.729
375.50 2.726
375.60 2.723
375.70 2.72
375.80 2.718
375.90 2.715
376.00 2.712
376.10 2.709
376.20 2.707
376.30 2.704
376.40 2.701
376.50 2.699
376.60 2.696
376.70 2.693
376.80 2.69
376.90 2.688
377.00 2.685
377.10 2.682
377.20 2.68
377.30 2.677
377.40 2.675
377.50 2.672
377.60 2.669
377.70 2.667
377.80 2.664
377.90 2.662
378.00 2.659
378.10 2.657
378.20 2.654
378.30 2.651
378.40 2.649
378.50 2.646
378.60 2.644
378.70 2.641
378.80 2.639
378.90 2.636
379.00 2.634
379.10 2.631
379.20 2.629
379.30 2.626
379.40 2.624
379.50 2.621
379.60 2.619
379.70 2.616
379.80 2.614
379.90 2.611
380.00 2.609
380.10 2.606
380.20 2.604
380.30 2.602
380.40 2.599
380.50 2.597
380.60 2.594
380.70 2.592
380.80 2.59
380.90 2.587
381.00 2.585
381.10 2.583
381.20 2.58
381.30 2.578
381.40 2.575
381.50 2.573
381.60 2.571
381.70 2.568
381.80 2.566
381.90 2.563
382.00 2.561
382.10 2.559
382.20 2.556
382.30 2.554
382.40 2.551
382.50 2.549
382.60 2.547
382.70 2.544
382.80 2.542
382.90 2.539
383.00 2.537
383.10 2.535
383.20 2.532
383.30 2.53
383.40 2.528
383.50 2.525
383.60 2.523
383.70 2.521
383.80 2.519
383.90 2.517
384.00 2.515
384.10 2.513
384.20 2.511
384.30 2.509
384.40 2.507
384.50 2.505
384.60 2.503
384.70 2.501
384.80 2.499
384.90 2.497
385.00 2.495
385.10 2.493
385.20 2.491
385.30 2.489
385.40 2.486
385.50 2.484
385.60 2.482
385.70 2.48
385.80 2.478
385.90 2.475
386.00 2.473
386.10 2.471
386.20 2.468
386.30 2.466
386.40 2.464
386.50 2.461
386.60 2.459
386.70 2.456
386.80 2.454
386.90 2.451
387.00 2.449
387.10 2.446
387.20 2.443
387.30 2.441
387.40 2.438
387.50 2.435
387.60 2.433
387.70 2.43
387.80 2.427
387.90 2.425
388.00 2.422
388.10 2.419
388.20 2.417
388.30 2.414
388.40 2.411
388.50 2.409
388.60 2.407
388.70 2.404
388.80 2.402
388.90 2.4
389.00 2.398
389.10 2.397
389.20 2.395
389.30 2.394
389.40 2.392
389.50 2.391
389.60 2.39
389.70 2.389
389.80 2.388
389.90 2.386
390.00 2.385
390.10 2.384
390.20 2.383
390.30 2.382
390.40 2.38
390.50 2.379
390.60 2.378
390.70 2.377
390.80 2.375
390.90 2.374
391.00 2.372
391.10 2.371
391.20 2.369
391.30 2.368
391.40 2.366
391.50 2.364
391.60 2.363
391.70 2.361
391.80 2.359
391.90 2.357
392.00 2.355
392.10 2.353
392.20 2.351
392.30 2.349
392.40 2.347
392.50 2.344
392.60 2.342
392.70 2.34
392.80 2.337
392.90 2.335
393.00 2.332
393.10 2.329
393.20 2.327
393.30 2.324
393.40 2.321
393.50 2.318
393.60 2.315
393.70 2.312
393.80 2.309
393.90 2.306
394.00 2.303
394.10 2.299
394.20 2.296
394.30 2.292
394.40 2.289
394.50 2.285
394.60 2.281
394.70 2.278
394.80 2.274
394.90 2.27
395.00 2.266
395.10 2.262
395.20 2.258
395.30 2.254
395.40 2.25
395.50 2.245
395.60 2.241
395.70 2.237
395.80 2.232
395.90 2.228
396.00 2.223
396.10 2.219
396.20 2.215
396.30 2.21
396.40 2.206
396.50 2.201
396.60 2.197
396.70 2.193
396.80 2.189
396.90 2.186
397.00 2.182
397.10 2.182
397.20 2.182
397.30 2.183
397.40 2.183
397.50 2.184
397.60 2.185
397.70 2.186
397.80 2.187
397.90 2.188
398.00 2.189
398.10 2.19
398.20 2.191
398.30 2.192
398.40 2.193
398.50 2.194
398.60 2.194
398.70 2.195
398.80 2.196
398.90 2.196
399.00 2.197
399.10 2.198
399.20 2.198
399.30 2.198
399.40 2.199
399.50 2.199
399.60 2.199
399.70 2.199
399.80 2.199
399.90 2.199
400.00 2.199
400.10 2.199
400.20 2.199
400.30 2.199
400.40 2.198
400.50 2.198
400.60 2.198
400.70 2.197
400.80 2.197
400.90 2.196
401.00 2.195
401.10 2.194
401.20 2.194
401.30 2.193
401.40 2.192
401.50 2.191
401.60 2.19
401.70 2.188
401.80 2.187
401.90 2.186
402.00 2.185
402.10 2.183
402.20 2.182
402.30 2.18
402.40 2.179
402.50 2.177
402.60 2.175
402.70 2.174
402.80 2.172
402.90 2.17
403.00 2.168
403.10 2.166
403.20 2.164
403.30 2.162
403.40 2.16
403.50 2.157
403.60 2.155
403.70 2.153
403.80 2.15
403.90 2.148
404.00 2.145
404.10 2.143
404.20 2.14
404.30 2.137
404.40 2.135
404.50 2.132
404.60 2.129
404.70 2.126
404.80 2.123
404.90 2.119
405.00 2.116
405.10 2.113
405.20 2.109
405.30 2.106
405.40 2.102
405.50 2.099
405.60 2.095
405.70 2.091
405.80 2.087
405.90 2.083
406.00 2.079
406.10 2.075
406.20 2.071
406.30 2.067
406.40 2.062
406.50 2.057
406.60 2.053
406.70 2.048
406.80 2.043
406.90 2.038
407.00 2.033
407.10 2.028
407.20 2.023
407.30 2.017
407.40 2.012
407.50 2.006
407.60 2
407.70 1.994
407.80 1.988
407.90 1.982
408.00 1.976
408.10 1.97
408.20 1.963
408.30 1.957
408.40 1.95
408.50 1.943
408.60 1.936
408.70 1.929
408.80 1.922
408.90 1.915
409.00 1.908
409.10 1.901
409.20 1.894
409.30 1.886
409.40 1.879
409.50 1.873
409.60 1.866
409.70 1.86
409.80 1.855
409.90 1.851
410.00 1.849
410.10 1.849
410.20 1.849
410.30 1.845
410.40 1.843
410.50 1.843
410.60 1.845
410.70 1.847
410.80 1.85
410.90 1.854
411.00 1.858
411.10 1.861
411.20 1.865
411.30 1.869
411.40 1.873
411.50 1.877
411.60 1.881
411.70 1.885
411.80 1.889
411.90 1.892
412.00 1.896
412.10 1.899
412.20 1.902
412.30 1.905
412.40 1.908
412.50 1.911
412.60 1.914
412.70 1.916
412.80 1.919
412.90 1.921
413.00 1.923
413.10 1.925
413.20 1.927
413.30 1.929
413.40 1.931
413.50 1.933
413.60 1.934
413.70 1.936
413.80 1.937
413.90 1.938
414.00 1.94
414.10 1.941
414.20 1.942
414.30 1.943
414.40 1.943
414.50 1.944
414.60 1.945
414.70 1.945
414.80 1.946
414.90 1.946
415.00 1.947
415.10 1.947
415.20 1.947
415.30 1.947
415.40 1.947
415.50 1.947
415.60 1.947
415.70 1.947
415.80 1.947
415.90 1.947
416.00 1.947
416.10 1.947
416.20 1.946
416.30 1.946
416.40 1.945
416.50 1.945
416.60 1.944
416.70 1.944
416.80 1.943
416.90 1.943
417.00 1.942
417.10 1.941
417.20 1.941
417.30 1.94
417.40 1.939
417.50 1.938
417.60 1.937
417.70 1.936
417.80 1.935
417.90 1.934
418.00 1.934
418.10 1.933
418.20 1.931
418.30 1.93
418.40 1.929
418.50 1.928
418.60 1.927
418.70 1.926
418.80 1.925
418.90 1.924
419.00 1.922
419.10 1.921
419.20 1.92
419.30 1.919
419.40 1.917
419.50 1.916
419.60 1.915
419.70 1.913
419.80 1.912
419.90 1.911
420.00 1.909
420.10 1.908
420.20 1.906
420.30 1.905
420.40 1.904
420.50 1.902
420.60 1.901
420.70 1.899
420.80 1.898
420.90 1.896
421.00 1.895
421.10 1.893
421.20 1.891
421.30 1.89
421.40 1.888
421.50 1.887
421.60 1.885
421.70 1.883
421.80 1.882
421.90 1.88
422.00 1.878
422.10 1.877
422.20 1.875
422.30 1.873
422.40 1.872
422.50 1.87
422.60 1.868
422.70 1.866
422.80 1.865
422.90 1.863
423.00 1.861
423.10 1.859
423.20 1.857
423.30 1.856
423.40 1.854
423.50 1.852
423.60 1.85
423.70 1.848
423.80 1.846
423.90 1.844
424.00 1.842
424.10 1.84
424.20 1.839
424.30 1.837
424.40 1.835
424.50 1.833
424.60 1.831
424.70 1.828
424.80 1.826
424.90 1.824
425.00 1.822
425.10 1.82
425.20 1.818
425.30 1.816
425.40 1.814
425.50 1.811
425.60 1.809
425.70 1.807
425.80 1.805
425.90 1.802
426.00 1.8
426.10 1.798
426.20 1.795
426.30 1.793
426.40 1.79
426.50 1.788
426.60 1.785
426.70 1.783
426.80 1.78
426.90 1.778
427.00 1.775
427.10 1.772
427.20 1.77
427.30 1.767
427.40 1.764
427.50 1.761
427.60 1.758
427.70 1.755
427.80 1.752
427.90 1.749
428.00 1.746
428.10 1.743
428.20 1.74
428.30 1.737
428.40 1.734
428.50 1.73
428.60 1.727
428.70 1.723
428.80 1.72
428.90 1.716
429.00 1.712
429.10 1.709
429.20 1.705
429.30 1.701
429.40 1.697
429.50 1.693
429.60 1.689
429.70 1.684
429.80 1.68
429.90 1.676
430.00 1.671
430.10 1.666
430.20 1.662
430.30 1.657
430.40 1.652
430.50 1.647
430.60 1.642
430.70 1.636
430.80 1.631
430.90 1.625
431.00 1.62
431.10 1.614
431.20 1.608
431.30 1.602
431.40 1.596
431.50 1.589
431.60 1.583
431.70 1.576
431.80 1.57
431.90 1.563
432.00 1.556
432.10 1.548
432.20 1.541
432.30 1.533
432.40 1.526
432.50 1.518
432.60 1.51
432.70 1.502
432.80 1.494
432.90 1.486
433.00 1.478
433.10 1.469
433.20 1.461
433.30 1.453
433.40 1.445
433.50 1.437
433.60 1.429
433.70 1.42
433.80 1.412
433.90 1.402
434.00 1.393
434.10 1.392
434.20 1.4
434.30 1.407
434.40 1.413
434.50 1.419
434.60 1.425
434.70 1.43
434.80 1.436
434.90 1.442
435.00 1.448
435.10 1.454
435.20 1.46
435.30 1.465
435.40 1.471
435.50 1.476
435.60 1.481
435.70 1.487
435.80 1.492
435.90 1.496
436.00 1.501
436.10 1.506
436.20 1.51
436.30 1.514
436.40 1.518
436.50 1.522
436.60 1.526
436.70 1.529
436.80 1.533
436.90 1.536
437.00 1.539
437.10 1.542
437.20 1.545
437.30 1.548
437.40 1.55
437.50 1.553
437.60 1.555
437.70 1.557
437.80 1.559
437.90 1.561
438.00 1.563
438.10 1.565
438.20 1.566
438.30 1.568
438.40 1.569
438.50 1.57
438.60 1.572
438.70 1.573
438.80 1.574
438.90 1.575
439.00 1.576
439.10 1.577
439.20 1.577
439.30 1.578
439.40 1.579
439.50 1.579
439.60 1.58
439.70 1.58
439.80 1.58
439.90 1.58
440.00 1.581
440.10 1.581
440.20 1.581
440.30 1.581
440.40 1.581
440.50 1.581
440.60 1.581
440.70 1.581
440.80 1.581
440.90 1.58
441.00 1.58
441.10 1.58
441.20 1.58
441.30 1.579
441.40 1.579
441.50 1.578
441.60 1.578
441.70 1.577
441.80 1.577
441.90 1.576
442.00 1.576
442.10 1.575
442.20 1.575
442.30 1.574
442.40 1.573
442.50 1.573
442.60 1.572
442.70 1.571
442.80 1.571
442.90 1.57
443.00 1.569
443.10 1.568
443.20 1.567
443.30 1.567
443.40 1.566
443.50 1.565
443.60 1.564
443.70 1.563
443.80 1.562
443.90 1.561
444.00 1.561
444.10 1.56
444.20 1.559
444.30 1.558
444.40 1.557
444.50 1.556
444.60 1.555
444.70 1.554
444.80 1.553
444.90 1.552
445.00 1.551
445.10 1.55
445.20 1.549
445.30 1.548
445.40 1.547
445.50 1.546
445.60 1.545
445.70 1.544
445.80 1.542
445.90 1.541
446.00 1.54
446.10 1.539
446.20 1.538
446.30 1.537
446.40 1.536
446.50 1.535
446.60 1.534
446.70 1.533
446.80 1.532
446.90 1.53
447.00 1.529
447.10 1.528
447.20 1.527
447.30 1.526
447.40 1.525
447.50 1.524
447.60 1.522
447.70 1.521
447.80 1.52
447.90 1.519
448.00 1.518
448.10 1.517
448.20 1.516
448.30 1.514
448.40 1.513
448.50 1.512
448.60 1.511
448.70 1.51
448.80 1.509
448.90 1.507
449.00 1.506
449.10 1.505
449.20 1.504
449.30 1.503
449.40 1.502
449.50 1.5
449.60 1.499
449.70 1.498
449.80 1.497
449.90 1.496
450.00 1.495
450.10 1.493
450.20 1.492
450.30 1.491
450.40 1.49
450.50 1.489
450.60 1.487
450.70 1.486
450.80 1.485
450.90 1.484
451.00 1.483
451.10 1.482
451.20 1.48
451.30 1.479
451.40 1.478
451.50 1.477
451.60 1.476
451.70 1.474
451.80 1.473
451.90 1.472
452.00 1.471
452.10 1.47
452.20 1.469
452.30 1.467
452.40 1.466
452.50 1.465
452.60 1.464
452.70 1.463
452.80 1.461
452.90 1.46
453.00 1.459
453.10 1.458
453.20 1.457
453.30 1.455
453.40 1.454
453.50 1.453
453.60 1.452
453.70 1.451
453.80 1.45
453.90 1.448
454.00 1.447
454.10 1.446
454.20 1.445
454.30 1.444
454.40 1.442
454.50 1.441
454.60 1.44
454.70 1.439
454.80 1.438
454.90 1.437
455.00 1.435
455.10 1.434
455.20 1.433
455.30 1.432
455.40 1.431
455.50 1.43
455.60 1.428
455.70 1.427
455.80 1.426
455.90 1.425
456.00 1.424
456.10 1.423
456.20 1.421
456.30 1.42
456.40 1.419
456.50 1.418
456.60 1.417
456.70 1.415
456.80 1.414
456.90 1.413
457.00 1.412
457.10 1.411
457.20 1.41
457.30 1.409
457.40 1.407
457.50 1.406
457.60 1.405
457.70 1.404
457.80 1.403
457.90 1.402
458.00 1.4
458.10 1.399
458.20 1.398
458.30 1.397
458.40 1.396
458.50 1.395
458.60 1.393
458.70 1.392
458.80 1.391
458.90 1.39
459.00 1.389
459.10 1.388
459.20 1.387
459.30 1.385
459.40 1.384
459.50 1.383
459.60 1.382
459.70 1.381
459.80 1.38
459.90 1.379
460.00 1.377
460.10 1.376
460.20 1.375
460.30 1.374
460.40 1.373
460.50 1.372
460.60 1.371
460.70 1.369
460.80 1.368
460.90 1.367
461.00 1.366
461.10 1.365
461.20 1.364
461.30 1.363
461.40 1.361
461.50 1.36
461.60 1.359
461.70 1.358
461.80 1.357
461.90 1.356
462.00 1.355
462.10 1.354
462.20 1.352
462.30 1.351
462.40 1.35
462.50 1.349
462.60 1.348
462.70 1.347
462.80 1.346
462.90 1.345
463.00 1.343
463.10 1.342
463.20 1.341
463.30 1.34
463.40 1.339
463.50 1.338
463.60 1.337
463.70 1.336
463.80 1.334
463.90 1.333
464.00 1.332
464.10 1.331
464.20 1.33
464.30 1.329
464.40 1.328
464.50 1.327
464.60 1.326
464.70 1.324
464.80 1.323
464.90 1.322
465.00 1.321
465.10 1.32
465.20 1.319
465.30 1.318
465.40 1.317
465.50 1.316
465.60 1.314
465.70 1.313
465.80 1.312
465.90 1.311
466.00 1.31
466.10 1.309
466.20 1.308
466.30 1.307
466.40 1.306
466.50 1.304
466.60 1.303
466.70 1.302
466.80 1.301
466.90 1.3
467.00 1.299
467.10 1.298
467.20 1.297
467.30 1.296
467.40 1.294
467.50 1.293
467.60 1.292
467.70 1.291
467.80 1.29
467.90 1.289
468.00 1.288
468.10 1.287
468.20 1.286
468.30 1.285
468.40 1.283
468.50 1.282
468.60 1.281
468.70 1.28
468.80 1.279
468.90 1.278
469.00 1.277
469.10 1.276
469.20 1.275
469.30 1.274
469.40 1.272
469.50 1.271
469.60 1.27
469.70 1.269
469.80 1.268
469.90 1.267
470.00 1.266
470.10 1.265
470.20 1.264
470.30 1.262
470.40 1.261
470.50 1.26
470.60 1.259
470.70 1.258
470.80 1.257
470.90 1.256
471.00 1.255
471.10 1.254
471.20 1.252
471.30 1.251
471.40 1.25
471.50 1.249
471.60 1.248
471.70 1.247
471.80 1.246
471.90 1.244
472.00 1.243
472.10 1.242
472.20 1.241
472.30 1.24
472.40 1.239
472.50 1.238
472.60 1.237
472.70 1.235
472.80 1.234
472.90 1.233
473.00 1.232
473.10 1.231
473.20 1.23
473.30 1.228
473.40 1.227
473.50 1.226
473.60 1.225
473.70 1.224
473.80 1.223
473.90 1.221
474.00 1.22
474.10 1.219
474.20 1.218
474.30 1.217
474.40 1.216
474.50 1.214
474.60 1.213
474.70 1.212
474.80 1.211
474.90 1.209
475.00 1.208
475.10 1.207
475.20 1.206
475.30 1.205
475.40 1.203
475.50 1.202
475.60 1.201
475.70 1.199
475.80 1.198
475.90 1.197
476.00 1.196
476.10 1.194
476.20 1.193
476.30 1.192
476.40 1.19
476.50 1.189
476.60 1.188
476.70 1.186
476.80 1.185
476.90 1.184
477.00 1.182
477.10 1.181
477.20 1.18
477.30 1.178
477.40 1.177
477.50 1.175
477.60 1.174
477.70 1.172
477.80 1.171
477.90 1.169
478.00 1.168
478.10 1.166
478.20 1.165
478.30 1.163
478.40 1.162
478.50 1.16
478.60 1.158
478.70 1.157
478.80 1.155
478.90 1.154
479.00 1.152
479.10 1.15
479.20 1.149
479.30 1.147
479.40 1.145
479.50 1.143
479.60 1.141
479.70 1.139
479.80 1.137
479.90 1.135
480.00 1.134
480.10 1.132
480.20 1.13
480.30 1.127
480.40 1.125
480.50 1.123
480.60 1.121
480.70 1.119
480.80 1.116
480.90 1.114
481.00 1.112
481.10 1.11
481.20 1.107
481.30 1.105
481.40 1.102
481.50 1.099
481.60 1.097
481.70 1.094
481.80 1.091
481.90 1.088
482.00 1.086
482.10 1.083
482.20 1.08
482.30 1.077
482.40 1.073
482.50 1.07
482.60 1.066
482.70 1.063
482.80 1.06
482.90 1.056
483.00 1.053
483.10 1.05
483.20 1.046
483.30 1.041
483.40 1.037
483.50 1.033
483.60 1.028
483.70 1.024
483.80 1.02
483.90 1.016
484.00 1.011
484.10 1.007
484.20 1.002
484.30 0.9971
484.40 0.992
484.50 0.987
484.60 0.9819
484.70 0.9764
484.80 0.9708
484.90 0.9652
485.00 0.9596
485.10 0.954
485.20 0.9482
485.30 0.9423
485.40 0.9364
485.50 0.9304
485.60 0.9247
485.70 0.919
485.80 0.9142
485.90 0.9098
486.00 0.9085
486.10 0.9203
486.20 0.9134
486.30 0.9058
486.40 0.9079
486.50 0.9108
486.60 0.9147
486.70 0.9191
486.80 0.9235
486.90 0.928
487.00 0.9325
487.10 0.937
487.20 0.9412
487.30 0.9454
487.40 0.9495
487.50 0.9536
487.60 0.9578
487.70 0.9615
487.80 0.965
487.90 0.9686
488.00 0.9721
488.10 0.9756
488.20 0.9785
488.30 0.9812
488.40 0.9838
488.50 0.9865
488.60 0.9891
488.70 0.9918
488.80 0.9944
488.90 0.997
489.00 0.9997
489.10 1.002
489.20 1.004
489.30 1.006
489.40 1.008
489.50 1.009
489.60 1.011
489.70 1.013
489.80 1.014
489.90 1.016
490.00 1.017
490.10 1.019
490.20 1.02
490.30 1.021
490.40 1.022
490.50 1.023
490.60 1.024
490.70 1.025
490.80 1.026
490.90 1.027
491.00 1.028
491.10 1.029
491.20 1.029
491.30 1.03
491.40 1.03
491.50 1.03
491.60 1.031
491.70 1.031
491.80 1.032
491.90 1.032
492.00 1.032
492.10 1.033
492.20 1.033
492.30 1.033
492.40 1.033
492.50 1.033
492.60 1.033
492.70 1.033
492.80 1.033
492.90 1.033
493.00 1.033
493.10 1.033
493.20 1.033
493.30 1.033
493.40 1.033
493.50 1.033
493.60 1.033
493.70 1.032
493.80 1.032
493.90 1.032
494.00 1.032
494.10 1.032
494.20 1.031
494.30 1.031
494.40 1.031
494.50 1.03
494.60 1.03
494.70 1.03
494.80 1.029
494.90 1.029
495.00 1.029
495.10 1.028
495.20 1.028
495.30 1.027
495.40 1.027
495.50 1.026
495.60 1.026
495.70 1.025
495.80 1.025
495.90 1.024
496.00 1.024
496.10 1.024
496.20 1.023
496.30 1.022
496.40 1.022
496.50 1.021
496.60 1.021
496.70 1.02
496.80 1.02
496.90 1.019
497.00 1.019
497.10 1.018
497.20 1.018
497.30 1.017
497.40 1.016
497.50 1.016
497.60 1.015
497.70 1.015
497.80 1.014
497.90 1.013
498.00 1.013
498.10 1.012
498.20 1.012
498.30 1.011
498.40 1.01
498.50 1.01
498.60 1.009
498.70 1.008
498.80 1.008
498.90 1.007
499.00 1.007
499.10 1.006
499.20 1.005
499.30 1.005
499.40 1.004
499.50 1.003
499.60 1.003
499.70 1.002
499.80 1.001
499.90 1.001
500.00 1
500.10 0.9993
500.20 0.9987
500.30 0.998
500.40 0.9973
500.50 0.9967
500.60 0.996
500.70 0.9953
500.80 0.9946
500.90 0.994
501.00 0.9933
501.10 0.9926
501.20 0.9919
501.30 0.9913
501.40 0.9906
501.50 0.9899
501.60 0.9892
501.70 0.9885
501.80 0.9878
501.90 0.9872
502.00 0.9865
502.10 0.9858
502.20 0.9851
502.30 0.9844
502.40 0.9837
502.50 0.983
502.60 0.9824
502.70 0.9817
502.80 0.981
502.90 0.9803
503.00 0.9796
503.10 0.9789
503.20 0.9782
503.30 0.9775
503.40 0.9768
503.50 0.9761
503.60 0.9754
503.70 0.9747
503.80 0.9741
503.90 0.9734
504.00 0.9727
504.10 0.972
504.20 0.9713
504.30 0.9706
504.40 0.9699
504.50 0.9692
504.60 0.9685
504.70 0.9678
504.80 0.9671
504.90 0.9664
505.00 0.9657
505.10 0.965
505.20 0.9643
505.30 0.9636
505.40 0.9629
505.50 0.9622
505.60 0.9616
505.70 0.9609
505.80 0.9602
505.90 0.9595
506.00 0.9588
506.10 0.9581
506.20 0.9574
506.30 0.9567
506.40 0.956
506.50 0.9553
506.60 0.9546
506.70 0.9539
506.80 0.9532
506.90 0.9525
507.00 0.9518
507.10 0.9512
507.20 0.9505
507.30 0.9498
507.40 0.9491
507.50 0.9484
507.60 0.9477
507.70 0.947
507.80 0.9463
507.90 0.9456
508.00 0.9449
508.10 0.9442
508.20 0.9436
508.30 0.9429
508.40 0.9422
508.50 0.9415
508.60 0.9408
508.70 0.9401
508.80 0.9394
508.90 0.9387
509.00 0.9381
509.10 0.9374
509.20 0.9367
509.30 0.936
509.40 0.9353
509.50 0.9346
509.60 0.9339
509.70 0.9333
509.80 0.9326
509.90 0.9319
510.00 0.9312
510.10 0.9305
510.20 0.9299
510.30 0.9292
510.40 0.9285
510.50 0.9278
510.60 0.9271
510.70 0.9265
510.80 0.9258
510.90 0.9251
511.00 0.9244
511.10 0.9237
511.20 0.9231
511.30 0.9224
511.40 0.9217
511.50 0.921
511.60 0.9204
511.70 0.9197
511.80 0.919
511.90 0.9183
512.00 0.9177
512.10 0.917
512.20 0.9163
512.30 0.9156
512.40 0.915
512.50 0.9143
512.60 0.9136
512.70 0.913
512.80 0.9123
512.90 0.9116
513.00 0.911
513.10 0.9103
513.20 0.9096
513.30 0.909
513.40 0.9083
513.50 0.9076
513.60 0.907
513.70 0.9063
513.80 0.9056
513.90 0.905
514.00 0.9043
514.10 0.9036
514.20 0.903
514.30 0.9023
514.40 0.9017
514.50 0.901
514.60 0.9003
514.70 0.8997
514.80 0.899
514.90 0.8984
515.00 0.8977
515.10 0.897
515.20 0.8964
515.30 0.8957
515.40 0.8951
515.50 0.8944
515.60 0.8938
515.70 0.8931
515.80 0.8924
515.90 0.8918
516.00 0.8911
516.10 0.8905
516.20 0.8898
516.30 0.8892
516.40 0.8885
516.50 0.8879
516.60 0.8872
516.70 0.8866
516.80 0.8859
516.90 0.8853
517.00 0.8846
517.10 0.884
517.20 0.8833
517.30 0.8827
517.40 0.882
517.50 0.8814
517.60 0.8808
517.70 0.8801
517.80 0.8795
517.90 0.8788
518.00 0.8782
518.10 0.8775
518.20 0.8769
518.30 0.8763
518.40 0.8756
518.50 0.875
518.60 0.8743
518.70 0.8737
518.80 0.8731
518.90 0.8724
519.00 0.8718
519.10 0.8711
519.20 0.8705
519.30 0.8699
519.40 0.8692
519.50 0.8686
519.60 0.868
519.70 0.8673
519.80 0.8667
519.90 0.8661
520.00 0.8654
520.10 0.8648
520.20 0.8642
520.30 0.8635
520.40 0.8629
520.50 0.8623
520.60 0.8617
520.70 0.861
520.80 0.8604
520.90 0.8598
521.00 0.8592
521.10 0.8585
521.20 0.8579
521.30 0.8573
521.40 0.8567
521.50 0.856
521.60 0.8554
521.70 0.8548
521.80 0.8542
521.90 0.8535
522.00 0.8529
522.10 0.8523
522.20 0.8517
522.30 0.8511
522.40 0.8504
522.50 0.8498
522.60 0.8492
522.70 0.8486
522.80 0.848
522.90 0.8474
523.00 0.8467
523.10 0.8461
523.20 0.8455
523.30 0.8449
523.40 0.8443
523.50 0.8437
523.60 0.8431
523.70 0.8424
523.80 0.8418
523.90 0.8412
524.00 0.8406
524.10 0.84
524.20 0.8394
524.30 0.8388
524.40 0.8382
524.50 0.8376
524.60 0.837
524.70 0.8363
524.80 0.8357
524.90 0.8351
525.00 0.8345
525.10 0.8339
525.20 0.8333
525.30 0.8327
525.40 0.8321
525.50 0.8315
525.60 0.8309
525.70 0.8303
525.80 0.8297
525.90 0.8291
526.00 0.8285
526.10 0.8279
526.20 0.8273
526.30 0.8267
526.40 0.8261
526.50 0.8255
526.60 0.8249
526.70 0.8243
526.80 0.8237
526.90 0.8231
527.00 0.8225
527.10 0.8219
527.20 0.8213
527.30 0.8208
527.40 0.8202
527.50 0.8196
527.60 0.819
527.70 0.8184
527.80 0.8178
527.90 0.8172
528.00 0.8166
528.10 0.816
528.20 0.8154
528.30 0.8149
528.40 0.8143
528.50 0.8137
528.60 0.8131
528.70 0.8125
528.80 0.8119
528.90 0.8113
529.00 0.8108
529.10 0.8102
529.20 0.8096
529.30 0.809
529.40 0.8084
529.50 0.8078
529.60 0.8073
529.70 0.8067
529.80 0.8061
529.90 0.8055
530.00 0.8049
530.10 0.8044
530.20 0.8038
530.30 0.8032
530.40 0.8026
530.50 0.802
530.60 0.8015
530.70 0.8009
530.80 0.8003
530.90 0.7997
531.00 0.7992
531.10 0.7986
531.20 0.798
531.30 0.7975
531.40 0.7969
531.50 0.7963
531.60 0.7957
531.70 0.7952
531.80 0.7946
531.90 0.794
532.00 0.7935
532.10 0.7929
532.20 0.7923
532.30 0.7918
532.40 0.7912
532.50 0.7906
532.60 0.7901
532.70 0.7895
532.80 0.7889
532.90 0.7884
533.00 0.7878
533.10 0.7872
533.20 0.7867
533.30 0.7861
533.40 0.7855
533.50 0.785
533.60 0.7844
533.70 0.7839
533.80 0.7833
533.90 0.7827
534.00 0.7822
534.10 0.7816
534.20 0.7811
534.30 0.7805
534.40 0.7799
534.50 0.7794
534.60 0.7788
534.70 0.7783
534.80 0.7777
534.90 0.7772
535.00 0.7766
535.10 0.7761
535.20 0.7755
535.30 0.775
535.40 0.7744
535.50 0.7739
535.60 0.7733
535.70 0.7727
535.80 0.7722
535.90 0.7716
536.00 0.7711
536.10 0.7705
536.20 0.77
536.30 0.7695
536.40 0.7689
536.50 0.7684
536.60 0.7678
536.70 0.7673
536.80 0.7667
536.90 0.7662
537.00 0.7656
537.10 0.7651
537.20 0.7645
537.30 0.764
537.40 0.7635
537.50 0.7629
537.60 0.7624
537.70 0.7618
537.80 0.7613
537.90 0.7608
538.00 0.7602
538.10 0.7597
538.20 0.7591
538.30 0.7586
538.40 0.7581
538.50 0.7575
538.60 0.757
538.70 0.7564
538.80 0.7559
538.90 0.7554
539.00 0.7548
539.10 0.7543
539.20 0.7538
539.30 0.7532
539.40 0.7527
539.50 0.7522
539.60 0.7516
539.70 0.7511
539.80 0.7506
539.90 0.75
540.00 0.7495
540.10 0.749
540.20 0.7485
540.30 0.7479
540.40 0.7474
540.50 0.7469
540.60 0.7463
540.70 0.7458
540.80 0.7453
540.90 0.7448
541.00 0.7442
541.10 0.7437
541.20 0.7432
541.30 0.7427
541.40 0.7421
541.50 0.7416
541.60 0.7411
541.70 0.7406
541.80 0.74
541.90 0.7395
542.00 0.739
542.10 0.7385
542.20 0.738
542.30 0.7374
542.40 0.7369
542.50 0.7364
542.60 0.7359
542.70 0.7354
542.80 0.7349
542.90 0.7343
543.00 0.7338
543.10 0.7333
543.20 0.7328
543.30 0.7323
543.40 0.7318
543.50 0.7312
543.60 0.7307
543.70 0.7302
543.80 0.7297
543.90 0.7292
544.00 0.7287
544.10 0.7282
544.20 0.7277
544.30 0.7271
544.40 0.7266
544.50 0.7261
544.60 0.7256
544.70 0.7251
544.80 0.7246
544.90 0.7241
545.00 0.7236
545.10 0.7231
545.20 0.7226
545.30 0.7221
545.40 0.7216
545.50 0.721
545.60 0.7205
545.70 0.72
545.80 0.7195
545.90 0.719
546.00 0.7185
546.10 0.718
546.20 0.7175
546.30 0.717
546.40 0.7165
546.50 0.716
546.60 0.7155
546.70 0.715
546.80 0.7145
546.90 0.714
547.00 0.7135
547.10 0.713
547.20 0.7125
547.30 0.712
547.40 0.7115
547.50 0.711
547.60 0.7105
547.70 0.71
547.80 0.7095
547.90 0.709
548.00 0.7086
548.10 0.7081
548.20 0.7076
548.30 0.7071
548.40 0.7066
548.50 0.7061
548.60 0.7056
548.70 0.7051
548.80 0.7046
548.90 0.7041
549.00 0.7036
549.10 0.7031
549.20 0.7026
549.30 0.7022
549.40 0.7017
549.50 0.7012
549.60 0.7007
549.70 0.7002
549.80 0.6997
549.90 0.6992
550.00 0.6987
550.10 0.6983
550.20 0.6978
550.30 0.6973
550.40 0.6968
550.50 0.6963
550.60 0.6958
550.70 0.6954
550.80 0.6949
550.90 0.6944
551.00 0.6939
551.10 0.6934
551.20 0.6929
551.30 0.6925
551.40 0.692
551.50 0.6915
551.60 0.691
551.70 0.6905
551.80 0.6901
551.90 0.6896
552.00 0.6891
552.10 0.6886
552.20 0.6882
552.30 0.6877
552.40 0.6872
552.50 0.6867
552.60 0.6863
552.70 0.6858
552.80 0.6853
552.90 0.6848
553.00 0.6844
553.10 0.6839
553.20 0.6834
553.30 0.6829
553.40 0.6825
553.50 0.682
553.60 0.6815
553.70 0.6811
553.80 0.6806
553.90 0.6801
554.00 0.6796
554.10 0.6792
554.20 0.6787
554.30 0.6782
554.40 0.6778
554.50 0.6773
554.60 0.6768
554.70 0.6764
554.80 0.6759
554.90 0.6754
555.00 0.675
555.10 0.6745
555.20 0.674
555.30 0.6736
555.40 0.6731
555.50 0.6726
555.60 0.6722
555.70 0.6717
555.80 0.6713
555.90 0.6708
556.00 0.6703
556.10 0.6699
556.20 0.6694
556.30 0.669
556.40 0.6685
556.50 0.668
556.60 0.6676
556.70 0.6671
556.80 0.6667
556.90 0.6662
557.00 0.6657
557.10 0.6653
557.20 0.6648
557.30 0.6644
557.40 0.6639
557.50 0.6635
557.60 0.663
557.70 0.6625
557.80 0.6621
557.90 0.6616
558.00 0.6612
558.10 0.6607
558.20 0.6603
558.30 0.6598
558.40 0.6594
558.50 0.6589
558.60 0.6585
558.70 0.658
558.80 0.6576
558.90 0.6571
559.00 0.6567
559.10 0.6562
559.20 0.6558
559.30 0.6553
559.40 0.6549
559.50 0.6544
559.60 0.654
559.70 0.6535
559.80 0.6531
559.90 0.6526
560.00 0.6522
560.10 0.6517
560.20 0.6513
560.30 0.6509
560.40 0.6504
560.50 0.65
560.60 0.6495
560.70 0.6491
560.80 0.6486
560.90 0.6482
561.00 0.6478
561.10 0.6473
561.20 0.6469
561.30 0.6464
561.40 0.646
561.50 0.6455
561.60 0.6451
561.70 0.6447
561.80 0.6442
561.90 0.6438
562.00 0.6433
562.10 0.6429
562.20 0.6425
562.30 0.642
562.40 0.6416
562.50 0.6412
562.60 0.6407
562.70 0.6403
562.80 0.6399
562.90 0.6394
563.00 0.639
563.10 0.6385
563.20 0.6381
563.30 0.6377
563.40 0.6372
563.50 0.6368
563.60 0.6364
563.70 0.636
563.80 0.6355
563.90 0.6351
564.00 0.6347
564.10 0.6342
564.20 0.6338
564.30 0.6334
564.40 0.6329
564.50 0.6325
564.60 0.6321
564.70 0.6316
564.80 0.6312
564.90 0.6308
565.00 0.6304
565.10 0.6299
565.20 0.6295
565.30 0.6291
565.40 0.6287
565.50 0.6282
565.60 0.6278
565.70 0.6274
565.80 0.627
565.90 0.6265
566.00 0.6261
566.10 0.6257
566.20 0.6253
566.30 0.6248
566.40 0.6244
566.50 0.624
566.60 0.6236
566.70 0.6232
566.80 0.6227
566.90 0.6223
567.00 0.6219
567.10 0.6215
567.20 0.621
567.30 0.6206
567.40 0.6202
567.50 0.6198
567.60 0.6194
567.70 0.619
567.80 0.6185
567.90 0.6181
568.00 0.6177
568.10 0.6173
568.20 0.6169
568.30 0.6165
568.40 0.616
568.50 0.6156
568.60 0.6152
568.70 0.6148
568.80 0.6144
568.90 0.614
569.00 0.6136
569.10 0.6131
569.20 0.6127
569.30 0.6123
569.40 0.6119
569.50 0.6115
569.60 0.6111
569.70 0.6107
569.80 0.6103
569.90 0.6099
570.00 0.6094
570.10 0.609
570.20 0.6086
570.30 0.6082
570.40 0.6078
570.50 0.6074
570.60 0.607
570.70 0.6066
570.80 0.6062
570.90 0.6058
571.00 0.6054
571.10 0.605
571.20 0.6046
571.30 0.6041
571.40 0.6037
571.50 0.6033
571.60 0.6029
571.70 0.6025
571.80 0.6021
571.90 0.6017
572.00 0.6013
572.10 0.6009
572.20 0.6005
572.30 0.6001
572.40 0.5997
572.50 0.5993
572.60 0.5989
572.70 0.5985
572.80 0.5981
572.90 0.5977
573.00 0.5973
573.10 0.5969
573.20 0.5965
573.30 0.5961
573.40 0.5957
573.50 0.5953
573.60 0.5949
573.70 0.5945
573.80 0.5941
573.90 0.5937
574.00 0.5933
574.10 0.5929
574.20 0.5925
574.30 0.5921
574.40 0.5917
574.50 0.5914
574.60 0.591
574.70 0.5906
574.80 0.5902
574.90 0.5898
575.00 0.5894
575.10 0.589
575.20 0.5886
575.30 0.5882
575.40 0.5878
575.50 0.5874
575.60 0.587
575.70 0.5866
575.80 0.5862
575.90 0.5859
576.00 0.5855
576.10 0.5851
576.20 0.5847
576.30 0.5843
576.40 0.5839
576.50 0.5835
576.60 0.5831
576.70 0.5827
576.80 0.5824
576.90 0.582
577.00 0.5816
577.10 0.5812
577.20 0.5808
577.30 0.5804
577.40 0.58
577.50 0.5797
577.60 0.5793
577.70 0.5789
577.80 0.5785
577.90 0.5781
578.00 0.5777
578.10 0.5774
578.20 0.577
578.30 0.5766
578.40 0.5762
578.50 0.5758
578.60 0.5754
578.70 0.5751
578.80 0.5747
578.90 0.5743
579.00 0.5739
579.10 0.5735
579.20 0.5732
579.30 0.5728
579.40 0.5724
579.50 0.572
579.60 0.5716
579.70 0.5713
579.80 0.5709
579.90 0.5705
580.00 0.5701
580.10 0.5698
580.20 0.5694
580.30 0.569
580.40 0.5686
580.50 0.5683
580.60 0.5679
580.70 0.5675
580.80 0.5671
580.90 0.5668
581.00 0.5664
581.10 0.566
581.20 0.5656
581.30 0.5653
581.40 0.5649
581.50 0.5645
581.60 0.5641
581.70 0.5638
581.80 0.5634
581.90 0.563
582.00 0.5627
582.10 0.5623
582.20 0.5619
582.30 0.5615
582.40 0.5612
582.50 0.5608
582.60 0.5604
582.70 0.5601
582.80 0.5597
582.90 0.5593
583.00 0.559
583.10 0.5586
583.20 0.5582
583.30 0.5579
583.40 0.5575
583.50 0.5571
583.60 0.5568
583.70 0.5564
583.80 0.556
583.90 0.5557
584.00 0.5553
584.10 0.5549
584.20 0.5546
584.30 0.5542
584.40 0.5538
584.50 0.5535
584.60 0.5531
584.70 0.5528
584.80 0.5524
584.90 0.552
585.00 0.5517
585.10 0.5513
585.20 0.5509
585.30 0.5506
585.40 0.5502
585.50 0.5499
585.60 0.5495
585.70 0.5491
585.80 0.5488
585.90 0.5484
586.00 0.5481
586.10 0.5477
586.20 0.5473
586.30 0.547
586.40 0.5466
586.50 0.5463
586.60 0.5459
586.70 0.5456
586.80 0.5452
586.90 0.5448
587.00 0.5445
587.10 0.5441
587.20 0.5438
587.30 0.5434
587.40 0.5431
587.50 0.5427
587.60 0.5424
587.70 0.542
587.80 0.5417
587.90 0.5413
588.00 0.5409
588.10 0.5406
588.20 0.5402
588.30 0.5399
588.40 0.5395
588.50 0.5392
588.60 0.5388
588.70 0.5385
588.80 0.5381
588.90 0.5378
589.00 0.5374
589.10 0.5371
589.20 0.5367
589.30 0.5364
589.40 0.536
589.50 0.5357
589.60 0.5353
589.70 0.535
589.80 0.5346
589.90 0.5343
590.00 0.5339
590.10 0.5336
590.20 0.5332
590.30 0.5329
590.40 0.5326
590.50 0.5322
590.60 0.5319
590.70 0.5315
590.80 0.5312
590.90 0.5308
591.00 0.5305
591.10 0.5301
591.20 0.5298
591.30 0.5294
591.40 0.5291
591.50 0.5288
591.60 0.5284
591.70 0.5281
591.80 0.5277
591.90 0.5274
592.00 0.527
592.10 0.5267
592.20 0.5264
592.30 0.526
592.40 0.5257
592.50 0.5253
592.60 0.525
592.70 0.5247
592.80 0.5243
592.90 0.524
593.00 0.5236
593.10 0.5233
593.20 0.523
593.30 0.5226
593.40 0.5223
593.50 0.522
593.60 0.5216
593.70 0.5213
593.80 0.5209
593.90 0.5206
594.00 0.5203
594.10 0.5199
594.20 0.5196
594.30 0.5193
594.40 0.5189
594.50 0.5186
594.60 0.5183
594.70 0.5179
594.80 0.5176
594.90 0.5173
595.00 0.5169
595.10 0.5166
595.20 0.5162
595.30 0.5159
595.40 0.5156
595.50 0.5153
595.60 0.5149
595.70 0.5146
595.80 0.5143
595.90 0.5139
596.00 0.5136
596.10 0.5133
596.20 0.5129
596.30 0.5126
596.40 0.5123
596.50 0.5119
596.60 0.5116
596.70 0.5113
596.80 0.511
596.90 0.5106
597.00 0.5103
597.10 0.51
597.20 0.5096
597.30 0.5093
597.40 0.509
597.50 0.5087
597.60 0.5083
597.70 0.508
597.80 0.5077
597.90 0.5073
598.00 0.507
598.10 0.5067
598.20 0.5064
598.30 0.506
598.40 0.5057
598.50 0.5054
598.60 0.5051
598.70 0.5047
598.80 0.5044
598.90 0.5041
599.00 0.5038
599.10 0.5035
599.20 0.5031
599.30 0.5028
599.40 0.5025
599.50 0.5022
599.60 0.5018
599.70 0.5015
599.80 0.5012
599.90 0.5009
600.00 0.5006
600.10 0.5002
600.20 0.4999
600.30 0.4996
600.40 0.4993
600.50 0.499
600.60 0.4986
600.70 0.4983
600.80 0.498
600.90 0.4977
601.00 0.4974
601.10 0.497
601.20 0.4967
601.30 0.4964
601.40 0.4961
601.50 0.4958
601.60 0.4955
601.70 0.4951
601.80 0.4948
601.90 0.4945
602.00 0.4942
602.10 0.4939
602.20 0.4936
602.30 0.4933
602.40 0.4929
602.50 0.4926
602.60 0.4923
602.70 0.492
602.80 0.4917
602.90 0.4914
603.00 0.4911
603.10 0.4907
603.20 0.4904
603.30 0.4901
603.40 0.4898
603.50 0.4895
603.60 0.4892
603.70 0.4889
603.80 0.4886
603.90 0.4882
604.00 0.4879
604.10 0.4876
604.20 0.4873
604.30 0.487
604.40 0.4867
604.50 0.4864
604.60 0.4861
604.70 0.4858
604.80 0.4855
604.90 0.4851
605.00 0.4848
605.10 0.4845
605.20 0.4842
605.30 0.4839
605.40 0.4836
605.50 0.4833
605.60 0.483
605.70 0.4827
605.80 0.4824
605.90 0.4821
606.00 0.4818
606.10 0.4815
606.20 0.4812
606.30 0.4809
606.40 0.4805
606.50 0.4802
606.60 0.4799
606.70 0.4796
606.80 0.4793
606.90 0.479
607.00 0.4787
607.10 0.4784
607.20 0.4781
607.30 0.4778
607.40 0.4775
607.50 0.4772
607.60 0.4769
607.70 0.4766
607.80 0.4763
607.90 0.476
608.00 0.4757
608.10 0.4754
608.20 0.4751
608.30 0.4748
608.40 0.4745
608.50 0.4742
608.60 0.4739
608.70 0.4736
608.80 0.4733
608.90 0.473
609.00 0.4727
609.10 0.4724
609.20 0.4721
609.30 0.4718
609.40 0.4715
609.50 0.4712
609.60 0.4709
609.70 0.4706
609.80 0.4703
609.90 0.47
610.00 0.4697
610.10 0.4694
610.20 0.4691
610.30 0.4688
610.40 0.4685
610.50 0.4682
610.60 0.4679
610.70 0.4677
610.80 0.4674
610.90 0.4671
611.00 0.4668
611.10 0.4665
611.20 0.4662
611.30 0.4659
611.40 0.4656
611.50 0.4653
611.60 0.465
611.70 0.4647
611.80 0.4644
611.90 0.4641
612.00 0.4638
612.10 0.4635
612.20 0.4633
612.30 0.463
612.40 0.4627
612.50 0.4624
612.60 0.4621
612.70 0.4618
612.80 0.4615
612.90 0.4612
613.00 0.4609
613.10 0.4606
613.20 0.4603
613.30 0.4601
613.40 0.4598
613.50 0.4595
613.60 0.4592
613.70 0.4589
613.80 0.4586
613.90 0.4583
614.00 0.458
614.10 0.4578
614.20 0.4575
614.30 0.4572
614.40 0.4569
614.50 0.4566
614.60 0.4563
614.70 0.456
614.80 0.4557
614.90 0.4555
615.00 0.4552
615.10 0.4549
615.20 0.4546
615.30 0.4543
615.40 0.454
615.50 0.4537
615.60 0.4535
615.70 0.4532
615.80 0.4529
615.90 0.4526
616.00 0.4523
616.10 0.452
616.20 0.4518
616.30 0.4515
616.40 0.4512
616.50 0.4509
616.60 0.4506
616.70 0.4504
616.80 0.4501
616.90 0.4498
617.00 0.4495
617.10 0.4492
617.20 0.4489
617.30 0.4487
617.40 0.4484
617.50 0.4481
617.60 0.4478
617.70 0.4475
617.80 0.4473
617.90 0.447
618.00 0.4467
618.10 0.4464
618.20 0.4461
618.30 0.4459
618.40 0.4456
618.50 0.4453
618.60 0.445
618.70 0.4448
618.80 0.4445
618.90 0.4442
619.00 0.4439
619.10 0.4436
619.20 0.4434
619.30 0.4431
619.40 0.4428
619.50 0.4425
619.60 0.4423
619.70 0.442
619.80 0.4417
619.90 0.4414
620.00 0.4412
620.10 0.4409
620.20 0.4406
620.30 0.4403
620.40 0.4401
620.50 0.4398
620.60 0.4395
620.70 0.4392
620.80 0.439
620.90 0.4387
621.00 0.4384
621.10 0.4381
621.20 0.4379
621.30 0.4376
621.40 0.4373
621.50 0.4371
621.60 0.4368
621.70 0.4365
621.80 0.4362
621.90 0.436
622.00 0.4357
622.10 0.4354
622.20 0.4352
622.30 0.4349
622.40 0.4346
622.50 0.4343
622.60 0.4341
622.70 0.4338
622.80 0.4335
622.90 0.4333
623.00 0.433
623.10 0.4327
623.20 0.4325
623.30 0.4322
623.40 0.4319
623.50 0.4317
623.60 0.4314
623.70 0.4311
623.80 0.4308
623.90 0.4306
624.00 0.4303
624.10 0.43
624.20 0.4298
624.30 0.4295
624.40 0.4292
624.50 0.429
624.60 0.4287
624.70 0.4284
624.80 0.4282
624.90 0.4279
625.00 0.4276
625.10 0.4274
625.20 0.4271
625.30 0.4269
625.40 0.4266
625.50 0.4263
625.60 0.4261
625.70 0.4258
625.80 0.4255
625.90 0.4253
626.00 0.425
626.10 0.4247
626.20 0.4245
626.30 0.4242
626.40 0.4239
626.50 0.4237
626.60 0.4234
626.70 0.4232
626.80 0.4229
626.90 0.4226
627.00 0.4224
627.10 0.4221
627.20 0.4218
627.30 0.4216
627.40 0.4213
627.50 0.4211
627.60 0.4208
627.70 0.4205
627.80 0.4203
627.90 0.42
628.00 0.4198
628.10 0.4195
628.20 0.4192
628.30 0.419
628.40 0.4187
628.50 0.4185
628.60 0.4182
628.70 0.4179
628.80 0.4177
628.90 0.4174
629.00 0.4172
629.10 0.4169
629.20 0.4166
629.30 0.4164
629.40 0.4161
629.50 0.4159
629.60 0.4156
629.70 0.4153
629.80 0.4151
629.90 0.4148
630.00 0.4146
630.10 0.4143
630.20 0.4141
630.30 0.4138
630.40 0.4135
630.50 0.4133
630.60 0.413
630.70 0.4128
630.80 0.4125
630.90 0.4123
631.00 0.412
631.10 0.4118
631.20 0.4115
631.30 0.4112
631.40 0.411
631.50 0.4107
631.60 0.4105
631.70 0.4102
631.80 0.41
631.90 0.4097
632.00 0.4095
632.10 0.4092
632.20 0.4089
632.30 0.4087
632.40 0.4084
632.50 0.4082
632.60 0.4079
632.70 0.4077
632.80 0.4074
632.90 0.4072
633.00 0.4069
633.10 0.4067
633.20 0.4064
633.30 0.4061
633.40 0.4059
633.50 0.4056
633.60 0.4054
633.70 0.4051
633.80 0.4049
633.90 0.4046
634.00 0.4044
634.10 0.4041
634.20 0.4039
634.30 0.4036
634.40 0.4034
634.50 0.4031
634.60 0.4029
634.70 0.4026
634.80 0.4024
634.90 0.4021
635.00 0.4019
635.10 0.4016
635.20 0.4013
635.30 0.4011
635.40 0.4008
635.50 0.4006
635.60 0.4003
635.70 0.4001
635.80 0.3998
635.90 0.3996
636.00 0.3993
636.10 0.3991
636.20 0.3988
636.30 0.3986
636.40 0.3983
636.50 0.3981
636.60 0.3978
636.70 0.3976
636.80 0.3973
636.90 0.3971
637.00 0.3968
637.10 0.3966
637.20 0.3963
637.30 0.3961
637.40 0.3958
637.50 0.3956
637.60 0.3953
637.70 0.3951
637.80 0.3948
637.90 0.3946
638.00 0.3943
638.10 0.3941
638.20 0.3938
638.30 0.3936
638.40 0.3933
638.50 0.3931
638.60 0.3928
638.70 0.3925
638.80 0.3923
638.90 0.392
639.00 0.3918
639.10 0.3915
639.20 0.3913
639.30 0.391
639.40 0.3908
639.50 0.3905
639.60 0.3903
639.70 0.39
639.80 0.3898
639.90 0.3895
640.00 0.3893
640.10 0.389
640.20 0.3888
640.30 0.3885
640.40 0.3883
640.50 0.388
640.60 0.3877
640.70 0.3875
640.80 0.3872
640.90 0.387
641.00 0.3867
641.10 0.3865
641.20 0.3862
641.30 0.386
641.40 0.3857
641.50 0.3854
641.60 0.3852
641.70 0.3849
641.80 0.3847
641.90 0.3844
642.00 0.3842
642.10 0.3839
642.20 0.3836
642.30 0.3834
642.40 0.3831
642.50 0.3829
642.60 0.3826
642.70 0.3823
642.80 0.3821
642.90 0.3818
643.00 0.3815
643.10 0.3813
643.20 0.381
643.30 0.3808
643.40 0.3805
643.50 0.3802
643.60 0.38
643.70 0.3797
643.80 0.3794
643.90 0.3791
644.00 0.3789
644.10 0.3786
644.20 0.3783
644.30 0.3781
644.40 0.3778
644.50 0.3775
644.60 0.3772
644.70 0.377
644.80 0.3767
644.90 0.3764
645.00 0.3761
645.10 0.3759
645.20 0.3756
645.30 0.3753
645.40 0.375
645.50 0.3747
645.60 0.3744
645.70 0.3741
645.80 0.3738
645.90 0.3736
646.00 0.3733
646.10 0.373
646.20 0.3727
646.30 0.3724
646.40 0.3721
646.50 0.3718
646.60 0.3715
646.70 0.3712
646.80 0.3709
646.90 0.3705
647.00 0.3702
647.10 0.3699
647.20 0.3696
647.30 0.3693
647.40 0.369
647.50 0.3686
647.60 0.3683
647.70 0.368
647.80 0.3676
647.90 0.3673
648.00 0.367
648.10 0.3666
648.20 0.3663
648.30 0.366
648.40 0.3656
648.50 0.3652
648.60 0.3648
648.70 0.3645
648.80 0.3641
648.90 0.3637
649.00 0.3634
649.10 0.363
649.20 0.3626
649.30 0.3622
649.40 0.3618
649.50 0.3614
649.60 0.3609
649.70 0.3605
649.80 0.3601
649.90 0.3597
650.00 0.3592
650.10 0.3588
650.20 0.3584
650.30 0.3579
650.40 0.3574
650.50 0.3569
650.60 0.3564
650.70 0.3559
650.80 0.3554
650.90 0.3549
651.00 0.3544
651.10 0.3539
651.20 0.3534
651.30 0.3529
651.40 0.3522
651.50 0.3516
651.60 0.351
651.70 0.3504
651.80 0.3497
651.90 0.3491
652.00 0.3485
652.10 0.3479
652.20 0.3472
652.30 0.3466
652.40 0.3458
652.50 0.345
652.60 0.3442
652.70 0.3434
652.80 0.3426
652.90 0.3419
653.00 0.3411
653.10 0.3403
653.20 0.3395
653.30 0.3387
653.40 0.3377
653.50 0.3366
653.60 0.3356
653.70 0.3346
653.80 0.3336
653.90 0.3326
654.00 0.3316
654.10 0.3306
654.20 0.3296
654.30 0.3285
654.40 0.3273
654.50 0.3261
654.60 0.3249
654.70 0.3237
654.80 0.3224
654.90 0.3211
655.00 0.3198
655.10 0.3184
655.20 0.3171
655.30 0.3158
655.40 0.3144
655.50 0.313
655.60 0.3116
655.70 0.3102
655.80 0.3088
655.90 0.3076
656.00 0.3066
656.10 0.3058
656.20 0.3111
656.30 0.3245
656.40 0.3069
656.50 0.3052
656.60 0.3059
656.70 0.3066
656.80 0.3076
656.90 0.3086
657.00 0.3096
657.10 0.3107
657.20 0.3117
657.30 0.3127
657.40 0.3137
657.50 0.3146
657.60 0.3156
657.70 0.3166
657.80 0.3175
657.90 0.3183
658.00 0.3192
658.10 0.32
658.20 0.3208
658.30 0.3216
658.40 0.3222
658.50 0.3228
658.60 0.3234
658.70 0.3241
658.80 0.3247
658.90 0.3253
659.00 0.3259
659.10 0.3265
659.20 0.3271
659.30 0.3277
659.40 0.3281
659.50 0.3284
659.60 0.3288
659.70 0.3292
659.80 0.3296
659.90 0.33
660.00 0.3303
660.10 0.3307
660.20 0.3311
660.30 0.3314
660.40 0.3316
660.50 0.3318
660.60 0.332
660.70 0.3322
660.80 0.3325
660.90 0.3327
661.00 0.3329
661.10 0.3331
661.20 0.3333
661.30 0.3334
661.40 0.3335
661.50 0.3336
661.60 0.3337
661.70 0.3338
661.80 0.3339
661.90 0.3339
662.00 0.334
662.10 0.3341
662.20 0.3342
662.30 0.3343
662.40 0.3343
662.50 0.3343
662.60 0.3343
662.70 0.3343
662.80 0.3343
662.90 0.3343
663.00 0.3343
663.10 0.3343
663.20 0.3343
663.30 0.3343
663.40 0.3342
663.50 0.3342
663.60 0.3341
663.70 0.334
663.80 0.334
663.90 0.3339
664.00 0.3339
664.10 0.3338
664.20 0.3338
664.30 0.3337
664.40 0.3336
664.50 0.3335
664.60 0.3334
664.70 0.3333
664.80 0.3333
664.90 0.3332
665.00 0.3331
665.10 0.333
665.20 0.3329
665.30 0.3328
665.40 0.3327
665.50 0.3326
665.60 0.3324
665.70 0.3323
665.80 0.3322
665.90 0.3321
666.00 0.332
666.10 0.3319
666.20 0.3317
666.30 0.3316
666.40 0.3315
666.50 0.3313
666.60 0.3312
666.70 0.3311
666.80 0.3309
666.90 0.3308
667.00 0.3307
667.10 0.3305
667.20 0.3304
667.30 0.3303
667.40 0.3301
667.50 0.33
667.60 0.3298
667.70 0.3297
667.80 0.3295
667.90 0.3294
668.00 0.3292
668.10 0.3291
668.20 0.3289
668.30 0.3288
668.40 0.3286
668.50 0.3285
668.60 0.3283
668.70 0.3282
668.80 0.328
668.90 0.3279
669.00 0.3277
669.10 0.3275
669.20 0.3274
669.30 0.3272
669.40 0.3271
669.50 0.3269
669.60 0.3267
669.70 0.3266
669.80 0.3264
669.90 0.3263
670.00 0.3261
670.10 0.3259
670.20 0.3258
670.30 0.3256
670.40 0.3254
670.50 0.3253
670.60 0.3251
670.70 0.3249
670.80 0.3248
670.90 0.3246
671.00 0.3244
671.10 0.3243
671.20 0.3241
671.30 0.324
671.40 0.3238
671.50 0.3236
671.60 0.3234
671.70 0.3233
671.80 0.3231
671.90 0.3229
672.00 0.3228
672.10 0.3226
672.20 0.3224
672.30 0.3223
672.40 0.3221
672.50 0.3219
672.60 0.3218
672.70 0.3216
672.80 0.3214
672.90 0.3212
673.00 0.3211
673.10 0.3209
673.20 0.3207
673.30 0.3206
673.40 0.3204
673.50 0.3202
673.60 0.32
673.70 0.3199
673.80 0.3197
673.90 0.3195
674.00 0.3194
674.10 0.3192
674.20 0.319
674.30 0.3188
674.40 0.3187
674.50 0.3185
674.60 0.3183
674.70 0.3182
674.80 0.318
674.90 0.3178
675.00 0.3176
675.10 0.3175
675.20 0.3173
675.30 0.3171
675.40 0.3169
675.50 0.3168
675.60 0.3166
675.70 0.3164
675.80 0.3163
675.90 0.3161
676.00 0.3159
676.10 0.3157
676.20 0.3156
676.30 0.3154
676.40 0.3152
676.50 0.315
676.60 0.3149
676.70 0.3147
676.80 0.3145
676.90 0.3144
677.00 0.3142
677.10 0.314
677.20 0.3138
677.30 0.3137
677.40 0.3135
677.50 0.3133
677.60 0.3132
677.70 0.313
677.80 0.3128
677.90 0.3126
678.00 0.3125
678.10 0.3123
678.20 0.3121
678.30 0.3119
678.40 0.3118
678.50 0.3116
678.60 0.3114
678.70 0.3113
678.80 0.3111
678.90 0.3109
679.00 0.3107
679.10 0.3106
679.20 0.3104
679.30 0.3102
679.40 0.3101
679.50 0.3099
679.60 0.3097
679.70 0.3095
679.80 0.3094
679.90 0.3092
680.00 0.309
680.10 0.3089
680.20 0.3087
680.30 0.3085
680.40 0.3083
680.50 0.3082
680.60 0.308
680.70 0.3078
680.80 0.3077
680.90 0.3075
681.00 0.3073
681.10 0.3071
681.20 0.307
681.30 0.3068
681.40 0.3066
681.50 0.3065
681.60 0.3063
681.70 0.3061
681.80 0.306
681.90 0.3058
682.00 0.3056
682.10 0.3054
682.20 0.3053
682.30 0.3051
682.40 0.3049
682.50 0.3048
682.60 0.3046
682.70 0.3044
682.80 0.3043
682.90 0.3041
683.00 0.3039
683.10 0.3038
683.20 0.3036
683.30 0.3034
683.40 0.3032
683.50 0.3031
683.60 0.3029
683.70 0.3027
683.80 0.3026
683.90 0.3024
684.00 0.3022
684.10 0.3021
684.20 0.3019
684.30 0.3017
684.40 0.3016
684.50 0.3014
684.60 0.3012
684.70 0.3011
684.80 0.3009
684.90 0.3007
685.00 0.3006
685.10 0.3004
685.20 0.3002
685.30 0.3001
685.40 0.2999
685.50 0.2997
685.60 0.2996
685.70 0.2994
685.80 0.2992
685.90 0.2991
686.00 0.2989
686.10 0.2987
686.20 0.2986
686.30 0.2984
686.40 0.2982
686.50 0.2981
686.60 0.2979
686.70 0.2977
686.80 0.2976
686.90 0.2974
687.00 0.2972
687.10 0.2971
687.20 0.2969
687.30 0.2967
687.40 0.2966
687.50 0.2964
687.60 0.2962
687.70 0.2961
687.80 0.2959
687.90 0.2958
688.00 0.2956
688.10 0.2954
688.20 0.2953
688.30 0.2951
688.40 0.2949
688.50 0.2948
688.60 0.2946
688.70 0.2944
688.80 0.2943
688.90 0.2941
689.00 0.2939
689.10 0.2938
689.20 0.2936
689.30 0.2935
689.40 0.2933
689.50 0.2931
689.60 0.293
689.70 0.2928
689.80 0.2926
689.90 0.2925
690.00 0.2923
690.10 0.2922
690.20 0.292
690.30 0.2918
690.40 0.2917
690.50 0.2915
690.60 0.2914
690.70 0.2912
690.80 0.291
690.90 0.2909
691.00 0.2907
691.10 0.2906
691.20 0.2904
691.30 0.2902
691.40 0.2901
691.50 0.2899
691.60 0.2897
691.70 0.2896
691.80 0.2894
691.90 0.2893
692.00 0.2891
692.10 0.2889
692.20 0.2888
692.30 0.2886
692.40 0.2885
692.50 0.2883
692.60 0.2881
692.70 0.288
692.80 0.2878
692.90 0.2877
693.00 0.2875
693.10 0.2873
693.20 0.2872
693.30 0.287
693.40 0.2869
693.50 0.2867
693.60 0.2866
693.70 0.2864
693.80 0.2862
693.90 0.2861
694.00 0.2859
694.10 0.2858
694.20 0.2856
694.30 0.2854
694.40 0.2853
694.50 0.2851
694.60 0.285
694.70 0.2848
694.80 0.2847
694.90 0.2845
695.00 0.2843
695.10 0.2842
695.20 0.284
695.30 0.2839
695.40 0.2837
695.50 0.2836
695.60 0.2834
695.70 0.2832
695.80 0.2831
695.90 0.2829
696.00 0.2828
696.10 0.2826
696.20 0.2825
696.30 0.2823
696.40 0.2822
696.50 0.282
696.60 0.2818
696.70 0.2817
696.80 0.2815
696.90 0.2814
697.00 0.2812
697.10 0.2811
697.20 0.2809
697.30 0.2808
697.40 0.2806
697.50 0.2804
697.60 0.2803
697.70 0.2801
697.80 0.28
697.90 0.2798
698.00 0.2797
698.10 0.2795
698.20 0.2794
698.30 0.2792
698.40 0.2791
698.50 0.2789
698.60 0.2788
698.70 0.2786
698.80 0.2784
698.90 0.2783
699.00 0.2781
699.10 0.278
699.20 0.2778
699.30 0.2777
699.40 0.2775
699.50 0.2774
699.60 0.2772
699.70 0.2771
699.80 0.2769
699.90 0.2768
700.00 0.2766
700.10 0.2765
700.20 0.2763
700.30 0.2762
700.40 0.276
700.50 0.2759
700.60 0.2757
700.70 0.2755
700.80 0.2754
700.90 0.2752
701.00 0.2751
701.10 0.2749
701.20 0.2748
701.30 0.2746
701.40 0.2745
701.50 0.2743
701.60 0.2742
701.70 0.274
701.80 0.2739
701.90 0.2737
702.00 0.2736
702.10 0.2734
702.20 0.2733
702.30 0.2731
702.40 0.273
702.50 0.2728
702.60 0.2727
702.70 0.2725
702.80 0.2724
702.90 0.2722
703.00 0.2721
703.10 0.272
703.20 0.2718
703.30 0.2717
703.40 0.2715
703.50 0.2714
703.60 0.2712
703.70 0.2711
703.80 0.2709
703.90 0.2708
704.00 0.2706
704.10 0.2705
704.20 0.2703
704.30 0.2702
704.40 0.27
704.50 0.2699
704.60 0.2697
704.70 0.2696
704.80 0.2694
704.90 0.2693
705.00 0.2691
705.10 0.269
705.20 0.2688
705.30 0.2687
705.40 0.2685
705.50 0.2684
705.60 0.2683
705.70 0.2681
705.80 0.268
705.90 0.2678
706.00 0.2677
706.10 0.2675
706.20 0.2674
706.30 0.2672
706.40 0.2671
706.50 0.2669
706.60 0.2668
706.70 0.2667
706.80 0.2665
706.90 0.2664
707.00 0.2662
707.10 0.2661
707.20 0.2659
707.30 0.2658
707.40 0.2656
707.50 0.2655
707.60 0.2654
707.70 0.2652
707.80 0.2651
707.90 0.2649
708.00 0.2648
708.10 0.2646
708.20 0.2645
708.30 0.2643
708.40 0.2642
708.50 0.2641
708.60 0.2639
708.70 0.2638
708.80 0.2636
708.90 0.2635
709.00 0.2633
709.10 0.2632
709.20 0.263
709.30 0.2629
709.40 0.2628
709.50 0.2626
709.60 0.2625
709.70 0.2623
709.80 0.2622
709.90 0.262
710.00 0.2619
710.10 0.2618
710.20 0.2616
710.30 0.2615
710.40 0.2613
710.50 0.2612
710.60 0.2611
710.70 0.2609
710.80 0.2608
710.90 0.2606
711.00 0.2605
711.10 0.2603
711.20 0.2602
711.30 0.2601
711.40 0.2599
711.50 0.2598
711.60 0.2596
711.70 0.2595
711.80 0.2594
711.90 0.2592
712.00 0.2591
712.10 0.2589
712.20 0.2588
712.30 0.2587
712.40 0.2585
712.50 0.2584
712.60 0.2582
712.70 0.2581
712.80 0.258
712.90 0.2578
713.00 0.2577
713.10 0.2575
713.20 0.2574
713.30 0.2573
713.40 0.2571
713.50 0.257
713.60 0.2569
713.70 0.2567
713.80 0.2566
713.90 0.2564
714.00 0.2563
714.10 0.2562
714.20 0.256
714.30 0.2559
714.40 0.2557
714.50 0.2556
714.60 0.2555
714.70 0.2553
714.80 0.2552
714.90 0.2551
715.00 0.2549
715.10 0.2548
715.20 0.2546
715.30 0.2545
715.40 0.2544
715.50 0.2542
715.60 0.2541
715.70 0.254
715.80 0.2538
715.90 0.2537
716.00 0.2535
716.10 0.2534
716.20 0.2533
716.30 0.2531
716.40 0.253
716.50 0.2529
716.60 0.2527
716.70 0.2526
716.80 0.2525
716.90 0.2523
717.00 0.2522
717.10 0.2521
717.20 0.2519
717.30 0.2518
717.40 0.2516
717.50 0.2515
717.60 0.2514
717.70 0.2512
717.80 0.2511
717.90 0.251
718.00 0.2508
718.10 0.2507
718.20 0.2506
718.30 0.2504
718.40 0.2503
718.50 0.2502
718.60 0.25
718.70 0.2499
718.80 0.2498
718.90 0.2496
719.00 0.2495
719.10 0.2494
719.20 0.2492
719.30 0.2491
719.40 0.249
719.50 0.2488
719.60 0.2487
719.70 0.2486
719.80 0.2484
719.90 0.2483
720.00 0.2482
720.10 0.248
720.20 0.2479
720.30 0.2478
720.40 0.2476
720.50 0.2475
720.60 0.2474
720.70 0.2472
720.80 0.2471
720.90 0.247
721.00 0.2468
721.10 0.2467
721.20 0.2466
721.30 0.2464
721.40 0.2463
721.50 0.2462
721.60 0.246
721.70 0.2459
721.80 0.2458
721.90 0.2456
722.00 0.2455
722.10 0.2454
722.20 0.2453
722.30 0.2451
722.40 0.245
722.50 0.2449
722.60 0.2447
722.70 0.2446
722.80 0.2445
722.90 0.2443
723.00 0.2442
723.10 0.2441
723.20 0.2439
723.30 0.2438
723.40 0.2437
723.50 0.2436
723.60 0.2434
723.70 0.2433
723.80 0.2432
723.90 0.243
724.00 0.2429
724.10 0.2428
724.20 0.2426
724.30 0.2425
724.40 0.2424
724.50 0.2423
724.60 0.2421
724.70 0.242
724.80 0.2419
724.90 0.2417
725.00 0.2416
725.10 0.2415
725.20 0.2414
725.30 0.2412
725.40 0.2411
725.50 0.241
725.60 0.2408
725.70 0.2407
725.80 0.2406
725.90 0.2405
726.00 0.2403
726.10 0.2402
726.20 0.2401
726.30 0.24
726.40 0.2398
726.50 0.2397
726.60 0.2396
726.70 0.2394
726.80 0.2393
726.90 0.2392
727.00 0.2391
727.10 0.2389
727.20 0.2388
727.30 0.2387
727.40 0.2386
727.50 0.2384
727.60 0.2383
727.70 0.2382
727.80 0.2381
727.90 0.2379
728.00 0.2378
728.10 0.2377
728.20 0.2375
728.30 0.2374
728.40 0.2373
728.50 0.2372
728.60 0.237
728.70 0.2369
728.80 0.2368
728.90 0.2367
729.00 0.2365
729.10 0.2364
729.20 0.2363
729.30 0.2362
729.40 0.236
729.50 0.2359
729.60 0.2358
729.70 0.2357
729.80 0.2355
729.90 0.2354
730.00 0.2353
730.10 0.2352
730.20 0.235
730.30 0.2349
730.40 0.2348
730.50 0.2347
730.60 0.2345
730.70 0.2344
730.80 0.2343
730.90 0.2342
731.00 0.2341
731.10 0.2339
731.20 0.2338
731.30 0.2337
731.40 0.2336
731.50 0.2334
731.60 0.2333
731.70 0.2332
731.80 0.2331
731.90 0.233
732.00 0.2328
732.10 0.2327
732.20 0.2326
732.30 0.2325
732.40 0.2323
732.50 0.2322
732.60 0.2321
732.70 0.232
732.80 0.2319
732.90 0.2317
733.00 0.2316
733.10 0.2315
733.20 0.2314
733.30 0.2312
733.40 0.2311
733.50 0.231
733.60 0.2309
733.70 0.2308
733.80 0.2306
733.90 0.2305
734.00 0.2304
734.10 0.2303
734.20 0.2302
734.30 0.23
734.40 0.2299
734.50 0.2298
734.60 0.2297
734.70 0.2296
734.80 0.2294
734.90 0.2293
735.00 0.2292
735.10 0.2291
735.20 0.229
735.30 0.2288
735.40 0.2287
735.50 0.2286
735.60 0.2285
735.70 0.2284
735.80 0.2282
735.90 0.2281
736.00 0.228
736.10 0.2279
736.20 0.2278
736.30 0.2276
736.40 0.2275
736.50 0.2274
736.60 0.2273
736.70 0.2272
736.80 0.227
736.90 0.2269
737.00 0.2268
737.10 0.2267
737.20 0.2266
737.30 0.2264
737.40 0.2263
737.50 0.2262
737.60 0.2261
737.70 0.226
737.80 0.2258
737.90 0.2257
738.00 0.2256
738.10 0.2255
738.20 0.2254
738.30 0.2253
738.40 0.2251
738.50 0.225
738.60 0.2249
738.70 0.2248
738.80 0.2247
738.90 0.2245
739.00 0.2244
739.10 0.2243
739.20 0.2242
739.30 0.2241
739.40 0.224
739.50 0.2238
739.60 0.2237
739.70 0.2236
739.80 0.2235
739.90 0.2234
740.00 0.2232
740.10 0.2231
740.20 0.223
740.30 0.2229
740.40 0.2228
740.50 0.2227
740.60 0.2226
740.70 0.2224
740.80 0.2223
740.90 0.2222
741.00 0.2221
741.10 0.222
741.20 0.2219
741.30 0.2217
741.40 0.2216
741.50 0.2215
741.60 0.2214
741.70 0.2213
741.80 0.2212
741.90 0.2211
742.00 0.2209
742.10 0.2208
742.20 0.2207
742.30 0.2206
742.40 0.2205
742.50 0.2204
742.60 0.2203
742.70 0.2201
742.80 0.22
742.90 0.2199
743.00 0.2198
743.10 0.2197
743.20 0.2196
743.30 0.2195
743.40 0.2193
743.50 0.2192
743.60 0.2191
743.70 0.219
743.80 0.2189
743.90 0.2188
744.00 0.2187
744.10 0.2186
744.20 0.2184
744.30 0.2183
744.40 0.2182
744.50 0.2181
744.60 0.218
744.70 0.2179
744.80 0.2178
744.90 0.2176
745.00 0.2175
745.10 0.2174
745.20 0.2173
745.30 0.2172
745.40 0.2171
745.50 0.217
745.60 0.2169
745.70 0.2167
745.80 0.2166
745.90 0.2165
746.00 0.2164
746.10 0.2163
746.20 0.2162
746.30 0.2161
746.40 0.216
746.50 0.2159
746.60 0.2157
746.70 0.2156
746.80 0.2155
746.90 0.2154
747.00 0.2153
747.10 0.2152
747.20 0.2151
747.30 0.215
747.40 0.2148
747.50 0.2147
747.60 0.2146
747.70 0.2145
747.80 0.2144
747.90 0.2143
748.00 0.2142
748.10 0.2141
748.20 0.214
748.30 0.2138
748.40 0.2137
748.50 0.2136
748.60 0.2135
748.70 0.2134
748.80 0.2133
748.90 0.2132
749.00 0.2131
749.10 0.213
749.20 0.2128
749.30 0.2127
749.40 0.2126
749.50 0.2125
749.60 0.2124
749.70 0.2123
749.80 0.2122
749.90 0.2121
750.00 0.212
750.10 0.2119
750.20 0.2117
750.30 0.2116
750.40 0.2115
750.50 0.2114
750.60 0.2113
750.70 0.2112
750.80 0.2111
750.90 0.211
751.00 0.2109
751.10 0.2108
751.20 0.2107
751.30 0.2106
751.40 0.2105
751.50 0.2103
751.60 0.2102
751.70 0.2101
751.80 0.21
751.90 0.2099
752.00 0.2098
752.10 0.2097
752.20 0.2096
752.30 0.2095
752.40 0.2094
752.50 0.2093
752.60 0.2092
752.70 0.2091
752.80 0.209
752.90 0.2088
753.00 0.2087
753.10 0.2086
753.20 0.2085
753.30 0.2084
753.40 0.2083
753.50 0.2082
753.60 0.2081
753.70 0.208
753.80 0.2079
753.90 0.2078
754.00 0.2077
754.10 0.2076
754.20 0.2075
754.30 0.2074
754.40 0.2072
754.50 0.2071
754.60 0.207
754.70 0.2069
754.80 0.2068
754.90 0.2067
755.00 0.2066
755.10 0.2065
755.20 0.2064
755.30 0.2063
755.40 0.2062
755.50 0.2061
755.60 0.206
755.70 0.2059
755.80 0.2058
755.90 0.2057
756.00 0.2056
756.10 0.2055
756.20 0.2053
756.30 0.2052
756.40 0.2051
756.50 0.205
756.60 0.2049
756.70 0.2048
756.80 0.2047
756.90 0.2046
757.00 0.2045
757.10 0.2044
757.20 0.2043
757.30 0.2042
757.40 0.2041
757.50 0.204
757.60 0.2039
757.70 0.2038
757.80 0.2037
757.90 0.2036
758.00 0.2035
758.10 0.2034
758.20 0.2033
758.30 0.2031
758.40 0.203
758.50 0.2029
758.60 0.2028
758.70 0.2027
758.80 0.2026
758.90 0.2025
759.00 0.2024
759.10 0.2023
759.20 0.2022
759.30 0.2021
759.40 0.202
759.50 0.2019
759.60 0.2018
759.70 0.2017
759.80 0.2016
759.90 0.2015
760.00 0.2014
760.10 0.2013
760.20 0.2012
760.30 0.2011
760.40 0.201
760.50 0.2009
760.60 0.2008
760.70 0.2007
760.80 0.2006
760.90 0.2005
761.00 0.2004
761.10 0.2003
761.20 0.2002
761.30 0.2001
761.40 0.2
761.50 0.1999
761.60 0.1998
761.70 0.1997
761.80 0.1996
761.90 0.1995
762.00 0.1994
762.10 0.1993
762.20 0.1992
762.30 0.1991
762.40 0.199
762.50 0.1989
762.60 0.1988
762.70 0.1987
762.80 0.1986
762.90 0.1985
763.00 0.1984
763.10 0.1983
763.20 0.1982
763.30 0.1981
763.40 0.198
763.50 0.1979
763.60 0.1978
763.70 0.1977
763.80 0.1976
763.90 0.1975
764.00 0.1974
764.10 0.1973
764.20 0.1972
764.30 0.1971
764.40 0.197
764.50 0.1969
764.60 0.1968
764.70 0.1967
764.80 0.1966
764.90 0.1965
765.00 0.1964
765.10 0.1963
765.20 0.1962
765.30 0.1961
765.40 0.196
765.50 0.1959
765.60 0.1958
765.70 0.1957
765.80 0.1956
765.90 0.1955
766.00 0.1954
766.10 0.1953
766.20 0.1952
766.30 0.1951
766.40 0.195
766.50 0.1949
766.60 0.1948
766.70 0.1947
766.80 0.1946
766.90 0.1945
767.00 0.1944
767.10 0.1943
767.20 0.1942
767.30 0.1941
767.40 0.194
767.50 0.1939
767.60 0.1938
767.70 0.1937
767.80 0.1936
767.90 0.1935
768.00 0.1934
768.10 0.1933
768.20 0.1932
768.30 0.1931
768.40 0.193
768.50 0.1929
768.60 0.1928
768.70 0.1927
768.80 0.1926
768.90 0.1925
769.00 0.1924
769.10 0.1923
769.20 0.1922
769.30 0.1921
769.40 0.192
769.50 0.1919
769.60 0.1918
769.70 0.1917
769.80 0.1917
769.90 0.1916
770.00 0.1915
770.10 0.1914
770.20 0.1913
770.30 0.1912
770.40 0.1911
770.50 0.191
770.60 0.1909
770.70 0.1908
770.80 0.1907
770.90 0.1906
771.00 0.1905
771.10 0.1904
771.20 0.1903
771.30 0.1902
771.40 0.1901
771.50 0.19
771.60 0.1899
771.70 0.1898
771.80 0.1897
771.90 0.1897
772.00 0.1896
772.10 0.1895
772.20 0.1894
772.30 0.1893
772.40 0.1892
772.50 0.1891
772.60 0.189
772.70 0.1889
772.80 0.1888
772.90 0.1887
773.00 0.1886
773.10 0.1885
773.20 0.1884
773.30 0.1883
773.40 0.1882
773.50 0.1881
773.60 0.1881
773.70 0.188
773.80 0.1879
773.90 0.1878
774.00 0.1877
774.10 0.1876
774.20 0.1875
774.30 0.1874
774.40 0.1873
774.50 0.1872
774.60 0.1871
774.70 0.187
774.80 0.1869
774.90 0.1868
775.00 0.1867
775.10 0.1866
775.20 0.1866
775.30 0.1865
775.40 0.1864
775.50 0.1863
775.60 0.1862
775.70 0.1861
775.80 0.186
775.90 0.1859
776.00 0.1858
776.10 0.1857
776.20 0.1856
776.30 0.1855
776.40 0.1854
776.50 0.1853
776.60 0.1853
776.70 0.1852
776.80 0.1851
776.90 0.185
777.00 0.1849
777.10 0.1848
777.20 0.1847
777.30 0.1846
777.40 0.1845
777.50 0.1844
777.60 0.1843
777.70 0.1842
777.80 0.1841
777.90 0.1841
778.00 0.184
778.10 0.1839
778.20 0.1838
778.30 0.1837
778.40 0.1836
778.50 0.1835
778.60 0.1834
778.70 0.1833
778.80 0.1832
778.90 0.1831
779.00 0.183
779.10 0.183
779.20 0.1829
779.30 0.1828
779.40 0.1827
779.50 0.1826
779.60 0.1825
779.70 0.1824
779.80 0.1823
779.90 0.1822
780.00 0.1821
780.10 0.182
780.20 0.182
780.30 0.1819
780.40 0.1818
780.50 0.1817
780.60 0.1816
780.70 0.1815
780.80 0.1814
780.90 0.1813
781.00 0.1812
781.10 0.1812
781.20 0.1811
781.30 0.181
781.40 0.1809
781.50 0.1808
781.60 0.1807
781.70 0.1806
781.80 0.1805
781.90 0.1804
782.00 0.1804
782.10 0.1803
782.20 0.1802
782.30 0.1801
782.40 0.18
782.50 0.1799
782.60 0.1798
782.70 0.1797
782.80 0.1796
782.90 0.1796
783.00 0.1795
783.10 0.1794
783.20 0.1793
783.30 0.1792
783.40 0.1791
783.50 0.179
783.60 0.1789
783.70 0.1788
783.80 0.1788
783.90 0.1787
784.00 0.1786
784.10 0.1785
784.20 0.1784
784.30 0.1783
784.40 0.1782
784.50 0.1781
784.60 0.1781
784.70 0.178
784.80 0.1779
784.90 0.1778
785.00 0.1777
785.10 0.1776
785.20 0.1775
785.30 0.1774
785.40 0.1774
785.50 0.1773
785.60 0.1772
785.70 0.1771
785.80 0.177
785.90 0.1769
786.00 0.1768
786.10 0.1767
786.20 0.1767
786.30 0.1766
786.40 0.1765
786.50 0.1764
786.60 0.1763
786.70 0.1762
786.80 0.1761
786.90 0.176
787.00 0.176
787.10 0.1759
787.20 0.1758
787.30 0.1757
787.40 0.1756
787.50 0.1755
787.60 0.1754
787.70 0.1754
787.80 0.1753
787.90 0.1752
788.00 0.1751
788.10 0.175
788.20 0.1749
788.30 0.1748
788.40 0.1747
788.50 0.1747
788.60 0.1746
788.70 0.1745
788.80 0.1744
788.90 0.1743
789.00 0.1742
789.10 0.1741
789.20 0.1741
789.30 0.174
789.40 0.1739
789.50 0.1738
789.60 0.1737
789.70 0.1736
789.80 0.1735
789.90 0.1735
790.00 0.1734
790.10 0.1733
790.20 0.1732
790.30 0.1731
790.40 0.173
790.50 0.173
790.60 0.1729
790.70 0.1728
790.80 0.1727
790.90 0.1726
791.00 0.1725
791.10 0.1724
791.20 0.1724
791.30 0.1723
791.40 0.1722
791.50 0.1721
791.60 0.172
791.70 0.1719
791.80 0.1719
791.90 0.1718
792.00 0.1717
792.10 0.1716
792.20 0.1715
792.30 0.1714
792.40 0.1714
792.50 0.1713
792.60 0.1712
792.70 0.1711
792.80 0.171
792.90 0.1709
793.00 0.1709
793.10 0.1708
793.20 0.1707
793.30 0.1706
793.40 0.1705
793.50 0.1704
793.60 0.1704
793.70 0.1703
793.80 0.1702
793.90 0.1701
794.00 0.17
794.10 0.17
794.20 0.1699
794.30 0.1698
794.40 0.1697
794.50 0.1696
794.60 0.1695
794.70 0.1695
794.80 0.1694
794.90 0.1693
795.00 0.1692
795.10 0.1691
795.20 0.169
795.30 0.169
795.40 0.1689
795.50 0.1688
795.60 0.1687
795.70 0.1686
795.80 0.1685
795.90 0.1685
796.00 0.1684
796.10 0.1683
796.20 0.1682
796.30 0.1681
796.40 0.1681
796.50 0.168
796.60 0.1679
796.70 0.1678
796.80 0.1677
796.90 0.1676
797.00 0.1676
797.10 0.1675
797.20 0.1674
797.30 0.1673
797.40 0.1672
797.50 0.1672
797.60 0.1671
797.70 0.167
797.80 0.1669
797.90 0.1668
798.00 0.1668
798.10 0.1667
798.20 0.1666
798.30 0.1665
798.40 0.1664
798.50 0.1663
798.60 0.1663
798.70 0.1662
798.80 0.1661
798.90 0.166
799.00 0.1659
799.10 0.1659
799.20 0.1658
799.30 0.1657
799.40 0.1656
799.50 0.1655
799.60 0.1655
799.70 0.1654
799.80 0.1653
799.90 0.1652
800.00 0.1651
800.10 0.1651
800.20 0.165
800.30 0.1649
800.40 0.1648
800.50 0.1647
800.60 0.1647
800.70 0.1646
800.80 0.1645
800.90 0.1644
801.00 0.1643
801.10 0.1643
801.20 0.1642
801.30 0.1641
801.40 0.164
801.50 0.1639
801.60 0.1639
801.70 0.1638
801.80 0.1637
801.90 0.1636
802.00 0.1636
802.10 0.1635
802.20 0.1634
802.30 0.1633
802.40 0.1632
802.50 0.1632
802.60 0.1631
802.70 0.163
802.80 0.1629
802.90 0.1628
803.00 0.1628
803.10 0.1627
803.20 0.1626
803.30 0.1625
803.40 0.1625
803.50 0.1624
803.60 0.1623
803.70 0.1622
803.80 0.1621
803.90 0.1621
804.00 0.162
804.10 0.1619
804.20 0.1618
804.30 0.1618
804.40 0.1617
804.50 0.1616
804.60 0.1615
804.70 0.1614
804.80 0.1614
804.90 0.1613
805.00 0.1612
805.10 0.1611
805.20 0.1611
805.30 0.161
805.40 0.1609
805.50 0.1608
805.60 0.1607
805.70 0.1607
805.80 0.1606
805.90 0.1605
806.00 0.1604
806.10 0.1604
806.20 0.1603
806.30 0.1602
806.40 0.1601
806.50 0.1601
806.60 0.16
806.70 0.1599
806.80 0.1598
806.90 0.1597
807.00 0.1597
807.10 0.1596
807.20 0.1595
807.30 0.1594
807.40 0.1594
807.50 0.1593
807.60 0.1592
807.70 0.1591
807.80 0.1591
807.90 0.159
808.00 0.1589
808.10 0.1588
808.20 0.1587
808.30 0.1587
808.40 0.1586
808.50 0.1585
808.60 0.1584
808.70 0.1584
808.80 0.1583
808.90 0.1582
809.00 0.1581
809.10 0.1581
809.20 0.158
809.30 0.1579
809.40 0.1578
809.50 0.1578
809.60 0.1577
809.70 0.1576
809.80 0.1575
809.90 0.1575
810.00 0.1574
810.10 0.1573
810.20 0.1572
810.30 0.1572
810.40 0.1571
810.50 0.157
810.60 0.1569
810.70 0.1569
810.80 0.1568
810.90 0.1567
811.00 0.1566
811.10 0.1566
811.20 0.1565
811.30 0.1564
811.40 0.1563
811.50 0.1563
811.60 0.1562
811.70 0.1561
811.80 0.156
811.90 0.156
812.00 0.1559
812.10 0.1558
812.20 0.1557
812.30 0.1557
812.40 0.1556
812.50 0.1555
812.60 0.1554
812.70 0.1554
812.80 0.1553
812.90 0.1552
813.00 0.1552
813.10 0.1551
813.20 0.155
813.30 0.1549
813.40 0.1549
813.50 0.1548
813.60 0.1547
813.70 0.1546
813.80 0.1546
813.90 0.1545
814.00 0.1544
814.10 0.1543
814.20 0.1543
814.30 0.1542
814.40 0.1541
814.50 0.1541
814.60 0.154
814.70 0.1539
814.80 0.1538
814.90 0.1538
815.00 0.1537
815.10 0.1536
815.20 0.1535
815.30 0.1535
815.40 0.1534
815.50 0.1533
815.60 0.1532
815.70 0.1532
815.80 0.1531
815.90 0.153
816.00 0.153
816.10 0.1529
816.20 0.1528
816.30 0.1527
816.40 0.1527
816.50 0.1526
816.60 0.1525
816.70 0.1524
816.80 0.1524
816.90 0.1523
817.00 0.1522
817.10 0.1522
817.20 0.1521
817.30 0.152
817.40 0.1519
817.50 0.1519
817.60 0.1518
817.70 0.1517
817.80 0.1517
817.90 0.1516
818.00 0.1515
818.10 0.1514
818.20 0.1514
818.30 0.1513
818.40 0.1512
818.50 0.1511
818.60 0.1511
818.70 0.151
818.80 0.1509
818.90 0.1509
819.00 0.1508
819.10 0.1507
819.20 0.1506
819.30 0.1506
819.40 0.1505
819.50 0.1504
819.60 0.1504
819.70 0.1503
819.80 0.1502
819.90 0.1501
820.00 0.1501
820.10 0.15
820.20 0.1499
820.30 0.1499
820.40 0.1498
820.50 0.1497
820.60 0.1496
820.70 0.1496
820.80 0.1495
820.90 0.1494
821.00 0.1494
821.10 0.1493
821.20 0.1492
821.30 0.1492
821.40 0.1491
821.50 0.149
821.60 0.1489
821.70 0.1489
821.80 0.1488
821.90 0.1487
822.00 0.1487
822.10 0.1486
822.20 0.1485
822.30 0.1485
822.40 0.1484
822.50 0.1483
822.60 0.1482
822.70 0.1482
822.80 0.1481
822.90 0.148
823.00 0.148
823.10 0.1479
823.20 0.1478
823.30 0.1478
823.40 0.1477
823.50 0.1476
823.60 0.1475
823.70 0.1475
823.80 0.1474
823.90 0.1473
824.00 0.1473
824.10 0.1472
824.20 0.1471
824.30 0.1471
824.40 0.147
824.50 0.1469
824.60 0.1469
824.70 0.1468
824.80 0.1467
824.90 0.1467
825.00 0.1466
825.10 0.1465
825.20 0.1464
825.30 0.1464
825.40 0.1463
825.50 0.1462
825.60 0.1462
825.70 0.1461
825.80 0.146
825.90 0.146
826.00 0.1459
826.10 0.1458
826.20 0.1458
826.30 0.1457
826.40 0.1456
826.50 0.1456
826.60 0.1455
826.70 0.1454
826.80 0.1453
826.90 0.1453
827.00 0.1452
827.10 0.1451
827.20 0.1451
827.30 0.145
827.40 0.1449
827.50 0.1449
827.60 0.1448
827.70 0.1447
827.80 0.1447
827.90 0.1446
828.00 0.1445
828.10 0.1445
828.20 0.1444
828.30 0.1443
828.40 0.1443
828.50 0.1442
828.60 0.1441
828.70 0.1441
828.80 0.144
828.90 0.1439
829.00 0.1439
829.10 0.1438
829.20 0.1437
829.30 0.1437
829.40 0.1436
829.50 0.1435
829.60 0.1435
829.70 0.1434
829.80 0.1433
829.90 0.1433
830.00 0.1432
830.10 0.1431
830.20 0.1431
830.30 0.143
830.40 0.1429
830.50 0.1429
830.60 0.1428
830.70 0.1427
830.80 0.1427
830.90 0.1426
831.00 0.1425
831.10 0.1425
831.20 0.1424
831.30 0.1423
831.40 0.1423
831.50 0.1422
831.60 0.1421
831.70 0.1421
831.80 0.142
831.90 0.1419
832.00 0.1419
832.10 0.1418
832.20 0.1417
832.30 0.1417
832.40 0.1416
832.50 0.1415
832.60 0.1415
832.70 0.1414
832.80 0.1413
832.90 0.1413
833.00 0.1412
833.10 0.1411
833.20 0.1411
833.30 0.141
833.40 0.1409
833.50 0.1409
833.60 0.1408
833.70 0.1407
833.80 0.1407
833.90 0.1406
834.00 0.1405
834.10 0.1405
834.20 0.1404
834.30 0.1403
834.40 0.1403
834.50 0.1402
834.60 0.1401
834.70 0.1401
834.80 0.14
834.90 0.14
835.00 0.1399
835.10 0.1398
835.20 0.1398
835.30 0.1397
835.40 0.1396
835.50 0.1396
835.60 0.1395
835.70 0.1394
835.80 0.1394
835.90 0.1393
836.00 0.1392
836.10 0.1392
836.20 0.1391
836.30 0.139
836.40 0.139
836.50 0.1389
836.60 0.1388
836.70 0.1388
836.80 0.1387
836.90 0.1387
837.00 0.1386
837.10 0.1385
837.20 0.1385
837.30 0.1384
837.40 0.1383
837.50 0.1383
837.60 0.1382
837.70 0.1381
837.80 0.1381
837.90 0.138
838.00 0.1379
838.10 0.1379
838.20 0.1378
838.30 0.1378
838.40 0.1377
838.50 0.1376
838.60 0.1376
838.70 0.1375
838.80 0.1374
838.90 0.1374
839.00 0.1373
839.10 0.1372
839.20 0.1372
839.30 0.1371
839.40 0.1371
839.50 0.137
839.60 0.1369
839.70 0.1369
839.80 0.1368
839.90 0.1367
840.00 0.1367
840.10 0.1366
840.20 0.1365
840.30 0.1365
840.40 0.1364
840.50 0.1364
840.60 0.1363
840.70 0.1362
840.80 0.1362
840.90 0.1361
841.00 0.136
841.10 0.136
841.20 0.1359
841.30 0.1359
841.40 0.1358
841.50 0.1357
841.60 0.1357
841.70 0.1356
841.80 0.1355
841.90 0.1355
842.00 0.1354
842.10 0.1353
842.20 0.1353
842.30 0.1352
842.40 0.1352
842.50 0.1351
842.60 0.135
842.70 0.135
842.80 0.1349
842.90 0.1348
843.00 0.1348
843.10 0.1347
843.20 0.1347
843.30 0.1346
843.40 0.1345
843.50 0.1345
843.60 0.1344
843.70 0.1344
843.80 0.1343
843.90 0.1342
844.00 0.1342
844.10 0.1341
844.20 0.134
844.30 0.134
844.40 0.1339
844.50 0.1339
844.60 0.1338
844.70 0.1337
844.80 0.1337
844.90 0.1336
845.00 0.1335
845.10 0.1335
845.20 0.1334
845.30 0.1334
845.40 0.1333
845.50 0.1332
845.60 0.1332
845.70 0.1331
845.80 0.1331
845.90 0.133
846.00 0.1329
846.10 0.1329
846.20 0.1328
846.30 0.1327
846.40 0.1327
846.50 0.1326
846.60 0.1326
846.70 0.1325
846.80 0.1324
846.90 0.1324
847.00 0.1323
847.10 0.1323
847.20 0.1322
847.30 0.1321
847.40 0.1321
847.50 0.132
847.60 0.132
847.70 0.1319
847.80 0.1318
847.90 0.1318
848.00 0.1317
848.10 0.1317
848.20 0.1316
848.30 0.1315
848.40 0.1315
848.50 0.1314
848.60 0.1314
848.70 0.1313
848.80 0.1312
848.90 0.1312
849.00 0.1311
849.10 0.1311
849.20 0.131
849.30 0.1309
849.40 0.1309
849.50 0.1308
849.60 0.1308
849.70 0.1307
849.80 0.1306
849.90 0.1306
850.00 0.1305
850.10 0.1305
850.20 0.1304
850.30 0.1303
850.40 0.1303
850.50 0.1302
850.60 0.1302
850.70 0.1301
850.80 0.13
850.90 0.13
851.00 0.1299
851.10 0.1299
851.20 0.1298
851.30 0.1297
851.40 0.1297
851.50 0.1296
851.60 0.1296
851.70 0.1295
851.80 0.1294
851.90 0.1294
852.00 0.1293
852.10 0.1293
852.20 0.1292
852.30 0.1291
852.40 0.1291
852.50 0.129
852.60 0.129
852.70 0.1289
852.80 0.1288
852.90 0.1288
853.00 0.1287
853.10 0.1287
853.20 0.1286
853.30 0.1286
853.40 0.1285
853.50 0.1284
853.60 0.1284
853.70 0.1283
853.80 0.1283
853.90 0.1282
854.00 0.1281
854.10 0.1281
854.20 0.128
854.30 0.128
854.40 0.1279
854.50 0.1279
854.60 0.1278
854.70 0.1277
854.80 0.1277
854.90 0.1276
855.00 0.1276
855.10 0.1275
855.20 0.1274
855.30 0.1274
855.40 0.1273
855.50 0.1273
855.60 0.1272
855.70 0.1272
855.80 0.1271
855.90 0.127
856.00 0.127
856.10 0.1269
856.20 0.1269
856.30 0.1268
856.40 0.1267
856.50 0.1267
856.60 0.1266
856.70 0.1266
856.80 0.1265
856.90 0.1265
857.00 0.1264
857.10 0.1263
857.20 0.1263
857.30 0.1262
857.40 0.1262
857.50 0.1261
857.60 0.1261
857.70 0.126
857.80 0.1259
857.90 0.1259
858.00 0.1258
858.10 0.1258
858.20 0.1257
858.30 0.1257
858.40 0.1256
858.50 0.1256
858.60 0.1255
858.70 0.1254
858.80 0.1254
858.90 0.1253
859.00 0.1253
859.10 0.1252
859.20 0.1252
859.30 0.1251
859.40 0.125
859.50 0.125
859.60 0.1249
859.70 0.1249
859.80 0.1248
859.90 0.1248
860.00 0.1247
860.10 0.1247
860.20 0.1246
860.30 0.1245
860.40 0.1245
860.50 0.1244
860.60 0.1244
860.70 0.1243
860.80 0.1243
860.90 0.1242
861.00 0.1241
861.10 0.1241
861.20 0.124
861.30 0.124
861.40 0.1239
861.50 0.1239
861.60 0.1238
861.70 0.1238
861.80 0.1237
861.90 0.1236
862.00 0.1236
862.10 0.1235
862.20 0.1235
862.30 0.1234
862.40 0.1234
862.50 0.1233
862.60 0.1233
862.70 0.1232
862.80 0.1231
862.90 0.1231
863.00 0.123
863.10 0.123
863.20 0.1229
863.30 0.1229
863.40 0.1228
863.50 0.1228
863.60 0.1227
863.70 0.1226
863.80 0.1226
863.90 0.1225
864.00 0.1225
864.10 0.1224
864.20 0.1224
864.30 0.1223
864.40 0.1223
864.50 0.1222
864.60 0.1221
864.70 0.1221
864.80 0.122
864.90 0.122
865.00 0.1219
865.10 0.1219
865.20 0.1218
865.30 0.1218
865.40 0.1217
865.50 0.1217
865.60 0.1216
865.70 0.1215
865.80 0.1215
865.90 0.1214
866.00 0.1214
866.10 0.1213
866.20 0.1213
866.30 0.1212
866.40 0.1212
866.50 0.1211
866.60 0.121
866.70 0.121
866.80 0.1209
866.90 0.1209
867.00 0.1208
867.10 0.1208
867.20 0.1207
867.30 0.1207
867.40 0.1206
867.50 0.1206
867.60 0.1205
867.70 0.1205
867.80 0.1204
867.90 0.1203
868.00 0.1203
868.10 0.1202
868.20 0.1202
868.30 0.1201
868.40 0.1201
868.50 0.12
868.60 0.12
868.70 0.1199
868.80 0.1199
868.90 0.1198
869.00 0.1198
869.10 0.1197
869.20 0.1196
869.30 0.1196
869.40 0.1195
869.50 0.1195
869.60 0.1194
869.70 0.1194
869.80 0.1193
869.90 0.1193
870.00 0.1192
870.10 0.1192
870.20 0.1191
870.30 0.1191
870.40 0.119
870.50 0.119
870.60 0.1189
870.70 0.1188
870.80 0.1188
870.90 0.1187
871.00 0.1187
871.10 0.1186
871.20 0.1186
871.30 0.1185
871.40 0.1185
871.50 0.1184
871.60 0.1184
871.70 0.1183
871.80 0.1183
871.90 0.1182
872.00 0.1182
872.10 0.1181
872.20 0.1181
872.30 0.118
872.40 0.1179
872.50 0.1179
872.60 0.1178
872.70 0.1178
872.80 0.1177
872.90 0.1177
873.00 0.1176
873.10 0.1176
873.20 0.1175
873.30 0.1175
873.40 0.1174
873.50 0.1174
873.60 0.1173
873.70 0.1173
873.80 0.1172
873.90 0.1172
874.00 0.1171
874.10 0.1171
874.20 0.117
874.30 0.117
874.40 0.1169
874.50 0.1169
874.60 0.1168
874.70 0.1167
874.80 0.1167
874.90 0.1166
875.00 0.1166
875.10 0.1165
875.20 0.1165
875.30 0.1164
875.40 0.1164
875.50 0.1163
875.60 0.1163
875.70 0.1162
875.80 0.1162
875.90 0.1161
876.00 0.1161
876.10 0.116
876.20 0.116
876.30 0.1159
876.40 0.1159
876.50 0.1158
876.60 0.1158
876.70 0.1157
876.80 0.1157
876.90 0.1156
877.00 0.1156
877.10 0.1155
877.20 0.1155
877.30 0.1154
877.40 0.1154
877.50 0.1153
877.60 0.1153
877.70 0.1152
877.80 0.1152
877.90 0.1151
878.00 0.115
878.10 0.115
878.20 0.1149
878.30 0.1149
878.40 0.1148
878.50 0.1148
878.60 0.1147
878.70 0.1147
878.80 0.1146
878.90 0.1146
879.00 0.1145
879.10 0.1145
879.20 0.1144
879.30 0.1144
879.40 0.1143
879.50 0.1143
879.60 0.1142
879.70 0.1142
879.80 0.1141
879.90 0.1141
880.00 0.114
880.10 0.114
880.20 0.1139
880.30 0.1139
880.40 0.1138
880.50 0.1138
880.60 0.1137
880.70 0.1137
880.80 0.1136
880.90 0.1136
881.00 0.1135
881.10 0.1135
881.20 0.1134
881.30 0.1134
881.40 0.1133
881.50 0.1133
881.60 0.1132
881.70 0.1132
881.80 0.1131
881.90 0.1131
882.00 0.113
882.10 0.113
882.20 0.1129
882.30 0.1129
882.40 0.1128
882.50 0.1128
882.60 0.1127
882.70 0.1127
882.80 0.1126
882.90 0.1126
883.00 0.1125
883.10 0.1125
883.20 0.1124
883.30 0.1124
883.40 0.1123
883.50 0.1123
883.60 0.1122
883.70 0.1122
883.80 0.1121
883.90 0.1121
884.00 0.112
884.10 0.112
884.20 0.112
884.30 0.1119
884.40 0.1119
884.50 0.1118
884.60 0.1118
884.70 0.1117
884.80 0.1117
884.90 0.1116
885.00 0.1116
885.10 0.1115
885.20 0.1115
885.30 0.1114
885.40 0.1114
885.50 0.1113
885.60 0.1113
885.70 0.1112
885.80 0.1112
885.90 0.1111
886.00 0.1111
886.10 0.111
886.20 0.111
886.30 0.1109
886.40 0.1109
886.50 0.1108
886.60 0.1108
886.70 0.1107
886.80 0.1107
886.90 0.1106
887.00 0.1106
887.10 0.1105
887.20 0.1105
887.30 0.1104
887.40 0.1104
887.50 0.1103
887.60 0.1103
887.70 0.1102
887.80 0.1102
887.90 0.1102
888.00 0.1101
888.10 0.1101
888.20 0.11
888.30 0.11
888.40 0.1099
888.50 0.1099
888.60 0.1098
888.70 0.1098
888.80 0.1097
888.90 0.1097
889.00 0.1096
889.10 0.1096
889.20 0.1095
889.30 0.1095
889.40 0.1094
889.50 0.1094
889.60 0.1093
889.70 0.1093
889.80 0.1092
889.90 0.1092
890.00 0.1091
890.10 0.1091
890.20 0.1091
890.30 0.109
890.40 0.109
890.50 0.1089
890.60 0.1089
890.70 0.1088
890.80 0.1088
890.90 0.1087
891.00 0.1087
891.10 0.1086
891.20 0.1086
891.30 0.1085
891.40 0.1085
891.50 0.1084
891.60 0.1084
891.70 0.1083
891.80 0.1083
891.90 0.1082
892.00 0.1082
892.10 0.1082
892.20 0.1081
892.30 0.1081
892.40 0.108
892.50 0.108
892.60 0.1079
892.70 0.1079
892.80 0.1078
892.90 0.1078
893.00 0.1077
893.10 0.1077
893.20 0.1076
893.30 0.1076
893.40 0.1075
893.50 0.1075
893.60 0.1075
893.70 0.1074
893.80 0.1074
893.90 0.1073
894.00 0.1073
894.10 0.1072
894.20 0.1072
894.30 0.1071
894.40 0.1071
894.50 0.107
894.60 0.107
894.70 0.1069
894.80 0.1069
894.90 0.1069
895.00 0.1068
895.10 0.1068
895.20 0.1067
895.30 0.1067
895.40 0.1066
895.50 0.1066
895.60 0.1065
895.70 0.1065
895.80 0.1064
895.90 0.1064
896.00 0.1063
896.10 0.1063
896.20 0.1063
896.30 0.1062
896.40 0.1062
896.50 0.1061
896.60 0.1061
896.70 0.106
896.80 0.106
896.90 0.1059
897.00 0.1059
897.10 0.1058
897.20 0.1058
897.30 0.1057
897.40 0.1057
897.50 0.1057
897.60 0.1056
897.70 0.1056
897.80 0.1055
897.90 0.1055
898.00 0.1054
898.10 0.1054
898.20 0.1053
898.30 0.1053
898.40 0.1053
898.50 0.1052
898.60 0.1052
898.70 0.1051
898.80 0.1051
898.90 0.105
899.00 0.105
899.10 0.1049
899.20 0.1049
899.30 0.1048
899.40 0.1048
899.50 0.1048
899.60 0.1047
899.70 0.1047
899.80 0.1046
899.90 0.1046
900.00 0.1045
900.10 0.1045
900.20 0.1044
900.30 0.1044
900.40 0.1044
900.50 0.1043
900.60 0.1043
900.70 0.1042
900.80 0.1042
900.90 0.1041
901.00 0.1041
901.10 0.104
901.20 0.104
901.30 0.1039
901.40 0.1039
901.50 0.1039
901.60 0.1038
901.70 0.1038
901.80 0.1037
901.90 0.1037
902.00 0.1036
902.10 0.1036
902.20 0.1035
902.30 0.1035
902.40 0.1035
902.50 0.1034
902.60 0.1034
902.70 0.1033
902.80 0.1033
902.90 0.1032
903.00 0.1032
903.10 0.1032
903.20 0.1031
903.30 0.1031
903.40 0.103
903.50 0.103
903.60 0.1029
903.70 0.1029
903.80 0.1028
903.90 0.1028
904.00 0.1028
904.10 0.1027
904.20 0.1027
904.30 0.1026
904.40 0.1026
904.50 0.1025
904.60 0.1025
904.70 0.1025
904.80 0.1024
904.90 0.1024
905.00 0.1023
905.10 0.1023
905.20 0.1022
905.30 0.1022
905.40 0.1021
905.50 0.1021
905.60 0.1021
905.70 0.102
905.80 0.102
905.90 0.1019
906.00 0.1019
906.10 0.1018
906.20 0.1018
906.30 0.1018
906.40 0.1017
906.50 0.1017
906.60 0.1016
906.70 0.1016
906.80 0.1015
906.90 0.1015
907.00 0.1015
907.10 0.1014
907.20 0.1014
907.30 0.1013
907.40 0.1013
907.50 0.1012
907.60 0.1012
907.70 0.1011
907.80 0.1011
907.90 0.1011
908.00 0.101
908.10 0.101
908.20 0.1009
908.30 0.1009
908.40 0.1008
908.50 0.1008
908.60 0.1008
908.70 0.1007
908.80 0.1007
908.90 0.1006
909.00 0.1006
909.10 0.1006
909.20 0.1005
909.30 0.1005
909.40 0.1004
909.50 0.1004
909.60 0.1003
909.70 0.1003
909.80 0.1003
909.90 0.1002
910.00 0.1002
910.10 0.1001
910.20 0.1001
910.30 0.1
910.40 0.1
910.50 0.09995
910.60 0.09991
910.70 0.09987
910.80 0.09983
910.90 0.09978
911.00 0.09974
911.10 0.0997
911.20 0.09966
911.30 0.09961
911.40 0.09957
911.50 0.09953
911.60 0.09949
911.70 0.09945
911.80 0.0994
911.90 0.09936
912.00 0.09932
912.10 0.09928
912.20 0.09923
912.30 0.09919
912.40 0.09915
912.50 0.09911
912.60 0.09907
912.70 0.09902
912.80 0.09898
912.90 0.09894
913.00 0.0989
913.10 0.09886
913.20 0.09881
913.30 0.09877
913.40 0.09873
913.50 0.09869
913.60 0.09865
913.70 0.0986
913.80 0.09856
913.90 0.09852
914.00 0.09848
914.10 0.09844
914.20 0.0984
914.30 0.09835
914.40 0.09831
914.50 0.09827
914.60 0.09823
914.70 0.09819
914.80 0.09815
914.90 0.0981
915.00 0.09806
915.10 0.09802
915.20 0.09798
915.30 0.09794
915.40 0.0979
915.50 0.09785
915.60 0.09781
915.70 0.09777
915.80 0.09773
915.90 0.09769
916.00 0.09765
916.10 0.0976
916.20 0.09756
916.30 0.09752
916.40 0.09748
916.50 0.09744
916.60 0.0974
916.70 0.09736
916.80 0.09731
916.90 0.09727
917.00 0.09723
917.10 0.09719
917.20 0.09715
917.30 0.09711
917.40 0.09707
917.50 0.09703
917.60 0.09699
917.70 0.09695
917.80 0.09691
917.90 0.09686
918.00 0.09682
918.10 0.09678
918.20 0.09674
918.30 0.0967
918.40 0.09666
918.50 0.09662
918.60 0.09658
918.70 0.09654
918.80 0.0965
918.90 0.09646
919.00 0.09642
919.10 0.09638
919.20 0.09634
919.30 0.0963
919.40 0.09626
919.50 0.09622
919.60 0.09618
919.70 0.09614
919.80 0.09609
919.90 0.09605
920.00 0.09601
920.10 0.09597
920.20 0.09593
920.30 0.09589
920.40 0.09585
920.50 0.09581
920.60 0.09577
920.70 0.09573
920.80 0.09569
920.90 0.09565
921.00 0.09561
921.10 0.09557
921.20 0.09553
921.30 0.09549
921.40 0.09545
921.50 0.09541
921.60 0.09537
921.70 0.09533
921.80 0.09529
921.90 0.09525
922.00 0.09521
922.10 0.09517
922.20 0.09513
922.30 0.09509
922.40 0.09505
922.50 0.09501
922.60 0.09497
922.70 0.09493
922.80 0.0949
922.90 0.09486
923.00 0.09482
923.10 0.09478
923.20 0.09474
923.30 0.0947
923.40 0.09466
923.50 0.09462
923.60 0.09458
923.70 0.09454
923.80 0.0945
923.90 0.09446
924.00 0.09443
924.10 0.09439
924.20 0.09435
924.30 0.09431
924.40 0.09427
924.50 0.09423
924.60 0.09419
924.70 0.09415
924.80 0.09411
924.90 0.09407
925.00 0.09404
925.10 0.094
925.20 0.09396
925.30 0.09392
925.40 0.09388
925.50 0.09384
925.60 0.0938
925.70 0.09376
925.80 0.09372
925.90 0.09369
926.00 0.09365
926.10 0.09361
926.20 0.09357
926.30 0.09353
926.40 0.09349
926.50 0.09345
926.60 0.09341
926.70 0.09338
926.80 0.09334
926.90 0.0933
927.00 0.09326
927.10 0.09322
927.20 0.09318
927.30 0.09315
927.40 0.09311
927.50 0.09307
927.60 0.09303
927.70 0.09299
927.80 0.09295
927.90 0.09292
928.00 0.09288
928.10 0.09284
928.20 0.0928
928.30 0.09277
928.40 0.09273
928.50 0.09269
928.60 0.09265
928.70 0.09261
928.80 0.09258
928.90 0.09254
929.00 0.0925
929.10 0.09246
929.20 0.09242
929.30 0.09239
929.40 0.09235
929.50 0.09231
929.60 0.09227
929.70 0.09224
929.80 0.0922
929.90 0.09216
930.00 0.09212
930.10 0.09208
930.20 0.09205
930.30 0.09201
930.40 0.09197
930.50 0.09193
930.60 0.0919
930.70 0.09186
930.80 0.09182
930.90 0.09178
931.00 0.09175
931.10 0.09171
931.20 0.09167
931.30 0.09163
931.40 0.0916
931.50 0.09156
931.60 0.09152
931.70 0.09148
931.80 0.09145
931.90 0.09141
932.00 0.09137
932.10 0.09133
932.20 0.0913
932.30 0.09126
932.40 0.09122
932.50 0.09118
932.60 0.09115
932.70 0.09111
932.80 0.09107
932.90 0.09103
933.00 0.091
933.10 0.09096
933.20 0.09092
933.30 0.09088
933.40 0.09085
933.50 0.09081
933.60 0.09077
933.70 0.09073
933.80 0.0907
933.90 0.09066
934.00 0.09062
934.10 0.09059
934.20 0.09055
934.30 0.09051
934.40 0.09047
934.50 0.09044
934.60 0.0904
934.70 0.09036
934.80 0.09032
934.90 0.09029
935.00 0.09025
935.10 0.09021
935.20 0.09017
935.30 0.09014
935.40 0.0901
935.50 0.09006
935.60 0.09002
935.70 0.08999
935.80 0.08995
935.90 0.08991
936.00 0.08988
936.10 0.08984
936.20 0.0898
936.30 0.08976
936.40 0.08973
936.50 0.08969
936.60 0.08965
936.70 0.08962
936.80 0.08958
936.90 0.08954
937.00 0.0895
937.10 0.08947
937.20 0.08943
937.30 0.08939
937.40 0.08935
937.50 0.08932
937.60 0.08928
937.70 0.08924
937.80 0.08921
937.90 0.08917
938.00 0.08913
938.10 0.08909
938.20 0.08906
938.30 0.08902
938.40 0.08898
938.50 0.08895
938.60 0.08891
938.70 0.08887
938.80 0.08883
938.90 0.0888
939.00 0.08876
939.10 0.08872
939.20 0.08868
939.30 0.08865
939.40 0.08861
939.50 0.08857
939.60 0.08854
939.70 0.0885
939.80 0.08846
939.90 0.08842
940.00 0.08839
940.10 0.08835
940.20 0.08831
940.30 0.08828
940.40 0.08824
940.50 0.0882
940.60 0.08816
940.70 0.08813
940.80 0.08809
940.90 0.08805
941.00 0.08802
941.10 0.08798
941.20 0.08794
941.30 0.0879
941.40 0.08787
941.50 0.08783
941.60 0.08779
941.70 0.08776
941.80 0.08772
941.90 0.08768
942.00 0.08765
942.10 0.08761
942.20 0.08757
942.30 0.08753
942.40 0.0875
942.50 0.08746
942.60 0.08742
942.70 0.08738
942.80 0.08735
942.90 0.08731
943.00 0.08727
943.10 0.08724
943.20 0.0872
943.30 0.08716
943.40 0.08713
943.50 0.08709
943.60 0.08705
943.70 0.08701
943.80 0.08698
943.90 0.08694
944.00 0.0869
944.10 0.08687
944.20 0.08683
944.30 0.08679
944.40 0.08676
944.50 0.08672
944.60 0.08668
944.70 0.08664
944.80 0.08661
944.90 0.08657
945.00 0.08653
945.10 0.0865
945.20 0.08646
945.30 0.08642
945.40 0.08639
945.50 0.08635
945.60 0.08631
945.70 0.08627
945.80 0.08624
945.90 0.0862
946.00 0.08616
946.10 0.08613
946.20 0.08609
946.30 0.08605
946.40 0.08602
946.50 0.08598
946.60 0.08594
946.70 0.08591
946.80 0.08587
946.90 0.08583
947.00 0.08579
947.10 0.08576
947.20 0.08572
947.30 0.08568
947.40 0.08565
947.50 0.08561
947.60 0.08557
947.70 0.08554
947.80 0.0855
947.90 0.08546
948.00 0.08543
948.10 0.08539
948.20 0.08535
948.30 0.08532
948.40 0.08528
948.50 0.08524
948.60 0.08521
948.70 0.08517
948.80 0.08513
948.90 0.0851
949.00 0.08506
949.10 0.08502
949.20 0.08499
949.30 0.08495
949.40 0.08491
949.50 0.08488
949.60 0.08484
949.70 0.08481
949.80 0.08477
949.90 0.08473
950.00 0.0847
950.10 0.08466
950.20 0.08463
950.30 0.08459
950.40 0.08455
950.50 0.08452
950.60 0.08448
950.70 0.08444
950.80 0.08441
950.90 0.08437
951.00 0.08434
951.10 0.0843
951.20 0.08426
951.30 0.08423
951.40 0.08419
951.50 0.08416
951.60 0.08412
951.70 0.08409
951.80 0.08405
951.90 0.08401
952.00 0.08398
952.10 0.08394
952.20 0.08391
952.30 0.08387
952.40 0.08384
952.50 0.0838
952.60 0.08377
952.70 0.08373
952.80 0.0837
952.90 0.08366
953.00 0.08363
953.10 0.0836
953.20 0.08356
953.30 0.08353
953.40 0.08349
953.50 0.08346
953.60 0.08342
953.70 0.08339
953.80 0.08336
953.90 0.08332
954.00 0.08329
954.10 0.08326
954.20 0.08322
954.30 0.08319
954.40 0.08316
954.50 0.08313
954.60 0.08309
954.70 0.08306
954.80 0.08303
954.90 0.08299
955.00 0.08296
955.10 0.08292
955.20 0.08289
955.30 0.08286
955.40 0.08283
955.50 0.08279
955.60 0.08276
955.70 0.08273
955.80 0.08269
955.90 0.08266
956.00 0.08263
956.10 0.0826
956.20 0.08257
956.30 0.08254
956.40 0.0825
956.50 0.08247
956.60 0.08244
956.70 0.08241
956.80 0.08238
956.90 0.08235
957.00 0.08231
957.10 0.08228
957.20 0.08225
957.30 0.08222
957.40 0.08219
957.50 0.08216
957.60 0.08213
957.70 0.0821
957.80 0.08207
957.90 0.08204
958.00 0.082
958.10 0.08197
958.20 0.08194
958.30 0.08191
958.40 0.08188
958.50 0.08185
958.60 0.08182
958.70 0.08179
958.80 0.08176
958.90 0.08173
959.00 0.0817
959.10 0.08167
959.20 0.08164
959.30 0.08161
959.40 0.08158
959.50 0.08155
959.60 0.08152
959.70 0.08148
959.80 0.08145
959.90 0.08142
960.00 0.08139
960.10 0.08136
960.20 0.08133
960.30 0.0813
960.40 0.08127
960.50 0.08124
960.60 0.08121
960.70 0.08118
960.80 0.08115
960.90 0.08112
961.00 0.08109
961.10 0.08106
961.20 0.08103
961.30 0.081
961.40 0.08097
961.50 0.08094
961.60 0.08091
961.70 0.08088
961.80 0.08085
961.90 0.08082
962.00 0.08079
962.10 0.08076
962.20 0.08073
962.30 0.0807
962.40 0.08067
962.50 0.08064
962.60 0.08061
962.70 0.08058
962.80 0.08055
962.90 0.08052
963.00 0.08049
963.10 0.08046
963.20 0.08043
963.30 0.0804
963.40 0.08037
963.50 0.08034
963.60 0.08031
963.70 0.08028
963.80 0.08025
963.90 0.08022
964.00 0.08019
964.10 0.08016
964.20 0.08013
964.30 0.0801
964.40 0.08007
964.50 0.08004
964.60 0.08001
964.70 0.07998
964.80 0.07995
964.90 0.07992
965.00 0.07989
965.10 0.07986
965.20 0.07983
965.30 0.0798
965.40 0.07977
965.50 0.07974
965.60 0.07971
965.70 0.07968
965.80 0.07965
965.90 0.07962
966.00 0.07959
966.10 0.07956
966.20 0.07953
966.30 0.0795
966.40 0.07947
966.50 0.07944
966.60 0.07941
966.70 0.07938
966.80 0.07935
966.90 0.07932
967.00 0.07929
967.10 0.07926
967.20 0.07923
967.30 0.0792
967.40 0.07917
967.50 0.07914
967.60 0.07911
967.70 0.07908
967.80 0.07905
967.90 0.07902
968.00 0.07899
968.10 0.07896
968.20 0.07893
968.30 0.0789
968.40 0.07887
968.50 0.07884
968.60 0.07881
968.70 0.07878
968.80 0.07875
968.90 0.07872
969.00 0.07869
969.10 0.07866
969.20 0.07863
969.30 0.0786
969.40 0.07857
969.50 0.07854
969.60 0.07851
969.70 0.07848
969.80 0.07845
969.90 0.07842
970.00 0.07839
970.10 0.07836
970.20 0.07833
970.30 0.0783
970.40 0.07827
970.50 0.07824
970.60 0.07821
970.70 0.07817
970.80 0.07814
970.90 0.07811
971.00 0.07808
971.10 0.07805
971.20 0.07802
971.30 0.07799
971.40 0.07796
971.50 0.07793
971.60 0.0779
971.70 0.07787
971.80 0.07784
971.90 0.07781
972.00 0.07778
972.10 0.07775
972.20 0.07772
972.30 0.07769
972.40 0.07766
972.50 0.07763
972.60 0.0776
972.70 0.07757
972.80 0.07754
972.90 0.07751
973.00 0.07748
973.10 0.07745
973.20 0.07742
973.30 0.07739
973.40 0.07736
973.50 0.07733
973.60 0.0773
973.70 0.07727
973.80 0.07724
973.90 0.07721
974.00 0.07718
974.10 0.07715
974.20 0.07712
974.30 0.07709
974.40 0.07706
974.50 0.07702
974.60 0.07699
974.70 0.07696
974.80 0.07693
974.90 0.0769
975.00 0.07687
975.10 0.07684
975.20 0.07681
975.30 0.07678
975.40 0.07675
975.50 0.07672
975.60 0.07669
975.70 0.07666
975.80 0.07663
975.90 0.0766
976.00 0.07657
976.10 0.07654
976.20 0.07651
976.30 0.07648
976.40 0.07645
976.50 0.07642
976.60 0.07639
976.70 0.07636
976.80 0.07633
976.90 0.0763
977.00 0.07627
977.10 0.07623
977.20 0.0762
977.30 0.07617
977.40 0.07614
977.50 0.07611
977.60 0.07608
977.70 0.07605
977.80 0.07602
977.90 0.07599
978.00 0.07596
978.10 0.07593
978.20 0.0759
978.30 0.07587
978.40 0.07583
978.50 0.0758
978.60 0.07577
978.70 0.07574
978.80 0.07571
978.90 0.07568
979.00 0.07565
979.10 0.07562
979.20 0.07559
979.30 0.07556
979.40 0.07553
979.50 0.0755
979.60 0.07547
979.70 0.07544
979.80 0.07541
979.90 0.07538
980.00 0.07534
980.10 0.07531
980.20 0.07528
980.30 0.07525
980.40 0.07522
980.50 0.07519
980.60 0.07516
980.70 0.07513
980.80 0.0751
980.90 0.07507
981.00 0.07504
981.10 0.07501
981.20 0.07498
981.30 0.07495
981.40 0.07492
981.50 0.07489
981.60 0.07486
981.70 0.07483
981.80 0.0748
981.90 0.07477
982.00 0.07474
982.10 0.07471
982.20 0.07467
982.30 0.07464
982.40 0.07461
982.50 0.07458
982.60 0.07455
982.70 0.07452
982.80 0.07449
982.90 0.07446
983.00 0.07443
983.10 0.0744
983.20 0.07437
983.30 0.07433
983.40 0.0743
983.50 0.07427
983.60 0.07424
983.70 0.07421
983.80 0.07418
983.90 0.07415
984.00 0.07412
984.10 0.07409
984.20 0.07406
984.30 0.07403
984.40 0.074
984.50 0.07396
984.60 0.07393
984.70 0.0739
984.80 0.07387
984.90 0.07384
985.00 0.07381
985.10 0.07378
985.20 0.07375
985.30 0.07372
985.40 0.07368
985.50 0.07365
985.60 0.07362
985.70 0.07359
985.80 0.07356
985.90 0.07353
986.00 0.0735
986.10 0.07347
986.20 0.07344
986.30 0.0734
986.40 0.07337
986.50 0.07334
986.60 0.07331
986.70 0.07328
986.80 0.07325
986.90 0.07322
987.00 0.07319
987.10 0.07316
987.20 0.07312
987.30 0.07309
987.40 0.07306
987.50 0.07303
987.60 0.073
987.70 0.07297
987.80 0.07294
987.90 0.0729
988.00 0.07287
988.10 0.07284
988.20 0.07281
988.30 0.07278
988.40 0.07275
988.50 0.07272
988.60 0.07269
988.70 0.07265
988.80 0.07262
988.90 0.07259
989.00 0.07256
989.10 0.07253
989.20 0.0725
989.30 0.07246
989.40 0.07243
989.50 0.0724
989.60 0.07237
989.70 0.07234
989.80 0.07231
989.90 0.07227
990.00 0.07224
990.10 0.07221
990.20 0.07218
990.30 0.07215
990.40 0.07212
990.50 0.07208
990.60 0.07205
990.70 0.07202
990.80 0.07199
990.90 0.07196
991.00 0.07192
991.10 0.07189
991.20 0.07186
991.30 0.07183
991.40 0.0718
991.50 0.07176
991.60 0.07173
991.70 0.0717
991.80 0.07167
991.90 0.07164
992.00 0.07161
992.10 0.07157
992.20 0.07154
992.30 0.07151
992.40 0.07148
992.50 0.07144
992.60 0.07141
992.70 0.07138
992.80 0.07135
992.90 0.07131
993.00 0.07128
993.10 0.07125
993.20 0.07122
993.30 0.07118
993.40 0.07115
993.50 0.07112
993.60 0.07109
993.70 0.07105
993.80 0.07102
993.90 0.07099
994.00 0.07096
994.10 0.07093
994.20 0.07089
994.30 0.07086
994.40 0.07083
994.50 0.0708
994.60 0.07076
994.70 0.07073
994.80 0.0707
994.90 0.07067
995.00 0.07063
995.10 0.0706
995.20 0.07057
995.30 0.07053
995.40 0.0705
995.50 0.07047
995.60 0.07044
995.70 0.0704
995.80 0.07037
995.90 0.07034
996.00 0.0703
996.10 0.07027
996.20 0.07024
996.30 0.07021
996.40 0.07017
996.50 0.07014
996.60 0.07011
996.70 0.07007
996.80 0.07004
996.90 0.07001
997.00 0.06997
997.10 0.06994
997.20 0.06991
997.30 0.06988
997.40 0.06984
997.50 0.06981
997.60 0.06978
997.70 0.06974
997.80 0.06971
997.90 0.06968
998.00 0.06964
998.10 0.06961
998.20 0.06958
998.30 0.06954
998.40 0.06951
998.50 0.06948
998.60 0.06944
998.70 0.06941
998.80 0.06938
998.90 0.06934
999.00 0.06931
999.10 0.06928
999.20 0.06925
999.30 0.06921
999.40 0.06918
999.50 0.06915
999.60 0.06911
999.70 0.06908
999.80 0.06905
999.90 0.06901
1000.00 0.06898
1000.10 0.06895
1000.20 0.06891
1000.30 0.06888
1000.40 0.06885
1000.50 0.06881
1000.60 0.06878
1000.70 0.06874
1000.80 0.06871
1000.90 0.06868
1001.00 0.06864
1001.10 0.06861
1001.20 0.06858
1001.30 0.06854
1001.40 0.06851
1001.50 0.06848
1001.60 0.06844
1001.70 0.06841
1001.80 0.06838
1001.90 0.06835
1002.00 0.06832
1002.10 0.06829
1002.20 0.06826
1002.30 0.06823
1002.40 0.0682
1002.50 0.06817
1002.60 0.06814
1002.70 0.06811
1002.80 0.06808
1002.90 0.06806
1003.00 0.06803
1003.10 0.068
1003.20 0.06797
1003.30 0.06795
1003.40 0.06792
1003.50 0.06789
1003.60 0.06787
1003.70 0.06784
1003.80 0.06782
1003.90 0.0678
1004.00 0.06777
1004.10 0.06775
1004.20 0.06773
1004.30 0.06771
1004.40 0.06769
1004.50 0.06767
1004.60 0.06765
1004.70 0.06763
1004.80 0.06761
1004.90 0.06758
1005.00 0.06756
1005.10 0.06753
1005.20 0.0675
1005.30 0.06747
1005.40 0.06744
1005.50 0.06741
1005.60 0.06738
1005.70 0.06735
1005.80 0.06732
1005.90 0.06729
1006.00 0.06726
1006.10 0.06723
1006.20 0.0672
1006.30 0.06717
1006.40 0.06715
1006.50 0.06712
1006.60 0.0671
1006.70 0.06707
1006.80 0.06705
1006.90 0.06702
1007.00 0.067
1007.10 0.06698
1007.20 0.06696
1007.30 0.06693
1007.40 0.06691
1007.50 0.06689
1007.60 0.06687
1007.70 0.06685
1007.80 0.06683
1007.90 0.06681
1008.00 0.06679
1008.10 0.06677
1008.20 0.06675
1008.30 0.06673
1008.40 0.06671
1008.50 0.06669
1008.60 0.06667
1008.70 0.06665
1008.80 0.06663
1008.90 0.06661
1009.00 0.06659
1009.10 0.06657
1009.20 0.06655
1009.30 0.06653
1009.40 0.06651
1009.50 0.06649
1009.60 0.06647
1009.70 0.06645
1009.80 0.06643
1009.90 0.06641
1010.00 0.06639
1010.10 0.06637
1010.20 0.06635
1010.30 0.06633
1010.40 0.06631
1010.50 0.06629
1010.60 0.06628
1010.70 0.06626
1010.80 0.06624
1010.90 0.06622
1011.00 0.0662
1011.10 0.06618
1011.20 0.06616
1011.30 0.06614
1011.40 0.06612
1011.50 0.0661
1011.60 0.06609
1011.70 0.06607
1011.80 0.06605
1011.90 0.06603
1012.00 0.06601
1012.10 0.06599
1012.20 0.06597
1012.30 0.06595
1012.40 0.06593
1012.50 0.06591
1012.60 0.06589
1012.70 0.06587
1012.80 0.06585
1012.90 0.06584
1013.00 0.06582
1013.10 0.0658
1013.20 0.06578
1013.30 0.06576
1013.40 0.06574
1013.50 0.06572
1013.60 0.0657
1013.70 0.06568
1013.80 0.06566
1013.90 0.06564
1014.00 0.06562
1014.10 0.0656
1014.20 0.06558
1014.30 0.06556
1014.40 0.06554
1014.50 0.06552
1014.60 0.0655
1014.70 0.06548
1014.80 0.06546
1014.90 0.06544
1015.00 0.06542
1015.10 0.0654
1015.20 0.06538
1015.30 0.06536
1015.40 0.06534
1015.50 0.06532
1015.60 0.0653
1015.70 0.06528
1015.80 0.06526
1015.90 0.06524
1016.00 0.06522
1016.10 0.0652
1016.20 0.06518
1016.30 0.06516
1016.40 0.06514
1016.50 0.06512
1016.60 0.0651
1016.70 0.06508
1016.80 0.06506
1016.90 0.06504
1017.00 0.06502
1017.10 0.065
1017.20 0.06498
1017.30 0.06496
1017.40 0.06494
1017.50 0.06492
1017.60 0.0649
1017.70 0.06488
1017.80 0.06485
1017.90 0.06483
1018.00 0.06481
1018.10 0.06479
1018.20 0.06477
1018.30 0.06475
1018.40 0.06473
1018.50 0.06471
1018.60 0.06469
1018.70 0.06467
1018.80 0.06465
1018.90 0.06463
1019.00 0.06461
1019.10 0.06458
1019.20 0.06456
1019.30 0.06454
1019.40 0.06452
1019.50 0.0645
1019.60 0.06448
1019.70 0.06446
1019.80 0.06444
1019.90 0.06442
1020.00 0.06439
1020.10 0.06437
1020.20 0.06435
1020.30 0.06433
1020.40 0.06431
1020.50 0.06429
1020.60 0.06427
1020.70 0.06425
1020.80 0.06422
1020.90 0.0642
1021.00 0.06418
1021.10 0.06416
1021.20 0.06414
1021.30 0.06412
1021.40 0.0641
1021.50 0.06407
1021.60 0.06405
1021.70 0.06403
1021.80 0.06401
1021.90 0.06399
1022.00 0.06397
1022.10 0.06395
1022.20 0.06392
1022.30 0.0639
1022.40 0.06388
1022.50 0.06386
1022.60 0.06384
1022.70 0.06382
1022.80 0.06379
1022.90 0.06377
1023.00 0.06375
1023.10 0.06373
1023.20 0.06371
1023.30 0.06368
1023.40 0.06366
1023.50 0.06364
1023.60 0.06362
1023.70 0.0636
1023.80 0.06358
1023.90 0.06355
1024.00 0.06353
1024.10 0.06351
1024.20 0.06349
1024.30 0.06347
1024.40 0.06345
1024.50 0.06342
1024.60 0.0634
1024.70 0.06338
1024.80 0.06336
1024.90 0.06334
1025.00 0.06331
1025.10 0.06329
1025.20 0.06327
1025.30 0.06325
1025.40 0.06323
1025.50 0.0632
1025.60 0.06318
1025.70 0.06316
1025.80 0.06314
1025.90 0.06312
1026.00 0.06309
1026.10 0.06307
1026.20 0.06305
1026.30 0.06303
1026.40 0.06301
1026.50 0.06299
1026.60 0.06296
1026.70 0.06294
1026.80 0.06292
1026.90 0.0629
1027.00 0.06288
1027.10 0.06285
1027.20 0.06283
1027.30 0.06281
1027.40 0.06279
1027.50 0.06276
1027.60 0.06274
1027.70 0.06272
1027.80 0.0627
1027.90 0.06267
1028.00 0.06265
1028.10 0.06263
1028.20 0.06261
1028.30 0.06259
1028.40 0.06256
1028.50 0.06254
1028.60 0.06252
1028.70 0.0625
1028.80 0.06247
1028.90 0.06245
1029.00 0.06243
1029.10 0.06241
1029.20 0.06238
1029.30 0.06236
1029.40 0.06234
1029.50 0.06232
1029.60 0.0623
1029.70 0.06227
1029.80 0.06225
1029.90 0.06223
1030.00 0.06221
1030.10 0.06219
1030.20 0.06216
1030.30 0.06214
1030.40 0.06212
1030.50 0.0621
1030.60 0.06207
1030.70 0.06205
1030.80 0.06203
1030.90 0.06201
1031.00 0.06199
1031.10 0.06196
1031.20 0.06194
1031.30 0.06192
1031.40 0.0619
1031.50 0.06188
1031.60 0.06185
1031.70 0.06183
1031.80 0.06181
1031.90 0.06179
1032.00 0.06177
1032.10 0.06174
1032.20 0.06172
1032.30 0.0617
1032.40 0.06168
1032.50 0.06165
1032.60 0.06163
1032.70 0.06161
1032.80 0.06159
1032.90 0.06156
1033.00 0.06154
1033.10 0.06152
1033.20 0.0615
1033.30 0.06147
1033.40 0.06145
1033.50 0.06143
1033.60 0.06141
1033.70 0.06139
1033.80 0.06136
1033.90 0.06134
1034.00 0.06132
1034.10 0.0613
1034.20 0.06127
1034.30 0.06125
1034.40 0.06123
1034.50 0.06121
1034.60 0.06118
1034.70 0.06116
1034.80 0.06114
1034.90 0.06112
1035.00 0.0611
1035.10 0.06107
1035.20 0.06105
1035.30 0.06103
1035.40 0.06101
1035.50 0.06099
1035.60 0.06096
1035.70 0.06094
1035.80 0.06092
1035.90 0.0609
1036.00 0.06087
1036.10 0.06085
1036.20 0.06083
1036.30 0.06081
1036.40 0.06079
1036.50 0.06076
1036.60 0.06074
1036.70 0.06072
1036.80 0.0607
1036.90 0.06068
1037.00 0.06065
1037.10 0.06063
1037.20 0.06061
1037.30 0.06059
1037.40 0.06056
1037.50 0.06054
1037.60 0.06052
1037.70 0.0605
1037.80 0.06048
1037.90 0.06045
1038.00 0.06043
1038.10 0.06041
1038.20 0.06039
1038.30 0.06036
1038.40 0.06034
1038.50 0.06032
1038.60 0.0603
1038.70 0.06028
1038.80 0.06025
1038.90 0.06023
1039.00 0.06021
1039.10 0.06019
1039.20 0.06016
1039.30 0.06014
1039.40 0.06012
1039.50 0.0601
1039.60 0.06008
1039.70 0.06005
1039.80 0.06003
1039.90 0.06001
1040.00 0.05999
1040.10 0.05997
1040.20 0.05994
1040.30 0.05992
1040.40 0.0599
1040.50 0.05988
1040.60 0.05986
1040.70 0.05983
1040.80 0.05981
1040.90 0.05979
1041.00 0.05977
1041.10 0.05975
1041.20 0.05972
1041.30 0.0597
1041.40 0.05968
1041.50 0.05966
1041.60 0.05964
1041.70 0.05961
1041.80 0.05959
1041.90 0.05957
1042.00 0.05955
1042.10 0.05953
1042.20 0.0595
1042.30 0.05948
1042.40 0.05946
1042.50 0.05944
1042.60 0.05942
1042.70 0.05939
1042.80 0.05937
1042.90 0.05935
1043.00 0.05933
1043.10 0.05931
1043.20 0.05928
1043.30 0.05926
1043.40 0.05924
1043.50 0.05922
1043.60 0.0592
1043.70 0.05917
1043.80 0.05915
1043.90 0.05913
1044.00 0.05911
1044.10 0.05909
1044.20 0.05906
1044.30 0.05904
1044.40 0.05902
1044.50 0.059
1044.60 0.05898
1044.70 0.05895
1044.80 0.05893
1044.90 0.05891
1045.00 0.05889
1045.10 0.05887
1045.20 0.05885
1045.30 0.05882
1045.40 0.0588
1045.50 0.05878
1045.60 0.05876
1045.70 0.05874
1045.80 0.05871
1045.90 0.05869
1046.00 0.05867
1046.10 0.05865
1046.20 0.05863
1046.30 0.05861
1046.40 0.05858
1046.50 0.05856
1046.60 0.05854
1046.70 0.05852
1046.80 0.0585
1046.90 0.05847
1047.00 0.05845
1047.10 0.05843
1047.20 0.05841
1047.30 0.05839
1047.40 0.05837
1047.50 0.05834
1047.60 0.05832
1047.70 0.0583
1047.80 0.05828
1047.90 0.05826
1048.00 0.05824
1048.10 0.05821
1048.20 0.05819
1048.30 0.05817
1048.40 0.05815
1048.50 0.05813
1048.60 0.05811
1048.70 0.05808
1048.80 0.05806
1048.90 0.05804
1049.00 0.05802
1049.10 0.058
1049.20 0.05797
1049.30 0.05795
1049.40 0.05793
1049.50 0.05791
1049.60 0.05789
1049.70 0.05787
1049.80 0.05785
1049.90 0.05782
1050.00 0.0578
1050.10 0.05778
1050.20 0.05776
1050.30 0.05774
1050.40 0.05772
1050.50 0.05769
1050.60 0.05767
1050.70 0.05765
1050.80 0.05763
1050.90 0.05761
1051.00 0.05759
1051.10 0.05756
1051.20 0.05754
1051.30 0.05752
1051.40 0.0575
1051.50 0.05748
1051.60 0.05746
1051.70 0.05744
1051.80 0.05741
1051.90 0.05739
1052.00 0.05737
1052.10 0.05735
1052.20 0.05733
1052.30 0.05731
1052.40 0.05728
1052.50 0.05726
1052.60 0.05724
1052.70 0.05722
1052.80 0.0572
1052.90 0.05718
1053.00 0.05716
1053.10 0.05713
1053.20 0.05711
1053.30 0.05709
1053.40 0.05707
1053.50 0.05705
1053.60 0.05703
1053.70 0.05701
1053.80 0.05698
1053.90 0.05696
1054.00 0.05694
1054.10 0.05692
1054.20 0.0569
1054.30 0.05688
1054.40 0.05686
1054.50 0.05683
1054.60 0.05681
1054.70 0.05679
1054.80 0.05677
1054.90 0.05675
1055.00 0.05673
1055.10 0.05671
1055.20 0.05668
1055.30 0.05666
1055.40 0.05664
1055.50 0.05662
1055.60 0.0566
1055.70 0.05658
1055.80 0.05656
1055.90 0.05653
1056.00 0.05651
1056.10 0.05649
1056.20 0.05647
1056.30 0.05645
1056.40 0.05643
1056.50 0.05641
1056.60 0.05639
1056.70 0.05636
1056.80 0.05634
1056.90 0.05632
1057.00 0.0563
1057.10 0.05628
1057.20 0.05626
1057.30 0.05624
1057.40 0.05622
1057.50 0.05619
1057.60 0.05617
1057.70 0.05615
1057.80 0.05613
1057.90 0.05611
1058.00 0.05609
1058.10 0.05607
1058.20 0.05604
1058.30 0.05602
1058.40 0.056
1058.50 0.05598
1058.60 0.05596
1058.70 0.05594
1058.80 0.05592
1058.90 0.05589
1059.00 0.05587
1059.10 0.05585
1059.20 0.05583
1059.30 0.05581
1059.40 0.05579
1059.50 0.05577
1059.60 0.05575
1059.70 0.05572
1059.80 0.0557
1059.90 0.05568
1060.00 0.05566
1060.10 0.05564
1060.20 0.05562
1060.30 0.0556
1060.40 0.05558
1060.50 0.05555
1060.60 0.05553
1060.70 0.05551
1060.80 0.05549
1060.90 0.05547
1061.00 0.05545
1061.10 0.05543
1061.20 0.05541
1061.30 0.05539
1061.40 0.05536
1061.50 0.05534
1061.60 0.05532
1061.70 0.0553
1061.80 0.05528
1061.90 0.05526
1062.00 0.05524
1062.10 0.05522
1062.20 0.0552
1062.30 0.05517
1062.40 0.05515
1062.50 0.05513
1062.60 0.05511
1062.70 0.05509
1062.80 0.05507
1062.90 0.05505
1063.00 0.05502
1063.10 0.055
1063.20 0.05498
1063.30 0.05496
1063.40 0.05494
1063.50 0.05492
1063.60 0.0549
1063.70 0.05487
1063.80 0.05485
1063.90 0.05483
1064.00 0.05481
1064.10 0.05479
1064.20 0.05477
1064.30 0.05475
1064.40 0.05473
1064.50 0.0547
1064.60 0.05468
1064.70 0.05466
1064.80 0.05464
1064.90 0.05462
1065.00 0.0546
1065.10 0.05458
1065.20 0.05456
1065.30 0.05453
1065.40 0.05451
1065.50 0.05449
1065.60 0.05447
1065.70 0.05445
1065.80 0.05443
1065.90 0.05441
1066.00 0.05439
1066.10 0.05436
1066.20 0.05434
1066.30 0.05432
1066.40 0.0543
1066.50 0.05428
1066.60 0.05426
1066.70 0.05424
1066.80 0.05422
1066.90 0.0542
1067.00 0.05417
1067.10 0.05415
1067.20 0.05413
1067.30 0.05411
1067.40 0.05409
1067.50 0.05407
1067.60 0.05404
1067.70 0.05402
1067.80 0.054
1067.90 0.05398
1068.00 0.05396
1068.10 0.05394
1068.20 0.05391
1068.30 0.05389
1068.40 0.05387
1068.50 0.05385
1068.60 0.05383
1068.70 0.05381
1068.80 0.05378
1068.90 0.05376
1069.00 0.05374
1069.10 0.05372
1069.20 0.0537
1069.30 0.05368
1069.40 0.05366
1069.50 0.05363
1069.60 0.05361
1069.70 0.05359
1069.80 0.05357
1069.90 0.05355
1070.00 0.05353
1070.10 0.0535
1070.20 0.05348
1070.30 0.05346
1070.40 0.05344
1070.50 0.05342
1070.60 0.0534
1070.70 0.05338
1070.80 0.05335
1070.90 0.05333
1071.00 0.05331
1071.10 0.05329
1071.20 0.05327
1071.30 0.05325
1071.40 0.05323
1071.50 0.0532
1071.60 0.05318
1071.70 0.05316
1071.80 0.05314
1071.90 0.05312
1072.00 0.0531
1072.10 0.05308
1072.20 0.05305
1072.30 0.05303
1072.40 0.05301
1072.50 0.05299
1072.60 0.05297
1072.70 0.05294
1072.80 0.05292
1072.90 0.0529
1073.00 0.05288
1073.10 0.05286
1073.20 0.05283
1073.30 0.05281
1073.40 0.05279
1073.50 0.05277
1073.60 0.05275
1073.70 0.05272
1073.80 0.0527
1073.90 0.05268
1074.00 0.05266
1074.10 0.05263
1074.20 0.05261
1074.30 0.05259
1074.40 0.05257
1074.50 0.05254
1074.60 0.05252
1074.70 0.0525
1074.80 0.05248
1074.90 0.05245
1075.00 0.05243
1075.10 0.05241
1075.20 0.05239
1075.30 0.05236
1075.40 0.05234
1075.50 0.05232
1075.60 0.0523
1075.70 0.05227
1075.80 0.05225
1075.90 0.05223
1076.00 0.05221
1076.10 0.05218
1076.20 0.05216
1076.30 0.05214
1076.40 0.05212
1076.50 0.05209
1076.60 0.05207
1076.70 0.05205
1076.80 0.05203
1076.90 0.05201
1077.00 0.05198
1077.10 0.05196
1077.20 0.05194
1077.30 0.05191
1077.40 0.05189
1077.50 0.05187
1077.60 0.05184
1077.70 0.05182
1077.80 0.0518
1077.90 0.05177
1078.00 0.05175
1078.10 0.05173
1078.20 0.0517
1078.30 0.05168
1078.40 0.05166
1078.50 0.05163
1078.60 0.05161
1078.70 0.05159
1078.80 0.05156
1078.90 0.05154
1079.00 0.05152
1079.10 0.05149
1079.20 0.05147
1079.30 0.05145
1079.40 0.05142
1079.50 0.0514
1079.60 0.05138
1079.70 0.05135
1079.80 0.05133
1079.90 0.0513
1080.00 0.05128
1080.10 0.05126
1080.20 0.05123
1080.30 0.05121
1080.40 0.05118
1080.50 0.05116
1080.60 0.05113
1080.70 0.05111
1080.80 0.05109
1080.90 0.05106
1081.00 0.05104
1081.10 0.05101
1081.20 0.05099
1081.30 0.05097
1081.40 0.05094
1081.50 0.05092
1081.60 0.05089
1081.70 0.05087
1081.80 0.05084
1081.90 0.05082
1082.00 0.05079
1082.10 0.05077
1082.20 0.05074
1082.30 0.05072
1082.40 0.05069
1082.50 0.05067
1082.60 0.05064
1082.70 0.05062
1082.80 0.05059
1082.90 0.05057
1083.00 0.05054
1083.10 0.05052
1083.20 0.05049
1083.30 0.05047
1083.40 0.05044
1083.50 0.05042
1083.60 0.05039
1083.70 0.05037
1083.80 0.05034
1083.90 0.05031
1084.00 0.05029
1084.10 0.05026
1084.20 0.05024
1084.30 0.05021
1084.40 0.05019
1084.50 0.05016
1084.60 0.05013
1084.70 0.05011
1084.80 0.05008
1084.90 0.05005
1085.00 0.05003
1085.10 0.05
1085.20 0.04997
1085.30 0.04995
1085.40 0.04992
1085.50 0.04989
1085.60 0.04987
1085.70 0.04984
1085.80 0.04982
1085.90 0.04979
1086.00 0.04976
1086.10 0.04974
1086.20 0.04971
1086.30 0.04968
1086.40 0.04966
1086.50 0.04963
1086.60 0.0496
1086.70 0.04958
1086.80 0.04955
1086.90 0.04952
1087.00 0.0495
1087.10 0.04947
1087.20 0.04944
1087.30 0.04941
1087.40 0.04939
1087.50 0.04936
1087.60 0.04933
1087.70 0.04931
1087.80 0.04928
1087.90 0.04925
1088.00 0.04922
1088.10 0.0492
1088.20 0.04917
1088.30 0.04914
1088.40 0.04911
1088.50 0.04909
1088.60 0.04906
1088.70 0.04903
1088.80 0.04901
1088.90 0.04898
1089.00 0.04895
1089.10 0.04892
1089.20 0.0489
1089.30 0.04887
1089.40 0.04884
1089.50 0.04881
1089.60 0.04879
1089.70 0.04876
1089.80 0.04873
1089.90 0.0487
1090.00 0.04868
1090.10 0.04865
1090.20 0.04862
1090.30 0.0486
1090.40 0.04857
1090.50 0.04854
1090.60 0.04851
1090.70 0.04849
1090.80 0.04846
1090.90 0.04843
1091.00 0.0484
1091.10 0.04838
1091.20 0.04835
1091.30 0.04832
1091.40 0.0483
1091.50 0.04827
1091.60 0.04824
1091.70 0.04821
1091.80 0.04819
1091.90 0.04816
1092.00 0.04813
1092.10 0.0481
1092.20 0.04808
1092.30 0.04805
1092.40 0.04802
1092.50 0.04799
1092.60 0.04796
1092.70 0.04794
1092.80 0.04791
1092.90 0.04788
1093.00 0.04785
1093.10 0.04782
1093.20 0.04779
1093.30 0.04776
1093.40 0.04774
1093.50 0.04771
1093.60 0.0477
1093.70 0.04769
1093.80 0.04768
1093.90 0.04767
1094.00 0.04765
1094.10 0.04763
1094.20 0.04761
1094.30 0.0476
1094.40 0.0476
1094.50 0.04759
1094.60 0.04759
1094.70 0.04758
1094.80 0.04758
1094.90 0.04757
1095.00 0.04757
1095.10 0.04756
1095.20 0.04756
1095.30 0.04755
1095.40 0.04754
1095.50 0.04754
1095.60 0.04753
1095.70 0.04753
1095.80 0.04752
1095.90 0.04751
1096.00 0.04751
1096.10 0.0475
1096.20 0.0475
1096.30 0.04749
1096.40 0.04748
1096.50 0.04748
1096.60 0.04747
1096.70 0.04746
1096.80 0.04746
1096.90 0.04745
1097.00 0.04745
1097.10 0.04744
1097.20 0.04743
1097.30 0.04742
1097.40 0.04742
1097.50 0.04741
1097.60 0.0474
1097.70 0.0474
1097.80 0.04739
1097.90 0.04738
1098.00 0.04738
1098.10 0.04737
1098.20 0.04736
1098.30 0.04736
1098.40 0.04735
1098.50 0.04734
1098.60 0.04734
1098.70 0.04733
1098.80 0.04732
1098.90 0.04732
1099.00 0.04731
1099.10 0.0473
1099.20 0.04729
1099.30 0.04729
1099.40 0.04728
1099.50 0.04727
1099.60 0.04727
1099.70 0.04726
1099.80 0.04725
1099.90 0.04725
1100.00 0.04724
1100.10 0.04723
1100.20 0.04722
1100.30 0.04722
1100.40 0.04721
1100.50 0.0472
1100.60 0.0472
1100.70 0.04719
1100.80 0.04718
1100.90 0.04717
1101.00 0.04716
1101.10 0.04716
1101.20 0.04715
1101.30 0.04714
1101.40 0.04713
1101.50 0.04712
1101.60 0.04712
1101.70 0.04711
1101.80 0.0471
1101.90 0.04709
1102.00 0.04709
1102.10 0.04708
1102.20 0.04707
1102.30 0.04706
1102.40 0.04705
1102.50 0.04704
1102.60 0.04703
1102.70 0.04703
1102.80 0.04702
1102.90 0.04701
1103.00 0.047
1103.10 0.04699
1103.20 0.04698
1103.30 0.04697
1103.40 0.04696
1103.50 0.04695
1103.60 0.04694
1103.70 0.04693
1103.80 0.04693
1103.90 0.04692
1104.00 0.04691
1104.10 0.0469
1104.20 0.04689
1104.30 0.04688
1104.40 0.04687
1104.50 0.04686
1104.60 0.04685
1104.70 0.04684
1104.80 0.04683
1104.90 0.04682
1105.00 0.04681
1105.10 0.0468
1105.20 0.04679
1105.30 0.04678
1105.40 0.04677
1105.50 0.04676
1105.60 0.04675
1105.70 0.04674
1105.80 0.04673
1105.90 0.04672
1106.00 0.04671
1106.10 0.04669
1106.20 0.04668
1106.30 0.04667
1106.40 0.04666
1106.50 0.04665
1106.60 0.04664
1106.70 0.04663
1106.80 0.04662
1106.90 0.04661
1107.00 0.0466
1107.10 0.04659
1107.20 0.04658
1107.30 0.04656
1107.40 0.04655
1107.50 0.04654
1107.60 0.04653
1107.70 0.04652
1107.80 0.04651
1107.90 0.04649
1108.00 0.04648
1108.10 0.04647
1108.20 0.04646
1108.30 0.04645
1108.40 0.04643
1108.50 0.04642
1108.60 0.04641
1108.70 0.0464
1108.80 0.04639
1108.90 0.04638
1109.00 0.04636
1109.10 0.04635
1109.20 0.04634
1109.30 0.04633
1109.40 0.04632
1109.50 0.0463
1109.60 0.04629
1109.70 0.04628
1109.80 0.04627
1109.90 0.04625
1110.00 0.04624
1110.10 0.04623
1110.20 0.04622
1110.30 0.0462
1110.40 0.04619
1110.50 0.04618
1110.60 0.04617
1110.70 0.04615
1110.80 0.04614
1110.90 0.04613
1111.00 0.04611
1111.10 0.0461
1111.20 0.04609
1111.30 0.04608
1111.40 0.04606
1111.50 0.04605
1111.60 0.04604
1111.70 0.04603
1111.80 0.04601
1111.90 0.046
1112.00 0.04599
1112.10 0.04598
1112.20 0.04596
1112.30 0.04595
1112.40 0.04594
1112.50 0.04592
1112.60 0.04591
1112.70 0.0459
1112.80 0.04588
1112.90 0.04587
1113.00 0.04586
1113.10 0.04584
1113.20 0.04583
1113.30 0.04582
1113.40 0.0458
1113.50 0.04579
1113.60 0.04578
1113.70 0.04576
1113.80 0.04575
1113.90 0.04573
1114.00 0.04572
1114.10 0.04571
1114.20 0.04569
1114.30 0.04568
1114.40 0.04567
1114.50 0.04565
1114.60 0.04564
1114.70 0.04562
1114.80 0.04561
1114.90 0.0456
1115.00 0.04558
1115.10 0.04557
1115.20 0.04555
1115.30 0.04554
1115.40 0.04553
1115.50 0.04551
1115.60 0.0455
1115.70 0.04549
1115.80 0.04547
1115.90 0.04546
1116.00 0.04544
1116.10 0.04543
1116.20 0.04542
1116.30 0.0454
1116.40 0.04539
1116.50 0.04538
1116.60 0.04536
1116.70 0.04535
1116.80 0.04534
1116.90 0.04532
1117.00 0.04531
1117.10 0.04529
1117.20 0.04528
1117.30 0.04526
1117.40 0.04525
1117.50 0.04524
1117.60 0.04522
1117.70 0.04521
1117.80 0.04519
1117.90 0.04518
1118.00 0.04516
1118.10 0.04515
1118.20 0.04514
1118.30 0.04512
1118.40 0.04511
1118.50 0.04509
1118.60 0.04508
1118.70 0.04506
1118.80 0.04505
1118.90 0.04504
1119.00 0.04502
1119.10 0.04501
1119.20 0.04499
1119.30 0.04498
1119.40 0.04496
1119.50 0.04495
1119.60 0.04494
1119.70 0.04492
1119.80 0.04491
1119.90 0.04489
1120.00 0.04488
1120.10 0.04486
1120.20 0.04485
1120.30 0.04484
1120.40 0.04482
1120.50 0.04481
1120.60 0.04479
1120.70 0.04478
1120.80 0.04476
1120.90 0.04475
1121.00 0.04474
1121.10 0.04472
1121.20 0.04471
1121.30 0.04469
1121.40 0.04468
1121.50 0.04466
1121.60 0.04465
1121.70 0.04464
1121.80 0.04462
1121.90 0.04461
1122.00 0.04459
1122.10 0.04458
1122.20 0.04456
1122.30 0.04455
1122.40 0.04454
1122.50 0.04452
1122.60 0.04451
1122.70 0.04449
1122.80 0.04448
1122.90 0.04446
1123.00 0.04445
1123.10 0.04443
1123.20 0.04442
1123.30 0.0444
1123.40 0.04439
1123.50 0.04437
1123.60 0.04436
1123.70 0.04435
1123.80 0.04433
1123.90 0.04432
1124.00 0.0443
1124.10 0.04429
1124.20 0.04427
1124.30 0.04426
1124.40 0.04424
1124.50 0.04423
1124.60 0.04421
1124.70 0.0442
1124.80 0.04419
1124.90 0.04417
1125.00 0.04416
1125.10 0.04414
1125.20 0.04413
1125.30 0.04411
1125.40 0.0441
1125.50 0.04408
1125.60 0.04407
1125.70 0.04406
1125.80 0.04404
1125.90 0.04403
1126.00 0.04401
1126.10 0.044
1126.20 0.04398
1126.30 0.04397
1126.40 0.04395
1126.50 0.04394
1126.60 0.04393
1126.70 0.04391
1126.80 0.0439
1126.90 0.04388
1127.00 0.04387
1127.10 0.04385
1127.20 0.04384
1127.30 0.04382
1127.40 0.04381
1127.50 0.04379
1127.60 0.04378
1127.70 0.04377
1127.80 0.04375
1127.90 0.04374
1128.00 0.04372
1128.10 0.04371
1128.20 0.04369
1128.30 0.04368
1128.40 0.04366
1128.50 0.04365
1128.60 0.04363
1128.70 0.04362
1128.80 0.04361
1128.90 0.04359
1129.00 0.04358
1129.10 0.04356
1129.20 0.04355
1129.30 0.04353
1129.40 0.04352
1129.50 0.0435
1129.60 0.04349
1129.70 0.04347
1129.80 0.04346
1129.90 0.04345
1130.00 0.04343
1130.10 0.04342
1130.20 0.0434
1130.30 0.04339
1130.40 0.04337
1130.50 0.04336
1130.60 0.04334
1130.70 0.04333
1130.80 0.04331
1130.90 0.0433
1131.00 0.04329
1131.10 0.04327
1131.20 0.04326
1131.30 0.04324
1131.40 0.04323
1131.50 0.04321
1131.60 0.0432
1131.70 0.04318
1131.80 0.04317
1131.90 0.04316
1132.00 0.04314
1132.10 0.04313
1132.20 0.04311
1132.30 0.0431
1132.40 0.04308
1132.50 0.04307
1132.60 0.04305
1132.70 0.04304
1132.80 0.04303
1132.90 0.04301
1133.00 0.043
1133.10 0.04298
1133.20 0.04297
1133.30 0.04295
1133.40 0.04294
1133.50 0.04292
1133.60 0.04291
1133.70 0.0429
1133.80 0.04288
1133.90 0.04287
1134.00 0.04285
1134.10 0.04284
1134.20 0.04282
1134.30 0.04281
1134.40 0.04279
1134.50 0.04278
1134.60 0.04277
1134.70 0.04275
1134.80 0.04274
1134.90 0.04272
1135.00 0.04271
1135.10 0.04269
1135.20 0.04268
1135.30 0.04266
1135.40 0.04265
1135.50 0.04264
1135.60 0.04262
1135.70 0.04261
1135.80 0.04259
1135.90 0.04258
1136.00 0.04256
1136.10 0.04255
1136.20 0.04254
1136.30 0.04252
1136.40 0.04251
1136.50 0.04249
1136.60 0.04248
1136.70 0.04246
1136.80 0.04245
1136.90 0.04244
1137.00 0.04242
1137.10 0.04241
1137.20 0.04239
1137.30 0.04238
1137.40 0.04236
1137.50 0.04235
1137.60 0.04234
1137.70 0.04232
1137.80 0.04231
1137.90 0.04229
1138.00 0.04228
1138.10 0.04226
1138.20 0.04225
1138.30 0.04224
1138.40 0.04222
1138.50 0.04221
1138.60 0.04219
1138.70 0.04218
1138.80 0.04216
1138.90 0.04215
1139.00 0.04214
1139.10 0.04212
1139.20 0.04211
1139.30 0.04209
1139.40 0.04208
1139.50 0.04206
1139.60 0.04205
1139.70 0.04204
1139.80 0.04202
1139.90 0.04201
1140.00 0.04199
1140.10 0.04198
1140.20 0.04197
1140.30 0.04195
1140.40 0.04194
1140.50 0.04192
1140.60 0.04191
1140.70 0.04189
1140.80 0.04188
1140.90 0.04187
1141.00 0.04185
1141.10 0.04184
1141.20 0.04182
1141.30 0.04181
1141.40 0.0418
1141.50 0.04178
1141.60 0.04177
1141.70 0.04175
1141.80 0.04174
1141.90 0.04172
1142.00 0.04171
1142.10 0.0417
1142.20 0.04168
1142.30 0.04167
1142.40 0.04165
1142.50 0.04164
1142.60 0.04163
1142.70 0.04161
1142.80 0.0416
1142.90 0.04158
1143.00 0.04157
1143.10 0.04156
1143.20 0.04154
1143.30 0.04153
1143.40 0.04151
1143.50 0.0415
1143.60 0.04149
1143.70 0.04147
1143.80 0.04146
1143.90 0.04144
1144.00 0.04143
1144.10 0.04142
1144.20 0.0414
1144.30 0.04139
1144.40 0.04137
1144.50 0.04136
1144.60 0.04135
1144.70 0.04133
1144.80 0.04132
1144.90 0.0413
1145.00 0.04129
1145.10 0.04128
1145.20 0.04126
1145.30 0.04125
1145.40 0.04123
1145.50 0.04122
1145.60 0.04121
1145.70 0.04119
1145.80 0.04118
1145.90 0.04116
1146.00 0.04115
1146.10 0.04114
1146.20 0.04112
1146.30 0.04111
1146.40 0.04109
1146.50 0.04108
1146.60 0.04107
1146.70 0.04105
1146.80 0.04104
1146.90 0.04103
1147.00 0.04101
1147.10 0.041
1147.20 0.04098
1147.30 0.04097
1147.40 0.04096
1147.50 0.04094
1147.60 0.04093
1147.70 0.04091
1147.80 0.0409
1147.90 0.04089
1148.00 0.04087
1148.10 0.04086
1148.20 0.04085
1148.30 0.04083
1148.40 0.04082
1148.50 0.0408
1148.60 0.04079
1148.70 0.04078
1148.80 0.04076
1148.90 0.04075
1149.00 0.04074
1149.10 0.04072
1149.20 0.04071
1149.30 0.04069
1149.40 0.04068
1149.50 0.04067
1149.60 0.04065
1149.70 0.04064
1149.80 0.04063
1149.90 0.04061
1150.00 0.0406
1150.10 0.04058
1150.20 0.04057
1150.30 0.04056
1150.40 0.04054
1150.50 0.04053
1150.60 0.04052
1150.70 0.0405
1150.80 0.04049
1150.90 0.04048
1151.00 0.04046
1151.10 0.04045
1151.20 0.04043
1151.30 0.04042
1151.40 0.04041
1151.50 0.04039
1151.60 0.04038
1151.70 0.04037
1151.80 0.04035
1151.90 0.04034
1152.00 0.04032
1152.10 0.04031
1152.20 0.0403
1152.30 0.04028
1152.40 0.04027
1152.50 0.04026
1152.60 0.04024
1152.70 0.04023
1152.80 0.04022
1152.90 0.0402
1153.00 0.04019
1153.10 0.04018
1153.20 0.04016
1153.30 0.04015
1153.40 0.04014
1153.50 0.04012
1153.60 0.04011
1153.70 0.04009
1153.80 0.04008
1153.90 0.04007
1154.00 0.04005
1154.10 0.04004
1154.20 0.04003
1154.30 0.04001
1154.40 0.04
1154.50 0.03999
1154.60 0.03997
1154.70 0.03996
1154.80 0.03995
1154.90 0.03993
1155.00 0.03992
1155.10 0.03991
1155.20 0.03989
1155.30 0.03988
1155.40 0.03987
1155.50 0.03985
1155.60 0.03984
1155.70 0.03983
1155.80 0.03981
1155.90 0.0398
1156.00 0.03978
1156.10 0.03977
1156.20 0.03976
1156.30 0.03974
1156.40 0.03973
1156.50 0.03972
1156.60 0.0397
1156.70 0.03969
1156.80 0.03968
1156.90 0.03966
1157.00 0.03965
1157.10 0.03964
1157.20 0.03962
1157.30 0.03961
1157.40 0.0396
1157.50 0.03958
1157.60 0.03957
1157.70 0.03956
1157.80 0.03954
1157.90 0.03953
1158.00 0.03952
1158.10 0.0395
1158.20 0.03949
1158.30 0.03948
1158.40 0.03946
1158.50 0.03945
1158.60 0.03944
1158.70 0.03942
1158.80 0.03941
1158.90 0.0394
1159.00 0.03939
1159.10 0.03937
1159.20 0.03936
1159.30 0.03935
1159.40 0.03933
1159.50 0.03932
1159.60 0.03931
1159.70 0.03929
1159.80 0.03928
1159.90 0.03927
1160.00 0.03925
1160.10 0.03924
1160.20 0.03923
1160.30 0.03921
1160.40 0.0392
1160.50 0.03919
1160.60 0.03917
1160.70 0.03916
1160.80 0.03915
1160.90 0.03913
1161.00 0.03912
1161.10 0.03911
1161.20 0.03909
1161.30 0.03908
1161.40 0.03907
1161.50 0.03906
1161.60 0.03904
1161.70 0.03903
1161.80 0.03902
1161.90 0.039
1162.00 0.03899
1162.10 0.03898
1162.20 0.03896
1162.30 0.03895
1162.40 0.03894
1162.50 0.03892
1162.60 0.03891
1162.70 0.0389
1162.80 0.03889
1162.90 0.03887
1163.00 0.03886
1163.10 0.03885
1163.20 0.03883
1163.30 0.03882
1163.40 0.03881
1163.50 0.03879
1163.60 0.03878
1163.70 0.03877
1163.80 0.03876
1163.90 0.03874
1164.00 0.03873
1164.10 0.03872
1164.20 0.0387
1164.30 0.03869
1164.40 0.03868
1164.50 0.03866
1164.60 0.03865
1164.70 0.03864
1164.80 0.03863
1164.90 0.03861
1165.00 0.0386
1165.10 0.03859
1165.20 0.03857
1165.30 0.03856
1165.40 0.03855
1165.50 0.03854
1165.60 0.03852
1165.70 0.03851
1165.80 0.0385
1165.90 0.03848
1166.00 0.03847
1166.10 0.03846
1166.20 0.03844
1166.30 0.03843
1166.40 0.03842
1166.50 0.03841
1166.60 0.03839
1166.70 0.03838
1166.80 0.03837
1166.90 0.03835
1167.00 0.03834
1167.10 0.03833
1167.20 0.03832
1167.30 0.0383
1167.40 0.03829
1167.50 0.03828
1167.60 0.03826
1167.70 0.03825
1167.80 0.03824
1167.90 0.03823
1168.00 0.03821
1168.10 0.0382
1168.20 0.03819
1168.30 0.03818
1168.40 0.03816
1168.50 0.03815
1168.60 0.03814
1168.70 0.03812
1168.80 0.03811
1168.90 0.0381
1169.00 0.03809
1169.10 0.03807
1169.20 0.03806
1169.30 0.03805
1169.40 0.03804
1169.50 0.03802
1169.60 0.03801
1169.70 0.038
1169.80 0.03798
1169.90 0.03797
1170.00 0.03796
1170.10 0.03795
1170.20 0.03793
1170.30 0.03792
1170.40 0.03791
1170.50 0.0379
1170.60 0.03788
1170.70 0.03787
1170.80 0.03786
1170.90 0.03785
1171.00 0.03783
1171.10 0.03782
1171.20 0.03781
1171.30 0.03779
1171.40 0.03778
1171.50 0.03777
1171.60 0.03776
1171.70 0.03774
1171.80 0.03773
1171.90 0.03772
1172.00 0.03771
1172.10 0.03769
1172.20 0.03768
1172.30 0.03767
1172.40 0.03766
1172.50 0.03764
1172.60 0.03763
1172.70 0.03762
1172.80 0.03761
1172.90 0.03759
1173.00 0.03758
1173.10 0.03757
1173.20 0.03756
1173.30 0.03754
1173.40 0.03753
1173.50 0.03752
1173.60 0.03751
1173.70 0.03749
1173.80 0.03748
1173.90 0.03747
1174.00 0.03746
1174.10 0.03744
1174.20 0.03743
1174.30 0.03742
1174.40 0.03741
1174.50 0.03739
1174.60 0.03738
1174.70 0.03737
1174.80 0.03736
1174.90 0.03734
1175.00 0.03733
1175.10 0.03732
1175.20 0.03731
1175.30 0.03729
1175.40 0.03728
1175.50 0.03727
1175.60 0.03726
1175.70 0.03724
1175.80 0.03723
1175.90 0.03722
1176.00 0.03721
1176.10 0.0372
1176.20 0.03718
1176.30 0.03717
1176.40 0.03716
1176.50 0.03715
1176.60 0.03713
1176.70 0.03712
1176.80 0.03711
1176.90 0.0371
1177.00 0.03708
1177.10 0.03707
1177.20 0.03706
1177.30 0.03705
1177.40 0.03703
1177.50 0.03702
1177.60 0.03701
1177.70 0.037
1177.80 0.03699
1177.90 0.03697
1178.00 0.03696
1178.10 0.03695
1178.20 0.03694
1178.30 0.03692
1178.40 0.03691
1178.50 0.0369
1178.60 0.03689
1178.70 0.03688
1178.80 0.03686
1178.90 0.03685
1179.00 0.03684
1179.10 0.03683
1179.20 0.03681
1179.30 0.0368
1179.40 0.03679
1179.50 0.03678
1179.60 0.03677
1179.70 0.03675
1179.80 0.03674
1179.90 0.03673
1180.00 0.03672
1180.10 0.0367
1180.20 0.03669
1180.30 0.03668
1180.40 0.03667
1180.50 0.03666
1180.60 0.03664
1180.70 0.03663
1180.80 0.03662
1180.90 0.03661
1181.00 0.0366
1181.10 0.03658
1181.20 0.03657
1181.30 0.03656
1181.40 0.03655
1181.50 0.03653
1181.60 0.03652
1181.70 0.03651
1181.80 0.0365
1181.90 0.03649
1182.00 0.03647
1182.10 0.03646
1182.20 0.03645
1182.30 0.03644
1182.40 0.03643
1182.50 0.03641
1182.60 0.0364
1182.70 0.03639
1182.80 0.03638
1182.90 0.03637
1183.00 0.03635
1183.10 0.03634
1183.20 0.03633
1183.30 0.03632
1183.40 0.03631
1183.50 0.03629
1183.60 0.03628
1183.70 0.03627
1183.80 0.03626
1183.90 0.03625
1184.00 0.03623
1184.10 0.03622
1184.20 0.03621
1184.30 0.0362
1184.40 0.03619
1184.50 0.03617
1184.60 0.03616
1184.70 0.03615
1184.80 0.03614
1184.90 0.03613
1185.00 0.03611
1185.10 0.0361
1185.20 0.03609
1185.30 0.03608
1185.40 0.03607
1185.50 0.03605
1185.60 0.03604
1185.70 0.03603
1185.80 0.03602
1185.90 0.03601
1186.00 0.03599
1186.10 0.03598
1186.20 0.03597
1186.30 0.03596
1186.40 0.03595
1186.50 0.03594
1186.60 0.03592
1186.70 0.03591
1186.80 0.0359
1186.90 0.03589
1187.00 0.03588
1187.10 0.03586
1187.20 0.03585
1187.30 0.03584
1187.40 0.03583
1187.50 0.03582
1187.60 0.0358
1187.70 0.03579
1187.80 0.03578
1187.90 0.03577
1188.00 0.03576
1188.10 0.03575
1188.20 0.03573
1188.30 0.03572
1188.40 0.03571
1188.50 0.0357
1188.60 0.03569
1188.70 0.03568
1188.80 0.03566
1188.90 0.03565
1189.00 0.03564
1189.10 0.03563
1189.20 0.03562
1189.30 0.03561
1189.40 0.03559
1189.50 0.03558
1189.60 0.03557
1189.70 0.03556
1189.80 0.03555
1189.90 0.03553
1190.00 0.03552
1190.10 0.03551
1190.20 0.0355
1190.30 0.03549
1190.40 0.03548
1190.50 0.03546
1190.60 0.03545
1190.70 0.03544
1190.80 0.03543
1190.90 0.03542
1191.00 0.03541
1191.10 0.03539
1191.20 0.03538
1191.30 0.03537
1191.40 0.03536
1191.50 0.03535
1191.60 0.03534
1191.70 0.03532
1191.80 0.03531
1191.90 0.0353
1192.00 0.03529
1192.10 0.03528
1192.20 0.03527
1192.30 0.03526
1192.40 0.03524
1192.50 0.03523
1192.60 0.03522
1192.70 0.03521
1192.80 0.0352
1192.90 0.03519
1193.00 0.03517
1193.10 0.03516
1193.20 0.03515
1193.30 0.03514
1193.40 0.03513
1193.50 0.03512
1193.60 0.0351
1193.70 0.03509
1193.80 0.03508
1193.90 0.03507
1194.00 0.03506
1194.10 0.03505
1194.20 0.03504
1194.30 0.03502
1194.40 0.03501
1194.50 0.035
1194.60 0.03499
1194.70 0.03498
1194.80 0.03497
1194.90 0.03496
1195.00 0.03494
1195.10 0.03493
1195.20 0.03492
1195.30 0.03491
1195.40 0.0349
1195.50 0.03489
1195.60 0.03488
1195.70 0.03486
1195.80 0.03485
1195.90 0.03484
1196.00 0.03483
1196.10 0.03482
1196.20 0.03481
1196.30 0.0348
1196.40 0.03478
1196.50 0.03477
1196.60 0.03476
1196.70 0.03475
1196.80 0.03474
1196.90 0.03473
1197.00 0.03472
1197.10 0.0347
1197.20 0.03469
1197.30 0.03468
1197.40 0.03467
1197.50 0.03466
1197.60 0.03465
1197.70 0.03464
1197.80 0.03462
1197.90 0.03461
1198.00 0.0346
1198.10 0.03459
1198.20 0.03458
1198.30 0.03457
1198.40 0.03456
1198.50 0.03455
1198.60 0.03453
1198.70 0.03452
1198.80 0.03451
1198.90 0.0345
1199.00 0.03449
1199.10 0.03448
1199.20 0.03447
1199.30 0.03445
1199.40 0.03444
1199.50 0.03443
1199.60 0.03442
1199.70 0.03441
1199.80 0.0344
1199.90 0.03439
1200.00 0
