# Version 2.1 - nm, norm@500 to 1, cut digits, bergeron_45000_75.dat_45000
# Wavelength(nm)  Flambda(ergs/cm^s/s/nm)
300.00 6.033
300.10 6.026
300.20 6.018
300.30 6.011
300.40 6.004
300.50 5.997
300.60 5.99
300.70 5.983
300.80 5.976
300.90 5.968
301.00 5.961
301.10 5.954
301.20 5.947
301.30 5.94
301.40 5.933
301.50 5.926
301.60 5.919
301.70 5.912
301.80 5.905
301.90 5.898
302.00 5.891
302.10 5.884
302.20 5.877
302.30 5.87
302.40 5.863
302.50 5.856
302.60 5.849
302.70 5.842
302.80 5.835
302.90 5.828
303.00 5.821
303.10 5.814
303.20 5.807
303.30 5.801
303.40 5.794
303.50 5.787
303.60 5.78
303.70 5.773
303.80 5.766
303.90 5.76
304.00 5.753
304.10 5.746
304.20 5.739
304.30 5.732
304.40 5.726
304.50 5.719
304.60 5.712
304.70 5.705
304.80 5.699
304.90 5.692
305.00 5.685
305.10 5.679
305.20 5.672
305.30 5.665
305.40 5.659
305.50 5.652
305.60 5.645
305.70 5.639
305.80 5.632
305.90 5.625
306.00 5.619
306.10 5.612
306.20 5.606
306.30 5.599
306.40 5.592
306.50 5.586
306.60 5.579
306.70 5.573
306.80 5.566
306.90 5.56
307.00 5.553
307.10 5.547
307.20 5.54
307.30 5.534
307.40 5.527
307.50 5.521
307.60 5.514
307.70 5.508
307.80 5.502
307.90 5.495
308.00 5.489
308.10 5.482
308.20 5.476
308.30 5.47
308.40 5.463
308.50 5.457
308.60 5.451
308.70 5.444
308.80 5.438
308.90 5.431
309.00 5.425
309.10 5.419
309.20 5.413
309.30 5.406
309.40 5.4
309.50 5.394
309.60 5.387
309.70 5.381
309.80 5.375
309.90 5.369
310.00 5.362
310.10 5.356
310.20 5.35
310.30 5.344
310.40 5.338
310.50 5.331
310.60 5.325
310.70 5.319
310.80 5.313
310.90 5.307
311.00 5.301
311.10 5.295
311.20 5.288
311.30 5.282
311.40 5.276
311.50 5.27
311.60 5.264
311.70 5.258
311.80 5.252
311.90 5.246
312.00 5.24
312.10 5.234
312.20 5.228
312.30 5.222
312.40 5.216
312.50 5.21
312.60 5.204
312.70 5.198
312.80 5.192
312.90 5.186
313.00 5.18
313.10 5.174
313.20 5.168
313.30 5.162
313.40 5.156
313.50 5.15
313.60 5.144
313.70 5.138
313.80 5.132
313.90 5.127
314.00 5.121
314.10 5.115
314.20 5.109
314.30 5.103
314.40 5.097
314.50 5.091
314.60 5.086
314.70 5.08
314.80 5.074
314.90 5.068
315.00 5.062
315.10 5.057
315.20 5.051
315.30 5.045
315.40 5.039
315.50 5.033
315.60 5.028
315.70 5.022
315.80 5.016
315.90 5.011
316.00 5.005
316.10 4.999
316.20 4.993
316.30 4.988
316.40 4.982
316.50 4.976
316.60 4.971
316.70 4.965
316.80 4.959
316.90 4.954
317.00 4.948
317.10 4.943
317.20 4.937
317.30 4.931
317.40 4.926
317.50 4.92
317.60 4.915
317.70 4.909
317.80 4.903
317.90 4.898
318.00 4.892
318.10 4.887
318.20 4.881
318.30 4.876
318.40 4.87
318.50 4.865
318.60 4.859
318.70 4.854
318.80 4.848
318.90 4.843
319.00 4.837
319.10 4.832
319.20 4.826
319.30 4.821
319.40 4.815
319.50 4.81
319.60 4.805
319.70 4.799
319.80 4.794
319.90 4.788
320.00 4.783
320.10 4.778
320.20 4.772
320.30 4.767
320.40 4.761
320.50 4.756
320.60 4.751
320.70 4.745
320.80 4.74
320.90 4.735
321.00 4.729
321.10 4.724
321.20 4.719
321.30 4.714
321.40 4.708
321.50 4.703
321.60 4.698
321.70 4.692
321.80 4.687
321.90 4.682
322.00 4.677
322.10 4.671
322.20 4.666
322.30 4.661
322.40 4.656
322.50 4.651
322.60 4.645
322.70 4.64
322.80 4.635
322.90 4.63
323.00 4.625
323.10 4.619
323.20 4.614
323.30 4.609
323.40 4.604
323.50 4.599
323.60 4.594
323.70 4.589
323.80 4.583
323.90 4.578
324.00 4.573
324.10 4.568
324.20 4.563
324.30 4.558
324.40 4.553
324.50 4.548
324.60 4.543
324.70 4.538
324.80 4.533
324.90 4.528
325.00 4.523
325.10 4.518
325.20 4.513
325.30 4.508
325.40 4.503
325.50 4.498
325.60 4.493
325.70 4.488
325.80 4.483
325.90 4.478
326.00 4.473
326.10 4.468
326.20 4.463
326.30 4.458
326.40 4.453
326.50 4.448
326.60 4.443
326.70 4.438
326.80 4.433
326.90 4.428
327.00 4.424
327.10 4.419
327.20 4.414
327.30 4.409
327.40 4.404
327.50 4.399
327.60 4.394
327.70 4.39
327.80 4.385
327.90 4.38
328.00 4.375
328.10 4.37
328.20 4.365
328.30 4.361
328.40 4.356
328.50 4.351
328.60 4.346
328.70 4.341
328.80 4.337
328.90 4.332
329.00 4.327
329.10 4.322
329.20 4.318
329.30 4.313
329.40 4.308
329.50 4.303
329.60 4.299
329.70 4.294
329.80 4.289
329.90 4.285
330.00 4.28
330.10 4.275
330.20 4.271
330.30 4.266
330.40 4.261
330.50 4.257
330.60 4.252
330.70 4.247
330.80 4.243
330.90 4.238
331.00 4.233
331.10 4.229
331.20 4.224
331.30 4.22
331.40 4.215
331.50 4.21
331.60 4.206
331.70 4.201
331.80 4.197
331.90 4.192
332.00 4.187
332.10 4.183
332.20 4.178
332.30 4.174
332.40 4.169
332.50 4.165
332.60 4.16
332.70 4.156
332.80 4.151
332.90 4.147
333.00 4.142
333.10 4.138
333.20 4.133
333.30 4.129
333.40 4.124
333.50 4.12
333.60 4.115
333.70 4.111
333.80 4.106
333.90 4.102
334.00 4.097
334.10 4.093
334.20 4.089
334.30 4.084
334.40 4.08
334.50 4.075
334.60 4.071
334.70 4.067
334.80 4.062
334.90 4.058
335.00 4.053
335.10 4.049
335.20 4.045
335.30 4.04
335.40 4.036
335.50 4.032
335.60 4.027
335.70 4.023
335.80 4.018
335.90 4.014
336.00 4.01
336.10 4.006
336.20 4.001
336.30 3.997
336.40 3.993
336.50 3.988
336.60 3.984
336.70 3.98
336.80 3.975
336.90 3.971
337.00 3.967
337.10 3.963
337.20 3.958
337.30 3.954
337.40 3.95
337.50 3.946
337.60 3.941
337.70 3.937
337.80 3.933
337.90 3.929
338.00 3.925
338.10 3.92
338.20 3.916
338.30 3.912
338.40 3.908
338.50 3.904
338.60 3.899
338.70 3.895
338.80 3.891
338.90 3.887
339.00 3.883
339.10 3.879
339.20 3.875
339.30 3.87
339.40 3.866
339.50 3.862
339.60 3.858
339.70 3.854
339.80 3.85
339.90 3.846
340.00 3.842
340.10 3.837
340.20 3.833
340.30 3.829
340.40 3.825
340.50 3.821
340.60 3.817
340.70 3.813
340.80 3.809
340.90 3.805
341.00 3.801
341.10 3.797
341.20 3.793
341.30 3.789
341.40 3.785
341.50 3.781
341.60 3.777
341.70 3.773
341.80 3.769
341.90 3.765
342.00 3.761
342.10 3.757
342.20 3.753
342.30 3.749
342.40 3.745
342.50 3.741
342.60 3.737
342.70 3.733
342.80 3.729
342.90 3.725
343.00 3.721
343.10 3.717
343.20 3.713
343.30 3.709
343.40 3.705
343.50 3.702
343.60 3.698
343.70 3.694
343.80 3.69
343.90 3.686
344.00 3.682
344.10 3.678
344.20 3.674
344.30 3.67
344.40 3.667
344.50 3.663
344.60 3.659
344.70 3.655
344.80 3.651
344.90 3.647
345.00 3.644
345.10 3.64
345.20 3.636
345.30 3.632
345.40 3.628
345.50 3.624
345.60 3.621
345.70 3.617
345.80 3.613
345.90 3.609
346.00 3.605
346.10 3.602
346.20 3.598
346.30 3.594
346.40 3.59
346.50 3.587
346.60 3.583
346.70 3.579
346.80 3.575
346.90 3.572
347.00 3.568
347.10 3.564
347.20 3.56
347.30 3.557
347.40 3.553
347.50 3.549
347.60 3.546
347.70 3.542
347.80 3.538
347.90 3.534
348.00 3.531
348.10 3.527
348.20 3.523
348.30 3.52
348.40 3.516
348.50 3.512
348.60 3.509
348.70 3.505
348.80 3.501
348.90 3.498
349.00 3.494
349.10 3.491
349.20 3.487
349.30 3.483
349.40 3.48
349.50 3.476
349.60 3.472
349.70 3.469
349.80 3.465
349.90 3.462
350.00 3.458
350.10 3.454
350.20 3.451
350.30 3.447
350.40 3.444
350.50 3.44
350.60 3.437
350.70 3.433
350.80 3.43
350.90 3.426
351.00 3.422
351.10 3.419
351.20 3.415
351.30 3.412
351.40 3.408
351.50 3.405
351.60 3.401
351.70 3.398
351.80 3.394
351.90 3.391
352.00 3.387
352.10 3.384
352.20 3.38
352.30 3.377
352.40 3.373
352.50 3.37
352.60 3.366
352.70 3.363
352.80 3.359
352.90 3.356
353.00 3.353
353.10 3.349
353.20 3.346
353.30 3.342
353.40 3.339
353.50 3.335
353.60 3.332
353.70 3.328
353.80 3.325
353.90 3.322
354.00 3.318
354.10 3.315
354.20 3.311
354.30 3.308
354.40 3.305
354.50 3.301
354.60 3.298
354.70 3.294
354.80 3.291
354.90 3.288
355.00 3.284
355.10 3.281
355.20 3.278
355.30 3.274
355.40 3.271
355.50 3.268
355.60 3.264
355.70 3.261
355.80 3.258
355.90 3.254
356.00 3.251
356.10 3.248
356.20 3.244
356.30 3.241
356.40 3.238
356.50 3.234
356.60 3.231
356.70 3.228
356.80 3.224
356.90 3.221
357.00 3.218
357.10 3.215
357.20 3.211
357.30 3.208
357.40 3.205
357.50 3.202
357.60 3.198
357.70 3.195
357.80 3.192
357.90 3.189
358.00 3.185
358.10 3.182
358.20 3.179
358.30 3.176
358.40 3.172
358.50 3.169
358.60 3.166
358.70 3.163
358.80 3.16
358.90 3.156
359.00 3.153
359.10 3.15
359.20 3.147
359.30 3.144
359.40 3.14
359.50 3.137
359.60 3.134
359.70 3.131
359.80 3.128
359.90 3.125
360.00 3.121
360.10 3.118
360.20 3.115
360.30 3.112
360.40 3.109
360.50 3.106
360.60 3.103
360.70 3.099
360.80 3.096
360.90 3.093
361.00 3.09
361.10 3.087
361.20 3.084
361.30 3.081
361.40 3.078
361.50 3.075
361.60 3.071
361.70 3.068
361.80 3.065
361.90 3.062
362.00 3.059
362.10 3.056
362.20 3.053
362.30 3.05
362.40 3.047
362.50 3.044
362.60 3.041
362.70 3.038
362.80 3.035
362.90 3.032
363.00 3.028
363.10 3.025
363.20 3.022
363.30 3.019
363.40 3.016
363.50 3.013
363.60 3.01
363.70 3.007
363.80 3.004
363.90 3.001
364.00 2.998
364.10 2.995
364.20 2.992
364.30 2.989
364.40 2.986
364.50 2.983
364.60 2.98
364.70 2.977
364.80 2.974
364.90 2.971
365.00 2.968
365.10 2.966
365.20 2.963
365.30 2.96
365.40 2.957
365.50 2.954
365.60 2.951
365.70 2.948
365.80 2.945
365.90 2.942
366.00 2.939
366.10 2.936
366.20 2.933
366.30 2.93
366.40 2.927
366.50 2.924
366.60 2.921
366.70 2.918
366.80 2.915
366.90 2.912
367.00 2.909
367.10 2.906
367.20 2.903
367.30 2.899
367.40 2.896
367.50 2.893
367.60 2.89
367.70 2.887
367.80 2.884
367.90 2.881
368.00 2.878
368.10 2.875
368.20 2.872
368.30 2.869
368.40 2.866
368.50 2.864
368.60 2.861
368.70 2.858
368.80 2.855
368.90 2.852
369.00 2.849
369.10 2.846
369.20 2.843
369.30 2.84
369.40 2.837
369.50 2.834
369.60 2.831
369.70 2.828
369.80 2.825
369.90 2.822
370.00 2.819
370.10 2.816
370.20 2.814
370.30 2.811
370.40 2.808
370.50 2.805
370.60 2.802
370.70 2.799
370.80 2.796
370.90 2.793
371.00 2.791
371.10 2.788
371.20 2.785
371.30 2.782
371.40 2.779
371.50 2.776
371.60 2.773
371.70 2.771
371.80 2.768
371.90 2.765
372.00 2.762
372.10 2.759
372.20 2.757
372.30 2.754
372.40 2.751
372.50 2.748
372.60 2.746
372.70 2.743
372.80 2.74
372.90 2.737
373.00 2.735
373.10 2.732
373.20 2.729
373.30 2.727
373.40 2.724
373.50 2.721
373.60 2.719
373.70 2.716
373.80 2.713
373.90 2.71
374.00 2.708
374.10 2.705
374.20 2.703
374.30 2.7
374.40 2.697
374.50 2.695
374.60 2.692
374.70 2.69
374.80 2.687
374.90 2.685
375.00 2.682
375.10 2.68
375.20 2.677
375.30 2.675
375.40 2.672
375.50 2.669
375.60 2.667
375.70 2.664
375.80 2.662
375.90 2.659
376.00 2.657
376.10 2.654
376.20 2.652
376.30 2.649
376.40 2.647
376.50 2.644
376.60 2.642
376.70 2.639
376.80 2.637
376.90 2.634
377.00 2.632
377.10 2.63
377.20 2.628
377.30 2.625
377.40 2.623
377.50 2.621
377.60 2.619
377.70 2.617
377.80 2.615
377.90 2.613
378.00 2.611
378.10 2.608
378.20 2.606
378.30 2.603
378.40 2.601
378.50 2.598
378.60 2.596
378.70 2.593
378.80 2.591
378.90 2.589
379.00 2.586
379.10 2.584
379.20 2.581
379.30 2.579
379.40 2.577
379.50 2.574
379.60 2.572
379.70 2.569
379.80 2.567
379.90 2.565
380.00 2.562
380.10 2.561
380.20 2.559
380.30 2.558
380.40 2.556
380.50 2.555
380.60 2.553
380.70 2.552
380.80 2.55
380.90 2.549
381.00 2.547
381.10 2.545
381.20 2.543
381.30 2.541
381.40 2.539
381.50 2.536
381.60 2.534
381.70 2.531
381.80 2.529
381.90 2.526
382.00 2.523
382.10 2.519
382.20 2.516
382.30 2.512
382.40 2.508
382.50 2.505
382.60 2.501
382.70 2.497
382.80 2.493
382.90 2.489
383.00 2.486
383.10 2.482
383.20 2.478
383.30 2.474
383.40 2.471
383.50 2.468
383.60 2.467
383.70 2.466
383.80 2.466
383.90 2.466
384.00 2.467
384.10 2.467
384.20 2.468
384.30 2.468
384.40 2.469
384.50 2.469
384.60 2.469
384.70 2.469
384.80 2.469
384.90 2.469
385.00 2.468
385.10 2.468
385.20 2.467
385.30 2.466
385.40 2.465
385.50 2.463
385.60 2.462
385.70 2.46
385.80 2.458
385.90 2.455
386.00 2.453
386.10 2.45
386.20 2.447
386.30 2.444
386.40 2.441
386.50 2.437
386.60 2.433
386.70 2.429
386.80 2.425
386.90 2.42
387.00 2.415
387.10 2.41
387.20 2.405
387.30 2.399
387.40 2.393
387.50 2.387
387.60 2.381
387.70 2.374
387.80 2.367
387.90 2.36
388.00 2.353
388.10 2.346
388.20 2.338
388.30 2.331
388.40 2.323
388.50 2.316
388.60 2.309
388.70 2.304
388.80 2.299
388.90 2.296
389.00 2.296
389.10 2.297
389.20 2.299
389.30 2.302
389.40 2.306
389.50 2.31
389.60 2.314
389.70 2.319
389.80 2.323
389.90 2.327
390.00 2.33
390.10 2.334
390.20 2.337
390.30 2.341
390.40 2.344
390.50 2.346
390.60 2.349
390.70 2.351
390.80 2.353
390.90 2.355
391.00 2.357
391.10 2.358
391.20 2.359
391.30 2.36
391.40 2.361
391.50 2.362
391.60 2.362
391.70 2.362
391.80 2.362
391.90 2.362
392.00 2.361
392.10 2.36
392.20 2.359
392.30 2.358
392.40 2.357
392.50 2.355
392.60 2.353
392.70 2.351
392.80 2.349
392.90 2.346
393.00 2.344
393.10 2.341
393.20 2.338
393.30 2.334
393.40 2.331
393.50 2.327
393.60 2.323
393.70 2.319
393.80 2.314
393.90 2.309
394.00 2.304
394.10 2.299
394.20 2.293
394.30 2.287
394.40 2.281
394.50 2.274
394.60 2.267
394.70 2.26
394.80 2.253
394.90 2.245
395.00 2.237
395.10 2.228
395.20 2.219
395.30 2.21
395.40 2.2
395.50 2.19
395.60 2.179
395.70 2.168
395.80 2.157
395.90 2.146
396.00 2.134
396.10 2.121
396.20 2.109
396.30 2.096
396.40 2.083
396.50 2.07
396.60 2.057
396.70 2.044
396.80 2.031
396.90 2.019
397.00 2.008
397.10 2.015
397.20 2.023
397.30 2.032
397.40 2.042
397.50 2.052
397.60 2.061
397.70 2.071
397.80 2.08
397.90 2.089
398.00 2.098
398.10 2.106
398.20 2.115
398.30 2.122
398.40 2.129
398.50 2.137
398.60 2.143
398.70 2.149
398.80 2.155
398.90 2.161
399.00 2.166
399.10 2.171
399.20 2.175
399.30 2.179
399.40 2.183
399.50 2.187
399.60 2.19
399.70 2.193
399.80 2.196
399.90 2.199
400.00 2.201
400.10 2.203
400.20 2.205
400.30 2.207
400.40 2.208
400.50 2.209
400.60 2.21
400.70 2.211
400.80 2.212
400.90 2.213
401.00 2.213
401.10 2.213
401.20 2.213
401.30 2.213
401.40 2.213
401.50 2.213
401.60 2.213
401.70 2.212
401.80 2.212
401.90 2.211
402.00 2.21
402.10 2.209
402.20 2.208
402.30 2.207
402.40 2.206
402.50 2.205
402.60 2.204
402.70 2.202
402.80 2.201
402.90 2.199
403.00 2.198
403.10 2.196
403.20 2.194
403.30 2.193
403.40 2.191
403.50 2.189
403.60 2.187
403.70 2.184
403.80 2.182
403.90 2.18
404.00 2.178
404.10 2.175
404.20 2.173
404.30 2.17
404.40 2.168
404.50 2.165
404.60 2.162
404.70 2.159
404.80 2.156
404.90 2.153
405.00 2.15
405.10 2.147
405.20 2.143
405.30 2.14
405.40 2.136
405.50 2.132
405.60 2.129
405.70 2.125
405.80 2.12
405.90 2.116
406.00 2.112
406.10 2.107
406.20 2.103
406.30 2.098
406.40 2.093
406.50 2.087
406.60 2.082
406.70 2.076
406.80 2.07
406.90 2.064
407.00 2.058
407.10 2.051
407.20 2.045
407.30 2.037
407.40 2.03
407.50 2.022
407.60 2.014
407.70 2.006
407.80 1.997
407.90 1.988
408.00 1.978
408.10 1.968
408.20 1.958
408.30 1.947
408.40 1.936
408.50 1.924
408.60 1.912
408.70 1.899
408.80 1.886
408.90 1.872
409.00 1.858
409.10 1.843
409.20 1.828
409.30 1.812
409.40 1.795
409.50 1.779
409.60 1.762
409.70 1.744
409.80 1.727
409.90 1.71
410.00 1.696
410.10 1.69
410.20 1.69
410.30 1.69
410.40 1.697
410.50 1.709
410.60 1.724
410.70 1.738
410.80 1.753
410.90 1.766
411.00 1.78
411.10 1.793
411.20 1.805
411.30 1.817
411.40 1.828
411.50 1.838
411.60 1.848
411.70 1.858
411.80 1.867
411.90 1.875
412.00 1.883
412.10 1.891
412.20 1.898
412.30 1.904
412.40 1.91
412.50 1.916
412.60 1.921
412.70 1.926
412.80 1.931
412.90 1.935
413.00 1.939
413.10 1.943
413.20 1.946
413.30 1.949
413.40 1.952
413.50 1.955
413.60 1.957
413.70 1.959
413.80 1.961
413.90 1.963
414.00 1.964
414.10 1.966
414.20 1.967
414.30 1.968
414.40 1.969
414.50 1.969
414.60 1.97
414.70 1.971
414.80 1.971
414.90 1.971
415.00 1.971
415.10 1.971
415.20 1.971
415.30 1.971
415.40 1.971
415.50 1.971
415.60 1.97
415.70 1.97
415.80 1.97
415.90 1.969
416.00 1.968
416.10 1.968
416.20 1.967
416.30 1.966
416.40 1.966
416.50 1.965
416.60 1.964
416.70 1.963
416.80 1.962
416.90 1.961
417.00 1.96
417.10 1.959
417.20 1.958
417.30 1.957
417.40 1.955
417.50 1.954
417.60 1.953
417.70 1.952
417.80 1.951
417.90 1.949
418.00 1.948
418.10 1.947
418.20 1.945
418.30 1.944
418.40 1.943
418.50 1.941
418.60 1.94
418.70 1.939
418.80 1.937
418.90 1.936
419.00 1.934
419.10 1.933
419.20 1.931
419.30 1.93
419.40 1.928
419.50 1.927
419.60 1.925
419.70 1.924
419.80 1.922
419.90 1.921
420.00 1.919
420.10 1.918
420.20 1.916
420.30 1.915
420.40 1.913
420.50 1.911
420.60 1.91
420.70 1.908
420.80 1.907
420.90 1.905
421.00 1.903
421.10 1.902
421.20 1.9
421.30 1.899
421.40 1.897
421.50 1.895
421.60 1.894
421.70 1.892
421.80 1.89
421.90 1.889
422.00 1.887
422.10 1.885
422.20 1.884
422.30 1.882
422.40 1.88
422.50 1.879
422.60 1.877
422.70 1.875
422.80 1.874
422.90 1.872
423.00 1.87
423.10 1.868
423.20 1.867
423.30 1.865
423.40 1.863
423.50 1.861
423.60 1.86
423.70 1.858
423.80 1.856
423.90 1.854
424.00 1.853
424.10 1.851
424.20 1.849
424.30 1.847
424.40 1.846
424.50 1.844
424.60 1.842
424.70 1.84
424.80 1.838
424.90 1.836
425.00 1.835
425.10 1.833
425.20 1.831
425.30 1.829
425.40 1.827
425.50 1.825
425.60 1.823
425.70 1.821
425.80 1.819
425.90 1.817
426.00 1.815
426.10 1.813
426.20 1.811
426.30 1.809
426.40 1.807
426.50 1.805
426.60 1.803
426.70 1.801
426.80 1.799
426.90 1.797
427.00 1.795
427.10 1.793
427.20 1.79
427.30 1.788
427.40 1.786
427.50 1.784
427.60 1.781
427.70 1.779
427.80 1.776
427.90 1.774
428.00 1.772
428.10 1.769
428.20 1.767
428.30 1.764
428.40 1.761
428.50 1.759
428.60 1.756
428.70 1.753
428.80 1.75
428.90 1.747
429.00 1.744
429.10 1.741
429.20 1.738
429.30 1.735
429.40 1.731
429.50 1.728
429.60 1.724
429.70 1.721
429.80 1.717
429.90 1.713
430.00 1.709
430.10 1.705
430.20 1.7
430.30 1.696
430.40 1.691
430.50 1.687
430.60 1.682
430.70 1.676
430.80 1.671
430.90 1.665
431.00 1.66
431.10 1.654
431.20 1.647
431.30 1.641
431.40 1.634
431.50 1.627
431.60 1.619
431.70 1.611
431.80 1.603
431.90 1.594
432.00 1.586
432.10 1.576
432.20 1.566
432.30 1.556
432.40 1.545
432.50 1.534
432.60 1.522
432.70 1.51
432.80 1.497
432.90 1.484
433.00 1.47
433.10 1.456
433.20 1.441
433.30 1.426
433.40 1.41
433.50 1.393
433.60 1.377
433.70 1.361
433.80 1.345
433.90 1.329
434.00 1.315
434.10 1.314
434.20 1.327
434.30 1.341
434.40 1.354
434.50 1.369
434.60 1.383
434.70 1.396
434.80 1.41
434.90 1.423
435.00 1.435
435.10 1.447
435.20 1.458
435.30 1.469
435.40 1.479
435.50 1.488
435.60 1.497
435.70 1.506
435.80 1.514
435.90 1.521
436.00 1.528
436.10 1.535
436.20 1.541
436.30 1.546
436.40 1.552
436.50 1.556
436.60 1.561
436.70 1.565
436.80 1.569
436.90 1.573
437.00 1.576
437.10 1.579
437.20 1.582
437.30 1.584
437.40 1.587
437.50 1.589
437.60 1.591
437.70 1.593
437.80 1.594
437.90 1.596
438.00 1.597
438.10 1.598
438.20 1.599
438.30 1.6
438.40 1.601
438.50 1.601
438.60 1.602
438.70 1.602
438.80 1.602
438.90 1.603
439.00 1.603
439.10 1.603
439.20 1.603
439.30 1.603
439.40 1.603
439.50 1.602
439.60 1.602
439.70 1.602
439.80 1.601
439.90 1.601
440.00 1.601
440.10 1.6
440.20 1.599
440.30 1.599
440.40 1.598
440.50 1.598
440.60 1.597
440.70 1.596
440.80 1.595
440.90 1.595
441.00 1.594
441.10 1.593
441.20 1.592
441.30 1.591
441.40 1.591
441.50 1.59
441.60 1.589
441.70 1.588
441.80 1.587
441.90 1.586
442.00 1.585
442.10 1.584
442.20 1.583
442.30 1.582
442.40 1.581
442.50 1.58
442.60 1.579
442.70 1.578
442.80 1.577
442.90 1.575
443.00 1.574
443.10 1.573
443.20 1.572
443.30 1.571
443.40 1.57
443.50 1.569
443.60 1.568
443.70 1.567
443.80 1.565
443.90 1.564
444.00 1.563
444.10 1.562
444.20 1.561
444.30 1.56
444.40 1.558
444.50 1.557
444.60 1.556
444.70 1.555
444.80 1.554
444.90 1.553
445.00 1.551
445.10 1.55
445.20 1.549
445.30 1.548
445.40 1.547
445.50 1.545
445.60 1.544
445.70 1.543
445.80 1.542
445.90 1.541
446.00 1.539
446.10 1.538
446.20 1.537
446.30 1.536
446.40 1.534
446.50 1.533
446.60 1.532
446.70 1.531
446.80 1.53
446.90 1.528
447.00 1.527
447.10 1.526
447.20 1.525
447.30 1.523
447.40 1.522
447.50 1.521
447.60 1.52
447.70 1.519
447.80 1.517
447.90 1.516
448.00 1.515
448.10 1.514
448.20 1.512
448.30 1.511
448.40 1.51
448.50 1.509
448.60 1.508
448.70 1.506
448.80 1.505
448.90 1.504
449.00 1.503
449.10 1.501
449.20 1.5
449.30 1.499
449.40 1.498
449.50 1.497
449.60 1.495
449.70 1.494
449.80 1.493
449.90 1.492
450.00 1.49
450.10 1.489
450.20 1.488
450.30 1.487
450.40 1.486
450.50 1.484
450.60 1.483
450.70 1.482
450.80 1.481
450.90 1.479
451.00 1.478
451.10 1.477
451.20 1.476
451.30 1.475
451.40 1.473
451.50 1.472
451.60 1.471
451.70 1.47
451.80 1.469
451.90 1.467
452.00 1.466
452.10 1.465
452.20 1.464
452.30 1.463
452.40 1.461
452.50 1.46
452.60 1.459
452.70 1.458
452.80 1.457
452.90 1.455
453.00 1.454
453.10 1.453
453.20 1.452
453.30 1.451
453.40 1.449
453.50 1.448
453.60 1.447
453.70 1.446
453.80 1.445
453.90 1.443
454.00 1.442
454.10 1.441
454.20 1.44
454.30 1.439
454.40 1.437
454.50 1.436
454.60 1.435
454.70 1.434
454.80 1.433
454.90 1.432
455.00 1.43
455.10 1.429
455.20 1.428
455.30 1.427
455.40 1.426
455.50 1.424
455.60 1.423
455.70 1.422
455.80 1.421
455.90 1.42
456.00 1.419
456.10 1.417
456.20 1.416
456.30 1.415
456.40 1.414
456.50 1.413
456.60 1.412
456.70 1.41
456.80 1.409
456.90 1.408
457.00 1.407
457.10 1.406
457.20 1.405
457.30 1.403
457.40 1.402
457.50 1.401
457.60 1.4
457.70 1.399
457.80 1.398
457.90 1.397
458.00 1.395
458.10 1.394
458.20 1.393
458.30 1.392
458.40 1.391
458.50 1.39
458.60 1.389
458.70 1.387
458.80 1.386
458.90 1.385
459.00 1.384
459.10 1.383
459.20 1.382
459.30 1.381
459.40 1.379
459.50 1.378
459.60 1.377
459.70 1.376
459.80 1.375
459.90 1.374
460.00 1.373
460.10 1.371
460.20 1.37
460.30 1.369
460.40 1.368
460.50 1.367
460.60 1.366
460.70 1.365
460.80 1.364
460.90 1.362
461.00 1.361
461.10 1.36
461.20 1.359
461.30 1.358
461.40 1.357
461.50 1.356
461.60 1.355
461.70 1.354
461.80 1.352
461.90 1.351
462.00 1.35
462.10 1.349
462.20 1.348
462.30 1.347
462.40 1.346
462.50 1.345
462.60 1.344
462.70 1.342
462.80 1.341
462.90 1.34
463.00 1.339
463.10 1.338
463.20 1.337
463.30 1.336
463.40 1.335
463.50 1.334
463.60 1.333
463.70 1.331
463.80 1.33
463.90 1.329
464.00 1.328
464.10 1.327
464.20 1.326
464.30 1.325
464.40 1.324
464.50 1.323
464.60 1.322
464.70 1.321
464.80 1.32
464.90 1.318
465.00 1.317
465.10 1.316
465.20 1.315
465.30 1.314
465.40 1.313
465.50 1.312
465.60 1.311
465.70 1.31
465.80 1.309
465.90 1.308
466.00 1.307
466.10 1.305
466.20 1.304
466.30 1.303
466.40 1.302
466.50 1.301
466.60 1.3
466.70 1.299
466.80 1.298
466.90 1.297
467.00 1.296
467.10 1.295
467.20 1.294
467.30 1.293
467.40 1.292
467.50 1.291
467.60 1.289
467.70 1.288
467.80 1.287
467.90 1.286
468.00 1.285
468.10 1.284
468.20 1.283
468.30 1.282
468.40 1.281
468.50 1.28
468.60 1.279
468.70 1.278
468.80 1.277
468.90 1.276
469.00 1.275
469.10 1.274
469.20 1.273
469.30 1.271
469.40 1.27
469.50 1.269
469.60 1.268
469.70 1.267
469.80 1.266
469.90 1.265
470.00 1.264
470.10 1.263
470.20 1.262
470.30 1.261
470.40 1.26
470.50 1.259
470.60 1.258
470.70 1.257
470.80 1.256
470.90 1.255
471.00 1.254
471.10 1.253
471.20 1.252
471.30 1.251
471.40 1.249
471.50 1.248
471.60 1.247
471.70 1.246
471.80 1.245
471.90 1.244
472.00 1.243
472.10 1.242
472.20 1.241
472.30 1.24
472.40 1.239
472.50 1.238
472.60 1.237
472.70 1.236
472.80 1.235
472.90 1.234
473.00 1.233
473.10 1.232
473.20 1.231
473.30 1.23
473.40 1.229
473.50 1.227
473.60 1.226
473.70 1.225
473.80 1.224
473.90 1.223
474.00 1.222
474.10 1.221
474.20 1.22
474.30 1.219
474.40 1.218
474.50 1.217
474.60 1.216
474.70 1.215
474.80 1.214
474.90 1.213
475.00 1.212
475.10 1.21
475.20 1.209
475.30 1.208
475.40 1.207
475.50 1.206
475.60 1.205
475.70 1.204
475.80 1.203
475.90 1.202
476.00 1.201
476.10 1.2
476.20 1.198
476.30 1.197
476.40 1.196
476.50 1.195
476.60 1.194
476.70 1.193
476.80 1.192
476.90 1.191
477.00 1.19
477.10 1.188
477.20 1.187
477.30 1.186
477.40 1.185
477.50 1.184
477.60 1.182
477.70 1.181
477.80 1.18
477.90 1.179
478.00 1.178
478.10 1.177
478.20 1.175
478.30 1.174
478.40 1.173
478.50 1.171
478.60 1.17
478.70 1.169
478.80 1.168
478.90 1.166
479.00 1.165
479.10 1.164
479.20 1.162
479.30 1.161
479.40 1.16
479.50 1.158
479.60 1.157
479.70 1.155
479.80 1.154
479.90 1.152
480.00 1.151
480.10 1.15
480.20 1.148
480.30 1.146
480.40 1.144
480.50 1.143
480.60 1.141
480.70 1.139
480.80 1.138
480.90 1.136
481.00 1.134
481.10 1.132
481.20 1.13
481.30 1.128
481.40 1.126
481.50 1.124
481.60 1.122
481.70 1.119
481.80 1.117
481.90 1.115
482.00 1.113
482.10 1.111
482.20 1.108
482.30 1.105
482.40 1.102
482.50 1.099
482.60 1.096
482.70 1.093
482.80 1.09
482.90 1.087
483.00 1.084
483.10 1.081
483.20 1.076
483.30 1.072
483.40 1.067
483.50 1.063
483.60 1.058
483.70 1.054
483.80 1.049
483.90 1.044
484.00 1.04
484.10 1.035
484.20 1.03
484.30 1.023
484.40 1.017
484.50 1.01
484.60 1.004
484.70 0.9968
484.80 0.9889
484.90 0.981
485.00 0.9731
485.10 0.9653
485.20 0.9566
485.30 0.9475
485.40 0.9379
485.50 0.9282
485.60 0.9181
485.70 0.9079
485.80 0.8971
485.90 0.8862
486.00 0.8745
486.10 0.8704
486.20 0.8675
486.30 0.8766
486.40 0.8865
486.50 0.8961
486.60 0.9053
486.70 0.9142
486.80 0.9227
486.90 0.931
487.00 0.9388
487.10 0.9464
487.20 0.9532
487.30 0.9595
487.40 0.9659
487.50 0.9722
487.60 0.9785
487.70 0.9837
487.80 0.9884
487.90 0.9931
488.00 0.9978
488.10 1.002
488.20 1.006
488.30 1.009
488.40 1.012
488.50 1.014
488.60 1.017
488.70 1.02
488.80 1.023
488.90 1.026
489.00 1.029
489.10 1.032
489.20 1.033
489.30 1.035
489.40 1.036
489.50 1.037
489.60 1.038
489.70 1.04
489.80 1.041
489.90 1.042
490.00 1.043
490.10 1.045
490.20 1.045
490.30 1.046
490.40 1.046
490.50 1.047
490.60 1.047
490.70 1.047
490.80 1.048
490.90 1.048
491.00 1.049
491.10 1.049
491.20 1.049
491.30 1.049
491.40 1.049
491.50 1.049
491.60 1.049
491.70 1.049
491.80 1.048
491.90 1.048
492.00 1.048
492.10 1.048
492.20 1.048
492.30 1.048
492.40 1.047
492.50 1.047
492.60 1.047
492.70 1.046
492.80 1.046
492.90 1.045
493.00 1.045
493.10 1.045
493.20 1.044
493.30 1.044
493.40 1.043
493.50 1.043
493.60 1.042
493.70 1.042
493.80 1.041
493.90 1.041
494.00 1.04
494.10 1.04
494.20 1.039
494.30 1.039
494.40 1.038
494.50 1.037
494.60 1.037
494.70 1.036
494.80 1.036
494.90 1.035
495.00 1.034
495.10 1.034
495.20 1.033
495.30 1.033
495.40 1.032
495.50 1.031
495.60 1.031
495.70 1.03
495.80 1.029
495.90 1.029
496.00 1.028
496.10 1.027
496.20 1.027
496.30 1.026
496.40 1.025
496.50 1.025
496.60 1.024
496.70 1.023
496.80 1.023
496.90 1.022
497.00 1.021
497.10 1.021
497.20 1.02
497.30 1.019
497.40 1.019
497.50 1.018
497.60 1.017
497.70 1.016
497.80 1.016
497.90 1.015
498.00 1.014
498.10 1.014
498.20 1.013
498.30 1.012
498.40 1.011
498.50 1.011
498.60 1.01
498.70 1.009
498.80 1.009
498.90 1.008
499.00 1.007
499.10 1.006
499.20 1.006
499.30 1.005
499.40 1.004
499.50 1.004
499.60 1.003
499.70 1.002
499.80 1.001
499.90 1.001
500.00 1
500.10 0.9993
500.20 0.9986
500.30 0.9978
500.40 0.9971
500.50 0.9964
500.60 0.9957
500.70 0.9949
500.80 0.9942
500.90 0.9935
501.00 0.9928
501.10 0.9921
501.20 0.9913
501.30 0.9906
501.40 0.9899
501.50 0.9892
501.60 0.9885
501.70 0.9877
501.80 0.987
501.90 0.9863
502.00 0.9856
502.10 0.9849
502.20 0.9841
502.30 0.9834
502.40 0.9827
502.50 0.982
502.60 0.9812
502.70 0.9805
502.80 0.9798
502.90 0.9791
503.00 0.9784
503.10 0.9776
503.20 0.9769
503.30 0.9762
503.40 0.9755
503.50 0.9748
503.60 0.9741
503.70 0.9733
503.80 0.9726
503.90 0.9719
504.00 0.9712
504.10 0.9705
504.20 0.9698
504.30 0.969
504.40 0.9683
504.50 0.9676
504.60 0.9669
504.70 0.9662
504.80 0.9655
504.90 0.9648
505.00 0.964
505.10 0.9633
505.20 0.9626
505.30 0.9619
505.40 0.9612
505.50 0.9605
505.60 0.9598
505.70 0.9591
505.80 0.9584
505.90 0.9577
506.00 0.957
506.10 0.9562
506.20 0.9555
506.30 0.9548
506.40 0.9541
506.50 0.9534
506.60 0.9527
506.70 0.952
506.80 0.9513
506.90 0.9506
507.00 0.9499
507.10 0.9492
507.20 0.9485
507.30 0.9478
507.40 0.9471
507.50 0.9464
507.60 0.9457
507.70 0.945
507.80 0.9443
507.90 0.9436
508.00 0.9429
508.10 0.9422
508.20 0.9415
508.30 0.9408
508.40 0.9401
508.50 0.9394
508.60 0.9387
508.70 0.938
508.80 0.9373
508.90 0.9367
509.00 0.936
509.10 0.9353
509.20 0.9346
509.30 0.9339
509.40 0.9332
509.50 0.9325
509.60 0.9318
509.70 0.9311
509.80 0.9304
509.90 0.9298
510.00 0.9291
510.10 0.9284
510.20 0.9277
510.30 0.927
510.40 0.9263
510.50 0.9256
510.60 0.925
510.70 0.9243
510.80 0.9236
510.90 0.9229
511.00 0.9222
511.10 0.9216
511.20 0.9209
511.30 0.9202
511.40 0.9195
511.50 0.9188
511.60 0.9182
511.70 0.9175
511.80 0.9168
511.90 0.9161
512.00 0.9155
512.10 0.9148
512.20 0.9141
512.30 0.9134
512.40 0.9128
512.50 0.9121
512.60 0.9114
512.70 0.9107
512.80 0.9101
512.90 0.9094
513.00 0.9087
513.10 0.9081
513.20 0.9074
513.30 0.9067
513.40 0.9061
513.50 0.9054
513.60 0.9047
513.70 0.9041
513.80 0.9034
513.90 0.9027
514.00 0.9021
514.10 0.9014
514.20 0.9007
514.30 0.9001
514.40 0.8994
514.50 0.8988
514.60 0.8981
514.70 0.8974
514.80 0.8968
514.90 0.8961
515.00 0.8955
515.10 0.8948
515.20 0.8941
515.30 0.8935
515.40 0.8928
515.50 0.8922
515.60 0.8915
515.70 0.8909
515.80 0.8902
515.90 0.8896
516.00 0.8889
516.10 0.8883
516.20 0.8876
516.30 0.887
516.40 0.8863
516.50 0.8857
516.60 0.885
516.70 0.8844
516.80 0.8837
516.90 0.8831
517.00 0.8824
517.10 0.8818
517.20 0.8811
517.30 0.8805
517.40 0.8798
517.50 0.8792
517.60 0.8785
517.70 0.8779
517.80 0.8773
517.90 0.8766
518.00 0.876
518.10 0.8753
518.20 0.8747
518.30 0.8741
518.40 0.8734
518.50 0.8728
518.60 0.8722
518.70 0.8715
518.80 0.8709
518.90 0.8702
519.00 0.8696
519.10 0.869
519.20 0.8683
519.30 0.8677
519.40 0.8671
519.50 0.8664
519.60 0.8658
519.70 0.8652
519.80 0.8645
519.90 0.8639
520.00 0.8633
520.10 0.8627
520.20 0.862
520.30 0.8614
520.40 0.8608
520.50 0.8601
520.60 0.8595
520.70 0.8589
520.80 0.8583
520.90 0.8576
521.00 0.857
521.10 0.8564
521.20 0.8558
521.30 0.8551
521.40 0.8545
521.50 0.8539
521.60 0.8533
521.70 0.8527
521.80 0.852
521.90 0.8514
522.00 0.8508
522.10 0.8502
522.20 0.8496
522.30 0.849
522.40 0.8483
522.50 0.8477
522.60 0.8471
522.70 0.8465
522.80 0.8459
522.90 0.8453
523.00 0.8447
523.10 0.844
523.20 0.8434
523.30 0.8428
523.40 0.8422
523.50 0.8416
523.60 0.841
523.70 0.8404
523.80 0.8398
523.90 0.8392
524.00 0.8385
524.10 0.8379
524.20 0.8373
524.30 0.8367
524.40 0.8361
524.50 0.8355
524.60 0.8349
524.70 0.8343
524.80 0.8337
524.90 0.8331
525.00 0.8325
525.10 0.8319
525.20 0.8313
525.30 0.8307
525.40 0.8301
525.50 0.8295
525.60 0.8289
525.70 0.8283
525.80 0.8277
525.90 0.8271
526.00 0.8265
526.10 0.8259
526.20 0.8253
526.30 0.8247
526.40 0.8241
526.50 0.8235
526.60 0.8229
526.70 0.8223
526.80 0.8218
526.90 0.8212
527.00 0.8206
527.10 0.82
527.20 0.8194
527.30 0.8188
527.40 0.8182
527.50 0.8176
527.60 0.817
527.70 0.8164
527.80 0.8159
527.90 0.8153
528.00 0.8147
528.10 0.8141
528.20 0.8135
528.30 0.8129
528.40 0.8123
528.50 0.8118
528.60 0.8112
528.70 0.8106
528.80 0.81
528.90 0.8094
529.00 0.8088
529.10 0.8083
529.20 0.8077
529.30 0.8071
529.40 0.8065
529.50 0.806
529.60 0.8054
529.70 0.8048
529.80 0.8042
529.90 0.8036
530.00 0.8031
530.10 0.8025
530.20 0.8019
530.30 0.8013
530.40 0.8008
530.50 0.8002
530.60 0.7996
530.70 0.799
530.80 0.7985
530.90 0.7979
531.00 0.7973
531.10 0.7968
531.20 0.7962
531.30 0.7956
531.40 0.7951
531.50 0.7945
531.60 0.7939
531.70 0.7934
531.80 0.7928
531.90 0.7922
532.00 0.7917
532.10 0.7911
532.20 0.7905
532.30 0.79
532.40 0.7894
532.50 0.7888
532.60 0.7883
532.70 0.7877
532.80 0.7871
532.90 0.7866
533.00 0.786
533.10 0.7855
533.20 0.7849
533.30 0.7843
533.40 0.7838
533.50 0.7832
533.60 0.7827
533.70 0.7821
533.80 0.7816
533.90 0.781
534.00 0.7804
534.10 0.7799
534.20 0.7793
534.30 0.7788
534.40 0.7782
534.50 0.7777
534.60 0.7771
534.70 0.7766
534.80 0.776
534.90 0.7755
535.00 0.7749
535.10 0.7744
535.20 0.7738
535.30 0.7733
535.40 0.7727
535.50 0.7722
535.60 0.7716
535.70 0.7711
535.80 0.7705
535.90 0.77
536.00 0.7694
536.10 0.7689
536.20 0.7683
536.30 0.7678
536.40 0.7672
536.50 0.7667
536.60 0.7662
536.70 0.7656
536.80 0.7651
536.90 0.7645
537.00 0.764
537.10 0.7635
537.20 0.7629
537.30 0.7624
537.40 0.7618
537.50 0.7613
537.60 0.7608
537.70 0.7602
537.80 0.7597
537.90 0.7591
538.00 0.7586
538.10 0.7581
538.20 0.7575
538.30 0.757
538.40 0.7565
538.50 0.7559
538.60 0.7554
538.70 0.7549
538.80 0.7543
538.90 0.7538
539.00 0.7533
539.10 0.7527
539.20 0.7522
539.30 0.7517
539.40 0.7511
539.50 0.7506
539.60 0.7501
539.70 0.7496
539.80 0.749
539.90 0.7485
540.00 0.748
540.10 0.7474
540.20 0.7469
540.30 0.7464
540.40 0.7459
540.50 0.7453
540.60 0.7448
540.70 0.7443
540.80 0.7438
540.90 0.7433
541.00 0.7427
541.10 0.7422
541.20 0.7417
541.30 0.7412
541.40 0.7406
541.50 0.7401
541.60 0.7396
541.70 0.7391
541.80 0.7386
541.90 0.738
542.00 0.7375
542.10 0.737
542.20 0.7365
542.30 0.736
542.40 0.7355
542.50 0.7349
542.60 0.7344
542.70 0.7339
542.80 0.7334
542.90 0.7329
543.00 0.7324
543.10 0.7319
543.20 0.7313
543.30 0.7308
543.40 0.7303
543.50 0.7298
543.60 0.7293
543.70 0.7288
543.80 0.7283
543.90 0.7278
544.00 0.7273
544.10 0.7268
544.20 0.7262
544.30 0.7257
544.40 0.7252
544.50 0.7247
544.60 0.7242
544.70 0.7237
544.80 0.7232
544.90 0.7227
545.00 0.7222
545.10 0.7217
545.20 0.7212
545.30 0.7207
545.40 0.7202
545.50 0.7197
545.60 0.7192
545.70 0.7187
545.80 0.7182
545.90 0.7177
546.00 0.7172
546.10 0.7167
546.20 0.7162
546.30 0.7157
546.40 0.7152
546.50 0.7147
546.60 0.7142
546.70 0.7137
546.80 0.7132
546.90 0.7127
547.00 0.7122
547.10 0.7117
547.20 0.7112
547.30 0.7107
547.40 0.7102
547.50 0.7097
547.60 0.7092
547.70 0.7087
547.80 0.7082
547.90 0.7078
548.00 0.7073
548.10 0.7068
548.20 0.7063
548.30 0.7058
548.40 0.7053
548.50 0.7048
548.60 0.7043
548.70 0.7038
548.80 0.7033
548.90 0.7029
549.00 0.7024
549.10 0.7019
549.20 0.7014
549.30 0.7009
549.40 0.7004
549.50 0.6999
549.60 0.6995
549.70 0.699
549.80 0.6985
549.90 0.698
550.00 0.6975
550.10 0.697
550.20 0.6966
550.30 0.6961
550.40 0.6956
550.50 0.6951
550.60 0.6946
550.70 0.6941
550.80 0.6937
550.90 0.6932
551.00 0.6927
551.10 0.6922
551.20 0.6918
551.30 0.6913
551.40 0.6908
551.50 0.6903
551.60 0.6898
551.70 0.6894
551.80 0.6889
551.90 0.6884
552.00 0.6879
552.10 0.6875
552.20 0.687
552.30 0.6865
552.40 0.686
552.50 0.6856
552.60 0.6851
552.70 0.6846
552.80 0.6842
552.90 0.6837
553.00 0.6832
553.10 0.6827
553.20 0.6823
553.30 0.6818
553.40 0.6813
553.50 0.6809
553.60 0.6804
553.70 0.6799
553.80 0.6795
553.90 0.679
554.00 0.6785
554.10 0.6781
554.20 0.6776
554.30 0.6771
554.40 0.6767
554.50 0.6762
554.60 0.6757
554.70 0.6753
554.80 0.6748
554.90 0.6743
555.00 0.6739
555.10 0.6734
555.20 0.673
555.30 0.6725
555.40 0.672
555.50 0.6716
555.60 0.6711
555.70 0.6707
555.80 0.6702
555.90 0.6697
556.00 0.6693
556.10 0.6688
556.20 0.6684
556.30 0.6679
556.40 0.6674
556.50 0.667
556.60 0.6665
556.70 0.6661
556.80 0.6656
556.90 0.6652
557.00 0.6647
557.10 0.6643
557.20 0.6638
557.30 0.6634
557.40 0.6629
557.50 0.6624
557.60 0.662
557.70 0.6615
557.80 0.6611
557.90 0.6606
558.00 0.6602
558.10 0.6597
558.20 0.6593
558.30 0.6588
558.40 0.6584
558.50 0.6579
558.60 0.6575
558.70 0.657
558.80 0.6566
558.90 0.6561
559.00 0.6557
559.10 0.6552
559.20 0.6548
559.30 0.6544
559.40 0.6539
559.50 0.6535
559.60 0.653
559.70 0.6526
559.80 0.6521
559.90 0.6517
560.00 0.6512
560.10 0.6508
560.20 0.6504
560.30 0.6499
560.40 0.6495
560.50 0.649
560.60 0.6486
560.70 0.6482
560.80 0.6477
560.90 0.6473
561.00 0.6468
561.10 0.6464
561.20 0.646
561.30 0.6455
561.40 0.6451
561.50 0.6446
561.60 0.6442
561.70 0.6438
561.80 0.6433
561.90 0.6429
562.00 0.6425
562.10 0.642
562.20 0.6416
562.30 0.6412
562.40 0.6407
562.50 0.6403
562.60 0.6398
562.70 0.6394
562.80 0.639
562.90 0.6385
563.00 0.6381
563.10 0.6377
563.20 0.6373
563.30 0.6368
563.40 0.6364
563.50 0.636
563.60 0.6355
563.70 0.6351
563.80 0.6347
563.90 0.6342
564.00 0.6338
564.10 0.6334
564.20 0.633
564.30 0.6325
564.40 0.6321
564.50 0.6317
564.60 0.6313
564.70 0.6308
564.80 0.6304
564.90 0.63
565.00 0.6295
565.10 0.6291
565.20 0.6287
565.30 0.6283
565.40 0.6279
565.50 0.6274
565.60 0.627
565.70 0.6266
565.80 0.6262
565.90 0.6257
566.00 0.6253
566.10 0.6249
566.20 0.6245
566.30 0.6241
566.40 0.6236
566.50 0.6232
566.60 0.6228
566.70 0.6224
566.80 0.622
566.90 0.6215
567.00 0.6211
567.10 0.6207
567.20 0.6203
567.30 0.6199
567.40 0.6195
567.50 0.619
567.60 0.6186
567.70 0.6182
567.80 0.6178
567.90 0.6174
568.00 0.617
568.10 0.6165
568.20 0.6161
568.30 0.6157
568.40 0.6153
568.50 0.6149
568.60 0.6145
568.70 0.6141
568.80 0.6137
568.90 0.6132
569.00 0.6128
569.10 0.6124
569.20 0.612
569.30 0.6116
569.40 0.6112
569.50 0.6108
569.60 0.6104
569.70 0.61
569.80 0.6096
569.90 0.6092
570.00 0.6087
570.10 0.6083
570.20 0.6079
570.30 0.6075
570.40 0.6071
570.50 0.6067
570.60 0.6063
570.70 0.6059
570.80 0.6055
570.90 0.6051
571.00 0.6047
571.10 0.6043
571.20 0.6039
571.30 0.6035
571.40 0.6031
571.50 0.6027
571.60 0.6023
571.70 0.6019
571.80 0.6015
571.90 0.6011
572.00 0.6007
572.10 0.6003
572.20 0.5999
572.30 0.5995
572.40 0.5991
572.50 0.5987
572.60 0.5983
572.70 0.5979
572.80 0.5975
572.90 0.5971
573.00 0.5967
573.10 0.5963
573.20 0.5959
573.30 0.5955
573.40 0.5951
573.50 0.5947
573.60 0.5943
573.70 0.5939
573.80 0.5935
573.90 0.5931
574.00 0.5927
574.10 0.5923
574.20 0.5919
574.30 0.5915
574.40 0.5912
574.50 0.5908
574.60 0.5904
574.70 0.59
574.80 0.5896
574.90 0.5892
575.00 0.5888
575.10 0.5884
575.20 0.588
575.30 0.5876
575.40 0.5872
575.50 0.5868
575.60 0.5865
575.70 0.5861
575.80 0.5857
575.90 0.5853
576.00 0.5849
576.10 0.5845
576.20 0.5841
576.30 0.5837
576.40 0.5834
576.50 0.583
576.60 0.5826
576.70 0.5822
576.80 0.5818
576.90 0.5814
577.00 0.581
577.10 0.5807
577.20 0.5803
577.30 0.5799
577.40 0.5795
577.50 0.5791
577.60 0.5787
577.70 0.5784
577.80 0.578
577.90 0.5776
578.00 0.5772
578.10 0.5768
578.20 0.5765
578.30 0.5761
578.40 0.5757
578.50 0.5753
578.60 0.5749
578.70 0.5746
578.80 0.5742
578.90 0.5738
579.00 0.5734
579.10 0.573
579.20 0.5727
579.30 0.5723
579.40 0.5719
579.50 0.5715
579.60 0.5712
579.70 0.5708
579.80 0.5704
579.90 0.57
580.00 0.5697
580.10 0.5693
580.20 0.5689
580.30 0.5685
580.40 0.5682
580.50 0.5678
580.60 0.5674
580.70 0.567
580.80 0.5667
580.90 0.5663
581.00 0.5659
581.10 0.5656
581.20 0.5652
581.30 0.5648
581.40 0.5644
581.50 0.5641
581.60 0.5637
581.70 0.5633
581.80 0.563
581.90 0.5626
582.00 0.5622
582.10 0.5619
582.20 0.5615
582.30 0.5611
582.40 0.5608
582.50 0.5604
582.60 0.56
582.70 0.5597
582.80 0.5593
582.90 0.5589
583.00 0.5586
583.10 0.5582
583.20 0.5578
583.30 0.5575
583.40 0.5571
583.50 0.5567
583.60 0.5564
583.70 0.556
583.80 0.5556
583.90 0.5553
584.00 0.5549
584.10 0.5545
584.20 0.5542
584.30 0.5538
584.40 0.5535
584.50 0.5531
584.60 0.5527
584.70 0.5524
584.80 0.552
584.90 0.5517
585.00 0.5513
585.10 0.5509
585.20 0.5506
585.30 0.5502
585.40 0.5499
585.50 0.5495
585.60 0.5491
585.70 0.5488
585.80 0.5484
585.90 0.5481
586.00 0.5477
586.10 0.5474
586.20 0.547
586.30 0.5466
586.40 0.5463
586.50 0.5459
586.60 0.5456
586.70 0.5452
586.80 0.5449
586.90 0.5445
587.00 0.5442
587.10 0.5438
587.20 0.5434
587.30 0.5431
587.40 0.5427
587.50 0.5424
587.60 0.542
587.70 0.5417
587.80 0.5413
587.90 0.541
588.00 0.5406
588.10 0.5403
588.20 0.5399
588.30 0.5396
588.40 0.5392
588.50 0.5389
588.60 0.5385
588.70 0.5382
588.80 0.5378
588.90 0.5375
589.00 0.5371
589.10 0.5368
589.20 0.5364
589.30 0.5361
589.40 0.5357
589.50 0.5354
589.60 0.535
589.70 0.5347
589.80 0.5344
589.90 0.534
590.00 0.5337
590.10 0.5333
590.20 0.533
590.30 0.5326
590.40 0.5323
590.50 0.5319
590.60 0.5316
590.70 0.5313
590.80 0.5309
590.90 0.5306
591.00 0.5302
591.10 0.5299
591.20 0.5295
591.30 0.5292
591.40 0.5289
591.50 0.5285
591.60 0.5282
591.70 0.5278
591.80 0.5275
591.90 0.5271
592.00 0.5268
592.10 0.5265
592.20 0.5261
592.30 0.5258
592.40 0.5254
592.50 0.5251
592.60 0.5248
592.70 0.5244
592.80 0.5241
592.90 0.5238
593.00 0.5234
593.10 0.5231
593.20 0.5227
593.30 0.5224
593.40 0.5221
593.50 0.5217
593.60 0.5214
593.70 0.5211
593.80 0.5207
593.90 0.5204
594.00 0.5201
594.10 0.5197
594.20 0.5194
594.30 0.5191
594.40 0.5187
594.50 0.5184
594.60 0.5181
594.70 0.5177
594.80 0.5174
594.90 0.5171
595.00 0.5167
595.10 0.5164
595.20 0.5161
595.30 0.5157
595.40 0.5154
595.50 0.5151
595.60 0.5147
595.70 0.5144
595.80 0.5141
595.90 0.5138
596.00 0.5134
596.10 0.5131
596.20 0.5128
596.30 0.5124
596.40 0.5121
596.50 0.5118
596.60 0.5115
596.70 0.5111
596.80 0.5108
596.90 0.5105
597.00 0.5101
597.10 0.5098
597.20 0.5095
597.30 0.5092
597.40 0.5088
597.50 0.5085
597.60 0.5082
597.70 0.5079
597.80 0.5075
597.90 0.5072
598.00 0.5069
598.10 0.5066
598.20 0.5062
598.30 0.5059
598.40 0.5056
598.50 0.5053
598.60 0.505
598.70 0.5046
598.80 0.5043
598.90 0.504
599.00 0.5037
599.10 0.5033
599.20 0.503
599.30 0.5027
599.40 0.5024
599.50 0.5021
599.60 0.5017
599.70 0.5014
599.80 0.5011
599.90 0.5008
600.00 0.5005
600.10 0.5001
600.20 0.4998
600.30 0.4995
600.40 0.4992
600.50 0.4989
600.60 0.4986
600.70 0.4982
600.80 0.4979
600.90 0.4976
601.00 0.4973
601.10 0.497
601.20 0.4967
601.30 0.4963
601.40 0.496
601.50 0.4957
601.60 0.4954
601.70 0.4951
601.80 0.4948
601.90 0.4944
602.00 0.4941
602.10 0.4938
602.20 0.4935
602.30 0.4932
602.40 0.4929
602.50 0.4926
602.60 0.4923
602.70 0.4919
602.80 0.4916
602.90 0.4913
603.00 0.491
603.10 0.4907
603.20 0.4904
603.30 0.4901
603.40 0.4898
603.50 0.4895
603.60 0.4891
603.70 0.4888
603.80 0.4885
603.90 0.4882
604.00 0.4879
604.10 0.4876
604.20 0.4873
604.30 0.487
604.40 0.4867
604.50 0.4864
604.60 0.4861
604.70 0.4857
604.80 0.4854
604.90 0.4851
605.00 0.4848
605.10 0.4845
605.20 0.4842
605.30 0.4839
605.40 0.4836
605.50 0.4833
605.60 0.483
605.70 0.4827
605.80 0.4824
605.90 0.4821
606.00 0.4818
606.10 0.4815
606.20 0.4812
606.30 0.4809
606.40 0.4806
606.50 0.4803
606.60 0.48
606.70 0.4796
606.80 0.4793
606.90 0.479
607.00 0.4787
607.10 0.4784
607.20 0.4781
607.30 0.4778
607.40 0.4775
607.50 0.4772
607.60 0.4769
607.70 0.4766
607.80 0.4763
607.90 0.476
608.00 0.4757
608.10 0.4754
608.20 0.4751
608.30 0.4748
608.40 0.4745
608.50 0.4742
608.60 0.4739
608.70 0.4736
608.80 0.4733
608.90 0.473
609.00 0.4728
609.10 0.4725
609.20 0.4722
609.30 0.4719
609.40 0.4716
609.50 0.4713
609.60 0.471
609.70 0.4707
609.80 0.4704
609.90 0.4701
610.00 0.4698
610.10 0.4695
610.20 0.4692
610.30 0.4689
610.40 0.4686
610.50 0.4683
610.60 0.468
610.70 0.4677
610.80 0.4674
610.90 0.4671
611.00 0.4669
611.10 0.4666
611.20 0.4663
611.30 0.466
611.40 0.4657
611.50 0.4654
611.60 0.4651
611.70 0.4648
611.80 0.4645
611.90 0.4642
612.00 0.4639
612.10 0.4637
612.20 0.4634
612.30 0.4631
612.40 0.4628
612.50 0.4625
612.60 0.4622
612.70 0.4619
612.80 0.4616
612.90 0.4613
613.00 0.4611
613.10 0.4608
613.20 0.4605
613.30 0.4602
613.40 0.4599
613.50 0.4596
613.60 0.4593
613.70 0.459
613.80 0.4588
613.90 0.4585
614.00 0.4582
614.10 0.4579
614.20 0.4576
614.30 0.4573
614.40 0.457
614.50 0.4568
614.60 0.4565
614.70 0.4562
614.80 0.4559
614.90 0.4556
615.00 0.4553
615.10 0.455
615.20 0.4548
615.30 0.4545
615.40 0.4542
615.50 0.4539
615.60 0.4536
615.70 0.4534
615.80 0.4531
615.90 0.4528
616.00 0.4525
616.10 0.4522
616.20 0.4519
616.30 0.4517
616.40 0.4514
616.50 0.4511
616.60 0.4508
616.70 0.4505
616.80 0.4503
616.90 0.45
617.00 0.4497
617.10 0.4494
617.20 0.4491
617.30 0.4489
617.40 0.4486
617.50 0.4483
617.60 0.448
617.70 0.4478
617.80 0.4475
617.90 0.4472
618.00 0.4469
618.10 0.4466
618.20 0.4464
618.30 0.4461
618.40 0.4458
618.50 0.4455
618.60 0.4453
618.70 0.445
618.80 0.4447
618.90 0.4444
619.00 0.4442
619.10 0.4439
619.20 0.4436
619.30 0.4433
619.40 0.4431
619.50 0.4428
619.60 0.4425
619.70 0.4422
619.80 0.442
619.90 0.4417
620.00 0.4414
620.10 0.4411
620.20 0.4409
620.30 0.4406
620.40 0.4403
620.50 0.4401
620.60 0.4398
620.70 0.4395
620.80 0.4392
620.90 0.439
621.00 0.4387
621.10 0.4384
621.20 0.4382
621.30 0.4379
621.40 0.4376
621.50 0.4373
621.60 0.4371
621.70 0.4368
621.80 0.4365
621.90 0.4363
622.00 0.436
622.10 0.4357
622.20 0.4355
622.30 0.4352
622.40 0.4349
622.50 0.4347
622.60 0.4344
622.70 0.4341
622.80 0.4339
622.90 0.4336
623.00 0.4333
623.10 0.4331
623.20 0.4328
623.30 0.4325
623.40 0.4323
623.50 0.432
623.60 0.4317
623.70 0.4315
623.80 0.4312
623.90 0.4309
624.00 0.4307
624.10 0.4304
624.20 0.4301
624.30 0.4299
624.40 0.4296
624.50 0.4293
624.60 0.4291
624.70 0.4288
624.80 0.4285
624.90 0.4283
625.00 0.428
625.10 0.4278
625.20 0.4275
625.30 0.4272
625.40 0.427
625.50 0.4267
625.60 0.4264
625.70 0.4262
625.80 0.4259
625.90 0.4257
626.00 0.4254
626.10 0.4251
626.20 0.4249
626.30 0.4246
626.40 0.4244
626.50 0.4241
626.60 0.4238
626.70 0.4236
626.80 0.4233
626.90 0.4231
627.00 0.4228
627.10 0.4225
627.20 0.4223
627.30 0.422
627.40 0.4218
627.50 0.4215
627.60 0.4212
627.70 0.421
627.80 0.4207
627.90 0.4205
628.00 0.4202
628.10 0.42
628.20 0.4197
628.30 0.4194
628.40 0.4192
628.50 0.4189
628.60 0.4187
628.70 0.4184
628.80 0.4182
628.90 0.4179
629.00 0.4176
629.10 0.4174
629.20 0.4171
629.30 0.4169
629.40 0.4166
629.50 0.4164
629.60 0.4161
629.70 0.4159
629.80 0.4156
629.90 0.4153
630.00 0.4151
630.10 0.4148
630.20 0.4146
630.30 0.4143
630.40 0.4141
630.50 0.4138
630.60 0.4136
630.70 0.4133
630.80 0.4131
630.90 0.4128
631.00 0.4126
631.10 0.4123
631.20 0.4121
631.30 0.4118
631.40 0.4116
631.50 0.4113
631.60 0.4111
631.70 0.4108
631.80 0.4106
631.90 0.4103
632.00 0.41
632.10 0.4098
632.20 0.4095
632.30 0.4093
632.40 0.409
632.50 0.4088
632.60 0.4085
632.70 0.4083
632.80 0.408
632.90 0.4078
633.00 0.4076
633.10 0.4073
633.20 0.4071
633.30 0.4068
633.40 0.4066
633.50 0.4063
633.60 0.4061
633.70 0.4058
633.80 0.4056
633.90 0.4053
634.00 0.4051
634.10 0.4048
634.20 0.4046
634.30 0.4043
634.40 0.4041
634.50 0.4038
634.60 0.4036
634.70 0.4033
634.80 0.4031
634.90 0.4028
635.00 0.4026
635.10 0.4024
635.20 0.4021
635.30 0.4019
635.40 0.4016
635.50 0.4014
635.60 0.4011
635.70 0.4009
635.80 0.4006
635.90 0.4004
636.00 0.4001
636.10 0.3999
636.20 0.3997
636.30 0.3994
636.40 0.3992
636.50 0.3989
636.60 0.3987
636.70 0.3984
636.80 0.3982
636.90 0.3979
637.00 0.3977
637.10 0.3975
637.20 0.3972
637.30 0.397
637.40 0.3967
637.50 0.3965
637.60 0.3962
637.70 0.396
637.80 0.3958
637.90 0.3955
638.00 0.3953
638.10 0.395
638.20 0.3948
638.30 0.3945
638.40 0.3943
638.50 0.3941
638.60 0.3938
638.70 0.3936
638.80 0.3933
638.90 0.3931
639.00 0.3928
639.10 0.3926
639.20 0.3924
639.30 0.3921
639.40 0.3919
639.50 0.3916
639.60 0.3914
639.70 0.3912
639.80 0.3909
639.90 0.3907
640.00 0.3904
640.10 0.3902
640.20 0.3899
640.30 0.3897
640.40 0.3895
640.50 0.3892
640.60 0.389
640.70 0.3887
640.80 0.3885
640.90 0.3883
641.00 0.388
641.10 0.3878
641.20 0.3875
641.30 0.3873
641.40 0.3871
641.50 0.3868
641.60 0.3866
641.70 0.3863
641.80 0.3861
641.90 0.3858
642.00 0.3856
642.10 0.3854
642.20 0.3851
642.30 0.3849
642.40 0.3846
642.50 0.3844
642.60 0.3842
642.70 0.3839
642.80 0.3837
642.90 0.3834
643.00 0.3832
643.10 0.3829
643.20 0.3827
643.30 0.3825
643.40 0.3822
643.50 0.382
643.60 0.3817
643.70 0.3815
643.80 0.3812
643.90 0.381
644.00 0.3807
644.10 0.3805
644.20 0.3803
644.30 0.38
644.40 0.3798
644.50 0.3795
644.60 0.3793
644.70 0.379
644.80 0.3788
644.90 0.3785
645.00 0.3783
645.10 0.378
645.20 0.3778
645.30 0.3775
645.40 0.3773
645.50 0.377
645.60 0.3768
645.70 0.3765
645.80 0.3763
645.90 0.376
646.00 0.3758
646.10 0.3755
646.20 0.3753
646.30 0.375
646.40 0.3747
646.50 0.3745
646.60 0.3742
646.70 0.3739
646.80 0.3737
646.90 0.3734
647.00 0.3732
647.10 0.3729
647.20 0.3726
647.30 0.3724
647.40 0.3721
647.50 0.3718
647.60 0.3715
647.70 0.3713
647.80 0.371
647.90 0.3707
648.00 0.3704
648.10 0.3702
648.20 0.3699
648.30 0.3696
648.40 0.3693
648.50 0.369
648.60 0.3687
648.70 0.3684
648.80 0.3681
648.90 0.3678
649.00 0.3675
649.10 0.3672
649.20 0.3669
649.30 0.3666
649.40 0.3663
649.50 0.366
649.60 0.3656
649.70 0.3653
649.80 0.365
649.90 0.3646
650.00 0.3643
650.10 0.3639
650.20 0.3636
650.30 0.3633
650.40 0.3629
650.50 0.3625
650.60 0.3621
650.70 0.3617
650.80 0.3613
650.90 0.3609
651.00 0.3605
651.10 0.3601
651.20 0.3597
651.30 0.3593
651.40 0.3588
651.50 0.3582
651.60 0.3577
651.70 0.3572
651.80 0.3567
651.90 0.3562
652.00 0.3557
652.10 0.3552
652.20 0.3547
652.30 0.3541
652.40 0.3534
652.50 0.3527
652.60 0.352
652.70 0.3513
652.80 0.3506
652.90 0.3499
653.00 0.3492
653.10 0.3485
653.20 0.3477
653.30 0.347
653.40 0.3459
653.50 0.3448
653.60 0.3437
653.70 0.3427
653.80 0.3416
653.90 0.3405
654.00 0.3395
654.10 0.3384
654.20 0.3373
654.30 0.3362
654.40 0.3347
654.50 0.3332
654.60 0.3317
654.70 0.3302
654.80 0.3286
654.90 0.3267
655.00 0.3248
655.10 0.323
655.20 0.3211
655.30 0.3191
655.40 0.317
655.50 0.3147
655.60 0.3123
655.70 0.3099
655.80 0.3072
655.90 0.3044
656.00 0.3007
656.10 0.2967
656.20 0.29
656.30 0.2957
656.40 0.2918
656.50 0.2976
656.60 0.301
656.70 0.3042
656.80 0.3065
656.90 0.3087
657.00 0.3108
657.10 0.3127
657.20 0.3146
657.30 0.3163
657.40 0.3178
657.50 0.3193
657.60 0.3208
657.70 0.3223
657.80 0.3237
657.90 0.3248
658.00 0.3259
658.10 0.327
658.20 0.3281
658.30 0.3291
658.40 0.3298
658.50 0.3304
658.60 0.3311
658.70 0.3318
658.80 0.3324
658.90 0.3331
659.00 0.3337
659.10 0.3344
659.20 0.3351
659.30 0.3356
659.40 0.3359
659.50 0.3362
659.60 0.3365
659.70 0.3368
659.80 0.3371
659.90 0.3374
660.00 0.3377
660.10 0.338
660.20 0.3382
660.30 0.3385
660.40 0.3386
660.50 0.3387
660.60 0.3387
660.70 0.3388
660.80 0.3389
660.90 0.339
661.00 0.3391
661.10 0.3392
661.20 0.3392
661.30 0.3393
661.40 0.3393
661.50 0.3393
661.60 0.3392
661.70 0.3392
661.80 0.3392
661.90 0.3391
662.00 0.3391
662.10 0.3391
662.20 0.3391
662.30 0.339
662.40 0.3389
662.50 0.3388
662.60 0.3388
662.70 0.3387
662.80 0.3386
662.90 0.3385
663.00 0.3384
663.10 0.3383
663.20 0.3382
663.30 0.3381
663.40 0.338
663.50 0.3379
663.60 0.3378
663.70 0.3376
663.80 0.3375
663.90 0.3374
664.00 0.3373
664.10 0.3371
664.20 0.337
664.30 0.3369
664.40 0.3367
664.50 0.3366
664.60 0.3364
664.70 0.3363
664.80 0.3362
664.90 0.336
665.00 0.3359
665.10 0.3357
665.20 0.3356
665.30 0.3354
665.40 0.3353
665.50 0.3351
665.60 0.3349
665.70 0.3348
665.80 0.3346
665.90 0.3345
666.00 0.3343
666.10 0.3341
666.20 0.334
666.30 0.3338
666.40 0.3337
666.50 0.3335
666.60 0.3333
666.70 0.3332
666.80 0.333
666.90 0.3328
667.00 0.3327
667.10 0.3325
667.20 0.3323
667.30 0.3322
667.40 0.332
667.50 0.3318
667.60 0.3316
667.70 0.3315
667.80 0.3313
667.90 0.3311
668.00 0.331
668.10 0.3308
668.20 0.3306
668.30 0.3304
668.40 0.3303
668.50 0.3301
668.60 0.3299
668.70 0.3297
668.80 0.3296
668.90 0.3294
669.00 0.3292
669.10 0.329
669.20 0.3289
669.30 0.3287
669.40 0.3285
669.50 0.3283
669.60 0.3282
669.70 0.328
669.80 0.3278
669.90 0.3276
670.00 0.3274
670.10 0.3273
670.20 0.3271
670.30 0.3269
670.40 0.3267
670.50 0.3266
670.60 0.3264
670.70 0.3262
670.80 0.326
670.90 0.3258
671.00 0.3257
671.10 0.3255
671.20 0.3253
671.30 0.3251
671.40 0.325
671.50 0.3248
671.60 0.3246
671.70 0.3244
671.80 0.3242
671.90 0.3241
672.00 0.3239
672.10 0.3237
672.20 0.3235
672.30 0.3233
672.40 0.3232
672.50 0.323
672.60 0.3228
672.70 0.3226
672.80 0.3225
672.90 0.3223
673.00 0.3221
673.10 0.3219
673.20 0.3217
673.30 0.3216
673.40 0.3214
673.50 0.3212
673.60 0.321
673.70 0.3208
673.80 0.3207
673.90 0.3205
674.00 0.3203
674.10 0.3201
674.20 0.32
674.30 0.3198
674.40 0.3196
674.50 0.3194
674.60 0.3192
674.70 0.3191
674.80 0.3189
674.90 0.3187
675.00 0.3185
675.10 0.3184
675.20 0.3182
675.30 0.318
675.40 0.3178
675.50 0.3176
675.60 0.3175
675.70 0.3173
675.80 0.3171
675.90 0.3169
676.00 0.3168
676.10 0.3166
676.20 0.3164
676.30 0.3162
676.40 0.3161
676.50 0.3159
676.60 0.3157
676.70 0.3155
676.80 0.3153
676.90 0.3152
677.00 0.315
677.10 0.3148
677.20 0.3146
677.30 0.3145
677.40 0.3143
677.50 0.3141
677.60 0.3139
677.70 0.3138
677.80 0.3136
677.90 0.3134
678.00 0.3132
678.10 0.3131
678.20 0.3129
678.30 0.3127
678.40 0.3125
678.50 0.3124
678.60 0.3122
678.70 0.312
678.80 0.3118
678.90 0.3117
679.00 0.3115
679.10 0.3113
679.20 0.3111
679.30 0.311
679.40 0.3108
679.50 0.3106
679.60 0.3104
679.70 0.3103
679.80 0.3101
679.90 0.3099
680.00 0.3097
680.10 0.3096
680.20 0.3094
680.30 0.3092
680.40 0.3091
680.50 0.3089
680.60 0.3087
680.70 0.3085
680.80 0.3084
680.90 0.3082
681.00 0.308
681.10 0.3078
681.20 0.3077
681.30 0.3075
681.40 0.3073
681.50 0.3072
681.60 0.307
681.70 0.3068
681.80 0.3066
681.90 0.3065
682.00 0.3063
682.10 0.3061
682.20 0.306
682.30 0.3058
682.40 0.3056
682.50 0.3054
682.60 0.3053
682.70 0.3051
682.80 0.3049
682.90 0.3048
683.00 0.3046
683.10 0.3044
683.20 0.3043
683.30 0.3041
683.40 0.3039
683.50 0.3037
683.60 0.3036
683.70 0.3034
683.80 0.3032
683.90 0.3031
684.00 0.3029
684.10 0.3027
684.20 0.3026
684.30 0.3024
684.40 0.3022
684.50 0.3021
684.60 0.3019
684.70 0.3017
684.80 0.3015
684.90 0.3014
685.00 0.3012
685.10 0.301
685.20 0.3009
685.30 0.3007
685.40 0.3005
685.50 0.3004
685.60 0.3002
685.70 0.3
685.80 0.2999
685.90 0.2997
686.00 0.2995
686.10 0.2994
686.20 0.2992
686.30 0.299
686.40 0.2989
686.50 0.2987
686.60 0.2985
686.70 0.2984
686.80 0.2982
686.90 0.298
687.00 0.2979
687.10 0.2977
687.20 0.2975
687.30 0.2974
687.40 0.2972
687.50 0.297
687.60 0.2969
687.70 0.2967
687.80 0.2965
687.90 0.2964
688.00 0.2962
688.10 0.296
688.20 0.2959
688.30 0.2957
688.40 0.2956
688.50 0.2954
688.60 0.2952
688.70 0.2951
688.80 0.2949
688.90 0.2947
689.00 0.2946
689.10 0.2944
689.20 0.2942
689.30 0.2941
689.40 0.2939
689.50 0.2938
689.60 0.2936
689.70 0.2934
689.80 0.2933
689.90 0.2931
690.00 0.2929
690.10 0.2928
690.20 0.2926
690.30 0.2925
690.40 0.2923
690.50 0.2921
690.60 0.292
690.70 0.2918
690.80 0.2916
690.90 0.2915
691.00 0.2913
691.10 0.2912
691.20 0.291
691.30 0.2908
691.40 0.2907
691.50 0.2905
691.60 0.2904
691.70 0.2902
691.80 0.29
691.90 0.2899
692.00 0.2897
692.10 0.2896
692.20 0.2894
692.30 0.2892
692.40 0.2891
692.50 0.2889
692.60 0.2888
692.70 0.2886
692.80 0.2884
692.90 0.2883
693.00 0.2881
693.10 0.288
693.20 0.2878
693.30 0.2876
693.40 0.2875
693.50 0.2873
693.60 0.2872
693.70 0.287
693.80 0.2868
693.90 0.2867
694.00 0.2865
694.10 0.2864
694.20 0.2862
694.30 0.286
694.40 0.2859
694.50 0.2857
694.60 0.2856
694.70 0.2854
694.80 0.2853
694.90 0.2851
695.00 0.2849
695.10 0.2848
695.20 0.2846
695.30 0.2845
695.40 0.2843
695.50 0.2842
695.60 0.284
695.70 0.2838
695.80 0.2837
695.90 0.2835
696.00 0.2834
696.10 0.2832
696.20 0.2831
696.30 0.2829
696.40 0.2828
696.50 0.2826
696.60 0.2824
696.70 0.2823
696.80 0.2821
696.90 0.282
697.00 0.2818
697.10 0.2817
697.20 0.2815
697.30 0.2814
697.40 0.2812
697.50 0.2811
697.60 0.2809
697.70 0.2807
697.80 0.2806
697.90 0.2804
698.00 0.2803
698.10 0.2801
698.20 0.28
698.30 0.2798
698.40 0.2797
698.50 0.2795
698.60 0.2794
698.70 0.2792
698.80 0.279
698.90 0.2789
699.00 0.2787
699.10 0.2786
699.20 0.2784
699.30 0.2783
699.40 0.2781
699.50 0.278
699.60 0.2778
699.70 0.2777
699.80 0.2775
699.90 0.2774
700.00 0.2772
700.10 0.2771
700.20 0.2769
700.30 0.2768
700.40 0.2766
700.50 0.2765
700.60 0.2763
700.70 0.2762
700.80 0.276
700.90 0.2759
701.00 0.2757
701.10 0.2755
701.20 0.2754
701.30 0.2752
701.40 0.2751
701.50 0.2749
701.60 0.2748
701.70 0.2746
701.80 0.2745
701.90 0.2743
702.00 0.2742
702.10 0.274
702.20 0.2739
702.30 0.2737
702.40 0.2736
702.50 0.2734
702.60 0.2733
702.70 0.2732
702.80 0.273
702.90 0.2729
703.00 0.2727
703.10 0.2726
703.20 0.2724
703.30 0.2723
703.40 0.2721
703.50 0.272
703.60 0.2718
703.70 0.2717
703.80 0.2715
703.90 0.2714
704.00 0.2712
704.10 0.2711
704.20 0.2709
704.30 0.2708
704.40 0.2706
704.50 0.2705
704.60 0.2703
704.70 0.2702
704.80 0.27
704.90 0.2699
705.00 0.2697
705.10 0.2696
705.20 0.2694
705.30 0.2693
705.40 0.2692
705.50 0.269
705.60 0.2689
705.70 0.2687
705.80 0.2686
705.90 0.2684
706.00 0.2683
706.10 0.2681
706.20 0.268
706.30 0.2678
706.40 0.2677
706.50 0.2675
706.60 0.2674
706.70 0.2673
706.80 0.2671
706.90 0.267
707.00 0.2668
707.10 0.2667
707.20 0.2665
707.30 0.2664
707.40 0.2662
707.50 0.2661
707.60 0.266
707.70 0.2658
707.80 0.2657
707.90 0.2655
708.00 0.2654
708.10 0.2652
708.20 0.2651
708.30 0.2649
708.40 0.2648
708.50 0.2647
708.60 0.2645
708.70 0.2644
708.80 0.2642
708.90 0.2641
709.00 0.2639
709.10 0.2638
709.20 0.2637
709.30 0.2635
709.40 0.2634
709.50 0.2632
709.60 0.2631
709.70 0.2629
709.80 0.2628
709.90 0.2627
710.00 0.2625
710.10 0.2624
710.20 0.2622
710.30 0.2621
710.40 0.2619
710.50 0.2618
710.60 0.2617
710.70 0.2615
710.80 0.2614
710.90 0.2612
711.00 0.2611
711.10 0.261
711.20 0.2608
711.30 0.2607
711.40 0.2605
711.50 0.2604
711.60 0.2603
711.70 0.2601
711.80 0.26
711.90 0.2598
712.00 0.2597
712.10 0.2596
712.20 0.2594
712.30 0.2593
712.40 0.2591
712.50 0.259
712.60 0.2589
712.70 0.2587
712.80 0.2586
712.90 0.2584
713.00 0.2583
713.10 0.2582
713.20 0.258
713.30 0.2579
713.40 0.2577
713.50 0.2576
713.60 0.2575
713.70 0.2573
713.80 0.2572
713.90 0.257
714.00 0.2569
714.10 0.2568
714.20 0.2566
714.30 0.2565
714.40 0.2564
714.50 0.2562
714.60 0.2561
714.70 0.2559
714.80 0.2558
714.90 0.2557
715.00 0.2555
715.10 0.2554
715.20 0.2553
715.30 0.2551
715.40 0.255
715.50 0.2548
715.60 0.2547
715.70 0.2546
715.80 0.2544
715.90 0.2543
716.00 0.2542
716.10 0.254
716.20 0.2539
716.30 0.2538
716.40 0.2536
716.50 0.2535
716.60 0.2533
716.70 0.2532
716.80 0.2531
716.90 0.2529
717.00 0.2528
717.10 0.2527
717.20 0.2525
717.30 0.2524
717.40 0.2523
717.50 0.2521
717.60 0.252
717.70 0.2519
717.80 0.2517
717.90 0.2516
718.00 0.2515
718.10 0.2513
718.20 0.2512
718.30 0.251
718.40 0.2509
718.50 0.2508
718.60 0.2506
718.70 0.2505
718.80 0.2504
718.90 0.2502
719.00 0.2501
719.10 0.25
719.20 0.2498
719.30 0.2497
719.40 0.2496
719.50 0.2494
719.60 0.2493
719.70 0.2492
719.80 0.249
719.90 0.2489
720.00 0.2488
720.10 0.2486
720.20 0.2485
720.30 0.2484
720.40 0.2482
720.50 0.2481
720.60 0.248
720.70 0.2478
720.80 0.2477
720.90 0.2476
721.00 0.2474
721.10 0.2473
721.20 0.2472
721.30 0.2471
721.40 0.2469
721.50 0.2468
721.60 0.2467
721.70 0.2465
721.80 0.2464
721.90 0.2463
722.00 0.2461
722.10 0.246
722.20 0.2459
722.30 0.2457
722.40 0.2456
722.50 0.2455
722.60 0.2454
722.70 0.2452
722.80 0.2451
722.90 0.245
723.00 0.2448
723.10 0.2447
723.20 0.2446
723.30 0.2444
723.40 0.2443
723.50 0.2442
723.60 0.244
723.70 0.2439
723.80 0.2438
723.90 0.2437
724.00 0.2435
724.10 0.2434
724.20 0.2433
724.30 0.2431
724.40 0.243
724.50 0.2429
724.60 0.2428
724.70 0.2426
724.80 0.2425
724.90 0.2424
725.00 0.2422
725.10 0.2421
725.20 0.242
725.30 0.2419
725.40 0.2417
725.50 0.2416
725.60 0.2415
725.70 0.2413
725.80 0.2412
725.90 0.2411
726.00 0.241
726.10 0.2408
726.20 0.2407
726.30 0.2406
726.40 0.2405
726.50 0.2403
726.60 0.2402
726.70 0.2401
726.80 0.2399
726.90 0.2398
727.00 0.2397
727.10 0.2396
727.20 0.2394
727.30 0.2393
727.40 0.2392
727.50 0.2391
727.60 0.2389
727.70 0.2388
727.80 0.2387
727.90 0.2386
728.00 0.2384
728.10 0.2383
728.20 0.2382
728.30 0.238
728.40 0.2379
728.50 0.2378
728.60 0.2377
728.70 0.2375
728.80 0.2374
728.90 0.2373
729.00 0.2372
729.10 0.237
729.20 0.2369
729.30 0.2368
729.40 0.2367
729.50 0.2365
729.60 0.2364
729.70 0.2363
729.80 0.2362
729.90 0.236
730.00 0.2359
730.10 0.2358
730.20 0.2357
730.30 0.2355
730.40 0.2354
730.50 0.2353
730.60 0.2352
730.70 0.2351
730.80 0.2349
730.90 0.2348
731.00 0.2347
731.10 0.2346
731.20 0.2344
731.30 0.2343
731.40 0.2342
731.50 0.2341
731.60 0.234
731.70 0.2338
731.80 0.2337
731.90 0.2336
732.00 0.2335
732.10 0.2333
732.20 0.2332
732.30 0.2331
732.40 0.233
732.50 0.2329
732.60 0.2327
732.70 0.2326
732.80 0.2325
732.90 0.2324
733.00 0.2322
733.10 0.2321
733.20 0.232
733.30 0.2319
733.40 0.2318
733.50 0.2316
733.60 0.2315
733.70 0.2314
733.80 0.2313
733.90 0.2312
734.00 0.231
734.10 0.2309
734.20 0.2308
734.30 0.2307
734.40 0.2305
734.50 0.2304
734.60 0.2303
734.70 0.2302
734.80 0.2301
734.90 0.2299
735.00 0.2298
735.10 0.2297
735.20 0.2296
735.30 0.2295
735.40 0.2293
735.50 0.2292
735.60 0.2291
735.70 0.229
735.80 0.2289
735.90 0.2287
736.00 0.2286
736.10 0.2285
736.20 0.2284
736.30 0.2283
736.40 0.2281
736.50 0.228
736.60 0.2279
736.70 0.2278
736.80 0.2277
736.90 0.2276
737.00 0.2274
737.10 0.2273
737.20 0.2272
737.30 0.2271
737.40 0.227
737.50 0.2268
737.60 0.2267
737.70 0.2266
737.80 0.2265
737.90 0.2264
738.00 0.2262
738.10 0.2261
738.20 0.226
738.30 0.2259
738.40 0.2258
738.50 0.2256
738.60 0.2255
738.70 0.2254
738.80 0.2253
738.90 0.2252
739.00 0.2251
739.10 0.2249
739.20 0.2248
739.30 0.2247
739.40 0.2246
739.50 0.2245
739.60 0.2244
739.70 0.2242
739.80 0.2241
739.90 0.224
740.00 0.2239
740.10 0.2238
740.20 0.2236
740.30 0.2235
740.40 0.2234
740.50 0.2233
740.60 0.2232
740.70 0.2231
740.80 0.223
740.90 0.2228
741.00 0.2227
741.10 0.2226
741.20 0.2225
741.30 0.2224
741.40 0.2223
741.50 0.2222
741.60 0.222
741.70 0.2219
741.80 0.2218
741.90 0.2217
742.00 0.2216
742.10 0.2215
742.20 0.2214
742.30 0.2212
742.40 0.2211
742.50 0.221
742.60 0.2209
742.70 0.2208
742.80 0.2207
742.90 0.2206
743.00 0.2204
743.10 0.2203
743.20 0.2202
743.30 0.2201
743.40 0.22
743.50 0.2199
743.60 0.2198
743.70 0.2196
743.80 0.2195
743.90 0.2194
744.00 0.2193
744.10 0.2192
744.20 0.2191
744.30 0.219
744.40 0.2189
744.50 0.2187
744.60 0.2186
744.70 0.2185
744.80 0.2184
744.90 0.2183
745.00 0.2182
745.10 0.2181
745.20 0.218
745.30 0.2178
745.40 0.2177
745.50 0.2176
745.60 0.2175
745.70 0.2174
745.80 0.2173
745.90 0.2172
746.00 0.2171
746.10 0.2169
746.20 0.2168
746.30 0.2167
746.40 0.2166
746.50 0.2165
746.60 0.2164
746.70 0.2163
746.80 0.2162
746.90 0.216
747.00 0.2159
747.10 0.2158
747.20 0.2157
747.30 0.2156
747.40 0.2155
747.50 0.2154
747.60 0.2153
747.70 0.2152
747.80 0.215
747.90 0.2149
748.00 0.2148
748.10 0.2147
748.20 0.2146
748.30 0.2145
748.40 0.2144
748.50 0.2143
748.60 0.2142
748.70 0.214
748.80 0.2139
748.90 0.2138
749.00 0.2137
749.10 0.2136
749.20 0.2135
749.30 0.2134
749.40 0.2133
749.50 0.2132
749.60 0.213
749.70 0.2129
749.80 0.2128
749.90 0.2127
750.00 0.2126
750.10 0.2125
750.20 0.2124
750.30 0.2123
750.40 0.2122
750.50 0.2121
750.60 0.212
750.70 0.2118
750.80 0.2117
750.90 0.2116
751.00 0.2115
751.10 0.2114
751.20 0.2113
751.30 0.2112
751.40 0.2111
751.50 0.211
751.60 0.2109
751.70 0.2108
751.80 0.2107
751.90 0.2106
752.00 0.2105
752.10 0.2103
752.20 0.2102
752.30 0.2101
752.40 0.21
752.50 0.2099
752.60 0.2098
752.70 0.2097
752.80 0.2096
752.90 0.2095
753.00 0.2094
753.10 0.2093
753.20 0.2092
753.30 0.2091
753.40 0.209
753.50 0.2088
753.60 0.2087
753.70 0.2086
753.80 0.2085
753.90 0.2084
754.00 0.2083
754.10 0.2082
754.20 0.2081
754.30 0.208
754.40 0.2079
754.50 0.2078
754.60 0.2077
754.70 0.2076
754.80 0.2075
754.90 0.2074
755.00 0.2073
755.10 0.2072
755.20 0.207
755.30 0.2069
755.40 0.2068
755.50 0.2067
755.60 0.2066
755.70 0.2065
755.80 0.2064
755.90 0.2063
756.00 0.2062
756.10 0.2061
756.20 0.206
756.30 0.2059
756.40 0.2058
756.50 0.2057
756.60 0.2056
756.70 0.2055
756.80 0.2054
756.90 0.2053
757.00 0.2052
757.10 0.205
757.20 0.2049
757.30 0.2048
757.40 0.2047
757.50 0.2046
757.60 0.2045
757.70 0.2044
757.80 0.2043
757.90 0.2042
758.00 0.2041
758.10 0.204
758.20 0.2039
758.30 0.2038
758.40 0.2037
758.50 0.2036
758.60 0.2035
758.70 0.2034
758.80 0.2033
758.90 0.2032
759.00 0.2031
759.10 0.203
759.20 0.2029
759.30 0.2028
759.40 0.2027
759.50 0.2025
759.60 0.2024
759.70 0.2023
759.80 0.2022
759.90 0.2021
760.00 0.202
760.10 0.2019
760.20 0.2018
760.30 0.2017
760.40 0.2016
760.50 0.2015
760.60 0.2014
760.70 0.2013
760.80 0.2012
760.90 0.2011
761.00 0.201
761.10 0.2009
761.20 0.2008
761.30 0.2007
761.40 0.2006
761.50 0.2005
761.60 0.2004
761.70 0.2003
761.80 0.2002
761.90 0.2001
762.00 0.2
762.10 0.1999
762.20 0.1998
762.30 0.1997
762.40 0.1996
762.50 0.1995
762.60 0.1994
762.70 0.1993
762.80 0.1992
762.90 0.1991
763.00 0.199
763.10 0.1989
763.20 0.1988
763.30 0.1987
763.40 0.1986
763.50 0.1985
763.60 0.1984
763.70 0.1983
763.80 0.1982
763.90 0.1981
764.00 0.198
764.10 0.1979
764.20 0.1978
764.30 0.1977
764.40 0.1976
764.50 0.1975
764.60 0.1974
764.70 0.1973
764.80 0.1972
764.90 0.1971
765.00 0.197
765.10 0.1969
765.20 0.1968
765.30 0.1967
765.40 0.1966
765.50 0.1965
765.60 0.1964
765.70 0.1963
765.80 0.1962
765.90 0.1961
766.00 0.196
766.10 0.1959
766.20 0.1958
766.30 0.1957
766.40 0.1956
766.50 0.1955
766.60 0.1954
766.70 0.1953
766.80 0.1952
766.90 0.1951
767.00 0.195
767.10 0.1949
767.20 0.1948
767.30 0.1947
767.40 0.1946
767.50 0.1945
767.60 0.1944
767.70 0.1943
767.80 0.1942
767.90 0.1942
768.00 0.1941
768.10 0.194
768.20 0.1939
768.30 0.1938
768.40 0.1937
768.50 0.1936
768.60 0.1935
768.70 0.1934
768.80 0.1933
768.90 0.1932
769.00 0.1931
769.10 0.193
769.20 0.1929
769.30 0.1928
769.40 0.1927
769.50 0.1926
769.60 0.1925
769.70 0.1924
769.80 0.1923
769.90 0.1922
770.00 0.1921
770.10 0.192
770.20 0.1919
770.30 0.1918
770.40 0.1917
770.50 0.1916
770.60 0.1915
770.70 0.1914
770.80 0.1913
770.90 0.1912
771.00 0.1912
771.10 0.1911
771.20 0.191
771.30 0.1909
771.40 0.1908
771.50 0.1907
771.60 0.1906
771.70 0.1905
771.80 0.1904
771.90 0.1903
772.00 0.1902
772.10 0.1901
772.20 0.19
772.30 0.1899
772.40 0.1898
772.50 0.1897
772.60 0.1896
772.70 0.1895
772.80 0.1895
772.90 0.1894
773.00 0.1893
773.10 0.1892
773.20 0.1891
773.30 0.189
773.40 0.1889
773.50 0.1888
773.60 0.1887
773.70 0.1886
773.80 0.1885
773.90 0.1884
774.00 0.1883
774.10 0.1882
774.20 0.1881
774.30 0.188
774.40 0.188
774.50 0.1879
774.60 0.1878
774.70 0.1877
774.80 0.1876
774.90 0.1875
775.00 0.1874
775.10 0.1873
775.20 0.1872
775.30 0.1871
775.40 0.187
775.50 0.1869
775.60 0.1868
775.70 0.1867
775.80 0.1866
775.90 0.1866
776.00 0.1865
776.10 0.1864
776.20 0.1863
776.30 0.1862
776.40 0.1861
776.50 0.186
776.60 0.1859
776.70 0.1858
776.80 0.1857
776.90 0.1856
777.00 0.1855
777.10 0.1854
777.20 0.1854
777.30 0.1853
777.40 0.1852
777.50 0.1851
777.60 0.185
777.70 0.1849
777.80 0.1848
777.90 0.1847
778.00 0.1846
778.10 0.1845
778.20 0.1844
778.30 0.1843
778.40 0.1842
778.50 0.1842
778.60 0.1841
778.70 0.184
778.80 0.1839
778.90 0.1838
779.00 0.1837
779.10 0.1836
779.20 0.1835
779.30 0.1834
779.40 0.1833
779.50 0.1832
779.60 0.1831
779.70 0.1831
779.80 0.183
779.90 0.1829
780.00 0.1828
780.10 0.1827
780.20 0.1826
780.30 0.1825
780.40 0.1824
780.50 0.1823
780.60 0.1822
780.70 0.1822
780.80 0.1821
780.90 0.182
781.00 0.1819
781.10 0.1818
781.20 0.1817
781.30 0.1816
781.40 0.1815
781.50 0.1814
781.60 0.1814
781.70 0.1813
781.80 0.1812
781.90 0.1811
782.00 0.181
782.10 0.1809
782.20 0.1808
782.30 0.1807
782.40 0.1806
782.50 0.1806
782.60 0.1805
782.70 0.1804
782.80 0.1803
782.90 0.1802
783.00 0.1801
783.10 0.18
783.20 0.1799
783.30 0.1798
783.40 0.1798
783.50 0.1797
783.60 0.1796
783.70 0.1795
783.80 0.1794
783.90 0.1793
784.00 0.1792
784.10 0.1791
784.20 0.1791
784.30 0.179
784.40 0.1789
784.50 0.1788
784.60 0.1787
784.70 0.1786
784.80 0.1785
784.90 0.1784
785.00 0.1784
785.10 0.1783
785.20 0.1782
785.30 0.1781
785.40 0.178
785.50 0.1779
785.60 0.1778
785.70 0.1777
785.80 0.1777
785.90 0.1776
786.00 0.1775
786.10 0.1774
786.20 0.1773
786.30 0.1772
786.40 0.1771
786.50 0.177
786.60 0.177
786.70 0.1769
786.80 0.1768
786.90 0.1767
787.00 0.1766
787.10 0.1765
787.20 0.1764
787.30 0.1763
787.40 0.1763
787.50 0.1762
787.60 0.1761
787.70 0.176
787.80 0.1759
787.90 0.1758
788.00 0.1757
788.10 0.1757
788.20 0.1756
788.30 0.1755
788.40 0.1754
788.50 0.1753
788.60 0.1752
788.70 0.1751
788.80 0.1751
788.90 0.175
789.00 0.1749
789.10 0.1748
789.20 0.1747
789.30 0.1746
789.40 0.1745
789.50 0.1744
789.60 0.1744
789.70 0.1743
789.80 0.1742
789.90 0.1741
790.00 0.174
790.10 0.1739
790.20 0.1739
790.30 0.1738
790.40 0.1737
790.50 0.1736
790.60 0.1735
790.70 0.1734
790.80 0.1733
790.90 0.1733
791.00 0.1732
791.10 0.1731
791.20 0.173
791.30 0.1729
791.40 0.1728
791.50 0.1728
791.60 0.1727
791.70 0.1726
791.80 0.1725
791.90 0.1724
792.00 0.1723
792.10 0.1723
792.20 0.1722
792.30 0.1721
792.40 0.172
792.50 0.1719
792.60 0.1718
792.70 0.1718
792.80 0.1717
792.90 0.1716
793.00 0.1715
793.10 0.1714
793.20 0.1713
793.30 0.1713
793.40 0.1712
793.50 0.1711
793.60 0.171
793.70 0.1709
793.80 0.1708
793.90 0.1708
794.00 0.1707
794.10 0.1706
794.20 0.1705
794.30 0.1704
794.40 0.1703
794.50 0.1703
794.60 0.1702
794.70 0.1701
794.80 0.17
794.90 0.1699
795.00 0.1699
795.10 0.1698
795.20 0.1697
795.30 0.1696
795.40 0.1695
795.50 0.1694
795.60 0.1694
795.70 0.1693
795.80 0.1692
795.90 0.1691
796.00 0.169
796.10 0.1689
796.20 0.1689
796.30 0.1688
796.40 0.1687
796.50 0.1686
796.60 0.1685
796.70 0.1685
796.80 0.1684
796.90 0.1683
797.00 0.1682
797.10 0.1681
797.20 0.168
797.30 0.168
797.40 0.1679
797.50 0.1678
797.60 0.1677
797.70 0.1676
797.80 0.1676
797.90 0.1675
798.00 0.1674
798.10 0.1673
798.20 0.1672
798.30 0.1672
798.40 0.1671
798.50 0.167
798.60 0.1669
798.70 0.1668
798.80 0.1667
798.90 0.1667
799.00 0.1666
799.10 0.1665
799.20 0.1664
799.30 0.1663
799.40 0.1663
799.50 0.1662
799.60 0.1661
799.70 0.166
799.80 0.1659
799.90 0.1659
800.00 0.1658
800.10 0.1657
800.20 0.1656
800.30 0.1655
800.40 0.1655
800.50 0.1654
800.60 0.1653
800.70 0.1652
800.80 0.1651
800.90 0.1651
801.00 0.165
801.10 0.1649
801.20 0.1648
801.30 0.1647
801.40 0.1647
801.50 0.1646
801.60 0.1645
801.70 0.1644
801.80 0.1644
801.90 0.1643
802.00 0.1642
802.10 0.1641
802.20 0.164
802.30 0.164
802.40 0.1639
802.50 0.1638
802.60 0.1637
802.70 0.1636
802.80 0.1636
802.90 0.1635
803.00 0.1634
803.10 0.1633
803.20 0.1633
803.30 0.1632
803.40 0.1631
803.50 0.163
803.60 0.1629
803.70 0.1629
803.80 0.1628
803.90 0.1627
804.00 0.1626
804.10 0.1626
804.20 0.1625
804.30 0.1624
804.40 0.1623
804.50 0.1622
804.60 0.1622
804.70 0.1621
804.80 0.162
804.90 0.1619
805.00 0.1619
805.10 0.1618
805.20 0.1617
805.30 0.1616
805.40 0.1615
805.50 0.1615
805.60 0.1614
805.70 0.1613
805.80 0.1612
805.90 0.1612
806.00 0.1611
806.10 0.161
806.20 0.1609
806.30 0.1608
806.40 0.1608
806.50 0.1607
806.60 0.1606
806.70 0.1605
806.80 0.1605
806.90 0.1604
807.00 0.1603
807.10 0.1602
807.20 0.1602
807.30 0.1601
807.40 0.16
807.50 0.1599
807.60 0.1598
807.70 0.1598
807.80 0.1597
807.90 0.1596
808.00 0.1595
808.10 0.1595
808.20 0.1594
808.30 0.1593
808.40 0.1592
808.50 0.1592
808.60 0.1591
808.70 0.159
808.80 0.1589
808.90 0.1589
809.00 0.1588
809.10 0.1587
809.20 0.1586
809.30 0.1585
809.40 0.1585
809.50 0.1584
809.60 0.1583
809.70 0.1582
809.80 0.1582
809.90 0.1581
810.00 0.158
810.10 0.1579
810.20 0.1579
810.30 0.1578
810.40 0.1577
810.50 0.1576
810.60 0.1576
810.70 0.1575
810.80 0.1574
810.90 0.1573
811.00 0.1573
811.10 0.1572
811.20 0.1571
811.30 0.157
811.40 0.157
811.50 0.1569
811.60 0.1568
811.70 0.1568
811.80 0.1567
811.90 0.1566
812.00 0.1565
812.10 0.1565
812.20 0.1564
812.30 0.1563
812.40 0.1562
812.50 0.1562
812.60 0.1561
812.70 0.156
812.80 0.1559
812.90 0.1559
813.00 0.1558
813.10 0.1557
813.20 0.1556
813.30 0.1556
813.40 0.1555
813.50 0.1554
813.60 0.1553
813.70 0.1553
813.80 0.1552
813.90 0.1551
814.00 0.1551
814.10 0.155
814.20 0.1549
814.30 0.1548
814.40 0.1548
814.50 0.1547
814.60 0.1546
814.70 0.1545
814.80 0.1545
814.90 0.1544
815.00 0.1543
815.10 0.1542
815.20 0.1542
815.30 0.1541
815.40 0.154
815.50 0.154
815.60 0.1539
815.70 0.1538
815.80 0.1537
815.90 0.1537
816.00 0.1536
816.10 0.1535
816.20 0.1534
816.30 0.1534
816.40 0.1533
816.50 0.1532
816.60 0.1532
816.70 0.1531
816.80 0.153
816.90 0.1529
817.00 0.1529
817.10 0.1528
817.20 0.1527
817.30 0.1526
817.40 0.1526
817.50 0.1525
817.60 0.1524
817.70 0.1524
817.80 0.1523
817.90 0.1522
818.00 0.1521
818.10 0.1521
818.20 0.152
818.30 0.1519
818.40 0.1519
818.50 0.1518
818.60 0.1517
818.70 0.1516
818.80 0.1516
818.90 0.1515
819.00 0.1514
819.10 0.1514
819.20 0.1513
819.30 0.1512
819.40 0.1511
819.50 0.1511
819.60 0.151
819.70 0.1509
819.80 0.1508
819.90 0.1508
820.00 0.1507
820.10 0.1506
820.20 0.1506
820.30 0.1505
820.40 0.1504
820.50 0.1504
820.60 0.1503
820.70 0.1502
820.80 0.1501
820.90 0.1501
821.00 0.15
821.10 0.1499
821.20 0.1499
821.30 0.1498
821.40 0.1497
821.50 0.1496
821.60 0.1496
821.70 0.1495
821.80 0.1494
821.90 0.1494
822.00 0.1493
822.10 0.1492
822.20 0.1492
822.30 0.1491
822.40 0.149
822.50 0.1489
822.60 0.1489
822.70 0.1488
822.80 0.1487
822.90 0.1487
823.00 0.1486
823.10 0.1485
823.20 0.1485
823.30 0.1484
823.40 0.1483
823.50 0.1482
823.60 0.1482
823.70 0.1481
823.80 0.148
823.90 0.148
824.00 0.1479
824.10 0.1478
824.20 0.1478
824.30 0.1477
824.40 0.1476
824.50 0.1476
824.60 0.1475
824.70 0.1474
824.80 0.1473
824.90 0.1473
825.00 0.1472
825.10 0.1471
825.20 0.1471
825.30 0.147
825.40 0.1469
825.50 0.1469
825.60 0.1468
825.70 0.1467
825.80 0.1467
825.90 0.1466
826.00 0.1465
826.10 0.1465
826.20 0.1464
826.30 0.1463
826.40 0.1462
826.50 0.1462
826.60 0.1461
826.70 0.146
826.80 0.146
826.90 0.1459
827.00 0.1458
827.10 0.1458
827.20 0.1457
827.30 0.1456
827.40 0.1456
827.50 0.1455
827.60 0.1454
827.70 0.1454
827.80 0.1453
827.90 0.1452
828.00 0.1452
828.10 0.1451
828.20 0.145
828.30 0.145
828.40 0.1449
828.50 0.1448
828.60 0.1448
828.70 0.1447
828.80 0.1446
828.90 0.1446
829.00 0.1445
829.10 0.1444
829.20 0.1444
829.30 0.1443
829.40 0.1442
829.50 0.1441
829.60 0.1441
829.70 0.144
829.80 0.1439
829.90 0.1439
830.00 0.1438
830.10 0.1437
830.20 0.1437
830.30 0.1436
830.40 0.1435
830.50 0.1435
830.60 0.1434
830.70 0.1433
830.80 0.1433
830.90 0.1432
831.00 0.1431
831.10 0.1431
831.20 0.143
831.30 0.1429
831.40 0.1429
831.50 0.1428
831.60 0.1427
831.70 0.1427
831.80 0.1426
831.90 0.1425
832.00 0.1425
832.10 0.1424
832.20 0.1423
832.30 0.1423
832.40 0.1422
832.50 0.1421
832.60 0.1421
832.70 0.142
832.80 0.1419
832.90 0.1419
833.00 0.1418
833.10 0.1417
833.20 0.1417
833.30 0.1416
833.40 0.1416
833.50 0.1415
833.60 0.1414
833.70 0.1414
833.80 0.1413
833.90 0.1412
834.00 0.1412
834.10 0.1411
834.20 0.141
834.30 0.141
834.40 0.1409
834.50 0.1408
834.60 0.1408
834.70 0.1407
834.80 0.1406
834.90 0.1406
835.00 0.1405
835.10 0.1404
835.20 0.1404
835.30 0.1403
835.40 0.1402
835.50 0.1402
835.60 0.1401
835.70 0.14
835.80 0.14
835.90 0.1399
836.00 0.1398
836.10 0.1398
836.20 0.1397
836.30 0.1396
836.40 0.1396
836.50 0.1395
836.60 0.1395
836.70 0.1394
836.80 0.1393
836.90 0.1393
837.00 0.1392
837.10 0.1391
837.20 0.1391
837.30 0.139
837.40 0.1389
837.50 0.1389
837.60 0.1388
837.70 0.1387
837.80 0.1387
837.90 0.1386
838.00 0.1385
838.10 0.1385
838.20 0.1384
838.30 0.1384
838.40 0.1383
838.50 0.1382
838.60 0.1382
838.70 0.1381
838.80 0.138
838.90 0.138
839.00 0.1379
839.10 0.1378
839.20 0.1378
839.30 0.1377
839.40 0.1377
839.50 0.1376
839.60 0.1375
839.70 0.1375
839.80 0.1374
839.90 0.1373
840.00 0.1373
840.10 0.1372
840.20 0.1371
840.30 0.1371
840.40 0.137
840.50 0.137
840.60 0.1369
840.70 0.1368
840.80 0.1368
840.90 0.1367
841.00 0.1366
841.10 0.1366
841.20 0.1365
841.30 0.1364
841.40 0.1364
841.50 0.1363
841.60 0.1363
841.70 0.1362
841.80 0.1361
841.90 0.1361
842.00 0.136
842.10 0.1359
842.20 0.1359
842.30 0.1358
842.40 0.1358
842.50 0.1357
842.60 0.1356
842.70 0.1356
842.80 0.1355
842.90 0.1354
843.00 0.1354
843.10 0.1353
843.20 0.1353
843.30 0.1352
843.40 0.1351
843.50 0.1351
843.60 0.135
843.70 0.1349
843.80 0.1349
843.90 0.1348
844.00 0.1348
844.10 0.1347
844.20 0.1346
844.30 0.1346
844.40 0.1345
844.50 0.1345
844.60 0.1344
844.70 0.1343
844.80 0.1343
844.90 0.1342
845.00 0.1341
845.10 0.1341
845.20 0.134
845.30 0.134
845.40 0.1339
845.50 0.1338
845.60 0.1338
845.70 0.1337
845.80 0.1337
845.90 0.1336
846.00 0.1335
846.10 0.1335
846.20 0.1334
846.30 0.1333
846.40 0.1333
846.50 0.1332
846.60 0.1332
846.70 0.1331
846.80 0.133
846.90 0.133
847.00 0.1329
847.10 0.1329
847.20 0.1328
847.30 0.1327
847.40 0.1327
847.50 0.1326
847.60 0.1326
847.70 0.1325
847.80 0.1324
847.90 0.1324
848.00 0.1323
848.10 0.1322
848.20 0.1322
848.30 0.1321
848.40 0.1321
848.50 0.132
848.60 0.1319
848.70 0.1319
848.80 0.1318
848.90 0.1318
849.00 0.1317
849.10 0.1316
849.20 0.1316
849.30 0.1315
849.40 0.1315
849.50 0.1314
849.60 0.1313
849.70 0.1313
849.80 0.1312
849.90 0.1312
850.00 0.1311
850.10 0.131
850.20 0.131
850.30 0.1309
850.40 0.1309
850.50 0.1308
850.60 0.1307
850.70 0.1307
850.80 0.1306
850.90 0.1306
851.00 0.1305
851.10 0.1304
851.20 0.1304
851.30 0.1303
851.40 0.1303
851.50 0.1302
851.60 0.1301
851.70 0.1301
851.80 0.13
851.90 0.13
852.00 0.1299
852.10 0.1299
852.20 0.1298
852.30 0.1297
852.40 0.1297
852.50 0.1296
852.60 0.1296
852.70 0.1295
852.80 0.1294
852.90 0.1294
853.00 0.1293
853.10 0.1293
853.20 0.1292
853.30 0.1291
853.40 0.1291
853.50 0.129
853.60 0.129
853.70 0.1289
853.80 0.1289
853.90 0.1288
854.00 0.1287
854.10 0.1287
854.20 0.1286
854.30 0.1286
854.40 0.1285
854.50 0.1284
854.60 0.1284
854.70 0.1283
854.80 0.1283
854.90 0.1282
855.00 0.1282
855.10 0.1281
855.20 0.128
855.30 0.128
855.40 0.1279
855.50 0.1279
855.60 0.1278
855.70 0.1277
855.80 0.1277
855.90 0.1276
856.00 0.1276
856.10 0.1275
856.20 0.1275
856.30 0.1274
856.40 0.1273
856.50 0.1273
856.60 0.1272
856.70 0.1272
856.80 0.1271
856.90 0.127
857.00 0.127
857.10 0.1269
857.20 0.1269
857.30 0.1268
857.40 0.1268
857.50 0.1267
857.60 0.1266
857.70 0.1266
857.80 0.1265
857.90 0.1265
858.00 0.1264
858.10 0.1264
858.20 0.1263
858.30 0.1263
858.40 0.1262
858.50 0.1261
858.60 0.1261
858.70 0.126
858.80 0.126
858.90 0.1259
859.00 0.1259
859.10 0.1258
859.20 0.1257
859.30 0.1257
859.40 0.1256
859.50 0.1256
859.60 0.1255
859.70 0.1255
859.80 0.1254
859.90 0.1253
860.00 0.1253
860.10 0.1252
860.20 0.1252
860.30 0.1251
860.40 0.1251
860.50 0.125
860.60 0.125
860.70 0.1249
860.80 0.1248
860.90 0.1248
861.00 0.1247
861.10 0.1247
861.20 0.1246
861.30 0.1246
861.40 0.1245
861.50 0.1244
861.60 0.1244
861.70 0.1243
861.80 0.1243
861.90 0.1242
862.00 0.1242
862.10 0.1241
862.20 0.1241
862.30 0.124
862.40 0.1239
862.50 0.1239
862.60 0.1238
862.70 0.1238
862.80 0.1237
862.90 0.1237
863.00 0.1236
863.10 0.1236
863.20 0.1235
863.30 0.1234
863.40 0.1234
863.50 0.1233
863.60 0.1233
863.70 0.1232
863.80 0.1232
863.90 0.1231
864.00 0.1231
864.10 0.123
864.20 0.123
864.30 0.1229
864.40 0.1228
864.50 0.1228
864.60 0.1227
864.70 0.1227
864.80 0.1226
864.90 0.1226
865.00 0.1225
865.10 0.1225
865.20 0.1224
865.30 0.1223
865.40 0.1223
865.50 0.1222
865.60 0.1222
865.70 0.1221
865.80 0.1221
865.90 0.122
866.00 0.122
866.10 0.1219
866.20 0.1219
866.30 0.1218
866.40 0.1217
866.50 0.1217
866.60 0.1216
866.70 0.1216
866.80 0.1215
866.90 0.1215
867.00 0.1214
867.10 0.1214
867.20 0.1213
867.30 0.1213
867.40 0.1212
867.50 0.1212
867.60 0.1211
867.70 0.121
867.80 0.121
867.90 0.1209
868.00 0.1209
868.10 0.1208
868.20 0.1208
868.30 0.1207
868.40 0.1207
868.50 0.1206
868.60 0.1206
868.70 0.1205
868.80 0.1205
868.90 0.1204
869.00 0.1203
869.10 0.1203
869.20 0.1202
869.30 0.1202
869.40 0.1201
869.50 0.1201
869.60 0.12
869.70 0.12
869.80 0.1199
869.90 0.1199
870.00 0.1198
870.10 0.1198
870.20 0.1197
870.30 0.1197
870.40 0.1196
870.50 0.1195
870.60 0.1195
870.70 0.1194
870.80 0.1194
870.90 0.1193
871.00 0.1193
871.10 0.1192
871.20 0.1192
871.30 0.1191
871.40 0.1191
871.50 0.119
871.60 0.119
871.70 0.1189
871.80 0.1189
871.90 0.1188
872.00 0.1188
872.10 0.1187
872.20 0.1187
872.30 0.1186
872.40 0.1185
872.50 0.1185
872.60 0.1184
872.70 0.1184
872.80 0.1183
872.90 0.1183
873.00 0.1182
873.10 0.1182
873.20 0.1181
873.30 0.1181
873.40 0.118
873.50 0.118
873.60 0.1179
873.70 0.1179
873.80 0.1178
873.90 0.1178
874.00 0.1177
874.10 0.1177
874.20 0.1176
874.30 0.1176
874.40 0.1175
874.50 0.1175
874.60 0.1174
874.70 0.1174
874.80 0.1173
874.90 0.1173
875.00 0.1172
875.10 0.1172
875.20 0.1171
875.30 0.117
875.40 0.117
875.50 0.1169
875.60 0.1169
875.70 0.1168
875.80 0.1168
875.90 0.1167
876.00 0.1167
876.10 0.1166
876.20 0.1166
876.30 0.1165
876.40 0.1165
876.50 0.1164
876.60 0.1164
876.70 0.1163
876.80 0.1163
876.90 0.1162
877.00 0.1162
877.10 0.1161
877.20 0.1161
877.30 0.116
877.40 0.116
877.50 0.1159
877.60 0.1159
877.70 0.1158
877.80 0.1158
877.90 0.1157
878.00 0.1157
878.10 0.1156
878.20 0.1156
878.30 0.1155
878.40 0.1155
878.50 0.1154
878.60 0.1154
878.70 0.1153
878.80 0.1153
878.90 0.1152
879.00 0.1152
879.10 0.1151
879.20 0.1151
879.30 0.115
879.40 0.115
879.50 0.1149
879.60 0.1149
879.70 0.1148
879.80 0.1148
879.90 0.1147
880.00 0.1147
880.10 0.1146
880.20 0.1146
880.30 0.1145
880.40 0.1145
880.50 0.1144
880.60 0.1144
880.70 0.1143
880.80 0.1143
880.90 0.1142
881.00 0.1142
881.10 0.1141
881.20 0.1141
881.30 0.114
881.40 0.114
881.50 0.1139
881.60 0.1139
881.70 0.1138
881.80 0.1138
881.90 0.1137
882.00 0.1137
882.10 0.1136
882.20 0.1136
882.30 0.1135
882.40 0.1135
882.50 0.1134
882.60 0.1134
882.70 0.1133
882.80 0.1133
882.90 0.1132
883.00 0.1132
883.10 0.1131
883.20 0.1131
883.30 0.113
883.40 0.113
883.50 0.1129
883.60 0.1129
883.70 0.1128
883.80 0.1128
883.90 0.1127
884.00 0.1127
884.10 0.1126
884.20 0.1126
884.30 0.1125
884.40 0.1125
884.50 0.1124
884.60 0.1124
884.70 0.1123
884.80 0.1123
884.90 0.1123
885.00 0.1122
885.10 0.1122
885.20 0.1121
885.30 0.1121
885.40 0.112
885.50 0.112
885.60 0.1119
885.70 0.1119
885.80 0.1118
885.90 0.1118
886.00 0.1117
886.10 0.1117
886.20 0.1116
886.30 0.1116
886.40 0.1115
886.50 0.1115
886.60 0.1114
886.70 0.1114
886.80 0.1113
886.90 0.1113
887.00 0.1112
887.10 0.1112
887.20 0.1111
887.30 0.1111
887.40 0.111
887.50 0.111
887.60 0.111
887.70 0.1109
887.80 0.1109
887.90 0.1108
888.00 0.1108
888.10 0.1107
888.20 0.1107
888.30 0.1106
888.40 0.1106
888.50 0.1105
888.60 0.1105
888.70 0.1104
888.80 0.1104
888.90 0.1103
889.00 0.1103
889.10 0.1102
889.20 0.1102
889.30 0.1101
889.40 0.1101
889.50 0.1101
889.60 0.11
889.70 0.11
889.80 0.1099
889.90 0.1099
890.00 0.1098
890.10 0.1098
890.20 0.1097
890.30 0.1097
890.40 0.1096
890.50 0.1096
890.60 0.1095
890.70 0.1095
890.80 0.1094
890.90 0.1094
891.00 0.1093
891.10 0.1093
891.20 0.1093
891.30 0.1092
891.40 0.1092
891.50 0.1091
891.60 0.1091
891.70 0.109
891.80 0.109
891.90 0.1089
892.00 0.1089
892.10 0.1088
892.20 0.1088
892.30 0.1087
892.40 0.1087
892.50 0.1086
892.60 0.1086
892.70 0.1085
892.80 0.1085
892.90 0.1085
893.00 0.1084
893.10 0.1084
893.20 0.1083
893.30 0.1083
893.40 0.1082
893.50 0.1082
893.60 0.1081
893.70 0.1081
893.80 0.108
893.90 0.108
894.00 0.1079
894.10 0.1079
894.20 0.1078
894.30 0.1078
894.40 0.1077
894.50 0.1077
894.60 0.1076
894.70 0.1076
894.80 0.1076
894.90 0.1075
895.00 0.1075
895.10 0.1074
895.20 0.1074
895.30 0.1073
895.40 0.1073
895.50 0.1072
895.60 0.1072
895.70 0.1071
895.80 0.1071
895.90 0.107
896.00 0.107
896.10 0.1069
896.20 0.1069
896.30 0.1069
896.40 0.1068
896.50 0.1068
896.60 0.1067
896.70 0.1067
896.80 0.1066
896.90 0.1066
897.00 0.1065
897.10 0.1065
897.20 0.1064
897.30 0.1064
897.40 0.1063
897.50 0.1063
897.60 0.1063
897.70 0.1062
897.80 0.1062
897.90 0.1061
898.00 0.1061
898.10 0.106
898.20 0.106
898.30 0.1059
898.40 0.1059
898.50 0.1058
898.60 0.1058
898.70 0.1057
898.80 0.1057
898.90 0.1057
899.00 0.1056
899.10 0.1056
899.20 0.1055
899.30 0.1055
899.40 0.1054
899.50 0.1054
899.60 0.1053
899.70 0.1053
899.80 0.1052
899.90 0.1052
900.00 0.1052
900.10 0.1051
900.20 0.1051
900.30 0.105
900.40 0.105
900.50 0.1049
900.60 0.1049
900.70 0.1048
900.80 0.1048
900.90 0.1047
901.00 0.1047
901.10 0.1047
901.20 0.1046
901.30 0.1046
901.40 0.1045
901.50 0.1045
901.60 0.1044
901.70 0.1044
901.80 0.1043
901.90 0.1043
902.00 0.1042
902.10 0.1042
902.20 0.1042
902.30 0.1041
902.40 0.1041
902.50 0.104
902.60 0.104
902.70 0.104
902.80 0.1039
902.90 0.1039
903.00 0.1038
903.10 0.1038
903.20 0.1037
903.30 0.1037
903.40 0.1037
903.50 0.1036
903.60 0.1036
903.70 0.1035
903.80 0.1035
903.90 0.1035
904.00 0.1034
904.10 0.1034
904.20 0.1033
904.30 0.1033
904.40 0.1032
904.50 0.1032
904.60 0.1032
904.70 0.1031
904.80 0.1031
904.90 0.103
905.00 0.103
905.10 0.1029
905.20 0.1029
905.30 0.1029
905.40 0.1028
905.50 0.1028
905.60 0.1027
905.70 0.1027
905.80 0.1027
905.90 0.1026
906.00 0.1026
906.10 0.1025
906.20 0.1025
906.30 0.1024
906.40 0.1024
906.50 0.1024
906.60 0.1023
906.70 0.1023
906.80 0.1022
906.90 0.1022
907.00 0.1022
907.10 0.1021
907.20 0.1021
907.30 0.102
907.40 0.102
907.50 0.1019
907.60 0.1019
907.70 0.1019
907.80 0.1018
907.90 0.1018
908.00 0.1017
908.10 0.1017
908.20 0.1016
908.30 0.1016
908.40 0.1016
908.50 0.1015
908.60 0.1015
908.70 0.1014
908.80 0.1014
908.90 0.1013
909.00 0.1013
909.10 0.1013
909.20 0.1012
909.30 0.1012
909.40 0.1011
909.50 0.1011
909.60 0.1011
909.70 0.101
909.80 0.101
909.90 0.1009
910.00 0.1009
910.10 0.1008
910.20 0.1008
910.30 0.1008
910.40 0.1007
910.50 0.1007
910.60 0.1006
910.70 0.1006
910.80 0.1005
910.90 0.1005
911.00 0.1005
911.10 0.1004
911.20 0.1004
911.30 0.1003
911.40 0.1003
911.50 0.1003
911.60 0.1002
911.70 0.1002
911.80 0.1001
911.90 0.1001
912.00 0.1
912.10 0.1
912.20 0.09995
912.30 0.09991
912.40 0.09986
912.50 0.09982
912.60 0.09977
912.70 0.09973
912.80 0.09968
912.90 0.09964
913.00 0.09959
913.10 0.09955
913.20 0.0995
913.30 0.09946
913.40 0.09941
913.50 0.09937
913.60 0.09932
913.70 0.09928
913.80 0.09923
913.90 0.09919
914.00 0.09914
914.10 0.0991
914.20 0.09905
914.30 0.09901
914.40 0.09896
914.50 0.09892
914.60 0.09887
914.70 0.09883
914.80 0.09878
914.90 0.09874
915.00 0.09869
915.10 0.09865
915.20 0.0986
915.30 0.09856
915.40 0.09851
915.50 0.09847
915.60 0.09843
915.70 0.09838
915.80 0.09834
915.90 0.09829
916.00 0.09825
916.10 0.0982
916.20 0.09816
916.30 0.09811
916.40 0.09807
916.50 0.09803
916.60 0.09798
916.70 0.09794
916.80 0.09789
916.90 0.09785
917.00 0.0978
917.10 0.09776
917.20 0.09771
917.30 0.09767
917.40 0.09762
917.50 0.09758
917.60 0.09753
917.70 0.09748
917.80 0.09744
917.90 0.09739
918.00 0.09735
918.10 0.0973
918.20 0.09726
918.30 0.09721
918.40 0.09717
918.50 0.09712
918.60 0.09708
918.70 0.09703
918.80 0.09699
918.90 0.09694
919.00 0.0969
919.10 0.09685
919.20 0.09681
919.30 0.09676
919.40 0.09672
919.50 0.09667
919.60 0.09662
919.70 0.09658
919.80 0.09653
919.90 0.09649
920.00 0.09644
920.10 0.0964
920.20 0.09635
920.30 0.09631
920.40 0.09626
920.50 0.09622
920.60 0.09617
920.70 0.09613
920.80 0.09608
920.90 0.09604
921.00 0.096
921.10 0.09595
921.20 0.09591
921.30 0.09586
921.40 0.09582
921.50 0.09577
921.60 0.09573
921.70 0.09568
921.80 0.09564
921.90 0.09559
922.00 0.09555
922.10 0.09551
922.20 0.09548
922.30 0.09544
922.40 0.0954
922.50 0.09537
922.60 0.09533
922.70 0.0953
922.80 0.09526
922.90 0.09523
923.00 0.09519
923.10 0.09516
923.20 0.09512
923.30 0.09508
923.40 0.09505
923.50 0.09501
923.60 0.09498
923.70 0.09494
923.80 0.09491
923.90 0.09487
924.00 0.09484
924.10 0.0948
924.20 0.09477
924.30 0.09473
924.40 0.0947
924.50 0.09466
924.60 0.09462
924.70 0.09459
924.80 0.09455
924.90 0.09452
925.00 0.09448
925.10 0.09445
925.20 0.09441
925.30 0.09438
925.40 0.09434
925.50 0.09431
925.60 0.09427
925.70 0.09424
925.80 0.0942
925.90 0.09417
926.00 0.09413
926.10 0.0941
926.20 0.09406
926.30 0.09403
926.40 0.09399
926.50 0.09396
926.60 0.09392
926.70 0.09389
926.80 0.09385
926.90 0.09382
927.00 0.09378
927.10 0.09375
927.20 0.09371
927.30 0.09368
927.40 0.09365
927.50 0.09362
927.60 0.09358
927.70 0.09355
927.80 0.09352
927.90 0.09348
928.00 0.09345
928.10 0.09342
928.20 0.09338
928.30 0.09335
928.40 0.09332
928.50 0.09328
928.60 0.09325
928.70 0.09322
928.80 0.09319
928.90 0.09315
929.00 0.09312
929.10 0.09309
929.20 0.09305
929.30 0.09302
929.40 0.09299
929.50 0.09295
929.60 0.09292
929.70 0.09289
929.80 0.09286
929.90 0.09282
930.00 0.09279
930.10 0.09276
930.20 0.09272
930.30 0.09269
930.40 0.09266
930.50 0.09263
930.60 0.09259
930.70 0.09256
930.80 0.09253
930.90 0.0925
931.00 0.09246
931.10 0.09243
931.20 0.0924
931.30 0.09236
931.40 0.09233
931.50 0.0923
931.60 0.09227
931.70 0.09223
931.80 0.0922
931.90 0.09217
932.00 0.09214
932.10 0.0921
932.20 0.09207
932.30 0.09203
932.40 0.092
932.50 0.09196
932.60 0.09193
932.70 0.09189
932.80 0.09186
932.90 0.09182
933.00 0.09179
933.10 0.09175
933.20 0.09172
933.30 0.09168
933.40 0.09165
933.50 0.09161
933.60 0.09158
933.70 0.09154
933.80 0.09151
933.90 0.09147
934.00 0.09144
934.10 0.0914
934.20 0.09137
934.30 0.09133
934.40 0.0913
934.50 0.09126
934.60 0.09122
934.70 0.09119
934.80 0.09115
934.90 0.09111
935.00 0.09108
935.10 0.09104
935.20 0.091
935.30 0.09097
935.40 0.09093
935.50 0.09089
935.60 0.09086
935.70 0.09082
935.80 0.09079
935.90 0.09075
936.00 0.09071
936.10 0.09068
936.20 0.09064
936.30 0.0906
936.40 0.09057
936.50 0.09053
936.60 0.0905
936.70 0.09046
936.80 0.09042
936.90 0.09039
937.00 0.09035
937.10 0.09031
937.20 0.09028
937.30 0.09024
937.40 0.0902
937.50 0.09016
937.60 0.09012
937.70 0.09009
937.80 0.09005
937.90 0.09001
938.00 0.08997
938.10 0.08994
938.20 0.0899
938.30 0.08986
938.40 0.08982
938.50 0.08978
938.60 0.08975
938.70 0.08971
938.80 0.08967
938.90 0.08963
939.00 0.08959
939.10 0.08955
939.20 0.08951
939.30 0.08948
939.40 0.08944
939.50 0.0894
939.60 0.08936
939.70 0.08932
939.80 0.08928
939.90 0.08925
940.00 0.08921
940.10 0.08917
940.20 0.08913
940.30 0.08909
940.40 0.08905
940.50 0.08901
940.60 0.08897
940.70 0.08893
940.80 0.08889
940.90 0.08885
941.00 0.08881
941.10 0.08877
941.20 0.08873
941.30 0.08869
941.40 0.08865
941.50 0.08861
941.60 0.08857
941.70 0.08853
941.80 0.08849
941.90 0.08845
942.00 0.08842
942.10 0.08837
942.20 0.08833
942.30 0.08829
942.40 0.08825
942.50 0.08821
942.60 0.08817
942.70 0.08813
942.80 0.08809
942.90 0.08804
943.00 0.088
943.10 0.08796
943.20 0.08792
943.30 0.08788
943.40 0.08784
943.50 0.0878
943.60 0.08775
943.70 0.08771
943.80 0.08767
943.90 0.08763
944.00 0.08759
944.10 0.08755
944.20 0.08751
944.30 0.08746
944.40 0.08742
944.50 0.08738
944.60 0.08734
944.70 0.08729
944.80 0.08725
944.90 0.08721
945.00 0.08716
945.10 0.08712
945.20 0.08708
945.30 0.08704
945.40 0.08699
945.50 0.08695
945.60 0.0869
945.70 0.08686
945.80 0.08681
945.90 0.08677
946.00 0.08673
946.10 0.08668
946.20 0.08664
946.30 0.08659
946.40 0.08655
946.50 0.0865
946.60 0.08646
946.70 0.08642
946.80 0.08637
946.90 0.08633
947.00 0.08628
947.10 0.08624
947.20 0.08619
947.30 0.08615
947.40 0.0861
947.50 0.08606
947.60 0.08601
947.70 0.08596
947.80 0.08592
947.90 0.08587
948.00 0.08582
948.10 0.08578
948.20 0.08573
948.30 0.08568
948.40 0.08564
948.50 0.08559
948.60 0.08555
948.70 0.0855
948.80 0.08545
948.90 0.08541
949.00 0.08536
949.10 0.08531
949.20 0.08527
949.30 0.08522
949.40 0.08517
949.50 0.08513
949.60 0.08508
949.70 0.08503
949.80 0.08498
949.90 0.08493
950.00 0.08488
950.10 0.08484
950.20 0.08479
950.30 0.08474
950.40 0.08469
950.50 0.08465
950.60 0.0846
950.70 0.08455
950.80 0.0845
950.90 0.08445
951.00 0.08441
951.10 0.08436
951.20 0.08431
951.30 0.08426
951.40 0.08421
951.50 0.08417
951.60 0.08412
951.70 0.08407
951.80 0.08402
951.90 0.08397
952.00 0.08393
952.10 0.08388
952.20 0.08383
952.30 0.08378
952.40 0.08374
952.50 0.08369
952.60 0.08364
952.70 0.0836
952.80 0.08355
952.90 0.08351
953.00 0.08346
953.10 0.08342
953.20 0.08337
953.30 0.08333
953.40 0.08328
953.50 0.08324
953.60 0.0832
953.70 0.08316
953.80 0.08311
953.90 0.08307
954.00 0.08304
954.10 0.083
954.20 0.08296
954.30 0.08293
954.40 0.0829
954.50 0.08287
954.60 0.08283
954.70 0.0828
954.80 0.08277
954.90 0.08274
955.00 0.0827
955.10 0.08267
955.20 0.08265
955.30 0.08262
955.40 0.08259
955.50 0.08257
955.60 0.08254
955.70 0.08252
955.80 0.08249
955.90 0.08247
956.00 0.08245
956.10 0.08243
956.20 0.08241
956.30 0.08239
956.40 0.08237
956.50 0.08235
956.60 0.08233
956.70 0.08231
956.80 0.08229
956.90 0.08227
957.00 0.08225
957.10 0.08223
957.20 0.08221
957.30 0.0822
957.40 0.08218
957.50 0.08216
957.60 0.08214
957.70 0.08212
957.80 0.0821
957.90 0.08208
958.00 0.08206
958.10 0.08205
958.20 0.08203
958.30 0.08201
958.40 0.08199
958.50 0.08197
958.60 0.08195
958.70 0.08193
958.80 0.08192
958.90 0.0819
959.00 0.08188
959.10 0.08186
959.20 0.08184
959.30 0.08182
959.40 0.0818
959.50 0.08178
959.60 0.08176
959.70 0.08174
959.80 0.08172
959.90 0.0817
960.00 0.08168
960.10 0.08166
960.20 0.08164
960.30 0.08162
960.40 0.0816
960.50 0.08158
960.60 0.08156
960.70 0.08154
960.80 0.08152
960.90 0.0815
961.00 0.08148
961.10 0.08146
961.20 0.08144
961.30 0.08142
961.40 0.0814
961.50 0.08138
961.60 0.08135
961.70 0.08133
961.80 0.08131
961.90 0.08129
962.00 0.08127
962.10 0.08124
962.20 0.08122
962.30 0.0812
962.40 0.08118
962.50 0.08115
962.60 0.08113
962.70 0.08111
962.80 0.08108
962.90 0.08106
963.00 0.08104
963.10 0.08102
963.20 0.08099
963.30 0.08097
963.40 0.08095
963.50 0.08092
963.60 0.0809
963.70 0.08087
963.80 0.08085
963.90 0.08082
964.00 0.0808
964.10 0.08078
964.20 0.08075
964.30 0.08073
964.40 0.0807
964.50 0.08068
964.60 0.08065
964.70 0.08063
964.80 0.0806
964.90 0.08058
965.00 0.08055
965.10 0.08052
965.20 0.0805
965.30 0.08047
965.40 0.08045
965.50 0.08042
965.60 0.0804
965.70 0.08037
965.80 0.08035
965.90 0.08032
966.00 0.0803
966.10 0.08027
966.20 0.08024
966.30 0.08022
966.40 0.08019
966.50 0.08017
966.60 0.08014
966.70 0.08011
966.80 0.08009
966.90 0.08006
967.00 0.08003
967.10 0.08001
967.20 0.07998
967.30 0.07995
967.40 0.07992
967.50 0.0799
967.60 0.07987
967.70 0.07984
967.80 0.07982
967.90 0.07979
968.00 0.07976
968.10 0.07973
968.20 0.07971
968.30 0.07968
968.40 0.07965
968.50 0.07962
968.60 0.0796
968.70 0.07957
968.80 0.07954
968.90 0.07951
969.00 0.07948
969.10 0.07946
969.20 0.07943
969.30 0.0794
969.40 0.07937
969.50 0.07934
969.60 0.07932
969.70 0.07929
969.80 0.07926
969.90 0.07923
970.00 0.0792
970.10 0.07918
970.20 0.07915
970.30 0.07912
970.40 0.07909
970.50 0.07906
970.60 0.07903
970.70 0.079
970.80 0.07898
970.90 0.07895
971.00 0.07892
971.10 0.07889
971.20 0.07886
971.30 0.07883
971.40 0.0788
971.50 0.07877
971.60 0.07875
971.70 0.07872
971.80 0.07869
971.90 0.07866
972.00 0.07863
972.10 0.0786
972.20 0.07857
972.30 0.07854
972.40 0.07851
972.50 0.07848
972.60 0.07845
972.70 0.07842
972.80 0.0784
972.90 0.07837
973.00 0.07834
973.10 0.07831
973.20 0.07828
973.30 0.07825
973.40 0.07822
973.50 0.07819
973.60 0.07816
973.70 0.07813
973.80 0.0781
973.90 0.07807
974.00 0.07804
974.10 0.07801
974.20 0.07799
974.30 0.07796
974.40 0.07793
974.50 0.0779
974.60 0.07787
974.70 0.07784
974.80 0.07781
974.90 0.07778
975.00 0.07775
975.10 0.07772
975.20 0.07769
975.30 0.07766
975.40 0.07763
975.50 0.0776
975.60 0.07757
975.70 0.07754
975.80 0.07751
975.90 0.07748
976.00 0.07745
976.10 0.07742
976.20 0.07739
976.30 0.07736
976.40 0.07733
976.50 0.0773
976.60 0.07727
976.70 0.07724
976.80 0.07721
976.90 0.07718
977.00 0.07715
977.10 0.07712
977.20 0.07709
977.30 0.07706
977.40 0.07703
977.50 0.077
977.60 0.07697
977.70 0.07693
977.80 0.0769
977.90 0.07687
978.00 0.07684
978.10 0.07681
978.20 0.07678
978.30 0.07675
978.40 0.07672
978.50 0.07669
978.60 0.07666
978.70 0.07663
978.80 0.0766
978.90 0.07657
979.00 0.07654
979.10 0.07651
979.20 0.07648
979.30 0.07645
979.40 0.07642
979.50 0.07639
979.60 0.07636
979.70 0.07632
979.80 0.07629
979.90 0.07626
980.00 0.07623
980.10 0.0762
980.20 0.07617
980.30 0.07614
980.40 0.07611
980.50 0.07608
980.60 0.07605
980.70 0.07602
980.80 0.07599
980.90 0.07596
981.00 0.07593
981.10 0.0759
981.20 0.07587
981.30 0.07584
981.40 0.07581
981.50 0.07578
981.60 0.07575
981.70 0.07572
981.80 0.07569
981.90 0.07566
982.00 0.07563
982.10 0.0756
982.20 0.07557
982.30 0.07553
982.40 0.0755
982.50 0.07547
982.60 0.07544
982.70 0.07541
982.80 0.07538
982.90 0.07535
983.00 0.07532
983.10 0.07529
983.20 0.07525
983.30 0.07522
983.40 0.07519
983.50 0.07516
983.60 0.07513
983.70 0.0751
983.80 0.07507
983.90 0.07504
984.00 0.07501
984.10 0.07498
984.20 0.07494
984.30 0.07491
984.40 0.07488
984.50 0.07485
984.60 0.07482
984.70 0.07479
984.80 0.07476
984.90 0.07473
985.00 0.07469
985.10 0.07466
985.20 0.07463
985.30 0.0746
985.40 0.07457
985.50 0.07454
985.60 0.0745
985.70 0.07447
985.80 0.07444
985.90 0.07441
986.00 0.07438
986.10 0.07435
986.20 0.07431
986.30 0.07428
986.40 0.07425
986.50 0.07422
986.60 0.07419
986.70 0.07416
986.80 0.07412
986.90 0.07409
987.00 0.07406
987.10 0.07403
987.20 0.074
987.30 0.07396
987.40 0.07393
987.50 0.0739
987.60 0.07387
987.70 0.07383
987.80 0.0738
987.90 0.07377
988.00 0.07374
988.10 0.0737
988.20 0.07367
988.30 0.07364
988.40 0.07361
988.50 0.07358
988.60 0.07354
988.70 0.07351
988.80 0.07348
988.90 0.07344
989.00 0.07341
989.10 0.07338
989.20 0.07334
989.30 0.07331
989.40 0.07328
989.50 0.07324
989.60 0.07321
989.70 0.07318
989.80 0.07314
989.90 0.07311
990.00 0.07308
990.10 0.07304
990.20 0.07301
990.30 0.07298
990.40 0.07294
990.50 0.07291
990.60 0.07288
990.70 0.07284
990.80 0.07281
990.90 0.07277
991.00 0.07274
991.10 0.0727
991.20 0.07267
991.30 0.07263
991.40 0.0726
991.50 0.07257
991.60 0.07253
991.70 0.0725
991.80 0.07246
991.90 0.07243
992.00 0.07239
992.10 0.07236
992.20 0.07232
992.30 0.07229
992.40 0.07225
992.50 0.07222
992.60 0.07218
992.70 0.07214
992.80 0.07211
992.90 0.07207
993.00 0.07203
993.10 0.072
993.20 0.07196
993.30 0.07192
993.40 0.07188
993.50 0.07185
993.60 0.07181
993.70 0.07177
993.80 0.07174
993.90 0.0717
994.00 0.07166
994.10 0.07162
994.20 0.07159
994.30 0.07155
994.40 0.07151
994.50 0.07148
994.60 0.07144
994.70 0.0714
994.80 0.07136
994.90 0.07132
995.00 0.07128
995.10 0.07124
995.20 0.07121
995.30 0.07117
995.40 0.07113
995.50 0.07109
995.60 0.07105
995.70 0.07101
995.80 0.07097
995.90 0.07092
996.00 0.07088
996.10 0.07084
996.20 0.0708
996.30 0.07076
996.40 0.07072
996.50 0.07068
996.60 0.07064
996.70 0.07059
996.80 0.07055
996.90 0.07051
997.00 0.07047
997.10 0.07043
997.20 0.07038
997.30 0.07034
997.40 0.0703
997.50 0.07025
997.60 0.07021
997.70 0.07016
997.80 0.07012
997.90 0.07007
998.00 0.07002
998.10 0.06998
998.20 0.06993
998.30 0.06988
998.40 0.06984
998.50 0.06979
998.60 0.06974
998.70 0.0697
998.80 0.06965
998.90 0.0696
999.00 0.06956
999.10 0.06951
999.20 0.06946
999.30 0.06942
999.40 0.06937
999.50 0.06932
999.60 0.06928
999.70 0.06923
999.80 0.06917
999.90 0.06912
1000.00 0.06907
1000.10 0.06902
1000.20 0.06896
1000.30 0.06891
1000.40 0.06886
1000.50 0.06881
1000.60 0.06875
1000.70 0.0687
1000.80 0.06865
1000.90 0.0686
1001.00 0.06854
1001.10 0.06849
1001.20 0.06844
1001.30 0.06839
1001.40 0.06833
1001.50 0.06828
1001.60 0.06823
1001.70 0.06818
1001.80 0.06812
1001.90 0.06807
1002.00 0.06801
1002.10 0.06796
1002.20 0.06791
1002.30 0.06785
1002.40 0.0678
1002.50 0.06775
1002.60 0.06769
1002.70 0.06764
1002.80 0.06759
1002.90 0.06753
1003.00 0.06748
1003.10 0.06743
1003.20 0.06738
1003.30 0.06734
1003.40 0.06729
1003.50 0.06724
1003.60 0.0672
1003.70 0.06715
1003.80 0.06711
1003.90 0.06707
1004.00 0.06704
1004.10 0.06701
1004.20 0.06699
1004.30 0.06697
1004.40 0.06696
1004.50 0.06695
1004.60 0.06696
1004.70 0.06698
1004.80 0.067
1004.90 0.06698
1005.00 0.06696
1005.10 0.06691
1005.20 0.06685
1005.30 0.06678
1005.40 0.06672
1005.50 0.06669
1005.60 0.06666
1005.70 0.06664
1005.80 0.06661
1005.90 0.06659
1006.00 0.06656
1006.10 0.06653
1006.20 0.06653
1006.30 0.06652
1006.40 0.06652
1006.50 0.06652
1006.60 0.06651
1006.70 0.06651
1006.80 0.06651
1006.90 0.06651
1007.00 0.0665
1007.10 0.06651
1007.20 0.06651
1007.30 0.06651
1007.40 0.06651
1007.50 0.06651
1007.60 0.06652
1007.70 0.06652
1007.80 0.06652
1007.90 0.06652
1008.00 0.06652
1008.10 0.06652
1008.20 0.06652
1008.30 0.06652
1008.40 0.06652
1008.50 0.06652
1008.60 0.06652
1008.70 0.06653
1008.80 0.06653
1008.90 0.06653
1009.00 0.06653
1009.10 0.06653
1009.20 0.06653
1009.30 0.06653
1009.40 0.06653
1009.50 0.06653
1009.60 0.06653
1009.70 0.06653
1009.80 0.06652
1009.90 0.06652
1010.00 0.06651
1010.10 0.06651
1010.20 0.0665
1010.30 0.0665
1010.40 0.0665
1010.50 0.06649
1010.60 0.06649
1010.70 0.06648
1010.80 0.06648
1010.90 0.06647
1011.00 0.06647
1011.10 0.06646
1011.20 0.06646
1011.30 0.06645
1011.40 0.06645
1011.50 0.06644
1011.60 0.06644
1011.70 0.06643
1011.80 0.06642
1011.90 0.06641
1012.00 0.0664
1012.10 0.06639
1012.20 0.06638
1012.30 0.06637
1012.40 0.06636
1012.50 0.06635
1012.60 0.06634
1012.70 0.06633
1012.80 0.06632
1012.90 0.06631
1013.00 0.0663
1013.10 0.06629
1013.20 0.06628
1013.30 0.06626
1013.40 0.06625
1013.50 0.06624
1013.60 0.06623
1013.70 0.06622
1013.80 0.06621
1013.90 0.06619
1014.00 0.06618
1014.10 0.06616
1014.20 0.06615
1014.30 0.06614
1014.40 0.06612
1014.50 0.06611
1014.60 0.0661
1014.70 0.06608
1014.80 0.06606
1014.90 0.06605
1015.00 0.06603
1015.10 0.06602
1015.20 0.066
1015.30 0.06598
1015.40 0.06597
1015.50 0.06595
1015.60 0.06594
1015.70 0.06592
1015.80 0.0659
1015.90 0.06589
1016.00 0.06587
1016.10 0.06586
1016.20 0.06584
1016.30 0.06582
1016.40 0.06581
1016.50 0.06579
1016.60 0.06577
1016.70 0.06576
1016.80 0.06574
1016.90 0.06572
1017.00 0.0657
1017.10 0.06569
1017.20 0.06567
1017.30 0.06565
1017.40 0.06563
1017.50 0.06561
1017.60 0.06559
1017.70 0.06557
1017.80 0.06555
1017.90 0.06554
1018.00 0.06552
1018.10 0.0655
1018.20 0.06548
1018.30 0.06546
1018.40 0.06544
1018.50 0.06542
1018.60 0.0654
1018.70 0.06538
1018.80 0.06536
1018.90 0.06534
1019.00 0.06532
1019.10 0.0653
1019.20 0.06528
1019.30 0.06526
1019.40 0.06524
1019.50 0.06522
1019.60 0.0652
1019.70 0.06518
1019.80 0.06516
1019.90 0.06514
1020.00 0.06512
1020.10 0.0651
1020.20 0.06508
1020.30 0.06506
1020.40 0.06504
1020.50 0.06502
1020.60 0.065
1020.70 0.06498
1020.80 0.06496
1020.90 0.06494
1021.00 0.06491
1021.10 0.06489
1021.20 0.06487
1021.30 0.06485
1021.40 0.06483
1021.50 0.06481
1021.60 0.06479
1021.70 0.06477
1021.80 0.06475
1021.90 0.06472
1022.00 0.0647
1022.10 0.06468
1022.20 0.06466
1022.30 0.06464
1022.40 0.06462
1022.50 0.06459
1022.60 0.06457
1022.70 0.06455
1022.80 0.06453
1022.90 0.06451
1023.00 0.06448
1023.10 0.06446
1023.20 0.06444
1023.30 0.06442
1023.40 0.0644
1023.50 0.06437
1023.60 0.06435
1023.70 0.06433
1023.80 0.06431
1023.90 0.06429
1024.00 0.06426
1024.10 0.06424
1024.20 0.06422
1024.30 0.0642
1024.40 0.06418
1024.50 0.06415
1024.60 0.06413
1024.70 0.06411
1024.80 0.06409
1024.90 0.06407
1025.00 0.06404
1025.10 0.06402
1025.20 0.064
1025.30 0.06398
1025.40 0.06395
1025.50 0.06393
1025.60 0.06391
1025.70 0.06389
1025.80 0.06386
1025.90 0.06384
1026.00 0.06382
1026.10 0.0638
1026.20 0.06377
1026.30 0.06375
1026.40 0.06373
1026.50 0.06371
1026.60 0.06368
1026.70 0.06366
1026.80 0.06364
1026.90 0.06362
1027.00 0.06359
1027.10 0.06357
1027.20 0.06355
1027.30 0.06352
1027.40 0.0635
1027.50 0.06348
1027.60 0.06346
1027.70 0.06343
1027.80 0.06341
1027.90 0.06339
1028.00 0.06336
1028.10 0.06334
1028.20 0.06332
1028.30 0.0633
1028.40 0.06327
1028.50 0.06325
1028.60 0.06323
1028.70 0.0632
1028.80 0.06318
1028.90 0.06316
1029.00 0.06314
1029.10 0.06311
1029.20 0.06309
1029.30 0.06307
1029.40 0.06304
1029.50 0.06302
1029.60 0.063
1029.70 0.06298
1029.80 0.06295
1029.90 0.06293
1030.00 0.06291
1030.10 0.06289
1030.20 0.06286
1030.30 0.06284
1030.40 0.06282
1030.50 0.06279
1030.60 0.06277
1030.70 0.06275
1030.80 0.06273
1030.90 0.0627
1031.00 0.06268
1031.10 0.06266
1031.20 0.06264
1031.30 0.06261
1031.40 0.06259
1031.50 0.06257
1031.60 0.06254
1031.70 0.06252
1031.80 0.0625
1031.90 0.06248
1032.00 0.06245
1032.10 0.06243
1032.20 0.06241
1032.30 0.06239
1032.40 0.06236
1032.50 0.06234
1032.60 0.06232
1032.70 0.06229
1032.80 0.06227
1032.90 0.06225
1033.00 0.06223
1033.10 0.0622
1033.20 0.06218
1033.30 0.06216
1033.40 0.06213
1033.50 0.06211
1033.60 0.06209
1033.70 0.06207
1033.80 0.06204
1033.90 0.06202
1034.00 0.062
1034.10 0.06197
1034.20 0.06195
1034.30 0.06193
1034.40 0.06191
1034.50 0.06188
1034.60 0.06186
1034.70 0.06184
1034.80 0.06181
1034.90 0.06179
1035.00 0.06177
1035.10 0.06175
1035.20 0.06172
1035.30 0.0617
1035.40 0.06168
1035.50 0.06166
1035.60 0.06163
1035.70 0.06161
1035.80 0.06159
1035.90 0.06156
1036.00 0.06154
1036.10 0.06152
1036.20 0.0615
1036.30 0.06147
1036.40 0.06145
1036.50 0.06143
1036.60 0.06141
1036.70 0.06138
1036.80 0.06136
1036.90 0.06134
1037.00 0.06132
1037.10 0.06129
1037.20 0.06127
1037.30 0.06125
1037.40 0.06123
1037.50 0.0612
1037.60 0.06118
1037.70 0.06116
1037.80 0.06113
1037.90 0.06111
1038.00 0.06109
1038.10 0.06107
1038.20 0.06104
1038.30 0.06102
1038.40 0.061
1038.50 0.06098
1038.60 0.06095
1038.70 0.06093
1038.80 0.06091
1038.90 0.06089
1039.00 0.06086
1039.10 0.06084
1039.20 0.06082
1039.30 0.0608
1039.40 0.06077
1039.50 0.06075
1039.60 0.06073
1039.70 0.06071
1039.80 0.06068
1039.90 0.06066
1040.00 0.06064
1040.10 0.06062
1040.20 0.06059
1040.30 0.06057
1040.40 0.06055
1040.50 0.06053
1040.60 0.0605
1040.70 0.06048
1040.80 0.06046
1040.90 0.06044
1041.00 0.06041
1041.10 0.06039
1041.20 0.06037
1041.30 0.06035
1041.40 0.06033
1041.50 0.0603
1041.60 0.06028
1041.70 0.06026
1041.80 0.06024
1041.90 0.06021
1042.00 0.06019
1042.10 0.06017
1042.20 0.06015
1042.30 0.06012
1042.40 0.0601
1042.50 0.06008
1042.60 0.06006
1042.70 0.06004
1042.80 0.06001
1042.90 0.05999
1043.00 0.05997
1043.10 0.05995
1043.20 0.05992
1043.30 0.0599
1043.40 0.05988
1043.50 0.05986
1043.60 0.05983
1043.70 0.05981
1043.80 0.05979
1043.90 0.05977
1044.00 0.05975
1044.10 0.05972
1044.20 0.0597
1044.30 0.05968
1044.40 0.05966
1044.50 0.05964
1044.60 0.05961
1044.70 0.05959
1044.80 0.05957
1044.90 0.05955
1045.00 0.05952
1045.10 0.0595
1045.20 0.05948
1045.30 0.05946
1045.40 0.05944
1045.50 0.05941
1045.60 0.05939
1045.70 0.05937
1045.80 0.05935
1045.90 0.05933
1046.00 0.0593
1046.10 0.05928
1046.20 0.05926
1046.30 0.05924
1046.40 0.05922
1046.50 0.05919
1046.60 0.05917
1046.70 0.05915
1046.80 0.05913
1046.90 0.05911
1047.00 0.05908
1047.10 0.05906
1047.20 0.05904
1047.30 0.05902
1047.40 0.059
1047.50 0.05897
1047.60 0.05895
1047.70 0.05893
1047.80 0.05891
1047.90 0.05889
1048.00 0.05886
1048.10 0.05884
1048.20 0.05882
1048.30 0.0588
1048.40 0.05878
1048.50 0.05876
1048.60 0.05873
1048.70 0.05871
1048.80 0.05869
1048.90 0.05867
1049.00 0.05865
1049.10 0.05862
1049.20 0.0586
1049.30 0.05858
1049.40 0.05856
1049.50 0.05854
1049.60 0.05852
1049.70 0.05849
1049.80 0.05847
1049.90 0.05845
1050.00 0.05843
1050.10 0.05841
1050.20 0.05839
1050.30 0.05836
1050.40 0.05834
1050.50 0.05832
1050.60 0.0583
1050.70 0.05828
1050.80 0.05826
1050.90 0.05823
1051.00 0.05821
1051.10 0.05819
1051.20 0.05817
1051.30 0.05815
1051.40 0.05813
1051.50 0.0581
1051.60 0.05808
1051.70 0.05806
1051.80 0.05804
1051.90 0.05802
1052.00 0.058
1052.10 0.05797
1052.20 0.05795
1052.30 0.05793
1052.40 0.05791
1052.50 0.05789
1052.60 0.05787
1052.70 0.05785
1052.80 0.05782
1052.90 0.0578
1053.00 0.05778
1053.10 0.05776
1053.20 0.05774
1053.30 0.05772
1053.40 0.0577
1053.50 0.05767
1053.60 0.05765
1053.70 0.05763
1053.80 0.05761
1053.90 0.05759
1054.00 0.05757
1054.10 0.05755
1054.20 0.05752
1054.30 0.0575
1054.40 0.05748
1054.50 0.05746
1054.60 0.05744
1054.70 0.05742
1054.80 0.0574
1054.90 0.05737
1055.00 0.05735
1055.10 0.05733
1055.20 0.05731
1055.30 0.05729
1055.40 0.05727
1055.50 0.05725
1055.60 0.05722
1055.70 0.0572
1055.80 0.05718
1055.90 0.05716
1056.00 0.05714
1056.10 0.05712
1056.20 0.0571
1056.30 0.05708
1056.40 0.05705
1056.50 0.05703
1056.60 0.05701
1056.70 0.05699
1056.80 0.05697
1056.90 0.05695
1057.00 0.05693
1057.10 0.05691
1057.20 0.05688
1057.30 0.05686
1057.40 0.05684
1057.50 0.05682
1057.60 0.0568
1057.70 0.05678
1057.80 0.05676
1057.90 0.05674
1058.00 0.05672
1058.10 0.05669
1058.20 0.05667
1058.30 0.05665
1058.40 0.05663
1058.50 0.05661
1058.60 0.05659
1058.70 0.05657
1058.80 0.05655
1058.90 0.05653
1059.00 0.0565
1059.10 0.05648
1059.20 0.05646
1059.30 0.05644
1059.40 0.05642
1059.50 0.0564
1059.60 0.05638
1059.70 0.05636
1059.80 0.05634
1059.90 0.05631
1060.00 0.05629
1060.10 0.05627
1060.20 0.05625
1060.30 0.05623
1060.40 0.05621
1060.50 0.05619
1060.60 0.05617
1060.70 0.05615
1060.80 0.05613
1060.90 0.0561
1061.00 0.05608
1061.10 0.05606
1061.20 0.05604
1061.30 0.05602
1061.40 0.056
1061.50 0.05598
1061.60 0.05596
1061.70 0.05594
1061.80 0.05592
1061.90 0.0559
1062.00 0.05587
1062.10 0.05585
1062.20 0.05583
1062.30 0.05581
1062.40 0.05579
1062.50 0.05577
1062.60 0.05575
1062.70 0.05573
1062.80 0.05571
1062.90 0.05569
1063.00 0.05566
1063.10 0.05564
1063.20 0.05562
1063.30 0.0556
1063.40 0.05558
1063.50 0.05556
1063.60 0.05554
1063.70 0.05552
1063.80 0.0555
1063.90 0.05548
1064.00 0.05546
1064.10 0.05543
1064.20 0.05541
1064.30 0.05539
1064.40 0.05537
1064.50 0.05535
1064.60 0.05533
1064.70 0.05531
1064.80 0.05529
1064.90 0.05527
1065.00 0.05525
1065.10 0.05523
1065.20 0.05521
1065.30 0.05518
1065.40 0.05516
1065.50 0.05514
1065.60 0.05512
1065.70 0.0551
1065.80 0.05508
1065.90 0.05506
1066.00 0.05504
1066.10 0.05502
1066.20 0.055
1066.30 0.05498
1066.40 0.05496
1066.50 0.05494
1066.60 0.05492
1066.70 0.05489
1066.80 0.05487
1066.90 0.05485
1067.00 0.05483
1067.10 0.05481
1067.20 0.05479
1067.30 0.05477
1067.40 0.05475
1067.50 0.05473
1067.60 0.05471
1067.70 0.05469
1067.80 0.05466
1067.90 0.05464
1068.00 0.05462
1068.10 0.0546
1068.20 0.05458
1068.30 0.05456
1068.40 0.05454
1068.50 0.05452
1068.60 0.0545
1068.70 0.05448
1068.80 0.05445
1068.90 0.05443
1069.00 0.05441
1069.10 0.05439
1069.20 0.05437
1069.30 0.05435
1069.40 0.05433
1069.50 0.05431
1069.60 0.05429
1069.70 0.05427
1069.80 0.05425
1069.90 0.05422
1070.00 0.0542
1070.10 0.05418
1070.20 0.05416
1070.30 0.05414
1070.40 0.05412
1070.50 0.0541
1070.60 0.05408
1070.70 0.05406
1070.80 0.05404
1070.90 0.05402
1071.00 0.054
1071.10 0.05397
1071.20 0.05395
1071.30 0.05393
1071.40 0.05391
1071.50 0.05389
1071.60 0.05387
1071.70 0.05385
1071.80 0.05383
1071.90 0.05381
1072.00 0.05379
1072.10 0.05377
1072.20 0.05375
1072.30 0.05372
1072.40 0.0537
1072.50 0.05368
1072.60 0.05366
1072.70 0.05364
1072.80 0.05362
1072.90 0.0536
1073.00 0.05358
1073.10 0.05355
1073.20 0.05353
1073.30 0.05351
1073.40 0.05349
1073.50 0.05347
1073.60 0.05345
1073.70 0.05343
1073.80 0.0534
1073.90 0.05338
1074.00 0.05336
1074.10 0.05334
1074.20 0.05332
1074.30 0.0533
1074.40 0.05327
1074.50 0.05325
1074.60 0.05323
1074.70 0.05321
1074.80 0.05319
1074.90 0.05316
1075.00 0.05314
1075.10 0.05312
1075.20 0.0531
1075.30 0.05308
1075.40 0.05306
1075.50 0.05303
1075.60 0.05301
1075.70 0.05299
1075.80 0.05297
1075.90 0.05295
1076.00 0.05293
1076.10 0.0529
1076.20 0.05288
1076.30 0.05286
1076.40 0.05284
1076.50 0.05282
1076.60 0.0528
1076.70 0.05277
1076.80 0.05275
1076.90 0.05273
1077.00 0.05271
1077.10 0.05269
1077.20 0.05266
1077.30 0.05264
1077.40 0.05262
1077.50 0.0526
1077.60 0.05257
1077.70 0.05255
1077.80 0.05253
1077.90 0.05251
1078.00 0.05248
1078.10 0.05246
1078.20 0.05244
1078.30 0.05241
1078.40 0.05239
1078.50 0.05237
1078.60 0.05234
1078.70 0.05232
1078.80 0.0523
1078.90 0.05227
1079.00 0.05225
1079.10 0.05223
1079.20 0.05221
1079.30 0.05218
1079.40 0.05216
1079.50 0.05214
1079.60 0.05211
1079.70 0.05209
1079.80 0.05206
1079.90 0.05204
1080.00 0.05201
1080.10 0.05199
1080.20 0.05196
1080.30 0.05194
1080.40 0.05192
1080.50 0.05189
1080.60 0.05187
1080.70 0.05184
1080.80 0.05182
1080.90 0.05179
1081.00 0.05177
1081.10 0.05174
1081.20 0.05172
1081.30 0.05169
1081.40 0.05167
1081.50 0.05165
1081.60 0.05162
1081.70 0.05159
1081.80 0.05157
1081.90 0.05154
1082.00 0.05152
1082.10 0.05149
1082.20 0.05146
1082.30 0.05143
1082.40 0.05141
1082.50 0.05138
1082.60 0.05135
1082.70 0.05133
1082.80 0.0513
1082.90 0.05127
1083.00 0.05124
1083.10 0.05122
1083.20 0.05119
1083.30 0.05116
1083.40 0.05114
1083.50 0.05111
1083.60 0.05108
1083.70 0.05105
1083.80 0.05102
1083.90 0.05099
1084.00 0.05096
1084.10 0.05093
1084.20 0.0509
1084.30 0.05088
1084.40 0.05085
1084.50 0.05082
1084.60 0.05078
1084.70 0.05075
1084.80 0.05072
1084.90 0.05069
1085.00 0.05065
1085.10 0.05062
1085.20 0.05059
1085.30 0.05056
1085.40 0.05052
1085.50 0.05049
1085.60 0.05046
1085.70 0.05043
1085.80 0.05039
1085.90 0.05036
1086.00 0.05033
1086.10 0.0503
1086.20 0.05026
1086.30 0.05023
1086.40 0.0502
1086.50 0.05017
1086.60 0.05013
1086.70 0.05009
1086.80 0.05006
1086.90 0.05002
1087.00 0.04999
1087.10 0.04995
1087.20 0.04991
1087.30 0.04987
1087.40 0.04983
1087.50 0.04979
1087.60 0.04975
1087.70 0.04971
1087.80 0.04967
1087.90 0.04964
1088.00 0.0496
1088.10 0.04956
1088.20 0.04952
1088.30 0.04948
1088.40 0.04944
1088.50 0.0494
1088.60 0.04936
1088.70 0.04931
1088.80 0.04927
1088.90 0.04922
1089.00 0.04918
1089.10 0.04913
1089.20 0.04909
1089.30 0.04904
1089.40 0.049
1089.50 0.04895
1089.60 0.04891
1089.70 0.04887
1089.80 0.04882
1089.90 0.04878
1090.00 0.04873
1090.10 0.04869
1090.20 0.04864
1090.30 0.0486
1090.40 0.04855
1090.50 0.04851
1090.60 0.04846
1090.70 0.04842
1090.80 0.04837
1090.90 0.04832
1091.00 0.04828
1091.10 0.04823
1091.20 0.04819
1091.30 0.04814
1091.40 0.04809
1091.50 0.04805
1091.60 0.048
1091.70 0.04795
1091.80 0.04791
1091.90 0.04786
1092.00 0.04782
1092.10 0.04778
1092.20 0.04774
1092.30 0.04769
1092.40 0.04765
1092.50 0.04761
1092.60 0.04757
1092.70 0.04754
1092.80 0.0475
1092.90 0.04747
1093.00 0.04744
1093.10 0.0474
1093.20 0.04737
1093.30 0.04735
1093.40 0.04732
1093.50 0.0473
1093.60 0.04729
1093.70 0.0473
1093.80 0.04731
1093.90 0.0473
1094.00 0.04727
1094.10 0.04724
1094.20 0.04721
1094.30 0.04718
1094.40 0.04718
1094.50 0.04718
1094.60 0.04718
1094.70 0.04718
1094.80 0.04718
1094.90 0.04718
1095.00 0.04718
1095.10 0.04719
1095.20 0.0472
1095.30 0.04721
1095.40 0.04722
1095.50 0.04723
1095.60 0.04724
1095.70 0.04725
1095.80 0.04726
1095.90 0.04727
1096.00 0.04728
1096.10 0.04729
1096.20 0.0473
1096.30 0.04731
1096.40 0.04732
1096.50 0.04733
1096.60 0.04734
1096.70 0.04736
1096.80 0.04737
1096.90 0.04738
1097.00 0.0474
1097.10 0.04741
1097.20 0.04742
1097.30 0.04743
1097.40 0.04744
1097.50 0.04745
1097.60 0.04746
1097.70 0.04747
1097.80 0.04749
1097.90 0.0475
1098.00 0.04751
1098.10 0.04752
1098.20 0.04753
1098.30 0.04754
1098.40 0.04755
1098.50 0.04756
1098.60 0.04757
1098.70 0.04757
1098.80 0.04758
1098.90 0.04758
1099.00 0.04759
1099.10 0.04759
1099.20 0.0476
1099.30 0.0476
1099.40 0.04761
1099.50 0.04761
1099.60 0.04762
1099.70 0.04762
1099.80 0.04763
1099.90 0.04763
1100.00 0.04764
1100.10 0.04764
1100.20 0.04765
1100.30 0.04765
1100.40 0.04766
1100.50 0.04766
1100.60 0.04766
1100.70 0.04766
1100.80 0.04766
1100.90 0.04766
1101.00 0.04766
1101.10 0.04766
1101.20 0.04766
1101.30 0.04766
1101.40 0.04766
1101.50 0.04765
1101.60 0.04765
1101.70 0.04765
1101.80 0.04765
1101.90 0.04765
1102.00 0.04765
1102.10 0.04765
1102.20 0.04764
1102.30 0.04764
1102.40 0.04764
1102.50 0.04763
1102.60 0.04763
1102.70 0.04762
1102.80 0.04762
1102.90 0.04761
1103.00 0.04761
1103.10 0.0476
1103.20 0.04759
1103.30 0.04759
1103.40 0.04758
1103.50 0.04758
1103.60 0.04757
1103.70 0.04756
1103.80 0.04755
1103.90 0.04754
1104.00 0.04754
1104.10 0.04753
1104.20 0.04752
1104.30 0.04751
1104.40 0.0475
1104.50 0.0475
1104.60 0.04749
1104.70 0.04748
1104.80 0.04747
1104.90 0.04746
1105.00 0.04745
1105.10 0.04745
1105.20 0.04744
1105.30 0.04743
1105.40 0.04742
1105.50 0.04741
1105.60 0.0474
1105.70 0.04739
1105.80 0.04738
1105.90 0.04737
1106.00 0.04736
1106.10 0.04735
1106.20 0.04734
1106.30 0.04733
1106.40 0.04732
1106.50 0.04731
1106.60 0.0473
1106.70 0.04729
1106.80 0.04727
1106.90 0.04726
1107.00 0.04725
1107.10 0.04724
1107.20 0.04723
1107.30 0.04722
1107.40 0.04721
1107.50 0.0472
1107.60 0.04718
1107.70 0.04717
1107.80 0.04716
1107.90 0.04715
1108.00 0.04713
1108.10 0.04712
1108.20 0.04711
1108.30 0.04709
1108.40 0.04708
1108.50 0.04707
1108.60 0.04706
1108.70 0.04704
1108.80 0.04703
1108.90 0.04702
1109.00 0.04701
1109.10 0.04699
1109.20 0.04698
1109.30 0.04697
1109.40 0.04696
1109.50 0.04694
1109.60 0.04693
1109.70 0.04692
1109.80 0.0469
1109.90 0.04689
1110.00 0.04688
1110.10 0.04686
1110.20 0.04685
1110.30 0.04683
1110.40 0.04682
1110.50 0.04681
1110.60 0.04679
1110.70 0.04678
1110.80 0.04677
1110.90 0.04675
1111.00 0.04674
1111.10 0.04672
1111.20 0.04671
1111.30 0.0467
1111.40 0.04668
1111.50 0.04667
1111.60 0.04666
1111.70 0.04664
1111.80 0.04663
1111.90 0.04661
1112.00 0.0466
1112.10 0.04659
1112.20 0.04657
1112.30 0.04656
1112.40 0.04654
1112.50 0.04653
1112.60 0.04651
1112.70 0.0465
1112.80 0.04649
1112.90 0.04647
1113.00 0.04646
1113.10 0.04644
1113.20 0.04643
1113.30 0.04641
1113.40 0.0464
1113.50 0.04638
1113.60 0.04637
1113.70 0.04635
1113.80 0.04634
1113.90 0.04633
1114.00 0.04631
1114.10 0.0463
1114.20 0.04628
1114.30 0.04627
1114.40 0.04625
1114.50 0.04624
1114.60 0.04622
1114.70 0.04621
1114.80 0.04619
1114.90 0.04618
1115.00 0.04616
1115.10 0.04615
1115.20 0.04613
1115.30 0.04612
1115.40 0.0461
1115.50 0.04609
1115.60 0.04607
1115.70 0.04606
1115.80 0.04604
1115.90 0.04603
1116.00 0.04601
1116.10 0.046
1116.20 0.04598
1116.30 0.04597
1116.40 0.04595
1116.50 0.04594
1116.60 0.04592
1116.70 0.04591
1116.80 0.0459
1116.90 0.04588
1117.00 0.04587
1117.10 0.04585
1117.20 0.04584
1117.30 0.04582
1117.40 0.0458
1117.50 0.04579
1117.60 0.04577
1117.70 0.04576
1117.80 0.04574
1117.90 0.04573
1118.00 0.04571
1118.10 0.0457
1118.20 0.04568
1118.30 0.04567
1118.40 0.04565
1118.50 0.04564
1118.60 0.04562
1118.70 0.04561
1118.80 0.04559
1118.90 0.04558
1119.00 0.04556
1119.10 0.04555
1119.20 0.04553
1119.30 0.04552
1119.40 0.0455
1119.50 0.04549
1119.60 0.04547
1119.70 0.04546
1119.80 0.04544
1119.90 0.04543
1120.00 0.04541
1120.10 0.0454
1120.20 0.04538
1120.30 0.04537
1120.40 0.04535
1120.50 0.04533
1120.60 0.04532
1120.70 0.0453
1120.80 0.04529
1120.90 0.04527
1121.00 0.04526
1121.10 0.04524
1121.20 0.04523
1121.30 0.04521
1121.40 0.0452
1121.50 0.04518
1121.60 0.04517
1121.70 0.04515
1121.80 0.04514
1121.90 0.04512
1122.00 0.04511
1122.10 0.04509
1122.20 0.04508
1122.30 0.04506
1122.40 0.04505
1122.50 0.04503
1122.60 0.04502
1122.70 0.045
1122.80 0.04499
1122.90 0.04497
1123.00 0.04496
1123.10 0.04494
1123.20 0.04493
1123.30 0.04491
1123.40 0.0449
1123.50 0.04488
1123.60 0.04487
1123.70 0.04485
1123.80 0.04484
1123.90 0.04482
1124.00 0.04481
1124.10 0.04479
1124.20 0.04477
1124.30 0.04476
1124.40 0.04474
1124.50 0.04473
1124.60 0.04471
1124.70 0.0447
1124.80 0.04468
1124.90 0.04467
1125.00 0.04465
1125.10 0.04464
1125.20 0.04462
1125.30 0.04461
1125.40 0.04459
1125.50 0.04458
1125.60 0.04456
1125.70 0.04455
1125.80 0.04453
1125.90 0.04452
1126.00 0.0445
1126.10 0.04449
1126.20 0.04447
1126.30 0.04446
1126.40 0.04444
1126.50 0.04443
1126.60 0.04441
1126.70 0.0444
1126.80 0.04438
1126.90 0.04437
1127.00 0.04435
1127.10 0.04434
1127.20 0.04432
1127.30 0.04431
1127.40 0.04429
1127.50 0.04428
1127.60 0.04426
1127.70 0.04425
1127.80 0.04423
1127.90 0.04422
1128.00 0.0442
1128.10 0.04419
1128.20 0.04417
1128.30 0.04416
1128.40 0.04414
1128.50 0.04413
1128.60 0.04411
1128.70 0.0441
1128.80 0.04408
1128.90 0.04407
1129.00 0.04405
1129.10 0.04404
1129.20 0.04402
1129.30 0.04401
1129.40 0.04399
1129.50 0.04398
1129.60 0.04396
1129.70 0.04395
1129.80 0.04393
1129.90 0.04392
1130.00 0.0439
1130.10 0.04389
1130.20 0.04387
1130.30 0.04386
1130.40 0.04384
1130.50 0.04383
1130.60 0.04381
1130.70 0.0438
1130.80 0.04378
1130.90 0.04377
1131.00 0.04375
1131.10 0.04374
1131.20 0.04372
1131.30 0.04371
1131.40 0.04369
1131.50 0.04368
1131.60 0.04366
1131.70 0.04365
1131.80 0.04363
1131.90 0.04362
1132.00 0.0436
1132.10 0.04359
1132.20 0.04357
1132.30 0.04356
1132.40 0.04354
1132.50 0.04353
1132.60 0.04351
1132.70 0.0435
1132.80 0.04349
1132.90 0.04347
1133.00 0.04346
1133.10 0.04344
1133.20 0.04343
1133.30 0.04341
1133.40 0.0434
1133.50 0.04338
1133.60 0.04337
1133.70 0.04335
1133.80 0.04334
1133.90 0.04332
1134.00 0.04331
1134.10 0.04329
1134.20 0.04328
1134.30 0.04326
1134.40 0.04325
1134.50 0.04323
1134.60 0.04322
1134.70 0.0432
1134.80 0.04319
1134.90 0.04317
1135.00 0.04316
1135.10 0.04315
1135.20 0.04313
1135.30 0.04312
1135.40 0.0431
1135.50 0.04309
1135.60 0.04307
1135.70 0.04306
1135.80 0.04304
1135.90 0.04303
1136.00 0.04301
1136.10 0.043
1136.20 0.04298
1136.30 0.04297
1136.40 0.04295
1136.50 0.04294
1136.60 0.04293
1136.70 0.04291
1136.80 0.0429
1136.90 0.04288
1137.00 0.04287
1137.10 0.04285
1137.20 0.04284
1137.30 0.04282
1137.40 0.04281
1137.50 0.04279
1137.60 0.04278
1137.70 0.04276
1137.80 0.04275
1137.90 0.04274
1138.00 0.04272
1138.10 0.04271
1138.20 0.04269
1138.30 0.04268
1138.40 0.04266
1138.50 0.04265
1138.60 0.04263
1138.70 0.04262
1138.80 0.0426
1138.90 0.04259
1139.00 0.04258
1139.10 0.04256
1139.20 0.04255
1139.30 0.04253
1139.40 0.04252
1139.50 0.0425
1139.60 0.04249
1139.70 0.04247
1139.80 0.04246
1139.90 0.04245
1140.00 0.04243
1140.10 0.04242
1140.20 0.0424
1140.30 0.04239
1140.40 0.04237
1140.50 0.04236
1140.60 0.04234
1140.70 0.04233
1140.80 0.04232
1140.90 0.0423
1141.00 0.04229
1141.10 0.04227
1141.20 0.04226
1141.30 0.04224
1141.40 0.04223
1141.50 0.04221
1141.60 0.0422
1141.70 0.04219
1141.80 0.04217
1141.90 0.04216
1142.00 0.04214
1142.10 0.04213
1142.20 0.04211
1142.30 0.0421
1142.40 0.04209
1142.50 0.04207
1142.60 0.04206
1142.70 0.04204
1142.80 0.04203
1142.90 0.04201
1143.00 0.042
1143.10 0.04199
1143.20 0.04197
1143.30 0.04196
1143.40 0.04194
1143.50 0.04193
1143.60 0.04191
1143.70 0.0419
1143.80 0.04189
1143.90 0.04187
1144.00 0.04186
1144.10 0.04184
1144.20 0.04183
1144.30 0.04182
1144.40 0.0418
1144.50 0.04179
1144.60 0.04177
1144.70 0.04176
1144.80 0.04174
1144.90 0.04173
1145.00 0.04172
1145.10 0.0417
1145.20 0.04169
1145.30 0.04167
1145.40 0.04166
1145.50 0.04165
1145.60 0.04163
1145.70 0.04162
1145.80 0.0416
1145.90 0.04159
1146.00 0.04157
1146.10 0.04156
1146.20 0.04155
1146.30 0.04153
1146.40 0.04152
1146.50 0.0415
1146.60 0.04149
1146.70 0.04148
1146.80 0.04146
1146.90 0.04145
1147.00 0.04143
1147.10 0.04142
1147.20 0.04141
1147.30 0.04139
1147.40 0.04138
1147.50 0.04136
1147.60 0.04135
1147.70 0.04134
1147.80 0.04132
1147.90 0.04131
1148.00 0.04129
1148.10 0.04128
1148.20 0.04127
1148.30 0.04125
1148.40 0.04124
1148.50 0.04122
1148.60 0.04121
1148.70 0.0412
1148.80 0.04118
1148.90 0.04117
1149.00 0.04115
1149.10 0.04114
1149.20 0.04113
1149.30 0.04111
1149.40 0.0411
1149.50 0.04108
1149.60 0.04107
1149.70 0.04106
1149.80 0.04104
1149.90 0.04103
1150.00 0.04101
1150.10 0.041
1150.20 0.04099
1150.30 0.04097
1150.40 0.04096
1150.50 0.04095
1150.60 0.04093
1150.70 0.04092
1150.80 0.0409
1150.90 0.04089
1151.00 0.04088
1151.10 0.04086
1151.20 0.04085
1151.30 0.04083
1151.40 0.04082
1151.50 0.04081
1151.60 0.04079
1151.70 0.04078
1151.80 0.04077
1151.90 0.04075
1152.00 0.04074
1152.10 0.04072
1152.20 0.04071
1152.30 0.0407
1152.40 0.04068
1152.50 0.04067
1152.60 0.04066
1152.70 0.04064
1152.80 0.04063
1152.90 0.04061
1153.00 0.0406
1153.10 0.04059
1153.20 0.04057
1153.30 0.04056
1153.40 0.04055
1153.50 0.04053
1153.60 0.04052
1153.70 0.0405
1153.80 0.04049
1153.90 0.04048
1154.00 0.04046
1154.10 0.04045
1154.20 0.04044
1154.30 0.04042
1154.40 0.04041
1154.50 0.0404
1154.60 0.04038
1154.70 0.04037
1154.80 0.04035
1154.90 0.04034
1155.00 0.04033
1155.10 0.04031
1155.20 0.0403
1155.30 0.04029
1155.40 0.04027
1155.50 0.04026
1155.60 0.04025
1155.70 0.04023
1155.80 0.04022
1155.90 0.04021
1156.00 0.04019
1156.10 0.04018
1156.20 0.04016
1156.30 0.04015
1156.40 0.04014
1156.50 0.04012
1156.60 0.04011
1156.70 0.0401
1156.80 0.04008
1156.90 0.04007
1157.00 0.04006
1157.10 0.04004
1157.20 0.04003
1157.30 0.04002
1157.40 0.04
1157.50 0.03999
1157.60 0.03998
1157.70 0.03996
1157.80 0.03995
1157.90 0.03994
1158.00 0.03992
1158.10 0.03991
1158.20 0.0399
1158.30 0.03988
1158.40 0.03987
1158.50 0.03985
1158.60 0.03984
1158.70 0.03983
1158.80 0.03981
1158.90 0.0398
1159.00 0.03979
1159.10 0.03977
1159.20 0.03976
1159.30 0.03975
1159.40 0.03973
1159.50 0.03972
1159.60 0.03971
1159.70 0.03969
1159.80 0.03968
1159.90 0.03967
1160.00 0.03965
1160.10 0.03964
1160.20 0.03963
1160.30 0.03961
1160.40 0.0396
1160.50 0.03959
1160.60 0.03957
1160.70 0.03956
1160.80 0.03955
1160.90 0.03953
1161.00 0.03952
1161.10 0.03951
1161.20 0.03949
1161.30 0.03948
1161.40 0.03947
1161.50 0.03945
1161.60 0.03944
1161.70 0.03943
1161.80 0.03941
1161.90 0.0394
1162.00 0.03939
1162.10 0.03938
1162.20 0.03936
1162.30 0.03935
1162.40 0.03934
1162.50 0.03932
1162.60 0.03931
1162.70 0.0393
1162.80 0.03928
1162.90 0.03927
1163.00 0.03926
1163.10 0.03924
1163.20 0.03923
1163.30 0.03922
1163.40 0.0392
1163.50 0.03919
1163.60 0.03918
1163.70 0.03916
1163.80 0.03915
1163.90 0.03914
1164.00 0.03913
1164.10 0.03911
1164.20 0.0391
1164.30 0.03909
1164.40 0.03907
1164.50 0.03906
1164.60 0.03905
1164.70 0.03903
1164.80 0.03902
1164.90 0.03901
1165.00 0.03899
1165.10 0.03898
1165.20 0.03897
1165.30 0.03896
1165.40 0.03894
1165.50 0.03893
1165.60 0.03892
1165.70 0.0389
1165.80 0.03889
1165.90 0.03888
1166.00 0.03886
1166.10 0.03885
1166.20 0.03884
1166.30 0.03883
1166.40 0.03881
1166.50 0.0388
1166.60 0.03879
1166.70 0.03877
1166.80 0.03876
1166.90 0.03875
1167.00 0.03873
1167.10 0.03872
1167.20 0.03871
1167.30 0.0387
1167.40 0.03868
1167.50 0.03867
1167.60 0.03866
1167.70 0.03864
1167.80 0.03863
1167.90 0.03862
1168.00 0.03861
1168.10 0.03859
1168.20 0.03858
1168.30 0.03857
1168.40 0.03855
1168.50 0.03854
1168.60 0.03853
1168.70 0.03852
1168.80 0.0385
1168.90 0.03849
1169.00 0.03848
1169.10 0.03846
1169.20 0.03845
1169.30 0.03844
1169.40 0.03843
1169.50 0.03841
1169.60 0.0384
1169.70 0.03839
1169.80 0.03837
1169.90 0.03836
1170.00 0.03835
1170.10 0.03834
1170.20 0.03832
1170.30 0.03831
1170.40 0.0383
1170.50 0.03828
1170.60 0.03827
1170.70 0.03826
1170.80 0.03825
1170.90 0.03823
1171.00 0.03822
1171.10 0.03821
1171.20 0.0382
1171.30 0.03818
1171.40 0.03817
1171.50 0.03816
1171.60 0.03814
1171.70 0.03813
1171.80 0.03812
1171.90 0.03811
1172.00 0.03809
1172.10 0.03808
1172.20 0.03807
1172.30 0.03806
1172.40 0.03804
1172.50 0.03803
1172.60 0.03802
1172.70 0.038
1172.80 0.03799
1172.90 0.03798
1173.00 0.03797
1173.10 0.03795
1173.20 0.03794
1173.30 0.03793
1173.40 0.03792
1173.50 0.0379
1173.60 0.03789
1173.70 0.03788
1173.80 0.03787
1173.90 0.03785
1174.00 0.03784
1174.10 0.03783
1174.20 0.03782
1174.30 0.0378
1174.40 0.03779
1174.50 0.03778
1174.60 0.03777
1174.70 0.03775
1174.80 0.03774
1174.90 0.03773
1175.00 0.03772
1175.10 0.0377
1175.20 0.03769
1175.30 0.03768
1175.40 0.03767
1175.50 0.03765
1175.60 0.03764
1175.70 0.03763
1175.80 0.03762
1175.90 0.0376
1176.00 0.03759
1176.10 0.03758
1176.20 0.03757
1176.30 0.03755
1176.40 0.03754
1176.50 0.03753
1176.60 0.03752
1176.70 0.0375
1176.80 0.03749
1176.90 0.03748
1177.00 0.03747
1177.10 0.03745
1177.20 0.03744
1177.30 0.03743
1177.40 0.03742
1177.50 0.0374
1177.60 0.03739
1177.70 0.03738
1177.80 0.03737
1177.90 0.03735
1178.00 0.03734
1178.10 0.03733
1178.20 0.03732
1178.30 0.0373
1178.40 0.03729
1178.50 0.03728
1178.60 0.03727
1178.70 0.03726
1178.80 0.03724
1178.90 0.03723
1179.00 0.03722
1179.10 0.03721
1179.20 0.03719
1179.30 0.03718
1179.40 0.03717
1179.50 0.03716
1179.60 0.03714
1179.70 0.03713
1179.80 0.03712
1179.90 0.03711
1180.00 0.0371
1180.10 0.03708
1180.20 0.03707
1180.30 0.03706
1180.40 0.03705
1180.50 0.03703
1180.60 0.03702
1180.70 0.03701
1180.80 0.037
1180.90 0.03698
1181.00 0.03697
1181.10 0.03696
1181.20 0.03695
1181.30 0.03694
1181.40 0.03692
1181.50 0.03691
1181.60 0.0369
1181.70 0.03689
1181.80 0.03687
1181.90 0.03686
1182.00 0.03685
1182.10 0.03684
1182.20 0.03683
1182.30 0.03681
1182.40 0.0368
1182.50 0.03679
1182.60 0.03678
1182.70 0.03677
1182.80 0.03675
1182.90 0.03674
1183.00 0.03673
1183.10 0.03672
1183.20 0.03671
1183.30 0.03669
1183.40 0.03668
1183.50 0.03667
1183.60 0.03666
1183.70 0.03664
1183.80 0.03663
1183.90 0.03662
1184.00 0.03661
1184.10 0.0366
1184.20 0.03658
1184.30 0.03657
1184.40 0.03656
1184.50 0.03655
1184.60 0.03654
1184.70 0.03652
1184.80 0.03651
1184.90 0.0365
1185.00 0.03649
1185.10 0.03648
1185.20 0.03646
1185.30 0.03645
1185.40 0.03644
1185.50 0.03643
1185.60 0.03642
1185.70 0.0364
1185.80 0.03639
1185.90 0.03638
1186.00 0.03637
1186.10 0.03636
1186.20 0.03634
1186.30 0.03633
1186.40 0.03632
1186.50 0.03631
1186.60 0.0363
1186.70 0.03628
1186.80 0.03627
1186.90 0.03626
1187.00 0.03625
1187.10 0.03624
1187.20 0.03622
1187.30 0.03621
1187.40 0.0362
1187.50 0.03619
1187.60 0.03618
1187.70 0.03616
1187.80 0.03615
1187.90 0.03614
1188.00 0.03613
1188.10 0.03612
1188.20 0.03611
1188.30 0.03609
1188.40 0.03608
1188.50 0.03607
1188.60 0.03606
1188.70 0.03605
1188.80 0.03603
1188.90 0.03602
1189.00 0.03601
1189.10 0.036
1189.20 0.03599
1189.30 0.03598
1189.40 0.03596
1189.50 0.03595
1189.60 0.03594
1189.70 0.03593
1189.80 0.03592
1189.90 0.0359
1190.00 0.03589
1190.10 0.03588
1190.20 0.03587
1190.30 0.03586
1190.40 0.03585
1190.50 0.03583
1190.60 0.03582
1190.70 0.03581
1190.80 0.0358
1190.90 0.03579
1191.00 0.03577
1191.10 0.03576
1191.20 0.03575
1191.30 0.03574
1191.40 0.03573
1191.50 0.03572
1191.60 0.0357
1191.70 0.03569
1191.80 0.03568
1191.90 0.03567
1192.00 0.03566
1192.10 0.03565
1192.20 0.03563
1192.30 0.03562
1192.40 0.03561
1192.50 0.0356
1192.60 0.03559
1192.70 0.03558
1192.80 0.03556
1192.90 0.03555
1193.00 0.03554
1193.10 0.03553
1193.20 0.03552
1193.30 0.03551
1193.40 0.03549
1193.50 0.03548
1193.60 0.03547
1193.70 0.03546
1193.80 0.03545
1193.90 0.03544
1194.00 0.03542
1194.10 0.03541
1194.20 0.0354
1194.30 0.03539
1194.40 0.03538
1194.50 0.03537
1194.60 0.03536
1194.70 0.03534
1194.80 0.03533
1194.90 0.03532
1195.00 0.03531
1195.10 0.0353
1195.20 0.03529
1195.30 0.03527
1195.40 0.03526
1195.50 0.03525
1195.60 0.03524
1195.70 0.03523
1195.80 0.03522
1195.90 0.03521
1196.00 0.03519
1196.10 0.03518
1196.20 0.03517
1196.30 0.03516
1196.40 0.03515
1196.50 0.03514
1196.60 0.03512
1196.70 0.03511
1196.80 0.0351
1196.90 0.03509
1197.00 0.03508
1197.10 0.03507
1197.20 0.03506
1197.30 0.03504
1197.40 0.03503
1197.50 0.03502
1197.60 0.03501
1197.70 0.035
1197.80 0.03499
1197.90 0.03498
1198.00 0.03496
1198.10 0.03495
1198.20 0.03494
1198.30 0.03493
1198.40 0.03492
1198.50 0.03491
1198.60 0.0349
1198.70 0.03489
1198.80 0.03487
1198.90 0.03486
1199.00 0.03485
1199.10 0.03484
1199.20 0.03483
1199.30 0.03482
1199.40 0.03481
1199.50 0.03479
1199.60 0.03478
1199.70 0.03477
1199.80 0.03476
1199.90 0.03475
1200.00 0
