# Version 2.1 - nm, norm@500 to 1, cut digits, bergeron_14000_95.dat_14000
# Wavelength(nm)  Flambda(ergs/cm^s/s/nm)
300.00 2.691
300.10 2.689
300.20 2.687
300.30 2.685
300.40 2.683
300.50 2.681
300.60 2.68
300.70 2.678
300.80 2.676
300.90 2.674
301.00 2.672
301.10 2.67
301.20 2.668
301.30 2.666
301.40 2.664
301.50 2.662
301.60 2.661
301.70 2.659
301.80 2.657
301.90 2.655
302.00 2.653
302.10 2.651
302.20 2.649
302.30 2.647
302.40 2.645
302.50 2.643
302.60 2.642
302.70 2.64
302.80 2.638
302.90 2.636
303.00 2.634
303.10 2.632
303.20 2.63
303.30 2.628
303.40 2.627
303.50 2.625
303.60 2.623
303.70 2.621
303.80 2.619
303.90 2.617
304.00 2.615
304.10 2.614
304.20 2.612
304.30 2.61
304.40 2.608
304.50 2.606
304.60 2.604
304.70 2.602
304.80 2.601
304.90 2.599
305.00 2.597
305.10 2.595
305.20 2.593
305.30 2.591
305.40 2.59
305.50 2.588
305.60 2.586
305.70 2.584
305.80 2.582
305.90 2.58
306.00 2.579
306.10 2.577
306.20 2.575
306.30 2.573
306.40 2.571
306.50 2.569
306.60 2.568
306.70 2.566
306.80 2.564
306.90 2.562
307.00 2.56
307.10 2.558
307.20 2.557
307.30 2.555
307.40 2.553
307.50 2.551
307.60 2.549
307.70 2.548
307.80 2.546
307.90 2.544
308.00 2.542
308.10 2.54
308.20 2.539
308.30 2.537
308.40 2.535
308.50 2.533
308.60 2.531
308.70 2.53
308.80 2.528
308.90 2.526
309.00 2.524
309.10 2.523
309.20 2.521
309.30 2.519
309.40 2.517
309.50 2.515
309.60 2.514
309.70 2.512
309.80 2.51
309.90 2.508
310.00 2.507
310.10 2.505
310.20 2.503
310.30 2.501
310.40 2.499
310.50 2.498
310.60 2.496
310.70 2.494
310.80 2.492
310.90 2.491
311.00 2.489
311.10 2.487
311.20 2.485
311.30 2.484
311.40 2.482
311.50 2.48
311.60 2.478
311.70 2.476
311.80 2.475
311.90 2.473
312.00 2.471
312.10 2.469
312.20 2.468
312.30 2.466
312.40 2.464
312.50 2.463
312.60 2.461
312.70 2.459
312.80 2.457
312.90 2.456
313.00 2.454
313.10 2.452
313.20 2.45
313.30 2.449
313.40 2.447
313.50 2.445
313.60 2.444
313.70 2.442
313.80 2.44
313.90 2.438
314.00 2.437
314.10 2.435
314.20 2.433
314.30 2.432
314.40 2.43
314.50 2.428
314.60 2.426
314.70 2.425
314.80 2.423
314.90 2.421
315.00 2.42
315.10 2.418
315.20 2.416
315.30 2.414
315.40 2.413
315.50 2.411
315.60 2.409
315.70 2.408
315.80 2.406
315.90 2.404
316.00 2.403
316.10 2.401
316.20 2.399
316.30 2.398
316.40 2.396
316.50 2.394
316.60 2.392
316.70 2.391
316.80 2.389
316.90 2.387
317.00 2.386
317.10 2.384
317.20 2.382
317.30 2.381
317.40 2.379
317.50 2.377
317.60 2.376
317.70 2.374
317.80 2.372
317.90 2.371
318.00 2.369
318.10 2.367
318.20 2.366
318.30 2.364
318.40 2.362
318.50 2.361
318.60 2.359
318.70 2.357
318.80 2.356
318.90 2.354
319.00 2.352
319.10 2.351
319.20 2.349
319.30 2.348
319.40 2.346
319.50 2.344
319.60 2.343
319.70 2.341
319.80 2.339
319.90 2.338
320.00 2.336
320.10 2.334
320.20 2.333
320.30 2.331
320.40 2.33
320.50 2.328
320.60 2.326
320.70 2.325
320.80 2.323
320.90 2.321
321.00 2.32
321.10 2.318
321.20 2.316
321.30 2.315
321.40 2.313
321.50 2.312
321.60 2.31
321.70 2.308
321.80 2.307
321.90 2.305
322.00 2.304
322.10 2.302
322.20 2.3
322.30 2.299
322.40 2.297
322.50 2.295
322.60 2.294
322.70 2.292
322.80 2.291
322.90 2.289
323.00 2.287
323.10 2.286
323.20 2.284
323.30 2.283
323.40 2.281
323.50 2.28
323.60 2.278
323.70 2.276
323.80 2.275
323.90 2.273
324.00 2.272
324.10 2.27
324.20 2.268
324.30 2.267
324.40 2.265
324.50 2.264
324.60 2.262
324.70 2.261
324.80 2.259
324.90 2.257
325.00 2.256
325.10 2.254
325.20 2.253
325.30 2.251
325.40 2.249
325.50 2.248
325.60 2.246
325.70 2.245
325.80 2.243
325.90 2.242
326.00 2.24
326.10 2.239
326.20 2.237
326.30 2.235
326.40 2.234
326.50 2.232
326.60 2.231
326.70 2.229
326.80 2.228
326.90 2.226
327.00 2.225
327.10 2.223
327.20 2.221
327.30 2.22
327.40 2.218
327.50 2.217
327.60 2.215
327.70 2.214
327.80 2.212
327.90 2.211
328.00 2.209
328.10 2.208
328.20 2.206
328.30 2.205
328.40 2.203
328.50 2.201
328.60 2.2
328.70 2.198
328.80 2.197
328.90 2.195
329.00 2.194
329.10 2.192
329.20 2.191
329.30 2.189
329.40 2.188
329.50 2.186
329.60 2.185
329.70 2.183
329.80 2.182
329.90 2.18
330.00 2.179
330.10 2.177
330.20 2.176
330.30 2.174
330.40 2.173
330.50 2.171
330.60 2.17
330.70 2.168
330.80 2.167
330.90 2.165
331.00 2.164
331.10 2.162
331.20 2.161
331.30 2.159
331.40 2.158
331.50 2.156
331.60 2.155
331.70 2.153
331.80 2.152
331.90 2.15
332.00 2.149
332.10 2.147
332.20 2.146
332.30 2.144
332.40 2.143
332.50 2.141
332.60 2.14
332.70 2.138
332.80 2.137
332.90 2.135
333.00 2.134
333.10 2.133
333.20 2.131
333.30 2.13
333.40 2.128
333.50 2.127
333.60 2.125
333.70 2.124
333.80 2.122
333.90 2.121
334.00 2.119
334.10 2.118
334.20 2.116
334.30 2.115
334.40 2.113
334.50 2.112
334.60 2.111
334.70 2.109
334.80 2.108
334.90 2.106
335.00 2.105
335.10 2.103
335.20 2.102
335.30 2.1
335.40 2.099
335.50 2.097
335.60 2.096
335.70 2.095
335.80 2.093
335.90 2.092
336.00 2.09
336.10 2.089
336.20 2.087
336.30 2.086
336.40 2.084
336.50 2.083
336.60 2.082
336.70 2.08
336.80 2.079
336.90 2.077
337.00 2.076
337.10 2.074
337.20 2.073
337.30 2.072
337.40 2.07
337.50 2.069
337.60 2.067
337.70 2.066
337.80 2.064
337.90 2.063
338.00 2.062
338.10 2.06
338.20 2.059
338.30 2.057
338.40 2.056
338.50 2.055
338.60 2.053
338.70 2.052
338.80 2.05
338.90 2.049
339.00 2.048
339.10 2.046
339.20 2.045
339.30 2.043
339.40 2.042
339.50 2.041
339.60 2.039
339.70 2.038
339.80 2.036
339.90 2.035
340.00 2.034
340.10 2.032
340.20 2.031
340.30 2.029
340.40 2.028
340.50 2.027
340.60 2.025
340.70 2.024
340.80 2.022
340.90 2.021
341.00 2.02
341.10 2.018
341.20 2.017
341.30 2.016
341.40 2.014
341.50 2.013
341.60 2.011
341.70 2.01
341.80 2.009
341.90 2.007
342.00 2.006
342.10 2.004
342.20 2.003
342.30 2.002
342.40 2
342.50 1.999
342.60 1.998
342.70 1.996
342.80 1.995
342.90 1.994
343.00 1.992
343.10 1.991
343.20 1.989
343.30 1.988
343.40 1.987
343.50 1.985
343.60 1.984
343.70 1.983
343.80 1.981
343.90 1.98
344.00 1.979
344.10 1.977
344.20 1.976
344.30 1.975
344.40 1.973
344.50 1.972
344.60 1.971
344.70 1.969
344.80 1.968
344.90 1.967
345.00 1.965
345.10 1.964
345.20 1.962
345.30 1.961
345.40 1.96
345.50 1.958
345.60 1.957
345.70 1.956
345.80 1.954
345.90 1.953
346.00 1.952
346.10 1.95
346.20 1.949
346.30 1.948
346.40 1.947
346.50 1.945
346.60 1.944
346.70 1.943
346.80 1.941
346.90 1.94
347.00 1.939
347.10 1.937
347.20 1.936
347.30 1.935
347.40 1.933
347.50 1.932
347.60 1.931
347.70 1.929
347.80 1.928
347.90 1.927
348.00 1.925
348.10 1.924
348.20 1.923
348.30 1.922
348.40 1.92
348.50 1.919
348.60 1.918
348.70 1.916
348.80 1.915
348.90 1.914
349.00 1.912
349.10 1.911
349.20 1.91
349.30 1.909
349.40 1.907
349.50 1.906
349.60 1.905
349.70 1.903
349.80 1.902
349.90 1.901
350.00 1.899
350.10 1.898
350.20 1.897
350.30 1.896
350.40 1.894
350.50 1.893
350.60 1.892
350.70 1.89
350.80 1.889
350.90 1.888
351.00 1.887
351.10 1.885
351.20 1.884
351.30 1.883
351.40 1.882
351.50 1.88
351.60 1.879
351.70 1.878
351.80 1.876
351.90 1.875
352.00 1.874
352.10 1.873
352.20 1.871
352.30 1.87
352.40 1.869
352.50 1.868
352.60 1.866
352.70 1.865
352.80 1.864
352.90 1.863
353.00 1.861
353.10 1.86
353.20 1.859
353.30 1.858
353.40 1.856
353.50 1.855
353.60 1.854
353.70 1.853
353.80 1.851
353.90 1.85
354.00 1.849
354.10 1.848
354.20 1.846
354.30 1.845
354.40 1.844
354.50 1.843
354.60 1.841
354.70 1.84
354.80 1.839
354.90 1.838
355.00 1.836
355.10 1.835
355.20 1.834
355.30 1.833
355.40 1.831
355.50 1.83
355.60 1.829
355.70 1.828
355.80 1.826
355.90 1.825
356.00 1.824
356.10 1.823
356.20 1.822
356.30 1.82
356.40 1.819
356.50 1.818
356.60 1.817
356.70 1.815
356.80 1.814
356.90 1.813
357.00 1.812
357.10 1.811
357.20 1.809
357.30 1.808
357.40 1.807
357.50 1.806
357.60 1.804
357.70 1.803
357.80 1.802
357.90 1.801
358.00 1.8
358.10 1.798
358.20 1.797
358.30 1.796
358.40 1.795
358.50 1.794
358.60 1.792
358.70 1.791
358.80 1.79
358.90 1.789
359.00 1.788
359.10 1.786
359.20 1.785
359.30 1.784
359.40 1.783
359.50 1.782
359.60 1.78
359.70 1.779
359.80 1.778
359.90 1.777
360.00 1.776
360.10 1.774
360.20 1.773
360.30 1.772
360.40 1.771
360.50 1.77
360.60 1.769
360.70 1.767
360.80 1.766
360.90 1.765
361.00 1.764
361.10 1.763
361.20 1.761
361.30 1.76
361.40 1.759
361.50 1.758
361.60 1.757
361.70 1.756
361.80 1.754
361.90 1.753
362.00 1.752
362.10 1.751
362.20 1.75
362.30 1.749
362.40 1.747
362.50 1.746
362.60 1.745
362.70 1.744
362.80 1.743
362.90 1.742
363.00 1.74
363.10 1.739
363.20 1.738
363.30 1.736
363.40 1.735
363.50 1.734
363.60 1.732
363.70 1.731
363.80 1.729
363.90 1.728
364.00 1.727
364.10 1.725
364.20 1.724
364.30 1.723
364.40 1.721
364.50 1.72
364.60 1.718
364.70 1.717
364.80 1.716
364.90 1.714
365.00 1.713
365.10 1.711
365.20 1.71
365.30 1.709
365.40 1.707
365.50 1.706
365.60 1.704
365.70 1.703
365.80 1.702
365.90 1.7
366.00 1.699
366.10 1.698
366.20 1.696
366.30 1.695
366.40 1.694
366.50 1.693
366.60 1.692
366.70 1.69
366.80 1.689
366.90 1.688
367.00 1.687
367.10 1.686
367.20 1.684
367.30 1.683
367.40 1.682
367.50 1.681
367.60 1.68
367.70 1.678
367.80 1.677
367.90 1.676
368.00 1.675
368.10 1.674
368.20 1.673
368.30 1.671
368.40 1.67
368.50 1.669
368.60 1.668
368.70 1.667
368.80 1.665
368.90 1.664
369.00 1.663
369.10 1.662
369.20 1.661
369.30 1.659
369.40 1.658
369.50 1.657
369.60 1.656
369.70 1.655
369.80 1.653
369.90 1.652
370.00 1.651
370.10 1.65
370.20 1.649
370.30 1.648
370.40 1.646
370.50 1.645
370.60 1.644
370.70 1.643
370.80 1.642
370.90 1.641
371.00 1.64
371.10 1.638
371.20 1.637
371.30 1.636
371.40 1.635
371.50 1.634
371.60 1.633
371.70 1.631
371.80 1.63
371.90 1.629
372.00 1.628
372.10 1.627
372.20 1.626
372.30 1.625
372.40 1.624
372.50 1.623
372.60 1.622
372.70 1.621
372.80 1.62
372.90 1.618
373.00 1.617
373.10 1.616
373.20 1.615
373.30 1.614
373.40 1.613
373.50 1.612
373.60 1.611
373.70 1.61
373.80 1.609
373.90 1.608
374.00 1.607
374.10 1.606
374.20 1.605
374.30 1.604
374.40 1.603
374.50 1.602
374.60 1.601
374.70 1.6
374.80 1.599
374.90 1.598
375.00 1.597
375.10 1.596
375.20 1.595
375.30 1.594
375.40 1.593
375.50 1.592
375.60 1.591
375.70 1.59
375.80 1.589
375.90 1.588
376.00 1.587
376.10 1.587
376.20 1.586
376.30 1.585
376.40 1.584
376.50 1.583
376.60 1.582
376.70 1.581
376.80 1.58
376.90 1.579
377.00 1.578
377.10 1.577
377.20 1.576
377.30 1.575
377.40 1.574
377.50 1.573
377.60 1.572
377.70 1.571
377.80 1.571
377.90 1.57
378.00 1.569
378.10 1.567
378.20 1.566
378.30 1.565
378.40 1.563
378.50 1.562
378.60 1.561
378.70 1.559
378.80 1.558
378.90 1.557
379.00 1.556
379.10 1.554
379.20 1.553
379.30 1.552
379.40 1.551
379.50 1.55
379.60 1.549
379.70 1.548
379.80 1.547
379.90 1.546
380.00 1.545
380.10 1.545
380.20 1.545
380.30 1.544
380.40 1.544
380.50 1.544
380.60 1.544
380.70 1.543
380.80 1.543
380.90 1.543
381.00 1.543
381.10 1.542
381.20 1.541
381.30 1.541
381.40 1.54
381.50 1.54
381.60 1.539
381.70 1.538
381.80 1.537
381.90 1.536
382.00 1.535
382.10 1.533
382.20 1.532
382.30 1.53
382.40 1.528
382.50 1.526
382.60 1.524
382.70 1.522
382.80 1.52
382.90 1.518
383.00 1.516
383.10 1.514
383.20 1.512
383.30 1.511
383.40 1.51
383.50 1.508
383.60 1.508
383.70 1.509
383.80 1.509
383.90 1.51
384.00 1.511
384.10 1.512
384.20 1.514
384.30 1.515
384.40 1.517
384.50 1.518
384.60 1.519
384.70 1.52
384.80 1.52
384.90 1.521
385.00 1.521
385.10 1.521
385.20 1.521
385.30 1.521
385.40 1.521
385.50 1.521
385.60 1.521
385.70 1.52
385.80 1.519
385.90 1.519
386.00 1.518
386.10 1.517
386.20 1.516
386.30 1.514
386.40 1.513
386.50 1.511
386.60 1.51
386.70 1.508
386.80 1.506
386.90 1.504
387.00 1.502
387.10 1.5
387.20 1.497
387.30 1.495
387.40 1.492
387.50 1.489
387.60 1.486
387.70 1.483
387.80 1.48
387.90 1.476
388.00 1.472
388.10 1.468
388.20 1.463
388.30 1.459
388.40 1.454
388.50 1.449
388.60 1.445
388.70 1.443
388.80 1.44
388.90 1.439
389.00 1.44
389.10 1.442
389.20 1.444
389.30 1.447
389.40 1.451
389.50 1.456
389.60 1.46
389.70 1.464
389.80 1.468
389.90 1.472
390.00 1.475
390.10 1.478
390.20 1.481
390.30 1.483
390.40 1.486
390.50 1.488
390.60 1.49
390.70 1.492
390.80 1.494
390.90 1.496
391.00 1.497
391.10 1.498
391.20 1.5
391.30 1.501
391.40 1.501
391.50 1.502
391.60 1.503
391.70 1.503
391.80 1.503
391.90 1.504
392.00 1.503
392.10 1.503
392.20 1.503
392.30 1.502
392.40 1.501
392.50 1.501
392.60 1.5
392.70 1.498
392.80 1.497
392.90 1.495
393.00 1.494
393.10 1.492
393.20 1.49
393.30 1.487
393.40 1.485
393.50 1.482
393.60 1.479
393.70 1.476
393.80 1.473
393.90 1.47
394.00 1.466
394.10 1.462
394.20 1.458
394.30 1.454
394.40 1.449
394.50 1.445
394.60 1.44
394.70 1.435
394.80 1.429
394.90 1.424
395.00 1.418
395.10 1.412
395.20 1.406
395.30 1.399
395.40 1.392
395.50 1.385
395.60 1.378
395.70 1.37
395.80 1.362
395.90 1.354
396.00 1.346
396.10 1.337
396.20 1.328
396.30 1.318
396.40 1.308
396.50 1.296
396.60 1.283
396.70 1.27
396.80 1.26
396.90 1.252
397.00 1.243
397.10 1.251
397.20 1.258
397.30 1.267
397.40 1.28
397.50 1.292
397.60 1.304
397.70 1.314
397.80 1.324
397.90 1.332
398.00 1.341
398.10 1.349
398.20 1.357
398.30 1.364
398.40 1.371
398.50 1.379
398.60 1.385
398.70 1.392
398.80 1.399
398.90 1.405
399.00 1.411
399.10 1.416
399.20 1.422
399.30 1.427
399.40 1.432
399.50 1.437
399.60 1.442
399.70 1.446
399.80 1.45
399.90 1.455
400.00 1.458
400.10 1.462
400.20 1.466
400.30 1.469
400.40 1.472
400.50 1.475
400.60 1.478
400.70 1.48
400.80 1.483
400.90 1.485
401.00 1.487
401.10 1.489
401.20 1.491
401.30 1.493
401.40 1.494
401.50 1.496
401.60 1.497
401.70 1.498
401.80 1.499
401.90 1.499
402.00 1.5
402.10 1.5
402.20 1.501
402.30 1.501
402.40 1.501
402.50 1.501
402.60 1.5
402.70 1.5
402.80 1.499
402.90 1.499
403.00 1.498
403.10 1.497
403.20 1.496
403.30 1.495
403.40 1.493
403.50 1.491
403.60 1.49
403.70 1.488
403.80 1.486
403.90 1.483
404.00 1.481
404.10 1.478
404.20 1.476
404.30 1.473
404.40 1.47
404.50 1.467
404.60 1.463
404.70 1.46
404.80 1.456
404.90 1.452
405.00 1.448
405.10 1.444
405.20 1.44
405.30 1.435
405.40 1.431
405.50 1.426
405.60 1.421
405.70 1.416
405.80 1.41
405.90 1.404
406.00 1.399
406.10 1.393
406.20 1.387
406.30 1.38
406.40 1.374
406.50 1.367
406.60 1.36
406.70 1.353
406.80 1.345
406.90 1.338
407.00 1.33
407.10 1.322
407.20 1.313
407.30 1.304
407.40 1.296
407.50 1.286
407.60 1.277
407.70 1.267
407.80 1.257
407.90 1.247
408.00 1.236
408.10 1.225
408.20 1.214
408.30 1.202
408.40 1.19
408.50 1.178
408.60 1.165
408.70 1.152
408.80 1.138
408.90 1.125
409.00 1.111
409.10 1.097
409.20 1.082
409.30 1.068
409.40 1.053
409.50 1.038
409.60 1.023
409.70 1.006
409.80 0.9879
409.90 0.9698
410.00 0.9573
410.10 0.9495
410.20 0.9464
410.30 0.9522
410.40 0.9623
410.50 0.977
410.60 0.9942
410.70 1.011
410.80 1.026
410.90 1.041
411.00 1.055
411.10 1.068
411.20 1.082
411.30 1.095
411.40 1.108
411.50 1.121
411.60 1.133
411.70 1.146
411.80 1.158
411.90 1.169
412.00 1.181
412.10 1.191
412.20 1.202
412.30 1.212
412.40 1.222
412.50 1.232
412.60 1.241
412.70 1.25
412.80 1.259
412.90 1.268
413.00 1.276
413.10 1.284
413.20 1.292
413.30 1.299
413.40 1.306
413.50 1.314
413.60 1.32
413.70 1.327
413.80 1.334
413.90 1.34
414.00 1.346
414.10 1.352
414.20 1.358
414.30 1.364
414.40 1.369
414.50 1.375
414.60 1.38
414.70 1.385
414.80 1.39
414.90 1.395
415.00 1.4
415.10 1.404
415.20 1.409
415.30 1.413
415.40 1.417
415.50 1.421
415.60 1.425
415.70 1.429
415.80 1.433
415.90 1.437
416.00 1.44
416.10 1.444
416.20 1.447
416.30 1.45
416.40 1.453
416.50 1.456
416.60 1.459
416.70 1.462
416.80 1.464
416.90 1.467
417.00 1.469
417.10 1.472
417.20 1.474
417.30 1.476
417.40 1.478
417.50 1.481
417.60 1.483
417.70 1.484
417.80 1.486
417.90 1.488
418.00 1.49
418.10 1.491
418.20 1.493
418.30 1.494
418.40 1.495
418.50 1.497
418.60 1.498
418.70 1.499
418.80 1.5
418.90 1.501
419.00 1.502
419.10 1.503
419.20 1.504
419.30 1.504
419.40 1.505
419.50 1.505
419.60 1.506
419.70 1.506
419.80 1.507
419.90 1.507
420.00 1.507
420.10 1.507
420.20 1.507
420.30 1.508
420.40 1.508
420.50 1.507
420.60 1.507
420.70 1.507
420.80 1.507
420.90 1.506
421.00 1.506
421.10 1.505
421.20 1.505
421.30 1.504
421.40 1.504
421.50 1.503
421.60 1.502
421.70 1.501
421.80 1.5
421.90 1.499
422.00 1.498
422.10 1.497
422.20 1.496
422.30 1.495
422.40 1.494
422.50 1.492
422.60 1.491
422.70 1.489
422.80 1.488
422.90 1.486
423.00 1.485
423.10 1.483
423.20 1.481
423.30 1.479
423.40 1.477
423.50 1.475
423.60 1.473
423.70 1.471
423.80 1.469
423.90 1.467
424.00 1.464
424.10 1.462
424.20 1.459
424.30 1.457
424.40 1.454
424.50 1.452
424.60 1.449
424.70 1.446
424.80 1.443
424.90 1.44
425.00 1.437
425.10 1.434
425.20 1.431
425.30 1.428
425.40 1.425
425.50 1.421
425.60 1.418
425.70 1.414
425.80 1.411
425.90 1.407
426.00 1.403
426.10 1.399
426.20 1.395
426.30 1.39
426.40 1.386
426.50 1.382
426.60 1.378
426.70 1.374
426.80 1.37
426.90 1.365
427.00 1.361
427.10 1.356
427.20 1.351
427.30 1.347
427.40 1.342
427.50 1.337
427.60 1.332
427.70 1.327
427.80 1.321
427.90 1.316
428.00 1.31
428.10 1.305
428.20 1.299
428.30 1.293
428.40 1.288
428.50 1.282
428.60 1.276
428.70 1.269
428.80 1.263
428.90 1.257
429.00 1.25
429.10 1.244
429.20 1.237
429.30 1.23
429.40 1.223
429.50 1.216
429.60 1.209
429.70 1.201
429.80 1.194
429.90 1.186
430.00 1.178
430.10 1.171
430.20 1.162
430.30 1.154
430.40 1.146
430.50 1.137
430.60 1.129
430.70 1.12
430.80 1.111
430.90 1.101
431.00 1.092
431.10 1.082
431.20 1.072
431.30 1.062
431.40 1.052
431.50 1.041
431.60 1.03
431.70 1.019
431.80 1.007
431.90 0.9954
432.00 0.9833
432.10 0.9709
432.20 0.958
432.30 0.9448
432.40 0.9313
432.50 0.9172
432.60 0.9027
432.70 0.8879
432.80 0.8725
432.90 0.8569
433.00 0.841
433.10 0.8251
433.20 0.8092
433.30 0.7933
433.40 0.7774
433.50 0.7612
433.60 0.7445
433.70 0.7234
433.80 0.6973
433.90 0.6662
434.00 0.6346
434.10 0.6352
434.20 0.6681
434.30 0.6981
434.40 0.7231
434.50 0.7432
434.60 0.759
434.70 0.7745
434.80 0.7896
434.90 0.8046
435.00 0.8196
435.10 0.8347
435.20 0.8495
435.30 0.8642
435.40 0.8785
435.50 0.8923
435.60 0.9056
435.70 0.9186
435.80 0.9309
435.90 0.943
436.00 0.9547
436.10 0.9659
436.20 0.9768
436.30 0.9874
436.40 0.9976
436.50 1.008
436.60 1.017
436.70 1.027
436.80 1.036
436.90 1.045
437.00 1.053
437.10 1.061
437.20 1.07
437.30 1.077
437.40 1.085
437.50 1.093
437.60 1.1
437.70 1.107
437.80 1.114
437.90 1.121
438.00 1.127
438.10 1.134
438.20 1.14
438.30 1.146
438.40 1.152
438.50 1.158
438.60 1.164
438.70 1.17
438.80 1.175
438.90 1.181
439.00 1.186
439.10 1.191
439.20 1.196
439.30 1.201
439.40 1.206
439.50 1.211
439.60 1.215
439.70 1.22
439.80 1.224
439.90 1.229
440.00 1.233
440.10 1.237
440.20 1.241
440.30 1.245
440.40 1.249
440.50 1.253
440.60 1.256
440.70 1.26
440.80 1.264
440.90 1.267
441.00 1.27
441.10 1.274
441.20 1.277
441.30 1.28
441.40 1.283
441.50 1.286
441.60 1.289
441.70 1.292
441.80 1.294
441.90 1.297
442.00 1.3
442.10 1.302
442.20 1.305
442.30 1.307
442.40 1.31
442.50 1.312
442.60 1.314
442.70 1.316
442.80 1.319
442.90 1.321
443.00 1.323
443.10 1.325
443.20 1.327
443.30 1.329
443.40 1.331
443.50 1.333
443.60 1.334
443.70 1.336
443.80 1.338
443.90 1.34
444.00 1.341
444.10 1.343
444.20 1.344
444.30 1.346
444.40 1.347
444.50 1.349
444.60 1.35
444.70 1.351
444.80 1.353
444.90 1.354
445.00 1.355
445.10 1.356
445.20 1.357
445.30 1.359
445.40 1.36
445.50 1.361
445.60 1.362
445.70 1.363
445.80 1.364
445.90 1.364
446.00 1.365
446.10 1.366
446.20 1.367
446.30 1.368
446.40 1.369
446.50 1.369
446.60 1.37
446.70 1.371
446.80 1.371
446.90 1.372
447.00 1.373
447.10 1.373
447.20 1.374
447.30 1.374
447.40 1.375
447.50 1.375
447.60 1.376
447.70 1.376
447.80 1.376
447.90 1.377
448.00 1.377
448.10 1.378
448.20 1.378
448.30 1.378
448.40 1.378
448.50 1.379
448.60 1.379
448.70 1.379
448.80 1.379
448.90 1.379
449.00 1.38
449.10 1.38
449.20 1.38
449.30 1.38
449.40 1.38
449.50 1.38
449.60 1.381
449.70 1.381
449.80 1.381
449.90 1.381
450.00 1.381
450.10 1.381
450.20 1.381
450.30 1.38
450.40 1.38
450.50 1.38
450.60 1.38
450.70 1.38
450.80 1.38
450.90 1.38
451.00 1.38
451.10 1.379
451.20 1.379
451.30 1.379
451.40 1.379
451.50 1.379
451.60 1.378
451.70 1.378
451.80 1.378
451.90 1.378
452.00 1.377
452.10 1.377
452.20 1.377
452.30 1.376
452.40 1.376
452.50 1.376
452.60 1.375
452.70 1.375
452.80 1.374
452.90 1.374
453.00 1.374
453.10 1.373
453.20 1.373
453.30 1.372
453.40 1.372
453.50 1.372
453.60 1.371
453.70 1.371
453.80 1.37
453.90 1.37
454.00 1.369
454.10 1.369
454.20 1.368
454.30 1.368
454.40 1.367
454.50 1.367
454.60 1.366
454.70 1.365
454.80 1.365
454.90 1.364
455.00 1.364
455.10 1.363
455.20 1.363
455.30 1.362
455.40 1.362
455.50 1.361
455.60 1.36
455.70 1.36
455.80 1.359
455.90 1.358
456.00 1.358
456.10 1.357
456.20 1.356
456.30 1.356
456.40 1.355
456.50 1.354
456.60 1.354
456.70 1.353
456.80 1.352
456.90 1.352
457.00 1.351
457.10 1.35
457.20 1.35
457.30 1.349
457.40 1.349
457.50 1.348
457.60 1.347
457.70 1.346
457.80 1.345
457.90 1.345
458.00 1.344
458.10 1.343
458.20 1.342
458.30 1.341
458.40 1.341
458.50 1.34
458.60 1.339
458.70 1.338
458.80 1.337
458.90 1.336
459.00 1.336
459.10 1.335
459.20 1.334
459.30 1.333
459.40 1.332
459.50 1.331
459.60 1.33
459.70 1.33
459.80 1.329
459.90 1.328
460.00 1.327
460.10 1.326
460.20 1.325
460.30 1.324
460.40 1.323
460.50 1.322
460.60 1.321
460.70 1.32
460.80 1.319
460.90 1.318
461.00 1.317
461.10 1.317
461.20 1.316
461.30 1.315
461.40 1.314
461.50 1.313
461.60 1.312
461.70 1.311
461.80 1.31
461.90 1.309
462.00 1.308
462.10 1.307
462.20 1.306
462.30 1.304
462.40 1.303
462.50 1.302
462.60 1.301
462.70 1.3
462.80 1.299
462.90 1.298
463.00 1.297
463.10 1.296
463.20 1.295
463.30 1.294
463.40 1.293
463.50 1.292
463.60 1.29
463.70 1.289
463.80 1.288
463.90 1.287
464.00 1.286
464.10 1.285
464.20 1.284
464.30 1.282
464.40 1.281
464.50 1.28
464.60 1.279
464.70 1.278
464.80 1.277
464.90 1.275
465.00 1.274
465.10 1.273
465.20 1.272
465.30 1.271
465.40 1.269
465.50 1.268
465.60 1.267
465.70 1.266
465.80 1.264
465.90 1.263
466.00 1.262
466.10 1.261
466.20 1.259
466.30 1.258
466.40 1.257
466.50 1.255
466.60 1.254
466.70 1.253
466.80 1.251
466.90 1.25
467.00 1.249
467.10 1.247
467.20 1.246
467.30 1.245
467.40 1.243
467.50 1.242
467.60 1.24
467.70 1.239
467.80 1.237
467.90 1.236
468.00 1.235
468.10 1.233
468.20 1.232
468.30 1.23
468.40 1.229
468.50 1.227
468.60 1.226
468.70 1.224
468.80 1.223
468.90 1.221
469.00 1.22
469.10 1.218
469.20 1.217
469.30 1.215
469.40 1.213
469.50 1.212
469.60 1.21
469.70 1.209
469.80 1.207
469.90 1.205
470.00 1.204
470.10 1.202
470.20 1.2
470.30 1.199
470.40 1.197
470.50 1.195
470.60 1.194
470.70 1.192
470.80 1.19
470.90 1.189
471.00 1.187
471.10 1.185
471.20 1.184
471.30 1.182
471.40 1.18
471.50 1.178
471.60 1.176
471.70 1.174
471.80 1.172
471.90 1.17
472.00 1.169
472.10 1.167
472.20 1.165
472.30 1.163
472.40 1.161
472.50 1.159
472.60 1.157
472.70 1.155
472.80 1.153
472.90 1.151
473.00 1.149
473.10 1.147
473.20 1.145
473.30 1.142
473.40 1.14
473.50 1.138
473.60 1.136
473.70 1.134
473.80 1.132
473.90 1.129
474.00 1.127
474.10 1.125
474.20 1.123
474.30 1.12
474.40 1.118
474.50 1.116
474.60 1.113
474.70 1.111
474.80 1.109
474.90 1.106
475.00 1.104
475.10 1.101
475.20 1.099
475.30 1.096
475.40 1.094
475.50 1.091
475.60 1.089
475.70 1.086
475.80 1.083
475.90 1.081
476.00 1.078
476.10 1.076
476.20 1.073
476.30 1.07
476.40 1.067
476.50 1.064
476.60 1.061
476.70 1.059
476.80 1.056
476.90 1.053
477.00 1.05
477.10 1.047
477.20 1.044
477.30 1.041
477.40 1.038
477.50 1.035
477.60 1.032
477.70 1.029
477.80 1.025
477.90 1.022
478.00 1.019
478.10 1.016
478.20 1.013
478.30 1.009
478.40 1.006
478.50 1.002
478.60 0.9987
478.70 0.9953
478.80 0.9918
478.90 0.9884
479.00 0.9849
479.10 0.9814
479.20 0.9777
479.30 0.9737
479.40 0.9698
479.50 0.9659
479.60 0.962
479.70 0.9581
479.80 0.9541
479.90 0.9502
480.00 0.9463
480.10 0.9424
480.20 0.9382
480.30 0.9338
480.40 0.9294
480.50 0.925
480.60 0.9206
480.70 0.9163
480.80 0.9119
480.90 0.9075
481.00 0.9032
481.10 0.8988
481.20 0.894
481.30 0.8889
481.40 0.8838
481.50 0.8788
481.60 0.8737
481.70 0.8687
481.80 0.8636
481.90 0.8586
482.00 0.8536
482.10 0.8485
482.20 0.8428
482.30 0.8368
482.40 0.8308
482.50 0.8248
482.60 0.8188
482.70 0.8128
482.80 0.8068
482.90 0.8008
483.00 0.7948
483.10 0.7888
483.20 0.7816
483.30 0.7739
483.40 0.7662
483.50 0.7585
483.60 0.7508
483.70 0.7431
483.80 0.7355
483.90 0.7278
484.00 0.7201
484.10 0.7125
484.20 0.7034
484.30 0.6936
484.40 0.6838
484.50 0.674
484.60 0.6643
484.70 0.6532
484.80 0.6415
484.90 0.6299
485.00 0.6182
485.10 0.6065
485.20 0.5945
485.30 0.5823
485.40 0.57
485.50 0.5577
485.60 0.5451
485.70 0.5323
485.80 0.5163
485.90 0.4987
486.00 0.4724
486.10 0.4365
486.20 0.4449
486.30 0.483
486.40 0.5033
486.50 0.5207
486.60 0.5346
486.70 0.5469
486.80 0.5588
486.90 0.5706
487.00 0.5822
487.10 0.5938
487.20 0.6049
487.30 0.6159
487.40 0.6269
487.50 0.6378
487.60 0.6488
487.70 0.6584
487.80 0.6674
487.90 0.6763
488.00 0.6853
488.10 0.6943
488.20 0.7017
488.30 0.7085
488.40 0.7153
488.50 0.7221
488.60 0.7289
488.70 0.7357
488.80 0.7424
488.90 0.7492
489.00 0.756
489.10 0.7627
489.20 0.7683
489.30 0.7733
489.40 0.7783
489.50 0.7833
489.60 0.7883
489.70 0.7933
489.80 0.7982
489.90 0.8032
490.00 0.8082
490.10 0.8132
490.20 0.8174
490.30 0.8214
490.40 0.8253
490.50 0.8293
490.60 0.8332
490.70 0.8371
490.80 0.8411
490.90 0.845
491.00 0.8489
491.10 0.8528
491.20 0.8563
491.30 0.8595
491.40 0.8627
491.50 0.8659
491.60 0.869
491.70 0.8722
491.80 0.8754
491.90 0.8786
492.00 0.8818
492.10 0.885
492.20 0.8878
492.30 0.8904
492.40 0.8931
492.50 0.8958
492.60 0.8984
492.70 0.9011
492.80 0.9037
492.90 0.9064
493.00 0.909
493.10 0.9117
493.20 0.914
493.30 0.9162
493.40 0.9184
493.50 0.9206
493.60 0.9228
493.70 0.9249
493.80 0.9271
493.90 0.9293
494.00 0.9315
494.10 0.9336
494.20 0.9356
494.30 0.9374
494.40 0.9392
494.50 0.9409
494.60 0.9427
494.70 0.9445
494.80 0.9463
494.90 0.9481
495.00 0.9499
495.10 0.9517
495.20 0.9532
495.30 0.9547
495.40 0.9561
495.50 0.9576
495.60 0.9591
495.70 0.9605
495.80 0.962
495.90 0.9634
496.00 0.9649
496.10 0.9663
496.20 0.9676
496.30 0.9688
496.40 0.9699
496.50 0.9711
496.60 0.9723
496.70 0.9735
496.80 0.9747
496.90 0.9758
497.00 0.977
497.10 0.9782
497.20 0.9792
497.30 0.9801
497.40 0.9811
497.50 0.982
497.60 0.983
497.70 0.9839
497.80 0.9849
497.90 0.9858
498.00 0.9867
498.10 0.9877
498.20 0.9885
498.30 0.9892
498.40 0.9899
498.50 0.9906
498.60 0.9914
498.70 0.9921
498.80 0.9928
498.90 0.9935
499.00 0.9943
499.10 0.995
499.20 0.9956
499.30 0.9962
499.40 0.9967
499.50 0.9973
499.60 0.9978
499.70 0.9984
499.80 0.9989
499.90 0.9995
500.00 1
500.10 1.001
500.20 1.001
500.30 1.001
500.40 1.002
500.50 1.002
500.60 1.003
500.70 1.003
500.80 1.003
500.90 1.004
501.00 1.004
501.10 1.005
501.20 1.005
501.30 1.005
501.40 1.006
501.50 1.006
501.60 1.006
501.70 1.006
501.80 1.007
501.90 1.007
502.00 1.007
502.10 1.008
502.20 1.008
502.30 1.008
502.40 1.008
502.50 1.008
502.60 1.008
502.70 1.009
502.80 1.009
502.90 1.009
503.00 1.009
503.10 1.009
503.20 1.009
503.30 1.01
503.40 1.01
503.50 1.01
503.60 1.01
503.70 1.01
503.80 1.01
503.90 1.01
504.00 1.01
504.10 1.01
504.20 1.01
504.30 1.01
504.40 1.01
504.50 1.01
504.60 1.01
504.70 1.01
504.80 1.01
504.90 1.01
505.00 1.01
505.10 1.01
505.20 1.01
505.30 1.01
505.40 1.01
505.50 1.01
505.60 1.009
505.70 1.009
505.80 1.009
505.90 1.009
506.00 1.009
506.10 1.009
506.20 1.009
506.30 1.009
506.40 1.009
506.50 1.008
506.60 1.008
506.70 1.008
506.80 1.008
506.90 1.008
507.00 1.008
507.10 1.007
507.20 1.007
507.30 1.007
507.40 1.007
507.50 1.007
507.60 1.006
507.70 1.006
507.80 1.006
507.90 1.006
508.00 1.006
508.10 1.006
508.20 1.005
508.30 1.005
508.40 1.005
508.50 1.005
508.60 1.004
508.70 1.004
508.80 1.004
508.90 1.004
509.00 1.003
509.10 1.003
509.20 1.003
509.30 1.002
509.40 1.002
509.50 1.002
509.60 1.002
509.70 1.001
509.80 1.001
509.90 1.001
510.00 1
510.10 1
510.20 0.9999
510.30 0.9996
510.40 0.9993
510.50 0.9989
510.60 0.9986
510.70 0.9983
510.80 0.998
510.90 0.9977
511.00 0.9973
511.10 0.997
511.20 0.9967
511.30 0.9963
511.40 0.996
511.50 0.9956
511.60 0.9953
511.70 0.995
511.80 0.9946
511.90 0.9943
512.00 0.9939
512.10 0.9936
512.20 0.9932
512.30 0.9929
512.40 0.9925
512.50 0.9921
512.60 0.9917
512.70 0.9914
512.80 0.991
512.90 0.9906
513.00 0.9903
513.10 0.9899
513.20 0.9895
513.30 0.9891
513.40 0.9887
513.50 0.9883
513.60 0.9879
513.70 0.9875
513.80 0.9872
513.90 0.9868
514.00 0.9864
514.10 0.986
514.20 0.9856
514.30 0.9852
514.40 0.9848
514.50 0.9843
514.60 0.9839
514.70 0.9835
514.80 0.9831
514.90 0.9827
515.00 0.9823
515.10 0.9819
515.20 0.9815
515.30 0.981
515.40 0.9806
515.50 0.9802
515.60 0.9798
515.70 0.9793
515.80 0.9789
515.90 0.9785
516.00 0.9781
516.10 0.9777
516.20 0.9772
516.30 0.9768
516.40 0.9764
516.50 0.9759
516.60 0.9755
516.70 0.9751
516.80 0.9746
516.90 0.9742
517.00 0.9738
517.10 0.9734
517.20 0.9729
517.30 0.9725
517.40 0.972
517.50 0.9716
517.60 0.9711
517.70 0.9707
517.80 0.9702
517.90 0.9698
518.00 0.9693
518.10 0.9689
518.20 0.9684
518.30 0.968
518.40 0.9675
518.50 0.9671
518.60 0.9666
518.70 0.9661
518.80 0.9657
518.90 0.9652
519.00 0.9648
519.10 0.9643
519.20 0.9639
519.30 0.9634
519.40 0.9629
519.50 0.9625
519.60 0.962
519.70 0.9616
519.80 0.9611
519.90 0.9607
520.00 0.9602
520.10 0.9597
520.20 0.9593
520.30 0.9588
520.40 0.9583
520.50 0.9579
520.60 0.9574
520.70 0.9569
520.80 0.9564
520.90 0.956
521.00 0.9555
521.10 0.955
521.20 0.9546
521.30 0.9541
521.40 0.9536
521.50 0.9531
521.60 0.9526
521.70 0.9522
521.80 0.9517
521.90 0.9512
522.00 0.9507
522.10 0.9503
522.20 0.9498
522.30 0.9493
522.40 0.9488
522.50 0.9484
522.60 0.9479
522.70 0.9474
522.80 0.9469
522.90 0.9465
523.00 0.946
523.10 0.9455
523.20 0.945
523.30 0.9445
523.40 0.944
523.50 0.9436
523.60 0.9431
523.70 0.9426
523.80 0.9421
523.90 0.9416
524.00 0.9411
524.10 0.9406
524.20 0.9401
524.30 0.9397
524.40 0.9392
524.50 0.9387
524.60 0.9382
524.70 0.9377
524.80 0.9372
524.90 0.9367
525.00 0.9363
525.10 0.9358
525.20 0.9353
525.30 0.9348
525.40 0.9343
525.50 0.9338
525.60 0.9333
525.70 0.9328
525.80 0.9323
525.90 0.9318
526.00 0.9314
526.10 0.9309
526.20 0.9304
526.30 0.9299
526.40 0.9294
526.50 0.9289
526.60 0.9284
526.70 0.9279
526.80 0.9274
526.90 0.9269
527.00 0.9264
527.10 0.9259
527.20 0.9254
527.30 0.9249
527.40 0.9244
527.50 0.9239
527.60 0.9234
527.70 0.9229
527.80 0.9224
527.90 0.922
528.00 0.9215
528.10 0.921
528.20 0.9205
528.30 0.92
528.40 0.9195
528.50 0.919
528.60 0.9185
528.70 0.918
528.80 0.9175
528.90 0.917
529.00 0.9166
529.10 0.9161
529.20 0.9156
529.30 0.9151
529.40 0.9146
529.50 0.9141
529.60 0.9136
529.70 0.9131
529.80 0.9126
529.90 0.9121
530.00 0.9116
530.10 0.9111
530.20 0.9106
530.30 0.9101
530.40 0.9096
530.50 0.9091
530.60 0.9086
530.70 0.9082
530.80 0.9077
530.90 0.9072
531.00 0.9067
531.10 0.9062
531.20 0.9057
531.30 0.9052
531.40 0.9047
531.50 0.9042
531.60 0.9037
531.70 0.9032
531.80 0.9027
531.90 0.9022
532.00 0.9017
532.10 0.9012
532.20 0.9007
532.30 0.9002
532.40 0.8997
532.50 0.8992
532.60 0.8987
532.70 0.8982
532.80 0.8977
532.90 0.8973
533.00 0.8968
533.10 0.8963
533.20 0.8958
533.30 0.8953
533.40 0.8948
533.50 0.8943
533.60 0.8938
533.70 0.8933
533.80 0.8928
533.90 0.8923
534.00 0.8918
534.10 0.8914
534.20 0.8909
534.30 0.8904
534.40 0.8899
534.50 0.8894
534.60 0.8889
534.70 0.8884
534.80 0.8879
534.90 0.8874
535.00 0.887
535.10 0.8865
535.20 0.886
535.30 0.8855
535.40 0.885
535.50 0.8845
535.60 0.884
535.70 0.8835
535.80 0.883
535.90 0.8825
536.00 0.882
536.10 0.8815
536.20 0.881
536.30 0.8806
536.40 0.8801
536.50 0.8796
536.60 0.8791
536.70 0.8786
536.80 0.8781
536.90 0.8777
537.00 0.8772
537.10 0.8767
537.20 0.8762
537.30 0.8757
537.40 0.8752
537.50 0.8748
537.60 0.8743
537.70 0.8738
537.80 0.8733
537.90 0.8728
538.00 0.8723
538.10 0.8718
538.20 0.8713
538.30 0.8709
538.40 0.8704
538.50 0.8699
538.60 0.8694
538.70 0.8689
538.80 0.8684
538.90 0.868
539.00 0.8675
539.10 0.867
539.20 0.8665
539.30 0.866
539.40 0.8655
539.50 0.8651
539.60 0.8646
539.70 0.8641
539.80 0.8636
539.90 0.8631
540.00 0.8626
540.10 0.8622
540.20 0.8617
540.30 0.8612
540.40 0.8607
540.50 0.8602
540.60 0.8598
540.70 0.8593
540.80 0.8588
540.90 0.8583
541.00 0.8579
541.10 0.8574
541.20 0.8569
541.30 0.8564
541.40 0.8559
541.50 0.8555
541.60 0.855
541.70 0.8545
541.80 0.854
541.90 0.8536
542.00 0.8531
542.10 0.8526
542.20 0.8521
542.30 0.8517
542.40 0.8512
542.50 0.8507
542.60 0.8502
542.70 0.8497
542.80 0.8493
542.90 0.8488
543.00 0.8483
543.10 0.8478
543.20 0.8473
543.30 0.8469
543.40 0.8464
543.50 0.8459
543.60 0.8455
543.70 0.845
543.80 0.8445
543.90 0.8441
544.00 0.8436
544.10 0.8431
544.20 0.8426
544.30 0.8422
544.40 0.8417
544.50 0.8412
544.60 0.8407
544.70 0.8403
544.80 0.8398
544.90 0.8393
545.00 0.8388
545.10 0.8384
545.20 0.8379
545.30 0.8374
545.40 0.837
545.50 0.8365
545.60 0.836
545.70 0.8356
545.80 0.8351
545.90 0.8347
546.00 0.8342
546.10 0.8337
546.20 0.8334
546.30 0.8332
546.40 0.8329
546.50 0.8327
546.60 0.8324
546.70 0.8322
546.80 0.832
546.90 0.8317
547.00 0.8315
547.10 0.8312
547.20 0.8308
547.30 0.8304
547.40 0.8299
547.50 0.8294
547.60 0.8289
547.70 0.8285
547.80 0.828
547.90 0.8275
548.00 0.827
548.10 0.8266
548.20 0.8261
548.30 0.8256
548.40 0.8251
548.50 0.8247
548.60 0.8242
548.70 0.8237
548.80 0.8233
548.90 0.8228
549.00 0.8223
549.10 0.8218
549.20 0.8214
549.30 0.8209
549.40 0.8204
549.50 0.82
549.60 0.8195
549.70 0.819
549.80 0.8186
549.90 0.8181
550.00 0.8176
550.10 0.8172
550.20 0.8167
550.30 0.8162
550.40 0.8158
550.50 0.8153
550.60 0.8148
550.70 0.8144
550.80 0.8139
550.90 0.8134
551.00 0.813
551.10 0.8125
551.20 0.812
551.30 0.8116
551.40 0.8111
551.50 0.8106
551.60 0.8102
551.70 0.8097
551.80 0.8092
551.90 0.8088
552.00 0.8083
552.10 0.8079
552.20 0.8074
552.30 0.8069
552.40 0.8065
552.50 0.806
552.60 0.8056
552.70 0.8051
552.80 0.8047
552.90 0.8042
553.00 0.8038
553.10 0.8033
553.20 0.8029
553.30 0.8024
553.40 0.802
553.50 0.8015
553.60 0.801
553.70 0.8006
553.80 0.8001
553.90 0.7997
554.00 0.7992
554.10 0.7987
554.20 0.7983
554.30 0.7978
554.40 0.7974
554.50 0.7969
554.60 0.7965
554.70 0.796
554.80 0.7956
554.90 0.7951
555.00 0.7947
555.10 0.7942
555.20 0.7937
555.30 0.7933
555.40 0.7929
555.50 0.7924
555.60 0.792
555.70 0.7915
555.80 0.7911
555.90 0.7906
556.00 0.7902
556.10 0.7897
556.20 0.7893
556.30 0.7888
556.40 0.7884
556.50 0.7879
556.60 0.7875
556.70 0.787
556.80 0.7866
556.90 0.7862
557.00 0.7857
557.10 0.7853
557.20 0.7848
557.30 0.7844
557.40 0.7839
557.50 0.7835
557.60 0.7831
557.70 0.7826
557.80 0.7822
557.90 0.7817
558.00 0.7813
558.10 0.7809
558.20 0.7804
558.30 0.78
558.40 0.7795
558.50 0.7791
558.60 0.7786
558.70 0.7782
558.80 0.7777
558.90 0.7773
559.00 0.7769
559.10 0.7764
559.20 0.776
559.30 0.7755
559.40 0.7751
559.50 0.7747
559.60 0.7742
559.70 0.7738
559.80 0.7734
559.90 0.7729
560.00 0.7725
560.10 0.7721
560.20 0.7716
560.30 0.7712
560.40 0.7708
560.50 0.7703
560.60 0.7699
560.70 0.7694
560.80 0.769
560.90 0.7686
561.00 0.7681
561.10 0.7677
561.20 0.7673
561.30 0.7668
561.40 0.7664
561.50 0.766
561.60 0.7655
561.70 0.7651
561.80 0.7647
561.90 0.7643
562.00 0.7638
562.10 0.7634
562.20 0.763
562.30 0.7625
562.40 0.7621
562.50 0.7617
562.60 0.7613
562.70 0.7608
562.80 0.7604
562.90 0.76
563.00 0.7596
563.10 0.7591
563.20 0.7587
563.30 0.7583
563.40 0.7578
563.50 0.7574
563.60 0.757
563.70 0.7565
563.80 0.7561
563.90 0.7557
564.00 0.7553
564.10 0.7548
564.20 0.7544
564.30 0.754
564.40 0.7536
564.50 0.7531
564.60 0.7527
564.70 0.7523
564.80 0.7519
564.90 0.7515
565.00 0.751
565.10 0.7506
565.20 0.7502
565.30 0.7498
565.40 0.7494
565.50 0.7489
565.60 0.7485
565.70 0.7481
565.80 0.7477
565.90 0.7473
566.00 0.7468
566.10 0.7464
566.20 0.746
566.30 0.7456
566.40 0.7452
566.50 0.7448
566.60 0.7443
566.70 0.7439
566.80 0.7435
566.90 0.7431
567.00 0.7427
567.10 0.7423
567.20 0.7418
567.30 0.7414
567.40 0.741
567.50 0.7406
567.60 0.7402
567.70 0.7398
567.80 0.7394
567.90 0.7389
568.00 0.7385
568.10 0.7381
568.20 0.7377
568.30 0.7373
568.40 0.7369
568.50 0.7365
568.60 0.7361
568.70 0.7357
568.80 0.7352
568.90 0.7348
569.00 0.7344
569.10 0.734
569.20 0.7336
569.30 0.7332
569.40 0.7328
569.50 0.7324
569.60 0.732
569.70 0.7316
569.80 0.7311
569.90 0.7307
570.00 0.7303
570.10 0.7299
570.20 0.7295
570.30 0.7291
570.40 0.7287
570.50 0.7283
570.60 0.7279
570.70 0.7275
570.80 0.7271
570.90 0.7267
571.00 0.7263
571.10 0.7259
571.20 0.7255
571.30 0.725
571.40 0.7246
571.50 0.7242
571.60 0.7238
571.70 0.7234
571.80 0.723
571.90 0.7226
572.00 0.7222
572.10 0.7218
572.20 0.7214
572.30 0.721
572.40 0.7206
572.50 0.7202
572.60 0.7198
572.70 0.7194
572.80 0.719
572.90 0.7186
573.00 0.7182
573.10 0.7178
573.20 0.7174
573.30 0.717
573.40 0.7166
573.50 0.7162
573.60 0.7158
573.70 0.7154
573.80 0.715
573.90 0.7147
574.00 0.7143
574.10 0.7139
574.20 0.7135
574.30 0.7131
574.40 0.7127
574.50 0.7123
574.60 0.7119
574.70 0.7115
574.80 0.7111
574.90 0.7107
575.00 0.7103
575.10 0.7099
575.20 0.7095
575.30 0.7091
575.40 0.7087
575.50 0.7083
575.60 0.7079
575.70 0.7075
575.80 0.7072
575.90 0.7068
576.00 0.7064
576.10 0.706
576.20 0.7056
576.30 0.7052
576.40 0.7048
576.50 0.7044
576.60 0.704
576.70 0.7036
576.80 0.7033
576.90 0.7029
577.00 0.7025
577.10 0.7021
577.20 0.7017
577.30 0.7013
577.40 0.7009
577.50 0.7005
577.60 0.7001
577.70 0.6998
577.80 0.6994
577.90 0.699
578.00 0.6986
578.10 0.6982
578.20 0.6978
578.30 0.6974
578.40 0.6971
578.50 0.6967
578.60 0.6963
578.70 0.6959
578.80 0.6955
578.90 0.6951
579.00 0.6948
579.10 0.6944
579.20 0.694
579.30 0.6936
579.40 0.6932
579.50 0.6928
579.60 0.6925
579.70 0.6921
579.80 0.6917
579.90 0.6913
580.00 0.6909
580.10 0.6906
580.20 0.6902
580.30 0.6898
580.40 0.6894
580.50 0.689
580.60 0.6887
580.70 0.6883
580.80 0.6879
580.90 0.6875
581.00 0.6871
581.10 0.6868
581.20 0.6864
581.30 0.686
581.40 0.6856
581.50 0.6852
581.60 0.6849
581.70 0.6845
581.80 0.6841
581.90 0.6837
582.00 0.6834
582.10 0.683
582.20 0.6826
582.30 0.6822
582.40 0.6819
582.50 0.6815
582.60 0.6811
582.70 0.6807
582.80 0.6804
582.90 0.68
583.00 0.6796
583.10 0.6792
583.20 0.6789
583.30 0.6785
583.40 0.6781
583.50 0.6778
583.60 0.6774
583.70 0.677
583.80 0.6766
583.90 0.6763
584.00 0.6759
584.10 0.6755
584.20 0.6752
584.30 0.6748
584.40 0.6744
584.50 0.674
584.60 0.6737
584.70 0.6733
584.80 0.6729
584.90 0.6726
585.00 0.6722
585.10 0.6718
585.20 0.6715
585.30 0.6711
585.40 0.6707
585.50 0.6704
585.60 0.67
585.70 0.6696
585.80 0.6693
585.90 0.6689
586.00 0.6685
586.10 0.6682
586.20 0.6678
586.30 0.6674
586.40 0.6671
586.50 0.6667
586.60 0.6663
586.70 0.666
586.80 0.6656
586.90 0.6652
587.00 0.6649
587.10 0.6645
587.20 0.6642
587.30 0.6638
587.40 0.6634
587.50 0.6631
587.60 0.6627
587.70 0.6623
587.80 0.662
587.90 0.6616
588.00 0.6613
588.10 0.6609
588.20 0.6605
588.30 0.6602
588.40 0.6598
588.50 0.6595
588.60 0.6591
588.70 0.6587
588.80 0.6584
588.90 0.658
589.00 0.6577
589.10 0.6573
589.20 0.6569
589.30 0.6566
589.40 0.6562
589.50 0.6559
589.60 0.6555
589.70 0.6552
589.80 0.6548
589.90 0.6544
590.00 0.6541
590.10 0.6537
590.20 0.6534
590.30 0.653
590.40 0.6527
590.50 0.6523
590.60 0.652
590.70 0.6516
590.80 0.6512
590.90 0.6509
591.00 0.6505
591.10 0.6502
591.20 0.6498
591.30 0.6495
591.40 0.6491
591.50 0.6488
591.60 0.6484
591.70 0.6481
591.80 0.6477
591.90 0.6474
592.00 0.647
592.10 0.6467
592.20 0.6463
592.30 0.646
592.40 0.6456
592.50 0.6453
592.60 0.6449
592.70 0.6446
592.80 0.6442
592.90 0.6439
593.00 0.6435
593.10 0.6432
593.20 0.6428
593.30 0.6425
593.40 0.6421
593.50 0.6418
593.60 0.6414
593.70 0.6411
593.80 0.6407
593.90 0.6404
594.00 0.64
594.10 0.6397
594.20 0.6393
594.30 0.639
594.40 0.6386
594.50 0.6383
594.60 0.638
594.70 0.6376
594.80 0.6373
594.90 0.6369
595.00 0.6366
595.10 0.6362
595.20 0.6359
595.30 0.6355
595.40 0.6352
595.50 0.6349
595.60 0.6345
595.70 0.6342
595.80 0.6338
595.90 0.6335
596.00 0.6331
596.10 0.6328
596.20 0.6322
596.30 0.6314
596.40 0.6306
596.50 0.6299
596.60 0.6291
596.70 0.6283
596.80 0.6276
596.90 0.6268
597.00 0.6261
597.10 0.6253
597.20 0.6248
597.30 0.6245
597.40 0.6241
597.50 0.6238
597.60 0.6234
597.70 0.6231
597.80 0.6227
597.90 0.6224
598.00 0.622
598.10 0.6217
598.20 0.6213
598.30 0.621
598.40 0.6206
598.50 0.6203
598.60 0.6199
598.70 0.6196
598.80 0.6192
598.90 0.6189
599.00 0.6185
599.10 0.6182
599.20 0.6178
599.30 0.6175
599.40 0.6171
599.50 0.6168
599.60 0.6164
599.70 0.6161
599.80 0.6157
599.90 0.6154
600.00 0.615
600.10 0.6147
600.20 0.6143
600.30 0.614
600.40 0.6136
600.50 0.6133
600.60 0.613
600.70 0.6126
600.80 0.6123
600.90 0.6119
601.00 0.6116
601.10 0.6112
601.20 0.6109
601.30 0.6105
601.40 0.6102
601.50 0.6098
601.60 0.6095
601.70 0.6092
601.80 0.6088
601.90 0.6085
602.00 0.6081
602.10 0.6078
602.20 0.6074
602.30 0.6071
602.40 0.6067
602.50 0.6064
602.60 0.6061
602.70 0.6057
602.80 0.6054
602.90 0.605
603.00 0.6047
603.10 0.6043
603.20 0.604
603.30 0.6037
603.40 0.6033
603.50 0.603
603.60 0.6026
603.70 0.6023
603.80 0.602
603.90 0.6016
604.00 0.6013
604.10 0.6009
604.20 0.6006
604.30 0.6002
604.40 0.5999
604.50 0.5996
604.60 0.5992
604.70 0.5989
604.80 0.5985
604.90 0.5982
605.00 0.5979
605.10 0.5975
605.20 0.5972
605.30 0.5968
605.40 0.5965
605.50 0.5962
605.60 0.5958
605.70 0.5955
605.80 0.5951
605.90 0.5948
606.00 0.5945
606.10 0.5941
606.20 0.5938
606.30 0.5934
606.40 0.5931
606.50 0.5928
606.60 0.5924
606.70 0.5921
606.80 0.5917
606.90 0.5914
607.00 0.5911
607.10 0.5907
607.20 0.5904
607.30 0.5901
607.40 0.5897
607.50 0.5894
607.60 0.589
607.70 0.5887
607.80 0.5884
607.90 0.588
608.00 0.5877
608.10 0.5874
608.20 0.587
608.30 0.5867
608.40 0.5863
608.50 0.586
608.60 0.5857
608.70 0.5853
608.80 0.585
608.90 0.5847
609.00 0.5843
609.10 0.584
609.20 0.5837
609.30 0.5833
609.40 0.583
609.50 0.5826
609.60 0.5823
609.70 0.582
609.80 0.5816
609.90 0.5813
610.00 0.581
610.10 0.5806
610.20 0.5803
610.30 0.58
610.40 0.5796
610.50 0.5793
610.60 0.5789
610.70 0.5786
610.80 0.5783
610.90 0.5779
611.00 0.5776
611.10 0.5773
611.20 0.5769
611.30 0.5766
611.40 0.5763
611.50 0.5759
611.60 0.5756
611.70 0.5753
611.80 0.5749
611.90 0.5746
612.00 0.5742
612.10 0.5739
612.20 0.5736
612.30 0.5732
612.40 0.5729
612.50 0.5726
612.60 0.5722
612.70 0.5719
612.80 0.5716
612.90 0.5712
613.00 0.5709
613.10 0.5706
613.20 0.5702
613.30 0.5699
613.40 0.5696
613.50 0.5692
613.60 0.5689
613.70 0.5685
613.80 0.5682
613.90 0.5679
614.00 0.5675
614.10 0.5672
614.20 0.5669
614.30 0.5665
614.40 0.5662
614.50 0.5659
614.60 0.5655
614.70 0.5652
614.80 0.5649
614.90 0.5645
615.00 0.5642
615.10 0.5639
615.20 0.5635
615.30 0.5632
615.40 0.5628
615.50 0.5625
615.60 0.5622
615.70 0.5618
615.80 0.5615
615.90 0.5612
616.00 0.5608
616.10 0.5605
616.20 0.5602
616.30 0.5598
616.40 0.5595
616.50 0.5591
616.60 0.5588
616.70 0.5585
616.80 0.5581
616.90 0.5578
617.00 0.5575
617.10 0.5571
617.20 0.5568
617.30 0.5564
617.40 0.5561
617.50 0.5558
617.60 0.5554
617.70 0.5551
617.80 0.5548
617.90 0.5544
618.00 0.5541
618.10 0.5537
618.20 0.5534
618.30 0.5531
618.40 0.5527
618.50 0.5524
618.60 0.552
618.70 0.5517
618.80 0.5514
618.90 0.551
619.00 0.5507
619.10 0.5504
619.20 0.55
619.30 0.5497
619.40 0.5493
619.50 0.549
619.60 0.5487
619.70 0.5483
619.80 0.548
619.90 0.5476
620.00 0.5473
620.10 0.547
620.20 0.5466
620.30 0.5463
620.40 0.5459
620.50 0.5456
620.60 0.5452
620.70 0.5449
620.80 0.5446
620.90 0.5442
621.00 0.5439
621.10 0.5435
621.20 0.5432
621.30 0.5428
621.40 0.5425
621.50 0.5421
621.60 0.5418
621.70 0.5415
621.80 0.5411
621.90 0.5408
622.00 0.5404
622.10 0.5401
622.20 0.5397
622.30 0.5394
622.40 0.539
622.50 0.5387
622.60 0.5383
622.70 0.538
622.80 0.5376
622.90 0.5373
623.00 0.537
623.10 0.5366
623.20 0.5363
623.30 0.5359
623.40 0.5356
623.50 0.5352
623.60 0.5349
623.70 0.5345
623.80 0.5342
623.90 0.5338
624.00 0.5335
624.10 0.5331
624.20 0.5328
624.30 0.5324
624.40 0.532
624.50 0.5317
624.60 0.5313
624.70 0.531
624.80 0.5306
624.90 0.5303
625.00 0.5299
625.10 0.5296
625.20 0.5292
625.30 0.5289
625.40 0.5285
625.50 0.5281
625.60 0.5278
625.70 0.5274
625.80 0.5271
625.90 0.5267
626.00 0.5264
626.10 0.526
626.20 0.5256
626.30 0.5253
626.40 0.5249
626.50 0.5246
626.60 0.5242
626.70 0.5238
626.80 0.5235
626.90 0.5231
627.00 0.5227
627.10 0.5224
627.20 0.522
627.30 0.5216
627.40 0.5213
627.50 0.5209
627.60 0.5205
627.70 0.5202
627.80 0.5198
627.90 0.5194
628.00 0.5191
628.10 0.5187
628.20 0.5183
628.30 0.518
628.40 0.5176
628.50 0.5172
628.60 0.5168
628.70 0.5165
628.80 0.5161
628.90 0.5157
629.00 0.5154
629.10 0.515
629.20 0.5146
629.30 0.5142
629.40 0.5138
629.50 0.5135
629.60 0.5131
629.70 0.5127
629.80 0.5123
629.90 0.5119
630.00 0.5116
630.10 0.5112
630.20 0.5108
630.30 0.5104
630.40 0.51
630.50 0.5096
630.60 0.5092
630.70 0.5089
630.80 0.5085
630.90 0.5081
631.00 0.5077
631.10 0.5073
631.20 0.5069
631.30 0.5065
631.40 0.5061
631.50 0.5057
631.60 0.5053
631.70 0.5049
631.80 0.5045
631.90 0.5041
632.00 0.5037
632.10 0.5033
632.20 0.5029
632.30 0.5025
632.40 0.5021
632.50 0.5017
632.60 0.5013
632.70 0.5009
632.80 0.5005
632.90 0.5001
633.00 0.4997
633.10 0.4993
633.20 0.4989
633.30 0.4984
633.40 0.498
633.50 0.4976
633.60 0.4972
633.70 0.4968
633.80 0.4963
633.90 0.4959
634.00 0.4955
634.10 0.4951
634.20 0.4947
634.30 0.4942
634.40 0.4938
634.50 0.4934
634.60 0.4929
634.70 0.4925
634.80 0.4921
634.90 0.4916
635.00 0.4912
635.10 0.4908
635.20 0.4903
635.30 0.4899
635.40 0.4894
635.50 0.489
635.60 0.4885
635.70 0.4881
635.80 0.4876
635.90 0.4872
636.00 0.4867
636.10 0.4863
636.20 0.4858
636.30 0.4854
636.40 0.4849
636.50 0.4845
636.60 0.484
636.70 0.4835
636.80 0.4831
636.90 0.4826
637.00 0.4821
637.10 0.4817
637.20 0.4812
637.30 0.4807
637.40 0.4802
637.50 0.4798
637.60 0.4793
637.70 0.4788
637.80 0.4783
637.90 0.4778
638.00 0.4773
638.10 0.4768
638.20 0.4763
638.30 0.4759
638.40 0.4753
638.50 0.4748
638.60 0.4743
638.70 0.4738
638.80 0.4733
638.90 0.4728
639.00 0.4723
639.10 0.4718
639.20 0.4712
639.30 0.4707
639.40 0.4702
639.50 0.4696
639.60 0.4691
639.70 0.4685
639.80 0.468
639.90 0.4675
640.00 0.4669
640.10 0.4664
640.20 0.4658
640.30 0.4653
640.40 0.4647
640.50 0.4641
640.60 0.4635
640.70 0.463
640.80 0.4624
640.90 0.4618
641.00 0.4612
641.10 0.4607
641.20 0.4601
641.30 0.4595
641.40 0.4589
641.50 0.4583
641.60 0.4576
641.70 0.457
641.80 0.4564
641.90 0.4558
642.00 0.4552
642.10 0.4546
642.20 0.4539
642.30 0.4533
642.40 0.4527
642.50 0.452
642.60 0.4514
642.70 0.4507
642.80 0.4501
642.90 0.4494
643.00 0.4488
643.10 0.4482
643.20 0.4475
643.30 0.4469
643.40 0.4462
643.50 0.4455
643.60 0.4448
643.70 0.4441
643.80 0.4434
643.90 0.4427
644.00 0.442
644.10 0.4413
644.20 0.4406
644.30 0.4399
644.40 0.4392
644.50 0.4385
644.60 0.4377
644.70 0.437
644.80 0.4363
644.90 0.4355
645.00 0.4348
645.10 0.4341
645.20 0.4333
645.30 0.4326
645.40 0.4318
645.50 0.431
645.60 0.4302
645.70 0.4294
645.80 0.4286
645.90 0.4278
646.00 0.427
646.10 0.4262
646.20 0.4254
646.30 0.4246
646.40 0.4237
646.50 0.4228
646.60 0.422
646.70 0.4211
646.80 0.4203
646.90 0.4194
647.00 0.4186
647.10 0.4177
647.20 0.4169
647.30 0.416
647.40 0.415
647.50 0.4141
647.60 0.4131
647.70 0.4121
647.80 0.4112
647.90 0.4102
648.00 0.4092
648.10 0.4083
648.20 0.4073
648.30 0.4063
648.40 0.4052
648.50 0.4042
648.60 0.4031
648.70 0.402
648.80 0.4009
648.90 0.3998
649.00 0.3987
649.10 0.3976
649.20 0.3965
649.30 0.3954
649.40 0.3942
649.50 0.3929
649.60 0.3916
649.70 0.3904
649.80 0.3891
649.90 0.3878
650.00 0.3866
650.10 0.3853
650.20 0.3841
650.30 0.3828
650.40 0.3813
650.50 0.3799
650.60 0.3784
650.70 0.377
650.80 0.3756
650.90 0.3741
651.00 0.3727
651.10 0.3712
651.20 0.3698
651.30 0.3683
651.40 0.3666
651.50 0.365
651.60 0.3633
651.70 0.3616
651.80 0.3599
651.90 0.3582
652.00 0.3566
652.10 0.3549
652.20 0.3532
652.30 0.3515
652.40 0.3495
652.50 0.3475
652.60 0.3455
652.70 0.3435
652.80 0.3414
652.90 0.3394
653.00 0.3374
653.10 0.3354
653.20 0.3334
653.30 0.3313
653.40 0.3288
653.50 0.3263
653.60 0.3238
653.70 0.3213
653.80 0.3188
653.90 0.3163
654.00 0.3137
654.10 0.3112
654.20 0.3087
654.30 0.3062
654.40 0.3032
654.50 0.3003
654.60 0.2974
654.70 0.2945
654.80 0.2916
654.90 0.2885
655.00 0.2854
655.10 0.2822
655.20 0.2791
655.30 0.276
655.40 0.2727
655.50 0.2693
655.60 0.2655
655.70 0.2616
655.80 0.2569
655.90 0.2515
656.00 0.2431
656.10 0.2335
656.20 0.2118
656.30 0.1947
656.40 0.2217
656.50 0.2374
656.60 0.2457
656.70 0.2532
656.80 0.2576
656.90 0.2619
657.00 0.2654
657.10 0.2689
657.20 0.2719
657.30 0.275
657.40 0.2778
657.50 0.2807
657.60 0.2835
657.70 0.2864
657.80 0.2892
657.90 0.2918
658.00 0.2944
658.10 0.297
658.20 0.2996
658.30 0.3022
658.40 0.3044
658.50 0.3065
658.60 0.3087
658.70 0.3109
658.80 0.3131
658.90 0.3153
659.00 0.3175
659.10 0.3197
659.20 0.3219
659.30 0.3239
659.40 0.3256
659.50 0.3272
659.60 0.3289
659.70 0.3306
659.80 0.3322
659.90 0.3339
660.00 0.3355
660.10 0.3372
660.20 0.3388
660.30 0.3404
660.40 0.3417
660.50 0.343
660.60 0.3443
660.70 0.3456
660.80 0.3469
660.90 0.3482
661.00 0.3495
661.10 0.3508
661.20 0.3521
661.30 0.3533
661.40 0.3544
661.50 0.3554
661.60 0.3564
661.70 0.3575
661.80 0.3585
661.90 0.3596
662.00 0.3606
662.10 0.3617
662.20 0.3627
662.30 0.3637
662.40 0.3646
662.50 0.3654
662.60 0.3662
662.70 0.3671
662.80 0.3679
662.90 0.3688
663.00 0.3696
663.10 0.3705
663.20 0.3713
663.30 0.3721
663.40 0.3728
663.50 0.3735
663.60 0.3741
663.70 0.3748
663.80 0.3754
663.90 0.3761
664.00 0.3768
664.10 0.3774
664.20 0.3781
664.30 0.3787
664.40 0.3792
664.50 0.3798
664.60 0.3803
664.70 0.3808
664.80 0.3814
664.90 0.3819
665.00 0.3824
665.10 0.3829
665.20 0.3835
665.30 0.384
665.40 0.3844
665.50 0.3848
665.60 0.3852
665.70 0.3856
665.80 0.386
665.90 0.3864
666.00 0.3868
666.10 0.3872
666.20 0.3877
666.30 0.388
666.40 0.3884
666.50 0.3887
666.60 0.3891
666.70 0.3894
666.80 0.3898
666.90 0.3901
667.00 0.3905
667.10 0.3908
667.20 0.3912
667.30 0.3915
667.40 0.3918
667.50 0.3921
667.60 0.3923
667.70 0.3926
667.80 0.3929
667.90 0.3931
668.00 0.3934
668.10 0.3937
668.20 0.394
668.30 0.3942
668.40 0.3944
668.50 0.3947
668.60 0.3949
668.70 0.3951
668.80 0.3953
668.90 0.3955
669.00 0.3958
669.10 0.396
669.20 0.3962
669.30 0.3964
669.40 0.3966
669.50 0.3968
669.60 0.3969
669.70 0.3971
669.80 0.3973
669.90 0.3974
670.00 0.3976
670.10 0.3978
670.20 0.398
670.30 0.3981
670.40 0.3983
670.50 0.3984
670.60 0.3985
670.70 0.3987
670.80 0.3988
670.90 0.3989
671.00 0.3991
671.10 0.3992
671.20 0.3993
671.30 0.3995
671.40 0.3996
671.50 0.3997
671.60 0.3997
671.70 0.3998
671.80 0.3999
671.90 0.4
672.00 0.4001
672.10 0.4002
672.20 0.4003
672.30 0.4004
672.40 0.4005
672.50 0.4005
672.60 0.4006
672.70 0.4006
672.80 0.4007
672.90 0.4007
673.00 0.4008
673.10 0.4009
673.20 0.4009
673.30 0.401
673.40 0.401
673.50 0.401
673.60 0.401
673.70 0.4011
673.80 0.4011
673.90 0.4011
674.00 0.4011
674.10 0.4012
674.20 0.4012
674.30 0.4012
674.40 0.4012
674.50 0.4012
674.60 0.4012
674.70 0.4012
674.80 0.4012
674.90 0.4012
675.00 0.4012
675.10 0.4012
675.20 0.4012
675.30 0.4012
675.40 0.4011
675.50 0.4011
675.60 0.4011
675.70 0.4011
675.80 0.4011
675.90 0.401
676.00 0.401
676.10 0.401
676.20 0.401
676.30 0.4009
676.40 0.4009
676.50 0.4008
676.60 0.4008
676.70 0.4008
676.80 0.4007
676.90 0.4007
677.00 0.4006
677.10 0.4006
677.20 0.4005
677.30 0.4005
677.40 0.4004
677.50 0.4004
677.60 0.4003
677.70 0.4003
677.80 0.4002
677.90 0.4001
678.00 0.4001
678.10 0.4
678.20 0.4
678.30 0.3999
678.40 0.3998
678.50 0.3998
678.60 0.3997
678.70 0.3996
678.80 0.3995
678.90 0.3995
679.00 0.3994
679.10 0.3993
679.20 0.3993
679.30 0.3992
679.40 0.3991
679.50 0.399
679.60 0.3989
679.70 0.3988
679.80 0.3988
679.90 0.3987
680.00 0.3986
680.10 0.3985
680.20 0.3984
680.30 0.3983
680.40 0.3982
680.50 0.3981
680.60 0.398
680.70 0.3979
680.80 0.3979
680.90 0.3978
681.00 0.3977
681.10 0.3976
681.20 0.3975
681.30 0.3974
681.40 0.3973
681.50 0.3972
681.60 0.3971
681.70 0.3969
681.80 0.3968
681.90 0.3967
682.00 0.3966
682.10 0.3965
682.20 0.3964
682.30 0.3963
682.40 0.3962
682.50 0.3961
682.60 0.396
682.70 0.3959
682.80 0.3957
682.90 0.3956
683.00 0.3955
683.10 0.3954
683.20 0.3953
683.30 0.3952
683.40 0.3951
683.50 0.3949
683.60 0.3948
683.70 0.3947
683.80 0.3946
683.90 0.3945
684.00 0.3943
684.10 0.3942
684.20 0.3941
684.30 0.394
684.40 0.3938
684.50 0.3937
684.60 0.3936
684.70 0.3935
684.80 0.3933
684.90 0.3932
685.00 0.3931
685.10 0.393
685.20 0.3928
685.30 0.3927
685.40 0.3926
685.50 0.3924
685.60 0.3923
685.70 0.3922
685.80 0.392
685.90 0.3919
686.00 0.3918
686.10 0.3916
686.20 0.3915
686.30 0.3914
686.40 0.3912
686.50 0.3911
686.60 0.391
686.70 0.3908
686.80 0.3907
686.90 0.3906
687.00 0.3904
687.10 0.3903
687.20 0.3901
687.30 0.39
687.40 0.3899
687.50 0.3897
687.60 0.3896
687.70 0.3894
687.80 0.3893
687.90 0.3892
688.00 0.389
688.10 0.3889
688.20 0.3887
688.30 0.3886
688.40 0.3884
688.50 0.3883
688.60 0.3882
688.70 0.388
688.80 0.3879
688.90 0.3877
689.00 0.3876
689.10 0.3874
689.20 0.3873
689.30 0.3871
689.40 0.387
689.50 0.3868
689.60 0.3867
689.70 0.3865
689.80 0.3863
689.90 0.3862
690.00 0.386
690.10 0.3859
690.20 0.3857
690.30 0.3855
690.40 0.3854
690.50 0.3852
690.60 0.3851
690.70 0.3849
690.80 0.3848
690.90 0.3846
691.00 0.3844
691.10 0.3843
691.20 0.3841
691.30 0.384
691.40 0.3838
691.50 0.3836
691.60 0.3835
691.70 0.3833
691.80 0.3832
691.90 0.383
692.00 0.3828
692.10 0.3827
692.20 0.3825
692.30 0.3824
692.40 0.3822
692.50 0.3821
692.60 0.3819
692.70 0.3817
692.80 0.3816
692.90 0.3814
693.00 0.3813
693.10 0.3811
693.20 0.381
693.30 0.3808
693.40 0.3806
693.50 0.3805
693.60 0.3803
693.70 0.3802
693.80 0.38
693.90 0.3799
694.00 0.3797
694.10 0.3795
694.20 0.3794
694.30 0.3792
694.40 0.3791
694.50 0.3789
694.60 0.3788
694.70 0.3786
694.80 0.3784
694.90 0.3783
695.00 0.3781
695.10 0.378
695.20 0.3778
695.30 0.3777
695.40 0.3775
695.50 0.3774
695.60 0.3772
695.70 0.377
695.80 0.3769
695.90 0.3767
696.00 0.3766
696.10 0.3764
696.20 0.3763
696.30 0.3761
696.40 0.376
696.50 0.3758
696.60 0.3756
696.70 0.3755
696.80 0.3753
696.90 0.3752
697.00 0.375
697.10 0.3749
697.20 0.3747
697.30 0.3746
697.40 0.3744
697.50 0.3743
697.60 0.3741
697.70 0.3739
697.80 0.3738
697.90 0.3736
698.00 0.3735
698.10 0.3733
698.20 0.3732
698.30 0.373
698.40 0.3729
698.50 0.3727
698.60 0.3726
698.70 0.3724
698.80 0.3723
698.90 0.3721
699.00 0.3719
699.10 0.3718
699.20 0.3716
699.30 0.3715
699.40 0.3713
699.50 0.3712
699.60 0.371
699.70 0.3709
699.80 0.3707
699.90 0.3706
700.00 0.3704
700.10 0.3703
700.20 0.3701
700.30 0.37
700.40 0.3698
700.50 0.3697
700.60 0.3695
700.70 0.3694
700.80 0.3692
700.90 0.3691
701.00 0.3689
701.10 0.3688
701.20 0.3686
701.30 0.3685
701.40 0.3683
701.50 0.3682
701.60 0.3681
701.70 0.3679
701.80 0.3678
701.90 0.3676
702.00 0.3675
702.10 0.3673
702.20 0.3672
702.30 0.367
702.40 0.3669
702.50 0.3667
702.60 0.3666
702.70 0.3664
702.80 0.3663
702.90 0.3661
703.00 0.366
703.10 0.3658
703.20 0.3657
703.30 0.3656
703.40 0.3654
703.50 0.3653
703.60 0.3651
703.70 0.365
703.80 0.3648
703.90 0.3647
704.00 0.3645
704.10 0.3644
704.20 0.3642
704.30 0.3641
704.40 0.3639
704.50 0.3638
704.60 0.3637
704.70 0.3635
704.80 0.3634
704.90 0.3632
705.00 0.3631
705.10 0.3629
705.20 0.3627
705.30 0.3626
705.40 0.3624
705.50 0.3623
705.60 0.3621
705.70 0.3619
705.80 0.3618
705.90 0.3616
706.00 0.3614
706.10 0.3613
706.20 0.3611
706.30 0.361
706.40 0.3608
706.50 0.3606
706.60 0.3605
706.70 0.3603
706.80 0.3601
706.90 0.36
707.00 0.3598
707.10 0.3597
707.20 0.3595
707.30 0.3593
707.40 0.3592
707.50 0.359
707.60 0.3588
707.70 0.3587
707.80 0.3585
707.90 0.3584
708.00 0.3582
708.10 0.358
708.20 0.3579
708.30 0.3577
708.40 0.3576
708.50 0.3574
708.60 0.3572
708.70 0.3571
708.80 0.3569
708.90 0.3568
709.00 0.3566
709.10 0.3564
709.20 0.3563
709.30 0.3561
709.40 0.356
709.50 0.3558
709.60 0.3556
709.70 0.3555
709.80 0.3553
709.90 0.3552
710.00 0.355
710.10 0.3548
710.20 0.3547
710.30 0.3545
710.40 0.3544
710.50 0.3542
710.60 0.354
710.70 0.3539
710.80 0.3537
710.90 0.3535
711.00 0.3534
711.10 0.3532
711.20 0.3531
711.30 0.3529
711.40 0.3527
711.50 0.3526
711.60 0.3524
711.70 0.3523
711.80 0.3521
711.90 0.3519
712.00 0.3518
712.10 0.3516
712.20 0.3515
712.30 0.3513
712.40 0.3511
712.50 0.351
712.60 0.3508
712.70 0.3507
712.80 0.3505
712.90 0.3503
713.00 0.3502
713.10 0.35
713.20 0.3499
713.30 0.3497
713.40 0.3496
713.50 0.3494
713.60 0.3492
713.70 0.3491
713.80 0.3489
713.90 0.3488
714.00 0.3486
714.10 0.3484
714.20 0.3483
714.30 0.3481
714.40 0.348
714.50 0.3478
714.60 0.3477
714.70 0.3475
714.80 0.3473
714.90 0.3472
715.00 0.347
715.10 0.3469
715.20 0.3467
715.30 0.3466
715.40 0.3465
715.50 0.3463
715.60 0.3462
715.70 0.346
715.80 0.3459
715.90 0.3458
716.00 0.3456
716.10 0.3455
716.20 0.3453
716.30 0.3452
716.40 0.345
716.50 0.3449
716.60 0.3448
716.70 0.3446
716.80 0.3445
716.90 0.3443
717.00 0.3442
717.10 0.3441
717.20 0.3439
717.30 0.3438
717.40 0.3436
717.50 0.3435
717.60 0.3434
717.70 0.3432
717.80 0.3431
717.90 0.3429
718.00 0.3428
718.10 0.3427
718.20 0.3425
718.30 0.3424
718.40 0.3423
718.50 0.3421
718.60 0.342
718.70 0.3418
718.80 0.3417
718.90 0.3416
719.00 0.3414
719.10 0.3413
719.20 0.3411
719.30 0.341
719.40 0.3409
719.50 0.3407
719.60 0.3406
719.70 0.3404
719.80 0.3403
719.90 0.3402
720.00 0.34
720.10 0.3399
720.20 0.3397
720.30 0.3396
720.40 0.3394
720.50 0.3392
720.60 0.3391
720.70 0.3389
720.80 0.3388
720.90 0.3386
721.00 0.3384
721.10 0.3383
721.20 0.3381
721.30 0.338
721.40 0.3378
721.50 0.3377
721.60 0.3375
721.70 0.3373
721.80 0.3372
721.90 0.337
722.00 0.3369
722.10 0.3367
722.20 0.3366
722.30 0.3364
722.40 0.3362
722.50 0.3361
722.60 0.3359
722.70 0.3358
722.80 0.3356
722.90 0.3355
723.00 0.3353
723.10 0.3351
723.20 0.335
723.30 0.3348
723.40 0.3347
723.50 0.3345
723.60 0.3344
723.70 0.3342
723.80 0.3341
723.90 0.3339
724.00 0.3337
724.10 0.3336
724.20 0.3334
724.30 0.3333
724.40 0.3331
724.50 0.333
724.60 0.3328
724.70 0.3327
724.80 0.3325
724.90 0.3323
725.00 0.3322
725.10 0.332
725.20 0.3319
725.30 0.3317
725.40 0.3316
725.50 0.3314
725.60 0.3313
725.70 0.3311
725.80 0.331
725.90 0.3308
726.00 0.3307
726.10 0.3305
726.20 0.3303
726.30 0.3302
726.40 0.33
726.50 0.3299
726.60 0.3297
726.70 0.3296
726.80 0.3294
726.90 0.3293
727.00 0.3291
727.10 0.329
727.20 0.3288
727.30 0.3287
727.40 0.3285
727.50 0.3284
727.60 0.3282
727.70 0.3281
727.80 0.3279
727.90 0.3278
728.00 0.3276
728.10 0.3274
728.20 0.3273
728.30 0.3271
728.40 0.327
728.50 0.3268
728.60 0.3267
728.70 0.3265
728.80 0.3264
728.90 0.3262
729.00 0.3261
729.10 0.3259
729.20 0.3258
729.30 0.3256
729.40 0.3255
729.50 0.3253
729.60 0.3252
729.70 0.325
729.80 0.3249
729.90 0.3247
730.00 0.3246
730.10 0.3244
730.20 0.3243
730.30 0.3241
730.40 0.324
730.50 0.3238
730.60 0.3237
730.70 0.3235
730.80 0.3234
730.90 0.3232
731.00 0.3231
731.10 0.3229
731.20 0.3228
731.30 0.3226
731.40 0.3225
731.50 0.3223
731.60 0.3222
731.70 0.322
731.80 0.3219
731.90 0.3217
732.00 0.3216
732.10 0.3215
732.20 0.3213
732.30 0.3212
732.40 0.321
732.50 0.3209
732.60 0.3207
732.70 0.3206
732.80 0.3204
732.90 0.3203
733.00 0.3201
733.10 0.32
733.20 0.3198
733.30 0.3197
733.40 0.3195
733.50 0.3194
733.60 0.3192
733.70 0.3191
733.80 0.3189
733.90 0.3188
734.00 0.3187
734.10 0.3185
734.20 0.3184
734.30 0.3182
734.40 0.3181
734.50 0.3179
734.60 0.3178
734.70 0.3176
734.80 0.3175
734.90 0.3173
735.00 0.3172
735.10 0.317
735.20 0.3169
735.30 0.3167
735.40 0.3166
735.50 0.3165
735.60 0.3163
735.70 0.3162
735.80 0.316
735.90 0.3159
736.00 0.3157
736.10 0.3156
736.20 0.3154
736.30 0.3153
736.40 0.3151
736.50 0.315
736.60 0.3149
736.70 0.3147
736.80 0.3146
736.90 0.3144
737.00 0.3143
737.10 0.3141
737.20 0.314
737.30 0.3138
737.40 0.3137
737.50 0.3136
737.60 0.3134
737.70 0.3133
737.80 0.3131
737.90 0.313
738.00 0.3128
738.10 0.3127
738.20 0.3125
738.30 0.3124
738.40 0.3123
738.50 0.3121
738.60 0.312
738.70 0.3118
738.80 0.3117
738.90 0.3115
739.00 0.3114
739.10 0.3113
739.20 0.3111
739.30 0.311
739.40 0.3108
739.50 0.3107
739.60 0.3105
739.70 0.3104
739.80 0.3103
739.90 0.3101
740.00 0.31
740.10 0.3098
740.20 0.3097
740.30 0.3095
740.40 0.3094
740.50 0.3093
740.60 0.3091
740.70 0.309
740.80 0.3088
740.90 0.3087
741.00 0.3086
741.10 0.3084
741.20 0.3083
741.30 0.3081
741.40 0.308
741.50 0.3079
741.60 0.3077
741.70 0.3076
741.80 0.3074
741.90 0.3073
742.00 0.3072
742.10 0.307
742.20 0.3069
742.30 0.3067
742.40 0.3066
742.50 0.3065
742.60 0.3063
742.70 0.3062
742.80 0.306
742.90 0.3059
743.00 0.3058
743.10 0.3056
743.20 0.3055
743.30 0.3053
743.40 0.3052
743.50 0.3051
743.60 0.3049
743.70 0.3048
743.80 0.3047
743.90 0.3045
744.00 0.3044
744.10 0.3042
744.20 0.3041
744.30 0.304
744.40 0.3038
744.50 0.3037
744.60 0.3035
744.70 0.3034
744.80 0.3033
744.90 0.3031
745.00 0.303
745.10 0.3029
745.20 0.3027
745.30 0.3026
745.40 0.3024
745.50 0.3023
745.60 0.3022
745.70 0.302
745.80 0.3019
745.90 0.3018
746.00 0.3016
746.10 0.3015
746.20 0.3013
746.30 0.3012
746.40 0.3011
746.50 0.3009
746.60 0.3008
746.70 0.3007
746.80 0.3005
746.90 0.3004
747.00 0.3003
747.10 0.3001
747.20 0.3
747.30 0.2998
747.40 0.2997
747.50 0.2996
747.60 0.2994
747.70 0.2993
747.80 0.2992
747.90 0.299
748.00 0.2989
748.10 0.2988
748.20 0.2986
748.30 0.2985
748.40 0.2983
748.50 0.2982
748.60 0.2981
748.70 0.2979
748.80 0.2978
748.90 0.2977
749.00 0.2975
749.10 0.2974
749.20 0.2973
749.30 0.2971
749.40 0.297
749.50 0.2969
749.60 0.2967
749.70 0.2966
749.80 0.2964
749.90 0.2963
750.00 0.2962
750.10 0.296
750.20 0.2959
750.30 0.2958
750.40 0.2956
750.50 0.2955
750.60 0.2954
750.70 0.2952
750.80 0.2951
750.90 0.295
751.00 0.2948
751.10 0.2947
751.20 0.2946
751.30 0.2944
751.40 0.2943
751.50 0.2942
751.60 0.2941
751.70 0.2939
751.80 0.2938
751.90 0.2937
752.00 0.2935
752.10 0.2934
752.20 0.2933
752.30 0.2931
752.40 0.293
752.50 0.2929
752.60 0.2927
752.70 0.2926
752.80 0.2925
752.90 0.2923
753.00 0.2922
753.10 0.2921
753.20 0.2919
753.30 0.2918
753.40 0.2917
753.50 0.2915
753.60 0.2914
753.70 0.2913
753.80 0.2912
753.90 0.291
754.00 0.2909
754.10 0.2908
754.20 0.2906
754.30 0.2905
754.40 0.2904
754.50 0.2902
754.60 0.2901
754.70 0.29
754.80 0.2898
754.90 0.2897
755.00 0.2896
755.10 0.2895
755.20 0.2893
755.30 0.2892
755.40 0.2891
755.50 0.2889
755.60 0.2888
755.70 0.2887
755.80 0.2885
755.90 0.2884
756.00 0.2883
756.10 0.2882
756.20 0.288
756.30 0.2879
756.40 0.2878
756.50 0.2876
756.60 0.2875
756.70 0.2874
756.80 0.2872
756.90 0.2871
757.00 0.287
757.10 0.2869
757.20 0.2867
757.30 0.2866
757.40 0.2865
757.50 0.2863
757.60 0.2862
757.70 0.2861
757.80 0.286
757.90 0.2858
758.00 0.2857
758.10 0.2856
758.20 0.2854
758.30 0.2853
758.40 0.2852
758.50 0.2851
758.60 0.2849
758.70 0.2848
758.80 0.2847
758.90 0.2845
759.00 0.2844
759.10 0.2843
759.20 0.2842
759.30 0.284
759.40 0.2839
759.50 0.2838
759.60 0.2836
759.70 0.2835
759.80 0.2834
759.90 0.2833
760.00 0.2831
760.10 0.283
760.20 0.2829
760.30 0.2828
760.40 0.2826
760.50 0.2825
760.60 0.2824
760.70 0.2823
760.80 0.2821
760.90 0.282
761.00 0.2819
761.10 0.2817
761.20 0.2816
761.30 0.2815
761.40 0.2814
761.50 0.2812
761.60 0.2811
761.70 0.281
761.80 0.2809
761.90 0.2807
762.00 0.2806
762.10 0.2805
762.20 0.2804
762.30 0.2802
762.40 0.2801
762.50 0.28
762.60 0.2799
762.70 0.2797
762.80 0.2796
762.90 0.2795
763.00 0.2794
763.10 0.2792
763.20 0.2791
763.30 0.279
763.40 0.2789
763.50 0.2788
763.60 0.2786
763.70 0.2785
763.80 0.2784
763.90 0.2783
764.00 0.2781
764.10 0.278
764.20 0.2779
764.30 0.2778
764.40 0.2776
764.50 0.2775
764.60 0.2774
764.70 0.2773
764.80 0.2771
764.90 0.277
765.00 0.2769
765.10 0.2768
765.20 0.2766
765.30 0.2765
765.40 0.2764
765.50 0.2763
765.60 0.2762
765.70 0.276
765.80 0.2759
765.90 0.2758
766.00 0.2757
766.10 0.2755
766.20 0.2754
766.30 0.2753
766.40 0.2752
766.50 0.275
766.60 0.2749
766.70 0.2748
766.80 0.2747
766.90 0.2746
767.00 0.2744
767.10 0.2743
767.20 0.2742
767.30 0.2741
767.40 0.2739
767.50 0.2738
767.60 0.2737
767.70 0.2736
767.80 0.2735
767.90 0.2733
768.00 0.2732
768.10 0.2731
768.20 0.273
768.30 0.2729
768.40 0.2727
768.50 0.2726
768.60 0.2725
768.70 0.2724
768.80 0.2722
768.90 0.2721
769.00 0.272
769.10 0.2719
769.20 0.2718
769.30 0.2716
769.40 0.2715
769.50 0.2714
769.60 0.2713
769.70 0.2712
769.80 0.271
769.90 0.2709
770.00 0.2708
770.10 0.2707
770.20 0.2706
770.30 0.2704
770.40 0.2703
770.50 0.2702
770.60 0.2701
770.70 0.27
770.80 0.2698
770.90 0.2697
771.00 0.2696
771.10 0.2695
771.20 0.2694
771.30 0.2692
771.40 0.2691
771.50 0.269
771.60 0.2689
771.70 0.2688
771.80 0.2687
771.90 0.2685
772.00 0.2684
772.10 0.2683
772.20 0.2682
772.30 0.2681
772.40 0.2679
772.50 0.2678
772.60 0.2677
772.70 0.2676
772.80 0.2675
772.90 0.2674
773.00 0.2672
773.10 0.2671
773.20 0.267
773.30 0.2669
773.40 0.2668
773.50 0.2666
773.60 0.2665
773.70 0.2664
773.80 0.2663
773.90 0.2662
774.00 0.2661
774.10 0.2659
774.20 0.2658
774.30 0.2657
774.40 0.2656
774.50 0.2655
774.60 0.2654
774.70 0.2652
774.80 0.2651
774.90 0.265
775.00 0.2649
775.10 0.2648
775.20 0.2647
775.30 0.2645
775.40 0.2644
775.50 0.2643
775.60 0.2642
775.70 0.2641
775.80 0.264
775.90 0.2638
776.00 0.2637
776.10 0.2636
776.20 0.2635
776.30 0.2634
776.40 0.2633
776.50 0.2631
776.60 0.263
776.70 0.2629
776.80 0.2628
776.90 0.2627
777.00 0.2626
777.10 0.2624
777.20 0.2623
777.30 0.2622
777.40 0.2621
777.50 0.262
777.60 0.2619
777.70 0.2618
777.80 0.2616
777.90 0.2615
778.00 0.2614
778.10 0.2613
778.20 0.2612
778.30 0.2611
778.40 0.2609
778.50 0.2608
778.60 0.2607
778.70 0.2606
778.80 0.2605
778.90 0.2604
779.00 0.2603
779.10 0.2601
779.20 0.26
779.30 0.2599
779.40 0.2598
779.50 0.2597
779.60 0.2596
779.70 0.2595
779.80 0.2593
779.90 0.2592
780.00 0.2591
780.10 0.259
780.20 0.2589
780.30 0.2588
780.40 0.2587
780.50 0.2585
780.60 0.2584
780.70 0.2583
780.80 0.2582
780.90 0.2581
781.00 0.258
781.10 0.2579
781.20 0.2578
781.30 0.2576
781.40 0.2575
781.50 0.2574
781.60 0.2573
781.70 0.2572
781.80 0.2571
781.90 0.257
782.00 0.2569
782.10 0.2567
782.20 0.2566
782.30 0.2565
782.40 0.2564
782.50 0.2563
782.60 0.2562
782.70 0.2561
782.80 0.256
782.90 0.2559
783.00 0.2557
783.10 0.2556
783.20 0.2555
783.30 0.2554
783.40 0.2553
783.50 0.2552
783.60 0.2551
783.70 0.255
783.80 0.2549
783.90 0.2547
784.00 0.2546
784.10 0.2545
784.20 0.2544
784.30 0.2543
784.40 0.2542
784.50 0.2541
784.60 0.254
784.70 0.2539
784.80 0.2537
784.90 0.2536
785.00 0.2535
785.10 0.2534
785.20 0.2533
785.30 0.2532
785.40 0.2531
785.50 0.253
785.60 0.2529
785.70 0.2527
785.80 0.2526
785.90 0.2525
786.00 0.2524
786.10 0.2523
786.20 0.2522
786.30 0.2521
786.40 0.252
786.50 0.2519
786.60 0.2518
786.70 0.2516
786.80 0.2515
786.90 0.2514
787.00 0.2513
787.10 0.2512
787.20 0.2511
787.30 0.251
787.40 0.2509
787.50 0.2508
787.60 0.2507
787.70 0.2506
787.80 0.2504
787.90 0.2503
788.00 0.2502
788.10 0.2501
788.20 0.25
788.30 0.2499
788.40 0.2498
788.50 0.2497
788.60 0.2496
788.70 0.2495
788.80 0.2494
788.90 0.2492
789.00 0.2491
789.10 0.249
789.20 0.2489
789.30 0.2488
789.40 0.2487
789.50 0.2486
789.60 0.2485
789.70 0.2484
789.80 0.2483
789.90 0.2482
790.00 0.2481
790.10 0.2479
790.20 0.2478
790.30 0.2477
790.40 0.2476
790.50 0.2475
790.60 0.2474
790.70 0.2473
790.80 0.2472
790.90 0.2471
791.00 0.247
791.10 0.2469
791.20 0.2468
791.30 0.2467
791.40 0.2466
791.50 0.2464
791.60 0.2463
791.70 0.2462
791.80 0.2461
791.90 0.246
792.00 0.2459
792.10 0.2458
792.20 0.2457
792.30 0.2456
792.40 0.2455
792.50 0.2454
792.60 0.2453
792.70 0.2452
792.80 0.2451
792.90 0.245
793.00 0.2449
793.10 0.2448
793.20 0.2446
793.30 0.2445
793.40 0.2444
793.50 0.2443
793.60 0.2442
793.70 0.2441
793.80 0.244
793.90 0.2439
794.00 0.2438
794.10 0.2437
794.20 0.2436
794.30 0.2435
794.40 0.2434
794.50 0.2433
794.60 0.2432
794.70 0.2431
794.80 0.243
794.90 0.2429
795.00 0.2428
795.10 0.2426
795.20 0.2425
795.30 0.2424
795.40 0.2423
795.50 0.2422
795.60 0.2421
795.70 0.242
795.80 0.2419
795.90 0.2418
796.00 0.2417
796.10 0.2416
796.20 0.2415
796.30 0.2414
796.40 0.2413
796.50 0.2412
796.60 0.2411
796.70 0.241
796.80 0.2409
796.90 0.2408
797.00 0.2407
797.10 0.2406
797.20 0.2405
797.30 0.2404
797.40 0.2402
797.50 0.2401
797.60 0.24
797.70 0.2399
797.80 0.2398
797.90 0.2397
798.00 0.2396
798.10 0.2395
798.20 0.2394
798.30 0.2393
798.40 0.2392
798.50 0.2391
798.60 0.239
798.70 0.2389
798.80 0.2388
798.90 0.2387
799.00 0.2386
799.10 0.2385
799.20 0.2384
799.30 0.2383
799.40 0.2382
799.50 0.2381
799.60 0.238
799.70 0.2379
799.80 0.2378
799.90 0.2377
800.00 0.2376
800.10 0.2375
800.20 0.2374
800.30 0.2373
800.40 0.2372
800.50 0.2371
800.60 0.237
800.70 0.2369
800.80 0.2368
800.90 0.2367
801.00 0.2366
801.10 0.2365
801.20 0.2364
801.30 0.2362
801.40 0.2361
801.50 0.236
801.60 0.2359
801.70 0.2358
801.80 0.2357
801.90 0.2356
802.00 0.2355
802.10 0.2354
802.20 0.2353
802.30 0.2352
802.40 0.2351
802.50 0.235
802.60 0.2349
802.70 0.2348
802.80 0.2347
802.90 0.2346
803.00 0.2345
803.10 0.2344
803.20 0.2343
803.30 0.2342
803.40 0.2341
803.50 0.234
803.60 0.2339
803.70 0.2338
803.80 0.2337
803.90 0.2336
804.00 0.2335
804.10 0.2334
804.20 0.2333
804.30 0.2332
804.40 0.2331
804.50 0.233
804.60 0.2329
804.70 0.2328
804.80 0.2327
804.90 0.2326
805.00 0.2325
805.10 0.2324
805.20 0.2323
805.30 0.2322
805.40 0.2321
805.50 0.232
805.60 0.2319
805.70 0.2318
805.80 0.2317
805.90 0.2317
806.00 0.2316
806.10 0.2315
806.20 0.2314
806.30 0.2313
806.40 0.2312
806.50 0.2311
806.60 0.231
806.70 0.2309
806.80 0.2308
806.90 0.2307
807.00 0.2306
807.10 0.2305
807.20 0.2304
807.30 0.2303
807.40 0.2302
807.50 0.2301
807.60 0.23
807.70 0.2299
807.80 0.2298
807.90 0.2297
808.00 0.2296
808.10 0.2295
808.20 0.2294
808.30 0.2293
808.40 0.2292
808.50 0.2291
808.60 0.229
808.70 0.2289
808.80 0.2288
808.90 0.2287
809.00 0.2286
809.10 0.2285
809.20 0.2284
809.30 0.2283
809.40 0.2282
809.50 0.2281
809.60 0.228
809.70 0.2279
809.80 0.2278
809.90 0.2277
810.00 0.2276
810.10 0.2275
810.20 0.2274
810.30 0.2273
810.40 0.2272
810.50 0.2271
810.60 0.227
810.70 0.227
810.80 0.2269
810.90 0.2268
811.00 0.2267
811.10 0.2266
811.20 0.2265
811.30 0.2264
811.40 0.2263
811.50 0.2262
811.60 0.2261
811.70 0.226
811.80 0.2259
811.90 0.2258
812.00 0.2257
812.10 0.2256
812.20 0.2255
812.30 0.2254
812.40 0.2253
812.50 0.2252
812.60 0.2251
812.70 0.225
812.80 0.2249
812.90 0.2249
813.00 0.2248
813.10 0.2247
813.20 0.2246
813.30 0.2245
813.40 0.2244
813.50 0.2243
813.60 0.2242
813.70 0.2241
813.80 0.224
813.90 0.2239
814.00 0.2238
814.10 0.2237
814.20 0.2236
814.30 0.2235
814.40 0.2234
814.50 0.2233
814.60 0.2232
814.70 0.2231
814.80 0.2231
814.90 0.223
815.00 0.2229
815.10 0.2228
815.20 0.2227
815.30 0.2226
815.40 0.2225
815.50 0.2224
815.60 0.2223
815.70 0.2222
815.80 0.2221
815.90 0.222
816.00 0.2219
816.10 0.2218
816.20 0.2217
816.30 0.2216
816.40 0.2215
816.50 0.2215
816.60 0.2214
816.70 0.2213
816.80 0.2212
816.90 0.2211
817.00 0.221
817.10 0.2209
817.20 0.2208
817.30 0.2207
817.40 0.2206
817.50 0.2205
817.60 0.2204
817.70 0.2203
817.80 0.2202
817.90 0.2201
818.00 0.2201
818.10 0.22
818.20 0.2199
818.30 0.2198
818.40 0.2197
818.50 0.2196
818.60 0.2195
818.70 0.2194
818.80 0.2193
818.90 0.2192
819.00 0.2191
819.10 0.219
819.20 0.2189
819.30 0.2188
819.40 0.2188
819.50 0.2187
819.60 0.2186
819.70 0.2185
819.80 0.2184
819.90 0.2183
820.00 0.2182
820.10 0.2181
820.20 0.218
820.30 0.218
820.40 0.2179
820.50 0.2178
820.60 0.2177
820.70 0.2176
820.80 0.2175
820.90 0.2174
821.00 0.2173
821.10 0.2172
821.20 0.2171
821.30 0.217
821.40 0.2169
821.50 0.2169
821.60 0.2168
821.70 0.2167
821.80 0.2166
821.90 0.2165
822.00 0.2164
822.10 0.2163
822.20 0.2162
822.30 0.2161
822.40 0.216
822.50 0.2159
822.60 0.2159
822.70 0.2158
822.80 0.2157
822.90 0.2156
823.00 0.2155
823.10 0.2154
823.20 0.2153
823.30 0.2152
823.40 0.2151
823.50 0.215
823.60 0.215
823.70 0.2149
823.80 0.2148
823.90 0.2147
824.00 0.2146
824.10 0.2145
824.20 0.2144
824.30 0.2143
824.40 0.2142
824.50 0.2141
824.60 0.2141
824.70 0.214
824.80 0.2139
824.90 0.2138
825.00 0.2137
825.10 0.2136
825.20 0.2135
825.30 0.2134
825.40 0.2133
825.50 0.2133
825.60 0.2132
825.70 0.2131
825.80 0.213
825.90 0.2129
826.00 0.2128
826.10 0.2127
826.20 0.2126
826.30 0.2125
826.40 0.2124
826.50 0.2124
826.60 0.2123
826.70 0.2122
826.80 0.2121
826.90 0.212
827.00 0.2119
827.10 0.2118
827.20 0.2117
827.30 0.2116
827.40 0.2116
827.50 0.2115
827.60 0.2114
827.70 0.2113
827.80 0.2112
827.90 0.2111
828.00 0.211
828.10 0.2109
828.20 0.2109
828.30 0.2108
828.40 0.2107
828.50 0.2106
828.60 0.2105
828.70 0.2104
828.80 0.2103
828.90 0.2102
829.00 0.2102
829.10 0.2101
829.20 0.21
829.30 0.2099
829.40 0.2098
829.50 0.2097
829.60 0.2096
829.70 0.2095
829.80 0.2095
829.90 0.2094
830.00 0.2093
830.10 0.2092
830.20 0.2091
830.30 0.209
830.40 0.2089
830.50 0.2088
830.60 0.2088
830.70 0.2087
830.80 0.2086
830.90 0.2085
831.00 0.2084
831.10 0.2083
831.20 0.2082
831.30 0.2081
831.40 0.2081
831.50 0.208
831.60 0.2079
831.70 0.2078
831.80 0.2077
831.90 0.2076
832.00 0.2075
832.10 0.2075
832.20 0.2074
832.30 0.2073
832.40 0.2072
832.50 0.2071
832.60 0.207
832.70 0.2069
832.80 0.2069
832.90 0.2068
833.00 0.2067
833.10 0.2066
833.20 0.2065
833.30 0.2064
833.40 0.2063
833.50 0.2063
833.60 0.2062
833.70 0.2061
833.80 0.206
833.90 0.2059
834.00 0.2058
834.10 0.2057
834.20 0.2057
834.30 0.2056
834.40 0.2055
834.50 0.2054
834.60 0.2053
834.70 0.2052
834.80 0.2051
834.90 0.2051
835.00 0.205
835.10 0.2049
835.20 0.2048
835.30 0.2047
835.40 0.2046
835.50 0.2045
835.60 0.2045
835.70 0.2044
835.80 0.2043
835.90 0.2042
836.00 0.2041
836.10 0.204
836.20 0.204
836.30 0.2039
836.40 0.2038
836.50 0.2037
836.60 0.2036
836.70 0.2035
836.80 0.2034
836.90 0.2034
837.00 0.2033
837.10 0.2032
837.20 0.2031
837.30 0.203
837.40 0.2029
837.50 0.2029
837.60 0.2028
837.70 0.2027
837.80 0.2026
837.90 0.2025
838.00 0.2024
838.10 0.2024
838.20 0.2023
838.30 0.2022
838.40 0.2021
838.50 0.202
838.60 0.2019
838.70 0.2019
838.80 0.2018
838.90 0.2017
839.00 0.2016
839.10 0.2015
839.20 0.2014
839.30 0.2014
839.40 0.2013
839.50 0.2012
839.60 0.2011
839.70 0.201
839.80 0.2009
839.90 0.2009
840.00 0.2008
840.10 0.2007
840.20 0.2006
840.30 0.2005
840.40 0.2004
840.50 0.2004
840.60 0.2003
840.70 0.2002
840.80 0.2001
840.90 0.2
841.00 0.1999
841.10 0.1999
841.20 0.1998
841.30 0.1997
841.40 0.1996
841.50 0.1995
841.60 0.1995
841.70 0.1994
841.80 0.1993
841.90 0.1992
842.00 0.1991
842.10 0.199
842.20 0.199
842.30 0.1989
842.40 0.1988
842.50 0.1987
842.60 0.1986
842.70 0.1986
842.80 0.1985
842.90 0.1984
843.00 0.1983
843.10 0.1982
843.20 0.1981
843.30 0.1981
843.40 0.198
843.50 0.1979
843.60 0.1978
843.70 0.1977
843.80 0.1977
843.90 0.1976
844.00 0.1975
844.10 0.1974
844.20 0.1973
844.30 0.1973
844.40 0.1972
844.50 0.1971
844.60 0.197
844.70 0.1969
844.80 0.1968
844.90 0.1968
845.00 0.1967
845.10 0.1966
845.20 0.1965
845.30 0.1964
845.40 0.1964
845.50 0.1963
845.60 0.1962
845.70 0.1961
845.80 0.196
845.90 0.196
846.00 0.1959
846.10 0.1958
846.20 0.1957
846.30 0.1956
846.40 0.1956
846.50 0.1955
846.60 0.1954
846.70 0.1953
846.80 0.1952
846.90 0.1952
847.00 0.1951
847.10 0.195
847.20 0.1949
847.30 0.1948
847.40 0.1948
847.50 0.1947
847.60 0.1946
847.70 0.1945
847.80 0.1944
847.90 0.1944
848.00 0.1943
848.10 0.1942
848.20 0.1941
848.30 0.194
848.40 0.194
848.50 0.1939
848.60 0.1938
848.70 0.1937
848.80 0.1937
848.90 0.1936
849.00 0.1935
849.10 0.1934
849.20 0.1933
849.30 0.1933
849.40 0.1932
849.50 0.1931
849.60 0.193
849.70 0.1929
849.80 0.1929
849.90 0.1928
850.00 0.1927
850.10 0.1926
850.20 0.1926
850.30 0.1925
850.40 0.1924
850.50 0.1923
850.60 0.1922
850.70 0.1922
850.80 0.1921
850.90 0.192
851.00 0.1919
851.10 0.1918
851.20 0.1918
851.30 0.1917
851.40 0.1916
851.50 0.1915
851.60 0.1915
851.70 0.1914
851.80 0.1913
851.90 0.1912
852.00 0.1911
852.10 0.1911
852.20 0.191
852.30 0.1909
852.40 0.1908
852.50 0.1908
852.60 0.1907
852.70 0.1906
852.80 0.1905
852.90 0.1905
853.00 0.1904
853.10 0.1903
853.20 0.1902
853.30 0.1901
853.40 0.1901
853.50 0.19
853.60 0.1899
853.70 0.1898
853.80 0.1898
853.90 0.1897
854.00 0.1896
854.10 0.1895
854.20 0.1895
854.30 0.1894
854.40 0.1893
854.50 0.1892
854.60 0.1891
854.70 0.1891
854.80 0.189
854.90 0.1889
855.00 0.1888
855.10 0.1888
855.20 0.1887
855.30 0.1886
855.40 0.1885
855.50 0.1885
855.60 0.1884
855.70 0.1883
855.80 0.1882
855.90 0.1882
856.00 0.1881
856.10 0.188
856.20 0.1879
856.30 0.1879
856.40 0.1878
856.50 0.1877
856.60 0.1876
856.70 0.1875
856.80 0.1875
856.90 0.1874
857.00 0.1873
857.10 0.1872
857.20 0.1872
857.30 0.1871
857.40 0.187
857.50 0.1869
857.60 0.1869
857.70 0.1868
857.80 0.1867
857.90 0.1866
858.00 0.1866
858.10 0.1865
858.20 0.1864
858.30 0.1863
858.40 0.1863
858.50 0.1862
858.60 0.1861
858.70 0.1861
858.80 0.186
858.90 0.1859
859.00 0.1858
859.10 0.1858
859.20 0.1857
859.30 0.1856
859.40 0.1855
859.50 0.1855
859.60 0.1854
859.70 0.1853
859.80 0.1852
859.90 0.1852
860.00 0.1851
860.10 0.185
860.20 0.1849
860.30 0.1849
860.40 0.1848
860.50 0.1847
860.60 0.1846
860.70 0.1846
860.80 0.1845
860.90 0.1844
861.00 0.1843
861.10 0.1843
861.20 0.1842
861.30 0.1841
861.40 0.1841
861.50 0.184
861.60 0.1839
861.70 0.1838
861.80 0.1838
861.90 0.1837
862.00 0.1836
862.10 0.1835
862.20 0.1835
862.30 0.1834
862.40 0.1833
862.50 0.1832
862.60 0.1832
862.70 0.1831
862.80 0.183
862.90 0.183
863.00 0.1829
863.10 0.1828
863.20 0.1827
863.30 0.1827
863.40 0.1826
863.50 0.1825
863.60 0.1824
863.70 0.1824
863.80 0.1823
863.90 0.1822
864.00 0.1822
864.10 0.1821
864.20 0.182
864.30 0.1819
864.40 0.1819
864.50 0.1818
864.60 0.1817
864.70 0.1817
864.80 0.1816
864.90 0.1815
865.00 0.1814
865.10 0.1814
865.20 0.1813
865.30 0.1812
865.40 0.1811
865.50 0.1811
865.60 0.181
865.70 0.1809
865.80 0.1809
865.90 0.1808
866.00 0.1807
866.10 0.1806
866.20 0.1806
866.30 0.1805
866.40 0.1804
866.50 0.1804
866.60 0.1803
866.70 0.1802
866.80 0.1801
866.90 0.1801
867.00 0.18
867.10 0.1799
867.20 0.1799
867.30 0.1798
867.40 0.1797
867.50 0.1797
867.60 0.1796
867.70 0.1795
867.80 0.1794
867.90 0.1794
868.00 0.1793
868.10 0.1792
868.20 0.1792
868.30 0.1791
868.40 0.179
868.50 0.179
868.60 0.1789
868.70 0.1788
868.80 0.1787
868.90 0.1787
869.00 0.1786
869.10 0.1785
869.20 0.1785
869.30 0.1784
869.40 0.1783
869.50 0.1783
869.60 0.1782
869.70 0.1781
869.80 0.1781
869.90 0.178
870.00 0.1779
870.10 0.1778
870.20 0.1778
870.30 0.1777
870.40 0.1776
870.50 0.1776
870.60 0.1775
870.70 0.1774
870.80 0.1774
870.90 0.1773
871.00 0.1772
871.10 0.1772
871.20 0.1771
871.30 0.177
871.40 0.1769
871.50 0.1769
871.60 0.1768
871.70 0.1767
871.80 0.1767
871.90 0.1766
872.00 0.1765
872.10 0.1765
872.20 0.1764
872.30 0.1763
872.40 0.1763
872.50 0.1762
872.60 0.1761
872.70 0.1761
872.80 0.176
872.90 0.1759
873.00 0.1759
873.10 0.1758
873.20 0.1757
873.30 0.1757
873.40 0.1756
873.50 0.1755
873.60 0.1754
873.70 0.1754
873.80 0.1753
873.90 0.1752
874.00 0.1752
874.10 0.1751
874.20 0.175
874.30 0.175
874.40 0.1749
874.50 0.1748
874.60 0.1748
874.70 0.1747
874.80 0.1746
874.90 0.1746
875.00 0.1745
875.10 0.1744
875.20 0.1744
875.30 0.1743
875.40 0.1742
875.50 0.1742
875.60 0.1741
875.70 0.174
875.80 0.174
875.90 0.1739
876.00 0.1738
876.10 0.1738
876.20 0.1737
876.30 0.1736
876.40 0.1736
876.50 0.1735
876.60 0.1734
876.70 0.1734
876.80 0.1733
876.90 0.1732
877.00 0.1732
877.10 0.1731
877.20 0.173
877.30 0.173
877.40 0.1729
877.50 0.1728
877.60 0.1728
877.70 0.1727
877.80 0.1726
877.90 0.1726
878.00 0.1725
878.10 0.1724
878.20 0.1724
878.30 0.1723
878.40 0.1723
878.50 0.1722
878.60 0.1721
878.70 0.1721
878.80 0.172
878.90 0.1719
879.00 0.1719
879.10 0.1718
879.20 0.1717
879.30 0.1717
879.40 0.1716
879.50 0.1715
879.60 0.1715
879.70 0.1714
879.80 0.1714
879.90 0.1713
880.00 0.1712
880.10 0.1712
880.20 0.1711
880.30 0.171
880.40 0.171
880.50 0.1709
880.60 0.1708
880.70 0.1708
880.80 0.1707
880.90 0.1706
881.00 0.1706
881.10 0.1705
881.20 0.1705
881.30 0.1704
881.40 0.1703
881.50 0.1703
881.60 0.1702
881.70 0.1701
881.80 0.1701
881.90 0.17
882.00 0.1699
882.10 0.1699
882.20 0.1698
882.30 0.1697
882.40 0.1697
882.50 0.1696
882.60 0.1695
882.70 0.1695
882.80 0.1694
882.90 0.1694
883.00 0.1693
883.10 0.1692
883.20 0.1692
883.30 0.1691
883.40 0.169
883.50 0.169
883.60 0.1689
883.70 0.1688
883.80 0.1688
883.90 0.1687
884.00 0.1686
884.10 0.1686
884.20 0.1685
884.30 0.1684
884.40 0.1684
884.50 0.1683
884.60 0.1682
884.70 0.1682
884.80 0.1681
884.90 0.1681
885.00 0.168
885.10 0.1679
885.20 0.1679
885.30 0.1678
885.40 0.1677
885.50 0.1677
885.60 0.1676
885.70 0.1675
885.80 0.1675
885.90 0.1674
886.00 0.1673
886.10 0.1673
886.20 0.1672
886.30 0.1671
886.40 0.1671
886.50 0.167
886.60 0.167
886.70 0.1669
886.80 0.1668
886.90 0.1668
887.00 0.1667
887.10 0.1666
887.20 0.1666
887.30 0.1665
887.40 0.1665
887.50 0.1664
887.60 0.1663
887.70 0.1663
887.80 0.1662
887.90 0.1662
888.00 0.1661
888.10 0.1661
888.20 0.166
888.30 0.1659
888.40 0.1659
888.50 0.1658
888.60 0.1658
888.70 0.1657
888.80 0.1656
888.90 0.1656
889.00 0.1655
889.10 0.1655
889.20 0.1654
889.30 0.1654
889.40 0.1653
889.50 0.1652
889.60 0.1652
889.70 0.1651
889.80 0.1651
889.90 0.165
890.00 0.165
890.10 0.1649
890.20 0.1648
890.30 0.1648
890.40 0.1647
890.50 0.1647
890.60 0.1646
890.70 0.1645
890.80 0.1645
890.90 0.1644
891.00 0.1644
891.10 0.1643
891.20 0.1643
891.30 0.1642
891.40 0.1641
891.50 0.1641
891.60 0.164
891.70 0.164
891.80 0.1639
891.90 0.1639
892.00 0.1638
892.10 0.1637
892.20 0.1637
892.30 0.1636
892.40 0.1636
892.50 0.1635
892.60 0.1634
892.70 0.1634
892.80 0.1633
892.90 0.1633
893.00 0.1632
893.10 0.1632
893.20 0.1631
893.30 0.163
893.40 0.163
893.50 0.1629
893.60 0.1629
893.70 0.1628
893.80 0.1627
893.90 0.1627
894.00 0.1626
894.10 0.1626
894.20 0.1625
894.30 0.1624
894.40 0.1624
894.50 0.1623
894.60 0.1623
894.70 0.1622
894.80 0.1622
894.90 0.1621
895.00 0.162
895.10 0.162
895.20 0.1619
895.30 0.1619
895.40 0.1618
895.50 0.1617
895.60 0.1617
895.70 0.1616
895.80 0.1616
895.90 0.1615
896.00 0.1615
896.10 0.1614
896.20 0.1613
896.30 0.1613
896.40 0.1612
896.50 0.1612
896.60 0.1611
896.70 0.161
896.80 0.161
896.90 0.1609
897.00 0.1609
897.10 0.1608
897.20 0.1607
897.30 0.1607
897.40 0.1606
897.50 0.1605
897.60 0.1605
897.70 0.1604
897.80 0.1604
897.90 0.1603
898.00 0.1602
898.10 0.1602
898.20 0.1601
898.30 0.16
898.40 0.16
898.50 0.1599
898.60 0.1598
898.70 0.1598
898.80 0.1597
898.90 0.1596
899.00 0.1596
899.10 0.1595
899.20 0.1595
899.30 0.1594
899.40 0.1593
899.50 0.1593
899.60 0.1592
899.70 0.1591
899.80 0.1591
899.90 0.159
900.00 0.1589
900.10 0.1589
900.20 0.1588
900.30 0.1587
900.40 0.1587
900.50 0.1586
900.60 0.1586
900.70 0.1585
900.80 0.1584
900.90 0.1584
901.00 0.1583
901.10 0.1582
901.20 0.1582
901.30 0.1581
901.40 0.158
901.50 0.158
901.60 0.1579
901.70 0.1578
901.80 0.1578
901.90 0.1577
902.00 0.1577
902.10 0.1576
902.20 0.1576
902.30 0.1575
902.40 0.1575
902.50 0.1574
902.60 0.1574
902.70 0.1573
902.80 0.1573
902.90 0.1572
903.00 0.1572
903.10 0.1571
903.20 0.1571
903.30 0.157
903.40 0.157
903.50 0.1569
903.60 0.1569
903.70 0.1568
903.80 0.1568
903.90 0.1567
904.00 0.1567
904.10 0.1566
904.20 0.1566
904.30 0.1565
904.40 0.1565
904.50 0.1564
904.60 0.1564
904.70 0.1563
904.80 0.1563
904.90 0.1562
905.00 0.1562
905.10 0.1561
905.20 0.1561
905.30 0.1561
905.40 0.156
905.50 0.156
905.60 0.1559
905.70 0.1559
905.80 0.1558
905.90 0.1558
906.00 0.1557
906.10 0.1557
906.20 0.1556
906.30 0.1556
906.40 0.1555
906.50 0.1555
906.60 0.1554
906.70 0.1554
906.80 0.1553
906.90 0.1553
907.00 0.1552
907.10 0.1552
907.20 0.1551
907.30 0.1551
907.40 0.155
907.50 0.155
907.60 0.1549
907.70 0.1549
907.80 0.1548
907.90 0.1548
908.00 0.1547
908.10 0.1547
908.20 0.1546
908.30 0.1546
908.40 0.1545
908.50 0.1545
908.60 0.1544
908.70 0.1544
908.80 0.1543
908.90 0.1543
909.00 0.1542
909.10 0.1542
909.20 0.1541
909.30 0.1541
909.40 0.154
909.50 0.154
909.60 0.1539
909.70 0.1539
909.80 0.1538
909.90 0.1538
910.00 0.1537
910.10 0.1537
910.20 0.1536
910.30 0.1536
910.40 0.1535
910.50 0.1535
910.60 0.1534
910.70 0.1534
910.80 0.1533
910.90 0.1533
911.00 0.1532
911.10 0.1532
911.20 0.1531
911.30 0.1531
911.40 0.153
911.50 0.153
911.60 0.1529
911.70 0.1529
911.80 0.1528
911.90 0.1528
912.00 0.1527
912.10 0.1526
912.20 0.1526
912.30 0.1525
912.40 0.1525
912.50 0.1524
912.60 0.1524
912.70 0.1523
912.80 0.1523
912.90 0.1522
913.00 0.1522
913.10 0.1521
913.20 0.152
913.30 0.152
913.40 0.1519
913.50 0.1519
913.60 0.1518
913.70 0.1518
913.80 0.1517
913.90 0.1517
914.00 0.1516
914.10 0.1515
914.20 0.1515
914.30 0.1514
914.40 0.1514
914.50 0.1513
914.60 0.1513
914.70 0.1512
914.80 0.1512
914.90 0.1511
915.00 0.1511
915.10 0.151
915.20 0.151
915.30 0.1509
915.40 0.1508
915.50 0.1508
915.60 0.1507
915.70 0.1507
915.80 0.1506
915.90 0.1506
916.00 0.1505
916.10 0.1505
916.20 0.1504
916.30 0.1504
916.40 0.1503
916.50 0.1502
916.60 0.1502
916.70 0.1501
916.80 0.1501
916.90 0.15
917.00 0.15
917.10 0.1499
917.20 0.1499
917.30 0.1498
917.40 0.1497
917.50 0.1497
917.60 0.1496
917.70 0.1495
917.80 0.1495
917.90 0.1494
918.00 0.1494
918.10 0.1493
918.20 0.1492
918.30 0.1492
918.40 0.1491
918.50 0.1491
918.60 0.149
918.70 0.1489
918.80 0.1489
918.90 0.1488
919.00 0.1488
919.10 0.1487
919.20 0.1486
919.30 0.1486
919.40 0.1485
919.50 0.1484
919.60 0.1484
919.70 0.1483
919.80 0.1483
919.90 0.1482
920.00 0.1481
920.10 0.1481
920.20 0.148
920.30 0.148
920.40 0.1479
920.50 0.1478
920.60 0.1478
920.70 0.1477
920.80 0.1477
920.90 0.1476
921.00 0.1475
921.10 0.1475
921.20 0.1474
921.30 0.1474
921.40 0.1473
921.50 0.1472
921.60 0.1472
921.70 0.1471
921.80 0.1471
921.90 0.147
922.00 0.1469
922.10 0.1469
922.20 0.1468
922.30 0.1468
922.40 0.1467
922.50 0.1466
922.60 0.1466
922.70 0.1465
922.80 0.1465
922.90 0.1464
923.00 0.1463
923.10 0.1463
923.20 0.1462
923.30 0.1461
923.40 0.1461
923.50 0.146
923.60 0.146
923.70 0.1459
923.80 0.1458
923.90 0.1458
924.00 0.1457
924.10 0.1457
924.20 0.1456
924.30 0.1455
924.40 0.1455
924.50 0.1454
924.60 0.1454
924.70 0.1453
924.80 0.1452
924.90 0.1452
925.00 0.1451
925.10 0.1451
925.20 0.145
925.30 0.1449
925.40 0.1449
925.50 0.1448
925.60 0.1448
925.70 0.1447
925.80 0.1446
925.90 0.1446
926.00 0.1445
926.10 0.1445
926.20 0.1444
926.30 0.1443
926.40 0.1443
926.50 0.1442
926.60 0.1442
926.70 0.1441
926.80 0.144
926.90 0.144
927.00 0.1439
927.10 0.1439
927.20 0.1439
927.30 0.1438
927.40 0.1438
927.50 0.1438
927.60 0.1437
927.70 0.1437
927.80 0.1437
927.90 0.1436
928.00 0.1436
928.10 0.1436
928.20 0.1436
928.30 0.1435
928.40 0.1435
928.50 0.1435
928.60 0.1434
928.70 0.1434
928.80 0.1434
928.90 0.1433
929.00 0.1433
929.10 0.1433
929.20 0.1433
929.30 0.1432
929.40 0.1432
929.50 0.1432
929.60 0.1431
929.70 0.1431
929.80 0.1431
929.90 0.143
930.00 0.143
930.10 0.143
930.20 0.143
930.30 0.1429
930.40 0.1429
930.50 0.1429
930.60 0.1428
930.70 0.1428
930.80 0.1428
930.90 0.1427
931.00 0.1427
931.10 0.1427
931.20 0.1426
931.30 0.1426
931.40 0.1426
931.50 0.1426
931.60 0.1425
931.70 0.1425
931.80 0.1425
931.90 0.1424
932.00 0.1424
932.10 0.1424
932.20 0.1423
932.30 0.1423
932.40 0.1423
932.50 0.1422
932.60 0.1422
932.70 0.1421
932.80 0.1421
932.90 0.1421
933.00 0.142
933.10 0.142
933.20 0.1419
933.30 0.1419
933.40 0.1419
933.50 0.1418
933.60 0.1418
933.70 0.1418
933.80 0.1417
933.90 0.1417
934.00 0.1416
934.10 0.1416
934.20 0.1416
934.30 0.1415
934.40 0.1415
934.50 0.1414
934.60 0.1414
934.70 0.1413
934.80 0.1413
934.90 0.1413
935.00 0.1412
935.10 0.1412
935.20 0.1411
935.30 0.1411
935.40 0.1411
935.50 0.141
935.60 0.141
935.70 0.1409
935.80 0.1409
935.90 0.1408
936.00 0.1408
936.10 0.1408
936.20 0.1407
936.30 0.1407
936.40 0.1406
936.50 0.1406
936.60 0.1405
936.70 0.1405
936.80 0.1405
936.90 0.1404
937.00 0.1404
937.10 0.1403
937.20 0.1403
937.30 0.1402
937.40 0.1402
937.50 0.1401
937.60 0.1401
937.70 0.1401
937.80 0.14
937.90 0.14
938.00 0.1399
938.10 0.1399
938.20 0.1398
938.30 0.1398
938.40 0.1397
938.50 0.1397
938.60 0.1397
938.70 0.1396
938.80 0.1396
938.90 0.1395
939.00 0.1395
939.10 0.1394
939.20 0.1394
939.30 0.1393
939.40 0.1393
939.50 0.1392
939.60 0.1392
939.70 0.1391
939.80 0.1391
939.90 0.139
940.00 0.139
940.10 0.139
940.20 0.1389
940.30 0.1389
940.40 0.1388
940.50 0.1388
940.60 0.1387
940.70 0.1387
940.80 0.1386
940.90 0.1386
941.00 0.1385
941.10 0.1385
941.20 0.1384
941.30 0.1384
941.40 0.1383
941.50 0.1383
941.60 0.1382
941.70 0.1382
941.80 0.1381
941.90 0.1381
942.00 0.138
942.10 0.138
942.20 0.1379
942.30 0.1379
942.40 0.1378
942.50 0.1378
942.60 0.1377
942.70 0.1376
942.80 0.1376
942.90 0.1375
943.00 0.1375
943.10 0.1374
943.20 0.1374
943.30 0.1373
943.40 0.1373
943.50 0.1372
943.60 0.1372
943.70 0.1371
943.80 0.1371
943.90 0.137
944.00 0.1369
944.10 0.1369
944.20 0.1368
944.30 0.1368
944.40 0.1367
944.50 0.1367
944.60 0.1366
944.70 0.1365
944.80 0.1365
944.90 0.1364
945.00 0.1364
945.10 0.1363
945.20 0.1362
945.30 0.1362
945.40 0.1361
945.50 0.1361
945.60 0.136
945.70 0.1359
945.80 0.1359
945.90 0.1358
946.00 0.1357
946.10 0.1357
946.20 0.1356
946.30 0.1355
946.40 0.1355
946.50 0.1354
946.60 0.1353
946.70 0.1353
946.80 0.1352
946.90 0.1351
947.00 0.1351
947.10 0.135
947.20 0.1349
947.30 0.1348
947.40 0.1348
947.50 0.1347
947.60 0.1346
947.70 0.1345
947.80 0.1344
947.90 0.1344
948.00 0.1343
948.10 0.1342
948.20 0.1341
948.30 0.134
948.40 0.134
948.50 0.1339
948.60 0.1338
948.70 0.1337
948.80 0.1336
948.90 0.1336
949.00 0.1335
949.10 0.1334
949.20 0.1333
949.30 0.1333
949.40 0.1332
949.50 0.1331
949.60 0.133
949.70 0.1329
949.80 0.1328
949.90 0.1327
950.00 0.1327
950.10 0.1326
950.20 0.1325
950.30 0.1324
950.40 0.1323
950.50 0.1322
950.60 0.1321
950.70 0.1321
950.80 0.132
950.90 0.1319
951.00 0.1318
951.10 0.1317
951.20 0.1316
951.30 0.1315
951.40 0.1315
951.50 0.1314
951.60 0.1313
951.70 0.1312
951.80 0.1312
951.90 0.1311
952.00 0.131
952.10 0.1309
952.20 0.1309
952.30 0.1308
952.40 0.1308
952.50 0.1307
952.60 0.1306
952.70 0.1306
952.80 0.1305
952.90 0.1305
953.00 0.1305
953.10 0.1304
953.20 0.1304
953.30 0.1304
953.40 0.1303
953.50 0.1303
953.60 0.1304
953.70 0.1305
953.80 0.1306
953.90 0.1307
954.00 0.1308
954.10 0.1309
954.20 0.131
954.30 0.1298
954.40 0.1287
954.50 0.1285
954.60 0.1283
954.70 0.1281
954.80 0.128
954.90 0.1278
955.00 0.1276
955.10 0.1275
955.20 0.1273
955.30 0.1272
955.40 0.127
955.50 0.1269
955.60 0.1267
955.70 0.1266
955.80 0.1264
955.90 0.1263
956.00 0.1263
956.10 0.1262
956.20 0.1262
956.30 0.1261
956.40 0.126
956.50 0.126
956.60 0.1259
956.70 0.1259
956.80 0.1258
956.90 0.1257
957.00 0.1257
957.10 0.1257
957.20 0.1256
957.30 0.1256
957.40 0.1256
957.50 0.1256
957.60 0.1256
957.70 0.1256
957.80 0.1256
957.90 0.1256
958.00 0.1256
958.10 0.1256
958.20 0.1256
958.30 0.1256
958.40 0.1256
958.50 0.1256
958.60 0.1256
958.70 0.1256
958.80 0.1256
958.90 0.1256
959.00 0.1256
959.10 0.1256
959.20 0.1256
959.30 0.1256
959.40 0.1256
959.50 0.1256
959.60 0.1256
959.70 0.1256
959.80 0.1256
959.90 0.1256
960.00 0.1256
960.10 0.1256
960.20 0.1256
960.30 0.1256
960.40 0.1256
960.50 0.1256
960.60 0.1256
960.70 0.1256
960.80 0.1256
960.90 0.1256
961.00 0.1256
961.10 0.1256
961.20 0.1256
961.30 0.1256
961.40 0.1256
961.50 0.1257
961.60 0.1257
961.70 0.1257
961.80 0.1257
961.90 0.1257
962.00 0.1257
962.10 0.1257
962.20 0.1257
962.30 0.1257
962.40 0.1257
962.50 0.1257
962.60 0.1257
962.70 0.1257
962.80 0.1257
962.90 0.1257
963.00 0.1257
963.10 0.1257
963.20 0.1257
963.30 0.1257
963.40 0.1257
963.50 0.1257
963.60 0.1257
963.70 0.1257
963.80 0.1256
963.90 0.1256
964.00 0.1256
964.10 0.1256
964.20 0.1256
964.30 0.1256
964.40 0.1256
964.50 0.1256
964.60 0.1256
964.70 0.1256
964.80 0.1256
964.90 0.1256
965.00 0.1256
965.10 0.1256
965.20 0.1255
965.30 0.1255
965.40 0.1255
965.50 0.1255
965.60 0.1255
965.70 0.1255
965.80 0.1255
965.90 0.1255
966.00 0.1255
966.10 0.1255
966.20 0.1254
966.30 0.1254
966.40 0.1254
966.50 0.1254
966.60 0.1254
966.70 0.1254
966.80 0.1254
966.90 0.1253
967.00 0.1253
967.10 0.1253
967.20 0.1253
967.30 0.1253
967.40 0.1253
967.50 0.1252
967.60 0.1252
967.70 0.1252
967.80 0.1252
967.90 0.1252
968.00 0.1251
968.10 0.1251
968.20 0.1251
968.30 0.1251
968.40 0.1251
968.50 0.125
968.60 0.125
968.70 0.125
968.80 0.125
968.90 0.125
969.00 0.1249
969.10 0.1249
969.20 0.1249
969.30 0.1249
969.40 0.1248
969.50 0.1248
969.60 0.1248
969.70 0.1248
969.80 0.1248
969.90 0.1247
970.00 0.1247
970.10 0.1247
970.20 0.1247
970.30 0.1246
970.40 0.1246
970.50 0.1246
970.60 0.1246
970.70 0.1245
970.80 0.1245
970.90 0.1245
971.00 0.1244
971.10 0.1244
971.20 0.1244
971.30 0.1244
971.40 0.1243
971.50 0.1243
971.60 0.1243
971.70 0.1242
971.80 0.1242
971.90 0.1242
972.00 0.1242
972.10 0.1241
972.20 0.1241
972.30 0.1241
972.40 0.124
972.50 0.124
972.60 0.124
972.70 0.1239
972.80 0.1239
972.90 0.1239
973.00 0.1238
973.10 0.1238
973.20 0.1238
973.30 0.1238
973.40 0.1237
973.50 0.1237
973.60 0.1237
973.70 0.1236
973.80 0.1236
973.90 0.1236
974.00 0.1235
974.10 0.1235
974.20 0.1235
974.30 0.1234
974.40 0.1234
974.50 0.1234
974.60 0.1233
974.70 0.1233
974.80 0.1233
974.90 0.1232
975.00 0.1232
975.10 0.1231
975.20 0.1231
975.30 0.1231
975.40 0.123
975.50 0.123
975.60 0.123
975.70 0.1229
975.80 0.1229
975.90 0.1229
976.00 0.1228
976.10 0.1228
976.20 0.1227
976.30 0.1227
976.40 0.1227
976.50 0.1226
976.60 0.1226
976.70 0.1226
976.80 0.1225
976.90 0.1225
977.00 0.1225
977.10 0.1224
977.20 0.1224
977.30 0.1223
977.40 0.1223
977.50 0.1222
977.60 0.1222
977.70 0.1222
977.80 0.1221
977.90 0.1221
978.00 0.122
978.10 0.122
978.20 0.1219
978.30 0.1219
978.40 0.1219
978.50 0.1218
978.60 0.1218
978.70 0.1217
978.80 0.1217
978.90 0.1216
979.00 0.1216
979.10 0.1216
979.20 0.1215
979.30 0.1215
979.40 0.1214
979.50 0.1214
979.60 0.1214
979.70 0.1213
979.80 0.1213
979.90 0.1212
980.00 0.1212
980.10 0.1211
980.20 0.1211
980.30 0.1211
980.40 0.121
980.50 0.121
980.60 0.1209
980.70 0.1209
980.80 0.1208
980.90 0.1208
981.00 0.1208
981.10 0.1207
981.20 0.1207
981.30 0.1206
981.40 0.1206
981.50 0.1206
981.60 0.1205
981.70 0.1205
981.80 0.1204
981.90 0.1204
982.00 0.1203
982.10 0.1203
982.20 0.1202
982.30 0.1202
982.40 0.1201
982.50 0.1201
982.60 0.12
982.70 0.12
982.80 0.1199
982.90 0.1199
983.00 0.1198
983.10 0.1198
983.20 0.1197
983.30 0.1197
983.40 0.1196
983.50 0.1196
983.60 0.1195
983.70 0.1195
983.80 0.1194
983.90 0.1194
984.00 0.1193
984.10 0.1193
984.20 0.1193
984.30 0.1192
984.40 0.1192
984.50 0.1191
984.60 0.1191
984.70 0.119
984.80 0.1189
984.90 0.1189
985.00 0.1188
985.10 0.1188
985.20 0.1187
985.30 0.1187
985.40 0.1186
985.50 0.1185
985.60 0.1185
985.70 0.1184
985.80 0.1184
985.90 0.1183
986.00 0.1183
986.10 0.1182
986.20 0.1181
986.30 0.1181
986.40 0.118
986.50 0.118
986.60 0.1179
986.70 0.1179
986.80 0.1178
986.90 0.1178
987.00 0.1177
987.10 0.1176
987.20 0.1176
987.30 0.1175
987.40 0.1174
987.50 0.1174
987.60 0.1173
987.70 0.1172
987.80 0.1172
987.90 0.1171
988.00 0.1171
988.10 0.117
988.20 0.1169
988.30 0.1169
988.40 0.1168
988.50 0.1167
988.60 0.1167
988.70 0.1166
988.80 0.1165
988.90 0.1165
989.00 0.1164
989.10 0.1163
989.20 0.1162
989.30 0.1162
989.40 0.1161
989.50 0.116
989.60 0.1159
989.70 0.1159
989.80 0.1158
989.90 0.1157
990.00 0.1156
990.10 0.1156
990.20 0.1155
990.30 0.1154
990.40 0.1154
990.50 0.1153
990.60 0.1152
990.70 0.1151
990.80 0.115
990.90 0.115
991.00 0.1149
991.10 0.1148
991.20 0.1147
991.30 0.1146
991.40 0.1145
991.50 0.1145
991.60 0.1144
991.70 0.1143
991.80 0.1142
991.90 0.1141
992.00 0.114
992.10 0.114
992.20 0.1139
992.30 0.1138
992.40 0.1137
992.50 0.1136
992.60 0.1135
992.70 0.1134
992.80 0.1133
992.90 0.1132
993.00 0.1131
993.10 0.113
993.20 0.1129
993.30 0.1128
993.40 0.1127
993.50 0.1126
993.60 0.1125
993.70 0.1124
993.80 0.1123
993.90 0.1122
994.00 0.1121
994.10 0.112
994.20 0.1119
994.30 0.1118
994.40 0.1117
994.50 0.1116
994.60 0.1115
994.70 0.1114
994.80 0.1112
994.90 0.1111
995.00 0.111
995.10 0.1109
995.20 0.1108
995.30 0.1107
995.40 0.1106
995.50 0.1105
995.60 0.1103
995.70 0.1102
995.80 0.1101
995.90 0.11
996.00 0.1099
996.10 0.1097
996.20 0.1096
996.30 0.1095
996.40 0.1094
996.50 0.1092
996.60 0.1091
996.70 0.109
996.80 0.1089
996.90 0.1088
997.00 0.1086
997.10 0.1085
997.20 0.1084
997.30 0.1082
997.40 0.1081
997.50 0.108
997.60 0.1079
997.70 0.1077
997.80 0.1076
997.90 0.1075
998.00 0.1073
998.10 0.1072
998.20 0.1071
998.30 0.1069
998.40 0.1068
998.50 0.1067
998.60 0.1065
998.70 0.1064
998.80 0.1063
998.90 0.1061
999.00 0.106
999.10 0.1059
999.20 0.1058
999.30 0.1056
999.40 0.1055
999.50 0.1054
999.60 0.1052
999.70 0.1051
999.80 0.105
999.90 0.1049
1000.00 0.1048
1000.10 0.1046
1000.20 0.1045
1000.30 0.1044
1000.40 0.1043
1000.50 0.1042
1000.60 0.1041
1000.70 0.1039
1000.80 0.1038
1000.90 0.1037
1001.00 0.1036
1001.10 0.1035
1001.20 0.1034
1001.30 0.1033
1001.40 0.1031
1001.50 0.103
1001.60 0.1029
1001.70 0.1028
1001.80 0.1027
1001.90 0.1026
1002.00 0.1025
1002.10 0.1025
1002.20 0.1024
1002.30 0.1024
1002.40 0.1023
1002.50 0.1023
1002.60 0.1022
1002.70 0.1022
1002.80 0.1021
1002.90 0.1021
1003.00 0.102
1003.10 0.102
1003.20 0.1021
1003.30 0.1023
1003.40 0.1024
1003.50 0.1026
1003.60 0.1028
1003.70 0.1029
1003.80 0.1031
1003.90 0.1033
1004.00 0.1035
1004.10 0.1037
1004.20 0.1038
1004.30 0.1041
1004.40 0.1043
1004.50 0.1045
1004.60 0.1046
1004.70 0.1009
1004.80 0.1007
1004.90 0.1004
1005.00 0.1002
1005.10 0.09992
1005.20 0.0997
1005.30 0.09947
1005.40 0.09924
1005.50 0.09904
1005.60 0.09885
1005.70 0.09866
1005.80 0.09847
1005.90 0.09828
1006.00 0.09809
1006.10 0.0979
1006.20 0.09781
1006.30 0.09774
1006.40 0.09768
1006.50 0.09762
1006.60 0.09756
1006.70 0.0975
1006.80 0.09743
1006.90 0.09737
1007.00 0.09731
1007.10 0.09727
1007.20 0.09722
1007.30 0.09718
1007.40 0.09713
1007.50 0.09708
1007.60 0.09704
1007.70 0.09704
1007.80 0.09705
1007.90 0.09706
1008.00 0.09707
1008.10 0.09708
1008.20 0.09709
1008.30 0.0971
1008.40 0.09711
1008.50 0.09712
1008.60 0.09713
1008.70 0.09714
1008.80 0.09715
1008.90 0.09716
1009.00 0.09717
1009.10 0.09718
1009.20 0.09718
1009.30 0.09719
1009.40 0.0972
1009.50 0.09721
1009.60 0.09722
1009.70 0.09725
1009.80 0.09729
1009.90 0.09733
1010.00 0.09736
1010.10 0.0974
1010.20 0.09744
1010.30 0.09747
1010.40 0.09751
1010.50 0.09754
1010.60 0.09758
1010.70 0.09762
1010.80 0.09765
1010.90 0.09769
1011.00 0.09772
1011.10 0.09776
1011.20 0.0978
1011.30 0.09783
1011.40 0.09787
1011.50 0.0979
1011.60 0.09794
1011.70 0.09798
1011.80 0.09802
1011.90 0.09805
1012.00 0.09809
1012.10 0.09813
1012.20 0.09816
1012.30 0.0982
1012.40 0.09823
1012.50 0.09827
1012.60 0.0983
1012.70 0.09833
1012.80 0.09837
1012.90 0.0984
1013.00 0.09844
1013.10 0.09847
1013.20 0.09851
1013.30 0.09854
1013.40 0.09858
1013.50 0.09861
1013.60 0.09865
1013.70 0.09868
1013.80 0.09871
1013.90 0.09874
1014.00 0.09877
1014.10 0.0988
1014.20 0.09883
1014.30 0.09886
1014.40 0.09889
1014.50 0.09892
1014.60 0.09895
1014.70 0.09898
1014.80 0.099
1014.90 0.09903
1015.00 0.09905
1015.10 0.09908
1015.20 0.0991
1015.30 0.09913
1015.40 0.09915
1015.50 0.09918
1015.60 0.0992
1015.70 0.09923
1015.80 0.09925
1015.90 0.09928
1016.00 0.0993
1016.10 0.09933
1016.20 0.09935
1016.30 0.09938
1016.40 0.0994
1016.50 0.09943
1016.60 0.09945
1016.70 0.09947
1016.80 0.09949
1016.90 0.09952
1017.00 0.09954
1017.10 0.09955
1017.20 0.09957
1017.30 0.09959
1017.40 0.0996
1017.50 0.09962
1017.60 0.09964
1017.70 0.09965
1017.80 0.09967
1017.90 0.09969
1018.00 0.0997
1018.10 0.09972
1018.20 0.09974
1018.30 0.09975
1018.40 0.09977
1018.50 0.09979
1018.60 0.0998
1018.70 0.09981
1018.80 0.09983
1018.90 0.09984
1019.00 0.09985
1019.10 0.09986
1019.20 0.09987
1019.30 0.09988
1019.40 0.09989
1019.50 0.0999
1019.60 0.09991
1019.70 0.09992
1019.80 0.09993
1019.90 0.09994
1020.00 0.09995
1020.10 0.09996
1020.20 0.09997
1020.30 0.09998
1020.40 0.1
1020.50 0.1
1020.60 0.1
1020.70 0.1
1020.80 0.1
1020.90 0.1
1021.00 0.1
1021.10 0.1
1021.20 0.1
1021.30 0.1001
1021.40 0.1001
1021.50 0.1001
1021.60 0.1001
1021.70 0.1001
1021.80 0.1001
1021.90 0.1001
1022.00 0.1001
1022.10 0.1001
1022.20 0.1001
1022.30 0.1001
1022.40 0.1001
1022.50 0.1001
1022.60 0.1001
1022.70 0.1001
1022.80 0.1001
1022.90 0.1001
1023.00 0.1001
1023.10 0.1001
1023.20 0.1001
1023.30 0.1001
1023.40 0.1001
1023.50 0.1001
1023.60 0.1001
1023.70 0.1001
1023.80 0.1001
1023.90 0.1001
1024.00 0.1001
1024.10 0.1001
1024.20 0.1001
1024.30 0.1001
1024.40 0.1001
1024.50 0.1001
1024.60 0.1001
1024.70 0.1001
1024.80 0.1001
1024.90 0.1001
1025.00 0.1001
1025.10 0.1001
1025.20 0.1001
1025.30 0.1
1025.40 0.1
1025.50 0.1
1025.60 0.1
1025.70 0.1
1025.80 0.1
1025.90 0.1
1026.00 0.1
1026.10 0.1
1026.20 0.09999
1026.30 0.09999
1026.40 0.09998
1026.50 0.09998
1026.60 0.09997
1026.70 0.09996
1026.80 0.09996
1026.90 0.09995
1027.00 0.09995
1027.10 0.09993
1027.20 0.09992
1027.30 0.09991
1027.40 0.0999
1027.50 0.09988
1027.60 0.09987
1027.70 0.09986
1027.80 0.09984
1027.90 0.09983
1028.00 0.09982
1028.10 0.0998
1028.20 0.09979
1028.30 0.09978
1028.40 0.09977
1028.50 0.09975
1028.60 0.09974
1028.70 0.09973
1028.80 0.09971
1028.90 0.0997
1029.00 0.09969
1029.10 0.09968
1029.20 0.09966
1029.30 0.09965
1029.40 0.09964
1029.50 0.09962
1029.60 0.09961
1029.70 0.0996
1029.80 0.09959
1029.90 0.09957
1030.00 0.09956
1030.10 0.09955
1030.20 0.09953
1030.30 0.09952
1030.40 0.09951
1030.50 0.0995
1030.60 0.09948
1030.70 0.09947
1030.80 0.09946
1030.90 0.09944
1031.00 0.09943
1031.10 0.09942
1031.20 0.09941
1031.30 0.09939
1031.40 0.09938
1031.50 0.09937
1031.60 0.09935
1031.70 0.09934
1031.80 0.09933
1031.90 0.09932
1032.00 0.0993
1032.10 0.09928
1032.20 0.09926
1032.30 0.09924
1032.40 0.09922
1032.50 0.0992
1032.60 0.09918
1032.70 0.09916
1032.80 0.09914
1032.90 0.09912
1033.00 0.0991
1033.10 0.09908
1033.20 0.09906
1033.30 0.09904
1033.40 0.09902
1033.50 0.099
1033.60 0.09898
1033.70 0.09896
1033.80 0.09894
1033.90 0.09892
1034.00 0.0989
1034.10 0.09887
1034.20 0.09885
1034.30 0.09883
1034.40 0.09881
1034.50 0.09879
1034.60 0.09877
1034.70 0.09875
1034.80 0.09873
1034.90 0.09871
1035.00 0.09869
1035.10 0.09867
1035.20 0.09865
1035.30 0.09863
1035.40 0.09861
1035.50 0.09859
1035.60 0.09857
1035.70 0.09855
1035.80 0.09853
1035.90 0.09851
1036.00 0.09849
1036.10 0.09847
1036.20 0.09845
1036.30 0.09843
1036.40 0.09841
1036.50 0.09839
1036.60 0.09837
1036.70 0.09835
1036.80 0.09833
1036.90 0.09831
1037.00 0.09829
1037.10 0.09826
1037.20 0.09824
1037.30 0.09821
1037.40 0.09818
1037.50 0.09816
1037.60 0.09813
1037.70 0.09811
1037.80 0.09808
1037.90 0.09805
1038.00 0.09803
1038.10 0.098
1038.20 0.09798
1038.30 0.09795
1038.40 0.09792
1038.50 0.0979
1038.60 0.09787
1038.70 0.09785
1038.80 0.09782
1038.90 0.0978
1039.00 0.09777
1039.10 0.09774
1039.20 0.09772
1039.30 0.09769
1039.40 0.09767
1039.50 0.09764
1039.60 0.09761
1039.70 0.09759
1039.80 0.09756
1039.90 0.09754
1040.00 0.09751
1040.10 0.09749
1040.20 0.09746
1040.30 0.09743
1040.40 0.09741
1040.50 0.09738
1040.60 0.09736
1040.70 0.09733
1040.80 0.09731
1040.90 0.09728
1041.00 0.09725
1041.10 0.09723
1041.20 0.0972
1041.30 0.09718
1041.40 0.09715
1041.50 0.09713
1041.60 0.0971
1041.70 0.09707
1041.80 0.09705
1041.90 0.09702
1042.00 0.097
1042.10 0.09697
1042.20 0.09694
1042.30 0.09691
1042.40 0.09688
1042.50 0.09684
1042.60 0.09681
1042.70 0.09678
1042.80 0.09675
1042.90 0.09672
1043.00 0.09669
1043.10 0.09666
1043.20 0.09663
1043.30 0.0966
1043.40 0.09657
1043.50 0.09654
1043.60 0.09651
1043.70 0.09648
1043.80 0.09645
1043.90 0.09642
1044.00 0.09639
1044.10 0.09636
1044.20 0.09633
1044.30 0.0963
1044.40 0.09627
1044.50 0.09624
1044.60 0.09621
1044.70 0.09618
1044.80 0.09615
1044.90 0.09612
1045.00 0.09609
1045.10 0.09605
1045.20 0.09602
1045.30 0.09599
1045.40 0.09596
1045.50 0.09593
1045.60 0.0959
1045.70 0.09587
1045.80 0.09584
1045.90 0.09581
1046.00 0.09578
1046.10 0.09575
1046.20 0.09572
1046.30 0.09569
1046.40 0.09566
1046.50 0.09563
1046.60 0.0956
1046.70 0.09557
1046.80 0.09554
1046.90 0.09551
1047.00 0.09548
1047.10 0.09545
1047.20 0.09541
1047.30 0.09538
1047.40 0.09534
1047.50 0.09531
1047.60 0.09527
1047.70 0.09524
1047.80 0.0952
1047.90 0.09517
1048.00 0.09513
1048.10 0.0951
1048.20 0.09506
1048.30 0.09503
1048.40 0.09499
1048.50 0.09496
1048.60 0.09492
1048.70 0.09489
1048.80 0.09485
1048.90 0.09482
1049.00 0.09478
1049.10 0.09475
1049.20 0.09472
1049.30 0.09468
1049.40 0.09465
1049.50 0.09461
1049.60 0.09458
1049.70 0.09454
1049.80 0.09451
1049.90 0.09447
1050.00 0.09444
1050.10 0.0944
1050.20 0.09437
1050.30 0.09433
1050.40 0.0943
1050.50 0.09426
1050.60 0.09423
1050.70 0.0942
1050.80 0.09416
1050.90 0.09413
1051.00 0.09409
1051.10 0.09406
1051.20 0.09402
1051.30 0.09399
1051.40 0.09395
1051.50 0.09392
1051.60 0.09389
1051.70 0.09385
1051.80 0.09382
1051.90 0.09378
1052.00 0.09375
1052.10 0.09371
1052.20 0.09367
1052.30 0.09363
1052.40 0.09359
1052.50 0.09355
1052.60 0.09351
1052.70 0.09347
1052.80 0.09343
1052.90 0.0934
1053.00 0.09336
1053.10 0.09332
1053.20 0.09328
1053.30 0.09324
1053.40 0.0932
1053.50 0.09316
1053.60 0.09312
1053.70 0.09308
1053.80 0.09304
1053.90 0.09301
1054.00 0.09297
1054.10 0.09293
1054.20 0.09289
1054.30 0.09285
1054.40 0.09281
1054.50 0.09277
1054.60 0.09273
1054.70 0.09269
1054.80 0.09266
1054.90 0.09262
1055.00 0.09258
1055.10 0.09254
1055.20 0.0925
1055.30 0.09246
1055.40 0.09242
1055.50 0.09238
1055.60 0.09235
1055.70 0.09231
1055.80 0.09227
1055.90 0.09223
1056.00 0.09219
1056.10 0.09215
1056.20 0.09211
1056.30 0.09207
1056.40 0.09204
1056.50 0.092
1056.60 0.09196
1056.70 0.09192
1056.80 0.09188
1056.90 0.09184
1057.00 0.0918
1057.10 0.09176
1057.20 0.09172
1057.30 0.09167
1057.40 0.09163
1057.50 0.09158
1057.60 0.09154
1057.70 0.0915
1057.80 0.09145
1057.90 0.09141
1058.00 0.09136
1058.10 0.09132
1058.20 0.09128
1058.30 0.09123
1058.40 0.09119
1058.50 0.09114
1058.60 0.0911
1058.70 0.09106
1058.80 0.09101
1058.90 0.09097
1059.00 0.09092
1059.10 0.09088
1059.20 0.09084
1059.30 0.09079
1059.40 0.09075
1059.50 0.0907
1059.60 0.09066
1059.70 0.09062
1059.80 0.09057
1059.90 0.09053
1060.00 0.09049
1060.10 0.09044
1060.20 0.0904
1060.30 0.09035
1060.40 0.09031
1060.50 0.09027
1060.60 0.09022
1060.70 0.09018
1060.80 0.09014
1060.90 0.09009
1061.00 0.09005
1061.10 0.09001
1061.20 0.08996
1061.30 0.08992
1061.40 0.08988
1061.50 0.08983
1061.60 0.08979
1061.70 0.08974
1061.80 0.0897
1061.90 0.08966
1062.00 0.08961
1062.10 0.08956
1062.20 0.08951
1062.30 0.08946
1062.40 0.08941
1062.50 0.08936
1062.60 0.08931
1062.70 0.08926
1062.80 0.08921
1062.90 0.08916
1063.00 0.08911
1063.10 0.08906
1063.20 0.08901
1063.30 0.08896
1063.40 0.08891
1063.50 0.08886
1063.60 0.08881
1063.70 0.08876
1063.80 0.08871
1063.90 0.08866
1064.00 0.08861
1064.10 0.08856
1064.20 0.08851
1064.30 0.08846
1064.40 0.08841
1064.50 0.08836
1064.60 0.08831
1064.70 0.08826
1064.80 0.08821
1064.90 0.08816
1065.00 0.08811
1065.10 0.08806
1065.20 0.08801
1065.30 0.08796
1065.40 0.08791
1065.50 0.08786
1065.60 0.08781
1065.70 0.08776
1065.80 0.08771
1065.90 0.08766
1066.00 0.08761
1066.10 0.08756
1066.20 0.08751
1066.30 0.08746
1066.40 0.08741
1066.50 0.08736
1066.60 0.08731
1066.70 0.08726
1066.80 0.08721
1066.90 0.08716
1067.00 0.08711
1067.10 0.08705
1067.20 0.087
1067.30 0.08694
1067.40 0.08688
1067.50 0.08682
1067.60 0.08676
1067.70 0.0867
1067.80 0.08665
1067.90 0.08659
1068.00 0.08653
1068.10 0.08647
1068.20 0.08641
1068.30 0.08636
1068.40 0.0863
1068.50 0.08624
1068.60 0.08618
1068.70 0.08612
1068.80 0.08607
1068.90 0.08601
1069.00 0.08595
1069.10 0.08589
1069.20 0.08583
1069.30 0.08578
1069.40 0.08572
1069.50 0.08566
1069.60 0.0856
1069.70 0.08554
1069.80 0.08549
1069.90 0.08543
1070.00 0.08537
1070.10 0.08531
1070.20 0.08526
1070.30 0.0852
1070.40 0.08514
1070.50 0.08508
1070.60 0.08502
1070.70 0.08497
1070.80 0.08491
1070.90 0.08485
1071.00 0.08479
1071.10 0.08474
1071.20 0.08468
1071.30 0.08462
1071.40 0.08456
1071.50 0.08451
1071.60 0.08445
1071.70 0.08439
1071.80 0.08433
1071.90 0.08428
1072.00 0.08422
1072.10 0.08416
1072.20 0.08409
1072.30 0.08403
1072.40 0.08396
1072.50 0.0839
1072.60 0.08383
1072.70 0.08377
1072.80 0.08371
1072.90 0.08364
1073.00 0.08358
1073.10 0.08351
1073.20 0.08345
1073.30 0.08338
1073.40 0.08332
1073.50 0.08325
1073.60 0.08318
1073.70 0.08311
1073.80 0.08304
1073.90 0.08297
1074.00 0.0829
1074.10 0.08283
1074.20 0.08276
1074.30 0.08269
1074.40 0.08262
1074.50 0.08255
1074.60 0.08248
1074.70 0.08241
1074.80 0.08234
1074.90 0.08227
1075.00 0.0822
1075.10 0.08213
1075.20 0.08206
1075.30 0.08199
1075.40 0.08192
1075.50 0.08185
1075.60 0.08178
1075.70 0.08171
1075.80 0.08164
1075.90 0.08157
1076.00 0.0815
1076.10 0.08143
1076.20 0.08136
1076.30 0.08129
1076.40 0.08122
1076.50 0.08115
1076.60 0.08108
1076.70 0.08101
1076.80 0.08094
1076.90 0.08087
1077.00 0.0808
1077.10 0.08072
1077.20 0.08065
1077.30 0.08057
1077.40 0.0805
1077.50 0.08042
1077.60 0.08034
1077.70 0.08026
1077.80 0.08018
1077.90 0.0801
1078.00 0.08002
1078.10 0.07994
1078.20 0.07986
1078.30 0.07978
1078.40 0.0797
1078.50 0.07962
1078.60 0.07954
1078.70 0.07947
1078.80 0.07939
1078.90 0.07931
1079.00 0.07923
1079.10 0.07915
1079.20 0.07907
1079.30 0.07899
1079.40 0.07891
1079.50 0.07883
1079.60 0.07874
1079.70 0.07866
1079.80 0.07857
1079.90 0.07848
1080.00 0.0784
1080.10 0.07831
1080.20 0.07823
1080.30 0.07814
1080.40 0.07805
1080.50 0.07797
1080.60 0.07788
1080.70 0.0778
1080.80 0.07771
1080.90 0.07762
1081.00 0.07754
1081.10 0.07745
1081.20 0.07737
1081.30 0.07728
1081.40 0.07719
1081.50 0.07711
1081.60 0.07702
1081.70 0.07692
1081.80 0.07683
1081.90 0.07674
1082.00 0.07665
1082.10 0.07656
1082.20 0.07646
1082.30 0.07637
1082.40 0.07627
1082.50 0.07618
1082.60 0.07608
1082.70 0.07599
1082.80 0.07589
1082.90 0.0758
1083.00 0.0757
1083.10 0.07561
1083.20 0.07551
1083.30 0.07542
1083.40 0.07532
1083.50 0.07523
1083.60 0.07513
1083.70 0.07503
1083.80 0.07493
1083.90 0.07483
1084.00 0.07473
1084.10 0.07462
1084.20 0.07452
1084.30 0.07443
1084.40 0.07433
1084.50 0.07422
1084.60 0.07412
1084.70 0.07401
1084.80 0.0739
1084.90 0.0738
1085.00 0.07369
1085.10 0.07358
1085.20 0.07348
1085.30 0.07337
1085.40 0.07326
1085.50 0.07316
1085.60 0.07305
1085.70 0.07294
1085.80 0.07284
1085.90 0.07273
1086.00 0.07263
1086.10 0.07252
1086.20 0.07241
1086.30 0.07231
1086.40 0.0722
1086.50 0.07209
1086.60 0.07198
1086.70 0.07187
1086.80 0.07176
1086.90 0.07165
1087.00 0.07154
1087.10 0.07143
1087.20 0.07132
1087.30 0.07121
1087.40 0.07109
1087.50 0.07098
1087.60 0.07087
1087.70 0.07076
1087.80 0.07065
1087.90 0.07054
1088.00 0.07042
1088.10 0.07031
1088.20 0.0702
1088.30 0.07009
1088.40 0.06998
1088.50 0.06987
1088.60 0.06977
1088.70 0.06967
1088.80 0.06956
1088.90 0.06946
1089.00 0.06936
1089.10 0.06926
1089.20 0.06916
1089.30 0.06906
1089.40 0.06896
1089.50 0.06886
1089.60 0.06876
1089.70 0.06865
1089.80 0.06855
1089.90 0.06845
1090.00 0.06835
1090.10 0.06825
1090.20 0.06815
1090.30 0.06805
1090.40 0.06795
1090.50 0.06786
1090.60 0.06781
1090.70 0.06775
1090.80 0.06769
1090.90 0.06764
1091.00 0.06758
1091.10 0.06753
1091.20 0.06747
1091.30 0.06742
1091.40 0.06736
1091.50 0.06731
1091.60 0.06725
1091.70 0.0672
1091.80 0.06714
1091.90 0.06709
1092.00 0.06703
1092.10 0.06707
1092.20 0.0671
1092.30 0.06714
1092.40 0.06717
1092.50 0.06721
1092.60 0.06724
1092.70 0.06732
1092.80 0.06749
1092.90 0.06766
1093.00 0.06782
1093.10 0.06799
1093.20 0.06816
1093.30 0.06833
1093.40 0.06849
1093.50 0.06854
1093.60 0.06835
1093.70 0.06814
1093.80 0.06793
1093.90 0.06773
1094.00 0.06752
1094.10 0.06731
1094.20 0.0671
1094.30 0.06694
1094.40 0.06687
1094.50 0.0668
1094.60 0.06672
1094.70 0.06665
1094.80 0.06658
1094.90 0.06651
1095.00 0.06647
1095.10 0.06648
1095.20 0.06649
1095.30 0.06651
1095.40 0.06652
1095.50 0.06654
1095.60 0.06655
1095.70 0.06656
1095.80 0.06658
1095.90 0.06659
1096.00 0.06661
1096.10 0.06662
1096.20 0.06663
1096.30 0.06665
1096.40 0.06666
1096.50 0.06669
1096.60 0.06673
1096.70 0.06677
1096.80 0.06681
1096.90 0.06685
1097.00 0.06689
1097.10 0.06695
1097.20 0.06702
1097.30 0.06708
1097.40 0.06714
1097.50 0.0672
1097.60 0.06726
1097.70 0.06733
1097.80 0.06739
1097.90 0.06745
1098.00 0.06751
1098.10 0.06757
1098.20 0.06763
1098.30 0.0677
1098.40 0.06776
1098.50 0.06782
1098.60 0.06788
1098.70 0.06795
1098.80 0.06801
1098.90 0.06808
1099.00 0.06814
1099.10 0.0682
1099.20 0.06827
1099.30 0.06833
1099.40 0.0684
1099.50 0.06846
1099.60 0.06852
1099.70 0.06859
1099.80 0.06865
1099.90 0.06872
1100.00 0.06878
1100.10 0.06884
1100.20 0.06891
1100.30 0.06897
1100.40 0.06903
1100.50 0.0691
1100.60 0.06915
1100.70 0.06921
1100.80 0.06927
1100.90 0.06933
1101.00 0.06938
1101.10 0.06944
1101.20 0.0695
1101.30 0.06956
1101.40 0.06962
1101.50 0.06967
1101.60 0.06973
1101.70 0.06979
1101.80 0.06985
1101.90 0.0699
1102.00 0.06996
1102.10 0.07001
1102.20 0.07007
1102.30 0.07012
1102.40 0.07017
1102.50 0.07022
1102.60 0.07027
1102.70 0.07032
1102.80 0.07037
1102.90 0.07042
1103.00 0.07047
1103.10 0.07052
1103.20 0.07057
1103.30 0.07062
1103.40 0.07067
1103.50 0.07071
1103.60 0.07075
1103.70 0.0708
1103.80 0.07084
1103.90 0.07088
1104.00 0.07092
1104.10 0.07096
1104.20 0.071
1104.30 0.07105
1104.40 0.07109
1104.50 0.07113
1104.60 0.07117
1104.70 0.07121
1104.80 0.07125
1104.90 0.0713
1105.00 0.07134
1105.10 0.07138
1105.20 0.07142
1105.30 0.07146
1105.40 0.0715
1105.50 0.07154
1105.60 0.07158
1105.70 0.07161
1105.80 0.07164
1105.90 0.07168
1106.00 0.07171
1106.10 0.07175
1106.20 0.07178
1106.30 0.07181
1106.40 0.07185
1106.50 0.07188
1106.60 0.07192
1106.70 0.07195
1106.80 0.07198
1106.90 0.07202
1107.00 0.07205
1107.10 0.07208
1107.20 0.07211
1107.30 0.07214
1107.40 0.07217
1107.50 0.0722
1107.60 0.07223
1107.70 0.07225
1107.80 0.07228
1107.90 0.0723
1108.00 0.07233
1108.10 0.07235
1108.20 0.07238
1108.30 0.0724
1108.40 0.07243
1108.50 0.07245
1108.60 0.07248
1108.70 0.07251
1108.80 0.07253
1108.90 0.07256
1109.00 0.07258
1109.10 0.07261
1109.20 0.07263
1109.30 0.07266
1109.40 0.07268
1109.50 0.07271
1109.60 0.07272
1109.70 0.07274
1109.80 0.07276
1109.90 0.07278
1110.00 0.0728
1110.10 0.07282
1110.20 0.07283
1110.30 0.07285
1110.40 0.07287
1110.50 0.07289
1110.60 0.07291
1110.70 0.07293
1110.80 0.07294
1110.90 0.07296
1111.00 0.07298
1111.10 0.073
1111.20 0.07302
1111.30 0.07303
1111.40 0.07305
1111.50 0.07307
1111.60 0.07309
1111.70 0.07311
1111.80 0.07312
1111.90 0.07314
1112.00 0.07316
1112.10 0.07317
1112.20 0.07319
1112.30 0.0732
1112.40 0.07321
1112.50 0.07322
1112.60 0.07324
1112.70 0.07325
1112.80 0.07326
1112.90 0.07327
1113.00 0.07329
1113.10 0.0733
1113.20 0.07331
1113.30 0.07333
1113.40 0.07334
1113.50 0.07335
1113.60 0.07336
1113.70 0.07336
1113.80 0.07337
1113.90 0.07338
1114.00 0.07338
1114.10 0.07339
1114.20 0.0734
1114.30 0.07341
1114.40 0.07341
1114.50 0.07342
1114.60 0.07343
1114.70 0.07343
1114.80 0.07344
1114.90 0.07345
1115.00 0.07346
1115.10 0.07346
1115.20 0.07347
1115.30 0.07348
1115.40 0.07348
1115.50 0.07349
1115.60 0.0735
1115.70 0.07351
1115.80 0.07351
1115.90 0.07352
1116.00 0.07353
1116.10 0.07353
1116.20 0.07354
1116.30 0.07355
1116.40 0.07355
1116.50 0.07356
1116.60 0.07357
1116.70 0.07358
1116.80 0.07358
1116.90 0.07359
1117.00 0.0736
1117.10 0.0736
1117.20 0.0736
1117.30 0.0736
1117.40 0.07359
1117.50 0.07359
1117.60 0.07359
1117.70 0.07359
1117.80 0.07359
1117.90 0.07359
1118.00 0.07359
1118.10 0.07359
1118.20 0.07359
1118.30 0.07359
1118.40 0.07359
1118.50 0.07359
1118.60 0.07359
1118.70 0.07359
1118.80 0.07359
1118.90 0.07359
1119.00 0.07359
1119.10 0.07359
1119.20 0.07359
1119.30 0.07359
1119.40 0.07359
1119.50 0.07359
1119.60 0.07358
1119.70 0.07358
1119.80 0.07358
1119.90 0.07358
1120.00 0.07358
1120.10 0.07358
1120.20 0.07358
1120.30 0.07358
1120.40 0.07358
1120.50 0.07358
1120.60 0.07358
1120.70 0.07358
1120.80 0.07358
1120.90 0.07358
1121.00 0.07358
1121.10 0.07358
1121.20 0.07358
1121.30 0.07358
1121.40 0.07358
1121.50 0.07358
1121.60 0.07358
1121.70 0.07358
1121.80 0.07357
1121.90 0.07357
1122.00 0.07357
1122.10 0.07357
1122.20 0.07356
1122.30 0.07355
1122.40 0.07355
1122.50 0.07354
1122.60 0.07353
1122.70 0.07353
1122.80 0.07352
1122.90 0.07351
1123.00 0.07351
1123.10 0.0735
1123.20 0.07349
1123.30 0.07348
1123.40 0.07348
1123.50 0.07347
1123.60 0.07346
1123.70 0.07346
1123.80 0.07345
1123.90 0.07344
1124.00 0.07344
1124.10 0.07343
1124.20 0.07342
1124.30 0.07342
1124.40 0.07341
1124.50 0.0734
1124.60 0.0734
1124.70 0.07339
1124.80 0.07338
1124.90 0.07337
1125.00 0.07337
1125.10 0.07336
1125.20 0.07335
1125.30 0.07335
1125.40 0.07334
1125.50 0.07333
1125.60 0.07333
1125.70 0.07332
1125.80 0.07331
1125.90 0.07331
1126.00 0.0733
1126.10 0.07329
1126.20 0.07329
1126.30 0.07328
1126.40 0.07327
1126.50 0.07327
1126.60 0.07326
1126.70 0.07325
1126.80 0.07324
1126.90 0.07324
1127.00 0.07323
1127.10 0.07322
1127.20 0.07321
1127.30 0.0732
1127.40 0.07319
1127.50 0.07317
1127.60 0.07316
1127.70 0.07315
1127.80 0.07314
1127.90 0.07313
1128.00 0.07312
1128.10 0.07311
1128.20 0.07309
1128.30 0.07308
1128.40 0.07307
1128.50 0.07306
1128.60 0.07305
1128.70 0.07304
1128.80 0.07303
1128.90 0.07301
1129.00 0.073
1129.10 0.07299
1129.20 0.07298
1129.30 0.07297
1129.40 0.07296
1129.50 0.07295
1129.60 0.07294
1129.70 0.07292
1129.80 0.07291
1129.90 0.0729
1130.00 0.07289
1130.10 0.07288
1130.20 0.07287
1130.30 0.07286
1130.40 0.07284
1130.50 0.07283
1130.60 0.07282
1130.70 0.07281
1130.80 0.0728
1130.90 0.07279
1131.00 0.07278
1131.10 0.07277
1131.20 0.07275
1131.30 0.07274
1131.40 0.07273
1131.50 0.07272
1131.60 0.07271
1131.70 0.0727
1131.80 0.07269
1131.90 0.07268
1132.00 0.07266
1132.10 0.07265
1132.20 0.07264
1132.30 0.07262
1132.40 0.07261
1132.50 0.07259
1132.60 0.07258
1132.70 0.07256
1132.80 0.07255
1132.90 0.07254
1133.00 0.07252
1133.10 0.07251
1133.20 0.07249
1133.30 0.07248
1133.40 0.07246
1133.50 0.07245
1133.60 0.07244
1133.70 0.07242
1133.80 0.07241
1133.90 0.07239
1134.00 0.07238
1134.10 0.07236
1134.20 0.07235
1134.30 0.07234
1134.40 0.07232
1134.50 0.07231
1134.60 0.07229
1134.70 0.07228
1134.80 0.07226
1134.90 0.07225
1135.00 0.07224
1135.10 0.07222
1135.20 0.07221
1135.30 0.07219
1135.40 0.07218
1135.50 0.07216
1135.60 0.07215
1135.70 0.07214
1135.80 0.07212
1135.90 0.07211
1136.00 0.07209
1136.10 0.07208
1136.20 0.07207
1136.30 0.07205
1136.40 0.07204
1136.50 0.07202
1136.60 0.07201
1136.70 0.07199
1136.80 0.07198
1136.90 0.07197
1137.00 0.07195
1137.10 0.07194
1137.20 0.07192
1137.30 0.0719
1137.40 0.07189
1137.50 0.07187
1137.60 0.07185
1137.70 0.07184
1137.80 0.07182
1137.90 0.0718
1138.00 0.07179
1138.10 0.07177
1138.20 0.07175
1138.30 0.07174
1138.40 0.07172
1138.50 0.07171
1138.60 0.07169
1138.70 0.07167
1138.80 0.07166
1138.90 0.07164
1139.00 0.07162
1139.10 0.07161
1139.20 0.07159
1139.30 0.07157
1139.40 0.07156
1139.50 0.07154
1139.60 0.07153
1139.70 0.07151
1139.80 0.07149
1139.90 0.07148
1140.00 0.07146
1140.10 0.07144
1140.20 0.07143
1140.30 0.07141
1140.40 0.07139
1140.50 0.07138
1140.60 0.07136
1140.70 0.07135
1140.80 0.07133
1140.90 0.07131
1141.00 0.0713
1141.10 0.07128
1141.20 0.07126
1141.30 0.07125
1141.40 0.07123
1141.50 0.07122
1141.60 0.0712
1141.70 0.07118
1141.80 0.07117
1141.90 0.07115
1142.00 0.07113
1142.10 0.07112
1142.20 0.0711
1142.30 0.07108
1142.40 0.07106
1142.50 0.07105
1142.60 0.07103
1142.70 0.07101
1142.80 0.07099
1142.90 0.07098
1143.00 0.07096
1143.10 0.07094
1143.20 0.07092
1143.30 0.0709
1143.40 0.07089
1143.50 0.07087
1143.60 0.07085
1143.70 0.07083
1143.80 0.07082
1143.90 0.0708
1144.00 0.07078
1144.10 0.07076
1144.20 0.07075
1144.30 0.07073
1144.40 0.07071
1144.50 0.07069
1144.60 0.07067
1144.70 0.07066
1144.80 0.07064
1144.90 0.07062
1145.00 0.0706
1145.10 0.07059
1145.20 0.07057
1145.30 0.07055
1145.40 0.07053
1145.50 0.07052
1145.60 0.0705
1145.70 0.07048
1145.80 0.07046
1145.90 0.07045
1146.00 0.07043
1146.10 0.07041
1146.20 0.07039
1146.30 0.07038
1146.40 0.07036
1146.50 0.07034
1146.60 0.07032
1146.70 0.07031
1146.80 0.07029
1146.90 0.07027
1147.00 0.07025
1147.10 0.07023
1147.20 0.07022
1147.30 0.0702
1147.40 0.07018
1147.50 0.07016
1147.60 0.07014
1147.70 0.07012
1147.80 0.0701
1147.90 0.07009
1148.00 0.07007
1148.10 0.07005
1148.20 0.07003
1148.30 0.07001
1148.40 0.06999
1148.50 0.06997
1148.60 0.06995
1148.70 0.06994
1148.80 0.06992
1148.90 0.0699
1149.00 0.06988
1149.10 0.06986
1149.20 0.06984
1149.30 0.06982
1149.40 0.06981
1149.50 0.06979
1149.60 0.06977
1149.70 0.06975
1149.80 0.06973
1149.90 0.06971
1150.00 0.06969
1150.10 0.06968
1150.20 0.06966
1150.30 0.06964
1150.40 0.06962
1150.50 0.0696
1150.60 0.06958
1150.70 0.06957
1150.80 0.06955
1150.90 0.06953
1151.00 0.06951
1151.10 0.06949
1151.20 0.06947
1151.30 0.06945
1151.40 0.06944
1151.50 0.06942
1151.60 0.0694
1151.70 0.06938
1151.80 0.06936
1151.90 0.06934
1152.00 0.06932
1152.10 0.06931
1152.20 0.06929
1152.30 0.06927
1152.40 0.06925
1152.50 0.06923
1152.60 0.06921
1152.70 0.06919
1152.80 0.06917
1152.90 0.06915
1153.00 0.06913
1153.10 0.06911
1153.20 0.06909
1153.30 0.06908
1153.40 0.06906
1153.50 0.06904
1153.60 0.06902
1153.70 0.069
1153.80 0.06898
1153.90 0.06896
1154.00 0.06894
1154.10 0.06892
1154.20 0.0689
1154.30 0.06888
1154.40 0.06887
1154.50 0.06885
1154.60 0.06883
1154.70 0.06881
1154.80 0.06879
1154.90 0.06877
1155.00 0.06875
1155.10 0.06873
1155.20 0.06871
1155.30 0.06869
1155.40 0.06867
1155.50 0.06866
1155.60 0.06864
1155.70 0.06862
1155.80 0.0686
1155.90 0.06858
1156.00 0.06856
1156.10 0.06854
1156.20 0.06852
1156.30 0.0685
1156.40 0.06848
1156.50 0.06847
1156.60 0.06845
1156.70 0.06843
1156.80 0.06841
1156.90 0.06839
1157.00 0.06837
1157.10 0.06835
1157.20 0.06833
1157.30 0.06831
1157.40 0.06829
1157.50 0.06827
1157.60 0.06825
1157.70 0.06823
1157.80 0.06821
1157.90 0.0682
1158.00 0.06818
1158.10 0.06816
1158.20 0.06814
1158.30 0.06812
1158.40 0.0681
1158.50 0.06808
1158.60 0.06806
1158.70 0.06804
1158.80 0.06802
1158.90 0.068
1159.00 0.06798
1159.10 0.06796
1159.20 0.06794
1159.30 0.06792
1159.40 0.0679
1159.50 0.06788
1159.60 0.06786
1159.70 0.06784
1159.80 0.06782
1159.90 0.06781
1160.00 0.06779
1160.10 0.06777
1160.20 0.06775
1160.30 0.06773
1160.40 0.06771
1160.50 0.06769
1160.60 0.06767
1160.70 0.06765
1160.80 0.06763
1160.90 0.06761
1161.00 0.06759
1161.10 0.06757
1161.20 0.06755
1161.30 0.06753
1161.40 0.06751
1161.50 0.06749
1161.60 0.06748
1161.70 0.06746
1161.80 0.06744
1161.90 0.06742
1162.00 0.0674
1162.10 0.06738
1162.20 0.06736
1162.30 0.06734
1162.40 0.06732
1162.50 0.0673
1162.60 0.06728
1162.70 0.06726
1162.80 0.06724
1162.90 0.06722
1163.00 0.0672
1163.10 0.06718
1163.20 0.06716
1163.30 0.06714
1163.40 0.06712
1163.50 0.0671
1163.60 0.06708
1163.70 0.06706
1163.80 0.06704
1163.90 0.06702
1164.00 0.067
1164.10 0.06698
1164.20 0.06696
1164.30 0.06695
1164.40 0.06693
1164.50 0.06691
1164.60 0.06689
1164.70 0.06687
1164.80 0.06685
1164.90 0.06683
1165.00 0.06681
1165.10 0.06679
1165.20 0.06677
1165.30 0.06675
1165.40 0.06673
1165.50 0.06671
1165.60 0.06669
1165.70 0.06667
1165.80 0.06665
1165.90 0.06663
1166.00 0.06661
1166.10 0.06659
1166.20 0.06657
1166.30 0.06655
1166.40 0.06653
1166.50 0.06651
1166.60 0.0665
1166.70 0.06648
1166.80 0.06646
1166.90 0.06644
1167.00 0.06642
1167.10 0.0664
1167.20 0.06638
1167.30 0.06636
1167.40 0.06634
1167.50 0.06632
1167.60 0.0663
1167.70 0.06628
1167.80 0.06626
1167.90 0.06624
1168.00 0.06622
1168.10 0.0662
1168.20 0.06618
1168.30 0.06616
1168.40 0.06614
1168.50 0.06612
1168.60 0.0661
1168.70 0.06608
1168.80 0.06606
1168.90 0.06604
1169.00 0.06602
1169.10 0.066
1169.20 0.06598
1169.30 0.06596
1169.40 0.06594
1169.50 0.06592
1169.60 0.0659
1169.70 0.06588
1169.80 0.06586
1169.90 0.06584
1170.00 0.06582
1170.10 0.06581
1170.20 0.06579
1170.30 0.06577
1170.40 0.06575
1170.50 0.06573
1170.60 0.06571
1170.70 0.06569
1170.80 0.06567
1170.90 0.06565
1171.00 0.06563
1171.10 0.06561
1171.20 0.06559
1171.30 0.06557
1171.40 0.06555
1171.50 0.06553
1171.60 0.06551
1171.70 0.06549
1171.80 0.06547
1171.90 0.06545
1172.00 0.06543
1172.10 0.06541
1172.20 0.06539
1172.30 0.06537
1172.40 0.06535
1172.50 0.06533
1172.60 0.06531
1172.70 0.0653
1172.80 0.06528
1172.90 0.06526
1173.00 0.06524
1173.10 0.06522
1173.20 0.0652
1173.30 0.06518
1173.40 0.06516
1173.50 0.06514
1173.60 0.06512
1173.70 0.0651
1173.80 0.06508
1173.90 0.06506
1174.00 0.06504
1174.10 0.06502
1174.20 0.065
1174.30 0.06498
1174.40 0.06496
1174.50 0.06494
1174.60 0.06492
1174.70 0.0649
1174.80 0.06488
1174.90 0.06486
1175.00 0.06484
1175.10 0.06482
1175.20 0.06481
1175.30 0.06479
1175.40 0.06477
1175.50 0.06475
1175.60 0.06473
1175.70 0.06471
1175.80 0.06469
1175.90 0.06467
1176.00 0.06465
1176.10 0.06463
1176.20 0.06461
1176.30 0.06459
1176.40 0.06457
1176.50 0.06455
1176.60 0.06453
1176.70 0.06451
1176.80 0.06449
1176.90 0.06447
1177.00 0.06445
1177.10 0.06443
1177.20 0.06442
1177.30 0.0644
1177.40 0.06438
1177.50 0.06436
1177.60 0.06434
1177.70 0.06432
1177.80 0.0643
1177.90 0.06428
1178.00 0.06426
1178.10 0.06424
1178.20 0.06422
1178.30 0.0642
1178.40 0.06418
1178.50 0.06416
1178.60 0.06414
1178.70 0.06412
1178.80 0.0641
1178.90 0.06408
1179.00 0.06406
1179.10 0.06404
1179.20 0.06402
1179.30 0.064
1179.40 0.06398
1179.50 0.06396
1179.60 0.06394
1179.70 0.06392
1179.80 0.0639
1179.90 0.06388
1180.00 0.06386
1180.10 0.06384
1180.20 0.06382
1180.30 0.0638
1180.40 0.06378
1180.50 0.06376
1180.60 0.06374
1180.70 0.06373
1180.80 0.06371
1180.90 0.06369
1181.00 0.06367
1181.10 0.06365
1181.20 0.06363
1181.30 0.06361
1181.40 0.06359
1181.50 0.06357
1181.60 0.06355
1181.70 0.06353
1181.80 0.06351
1181.90 0.06349
1182.00 0.06347
1182.10 0.06345
1182.20 0.06343
1182.30 0.06341
1182.40 0.06339
1182.50 0.06337
1182.60 0.06335
1182.70 0.06333
1182.80 0.06331
1182.90 0.06329
1183.00 0.06327
1183.10 0.06325
1183.20 0.06324
1183.30 0.06322
1183.40 0.0632
1183.50 0.06318
1183.60 0.06316
1183.70 0.06314
1183.80 0.06312
1183.90 0.0631
1184.00 0.06308
1184.10 0.06306
1184.20 0.06304
1184.30 0.06302
1184.40 0.063
1184.50 0.06298
1184.60 0.06296
1184.70 0.06294
1184.80 0.06292
1184.90 0.0629
1185.00 0.06288
1185.10 0.06286
1185.20 0.06284
1185.30 0.06283
1185.40 0.06281
1185.50 0.06279
1185.60 0.06277
1185.70 0.06275
1185.80 0.06273
1185.90 0.06271
1186.00 0.06269
1186.10 0.06267
1186.20 0.06265
1186.30 0.06263
1186.40 0.06261
1186.50 0.06259
1186.60 0.06257
1186.70 0.06255
1186.80 0.06253
1186.90 0.06251
1187.00 0.0625
1187.10 0.06248
1187.20 0.06246
1187.30 0.06244
1187.40 0.06242
1187.50 0.0624
1187.60 0.06238
1187.70 0.06236
1187.80 0.06234
1187.90 0.06232
1188.00 0.0623
1188.10 0.06228
1188.20 0.06226
1188.30 0.06224
1188.40 0.06222
1188.50 0.0622
1188.60 0.06218
1188.70 0.06216
1188.80 0.06214
1188.90 0.06213
1189.00 0.06211
1189.10 0.06209
1189.20 0.06207
1189.30 0.06205
1189.40 0.06203
1189.50 0.06201
1189.60 0.06199
1189.70 0.06197
1189.80 0.06195
1189.90 0.06193
1190.00 0.06191
1190.10 0.06189
1190.20 0.06187
1190.30 0.06185
1190.40 0.06183
1190.50 0.06181
1190.60 0.0618
1190.70 0.06178
1190.80 0.06176
1190.90 0.06174
1191.00 0.06172
1191.10 0.0617
1191.20 0.06168
1191.30 0.06166
1191.40 0.06164
1191.50 0.06162
1191.60 0.0616
1191.70 0.06158
1191.80 0.06156
1191.90 0.06154
1192.00 0.06152
1192.10 0.06151
1192.20 0.06149
1192.30 0.06147
1192.40 0.06145
1192.50 0.06143
1192.60 0.06141
1192.70 0.06139
1192.80 0.06137
1192.90 0.06135
1193.00 0.06133
1193.10 0.06131
1193.20 0.06129
1193.30 0.06127
1193.40 0.06125
1193.50 0.06123
1193.60 0.06121
1193.70 0.06119
1193.80 0.06117
1193.90 0.06115
1194.00 0.06113
1194.10 0.06112
1194.20 0.0611
1194.30 0.06108
1194.40 0.06106
1194.50 0.06104
1194.60 0.06102
1194.70 0.061
1194.80 0.06098
1194.90 0.06096
1195.00 0.06094
1195.10 0.06092
1195.20 0.0609
1195.30 0.06088
1195.40 0.06086
1195.50 0.06084
1195.60 0.06082
1195.70 0.0608
1195.80 0.06079
1195.90 0.06077
1196.00 0.06075
1196.10 0.06073
1196.20 0.06071
1196.30 0.06069
1196.40 0.06067
1196.50 0.06065
1196.60 0.06063
1196.70 0.06061
1196.80 0.06059
1196.90 0.06057
1197.00 0.06055
1197.10 0.06053
1197.20 0.06051
1197.30 0.0605
1197.40 0.06048
1197.50 0.06046
1197.60 0.06044
1197.70 0.06042
1197.80 0.0604
1197.90 0.06038
1198.00 0.06036
1198.10 0.06034
1198.20 0.06032
1198.30 0.0603
1198.40 0.06028
1198.50 0.06026
1198.60 0.06024
1198.70 0.06022
1198.80 0.0602
1198.90 0.06018
1199.00 0.06017
1199.10 0.06015
1199.20 0.06013
1199.30 0.06011
1199.40 0.06009
1199.50 0.06007
1199.60 0.06005
1199.70 0.06003
1199.80 0.06001
1199.90 0.05999
1200.00 0
