# Version 2.1 - nm, norm@500 to 1, cut digits, bergeron_3500_65.dat_3500
# Wavelength(nm)  Flambda(ergs/cm^s/s/nm)
300.00 0.09272
300.10 0.09296
300.20 0.0932
300.30 0.09344
300.40 0.09368
300.50 0.09392
300.60 0.09416
300.70 0.0944
300.80 0.09464
300.90 0.09488
301.00 0.09512
301.10 0.09536
301.20 0.0956
301.30 0.09583
301.40 0.09607
301.50 0.09631
301.60 0.09655
301.70 0.09678
301.80 0.09702
301.90 0.09726
302.00 0.0975
302.10 0.09774
302.20 0.09799
302.30 0.09824
302.40 0.09849
302.50 0.09873
302.60 0.09898
302.70 0.09923
302.80 0.09947
302.90 0.09972
303.00 0.09997
303.10 0.1002
303.20 0.1005
303.30 0.1007
303.40 0.1009
303.50 0.1012
303.60 0.1014
303.70 0.1017
303.80 0.1019
303.90 0.1022
304.00 0.1024
304.10 0.1027
304.20 0.1029
304.30 0.1032
304.40 0.1034
304.50 0.1037
304.60 0.1039
304.70 0.1042
304.80 0.1045
304.90 0.1047
305.00 0.105
305.10 0.1052
305.20 0.1055
305.30 0.1057
305.40 0.106
305.50 0.1062
305.60 0.1065
305.70 0.1067
305.80 0.107
305.90 0.1072
306.00 0.1075
306.10 0.1077
306.20 0.108
306.30 0.1083
306.40 0.1085
306.50 0.1088
306.60 0.1091
306.70 0.1093
306.80 0.1096
306.90 0.1098
307.00 0.1101
307.10 0.1104
307.20 0.1106
307.30 0.1109
307.40 0.1111
307.50 0.1114
307.60 0.1117
307.70 0.1119
307.80 0.1122
307.90 0.1124
308.00 0.1127
308.10 0.113
308.20 0.1132
308.30 0.1135
308.40 0.1138
308.50 0.114
308.60 0.1143
308.70 0.1146
308.80 0.1148
308.90 0.1151
309.00 0.1154
309.10 0.1156
309.20 0.1159
309.30 0.1162
309.40 0.1164
309.50 0.1167
309.60 0.117
309.70 0.1172
309.80 0.1175
309.90 0.1178
310.00 0.1181
310.10 0.1183
310.20 0.1186
310.30 0.1189
310.40 0.1192
310.50 0.1194
310.60 0.1197
310.70 0.12
310.80 0.1203
310.90 0.1205
311.00 0.1208
311.10 0.1211
311.20 0.1214
311.30 0.1216
311.40 0.1219
311.50 0.1222
311.60 0.1225
311.70 0.1227
311.80 0.123
311.90 0.1233
312.00 0.1236
312.10 0.1238
312.20 0.1241
312.30 0.1244
312.40 0.1247
312.50 0.125
312.60 0.1252
312.70 0.1255
312.80 0.1258
312.90 0.1261
313.00 0.1264
313.10 0.1267
313.20 0.1269
313.30 0.1272
313.40 0.1275
313.50 0.1278
313.60 0.1281
313.70 0.1283
313.80 0.1286
313.90 0.1289
314.00 0.1292
314.10 0.1295
314.20 0.1298
314.30 0.1301
314.40 0.1304
314.50 0.1306
314.60 0.1309
314.70 0.1312
314.80 0.1315
314.90 0.1318
315.00 0.1321
315.10 0.1324
315.20 0.1327
315.30 0.133
315.40 0.1333
315.50 0.1335
315.60 0.1338
315.70 0.1341
315.80 0.1344
315.90 0.1347
316.00 0.135
316.10 0.1353
316.20 0.1356
316.30 0.1359
316.40 0.1362
316.50 0.1365
316.60 0.1368
316.70 0.1371
316.80 0.1374
316.90 0.1377
317.00 0.138
317.10 0.1383
317.20 0.1386
317.30 0.1389
317.40 0.1392
317.50 0.1394
317.60 0.1397
317.70 0.14
317.80 0.1403
317.90 0.1406
318.00 0.1409
318.10 0.1412
318.20 0.1415
318.30 0.1418
318.40 0.1421
318.50 0.1425
318.60 0.1428
318.70 0.1431
318.80 0.1434
318.90 0.1437
319.00 0.144
319.10 0.1443
319.20 0.1446
319.30 0.1449
319.40 0.1452
319.50 0.1455
319.60 0.1458
319.70 0.1461
319.80 0.1464
319.90 0.1467
320.00 0.147
320.10 0.1473
320.20 0.1476
320.30 0.1479
320.40 0.1483
320.50 0.1486
320.60 0.1489
320.70 0.1492
320.80 0.1495
320.90 0.1498
321.00 0.1501
321.10 0.1504
321.20 0.1507
321.30 0.1511
321.40 0.1514
321.50 0.1517
321.60 0.152
321.70 0.1523
321.80 0.1526
321.90 0.1529
322.00 0.1532
322.10 0.1535
322.20 0.1539
322.30 0.1542
322.40 0.1545
322.50 0.1548
322.60 0.1551
322.70 0.1555
322.80 0.1558
322.90 0.1561
323.00 0.1564
323.10 0.1567
323.20 0.1571
323.30 0.1574
323.40 0.1577
323.50 0.158
323.60 0.1583
323.70 0.1586
323.80 0.159
323.90 0.1593
324.00 0.1596
324.10 0.1599
324.20 0.1602
324.30 0.1606
324.40 0.1609
324.50 0.1612
324.60 0.1616
324.70 0.1619
324.80 0.1622
324.90 0.1625
325.00 0.1629
325.10 0.1632
325.20 0.1635
325.30 0.1638
325.40 0.1641
325.50 0.1645
325.60 0.1648
325.70 0.1651
325.80 0.1654
325.90 0.1658
326.00 0.1661
326.10 0.1664
326.20 0.1668
326.30 0.1671
326.40 0.1674
326.50 0.1678
326.60 0.1681
326.70 0.1684
326.80 0.1688
326.90 0.1691
327.00 0.1694
327.10 0.1698
327.20 0.1701
327.30 0.1704
327.40 0.1707
327.50 0.1711
327.60 0.1714
327.70 0.1717
327.80 0.1721
327.90 0.1724
328.00 0.1727
328.10 0.1731
328.20 0.1734
328.30 0.1738
328.40 0.1741
328.50 0.1744
328.60 0.1748
328.70 0.1751
328.80 0.1755
328.90 0.1758
329.00 0.1761
329.10 0.1765
329.20 0.1768
329.30 0.1772
329.40 0.1775
329.50 0.1778
329.60 0.1782
329.70 0.1785
329.80 0.1788
329.90 0.1792
330.00 0.1795
330.10 0.1799
330.20 0.1802
330.30 0.1806
330.40 0.1809
330.50 0.1813
330.60 0.1816
330.70 0.1819
330.80 0.1823
330.90 0.1826
331.00 0.183
331.10 0.1833
331.20 0.1837
331.30 0.184
331.40 0.1844
331.50 0.1847
331.60 0.1851
331.70 0.1854
331.80 0.1857
331.90 0.1861
332.00 0.1864
332.10 0.1868
332.20 0.1871
332.30 0.1875
332.40 0.1878
332.50 0.1882
332.60 0.1886
332.70 0.1889
332.80 0.1893
332.90 0.1896
333.00 0.19
333.10 0.1903
333.20 0.1907
333.30 0.191
333.40 0.1914
333.50 0.1917
333.60 0.1921
333.70 0.1924
333.80 0.1928
333.90 0.1931
334.00 0.1935
334.10 0.1938
334.20 0.1942
334.30 0.1946
334.40 0.1949
334.50 0.1953
334.60 0.1956
334.70 0.196
334.80 0.1964
334.90 0.1967
335.00 0.1971
335.10 0.1974
335.20 0.1978
335.30 0.1982
335.40 0.1985
335.50 0.1989
335.60 0.1992
335.70 0.1996
335.80 0.1999
335.90 0.2003
336.00 0.2007
336.10 0.201
336.20 0.2014
336.30 0.2018
336.40 0.2021
336.50 0.2025
336.60 0.2029
336.70 0.2032
336.80 0.2036
336.90 0.204
337.00 0.2043
337.10 0.2047
337.20 0.2051
337.30 0.2054
337.40 0.2058
337.50 0.2062
337.60 0.2065
337.70 0.2069
337.80 0.2072
337.90 0.2076
338.00 0.208
338.10 0.2083
338.20 0.2087
338.30 0.2091
338.40 0.2095
338.50 0.2098
338.60 0.2102
338.70 0.2106
338.80 0.211
338.90 0.2113
339.00 0.2117
339.10 0.2121
339.20 0.2125
339.30 0.2128
339.40 0.2132
339.50 0.2136
339.60 0.2139
339.70 0.2143
339.80 0.2147
339.90 0.215
340.00 0.2154
340.10 0.2158
340.20 0.2162
340.30 0.2166
340.40 0.2169
340.50 0.2173
340.60 0.2177
340.70 0.2181
340.80 0.2185
340.90 0.2188
341.00 0.2192
341.10 0.2196
341.20 0.22
341.30 0.2204
341.40 0.2207
341.50 0.2211
341.60 0.2215
341.70 0.2219
341.80 0.2222
341.90 0.2226
342.00 0.223
342.10 0.2234
342.20 0.2238
342.30 0.2242
342.40 0.2245
342.50 0.2249
342.60 0.2253
342.70 0.2257
342.80 0.2261
342.90 0.2265
343.00 0.2269
343.10 0.2272
343.20 0.2276
343.30 0.228
343.40 0.2284
343.50 0.2288
343.60 0.2292
343.70 0.2295
343.80 0.2299
343.90 0.2303
344.00 0.2307
344.10 0.2311
344.20 0.2315
344.30 0.2319
344.40 0.2323
344.50 0.2327
344.60 0.233
344.70 0.2334
344.80 0.2338
344.90 0.2342
345.00 0.2346
345.10 0.235
345.20 0.2354
345.30 0.2358
345.40 0.2362
345.50 0.2366
345.60 0.237
345.70 0.2373
345.80 0.2377
345.90 0.2381
346.00 0.2385
346.10 0.2389
346.20 0.2393
346.30 0.2397
346.40 0.2401
346.50 0.2405
346.60 0.2409
346.70 0.2413
346.80 0.2417
346.90 0.2421
347.00 0.2425
347.10 0.2429
347.20 0.2433
347.30 0.2437
347.40 0.2441
347.50 0.2445
347.60 0.2449
347.70 0.2453
347.80 0.2457
347.90 0.2461
348.00 0.2464
348.10 0.2469
348.20 0.2473
348.30 0.2477
348.40 0.2481
348.50 0.2485
348.60 0.2489
348.70 0.2493
348.80 0.2497
348.90 0.2501
349.00 0.2505
349.10 0.2509
349.20 0.2513
349.30 0.2517
349.40 0.2521
349.50 0.2525
349.60 0.2529
349.70 0.2533
349.80 0.2537
349.90 0.2541
350.00 0.2545
350.10 0.2549
350.20 0.2553
350.30 0.2557
350.40 0.2562
350.50 0.2566
350.60 0.257
350.70 0.2574
350.80 0.2578
350.90 0.2582
351.00 0.2586
351.10 0.259
351.20 0.2594
351.30 0.2598
351.40 0.2602
351.50 0.2607
351.60 0.2611
351.70 0.2615
351.80 0.2619
351.90 0.2623
352.00 0.2627
352.10 0.2631
352.20 0.2635
352.30 0.2639
352.40 0.2644
352.50 0.2648
352.60 0.2652
352.70 0.2656
352.80 0.266
352.90 0.2664
353.00 0.2669
353.10 0.2673
353.20 0.2677
353.30 0.2681
353.40 0.2685
353.50 0.2689
353.60 0.2693
353.70 0.2697
353.80 0.2702
353.90 0.2706
354.00 0.271
354.10 0.2714
354.20 0.2718
354.30 0.2722
354.40 0.2727
354.50 0.2731
354.60 0.2735
354.70 0.2739
354.80 0.2744
354.90 0.2748
355.00 0.2752
355.10 0.2756
355.20 0.276
355.30 0.2765
355.40 0.2769
355.50 0.2773
355.60 0.2777
355.70 0.2781
355.80 0.2785
355.90 0.279
356.00 0.2794
356.10 0.2798
356.20 0.2802
356.30 0.2807
356.40 0.2811
356.50 0.2815
356.60 0.282
356.70 0.2824
356.80 0.2828
356.90 0.2832
357.00 0.2837
357.10 0.2841
357.20 0.2845
357.30 0.2849
357.40 0.2854
357.50 0.2858
357.60 0.2862
357.70 0.2866
357.80 0.2871
357.90 0.2875
358.00 0.2879
358.10 0.2883
358.20 0.2888
358.30 0.2892
358.40 0.2896
358.50 0.2901
358.60 0.2905
358.70 0.2909
358.80 0.2914
358.90 0.2918
359.00 0.2922
359.10 0.2927
359.20 0.2931
359.30 0.2935
359.40 0.2939
359.50 0.2944
359.60 0.2948
359.70 0.2952
359.80 0.2957
359.90 0.2961
360.00 0.2965
360.10 0.297
360.20 0.2974
360.30 0.2978
360.40 0.2983
360.50 0.2987
360.60 0.2992
360.70 0.2996
360.80 0.3
360.90 0.3005
361.00 0.3009
361.10 0.3013
361.20 0.3018
361.30 0.3022
361.40 0.3026
361.50 0.3031
361.60 0.3035
361.70 0.3039
361.80 0.3044
361.90 0.3048
362.00 0.3052
362.10 0.3057
362.20 0.3061
362.30 0.3066
362.40 0.307
362.50 0.3074
362.60 0.3079
362.70 0.3083
362.80 0.3088
362.90 0.3092
363.00 0.3096
363.10 0.3101
363.20 0.3105
363.30 0.311
363.40 0.3114
363.50 0.3119
363.60 0.3123
363.70 0.3128
363.80 0.3132
363.90 0.3136
364.00 0.3141
364.10 0.3145
364.20 0.315
364.30 0.3154
364.40 0.3158
364.50 0.3163
364.60 0.3167
364.70 0.3172
364.80 0.3176
364.90 0.3181
365.00 0.3185
365.10 0.319
365.20 0.3194
365.30 0.3199
365.40 0.3203
365.50 0.3208
365.60 0.3212
365.70 0.3217
365.80 0.3221
365.90 0.3225
366.00 0.323
366.10 0.3234
366.20 0.3239
366.30 0.3244
366.40 0.3248
366.50 0.3253
366.60 0.3257
366.70 0.3262
366.80 0.3266
366.90 0.3271
367.00 0.3275
367.10 0.328
367.20 0.3284
367.30 0.3289
367.40 0.3293
367.50 0.3298
367.60 0.3302
367.70 0.3307
367.80 0.3311
367.90 0.3316
368.00 0.332
368.10 0.3325
368.20 0.3329
368.30 0.3334
368.40 0.3339
368.50 0.3343
368.60 0.3348
368.70 0.3352
368.80 0.3357
368.90 0.3361
369.00 0.3366
369.10 0.3371
369.20 0.3375
369.30 0.338
369.40 0.3384
369.50 0.3389
369.60 0.3393
369.70 0.3398
369.80 0.3402
369.90 0.3407
370.00 0.3411
370.10 0.3416
370.20 0.3421
370.30 0.3425
370.40 0.343
370.50 0.3434
370.60 0.3439
370.70 0.3444
370.80 0.3448
370.90 0.3453
371.00 0.3458
371.10 0.3462
371.20 0.3467
371.30 0.3471
371.40 0.3476
371.50 0.3481
371.60 0.3485
371.70 0.349
371.80 0.3494
371.90 0.3499
372.00 0.3503
372.10 0.3508
372.20 0.3513
372.30 0.3517
372.40 0.3522
372.50 0.3527
372.60 0.3531
372.70 0.3536
372.80 0.3541
372.90 0.3545
373.00 0.355
373.10 0.3555
373.20 0.3559
373.30 0.3564
373.40 0.3569
373.50 0.3573
373.60 0.3578
373.70 0.3582
373.80 0.3587
373.90 0.3592
374.00 0.3596
374.10 0.3601
374.20 0.3606
374.30 0.3611
374.40 0.3615
374.50 0.362
374.60 0.3625
374.70 0.3629
374.80 0.3634
374.90 0.3639
375.00 0.3643
375.10 0.3648
375.20 0.3653
375.30 0.3658
375.40 0.3662
375.50 0.3667
375.60 0.3672
375.70 0.3676
375.80 0.3681
375.90 0.3685
376.00 0.369
376.10 0.3695
376.20 0.37
376.30 0.3704
376.40 0.3709
376.50 0.3714
376.60 0.3718
376.70 0.3723
376.80 0.3728
376.90 0.3733
377.00 0.3737
377.10 0.3742
377.20 0.3747
377.30 0.3752
377.40 0.3756
377.50 0.3761
377.60 0.3766
377.70 0.3771
377.80 0.3775
377.90 0.378
378.00 0.3785
378.10 0.3789
378.20 0.3794
378.30 0.3799
378.40 0.3804
378.50 0.3809
378.60 0.3813
378.70 0.3818
378.80 0.3823
378.90 0.3828
379.00 0.3832
379.10 0.3837
379.20 0.3842
379.30 0.3847
379.40 0.3852
379.50 0.3856
379.60 0.3861
379.70 0.3866
379.80 0.3871
379.90 0.3875
380.00 0.388
380.10 0.3885
380.20 0.389
380.30 0.3895
380.40 0.3899
380.50 0.3904
380.60 0.3909
380.70 0.3914
380.80 0.3919
380.90 0.3923
381.00 0.3928
381.10 0.3933
381.20 0.3938
381.30 0.3943
381.40 0.3947
381.50 0.3952
381.60 0.3957
381.70 0.3962
381.80 0.3967
381.90 0.3971
382.00 0.3976
382.10 0.3981
382.20 0.3986
382.30 0.3991
382.40 0.3996
382.50 0.4001
382.60 0.4005
382.70 0.401
382.80 0.4015
382.90 0.402
383.00 0.4025
383.10 0.403
383.20 0.4034
383.30 0.4039
383.40 0.4044
383.50 0.4049
383.60 0.4054
383.70 0.4059
383.80 0.4063
383.90 0.4068
384.00 0.4073
384.10 0.4078
384.20 0.4083
384.30 0.4088
384.40 0.4092
384.50 0.4098
384.60 0.4102
384.70 0.4107
384.80 0.4112
384.90 0.4117
385.00 0.4122
385.10 0.4127
385.20 0.4132
385.30 0.4136
385.40 0.4141
385.50 0.4146
385.60 0.4151
385.70 0.4156
385.80 0.4161
385.90 0.4166
386.00 0.4171
386.10 0.4176
386.20 0.4181
386.30 0.4185
386.40 0.419
386.50 0.4195
386.60 0.42
386.70 0.4205
386.80 0.421
386.90 0.4215
387.00 0.422
387.10 0.4225
387.20 0.4229
387.30 0.4234
387.40 0.4239
387.50 0.4244
387.60 0.4249
387.70 0.4254
387.80 0.4259
387.90 0.4264
388.00 0.4269
388.10 0.4274
388.20 0.4279
388.30 0.4284
388.40 0.4289
388.50 0.4294
388.60 0.4299
388.70 0.4304
388.80 0.4309
388.90 0.4314
389.00 0.4318
389.10 0.4323
389.20 0.4329
389.30 0.4333
389.40 0.4338
389.50 0.4343
389.60 0.4348
389.70 0.4353
389.80 0.4358
389.90 0.4363
390.00 0.4368
390.10 0.4373
390.20 0.4378
390.30 0.4383
390.40 0.4388
390.50 0.4393
390.60 0.4398
390.70 0.4403
390.80 0.4408
390.90 0.4413
391.00 0.4418
391.10 0.4423
391.20 0.4428
391.30 0.4433
391.40 0.4438
391.50 0.4443
391.60 0.4448
391.70 0.4452
391.80 0.4458
391.90 0.4463
392.00 0.4468
392.10 0.4473
392.20 0.4477
392.30 0.4483
392.40 0.4488
392.50 0.4493
392.60 0.4497
392.70 0.4502
392.80 0.4508
392.90 0.4512
393.00 0.4517
393.10 0.4523
393.20 0.4528
393.30 0.4533
393.40 0.4537
393.50 0.4543
393.60 0.4548
393.70 0.4553
393.80 0.4558
393.90 0.4562
394.00 0.4568
394.10 0.4573
394.20 0.4578
394.30 0.4583
394.40 0.4588
394.50 0.4593
394.60 0.4598
394.70 0.4603
394.80 0.4608
394.90 0.4613
395.00 0.4618
395.10 0.4623
395.20 0.4628
395.30 0.4633
395.40 0.4638
395.50 0.4643
395.60 0.4648
395.70 0.4653
395.80 0.4658
395.90 0.4663
396.00 0.4668
396.10 0.4673
396.20 0.4678
396.30 0.4684
396.40 0.4688
396.50 0.4694
396.60 0.4699
396.70 0.4704
396.80 0.4709
396.90 0.4714
397.00 0.4719
397.10 0.4724
397.20 0.4729
397.30 0.4734
397.40 0.4739
397.50 0.4744
397.60 0.4749
397.70 0.4754
397.80 0.4759
397.90 0.4764
398.00 0.4769
398.10 0.4774
398.20 0.478
398.30 0.4785
398.40 0.479
398.50 0.4795
398.60 0.48
398.70 0.4805
398.80 0.481
398.90 0.4815
399.00 0.482
399.10 0.4825
399.20 0.483
399.30 0.4836
399.40 0.4841
399.50 0.4846
399.60 0.4851
399.70 0.4856
399.80 0.4861
399.90 0.4866
400.00 0.4871
400.10 0.4876
400.20 0.4881
400.30 0.4887
400.40 0.4892
400.50 0.4897
400.60 0.4902
400.70 0.4907
400.80 0.4912
400.90 0.4917
401.00 0.4922
401.10 0.4927
401.20 0.4933
401.30 0.4938
401.40 0.4943
401.50 0.4948
401.60 0.4953
401.70 0.4958
401.80 0.4963
401.90 0.4968
402.00 0.4974
402.10 0.4979
402.20 0.4984
402.30 0.4989
402.40 0.4994
402.50 0.4999
402.60 0.5004
402.70 0.5009
402.80 0.5015
402.90 0.502
403.00 0.5025
403.10 0.503
403.20 0.5035
403.30 0.504
403.40 0.5045
403.50 0.505
403.60 0.5056
403.70 0.5061
403.80 0.5066
403.90 0.5071
404.00 0.5076
404.10 0.5081
404.20 0.5086
404.30 0.5091
404.40 0.5097
404.50 0.5102
404.60 0.5107
404.70 0.5112
404.80 0.5117
404.90 0.5122
405.00 0.5127
405.10 0.5133
405.20 0.5138
405.30 0.5143
405.40 0.5148
405.50 0.5153
405.60 0.5158
405.70 0.5164
405.80 0.5169
405.90 0.5174
406.00 0.5179
406.10 0.5184
406.20 0.5189
406.30 0.5195
406.40 0.52
406.50 0.5205
406.60 0.521
406.70 0.5215
406.80 0.522
406.90 0.5225
407.00 0.5231
407.10 0.5236
407.20 0.5241
407.30 0.5246
407.40 0.5251
407.50 0.5256
407.60 0.5262
407.70 0.5267
407.80 0.5272
407.90 0.5277
408.00 0.5282
408.10 0.5288
408.20 0.5293
408.30 0.5298
408.40 0.5303
408.50 0.5308
408.60 0.5314
408.70 0.5319
408.80 0.5324
408.90 0.5329
409.00 0.5334
409.10 0.534
409.20 0.5345
409.30 0.535
409.40 0.5355
409.50 0.536
409.60 0.5365
409.70 0.5371
409.80 0.5376
409.90 0.5381
410.00 0.5386
410.10 0.5391
410.20 0.5397
410.30 0.5402
410.40 0.5407
410.50 0.5412
410.60 0.5417
410.70 0.5423
410.80 0.5428
410.90 0.5433
411.00 0.5438
411.10 0.5443
411.20 0.5449
411.30 0.5454
411.40 0.5459
411.50 0.5464
411.60 0.547
411.70 0.5475
411.80 0.548
411.90 0.5485
412.00 0.549
412.10 0.5495
412.20 0.5501
412.30 0.5506
412.40 0.5511
412.50 0.5516
412.60 0.5522
412.70 0.5527
412.80 0.5532
412.90 0.5537
413.00 0.5542
413.10 0.5548
413.20 0.5553
413.30 0.5558
413.40 0.5563
413.50 0.5569
413.60 0.5574
413.70 0.5579
413.80 0.5584
413.90 0.5589
414.00 0.5595
414.10 0.56
414.20 0.5605
414.30 0.561
414.40 0.5616
414.50 0.5621
414.60 0.5626
414.70 0.5631
414.80 0.5636
414.90 0.5642
415.00 0.5647
415.10 0.5652
415.20 0.5657
415.30 0.5663
415.40 0.5668
415.50 0.5673
415.60 0.5678
415.70 0.5684
415.80 0.5689
415.90 0.5694
416.00 0.5699
416.10 0.5704
416.20 0.571
416.30 0.5715
416.40 0.572
416.50 0.5725
416.60 0.5731
416.70 0.5736
416.80 0.5741
416.90 0.5747
417.00 0.5752
417.10 0.5757
417.20 0.5762
417.30 0.5767
417.40 0.5773
417.50 0.5778
417.60 0.5783
417.70 0.5788
417.80 0.5794
417.90 0.5799
418.00 0.5804
418.10 0.5809
418.20 0.5815
418.30 0.582
418.40 0.5825
418.50 0.583
418.60 0.5836
418.70 0.5841
418.80 0.5846
418.90 0.5851
419.00 0.5857
419.10 0.5862
419.20 0.5867
419.30 0.5873
419.40 0.5878
419.50 0.5883
419.60 0.5888
419.70 0.5893
419.80 0.5899
419.90 0.5904
420.00 0.5909
420.10 0.5914
420.20 0.592
420.30 0.5925
420.40 0.593
420.50 0.5936
420.60 0.5941
420.70 0.5946
420.80 0.5951
420.90 0.5957
421.00 0.5962
421.10 0.5967
421.20 0.5972
421.30 0.5977
421.40 0.5983
421.50 0.5988
421.60 0.5993
421.70 0.5999
421.80 0.6004
421.90 0.6009
422.00 0.6014
422.10 0.602
422.20 0.6025
422.30 0.603
422.40 0.6035
422.50 0.6041
422.60 0.6046
422.70 0.6051
422.80 0.6056
422.90 0.6062
423.00 0.6067
423.10 0.6072
423.20 0.6078
423.30 0.6083
423.40 0.6088
423.50 0.6093
423.60 0.6099
423.70 0.6104
423.80 0.6109
423.90 0.6115
424.00 0.612
424.10 0.6125
424.20 0.613
424.30 0.6136
424.40 0.6141
424.50 0.6146
424.60 0.6151
424.70 0.6157
424.80 0.6162
424.90 0.6167
425.00 0.6173
425.10 0.6178
425.20 0.6183
425.30 0.6188
425.40 0.6194
425.50 0.6199
425.60 0.6204
425.70 0.6209
425.80 0.6215
425.90 0.622
426.00 0.6225
426.10 0.6231
426.20 0.6236
426.30 0.6241
426.40 0.6247
426.50 0.6252
426.60 0.6257
426.70 0.6262
426.80 0.6268
426.90 0.6273
427.00 0.6278
427.10 0.6283
427.20 0.6289
427.30 0.6294
427.40 0.6299
427.50 0.6304
427.60 0.631
427.70 0.6315
427.80 0.6321
427.90 0.6326
428.00 0.6331
428.10 0.6336
428.20 0.6342
428.30 0.6347
428.40 0.6352
428.50 0.6357
428.60 0.6363
428.70 0.6368
428.80 0.6373
428.90 0.6379
429.00 0.6384
429.10 0.6389
429.20 0.6394
429.30 0.64
429.40 0.6405
429.50 0.641
429.60 0.6415
429.70 0.6421
429.80 0.6426
429.90 0.6431
430.00 0.6437
430.10 0.6442
430.20 0.6447
430.30 0.6453
430.40 0.6458
430.50 0.6463
430.60 0.6468
430.70 0.6474
430.80 0.6479
430.90 0.6484
431.00 0.649
431.10 0.6495
431.20 0.65
431.30 0.6505
431.40 0.6511
431.50 0.6516
431.60 0.6521
431.70 0.6526
431.80 0.6532
431.90 0.6537
432.00 0.6542
432.10 0.6548
432.20 0.6553
432.30 0.6558
432.40 0.6564
432.50 0.6569
432.60 0.6574
432.70 0.658
432.80 0.6585
432.90 0.659
433.00 0.6595
433.10 0.6601
433.20 0.6606
433.30 0.6611
433.40 0.6616
433.50 0.6622
433.60 0.6627
433.70 0.6632
433.80 0.6638
433.90 0.6643
434.00 0.6648
434.10 0.6653
434.20 0.6659
434.30 0.6664
434.40 0.6669
434.50 0.6675
434.60 0.668
434.70 0.6685
434.80 0.669
434.90 0.6696
435.00 0.6701
435.10 0.6706
435.20 0.6712
435.30 0.6717
435.40 0.6722
435.50 0.6728
435.60 0.6733
435.70 0.6738
435.80 0.6743
435.90 0.6749
436.00 0.6754
436.10 0.6759
436.20 0.6764
436.30 0.677
436.40 0.6775
436.50 0.678
436.60 0.6786
436.70 0.6791
436.80 0.6796
436.90 0.6802
437.00 0.6807
437.10 0.6812
437.20 0.6817
437.30 0.6823
437.40 0.6828
437.50 0.6833
437.60 0.6838
437.70 0.6844
437.80 0.6849
437.90 0.6854
438.00 0.686
438.10 0.6865
438.20 0.687
438.30 0.6876
438.40 0.6881
438.50 0.6886
438.60 0.6891
438.70 0.6897
438.80 0.6902
438.90 0.6907
439.00 0.6913
439.10 0.6918
439.20 0.6923
439.30 0.6928
439.40 0.6933
439.50 0.6939
439.60 0.6944
439.70 0.6949
439.80 0.6955
439.90 0.696
440.00 0.6965
440.10 0.6971
440.20 0.6976
440.30 0.6981
440.40 0.6986
440.50 0.6992
440.60 0.6997
440.70 0.7002
440.80 0.7007
440.90 0.7013
441.00 0.7018
441.10 0.7023
441.20 0.7029
441.30 0.7034
441.40 0.7039
441.50 0.7044
441.60 0.705
441.70 0.7055
441.80 0.706
441.90 0.7066
442.00 0.7071
442.10 0.7076
442.20 0.7081
442.30 0.7087
442.40 0.7092
442.50 0.7097
442.60 0.7103
442.70 0.7108
442.80 0.7113
442.90 0.7118
443.00 0.7124
443.10 0.7129
443.20 0.7134
443.30 0.7139
443.40 0.7145
443.50 0.715
443.60 0.7155
443.70 0.716
443.80 0.7166
443.90 0.7171
444.00 0.7176
444.10 0.7182
444.20 0.7187
444.30 0.7192
444.40 0.7197
444.50 0.7203
444.60 0.7208
444.70 0.7213
444.80 0.7218
444.90 0.7224
445.00 0.7229
445.10 0.7234
445.20 0.7239
445.30 0.7245
445.40 0.725
445.50 0.7255
445.60 0.7261
445.70 0.7266
445.80 0.7271
445.90 0.7277
446.00 0.7282
446.10 0.7287
446.20 0.7292
446.30 0.7298
446.40 0.7303
446.50 0.7308
446.60 0.7313
446.70 0.7319
446.80 0.7324
446.90 0.7329
447.00 0.7334
447.10 0.7339
447.20 0.7345
447.30 0.735
447.40 0.7355
447.50 0.7361
447.60 0.7366
447.70 0.7371
447.80 0.7376
447.90 0.7382
448.00 0.7387
448.10 0.7392
448.20 0.7397
448.30 0.7403
448.40 0.7408
448.50 0.7413
448.60 0.7418
448.70 0.7424
448.80 0.7429
448.90 0.7434
449.00 0.7439
449.10 0.7445
449.20 0.745
449.30 0.7455
449.40 0.746
449.50 0.7466
449.60 0.7471
449.70 0.7476
449.80 0.7481
449.90 0.7487
450.00 0.7492
450.10 0.7497
450.20 0.7502
450.30 0.7508
450.40 0.7513
450.50 0.7518
450.60 0.7523
450.70 0.7529
450.80 0.7534
450.90 0.7539
451.00 0.7544
451.10 0.7549
451.20 0.7555
451.30 0.756
451.40 0.7565
451.50 0.757
451.60 0.7576
451.70 0.7581
451.80 0.7586
451.90 0.7591
452.00 0.7597
452.10 0.7602
452.20 0.7607
452.30 0.7612
452.40 0.7617
452.50 0.7623
452.60 0.7628
452.70 0.7633
452.80 0.7638
452.90 0.7644
453.00 0.7649
453.10 0.7654
453.20 0.7659
453.30 0.7665
453.40 0.767
453.50 0.7675
453.60 0.768
453.70 0.7686
453.80 0.7691
453.90 0.7696
454.00 0.7701
454.10 0.7707
454.20 0.7712
454.30 0.7717
454.40 0.7722
454.50 0.7727
454.60 0.7733
454.70 0.7738
454.80 0.7743
454.90 0.7748
455.00 0.7753
455.10 0.7759
455.20 0.7764
455.30 0.7769
455.40 0.7774
455.50 0.778
455.60 0.7785
455.70 0.779
455.80 0.7795
455.90 0.78
456.00 0.7806
456.10 0.7811
456.20 0.7816
456.30 0.7821
456.40 0.7826
456.50 0.7832
456.60 0.7837
456.70 0.7842
456.80 0.7847
456.90 0.7853
457.00 0.7858
457.10 0.7863
457.20 0.7868
457.30 0.7873
457.40 0.7879
457.50 0.7884
457.60 0.7889
457.70 0.7894
457.80 0.7899
457.90 0.7905
458.00 0.791
458.10 0.7915
458.20 0.792
458.30 0.7925
458.40 0.7931
458.50 0.7936
458.60 0.7941
458.70 0.7946
458.80 0.7951
458.90 0.7956
459.00 0.7962
459.10 0.7967
459.20 0.7972
459.30 0.7977
459.40 0.7982
459.50 0.7987
459.60 0.7993
459.70 0.7998
459.80 0.8003
459.90 0.8008
460.00 0.8013
460.10 0.8019
460.20 0.8024
460.30 0.8029
460.40 0.8034
460.50 0.8039
460.60 0.8045
460.70 0.805
460.80 0.8055
460.90 0.806
461.00 0.8065
461.10 0.807
461.20 0.8076
461.30 0.8081
461.40 0.8086
461.50 0.8091
461.60 0.8096
461.70 0.8101
461.80 0.8107
461.90 0.8112
462.00 0.8117
462.10 0.8122
462.20 0.8127
462.30 0.8132
462.40 0.8138
462.50 0.8143
462.60 0.8148
462.70 0.8153
462.80 0.8158
462.90 0.8163
463.00 0.8169
463.10 0.8174
463.20 0.8179
463.30 0.8184
463.40 0.8189
463.50 0.8194
463.60 0.8199
463.70 0.8205
463.80 0.821
463.90 0.8215
464.00 0.822
464.10 0.8225
464.20 0.823
464.30 0.8235
464.40 0.8241
464.50 0.8246
464.60 0.8251
464.70 0.8256
464.80 0.8261
464.90 0.8266
465.00 0.8272
465.10 0.8277
465.20 0.8282
465.30 0.8287
465.40 0.8292
465.50 0.8297
465.60 0.8302
465.70 0.8308
465.80 0.8313
465.90 0.8318
466.00 0.8323
466.10 0.8328
466.20 0.8333
466.30 0.8338
466.40 0.8344
466.50 0.8349
466.60 0.8354
466.70 0.8359
466.80 0.8364
466.90 0.8369
467.00 0.8374
467.10 0.8379
467.20 0.8385
467.30 0.839
467.40 0.8395
467.50 0.84
467.60 0.8405
467.70 0.841
467.80 0.8415
467.90 0.842
468.00 0.8425
468.10 0.843
468.20 0.8436
468.30 0.8441
468.40 0.8446
468.50 0.8451
468.60 0.8456
468.70 0.8461
468.80 0.8466
468.90 0.8471
469.00 0.8476
469.10 0.8481
469.20 0.8487
469.30 0.8492
469.40 0.8497
469.50 0.8502
469.60 0.8507
469.70 0.8512
469.80 0.8517
469.90 0.8522
470.00 0.8527
470.10 0.8532
470.20 0.8538
470.30 0.8543
470.40 0.8548
470.50 0.8553
470.60 0.8558
470.70 0.8563
470.80 0.8568
470.90 0.8573
471.00 0.8578
471.10 0.8583
471.20 0.8588
471.30 0.8594
471.40 0.8599
471.50 0.8604
471.60 0.8609
471.70 0.8614
471.80 0.8619
471.90 0.8624
472.00 0.8629
472.10 0.8634
472.20 0.8639
472.30 0.8644
472.40 0.8649
472.50 0.8654
472.60 0.866
472.70 0.8665
472.80 0.867
472.90 0.8675
473.00 0.868
473.10 0.8685
473.20 0.869
473.30 0.8695
473.40 0.87
473.50 0.8705
473.60 0.871
473.70 0.8715
473.80 0.872
473.90 0.8725
474.00 0.873
474.10 0.8735
474.20 0.874
474.30 0.8746
474.40 0.8751
474.50 0.8756
474.60 0.8761
474.70 0.8766
474.80 0.8771
474.90 0.8776
475.00 0.8781
475.10 0.8786
475.20 0.8791
475.30 0.8796
475.40 0.8801
475.50 0.8806
475.60 0.8811
475.70 0.8816
475.80 0.8821
475.90 0.8826
476.00 0.8831
476.10 0.8836
476.20 0.8841
476.30 0.8846
476.40 0.8851
476.50 0.8856
476.60 0.8861
476.70 0.8866
476.80 0.8871
476.90 0.8876
477.00 0.8881
477.10 0.8886
477.20 0.8891
477.30 0.8896
477.40 0.8901
477.50 0.8906
477.60 0.8911
477.70 0.8916
477.80 0.8921
477.90 0.8926
478.00 0.8931
478.10 0.8936
478.20 0.8941
478.30 0.8946
478.40 0.8951
478.50 0.8956
478.60 0.8961
478.70 0.8966
478.80 0.8971
478.90 0.8976
479.00 0.8981
479.10 0.8986
479.20 0.8991
479.30 0.8996
479.40 0.9001
479.50 0.9006
479.60 0.9011
479.70 0.9016
479.80 0.9021
479.90 0.9026
480.00 0.9031
480.10 0.9036
480.20 0.9041
480.30 0.9046
480.40 0.9051
480.50 0.9056
480.60 0.9061
480.70 0.9066
480.80 0.9071
480.90 0.9076
481.00 0.9081
481.10 0.9086
481.20 0.9091
481.30 0.9096
481.40 0.9101
481.50 0.9106
481.60 0.9111
481.70 0.9116
481.80 0.9121
481.90 0.9126
482.00 0.9131
482.10 0.9136
482.20 0.9141
482.30 0.9145
482.40 0.915
482.50 0.9155
482.60 0.916
482.70 0.9165
482.80 0.917
482.90 0.9175
483.00 0.918
483.10 0.9185
483.20 0.919
483.30 0.9195
483.40 0.92
483.50 0.9205
483.60 0.921
483.70 0.9215
483.80 0.922
483.90 0.9225
484.00 0.9229
484.10 0.9234
484.20 0.9239
484.30 0.9244
484.40 0.9249
484.50 0.9254
484.60 0.9259
484.70 0.9264
484.80 0.9269
484.90 0.9274
485.00 0.9279
485.10 0.9283
485.20 0.9288
485.30 0.9293
485.40 0.9298
485.50 0.9303
485.60 0.9308
485.70 0.9313
485.80 0.9318
485.90 0.9322
486.00 0.9327
486.10 0.9331
486.20 0.9336
486.30 0.9342
486.40 0.9347
486.50 0.9352
486.60 0.9357
486.70 0.9362
486.80 0.9367
486.90 0.9372
487.00 0.9377
487.10 0.9381
487.20 0.9386
487.30 0.9391
487.40 0.9396
487.50 0.9401
487.60 0.9406
487.70 0.9411
487.80 0.9416
487.90 0.9421
488.00 0.9425
488.10 0.943
488.20 0.9435
488.30 0.944
488.40 0.9445
488.50 0.945
488.60 0.9455
488.70 0.946
488.80 0.9464
488.90 0.9469
489.00 0.9474
489.10 0.9479
489.20 0.9484
489.30 0.9489
489.40 0.9494
489.50 0.9498
489.60 0.9503
489.70 0.9508
489.80 0.9513
489.90 0.9518
490.00 0.9523
490.10 0.9528
490.20 0.9532
490.30 0.9537
490.40 0.9542
490.50 0.9547
490.60 0.9552
490.70 0.9557
490.80 0.9562
490.90 0.9566
491.00 0.9571
491.10 0.9576
491.20 0.9581
491.30 0.9586
491.40 0.959
491.50 0.9595
491.60 0.96
491.70 0.9605
491.80 0.961
491.90 0.9615
492.00 0.9619
492.10 0.9624
492.20 0.9629
492.30 0.9634
492.40 0.9639
492.50 0.9643
492.60 0.9648
492.70 0.9653
492.80 0.9658
492.90 0.9663
493.00 0.9667
493.10 0.9672
493.20 0.9677
493.30 0.9682
493.40 0.9687
493.50 0.9691
493.60 0.9696
493.70 0.9701
493.80 0.9706
493.90 0.9711
494.00 0.9715
494.10 0.972
494.20 0.9725
494.30 0.973
494.40 0.9735
494.50 0.9739
494.60 0.9744
494.70 0.9749
494.80 0.9754
494.90 0.9758
495.00 0.9763
495.10 0.9768
495.20 0.9773
495.30 0.9778
495.40 0.9782
495.50 0.9787
495.60 0.9792
495.70 0.9797
495.80 0.9801
495.90 0.9806
496.00 0.9811
496.10 0.9816
496.20 0.982
496.30 0.9825
496.40 0.983
496.50 0.9835
496.60 0.9839
496.70 0.9844
496.80 0.9849
496.90 0.9854
497.00 0.9858
497.10 0.9863
497.20 0.9868
497.30 0.9873
497.40 0.9877
497.50 0.9882
497.60 0.9887
497.70 0.9892
497.80 0.9896
497.90 0.9901
498.00 0.9906
498.10 0.991
498.20 0.9915
498.30 0.992
498.40 0.9925
498.50 0.9929
498.60 0.9934
498.70 0.9939
498.80 0.9943
498.90 0.9948
499.00 0.9953
499.10 0.9958
499.20 0.9962
499.30 0.9967
499.40 0.9972
499.50 0.9976
499.60 0.9981
499.70 0.9986
499.80 0.9991
499.90 0.9995
500.00 1
500.10 1
500.20 1.001
500.30 1.001
500.40 1.002
500.50 1.002
500.60 1.003
500.70 1.003
500.80 1.004
500.90 1.004
501.00 1.005
501.10 1.005
501.20 1.006
501.30 1.006
501.40 1.007
501.50 1.007
501.60 1.007
501.70 1.008
501.80 1.008
501.90 1.009
502.00 1.009
502.10 1.01
502.20 1.01
502.30 1.011
502.40 1.011
502.50 1.012
502.60 1.012
502.70 1.013
502.80 1.013
502.90 1.014
503.00 1.014
503.10 1.014
503.20 1.015
503.30 1.015
503.40 1.016
503.50 1.016
503.60 1.017
503.70 1.017
503.80 1.018
503.90 1.018
504.00 1.019
504.10 1.019
504.20 1.02
504.30 1.02
504.40 1.021
504.50 1.021
504.60 1.021
504.70 1.022
504.80 1.022
504.90 1.023
505.00 1.023
505.10 1.024
505.20 1.024
505.30 1.025
505.40 1.025
505.50 1.026
505.60 1.026
505.70 1.026
505.80 1.027
505.90 1.027
506.00 1.028
506.10 1.028
506.20 1.029
506.30 1.029
506.40 1.03
506.50 1.03
506.60 1.031
506.70 1.031
506.80 1.032
506.90 1.032
507.00 1.032
507.10 1.033
507.20 1.033
507.30 1.034
507.40 1.034
507.50 1.035
507.60 1.035
507.70 1.036
507.80 1.036
507.90 1.037
508.00 1.037
508.10 1.037
508.20 1.038
508.30 1.038
508.40 1.039
508.50 1.039
508.60 1.04
508.70 1.04
508.80 1.041
508.90 1.041
509.00 1.042
509.10 1.042
509.20 1.043
509.30 1.043
509.40 1.043
509.50 1.044
509.60 1.044
509.70 1.045
509.80 1.045
509.90 1.046
510.00 1.046
510.10 1.047
510.20 1.047
510.30 1.047
510.40 1.048
510.50 1.048
510.60 1.049
510.70 1.049
510.80 1.05
510.90 1.05
511.00 1.051
511.10 1.051
511.20 1.052
511.30 1.052
511.40 1.052
511.50 1.053
511.60 1.053
511.70 1.054
511.80 1.054
511.90 1.055
512.00 1.055
512.10 1.056
512.20 1.056
512.30 1.056
512.40 1.057
512.50 1.057
512.60 1.058
512.70 1.058
512.80 1.059
512.90 1.059
513.00 1.06
513.10 1.06
513.20 1.061
513.30 1.061
513.40 1.061
513.50 1.062
513.60 1.062
513.70 1.063
513.80 1.063
513.90 1.064
514.00 1.064
514.10 1.065
514.20 1.065
514.30 1.065
514.40 1.066
514.50 1.066
514.60 1.067
514.70 1.067
514.80 1.068
514.90 1.068
515.00 1.069
515.10 1.069
515.20 1.069
515.30 1.07
515.40 1.07
515.50 1.071
515.60 1.071
515.70 1.072
515.80 1.072
515.90 1.073
516.00 1.073
516.10 1.073
516.20 1.074
516.30 1.074
516.40 1.075
516.50 1.075
516.60 1.076
516.70 1.076
516.80 1.077
516.90 1.077
517.00 1.077
517.10 1.078
517.20 1.078
517.30 1.079
517.40 1.079
517.50 1.08
517.60 1.08
517.70 1.08
517.80 1.081
517.90 1.081
518.00 1.082
518.10 1.082
518.20 1.083
518.30 1.083
518.40 1.084
518.50 1.084
518.60 1.084
518.70 1.085
518.80 1.085
518.90 1.086
519.00 1.086
519.10 1.087
519.20 1.087
519.30 1.087
519.40 1.088
519.50 1.088
519.60 1.089
519.70 1.089
519.80 1.09
519.90 1.09
520.00 1.091
520.10 1.091
520.20 1.091
520.30 1.092
520.40 1.092
520.50 1.093
520.60 1.093
520.70 1.094
520.80 1.094
520.90 1.094
521.00 1.095
521.10 1.095
521.20 1.096
521.30 1.096
521.40 1.097
521.50 1.097
521.60 1.097
521.70 1.098
521.80 1.098
521.90 1.099
522.00 1.099
522.10 1.1
522.20 1.1
522.30 1.1
522.40 1.101
522.50 1.101
522.60 1.102
522.70 1.102
522.80 1.103
522.90 1.103
523.00 1.103
523.10 1.104
523.20 1.104
523.30 1.105
523.40 1.105
523.50 1.106
523.60 1.106
523.70 1.106
523.80 1.107
523.90 1.107
524.00 1.108
524.10 1.108
524.20 1.109
524.30 1.109
524.40 1.109
524.50 1.11
524.60 1.11
524.70 1.111
524.80 1.111
524.90 1.112
525.00 1.112
525.10 1.112
525.20 1.113
525.30 1.113
525.40 1.114
525.50 1.114
525.60 1.115
525.70 1.115
525.80 1.115
525.90 1.116
526.00 1.116
526.10 1.117
526.20 1.117
526.30 1.118
526.40 1.118
526.50 1.118
526.60 1.119
526.70 1.119
526.80 1.12
526.90 1.12
527.00 1.121
527.10 1.121
527.20 1.121
527.30 1.122
527.40 1.122
527.50 1.123
527.60 1.123
527.70 1.123
527.80 1.124
527.90 1.124
528.00 1.125
528.10 1.125
528.20 1.126
528.30 1.126
528.40 1.126
528.50 1.127
528.60 1.127
528.70 1.128
528.80 1.128
528.90 1.128
529.00 1.129
529.10 1.129
529.20 1.13
529.30 1.13
529.40 1.131
529.50 1.131
529.60 1.131
529.70 1.132
529.80 1.132
529.90 1.133
530.00 1.133
530.10 1.134
530.20 1.134
530.30 1.134
530.40 1.135
530.50 1.135
530.60 1.136
530.70 1.136
530.80 1.136
530.90 1.137
531.00 1.137
531.10 1.138
531.20 1.138
531.30 1.138
531.40 1.139
531.50 1.139
531.60 1.14
531.70 1.14
531.80 1.141
531.90 1.141
532.00 1.141
532.10 1.142
532.20 1.142
532.30 1.143
532.40 1.143
532.50 1.143
532.60 1.144
532.70 1.144
532.80 1.145
532.90 1.145
533.00 1.145
533.10 1.146
533.20 1.146
533.30 1.147
533.40 1.147
533.50 1.148
533.60 1.148
533.70 1.148
533.80 1.149
533.90 1.149
534.00 1.15
534.10 1.15
534.20 1.15
534.30 1.151
534.40 1.151
534.50 1.152
534.60 1.152
534.70 1.152
534.80 1.153
534.90 1.153
535.00 1.154
535.10 1.154
535.20 1.154
535.30 1.155
535.40 1.155
535.50 1.156
535.60 1.156
535.70 1.156
535.80 1.157
535.90 1.157
536.00 1.158
536.10 1.158
536.20 1.158
536.30 1.159
536.40 1.159
536.50 1.16
536.60 1.16
536.70 1.161
536.80 1.161
536.90 1.161
537.00 1.162
537.10 1.162
537.20 1.163
537.30 1.163
537.40 1.163
537.50 1.164
537.60 1.164
537.70 1.165
537.80 1.165
537.90 1.165
538.00 1.166
538.10 1.166
538.20 1.167
538.30 1.167
538.40 1.167
538.50 1.168
538.60 1.168
538.70 1.169
538.80 1.169
538.90 1.169
539.00 1.17
539.10 1.17
539.20 1.171
539.30 1.171
539.40 1.171
539.50 1.172
539.60 1.172
539.70 1.172
539.80 1.173
539.90 1.173
540.00 1.174
540.10 1.174
540.20 1.174
540.30 1.175
540.40 1.175
540.50 1.176
540.60 1.176
540.70 1.176
540.80 1.177
540.90 1.177
541.00 1.178
541.10 1.178
541.20 1.178
541.30 1.179
541.40 1.179
541.50 1.18
541.60 1.18
541.70 1.18
541.80 1.181
541.90 1.181
542.00 1.182
542.10 1.182
542.20 1.182
542.30 1.183
542.40 1.183
542.50 1.184
542.60 1.184
542.70 1.184
542.80 1.185
542.90 1.185
543.00 1.185
543.10 1.186
543.20 1.186
543.30 1.187
543.40 1.187
543.50 1.187
543.60 1.188
543.70 1.188
543.80 1.189
543.90 1.189
544.00 1.189
544.10 1.19
544.20 1.19
544.30 1.191
544.40 1.191
544.50 1.191
544.60 1.192
544.70 1.192
544.80 1.192
544.90 1.193
545.00 1.193
545.10 1.194
545.20 1.194
545.30 1.194
545.40 1.195
545.50 1.195
545.60 1.196
545.70 1.196
545.80 1.196
545.90 1.197
546.00 1.197
546.10 1.197
546.20 1.198
546.30 1.198
546.40 1.199
546.50 1.199
546.60 1.199
546.70 1.2
546.80 1.2
546.90 1.201
547.00 1.201
547.10 1.201
547.20 1.202
547.30 1.202
547.40 1.202
547.50 1.203
547.60 1.203
547.70 1.204
547.80 1.204
547.90 1.204
548.00 1.205
548.10 1.205
548.20 1.205
548.30 1.206
548.40 1.206
548.50 1.207
548.60 1.207
548.70 1.207
548.80 1.208
548.90 1.208
549.00 1.208
549.10 1.209
549.20 1.209
549.30 1.21
549.40 1.21
549.50 1.21
549.60 1.211
549.70 1.211
549.80 1.212
549.90 1.212
550.00 1.212
550.10 1.213
550.20 1.213
550.30 1.213
550.40 1.214
550.50 1.214
550.60 1.215
550.70 1.215
550.80 1.215
550.90 1.216
551.00 1.216
551.10 1.216
551.20 1.217
551.30 1.217
551.40 1.217
551.50 1.218
551.60 1.218
551.70 1.219
551.80 1.219
551.90 1.219
552.00 1.22
552.10 1.22
552.20 1.22
552.30 1.221
552.40 1.221
552.50 1.222
552.60 1.222
552.70 1.222
552.80 1.223
552.90 1.223
553.00 1.223
553.10 1.224
553.20 1.224
553.30 1.225
553.40 1.225
553.50 1.225
553.60 1.226
553.70 1.226
553.80 1.226
553.90 1.227
554.00 1.227
554.10 1.227
554.20 1.228
554.30 1.228
554.40 1.229
554.50 1.229
554.60 1.229
554.70 1.23
554.80 1.23
554.90 1.23
555.00 1.231
555.10 1.231
555.20 1.231
555.30 1.232
555.40 1.232
555.50 1.233
555.60 1.233
555.70 1.233
555.80 1.234
555.90 1.234
556.00 1.234
556.10 1.235
556.20 1.235
556.30 1.235
556.40 1.236
556.50 1.236
556.60 1.237
556.70 1.237
556.80 1.237
556.90 1.238
557.00 1.238
557.10 1.238
557.20 1.239
557.30 1.239
557.40 1.239
557.50 1.24
557.60 1.24
557.70 1.241
557.80 1.241
557.90 1.241
558.00 1.242
558.10 1.242
558.20 1.242
558.30 1.243
558.40 1.243
558.50 1.243
558.60 1.244
558.70 1.244
558.80 1.244
558.90 1.245
559.00 1.245
559.10 1.246
559.20 1.246
559.30 1.246
559.40 1.247
559.50 1.247
559.60 1.247
559.70 1.248
559.80 1.248
559.90 1.248
560.00 1.249
560.10 1.249
560.20 1.249
560.30 1.25
560.40 1.25
560.50 1.251
560.60 1.251
560.70 1.251
560.80 1.252
560.90 1.252
561.00 1.252
561.10 1.253
561.20 1.253
561.30 1.253
561.40 1.254
561.50 1.254
561.60 1.254
561.70 1.255
561.80 1.255
561.90 1.255
562.00 1.256
562.10 1.256
562.20 1.256
562.30 1.257
562.40 1.257
562.50 1.258
562.60 1.258
562.70 1.258
562.80 1.259
562.90 1.259
563.00 1.259
563.10 1.26
563.20 1.26
563.30 1.26
563.40 1.261
563.50 1.261
563.60 1.261
563.70 1.262
563.80 1.262
563.90 1.262
564.00 1.263
564.10 1.263
564.20 1.263
564.30 1.264
564.40 1.264
564.50 1.264
564.60 1.265
564.70 1.265
564.80 1.266
564.90 1.266
565.00 1.266
565.10 1.267
565.20 1.267
565.30 1.267
565.40 1.268
565.50 1.268
565.60 1.268
565.70 1.269
565.80 1.269
565.90 1.269
566.00 1.27
566.10 1.27
566.20 1.27
566.30 1.271
566.40 1.271
566.50 1.271
566.60 1.272
566.70 1.272
566.80 1.272
566.90 1.273
567.00 1.273
567.10 1.273
567.20 1.274
567.30 1.274
567.40 1.274
567.50 1.275
567.60 1.275
567.70 1.275
567.80 1.276
567.90 1.276
568.00 1.276
568.10 1.277
568.20 1.277
568.30 1.277
568.40 1.278
568.50 1.278
568.60 1.278
568.70 1.279
568.80 1.279
568.90 1.279
569.00 1.28
569.10 1.28
569.20 1.28
569.30 1.281
569.40 1.281
569.50 1.281
569.60 1.282
569.70 1.282
569.80 1.282
569.90 1.283
570.00 1.283
570.10 1.283
570.20 1.284
570.30 1.284
570.40 1.284
570.50 1.285
570.60 1.285
570.70 1.285
570.80 1.286
570.90 1.286
571.00 1.286
571.10 1.287
571.20 1.287
571.30 1.287
571.40 1.288
571.50 1.288
571.60 1.288
571.70 1.289
571.80 1.289
571.90 1.289
572.00 1.29
572.10 1.29
572.20 1.29
572.30 1.291
572.40 1.291
572.50 1.291
572.60 1.292
572.70 1.292
572.80 1.292
572.90 1.293
573.00 1.293
573.10 1.293
573.20 1.294
573.30 1.294
573.40 1.294
573.50 1.295
573.60 1.295
573.70 1.295
573.80 1.296
573.90 1.296
574.00 1.296
574.10 1.297
574.20 1.297
574.30 1.297
574.40 1.298
574.50 1.298
574.60 1.298
574.70 1.299
574.80 1.299
574.90 1.299
575.00 1.299
575.10 1.3
575.20 1.3
575.30 1.3
575.40 1.301
575.50 1.301
575.60 1.301
575.70 1.302
575.80 1.302
575.90 1.302
576.00 1.303
576.10 1.303
576.20 1.303
576.30 1.304
576.40 1.304
576.50 1.304
576.60 1.305
576.70 1.305
576.80 1.305
576.90 1.306
577.00 1.306
577.10 1.306
577.20 1.307
577.30 1.307
577.40 1.307
577.50 1.307
577.60 1.308
577.70 1.308
577.80 1.308
577.90 1.309
578.00 1.309
578.10 1.309
578.20 1.31
578.30 1.31
578.40 1.31
578.50 1.311
578.60 1.311
578.70 1.311
578.80 1.312
578.90 1.312
579.00 1.312
579.10 1.313
579.20 1.313
579.30 1.313
579.40 1.313
579.50 1.314
579.60 1.314
579.70 1.314
579.80 1.315
579.90 1.315
580.00 1.315
580.10 1.316
580.20 1.316
580.30 1.316
580.40 1.317
580.50 1.317
580.60 1.317
580.70 1.317
580.80 1.318
580.90 1.318
581.00 1.318
581.10 1.319
581.20 1.319
581.30 1.319
581.40 1.32
581.50 1.32
581.60 1.32
581.70 1.321
581.80 1.321
581.90 1.321
582.00 1.321
582.10 1.322
582.20 1.322
582.30 1.322
582.40 1.323
582.50 1.323
582.60 1.323
582.70 1.324
582.80 1.324
582.90 1.324
583.00 1.325
583.10 1.325
583.20 1.325
583.30 1.325
583.40 1.326
583.50 1.326
583.60 1.326
583.70 1.327
583.80 1.327
583.90 1.327
584.00 1.328
584.10 1.328
584.20 1.328
584.30 1.328
584.40 1.329
584.50 1.329
584.60 1.329
584.70 1.33
584.80 1.33
584.90 1.33
585.00 1.331
585.10 1.331
585.20 1.331
585.30 1.332
585.40 1.332
585.50 1.332
585.60 1.332
585.70 1.333
585.80 1.333
585.90 1.333
586.00 1.334
586.10 1.334
586.20 1.334
586.30 1.334
586.40 1.335
586.50 1.335
586.60 1.335
586.70 1.336
586.80 1.336
586.90 1.336
587.00 1.337
587.10 1.337
587.20 1.337
587.30 1.337
587.40 1.338
587.50 1.338
587.60 1.338
587.70 1.339
587.80 1.339
587.90 1.339
588.00 1.34
588.10 1.34
588.20 1.34
588.30 1.34
588.40 1.341
588.50 1.341
588.60 1.341
588.70 1.342
588.80 1.342
588.90 1.342
589.00 1.342
589.10 1.343
589.20 1.343
589.30 1.343
589.40 1.344
589.50 1.344
589.60 1.344
589.70 1.344
589.80 1.345
589.90 1.345
590.00 1.345
590.10 1.346
590.20 1.346
590.30 1.346
590.40 1.347
590.50 1.347
590.60 1.347
590.70 1.347
590.80 1.348
590.90 1.348
591.00 1.348
591.10 1.349
591.20 1.349
591.30 1.349
591.40 1.349
591.50 1.35
591.60 1.35
591.70 1.35
591.80 1.351
591.90 1.351
592.00 1.351
592.10 1.351
592.20 1.352
592.30 1.352
592.40 1.352
592.50 1.353
592.60 1.353
592.70 1.353
592.80 1.353
592.90 1.354
593.00 1.354
593.10 1.354
593.20 1.355
593.30 1.355
593.40 1.355
593.50 1.355
593.60 1.356
593.70 1.356
593.80 1.356
593.90 1.356
594.00 1.357
594.10 1.357
594.20 1.357
594.30 1.358
594.40 1.358
594.50 1.358
594.60 1.358
594.70 1.359
594.80 1.359
594.90 1.359
595.00 1.36
595.10 1.36
595.20 1.36
595.30 1.36
595.40 1.361
595.50 1.361
595.60 1.361
595.70 1.361
595.80 1.362
595.90 1.362
596.00 1.362
596.10 1.363
596.20 1.363
596.30 1.363
596.40 1.363
596.50 1.364
596.60 1.364
596.70 1.364
596.80 1.365
596.90 1.365
597.00 1.365
597.10 1.365
597.20 1.366
597.30 1.366
597.40 1.366
597.50 1.366
597.60 1.367
597.70 1.367
597.80 1.367
597.90 1.368
598.00 1.368
598.10 1.368
598.20 1.368
598.30 1.369
598.40 1.369
598.50 1.369
598.60 1.369
598.70 1.37
598.80 1.37
598.90 1.37
599.00 1.371
599.10 1.371
599.20 1.371
599.30 1.371
599.40 1.372
599.50 1.372
599.60 1.372
599.70 1.372
599.80 1.373
599.90 1.373
600.00 1.373
600.10 1.373
600.20 1.374
600.30 1.374
600.40 1.374
600.50 1.375
600.60 1.375
600.70 1.375
600.80 1.375
600.90 1.376
601.00 1.376
601.10 1.376
601.20 1.376
601.30 1.377
601.40 1.377
601.50 1.377
601.60 1.377
601.70 1.378
601.80 1.378
601.90 1.378
602.00 1.379
602.10 1.379
602.20 1.379
602.30 1.379
602.40 1.38
602.50 1.38
602.60 1.38
602.70 1.38
602.80 1.381
602.90 1.381
603.00 1.381
603.10 1.381
603.20 1.382
603.30 1.382
603.40 1.382
603.50 1.382
603.60 1.383
603.70 1.383
603.80 1.383
603.90 1.383
604.00 1.384
604.10 1.384
604.20 1.384
604.30 1.385
604.40 1.385
604.50 1.385
604.60 1.385
604.70 1.386
604.80 1.386
604.90 1.386
605.00 1.386
605.10 1.387
605.20 1.387
605.30 1.387
605.40 1.387
605.50 1.388
605.60 1.388
605.70 1.388
605.80 1.388
605.90 1.389
606.00 1.389
606.10 1.389
606.20 1.389
606.30 1.39
606.40 1.39
606.50 1.39
606.60 1.39
606.70 1.391
606.80 1.391
606.90 1.391
607.00 1.391
607.10 1.392
607.20 1.392
607.30 1.392
607.40 1.392
607.50 1.393
607.60 1.393
607.70 1.393
607.80 1.393
607.90 1.394
608.00 1.394
608.10 1.394
608.20 1.394
608.30 1.395
608.40 1.395
608.50 1.395
608.60 1.395
608.70 1.396
608.80 1.396
608.90 1.396
609.00 1.396
609.10 1.397
609.20 1.397
609.30 1.397
609.40 1.397
609.50 1.398
609.60 1.398
609.70 1.398
609.80 1.398
609.90 1.399
610.00 1.399
610.10 1.399
610.20 1.399
610.30 1.4
610.40 1.4
610.50 1.4
610.60 1.4
610.70 1.401
610.80 1.401
610.90 1.401
611.00 1.401
611.10 1.402
611.20 1.402
611.30 1.402
611.40 1.402
611.50 1.403
611.60 1.403
611.70 1.403
611.80 1.403
611.90 1.404
612.00 1.404
612.10 1.404
612.20 1.404
612.30 1.405
612.40 1.405
612.50 1.405
612.60 1.405
612.70 1.405
612.80 1.406
612.90 1.406
613.00 1.406
613.10 1.406
613.20 1.407
613.30 1.407
613.40 1.407
613.50 1.407
613.60 1.408
613.70 1.408
613.80 1.408
613.90 1.408
614.00 1.409
614.10 1.409
614.20 1.409
614.30 1.409
614.40 1.41
614.50 1.41
614.60 1.41
614.70 1.41
614.80 1.41
614.90 1.411
615.00 1.411
615.10 1.411
615.20 1.411
615.30 1.412
615.40 1.412
615.50 1.412
615.60 1.412
615.70 1.413
615.80 1.413
615.90 1.413
616.00 1.413
616.10 1.414
616.20 1.414
616.30 1.414
616.40 1.414
616.50 1.414
616.60 1.415
616.70 1.415
616.80 1.415
616.90 1.415
617.00 1.416
617.10 1.416
617.20 1.416
617.30 1.416
617.40 1.417
617.50 1.417
617.60 1.417
617.70 1.417
617.80 1.417
617.90 1.418
618.00 1.418
618.10 1.418
618.20 1.418
618.30 1.419
618.40 1.419
618.50 1.419
618.60 1.419
618.70 1.42
618.80 1.42
618.90 1.42
619.00 1.42
619.10 1.42
619.20 1.421
619.30 1.421
619.40 1.421
619.50 1.421
619.60 1.422
619.70 1.422
619.80 1.422
619.90 1.422
620.00 1.422
620.10 1.423
620.20 1.423
620.30 1.423
620.40 1.423
620.50 1.424
620.60 1.424
620.70 1.424
620.80 1.424
620.90 1.424
621.00 1.425
621.10 1.425
621.20 1.425
621.30 1.425
621.40 1.426
621.50 1.426
621.60 1.426
621.70 1.426
621.80 1.426
621.90 1.427
622.00 1.427
622.10 1.427
622.20 1.427
622.30 1.428
622.40 1.428
622.50 1.428
622.60 1.428
622.70 1.428
622.80 1.429
622.90 1.429
623.00 1.429
623.10 1.429
623.20 1.43
623.30 1.43
623.40 1.43
623.50 1.43
623.60 1.43
623.70 1.431
623.80 1.431
623.90 1.431
624.00 1.431
624.10 1.432
624.20 1.432
624.30 1.432
624.40 1.432
624.50 1.432
624.60 1.433
624.70 1.433
624.80 1.433
624.90 1.433
625.00 1.433
625.10 1.434
625.20 1.434
625.30 1.434
625.40 1.434
625.50 1.435
625.60 1.435
625.70 1.435
625.80 1.435
625.90 1.435
626.00 1.436
626.10 1.436
626.20 1.436
626.30 1.436
626.40 1.436
626.50 1.437
626.60 1.437
626.70 1.437
626.80 1.437
626.90 1.437
627.00 1.438
627.10 1.438
627.20 1.438
627.30 1.438
627.40 1.439
627.50 1.439
627.60 1.439
627.70 1.439
627.80 1.439
627.90 1.44
628.00 1.44
628.10 1.44
628.20 1.44
628.30 1.44
628.40 1.441
628.50 1.441
628.60 1.441
628.70 1.441
628.80 1.441
628.90 1.442
629.00 1.442
629.10 1.442
629.20 1.442
629.30 1.442
629.40 1.443
629.50 1.443
629.60 1.443
629.70 1.443
629.80 1.443
629.90 1.444
630.00 1.444
630.10 1.444
630.20 1.444
630.30 1.444
630.40 1.445
630.50 1.445
630.60 1.445
630.70 1.445
630.80 1.446
630.90 1.446
631.00 1.446
631.10 1.446
631.20 1.446
631.30 1.447
631.40 1.447
631.50 1.447
631.60 1.447
631.70 1.447
631.80 1.448
631.90 1.448
632.00 1.448
632.10 1.448
632.20 1.448
632.30 1.449
632.40 1.449
632.50 1.449
632.60 1.449
632.70 1.449
632.80 1.45
632.90 1.45
633.00 1.45
633.10 1.45
633.20 1.45
633.30 1.45
633.40 1.451
633.50 1.451
633.60 1.451
633.70 1.451
633.80 1.451
633.90 1.452
634.00 1.452
634.10 1.452
634.20 1.452
634.30 1.452
634.40 1.453
634.50 1.453
634.60 1.453
634.70 1.453
634.80 1.453
634.90 1.454
635.00 1.454
635.10 1.454
635.20 1.454
635.30 1.454
635.40 1.455
635.50 1.455
635.60 1.455
635.70 1.455
635.80 1.455
635.90 1.456
636.00 1.456
636.10 1.456
636.20 1.456
636.30 1.456
636.40 1.456
636.50 1.457
636.60 1.457
636.70 1.457
636.80 1.457
636.90 1.457
637.00 1.458
637.10 1.458
637.20 1.458
637.30 1.458
637.40 1.458
637.50 1.459
637.60 1.459
637.70 1.459
637.80 1.459
637.90 1.459
638.00 1.46
638.10 1.46
638.20 1.46
638.30 1.46
638.40 1.46
638.50 1.46
638.60 1.461
638.70 1.461
638.80 1.461
638.90 1.461
639.00 1.461
639.10 1.462
639.20 1.462
639.30 1.462
639.40 1.462
639.50 1.462
639.60 1.462
639.70 1.463
639.80 1.463
639.90 1.463
640.00 1.463
640.10 1.463
640.20 1.464
640.30 1.464
640.40 1.464
640.50 1.464
640.60 1.464
640.70 1.464
640.80 1.465
640.90 1.465
641.00 1.465
641.10 1.465
641.20 1.465
641.30 1.466
641.40 1.466
641.50 1.466
641.60 1.466
641.70 1.466
641.80 1.466
641.90 1.467
642.00 1.467
642.10 1.467
642.20 1.467
642.30 1.467
642.40 1.468
642.50 1.468
642.60 1.468
642.70 1.468
642.80 1.468
642.90 1.468
643.00 1.469
643.10 1.469
643.20 1.469
643.30 1.469
643.40 1.469
643.50 1.469
643.60 1.47
643.70 1.47
643.80 1.47
643.90 1.47
644.00 1.47
644.10 1.47
644.20 1.471
644.30 1.471
644.40 1.471
644.50 1.471
644.60 1.471
644.70 1.472
644.80 1.472
644.90 1.472
645.00 1.472
645.10 1.472
645.20 1.472
645.30 1.473
645.40 1.473
645.50 1.473
645.60 1.473
645.70 1.473
645.80 1.473
645.90 1.474
646.00 1.474
646.10 1.474
646.20 1.474
646.30 1.474
646.40 1.475
646.50 1.475
646.60 1.475
646.70 1.475
646.80 1.475
646.90 1.475
647.00 1.476
647.10 1.476
647.20 1.476
647.30 1.476
647.40 1.476
647.50 1.476
647.60 1.477
647.70 1.477
647.80 1.477
647.90 1.477
648.00 1.477
648.10 1.477
648.20 1.478
648.30 1.478
648.40 1.478
648.50 1.478
648.60 1.478
648.70 1.478
648.80 1.479
648.90 1.479
649.00 1.479
649.10 1.479
649.20 1.479
649.30 1.479
649.40 1.479
649.50 1.48
649.60 1.48
649.70 1.48
649.80 1.48
649.90 1.48
650.00 1.48
650.10 1.481
650.20 1.481
650.30 1.481
650.40 1.481
650.50 1.481
650.60 1.481
650.70 1.482
650.80 1.482
650.90 1.482
651.00 1.482
651.10 1.482
651.20 1.482
651.30 1.483
651.40 1.483
651.50 1.483
651.60 1.483
651.70 1.483
651.80 1.483
651.90 1.483
652.00 1.484
652.10 1.484
652.20 1.484
652.30 1.484
652.40 1.484
652.50 1.484
652.60 1.485
652.70 1.485
652.80 1.485
652.90 1.485
653.00 1.485
653.10 1.485
653.20 1.486
653.30 1.486
653.40 1.486
653.50 1.486
653.60 1.486
653.70 1.486
653.80 1.486
653.90 1.487
654.00 1.487
654.10 1.487
654.20 1.487
654.30 1.487
654.40 1.487
654.50 1.487
654.60 1.488
654.70 1.488
654.80 1.488
654.90 1.488
655.00 1.488
655.10 1.488
655.20 1.488
655.30 1.489
655.40 1.489
655.50 1.489
655.60 1.489
655.70 1.489
655.80 1.489
655.90 1.489
656.00 1.49
656.10 1.489
656.20 1.489
656.30 1.489
656.40 1.49
656.50 1.49
656.60 1.49
656.70 1.491
656.80 1.491
656.90 1.491
657.00 1.491
657.10 1.491
657.20 1.492
657.30 1.492
657.40 1.492
657.50 1.492
657.60 1.492
657.70 1.492
657.80 1.492
657.90 1.493
658.00 1.493
658.10 1.493
658.20 1.493
658.30 1.493
658.40 1.493
658.50 1.493
658.60 1.494
658.70 1.494
658.80 1.494
658.90 1.494
659.00 1.494
659.10 1.494
659.20 1.494
659.30 1.495
659.40 1.495
659.50 1.495
659.60 1.495
659.70 1.495
659.80 1.495
659.90 1.495
660.00 1.496
660.10 1.496
660.20 1.496
660.30 1.496
660.40 1.496
660.50 1.496
660.60 1.496
660.70 1.497
660.80 1.497
660.90 1.497
661.00 1.497
661.10 1.497
661.20 1.497
661.30 1.497
661.40 1.498
661.50 1.498
661.60 1.498
661.70 1.498
661.80 1.498
661.90 1.498
662.00 1.498
662.10 1.498
662.20 1.499
662.30 1.499
662.40 1.499
662.50 1.499
662.60 1.499
662.70 1.499
662.80 1.499
662.90 1.5
663.00 1.5
663.10 1.5
663.20 1.5
663.30 1.5
663.40 1.5
663.50 1.5
663.60 1.5
663.70 1.501
663.80 1.501
663.90 1.501
664.00 1.501
664.10 1.501
664.20 1.501
664.30 1.501
664.40 1.502
664.50 1.502
664.60 1.502
664.70 1.502
664.80 1.502
664.90 1.502
665.00 1.502
665.10 1.502
665.20 1.503
665.30 1.503
665.40 1.503
665.50 1.503
665.60 1.503
665.70 1.503
665.80 1.503
665.90 1.503
666.00 1.504
666.10 1.504
666.20 1.504
666.30 1.504
666.40 1.504
666.50 1.504
666.60 1.504
666.70 1.504
666.80 1.505
666.90 1.505
667.00 1.505
667.10 1.505
667.20 1.505
667.30 1.505
667.40 1.505
667.50 1.506
667.60 1.506
667.70 1.506
667.80 1.506
667.90 1.506
668.00 1.506
668.10 1.506
668.20 1.506
668.30 1.506
668.40 1.507
668.50 1.507
668.60 1.507
668.70 1.507
668.80 1.507
668.90 1.507
669.00 1.507
669.10 1.507
669.20 1.508
669.30 1.508
669.40 1.508
669.50 1.508
669.60 1.508
669.70 1.508
669.80 1.508
669.90 1.508
670.00 1.509
670.10 1.509
670.20 1.509
670.30 1.509
670.40 1.509
670.50 1.509
670.60 1.509
670.70 1.509
670.80 1.51
670.90 1.51
671.00 1.51
671.10 1.51
671.20 1.51
671.30 1.51
671.40 1.51
671.50 1.51
671.60 1.511
671.70 1.511
671.80 1.511
671.90 1.511
672.00 1.511
672.10 1.511
672.20 1.511
672.30 1.511
672.40 1.511
672.50 1.512
672.60 1.512
672.70 1.512
672.80 1.512
672.90 1.512
673.00 1.512
673.10 1.512
673.20 1.512
673.30 1.512
673.40 1.513
673.50 1.513
673.60 1.513
673.70 1.513
673.80 1.513
673.90 1.513
674.00 1.513
674.10 1.513
674.20 1.513
674.30 1.514
674.40 1.514
674.50 1.514
674.60 1.514
674.70 1.514
674.80 1.514
674.90 1.514
675.00 1.514
675.10 1.514
675.20 1.515
675.30 1.515
675.40 1.515
675.50 1.515
675.60 1.515
675.70 1.515
675.80 1.515
675.90 1.515
676.00 1.515
676.10 1.516
676.20 1.516
676.30 1.516
676.40 1.516
676.50 1.516
676.60 1.516
676.70 1.516
676.80 1.516
676.90 1.516
677.00 1.516
677.10 1.517
677.20 1.517
677.30 1.517
677.40 1.517
677.50 1.517
677.60 1.517
677.70 1.517
677.80 1.517
677.90 1.517
678.00 1.517
678.10 1.518
678.20 1.518
678.30 1.518
678.40 1.518
678.50 1.518
678.60 1.518
678.70 1.518
678.80 1.518
678.90 1.518
679.00 1.519
679.10 1.519
679.20 1.519
679.30 1.519
679.40 1.519
679.50 1.519
679.60 1.519
679.70 1.519
679.80 1.519
679.90 1.519
680.00 1.519
680.10 1.52
680.20 1.52
680.30 1.52
680.40 1.52
680.50 1.52
680.60 1.52
680.70 1.52
680.80 1.52
680.90 1.52
681.00 1.52
681.10 1.521
681.20 1.521
681.30 1.521
681.40 1.521
681.50 1.521
681.60 1.521
681.70 1.521
681.80 1.521
681.90 1.521
682.00 1.521
682.10 1.521
682.20 1.522
682.30 1.522
682.40 1.522
682.50 1.522
682.60 1.522
682.70 1.522
682.80 1.522
682.90 1.522
683.00 1.522
683.10 1.522
683.20 1.523
683.30 1.523
683.40 1.523
683.50 1.523
683.60 1.523
683.70 1.523
683.80 1.523
683.90 1.523
684.00 1.523
684.10 1.523
684.20 1.523
684.30 1.524
684.40 1.524
684.50 1.524
684.60 1.524
684.70 1.524
684.80 1.524
684.90 1.524
685.00 1.524
685.10 1.524
685.20 1.524
685.30 1.524
685.40 1.524
685.50 1.525
685.60 1.525
685.70 1.525
685.80 1.525
685.90 1.525
686.00 1.525
686.10 1.525
686.20 1.525
686.30 1.525
686.40 1.525
686.50 1.525
686.60 1.525
686.70 1.526
686.80 1.526
686.90 1.526
687.00 1.526
687.10 1.526
687.20 1.526
687.30 1.526
687.40 1.526
687.50 1.526
687.60 1.526
687.70 1.526
687.80 1.526
687.90 1.527
688.00 1.527
688.10 1.527
688.20 1.527
688.30 1.527
688.40 1.527
688.50 1.527
688.60 1.527
688.70 1.527
688.80 1.527
688.90 1.527
689.00 1.527
689.10 1.528
689.20 1.528
689.30 1.528
689.40 1.528
689.50 1.528
689.60 1.528
689.70 1.528
689.80 1.528
689.90 1.528
690.00 1.528
690.10 1.528
690.20 1.528
690.30 1.528
690.40 1.528
690.50 1.529
690.60 1.529
690.70 1.529
690.80 1.529
690.90 1.529
691.00 1.529
691.10 1.529
691.20 1.529
691.30 1.529
691.40 1.529
691.50 1.529
691.60 1.529
691.70 1.529
691.80 1.529
691.90 1.53
692.00 1.53
692.10 1.53
692.20 1.53
692.30 1.53
692.40 1.53
692.50 1.53
692.60 1.53
692.70 1.53
692.80 1.53
692.90 1.53
693.00 1.53
693.10 1.53
693.20 1.53
693.30 1.531
693.40 1.531
693.50 1.531
693.60 1.531
693.70 1.531
693.80 1.531
693.90 1.531
694.00 1.531
694.10 1.531
694.20 1.531
694.30 1.531
694.40 1.531
694.50 1.531
694.60 1.531
694.70 1.532
694.80 1.532
694.90 1.532
695.00 1.532
695.10 1.532
695.20 1.532
695.30 1.532
695.40 1.532
695.50 1.532
695.60 1.532
695.70 1.532
695.80 1.532
695.90 1.532
696.00 1.532
696.10 1.532
696.20 1.532
696.30 1.532
696.40 1.533
696.50 1.533
696.60 1.533
696.70 1.533
696.80 1.533
696.90 1.533
697.00 1.533
697.10 1.533
697.20 1.533
697.30 1.533
697.40 1.533
697.50 1.533
697.60 1.533
697.70 1.533
697.80 1.533
697.90 1.533
698.00 1.533
698.10 1.534
698.20 1.534
698.30 1.534
698.40 1.534
698.50 1.534
698.60 1.534
698.70 1.534
698.80 1.534
698.90 1.534
699.00 1.534
699.10 1.534
699.20 1.534
699.30 1.534
699.40 1.534
699.50 1.534
699.60 1.534
699.70 1.534
699.80 1.534
699.90 1.535
700.00 1.535
700.10 1.535
700.20 1.535
700.30 1.535
700.40 1.535
700.50 1.535
700.60 1.535
700.70 1.535
700.80 1.535
700.90 1.535
701.00 1.535
701.10 1.535
701.20 1.535
701.30 1.535
701.40 1.535
701.50 1.535
701.60 1.535
701.70 1.535
701.80 1.535
701.90 1.536
702.00 1.536
702.10 1.536
702.20 1.536
702.30 1.536
702.40 1.536
702.50 1.536
702.60 1.536
702.70 1.536
702.80 1.536
702.90 1.536
703.00 1.536
703.10 1.536
703.20 1.536
703.30 1.536
703.40 1.536
703.50 1.536
703.60 1.536
703.70 1.536
703.80 1.536
703.90 1.536
704.00 1.536
704.10 1.537
704.20 1.537
704.30 1.537
704.40 1.537
704.50 1.537
704.60 1.537
704.70 1.537
704.80 1.537
704.90 1.537
705.00 1.537
705.10 1.537
705.20 1.537
705.30 1.537
705.40 1.537
705.50 1.537
705.60 1.537
705.70 1.537
705.80 1.537
705.90 1.537
706.00 1.537
706.10 1.537
706.20 1.537
706.30 1.537
706.40 1.537
706.50 1.537
706.60 1.538
706.70 1.538
706.80 1.538
706.90 1.538
707.00 1.538
707.10 1.538
707.20 1.538
707.30 1.538
707.40 1.538
707.50 1.538
707.60 1.538
707.70 1.538
707.80 1.538
707.90 1.538
708.00 1.538
708.10 1.538
708.20 1.538
708.30 1.538
708.40 1.538
708.50 1.538
708.60 1.538
708.70 1.538
708.80 1.538
708.90 1.538
709.00 1.538
709.10 1.538
709.20 1.538
709.30 1.538
709.40 1.538
709.50 1.538
709.60 1.539
709.70 1.539
709.80 1.539
709.90 1.539
710.00 1.539
710.10 1.539
710.20 1.539
710.30 1.539
710.40 1.539
710.50 1.539
710.60 1.539
710.70 1.539
710.80 1.539
710.90 1.539
711.00 1.539
711.10 1.539
711.20 1.539
711.30 1.539
711.40 1.539
711.50 1.539
711.60 1.539
711.70 1.539
711.80 1.539
711.90 1.539
712.00 1.539
712.10 1.539
712.20 1.539
712.30 1.539
712.40 1.539
712.50 1.539
712.60 1.539
712.70 1.539
712.80 1.539
712.90 1.539
713.00 1.539
713.10 1.539
713.20 1.539
713.30 1.539
713.40 1.539
713.50 1.539
713.60 1.54
713.70 1.54
713.80 1.54
713.90 1.54
714.00 1.54
714.10 1.54
714.20 1.54
714.30 1.54
714.40 1.54
714.50 1.54
714.60 1.54
714.70 1.54
714.80 1.54
714.90 1.54
715.00 1.54
715.10 1.54
715.20 1.54
715.30 1.54
715.40 1.54
715.50 1.54
715.60 1.54
715.70 1.54
715.80 1.54
715.90 1.54
716.00 1.54
716.10 1.54
716.20 1.54
716.30 1.54
716.40 1.54
716.50 1.54
716.60 1.54
716.70 1.54
716.80 1.54
716.90 1.54
717.00 1.54
717.10 1.54
717.20 1.54
717.30 1.54
717.40 1.54
717.50 1.54
717.60 1.54
717.70 1.54
717.80 1.54
717.90 1.54
718.00 1.54
718.10 1.54
718.20 1.54
718.30 1.54
718.40 1.54
718.50 1.54
718.60 1.54
718.70 1.54
718.80 1.54
718.90 1.54
719.00 1.54
719.10 1.54
719.20 1.54
719.30 1.54
719.40 1.54
719.50 1.54
719.60 1.54
719.70 1.54
719.80 1.54
719.90 1.54
720.00 1.54
720.10 1.54
720.20 1.54
720.30 1.54
720.40 1.54
720.50 1.54
720.60 1.54
720.70 1.54
720.80 1.54
720.90 1.54
721.00 1.54
721.10 1.54
721.20 1.54
721.30 1.54
721.40 1.54
721.50 1.54
721.60 1.541
721.70 1.541
721.80 1.541
721.90 1.541
722.00 1.541
722.10 1.541
722.20 1.541
722.30 1.541
722.40 1.541
722.50 1.541
722.60 1.541
722.70 1.541
722.80 1.541
722.90 1.541
723.00 1.541
723.10 1.541
723.20 1.541
723.30 1.541
723.40 1.541
723.50 1.541
723.60 1.541
723.70 1.541
723.80 1.541
723.90 1.541
724.00 1.541
724.10 1.541
724.20 1.541
724.30 1.541
724.40 1.541
724.50 1.541
724.60 1.541
724.70 1.541
724.80 1.541
724.90 1.541
725.00 1.541
725.10 1.541
725.20 1.541
725.30 1.541
725.40 1.541
725.50 1.541
725.60 1.541
725.70 1.541
725.80 1.541
725.90 1.541
726.00 1.541
726.10 1.541
726.20 1.541
726.30 1.541
726.40 1.541
726.50 1.541
726.60 1.541
726.70 1.541
726.80 1.541
726.90 1.541
727.00 1.541
727.10 1.541
727.20 1.541
727.30 1.541
727.40 1.541
727.50 1.541
727.60 1.541
727.70 1.541
727.80 1.541
727.90 1.541
728.00 1.541
728.10 1.541
728.20 1.54
728.30 1.54
728.40 1.54
728.50 1.54
728.60 1.54
728.70 1.54
728.80 1.54
728.90 1.54
729.00 1.54
729.10 1.54
729.20 1.54
729.30 1.54
729.40 1.54
729.50 1.54
729.60 1.54
729.70 1.54
729.80 1.54
729.90 1.54
730.00 1.54
730.10 1.54
730.20 1.54
730.30 1.54
730.40 1.54
730.50 1.54
730.60 1.54
730.70 1.54
730.80 1.54
730.90 1.54
731.00 1.54
731.10 1.54
731.20 1.54
731.30 1.54
731.40 1.54
731.50 1.54
731.60 1.54
731.70 1.54
731.80 1.54
731.90 1.54
732.00 1.54
732.10 1.54
732.20 1.54
732.30 1.54
732.40 1.54
732.50 1.54
732.60 1.54
732.70 1.54
732.80 1.54
732.90 1.54
733.00 1.54
733.10 1.54
733.20 1.54
733.30 1.54
733.40 1.54
733.50 1.54
733.60 1.54
733.70 1.54
733.80 1.54
733.90 1.54
734.00 1.54
734.10 1.54
734.20 1.54
734.30 1.54
734.40 1.54
734.50 1.54
734.60 1.54
734.70 1.54
734.80 1.54
734.90 1.54
735.00 1.54
735.10 1.54
735.20 1.54
735.30 1.54
735.40 1.54
735.50 1.54
735.60 1.54
735.70 1.54
735.80 1.54
735.90 1.54
736.00 1.54
736.10 1.54
736.20 1.54
736.30 1.54
736.40 1.54
736.50 1.54
736.60 1.54
736.70 1.54
736.80 1.54
736.90 1.54
737.00 1.539
737.10 1.539
737.20 1.539
737.30 1.539
737.40 1.539
737.50 1.539
737.60 1.539
737.70 1.539
737.80 1.539
737.90 1.539
738.00 1.539
738.10 1.539
738.20 1.539
738.30 1.539
738.40 1.539
738.50 1.539
738.60 1.539
738.70 1.539
738.80 1.539
738.90 1.539
739.00 1.539
739.10 1.539
739.20 1.539
739.30 1.539
739.40 1.539
739.50 1.539
739.60 1.539
739.70 1.539
739.80 1.539
739.90 1.539
740.00 1.539
740.10 1.539
740.20 1.539
740.30 1.539
740.40 1.539
740.50 1.539
740.60 1.539
740.70 1.539
740.80 1.539
740.90 1.539
741.00 1.539
741.10 1.539
741.20 1.539
741.30 1.539
741.40 1.539
741.50 1.539
741.60 1.539
741.70 1.539
741.80 1.539
741.90 1.539
742.00 1.539
742.10 1.539
742.20 1.539
742.30 1.539
742.40 1.539
742.50 1.539
742.60 1.539
742.70 1.538
742.80 1.538
742.90 1.538
743.00 1.538
743.10 1.538
743.20 1.538
743.30 1.538
743.40 1.538
743.50 1.538
743.60 1.538
743.70 1.538
743.80 1.538
743.90 1.538
744.00 1.538
744.10 1.538
744.20 1.538
744.30 1.538
744.40 1.538
744.50 1.538
744.60 1.538
744.70 1.538
744.80 1.538
744.90 1.538
745.00 1.538
745.10 1.538
745.20 1.538
745.30 1.538
745.40 1.538
745.50 1.538
745.60 1.538
745.70 1.538
745.80 1.538
745.90 1.538
746.00 1.538
746.10 1.538
746.20 1.538
746.30 1.538
746.40 1.538
746.50 1.538
746.60 1.538
746.70 1.538
746.80 1.538
746.90 1.538
747.00 1.538
747.10 1.538
747.20 1.538
747.30 1.538
747.40 1.537
747.50 1.537
747.60 1.537
747.70 1.537
747.80 1.537
747.90 1.537
748.00 1.537
748.10 1.537
748.20 1.537
748.30 1.537
748.40 1.537
748.50 1.537
748.60 1.537
748.70 1.537
748.80 1.537
748.90 1.537
749.00 1.537
749.10 1.537
749.20 1.537
749.30 1.537
749.40 1.537
749.50 1.537
749.60 1.537
749.70 1.537
749.80 1.537
749.90 1.537
750.00 1.537
750.10 1.537
750.20 1.537
750.30 1.537
750.40 1.537
750.50 1.537
750.60 1.537
750.70 1.537
750.80 1.537
750.90 1.537
751.00 1.537
751.10 1.537
751.20 1.537
751.30 1.537
751.40 1.537
751.50 1.536
751.60 1.536
751.70 1.536
751.80 1.536
751.90 1.536
752.00 1.536
752.10 1.536
752.20 1.536
752.30 1.536
752.40 1.536
752.50 1.536
752.60 1.536
752.70 1.536
752.80 1.536
752.90 1.536
753.00 1.536
753.10 1.536
753.20 1.536
753.30 1.536
753.40 1.536
753.50 1.536
753.60 1.536
753.70 1.536
753.80 1.536
753.90 1.536
754.00 1.536
754.10 1.536
754.20 1.536
754.30 1.536
754.40 1.536
754.50 1.536
754.60 1.536
754.70 1.536
754.80 1.536
754.90 1.536
755.00 1.536
755.10 1.535
755.20 1.535
755.30 1.535
755.40 1.535
755.50 1.535
755.60 1.535
755.70 1.535
755.80 1.535
755.90 1.535
756.00 1.535
756.10 1.535
756.20 1.535
756.30 1.535
756.40 1.535
756.50 1.535
756.60 1.535
756.70 1.535
756.80 1.535
756.90 1.535
757.00 1.535
757.10 1.535
757.20 1.535
757.30 1.535
757.40 1.535
757.50 1.535
757.60 1.535
757.70 1.535
757.80 1.535
757.90 1.535
758.00 1.535
758.10 1.535
758.20 1.535
758.30 1.535
758.40 1.535
758.50 1.535
758.60 1.534
758.70 1.534
758.80 1.534
758.90 1.534
759.00 1.534
759.10 1.534
759.20 1.534
759.30 1.534
759.40 1.534
759.50 1.534
759.60 1.534
759.70 1.534
759.80 1.534
759.90 1.534
760.00 1.534
760.10 1.534
760.20 1.534
760.30 1.534
760.40 1.534
760.50 1.534
760.60 1.534
760.70 1.534
760.80 1.534
760.90 1.534
761.00 1.534
761.10 1.534
761.20 1.534
761.30 1.534
761.40 1.534
761.50 1.534
761.60 1.533
761.70 1.533
761.80 1.533
761.90 1.533
762.00 1.533
762.10 1.533
762.20 1.533
762.30 1.533
762.40 1.533
762.50 1.533
762.60 1.533
762.70 1.533
762.80 1.533
762.90 1.533
763.00 1.533
763.10 1.533
763.20 1.533
763.30 1.533
763.40 1.533
763.50 1.533
763.60 1.533
763.70 1.533
763.80 1.533
763.90 1.533
764.00 1.533
764.10 1.533
764.20 1.533
764.30 1.532
764.40 1.532
764.50 1.532
764.60 1.532
764.70 1.532
764.80 1.532
764.90 1.532
765.00 1.532
765.10 1.532
765.20 1.532
765.30 1.532
765.40 1.532
765.50 1.532
765.60 1.532
765.70 1.532
765.80 1.532
765.90 1.532
766.00 1.532
766.10 1.532
766.20 1.532
766.30 1.532
766.40 1.532
766.50 1.532
766.60 1.532
766.70 1.532
766.80 1.532
766.90 1.532
767.00 1.531
767.10 1.531
767.20 1.531
767.30 1.531
767.40 1.531
767.50 1.531
767.60 1.531
767.70 1.531
767.80 1.531
767.90 1.531
768.00 1.531
768.10 1.531
768.20 1.531
768.30 1.531
768.40 1.531
768.50 1.531
768.60 1.531
768.70 1.531
768.80 1.531
768.90 1.531
769.00 1.531
769.10 1.531
769.20 1.531
769.30 1.531
769.40 1.531
769.50 1.531
769.60 1.53
769.70 1.53
769.80 1.53
769.90 1.53
770.00 1.53
770.10 1.53
770.20 1.53
770.30 1.53
770.40 1.53
770.50 1.53
770.60 1.53
770.70 1.53
770.80 1.53
770.90 1.53
771.00 1.53
771.10 1.53
771.20 1.53
771.30 1.53
771.40 1.53
771.50 1.53
771.60 1.53
771.70 1.53
771.80 1.53
771.90 1.53
772.00 1.53
772.10 1.529
772.20 1.529
772.30 1.529
772.40 1.529
772.50 1.529
772.60 1.529
772.70 1.529
772.80 1.529
772.90 1.529
773.00 1.529
773.10 1.529
773.20 1.529
773.30 1.529
773.40 1.529
773.50 1.529
773.60 1.529
773.70 1.529
773.80 1.529
773.90 1.529
774.00 1.529
774.10 1.529
774.20 1.529
774.30 1.529
774.40 1.529
774.50 1.528
774.60 1.528
774.70 1.528
774.80 1.528
774.90 1.528
775.00 1.528
775.10 1.528
775.20 1.528
775.30 1.528
775.40 1.528
775.50 1.528
775.60 1.528
775.70 1.528
775.80 1.528
775.90 1.528
776.00 1.528
776.10 1.528
776.20 1.528
776.30 1.528
776.40 1.528
776.50 1.528
776.60 1.528
776.70 1.528
776.80 1.527
776.90 1.527
777.00 1.527
777.10 1.527
777.20 1.527
777.30 1.527
777.40 1.527
777.50 1.527
777.60 1.527
777.70 1.527
777.80 1.527
777.90 1.527
778.00 1.527
778.10 1.527
778.20 1.527
778.30 1.527
778.40 1.527
778.50 1.527
778.60 1.527
778.70 1.527
778.80 1.527
778.90 1.527
779.00 1.527
779.10 1.527
779.20 1.526
779.30 1.526
779.40 1.526
779.50 1.526
779.60 1.526
779.70 1.526
779.80 1.526
779.90 1.526
780.00 1.526
780.10 1.526
780.20 1.526
780.30 1.526
780.40 1.526
780.50 1.526
780.60 1.526
780.70 1.526
780.80 1.526
780.90 1.526
781.00 1.526
781.10 1.526
781.20 1.526
781.30 1.526
781.40 1.525
781.50 1.525
781.60 1.525
781.70 1.525
781.80 1.525
781.90 1.525
782.00 1.525
782.10 1.525
782.20 1.525
782.30 1.525
782.40 1.525
782.50 1.525
782.60 1.525
782.70 1.525
782.80 1.525
782.90 1.525
783.00 1.525
783.10 1.525
783.20 1.525
783.30 1.525
783.40 1.525
783.50 1.525
783.60 1.524
783.70 1.524
783.80 1.524
783.90 1.524
784.00 1.524
784.10 1.524
784.20 1.524
784.30 1.524
784.40 1.524
784.50 1.524
784.60 1.524
784.70 1.524
784.80 1.524
784.90 1.524
785.00 1.524
785.10 1.524
785.20 1.524
785.30 1.524
785.40 1.524
785.50 1.524
785.60 1.524
785.70 1.524
785.80 1.523
785.90 1.523
786.00 1.523
786.10 1.523
786.20 1.523
786.30 1.523
786.40 1.523
786.50 1.523
786.60 1.523
786.70 1.523
786.80 1.523
786.90 1.523
787.00 1.523
787.10 1.523
787.20 1.523
787.30 1.523
787.40 1.523
787.50 1.523
787.60 1.523
787.70 1.523
787.80 1.523
787.90 1.523
788.00 1.522
788.10 1.522
788.20 1.522
788.30 1.522
788.40 1.522
788.50 1.522
788.60 1.522
788.70 1.522
788.80 1.522
788.90 1.522
789.00 1.522
789.10 1.522
789.20 1.522
789.30 1.522
789.40 1.522
789.50 1.522
789.60 1.522
789.70 1.522
789.80 1.522
789.90 1.522
790.00 1.522
790.10 1.521
790.20 1.521
790.30 1.521
790.40 1.521
790.50 1.521
790.60 1.521
790.70 1.521
790.80 1.521
790.90 1.521
791.00 1.521
791.10 1.521
791.20 1.521
791.30 1.521
791.40 1.521
791.50 1.521
791.60 1.521
791.70 1.521
791.80 1.521
791.90 1.52
792.00 1.52
792.10 1.52
792.20 1.52
792.30 1.52
792.40 1.52
792.50 1.52
792.60 1.52
792.70 1.52
792.80 1.52
792.90 1.52
793.00 1.52
793.10 1.52
793.20 1.52
793.30 1.52
793.40 1.52
793.50 1.52
793.60 1.52
793.70 1.52
793.80 1.519
793.90 1.519
794.00 1.519
794.10 1.519
794.20 1.519
794.30 1.519
794.40 1.519
794.50 1.519
794.60 1.519
794.70 1.519
794.80 1.519
794.90 1.519
795.00 1.519
795.10 1.519
795.20 1.519
795.30 1.519
795.40 1.519
795.50 1.519
795.60 1.518
795.70 1.518
795.80 1.518
795.90 1.518
796.00 1.518
796.10 1.518
796.20 1.518
796.30 1.518
796.40 1.518
796.50 1.518
796.60 1.518
796.70 1.518
796.80 1.518
796.90 1.518
797.00 1.518
797.10 1.518
797.20 1.518
797.30 1.518
797.40 1.517
797.50 1.517
797.60 1.517
797.70 1.517
797.80 1.517
797.90 1.517
798.00 1.517
798.10 1.517
798.20 1.517
798.30 1.517
798.40 1.517
798.50 1.517
798.60 1.517
798.70 1.517
798.80 1.517
798.90 1.517
799.00 1.517
799.10 1.517
799.20 1.516
799.30 1.516
799.40 1.516
799.50 1.516
799.60 1.516
799.70 1.516
799.80 1.516
799.90 1.516
800.00 1.516
800.10 1.516
800.20 1.516
800.30 1.516
800.40 1.516
800.50 1.516
800.60 1.516
800.70 1.516
800.80 1.515
800.90 1.515
801.00 1.515
801.10 1.515
801.20 1.515
801.30 1.515
801.40 1.515
801.50 1.515
801.60 1.515
801.70 1.515
801.80 1.515
801.90 1.515
802.00 1.515
802.10 1.515
802.20 1.515
802.30 1.514
802.40 1.514
802.50 1.514
802.60 1.514
802.70 1.514
802.80 1.514
802.90 1.514
803.00 1.514
803.10 1.514
803.20 1.514
803.30 1.514
803.40 1.514
803.50 1.514
803.60 1.514
803.70 1.513
803.80 1.513
803.90 1.513
804.00 1.513
804.10 1.513
804.20 1.513
804.30 1.513
804.40 1.513
804.50 1.513
804.60 1.513
804.70 1.513
804.80 1.513
804.90 1.513
805.00 1.513
805.10 1.512
805.20 1.512
805.30 1.512
805.40 1.512
805.50 1.512
805.60 1.512
805.70 1.512
805.80 1.512
805.90 1.512
806.00 1.512
806.10 1.512
806.20 1.512
806.30 1.512
806.40 1.512
806.50 1.512
806.60 1.511
806.70 1.511
806.80 1.511
806.90 1.511
807.00 1.511
807.10 1.511
807.20 1.511
807.30 1.511
807.40 1.511
807.50 1.511
807.60 1.511
807.70 1.511
807.80 1.511
807.90 1.511
808.00 1.51
808.10 1.51
808.20 1.51
808.30 1.51
808.40 1.51
808.50 1.51
808.60 1.51
808.70 1.51
808.80 1.51
808.90 1.51
809.00 1.51
809.10 1.51
809.20 1.51
809.30 1.51
809.40 1.509
809.50 1.509
809.60 1.509
809.70 1.509
809.80 1.509
809.90 1.509
810.00 1.509
810.10 1.509
810.20 1.509
810.30 1.509
810.40 1.509
810.50 1.509
810.60 1.509
810.70 1.508
810.80 1.508
810.90 1.508
811.00 1.508
811.10 1.508
811.20 1.508
811.30 1.508
811.40 1.508
811.50 1.508
811.60 1.508
811.70 1.508
811.80 1.508
811.90 1.507
812.00 1.507
812.10 1.507
812.20 1.507
812.30 1.507
812.40 1.507
812.50 1.507
812.60 1.507
812.70 1.507
812.80 1.507
812.90 1.507
813.00 1.507
813.10 1.506
813.20 1.506
813.30 1.506
813.40 1.506
813.50 1.506
813.60 1.506
813.70 1.506
813.80 1.506
813.90 1.506
814.00 1.506
814.10 1.506
814.20 1.505
814.30 1.505
814.40 1.505
814.50 1.505
814.60 1.505
814.70 1.505
814.80 1.505
814.90 1.505
815.00 1.505
815.10 1.505
815.20 1.505
815.30 1.505
815.40 1.504
815.50 1.504
815.60 1.504
815.70 1.504
815.80 1.504
815.90 1.504
816.00 1.504
816.10 1.504
816.20 1.504
816.30 1.504
816.40 1.504
816.50 1.504
816.60 1.503
816.70 1.503
816.80 1.503
816.90 1.503
817.00 1.503
817.10 1.503
817.20 1.503
817.30 1.503
817.40 1.503
817.50 1.503
817.60 1.503
817.70 1.502
817.80 1.502
817.90 1.502
818.00 1.502
818.10 1.502
818.20 1.502
818.30 1.502
818.40 1.502
818.50 1.502
818.60 1.502
818.70 1.502
818.80 1.502
818.90 1.501
819.00 1.501
819.10 1.501
819.20 1.501
819.30 1.501
819.40 1.501
819.50 1.501
819.60 1.501
819.70 1.501
819.80 1.501
819.90 1.501
820.00 1.501
820.10 1.5
820.20 1.5
820.30 1.5
820.40 1.5
820.50 1.5
820.60 1.5
820.70 1.5
820.80 1.5
820.90 1.5
821.00 1.5
821.10 1.5
821.20 1.499
821.30 1.499
821.40 1.499
821.50 1.499
821.60 1.499
821.70 1.499
821.80 1.499
821.90 1.499
822.00 1.499
822.10 1.499
822.20 1.498
822.30 1.498
822.40 1.498
822.50 1.498
822.60 1.498
822.70 1.498
822.80 1.498
822.90 1.498
823.00 1.498
823.10 1.498
823.20 1.497
823.30 1.497
823.40 1.497
823.50 1.497
823.60 1.497
823.70 1.497
823.80 1.497
823.90 1.497
824.00 1.497
824.10 1.497
824.20 1.496
824.30 1.496
824.40 1.496
824.50 1.496
824.60 1.496
824.70 1.496
824.80 1.496
824.90 1.496
825.00 1.496
825.10 1.496
825.20 1.496
825.30 1.495
825.40 1.495
825.50 1.495
825.60 1.495
825.70 1.495
825.80 1.495
825.90 1.495
826.00 1.495
826.10 1.495
826.20 1.495
826.30 1.494
826.40 1.494
826.50 1.494
826.60 1.494
826.70 1.494
826.80 1.494
826.90 1.494
827.00 1.494
827.10 1.494
827.20 1.494
827.30 1.493
827.40 1.493
827.50 1.493
827.60 1.493
827.70 1.493
827.80 1.493
827.90 1.493
828.00 1.493
828.10 1.493
828.20 1.492
828.30 1.492
828.40 1.492
828.50 1.492
828.60 1.492
828.70 1.492
828.80 1.492
828.90 1.492
829.00 1.492
829.10 1.492
829.20 1.491
829.30 1.491
829.40 1.491
829.50 1.491
829.60 1.491
829.70 1.491
829.80 1.491
829.90 1.491
830.00 1.491
830.10 1.49
830.20 1.49
830.30 1.49
830.40 1.49
830.50 1.49
830.60 1.49
830.70 1.49
830.80 1.49
830.90 1.49
831.00 1.489
831.10 1.489
831.20 1.489
831.30 1.489
831.40 1.489
831.50 1.489
831.60 1.489
831.70 1.489
831.80 1.489
831.90 1.489
832.00 1.488
832.10 1.488
832.20 1.488
832.30 1.488
832.40 1.488
832.50 1.488
832.60 1.488
832.70 1.488
832.80 1.488
832.90 1.487
833.00 1.487
833.10 1.487
833.20 1.487
833.30 1.487
833.40 1.487
833.50 1.487
833.60 1.487
833.70 1.487
833.80 1.486
833.90 1.486
834.00 1.486
834.10 1.486
834.20 1.486
834.30 1.486
834.40 1.486
834.50 1.486
834.60 1.486
834.70 1.485
834.80 1.485
834.90 1.485
835.00 1.485
835.10 1.485
835.20 1.485
835.30 1.485
835.40 1.485
835.50 1.485
835.60 1.484
835.70 1.484
835.80 1.484
835.90 1.484
836.00 1.484
836.10 1.484
836.20 1.484
836.30 1.484
836.40 1.484
836.50 1.483
836.60 1.483
836.70 1.483
836.80 1.483
836.90 1.483
837.00 1.483
837.10 1.483
837.20 1.483
837.30 1.483
837.40 1.482
837.50 1.482
837.60 1.482
837.70 1.482
837.80 1.482
837.90 1.482
838.00 1.482
838.10 1.482
838.20 1.481
838.30 1.481
838.40 1.481
838.50 1.481
838.60 1.481
838.70 1.481
838.80 1.481
838.90 1.481
839.00 1.481
839.10 1.48
839.20 1.48
839.30 1.48
839.40 1.48
839.50 1.48
839.60 1.48
839.70 1.48
839.80 1.48
839.90 1.479
840.00 1.479
840.10 1.479
840.20 1.479
840.30 1.479
840.40 1.479
840.50 1.479
840.60 1.479
840.70 1.479
840.80 1.478
840.90 1.478
841.00 1.478
841.10 1.478
841.20 1.478
841.30 1.478
841.40 1.478
841.50 1.478
841.60 1.477
841.70 1.477
841.80 1.477
841.90 1.477
842.00 1.477
842.10 1.477
842.20 1.477
842.30 1.477
842.40 1.477
842.50 1.476
842.60 1.476
842.70 1.476
842.80 1.476
842.90 1.476
843.00 1.476
843.10 1.476
843.20 1.476
843.30 1.475
843.40 1.475
843.50 1.475
843.60 1.475
843.70 1.475
843.80 1.475
843.90 1.475
844.00 1.475
844.10 1.474
844.20 1.474
844.30 1.474
844.40 1.474
844.50 1.474
844.60 1.474
844.70 1.474
844.80 1.474
844.90 1.473
845.00 1.473
845.10 1.473
845.20 1.473
845.30 1.473
845.40 1.473
845.50 1.473
845.60 1.473
845.70 1.472
845.80 1.472
845.90 1.472
846.00 1.472
846.10 1.472
846.20 1.472
846.30 1.472
846.40 1.472
846.50 1.471
846.60 1.471
846.70 1.471
846.80 1.471
846.90 1.471
847.00 1.471
847.10 1.471
847.20 1.471
847.30 1.47
847.40 1.47
847.50 1.47
847.60 1.47
847.70 1.47
847.80 1.47
847.90 1.47
848.00 1.47
848.10 1.469
848.20 1.469
848.30 1.469
848.40 1.469
848.50 1.469
848.60 1.469
848.70 1.469
848.80 1.469
848.90 1.468
849.00 1.468
849.10 1.468
849.20 1.468
849.30 1.468
849.40 1.468
849.50 1.468
849.60 1.468
849.70 1.467
849.80 1.467
849.90 1.467
850.00 1.467
850.10 1.467
850.20 1.467
850.30 1.467
850.40 1.466
850.50 1.466
850.60 1.466
850.70 1.466
850.80 1.466
850.90 1.466
851.00 1.466
851.10 1.466
851.20 1.465
851.30 1.465
851.40 1.465
851.50 1.465
851.60 1.465
851.70 1.465
851.80 1.465
851.90 1.465
852.00 1.464
852.10 1.464
852.20 1.464
852.30 1.464
852.40 1.464
852.50 1.464
852.60 1.464
852.70 1.463
852.80 1.463
852.90 1.463
853.00 1.463
853.10 1.463
853.20 1.463
853.30 1.463
853.40 1.463
853.50 1.462
853.60 1.462
853.70 1.462
853.80 1.462
853.90 1.462
854.00 1.462
854.10 1.462
854.20 1.461
854.30 1.461
854.40 1.461
854.50 1.461
854.60 1.461
854.70 1.461
854.80 1.461
854.90 1.461
855.00 1.46
855.10 1.46
855.20 1.46
855.30 1.46
855.40 1.46
855.50 1.46
855.60 1.46
855.70 1.459
855.80 1.459
855.90 1.459
856.00 1.459
856.10 1.459
856.20 1.459
856.30 1.459
856.40 1.459
856.50 1.458
856.60 1.458
856.70 1.458
856.80 1.458
856.90 1.458
857.00 1.458
857.10 1.458
857.20 1.457
857.30 1.457
857.40 1.457
857.50 1.457
857.60 1.457
857.70 1.457
857.80 1.457
857.90 1.456
858.00 1.456
858.10 1.456
858.20 1.456
858.30 1.456
858.40 1.456
858.50 1.456
858.60 1.455
858.70 1.455
858.80 1.455
858.90 1.455
859.00 1.455
859.10 1.455
859.20 1.455
859.30 1.454
859.40 1.454
859.50 1.454
859.60 1.454
859.70 1.454
859.80 1.454
859.90 1.454
860.00 1.454
860.10 1.453
860.20 1.453
860.30 1.453
860.40 1.453
860.50 1.453
860.60 1.453
860.70 1.453
860.80 1.452
860.90 1.452
861.00 1.452
861.10 1.452
861.20 1.452
861.30 1.452
861.40 1.452
861.50 1.451
861.60 1.451
861.70 1.451
861.80 1.451
861.90 1.451
862.00 1.451
862.10 1.451
862.20 1.45
862.30 1.45
862.40 1.45
862.50 1.45
862.60 1.45
862.70 1.45
862.80 1.45
862.90 1.449
863.00 1.449
863.10 1.449
863.20 1.449
863.30 1.449
863.40 1.449
863.50 1.449
863.60 1.448
863.70 1.448
863.80 1.448
863.90 1.448
864.00 1.448
864.10 1.448
864.20 1.447
864.30 1.447
864.40 1.447
864.50 1.447
864.60 1.447
864.70 1.447
864.80 1.447
864.90 1.446
865.00 1.446
865.10 1.446
865.20 1.446
865.30 1.446
865.40 1.446
865.50 1.446
865.60 1.445
865.70 1.445
865.80 1.445
865.90 1.445
866.00 1.445
866.10 1.445
866.20 1.445
866.30 1.444
866.40 1.444
866.50 1.444
866.60 1.444
866.70 1.444
866.80 1.444
866.90 1.443
867.00 1.443
867.10 1.443
867.20 1.443
867.30 1.443
867.40 1.443
867.50 1.443
867.60 1.442
867.70 1.442
867.80 1.442
867.90 1.442
868.00 1.442
868.10 1.442
868.20 1.441
868.30 1.441
868.40 1.441
868.50 1.441
868.60 1.441
868.70 1.441
868.80 1.441
868.90 1.44
869.00 1.44
869.10 1.44
869.20 1.44
869.30 1.44
869.40 1.44
869.50 1.439
869.60 1.439
869.70 1.439
869.80 1.439
869.90 1.439
870.00 1.439
870.10 1.439
870.20 1.438
870.30 1.438
870.40 1.438
870.50 1.438
870.60 1.438
870.70 1.438
870.80 1.437
870.90 1.437
871.00 1.437
871.10 1.437
871.20 1.437
871.30 1.437
871.40 1.437
871.50 1.436
871.60 1.436
871.70 1.436
871.80 1.436
871.90 1.436
872.00 1.436
872.10 1.435
872.20 1.435
872.30 1.435
872.40 1.435
872.50 1.435
872.60 1.435
872.70 1.435
872.80 1.434
872.90 1.434
873.00 1.434
873.10 1.434
873.20 1.434
873.30 1.434
873.40 1.433
873.50 1.433
873.60 1.433
873.70 1.433
873.80 1.433
873.90 1.433
874.00 1.432
874.10 1.432
874.20 1.432
874.30 1.432
874.40 1.432
874.50 1.432
874.60 1.431
874.70 1.431
874.80 1.431
874.90 1.431
875.00 1.431
875.10 1.431
875.20 1.431
875.30 1.43
875.40 1.43
875.50 1.43
875.60 1.43
875.70 1.43
875.80 1.43
875.90 1.429
876.00 1.429
876.10 1.429
876.20 1.429
876.30 1.429
876.40 1.429
876.50 1.428
876.60 1.428
876.70 1.428
876.80 1.428
876.90 1.428
877.00 1.428
877.10 1.427
877.20 1.427
877.30 1.427
877.40 1.427
877.50 1.427
877.60 1.427
877.70 1.426
877.80 1.426
877.90 1.426
878.00 1.426
878.10 1.426
878.20 1.426
878.30 1.425
878.40 1.425
878.50 1.425
878.60 1.425
878.70 1.425
878.80 1.425
878.90 1.424
879.00 1.424
879.10 1.424
879.20 1.424
879.30 1.424
879.40 1.424
879.50 1.423
879.60 1.423
879.70 1.423
879.80 1.423
879.90 1.423
880.00 1.423
880.10 1.422
880.20 1.422
880.30 1.422
880.40 1.422
880.50 1.422
880.60 1.421
880.70 1.421
880.80 1.421
880.90 1.421
881.00 1.421
881.10 1.421
881.20 1.42
881.30 1.42
881.40 1.42
881.50 1.42
881.60 1.42
881.70 1.42
881.80 1.419
881.90 1.419
882.00 1.419
882.10 1.419
882.20 1.419
882.30 1.419
882.40 1.418
882.50 1.418
882.60 1.418
882.70 1.418
882.80 1.418
882.90 1.417
883.00 1.417
883.10 1.417
883.20 1.417
883.30 1.417
883.40 1.417
883.50 1.416
883.60 1.416
883.70 1.416
883.80 1.416
883.90 1.416
884.00 1.415
884.10 1.415
884.20 1.415
884.30 1.415
884.40 1.415
884.50 1.415
884.60 1.414
884.70 1.414
884.80 1.414
884.90 1.414
885.00 1.414
885.10 1.414
885.20 1.413
885.30 1.413
885.40 1.413
885.50 1.413
885.60 1.413
885.70 1.412
885.80 1.412
885.90 1.412
886.00 1.412
886.10 1.412
886.20 1.412
886.30 1.411
886.40 1.411
886.50 1.411
886.60 1.411
886.70 1.411
886.80 1.41
886.90 1.41
887.00 1.41
887.10 1.41
887.20 1.41
887.30 1.41
887.40 1.409
887.50 1.409
887.60 1.409
887.70 1.409
887.80 1.409
887.90 1.408
888.00 1.408
888.10 1.408
888.20 1.408
888.30 1.408
888.40 1.407
888.50 1.407
888.60 1.407
888.70 1.407
888.80 1.407
888.90 1.406
889.00 1.406
889.10 1.406
889.20 1.406
889.30 1.406
889.40 1.405
889.50 1.405
889.60 1.405
889.70 1.405
889.80 1.405
889.90 1.405
890.00 1.404
890.10 1.404
890.20 1.404
890.30 1.404
890.40 1.404
890.50 1.403
890.60 1.403
890.70 1.403
890.80 1.403
890.90 1.403
891.00 1.402
891.10 1.402
891.20 1.402
891.30 1.402
891.40 1.402
891.50 1.401
891.60 1.401
891.70 1.401
891.80 1.401
891.90 1.401
892.00 1.401
892.10 1.4
892.20 1.4
892.30 1.4
892.40 1.4
892.50 1.4
892.60 1.399
892.70 1.399
892.80 1.399
892.90 1.399
893.00 1.399
893.10 1.398
893.20 1.398
893.30 1.398
893.40 1.398
893.50 1.398
893.60 1.397
893.70 1.397
893.80 1.397
893.90 1.397
894.00 1.397
894.10 1.397
894.20 1.396
894.30 1.396
894.40 1.396
894.50 1.396
894.60 1.396
894.70 1.395
894.80 1.395
894.90 1.395
895.00 1.395
895.10 1.395
895.20 1.394
895.30 1.394
895.40 1.394
895.50 1.394
895.60 1.394
895.70 1.394
895.80 1.393
895.90 1.393
896.00 1.393
896.10 1.393
896.20 1.393
896.30 1.392
896.40 1.392
896.50 1.392
896.60 1.392
896.70 1.392
896.80 1.391
896.90 1.391
897.00 1.391
897.10 1.391
897.20 1.391
897.30 1.39
897.40 1.39
897.50 1.39
897.60 1.39
897.70 1.39
897.80 1.389
897.90 1.389
898.00 1.389
898.10 1.389
898.20 1.389
898.30 1.388
898.40 1.388
898.50 1.388
898.60 1.388
898.70 1.387
898.80 1.387
898.90 1.387
899.00 1.387
899.10 1.387
899.20 1.386
899.30 1.386
899.40 1.386
899.50 1.386
899.60 1.385
899.70 1.385
899.80 1.385
899.90 1.385
900.00 1.385
900.10 1.384
900.20 1.384
900.30 1.384
900.40 1.384
900.50 1.384
900.60 1.383
900.70 1.383
900.80 1.383
900.90 1.383
901.00 1.382
901.10 1.382
901.20 1.382
901.30 1.382
901.40 1.382
901.50 1.381
901.60 1.381
901.70 1.381
901.80 1.381
901.90 1.381
902.00 1.38
902.10 1.38
902.20 1.38
902.30 1.38
902.40 1.379
902.50 1.379
902.60 1.379
902.70 1.378
902.80 1.378
902.90 1.378
903.00 1.378
903.10 1.377
903.20 1.377
903.30 1.377
903.40 1.377
903.50 1.376
903.60 1.376
903.70 1.376
903.80 1.376
903.90 1.375
904.00 1.375
904.10 1.375
904.20 1.375
904.30 1.374
904.40 1.374
904.50 1.374
904.60 1.373
904.70 1.373
904.80 1.373
904.90 1.373
905.00 1.372
905.10 1.372
905.20 1.372
905.30 1.372
905.40 1.371
905.50 1.371
905.60 1.371
905.70 1.371
905.80 1.37
905.90 1.37
906.00 1.37
906.10 1.37
906.20 1.369
906.30 1.369
906.40 1.369
906.50 1.368
906.60 1.368
906.70 1.368
906.80 1.368
906.90 1.367
907.00 1.367
907.10 1.367
907.20 1.367
907.30 1.366
907.40 1.366
907.50 1.366
907.60 1.366
907.70 1.365
907.80 1.365
907.90 1.365
908.00 1.365
908.10 1.364
908.20 1.364
908.30 1.364
908.40 1.364
908.50 1.363
908.60 1.363
908.70 1.363
908.80 1.363
908.90 1.362
909.00 1.362
909.10 1.362
909.20 1.362
909.30 1.361
909.40 1.361
909.50 1.361
909.60 1.361
909.70 1.36
909.80 1.36
909.90 1.36
910.00 1.36
910.10 1.359
910.20 1.359
910.30 1.359
910.40 1.359
910.50 1.358
910.60 1.358
910.70 1.358
910.80 1.358
910.90 1.357
911.00 1.357
911.10 1.357
911.20 1.357
911.30 1.356
911.40 1.356
911.50 1.356
911.60 1.356
911.70 1.355
911.80 1.355
911.90 1.355
912.00 1.355
912.10 1.354
912.20 1.354
912.30 1.354
912.40 1.354
912.50 1.354
912.60 1.353
912.70 1.353
912.80 1.353
912.90 1.353
913.00 1.352
913.10 1.352
913.20 1.352
913.30 1.352
913.40 1.351
913.50 1.351
913.60 1.351
913.70 1.351
913.80 1.35
913.90 1.35
914.00 1.35
914.10 1.35
914.20 1.349
914.30 1.349
914.40 1.349
914.50 1.349
914.60 1.348
914.70 1.348
914.80 1.348
914.90 1.348
915.00 1.348
915.10 1.347
915.20 1.347
915.30 1.347
915.40 1.347
915.50 1.346
915.60 1.346
915.70 1.346
915.80 1.346
915.90 1.345
916.00 1.345
916.10 1.345
916.20 1.345
916.30 1.344
916.40 1.344
916.50 1.344
916.60 1.344
916.70 1.344
916.80 1.343
916.90 1.343
917.00 1.343
917.10 1.343
917.20 1.342
917.30 1.342
917.40 1.342
917.50 1.341
917.60 1.341
917.70 1.341
917.80 1.341
917.90 1.34
918.00 1.34
918.10 1.34
918.20 1.34
918.30 1.339
918.40 1.339
918.50 1.339
918.60 1.339
918.70 1.338
918.80 1.338
918.90 1.338
919.00 1.338
919.10 1.337
919.20 1.337
919.30 1.337
919.40 1.337
919.50 1.336
919.60 1.336
919.70 1.336
919.80 1.335
919.90 1.335
920.00 1.335
920.10 1.335
920.20 1.334
920.30 1.334
920.40 1.334
920.50 1.334
920.60 1.333
920.70 1.333
920.80 1.333
920.90 1.333
921.00 1.332
921.10 1.332
921.20 1.332
921.30 1.332
921.40 1.331
921.50 1.331
921.60 1.331
921.70 1.331
921.80 1.33
921.90 1.33
922.00 1.33
922.10 1.329
922.20 1.329
922.30 1.329
922.40 1.329
922.50 1.328
922.60 1.328
922.70 1.328
922.80 1.328
922.90 1.327
923.00 1.327
923.10 1.327
923.20 1.326
923.30 1.326
923.40 1.326
923.50 1.326
923.60 1.325
923.70 1.325
923.80 1.325
923.90 1.325
924.00 1.324
924.10 1.324
924.20 1.324
924.30 1.323
924.40 1.323
924.50 1.323
924.60 1.323
924.70 1.322
924.80 1.322
924.90 1.322
925.00 1.322
925.10 1.321
925.20 1.321
925.30 1.321
925.40 1.32
925.50 1.32
925.60 1.32
925.70 1.32
925.80 1.319
925.90 1.319
926.00 1.319
926.10 1.319
926.20 1.318
926.30 1.318
926.40 1.318
926.50 1.317
926.60 1.317
926.70 1.317
926.80 1.317
926.90 1.316
927.00 1.316
927.10 1.316
927.20 1.316
927.30 1.315
927.40 1.315
927.50 1.315
927.60 1.314
927.70 1.314
927.80 1.314
927.90 1.314
928.00 1.313
928.10 1.313
928.20 1.313
928.30 1.312
928.40 1.312
928.50 1.312
928.60 1.312
928.70 1.311
928.80 1.311
928.90 1.311
929.00 1.31
929.10 1.31
929.20 1.31
929.30 1.31
929.40 1.309
929.50 1.309
929.60 1.309
929.70 1.308
929.80 1.308
929.90 1.308
930.00 1.308
930.10 1.307
930.20 1.307
930.30 1.307
930.40 1.306
930.50 1.306
930.60 1.306
930.70 1.306
930.80 1.305
930.90 1.305
931.00 1.305
931.10 1.305
931.20 1.304
931.30 1.304
931.40 1.304
931.50 1.303
931.60 1.303
931.70 1.303
931.80 1.303
931.90 1.302
932.00 1.302
932.10 1.302
932.20 1.301
932.30 1.301
932.40 1.301
932.50 1.301
932.60 1.3
932.70 1.3
932.80 1.3
932.90 1.299
933.00 1.299
933.10 1.299
933.20 1.298
933.30 1.298
933.40 1.298
933.50 1.298
933.60 1.297
933.70 1.297
933.80 1.297
933.90 1.296
934.00 1.296
934.10 1.296
934.20 1.296
934.30 1.295
934.40 1.295
934.50 1.295
934.60 1.294
934.70 1.294
934.80 1.294
934.90 1.293
935.00 1.293
935.10 1.293
935.20 1.293
935.30 1.292
935.40 1.292
935.50 1.292
935.60 1.291
935.70 1.291
935.80 1.291
935.90 1.29
936.00 1.29
936.10 1.29
936.20 1.29
936.30 1.289
936.40 1.289
936.50 1.289
936.60 1.288
936.70 1.288
936.80 1.288
936.90 1.287
937.00 1.287
937.10 1.287
937.20 1.286
937.30 1.286
937.40 1.286
937.50 1.286
937.60 1.285
937.70 1.285
937.80 1.285
937.90 1.284
938.00 1.284
938.10 1.284
938.20 1.283
938.30 1.283
938.40 1.283
938.50 1.283
938.60 1.282
938.70 1.282
938.80 1.282
938.90 1.281
939.00 1.281
939.10 1.281
939.20 1.28
939.30 1.28
939.40 1.28
939.50 1.279
939.60 1.279
939.70 1.279
939.80 1.279
939.90 1.278
940.00 1.278
940.10 1.278
940.20 1.277
940.30 1.277
940.40 1.277
940.50 1.276
940.60 1.276
940.70 1.276
940.80 1.275
940.90 1.275
941.00 1.275
941.10 1.274
941.20 1.274
941.30 1.274
941.40 1.274
941.50 1.273
941.60 1.273
941.70 1.273
941.80 1.272
941.90 1.272
942.00 1.272
942.10 1.271
942.20 1.271
942.30 1.271
942.40 1.27
942.50 1.27
942.60 1.27
942.70 1.269
942.80 1.269
942.90 1.269
943.00 1.268
943.10 1.268
943.20 1.268
943.30 1.268
943.40 1.267
943.50 1.267
943.60 1.267
943.70 1.266
943.80 1.266
943.90 1.266
944.00 1.265
944.10 1.265
944.20 1.265
944.30 1.264
944.40 1.264
944.50 1.264
944.60 1.263
944.70 1.263
944.80 1.263
944.90 1.262
945.00 1.262
945.10 1.262
945.20 1.261
945.30 1.261
945.40 1.261
945.50 1.261
945.60 1.26
945.70 1.26
945.80 1.26
945.90 1.259
946.00 1.259
946.10 1.259
946.20 1.258
946.30 1.258
946.40 1.258
946.50 1.257
946.60 1.257
946.70 1.257
946.80 1.256
946.90 1.256
947.00 1.256
947.10 1.255
947.20 1.255
947.30 1.255
947.40 1.254
947.50 1.254
947.60 1.254
947.70 1.253
947.80 1.253
947.90 1.253
948.00 1.252
948.10 1.252
948.20 1.252
948.30 1.251
948.40 1.251
948.50 1.251
948.60 1.25
948.70 1.25
948.80 1.25
948.90 1.249
949.00 1.249
949.10 1.249
949.20 1.248
949.30 1.248
949.40 1.248
949.50 1.247
949.60 1.247
949.70 1.247
949.80 1.246
949.90 1.246
950.00 1.246
950.10 1.245
950.20 1.245
950.30 1.245
950.40 1.244
950.50 1.244
950.60 1.244
950.70 1.243
950.80 1.243
950.90 1.243
951.00 1.242
951.10 1.242
951.20 1.242
951.30 1.241
951.40 1.241
951.50 1.241
951.60 1.24
951.70 1.24
951.80 1.24
951.90 1.239
952.00 1.239
952.10 1.239
952.20 1.238
952.30 1.238
952.40 1.238
952.50 1.237
952.60 1.237
952.70 1.237
952.80 1.236
952.90 1.236
953.00 1.236
953.10 1.235
953.20 1.235
953.30 1.235
953.40 1.234
953.50 1.234
953.60 1.234
953.70 1.233
953.80 1.233
953.90 1.233
954.00 1.232
954.10 1.232
954.20 1.232
954.30 1.231
954.40 1.231
954.50 1.231
954.60 1.23
954.70 1.23
954.80 1.23
954.90 1.229
955.00 1.229
955.10 1.229
955.20 1.228
955.30 1.228
955.40 1.228
955.50 1.227
955.60 1.227
955.70 1.227
955.80 1.226
955.90 1.226
956.00 1.226
956.10 1.225
956.20 1.225
956.30 1.225
956.40 1.224
956.50 1.224
956.60 1.224
956.70 1.223
956.80 1.223
956.90 1.223
957.00 1.222
957.10 1.222
957.20 1.221
957.30 1.221
957.40 1.221
957.50 1.22
957.60 1.22
957.70 1.22
957.80 1.219
957.90 1.219
958.00 1.219
958.10 1.218
958.20 1.218
958.30 1.218
958.40 1.217
958.50 1.217
958.60 1.217
958.70 1.216
958.80 1.216
958.90 1.216
959.00 1.215
959.10 1.215
959.20 1.215
959.30 1.214
959.40 1.214
959.50 1.214
959.60 1.213
959.70 1.213
959.80 1.213
959.90 1.212
960.00 1.212
960.10 1.211
960.20 1.211
960.30 1.211
960.40 1.21
960.50 1.21
960.60 1.21
960.70 1.209
960.80 1.209
960.90 1.209
961.00 1.208
961.10 1.208
961.20 1.208
961.30 1.207
961.40 1.207
961.50 1.207
961.60 1.206
961.70 1.206
961.80 1.206
961.90 1.205
962.00 1.205
962.10 1.205
962.20 1.204
962.30 1.204
962.40 1.203
962.50 1.203
962.60 1.203
962.70 1.202
962.80 1.202
962.90 1.202
963.00 1.201
963.10 1.201
963.20 1.201
963.30 1.2
963.40 1.2
963.50 1.2
963.60 1.199
963.70 1.199
963.80 1.199
963.90 1.198
964.00 1.198
964.10 1.198
964.20 1.197
964.30 1.197
964.40 1.196
964.50 1.196
964.60 1.196
964.70 1.195
964.80 1.195
964.90 1.195
965.00 1.194
965.10 1.194
965.20 1.194
965.30 1.193
965.40 1.193
965.50 1.193
965.60 1.192
965.70 1.192
965.80 1.192
965.90 1.191
966.00 1.191
966.10 1.19
966.20 1.19
966.30 1.19
966.40 1.189
966.50 1.189
966.60 1.189
966.70 1.188
966.80 1.188
966.90 1.188
967.00 1.187
967.10 1.187
967.20 1.187
967.30 1.186
967.40 1.186
967.50 1.186
967.60 1.185
967.70 1.185
967.80 1.184
967.90 1.184
968.00 1.184
968.10 1.183
968.20 1.183
968.30 1.183
968.40 1.182
968.50 1.182
968.60 1.182
968.70 1.181
968.80 1.181
968.90 1.181
969.00 1.18
969.10 1.18
969.20 1.179
969.30 1.179
969.40 1.179
969.50 1.178
969.60 1.178
969.70 1.178
969.80 1.177
969.90 1.177
970.00 1.177
970.10 1.176
970.20 1.176
970.30 1.176
970.40 1.175
970.50 1.175
970.60 1.175
970.70 1.174
970.80 1.174
970.90 1.173
971.00 1.173
971.10 1.173
971.20 1.172
971.30 1.172
971.40 1.172
971.50 1.171
971.60 1.171
971.70 1.171
971.80 1.17
971.90 1.17
972.00 1.17
972.10 1.169
972.20 1.169
972.30 1.168
972.40 1.168
972.50 1.168
972.60 1.167
972.70 1.167
972.80 1.167
972.90 1.166
973.00 1.166
973.10 1.166
973.20 1.165
973.30 1.165
973.40 1.165
973.50 1.164
973.60 1.164
973.70 1.164
973.80 1.163
973.90 1.163
974.00 1.162
974.10 1.162
974.20 1.162
974.30 1.161
974.40 1.161
974.50 1.161
974.60 1.16
974.70 1.16
974.80 1.16
974.90 1.159
975.00 1.159
975.10 1.159
975.20 1.158
975.30 1.158
975.40 1.157
975.50 1.157
975.60 1.157
975.70 1.156
975.80 1.156
975.90 1.156
976.00 1.155
976.10 1.155
976.20 1.155
976.30 1.154
976.40 1.154
976.50 1.154
976.60 1.153
976.70 1.153
976.80 1.152
976.90 1.152
977.00 1.152
977.10 1.151
977.20 1.151
977.30 1.151
977.40 1.15
977.50 1.15
977.60 1.15
977.70 1.149
977.80 1.149
977.90 1.149
978.00 1.148
978.10 1.148
978.20 1.147
978.30 1.147
978.40 1.147
978.50 1.146
978.60 1.146
978.70 1.146
978.80 1.145
978.90 1.145
979.00 1.145
979.10 1.144
979.20 1.144
979.30 1.144
979.40 1.143
979.50 1.143
979.60 1.143
979.70 1.142
979.80 1.142
979.90 1.141
980.00 1.141
980.10 1.141
980.20 1.14
980.30 1.14
980.40 1.14
980.50 1.139
980.60 1.139
980.70 1.139
980.80 1.138
980.90 1.138
981.00 1.138
981.10 1.137
981.20 1.137
981.30 1.137
981.40 1.136
981.50 1.136
981.60 1.135
981.70 1.135
981.80 1.135
981.90 1.134
982.00 1.134
982.10 1.134
982.20 1.133
982.30 1.133
982.40 1.133
982.50 1.132
982.60 1.132
982.70 1.132
982.80 1.131
982.90 1.131
983.00 1.131
983.10 1.13
983.20 1.13
983.30 1.129
983.40 1.129
983.50 1.129
983.60 1.128
983.70 1.128
983.80 1.128
983.90 1.127
984.00 1.127
984.10 1.127
984.20 1.126
984.30 1.126
984.40 1.126
984.50 1.125
984.60 1.125
984.70 1.125
984.80 1.124
984.90 1.124
985.00 1.123
985.10 1.123
985.20 1.123
985.30 1.122
985.40 1.122
985.50 1.122
985.60 1.121
985.70 1.121
985.80 1.121
985.90 1.12
986.00 1.12
986.10 1.12
986.20 1.119
986.30 1.119
986.40 1.119
986.50 1.118
986.60 1.118
986.70 1.118
986.80 1.117
986.90 1.117
987.00 1.117
987.10 1.116
987.20 1.116
987.30 1.116
987.40 1.115
987.50 1.115
987.60 1.114
987.70 1.114
987.80 1.114
987.90 1.113
988.00 1.113
988.10 1.113
988.20 1.112
988.30 1.112
988.40 1.112
988.50 1.111
988.60 1.111
988.70 1.111
988.80 1.11
988.90 1.11
989.00 1.11
989.10 1.109
989.20 1.109
989.30 1.108
989.40 1.108
989.50 1.108
989.60 1.107
989.70 1.107
989.80 1.107
989.90 1.106
990.00 1.106
990.10 1.106
990.20 1.105
990.30 1.105
990.40 1.105
990.50 1.104
990.60 1.104
990.70 1.104
990.80 1.103
990.90 1.103
991.00 1.102
991.10 1.102
991.20 1.102
991.30 1.101
991.40 1.101
991.50 1.101
991.60 1.1
991.70 1.1
991.80 1.1
991.90 1.099
992.00 1.099
992.10 1.099
992.20 1.098
992.30 1.098
992.40 1.097
992.50 1.097
992.60 1.097
992.70 1.096
992.80 1.096
992.90 1.096
993.00 1.095
993.10 1.095
993.20 1.095
993.30 1.094
993.40 1.094
993.50 1.094
993.60 1.093
993.70 1.093
993.80 1.092
993.90 1.092
994.00 1.092
994.10 1.091
994.20 1.091
994.30 1.091
994.40 1.09
994.50 1.09
994.60 1.09
994.70 1.089
994.80 1.089
994.90 1.088
995.00 1.088
995.10 1.088
995.20 1.087
995.30 1.087
995.40 1.086
995.50 1.086
995.60 1.086
995.70 1.085
995.80 1.085
995.90 1.085
996.00 1.084
996.10 1.084
996.20 1.084
996.30 1.083
996.40 1.083
996.50 1.082
996.60 1.082
996.70 1.082
996.80 1.081
996.90 1.081
997.00 1.081
997.10 1.08
997.20 1.08
997.30 1.08
997.40 1.079
997.50 1.079
997.60 1.079
997.70 1.078
997.80 1.078
997.90 1.078
998.00 1.077
998.10 1.077
998.20 1.076
998.30 1.076
998.40 1.076
998.50 1.075
998.60 1.075
998.70 1.075
998.80 1.074
998.90 1.074
999.00 1.074
999.10 1.073
999.20 1.073
999.30 1.073
999.40 1.072
999.50 1.072
999.60 1.072
999.70 1.071
999.80 1.071
999.90 1.071
1000.00 1.07
1000.10 1.07
1000.20 1.069
1000.30 1.069
1000.40 1.069
1000.50 1.068
1000.60 1.068
1000.70 1.068
1000.80 1.067
1000.90 1.067
1001.00 1.067
1001.10 1.066
1001.20 1.066
1001.30 1.066
1001.40 1.065
1001.50 1.065
1001.60 1.065
1001.70 1.064
1001.80 1.064
1001.90 1.064
1002.00 1.063
1002.10 1.063
1002.20 1.063
1002.30 1.062
1002.40 1.062
1002.50 1.062
1002.60 1.061
1002.70 1.061
1002.80 1.061
1002.90 1.06
1003.00 1.06
1003.10 1.06
1003.20 1.059
1003.30 1.059
1003.40 1.059
1003.50 1.058
1003.60 1.058
1003.70 1.058
1003.80 1.057
1003.90 1.057
1004.00 1.057
1004.10 1.056
1004.20 1.056
1004.30 1.056
1004.40 1.055
1004.50 1.055
1004.60 1.055
1004.70 1.054
1004.80 1.054
1004.90 1.053
1005.00 1.053
1005.10 1.053
1005.20 1.052
1005.30 1.052
1005.40 1.052
1005.50 1.051
1005.60 1.051
1005.70 1.051
1005.80 1.05
1005.90 1.05
1006.00 1.05
1006.10 1.049
1006.20 1.049
1006.30 1.049
1006.40 1.049
1006.50 1.048
1006.60 1.048
1006.70 1.048
1006.80 1.047
1006.90 1.047
1007.00 1.047
1007.10 1.046
1007.20 1.046
1007.30 1.046
1007.40 1.045
1007.50 1.045
1007.60 1.045
1007.70 1.044
1007.80 1.044
1007.90 1.044
1008.00 1.043
1008.10 1.043
1008.20 1.043
1008.30 1.042
1008.40 1.042
1008.50 1.042
1008.60 1.041
1008.70 1.041
1008.80 1.041
1008.90 1.04
1009.00 1.04
1009.10 1.04
1009.20 1.039
1009.30 1.039
1009.40 1.039
1009.50 1.038
1009.60 1.038
1009.70 1.038
1009.80 1.038
1009.90 1.037
1010.00 1.037
1010.10 1.037
1010.20 1.036
1010.30 1.036
1010.40 1.036
1010.50 1.035
1010.60 1.035
1010.70 1.035
1010.80 1.034
1010.90 1.034
1011.00 1.034
1011.10 1.033
1011.20 1.033
1011.30 1.033
1011.40 1.032
1011.50 1.032
1011.60 1.032
1011.70 1.032
1011.80 1.031
1011.90 1.031
1012.00 1.031
1012.10 1.03
1012.20 1.03
1012.30 1.03
1012.40 1.029
1012.50 1.029
1012.60 1.029
1012.70 1.028
1012.80 1.028
1012.90 1.028
1013.00 1.028
1013.10 1.027
1013.20 1.027
1013.30 1.027
1013.40 1.026
1013.50 1.026
1013.60 1.026
1013.70 1.025
1013.80 1.025
1013.90 1.025
1014.00 1.025
1014.10 1.024
1014.20 1.024
1014.30 1.024
1014.40 1.023
1014.50 1.023
1014.60 1.023
1014.70 1.022
1014.80 1.022
1014.90 1.022
1015.00 1.022
1015.10 1.021
1015.20 1.021
1015.30 1.021
1015.40 1.02
1015.50 1.02
1015.60 1.02
1015.70 1.02
1015.80 1.019
1015.90 1.019
1016.00 1.019
1016.10 1.018
1016.20 1.018
1016.30 1.018
1016.40 1.018
1016.50 1.017
1016.60 1.017
1016.70 1.017
1016.80 1.016
1016.90 1.016
1017.00 1.016
1017.10 1.016
1017.20 1.015
1017.30 1.015
1017.40 1.015
1017.50 1.014
1017.60 1.014
1017.70 1.014
1017.80 1.013
1017.90 1.013
1018.00 1.013
1018.10 1.013
1018.20 1.012
1018.30 1.012
1018.40 1.012
1018.50 1.011
1018.60 1.011
1018.70 1.011
1018.80 1.011
1018.90 1.01
1019.00 1.01
1019.10 1.01
1019.20 1.009
1019.30 1.009
1019.40 1.009
1019.50 1.009
1019.60 1.008
1019.70 1.008
1019.80 1.008
1019.90 1.007
1020.00 1.007
1020.10 1.007
1020.20 1.007
1020.30 1.006
1020.40 1.006
1020.50 1.006
1020.60 1.005
1020.70 1.005
1020.80 1.005
1020.90 1.005
1021.00 1.004
1021.10 1.004
1021.20 1.004
1021.30 1.003
1021.40 1.003
1021.50 1.003
1021.60 1.003
1021.70 1.002
1021.80 1.002
1021.90 1.002
1022.00 1.001
1022.10 1.001
1022.20 1.001
1022.30 1.001
1022.40 1
1022.50 1
1022.60 0.9997
1022.70 0.9994
1022.80 0.9991
1022.90 0.9988
1023.00 0.9986
1023.10 0.9983
1023.20 0.998
1023.30 0.9977
1023.40 0.9974
1023.50 0.9972
1023.60 0.9969
1023.70 0.9966
1023.80 0.9963
1023.90 0.996
1024.00 0.9958
1024.10 0.9955
1024.20 0.9952
1024.30 0.9949
1024.40 0.9947
1024.50 0.9944
1024.60 0.9941
1024.70 0.9938
1024.80 0.9935
1024.90 0.9933
1025.00 0.993
1025.10 0.9927
1025.20 0.9924
1025.30 0.9921
1025.40 0.9919
1025.50 0.9916
1025.60 0.9913
1025.70 0.991
1025.80 0.9908
1025.90 0.9905
1026.00 0.9902
1026.10 0.9899
1026.20 0.9896
1026.30 0.9894
1026.40 0.9891
1026.50 0.9888
1026.60 0.9885
1026.70 0.9882
1026.80 0.988
1026.90 0.9877
1027.00 0.9874
1027.10 0.9871
1027.20 0.9869
1027.30 0.9866
1027.40 0.9863
1027.50 0.9861
1027.60 0.9858
1027.70 0.9855
1027.80 0.9853
1027.90 0.985
1028.00 0.9847
1028.10 0.9845
1028.20 0.9842
1028.30 0.9839
1028.40 0.9837
1028.50 0.9834
1028.60 0.9831
1028.70 0.9829
1028.80 0.9826
1028.90 0.9823
1029.00 0.9821
1029.10 0.9818
1029.20 0.9815
1029.30 0.9813
1029.40 0.981
1029.50 0.9807
1029.60 0.9805
1029.70 0.9802
1029.80 0.9799
1029.90 0.9797
1030.00 0.9794
1030.10 0.9791
1030.20 0.9789
1030.30 0.9786
1030.40 0.9783
1030.50 0.9781
1030.60 0.9778
1030.70 0.9775
1030.80 0.9773
1030.90 0.977
1031.00 0.9767
1031.10 0.9765
1031.20 0.9762
1031.30 0.9759
1031.40 0.9757
1031.50 0.9754
1031.60 0.9751
1031.70 0.9749
1031.80 0.9746
1031.90 0.9744
1032.00 0.9741
1032.10 0.9738
1032.20 0.9736
1032.30 0.9733
1032.40 0.9731
1032.50 0.9728
1032.60 0.9726
1032.70 0.9723
1032.80 0.972
1032.90 0.9718
1033.00 0.9715
1033.10 0.9713
1033.20 0.971
1033.30 0.9708
1033.40 0.9705
1033.50 0.9703
1033.60 0.97
1033.70 0.9698
1033.80 0.9695
1033.90 0.9692
1034.00 0.969
1034.10 0.9687
1034.20 0.9685
1034.30 0.9682
1034.40 0.968
1034.50 0.9677
1034.60 0.9675
1034.70 0.9672
1034.80 0.967
1034.90 0.9667
1035.00 0.9665
1035.10 0.9662
1035.20 0.966
1035.30 0.9657
1035.40 0.9654
1035.50 0.9652
1035.60 0.9649
1035.70 0.9647
1035.80 0.9644
1035.90 0.9642
1036.00 0.9639
1036.10 0.9637
1036.20 0.9634
1036.30 0.9632
1036.40 0.9629
1036.50 0.9627
1036.60 0.9624
1036.70 0.9622
1036.80 0.9619
1036.90 0.9617
1037.00 0.9614
1037.10 0.9612
1037.20 0.9609
1037.30 0.9607
1037.40 0.9604
1037.50 0.9602
1037.60 0.96
1037.70 0.9597
1037.80 0.9595
1037.90 0.9592
1038.00 0.959
1038.10 0.9587
1038.20 0.9585
1038.30 0.9583
1038.40 0.958
1038.50 0.9578
1038.60 0.9575
1038.70 0.9573
1038.80 0.9571
1038.90 0.9568
1039.00 0.9566
1039.10 0.9563
1039.20 0.9561
1039.30 0.9559
1039.40 0.9556
1039.50 0.9554
1039.60 0.9551
1039.70 0.9549
1039.80 0.9546
1039.90 0.9544
1040.00 0.9542
1040.10 0.9539
1040.20 0.9537
1040.30 0.9534
1040.40 0.9532
1040.50 0.953
1040.60 0.9527
1040.70 0.9525
1040.80 0.9522
1040.90 0.952
1041.00 0.9518
1041.10 0.9515
1041.20 0.9513
1041.30 0.951
1041.40 0.9508
1041.50 0.9506
1041.60 0.9503
1041.70 0.9501
1041.80 0.9498
1041.90 0.9496
1042.00 0.9494
1042.10 0.9491
1042.20 0.9489
1042.30 0.9487
1042.40 0.9485
1042.50 0.9482
1042.60 0.948
1042.70 0.9478
1042.80 0.9475
1042.90 0.9473
1043.00 0.9471
1043.10 0.9469
1043.20 0.9466
1043.30 0.9464
1043.40 0.9462
1043.50 0.9459
1043.60 0.9457
1043.70 0.9455
1043.80 0.9453
1043.90 0.945
1044.00 0.9448
1044.10 0.9446
1044.20 0.9443
1044.30 0.9441
1044.40 0.9439
1044.50 0.9437
1044.60 0.9434
1044.70 0.9432
1044.80 0.943
1044.90 0.9428
1045.00 0.9425
1045.10 0.9423
1045.20 0.9421
1045.30 0.9418
1045.40 0.9416
1045.50 0.9414
1045.60 0.9412
1045.70 0.9409
1045.80 0.9407
1045.90 0.9405
1046.00 0.9403
1046.10 0.94
1046.20 0.9398
1046.30 0.9396
1046.40 0.9394
1046.50 0.9391
1046.60 0.9389
1046.70 0.9387
1046.80 0.9385
1046.90 0.9382
1047.00 0.938
1047.10 0.9378
1047.20 0.9376
1047.30 0.9374
1047.40 0.9371
1047.50 0.9369
1047.60 0.9367
1047.70 0.9365
1047.80 0.9363
1047.90 0.9361
1048.00 0.9358
1048.10 0.9356
1048.20 0.9354
1048.30 0.9352
1048.40 0.935
1048.50 0.9348
1048.60 0.9346
1048.70 0.9343
1048.80 0.9341
1048.90 0.9339
1049.00 0.9337
1049.10 0.9335
1049.20 0.9333
1049.30 0.9331
1049.40 0.9328
1049.50 0.9326
1049.60 0.9324
1049.70 0.9322
1049.80 0.932
1049.90 0.9318
1050.00 0.9316
1050.10 0.9313
1050.20 0.9311
1050.30 0.9309
1050.40 0.9307
1050.50 0.9305
1050.60 0.9303
1050.70 0.9301
1050.80 0.9298
1050.90 0.9296
1051.00 0.9294
1051.10 0.9292
1051.20 0.929
1051.30 0.9288
1051.40 0.9286
1051.50 0.9284
1051.60 0.9281
1051.70 0.9279
1051.80 0.9277
1051.90 0.9275
1052.00 0.9273
1052.10 0.9271
1052.20 0.9269
1052.30 0.9267
1052.40 0.9265
1052.50 0.9263
1052.60 0.9261
1052.70 0.9259
1052.80 0.9257
1052.90 0.9255
1053.00 0.9253
1053.10 0.9251
1053.20 0.9249
1053.30 0.9247
1053.40 0.9245
1053.50 0.9243
1053.60 0.9241
1053.70 0.9239
1053.80 0.9237
1053.90 0.9235
1054.00 0.9233
1054.10 0.9231
1054.20 0.9229
1054.30 0.9227
1054.40 0.9225
1054.50 0.9223
1054.60 0.9221
1054.70 0.9219
1054.80 0.9217
1054.90 0.9215
1055.00 0.9213
1055.10 0.9211
1055.20 0.9209
1055.30 0.9207
1055.40 0.9205
1055.50 0.9203
1055.60 0.9201
1055.70 0.9199
1055.80 0.9197
1055.90 0.9195
1056.00 0.9193
1056.10 0.9191
1056.20 0.9189
1056.30 0.9187
1056.40 0.9185
1056.50 0.9183
1056.60 0.9181
1056.70 0.9179
1056.80 0.9177
1056.90 0.9175
1057.00 0.9173
1057.10 0.9171
1057.20 0.9169
1057.30 0.9167
1057.40 0.9165
1057.50 0.9163
1057.60 0.9161
1057.70 0.9159
1057.80 0.9157
1057.90 0.9156
1058.00 0.9154
1058.10 0.9152
1058.20 0.915
1058.30 0.9148
1058.40 0.9146
1058.50 0.9144
1058.60 0.9142
1058.70 0.914
1058.80 0.9139
1058.90 0.9137
1059.00 0.9135
1059.10 0.9133
1059.20 0.9131
1059.30 0.9129
1059.40 0.9127
1059.50 0.9125
1059.60 0.9124
1059.70 0.9122
1059.80 0.912
1059.90 0.9118
1060.00 0.9116
1060.10 0.9114
1060.20 0.9112
1060.30 0.911
1060.40 0.9109
1060.50 0.9107
1060.60 0.9105
1060.70 0.9103
1060.80 0.9101
1060.90 0.9099
1061.00 0.9097
1061.10 0.9095
1061.20 0.9094
1061.30 0.9092
1061.40 0.909
1061.50 0.9088
1061.60 0.9086
1061.70 0.9084
1061.80 0.9082
1061.90 0.908
1062.00 0.9079
1062.10 0.9077
1062.20 0.9075
1062.30 0.9073
1062.40 0.9071
1062.50 0.907
1062.60 0.9068
1062.70 0.9066
1062.80 0.9064
1062.90 0.9063
1063.00 0.9061
1063.10 0.9059
1063.20 0.9057
1063.30 0.9056
1063.40 0.9054
1063.50 0.9052
1063.60 0.905
1063.70 0.9049
1063.80 0.9047
1063.90 0.9045
1064.00 0.9043
1064.10 0.9041
1064.20 0.904
1064.30 0.9038
1064.40 0.9036
1064.50 0.9034
1064.60 0.9033
1064.70 0.9031
1064.80 0.9029
1064.90 0.9027
1065.00 0.9026
1065.10 0.9024
1065.20 0.9022
1065.30 0.902
1065.40 0.9019
1065.50 0.9017
1065.60 0.9015
1065.70 0.9013
1065.80 0.9012
1065.90 0.901
1066.00 0.9008
1066.10 0.9006
1066.20 0.9005
1066.30 0.9003
1066.40 0.9001
1066.50 0.8999
1066.60 0.8998
1066.70 0.8996
1066.80 0.8994
1066.90 0.8992
1067.00 0.8991
1067.10 0.8989
1067.20 0.8987
1067.30 0.8986
1067.40 0.8984
1067.50 0.8982
1067.60 0.8981
1067.70 0.8979
1067.80 0.8978
1067.90 0.8976
1068.00 0.8974
1068.10 0.8973
1068.20 0.8971
1068.30 0.8969
1068.40 0.8968
1068.50 0.8966
1068.60 0.8964
1068.70 0.8963
1068.80 0.8961
1068.90 0.896
1069.00 0.8958
1069.10 0.8956
1069.20 0.8955
1069.30 0.8953
1069.40 0.8951
1069.50 0.895
1069.60 0.8948
1069.70 0.8947
1069.80 0.8945
1069.90 0.8943
1070.00 0.8942
1070.10 0.894
1070.20 0.8939
1070.30 0.8937
1070.40 0.8935
1070.50 0.8934
1070.60 0.8932
1070.70 0.893
1070.80 0.8929
1070.90 0.8927
1071.00 0.8926
1071.10 0.8924
1071.20 0.8922
1071.30 0.8921
1071.40 0.8919
1071.50 0.8918
1071.60 0.8916
1071.70 0.8914
1071.80 0.8913
1071.90 0.8911
1072.00 0.8909
1072.10 0.8908
1072.20 0.8906
1072.30 0.8905
1072.40 0.8903
1072.50 0.8902
1072.60 0.89
1072.70 0.8898
1072.80 0.8897
1072.90 0.8895
1073.00 0.8894
1073.10 0.8892
1073.20 0.889
1073.30 0.8889
1073.40 0.8887
1073.50 0.8886
1073.60 0.8884
1073.70 0.8883
1073.80 0.8881
1073.90 0.8879
1074.00 0.8878
1074.10 0.8876
1074.20 0.8875
1074.30 0.8873
1074.40 0.8872
1074.50 0.887
1074.60 0.8869
1074.70 0.8867
1074.80 0.8865
1074.90 0.8864
1075.00 0.8862
1075.10 0.8861
1075.20 0.8859
1075.30 0.8858
1075.40 0.8856
1075.50 0.8855
1075.60 0.8853
1075.70 0.8852
1075.80 0.885
1075.90 0.8848
1076.00 0.8847
1076.10 0.8845
1076.20 0.8844
1076.30 0.8842
1076.40 0.8841
1076.50 0.8839
1076.60 0.8838
1076.70 0.8836
1076.80 0.8835
1076.90 0.8833
1077.00 0.8832
1077.10 0.883
1077.20 0.8828
1077.30 0.8827
1077.40 0.8825
1077.50 0.8824
1077.60 0.8822
1077.70 0.8821
1077.80 0.8819
1077.90 0.8818
1078.00 0.8816
1078.10 0.8815
1078.20 0.8814
1078.30 0.8812
1078.40 0.8811
1078.50 0.8809
1078.60 0.8808
1078.70 0.8806
1078.80 0.8805
1078.90 0.8803
1079.00 0.8802
1079.10 0.88
1079.20 0.8799
1079.30 0.8797
1079.40 0.8796
1079.50 0.8794
1079.60 0.8793
1079.70 0.8791
1079.80 0.879
1079.90 0.8788
1080.00 0.8787
1080.10 0.8786
1080.20 0.8784
1080.30 0.8783
1080.40 0.8781
1080.50 0.878
1080.60 0.8778
1080.70 0.8777
1080.80 0.8775
1080.90 0.8774
1081.00 0.8773
1081.10 0.8771
1081.20 0.877
1081.30 0.8768
1081.40 0.8767
1081.50 0.8765
1081.60 0.8764
1081.70 0.8762
1081.80 0.8761
1081.90 0.876
1082.00 0.8758
1082.10 0.8757
1082.20 0.8755
1082.30 0.8754
1082.40 0.8753
1082.50 0.8751
1082.60 0.875
1082.70 0.8748
1082.80 0.8747
1082.90 0.8745
1083.00 0.8744
1083.10 0.8743
1083.20 0.8741
1083.30 0.874
1083.40 0.8738
1083.50 0.8737
1083.60 0.8736
1083.70 0.8734
1083.80 0.8733
1083.90 0.8731
1084.00 0.873
1084.10 0.8729
1084.20 0.8727
1084.30 0.8726
1084.40 0.8724
1084.50 0.8723
1084.60 0.8722
1084.70 0.872
1084.80 0.8719
1084.90 0.8717
1085.00 0.8716
1085.10 0.8715
1085.20 0.8713
1085.30 0.8712
1085.40 0.871
1085.50 0.8709
1085.60 0.8708
1085.70 0.8706
1085.80 0.8705
1085.90 0.8703
1086.00 0.8702
1086.10 0.87
1086.20 0.8699
1086.30 0.8698
1086.40 0.8696
1086.50 0.8695
1086.60 0.8694
1086.70 0.8692
1086.80 0.8691
1086.90 0.869
1087.00 0.8688
1087.10 0.8687
1087.20 0.8686
1087.30 0.8684
1087.40 0.8683
1087.50 0.8682
1087.60 0.868
1087.70 0.8679
1087.80 0.8677
1087.90 0.8676
1088.00 0.8675
1088.10 0.8673
1088.20 0.8672
1088.30 0.8671
1088.40 0.8669
1088.50 0.8668
1088.60 0.8667
1088.70 0.8665
1088.80 0.8664
1088.90 0.8663
1089.00 0.8661
1089.10 0.866
1089.20 0.8659
1089.30 0.8657
1089.40 0.8656
1089.50 0.8655
1089.60 0.8653
1089.70 0.8652
1089.80 0.8651
1089.90 0.8649
1090.00 0.8648
1090.10 0.8647
1090.20 0.8645
1090.30 0.8644
1090.40 0.8643
1090.50 0.8641
1090.60 0.864
1090.70 0.8639
1090.80 0.8637
1090.90 0.8636
1091.00 0.8635
1091.10 0.8633
1091.20 0.8632
1091.30 0.8631
1091.40 0.8629
1091.50 0.8628
1091.60 0.8627
1091.70 0.8625
1091.80 0.8624
1091.90 0.8623
1092.00 0.8621
1092.10 0.862
1092.20 0.8619
1092.30 0.8618
1092.40 0.8616
1092.50 0.8615
1092.60 0.8614
1092.70 0.8612
1092.80 0.8611
1092.90 0.861
1093.00 0.8609
1093.10 0.8608
1093.20 0.8607
1093.30 0.8605
1093.40 0.8604
1093.50 0.8603
1093.60 0.8602
1093.70 0.86
1093.80 0.8599
1093.90 0.8598
1094.00 0.8596
1094.10 0.8595
1094.20 0.8594
1094.30 0.8593
1094.40 0.8591
1094.50 0.859
1094.60 0.8589
1094.70 0.8588
1094.80 0.8586
1094.90 0.8585
1095.00 0.8584
1095.10 0.8582
1095.20 0.8581
1095.30 0.858
1095.40 0.8579
1095.50 0.8577
1095.60 0.8576
1095.70 0.8575
1095.80 0.8574
1095.90 0.8572
1096.00 0.8571
1096.10 0.857
1096.20 0.8568
1096.30 0.8567
1096.40 0.8566
1096.50 0.8565
1096.60 0.8563
1096.70 0.8562
1096.80 0.8561
1096.90 0.856
1097.00 0.8558
1097.10 0.8557
1097.20 0.8556
1097.30 0.8554
1097.40 0.8553
1097.50 0.8552
1097.60 0.8551
1097.70 0.8549
1097.80 0.8548
1097.90 0.8547
1098.00 0.8546
1098.10 0.8544
1098.20 0.8543
1098.30 0.8542
1098.40 0.8541
1098.50 0.8539
1098.60 0.8538
1098.70 0.8537
1098.80 0.8536
1098.90 0.8534
1099.00 0.8533
1099.10 0.8532
1099.20 0.8531
1099.30 0.8529
1099.40 0.8528
1099.50 0.8527
1099.60 0.8526
1099.70 0.8524
1099.80 0.8523
1099.90 0.8522
1100.00 0.8521
1100.10 0.8519
1100.20 0.8518
1100.30 0.8517
1100.40 0.8515
1100.50 0.8514
1100.60 0.8513
1100.70 0.8512
1100.80 0.851
1100.90 0.8509
1101.00 0.8508
1101.10 0.8507
1101.20 0.8505
1101.30 0.8504
1101.40 0.8503
1101.50 0.8502
1101.60 0.85
1101.70 0.8499
1101.80 0.8498
1101.90 0.8497
1102.00 0.8495
1102.10 0.8494
1102.20 0.8493
1102.30 0.8492
1102.40 0.849
1102.50 0.8489
1102.60 0.8488
1102.70 0.8487
1102.80 0.8486
1102.90 0.8484
1103.00 0.8483
1103.10 0.8482
1103.20 0.8481
1103.30 0.848
1103.40 0.8478
1103.50 0.8477
1103.60 0.8476
1103.70 0.8475
1103.80 0.8474
1103.90 0.8472
1104.00 0.8471
1104.10 0.847
1104.20 0.8469
1104.30 0.8468
1104.40 0.8466
1104.50 0.8465
1104.60 0.8464
1104.70 0.8463
1104.80 0.8461
1104.90 0.846
1105.00 0.8459
1105.10 0.8458
1105.20 0.8457
1105.30 0.8455
1105.40 0.8454
1105.50 0.8453
1105.60 0.8452
1105.70 0.845
1105.80 0.8449
1105.90 0.8448
1106.00 0.8447
1106.10 0.8446
1106.20 0.8444
1106.30 0.8443
1106.40 0.8442
1106.50 0.8441
1106.60 0.844
1106.70 0.8438
1106.80 0.8437
1106.90 0.8436
1107.00 0.8435
1107.10 0.8434
1107.20 0.8432
1107.30 0.8431
1107.40 0.843
1107.50 0.8429
1107.60 0.8428
1107.70 0.8426
1107.80 0.8425
1107.90 0.8424
1108.00 0.8423
1108.10 0.8422
1108.20 0.842
1108.30 0.8419
1108.40 0.8418
1108.50 0.8417
1108.60 0.8416
1108.70 0.8415
1108.80 0.8413
1108.90 0.8412
1109.00 0.8411
1109.10 0.841
1109.20 0.8409
1109.30 0.8407
1109.40 0.8406
1109.50 0.8405
1109.60 0.8404
1109.70 0.8403
1109.80 0.8402
1109.90 0.84
1110.00 0.8399
1110.10 0.8398
1110.20 0.8397
1110.30 0.8396
1110.40 0.8394
1110.50 0.8393
1110.60 0.8392
1110.70 0.8391
1110.80 0.839
1110.90 0.8388
1111.00 0.8387
1111.10 0.8386
1111.20 0.8385
1111.30 0.8384
1111.40 0.8382
1111.50 0.8381
1111.60 0.838
1111.70 0.8379
1111.80 0.8378
1111.90 0.8377
1112.00 0.8375
1112.10 0.8374
1112.20 0.8373
1112.30 0.8372
1112.40 0.8371
1112.50 0.8369
1112.60 0.8368
1112.70 0.8367
1112.80 0.8366
1112.90 0.8365
1113.00 0.8364
1113.10 0.8362
1113.20 0.8361
1113.30 0.836
1113.40 0.8359
1113.50 0.8358
1113.60 0.8357
1113.70 0.8355
1113.80 0.8354
1113.90 0.8353
1114.00 0.8352
1114.10 0.8351
1114.20 0.8349
1114.30 0.8348
1114.40 0.8347
1114.50 0.8346
1114.60 0.8345
1114.70 0.8344
1114.80 0.8342
1114.90 0.8341
1115.00 0.834
1115.10 0.8339
1115.20 0.8338
1115.30 0.8337
1115.40 0.8335
1115.50 0.8334
1115.60 0.8333
1115.70 0.8332
1115.80 0.8331
1115.90 0.833
1116.00 0.8328
1116.10 0.8327
1116.20 0.8326
1116.30 0.8325
1116.40 0.8324
1116.50 0.8323
1116.60 0.8321
1116.70 0.832
1116.80 0.8319
1116.90 0.8318
1117.00 0.8317
1117.10 0.8316
1117.20 0.8314
1117.30 0.8313
1117.40 0.8312
1117.50 0.8311
1117.60 0.831
1117.70 0.8309
1117.80 0.8308
1117.90 0.8306
1118.00 0.8305
1118.10 0.8304
1118.20 0.8303
1118.30 0.8302
1118.40 0.8301
1118.50 0.83
1118.60 0.8298
1118.70 0.8297
1118.80 0.8296
1118.90 0.8295
1119.00 0.8294
1119.10 0.8293
1119.20 0.8292
1119.30 0.829
1119.40 0.8289
1119.50 0.8288
1119.60 0.8287
1119.70 0.8286
1119.80 0.8285
1119.90 0.8284
1120.00 0.8282
1120.10 0.8281
1120.20 0.828
1120.30 0.8279
1120.40 0.8278
1120.50 0.8277
1120.60 0.8276
1120.70 0.8274
1120.80 0.8273
1120.90 0.8272
1121.00 0.8271
1121.10 0.827
1121.20 0.8269
1121.30 0.8268
1121.40 0.8266
1121.50 0.8265
1121.60 0.8264
1121.70 0.8263
1121.80 0.8262
1121.90 0.8261
1122.00 0.826
1122.10 0.8259
1122.20 0.8257
1122.30 0.8256
1122.40 0.8255
1122.50 0.8254
1122.60 0.8253
1122.70 0.8252
1122.80 0.825
1122.90 0.8249
1123.00 0.8248
1123.10 0.8247
1123.20 0.8246
1123.30 0.8245
1123.40 0.8243
1123.50 0.8242
1123.60 0.8241
1123.70 0.824
1123.80 0.8239
1123.90 0.8238
1124.00 0.8237
1124.10 0.8235
1124.20 0.8234
1124.30 0.8233
1124.40 0.8232
1124.50 0.8231
1124.60 0.823
1124.70 0.8228
1124.80 0.8227
1124.90 0.8226
1125.00 0.8225
1125.10 0.8224
1125.20 0.8223
1125.30 0.8221
1125.40 0.822
1125.50 0.8219
1125.60 0.8218
1125.70 0.8217
1125.80 0.8216
1125.90 0.8215
1126.00 0.8213
1126.10 0.8212
1126.20 0.8211
1126.30 0.821
1126.40 0.8209
1126.50 0.8208
1126.60 0.8207
1126.70 0.8205
1126.80 0.8204
1126.90 0.8203
1127.00 0.8202
1127.10 0.8201
1127.20 0.82
1127.30 0.8199
1127.40 0.8197
1127.50 0.8196
1127.60 0.8195
1127.70 0.8194
1127.80 0.8193
1127.90 0.8192
1128.00 0.8191
1128.10 0.8189
1128.20 0.8188
1128.30 0.8187
1128.40 0.8186
1128.50 0.8185
1128.60 0.8184
1128.70 0.8183
1128.80 0.8182
1128.90 0.818
1129.00 0.8179
1129.10 0.8178
1129.20 0.8177
1129.30 0.8176
1129.40 0.8175
1129.50 0.8174
1129.60 0.8172
1129.70 0.8171
1129.80 0.817
1129.90 0.8169
1130.00 0.8168
1130.10 0.8167
1130.20 0.8166
1130.30 0.8165
1130.40 0.8163
1130.50 0.8162
1130.60 0.8161
1130.70 0.816
1130.80 0.8159
1130.90 0.8158
1131.00 0.8157
1131.10 0.8156
1131.20 0.8154
1131.30 0.8153
1131.40 0.8152
1131.50 0.8151
1131.60 0.815
1131.70 0.8149
1131.80 0.8148
1131.90 0.8146
1132.00 0.8145
1132.10 0.8144
1132.20 0.8143
1132.30 0.8142
1132.40 0.8141
1132.50 0.814
1132.60 0.8138
1132.70 0.8137
1132.80 0.8136
1132.90 0.8135
1133.00 0.8134
1133.10 0.8133
1133.20 0.8131
1133.30 0.813
1133.40 0.8129
1133.50 0.8128
1133.60 0.8127
1133.70 0.8126
1133.80 0.8124
1133.90 0.8123
1134.00 0.8122
1134.10 0.8121
1134.20 0.812
1134.30 0.8119
1134.40 0.8117
1134.50 0.8116
1134.60 0.8115
1134.70 0.8114
1134.80 0.8113
1134.90 0.8112
1135.00 0.811
1135.10 0.8109
1135.20 0.8108
1135.30 0.8107
1135.40 0.8106
1135.50 0.8105
1135.60 0.8103
1135.70 0.8102
1135.80 0.8101
1135.90 0.81
1136.00 0.8099
1136.10 0.8098
1136.20 0.8096
1136.30 0.8095
1136.40 0.8094
1136.50 0.8093
1136.60 0.8092
1136.70 0.8091
1136.80 0.8089
1136.90 0.8088
1137.00 0.8087
1137.10 0.8086
1137.20 0.8085
1137.30 0.8084
1137.40 0.8082
1137.50 0.8081
1137.60 0.808
1137.70 0.8079
1137.80 0.8078
1137.90 0.8076
1138.00 0.8075
1138.10 0.8074
1138.20 0.8073
1138.30 0.8072
1138.40 0.8071
1138.50 0.8069
1138.60 0.8068
1138.70 0.8067
1138.80 0.8066
1138.90 0.8065
1139.00 0.8063
1139.10 0.8062
1139.20 0.8061
1139.30 0.806
1139.40 0.8059
1139.50 0.8057
1139.60 0.8056
1139.70 0.8055
1139.80 0.8054
1139.90 0.8053
1140.00 0.8052
1140.10 0.805
1140.20 0.8049
1140.30 0.8048
1140.40 0.8047
1140.50 0.8046
1140.60 0.8044
1140.70 0.8043
1140.80 0.8042
1140.90 0.8041
1141.00 0.804
1141.10 0.8038
1141.20 0.8037
1141.30 0.8036
1141.40 0.8035
1141.50 0.8034
1141.60 0.8033
1141.70 0.8031
1141.80 0.803
1141.90 0.8029
1142.00 0.8028
1142.10 0.8027
1142.20 0.8025
1142.30 0.8024
1142.40 0.8023
1142.50 0.8022
1142.60 0.8021
1142.70 0.8019
1142.80 0.8018
1142.90 0.8017
1143.00 0.8016
1143.10 0.8015
1143.20 0.8013
1143.30 0.8012
1143.40 0.8011
1143.50 0.801
1143.60 0.8009
1143.70 0.8007
1143.80 0.8006
1143.90 0.8005
1144.00 0.8004
1144.10 0.8003
1144.20 0.8001
1144.30 0.8
1144.40 0.7999
1144.50 0.7998
1144.60 0.7997
1144.70 0.7995
1144.80 0.7994
1144.90 0.7993
1145.00 0.7992
1145.10 0.7991
1145.20 0.7989
1145.30 0.7988
1145.40 0.7987
1145.50 0.7986
1145.60 0.7985
1145.70 0.7983
1145.80 0.7982
1145.90 0.7981
1146.00 0.798
1146.10 0.7979
1146.20 0.7977
1146.30 0.7976
1146.40 0.7975
1146.50 0.7974
1146.60 0.7973
1146.70 0.7972
1146.80 0.797
1146.90 0.7969
1147.00 0.7968
1147.10 0.7967
1147.20 0.7965
1147.30 0.7964
1147.40 0.7963
1147.50 0.7962
1147.60 0.796
1147.70 0.7959
1147.80 0.7958
1147.90 0.7957
1148.00 0.7956
1148.10 0.7954
1148.20 0.7953
1148.30 0.7952
1148.40 0.7951
1148.50 0.7949
1148.60 0.7948
1148.70 0.7947
1148.80 0.7946
1148.90 0.7944
1149.00 0.7943
1149.10 0.7942
1149.20 0.7941
1149.30 0.7939
1149.40 0.7938
1149.50 0.7937
1149.60 0.7936
1149.70 0.7934
1149.80 0.7933
1149.90 0.7932
1150.00 0.7931
1150.10 0.7929
1150.20 0.7928
1150.30 0.7927
1150.40 0.7926
1150.50 0.7925
1150.60 0.7923
1150.70 0.7922
1150.80 0.7921
1150.90 0.792
1151.00 0.7918
1151.10 0.7917
1151.20 0.7916
1151.30 0.7915
1151.40 0.7913
1151.50 0.7912
1151.60 0.7911
1151.70 0.791
1151.80 0.7909
1151.90 0.7907
1152.00 0.7906
1152.10 0.7905
1152.20 0.7904
1152.30 0.7902
1152.40 0.7901
1152.50 0.79
1152.60 0.7898
1152.70 0.7897
1152.80 0.7896
1152.90 0.7895
1153.00 0.7893
1153.10 0.7892
1153.20 0.7891
1153.30 0.789
1153.40 0.7888
1153.50 0.7887
1153.60 0.7886
1153.70 0.7885
1153.80 0.7883
1153.90 0.7882
1154.00 0.7881
1154.10 0.788
1154.20 0.7878
1154.30 0.7877
1154.40 0.7876
1154.50 0.7875
1154.60 0.7873
1154.70 0.7872
1154.80 0.7871
1154.90 0.787
1155.00 0.7868
1155.10 0.7867
1155.20 0.7866
1155.30 0.7864
1155.40 0.7863
1155.50 0.7862
1155.60 0.7861
1155.70 0.7859
1155.80 0.7858
1155.90 0.7857
1156.00 0.7856
1156.10 0.7854
1156.20 0.7853
1156.30 0.7852
1156.40 0.7851
1156.50 0.7849
1156.60 0.7848
1156.70 0.7847
1156.80 0.7846
1156.90 0.7844
1157.00 0.7843
1157.10 0.7842
1157.20 0.7841
1157.30 0.7839
1157.40 0.7838
1157.50 0.7837
1157.60 0.7835
1157.70 0.7834
1157.80 0.7833
1157.90 0.7831
1158.00 0.783
1158.10 0.7829
1158.20 0.7827
1158.30 0.7826
1158.40 0.7825
1158.50 0.7824
1158.60 0.7822
1158.70 0.7821
1158.80 0.782
1158.90 0.7818
1159.00 0.7817
1159.10 0.7816
1159.20 0.7814
1159.30 0.7813
1159.40 0.7812
1159.50 0.7811
1159.60 0.7809
1159.70 0.7808
1159.80 0.7807
1159.90 0.7805
1160.00 0.7804
1160.10 0.7803
1160.20 0.7801
1160.30 0.78
1160.40 0.7799
1160.50 0.7797
1160.60 0.7796
1160.70 0.7795
1160.80 0.7794
1160.90 0.7792
1161.00 0.7791
1161.10 0.779
1161.20 0.7788
1161.30 0.7787
1161.40 0.7786
1161.50 0.7785
1161.60 0.7783
1161.70 0.7782
1161.80 0.7781
1161.90 0.7779
1162.00 0.7778
1162.10 0.7777
1162.20 0.7775
1162.30 0.7774
1162.40 0.7773
1162.50 0.7771
1162.60 0.777
1162.70 0.7769
1162.80 0.7767
1162.90 0.7766
1163.00 0.7765
1163.10 0.7763
1163.20 0.7762
1163.30 0.7761
1163.40 0.7759
1163.50 0.7758
1163.60 0.7757
1163.70 0.7755
1163.80 0.7754
1163.90 0.7752
1164.00 0.7751
1164.10 0.775
1164.20 0.7748
1164.30 0.7747
1164.40 0.7746
1164.50 0.7744
1164.60 0.7743
1164.70 0.7742
1164.80 0.774
1164.90 0.7739
1165.00 0.7738
1165.10 0.7736
1165.20 0.7735
1165.30 0.7734
1165.40 0.7732
1165.50 0.7731
1165.60 0.773
1165.70 0.7728
1165.80 0.7727
1165.90 0.7726
1166.00 0.7724
1166.10 0.7723
1166.20 0.7722
1166.30 0.772
1166.40 0.7719
1166.50 0.7718
1166.60 0.7716
1166.70 0.7715
1166.80 0.7714
1166.90 0.7712
1167.00 0.7711
1167.10 0.771
1167.20 0.7708
1167.30 0.7707
1167.40 0.7706
1167.50 0.7704
1167.60 0.7703
1167.70 0.7701
1167.80 0.77
1167.90 0.7699
1168.00 0.7697
1168.10 0.7696
1168.20 0.7694
1168.30 0.7693
1168.40 0.7692
1168.50 0.769
1168.60 0.7689
1168.70 0.7688
1168.80 0.7686
1168.90 0.7685
1169.00 0.7683
1169.10 0.7682
1169.20 0.7681
1169.30 0.7679
1169.40 0.7678
1169.50 0.7676
1169.60 0.7675
1169.70 0.7674
1169.80 0.7672
1169.90 0.7671
1170.00 0.767
1170.10 0.7668
1170.20 0.7667
1170.30 0.7665
1170.40 0.7664
1170.50 0.7663
1170.60 0.7661
1170.70 0.766
1170.80 0.7658
1170.90 0.7657
1171.00 0.7656
1171.10 0.7654
1171.20 0.7653
1171.30 0.7652
1171.40 0.765
1171.50 0.7649
1171.60 0.7647
1171.70 0.7646
1171.80 0.7645
1171.90 0.7643
1172.00 0.7642
1172.10 0.7641
1172.20 0.7639
1172.30 0.7638
1172.40 0.7636
1172.50 0.7635
1172.60 0.7634
1172.70 0.7632
1172.80 0.7631
1172.90 0.7629
1173.00 0.7628
1173.10 0.7626
1173.20 0.7625
1173.30 0.7624
1173.40 0.7622
1173.50 0.7621
1173.60 0.7619
1173.70 0.7618
1173.80 0.7617
1173.90 0.7615
1174.00 0.7614
1174.10 0.7612
1174.20 0.7611
1174.30 0.761
1174.40 0.7608
1174.50 0.7607
1174.60 0.7605
1174.70 0.7604
1174.80 0.7602
1174.90 0.7601
1175.00 0.76
1175.10 0.7598
1175.20 0.7597
1175.30 0.7595
1175.40 0.7594
1175.50 0.7593
1175.60 0.7591
1175.70 0.759
1175.80 0.7588
1175.90 0.7587
1176.00 0.7586
1176.10 0.7584
1176.20 0.7583
1176.30 0.7581
1176.40 0.758
1176.50 0.7579
1176.60 0.7577
1176.70 0.7576
1176.80 0.7574
1176.90 0.7573
1177.00 0.7572
1177.10 0.757
1177.20 0.7569
1177.30 0.7567
1177.40 0.7566
1177.50 0.7564
1177.60 0.7563
1177.70 0.7562
1177.80 0.756
1177.90 0.7559
1178.00 0.7557
1178.10 0.7556
1178.20 0.7554
1178.30 0.7553
1178.40 0.7551
1178.50 0.755
1178.60 0.7549
1178.70 0.7547
1178.80 0.7546
1178.90 0.7544
1179.00 0.7543
1179.10 0.7541
1179.20 0.754
1179.30 0.7538
1179.40 0.7537
1179.50 0.7536
1179.60 0.7534
1179.70 0.7533
1179.80 0.7531
1179.90 0.753
1180.00 0.7528
1180.10 0.7527
1180.20 0.7525
1180.30 0.7524
1180.40 0.7523
1180.50 0.7521
1180.60 0.752
1180.70 0.7518
1180.80 0.7517
1180.90 0.7515
1181.00 0.7514
1181.10 0.7513
1181.20 0.7511
1181.30 0.751
1181.40 0.7508
1181.50 0.7507
1181.60 0.7505
1181.70 0.7504
1181.80 0.7503
1181.90 0.7501
1182.00 0.75
1182.10 0.7498
1182.20 0.7497
1182.30 0.7495
1182.40 0.7494
1182.50 0.7492
1182.60 0.7491
1182.70 0.7489
1182.80 0.7488
1182.90 0.7486
1183.00 0.7485
1183.10 0.7483
1183.20 0.7482
1183.30 0.748
1183.40 0.7479
1183.50 0.7477
1183.60 0.7476
1183.70 0.7474
1183.80 0.7473
1183.90 0.7471
1184.00 0.747
1184.10 0.7468
1184.20 0.7467
1184.30 0.7466
1184.40 0.7464
1184.50 0.7463
1184.60 0.7461
1184.70 0.746
1184.80 0.7458
1184.90 0.7457
1185.00 0.7455
1185.10 0.7454
1185.20 0.7452
1185.30 0.7451
1185.40 0.7449
1185.50 0.7448
1185.60 0.7446
1185.70 0.7445
1185.80 0.7443
1185.90 0.7442
1186.00 0.744
1186.10 0.7439
1186.20 0.7437
1186.30 0.7436
1186.40 0.7435
1186.50 0.7433
1186.60 0.7432
1186.70 0.743
1186.80 0.7429
1186.90 0.7427
1187.00 0.7426
1187.10 0.7424
1187.20 0.7423
1187.30 0.7421
1187.40 0.742
1187.50 0.7418
1187.60 0.7417
1187.70 0.7415
1187.80 0.7414
1187.90 0.7412
1188.00 0.7411
1188.10 0.7409
1188.20 0.7408
1188.30 0.7406
1188.40 0.7405
1188.50 0.7403
1188.60 0.7402
1188.70 0.74
1188.80 0.7399
1188.90 0.7397
1189.00 0.7396
1189.10 0.7394
1189.20 0.7393
1189.30 0.7391
1189.40 0.739
1189.50 0.7388
1189.60 0.7387
1189.70 0.7385
1189.80 0.7384
1189.90 0.7382
1190.00 0.7381
1190.10 0.738
1190.20 0.7378
1190.30 0.7377
1190.40 0.7375
1190.50 0.7374
1190.60 0.7372
1190.70 0.7371
1190.80 0.7369
1190.90 0.7368
1191.00 0.7366
1191.10 0.7365
1191.20 0.7363
1191.30 0.7362
1191.40 0.736
1191.50 0.7359
1191.60 0.7357
1191.70 0.7356
1191.80 0.7354
1191.90 0.7353
1192.00 0.7351
1192.10 0.735
1192.20 0.7348
1192.30 0.7347
1192.40 0.7345
1192.50 0.7344
1192.60 0.7342
1192.70 0.7341
1192.80 0.7339
1192.90 0.7338
1193.00 0.7336
1193.10 0.7335
1193.20 0.7333
1193.30 0.7332
1193.40 0.733
1193.50 0.7329
1193.60 0.7327
1193.70 0.7326
1193.80 0.7324
1193.90 0.7323
1194.00 0.7321
1194.10 0.732
1194.20 0.7318
1194.30 0.7317
1194.40 0.7315
1194.50 0.7314
1194.60 0.7312
1194.70 0.7311
1194.80 0.7309
1194.90 0.7308
1195.00 0.7306
1195.10 0.7305
1195.20 0.7303
1195.30 0.7302
1195.40 0.73
1195.50 0.7299
1195.60 0.7297
1195.70 0.7296
1195.80 0.7294
1195.90 0.7293
1196.00 0.7291
1196.10 0.729
1196.20 0.7288
1196.30 0.7287
1196.40 0.7285
1196.50 0.7284
1196.60 0.7282
1196.70 0.7281
1196.80 0.7279
1196.90 0.7278
1197.00 0.7276
1197.10 0.7275
1197.20 0.7273
1197.30 0.7271
1197.40 0.727
1197.50 0.7268
1197.60 0.7267
1197.70 0.7265
1197.80 0.7264
1197.90 0.7262
1198.00 0.7261
1198.10 0.7259
1198.20 0.7258
1198.30 0.7256
1198.40 0.7255
1198.50 0.7253
1198.60 0.7252
1198.70 0.725
1198.80 0.7249
1198.90 0.7247
1199.00 0.7246
1199.10 0.7244
1199.20 0.7243
1199.30 0.7241
1199.40 0.7239
1199.50 0.7238
1199.60 0.7236
1199.70 0.7235
1199.80 0.7233
1199.90 0.7232
1200.00 0
