# Version 2.1 - nm, norm@500 to 1, cut digits, bergeron_55000_95.dat_55000
# Wavelength(nm)  Flambda(ergs/cm^s/s/nm)
300.00 6.39
300.10 6.382
300.20 6.374
300.30 6.366
300.40 6.359
300.50 6.351
300.60 6.343
300.70 6.335
300.80 6.328
300.90 6.32
301.00 6.312
301.10 6.305
301.20 6.297
301.30 6.289
301.40 6.282
301.50 6.274
301.60 6.267
301.70 6.259
301.80 6.251
301.90 6.244
302.00 6.236
302.10 6.229
302.20 6.221
302.30 6.214
302.40 6.206
302.50 6.199
302.60 6.191
302.70 6.184
302.80 6.176
302.90 6.169
303.00 6.161
303.10 6.154
303.20 6.146
303.30 6.139
303.40 6.132
303.50 6.124
303.60 6.117
303.70 6.109
303.80 6.102
303.90 6.095
304.00 6.087
304.10 6.08
304.20 6.073
304.30 6.065
304.40 6.058
304.50 6.051
304.60 6.044
304.70 6.036
304.80 6.029
304.90 6.022
305.00 6.015
305.10 6.007
305.20 6
305.30 5.993
305.40 5.986
305.50 5.979
305.60 5.972
305.70 5.964
305.80 5.957
305.90 5.95
306.00 5.943
306.10 5.936
306.20 5.929
306.30 5.922
306.40 5.915
306.50 5.908
306.60 5.901
306.70 5.893
306.80 5.886
306.90 5.879
307.00 5.872
307.10 5.865
307.20 5.858
307.30 5.851
307.40 5.844
307.50 5.838
307.60 5.831
307.70 5.824
307.80 5.817
307.90 5.81
308.00 5.803
308.10 5.796
308.20 5.789
308.30 5.782
308.40 5.775
308.50 5.768
308.60 5.762
308.70 5.755
308.80 5.748
308.90 5.741
309.00 5.734
309.10 5.728
309.20 5.721
309.30 5.714
309.40 5.707
309.50 5.7
309.60 5.694
309.70 5.687
309.80 5.68
309.90 5.674
310.00 5.667
310.10 5.66
310.20 5.653
310.30 5.647
310.40 5.64
310.50 5.633
310.60 5.627
310.70 5.62
310.80 5.614
310.90 5.607
311.00 5.6
311.10 5.594
311.20 5.587
311.30 5.581
311.40 5.574
311.50 5.567
311.60 5.561
311.70 5.554
311.80 5.548
311.90 5.541
312.00 5.535
312.10 5.528
312.20 5.522
312.30 5.515
312.40 5.509
312.50 5.502
312.60 5.496
312.70 5.489
312.80 5.483
312.90 5.477
313.00 5.47
313.10 5.464
313.20 5.457
313.30 5.451
313.40 5.445
313.50 5.438
313.60 5.432
313.70 5.426
313.80 5.419
313.90 5.413
314.00 5.407
314.10 5.4
314.20 5.394
314.30 5.388
314.40 5.381
314.50 5.375
314.60 5.369
314.70 5.363
314.80 5.356
314.90 5.35
315.00 5.344
315.10 5.338
315.20 5.331
315.30 5.325
315.40 5.319
315.50 5.313
315.60 5.307
315.70 5.301
315.80 5.294
315.90 5.288
316.00 5.282
316.10 5.276
316.20 5.27
316.30 5.264
316.40 5.258
316.50 5.252
316.60 5.245
316.70 5.239
316.80 5.233
316.90 5.227
317.00 5.221
317.10 5.215
317.20 5.209
317.30 5.203
317.40 5.197
317.50 5.191
317.60 5.185
317.70 5.179
317.80 5.173
317.90 5.167
318.00 5.161
318.10 5.155
318.20 5.149
318.30 5.143
318.40 5.137
318.50 5.131
318.60 5.126
318.70 5.12
318.80 5.114
318.90 5.108
319.00 5.102
319.10 5.096
319.20 5.09
319.30 5.084
319.40 5.079
319.50 5.073
319.60 5.067
319.70 5.061
319.80 5.055
319.90 5.049
320.00 5.044
320.10 5.038
320.20 5.032
320.30 5.026
320.40 5.021
320.50 5.015
320.60 5.009
320.70 5.003
320.80 4.998
320.90 4.992
321.00 4.986
321.10 4.981
321.20 4.975
321.30 4.969
321.40 4.963
321.50 4.958
321.60 4.952
321.70 4.946
321.80 4.941
321.90 4.935
322.00 4.93
322.10 4.924
322.20 4.918
322.30 4.913
322.40 4.907
322.50 4.902
322.60 4.896
322.70 4.89
322.80 4.885
322.90 4.879
323.00 4.874
323.10 4.868
323.20 4.863
323.30 4.857
323.40 4.852
323.50 4.846
323.60 4.841
323.70 4.835
323.80 4.83
323.90 4.824
324.00 4.819
324.10 4.813
324.20 4.808
324.30 4.802
324.40 4.797
324.50 4.791
324.60 4.786
324.70 4.781
324.80 4.775
324.90 4.77
325.00 4.764
325.10 4.759
325.20 4.754
325.30 4.748
325.40 4.743
325.50 4.738
325.60 4.732
325.70 4.727
325.80 4.721
325.90 4.716
326.00 4.711
326.10 4.706
326.20 4.7
326.30 4.695
326.40 4.69
326.50 4.684
326.60 4.679
326.70 4.674
326.80 4.669
326.90 4.663
327.00 4.658
327.10 4.653
327.20 4.648
327.30 4.642
327.40 4.637
327.50 4.632
327.60 4.627
327.70 4.622
327.80 4.616
327.90 4.611
328.00 4.606
328.10 4.601
328.20 4.596
328.30 4.591
328.40 4.585
328.50 4.58
328.60 4.575
328.70 4.57
328.80 4.565
328.90 4.56
329.00 4.555
329.10 4.55
329.20 4.545
329.30 4.539
329.40 4.534
329.50 4.529
329.60 4.524
329.70 4.519
329.80 4.514
329.90 4.509
330.00 4.504
330.10 4.499
330.20 4.494
330.30 4.489
330.40 4.484
330.50 4.479
330.60 4.474
330.70 4.469
330.80 4.464
330.90 4.459
331.00 4.454
331.10 4.449
331.20 4.444
331.30 4.44
331.40 4.435
331.50 4.43
331.60 4.425
331.70 4.42
331.80 4.415
331.90 4.41
332.00 4.405
332.10 4.4
332.20 4.395
332.30 4.391
332.40 4.386
332.50 4.381
332.60 4.376
332.70 4.371
332.80 4.366
332.90 4.361
333.00 4.357
333.10 4.352
333.20 4.347
333.30 4.342
333.40 4.337
333.50 4.333
333.60 4.328
333.70 4.323
333.80 4.318
333.90 4.314
334.00 4.309
334.10 4.304
334.20 4.299
334.30 4.295
334.40 4.29
334.50 4.285
334.60 4.28
334.70 4.276
334.80 4.271
334.90 4.266
335.00 4.262
335.10 4.257
335.20 4.252
335.30 4.248
335.40 4.243
335.50 4.238
335.60 4.234
335.70 4.229
335.80 4.224
335.90 4.22
336.00 4.215
336.10 4.21
336.20 4.206
336.30 4.201
336.40 4.197
336.50 4.192
336.60 4.187
336.70 4.183
336.80 4.178
336.90 4.174
337.00 4.169
337.10 4.165
337.20 4.16
337.30 4.156
337.40 4.151
337.50 4.146
337.60 4.142
337.70 4.137
337.80 4.133
337.90 4.128
338.00 4.124
338.10 4.119
338.20 4.115
338.30 4.11
338.40 4.106
338.50 4.101
338.60 4.097
338.70 4.093
338.80 4.088
338.90 4.084
339.00 4.079
339.10 4.075
339.20 4.07
339.30 4.066
339.40 4.062
339.50 4.057
339.60 4.053
339.70 4.048
339.80 4.044
339.90 4.04
340.00 4.035
340.10 4.031
340.20 4.026
340.30 4.022
340.40 4.018
340.50 4.013
340.60 4.009
340.70 4.005
340.80 4
340.90 3.996
341.00 3.992
341.10 3.987
341.20 3.983
341.30 3.979
341.40 3.974
341.50 3.97
341.60 3.966
341.70 3.962
341.80 3.957
341.90 3.953
342.00 3.949
342.10 3.945
342.20 3.94
342.30 3.936
342.40 3.932
342.50 3.928
342.60 3.923
342.70 3.919
342.80 3.915
342.90 3.911
343.00 3.907
343.10 3.902
343.20 3.898
343.30 3.894
343.40 3.89
343.50 3.886
343.60 3.881
343.70 3.877
343.80 3.873
343.90 3.869
344.00 3.865
344.10 3.861
344.20 3.856
344.30 3.852
344.40 3.848
344.50 3.844
344.60 3.84
344.70 3.836
344.80 3.832
344.90 3.828
345.00 3.824
345.10 3.82
345.20 3.815
345.30 3.811
345.40 3.807
345.50 3.803
345.60 3.799
345.70 3.795
345.80 3.791
345.90 3.787
346.00 3.783
346.10 3.779
346.20 3.775
346.30 3.771
346.40 3.767
346.50 3.763
346.60 3.759
346.70 3.755
346.80 3.751
346.90 3.747
347.00 3.743
347.10 3.739
347.20 3.735
347.30 3.731
347.40 3.727
347.50 3.723
347.60 3.719
347.70 3.715
347.80 3.711
347.90 3.707
348.00 3.703
348.10 3.699
348.20 3.695
348.30 3.692
348.40 3.688
348.50 3.684
348.60 3.68
348.70 3.676
348.80 3.672
348.90 3.668
349.00 3.664
349.10 3.66
349.20 3.657
349.30 3.653
349.40 3.649
349.50 3.645
349.60 3.641
349.70 3.637
349.80 3.633
349.90 3.63
350.00 3.626
350.10 3.622
350.20 3.618
350.30 3.614
350.40 3.611
350.50 3.607
350.60 3.603
350.70 3.599
350.80 3.595
350.90 3.592
351.00 3.588
351.10 3.584
351.20 3.58
351.30 3.576
351.40 3.573
351.50 3.569
351.60 3.565
351.70 3.561
351.80 3.558
351.90 3.554
352.00 3.55
352.10 3.546
352.20 3.543
352.30 3.539
352.40 3.535
352.50 3.532
352.60 3.528
352.70 3.524
352.80 3.521
352.90 3.517
353.00 3.513
353.10 3.51
353.20 3.506
353.30 3.502
353.40 3.499
353.50 3.495
353.60 3.491
353.70 3.488
353.80 3.484
353.90 3.48
354.00 3.477
354.10 3.473
354.20 3.469
354.30 3.466
354.40 3.462
354.50 3.459
354.60 3.455
354.70 3.451
354.80 3.448
354.90 3.444
355.00 3.441
355.10 3.437
355.20 3.433
355.30 3.43
355.40 3.426
355.50 3.423
355.60 3.419
355.70 3.416
355.80 3.412
355.90 3.409
356.00 3.405
356.10 3.401
356.20 3.398
356.30 3.394
356.40 3.391
356.50 3.387
356.60 3.384
356.70 3.38
356.80 3.377
356.90 3.373
357.00 3.37
357.10 3.366
357.20 3.363
357.30 3.359
357.40 3.356
357.50 3.352
357.60 3.349
357.70 3.346
357.80 3.342
357.90 3.339
358.00 3.335
358.10 3.332
358.20 3.328
358.30 3.325
358.40 3.321
358.50 3.318
358.60 3.315
358.70 3.311
358.80 3.308
358.90 3.304
359.00 3.301
359.10 3.298
359.20 3.294
359.30 3.291
359.40 3.287
359.50 3.284
359.60 3.281
359.70 3.277
359.80 3.274
359.90 3.27
360.00 3.267
360.10 3.264
360.20 3.26
360.30 3.257
360.40 3.254
360.50 3.25
360.60 3.247
360.70 3.244
360.80 3.24
360.90 3.237
361.00 3.234
361.10 3.23
361.20 3.227
361.30 3.224
361.40 3.221
361.50 3.217
361.60 3.214
361.70 3.211
361.80 3.207
361.90 3.204
362.00 3.201
362.10 3.198
362.20 3.194
362.30 3.191
362.40 3.188
362.50 3.185
362.60 3.181
362.70 3.178
362.80 3.175
362.90 3.172
363.00 3.168
363.10 3.165
363.20 3.162
363.30 3.159
363.40 3.155
363.50 3.152
363.60 3.149
363.70 3.146
363.80 3.143
363.90 3.139
364.00 3.136
364.10 3.133
364.20 3.13
364.30 3.127
364.40 3.123
364.50 3.12
364.60 3.117
364.70 3.114
364.80 3.111
364.90 3.108
365.00 3.105
365.10 3.101
365.20 3.098
365.30 3.095
365.40 3.092
365.50 3.089
365.60 3.086
365.70 3.083
365.80 3.079
365.90 3.076
366.00 3.073
366.10 3.07
366.20 3.067
366.30 3.064
366.40 3.061
366.50 3.058
366.60 3.055
366.70 3.051
366.80 3.048
366.90 3.045
367.00 3.042
367.10 3.039
367.20 3.036
367.30 3.033
367.40 3.03
367.50 3.027
367.60 3.024
367.70 3.02
367.80 3.017
367.90 3.014
368.00 3.011
368.10 3.008
368.20 3.005
368.30 3.002
368.40 2.999
368.50 2.996
368.60 2.992
368.70 2.989
368.80 2.986
368.90 2.983
369.00 2.98
369.10 2.977
369.20 2.974
369.30 2.971
369.40 2.967
369.50 2.964
369.60 2.961
369.70 2.958
369.80 2.955
369.90 2.952
370.00 2.949
370.10 2.946
370.20 2.943
370.30 2.94
370.40 2.937
370.50 2.933
370.60 2.93
370.70 2.927
370.80 2.924
370.90 2.921
371.00 2.918
371.10 2.915
371.20 2.912
371.30 2.909
371.40 2.906
371.50 2.903
371.60 2.9
371.70 2.897
371.80 2.894
371.90 2.891
372.00 2.888
372.10 2.885
372.20 2.882
372.30 2.879
372.40 2.876
372.50 2.874
372.60 2.871
372.70 2.868
372.80 2.865
372.90 2.863
373.00 2.86
373.10 2.857
373.20 2.854
373.30 2.851
373.40 2.849
373.50 2.846
373.60 2.843
373.70 2.84
373.80 2.838
373.90 2.835
374.00 2.832
374.10 2.829
374.20 2.826
374.30 2.823
374.40 2.82
374.50 2.818
374.60 2.815
374.70 2.812
374.80 2.809
374.90 2.806
375.00 2.803
375.10 2.8
375.20 2.797
375.30 2.794
375.40 2.791
375.50 2.789
375.60 2.786
375.70 2.783
375.80 2.78
375.90 2.777
376.00 2.774
376.10 2.771
376.20 2.768
376.30 2.766
376.40 2.763
376.50 2.76
376.60 2.757
376.70 2.754
376.80 2.751
376.90 2.748
377.00 2.746
377.10 2.743
377.20 2.74
377.30 2.737
377.40 2.735
377.50 2.732
377.60 2.729
377.70 2.726
377.80 2.724
377.90 2.721
378.00 2.718
378.10 2.716
378.20 2.713
378.30 2.71
378.40 2.707
378.50 2.705
378.60 2.702
378.70 2.699
378.80 2.697
378.90 2.694
379.00 2.691
379.10 2.689
379.20 2.686
379.30 2.683
379.40 2.681
379.50 2.678
379.60 2.675
379.70 2.672
379.80 2.67
379.90 2.667
380.00 2.664
380.10 2.662
380.20 2.659
380.30 2.657
380.40 2.654
380.50 2.651
380.60 2.649
380.70 2.646
380.80 2.644
380.90 2.641
381.00 2.638
381.10 2.636
381.20 2.633
381.30 2.631
381.40 2.628
381.50 2.625
381.60 2.623
381.70 2.62
381.80 2.618
381.90 2.615
382.00 2.613
382.10 2.61
382.20 2.608
382.30 2.605
382.40 2.603
382.50 2.6
382.60 2.597
382.70 2.595
382.80 2.592
382.90 2.59
383.00 2.587
383.10 2.585
383.20 2.582
383.30 2.58
383.40 2.577
383.50 2.575
383.60 2.572
383.70 2.57
383.80 2.568
383.90 2.565
384.00 2.563
384.10 2.56
384.20 2.558
384.30 2.555
384.40 2.553
384.50 2.551
384.60 2.548
384.70 2.546
384.80 2.543
384.90 2.541
385.00 2.539
385.10 2.536
385.20 2.534
385.30 2.531
385.40 2.529
385.50 2.527
385.60 2.524
385.70 2.522
385.80 2.519
385.90 2.517
386.00 2.515
386.10 2.512
386.20 2.51
386.30 2.508
386.40 2.505
386.50 2.503
386.60 2.501
386.70 2.498
386.80 2.496
386.90 2.494
387.00 2.491
387.10 2.489
387.20 2.486
387.30 2.484
387.40 2.482
387.50 2.479
387.60 2.477
387.70 2.475
387.80 2.473
387.90 2.47
388.00 2.468
388.10 2.466
388.20 2.463
388.30 2.461
388.40 2.459
388.50 2.457
388.60 2.454
388.70 2.452
388.80 2.45
388.90 2.448
389.00 2.445
389.10 2.443
389.20 2.441
389.30 2.439
389.40 2.437
389.50 2.435
389.60 2.432
389.70 2.43
389.80 2.428
389.90 2.426
390.00 2.424
390.10 2.422
390.20 2.42
390.30 2.418
390.40 2.415
390.50 2.413
390.60 2.411
390.70 2.409
390.80 2.407
390.90 2.405
391.00 2.403
391.10 2.401
391.20 2.399
391.30 2.396
391.40 2.394
391.50 2.392
391.60 2.39
391.70 2.388
391.80 2.386
391.90 2.384
392.00 2.382
392.10 2.379
392.20 2.377
392.30 2.375
392.40 2.373
392.50 2.371
392.60 2.368
392.70 2.366
392.80 2.364
392.90 2.362
393.00 2.36
393.10 2.357
393.20 2.355
393.30 2.353
393.40 2.351
393.50 2.349
393.60 2.346
393.70 2.344
393.80 2.342
393.90 2.34
394.00 2.337
394.10 2.335
394.20 2.333
394.30 2.331
394.40 2.328
394.50 2.326
394.60 2.324
394.70 2.321
394.80 2.319
394.90 2.317
395.00 2.314
395.10 2.312
395.20 2.31
395.30 2.307
395.40 2.305
395.50 2.303
395.60 2.3
395.70 2.298
395.80 2.296
395.90 2.294
396.00 2.291
396.10 2.289
396.20 2.287
396.30 2.284
396.40 2.282
396.50 2.28
396.60 2.278
396.70 2.275
396.80 2.273
396.90 2.271
397.00 2.269
397.10 2.267
397.20 2.266
397.30 2.264
397.40 2.262
397.50 2.261
397.60 2.259
397.70 2.258
397.80 2.256
397.90 2.255
398.00 2.253
398.10 2.252
398.20 2.25
398.30 2.249
398.40 2.247
398.50 2.246
398.60 2.244
398.70 2.243
398.80 2.241
398.90 2.24
399.00 2.238
399.10 2.237
399.20 2.235
399.30 2.234
399.40 2.232
399.50 2.231
399.60 2.229
399.70 2.227
399.80 2.226
399.90 2.224
400.00 2.222
400.10 2.221
400.20 2.219
400.30 2.218
400.40 2.216
400.50 2.214
400.60 2.212
400.70 2.211
400.80 2.209
400.90 2.207
401.00 2.205
401.10 2.204
401.20 2.202
401.30 2.2
401.40 2.198
401.50 2.196
401.60 2.194
401.70 2.193
401.80 2.191
401.90 2.189
402.00 2.187
402.10 2.185
402.20 2.183
402.30 2.181
402.40 2.179
402.50 2.177
402.60 2.175
402.70 2.173
402.80 2.171
402.90 2.169
403.00 2.167
403.10 2.164
403.20 2.162
403.30 2.16
403.40 2.158
403.50 2.156
403.60 2.154
403.70 2.151
403.80 2.149
403.90 2.147
404.00 2.144
404.10 2.142
404.20 2.14
404.30 2.137
404.40 2.135
404.50 2.133
404.60 2.13
404.70 2.128
404.80 2.125
404.90 2.123
405.00 2.12
405.10 2.118
405.20 2.115
405.30 2.113
405.40 2.11
405.50 2.107
405.60 2.105
405.70 2.102
405.80 2.1
405.90 2.097
406.00 2.094
406.10 2.091
406.20 2.089
406.30 2.086
406.40 2.083
406.50 2.08
406.60 2.077
406.70 2.074
406.80 2.072
406.90 2.069
407.00 2.066
407.10 2.063
407.20 2.06
407.30 2.057
407.40 2.054
407.50 2.051
407.60 2.048
407.70 2.045
407.80 2.042
407.90 2.039
408.00 2.036
408.10 2.033
408.20 2.03
408.30 2.027
408.40 2.024
408.50 2.021
408.60 2.018
408.70 2.015
408.80 2.012
408.90 2.009
409.00 2.006
409.10 2.003
409.20 2.001
409.30 1.998
409.40 1.996
409.50 1.993
409.60 1.991
409.70 1.989
409.80 1.987
409.90 1.986
410.00 1.984
410.10 1.983
410.20 1.981
410.30 1.98
410.40 1.978
410.50 1.976
410.60 1.974
410.70 1.973
410.80 1.972
410.90 1.971
411.00 1.971
411.10 1.97
411.20 1.969
411.30 1.969
411.40 1.968
411.50 1.968
411.60 1.968
411.70 1.967
411.80 1.967
411.90 1.967
412.00 1.967
412.10 1.966
412.20 1.966
412.30 1.966
412.40 1.966
412.50 1.966
412.60 1.965
412.70 1.965
412.80 1.965
412.90 1.965
413.00 1.964
413.10 1.964
413.20 1.964
413.30 1.963
413.40 1.963
413.50 1.963
413.60 1.962
413.70 1.962
413.80 1.961
413.90 1.961
414.00 1.96
414.10 1.96
414.20 1.959
414.30 1.959
414.40 1.958
414.50 1.958
414.60 1.957
414.70 1.957
414.80 1.956
414.90 1.955
415.00 1.955
415.10 1.954
415.20 1.953
415.30 1.952
415.40 1.952
415.50 1.951
415.60 1.95
415.70 1.949
415.80 1.948
415.90 1.948
416.00 1.947
416.10 1.946
416.20 1.945
416.30 1.944
416.40 1.943
416.50 1.942
416.60 1.941
416.70 1.94
416.80 1.939
416.90 1.938
417.00 1.937
417.10 1.936
417.20 1.935
417.30 1.934
417.40 1.933
417.50 1.932
417.60 1.93
417.70 1.929
417.80 1.928
417.90 1.927
418.00 1.926
418.10 1.924
418.20 1.923
418.30 1.922
418.40 1.921
418.50 1.919
418.60 1.918
418.70 1.917
418.80 1.915
418.90 1.914
419.00 1.913
419.10 1.911
419.20 1.91
419.30 1.908
419.40 1.907
419.50 1.906
419.60 1.904
419.70 1.903
419.80 1.901
419.90 1.9
420.00 1.898
420.10 1.897
420.20 1.895
420.30 1.894
420.40 1.892
420.50 1.891
420.60 1.889
420.70 1.887
420.80 1.886
420.90 1.884
421.00 1.882
421.10 1.881
421.20 1.879
421.30 1.877
421.40 1.876
421.50 1.874
421.60 1.872
421.70 1.871
421.80 1.869
421.90 1.867
422.00 1.865
422.10 1.864
422.20 1.862
422.30 1.86
422.40 1.858
422.50 1.856
422.60 1.854
422.70 1.853
422.80 1.851
422.90 1.849
423.00 1.847
423.10 1.845
423.20 1.843
423.30 1.841
423.40 1.839
423.50 1.837
423.60 1.835
423.70 1.833
423.80 1.831
423.90 1.829
424.00 1.827
424.10 1.825
424.20 1.823
424.30 1.821
424.40 1.818
424.50 1.816
424.60 1.814
424.70 1.812
424.80 1.81
424.90 1.807
425.00 1.805
425.10 1.803
425.20 1.801
425.30 1.798
425.40 1.796
425.50 1.794
425.60 1.791
425.70 1.789
425.80 1.787
425.90 1.784
426.00 1.782
426.10 1.779
426.20 1.777
426.30 1.774
426.40 1.772
426.50 1.769
426.60 1.767
426.70 1.764
426.80 1.761
426.90 1.759
427.00 1.756
427.10 1.753
427.20 1.75
427.30 1.748
427.40 1.745
427.50 1.742
427.60 1.739
427.70 1.736
427.80 1.734
427.90 1.731
428.00 1.728
428.10 1.725
428.20 1.722
428.30 1.719
428.40 1.716
428.50 1.712
428.60 1.709
428.70 1.706
428.80 1.703
428.90 1.7
429.00 1.696
429.10 1.693
429.20 1.69
429.30 1.687
429.40 1.683
429.50 1.68
429.60 1.676
429.70 1.673
429.80 1.669
429.90 1.666
430.00 1.662
430.10 1.658
430.20 1.655
430.30 1.651
430.40 1.647
430.50 1.644
430.60 1.64
430.70 1.636
430.80 1.632
430.90 1.628
431.00 1.624
431.10 1.62
431.20 1.616
431.30 1.612
431.40 1.608
431.50 1.604
431.60 1.6
431.70 1.596
431.80 1.592
431.90 1.588
432.00 1.584
432.10 1.579
432.20 1.575
432.30 1.571
432.40 1.567
432.50 1.562
432.60 1.558
432.70 1.554
432.80 1.549
432.90 1.545
433.00 1.54
433.10 1.535
433.20 1.531
433.30 1.526
433.40 1.521
433.50 1.516
433.60 1.51
433.70 1.504
433.80 1.498
433.90 1.491
434.00 1.486
434.10 1.485
434.20 1.489
434.30 1.493
434.40 1.497
434.50 1.5
434.60 1.503
434.70 1.506
434.80 1.509
434.90 1.511
435.00 1.513
435.10 1.516
435.20 1.518
435.30 1.52
435.40 1.522
435.50 1.523
435.60 1.525
435.70 1.527
435.80 1.529
435.90 1.53
436.00 1.532
436.10 1.534
436.20 1.535
436.30 1.537
436.40 1.538
436.50 1.54
436.60 1.541
436.70 1.543
436.80 1.544
436.90 1.546
437.00 1.547
437.10 1.548
437.20 1.549
437.30 1.551
437.40 1.552
437.50 1.553
437.60 1.554
437.70 1.555
437.80 1.556
437.90 1.557
438.00 1.558
438.10 1.559
438.20 1.56
438.30 1.56
438.40 1.561
438.50 1.562
438.60 1.563
438.70 1.563
438.80 1.564
438.90 1.564
439.00 1.565
439.10 1.565
439.20 1.566
439.30 1.566
439.40 1.567
439.50 1.567
439.60 1.567
439.70 1.568
439.80 1.568
439.90 1.568
440.00 1.568
440.10 1.569
440.20 1.569
440.30 1.569
440.40 1.569
440.50 1.569
440.60 1.569
440.70 1.569
440.80 1.569
440.90 1.569
441.00 1.569
441.10 1.569
441.20 1.569
441.30 1.568
441.40 1.568
441.50 1.568
441.60 1.568
441.70 1.568
441.80 1.567
441.90 1.567
442.00 1.567
442.10 1.566
442.20 1.566
442.30 1.566
442.40 1.565
442.50 1.565
442.60 1.564
442.70 1.564
442.80 1.563
442.90 1.563
443.00 1.562
443.10 1.562
443.20 1.561
443.30 1.561
443.40 1.56
443.50 1.559
443.60 1.559
443.70 1.558
443.80 1.558
443.90 1.557
444.00 1.556
444.10 1.556
444.20 1.555
444.30 1.554
444.40 1.554
444.50 1.553
444.60 1.552
444.70 1.551
444.80 1.551
444.90 1.55
445.00 1.549
445.10 1.548
445.20 1.547
445.30 1.547
445.40 1.546
445.50 1.545
445.60 1.544
445.70 1.543
445.80 1.542
445.90 1.541
446.00 1.541
446.10 1.54
446.20 1.539
446.30 1.538
446.40 1.537
446.50 1.536
446.60 1.535
446.70 1.534
446.80 1.533
446.90 1.532
447.00 1.531
447.10 1.53
447.20 1.529
447.30 1.528
447.40 1.527
447.50 1.526
447.60 1.525
447.70 1.524
447.80 1.523
447.90 1.522
448.00 1.521
448.10 1.52
448.20 1.519
448.30 1.518
448.40 1.517
448.50 1.516
448.60 1.515
448.70 1.514
448.80 1.513
448.90 1.512
449.00 1.511
449.10 1.51
449.20 1.509
449.30 1.508
449.40 1.507
449.50 1.506
449.60 1.505
449.70 1.504
449.80 1.502
449.90 1.501
450.00 1.5
450.10 1.499
450.20 1.498
450.30 1.497
450.40 1.496
450.50 1.495
450.60 1.494
450.70 1.493
450.80 1.491
450.90 1.49
451.00 1.489
451.10 1.488
451.20 1.487
451.30 1.486
451.40 1.485
451.50 1.484
451.60 1.483
451.70 1.481
451.80 1.48
451.90 1.479
452.00 1.478
452.10 1.477
452.20 1.476
452.30 1.475
452.40 1.473
452.50 1.472
452.60 1.471
452.70 1.47
452.80 1.469
452.90 1.468
453.00 1.467
453.10 1.465
453.20 1.464
453.30 1.463
453.40 1.462
453.50 1.461
453.60 1.46
453.70 1.459
453.80 1.457
453.90 1.456
454.00 1.455
454.10 1.454
454.20 1.453
454.30 1.452
454.40 1.451
454.50 1.449
454.60 1.448
454.70 1.447
454.80 1.446
454.90 1.445
455.00 1.444
455.10 1.442
455.20 1.441
455.30 1.44
455.40 1.439
455.50 1.438
455.60 1.437
455.70 1.435
455.80 1.434
455.90 1.433
456.00 1.432
456.10 1.431
456.20 1.43
456.30 1.428
456.40 1.427
456.50 1.426
456.60 1.425
456.70 1.424
456.80 1.423
456.90 1.421
457.00 1.42
457.10 1.419
457.20 1.418
457.30 1.417
457.40 1.416
457.50 1.414
457.60 1.413
457.70 1.412
457.80 1.411
457.90 1.41
458.00 1.409
458.10 1.407
458.20 1.406
458.30 1.405
458.40 1.404
458.50 1.403
458.60 1.402
458.70 1.4
458.80 1.399
458.90 1.398
459.00 1.397
459.10 1.396
459.20 1.395
459.30 1.393
459.40 1.392
459.50 1.391
459.60 1.39
459.70 1.389
459.80 1.388
459.90 1.386
460.00 1.385
460.10 1.384
460.20 1.383
460.30 1.382
460.40 1.381
460.50 1.379
460.60 1.378
460.70 1.377
460.80 1.376
460.90 1.375
461.00 1.374
461.10 1.372
461.20 1.371
461.30 1.37
461.40 1.369
461.50 1.368
461.60 1.367
461.70 1.365
461.80 1.364
461.90 1.363
462.00 1.362
462.10 1.361
462.20 1.36
462.30 1.358
462.40 1.357
462.50 1.356
462.60 1.355
462.70 1.354
462.80 1.353
462.90 1.351
463.00 1.35
463.10 1.349
463.20 1.348
463.30 1.347
463.40 1.346
463.50 1.344
463.60 1.343
463.70 1.342
463.80 1.341
463.90 1.34
464.00 1.339
464.10 1.337
464.20 1.336
464.30 1.335
464.40 1.334
464.50 1.333
464.60 1.332
464.70 1.33
464.80 1.329
464.90 1.328
465.00 1.327
465.10 1.326
465.20 1.325
465.30 1.323
465.40 1.322
465.50 1.321
465.60 1.32
465.70 1.319
465.80 1.317
465.90 1.316
466.00 1.315
466.10 1.314
466.20 1.313
466.30 1.312
466.40 1.31
466.50 1.309
466.60 1.308
466.70 1.307
466.80 1.306
466.90 1.304
467.00 1.303
467.10 1.302
467.20 1.301
467.30 1.3
467.40 1.299
467.50 1.297
467.60 1.296
467.70 1.295
467.80 1.294
467.90 1.293
468.00 1.291
468.10 1.29
468.20 1.289
468.30 1.288
468.40 1.287
468.50 1.285
468.60 1.284
468.70 1.283
468.80 1.282
468.90 1.281
469.00 1.279
469.10 1.278
469.20 1.277
469.30 1.276
469.40 1.274
469.50 1.273
469.60 1.272
469.70 1.271
469.80 1.27
469.90 1.268
470.00 1.267
470.10 1.266
470.20 1.265
470.30 1.263
470.40 1.262
470.50 1.261
470.60 1.26
470.70 1.258
470.80 1.257
470.90 1.256
471.00 1.255
471.10 1.253
471.20 1.252
471.30 1.251
471.40 1.25
471.50 1.248
471.60 1.247
471.70 1.246
471.80 1.244
471.90 1.243
472.00 1.242
472.10 1.241
472.20 1.239
472.30 1.238
472.40 1.237
472.50 1.235
472.60 1.234
472.70 1.233
472.80 1.231
472.90 1.23
473.00 1.229
473.10 1.227
473.20 1.226
473.30 1.225
473.40 1.223
473.50 1.222
473.60 1.221
473.70 1.219
473.80 1.218
473.90 1.216
474.00 1.215
474.10 1.214
474.20 1.212
474.30 1.211
474.40 1.209
474.50 1.208
474.60 1.207
474.70 1.205
474.80 1.204
474.90 1.202
475.00 1.201
475.10 1.199
475.20 1.198
475.30 1.196
475.40 1.195
475.50 1.193
475.60 1.192
475.70 1.19
475.80 1.189
475.90 1.187
476.00 1.186
476.10 1.184
476.20 1.183
476.30 1.181
476.40 1.179
476.50 1.178
476.60 1.176
476.70 1.175
476.80 1.173
476.90 1.171
477.00 1.17
477.10 1.168
477.20 1.166
477.30 1.165
477.40 1.163
477.50 1.161
477.60 1.159
477.70 1.158
477.80 1.156
477.90 1.154
478.00 1.152
478.10 1.151
478.20 1.149
478.30 1.147
478.40 1.145
478.50 1.143
478.60 1.141
478.70 1.139
478.80 1.137
478.90 1.135
479.00 1.133
479.10 1.132
479.20 1.129
479.30 1.127
479.40 1.125
479.50 1.123
479.60 1.121
479.70 1.119
479.80 1.117
479.90 1.115
480.00 1.113
480.10 1.11
480.20 1.108
480.30 1.106
480.40 1.103
480.50 1.101
480.60 1.099
480.70 1.096
480.80 1.094
480.90 1.092
481.00 1.089
481.10 1.087
481.20 1.084
481.30 1.082
481.40 1.079
481.50 1.076
481.60 1.074
481.70 1.071
481.80 1.068
481.90 1.066
482.00 1.063
482.10 1.061
482.20 1.058
482.30 1.055
482.40 1.052
482.50 1.049
482.60 1.046
482.70 1.043
482.80 1.04
482.90 1.037
483.00 1.034
483.10 1.031
483.20 1.028
483.30 1.024
483.40 1.021
483.50 1.017
483.60 1.014
483.70 1.011
483.80 1.007
483.90 1.004
484.00 1.001
484.10 0.9974
484.20 0.9938
484.30 0.9902
484.40 0.9866
484.50 0.983
484.60 0.9794
484.70 0.9757
484.80 0.972
484.90 0.9684
485.00 0.9647
485.10 0.961
485.20 0.9574
485.30 0.9538
485.40 0.9504
485.50 0.9472
485.60 0.9445
485.70 0.9422
485.80 0.9422
485.90 0.9431
486.00 0.9484
486.10 0.9588
486.20 0.9547
486.30 0.9432
486.40 0.9393
486.50 0.9368
486.60 0.9366
486.70 0.9376
486.80 0.9391
486.90 0.941
487.00 0.943
487.10 0.9452
487.20 0.9474
487.30 0.9496
487.40 0.9519
487.50 0.9541
487.60 0.9563
487.70 0.9585
487.80 0.9606
487.90 0.9627
488.00 0.9648
488.10 0.9669
488.20 0.9688
488.30 0.9706
488.40 0.9723
488.50 0.9741
488.60 0.9759
488.70 0.9777
488.80 0.9795
488.90 0.9813
489.00 0.983
489.10 0.9848
489.20 0.9863
489.30 0.9876
489.40 0.989
489.50 0.9903
489.60 0.9917
489.70 0.993
489.80 0.9944
489.90 0.9957
490.00 0.9971
490.10 0.9984
490.20 0.9995
490.30 1
490.40 1.001
490.50 1.002
490.60 1.003
490.70 1.004
490.80 1.005
490.90 1.006
491.00 1.007
491.10 1.008
491.20 1.009
491.30 1.009
491.40 1.01
491.50 1.011
491.60 1.011
491.70 1.012
491.80 1.012
491.90 1.013
492.00 1.014
492.10 1.014
492.20 1.015
492.30 1.015
492.40 1.015
492.50 1.016
492.60 1.016
492.70 1.016
492.80 1.017
492.90 1.017
493.00 1.017
493.10 1.018
493.20 1.018
493.30 1.018
493.40 1.018
493.50 1.018
493.60 1.018
493.70 1.019
493.80 1.019
493.90 1.019
494.00 1.019
494.10 1.019
494.20 1.019
494.30 1.019
494.40 1.019
494.50 1.019
494.60 1.019
494.70 1.019
494.80 1.019
494.90 1.019
495.00 1.018
495.10 1.018
495.20 1.018
495.30 1.018
495.40 1.018
495.50 1.018
495.60 1.017
495.70 1.017
495.80 1.017
495.90 1.017
496.00 1.017
496.10 1.016
496.20 1.016
496.30 1.016
496.40 1.015
496.50 1.015
496.60 1.015
496.70 1.015
496.80 1.014
496.90 1.014
497.00 1.014
497.10 1.013
497.20 1.013
497.30 1.013
497.40 1.012
497.50 1.012
497.60 1.011
497.70 1.011
497.80 1.011
497.90 1.01
498.00 1.01
498.10 1.009
498.20 1.009
498.30 1.008
498.40 1.008
498.50 1.007
498.60 1.007
498.70 1.007
498.80 1.006
498.90 1.006
499.00 1.005
499.10 1.005
499.20 1.004
499.30 1.004
499.40 1.003
499.50 1.003
499.60 1.002
499.70 1.002
499.80 1.001
499.90 1.001
500.00 1
500.10 0.9995
500.20 0.9989
500.30 0.9984
500.40 0.9978
500.50 0.9973
500.60 0.9967
500.70 0.9961
500.80 0.9956
500.90 0.995
501.00 0.9945
501.10 0.9939
501.20 0.9933
501.30 0.9927
501.40 0.9922
501.50 0.9916
501.60 0.991
501.70 0.9904
501.80 0.9898
501.90 0.9892
502.00 0.9886
502.10 0.988
502.20 0.9874
502.30 0.9868
502.40 0.9862
502.50 0.9856
502.60 0.985
502.70 0.9844
502.80 0.9838
502.90 0.9832
503.00 0.9825
503.10 0.9819
503.20 0.9813
503.30 0.9807
503.40 0.9801
503.50 0.9794
503.60 0.9788
503.70 0.9782
503.80 0.9775
503.90 0.9769
504.00 0.9763
504.10 0.9757
504.20 0.975
504.30 0.9744
504.40 0.9737
504.50 0.9731
504.60 0.9725
504.70 0.9718
504.80 0.9712
504.90 0.9705
505.00 0.9699
505.10 0.9693
505.20 0.9686
505.30 0.968
505.40 0.9673
505.50 0.9667
505.60 0.966
505.70 0.9654
505.80 0.9647
505.90 0.9641
506.00 0.9634
506.10 0.9628
506.20 0.9621
506.30 0.9615
506.40 0.9608
506.50 0.9601
506.60 0.9595
506.70 0.9588
506.80 0.9582
506.90 0.9575
507.00 0.9569
507.10 0.9562
507.20 0.9556
507.30 0.9549
507.40 0.9542
507.50 0.9536
507.60 0.9529
507.70 0.9522
507.80 0.9516
507.90 0.9509
508.00 0.9503
508.10 0.9496
508.20 0.9489
508.30 0.9483
508.40 0.9476
508.50 0.947
508.60 0.9463
508.70 0.9456
508.80 0.945
508.90 0.9443
509.00 0.9437
509.10 0.943
509.20 0.9423
509.30 0.9417
509.40 0.941
509.50 0.9403
509.60 0.9397
509.70 0.939
509.80 0.9383
509.90 0.9377
510.00 0.937
510.10 0.9364
510.20 0.9357
510.30 0.935
510.40 0.9344
510.50 0.9337
510.60 0.933
510.70 0.9324
510.80 0.9317
510.90 0.9311
511.00 0.9304
511.10 0.9297
511.20 0.9291
511.30 0.9284
511.40 0.9277
511.50 0.9271
511.60 0.9264
511.70 0.9258
511.80 0.9251
511.90 0.9244
512.00 0.9238
512.10 0.9231
512.20 0.9225
512.30 0.9218
512.40 0.9211
512.50 0.9205
512.60 0.9198
512.70 0.9192
512.80 0.9185
512.90 0.9178
513.00 0.9172
513.10 0.9165
513.20 0.9159
513.30 0.9152
513.40 0.9146
513.50 0.9139
513.60 0.9132
513.70 0.9126
513.80 0.9119
513.90 0.9113
514.00 0.9106
514.10 0.91
514.20 0.9093
514.30 0.9087
514.40 0.908
514.50 0.9073
514.60 0.9067
514.70 0.906
514.80 0.9054
514.90 0.9047
515.00 0.9041
515.10 0.9034
515.20 0.9028
515.30 0.9021
515.40 0.9015
515.50 0.9008
515.60 0.9002
515.70 0.8995
515.80 0.8989
515.90 0.8982
516.00 0.8976
516.10 0.8969
516.20 0.8963
516.30 0.8956
516.40 0.895
516.50 0.8943
516.60 0.8937
516.70 0.893
516.80 0.8924
516.90 0.8917
517.00 0.8911
517.10 0.8905
517.20 0.8898
517.30 0.8892
517.40 0.8885
517.50 0.8879
517.60 0.8872
517.70 0.8866
517.80 0.886
517.90 0.8853
518.00 0.8847
518.10 0.884
518.20 0.8834
518.30 0.8828
518.40 0.8821
518.50 0.8815
518.60 0.8808
518.70 0.8802
518.80 0.8796
518.90 0.8789
519.00 0.8783
519.10 0.8777
519.20 0.877
519.30 0.8764
519.40 0.8758
519.50 0.8751
519.60 0.8745
519.70 0.8739
519.80 0.8732
519.90 0.8726
520.00 0.872
520.10 0.8713
520.20 0.8707
520.30 0.8701
520.40 0.8694
520.50 0.8688
520.60 0.8682
520.70 0.8675
520.80 0.8669
520.90 0.8663
521.00 0.8657
521.10 0.865
521.20 0.8644
521.30 0.8638
521.40 0.8632
521.50 0.8625
521.60 0.8619
521.70 0.8613
521.80 0.8607
521.90 0.86
522.00 0.8594
522.10 0.8588
522.20 0.8582
522.30 0.8575
522.40 0.8569
522.50 0.8563
522.60 0.8557
522.70 0.8551
522.80 0.8545
522.90 0.8538
523.00 0.8532
523.10 0.8526
523.20 0.852
523.30 0.8514
523.40 0.8507
523.50 0.8501
523.60 0.8495
523.70 0.8489
523.80 0.8483
523.90 0.8477
524.00 0.8471
524.10 0.8464
524.20 0.8458
524.30 0.8452
524.40 0.8446
524.50 0.844
524.60 0.8434
524.70 0.8428
524.80 0.8422
524.90 0.8416
525.00 0.841
525.10 0.8404
525.20 0.8397
525.30 0.8391
525.40 0.8385
525.50 0.8379
525.60 0.8373
525.70 0.8367
525.80 0.8361
525.90 0.8355
526.00 0.8349
526.10 0.8343
526.20 0.8337
526.30 0.8331
526.40 0.8325
526.50 0.8319
526.60 0.8313
526.70 0.8307
526.80 0.8301
526.90 0.8295
527.00 0.8289
527.10 0.8283
527.20 0.8277
527.30 0.8271
527.40 0.8265
527.50 0.8259
527.60 0.8253
527.70 0.8247
527.80 0.8241
527.90 0.8235
528.00 0.8229
528.10 0.8223
528.20 0.8218
528.30 0.8212
528.40 0.8206
528.50 0.82
528.60 0.8194
528.70 0.8188
528.80 0.8182
528.90 0.8176
529.00 0.817
529.10 0.8164
529.20 0.8159
529.30 0.8153
529.40 0.8147
529.50 0.8141
529.60 0.8135
529.70 0.8129
529.80 0.8123
529.90 0.8118
530.00 0.8112
530.10 0.8106
530.20 0.81
530.30 0.8094
530.40 0.8088
530.50 0.8083
530.60 0.8077
530.70 0.8071
530.80 0.8065
530.90 0.8059
531.00 0.8054
531.10 0.8048
531.20 0.8042
531.30 0.8036
531.40 0.8031
531.50 0.8025
531.60 0.8019
531.70 0.8013
531.80 0.8008
531.90 0.8002
532.00 0.7996
532.10 0.799
532.20 0.7985
532.30 0.7979
532.40 0.7973
532.50 0.7968
532.60 0.7962
532.70 0.7956
532.80 0.795
532.90 0.7945
533.00 0.7939
533.10 0.7933
533.20 0.7928
533.30 0.7922
533.40 0.7916
533.50 0.7911
533.60 0.7905
533.70 0.7899
533.80 0.7894
533.90 0.7888
534.00 0.7882
534.10 0.7877
534.20 0.7871
534.30 0.7865
534.40 0.786
534.50 0.7854
534.60 0.7849
534.70 0.7843
534.80 0.7837
534.90 0.7832
535.00 0.7826
535.10 0.7821
535.20 0.7815
535.30 0.7809
535.40 0.7804
535.50 0.7798
535.60 0.7793
535.70 0.7787
535.80 0.7782
535.90 0.7776
536.00 0.7771
536.10 0.7765
536.20 0.776
536.30 0.7754
536.40 0.7748
536.50 0.7743
536.60 0.7737
536.70 0.7732
536.80 0.7726
536.90 0.7721
537.00 0.7715
537.10 0.771
537.20 0.7704
537.30 0.7699
537.40 0.7693
537.50 0.7688
537.60 0.7683
537.70 0.7677
537.80 0.7672
537.90 0.7666
538.00 0.7661
538.10 0.7655
538.20 0.765
538.30 0.7644
538.40 0.7639
538.50 0.7634
538.60 0.7628
538.70 0.7623
538.80 0.7617
538.90 0.7612
539.00 0.7606
539.10 0.7601
539.20 0.7596
539.30 0.759
539.40 0.7585
539.50 0.758
539.60 0.7574
539.70 0.7569
539.80 0.7563
539.90 0.7558
540.00 0.7553
540.10 0.7547
540.20 0.7542
540.30 0.7537
540.40 0.7531
540.50 0.7526
540.60 0.7521
540.70 0.7515
540.80 0.751
540.90 0.7505
541.00 0.7499
541.10 0.7494
541.20 0.7489
541.30 0.7483
541.40 0.7478
541.50 0.7473
541.60 0.7468
541.70 0.7462
541.80 0.7457
541.90 0.7452
542.00 0.7447
542.10 0.7441
542.20 0.7436
542.30 0.7431
542.40 0.7426
542.50 0.742
542.60 0.7415
542.70 0.741
542.80 0.7405
542.90 0.7399
543.00 0.7394
543.10 0.7389
543.20 0.7384
543.30 0.7378
543.40 0.7373
543.50 0.7368
543.60 0.7363
543.70 0.7358
543.80 0.7353
543.90 0.7347
544.00 0.7342
544.10 0.7337
544.20 0.7332
544.30 0.7327
544.40 0.7322
544.50 0.7316
544.60 0.7311
544.70 0.7306
544.80 0.7301
544.90 0.7296
545.00 0.7291
545.10 0.7286
545.20 0.728
545.30 0.7275
545.40 0.727
545.50 0.7265
545.60 0.726
545.70 0.7255
545.80 0.725
545.90 0.7245
546.00 0.724
546.10 0.7235
546.20 0.7229
546.30 0.7224
546.40 0.7219
546.50 0.7214
546.60 0.7209
546.70 0.7204
546.80 0.7199
546.90 0.7194
547.00 0.7189
547.10 0.7184
547.20 0.7179
547.30 0.7174
547.40 0.7169
547.50 0.7164
547.60 0.7159
547.70 0.7154
547.80 0.7149
547.90 0.7144
548.00 0.7139
548.10 0.7134
548.20 0.7129
548.30 0.7124
548.40 0.7119
548.50 0.7114
548.60 0.7109
548.70 0.7104
548.80 0.7099
548.90 0.7094
549.00 0.7089
549.10 0.7084
549.20 0.7079
549.30 0.7074
549.40 0.7069
549.50 0.7064
549.60 0.7059
549.70 0.7055
549.80 0.705
549.90 0.7045
550.00 0.704
550.10 0.7035
550.20 0.703
550.30 0.7025
550.40 0.702
550.50 0.7015
550.60 0.701
550.70 0.7005
550.80 0.7001
550.90 0.6996
551.00 0.6991
551.10 0.6986
551.20 0.6981
551.30 0.6976
551.40 0.6971
551.50 0.6967
551.60 0.6962
551.70 0.6957
551.80 0.6952
551.90 0.6947
552.00 0.6942
552.10 0.6938
552.20 0.6933
552.30 0.6928
552.40 0.6923
552.50 0.6918
552.60 0.6913
552.70 0.6909
552.80 0.6904
552.90 0.6899
553.00 0.6894
553.10 0.689
553.20 0.6885
553.30 0.688
553.40 0.6875
553.50 0.687
553.60 0.6866
553.70 0.6861
553.80 0.6856
553.90 0.6851
554.00 0.6847
554.10 0.6842
554.20 0.6837
554.30 0.6832
554.40 0.6828
554.50 0.6823
554.60 0.6818
554.70 0.6814
554.80 0.6809
554.90 0.6804
555.00 0.6799
555.10 0.6795
555.20 0.679
555.30 0.6785
555.40 0.6781
555.50 0.6776
555.60 0.6771
555.70 0.6767
555.80 0.6762
555.90 0.6757
556.00 0.6753
556.10 0.6748
556.20 0.6743
556.30 0.6739
556.40 0.6734
556.50 0.6729
556.60 0.6725
556.70 0.672
556.80 0.6715
556.90 0.6711
557.00 0.6706
557.10 0.6701
557.20 0.6697
557.30 0.6692
557.40 0.6688
557.50 0.6683
557.60 0.6678
557.70 0.6674
557.80 0.6669
557.90 0.6665
558.00 0.666
558.10 0.6655
558.20 0.6651
558.30 0.6646
558.40 0.6642
558.50 0.6637
558.60 0.6633
558.70 0.6628
558.80 0.6624
558.90 0.6619
559.00 0.6614
559.10 0.661
559.20 0.6605
559.30 0.6601
559.40 0.6596
559.50 0.6592
559.60 0.6587
559.70 0.6583
559.80 0.6578
559.90 0.6574
560.00 0.6569
560.10 0.6565
560.20 0.656
560.30 0.6556
560.40 0.6551
560.50 0.6547
560.60 0.6542
560.70 0.6538
560.80 0.6533
560.90 0.6529
561.00 0.6524
561.10 0.652
561.20 0.6515
561.30 0.6511
561.40 0.6506
561.50 0.6502
561.60 0.6497
561.70 0.6493
561.80 0.6489
561.90 0.6484
562.00 0.648
562.10 0.6475
562.20 0.6471
562.30 0.6466
562.40 0.6462
562.50 0.6458
562.60 0.6453
562.70 0.6449
562.80 0.6444
562.90 0.644
563.00 0.6436
563.10 0.6431
563.20 0.6427
563.30 0.6422
563.40 0.6418
563.50 0.6414
563.60 0.6409
563.70 0.6405
563.80 0.6401
563.90 0.6396
564.00 0.6392
564.10 0.6387
564.20 0.6383
564.30 0.6379
564.40 0.6374
564.50 0.637
564.60 0.6366
564.70 0.6361
564.80 0.6357
564.90 0.6353
565.00 0.6348
565.10 0.6344
565.20 0.634
565.30 0.6335
565.40 0.6331
565.50 0.6327
565.60 0.6323
565.70 0.6318
565.80 0.6314
565.90 0.631
566.00 0.6305
566.10 0.6301
566.20 0.6297
566.30 0.6293
566.40 0.6288
566.50 0.6284
566.60 0.628
566.70 0.6276
566.80 0.6271
566.90 0.6267
567.00 0.6263
567.10 0.6258
567.20 0.6254
567.30 0.625
567.40 0.6246
567.50 0.6242
567.60 0.6237
567.70 0.6233
567.80 0.6229
567.90 0.6225
568.00 0.622
568.10 0.6216
568.20 0.6212
568.30 0.6208
568.40 0.6204
568.50 0.6199
568.60 0.6195
568.70 0.6191
568.80 0.6187
568.90 0.6183
569.00 0.6178
569.10 0.6174
569.20 0.617
569.30 0.6166
569.40 0.6162
569.50 0.6158
569.60 0.6153
569.70 0.6149
569.80 0.6145
569.90 0.6141
570.00 0.6137
570.10 0.6133
570.20 0.6129
570.30 0.6124
570.40 0.612
570.50 0.6116
570.60 0.6112
570.70 0.6108
570.80 0.6104
570.90 0.61
571.00 0.6096
571.10 0.6092
571.20 0.6087
571.30 0.6083
571.40 0.6079
571.50 0.6075
571.60 0.6071
571.70 0.6067
571.80 0.6063
571.90 0.6059
572.00 0.6055
572.10 0.6051
572.20 0.6047
572.30 0.6043
572.40 0.6038
572.50 0.6034
572.60 0.603
572.70 0.6026
572.80 0.6022
572.90 0.6018
573.00 0.6014
573.10 0.601
573.20 0.6006
573.30 0.6002
573.40 0.5998
573.50 0.5994
573.60 0.599
573.70 0.5986
573.80 0.5982
573.90 0.5978
574.00 0.5974
574.10 0.597
574.20 0.5966
574.30 0.5962
574.40 0.5958
574.50 0.5954
574.60 0.595
574.70 0.5946
574.80 0.5942
574.90 0.5938
575.00 0.5934
575.10 0.593
575.20 0.5926
575.30 0.5922
575.40 0.5918
575.50 0.5914
575.60 0.591
575.70 0.5906
575.80 0.5902
575.90 0.5898
576.00 0.5894
576.10 0.5891
576.20 0.5887
576.30 0.5883
576.40 0.5879
576.50 0.5875
576.60 0.5871
576.70 0.5867
576.80 0.5863
576.90 0.5859
577.00 0.5855
577.10 0.5851
577.20 0.5847
577.30 0.5843
577.40 0.584
577.50 0.5836
577.60 0.5832
577.70 0.5828
577.80 0.5824
577.90 0.582
578.00 0.5816
578.10 0.5812
578.20 0.5809
578.30 0.5805
578.40 0.5801
578.50 0.5797
578.60 0.5793
578.70 0.5789
578.80 0.5785
578.90 0.5782
579.00 0.5778
579.10 0.5774
579.20 0.577
579.30 0.5766
579.40 0.5762
579.50 0.5759
579.60 0.5755
579.70 0.5751
579.80 0.5747
579.90 0.5743
580.00 0.5739
580.10 0.5736
580.20 0.5732
580.30 0.5728
580.40 0.5724
580.50 0.572
580.60 0.5717
580.70 0.5713
580.80 0.5709
580.90 0.5705
581.00 0.5701
581.10 0.5698
581.20 0.5694
581.30 0.569
581.40 0.5686
581.50 0.5683
581.60 0.5679
581.70 0.5675
581.80 0.5671
581.90 0.5668
582.00 0.5664
582.10 0.566
582.20 0.5656
582.30 0.5653
582.40 0.5649
582.50 0.5645
582.60 0.5641
582.70 0.5638
582.80 0.5634
582.90 0.563
583.00 0.5626
583.10 0.5623
583.20 0.5619
583.30 0.5615
583.40 0.5612
583.50 0.5608
583.60 0.5604
583.70 0.56
583.80 0.5597
583.90 0.5593
584.00 0.5589
584.10 0.5586
584.20 0.5582
584.30 0.5578
584.40 0.5575
584.50 0.5571
584.60 0.5567
584.70 0.5564
584.80 0.556
584.90 0.5556
585.00 0.5553
585.10 0.5549
585.20 0.5545
585.30 0.5542
585.40 0.5538
585.50 0.5534
585.60 0.5531
585.70 0.5527
585.80 0.5523
585.90 0.552
586.00 0.5516
586.10 0.5513
586.20 0.5509
586.30 0.5505
586.40 0.5502
586.50 0.5498
586.60 0.5494
586.70 0.5491
586.80 0.5487
586.90 0.5484
587.00 0.548
587.10 0.5476
587.20 0.5473
587.30 0.5469
587.40 0.5466
587.50 0.5462
587.60 0.5458
587.70 0.5455
587.80 0.5451
587.90 0.5448
588.00 0.5444
588.10 0.5441
588.20 0.5437
588.30 0.5433
588.40 0.543
588.50 0.5426
588.60 0.5423
588.70 0.5419
588.80 0.5416
588.90 0.5412
589.00 0.5409
589.10 0.5405
589.20 0.5402
589.30 0.5398
589.40 0.5394
589.50 0.5391
589.60 0.5387
589.70 0.5384
589.80 0.538
589.90 0.5377
590.00 0.5373
590.10 0.537
590.20 0.5366
590.30 0.5363
590.40 0.5359
590.50 0.5356
590.60 0.5352
590.70 0.5349
590.80 0.5345
590.90 0.5342
591.00 0.5338
591.10 0.5335
591.20 0.5331
591.30 0.5328
591.40 0.5324
591.50 0.5321
591.60 0.5317
591.70 0.5314
591.80 0.5311
591.90 0.5307
592.00 0.5304
592.10 0.53
592.20 0.5297
592.30 0.5293
592.40 0.529
592.50 0.5286
592.60 0.5283
592.70 0.5279
592.80 0.5276
592.90 0.5273
593.00 0.5269
593.10 0.5266
593.20 0.5262
593.30 0.5259
593.40 0.5255
593.50 0.5252
593.60 0.5249
593.70 0.5245
593.80 0.5242
593.90 0.5238
594.00 0.5235
594.10 0.5232
594.20 0.5228
594.30 0.5225
594.40 0.5221
594.50 0.5218
594.60 0.5215
594.70 0.5211
594.80 0.5208
594.90 0.5204
595.00 0.5201
595.10 0.5198
595.20 0.5194
595.30 0.5191
595.40 0.5188
595.50 0.5184
595.60 0.5181
595.70 0.5178
595.80 0.5174
595.90 0.5171
596.00 0.5167
596.10 0.5164
596.20 0.5161
596.30 0.5157
596.40 0.5154
596.50 0.5151
596.60 0.5147
596.70 0.5144
596.80 0.5141
596.90 0.5137
597.00 0.5134
597.10 0.5131
597.20 0.5127
597.30 0.5124
597.40 0.5121
597.50 0.5117
597.60 0.5114
597.70 0.5111
597.80 0.5108
597.90 0.5104
598.00 0.5101
598.10 0.5098
598.20 0.5094
598.30 0.5091
598.40 0.5088
598.50 0.5085
598.60 0.5081
598.70 0.5078
598.80 0.5075
598.90 0.5071
599.00 0.5068
599.10 0.5065
599.20 0.5062
599.30 0.5058
599.40 0.5055
599.50 0.5052
599.60 0.5049
599.70 0.5045
599.80 0.5042
599.90 0.5039
600.00 0.5036
600.10 0.5032
600.20 0.5029
600.30 0.5026
600.40 0.5023
600.50 0.5019
600.60 0.5016
600.70 0.5013
600.80 0.501
600.90 0.5006
601.00 0.5003
601.10 0.5
601.20 0.4997
601.30 0.4994
601.40 0.499
601.50 0.4987
601.60 0.4984
601.70 0.4981
601.80 0.4978
601.90 0.4974
602.00 0.4971
602.10 0.4968
602.20 0.4965
602.30 0.4962
602.40 0.4958
602.50 0.4955
602.60 0.4952
602.70 0.4949
602.80 0.4946
602.90 0.4942
603.00 0.4939
603.10 0.4936
603.20 0.4933
603.30 0.493
603.40 0.4927
603.50 0.4923
603.60 0.492
603.70 0.4917
603.80 0.4914
603.90 0.4911
604.00 0.4908
604.10 0.4905
604.20 0.4901
604.30 0.4898
604.40 0.4895
604.50 0.4892
604.60 0.4889
604.70 0.4886
604.80 0.4883
604.90 0.4879
605.00 0.4876
605.10 0.4873
605.20 0.487
605.30 0.4867
605.40 0.4864
605.50 0.4861
605.60 0.4858
605.70 0.4855
605.80 0.4851
605.90 0.4848
606.00 0.4845
606.10 0.4842
606.20 0.4839
606.30 0.4836
606.40 0.4833
606.50 0.483
606.60 0.4827
606.70 0.4824
606.80 0.4821
606.90 0.4817
607.00 0.4814
607.10 0.4811
607.20 0.4808
607.30 0.4805
607.40 0.4802
607.50 0.4799
607.60 0.4796
607.70 0.4793
607.80 0.479
607.90 0.4787
608.00 0.4784
608.10 0.4781
608.20 0.4778
608.30 0.4775
608.40 0.4772
608.50 0.4768
608.60 0.4765
608.70 0.4762
608.80 0.4759
608.90 0.4756
609.00 0.4753
609.10 0.475
609.20 0.4747
609.30 0.4744
609.40 0.4741
609.50 0.4738
609.60 0.4735
609.70 0.4732
609.80 0.4729
609.90 0.4726
610.00 0.4723
610.10 0.472
610.20 0.4717
610.30 0.4714
610.40 0.4711
610.50 0.4708
610.60 0.4705
610.70 0.4702
610.80 0.4699
610.90 0.4696
611.00 0.4693
611.10 0.469
611.20 0.4687
611.30 0.4684
611.40 0.4681
611.50 0.4678
611.60 0.4675
611.70 0.4672
611.80 0.4669
611.90 0.4666
612.00 0.4663
612.10 0.466
612.20 0.4657
612.30 0.4655
612.40 0.4652
612.50 0.4649
612.60 0.4646
612.70 0.4643
612.80 0.464
612.90 0.4637
613.00 0.4634
613.10 0.4631
613.20 0.4628
613.30 0.4625
613.40 0.4622
613.50 0.4619
613.60 0.4616
613.70 0.4613
613.80 0.461
613.90 0.4607
614.00 0.4605
614.10 0.4602
614.20 0.4599
614.30 0.4596
614.40 0.4593
614.50 0.459
614.60 0.4587
614.70 0.4584
614.80 0.4581
614.90 0.4578
615.00 0.4575
615.10 0.4573
615.20 0.457
615.30 0.4567
615.40 0.4564
615.50 0.4561
615.60 0.4558
615.70 0.4555
615.80 0.4552
615.90 0.4549
616.00 0.4547
616.10 0.4544
616.20 0.4541
616.30 0.4538
616.40 0.4535
616.50 0.4532
616.60 0.4529
616.70 0.4526
616.80 0.4524
616.90 0.4521
617.00 0.4518
617.10 0.4515
617.20 0.4512
617.30 0.4509
617.40 0.4506
617.50 0.4504
617.60 0.4501
617.70 0.4498
617.80 0.4495
617.90 0.4492
618.00 0.4489
618.10 0.4486
618.20 0.4484
618.30 0.4481
618.40 0.4478
618.50 0.4475
618.60 0.4472
618.70 0.4469
618.80 0.4467
618.90 0.4464
619.00 0.4461
619.10 0.4458
619.20 0.4455
619.30 0.4453
619.40 0.445
619.50 0.4447
619.60 0.4444
619.70 0.4441
619.80 0.4438
619.90 0.4436
620.00 0.4433
620.10 0.443
620.20 0.4427
620.30 0.4424
620.40 0.4422
620.50 0.4419
620.60 0.4416
620.70 0.4413
620.80 0.4411
620.90 0.4408
621.00 0.4405
621.10 0.4402
621.20 0.4399
621.30 0.4397
621.40 0.4394
621.50 0.4391
621.60 0.4388
621.70 0.4385
621.80 0.4383
621.90 0.438
622.00 0.4377
622.10 0.4374
622.20 0.4372
622.30 0.4369
622.40 0.4366
622.50 0.4363
622.60 0.4361
622.70 0.4358
622.80 0.4355
622.90 0.4352
623.00 0.435
623.10 0.4347
623.20 0.4344
623.30 0.4341
623.40 0.4339
623.50 0.4336
623.60 0.4333
623.70 0.433
623.80 0.4328
623.90 0.4325
624.00 0.4322
624.10 0.4319
624.20 0.4317
624.30 0.4314
624.40 0.4311
624.50 0.4308
624.60 0.4306
624.70 0.4303
624.80 0.43
624.90 0.4298
625.00 0.4295
625.10 0.4292
625.20 0.4289
625.30 0.4287
625.40 0.4284
625.50 0.4281
625.60 0.4278
625.70 0.4276
625.80 0.4273
625.90 0.427
626.00 0.4268
626.10 0.4265
626.20 0.4262
626.30 0.426
626.40 0.4257
626.50 0.4254
626.60 0.4251
626.70 0.4249
626.80 0.4246
626.90 0.4243
627.00 0.4241
627.10 0.4238
627.20 0.4235
627.30 0.4232
627.40 0.423
627.50 0.4227
627.60 0.4224
627.70 0.4222
627.80 0.4219
627.90 0.4216
628.00 0.4214
628.10 0.4211
628.20 0.4208
628.30 0.4206
628.40 0.4203
628.50 0.42
628.60 0.4198
628.70 0.4195
628.80 0.4192
628.90 0.419
629.00 0.4187
629.10 0.4184
629.20 0.4182
629.30 0.4179
629.40 0.4176
629.50 0.4173
629.60 0.4171
629.70 0.4168
629.80 0.4165
629.90 0.4163
630.00 0.416
630.10 0.4157
630.20 0.4155
630.30 0.4152
630.40 0.4149
630.50 0.4147
630.60 0.4144
630.70 0.4141
630.80 0.4139
630.90 0.4136
631.00 0.4133
631.10 0.4131
631.20 0.4128
631.30 0.4126
631.40 0.4123
631.50 0.412
631.60 0.4118
631.70 0.4115
631.80 0.4112
631.90 0.411
632.00 0.4107
632.10 0.4104
632.20 0.4102
632.30 0.4099
632.40 0.4096
632.50 0.4094
632.60 0.4091
632.70 0.4088
632.80 0.4086
632.90 0.4083
633.00 0.408
633.10 0.4078
633.20 0.4075
633.30 0.4072
633.40 0.407
633.50 0.4067
633.60 0.4064
633.70 0.4062
633.80 0.4059
633.90 0.4056
634.00 0.4054
634.10 0.4051
634.20 0.4048
634.30 0.4046
634.40 0.4043
634.50 0.404
634.60 0.4038
634.70 0.4035
634.80 0.4032
634.90 0.403
635.00 0.4027
635.10 0.4024
635.20 0.4022
635.30 0.4019
635.40 0.4016
635.50 0.4014
635.60 0.4011
635.70 0.4008
635.80 0.4006
635.90 0.4003
636.00 0.4
636.10 0.3998
636.20 0.3995
636.30 0.3992
636.40 0.399
636.50 0.3987
636.60 0.3984
636.70 0.3982
636.80 0.3979
636.90 0.3976
637.00 0.3973
637.10 0.3971
637.20 0.3968
637.30 0.3965
637.40 0.3963
637.50 0.396
637.60 0.3957
637.70 0.3955
637.80 0.3952
637.90 0.3949
638.00 0.3946
638.10 0.3944
638.20 0.3941
638.30 0.3938
638.40 0.3936
638.50 0.3933
638.60 0.393
638.70 0.3927
638.80 0.3925
638.90 0.3922
639.00 0.3919
639.10 0.3916
639.20 0.3914
639.30 0.3911
639.40 0.3908
639.50 0.3905
639.60 0.3902
639.70 0.39
639.80 0.3897
639.90 0.3894
640.00 0.3891
640.10 0.3888
640.20 0.3886
640.30 0.3883
640.40 0.388
640.50 0.3877
640.60 0.3874
640.70 0.3872
640.80 0.3869
640.90 0.3866
641.00 0.3863
641.10 0.386
641.20 0.3857
641.30 0.3854
641.40 0.3852
641.50 0.3849
641.60 0.3846
641.70 0.3843
641.80 0.384
641.90 0.3837
642.00 0.3834
642.10 0.3831
642.20 0.3828
642.30 0.3825
642.40 0.3822
642.50 0.3819
642.60 0.3816
642.70 0.3813
642.80 0.381
642.90 0.3807
643.00 0.3804
643.10 0.3801
643.20 0.3798
643.30 0.3795
643.40 0.3792
643.50 0.3789
643.60 0.3786
643.70 0.3783
643.80 0.3779
643.90 0.3776
644.00 0.3773
644.10 0.377
644.20 0.3767
644.30 0.3764
644.40 0.376
644.50 0.3757
644.60 0.3754
644.70 0.3751
644.80 0.3747
644.90 0.3744
645.00 0.3741
645.10 0.3737
645.20 0.3734
645.30 0.3731
645.40 0.3727
645.50 0.3724
645.60 0.372
645.70 0.3717
645.80 0.3713
645.90 0.371
646.00 0.3706
646.10 0.3703
646.20 0.3699
646.30 0.3696
646.40 0.3692
646.50 0.3688
646.60 0.3685
646.70 0.3681
646.80 0.3677
646.90 0.3673
647.00 0.367
647.10 0.3666
647.20 0.3662
647.30 0.3658
647.40 0.3654
647.50 0.365
647.60 0.3646
647.70 0.3642
647.80 0.3638
647.90 0.3634
648.00 0.363
648.10 0.3626
648.20 0.3622
648.30 0.3618
648.40 0.3613
648.50 0.3609
648.60 0.3604
648.70 0.36
648.80 0.3595
648.90 0.3591
649.00 0.3586
649.10 0.3582
649.20 0.3577
649.30 0.3573
649.40 0.3568
649.50 0.3563
649.60 0.3558
649.70 0.3553
649.80 0.3548
649.90 0.3543
650.00 0.3538
650.10 0.3533
650.20 0.3528
650.30 0.3523
650.40 0.3517
650.50 0.3511
650.60 0.3506
650.70 0.35
650.80 0.3494
650.90 0.3489
651.00 0.3483
651.10 0.3478
651.20 0.3472
651.30 0.3466
651.40 0.346
651.50 0.3453
651.60 0.3447
651.70 0.3441
651.80 0.3434
651.90 0.3428
652.00 0.3421
652.10 0.3415
652.20 0.3409
652.30 0.3402
652.40 0.3395
652.50 0.3387
652.60 0.338
652.70 0.3373
652.80 0.3366
652.90 0.3358
653.00 0.3351
653.10 0.3344
653.20 0.3336
653.30 0.3329
653.40 0.3321
653.50 0.3312
653.60 0.3304
653.70 0.3296
653.80 0.3288
653.90 0.3279
654.00 0.3271
654.10 0.3263
654.20 0.3255
654.30 0.3246
654.40 0.3237
654.50 0.3228
654.60 0.3219
654.70 0.321
654.80 0.3201
654.90 0.3192
655.00 0.3183
655.10 0.3174
655.20 0.3164
655.30 0.3155
655.40 0.3146
655.50 0.3137
655.60 0.3128
655.70 0.312
655.80 0.3113
655.90 0.3108
656.00 0.3109
656.10 0.3113
656.20 0.3174
656.30 0.3278
656.40 0.3134
656.50 0.3103
656.60 0.3097
656.70 0.3094
656.80 0.3098
656.90 0.3101
657.00 0.3107
657.10 0.3112
657.20 0.3117
657.30 0.3123
657.40 0.3128
657.50 0.3134
657.60 0.314
657.70 0.3145
657.80 0.3151
657.90 0.3156
658.00 0.3161
658.10 0.3166
658.20 0.3172
658.30 0.3177
658.40 0.3181
658.50 0.3186
658.60 0.319
658.70 0.3194
658.80 0.3199
658.90 0.3203
659.00 0.3208
659.10 0.3212
659.20 0.3217
659.30 0.3221
659.40 0.3224
659.50 0.3227
659.60 0.3231
659.70 0.3234
659.80 0.3237
659.90 0.3241
660.00 0.3244
660.10 0.3247
660.20 0.3251
660.30 0.3254
660.40 0.3256
660.50 0.3259
660.60 0.3261
660.70 0.3263
660.80 0.3266
660.90 0.3268
661.00 0.327
661.10 0.3273
661.20 0.3275
661.30 0.3277
661.40 0.3279
661.50 0.328
661.60 0.3281
661.70 0.3283
661.80 0.3284
661.90 0.3286
662.00 0.3287
662.10 0.3289
662.20 0.329
662.30 0.3292
662.40 0.3292
662.50 0.3293
662.60 0.3294
662.70 0.3295
662.80 0.3296
662.90 0.3296
663.00 0.3297
663.10 0.3298
663.20 0.3299
663.30 0.3299
663.40 0.33
663.50 0.33
663.60 0.33
663.70 0.33
663.80 0.3301
663.90 0.3301
664.00 0.3301
664.10 0.3301
664.20 0.3302
664.30 0.3302
664.40 0.3302
664.50 0.3301
664.60 0.3301
664.70 0.3301
664.80 0.3301
664.90 0.3301
665.00 0.33
665.10 0.33
665.20 0.33
665.30 0.33
665.40 0.3299
665.50 0.3299
665.60 0.3298
665.70 0.3297
665.80 0.3297
665.90 0.3296
666.00 0.3296
666.10 0.3295
666.20 0.3295
666.30 0.3294
666.40 0.3293
666.50 0.3292
666.60 0.3292
666.70 0.3291
666.80 0.329
666.90 0.3289
667.00 0.3288
667.10 0.3288
667.20 0.3287
667.30 0.3286
667.40 0.3285
667.50 0.3284
667.60 0.3283
667.70 0.3282
667.80 0.3281
667.90 0.328
668.00 0.3279
668.10 0.3278
668.20 0.3277
668.30 0.3276
668.40 0.3275
668.50 0.3273
668.60 0.3272
668.70 0.3271
668.80 0.327
668.90 0.3269
669.00 0.3268
669.10 0.3266
669.20 0.3265
669.30 0.3264
669.40 0.3263
669.50 0.3261
669.60 0.326
669.70 0.3259
669.80 0.3257
669.90 0.3256
670.00 0.3255
670.10 0.3254
670.20 0.3252
670.30 0.3251
670.40 0.325
670.50 0.3248
670.60 0.3247
670.70 0.3245
670.80 0.3244
670.90 0.3243
671.00 0.3241
671.10 0.324
671.20 0.3238
671.30 0.3237
671.40 0.3236
671.50 0.3234
671.60 0.3233
671.70 0.3231
671.80 0.323
671.90 0.3228
672.00 0.3227
672.10 0.3225
672.20 0.3224
672.30 0.3222
672.40 0.3221
672.50 0.3219
672.60 0.3218
672.70 0.3216
672.80 0.3215
672.90 0.3213
673.00 0.3212
673.10 0.321
673.20 0.3209
673.30 0.3207
673.40 0.3206
673.50 0.3204
673.60 0.3203
673.70 0.3201
673.80 0.3199
673.90 0.3198
674.00 0.3196
674.10 0.3195
674.20 0.3193
674.30 0.3192
674.40 0.319
674.50 0.3188
674.60 0.3187
674.70 0.3185
674.80 0.3184
674.90 0.3182
675.00 0.318
675.10 0.3179
675.20 0.3177
675.30 0.3176
675.40 0.3174
675.50 0.3172
675.60 0.3171
675.70 0.3169
675.80 0.3168
675.90 0.3166
676.00 0.3164
676.10 0.3163
676.20 0.3161
676.30 0.316
676.40 0.3158
676.50 0.3156
676.60 0.3155
676.70 0.3153
676.80 0.3151
676.90 0.315
677.00 0.3148
677.10 0.3146
677.20 0.3145
677.30 0.3143
677.40 0.3142
677.50 0.314
677.60 0.3138
677.70 0.3137
677.80 0.3135
677.90 0.3133
678.00 0.3132
678.10 0.313
678.20 0.3128
678.30 0.3127
678.40 0.3125
678.50 0.3123
678.60 0.3122
678.70 0.312
678.80 0.3118
678.90 0.3117
679.00 0.3115
679.10 0.3114
679.20 0.3112
679.30 0.311
679.40 0.3109
679.50 0.3107
679.60 0.3105
679.70 0.3104
679.80 0.3102
679.90 0.31
680.00 0.3099
680.10 0.3097
680.20 0.3095
680.30 0.3094
680.40 0.3092
680.50 0.309
680.60 0.3089
680.70 0.3087
680.80 0.3085
680.90 0.3084
681.00 0.3082
681.10 0.308
681.20 0.3079
681.30 0.3077
681.40 0.3075
681.50 0.3074
681.60 0.3072
681.70 0.307
681.80 0.3069
681.90 0.3067
682.00 0.3065
682.10 0.3064
682.20 0.3062
682.30 0.306
682.40 0.3059
682.50 0.3057
682.60 0.3055
682.70 0.3054
682.80 0.3052
682.90 0.305
683.00 0.3049
683.10 0.3047
683.20 0.3045
683.30 0.3044
683.40 0.3042
683.50 0.3041
683.60 0.3039
683.70 0.3037
683.80 0.3036
683.90 0.3034
684.00 0.3032
684.10 0.3031
684.20 0.3029
684.30 0.3027
684.40 0.3026
684.50 0.3024
684.60 0.3022
684.70 0.3021
684.80 0.3019
684.90 0.3017
685.00 0.3016
685.10 0.3014
685.20 0.3012
685.30 0.3011
685.40 0.3009
685.50 0.3007
685.60 0.3006
685.70 0.3004
685.80 0.3003
685.90 0.3001
686.00 0.2999
686.10 0.2998
686.20 0.2996
686.30 0.2994
686.40 0.2993
686.50 0.2991
686.60 0.2989
686.70 0.2988
686.80 0.2986
686.90 0.2984
687.00 0.2983
687.10 0.2981
687.20 0.298
687.30 0.2978
687.40 0.2976
687.50 0.2975
687.60 0.2973
687.70 0.2971
687.80 0.297
687.90 0.2968
688.00 0.2967
688.10 0.2965
688.20 0.2963
688.30 0.2962
688.40 0.296
688.50 0.2958
688.60 0.2957
688.70 0.2955
688.80 0.2953
688.90 0.2952
689.00 0.295
689.10 0.2949
689.20 0.2947
689.30 0.2945
689.40 0.2944
689.50 0.2942
689.60 0.2941
689.70 0.2939
689.80 0.2937
689.90 0.2936
690.00 0.2934
690.10 0.2932
690.20 0.2931
690.30 0.2929
690.40 0.2928
690.50 0.2926
690.60 0.2924
690.70 0.2923
690.80 0.2921
690.90 0.292
691.00 0.2918
691.10 0.2916
691.20 0.2915
691.30 0.2913
691.40 0.2912
691.50 0.291
691.60 0.2908
691.70 0.2907
691.80 0.2905
691.90 0.2904
692.00 0.2902
692.10 0.29
692.20 0.2899
692.30 0.2897
692.40 0.2896
692.50 0.2894
692.60 0.2892
692.70 0.2891
692.80 0.2889
692.90 0.2888
693.00 0.2886
693.10 0.2884
693.20 0.2883
693.30 0.2881
693.40 0.288
693.50 0.2878
693.60 0.2876
693.70 0.2875
693.80 0.2873
693.90 0.2872
694.00 0.287
694.10 0.2869
694.20 0.2867
694.30 0.2865
694.40 0.2864
694.50 0.2862
694.60 0.2861
694.70 0.2859
694.80 0.2858
694.90 0.2856
695.00 0.2854
695.10 0.2853
695.20 0.2851
695.30 0.285
695.40 0.2848
695.50 0.2847
695.60 0.2845
695.70 0.2843
695.80 0.2842
695.90 0.284
696.00 0.2839
696.10 0.2837
696.20 0.2836
696.30 0.2834
696.40 0.2833
696.50 0.2831
696.60 0.2829
696.70 0.2828
696.80 0.2826
696.90 0.2825
697.00 0.2823
697.10 0.2822
697.20 0.282
697.30 0.2819
697.40 0.2817
697.50 0.2815
697.60 0.2814
697.70 0.2812
697.80 0.2811
697.90 0.2809
698.00 0.2808
698.10 0.2806
698.20 0.2805
698.30 0.2803
698.40 0.2802
698.50 0.28
698.60 0.2798
698.70 0.2797
698.80 0.2795
698.90 0.2794
699.00 0.2792
699.10 0.2791
699.20 0.2789
699.30 0.2788
699.40 0.2786
699.50 0.2785
699.60 0.2783
699.70 0.2782
699.80 0.278
699.90 0.2779
700.00 0.2777
700.10 0.2775
700.20 0.2774
700.30 0.2772
700.40 0.2771
700.50 0.2769
700.60 0.2768
700.70 0.2766
700.80 0.2765
700.90 0.2763
701.00 0.2762
701.10 0.276
701.20 0.2759
701.30 0.2757
701.40 0.2756
701.50 0.2754
701.60 0.2753
701.70 0.2751
701.80 0.275
701.90 0.2748
702.00 0.2747
702.10 0.2745
702.20 0.2744
702.30 0.2742
702.40 0.2741
702.50 0.2739
702.60 0.2738
702.70 0.2736
702.80 0.2735
702.90 0.2733
703.00 0.2732
703.10 0.273
703.20 0.2729
703.30 0.2727
703.40 0.2726
703.50 0.2724
703.60 0.2723
703.70 0.2721
703.80 0.272
703.90 0.2718
704.00 0.2717
704.10 0.2715
704.20 0.2714
704.30 0.2712
704.40 0.2711
704.50 0.2709
704.60 0.2708
704.70 0.2706
704.80 0.2705
704.90 0.2703
705.00 0.2702
705.10 0.2701
705.20 0.2699
705.30 0.2698
705.40 0.2696
705.50 0.2695
705.60 0.2693
705.70 0.2692
705.80 0.269
705.90 0.2689
706.00 0.2687
706.10 0.2686
706.20 0.2684
706.30 0.2683
706.40 0.2681
706.50 0.268
706.60 0.2679
706.70 0.2677
706.80 0.2676
706.90 0.2674
707.00 0.2673
707.10 0.2671
707.20 0.267
707.30 0.2668
707.40 0.2667
707.50 0.2665
707.60 0.2664
707.70 0.2663
707.80 0.2661
707.90 0.266
708.00 0.2658
708.10 0.2657
708.20 0.2655
708.30 0.2654
708.40 0.2652
708.50 0.2651
708.60 0.265
708.70 0.2648
708.80 0.2647
708.90 0.2645
709.00 0.2644
709.10 0.2642
709.20 0.2641
709.30 0.2639
709.40 0.2638
709.50 0.2637
709.60 0.2635
709.70 0.2634
709.80 0.2632
709.90 0.2631
710.00 0.2629
710.10 0.2628
710.20 0.2627
710.30 0.2625
710.40 0.2624
710.50 0.2622
710.60 0.2621
710.70 0.2619
710.80 0.2618
710.90 0.2617
711.00 0.2615
711.10 0.2614
711.20 0.2612
711.30 0.2611
711.40 0.261
711.50 0.2608
711.60 0.2607
711.70 0.2605
711.80 0.2604
711.90 0.2602
712.00 0.2601
712.10 0.26
712.20 0.2598
712.30 0.2597
712.40 0.2595
712.50 0.2594
712.60 0.2593
712.70 0.2591
712.80 0.259
712.90 0.2588
713.00 0.2587
713.10 0.2586
713.20 0.2584
713.30 0.2583
713.40 0.2581
713.50 0.258
713.60 0.2579
713.70 0.2577
713.80 0.2576
713.90 0.2574
714.00 0.2573
714.10 0.2572
714.20 0.257
714.30 0.2569
714.40 0.2567
714.50 0.2566
714.60 0.2565
714.70 0.2563
714.80 0.2562
714.90 0.256
715.00 0.2559
715.10 0.2558
715.20 0.2556
715.30 0.2555
715.40 0.2554
715.50 0.2552
715.60 0.2551
715.70 0.2549
715.80 0.2548
715.90 0.2547
716.00 0.2545
716.10 0.2544
716.20 0.2543
716.30 0.2541
716.40 0.254
716.50 0.2539
716.60 0.2537
716.70 0.2536
716.80 0.2534
716.90 0.2533
717.00 0.2532
717.10 0.253
717.20 0.2529
717.30 0.2528
717.40 0.2526
717.50 0.2525
717.60 0.2524
717.70 0.2522
717.80 0.2521
717.90 0.2519
718.00 0.2518
718.10 0.2517
718.20 0.2515
718.30 0.2514
718.40 0.2513
718.50 0.2511
718.60 0.251
718.70 0.2509
718.80 0.2507
718.90 0.2506
719.00 0.2505
719.10 0.2503
719.20 0.2502
719.30 0.2501
719.40 0.2499
719.50 0.2498
719.60 0.2496
719.70 0.2495
719.80 0.2494
719.90 0.2492
720.00 0.2491
720.10 0.249
720.20 0.2488
720.30 0.2487
720.40 0.2486
720.50 0.2484
720.60 0.2483
720.70 0.2482
720.80 0.248
720.90 0.2479
721.00 0.2478
721.10 0.2476
721.20 0.2475
721.30 0.2474
721.40 0.2473
721.50 0.2471
721.60 0.247
721.70 0.2469
721.80 0.2467
721.90 0.2466
722.00 0.2465
722.10 0.2463
722.20 0.2462
722.30 0.2461
722.40 0.2459
722.50 0.2458
722.60 0.2457
722.70 0.2455
722.80 0.2454
722.90 0.2453
723.00 0.2451
723.10 0.245
723.20 0.2449
723.30 0.2448
723.40 0.2446
723.50 0.2445
723.60 0.2444
723.70 0.2442
723.80 0.2441
723.90 0.244
724.00 0.2438
724.10 0.2437
724.20 0.2436
724.30 0.2434
724.40 0.2433
724.50 0.2432
724.60 0.2431
724.70 0.2429
724.80 0.2428
724.90 0.2427
725.00 0.2425
725.10 0.2424
725.20 0.2423
725.30 0.2421
725.40 0.242
725.50 0.2419
725.60 0.2418
725.70 0.2416
725.80 0.2415
725.90 0.2414
726.00 0.2412
726.10 0.2411
726.20 0.241
726.30 0.2409
726.40 0.2407
726.50 0.2406
726.60 0.2405
726.70 0.2404
726.80 0.2402
726.90 0.2401
727.00 0.24
727.10 0.2398
727.20 0.2397
727.30 0.2396
727.40 0.2395
727.50 0.2393
727.60 0.2392
727.70 0.2391
727.80 0.2389
727.90 0.2388
728.00 0.2387
728.10 0.2386
728.20 0.2384
728.30 0.2383
728.40 0.2382
728.50 0.2381
728.60 0.2379
728.70 0.2378
728.80 0.2377
728.90 0.2376
729.00 0.2374
729.10 0.2373
729.20 0.2372
729.30 0.237
729.40 0.2369
729.50 0.2368
729.60 0.2367
729.70 0.2365
729.80 0.2364
729.90 0.2363
730.00 0.2362
730.10 0.236
730.20 0.2359
730.30 0.2358
730.40 0.2357
730.50 0.2355
730.60 0.2354
730.70 0.2353
730.80 0.2352
730.90 0.2351
731.00 0.2349
731.10 0.2348
731.20 0.2347
731.30 0.2346
731.40 0.2344
731.50 0.2343
731.60 0.2342
731.70 0.2341
731.80 0.2339
731.90 0.2338
732.00 0.2337
732.10 0.2336
732.20 0.2335
732.30 0.2333
732.40 0.2332
732.50 0.2331
732.60 0.233
732.70 0.2328
732.80 0.2327
732.90 0.2326
733.00 0.2325
733.10 0.2323
733.20 0.2322
733.30 0.2321
733.40 0.232
733.50 0.2319
733.60 0.2317
733.70 0.2316
733.80 0.2315
733.90 0.2314
734.00 0.2313
734.10 0.2311
734.20 0.231
734.30 0.2309
734.40 0.2308
734.50 0.2306
734.60 0.2305
734.70 0.2304
734.80 0.2303
734.90 0.2302
735.00 0.23
735.10 0.2299
735.20 0.2298
735.30 0.2297
735.40 0.2296
735.50 0.2294
735.60 0.2293
735.70 0.2292
735.80 0.2291
735.90 0.2289
736.00 0.2288
736.10 0.2287
736.20 0.2286
736.30 0.2285
736.40 0.2283
736.50 0.2282
736.60 0.2281
736.70 0.228
736.80 0.2279
736.90 0.2277
737.00 0.2276
737.10 0.2275
737.20 0.2274
737.30 0.2273
737.40 0.2271
737.50 0.227
737.60 0.2269
737.70 0.2268
737.80 0.2267
737.90 0.2265
738.00 0.2264
738.10 0.2263
738.20 0.2262
738.30 0.2261
738.40 0.2259
738.50 0.2258
738.60 0.2257
738.70 0.2256
738.80 0.2255
738.90 0.2254
739.00 0.2252
739.10 0.2251
739.20 0.225
739.30 0.2249
739.40 0.2248
739.50 0.2246
739.60 0.2245
739.70 0.2244
739.80 0.2243
739.90 0.2242
740.00 0.224
740.10 0.2239
740.20 0.2238
740.30 0.2237
740.40 0.2236
740.50 0.2235
740.60 0.2234
740.70 0.2232
740.80 0.2231
740.90 0.223
741.00 0.2229
741.10 0.2228
741.20 0.2227
741.30 0.2225
741.40 0.2224
741.50 0.2223
741.60 0.2222
741.70 0.2221
741.80 0.222
741.90 0.2218
742.00 0.2217
742.10 0.2216
742.20 0.2215
742.30 0.2214
742.40 0.2213
742.50 0.2212
742.60 0.221
742.70 0.2209
742.80 0.2208
742.90 0.2207
743.00 0.2206
743.10 0.2205
743.20 0.2204
743.30 0.2202
743.40 0.2201
743.50 0.22
743.60 0.2199
743.70 0.2198
743.80 0.2197
743.90 0.2196
744.00 0.2194
744.10 0.2193
744.20 0.2192
744.30 0.2191
744.40 0.219
744.50 0.2189
744.60 0.2188
744.70 0.2186
744.80 0.2185
744.90 0.2184
745.00 0.2183
745.10 0.2182
745.20 0.2181
745.30 0.218
745.40 0.2179
745.50 0.2177
745.60 0.2176
745.70 0.2175
745.80 0.2174
745.90 0.2173
746.00 0.2172
746.10 0.2171
746.20 0.2169
746.30 0.2168
746.40 0.2167
746.50 0.2166
746.60 0.2165
746.70 0.2164
746.80 0.2163
746.90 0.2162
747.00 0.216
747.10 0.2159
747.20 0.2158
747.30 0.2157
747.40 0.2156
747.50 0.2155
747.60 0.2154
747.70 0.2153
747.80 0.2151
747.90 0.215
748.00 0.2149
748.10 0.2148
748.20 0.2147
748.30 0.2146
748.40 0.2145
748.50 0.2144
748.60 0.2143
748.70 0.2141
748.80 0.214
748.90 0.2139
749.00 0.2138
749.10 0.2137
749.20 0.2136
749.30 0.2135
749.40 0.2134
749.50 0.2132
749.60 0.2131
749.70 0.213
749.80 0.2129
749.90 0.2128
750.00 0.2127
750.10 0.2126
750.20 0.2125
750.30 0.2124
750.40 0.2123
750.50 0.2121
750.60 0.212
750.70 0.2119
750.80 0.2118
750.90 0.2117
751.00 0.2116
751.10 0.2115
751.20 0.2114
751.30 0.2113
751.40 0.2112
751.50 0.2111
751.60 0.211
751.70 0.2108
751.80 0.2107
751.90 0.2106
752.00 0.2105
752.10 0.2104
752.20 0.2103
752.30 0.2102
752.40 0.2101
752.50 0.21
752.60 0.2099
752.70 0.2098
752.80 0.2097
752.90 0.2096
753.00 0.2094
753.10 0.2093
753.20 0.2092
753.30 0.2091
753.40 0.209
753.50 0.2089
753.60 0.2088
753.70 0.2087
753.80 0.2086
753.90 0.2085
754.00 0.2084
754.10 0.2083
754.20 0.2082
754.30 0.2081
754.40 0.2079
754.50 0.2078
754.60 0.2077
754.70 0.2076
754.80 0.2075
754.90 0.2074
755.00 0.2073
755.10 0.2072
755.20 0.2071
755.30 0.207
755.40 0.2069
755.50 0.2068
755.60 0.2067
755.70 0.2066
755.80 0.2065
755.90 0.2064
756.00 0.2062
756.10 0.2061
756.20 0.206
756.30 0.2059
756.40 0.2058
756.50 0.2057
756.60 0.2056
756.70 0.2055
756.80 0.2054
756.90 0.2053
757.00 0.2052
757.10 0.2051
757.20 0.205
757.30 0.2049
757.40 0.2048
757.50 0.2047
757.60 0.2046
757.70 0.2045
757.80 0.2043
757.90 0.2042
758.00 0.2041
758.10 0.204
758.20 0.2039
758.30 0.2038
758.40 0.2037
758.50 0.2036
758.60 0.2035
758.70 0.2034
758.80 0.2033
758.90 0.2032
759.00 0.2031
759.10 0.203
759.20 0.2029
759.30 0.2028
759.40 0.2027
759.50 0.2026
759.60 0.2025
759.70 0.2024
759.80 0.2023
759.90 0.2022
760.00 0.202
760.10 0.2019
760.20 0.2018
760.30 0.2017
760.40 0.2016
760.50 0.2015
760.60 0.2014
760.70 0.2013
760.80 0.2012
760.90 0.2011
761.00 0.201
761.10 0.2009
761.20 0.2008
761.30 0.2007
761.40 0.2006
761.50 0.2005
761.60 0.2004
761.70 0.2003
761.80 0.2002
761.90 0.2001
762.00 0.2
762.10 0.1999
762.20 0.1998
762.30 0.1997
762.40 0.1996
762.50 0.1995
762.60 0.1994
762.70 0.1993
762.80 0.1992
762.90 0.1991
763.00 0.199
763.10 0.1989
763.20 0.1988
763.30 0.1987
763.40 0.1986
763.50 0.1985
763.60 0.1984
763.70 0.1983
763.80 0.1982
763.90 0.1981
764.00 0.198
764.10 0.1979
764.20 0.1978
764.30 0.1977
764.40 0.1976
764.50 0.1975
764.60 0.1974
764.70 0.1973
764.80 0.1972
764.90 0.1971
765.00 0.197
765.10 0.1969
765.20 0.1968
765.30 0.1967
765.40 0.1966
765.50 0.1965
765.60 0.1964
765.70 0.1963
765.80 0.1962
765.90 0.1961
766.00 0.196
766.10 0.1959
766.20 0.1958
766.30 0.1957
766.40 0.1956
766.50 0.1955
766.60 0.1954
766.70 0.1953
766.80 0.1952
766.90 0.1951
767.00 0.195
767.10 0.1949
767.20 0.1948
767.30 0.1947
767.40 0.1946
767.50 0.1945
767.60 0.1944
767.70 0.1943
767.80 0.1942
767.90 0.1941
768.00 0.194
768.10 0.1939
768.20 0.1938
768.30 0.1937
768.40 0.1936
768.50 0.1935
768.60 0.1934
768.70 0.1933
768.80 0.1932
768.90 0.1931
769.00 0.193
769.10 0.1929
769.20 0.1928
769.30 0.1927
769.40 0.1926
769.50 0.1925
769.60 0.1925
769.70 0.1924
769.80 0.1923
769.90 0.1922
770.00 0.1921
770.10 0.192
770.20 0.1919
770.30 0.1918
770.40 0.1917
770.50 0.1916
770.60 0.1915
770.70 0.1914
770.80 0.1913
770.90 0.1912
771.00 0.1911
771.10 0.191
771.20 0.1909
771.30 0.1908
771.40 0.1907
771.50 0.1906
771.60 0.1905
771.70 0.1904
771.80 0.1903
771.90 0.1902
772.00 0.1902
772.10 0.1901
772.20 0.19
772.30 0.1899
772.40 0.1898
772.50 0.1897
772.60 0.1896
772.70 0.1895
772.80 0.1894
772.90 0.1893
773.00 0.1892
773.10 0.1891
773.20 0.189
773.30 0.1889
773.40 0.1888
773.50 0.1887
773.60 0.1886
773.70 0.1885
773.80 0.1884
773.90 0.1884
774.00 0.1883
774.10 0.1882
774.20 0.1881
774.30 0.188
774.40 0.1879
774.50 0.1878
774.60 0.1877
774.70 0.1876
774.80 0.1875
774.90 0.1874
775.00 0.1873
775.10 0.1872
775.20 0.1871
775.30 0.187
775.40 0.1869
775.50 0.1868
775.60 0.1868
775.70 0.1867
775.80 0.1866
775.90 0.1865
776.00 0.1864
776.10 0.1863
776.20 0.1862
776.30 0.1861
776.40 0.186
776.50 0.1859
776.60 0.1858
776.70 0.1857
776.80 0.1856
776.90 0.1855
777.00 0.1855
777.10 0.1854
777.20 0.1853
777.30 0.1852
777.40 0.1851
777.50 0.185
777.60 0.1849
777.70 0.1848
777.80 0.1847
777.90 0.1846
778.00 0.1845
778.10 0.1844
778.20 0.1843
778.30 0.1842
778.40 0.1842
778.50 0.1841
778.60 0.184
778.70 0.1839
778.80 0.1838
778.90 0.1837
779.00 0.1836
779.10 0.1835
779.20 0.1834
779.30 0.1833
779.40 0.1832
779.50 0.1831
779.60 0.183
779.70 0.183
779.80 0.1829
779.90 0.1828
780.00 0.1827
780.10 0.1826
780.20 0.1825
780.30 0.1824
780.40 0.1823
780.50 0.1822
780.60 0.1821
780.70 0.1821
780.80 0.182
780.90 0.1819
781.00 0.1818
781.10 0.1817
781.20 0.1816
781.30 0.1815
781.40 0.1814
781.50 0.1813
781.60 0.1812
781.70 0.1812
781.80 0.1811
781.90 0.181
782.00 0.1809
782.10 0.1808
782.20 0.1807
782.30 0.1806
782.40 0.1805
782.50 0.1804
782.60 0.1804
782.70 0.1803
782.80 0.1802
782.90 0.1801
783.00 0.18
783.10 0.1799
783.20 0.1798
783.30 0.1797
783.40 0.1796
783.50 0.1796
783.60 0.1795
783.70 0.1794
783.80 0.1793
783.90 0.1792
784.00 0.1791
784.10 0.179
784.20 0.1789
784.30 0.1788
784.40 0.1788
784.50 0.1787
784.60 0.1786
784.70 0.1785
784.80 0.1784
784.90 0.1783
785.00 0.1782
785.10 0.1781
785.20 0.178
785.30 0.178
785.40 0.1779
785.50 0.1778
785.60 0.1777
785.70 0.1776
785.80 0.1775
785.90 0.1774
786.00 0.1773
786.10 0.1773
786.20 0.1772
786.30 0.1771
786.40 0.177
786.50 0.1769
786.60 0.1768
786.70 0.1767
786.80 0.1766
786.90 0.1766
787.00 0.1765
787.10 0.1764
787.20 0.1763
787.30 0.1762
787.40 0.1761
787.50 0.176
787.60 0.1759
787.70 0.1759
787.80 0.1758
787.90 0.1757
788.00 0.1756
788.10 0.1755
788.20 0.1754
788.30 0.1753
788.40 0.1753
788.50 0.1752
788.60 0.1751
788.70 0.175
788.80 0.1749
788.90 0.1748
789.00 0.1747
789.10 0.1746
789.20 0.1746
789.30 0.1745
789.40 0.1744
789.50 0.1743
789.60 0.1742
789.70 0.1741
789.80 0.174
789.90 0.174
790.00 0.1739
790.10 0.1738
790.20 0.1737
790.30 0.1736
790.40 0.1735
790.50 0.1734
790.60 0.1734
790.70 0.1733
790.80 0.1732
790.90 0.1731
791.00 0.173
791.10 0.1729
791.20 0.1729
791.30 0.1728
791.40 0.1727
791.50 0.1726
791.60 0.1725
791.70 0.1724
791.80 0.1723
791.90 0.1723
792.00 0.1722
792.10 0.1721
792.20 0.172
792.30 0.1719
792.40 0.1718
792.50 0.1718
792.60 0.1717
792.70 0.1716
792.80 0.1715
792.90 0.1714
793.00 0.1713
793.10 0.1713
793.20 0.1712
793.30 0.1711
793.40 0.171
793.50 0.1709
793.60 0.1708
793.70 0.1708
793.80 0.1707
793.90 0.1706
794.00 0.1705
794.10 0.1704
794.20 0.1703
794.30 0.1703
794.40 0.1702
794.50 0.1701
794.60 0.17
794.70 0.1699
794.80 0.1698
794.90 0.1698
795.00 0.1697
795.10 0.1696
795.20 0.1695
795.30 0.1694
795.40 0.1693
795.50 0.1693
795.60 0.1692
795.70 0.1691
795.80 0.169
795.90 0.1689
796.00 0.1689
796.10 0.1688
796.20 0.1687
796.30 0.1686
796.40 0.1685
796.50 0.1684
796.60 0.1684
796.70 0.1683
796.80 0.1682
796.90 0.1681
797.00 0.168
797.10 0.1679
797.20 0.1679
797.30 0.1678
797.40 0.1677
797.50 0.1676
797.60 0.1675
797.70 0.1675
797.80 0.1674
797.90 0.1673
798.00 0.1672
798.10 0.1671
798.20 0.167
798.30 0.167
798.40 0.1669
798.50 0.1668
798.60 0.1667
798.70 0.1666
798.80 0.1666
798.90 0.1665
799.00 0.1664
799.10 0.1663
799.20 0.1662
799.30 0.1661
799.40 0.1661
799.50 0.166
799.60 0.1659
799.70 0.1658
799.80 0.1657
799.90 0.1657
800.00 0.1656
800.10 0.1655
800.20 0.1654
800.30 0.1653
800.40 0.1653
800.50 0.1652
800.60 0.1651
800.70 0.165
800.80 0.1649
800.90 0.1649
801.00 0.1648
801.10 0.1647
801.20 0.1646
801.30 0.1645
801.40 0.1645
801.50 0.1644
801.60 0.1643
801.70 0.1642
801.80 0.1642
801.90 0.1641
802.00 0.164
802.10 0.1639
802.20 0.1638
802.30 0.1638
802.40 0.1637
802.50 0.1636
802.60 0.1635
802.70 0.1634
802.80 0.1634
802.90 0.1633
803.00 0.1632
803.10 0.1631
803.20 0.163
803.30 0.163
803.40 0.1629
803.50 0.1628
803.60 0.1627
803.70 0.1627
803.80 0.1626
803.90 0.1625
804.00 0.1624
804.10 0.1623
804.20 0.1623
804.30 0.1622
804.40 0.1621
804.50 0.162
804.60 0.1619
804.70 0.1619
804.80 0.1618
804.90 0.1617
805.00 0.1616
805.10 0.1616
805.20 0.1615
805.30 0.1614
805.40 0.1613
805.50 0.1612
805.60 0.1612
805.70 0.1611
805.80 0.161
805.90 0.1609
806.00 0.1609
806.10 0.1608
806.20 0.1607
806.30 0.1606
806.40 0.1605
806.50 0.1605
806.60 0.1604
806.70 0.1603
806.80 0.1602
806.90 0.1602
807.00 0.1601
807.10 0.16
807.20 0.1599
807.30 0.1599
807.40 0.1598
807.50 0.1597
807.60 0.1596
807.70 0.1595
807.80 0.1595
807.90 0.1594
808.00 0.1593
808.10 0.1592
808.20 0.1592
808.30 0.1591
808.40 0.159
808.50 0.1589
808.60 0.1589
808.70 0.1588
808.80 0.1587
808.90 0.1586
809.00 0.1585
809.10 0.1585
809.20 0.1584
809.30 0.1583
809.40 0.1582
809.50 0.1582
809.60 0.1581
809.70 0.158
809.80 0.1579
809.90 0.1579
810.00 0.1578
810.10 0.1577
810.20 0.1576
810.30 0.1576
810.40 0.1575
810.50 0.1574
810.60 0.1573
810.70 0.1573
810.80 0.1572
810.90 0.1571
811.00 0.157
811.10 0.157
811.20 0.1569
811.30 0.1568
811.40 0.1567
811.50 0.1567
811.60 0.1566
811.70 0.1565
811.80 0.1564
811.90 0.1564
812.00 0.1563
812.10 0.1562
812.20 0.1561
812.30 0.1561
812.40 0.156
812.50 0.1559
812.60 0.1558
812.70 0.1558
812.80 0.1557
812.90 0.1556
813.00 0.1555
813.10 0.1555
813.20 0.1554
813.30 0.1553
813.40 0.1552
813.50 0.1552
813.60 0.1551
813.70 0.155
813.80 0.155
813.90 0.1549
814.00 0.1548
814.10 0.1547
814.20 0.1547
814.30 0.1546
814.40 0.1545
814.50 0.1544
814.60 0.1544
814.70 0.1543
814.80 0.1542
814.90 0.1541
815.00 0.1541
815.10 0.154
815.20 0.1539
815.30 0.1538
815.40 0.1538
815.50 0.1537
815.60 0.1536
815.70 0.1536
815.80 0.1535
815.90 0.1534
816.00 0.1533
816.10 0.1533
816.20 0.1532
816.30 0.1531
816.40 0.153
816.50 0.153
816.60 0.1529
816.70 0.1528
816.80 0.1528
816.90 0.1527
817.00 0.1526
817.10 0.1525
817.20 0.1525
817.30 0.1524
817.40 0.1523
817.50 0.1522
817.60 0.1522
817.70 0.1521
817.80 0.152
817.90 0.152
818.00 0.1519
818.10 0.1518
818.20 0.1517
818.30 0.1517
818.40 0.1516
818.50 0.1515
818.60 0.1514
818.70 0.1514
818.80 0.1513
818.90 0.1512
819.00 0.1512
819.10 0.1511
819.20 0.151
819.30 0.1509
819.40 0.1509
819.50 0.1508
819.60 0.1507
819.70 0.1507
819.80 0.1506
819.90 0.1505
820.00 0.1504
820.10 0.1504
820.20 0.1503
820.30 0.1502
820.40 0.1502
820.50 0.1501
820.60 0.15
820.70 0.1499
820.80 0.1499
820.90 0.1498
821.00 0.1497
821.10 0.1497
821.20 0.1496
821.30 0.1495
821.40 0.1494
821.50 0.1494
821.60 0.1493
821.70 0.1492
821.80 0.1492
821.90 0.1491
822.00 0.149
822.10 0.1489
822.20 0.1489
822.30 0.1488
822.40 0.1487
822.50 0.1487
822.60 0.1486
822.70 0.1485
822.80 0.1485
822.90 0.1484
823.00 0.1483
823.10 0.1482
823.20 0.1482
823.30 0.1481
823.40 0.148
823.50 0.148
823.60 0.1479
823.70 0.1478
823.80 0.1478
823.90 0.1477
824.00 0.1476
824.10 0.1476
824.20 0.1475
824.30 0.1474
824.40 0.1473
824.50 0.1473
824.60 0.1472
824.70 0.1471
824.80 0.1471
824.90 0.147
825.00 0.1469
825.10 0.1469
825.20 0.1468
825.30 0.1467
825.40 0.1466
825.50 0.1466
825.60 0.1465
825.70 0.1464
825.80 0.1464
825.90 0.1463
826.00 0.1462
826.10 0.1462
826.20 0.1461
826.30 0.146
826.40 0.146
826.50 0.1459
826.60 0.1458
826.70 0.1458
826.80 0.1457
826.90 0.1456
827.00 0.1455
827.10 0.1455
827.20 0.1454
827.30 0.1453
827.40 0.1453
827.50 0.1452
827.60 0.1451
827.70 0.1451
827.80 0.145
827.90 0.1449
828.00 0.1449
828.10 0.1448
828.20 0.1447
828.30 0.1447
828.40 0.1446
828.50 0.1445
828.60 0.1445
828.70 0.1444
828.80 0.1443
828.90 0.1443
829.00 0.1442
829.10 0.1441
829.20 0.1441
829.30 0.144
829.40 0.1439
829.50 0.1439
829.60 0.1438
829.70 0.1437
829.80 0.1437
829.90 0.1436
830.00 0.1435
830.10 0.1434
830.20 0.1434
830.30 0.1433
830.40 0.1432
830.50 0.1432
830.60 0.1431
830.70 0.143
830.80 0.143
830.90 0.1429
831.00 0.1428
831.10 0.1428
831.20 0.1427
831.30 0.1426
831.40 0.1426
831.50 0.1425
831.60 0.1424
831.70 0.1424
831.80 0.1423
831.90 0.1422
832.00 0.1422
832.10 0.1421
832.20 0.142
832.30 0.142
832.40 0.1419
832.50 0.1418
832.60 0.1418
832.70 0.1417
832.80 0.1416
832.90 0.1416
833.00 0.1415
833.10 0.1414
833.20 0.1414
833.30 0.1413
833.40 0.1413
833.50 0.1412
833.60 0.1411
833.70 0.1411
833.80 0.141
833.90 0.1409
834.00 0.1409
834.10 0.1408
834.20 0.1407
834.30 0.1407
834.40 0.1406
834.50 0.1405
834.60 0.1405
834.70 0.1404
834.80 0.1403
834.90 0.1403
835.00 0.1402
835.10 0.1401
835.20 0.1401
835.30 0.14
835.40 0.1399
835.50 0.1399
835.60 0.1398
835.70 0.1397
835.80 0.1397
835.90 0.1396
836.00 0.1395
836.10 0.1395
836.20 0.1394
836.30 0.1394
836.40 0.1393
836.50 0.1392
836.60 0.1392
836.70 0.1391
836.80 0.139
836.90 0.139
837.00 0.1389
837.10 0.1388
837.20 0.1388
837.30 0.1387
837.40 0.1386
837.50 0.1386
837.60 0.1385
837.70 0.1384
837.80 0.1384
837.90 0.1383
838.00 0.1383
838.10 0.1382
838.20 0.1381
838.30 0.1381
838.40 0.138
838.50 0.1379
838.60 0.1379
838.70 0.1378
838.80 0.1377
838.90 0.1377
839.00 0.1376
839.10 0.1376
839.20 0.1375
839.30 0.1374
839.40 0.1374
839.50 0.1373
839.60 0.1372
839.70 0.1372
839.80 0.1371
839.90 0.137
840.00 0.137
840.10 0.1369
840.20 0.1369
840.30 0.1368
840.40 0.1367
840.50 0.1367
840.60 0.1366
840.70 0.1365
840.80 0.1365
840.90 0.1364
841.00 0.1363
841.10 0.1363
841.20 0.1362
841.30 0.1362
841.40 0.1361
841.50 0.136
841.60 0.136
841.70 0.1359
841.80 0.1358
841.90 0.1358
842.00 0.1357
842.10 0.1356
842.20 0.1356
842.30 0.1355
842.40 0.1355
842.50 0.1354
842.60 0.1353
842.70 0.1353
842.80 0.1352
842.90 0.1351
843.00 0.1351
843.10 0.135
843.20 0.135
843.30 0.1349
843.40 0.1348
843.50 0.1348
843.60 0.1347
843.70 0.1346
843.80 0.1346
843.90 0.1345
844.00 0.1345
844.10 0.1344
844.20 0.1343
844.30 0.1343
844.40 0.1342
844.50 0.1342
844.60 0.1341
844.70 0.134
844.80 0.134
844.90 0.1339
845.00 0.1338
845.10 0.1338
845.20 0.1337
845.30 0.1337
845.40 0.1336
845.50 0.1335
845.60 0.1335
845.70 0.1334
845.80 0.1333
845.90 0.1333
846.00 0.1332
846.10 0.1332
846.20 0.1331
846.30 0.133
846.40 0.133
846.50 0.1329
846.60 0.1329
846.70 0.1328
846.80 0.1327
846.90 0.1327
847.00 0.1326
847.10 0.1325
847.20 0.1325
847.30 0.1324
847.40 0.1324
847.50 0.1323
847.60 0.1322
847.70 0.1322
847.80 0.1321
847.90 0.1321
848.00 0.132
848.10 0.1319
848.20 0.1319
848.30 0.1318
848.40 0.1318
848.50 0.1317
848.60 0.1316
848.70 0.1316
848.80 0.1315
848.90 0.1315
849.00 0.1314
849.10 0.1313
849.20 0.1313
849.30 0.1312
849.40 0.1311
849.50 0.1311
849.60 0.131
849.70 0.131
849.80 0.1309
849.90 0.1308
850.00 0.1308
850.10 0.1307
850.20 0.1307
850.30 0.1306
850.40 0.1305
850.50 0.1305
850.60 0.1304
850.70 0.1304
850.80 0.1303
850.90 0.1302
851.00 0.1302
851.10 0.1301
851.20 0.1301
851.30 0.13
851.40 0.1299
851.50 0.1299
851.60 0.1298
851.70 0.1298
851.80 0.1297
851.90 0.1296
852.00 0.1296
852.10 0.1295
852.20 0.1295
852.30 0.1294
852.40 0.1293
852.50 0.1293
852.60 0.1292
852.70 0.1292
852.80 0.1291
852.90 0.1291
853.00 0.129
853.10 0.1289
853.20 0.1289
853.30 0.1288
853.40 0.1288
853.50 0.1287
853.60 0.1286
853.70 0.1286
853.80 0.1285
853.90 0.1285
854.00 0.1284
854.10 0.1283
854.20 0.1283
854.30 0.1282
854.40 0.1282
854.50 0.1281
854.60 0.1281
854.70 0.128
854.80 0.1279
854.90 0.1279
855.00 0.1278
855.10 0.1278
855.20 0.1277
855.30 0.1276
855.40 0.1276
855.50 0.1275
855.60 0.1275
855.70 0.1274
855.80 0.1274
855.90 0.1273
856.00 0.1272
856.10 0.1272
856.20 0.1271
856.30 0.1271
856.40 0.127
856.50 0.1269
856.60 0.1269
856.70 0.1268
856.80 0.1268
856.90 0.1267
857.00 0.1267
857.10 0.1266
857.20 0.1265
857.30 0.1265
857.40 0.1264
857.50 0.1264
857.60 0.1263
857.70 0.1263
857.80 0.1262
857.90 0.1261
858.00 0.1261
858.10 0.126
858.20 0.126
858.30 0.1259
858.40 0.1259
858.50 0.1258
858.60 0.1257
858.70 0.1257
858.80 0.1256
858.90 0.1256
859.00 0.1255
859.10 0.1255
859.20 0.1254
859.30 0.1254
859.40 0.1253
859.50 0.1252
859.60 0.1252
859.70 0.1251
859.80 0.1251
859.90 0.125
860.00 0.125
860.10 0.1249
860.20 0.1248
860.30 0.1248
860.40 0.1247
860.50 0.1247
860.60 0.1246
860.70 0.1246
860.80 0.1245
860.90 0.1245
861.00 0.1244
861.10 0.1243
861.20 0.1243
861.30 0.1242
861.40 0.1242
861.50 0.1241
861.60 0.1241
861.70 0.124
861.80 0.124
861.90 0.1239
862.00 0.1238
862.10 0.1238
862.20 0.1237
862.30 0.1237
862.40 0.1236
862.50 0.1236
862.60 0.1235
862.70 0.1235
862.80 0.1234
862.90 0.1233
863.00 0.1233
863.10 0.1232
863.20 0.1232
863.30 0.1231
863.40 0.1231
863.50 0.123
863.60 0.1229
863.70 0.1229
863.80 0.1228
863.90 0.1228
864.00 0.1227
864.10 0.1227
864.20 0.1226
864.30 0.1226
864.40 0.1225
864.50 0.1224
864.60 0.1224
864.70 0.1223
864.80 0.1223
864.90 0.1222
865.00 0.1222
865.10 0.1221
865.20 0.1221
865.30 0.122
865.40 0.1219
865.50 0.1219
865.60 0.1218
865.70 0.1218
865.80 0.1217
865.90 0.1217
866.00 0.1216
866.10 0.1216
866.20 0.1215
866.30 0.1215
866.40 0.1214
866.50 0.1213
866.60 0.1213
866.70 0.1212
866.80 0.1212
866.90 0.1211
867.00 0.1211
867.10 0.121
867.20 0.121
867.30 0.1209
867.40 0.1208
867.50 0.1208
867.60 0.1207
867.70 0.1207
867.80 0.1206
867.90 0.1206
868.00 0.1205
868.10 0.1205
868.20 0.1204
868.30 0.1204
868.40 0.1203
868.50 0.1203
868.60 0.1202
868.70 0.1201
868.80 0.1201
868.90 0.12
869.00 0.12
869.10 0.1199
869.20 0.1199
869.30 0.1198
869.40 0.1198
869.50 0.1197
869.60 0.1197
869.70 0.1196
869.80 0.1196
869.90 0.1195
870.00 0.1194
870.10 0.1194
870.20 0.1193
870.30 0.1193
870.40 0.1192
870.50 0.1192
870.60 0.1191
870.70 0.1191
870.80 0.119
870.90 0.119
871.00 0.1189
871.10 0.1189
871.20 0.1188
871.30 0.1188
871.40 0.1187
871.50 0.1186
871.60 0.1186
871.70 0.1185
871.80 0.1185
871.90 0.1184
872.00 0.1184
872.10 0.1183
872.20 0.1183
872.30 0.1182
872.40 0.1182
872.50 0.1181
872.60 0.1181
872.70 0.118
872.80 0.118
872.90 0.1179
873.00 0.1179
873.10 0.1178
873.20 0.1177
873.30 0.1177
873.40 0.1176
873.50 0.1176
873.60 0.1175
873.70 0.1175
873.80 0.1174
873.90 0.1174
874.00 0.1173
874.10 0.1173
874.20 0.1172
874.30 0.1172
874.40 0.1171
874.50 0.1171
874.60 0.117
874.70 0.117
874.80 0.1169
874.90 0.1169
875.00 0.1168
875.10 0.1168
875.20 0.1167
875.30 0.1166
875.40 0.1166
875.50 0.1165
875.60 0.1165
875.70 0.1164
875.80 0.1164
875.90 0.1163
876.00 0.1163
876.10 0.1162
876.20 0.1162
876.30 0.1161
876.40 0.1161
876.50 0.116
876.60 0.116
876.70 0.1159
876.80 0.1159
876.90 0.1158
877.00 0.1158
877.10 0.1157
877.20 0.1157
877.30 0.1156
877.40 0.1156
877.50 0.1155
877.60 0.1155
877.70 0.1154
877.80 0.1153
877.90 0.1153
878.00 0.1152
878.10 0.1152
878.20 0.1151
878.30 0.1151
878.40 0.115
878.50 0.115
878.60 0.1149
878.70 0.1149
878.80 0.1148
878.90 0.1148
879.00 0.1147
879.10 0.1147
879.20 0.1146
879.30 0.1146
879.40 0.1145
879.50 0.1145
879.60 0.1144
879.70 0.1144
879.80 0.1143
879.90 0.1143
880.00 0.1142
880.10 0.1142
880.20 0.1141
880.30 0.1141
880.40 0.114
880.50 0.114
880.60 0.1139
880.70 0.1139
880.80 0.1138
880.90 0.1138
881.00 0.1137
881.10 0.1137
881.20 0.1136
881.30 0.1136
881.40 0.1135
881.50 0.1135
881.60 0.1134
881.70 0.1134
881.80 0.1133
881.90 0.1133
882.00 0.1132
882.10 0.1132
882.20 0.1131
882.30 0.1131
882.40 0.113
882.50 0.113
882.60 0.1129
882.70 0.1129
882.80 0.1128
882.90 0.1128
883.00 0.1127
883.10 0.1127
883.20 0.1126
883.30 0.1126
883.40 0.1125
883.50 0.1125
883.60 0.1124
883.70 0.1124
883.80 0.1123
883.90 0.1123
884.00 0.1122
884.10 0.1122
884.20 0.1121
884.30 0.1121
884.40 0.112
884.50 0.112
884.60 0.1119
884.70 0.1119
884.80 0.1118
884.90 0.1118
885.00 0.1117
885.10 0.1117
885.20 0.1116
885.30 0.1116
885.40 0.1115
885.50 0.1115
885.60 0.1114
885.70 0.1114
885.80 0.1113
885.90 0.1113
886.00 0.1112
886.10 0.1112
886.20 0.1111
886.30 0.1111
886.40 0.111
886.50 0.111
886.60 0.1109
886.70 0.1109
886.80 0.1108
886.90 0.1108
887.00 0.1107
887.10 0.1107
887.20 0.1106
887.30 0.1106
887.40 0.1106
887.50 0.1105
887.60 0.1105
887.70 0.1104
887.80 0.1104
887.90 0.1103
888.00 0.1103
888.10 0.1102
888.20 0.1102
888.30 0.1101
888.40 0.1101
888.50 0.11
888.60 0.11
888.70 0.1099
888.80 0.1099
888.90 0.1098
889.00 0.1098
889.10 0.1097
889.20 0.1097
889.30 0.1096
889.40 0.1096
889.50 0.1095
889.60 0.1095
889.70 0.1094
889.80 0.1094
889.90 0.1093
890.00 0.1093
890.10 0.1093
890.20 0.1092
890.30 0.1092
890.40 0.1091
890.50 0.1091
890.60 0.109
890.70 0.109
890.80 0.1089
890.90 0.1089
891.00 0.1088
891.10 0.1088
891.20 0.1087
891.30 0.1087
891.40 0.1086
891.50 0.1086
891.60 0.1085
891.70 0.1085
891.80 0.1084
891.90 0.1084
892.00 0.1083
892.10 0.1083
892.20 0.1082
892.30 0.1082
892.40 0.1082
892.50 0.1081
892.60 0.1081
892.70 0.108
892.80 0.108
892.90 0.1079
893.00 0.1079
893.10 0.1078
893.20 0.1078
893.30 0.1077
893.40 0.1077
893.50 0.1076
893.60 0.1076
893.70 0.1075
893.80 0.1075
893.90 0.1075
894.00 0.1074
894.10 0.1074
894.20 0.1073
894.30 0.1073
894.40 0.1072
894.50 0.1072
894.60 0.1071
894.70 0.1071
894.80 0.107
894.90 0.107
895.00 0.1069
895.10 0.1069
895.20 0.1068
895.30 0.1068
895.40 0.1068
895.50 0.1067
895.60 0.1067
895.70 0.1066
895.80 0.1066
895.90 0.1065
896.00 0.1065
896.10 0.1064
896.20 0.1064
896.30 0.1063
896.40 0.1063
896.50 0.1062
896.60 0.1062
896.70 0.1061
896.80 0.1061
896.90 0.1061
897.00 0.106
897.10 0.106
897.20 0.1059
897.30 0.1059
897.40 0.1058
897.50 0.1058
897.60 0.1057
897.70 0.1057
897.80 0.1056
897.90 0.1056
898.00 0.1056
898.10 0.1055
898.20 0.1055
898.30 0.1054
898.40 0.1054
898.50 0.1053
898.60 0.1053
898.70 0.1052
898.80 0.1052
898.90 0.1051
899.00 0.1051
899.10 0.105
899.20 0.105
899.30 0.105
899.40 0.1049
899.50 0.1049
899.60 0.1048
899.70 0.1048
899.80 0.1047
899.90 0.1047
900.00 0.1046
900.10 0.1046
900.20 0.1045
900.30 0.1045
900.40 0.1045
900.50 0.1044
900.60 0.1044
900.70 0.1043
900.80 0.1043
900.90 0.1042
901.00 0.1042
901.10 0.1041
901.20 0.1041
901.30 0.1041
901.40 0.104
901.50 0.104
901.60 0.1039
901.70 0.1039
901.80 0.1038
901.90 0.1038
902.00 0.1037
902.10 0.1037
902.20 0.1036
902.30 0.1036
902.40 0.1036
902.50 0.1035
902.60 0.1035
902.70 0.1034
902.80 0.1034
902.90 0.1033
903.00 0.1033
903.10 0.1032
903.20 0.1032
903.30 0.1032
903.40 0.1031
903.50 0.1031
903.60 0.103
903.70 0.103
903.80 0.1029
903.90 0.1029
904.00 0.1028
904.10 0.1028
904.20 0.1028
904.30 0.1027
904.40 0.1027
904.50 0.1026
904.60 0.1026
904.70 0.1025
904.80 0.1025
904.90 0.1024
905.00 0.1024
905.10 0.1024
905.20 0.1023
905.30 0.1023
905.40 0.1022
905.50 0.1022
905.60 0.1021
905.70 0.1021
905.80 0.1021
905.90 0.102
906.00 0.102
906.10 0.1019
906.20 0.1019
906.30 0.1018
906.40 0.1018
906.50 0.1017
906.60 0.1017
906.70 0.1017
906.80 0.1016
906.90 0.1016
907.00 0.1015
907.10 0.1015
907.20 0.1014
907.30 0.1014
907.40 0.1014
907.50 0.1013
907.60 0.1013
907.70 0.1012
907.80 0.1012
907.90 0.1011
908.00 0.1011
908.10 0.101
908.20 0.101
908.30 0.101
908.40 0.1009
908.50 0.1009
908.60 0.1008
908.70 0.1008
908.80 0.1007
908.90 0.1007
909.00 0.1007
909.10 0.1006
909.20 0.1006
909.30 0.1005
909.40 0.1005
909.50 0.1004
909.60 0.1004
909.70 0.1004
909.80 0.1003
909.90 0.1003
910.00 0.1002
910.10 0.1002
910.20 0.1001
910.30 0.1001
910.40 0.1001
910.50 0.1
910.60 0.09997
910.70 0.09993
910.80 0.09989
910.90 0.09985
911.00 0.0998
911.10 0.09976
911.20 0.09972
911.30 0.09967
911.40 0.09963
911.50 0.09959
911.60 0.09955
911.70 0.0995
911.80 0.09946
911.90 0.09942
912.00 0.09938
912.10 0.09933
912.20 0.09929
912.30 0.09925
912.40 0.09921
912.50 0.09917
912.60 0.09912
912.70 0.09908
912.80 0.09904
912.90 0.099
913.00 0.09895
913.10 0.09891
913.20 0.09887
913.30 0.09883
913.40 0.09879
913.50 0.09874
913.60 0.0987
913.70 0.09866
913.80 0.09862
913.90 0.09858
914.00 0.09854
914.10 0.09849
914.20 0.09845
914.30 0.09841
914.40 0.09837
914.50 0.09833
914.60 0.09828
914.70 0.09824
914.80 0.0982
914.90 0.09816
915.00 0.09812
915.10 0.09808
915.20 0.09803
915.30 0.09799
915.40 0.09795
915.50 0.09791
915.60 0.09787
915.70 0.09783
915.80 0.09778
915.90 0.09774
916.00 0.0977
916.10 0.09766
916.20 0.09762
916.30 0.09758
916.40 0.09753
916.50 0.09749
916.60 0.09745
916.70 0.09741
916.80 0.09737
916.90 0.09733
917.00 0.09729
917.10 0.09724
917.20 0.0972
917.30 0.09716
917.40 0.09712
917.50 0.09708
917.60 0.09704
917.70 0.097
917.80 0.09696
917.90 0.09692
918.00 0.09688
918.10 0.09683
918.20 0.09679
918.30 0.09675
918.40 0.09671
918.50 0.09667
918.60 0.09663
918.70 0.09659
918.80 0.09655
918.90 0.09651
919.00 0.09647
919.10 0.09643
919.20 0.09639
919.30 0.09635
919.40 0.0963
919.50 0.09626
919.60 0.09622
919.70 0.09618
919.80 0.09614
919.90 0.0961
920.00 0.09606
920.10 0.09602
920.20 0.09598
920.30 0.09594
920.40 0.0959
920.50 0.09586
920.60 0.09582
920.70 0.09578
920.80 0.09574
920.90 0.0957
921.00 0.09566
921.10 0.09562
921.20 0.09558
921.30 0.09553
921.40 0.09549
921.50 0.09545
921.60 0.09541
921.70 0.09537
921.80 0.09533
921.90 0.09529
922.00 0.09525
922.10 0.09521
922.20 0.09517
922.30 0.09513
922.40 0.09509
922.50 0.09505
922.60 0.09501
922.70 0.09497
922.80 0.09493
922.90 0.09489
923.00 0.09485
923.10 0.09481
923.20 0.09477
923.30 0.09473
923.40 0.09469
923.50 0.09465
923.60 0.09461
923.70 0.09457
923.80 0.09454
923.90 0.0945
924.00 0.09446
924.10 0.09442
924.20 0.09438
924.30 0.09434
924.40 0.0943
924.50 0.09426
924.60 0.09422
924.70 0.09418
924.80 0.09414
924.90 0.0941
925.00 0.09406
925.10 0.09402
925.20 0.09398
925.30 0.09394
925.40 0.0939
925.50 0.09386
925.60 0.09382
925.70 0.09378
925.80 0.09374
925.90 0.0937
926.00 0.09367
926.10 0.09363
926.20 0.09359
926.30 0.09355
926.40 0.09351
926.50 0.09347
926.60 0.09343
926.70 0.09339
926.80 0.09335
926.90 0.09331
927.00 0.09327
927.10 0.09323
927.20 0.09319
927.30 0.09316
927.40 0.09312
927.50 0.09308
927.60 0.09304
927.70 0.093
927.80 0.09296
927.90 0.09292
928.00 0.09288
928.10 0.09284
928.20 0.09281
928.30 0.09277
928.40 0.09273
928.50 0.09269
928.60 0.09265
928.70 0.09261
928.80 0.09257
928.90 0.09254
929.00 0.0925
929.10 0.09246
929.20 0.09242
929.30 0.09238
929.40 0.09234
929.50 0.0923
929.60 0.09227
929.70 0.09223
929.80 0.09219
929.90 0.09215
930.00 0.09211
930.10 0.09207
930.20 0.09203
930.30 0.092
930.40 0.09196
930.50 0.09192
930.60 0.09188
930.70 0.09184
930.80 0.0918
930.90 0.09177
931.00 0.09173
931.10 0.09169
931.20 0.09165
931.30 0.09161
931.40 0.09157
931.50 0.09154
931.60 0.0915
931.70 0.09146
931.80 0.09142
931.90 0.09138
932.00 0.09134
932.10 0.09131
932.20 0.09127
932.30 0.09123
932.40 0.09119
932.50 0.09115
932.60 0.09112
932.70 0.09108
932.80 0.09104
932.90 0.091
933.00 0.09097
933.10 0.09093
933.20 0.09089
933.30 0.09085
933.40 0.09081
933.50 0.09078
933.60 0.09074
933.70 0.0907
933.80 0.09066
933.90 0.09063
934.00 0.09059
934.10 0.09055
934.20 0.09051
934.30 0.09047
934.40 0.09044
934.50 0.0904
934.60 0.09036
934.70 0.09032
934.80 0.09029
934.90 0.09025
935.00 0.09021
935.10 0.09018
935.20 0.09014
935.30 0.0901
935.40 0.09006
935.50 0.09003
935.60 0.08999
935.70 0.08995
935.80 0.08991
935.90 0.08988
936.00 0.08984
936.10 0.0898
936.20 0.08976
936.30 0.08973
936.40 0.08969
936.50 0.08965
936.60 0.08962
936.70 0.08958
936.80 0.08954
936.90 0.0895
937.00 0.08947
937.10 0.08943
937.20 0.08939
937.30 0.08936
937.40 0.08932
937.50 0.08928
937.60 0.08924
937.70 0.08921
937.80 0.08917
937.90 0.08913
938.00 0.0891
938.10 0.08906
938.20 0.08902
938.30 0.08899
938.40 0.08895
938.50 0.08891
938.60 0.08888
938.70 0.08884
938.80 0.0888
938.90 0.08876
939.00 0.08873
939.10 0.08869
939.20 0.08865
939.30 0.08862
939.40 0.08858
939.50 0.08854
939.60 0.08851
939.70 0.08847
939.80 0.08843
939.90 0.0884
940.00 0.08836
940.10 0.08832
940.20 0.08829
940.30 0.08825
940.40 0.08822
940.50 0.08818
940.60 0.08814
940.70 0.08811
940.80 0.08807
940.90 0.08803
941.00 0.088
941.10 0.08796
941.20 0.08792
941.30 0.08789
941.40 0.08785
941.50 0.08781
941.60 0.08778
941.70 0.08774
941.80 0.08771
941.90 0.08767
942.00 0.08763
942.10 0.0876
942.20 0.08756
942.30 0.08752
942.40 0.08749
942.50 0.08745
942.60 0.08742
942.70 0.08738
942.80 0.08734
942.90 0.08731
943.00 0.08727
943.10 0.08724
943.20 0.0872
943.30 0.08716
943.40 0.08713
943.50 0.08709
943.60 0.08706
943.70 0.08702
943.80 0.08698
943.90 0.08695
944.00 0.08691
944.10 0.08688
944.20 0.08684
944.30 0.08681
944.40 0.08677
944.50 0.08673
944.60 0.0867
944.70 0.08666
944.80 0.08663
944.90 0.08659
945.00 0.08655
945.10 0.08652
945.20 0.08648
945.30 0.08645
945.40 0.08641
945.50 0.08638
945.60 0.08634
945.70 0.08631
945.80 0.08627
945.90 0.08623
946.00 0.0862
946.10 0.08616
946.20 0.08613
946.30 0.08609
946.40 0.08606
946.50 0.08602
946.60 0.08599
946.70 0.08595
946.80 0.08592
946.90 0.08588
947.00 0.08584
947.10 0.08581
947.20 0.08577
947.30 0.08574
947.40 0.0857
947.50 0.08567
947.60 0.08563
947.70 0.0856
947.80 0.08556
947.90 0.08553
948.00 0.08549
948.10 0.08546
948.20 0.08542
948.30 0.08539
948.40 0.08535
948.50 0.08532
948.60 0.08528
948.70 0.08525
948.80 0.08521
948.90 0.08518
949.00 0.08514
949.10 0.08511
949.20 0.08507
949.30 0.08504
949.40 0.085
949.50 0.08497
949.60 0.08493
949.70 0.0849
949.80 0.08486
949.90 0.08483
950.00 0.08479
950.10 0.08476
950.20 0.08473
950.30 0.08469
950.40 0.08466
950.50 0.08462
950.60 0.08459
950.70 0.08455
950.80 0.08452
950.90 0.08448
951.00 0.08445
951.10 0.08441
951.20 0.08438
951.30 0.08434
951.40 0.08431
951.50 0.08428
951.60 0.08424
951.70 0.08421
951.80 0.08417
951.90 0.08414
952.00 0.0841
952.10 0.08407
952.20 0.08404
952.30 0.084
952.40 0.08397
952.50 0.08393
952.60 0.0839
952.70 0.08387
952.80 0.08383
952.90 0.0838
953.00 0.08376
953.10 0.08373
953.20 0.0837
953.30 0.08366
953.40 0.08363
953.50 0.08359
953.60 0.08356
953.70 0.08353
953.80 0.08349
953.90 0.08346
954.00 0.08342
954.10 0.08339
954.20 0.08336
954.30 0.08332
954.40 0.08329
954.50 0.08326
954.60 0.08322
954.70 0.08319
954.80 0.08316
954.90 0.08312
955.00 0.08309
955.10 0.08305
955.20 0.08302
955.30 0.08299
955.40 0.08295
955.50 0.08292
955.60 0.08289
955.70 0.08285
955.80 0.08282
955.90 0.08278
956.00 0.08275
956.10 0.08272
956.20 0.08268
956.30 0.08265
956.40 0.08262
956.50 0.08258
956.60 0.08255
956.70 0.08252
956.80 0.08248
956.90 0.08245
957.00 0.08242
957.10 0.08238
957.20 0.08235
957.30 0.08232
957.40 0.08228
957.50 0.08225
957.60 0.08222
957.70 0.08219
957.80 0.08215
957.90 0.08212
958.00 0.08209
958.10 0.08205
958.20 0.08202
958.30 0.08199
958.40 0.08195
958.50 0.08192
958.60 0.08189
958.70 0.08186
958.80 0.08182
958.90 0.08179
959.00 0.08176
959.10 0.08172
959.20 0.08169
959.30 0.08166
959.40 0.08163
959.50 0.08159
959.60 0.08156
959.70 0.08153
959.80 0.08149
959.90 0.08146
960.00 0.08143
960.10 0.0814
960.20 0.08136
960.30 0.08133
960.40 0.0813
960.50 0.08127
960.60 0.08123
960.70 0.0812
960.80 0.08117
960.90 0.08114
961.00 0.0811
961.10 0.08107
961.20 0.08104
961.30 0.08101
961.40 0.08097
961.50 0.08094
961.60 0.08091
961.70 0.08088
961.80 0.08084
961.90 0.08081
962.00 0.08078
962.10 0.08075
962.20 0.08071
962.30 0.08068
962.40 0.08065
962.50 0.08062
962.60 0.08059
962.70 0.08055
962.80 0.08052
962.90 0.08049
963.00 0.08046
963.10 0.08042
963.20 0.08039
963.30 0.08036
963.40 0.08033
963.50 0.0803
963.60 0.08026
963.70 0.08023
963.80 0.0802
963.90 0.08017
964.00 0.08014
964.10 0.0801
964.20 0.08007
964.30 0.08004
964.40 0.08001
964.50 0.07998
964.60 0.07994
964.70 0.07991
964.80 0.07988
964.90 0.07985
965.00 0.07982
965.10 0.07978
965.20 0.07975
965.30 0.07972
965.40 0.07969
965.50 0.07966
965.60 0.07963
965.70 0.07959
965.80 0.07956
965.90 0.07953
966.00 0.0795
966.10 0.07947
966.20 0.07943
966.30 0.0794
966.40 0.07937
966.50 0.07934
966.60 0.07931
966.70 0.07928
966.80 0.07924
966.90 0.07921
967.00 0.07918
967.10 0.07915
967.20 0.07912
967.30 0.07909
967.40 0.07906
967.50 0.07902
967.60 0.07899
967.70 0.07896
967.80 0.07893
967.90 0.0789
968.00 0.07887
968.10 0.07883
968.20 0.0788
968.30 0.07877
968.40 0.07874
968.50 0.07871
968.60 0.07868
968.70 0.07865
968.80 0.07861
968.90 0.07858
969.00 0.07855
969.10 0.07852
969.20 0.07849
969.30 0.07846
969.40 0.07843
969.50 0.07839
969.60 0.07836
969.70 0.07833
969.80 0.0783
969.90 0.07827
970.00 0.07824
970.10 0.07821
970.20 0.07818
970.30 0.07814
970.40 0.07811
970.50 0.07808
970.60 0.07805
970.70 0.07802
970.80 0.07799
970.90 0.07796
971.00 0.07793
971.10 0.0779
971.20 0.07786
971.30 0.07783
971.40 0.0778
971.50 0.07777
971.60 0.07774
971.70 0.07771
971.80 0.07768
971.90 0.07765
972.00 0.07762
972.10 0.07758
972.20 0.07755
972.30 0.07752
972.40 0.07749
972.50 0.07746
972.60 0.07743
972.70 0.0774
972.80 0.07737
972.90 0.07734
973.00 0.07731
973.10 0.07727
973.20 0.07724
973.30 0.07721
973.40 0.07718
973.50 0.07715
973.60 0.07712
973.70 0.07709
973.80 0.07706
973.90 0.07703
974.00 0.077
974.10 0.07697
974.20 0.07694
974.30 0.0769
974.40 0.07687
974.50 0.07684
974.60 0.07681
974.70 0.07678
974.80 0.07675
974.90 0.07672
975.00 0.07669
975.10 0.07666
975.20 0.07663
975.30 0.0766
975.40 0.07657
975.50 0.07654
975.60 0.07651
975.70 0.07648
975.80 0.07644
975.90 0.07641
976.00 0.07638
976.10 0.07635
976.20 0.07632
976.30 0.07629
976.40 0.07626
976.50 0.07623
976.60 0.0762
976.70 0.07617
976.80 0.07614
976.90 0.07611
977.00 0.07608
977.10 0.07605
977.20 0.07602
977.30 0.07599
977.40 0.07596
977.50 0.07593
977.60 0.0759
977.70 0.07587
977.80 0.07583
977.90 0.0758
978.00 0.07577
978.10 0.07574
978.20 0.07571
978.30 0.07568
978.40 0.07565
978.50 0.07562
978.60 0.07559
978.70 0.07556
978.80 0.07553
978.90 0.0755
979.00 0.07547
979.10 0.07544
979.20 0.07541
979.30 0.07538
979.40 0.07535
979.50 0.07532
979.60 0.07529
979.70 0.07526
979.80 0.07523
979.90 0.0752
980.00 0.07517
980.10 0.07514
980.20 0.07511
980.30 0.07508
980.40 0.07505
980.50 0.07502
980.60 0.07499
980.70 0.07496
980.80 0.07493
980.90 0.0749
981.00 0.07487
981.10 0.07484
981.20 0.07481
981.30 0.07478
981.40 0.07475
981.50 0.07472
981.60 0.07469
981.70 0.07466
981.80 0.07463
981.90 0.0746
982.00 0.07457
982.10 0.07454
982.20 0.07451
982.30 0.07448
982.40 0.07445
982.50 0.07442
982.60 0.07439
982.70 0.07436
982.80 0.07433
982.90 0.0743
983.00 0.07427
983.10 0.07424
983.20 0.07421
983.30 0.07418
983.40 0.07415
983.50 0.07412
983.60 0.07409
983.70 0.07406
983.80 0.07403
983.90 0.074
984.00 0.07397
984.10 0.07394
984.20 0.07391
984.30 0.07388
984.40 0.07385
984.50 0.07382
984.60 0.07379
984.70 0.07376
984.80 0.07373
984.90 0.0737
985.00 0.07367
985.10 0.07364
985.20 0.07361
985.30 0.07358
985.40 0.07355
985.50 0.07352
985.60 0.07349
985.70 0.07347
985.80 0.07344
985.90 0.07341
986.00 0.07338
986.10 0.07335
986.20 0.07332
986.30 0.07329
986.40 0.07326
986.50 0.07323
986.60 0.0732
986.70 0.07317
986.80 0.07314
986.90 0.07311
987.00 0.07308
987.10 0.07305
987.20 0.07302
987.30 0.07299
987.40 0.07296
987.50 0.07293
987.60 0.0729
987.70 0.07288
987.80 0.07285
987.90 0.07282
988.00 0.07279
988.10 0.07276
988.20 0.07273
988.30 0.0727
988.40 0.07267
988.50 0.07264
988.60 0.07261
988.70 0.07258
988.80 0.07255
988.90 0.07252
989.00 0.07249
989.10 0.07246
989.20 0.07244
989.30 0.07241
989.40 0.07238
989.50 0.07235
989.60 0.07232
989.70 0.07229
989.80 0.07226
989.90 0.07223
990.00 0.0722
990.10 0.07217
990.20 0.07214
990.30 0.07211
990.40 0.07209
990.50 0.07206
990.60 0.07203
990.70 0.072
990.80 0.07197
990.90 0.07194
991.00 0.07191
991.10 0.07188
991.20 0.07185
991.30 0.07182
991.40 0.07179
991.50 0.07177
991.60 0.07174
991.70 0.07171
991.80 0.07168
991.90 0.07165
992.00 0.07162
992.10 0.07159
992.20 0.07156
992.30 0.07153
992.40 0.0715
992.50 0.07148
992.60 0.07145
992.70 0.07142
992.80 0.07139
992.90 0.07136
993.00 0.07133
993.10 0.0713
993.20 0.07127
993.30 0.07125
993.40 0.07122
993.50 0.07119
993.60 0.07116
993.70 0.07113
993.80 0.0711
993.90 0.07107
994.00 0.07104
994.10 0.07102
994.20 0.07099
994.30 0.07096
994.40 0.07093
994.50 0.0709
994.60 0.07087
994.70 0.07084
994.80 0.07081
994.90 0.07079
995.00 0.07076
995.10 0.07073
995.20 0.0707
995.30 0.07067
995.40 0.07064
995.50 0.07061
995.60 0.07059
995.70 0.07056
995.80 0.07053
995.90 0.0705
996.00 0.07047
996.10 0.07044
996.20 0.07042
996.30 0.07039
996.40 0.07036
996.50 0.07033
996.60 0.0703
996.70 0.07027
996.80 0.07025
996.90 0.07022
997.00 0.07019
997.10 0.07016
997.20 0.07013
997.30 0.0701
997.40 0.07008
997.50 0.07005
997.60 0.07002
997.70 0.06999
997.80 0.06996
997.90 0.06994
998.00 0.06991
998.10 0.06988
998.20 0.06985
998.30 0.06982
998.40 0.0698
998.50 0.06977
998.60 0.06974
998.70 0.06971
998.80 0.06968
998.90 0.06966
999.00 0.06963
999.10 0.0696
999.20 0.06957
999.30 0.06955
999.40 0.06952
999.50 0.06949
999.60 0.06946
999.70 0.06943
999.80 0.0694
999.90 0.06938
1000.00 0.06935
1000.10 0.06932
1000.20 0.06929
1000.30 0.06926
1000.40 0.06923
1000.50 0.0692
1000.60 0.06917
1000.70 0.06914
1000.80 0.06912
1000.90 0.06909
1001.00 0.06906
1001.10 0.06903
1001.20 0.069
1001.30 0.06897
1001.40 0.06894
1001.50 0.06891
1001.60 0.06889
1001.70 0.06886
1001.80 0.06883
1001.90 0.0688
1002.00 0.06878
1002.10 0.06875
1002.20 0.06873
1002.30 0.0687
1002.40 0.06867
1002.50 0.06865
1002.60 0.06862
1002.70 0.06859
1002.80 0.06857
1002.90 0.06854
1003.00 0.06851
1003.10 0.06849
1003.20 0.06846
1003.30 0.06844
1003.40 0.06841
1003.50 0.06839
1003.60 0.06836
1003.70 0.06833
1003.80 0.06831
1003.90 0.06828
1004.00 0.06826
1004.10 0.06823
1004.20 0.06821
1004.30 0.06818
1004.40 0.06816
1004.50 0.06813
1004.60 0.06811
1004.70 0.06808
1004.80 0.06805
1004.90 0.06803
1005.00 0.068
1005.10 0.06797
1005.20 0.06795
1005.30 0.06792
1005.40 0.0679
1005.50 0.06787
1005.60 0.06784
1005.70 0.06782
1005.80 0.06779
1005.90 0.06776
1006.00 0.06774
1006.10 0.06771
1006.20 0.06768
1006.30 0.06766
1006.40 0.06763
1006.50 0.0676
1006.60 0.06758
1006.70 0.06755
1006.80 0.06752
1006.90 0.0675
1007.00 0.06747
1007.10 0.06745
1007.20 0.06742
1007.30 0.06739
1007.40 0.06737
1007.50 0.06734
1007.60 0.06732
1007.70 0.06729
1007.80 0.06727
1007.90 0.06724
1008.00 0.06722
1008.10 0.06719
1008.20 0.06717
1008.30 0.06714
1008.40 0.06711
1008.50 0.06709
1008.60 0.06706
1008.70 0.06704
1008.80 0.06701
1008.90 0.06699
1009.00 0.06696
1009.10 0.06694
1009.20 0.06691
1009.30 0.06689
1009.40 0.06686
1009.50 0.06684
1009.60 0.06681
1009.70 0.06679
1009.80 0.06676
1009.90 0.06674
1010.00 0.06671
1010.10 0.06669
1010.20 0.06667
1010.30 0.06664
1010.40 0.06662
1010.50 0.06659
1010.60 0.06657
1010.70 0.06654
1010.80 0.06652
1010.90 0.06649
1011.00 0.06647
1011.10 0.06644
1011.20 0.06642
1011.30 0.0664
1011.40 0.06637
1011.50 0.06635
1011.60 0.06632
1011.70 0.0663
1011.80 0.06627
1011.90 0.06625
1012.00 0.06622
1012.10 0.0662
1012.20 0.06618
1012.30 0.06615
1012.40 0.06613
1012.50 0.0661
1012.60 0.06608
1012.70 0.06606
1012.80 0.06603
1012.90 0.06601
1013.00 0.06598
1013.10 0.06596
1013.20 0.06593
1013.30 0.06591
1013.40 0.06589
1013.50 0.06586
1013.60 0.06584
1013.70 0.06581
1013.80 0.06579
1013.90 0.06577
1014.00 0.06574
1014.10 0.06572
1014.20 0.06569
1014.30 0.06567
1014.40 0.06565
1014.50 0.06562
1014.60 0.0656
1014.70 0.06557
1014.80 0.06555
1014.90 0.06553
1015.00 0.0655
1015.10 0.06548
1015.20 0.06546
1015.30 0.06543
1015.40 0.06541
1015.50 0.06538
1015.60 0.06536
1015.70 0.06534
1015.80 0.06531
1015.90 0.06529
1016.00 0.06527
1016.10 0.06524
1016.20 0.06522
1016.30 0.06519
1016.40 0.06517
1016.50 0.06515
1016.60 0.06512
1016.70 0.0651
1016.80 0.06508
1016.90 0.06505
1017.00 0.06503
1017.10 0.065
1017.20 0.06498
1017.30 0.06496
1017.40 0.06493
1017.50 0.06491
1017.60 0.06489
1017.70 0.06486
1017.80 0.06484
1017.90 0.06482
1018.00 0.06479
1018.10 0.06477
1018.20 0.06474
1018.30 0.06472
1018.40 0.0647
1018.50 0.06467
1018.60 0.06465
1018.70 0.06463
1018.80 0.0646
1018.90 0.06458
1019.00 0.06456
1019.10 0.06453
1019.20 0.06451
1019.30 0.06449
1019.40 0.06446
1019.50 0.06444
1019.60 0.06441
1019.70 0.06439
1019.80 0.06437
1019.90 0.06434
1020.00 0.06432
1020.10 0.0643
1020.20 0.06427
1020.30 0.06425
1020.40 0.06423
1020.50 0.0642
1020.60 0.06418
1020.70 0.06416
1020.80 0.06413
1020.90 0.06411
1021.00 0.06409
1021.10 0.06406
1021.20 0.06404
1021.30 0.06402
1021.40 0.06399
1021.50 0.06397
1021.60 0.06395
1021.70 0.06392
1021.80 0.0639
1021.90 0.06388
1022.00 0.06385
1022.10 0.06383
1022.20 0.06381
1022.30 0.06378
1022.40 0.06376
1022.50 0.06374
1022.60 0.06371
1022.70 0.06369
1022.80 0.06367
1022.90 0.06364
1023.00 0.06362
1023.10 0.0636
1023.20 0.06357
1023.30 0.06355
1023.40 0.06353
1023.50 0.0635
1023.60 0.06348
1023.70 0.06346
1023.80 0.06343
1023.90 0.06341
1024.00 0.06339
1024.10 0.06336
1024.20 0.06334
1024.30 0.06332
1024.40 0.06329
1024.50 0.06327
1024.60 0.06325
1024.70 0.06322
1024.80 0.0632
1024.90 0.06318
1025.00 0.06315
1025.10 0.06313
1025.20 0.06311
1025.30 0.06309
1025.40 0.06306
1025.50 0.06304
1025.60 0.06302
1025.70 0.06299
1025.80 0.06297
1025.90 0.06295
1026.00 0.06292
1026.10 0.0629
1026.20 0.06288
1026.30 0.06285
1026.40 0.06283
1026.50 0.06281
1026.60 0.06278
1026.70 0.06276
1026.80 0.06274
1026.90 0.06272
1027.00 0.06269
1027.10 0.06267
1027.20 0.06265
1027.30 0.06262
1027.40 0.0626
1027.50 0.06258
1027.60 0.06255
1027.70 0.06253
1027.80 0.06251
1027.90 0.06248
1028.00 0.06246
1028.10 0.06244
1028.20 0.06242
1028.30 0.06239
1028.40 0.06237
1028.50 0.06235
1028.60 0.06232
1028.70 0.0623
1028.80 0.06228
1028.90 0.06225
1029.00 0.06223
1029.10 0.06221
1029.20 0.06219
1029.30 0.06216
1029.40 0.06214
1029.50 0.06212
1029.60 0.06209
1029.70 0.06207
1029.80 0.06205
1029.90 0.06203
1030.00 0.062
1030.10 0.06198
1030.20 0.06196
1030.30 0.06193
1030.40 0.06191
1030.50 0.06189
1030.60 0.06187
1030.70 0.06184
1030.80 0.06182
1030.90 0.0618
1031.00 0.06177
1031.10 0.06175
1031.20 0.06173
1031.30 0.06171
1031.40 0.06168
1031.50 0.06166
1031.60 0.06164
1031.70 0.06162
1031.80 0.06159
1031.90 0.06157
1032.00 0.06155
1032.10 0.06152
1032.20 0.0615
1032.30 0.06148
1032.40 0.06146
1032.50 0.06143
1032.60 0.06141
1032.70 0.06139
1032.80 0.06136
1032.90 0.06134
1033.00 0.06132
1033.10 0.0613
1033.20 0.06127
1033.30 0.06125
1033.40 0.06123
1033.50 0.06121
1033.60 0.06118
1033.70 0.06116
1033.80 0.06114
1033.90 0.06111
1034.00 0.06109
1034.10 0.06107
1034.20 0.06105
1034.30 0.06102
1034.40 0.061
1034.50 0.06098
1034.60 0.06096
1034.70 0.06093
1034.80 0.06091
1034.90 0.06089
1035.00 0.06087
1035.10 0.06084
1035.20 0.06082
1035.30 0.0608
1035.40 0.06078
1035.50 0.06075
1035.60 0.06073
1035.70 0.06071
1035.80 0.06069
1035.90 0.06066
1036.00 0.06064
1036.10 0.06062
1036.20 0.0606
1036.30 0.06057
1036.40 0.06055
1036.50 0.06053
1036.60 0.06051
1036.70 0.06048
1036.80 0.06046
1036.90 0.06044
1037.00 0.06042
1037.10 0.06039
1037.20 0.06037
1037.30 0.06035
1037.40 0.06033
1037.50 0.0603
1037.60 0.06028
1037.70 0.06026
1037.80 0.06024
1037.90 0.06021
1038.00 0.06019
1038.10 0.06017
1038.20 0.06015
1038.30 0.06012
1038.40 0.0601
1038.50 0.06008
1038.60 0.06006
1038.70 0.06003
1038.80 0.06001
1038.90 0.05999
1039.00 0.05997
1039.10 0.05995
1039.20 0.05992
1039.30 0.0599
1039.40 0.05988
1039.50 0.05986
1039.60 0.05983
1039.70 0.05981
1039.80 0.05979
1039.90 0.05977
1040.00 0.05974
1040.10 0.05972
1040.20 0.0597
1040.30 0.05968
1040.40 0.05966
1040.50 0.05963
1040.60 0.05961
1040.70 0.05959
1040.80 0.05957
1040.90 0.05954
1041.00 0.05952
1041.10 0.0595
1041.20 0.05948
1041.30 0.05946
1041.40 0.05943
1041.50 0.05941
1041.60 0.05939
1041.70 0.05937
1041.80 0.05934
1041.90 0.05932
1042.00 0.0593
1042.10 0.05928
1042.20 0.05926
1042.30 0.05923
1042.40 0.05921
1042.50 0.05919
1042.60 0.05917
1042.70 0.05915
1042.80 0.05912
1042.90 0.0591
1043.00 0.05908
1043.10 0.05906
1043.20 0.05903
1043.30 0.05901
1043.40 0.05899
1043.50 0.05897
1043.60 0.05895
1043.70 0.05892
1043.80 0.0589
1043.90 0.05888
1044.00 0.05886
1044.10 0.05884
1044.20 0.05881
1044.30 0.05879
1044.40 0.05877
1044.50 0.05875
1044.60 0.05873
1044.70 0.0587
1044.80 0.05868
1044.90 0.05866
1045.00 0.05864
1045.10 0.05862
1045.20 0.05859
1045.30 0.05857
1045.40 0.05855
1045.50 0.05853
1045.60 0.05851
1045.70 0.05848
1045.80 0.05846
1045.90 0.05844
1046.00 0.05842
1046.10 0.0584
1046.20 0.05837
1046.30 0.05835
1046.40 0.05833
1046.50 0.05831
1046.60 0.05829
1046.70 0.05827
1046.80 0.05824
1046.90 0.05822
1047.00 0.0582
1047.10 0.05818
1047.20 0.05816
1047.30 0.05813
1047.40 0.05811
1047.50 0.05809
1047.60 0.05807
1047.70 0.05805
1047.80 0.05802
1047.90 0.058
1048.00 0.05798
1048.10 0.05796
1048.20 0.05794
1048.30 0.05792
1048.40 0.05789
1048.50 0.05787
1048.60 0.05785
1048.70 0.05783
1048.80 0.05781
1048.90 0.05779
1049.00 0.05776
1049.10 0.05774
1049.20 0.05772
1049.30 0.0577
1049.40 0.05768
1049.50 0.05765
1049.60 0.05763
1049.70 0.05761
1049.80 0.05759
1049.90 0.05757
1050.00 0.05755
1050.10 0.05752
1050.20 0.0575
1050.30 0.05748
1050.40 0.05746
1050.50 0.05744
1050.60 0.05742
1050.70 0.05739
1050.80 0.05737
1050.90 0.05735
1051.00 0.05733
1051.10 0.05731
1051.20 0.05729
1051.30 0.05726
1051.40 0.05724
1051.50 0.05722
1051.60 0.0572
1051.70 0.05718
1051.80 0.05716
1051.90 0.05714
1052.00 0.05711
1052.10 0.05709
1052.20 0.05707
1052.30 0.05705
1052.40 0.05703
1052.50 0.05701
1052.60 0.05698
1052.70 0.05696
1052.80 0.05694
1052.90 0.05692
1053.00 0.0569
1053.10 0.05688
1053.20 0.05685
1053.30 0.05683
1053.40 0.05681
1053.50 0.05679
1053.60 0.05677
1053.70 0.05675
1053.80 0.05673
1053.90 0.0567
1054.00 0.05668
1054.10 0.05666
1054.20 0.05664
1054.30 0.05662
1054.40 0.0566
1054.50 0.05657
1054.60 0.05655
1054.70 0.05653
1054.80 0.05651
1054.90 0.05649
1055.00 0.05647
1055.10 0.05645
1055.20 0.05642
1055.30 0.0564
1055.40 0.05638
1055.50 0.05636
1055.60 0.05634
1055.70 0.05632
1055.80 0.0563
1055.90 0.05628
1056.00 0.05625
1056.10 0.05623
1056.20 0.05621
1056.30 0.05619
1056.40 0.05617
1056.50 0.05615
1056.60 0.05613
1056.70 0.0561
1056.80 0.05608
1056.90 0.05606
1057.00 0.05604
1057.10 0.05602
1057.20 0.056
1057.30 0.05598
1057.40 0.05595
1057.50 0.05593
1057.60 0.05591
1057.70 0.05589
1057.80 0.05587
1057.90 0.05585
1058.00 0.05583
1058.10 0.05581
1058.20 0.05578
1058.30 0.05576
1058.40 0.05574
1058.50 0.05572
1058.60 0.0557
1058.70 0.05568
1058.80 0.05566
1058.90 0.05563
1059.00 0.05561
1059.10 0.05559
1059.20 0.05557
1059.30 0.05555
1059.40 0.05553
1059.50 0.05551
1059.60 0.05549
1059.70 0.05546
1059.80 0.05544
1059.90 0.05542
1060.00 0.0554
1060.10 0.05538
1060.20 0.05536
1060.30 0.05534
1060.40 0.05532
1060.50 0.0553
1060.60 0.05527
1060.70 0.05525
1060.80 0.05523
1060.90 0.05521
1061.00 0.05519
1061.10 0.05517
1061.20 0.05515
1061.30 0.05513
1061.40 0.0551
1061.50 0.05508
1061.60 0.05506
1061.70 0.05504
1061.80 0.05502
1061.90 0.055
1062.00 0.05498
1062.10 0.05496
1062.20 0.05494
1062.30 0.05491
1062.40 0.05489
1062.50 0.05487
1062.60 0.05485
1062.70 0.05483
1062.80 0.05481
1062.90 0.05479
1063.00 0.05477
1063.10 0.05474
1063.20 0.05472
1063.30 0.0547
1063.40 0.05468
1063.50 0.05466
1063.60 0.05464
1063.70 0.05462
1063.80 0.0546
1063.90 0.05458
1064.00 0.05455
1064.10 0.05453
1064.20 0.05451
1064.30 0.05449
1064.40 0.05447
1064.50 0.05445
1064.60 0.05443
1064.70 0.05441
1064.80 0.05439
1064.90 0.05437
1065.00 0.05434
1065.10 0.05432
1065.20 0.0543
1065.30 0.05428
1065.40 0.05426
1065.50 0.05424
1065.60 0.05422
1065.70 0.0542
1065.80 0.05418
1065.90 0.05415
1066.00 0.05413
1066.10 0.05411
1066.20 0.05409
1066.30 0.05407
1066.40 0.05405
1066.50 0.05403
1066.60 0.05401
1066.70 0.05399
1066.80 0.05397
1066.90 0.05395
1067.00 0.05392
1067.10 0.0539
1067.20 0.05388
1067.30 0.05386
1067.40 0.05384
1067.50 0.05382
1067.60 0.0538
1067.70 0.05378
1067.80 0.05376
1067.90 0.05373
1068.00 0.05371
1068.10 0.05369
1068.20 0.05367
1068.30 0.05365
1068.40 0.05363
1068.50 0.05361
1068.60 0.05359
1068.70 0.05357
1068.80 0.05355
1068.90 0.05352
1069.00 0.0535
1069.10 0.05348
1069.20 0.05346
1069.30 0.05344
1069.40 0.05342
1069.50 0.0534
1069.60 0.05338
1069.70 0.05336
1069.80 0.05334
1069.90 0.05331
1070.00 0.05329
1070.10 0.05327
1070.20 0.05325
1070.30 0.05323
1070.40 0.05321
1070.50 0.05319
1070.60 0.05317
1070.70 0.05315
1070.80 0.05313
1070.90 0.05311
1071.00 0.05308
1071.10 0.05306
1071.20 0.05304
1071.30 0.05302
1071.40 0.053
1071.50 0.05298
1071.60 0.05296
1071.70 0.05294
1071.80 0.05292
1071.90 0.0529
1072.00 0.05288
1072.10 0.05286
1072.20 0.05283
1072.30 0.05281
1072.40 0.05279
1072.50 0.05277
1072.60 0.05275
1072.70 0.05273
1072.80 0.05271
1072.90 0.05269
1073.00 0.05267
1073.10 0.05265
1073.20 0.05262
1073.30 0.0526
1073.40 0.05258
1073.50 0.05256
1073.60 0.05254
1073.70 0.05252
1073.80 0.0525
1073.90 0.05248
1074.00 0.05246
1074.10 0.05244
1074.20 0.05242
1074.30 0.05239
1074.40 0.05237
1074.50 0.05235
1074.60 0.05233
1074.70 0.05231
1074.80 0.05229
1074.90 0.05227
1075.00 0.05225
1075.10 0.05223
1075.20 0.05221
1075.30 0.05219
1075.40 0.05216
1075.50 0.05214
1075.60 0.05212
1075.70 0.0521
1075.80 0.05208
1075.90 0.05206
1076.00 0.05204
1076.10 0.05202
1076.20 0.052
1076.30 0.05198
1076.40 0.05196
1076.50 0.05194
1076.60 0.05191
1076.70 0.05189
1076.80 0.05187
1076.90 0.05185
1077.00 0.05183
1077.10 0.05181
1077.20 0.05179
1077.30 0.05177
1077.40 0.05175
1077.50 0.05173
1077.60 0.05171
1077.70 0.05168
1077.80 0.05166
1077.90 0.05164
1078.00 0.05162
1078.10 0.0516
1078.20 0.05158
1078.30 0.05156
1078.40 0.05154
1078.50 0.05152
1078.60 0.0515
1078.70 0.05148
1078.80 0.05145
1078.90 0.05143
1079.00 0.05141
1079.10 0.05139
1079.20 0.05137
1079.30 0.05135
1079.40 0.05133
1079.50 0.05131
1079.60 0.05129
1079.70 0.05127
1079.80 0.05125
1079.90 0.05123
1080.00 0.0512
1080.10 0.05118
1080.20 0.05116
1080.30 0.05114
1080.40 0.05112
1080.50 0.0511
1080.60 0.05108
1080.70 0.05106
1080.80 0.05104
1080.90 0.05102
1081.00 0.051
1081.10 0.05098
1081.20 0.05095
1081.30 0.05093
1081.40 0.05091
1081.50 0.05089
1081.60 0.05087
1081.70 0.05085
1081.80 0.05083
1081.90 0.05081
1082.00 0.05079
1082.10 0.05077
1082.20 0.05075
1082.30 0.05073
1082.40 0.0507
1082.50 0.05068
1082.60 0.05066
1082.70 0.05064
1082.80 0.05062
1082.90 0.0506
1083.00 0.05058
1083.10 0.05056
1083.20 0.05054
1083.30 0.05052
1083.40 0.0505
1083.50 0.05048
1083.60 0.05045
1083.70 0.05043
1083.80 0.05041
1083.90 0.05039
1084.00 0.05037
1084.10 0.05035
1084.20 0.05033
1084.30 0.05031
1084.40 0.05029
1084.50 0.05027
1084.60 0.05025
1084.70 0.05023
1084.80 0.0502
1084.90 0.05018
1085.00 0.05016
1085.10 0.05014
1085.20 0.05012
1085.30 0.0501
1085.40 0.05008
1085.50 0.05006
1085.60 0.05004
1085.70 0.05002
1085.80 0.05
1085.90 0.04998
1086.00 0.04996
1086.10 0.04993
1086.20 0.04991
1086.30 0.04989
1086.40 0.04987
1086.50 0.04985
1086.60 0.04983
1086.70 0.04981
1086.80 0.04979
1086.90 0.04977
1087.00 0.04975
1087.10 0.04973
1087.20 0.04971
1087.30 0.04968
1087.40 0.04966
1087.50 0.04964
1087.60 0.04962
1087.70 0.0496
1087.80 0.04958
1087.90 0.04956
1088.00 0.04954
1088.10 0.04952
1088.20 0.0495
1088.30 0.04948
1088.40 0.04946
1088.50 0.04944
1088.60 0.04941
1088.70 0.04939
1088.80 0.04937
1088.90 0.04935
1089.00 0.04933
1089.10 0.04931
1089.20 0.04929
1089.30 0.04927
1089.40 0.04925
1089.50 0.04923
1089.60 0.04921
1089.70 0.04918
1089.80 0.04916
1089.90 0.04914
1090.00 0.04912
1090.10 0.0491
1090.20 0.04908
1090.30 0.04906
1090.40 0.04904
1090.50 0.04902
1090.60 0.049
1090.70 0.04897
1090.80 0.04895
1090.90 0.04893
1091.00 0.04891
1091.10 0.04889
1091.20 0.04887
1091.30 0.04885
1091.40 0.04883
1091.50 0.04881
1091.60 0.04878
1091.70 0.04876
1091.80 0.04874
1091.90 0.04872
1092.00 0.0487
1092.10 0.04868
1092.20 0.04866
1092.30 0.04864
1092.40 0.04862
1092.50 0.04859
1092.60 0.04857
1092.70 0.04855
1092.80 0.04853
1092.90 0.04851
1093.00 0.04849
1093.10 0.04847
1093.20 0.04845
1093.30 0.04843
1093.40 0.04841
1093.50 0.04839
1093.60 0.04838
1093.70 0.04836
1093.80 0.04835
1093.90 0.04833
1094.00 0.04832
1094.10 0.04831
1094.20 0.0483
1094.30 0.04829
1094.40 0.04827
1094.50 0.04826
1094.60 0.04825
1094.70 0.04823
1094.80 0.04822
1094.90 0.04821
1095.00 0.04819
1095.10 0.04818
1095.20 0.04817
1095.30 0.04815
1095.40 0.04814
1095.50 0.04813
1095.60 0.04812
1095.70 0.0481
1095.80 0.04809
1095.90 0.04808
1096.00 0.04806
1096.10 0.04805
1096.20 0.04804
1096.30 0.04802
1096.40 0.04801
1096.50 0.048
1096.60 0.04799
1096.70 0.04797
1096.80 0.04796
1096.90 0.04795
1097.00 0.04793
1097.10 0.04792
1097.20 0.04791
1097.30 0.04789
1097.40 0.04788
1097.50 0.04787
1097.60 0.04785
1097.70 0.04784
1097.80 0.04783
1097.90 0.04781
1098.00 0.0478
1098.10 0.04779
1098.20 0.04777
1098.30 0.04776
1098.40 0.04775
1098.50 0.04773
1098.60 0.04772
1098.70 0.04771
1098.80 0.04769
1098.90 0.04768
1099.00 0.04766
1099.10 0.04765
1099.20 0.04764
1099.30 0.04762
1099.40 0.04761
1099.50 0.0476
1099.60 0.04758
1099.70 0.04757
1099.80 0.04756
1099.90 0.04754
1100.00 0.04753
1100.10 0.04751
1100.20 0.0475
1100.30 0.04749
1100.40 0.04747
1100.50 0.04746
1100.60 0.04745
1100.70 0.04743
1100.80 0.04742
1100.90 0.04741
1101.00 0.04739
1101.10 0.04738
1101.20 0.04736
1101.30 0.04735
1101.40 0.04734
1101.50 0.04732
1101.60 0.04731
1101.70 0.0473
1101.80 0.04728
1101.90 0.04727
1102.00 0.04725
1102.10 0.04724
1102.20 0.04723
1102.30 0.04721
1102.40 0.0472
1102.50 0.04719
1102.60 0.04717
1102.70 0.04716
1102.80 0.04714
1102.90 0.04713
1103.00 0.04712
1103.10 0.0471
1103.20 0.04709
1103.30 0.04707
1103.40 0.04706
1103.50 0.04705
1103.60 0.04703
1103.70 0.04702
1103.80 0.047
1103.90 0.04699
1104.00 0.04698
1104.10 0.04696
1104.20 0.04695
1104.30 0.04694
1104.40 0.04692
1104.50 0.04691
1104.60 0.04689
1104.70 0.04688
1104.80 0.04687
1104.90 0.04685
1105.00 0.04684
1105.10 0.04682
1105.20 0.04681
1105.30 0.0468
1105.40 0.04678
1105.50 0.04677
1105.60 0.04675
1105.70 0.04674
1105.80 0.04673
1105.90 0.04671
1106.00 0.0467
1106.10 0.04668
1106.20 0.04667
1106.30 0.04666
1106.40 0.04664
1106.50 0.04663
1106.60 0.04661
1106.70 0.0466
1106.80 0.04659
1106.90 0.04657
1107.00 0.04656
1107.10 0.04654
1107.20 0.04653
1107.30 0.04652
1107.40 0.0465
1107.50 0.04649
1107.60 0.04647
1107.70 0.04646
1107.80 0.04645
1107.90 0.04643
1108.00 0.04642
1108.10 0.0464
1108.20 0.04639
1108.30 0.04638
1108.40 0.04636
1108.50 0.04635
1108.60 0.04633
1108.70 0.04632
1108.80 0.0463
1108.90 0.04629
1109.00 0.04628
1109.10 0.04626
1109.20 0.04625
1109.30 0.04623
1109.40 0.04622
1109.50 0.04621
1109.60 0.04619
1109.70 0.04618
1109.80 0.04616
1109.90 0.04615
1110.00 0.04614
1110.10 0.04612
1110.20 0.04611
1110.30 0.04609
1110.40 0.04608
1110.50 0.04606
1110.60 0.04605
1110.70 0.04604
1110.80 0.04602
1110.90 0.04601
1111.00 0.04599
1111.10 0.04598
1111.20 0.04597
1111.30 0.04595
1111.40 0.04594
1111.50 0.04592
1111.60 0.04591
1111.70 0.04589
1111.80 0.04588
1111.90 0.04587
1112.00 0.04585
1112.10 0.04584
1112.20 0.04582
1112.30 0.04581
1112.40 0.0458
1112.50 0.04578
1112.60 0.04577
1112.70 0.04575
1112.80 0.04574
1112.90 0.04572
1113.00 0.04571
1113.10 0.0457
1113.20 0.04568
1113.30 0.04567
1113.40 0.04565
1113.50 0.04564
1113.60 0.04562
1113.70 0.04561
1113.80 0.0456
1113.90 0.04558
1114.00 0.04557
1114.10 0.04555
1114.20 0.04554
1114.30 0.04552
1114.40 0.04551
1114.50 0.0455
1114.60 0.04548
1114.70 0.04547
1114.80 0.04545
1114.90 0.04544
1115.00 0.04542
1115.10 0.04541
1115.20 0.04539
1115.30 0.04538
1115.40 0.04537
1115.50 0.04535
1115.60 0.04534
1115.70 0.04532
1115.80 0.04531
1115.90 0.04529
1116.00 0.04528
1116.10 0.04527
1116.20 0.04525
1116.30 0.04524
1116.40 0.04522
1116.50 0.04521
1116.60 0.04519
1116.70 0.04518
1116.80 0.04517
1116.90 0.04515
1117.00 0.04514
1117.10 0.04512
1117.20 0.04511
1117.30 0.04509
1117.40 0.04508
1117.50 0.04507
1117.60 0.04505
1117.70 0.04504
1117.80 0.04502
1117.90 0.04501
1118.00 0.04499
1118.10 0.04498
1118.20 0.04496
1118.30 0.04495
1118.40 0.04494
1118.50 0.04492
1118.60 0.04491
1118.70 0.04489
1118.80 0.04488
1118.90 0.04486
1119.00 0.04485
1119.10 0.04483
1119.20 0.04482
1119.30 0.04481
1119.40 0.04479
1119.50 0.04478
1119.60 0.04476
1119.70 0.04475
1119.80 0.04473
1119.90 0.04472
1120.00 0.04471
1120.10 0.04469
1120.20 0.04468
1120.30 0.04466
1120.40 0.04465
1120.50 0.04463
1120.60 0.04462
1120.70 0.0446
1120.80 0.04459
1120.90 0.04458
1121.00 0.04456
1121.10 0.04455
1121.20 0.04453
1121.30 0.04452
1121.40 0.0445
1121.50 0.04449
1121.60 0.04448
1121.70 0.04446
1121.80 0.04445
1121.90 0.04443
1122.00 0.04442
1122.10 0.0444
1122.20 0.04439
1122.30 0.04438
1122.40 0.04436
1122.50 0.04435
1122.60 0.04433
1122.70 0.04432
1122.80 0.0443
1122.90 0.04429
1123.00 0.04427
1123.10 0.04426
1123.20 0.04425
1123.30 0.04423
1123.40 0.04422
1123.50 0.0442
1123.60 0.04419
1123.70 0.04417
1123.80 0.04416
1123.90 0.04414
1124.00 0.04413
1124.10 0.04412
1124.20 0.0441
1124.30 0.04409
1124.40 0.04407
1124.50 0.04406
1124.60 0.04404
1124.70 0.04403
1124.80 0.04401
1124.90 0.044
1125.00 0.04399
1125.10 0.04397
1125.20 0.04396
1125.30 0.04394
1125.40 0.04393
1125.50 0.04391
1125.60 0.0439
1125.70 0.04389
1125.80 0.04387
1125.90 0.04386
1126.00 0.04384
1126.10 0.04383
1126.20 0.04381
1126.30 0.0438
1126.40 0.04378
1126.50 0.04377
1126.60 0.04376
1126.70 0.04374
1126.80 0.04373
1126.90 0.04371
1127.00 0.0437
1127.10 0.04368
1127.20 0.04367
1127.30 0.04366
1127.40 0.04364
1127.50 0.04363
1127.60 0.04361
1127.70 0.0436
1127.80 0.04358
1127.90 0.04357
1128.00 0.04355
1128.10 0.04354
1128.20 0.04353
1128.30 0.04351
1128.40 0.0435
1128.50 0.04348
1128.60 0.04347
1128.70 0.04345
1128.80 0.04344
1128.90 0.04343
1129.00 0.04341
1129.10 0.0434
1129.20 0.04338
1129.30 0.04337
1129.40 0.04335
1129.50 0.04334
1129.60 0.04333
1129.70 0.04331
1129.80 0.0433
1129.90 0.04328
1130.00 0.04327
1130.10 0.04325
1130.20 0.04324
1130.30 0.04323
1130.40 0.04321
1130.50 0.0432
1130.60 0.04318
1130.70 0.04317
1130.80 0.04315
1130.90 0.04314
1131.00 0.04313
1131.10 0.04311
1131.20 0.0431
1131.30 0.04308
1131.40 0.04307
1131.50 0.04305
1131.60 0.04304
1131.70 0.04303
1131.80 0.04301
1131.90 0.043
1132.00 0.04298
1132.10 0.04297
1132.20 0.04295
1132.30 0.04294
1132.40 0.04293
1132.50 0.04291
1132.60 0.0429
1132.70 0.04288
1132.80 0.04287
1132.90 0.04285
1133.00 0.04284
1133.10 0.04283
1133.20 0.04281
1133.30 0.0428
1133.40 0.04278
1133.50 0.04277
1133.60 0.04275
1133.70 0.04274
1133.80 0.04273
1133.90 0.04271
1134.00 0.0427
1134.10 0.04268
1134.20 0.04267
1134.30 0.04265
1134.40 0.04264
1134.50 0.04263
1134.60 0.04261
1134.70 0.0426
1134.80 0.04258
1134.90 0.04257
1135.00 0.04256
1135.10 0.04254
1135.20 0.04253
1135.30 0.04251
1135.40 0.0425
1135.50 0.04248
1135.60 0.04247
1135.70 0.04246
1135.80 0.04244
1135.90 0.04243
1136.00 0.04241
1136.10 0.0424
1136.20 0.04239
1136.30 0.04237
1136.40 0.04236
1136.50 0.04234
1136.60 0.04233
1136.70 0.04231
1136.80 0.0423
1136.90 0.04229
1137.00 0.04227
1137.10 0.04226
1137.20 0.04224
1137.30 0.04223
1137.40 0.04222
1137.50 0.0422
1137.60 0.04219
1137.70 0.04217
1137.80 0.04216
1137.90 0.04215
1138.00 0.04213
1138.10 0.04212
1138.20 0.0421
1138.30 0.04209
1138.40 0.04208
1138.50 0.04206
1138.60 0.04205
1138.70 0.04203
1138.80 0.04202
1138.90 0.042
1139.00 0.04199
1139.10 0.04198
1139.20 0.04196
1139.30 0.04195
1139.40 0.04193
1139.50 0.04192
1139.60 0.04191
1139.70 0.04189
1139.80 0.04188
1139.90 0.04186
1140.00 0.04185
1140.10 0.04184
1140.20 0.04182
1140.30 0.04181
1140.40 0.04179
1140.50 0.04178
1140.60 0.04177
1140.70 0.04175
1140.80 0.04174
1140.90 0.04172
1141.00 0.04171
1141.10 0.0417
1141.20 0.04168
1141.30 0.04167
1141.40 0.04165
1141.50 0.04164
1141.60 0.04163
1141.70 0.04161
1141.80 0.0416
1141.90 0.04158
1142.00 0.04157
1142.10 0.04156
1142.20 0.04154
1142.30 0.04153
1142.40 0.04152
1142.50 0.0415
1142.60 0.04149
1142.70 0.04147
1142.80 0.04146
1142.90 0.04145
1143.00 0.04143
1143.10 0.04142
1143.20 0.0414
1143.30 0.04139
1143.40 0.04138
1143.50 0.04136
1143.60 0.04135
1143.70 0.04133
1143.80 0.04132
1143.90 0.04131
1144.00 0.04129
1144.10 0.04128
1144.20 0.04127
1144.30 0.04125
1144.40 0.04124
1144.50 0.04122
1144.60 0.04121
1144.70 0.0412
1144.80 0.04118
1144.90 0.04117
1145.00 0.04115
1145.10 0.04114
1145.20 0.04113
1145.30 0.04111
1145.40 0.0411
1145.50 0.04109
1145.60 0.04107
1145.70 0.04106
1145.80 0.04104
1145.90 0.04103
1146.00 0.04102
1146.10 0.041
1146.20 0.04099
1146.30 0.04098
1146.40 0.04096
1146.50 0.04095
1146.60 0.04093
1146.70 0.04092
1146.80 0.04091
1146.90 0.04089
1147.00 0.04088
1147.10 0.04087
1147.20 0.04085
1147.30 0.04084
1147.40 0.04082
1147.50 0.04081
1147.60 0.0408
1147.70 0.04078
1147.80 0.04077
1147.90 0.04076
1148.00 0.04074
1148.10 0.04073
1148.20 0.04071
1148.30 0.0407
1148.40 0.04069
1148.50 0.04067
1148.60 0.04066
1148.70 0.04065
1148.80 0.04063
1148.90 0.04062
1149.00 0.04061
1149.10 0.04059
1149.20 0.04058
1149.30 0.04056
1149.40 0.04055
1149.50 0.04054
1149.60 0.04052
1149.70 0.04051
1149.80 0.0405
1149.90 0.04048
1150.00 0.04047
1150.10 0.04046
1150.20 0.04044
1150.30 0.04043
1150.40 0.04042
1150.50 0.0404
1150.60 0.04039
1150.70 0.04037
1150.80 0.04036
1150.90 0.04035
1151.00 0.04033
1151.10 0.04032
1151.20 0.04031
1151.30 0.04029
1151.40 0.04028
1151.50 0.04027
1151.60 0.04025
1151.70 0.04024
1151.80 0.04023
1151.90 0.04021
1152.00 0.0402
1152.10 0.04018
1152.20 0.04017
1152.30 0.04016
1152.40 0.04014
1152.50 0.04013
1152.60 0.04012
1152.70 0.0401
1152.80 0.04009
1152.90 0.04008
1153.00 0.04006
1153.10 0.04005
1153.20 0.04004
1153.30 0.04002
1153.40 0.04001
1153.50 0.04
1153.60 0.03998
1153.70 0.03997
1153.80 0.03996
1153.90 0.03994
1154.00 0.03993
1154.10 0.03992
1154.20 0.0399
1154.30 0.03989
1154.40 0.03988
1154.50 0.03986
1154.60 0.03985
1154.70 0.03984
1154.80 0.03982
1154.90 0.03981
1155.00 0.0398
1155.10 0.03978
1155.20 0.03977
1155.30 0.03976
1155.40 0.03974
1155.50 0.03973
1155.60 0.03972
1155.70 0.0397
1155.80 0.03969
1155.90 0.03968
1156.00 0.03966
1156.10 0.03965
1156.20 0.03964
1156.30 0.03962
1156.40 0.03961
1156.50 0.0396
1156.60 0.03958
1156.70 0.03957
1156.80 0.03956
1156.90 0.03954
1157.00 0.03953
1157.10 0.03952
1157.20 0.0395
1157.30 0.03949
1157.40 0.03948
1157.50 0.03946
1157.60 0.03945
1157.70 0.03944
1157.80 0.03942
1157.90 0.03941
1158.00 0.0394
1158.10 0.03938
1158.20 0.03937
1158.30 0.03936
1158.40 0.03934
1158.50 0.03933
1158.60 0.03932
1158.70 0.0393
1158.80 0.03929
1158.90 0.03928
1159.00 0.03926
1159.10 0.03925
1159.20 0.03924
1159.30 0.03922
1159.40 0.03921
1159.50 0.0392
1159.60 0.03919
1159.70 0.03917
1159.80 0.03916
1159.90 0.03915
1160.00 0.03913
1160.10 0.03912
1160.20 0.03911
1160.30 0.03909
1160.40 0.03908
1160.50 0.03907
1160.60 0.03905
1160.70 0.03904
1160.80 0.03903
1160.90 0.03901
1161.00 0.039
1161.10 0.03899
1161.20 0.03898
1161.30 0.03896
1161.40 0.03895
1161.50 0.03894
1161.60 0.03892
1161.70 0.03891
1161.80 0.0389
1161.90 0.03888
1162.00 0.03887
1162.10 0.03886
1162.20 0.03885
1162.30 0.03883
1162.40 0.03882
1162.50 0.03881
1162.60 0.03879
1162.70 0.03878
1162.80 0.03877
1162.90 0.03875
1163.00 0.03874
1163.10 0.03873
1163.20 0.03872
1163.30 0.0387
1163.40 0.03869
1163.50 0.03868
1163.60 0.03866
1163.70 0.03865
1163.80 0.03864
1163.90 0.03862
1164.00 0.03861
1164.10 0.0386
1164.20 0.03859
1164.30 0.03857
1164.40 0.03856
1164.50 0.03855
1164.60 0.03853
1164.70 0.03852
1164.80 0.03851
1164.90 0.0385
1165.00 0.03848
1165.10 0.03847
1165.20 0.03846
1165.30 0.03844
1165.40 0.03843
1165.50 0.03842
1165.60 0.03841
1165.70 0.03839
1165.80 0.03838
1165.90 0.03837
1166.00 0.03835
1166.10 0.03834
1166.20 0.03833
1166.30 0.03832
1166.40 0.0383
1166.50 0.03829
1166.60 0.03828
1166.70 0.03826
1166.80 0.03825
1166.90 0.03824
1167.00 0.03823
1167.10 0.03821
1167.20 0.0382
1167.30 0.03819
1167.40 0.03817
1167.50 0.03816
1167.60 0.03815
1167.70 0.03814
1167.80 0.03812
1167.90 0.03811
1168.00 0.0381
1168.10 0.03809
1168.20 0.03807
1168.30 0.03806
1168.40 0.03805
1168.50 0.03803
1168.60 0.03802
1168.70 0.03801
1168.80 0.038
1168.90 0.03798
1169.00 0.03797
1169.10 0.03796
1169.20 0.03795
1169.30 0.03793
1169.40 0.03792
1169.50 0.03791
1169.60 0.03789
1169.70 0.03788
1169.80 0.03787
1169.90 0.03786
1170.00 0.03784
1170.10 0.03783
1170.20 0.03782
1170.30 0.03781
1170.40 0.03779
1170.50 0.03778
1170.60 0.03777
1170.70 0.03776
1170.80 0.03774
1170.90 0.03773
1171.00 0.03772
1171.10 0.03771
1171.20 0.03769
1171.30 0.03768
1171.40 0.03767
1171.50 0.03765
1171.60 0.03764
1171.70 0.03763
1171.80 0.03762
1171.90 0.0376
1172.00 0.03759
1172.10 0.03758
1172.20 0.03757
1172.30 0.03755
1172.40 0.03754
1172.50 0.03753
1172.60 0.03752
1172.70 0.0375
1172.80 0.03749
1172.90 0.03748
1173.00 0.03747
1173.10 0.03745
1173.20 0.03744
1173.30 0.03743
1173.40 0.03742
1173.50 0.0374
1173.60 0.03739
1173.70 0.03738
1173.80 0.03737
1173.90 0.03735
1174.00 0.03734
1174.10 0.03733
1174.20 0.03732
1174.30 0.0373
1174.40 0.03729
1174.50 0.03728
1174.60 0.03727
1174.70 0.03725
1174.80 0.03724
1174.90 0.03723
1175.00 0.03722
1175.10 0.03721
1175.20 0.03719
1175.30 0.03718
1175.40 0.03717
1175.50 0.03716
1175.60 0.03714
1175.70 0.03713
1175.80 0.03712
1175.90 0.03711
1176.00 0.03709
1176.10 0.03708
1176.20 0.03707
1176.30 0.03706
1176.40 0.03704
1176.50 0.03703
1176.60 0.03702
1176.70 0.03701
1176.80 0.03699
1176.90 0.03698
1177.00 0.03697
1177.10 0.03696
1177.20 0.03695
1177.30 0.03693
1177.40 0.03692
1177.50 0.03691
1177.60 0.0369
1177.70 0.03688
1177.80 0.03687
1177.90 0.03686
1178.00 0.03685
1178.10 0.03684
1178.20 0.03682
1178.30 0.03681
1178.40 0.0368
1178.50 0.03679
1178.60 0.03677
1178.70 0.03676
1178.80 0.03675
1178.90 0.03674
1179.00 0.03673
1179.10 0.03671
1179.20 0.0367
1179.30 0.03669
1179.40 0.03668
1179.50 0.03666
1179.60 0.03665
1179.70 0.03664
1179.80 0.03663
1179.90 0.03662
1180.00 0.0366
1180.10 0.03659
1180.20 0.03658
1180.30 0.03657
1180.40 0.03655
1180.50 0.03654
1180.60 0.03653
1180.70 0.03652
1180.80 0.03651
1180.90 0.03649
1181.00 0.03648
1181.10 0.03647
1181.20 0.03646
1181.30 0.03645
1181.40 0.03643
1181.50 0.03642
1181.60 0.03641
1181.70 0.0364
1181.80 0.03638
1181.90 0.03637
1182.00 0.03636
1182.10 0.03635
1182.20 0.03634
1182.30 0.03632
1182.40 0.03631
1182.50 0.0363
1182.60 0.03629
1182.70 0.03628
1182.80 0.03626
1182.90 0.03625
1183.00 0.03624
1183.10 0.03623
1183.20 0.03622
1183.30 0.0362
1183.40 0.03619
1183.50 0.03618
1183.60 0.03617
1183.70 0.03616
1183.80 0.03614
1183.90 0.03613
1184.00 0.03612
1184.10 0.03611
1184.20 0.0361
1184.30 0.03608
1184.40 0.03607
1184.50 0.03606
1184.60 0.03605
1184.70 0.03604
1184.80 0.03602
1184.90 0.03601
1185.00 0.036
1185.10 0.03599
1185.20 0.03598
1185.30 0.03596
1185.40 0.03595
1185.50 0.03594
1185.60 0.03593
1185.70 0.03592
1185.80 0.0359
1185.90 0.03589
1186.00 0.03588
1186.10 0.03587
1186.20 0.03586
1186.30 0.03585
1186.40 0.03583
1186.50 0.03582
1186.60 0.03581
1186.70 0.0358
1186.80 0.03579
1186.90 0.03577
1187.00 0.03576
1187.10 0.03575
1187.20 0.03574
1187.30 0.03573
1187.40 0.03571
1187.50 0.0357
1187.60 0.03569
1187.70 0.03568
1187.80 0.03567
1187.90 0.03566
1188.00 0.03564
1188.10 0.03563
1188.20 0.03562
1188.30 0.03561
1188.40 0.0356
1188.50 0.03559
1188.60 0.03557
1188.70 0.03556
1188.80 0.03555
1188.90 0.03554
1189.00 0.03553
1189.10 0.03551
1189.20 0.0355
1189.30 0.03549
1189.40 0.03548
1189.50 0.03547
1189.60 0.03546
1189.70 0.03544
1189.80 0.03543
1189.90 0.03542
1190.00 0.03541
1190.10 0.0354
1190.20 0.03539
1190.30 0.03537
1190.40 0.03536
1190.50 0.03535
1190.60 0.03534
1190.70 0.03533
1190.80 0.03532
1190.90 0.0353
1191.00 0.03529
1191.10 0.03528
1191.20 0.03527
1191.30 0.03526
1191.40 0.03525
1191.50 0.03523
1191.60 0.03522
1191.70 0.03521
1191.80 0.0352
1191.90 0.03519
1192.00 0.03518
1192.10 0.03516
1192.20 0.03515
1192.30 0.03514
1192.40 0.03513
1192.50 0.03512
1192.60 0.03511
1192.70 0.03509
1192.80 0.03508
1192.90 0.03507
1193.00 0.03506
1193.10 0.03505
1193.20 0.03504
1193.30 0.03502
1193.40 0.03501
1193.50 0.035
1193.60 0.03499
1193.70 0.03498
1193.80 0.03497
1193.90 0.03496
1194.00 0.03494
1194.10 0.03493
1194.20 0.03492
1194.30 0.03491
1194.40 0.0349
1194.50 0.03489
1194.60 0.03487
1194.70 0.03486
1194.80 0.03485
1194.90 0.03484
1195.00 0.03483
1195.10 0.03482
1195.20 0.03481
1195.30 0.03479
1195.40 0.03478
1195.50 0.03477
1195.60 0.03476
1195.70 0.03475
1195.80 0.03474
1195.90 0.03473
1196.00 0.03471
1196.10 0.0347
1196.20 0.03469
1196.30 0.03468
1196.40 0.03467
1196.50 0.03466
1196.60 0.03465
1196.70 0.03463
1196.80 0.03462
1196.90 0.03461
1197.00 0.0346
1197.10 0.03459
1197.20 0.03458
1197.30 0.03457
1197.40 0.03455
1197.50 0.03454
1197.60 0.03453
1197.70 0.03452
1197.80 0.03451
1197.90 0.0345
1198.00 0.03449
1198.10 0.03447
1198.20 0.03446
1198.30 0.03445
1198.40 0.03444
1198.50 0.03443
1198.60 0.03442
1198.70 0.03441
1198.80 0.03439
1198.90 0.03438
1199.00 0.03437
1199.10 0.03436
1199.20 0.03435
1199.30 0.03434
1199.40 0.03433
1199.50 0.03432
1199.60 0.0343
1199.70 0.03429
1199.80 0.03428
1199.90 0.03427
1200.00 0
