# Version 2.1 - nm, norm@500 to 1, cut digits, bergeron_2000_85.dat_2000
# Wavelength(nm)  Flambda(ergs/cm^s/s/nm)
300.00 0.04735
300.10 0.0475
300.20 0.04766
300.30 0.04781
300.40 0.04797
300.50 0.04812
300.60 0.04828
300.70 0.04843
300.80 0.04858
300.90 0.04874
301.00 0.04889
301.10 0.04905
301.20 0.0492
301.30 0.04935
301.40 0.0495
301.50 0.04966
301.60 0.04981
301.70 0.04996
301.80 0.05011
301.90 0.05027
302.00 0.05042
302.10 0.05058
302.20 0.05074
302.30 0.0509
302.40 0.05107
302.50 0.05123
302.60 0.05139
302.70 0.05155
302.80 0.05171
302.90 0.05187
303.00 0.05203
303.10 0.05219
303.20 0.05235
303.30 0.05251
303.40 0.05267
303.50 0.05283
303.60 0.05299
303.70 0.05315
303.80 0.0533
303.90 0.05346
304.00 0.05363
304.10 0.05379
304.20 0.05396
304.30 0.05413
304.40 0.0543
304.50 0.05446
304.60 0.05463
304.70 0.0548
304.80 0.05497
304.90 0.05513
305.00 0.0553
305.10 0.05547
305.20 0.05563
305.30 0.0558
305.40 0.05597
305.50 0.05613
305.60 0.0563
305.70 0.05646
305.80 0.05663
305.90 0.05679
306.00 0.05697
306.10 0.05714
306.20 0.05731
306.30 0.05749
306.40 0.05766
306.50 0.05784
306.60 0.05801
306.70 0.05819
306.80 0.05836
306.90 0.05853
307.00 0.05871
307.10 0.05888
307.20 0.05906
307.30 0.05923
307.40 0.0594
307.50 0.05957
307.60 0.05975
307.70 0.05992
307.80 0.06009
307.90 0.06026
308.00 0.06044
308.10 0.06062
308.20 0.0608
308.30 0.06098
308.40 0.06116
308.50 0.06135
308.60 0.06153
308.70 0.06171
308.80 0.06189
308.90 0.06207
309.00 0.06225
309.10 0.06243
309.20 0.06261
309.30 0.06279
309.40 0.06297
309.50 0.06315
309.60 0.06333
309.70 0.06351
309.80 0.06369
309.90 0.06387
310.00 0.06405
310.10 0.06424
310.20 0.06443
310.30 0.06462
310.40 0.06481
310.50 0.065
310.60 0.06518
310.70 0.06537
310.80 0.06556
310.90 0.06575
311.00 0.06594
311.10 0.06613
311.20 0.06632
311.30 0.0665
311.40 0.06669
311.50 0.06688
311.60 0.06706
311.70 0.06725
311.80 0.06744
311.90 0.06762
312.00 0.06781
312.10 0.068
312.20 0.06819
312.30 0.06838
312.40 0.06858
312.50 0.06877
312.60 0.06897
312.70 0.06917
312.80 0.06936
312.90 0.06956
313.00 0.06975
313.10 0.06995
313.20 0.07014
313.30 0.07034
313.40 0.07053
313.50 0.07073
313.60 0.07092
313.70 0.07111
313.80 0.07131
313.90 0.0715
314.00 0.0717
314.10 0.0719
314.20 0.0721
314.30 0.07231
314.40 0.07251
314.50 0.07271
314.60 0.07292
314.70 0.07312
314.80 0.07332
314.90 0.07353
315.00 0.07373
315.10 0.07393
315.20 0.07413
315.30 0.07433
315.40 0.07453
315.50 0.07473
315.60 0.07494
315.70 0.07514
315.80 0.07534
315.90 0.07554
316.00 0.07574
316.10 0.07595
316.20 0.07616
316.30 0.07637
316.40 0.07658
316.50 0.07679
316.60 0.077
316.70 0.07721
316.80 0.07742
316.90 0.07763
317.00 0.07784
317.10 0.07805
317.20 0.07826
317.30 0.07847
317.40 0.07868
317.50 0.07889
317.60 0.07909
317.70 0.0793
317.80 0.07951
317.90 0.07972
318.00 0.07993
318.10 0.08014
318.20 0.08036
318.30 0.08058
318.40 0.0808
318.50 0.08102
318.60 0.08124
318.70 0.08145
318.80 0.08167
318.90 0.08189
319.00 0.0821
319.10 0.08232
319.20 0.08254
319.30 0.08275
319.40 0.08297
319.50 0.08319
319.60 0.0834
319.70 0.08362
319.80 0.08383
319.90 0.08405
320.00 0.08427
320.10 0.08449
320.20 0.08471
320.30 0.08494
320.40 0.08516
320.50 0.08539
320.60 0.08562
320.70 0.08584
320.80 0.08607
320.90 0.08629
321.00 0.08652
321.10 0.08674
321.20 0.08696
321.30 0.08719
321.40 0.08741
321.50 0.08763
321.60 0.08786
321.70 0.08808
321.80 0.0883
321.90 0.08852
322.00 0.08875
322.10 0.08898
322.20 0.08921
322.30 0.08945
322.40 0.08968
322.50 0.08991
322.60 0.09015
322.70 0.09038
322.80 0.09061
322.90 0.09085
323.00 0.09108
323.10 0.09131
323.20 0.09154
323.30 0.09177
323.40 0.092
323.50 0.09223
323.60 0.09246
323.70 0.09269
323.80 0.09292
323.90 0.09315
324.00 0.09338
324.10 0.09362
324.20 0.09386
324.30 0.09411
324.40 0.09435
324.50 0.09459
324.60 0.09483
324.70 0.09507
324.80 0.09531
324.90 0.09555
325.00 0.09579
325.10 0.09603
325.20 0.09627
325.30 0.09651
325.40 0.09675
325.50 0.09698
325.60 0.09722
325.70 0.09746
325.80 0.0977
325.90 0.09794
326.00 0.09818
326.10 0.09842
326.20 0.09867
326.30 0.09892
326.40 0.09917
326.50 0.09942
326.60 0.09967
326.70 0.09991
326.80 0.1002
326.90 0.1004
327.00 0.1007
327.10 0.1009
327.20 0.1011
327.30 0.1014
327.40 0.1016
327.50 0.1019
327.60 0.1021
327.70 0.1024
327.80 0.1026
327.90 0.1029
328.00 0.1031
328.10 0.1034
328.20 0.1036
328.30 0.1039
328.40 0.1041
328.50 0.1044
328.60 0.1047
328.70 0.1049
328.80 0.1052
328.90 0.1054
329.00 0.1057
329.10 0.1059
329.20 0.1062
329.30 0.1064
329.40 0.1067
329.50 0.1069
329.60 0.1072
329.70 0.1075
329.80 0.1077
329.90 0.108
330.00 0.1082
330.10 0.1085
330.20 0.1087
330.30 0.109
330.40 0.1093
330.50 0.1095
330.60 0.1098
330.70 0.1101
330.80 0.1103
330.90 0.1106
331.00 0.1109
331.10 0.1111
331.20 0.1114
331.30 0.1116
331.40 0.1119
331.50 0.1122
331.60 0.1124
331.70 0.1127
331.80 0.1129
331.90 0.1132
332.00 0.1135
332.10 0.1137
332.20 0.114
332.30 0.1143
332.40 0.1146
332.50 0.1148
332.60 0.1151
332.70 0.1154
332.80 0.1156
332.90 0.1159
333.00 0.1162
333.10 0.1165
333.20 0.1167
333.30 0.117
333.40 0.1173
333.50 0.1175
333.60 0.1178
333.70 0.1181
333.80 0.1183
333.90 0.1186
334.00 0.1189
334.10 0.1191
334.20 0.1194
334.30 0.1197
334.40 0.12
334.50 0.1203
334.60 0.1206
334.70 0.1208
334.80 0.1211
334.90 0.1214
335.00 0.1217
335.10 0.1219
335.20 0.1222
335.30 0.1225
335.40 0.1228
335.50 0.1231
335.60 0.1233
335.70 0.1236
335.80 0.1239
335.90 0.1242
336.00 0.1244
336.10 0.1247
336.20 0.125
336.30 0.1253
336.40 0.1256
336.50 0.1259
336.60 0.1262
336.70 0.1264
336.80 0.1267
336.90 0.127
337.00 0.1273
337.10 0.1276
337.20 0.1279
337.30 0.1282
337.40 0.1285
337.50 0.1287
337.60 0.129
337.70 0.1293
337.80 0.1296
337.90 0.1299
338.00 0.1302
338.10 0.1305
338.20 0.1307
338.30 0.131
338.40 0.1313
338.50 0.1316
338.60 0.1319
338.70 0.1322
338.80 0.1325
338.90 0.1328
339.00 0.1331
339.10 0.1334
339.20 0.1337
339.30 0.134
339.40 0.1343
339.50 0.1346
339.60 0.1349
339.70 0.1352
339.80 0.1355
339.90 0.1357
340.00 0.136
340.10 0.1363
340.20 0.1366
340.30 0.1369
340.40 0.1373
340.50 0.1376
340.60 0.1379
340.70 0.1382
340.80 0.1385
340.90 0.1388
341.00 0.1391
341.10 0.1394
341.20 0.1397
341.30 0.14
341.40 0.1403
341.50 0.1406
341.60 0.1409
341.70 0.1412
341.80 0.1415
341.90 0.1418
342.00 0.1421
342.10 0.1424
342.20 0.1427
342.30 0.143
342.40 0.1433
342.50 0.1436
342.60 0.1439
342.70 0.1443
342.80 0.1446
342.90 0.1449
343.00 0.1452
343.10 0.1455
343.20 0.1458
343.30 0.1461
343.40 0.1464
343.50 0.1467
343.60 0.147
343.70 0.1473
343.80 0.1477
343.90 0.148
344.00 0.1483
344.10 0.1486
344.20 0.1489
344.30 0.1492
344.40 0.1496
344.50 0.1499
344.60 0.1502
344.70 0.1505
344.80 0.1508
344.90 0.1511
345.00 0.1515
345.10 0.1518
345.20 0.1521
345.30 0.1524
345.40 0.1527
345.50 0.153
345.60 0.1534
345.70 0.1537
345.80 0.154
345.90 0.1543
346.00 0.1546
346.10 0.1549
346.20 0.1553
346.30 0.1556
346.40 0.1559
346.50 0.1563
346.60 0.1566
346.70 0.1569
346.80 0.1572
346.90 0.1576
347.00 0.1579
347.10 0.1582
347.20 0.1585
347.30 0.1589
347.40 0.1592
347.50 0.1595
347.60 0.1598
347.70 0.1602
347.80 0.1605
347.90 0.1608
348.00 0.1611
348.10 0.1615
348.20 0.1618
348.30 0.1621
348.40 0.1625
348.50 0.1628
348.60 0.1631
348.70 0.1635
348.80 0.1638
348.90 0.1641
349.00 0.1645
349.10 0.1648
349.20 0.1651
349.30 0.1655
349.40 0.1658
349.50 0.1661
349.60 0.1665
349.70 0.1668
349.80 0.1671
349.90 0.1675
350.00 0.1678
350.10 0.1681
350.20 0.1685
350.30 0.1688
350.40 0.1692
350.50 0.1695
350.60 0.1699
350.70 0.1702
350.80 0.1705
350.90 0.1709
351.00 0.1712
351.10 0.1716
351.20 0.1719
351.30 0.1723
351.40 0.1726
351.50 0.1729
351.60 0.1733
351.70 0.1736
351.80 0.1739
351.90 0.1743
352.00 0.1746
352.10 0.175
352.20 0.1753
352.30 0.1757
352.40 0.176
352.50 0.1764
352.60 0.1767
352.70 0.1771
352.80 0.1774
352.90 0.1778
353.00 0.1781
353.10 0.1785
353.20 0.1788
353.30 0.1792
353.40 0.1795
353.50 0.1799
353.60 0.1802
353.70 0.1806
353.80 0.1809
353.90 0.1813
354.00 0.1816
354.10 0.182
354.20 0.1823
354.30 0.1827
354.40 0.1831
354.50 0.1834
354.60 0.1838
354.70 0.1841
354.80 0.1845
354.90 0.1848
355.00 0.1852
355.10 0.1856
355.20 0.1859
355.30 0.1863
355.40 0.1866
355.50 0.187
355.60 0.1873
355.70 0.1877
355.80 0.188
355.90 0.1884
356.00 0.1888
356.10 0.1891
356.20 0.1895
356.30 0.1899
356.40 0.1902
356.50 0.1906
356.60 0.191
356.70 0.1913
356.80 0.1917
356.90 0.1921
357.00 0.1924
357.10 0.1928
357.20 0.1932
357.30 0.1935
357.40 0.1939
357.50 0.1942
357.60 0.1946
357.70 0.195
357.80 0.1953
357.90 0.1957
358.00 0.196
358.10 0.1964
358.20 0.1968
358.30 0.1972
358.40 0.1976
358.50 0.1979
358.60 0.1983
358.70 0.1987
358.80 0.1991
358.90 0.1994
359.00 0.1998
359.10 0.2002
359.20 0.2005
359.30 0.2009
359.40 0.2013
359.50 0.2017
359.60 0.202
359.70 0.2024
359.80 0.2028
359.90 0.2031
360.00 0.2035
360.10 0.2039
360.20 0.2043
360.30 0.2047
360.40 0.205
360.50 0.2054
360.60 0.2058
360.70 0.2062
360.80 0.2066
360.90 0.2069
361.00 0.2073
361.10 0.2077
361.20 0.2081
361.30 0.2085
361.40 0.2088
361.50 0.2092
361.60 0.2096
361.70 0.21
361.80 0.2103
361.90 0.2107
362.00 0.2111
362.10 0.2115
362.20 0.2119
362.30 0.2123
362.40 0.2126
362.50 0.213
362.60 0.2134
362.70 0.2138
362.80 0.2142
362.90 0.2146
363.00 0.215
363.10 0.2154
363.20 0.2158
363.30 0.2161
363.40 0.2165
363.50 0.2169
363.60 0.2173
363.70 0.2177
363.80 0.2181
363.90 0.2185
364.00 0.2189
364.10 0.2193
364.20 0.2197
364.30 0.2201
364.40 0.2204
364.50 0.2208
364.60 0.2212
364.70 0.2216
364.80 0.222
364.90 0.2224
365.00 0.2228
365.10 0.2232
365.20 0.2236
365.30 0.224
365.40 0.2244
365.50 0.2248
365.60 0.2252
365.70 0.2256
365.80 0.226
365.90 0.2264
366.00 0.2268
366.10 0.2272
366.20 0.2276
366.30 0.228
366.40 0.2284
366.50 0.2288
366.60 0.2292
366.70 0.2296
366.80 0.23
366.90 0.2304
367.00 0.2308
367.10 0.2312
367.20 0.2316
367.30 0.232
367.40 0.2324
367.50 0.2328
367.60 0.2332
367.70 0.2336
367.80 0.234
367.90 0.2344
368.00 0.2348
368.10 0.2353
368.20 0.2357
368.30 0.2361
368.40 0.2365
368.50 0.2369
368.60 0.2373
368.70 0.2377
368.80 0.2382
368.90 0.2386
369.00 0.239
369.10 0.2394
369.20 0.2398
369.30 0.2402
369.40 0.2406
369.50 0.241
369.60 0.2414
369.70 0.2418
369.80 0.2422
369.90 0.2426
370.00 0.2431
370.10 0.2435
370.20 0.2439
370.30 0.2443
370.40 0.2447
370.50 0.2452
370.60 0.2456
370.70 0.246
370.80 0.2464
370.90 0.2468
371.00 0.2473
371.10 0.2477
371.20 0.2481
371.30 0.2485
371.40 0.2489
371.50 0.2494
371.60 0.2498
371.70 0.2502
371.80 0.2506
371.90 0.251
372.00 0.2514
372.10 0.2519
372.20 0.2523
372.30 0.2527
372.40 0.2531
372.50 0.2536
372.60 0.254
372.70 0.2544
372.80 0.2549
372.90 0.2553
373.00 0.2557
373.10 0.2561
373.20 0.2566
373.30 0.257
373.40 0.2574
373.50 0.2578
373.60 0.2583
373.70 0.2587
373.80 0.2591
373.90 0.2595
374.00 0.2599
374.10 0.2604
374.20 0.2608
374.30 0.2613
374.40 0.2617
374.50 0.2621
374.60 0.2626
374.70 0.263
374.80 0.2634
374.90 0.2639
375.00 0.2643
375.10 0.2647
375.20 0.2652
375.30 0.2656
375.40 0.266
375.50 0.2665
375.60 0.2669
375.70 0.2673
375.80 0.2677
375.90 0.2682
376.00 0.2686
376.10 0.269
376.20 0.2695
376.30 0.2699
376.40 0.2704
376.50 0.2708
376.60 0.2712
376.70 0.2717
376.80 0.2721
376.90 0.2725
377.00 0.273
377.10 0.2734
377.20 0.2739
377.30 0.2743
377.40 0.2748
377.50 0.2752
377.60 0.2756
377.70 0.2761
377.80 0.2765
377.90 0.277
378.00 0.2774
378.10 0.2779
378.20 0.2783
378.30 0.2788
378.40 0.2792
378.50 0.2796
378.60 0.2801
378.70 0.2805
378.80 0.281
378.90 0.2814
379.00 0.2819
379.10 0.2823
379.20 0.2828
379.30 0.2832
379.40 0.2837
379.50 0.2841
379.60 0.2846
379.70 0.285
379.80 0.2855
379.90 0.2859
380.00 0.2864
380.10 0.2868
380.20 0.2873
380.30 0.2877
380.40 0.2882
380.50 0.2886
380.60 0.2891
380.70 0.2895
380.80 0.29
380.90 0.2904
381.00 0.2909
381.10 0.2913
381.20 0.2918
381.30 0.2923
381.40 0.2927
381.50 0.2932
381.60 0.2936
381.70 0.2941
381.80 0.2945
381.90 0.295
382.00 0.2955
382.10 0.2959
382.20 0.2964
382.30 0.2968
382.40 0.2973
382.50 0.2978
382.60 0.2982
382.70 0.2987
382.80 0.2991
382.90 0.2996
383.00 0.3001
383.10 0.3005
383.20 0.301
383.30 0.3014
383.40 0.3019
383.50 0.3024
383.60 0.3028
383.70 0.3033
383.80 0.3038
383.90 0.3042
384.00 0.3047
384.10 0.3052
384.20 0.3056
384.30 0.3061
384.40 0.3066
384.50 0.307
384.60 0.3075
384.70 0.3079
384.80 0.3084
384.90 0.3089
385.00 0.3094
385.10 0.3098
385.20 0.3103
385.30 0.3108
385.40 0.3112
385.50 0.3117
385.60 0.3122
385.70 0.3126
385.80 0.3131
385.90 0.3136
386.00 0.3141
386.10 0.3145
386.20 0.315
386.30 0.3155
386.40 0.3159
386.50 0.3164
386.60 0.3169
386.70 0.3174
386.80 0.3178
386.90 0.3183
387.00 0.3188
387.10 0.3193
387.20 0.3197
387.30 0.3202
387.40 0.3207
387.50 0.3212
387.60 0.3217
387.70 0.3221
387.80 0.3226
387.90 0.3231
388.00 0.3236
388.10 0.324
388.20 0.3245
388.30 0.325
388.40 0.3255
388.50 0.326
388.60 0.3264
388.70 0.3269
388.80 0.3274
388.90 0.3279
389.00 0.3284
389.10 0.3289
389.20 0.3293
389.30 0.3298
389.40 0.3303
389.50 0.3308
389.60 0.3313
389.70 0.3318
389.80 0.3322
389.90 0.3327
390.00 0.3332
390.10 0.3337
390.20 0.3342
390.30 0.3347
390.40 0.3352
390.50 0.3356
390.60 0.3361
390.70 0.3366
390.80 0.3371
390.90 0.3376
391.00 0.3381
391.10 0.3386
391.20 0.3391
391.30 0.3396
391.40 0.34
391.50 0.3405
391.60 0.341
391.70 0.3415
391.80 0.342
391.90 0.3425
392.00 0.343
392.10 0.3435
392.20 0.344
392.30 0.3445
392.40 0.345
392.50 0.3454
392.60 0.3459
392.70 0.3464
392.80 0.3469
392.90 0.3474
393.00 0.3479
393.10 0.3484
393.20 0.3489
393.30 0.3494
393.40 0.3499
393.50 0.3504
393.60 0.3509
393.70 0.3514
393.80 0.3519
393.90 0.3524
394.00 0.3529
394.10 0.3534
394.20 0.3539
394.30 0.3544
394.40 0.3549
394.50 0.3554
394.60 0.3559
394.70 0.3564
394.80 0.3569
394.90 0.3574
395.00 0.3579
395.10 0.3584
395.20 0.3589
395.30 0.3594
395.40 0.3599
395.50 0.3604
395.60 0.3609
395.70 0.3614
395.80 0.3619
395.90 0.3624
396.00 0.3629
396.10 0.3634
396.20 0.3639
396.30 0.3645
396.40 0.365
396.50 0.3655
396.60 0.366
396.70 0.3665
396.80 0.367
396.90 0.3675
397.00 0.368
397.10 0.3685
397.20 0.369
397.30 0.3695
397.40 0.37
397.50 0.3705
397.60 0.3711
397.70 0.3716
397.80 0.3721
397.90 0.3726
398.00 0.3731
398.10 0.3736
398.20 0.3741
398.30 0.3746
398.40 0.3751
398.50 0.3757
398.60 0.3762
398.70 0.3767
398.80 0.3772
398.90 0.3777
399.00 0.3782
399.10 0.3787
399.20 0.3793
399.30 0.3798
399.40 0.3803
399.50 0.3808
399.60 0.3813
399.70 0.3818
399.80 0.3824
399.90 0.3829
400.00 0.3834
400.10 0.3839
400.20 0.3844
400.30 0.3849
400.40 0.3855
400.50 0.386
400.60 0.3865
400.70 0.387
400.80 0.3875
400.90 0.3881
401.00 0.3886
401.10 0.3891
401.20 0.3896
401.30 0.3901
401.40 0.3907
401.50 0.3912
401.60 0.3917
401.70 0.3922
401.80 0.3928
401.90 0.3933
402.00 0.3938
402.10 0.3943
402.20 0.3949
402.30 0.3954
402.40 0.3959
402.50 0.3964
402.60 0.3969
402.70 0.3975
402.80 0.398
402.90 0.3985
403.00 0.3991
403.10 0.3996
403.20 0.4001
403.30 0.4006
403.40 0.4012
403.50 0.4017
403.60 0.4022
403.70 0.4027
403.80 0.4033
403.90 0.4038
404.00 0.4043
404.10 0.4049
404.20 0.4054
404.30 0.4059
404.40 0.4065
404.50 0.407
404.60 0.4075
404.70 0.4081
404.80 0.4086
404.90 0.4091
405.00 0.4097
405.10 0.4102
405.20 0.4107
405.30 0.4112
405.40 0.4118
405.50 0.4123
405.60 0.4128
405.70 0.4134
405.80 0.4139
405.90 0.4145
406.00 0.415
406.10 0.4155
406.20 0.4161
406.30 0.4166
406.40 0.4171
406.50 0.4177
406.60 0.4182
406.70 0.4187
406.80 0.4193
406.90 0.4198
407.00 0.4204
407.10 0.4209
407.20 0.4214
407.30 0.422
407.40 0.4225
407.50 0.423
407.60 0.4236
407.70 0.4241
407.80 0.4247
407.90 0.4252
408.00 0.4258
408.10 0.4263
408.20 0.4268
408.30 0.4274
408.40 0.4279
408.50 0.4285
408.60 0.429
408.70 0.4296
408.80 0.4301
408.90 0.4306
409.00 0.4312
409.10 0.4317
409.20 0.4323
409.30 0.4328
409.40 0.4334
409.50 0.4339
409.60 0.4344
409.70 0.435
409.80 0.4355
409.90 0.4361
410.00 0.4366
410.10 0.4372
410.20 0.4377
410.30 0.4383
410.40 0.4388
410.50 0.4394
410.60 0.4399
410.70 0.4405
410.80 0.441
410.90 0.4416
411.00 0.4421
411.10 0.4427
411.20 0.4432
411.30 0.4438
411.40 0.4443
411.50 0.4449
411.60 0.4454
411.70 0.446
411.80 0.4465
411.90 0.4471
412.00 0.4476
412.10 0.4482
412.20 0.4487
412.30 0.4493
412.40 0.4498
412.50 0.4504
412.60 0.451
412.70 0.4515
412.80 0.4521
412.90 0.4526
413.00 0.4532
413.10 0.4537
413.20 0.4543
413.30 0.4548
413.40 0.4554
413.50 0.4559
413.60 0.4565
413.70 0.4571
413.80 0.4576
413.90 0.4582
414.00 0.4587
414.10 0.4593
414.20 0.4598
414.30 0.4604
414.40 0.461
414.50 0.4615
414.60 0.4621
414.70 0.4626
414.80 0.4632
414.90 0.4638
415.00 0.4643
415.10 0.4649
415.20 0.4654
415.30 0.466
415.40 0.4666
415.50 0.4671
415.60 0.4677
415.70 0.4683
415.80 0.4688
415.90 0.4694
416.00 0.4699
416.10 0.4705
416.20 0.4711
416.30 0.4716
416.40 0.4722
416.50 0.4728
416.60 0.4733
416.70 0.4739
416.80 0.4744
416.90 0.475
417.00 0.4756
417.10 0.4761
417.20 0.4767
417.30 0.4773
417.40 0.4778
417.50 0.4784
417.60 0.479
417.70 0.4795
417.80 0.4801
417.90 0.4807
418.00 0.4812
418.10 0.4818
418.20 0.4824
418.30 0.483
418.40 0.4835
418.50 0.4841
418.60 0.4847
418.70 0.4852
418.80 0.4858
418.90 0.4864
419.00 0.4869
419.10 0.4875
419.20 0.4881
419.30 0.4887
419.40 0.4892
419.50 0.4898
419.60 0.4904
419.70 0.4909
419.80 0.4915
419.90 0.4921
420.00 0.4927
420.10 0.4932
420.20 0.4938
420.30 0.4944
420.40 0.495
420.50 0.4955
420.60 0.4961
420.70 0.4967
420.80 0.4973
420.90 0.4978
421.00 0.4984
421.10 0.499
421.20 0.4996
421.30 0.5001
421.40 0.5007
421.50 0.5013
421.60 0.5019
421.70 0.5024
421.80 0.503
421.90 0.5036
422.00 0.5042
422.10 0.5048
422.20 0.5053
422.30 0.5059
422.40 0.5065
422.50 0.5071
422.60 0.5077
422.70 0.5082
422.80 0.5088
422.90 0.5094
423.00 0.51
423.10 0.5105
423.20 0.5111
423.30 0.5117
423.40 0.5123
423.50 0.5129
423.60 0.5135
423.70 0.514
423.80 0.5146
423.90 0.5152
424.00 0.5158
424.10 0.5164
424.20 0.5169
424.30 0.5175
424.40 0.5181
424.50 0.5187
424.60 0.5193
424.70 0.5199
424.80 0.5204
424.90 0.521
425.00 0.5216
425.10 0.5222
425.20 0.5228
425.30 0.5234
425.40 0.524
425.50 0.5246
425.60 0.5251
425.70 0.5257
425.80 0.5263
425.90 0.5269
426.00 0.5275
426.10 0.5281
426.20 0.5287
426.30 0.5292
426.40 0.5298
426.50 0.5304
426.60 0.531
426.70 0.5316
426.80 0.5322
426.90 0.5328
427.00 0.5334
427.10 0.534
427.20 0.5345
427.30 0.5351
427.40 0.5357
427.50 0.5363
427.60 0.5369
427.70 0.5375
427.80 0.5381
427.90 0.5387
428.00 0.5393
428.10 0.5399
428.20 0.5405
428.30 0.5411
428.40 0.5416
428.50 0.5422
428.60 0.5428
428.70 0.5434
428.80 0.544
428.90 0.5446
429.00 0.5452
429.10 0.5458
429.20 0.5464
429.30 0.547
429.40 0.5476
429.50 0.5482
429.60 0.5488
429.70 0.5494
429.80 0.55
429.90 0.5506
430.00 0.5512
430.10 0.5518
430.20 0.5523
430.30 0.5529
430.40 0.5535
430.50 0.5541
430.60 0.5547
430.70 0.5553
430.80 0.5559
430.90 0.5565
431.00 0.5571
431.10 0.5577
431.20 0.5583
431.30 0.5589
431.40 0.5595
431.50 0.5601
431.60 0.5607
431.70 0.5613
431.80 0.5619
431.90 0.5625
432.00 0.5631
432.10 0.5637
432.20 0.5643
432.30 0.5649
432.40 0.5655
432.50 0.5661
432.60 0.5667
432.70 0.5673
432.80 0.5679
432.90 0.5685
433.00 0.5691
433.10 0.5697
433.20 0.5703
433.30 0.5709
433.40 0.5715
433.50 0.5722
433.60 0.5728
433.70 0.5734
433.80 0.574
433.90 0.5746
434.00 0.5752
434.10 0.5758
434.20 0.5764
434.30 0.577
434.40 0.5776
434.50 0.5782
434.60 0.5788
434.70 0.5794
434.80 0.58
434.90 0.5806
435.00 0.5812
435.10 0.5818
435.20 0.5824
435.30 0.583
435.40 0.5836
435.50 0.5843
435.60 0.5849
435.70 0.5855
435.80 0.5861
435.90 0.5867
436.00 0.5873
436.10 0.5879
436.20 0.5885
436.30 0.5891
436.40 0.5897
436.50 0.5903
436.60 0.591
436.70 0.5916
436.80 0.5922
436.90 0.5928
437.00 0.5934
437.10 0.594
437.20 0.5946
437.30 0.5952
437.40 0.5958
437.50 0.5964
437.60 0.5971
437.70 0.5977
437.80 0.5983
437.90 0.5989
438.00 0.5995
438.10 0.6001
438.20 0.6007
438.30 0.6013
438.40 0.6019
438.50 0.6026
438.60 0.6032
438.70 0.6038
438.80 0.6044
438.90 0.605
439.00 0.6056
439.10 0.6062
439.20 0.6069
439.30 0.6075
439.40 0.6081
439.50 0.6087
439.60 0.6093
439.70 0.6099
439.80 0.6106
439.90 0.6112
440.00 0.6118
440.10 0.6124
440.20 0.613
440.30 0.6136
440.40 0.6142
440.50 0.6149
440.60 0.6155
440.70 0.6161
440.80 0.6167
440.90 0.6173
441.00 0.6179
441.10 0.6186
441.20 0.6192
441.30 0.6198
441.40 0.6204
441.50 0.621
441.60 0.6217
441.70 0.6223
441.80 0.6229
441.90 0.6235
442.00 0.6241
442.10 0.6248
442.20 0.6254
442.30 0.626
442.40 0.6266
442.50 0.6272
442.60 0.6279
442.70 0.6285
442.80 0.6291
442.90 0.6297
443.00 0.6303
443.10 0.631
443.20 0.6316
443.30 0.6322
443.40 0.6328
443.50 0.6334
443.60 0.6341
443.70 0.6347
443.80 0.6353
443.90 0.6359
444.00 0.6366
444.10 0.6372
444.20 0.6378
444.30 0.6384
444.40 0.639
444.50 0.6397
444.60 0.6403
444.70 0.6409
444.80 0.6415
444.90 0.6422
445.00 0.6428
445.10 0.6434
445.20 0.644
445.30 0.6447
445.40 0.6453
445.50 0.6459
445.60 0.6465
445.70 0.6472
445.80 0.6478
445.90 0.6484
446.00 0.649
446.10 0.6497
446.20 0.6503
446.30 0.6509
446.40 0.6516
446.50 0.6522
446.60 0.6528
446.70 0.6534
446.80 0.6541
446.90 0.6547
447.00 0.6553
447.10 0.6559
447.20 0.6566
447.30 0.6572
447.40 0.6578
447.50 0.6584
447.60 0.6591
447.70 0.6597
447.80 0.6603
447.90 0.661
448.00 0.6616
448.10 0.6622
448.20 0.6628
448.30 0.6635
448.40 0.6641
448.50 0.6647
448.60 0.6654
448.70 0.666
448.80 0.6666
448.90 0.6673
449.00 0.6679
449.10 0.6685
449.20 0.6692
449.30 0.6698
449.40 0.6704
449.50 0.671
449.60 0.6717
449.70 0.6723
449.80 0.6729
449.90 0.6736
450.00 0.6742
450.10 0.6748
450.20 0.6755
450.30 0.6761
450.40 0.6767
450.50 0.6774
450.60 0.678
450.70 0.6786
450.80 0.6793
450.90 0.6799
451.00 0.6805
451.10 0.6812
451.20 0.6818
451.30 0.6824
451.40 0.6831
451.50 0.6837
451.60 0.6843
451.70 0.685
451.80 0.6856
451.90 0.6862
452.00 0.6869
452.10 0.6875
452.20 0.6881
452.30 0.6888
452.40 0.6894
452.50 0.69
452.60 0.6907
452.70 0.6913
452.80 0.692
452.90 0.6926
453.00 0.6932
453.10 0.6939
453.20 0.6945
453.30 0.6951
453.40 0.6958
453.50 0.6964
453.60 0.697
453.70 0.6977
453.80 0.6983
453.90 0.699
454.00 0.6996
454.10 0.7002
454.20 0.7009
454.30 0.7015
454.40 0.7021
454.50 0.7028
454.60 0.7034
454.70 0.7041
454.80 0.7047
454.90 0.7053
455.00 0.706
455.10 0.7066
455.20 0.7073
455.30 0.7079
455.40 0.7085
455.50 0.7092
455.60 0.7098
455.70 0.7105
455.80 0.7111
455.90 0.7117
456.00 0.7124
456.10 0.713
456.20 0.7136
456.30 0.7143
456.40 0.7149
456.50 0.7156
456.60 0.7162
456.70 0.7169
456.80 0.7175
456.90 0.7181
457.00 0.7188
457.10 0.7194
457.20 0.7201
457.30 0.7207
457.40 0.7213
457.50 0.722
457.60 0.7226
457.70 0.7233
457.80 0.7239
457.90 0.7246
458.00 0.7252
458.10 0.7258
458.20 0.7265
458.30 0.7271
458.40 0.7278
458.50 0.7284
458.60 0.729
458.70 0.7297
458.80 0.7303
458.90 0.731
459.00 0.7316
459.10 0.7323
459.20 0.7329
459.30 0.7335
459.40 0.7342
459.50 0.7348
459.60 0.7355
459.70 0.7361
459.80 0.7368
459.90 0.7374
460.00 0.7381
460.10 0.7387
460.20 0.7393
460.30 0.74
460.40 0.7406
460.50 0.7413
460.60 0.7419
460.70 0.7426
460.80 0.7432
460.90 0.7439
461.00 0.7445
461.10 0.7451
461.20 0.7458
461.30 0.7464
461.40 0.7471
461.50 0.7477
461.60 0.7484
461.70 0.749
461.80 0.7497
461.90 0.7503
462.00 0.751
462.10 0.7516
462.20 0.7523
462.30 0.7529
462.40 0.7536
462.50 0.7542
462.60 0.7549
462.70 0.7555
462.80 0.7561
462.90 0.7568
463.00 0.7574
463.10 0.7581
463.20 0.7587
463.30 0.7594
463.40 0.76
463.50 0.7607
463.60 0.7613
463.70 0.762
463.80 0.7626
463.90 0.7633
464.00 0.7639
464.10 0.7646
464.20 0.7652
464.30 0.7659
464.40 0.7665
464.50 0.7672
464.60 0.7678
464.70 0.7684
464.80 0.7691
464.90 0.7697
465.00 0.7704
465.10 0.771
465.20 0.7717
465.30 0.7723
465.40 0.773
465.50 0.7736
465.60 0.7743
465.70 0.7749
465.80 0.7756
465.90 0.7762
466.00 0.7769
466.10 0.7775
466.20 0.7782
466.30 0.7788
466.40 0.7795
466.50 0.7801
466.60 0.7808
466.70 0.7814
466.80 0.7821
466.90 0.7827
467.00 0.7834
467.10 0.784
467.20 0.7847
467.30 0.7853
467.40 0.786
467.50 0.7866
467.60 0.7873
467.70 0.7879
467.80 0.7886
467.90 0.7892
468.00 0.7899
468.10 0.7905
468.20 0.7912
468.30 0.7919
468.40 0.7925
468.50 0.7932
468.60 0.7938
468.70 0.7945
468.80 0.7951
468.90 0.7958
469.00 0.7964
469.10 0.7971
469.20 0.7977
469.30 0.7984
469.40 0.7991
469.50 0.7997
469.60 0.8004
469.70 0.801
469.80 0.8017
469.90 0.8023
470.00 0.803
470.10 0.8036
470.20 0.8043
470.30 0.805
470.40 0.8056
470.50 0.8063
470.60 0.8069
470.70 0.8076
470.80 0.8082
470.90 0.8089
471.00 0.8095
471.10 0.8102
471.20 0.8108
471.30 0.8115
471.40 0.8121
471.50 0.8128
471.60 0.8134
471.70 0.8141
471.80 0.8147
471.90 0.8154
472.00 0.816
472.10 0.8167
472.20 0.8173
472.30 0.818
472.40 0.8187
472.50 0.8193
472.60 0.82
472.70 0.8206
472.80 0.8213
472.90 0.822
473.00 0.8226
473.10 0.8233
473.20 0.8239
473.30 0.8246
473.40 0.8252
473.50 0.8259
473.60 0.8265
473.70 0.8272
473.80 0.8278
473.90 0.8285
474.00 0.8291
474.10 0.8298
474.20 0.8304
474.30 0.8311
474.40 0.8318
474.50 0.8324
474.60 0.8331
474.70 0.8338
474.80 0.8344
474.90 0.8351
475.00 0.8357
475.10 0.8364
475.20 0.837
475.30 0.8377
475.40 0.8384
475.50 0.839
475.60 0.8397
475.70 0.8403
475.80 0.841
475.90 0.8416
476.00 0.8423
476.10 0.8429
476.20 0.8436
476.30 0.8442
476.40 0.8449
476.50 0.8456
476.60 0.8462
476.70 0.8469
476.80 0.8475
476.90 0.8482
477.00 0.8488
477.10 0.8495
477.20 0.8501
477.30 0.8508
477.40 0.8515
477.50 0.8521
477.60 0.8528
477.70 0.8534
477.80 0.8541
477.90 0.8547
478.00 0.8554
478.10 0.8561
478.20 0.8567
478.30 0.8574
478.40 0.858
478.50 0.8587
478.60 0.8593
478.70 0.86
478.80 0.8607
478.90 0.8613
479.00 0.862
479.10 0.8626
479.20 0.8633
479.30 0.8639
479.40 0.8646
479.50 0.8653
479.60 0.8659
479.70 0.8666
479.80 0.8673
479.90 0.8679
480.00 0.8686
480.10 0.8692
480.20 0.8699
480.30 0.8705
480.40 0.8712
480.50 0.8719
480.60 0.8725
480.70 0.8732
480.80 0.8738
480.90 0.8745
481.00 0.8751
481.10 0.8758
481.20 0.8765
481.30 0.8771
481.40 0.8778
481.50 0.8784
481.60 0.8791
481.70 0.8797
481.80 0.8804
481.90 0.881
482.00 0.8817
482.10 0.8823
482.20 0.883
482.30 0.8837
482.40 0.8843
482.50 0.885
482.60 0.8856
482.70 0.8863
482.80 0.887
482.90 0.8876
483.00 0.8883
483.10 0.8889
483.20 0.8896
483.30 0.8903
483.40 0.8909
483.50 0.8916
483.60 0.8922
483.70 0.8929
483.80 0.8935
483.90 0.8942
484.00 0.8948
484.10 0.8955
484.20 0.8962
484.30 0.8968
484.40 0.8975
484.50 0.8982
484.60 0.8988
484.70 0.8995
484.80 0.9001
484.90 0.9008
485.00 0.9015
485.10 0.9021
485.20 0.9028
485.30 0.9034
485.40 0.9041
485.50 0.9047
485.60 0.9054
485.70 0.906
485.80 0.9067
485.90 0.9074
486.00 0.9081
486.10 0.9087
486.20 0.9093
486.30 0.91
486.40 0.9107
486.50 0.9113
486.60 0.912
486.70 0.9126
486.80 0.9133
486.90 0.914
487.00 0.9146
487.10 0.9153
487.20 0.9159
487.30 0.9166
487.40 0.9173
487.50 0.9179
487.60 0.9186
487.70 0.9192
487.80 0.9199
487.90 0.9205
488.00 0.9212
488.10 0.9219
488.20 0.9225
488.30 0.9232
488.40 0.9238
488.50 0.9245
488.60 0.9252
488.70 0.9258
488.80 0.9265
488.90 0.9271
489.00 0.9278
489.10 0.9285
489.20 0.9291
489.30 0.9298
489.40 0.9304
489.50 0.9311
489.60 0.9318
489.70 0.9324
489.80 0.9331
489.90 0.9337
490.00 0.9344
490.10 0.9351
490.20 0.9357
490.30 0.9364
490.40 0.937
490.50 0.9377
490.60 0.9383
490.70 0.939
490.80 0.9396
490.90 0.9403
491.00 0.9409
491.10 0.9416
491.20 0.9423
491.30 0.9429
491.40 0.9436
491.50 0.9442
491.60 0.9449
491.70 0.9455
491.80 0.9462
491.90 0.9469
492.00 0.9475
492.10 0.9482
492.20 0.9488
492.30 0.9495
492.40 0.9502
492.50 0.9508
492.60 0.9515
492.70 0.9521
492.80 0.9528
492.90 0.9535
493.00 0.9541
493.10 0.9548
493.20 0.9554
493.30 0.9561
493.40 0.9567
493.50 0.9574
493.60 0.9581
493.70 0.9587
493.80 0.9594
493.90 0.96
494.00 0.9607
494.10 0.9613
494.20 0.962
494.30 0.9626
494.40 0.9633
494.50 0.964
494.60 0.9646
494.70 0.9653
494.80 0.9659
494.90 0.9666
495.00 0.9672
495.10 0.9679
495.20 0.9686
495.30 0.9692
495.40 0.9699
495.50 0.9705
495.60 0.9712
495.70 0.9719
495.80 0.9725
495.90 0.9732
496.00 0.9738
496.10 0.9745
496.20 0.9751
496.30 0.9758
496.40 0.9764
496.50 0.9771
496.60 0.9777
496.70 0.9784
496.80 0.979
496.90 0.9797
497.00 0.9803
497.10 0.981
497.20 0.9817
497.30 0.9823
497.40 0.983
497.50 0.9836
497.60 0.9843
497.70 0.985
497.80 0.9856
497.90 0.9863
498.00 0.9869
498.10 0.9876
498.20 0.9882
498.30 0.9889
498.40 0.9896
498.50 0.9902
498.60 0.9909
498.70 0.9915
498.80 0.9922
498.90 0.9928
499.00 0.9935
499.10 0.9941
499.20 0.9948
499.30 0.9954
499.40 0.9961
499.50 0.9967
499.60 0.9974
499.70 0.998
499.80 0.9987
499.90 0.9993
500.00 1
500.10 1.001
500.20 1.001
500.30 1.002
500.40 1.003
500.50 1.003
500.60 1.004
500.70 1.005
500.80 1.005
500.90 1.006
501.00 1.007
501.10 1.007
501.20 1.008
501.30 1.008
501.40 1.009
501.50 1.01
501.60 1.01
501.70 1.011
501.80 1.012
501.90 1.012
502.00 1.013
502.10 1.014
502.20 1.014
502.30 1.015
502.40 1.016
502.50 1.016
502.60 1.017
502.70 1.018
502.80 1.018
502.90 1.019
503.00 1.02
503.10 1.02
503.20 1.021
503.30 1.022
503.40 1.022
503.50 1.023
503.60 1.023
503.70 1.024
503.80 1.025
503.90 1.025
504.00 1.026
504.10 1.027
504.20 1.027
504.30 1.028
504.40 1.029
504.50 1.029
504.60 1.03
504.70 1.031
504.80 1.031
504.90 1.032
505.00 1.033
505.10 1.033
505.20 1.034
505.30 1.034
505.40 1.035
505.50 1.036
505.60 1.036
505.70 1.037
505.80 1.038
505.90 1.038
506.00 1.039
506.10 1.04
506.20 1.04
506.30 1.041
506.40 1.042
506.50 1.042
506.60 1.043
506.70 1.043
506.80 1.044
506.90 1.045
507.00 1.045
507.10 1.046
507.20 1.047
507.30 1.047
507.40 1.048
507.50 1.049
507.60 1.049
507.70 1.05
507.80 1.051
507.90 1.051
508.00 1.052
508.10 1.052
508.20 1.053
508.30 1.054
508.40 1.054
508.50 1.055
508.60 1.056
508.70 1.056
508.80 1.057
508.90 1.058
509.00 1.058
509.10 1.059
509.20 1.06
509.30 1.06
509.40 1.061
509.50 1.062
509.60 1.062
509.70 1.063
509.80 1.063
509.90 1.064
510.00 1.065
510.10 1.065
510.20 1.066
510.30 1.067
510.40 1.067
510.50 1.068
510.60 1.069
510.70 1.069
510.80 1.07
510.90 1.071
511.00 1.071
511.10 1.072
511.20 1.072
511.30 1.073
511.40 1.074
511.50 1.074
511.60 1.075
511.70 1.076
511.80 1.076
511.90 1.077
512.00 1.078
512.10 1.078
512.20 1.079
512.30 1.08
512.40 1.08
512.50 1.081
512.60 1.081
512.70 1.082
512.80 1.083
512.90 1.083
513.00 1.084
513.10 1.085
513.20 1.085
513.30 1.086
513.40 1.087
513.50 1.087
513.60 1.088
513.70 1.088
513.80 1.089
513.90 1.09
514.00 1.09
514.10 1.091
514.20 1.092
514.30 1.092
514.40 1.093
514.50 1.094
514.60 1.094
514.70 1.095
514.80 1.095
514.90 1.096
515.00 1.097
515.10 1.097
515.20 1.098
515.30 1.099
515.40 1.099
515.50 1.1
515.60 1.101
515.70 1.101
515.80 1.102
515.90 1.102
516.00 1.103
516.10 1.104
516.20 1.104
516.30 1.105
516.40 1.106
516.50 1.106
516.60 1.107
516.70 1.108
516.80 1.108
516.90 1.109
517.00 1.109
517.10 1.11
517.20 1.111
517.30 1.111
517.40 1.112
517.50 1.113
517.60 1.113
517.70 1.114
517.80 1.114
517.90 1.115
518.00 1.116
518.10 1.116
518.20 1.117
518.30 1.118
518.40 1.118
518.50 1.119
518.60 1.12
518.70 1.12
518.80 1.121
518.90 1.121
519.00 1.122
519.10 1.123
519.20 1.123
519.30 1.124
519.40 1.125
519.50 1.125
519.60 1.126
519.70 1.126
519.80 1.127
519.90 1.128
520.00 1.128
520.10 1.129
520.20 1.13
520.30 1.13
520.40 1.131
520.50 1.131
520.60 1.132
520.70 1.133
520.80 1.133
520.90 1.134
521.00 1.135
521.10 1.135
521.20 1.136
521.30 1.136
521.40 1.137
521.50 1.138
521.60 1.138
521.70 1.139
521.80 1.14
521.90 1.14
522.00 1.141
522.10 1.141
522.20 1.142
522.30 1.143
522.40 1.143
522.50 1.144
522.60 1.144
522.70 1.145
522.80 1.146
522.90 1.146
523.00 1.147
523.10 1.148
523.20 1.148
523.30 1.149
523.40 1.149
523.50 1.15
523.60 1.151
523.70 1.151
523.80 1.152
523.90 1.153
524.00 1.153
524.10 1.154
524.20 1.154
524.30 1.155
524.40 1.156
524.50 1.156
524.60 1.157
524.70 1.157
524.80 1.158
524.90 1.159
525.00 1.159
525.10 1.16
525.20 1.161
525.30 1.161
525.40 1.162
525.50 1.162
525.60 1.163
525.70 1.164
525.80 1.164
525.90 1.165
526.00 1.165
526.10 1.166
526.20 1.167
526.30 1.167
526.40 1.168
526.50 1.168
526.60 1.169
526.70 1.17
526.80 1.17
526.90 1.171
527.00 1.172
527.10 1.172
527.20 1.173
527.30 1.173
527.40 1.174
527.50 1.175
527.60 1.175
527.70 1.176
527.80 1.176
527.90 1.177
528.00 1.178
528.10 1.178
528.20 1.179
528.30 1.179
528.40 1.18
528.50 1.181
528.60 1.181
528.70 1.182
528.80 1.182
528.90 1.183
529.00 1.184
529.10 1.184
529.20 1.185
529.30 1.185
529.40 1.186
529.50 1.187
529.60 1.187
529.70 1.188
529.80 1.188
529.90 1.189
530.00 1.19
530.10 1.19
530.20 1.191
530.30 1.191
530.40 1.192
530.50 1.193
530.60 1.193
530.70 1.194
530.80 1.194
530.90 1.195
531.00 1.196
531.10 1.196
531.20 1.197
531.30 1.197
531.40 1.198
531.50 1.199
531.60 1.199
531.70 1.2
531.80 1.2
531.90 1.201
532.00 1.202
532.10 1.202
532.20 1.203
532.30 1.203
532.40 1.204
532.50 1.205
532.60 1.205
532.70 1.206
532.80 1.206
532.90 1.207
533.00 1.208
533.10 1.208
533.20 1.209
533.30 1.209
533.40 1.21
533.50 1.21
533.60 1.211
533.70 1.212
533.80 1.212
533.90 1.213
534.00 1.213
534.10 1.214
534.20 1.215
534.30 1.215
534.40 1.216
534.50 1.216
534.60 1.217
534.70 1.218
534.80 1.218
534.90 1.219
535.00 1.219
535.10 1.22
535.20 1.22
535.30 1.221
535.40 1.222
535.50 1.222
535.60 1.223
535.70 1.223
535.80 1.224
535.90 1.225
536.00 1.225
536.10 1.226
536.20 1.226
536.30 1.227
536.40 1.227
536.50 1.228
536.60 1.229
536.70 1.229
536.80 1.23
536.90 1.23
537.00 1.231
537.10 1.231
537.20 1.232
537.30 1.233
537.40 1.233
537.50 1.234
537.60 1.234
537.70 1.235
537.80 1.235
537.90 1.236
538.00 1.237
538.10 1.237
538.20 1.238
538.30 1.238
538.40 1.239
538.50 1.239
538.60 1.24
538.70 1.241
538.80 1.241
538.90 1.242
539.00 1.242
539.10 1.243
539.20 1.243
539.30 1.244
539.40 1.244
539.50 1.245
539.60 1.246
539.70 1.246
539.80 1.247
539.90 1.247
540.00 1.248
540.10 1.248
540.20 1.249
540.30 1.25
540.40 1.25
540.50 1.251
540.60 1.251
540.70 1.252
540.80 1.252
540.90 1.253
541.00 1.253
541.10 1.254
541.20 1.255
541.30 1.255
541.40 1.256
541.50 1.256
541.60 1.257
541.70 1.257
541.80 1.258
541.90 1.258
542.00 1.259
542.10 1.26
542.20 1.26
542.30 1.261
542.40 1.261
542.50 1.262
542.60 1.262
542.70 1.263
542.80 1.263
542.90 1.264
543.00 1.264
543.10 1.265
543.20 1.266
543.30 1.266
543.40 1.267
543.50 1.267
543.60 1.268
543.70 1.268
543.80 1.269
543.90 1.269
544.00 1.27
544.10 1.27
544.20 1.271
544.30 1.272
544.40 1.272
544.50 1.273
544.60 1.273
544.70 1.274
544.80 1.274
544.90 1.275
545.00 1.275
545.10 1.276
545.20 1.276
545.30 1.277
545.40 1.277
545.50 1.278
545.60 1.278
545.70 1.279
545.80 1.28
545.90 1.28
546.00 1.281
546.10 1.281
546.20 1.282
546.30 1.282
546.40 1.283
546.50 1.283
546.60 1.284
546.70 1.284
546.80 1.285
546.90 1.285
547.00 1.286
547.10 1.286
547.20 1.287
547.30 1.287
547.40 1.288
547.50 1.289
547.60 1.289
547.70 1.29
547.80 1.29
547.90 1.291
548.00 1.291
548.10 1.292
548.20 1.292
548.30 1.293
548.40 1.293
548.50 1.294
548.60 1.294
548.70 1.295
548.80 1.295
548.90 1.296
549.00 1.296
549.10 1.297
549.20 1.297
549.30 1.298
549.40 1.298
549.50 1.299
549.60 1.299
549.70 1.3
549.80 1.3
549.90 1.301
550.00 1.301
550.10 1.302
550.20 1.302
550.30 1.303
550.40 1.303
550.50 1.304
550.60 1.304
550.70 1.305
550.80 1.305
550.90 1.306
551.00 1.306
551.10 1.307
551.20 1.307
551.30 1.308
551.40 1.308
551.50 1.309
551.60 1.309
551.70 1.31
551.80 1.31
551.90 1.311
552.00 1.311
552.10 1.312
552.20 1.312
552.30 1.313
552.40 1.313
552.50 1.314
552.60 1.314
552.70 1.315
552.80 1.315
552.90 1.316
553.00 1.316
553.10 1.317
553.20 1.317
553.30 1.318
553.40 1.318
553.50 1.319
553.60 1.319
553.70 1.32
553.80 1.32
553.90 1.321
554.00 1.321
554.10 1.321
554.20 1.322
554.30 1.322
554.40 1.323
554.50 1.323
554.60 1.324
554.70 1.324
554.80 1.325
554.90 1.325
555.00 1.326
555.10 1.326
555.20 1.327
555.30 1.327
555.40 1.328
555.50 1.328
555.60 1.328
555.70 1.329
555.80 1.329
555.90 1.33
556.00 1.33
556.10 1.331
556.20 1.331
556.30 1.332
556.40 1.332
556.50 1.333
556.60 1.333
556.70 1.333
556.80 1.334
556.90 1.334
557.00 1.335
557.10 1.335
557.20 1.336
557.30 1.336
557.40 1.337
557.50 1.337
557.60 1.338
557.70 1.338
557.80 1.338
557.90 1.339
558.00 1.339
558.10 1.34
558.20 1.34
558.30 1.341
558.40 1.341
558.50 1.342
558.60 1.342
558.70 1.342
558.80 1.343
558.90 1.343
559.00 1.344
559.10 1.344
559.20 1.345
559.30 1.345
559.40 1.345
559.50 1.346
559.60 1.346
559.70 1.347
559.80 1.347
559.90 1.348
560.00 1.348
560.10 1.348
560.20 1.349
560.30 1.349
560.40 1.35
560.50 1.35
560.60 1.351
560.70 1.351
560.80 1.351
560.90 1.352
561.00 1.352
561.10 1.353
561.20 1.353
561.30 1.354
561.40 1.354
561.50 1.354
561.60 1.355
561.70 1.355
561.80 1.356
561.90 1.356
562.00 1.357
562.10 1.357
562.20 1.357
562.30 1.358
562.40 1.358
562.50 1.359
562.60 1.359
562.70 1.359
562.80 1.36
562.90 1.36
563.00 1.361
563.10 1.361
563.20 1.361
563.30 1.362
563.40 1.362
563.50 1.363
563.60 1.363
563.70 1.363
563.80 1.364
563.90 1.364
564.00 1.365
564.10 1.365
564.20 1.365
564.30 1.366
564.40 1.366
564.50 1.367
564.60 1.367
564.70 1.367
564.80 1.368
564.90 1.368
565.00 1.368
565.10 1.369
565.20 1.369
565.30 1.37
565.40 1.37
565.50 1.37
565.60 1.371
565.70 1.371
565.80 1.371
565.90 1.372
566.00 1.372
566.10 1.373
566.20 1.373
566.30 1.373
566.40 1.374
566.50 1.374
566.60 1.374
566.70 1.375
566.80 1.375
566.90 1.375
567.00 1.376
567.10 1.376
567.20 1.377
567.30 1.377
567.40 1.377
567.50 1.378
567.60 1.378
567.70 1.378
567.80 1.379
567.90 1.379
568.00 1.379
568.10 1.38
568.20 1.38
568.30 1.38
568.40 1.381
568.50 1.381
568.60 1.381
568.70 1.382
568.80 1.382
568.90 1.382
569.00 1.383
569.10 1.383
569.20 1.383
569.30 1.384
569.40 1.384
569.50 1.384
569.60 1.385
569.70 1.385
569.80 1.385
569.90 1.386
570.00 1.386
570.10 1.386
570.20 1.387
570.30 1.387
570.40 1.387
570.50 1.387
570.60 1.388
570.70 1.388
570.80 1.388
570.90 1.389
571.00 1.389
571.10 1.389
571.20 1.39
571.30 1.39
571.40 1.39
571.50 1.391
571.60 1.391
571.70 1.391
571.80 1.391
571.90 1.392
572.00 1.392
572.10 1.392
572.20 1.393
572.30 1.393
572.40 1.393
572.50 1.394
572.60 1.394
572.70 1.394
572.80 1.394
572.90 1.395
573.00 1.395
573.10 1.395
573.20 1.396
573.30 1.396
573.40 1.396
573.50 1.396
573.60 1.397
573.70 1.397
573.80 1.397
573.90 1.397
574.00 1.398
574.10 1.398
574.20 1.398
574.30 1.399
574.40 1.399
574.50 1.399
574.60 1.399
574.70 1.4
574.80 1.4
574.90 1.4
575.00 1.4
575.10 1.401
575.20 1.401
575.30 1.401
575.40 1.401
575.50 1.402
575.60 1.402
575.70 1.402
575.80 1.402
575.90 1.403
576.00 1.403
576.10 1.403
576.20 1.403
576.30 1.404
576.40 1.404
576.50 1.404
576.60 1.404
576.70 1.405
576.80 1.405
576.90 1.405
577.00 1.405
577.10 1.406
577.20 1.406
577.30 1.406
577.40 1.406
577.50 1.407
577.60 1.407
577.70 1.407
577.80 1.407
577.90 1.407
578.00 1.408
578.10 1.408
578.20 1.408
578.30 1.408
578.40 1.409
578.50 1.409
578.60 1.409
578.70 1.409
578.80 1.409
578.90 1.41
579.00 1.41
579.10 1.41
579.20 1.41
579.30 1.41
579.40 1.411
579.50 1.411
579.60 1.411
579.70 1.411
579.80 1.411
579.90 1.412
580.00 1.412
580.10 1.412
580.20 1.412
580.30 1.412
580.40 1.413
580.50 1.413
580.60 1.413
580.70 1.413
580.80 1.413
580.90 1.414
581.00 1.414
581.10 1.414
581.20 1.414
581.30 1.414
581.40 1.414
581.50 1.415
581.60 1.415
581.70 1.415
581.80 1.415
581.90 1.415
582.00 1.415
582.10 1.416
582.20 1.416
582.30 1.416
582.40 1.416
582.50 1.416
582.60 1.416
582.70 1.417
582.80 1.417
582.90 1.417
583.00 1.417
583.10 1.417
583.20 1.417
583.30 1.417
583.40 1.418
583.50 1.418
583.60 1.418
583.70 1.418
583.80 1.418
583.90 1.418
584.00 1.418
584.10 1.419
584.20 1.419
584.30 1.419
584.40 1.419
584.50 1.419
584.60 1.419
584.70 1.419
584.80 1.419
584.90 1.42
585.00 1.42
585.10 1.42
585.20 1.42
585.30 1.42
585.40 1.42
585.50 1.42
585.60 1.42
585.70 1.42
585.80 1.42
585.90 1.421
586.00 1.421
586.10 1.421
586.20 1.421
586.30 1.421
586.40 1.421
586.50 1.421
586.60 1.421
586.70 1.421
586.80 1.421
586.90 1.421
587.00 1.421
587.10 1.421
587.20 1.422
587.30 1.422
587.40 1.422
587.50 1.422
587.60 1.422
587.70 1.422
587.80 1.422
587.90 1.422
588.00 1.422
588.10 1.422
588.20 1.422
588.30 1.422
588.40 1.422
588.50 1.422
588.60 1.422
588.70 1.422
588.80 1.422
588.90 1.422
589.00 1.422
589.10 1.422
589.20 1.422
589.30 1.422
589.40 1.422
589.50 1.422
589.60 1.422
589.70 1.422
589.80 1.422
589.90 1.422
590.00 1.423
590.10 1.423
590.20 1.423
590.30 1.423
590.40 1.423
590.50 1.423
590.60 1.423
590.70 1.423
590.80 1.423
590.90 1.423
591.00 1.423
591.10 1.423
591.20 1.423
591.30 1.422
591.40 1.422
591.50 1.422
591.60 1.422
591.70 1.422
591.80 1.422
591.90 1.422
592.00 1.422
592.10 1.422
592.20 1.422
592.30 1.422
592.40 1.422
592.50 1.422
592.60 1.422
592.70 1.422
592.80 1.422
592.90 1.422
593.00 1.422
593.10 1.422
593.20 1.422
593.30 1.422
593.40 1.422
593.50 1.422
593.60 1.422
593.70 1.422
593.80 1.422
593.90 1.422
594.00 1.422
594.10 1.421
594.20 1.421
594.30 1.421
594.40 1.421
594.50 1.421
594.60 1.421
594.70 1.421
594.80 1.421
594.90 1.421
595.00 1.421
595.10 1.421
595.20 1.421
595.30 1.421
595.40 1.421
595.50 1.42
595.60 1.42
595.70 1.42
595.80 1.42
595.90 1.42
596.00 1.42
596.10 1.42
596.20 1.42
596.30 1.42
596.40 1.42
596.50 1.419
596.60 1.419
596.70 1.419
596.80 1.419
596.90 1.419
597.00 1.419
597.10 1.419
597.20 1.419
597.30 1.419
597.40 1.419
597.50 1.418
597.60 1.418
597.70 1.418
597.80 1.418
597.90 1.418
598.00 1.418
598.10 1.418
598.20 1.417
598.30 1.417
598.40 1.417
598.50 1.417
598.60 1.417
598.70 1.417
598.80 1.417
598.90 1.416
599.00 1.416
599.10 1.416
599.20 1.416
599.30 1.416
599.40 1.416
599.50 1.415
599.60 1.415
599.70 1.415
599.80 1.415
599.90 1.415
600.00 1.415
600.10 1.414
600.20 1.414
600.30 1.414
600.40 1.414
600.50 1.414
600.60 1.413
600.70 1.413
600.80 1.413
600.90 1.413
601.00 1.413
601.10 1.413
601.20 1.412
601.30 1.412
601.40 1.412
601.50 1.412
601.60 1.411
601.70 1.411
601.80 1.411
601.90 1.411
602.00 1.411
602.10 1.41
602.20 1.41
602.30 1.41
602.40 1.41
602.50 1.409
602.60 1.409
602.70 1.409
602.80 1.409
602.90 1.409
603.00 1.408
603.10 1.408
603.20 1.408
603.30 1.408
603.40 1.407
603.50 1.407
603.60 1.407
603.70 1.406
603.80 1.406
603.90 1.406
604.00 1.406
604.10 1.405
604.20 1.405
604.30 1.405
604.40 1.405
604.50 1.404
604.60 1.404
604.70 1.404
604.80 1.403
604.90 1.403
605.00 1.403
605.10 1.403
605.20 1.402
605.30 1.402
605.40 1.402
605.50 1.401
605.60 1.401
605.70 1.401
605.80 1.4
605.90 1.4
606.00 1.4
606.10 1.4
606.20 1.399
606.30 1.399
606.40 1.399
606.50 1.398
606.60 1.398
606.70 1.398
606.80 1.397
606.90 1.397
607.00 1.397
607.10 1.396
607.20 1.396
607.30 1.396
607.40 1.395
607.50 1.395
607.60 1.395
607.70 1.394
607.80 1.394
607.90 1.394
608.00 1.393
608.10 1.393
608.20 1.392
608.30 1.392
608.40 1.392
608.50 1.391
608.60 1.391
608.70 1.391
608.80 1.39
608.90 1.39
609.00 1.389
609.10 1.389
609.20 1.389
609.30 1.388
609.40 1.388
609.50 1.388
609.60 1.387
609.70 1.387
609.80 1.386
609.90 1.386
610.00 1.386
610.10 1.385
610.20 1.385
610.30 1.384
610.40 1.384
610.50 1.383
610.60 1.383
610.70 1.383
610.80 1.382
610.90 1.382
611.00 1.381
611.10 1.381
611.20 1.38
611.30 1.38
611.40 1.38
611.50 1.379
611.60 1.379
611.70 1.378
611.80 1.378
611.90 1.377
612.00 1.377
612.10 1.376
612.20 1.376
612.30 1.376
612.40 1.375
612.50 1.375
612.60 1.374
612.70 1.374
612.80 1.373
612.90 1.373
613.00 1.372
613.10 1.372
613.20 1.371
613.30 1.371
613.40 1.37
613.50 1.37
613.60 1.369
613.70 1.369
613.80 1.368
613.90 1.368
614.00 1.367
614.10 1.367
614.20 1.366
614.30 1.366
614.40 1.365
614.50 1.365
614.60 1.364
614.70 1.364
614.80 1.363
614.90 1.363
615.00 1.362
615.10 1.362
615.20 1.361
615.30 1.36
615.40 1.36
615.50 1.359
615.60 1.359
615.70 1.358
615.80 1.358
615.90 1.357
616.00 1.357
616.10 1.356
616.20 1.355
616.30 1.355
616.40 1.354
616.50 1.354
616.60 1.353
616.70 1.352
616.80 1.352
616.90 1.351
617.00 1.351
617.10 1.35
617.20 1.35
617.30 1.349
617.40 1.348
617.50 1.348
617.60 1.347
617.70 1.347
617.80 1.346
617.90 1.345
618.00 1.345
618.10 1.344
618.20 1.344
618.30 1.343
618.40 1.342
618.50 1.342
618.60 1.341
618.70 1.34
618.80 1.34
618.90 1.339
619.00 1.339
619.10 1.338
619.20 1.337
619.30 1.337
619.40 1.336
619.50 1.335
619.60 1.335
619.70 1.334
619.80 1.333
619.90 1.333
620.00 1.332
620.10 1.331
620.20 1.331
620.30 1.33
620.40 1.329
620.50 1.329
620.60 1.328
620.70 1.327
620.80 1.327
620.90 1.326
621.00 1.325
621.10 1.325
621.20 1.324
621.30 1.323
621.40 1.323
621.50 1.322
621.60 1.321
621.70 1.321
621.80 1.32
621.90 1.319
622.00 1.318
622.10 1.318
622.20 1.317
622.30 1.316
622.40 1.316
622.50 1.315
622.60 1.314
622.70 1.314
622.80 1.313
622.90 1.312
623.00 1.311
623.10 1.311
623.20 1.31
623.30 1.309
623.40 1.309
623.50 1.308
623.60 1.307
623.70 1.306
623.80 1.306
623.90 1.305
624.00 1.304
624.10 1.303
624.20 1.303
624.30 1.302
624.40 1.301
624.50 1.3
624.60 1.3
624.70 1.299
624.80 1.298
624.90 1.297
625.00 1.297
625.10 1.296
625.20 1.295
625.30 1.294
625.40 1.294
625.50 1.293
625.60 1.292
625.70 1.291
625.80 1.29
625.90 1.29
626.00 1.289
626.10 1.288
626.20 1.287
626.30 1.287
626.40 1.286
626.50 1.285
626.60 1.284
626.70 1.283
626.80 1.282
626.90 1.282
627.00 1.281
627.10 1.28
627.20 1.279
627.30 1.278
627.40 1.278
627.50 1.277
627.60 1.276
627.70 1.275
627.80 1.274
627.90 1.273
628.00 1.273
628.10 1.272
628.20 1.271
628.30 1.27
628.40 1.269
628.50 1.268
628.60 1.268
628.70 1.267
628.80 1.266
628.90 1.265
629.00 1.264
629.10 1.263
629.20 1.263
629.30 1.262
629.40 1.261
629.50 1.26
629.60 1.259
629.70 1.258
629.80 1.257
629.90 1.257
630.00 1.256
630.10 1.255
630.20 1.254
630.30 1.253
630.40 1.252
630.50 1.251
630.60 1.25
630.70 1.25
630.80 1.249
630.90 1.248
631.00 1.247
631.10 1.246
631.20 1.245
631.30 1.244
631.40 1.243
631.50 1.242
631.60 1.242
631.70 1.241
631.80 1.24
631.90 1.239
632.00 1.238
632.10 1.237
632.20 1.236
632.30 1.235
632.40 1.234
632.50 1.233
632.60 1.232
632.70 1.231
632.80 1.231
632.90 1.23
633.00 1.229
633.10 1.228
633.20 1.227
633.30 1.226
633.40 1.225
633.50 1.224
633.60 1.223
633.70 1.222
633.80 1.221
633.90 1.22
634.00 1.219
634.10 1.218
634.20 1.217
634.30 1.217
634.40 1.216
634.50 1.215
634.60 1.214
634.70 1.213
634.80 1.212
634.90 1.211
635.00 1.21
635.10 1.209
635.20 1.208
635.30 1.207
635.40 1.206
635.50 1.205
635.60 1.204
635.70 1.203
635.80 1.202
635.90 1.201
636.00 1.2
636.10 1.199
636.20 1.198
636.30 1.197
636.40 1.196
636.50 1.195
636.60 1.194
636.70 1.193
636.80 1.192
636.90 1.191
637.00 1.19
637.10 1.189
637.20 1.188
637.30 1.187
637.40 1.186
637.50 1.185
637.60 1.184
637.70 1.183
637.80 1.182
637.90 1.181
638.00 1.18
638.10 1.179
638.20 1.178
638.30 1.177
638.40 1.176
638.50 1.175
638.60 1.174
638.70 1.173
638.80 1.172
638.90 1.171
639.00 1.17
639.10 1.169
639.20 1.168
639.30 1.167
639.40 1.166
639.50 1.165
639.60 1.164
639.70 1.163
639.80 1.162
639.90 1.161
640.00 1.16
640.10 1.158
640.20 1.157
640.30 1.156
640.40 1.155
640.50 1.154
640.60 1.153
640.70 1.152
640.80 1.151
640.90 1.15
641.00 1.149
641.10 1.148
641.20 1.147
641.30 1.146
641.40 1.145
641.50 1.144
641.60 1.142
641.70 1.141
641.80 1.14
641.90 1.139
642.00 1.138
642.10 1.137
642.20 1.136
642.30 1.135
642.40 1.134
642.50 1.133
642.60 1.131
642.70 1.13
642.80 1.129
642.90 1.128
643.00 1.127
643.10 1.126
643.20 1.125
643.30 1.124
643.40 1.122
643.50 1.121
643.60 1.12
643.70 1.119
643.80 1.118
643.90 1.117
644.00 1.116
644.10 1.115
644.20 1.113
644.30 1.112
644.40 1.111
644.50 1.11
644.60 1.109
644.70 1.108
644.80 1.107
644.90 1.106
645.00 1.104
645.10 1.103
645.20 1.102
645.30 1.101
645.40 1.1
645.50 1.099
645.60 1.098
645.70 1.097
645.80 1.095
645.90 1.094
646.00 1.093
646.10 1.092
646.20 1.091
646.30 1.09
646.40 1.089
646.50 1.087
646.60 1.086
646.70 1.085
646.80 1.084
646.90 1.083
647.00 1.082
647.10 1.081
647.20 1.08
647.30 1.078
647.40 1.077
647.50 1.076
647.60 1.075
647.70 1.074
647.80 1.073
647.90 1.071
648.00 1.07
648.10 1.069
648.20 1.068
648.30 1.067
648.40 1.066
648.50 1.065
648.60 1.063
648.70 1.062
648.80 1.061
648.90 1.06
649.00 1.059
649.10 1.058
649.20 1.056
649.30 1.055
649.40 1.054
649.50 1.053
649.60 1.052
649.70 1.051
649.80 1.049
649.90 1.048
650.00 1.047
650.10 1.046
650.20 1.045
650.30 1.044
650.40 1.042
650.50 1.041
650.60 1.04
650.70 1.039
650.80 1.038
650.90 1.036
651.00 1.035
651.10 1.034
651.20 1.033
651.30 1.032
651.40 1.03
651.50 1.029
651.60 1.028
651.70 1.027
651.80 1.026
651.90 1.024
652.00 1.023
652.10 1.022
652.20 1.021
652.30 1.02
652.40 1.019
652.50 1.017
652.60 1.016
652.70 1.015
652.80 1.014
652.90 1.013
653.00 1.011
653.10 1.01
653.20 1.009
653.30 1.008
653.40 1.007
653.50 1.005
653.60 1.004
653.70 1.003
653.80 1.002
653.90 1.001
654.00 0.9993
654.10 0.9981
654.20 0.9969
654.30 0.9957
654.40 0.9945
654.50 0.9933
654.60 0.9921
654.70 0.9909
654.80 0.9897
654.90 0.9885
655.00 0.9872
655.10 0.986
655.20 0.9848
655.30 0.9836
655.40 0.9824
655.50 0.9812
655.60 0.98
655.70 0.9788
655.80 0.9775
655.90 0.9763
656.00 0.9751
656.10 0.9739
656.20 0.9727
656.30 0.9715
656.40 0.9703
656.50 0.969
656.60 0.9678
656.70 0.9666
656.80 0.9654
656.90 0.9642
657.00 0.9629
657.10 0.9617
657.20 0.9605
657.30 0.9592
657.40 0.958
657.50 0.9568
657.60 0.9556
657.70 0.9544
657.80 0.9531
657.90 0.9519
658.00 0.9507
658.10 0.9495
658.20 0.9482
658.30 0.947
658.40 0.9458
658.50 0.9445
658.60 0.9433
658.70 0.9421
658.80 0.9409
658.90 0.9396
659.00 0.9384
659.10 0.9372
659.20 0.9359
659.30 0.9347
659.40 0.9335
659.50 0.9323
659.60 0.931
659.70 0.9298
659.80 0.9286
659.90 0.9274
660.00 0.9261
660.10 0.9249
660.20 0.9237
660.30 0.9225
660.40 0.9212
660.50 0.92
660.60 0.9188
660.70 0.9175
660.80 0.9163
660.90 0.9151
661.00 0.9138
661.10 0.9126
661.20 0.9114
661.30 0.9101
661.40 0.9089
661.50 0.9076
661.60 0.9064
661.70 0.9052
661.80 0.9039
661.90 0.9027
662.00 0.9014
662.10 0.9002
662.20 0.899
662.30 0.8977
662.40 0.8965
662.50 0.8953
662.60 0.894
662.70 0.8928
662.80 0.8915
662.90 0.8903
663.00 0.889
663.10 0.8878
663.20 0.8866
663.30 0.8853
663.40 0.8841
663.50 0.8828
663.60 0.8816
663.70 0.8803
663.80 0.8791
663.90 0.8779
664.00 0.8766
664.10 0.8754
664.20 0.8741
664.30 0.8729
664.40 0.8716
664.50 0.8704
664.60 0.8692
664.70 0.8679
664.80 0.8667
664.90 0.8654
665.00 0.8642
665.10 0.863
665.20 0.8617
665.30 0.8605
665.40 0.8592
665.50 0.858
665.60 0.8567
665.70 0.8555
665.80 0.8542
665.90 0.853
666.00 0.8518
666.10 0.8505
666.20 0.8493
666.30 0.848
666.40 0.8468
666.50 0.8455
666.60 0.8443
666.70 0.843
666.80 0.8418
666.90 0.8405
667.00 0.8393
667.10 0.838
667.20 0.8368
667.30 0.8355
667.40 0.8343
667.50 0.833
667.60 0.8318
667.70 0.8305
667.80 0.8293
667.90 0.828
668.00 0.8268
668.10 0.8255
668.20 0.8243
668.30 0.8231
668.40 0.8218
668.50 0.8206
668.60 0.8193
668.70 0.8181
668.80 0.8168
668.90 0.8156
669.00 0.8143
669.10 0.8131
669.20 0.8119
669.30 0.8106
669.40 0.8094
669.50 0.8081
669.60 0.8069
669.70 0.8056
669.80 0.8044
669.90 0.8031
670.00 0.8019
670.10 0.8006
670.20 0.7994
670.30 0.7981
670.40 0.7969
670.50 0.7956
670.60 0.7944
670.70 0.7931
670.80 0.7919
670.90 0.7906
671.00 0.7894
671.10 0.7882
671.20 0.7869
671.30 0.7857
671.40 0.7844
671.50 0.7832
671.60 0.7819
671.70 0.7807
671.80 0.7794
671.90 0.7782
672.00 0.7769
672.10 0.7757
672.20 0.7745
672.30 0.7732
672.40 0.772
672.50 0.7707
672.60 0.7695
672.70 0.7682
672.80 0.767
672.90 0.7657
673.00 0.7645
673.10 0.7632
673.20 0.762
673.30 0.7607
673.40 0.7595
673.50 0.7583
673.60 0.757
673.70 0.7558
673.80 0.7545
673.90 0.7533
674.00 0.7521
674.10 0.7508
674.20 0.7496
674.30 0.7484
674.40 0.7471
674.50 0.7459
674.60 0.7446
674.70 0.7434
674.80 0.7422
674.90 0.7409
675.00 0.7397
675.10 0.7384
675.20 0.7372
675.30 0.736
675.40 0.7347
675.50 0.7335
675.60 0.7322
675.70 0.731
675.80 0.7298
675.90 0.7285
676.00 0.7273
676.10 0.726
676.20 0.7248
676.30 0.7236
676.40 0.7223
676.50 0.7211
676.60 0.7199
676.70 0.7186
676.80 0.7174
676.90 0.7162
677.00 0.7149
677.10 0.7137
677.20 0.7125
677.30 0.7112
677.40 0.71
677.50 0.7088
677.60 0.7076
677.70 0.7063
677.80 0.7051
677.90 0.7039
678.00 0.7027
678.10 0.7015
678.20 0.7002
678.30 0.699
678.40 0.6978
678.50 0.6966
678.60 0.6953
678.70 0.6941
678.80 0.6929
678.90 0.6917
679.00 0.6904
679.10 0.6892
679.20 0.688
679.30 0.6868
679.40 0.6855
679.50 0.6843
679.60 0.6831
679.70 0.6819
679.80 0.6806
679.90 0.6794
680.00 0.6782
680.10 0.677
680.20 0.6758
680.30 0.6745
680.40 0.6733
680.50 0.6721
680.60 0.6709
680.70 0.6697
680.80 0.6684
680.90 0.6672
681.00 0.666
681.10 0.6648
681.20 0.6636
681.30 0.6624
681.40 0.6612
681.50 0.6599
681.60 0.6587
681.70 0.6575
681.80 0.6563
681.90 0.6551
682.00 0.6539
682.10 0.6526
682.20 0.6514
682.30 0.6502
682.40 0.649
682.50 0.6478
682.60 0.6466
682.70 0.6454
682.80 0.6442
682.90 0.643
683.00 0.6417
683.10 0.6405
683.20 0.6393
683.30 0.6381
683.40 0.6369
683.50 0.6357
683.60 0.6345
683.70 0.6333
683.80 0.6321
683.90 0.6309
684.00 0.6297
684.10 0.6285
684.20 0.6273
684.30 0.6261
684.40 0.6249
684.50 0.6237
684.60 0.6225
684.70 0.6213
684.80 0.6201
684.90 0.6189
685.00 0.6178
685.10 0.6166
685.20 0.6154
685.30 0.6142
685.40 0.613
685.50 0.6118
685.60 0.6106
685.70 0.6094
685.80 0.6082
685.90 0.607
686.00 0.6059
686.10 0.6047
686.20 0.6035
686.30 0.6023
686.40 0.6011
686.50 0.5999
686.60 0.5987
686.70 0.5976
686.80 0.5964
686.90 0.5952
687.00 0.594
687.10 0.5928
687.20 0.5916
687.30 0.5905
687.40 0.5893
687.50 0.5881
687.60 0.5869
687.70 0.5858
687.80 0.5846
687.90 0.5834
688.00 0.5823
688.10 0.5811
688.20 0.5799
688.30 0.5787
688.40 0.5776
688.50 0.5764
688.60 0.5752
688.70 0.5741
688.80 0.5729
688.90 0.5717
689.00 0.5706
689.10 0.5694
689.20 0.5683
689.30 0.5671
689.40 0.5659
689.50 0.5648
689.60 0.5637
689.70 0.5625
689.80 0.5614
689.90 0.5602
690.00 0.5591
690.10 0.5579
690.20 0.5568
690.30 0.5556
690.40 0.5545
690.50 0.5534
690.60 0.5522
690.70 0.5511
690.80 0.5499
690.90 0.5488
691.00 0.5477
691.10 0.5465
691.20 0.5454
691.30 0.5443
691.40 0.5431
691.50 0.542
691.60 0.5409
691.70 0.5397
691.80 0.5386
691.90 0.5375
692.00 0.5363
692.10 0.5352
692.20 0.5341
692.30 0.5329
692.40 0.5318
692.50 0.5307
692.60 0.5296
692.70 0.5284
692.80 0.5273
692.90 0.5262
693.00 0.525
693.10 0.5239
693.20 0.5228
693.30 0.5217
693.40 0.5206
693.50 0.5194
693.60 0.5183
693.70 0.5172
693.80 0.5161
693.90 0.515
694.00 0.5138
694.10 0.5127
694.20 0.5116
694.30 0.5105
694.40 0.5094
694.50 0.5082
694.60 0.5071
694.70 0.506
694.80 0.5049
694.90 0.5038
695.00 0.5027
695.10 0.5016
695.20 0.5005
695.30 0.4995
695.40 0.4984
695.50 0.4973
695.60 0.4962
695.70 0.4952
695.80 0.4941
695.90 0.493
696.00 0.492
696.10 0.4909
696.20 0.4898
696.30 0.4888
696.40 0.4877
696.50 0.4866
696.60 0.4856
696.70 0.4845
696.80 0.4834
696.90 0.4824
697.00 0.4813
697.10 0.4803
697.20 0.4792
697.30 0.4781
697.40 0.4771
697.50 0.476
697.60 0.475
697.70 0.4739
697.80 0.4728
697.90 0.4718
698.00 0.4707
698.10 0.4697
698.20 0.4686
698.30 0.4676
698.40 0.4665
698.50 0.4655
698.60 0.4644
698.70 0.4634
698.80 0.4623
698.90 0.4612
699.00 0.4602
699.10 0.4591
699.20 0.4581
699.30 0.4571
699.40 0.456
699.50 0.455
699.60 0.4539
699.70 0.4529
699.80 0.4518
699.90 0.4508
700.00 0.4497
700.10 0.4487
700.20 0.4477
700.30 0.4467
700.40 0.4457
700.50 0.4448
700.60 0.4438
700.70 0.4428
700.80 0.4418
700.90 0.4408
701.00 0.4398
701.10 0.4388
701.20 0.4378
701.30 0.4368
701.40 0.4358
701.50 0.4348
701.60 0.4339
701.70 0.4329
701.80 0.4319
701.90 0.4309
702.00 0.4299
702.10 0.4289
702.20 0.4279
702.30 0.427
702.40 0.426
702.50 0.425
702.60 0.424
702.70 0.423
702.80 0.422
702.90 0.4211
703.00 0.4201
703.10 0.4191
703.20 0.4181
703.30 0.4171
703.40 0.4162
703.50 0.4152
703.60 0.4142
703.70 0.4132
703.80 0.4123
703.90 0.4113
704.00 0.4103
704.10 0.4093
704.20 0.4084
704.30 0.4074
704.40 0.4064
704.50 0.4054
704.60 0.4045
704.70 0.4035
704.80 0.4025
704.90 0.4016
705.00 0.4006
705.10 0.3997
705.20 0.3988
705.30 0.3979
705.40 0.397
705.50 0.3961
705.60 0.3952
705.70 0.3943
705.80 0.3934
705.90 0.3925
706.00 0.3916
706.10 0.3907
706.20 0.3898
706.30 0.3889
706.40 0.388
706.50 0.3871
706.60 0.3862
706.70 0.3853
706.80 0.3844
706.90 0.3835
707.00 0.3826
707.10 0.3817
707.20 0.3808
707.30 0.3799
707.40 0.379
707.50 0.3781
707.60 0.3773
707.70 0.3764
707.80 0.3755
707.90 0.3746
708.00 0.3737
708.10 0.3728
708.20 0.3719
708.30 0.371
708.40 0.3701
708.50 0.3693
708.60 0.3684
708.70 0.3675
708.80 0.3666
708.90 0.3657
709.00 0.3648
709.10 0.3639
709.20 0.3631
709.30 0.3622
709.40 0.3613
709.50 0.3604
709.60 0.3595
709.70 0.3586
709.80 0.3578
709.90 0.3569
710.00 0.356
710.10 0.3552
710.20 0.3544
710.30 0.3536
710.40 0.3528
710.50 0.352
710.60 0.3511
710.70 0.3503
710.80 0.3495
710.90 0.3487
711.00 0.3479
711.10 0.3471
711.20 0.3463
711.30 0.3455
711.40 0.3447
711.50 0.3439
711.60 0.3431
711.70 0.3423
711.80 0.3415
711.90 0.3407
712.00 0.3399
712.10 0.3391
712.20 0.3383
712.30 0.3375
712.40 0.3367
712.50 0.3359
712.60 0.3351
712.70 0.3343
712.80 0.3335
712.90 0.3327
713.00 0.3319
713.10 0.3311
713.20 0.3303
713.30 0.3295
713.40 0.3287
713.50 0.3279
713.60 0.3271
713.70 0.3263
713.80 0.3255
713.90 0.3247
714.00 0.3239
714.10 0.3231
714.20 0.3223
714.30 0.3215
714.40 0.3208
714.50 0.32
714.60 0.3192
714.70 0.3184
714.80 0.3176
714.90 0.3168
715.00 0.316
715.10 0.3153
715.20 0.3146
715.30 0.3139
715.40 0.3132
715.50 0.3124
715.60 0.3117
715.70 0.311
715.80 0.3103
715.90 0.3096
716.00 0.3089
716.10 0.3082
716.20 0.3075
716.30 0.3068
716.40 0.306
716.50 0.3053
716.60 0.3046
716.70 0.3039
716.80 0.3032
716.90 0.3025
717.00 0.3018
717.10 0.3011
717.20 0.3004
717.30 0.2997
717.40 0.299
717.50 0.2983
717.60 0.2976
717.70 0.2969
717.80 0.2962
717.90 0.2955
718.00 0.2948
718.10 0.294
718.20 0.2933
718.30 0.2926
718.40 0.2919
718.50 0.2912
718.60 0.2905
718.70 0.2898
718.80 0.2891
718.90 0.2884
719.00 0.2877
719.10 0.287
719.20 0.2863
719.30 0.2856
719.40 0.2849
719.50 0.2843
719.60 0.2836
719.70 0.2829
719.80 0.2822
719.90 0.2815
720.00 0.2808
720.10 0.2802
720.20 0.2795
720.30 0.2789
720.40 0.2783
720.50 0.2777
720.60 0.2771
720.70 0.2765
720.80 0.2759
720.90 0.2753
721.00 0.2746
721.10 0.274
721.20 0.2734
721.30 0.2728
721.40 0.2722
721.50 0.2716
721.60 0.271
721.70 0.2704
721.80 0.2698
721.90 0.2692
722.00 0.2686
722.10 0.2679
722.20 0.2673
722.30 0.2667
722.40 0.2661
722.50 0.2655
722.60 0.2649
722.70 0.2643
722.80 0.2637
722.90 0.2631
723.00 0.2625
723.10 0.2619
723.20 0.2613
723.30 0.2607
723.40 0.2601
723.50 0.2595
723.60 0.2589
723.70 0.2583
723.80 0.2577
723.90 0.2571
724.00 0.2565
724.10 0.2559
724.20 0.2553
724.30 0.2547
724.40 0.2541
724.50 0.2535
724.60 0.2529
724.70 0.2523
724.80 0.2517
724.90 0.2511
725.00 0.2505
725.10 0.25
725.20 0.2494
725.30 0.2489
725.40 0.2484
725.50 0.2479
725.60 0.2474
725.70 0.2468
725.80 0.2463
725.90 0.2458
726.00 0.2453
726.10 0.2448
726.20 0.2443
726.30 0.2438
726.40 0.2432
726.50 0.2427
726.60 0.2422
726.70 0.2417
726.80 0.2412
726.90 0.2407
727.00 0.2401
727.10 0.2396
727.20 0.2391
727.30 0.2386
727.40 0.2381
727.50 0.2376
727.60 0.2371
727.70 0.2366
727.80 0.236
727.90 0.2355
728.00 0.235
728.10 0.2345
728.20 0.234
728.30 0.2335
728.40 0.233
728.50 0.2325
728.60 0.232
728.70 0.2315
728.80 0.2309
728.90 0.2304
729.00 0.2299
729.10 0.2294
729.20 0.2289
729.30 0.2284
729.40 0.2279
729.50 0.2274
729.60 0.2269
729.70 0.2264
729.80 0.2259
729.90 0.2254
730.00 0.2249
730.10 0.2245
730.20 0.2241
730.30 0.2237
730.40 0.2234
730.50 0.223
730.60 0.2226
730.70 0.2222
730.80 0.2219
730.90 0.2215
731.00 0.2211
731.10 0.2207
731.20 0.2204
731.30 0.22
731.40 0.2196
731.50 0.2192
731.60 0.2189
731.70 0.2185
731.80 0.2181
731.90 0.2178
732.00 0.2174
732.10 0.217
732.20 0.2166
732.30 0.2163
732.40 0.2159
732.50 0.2155
732.60 0.2152
732.70 0.2148
732.80 0.2144
732.90 0.214
733.00 0.2137
733.10 0.2133
733.20 0.2129
733.30 0.2126
733.40 0.2122
733.50 0.2118
733.60 0.2115
733.70 0.2111
733.80 0.2107
733.90 0.2104
734.00 0.21
734.10 0.2096
734.20 0.2093
734.30 0.2089
734.40 0.2085
734.50 0.2082
734.60 0.2078
734.70 0.2074
734.80 0.2071
734.90 0.2067
735.00 0.2063
735.10 0.206
735.20 0.2056
735.30 0.2052
735.40 0.2049
735.50 0.2045
735.60 0.2041
735.70 0.2038
735.80 0.2034
735.90 0.203
736.00 0.2027
736.10 0.2023
736.20 0.2019
736.30 0.2016
736.40 0.2012
736.50 0.2009
736.60 0.2005
736.70 0.2001
736.80 0.1998
736.90 0.1994
737.00 0.199
737.10 0.1987
737.20 0.1983
737.30 0.198
737.40 0.1976
737.50 0.1972
737.60 0.1969
737.70 0.1965
737.80 0.1961
737.90 0.1958
738.00 0.1954
738.10 0.1951
738.20 0.1947
738.30 0.1943
738.40 0.194
738.50 0.1936
738.60 0.1933
738.70 0.1929
738.80 0.1926
738.90 0.1922
739.00 0.1918
739.10 0.1915
739.20 0.1911
739.30 0.1908
739.40 0.1904
739.50 0.19
739.60 0.1897
739.70 0.1893
739.80 0.189
739.90 0.1886
740.00 0.1883
740.10 0.188
740.20 0.1878
740.30 0.1876
740.40 0.1874
740.50 0.1872
740.60 0.1869
740.70 0.1867
740.80 0.1865
740.90 0.1863
741.00 0.186
741.10 0.1858
741.20 0.1856
741.30 0.1854
741.40 0.1852
741.50 0.1849
741.60 0.1847
741.70 0.1845
741.80 0.1843
741.90 0.184
742.00 0.1838
742.10 0.1836
742.20 0.1834
742.30 0.1832
742.40 0.1829
742.50 0.1827
742.60 0.1825
742.70 0.1823
742.80 0.1821
742.90 0.1818
743.00 0.1816
743.10 0.1814
743.20 0.1812
743.30 0.181
743.40 0.1808
743.50 0.1805
743.60 0.1803
743.70 0.1801
743.80 0.1799
743.90 0.1797
744.00 0.1794
744.10 0.1792
744.20 0.179
744.30 0.1788
744.40 0.1786
744.50 0.1783
744.60 0.1781
744.70 0.1779
744.80 0.1777
744.90 0.1775
745.00 0.1773
745.10 0.177
745.20 0.1768
745.30 0.1766
745.40 0.1764
745.50 0.1762
745.60 0.176
745.70 0.1757
745.80 0.1755
745.90 0.1753
746.00 0.1751
746.10 0.1749
746.20 0.1747
746.30 0.1744
746.40 0.1742
746.50 0.174
746.60 0.1738
746.70 0.1736
746.80 0.1734
746.90 0.1732
747.00 0.1729
747.10 0.1727
747.20 0.1725
747.30 0.1723
747.40 0.1721
747.50 0.1719
747.60 0.1716
747.70 0.1714
747.80 0.1712
747.90 0.171
748.00 0.1708
748.10 0.1706
748.20 0.1704
748.30 0.1702
748.40 0.1699
748.50 0.1697
748.60 0.1695
748.70 0.1693
748.80 0.1691
748.90 0.1689
749.00 0.1687
749.10 0.1684
749.20 0.1682
749.30 0.168
749.40 0.1678
749.50 0.1676
749.60 0.1674
749.70 0.1672
749.80 0.167
749.90 0.1667
750.00 0.1665
750.10 0.1664
750.20 0.1663
750.30 0.1661
750.40 0.166
750.50 0.1659
750.60 0.1657
750.70 0.1656
750.80 0.1655
750.90 0.1653
751.00 0.1652
751.10 0.165
751.20 0.1649
751.30 0.1648
751.40 0.1646
751.50 0.1645
751.60 0.1644
751.70 0.1642
751.80 0.1641
751.90 0.164
752.00 0.1638
752.10 0.1637
752.20 0.1636
752.30 0.1634
752.40 0.1633
752.50 0.1632
752.60 0.163
752.70 0.1629
752.80 0.1628
752.90 0.1626
753.00 0.1625
753.10 0.1624
753.20 0.1622
753.30 0.1621
753.40 0.162
753.50 0.1618
753.60 0.1617
753.70 0.1616
753.80 0.1614
753.90 0.1613
754.00 0.1612
754.10 0.161
754.20 0.1609
754.30 0.1608
754.40 0.1606
754.50 0.1605
754.60 0.1604
754.70 0.1602
754.80 0.1601
754.90 0.16
755.00 0.1598
755.10 0.1597
755.20 0.1596
755.30 0.1594
755.40 0.1593
755.50 0.1592
755.60 0.159
755.70 0.1589
755.80 0.1588
755.90 0.1586
756.00 0.1585
756.10 0.1584
756.20 0.1583
756.30 0.1581
756.40 0.158
756.50 0.1579
756.60 0.1577
756.70 0.1576
756.80 0.1575
756.90 0.1573
757.00 0.1572
757.10 0.1571
757.20 0.1569
757.30 0.1568
757.40 0.1567
757.50 0.1565
757.60 0.1564
757.70 0.1563
757.80 0.1562
757.90 0.156
758.00 0.1559
758.10 0.1558
758.20 0.1556
758.30 0.1555
758.40 0.1554
758.50 0.1552
758.60 0.1551
758.70 0.155
758.80 0.1549
758.90 0.1547
759.00 0.1546
759.10 0.1545
759.20 0.1543
759.30 0.1542
759.40 0.1541
759.50 0.1539
759.60 0.1538
759.70 0.1537
759.80 0.1536
759.90 0.1534
760.00 0.1533
760.10 0.1532
760.20 0.1531
760.30 0.153
760.40 0.153
760.50 0.1529
760.60 0.1528
760.70 0.1527
760.80 0.1526
760.90 0.1525
761.00 0.1524
761.10 0.1523
761.20 0.1523
761.30 0.1522
761.40 0.1521
761.50 0.152
761.60 0.1519
761.70 0.1518
761.80 0.1517
761.90 0.1517
762.00 0.1516
762.10 0.1515
762.20 0.1514
762.30 0.1513
762.40 0.1512
762.50 0.1511
762.60 0.1511
762.70 0.151
762.80 0.1509
762.90 0.1508
763.00 0.1507
763.10 0.1506
763.20 0.1505
763.30 0.1505
763.40 0.1504
763.50 0.1503
763.60 0.1502
763.70 0.1501
763.80 0.15
763.90 0.15
764.00 0.1499
764.10 0.1498
764.20 0.1497
764.30 0.1496
764.40 0.1495
764.50 0.1494
764.60 0.1494
764.70 0.1493
764.80 0.1492
764.90 0.1491
765.00 0.149
765.10 0.1489
765.20 0.1489
765.30 0.1488
765.40 0.1487
765.50 0.1486
765.60 0.1485
765.70 0.1484
765.80 0.1483
765.90 0.1483
766.00 0.1482
766.10 0.1481
766.20 0.148
766.30 0.1479
766.40 0.1478
766.50 0.1478
766.60 0.1477
766.70 0.1476
766.80 0.1475
766.90 0.1474
767.00 0.1473
767.10 0.1473
767.20 0.1472
767.30 0.1471
767.40 0.147
767.50 0.1469
767.60 0.1468
767.70 0.1468
767.80 0.1467
767.90 0.1466
768.00 0.1465
768.10 0.1464
768.20 0.1463
768.30 0.1463
768.40 0.1462
768.50 0.1461
768.60 0.146
768.70 0.1459
768.80 0.1458
768.90 0.1458
769.00 0.1457
769.10 0.1456
769.20 0.1455
769.30 0.1454
769.40 0.1453
769.50 0.1453
769.60 0.1452
769.70 0.1451
769.80 0.145
769.90 0.1449
770.00 0.1448
770.10 0.1448
770.20 0.1448
770.30 0.1447
770.40 0.1447
770.50 0.1446
770.60 0.1446
770.70 0.1446
770.80 0.1445
770.90 0.1445
771.00 0.1444
771.10 0.1444
771.20 0.1444
771.30 0.1443
771.40 0.1443
771.50 0.1442
771.60 0.1442
771.70 0.1442
771.80 0.1441
771.90 0.1441
772.00 0.144
772.10 0.144
772.20 0.144
772.30 0.1439
772.40 0.1439
772.50 0.1438
772.60 0.1438
772.70 0.1438
772.80 0.1437
772.90 0.1437
773.00 0.1436
773.10 0.1436
773.20 0.1436
773.30 0.1435
773.40 0.1435
773.50 0.1435
773.60 0.1434
773.70 0.1434
773.80 0.1433
773.90 0.1433
774.00 0.1433
774.10 0.1432
774.20 0.1432
774.30 0.1431
774.40 0.1431
774.50 0.1431
774.60 0.143
774.70 0.143
774.80 0.1429
774.90 0.1429
775.00 0.1429
775.10 0.1428
775.20 0.1428
775.30 0.1427
775.40 0.1427
775.50 0.1427
775.60 0.1426
775.70 0.1426
775.80 0.1426
775.90 0.1425
776.00 0.1425
776.10 0.1424
776.20 0.1424
776.30 0.1424
776.40 0.1423
776.50 0.1423
776.60 0.1422
776.70 0.1422
776.80 0.1422
776.90 0.1421
777.00 0.1421
777.10 0.142
777.20 0.142
777.30 0.142
777.40 0.1419
777.50 0.1419
777.60 0.1419
777.70 0.1418
777.80 0.1418
777.90 0.1417
778.00 0.1417
778.10 0.1417
778.20 0.1416
778.30 0.1416
778.40 0.1415
778.50 0.1415
778.60 0.1415
778.70 0.1414
778.80 0.1414
778.90 0.1413
779.00 0.1413
779.10 0.1413
779.20 0.1412
779.30 0.1412
779.40 0.1412
779.50 0.1411
779.60 0.1411
779.70 0.141
779.80 0.141
779.90 0.141
780.00 0.1409
780.10 0.141
780.20 0.141
780.30 0.141
780.40 0.141
780.50 0.1411
780.60 0.1411
780.70 0.1411
780.80 0.1411
780.90 0.1412
781.00 0.1412
781.10 0.1412
781.20 0.1413
781.30 0.1413
781.40 0.1413
781.50 0.1413
781.60 0.1414
781.70 0.1414
781.80 0.1414
781.90 0.1414
782.00 0.1415
782.10 0.1415
782.20 0.1415
782.30 0.1416
782.40 0.1416
782.50 0.1416
782.60 0.1416
782.70 0.1417
782.80 0.1417
782.90 0.1417
783.00 0.1417
783.10 0.1418
783.20 0.1418
783.30 0.1418
783.40 0.1419
783.50 0.1419
783.60 0.1419
783.70 0.1419
783.80 0.142
783.90 0.142
784.00 0.142
784.10 0.142
784.20 0.1421
784.30 0.1421
784.40 0.1421
784.50 0.1422
784.60 0.1422
784.70 0.1422
784.80 0.1422
784.90 0.1423
785.00 0.1423
785.10 0.1423
785.20 0.1423
785.30 0.1424
785.40 0.1424
785.50 0.1424
785.60 0.1424
785.70 0.1425
785.80 0.1425
785.90 0.1425
786.00 0.1426
786.10 0.1426
786.20 0.1426
786.30 0.1426
786.40 0.1427
786.50 0.1427
786.60 0.1427
786.70 0.1427
786.80 0.1428
786.90 0.1428
787.00 0.1428
787.10 0.1428
787.20 0.1429
787.30 0.1429
787.40 0.1429
787.50 0.1429
787.60 0.143
787.70 0.143
787.80 0.143
787.90 0.1431
788.00 0.1431
788.10 0.1431
788.20 0.1431
788.30 0.1432
788.40 0.1432
788.50 0.1432
788.60 0.1432
788.70 0.1433
788.80 0.1433
788.90 0.1433
789.00 0.1433
789.10 0.1434
789.20 0.1434
789.30 0.1434
789.40 0.1434
789.50 0.1435
789.60 0.1435
789.70 0.1435
789.80 0.1436
789.90 0.1436
790.00 0.1436
790.10 0.1437
790.20 0.1437
790.30 0.1438
790.40 0.1438
790.50 0.1439
790.60 0.144
790.70 0.144
790.80 0.1441
790.90 0.1442
791.00 0.1442
791.10 0.1443
791.20 0.1443
791.30 0.1444
791.40 0.1445
791.50 0.1445
791.60 0.1446
791.70 0.1446
791.80 0.1447
791.90 0.1448
792.00 0.1448
792.10 0.1449
792.20 0.1449
792.30 0.145
792.40 0.1451
792.50 0.1451
792.60 0.1452
792.70 0.1453
792.80 0.1453
792.90 0.1454
793.00 0.1454
793.10 0.1455
793.20 0.1456
793.30 0.1456
793.40 0.1457
793.50 0.1457
793.60 0.1458
793.70 0.1459
793.80 0.1459
793.90 0.146
794.00 0.146
794.10 0.1461
794.20 0.1462
794.30 0.1462
794.40 0.1463
794.50 0.1463
794.60 0.1464
794.70 0.1465
794.80 0.1465
794.90 0.1466
795.00 0.1466
795.10 0.1467
795.20 0.1468
795.30 0.1468
795.40 0.1469
795.50 0.1469
795.60 0.147
795.70 0.1471
795.80 0.1471
795.90 0.1472
796.00 0.1472
796.10 0.1473
796.20 0.1474
796.30 0.1474
796.40 0.1475
796.50 0.1475
796.60 0.1476
796.70 0.1477
796.80 0.1477
796.90 0.1478
797.00 0.1478
797.10 0.1479
797.20 0.1479
797.30 0.148
797.40 0.1481
797.50 0.1481
797.60 0.1482
797.70 0.1482
797.80 0.1483
797.90 0.1484
798.00 0.1484
798.10 0.1485
798.20 0.1485
798.30 0.1486
798.40 0.1487
798.50 0.1487
798.60 0.1488
798.70 0.1488
798.80 0.1489
798.90 0.1489
799.00 0.149
799.10 0.1491
799.20 0.1491
799.30 0.1492
799.40 0.1492
799.50 0.1493
799.60 0.1494
799.70 0.1494
799.80 0.1495
799.90 0.1495
800.00 0.1496
800.10 0.1496
800.20 0.1497
800.30 0.1497
800.40 0.1497
800.50 0.1498
800.60 0.1498
800.70 0.1498
800.80 0.1499
800.90 0.1499
801.00 0.1499
801.10 0.15
801.20 0.15
801.30 0.15
801.40 0.1501
801.50 0.1501
801.60 0.1501
801.70 0.1502
801.80 0.1502
801.90 0.1502
802.00 0.1503
802.10 0.1503
802.20 0.1503
802.30 0.1504
802.40 0.1504
802.50 0.1504
802.60 0.1505
802.70 0.1505
802.80 0.1505
802.90 0.1506
803.00 0.1506
803.10 0.1506
803.20 0.1507
803.30 0.1507
803.40 0.1507
803.50 0.1508
803.60 0.1508
803.70 0.1508
803.80 0.1509
803.90 0.1509
804.00 0.1509
804.10 0.151
804.20 0.151
804.30 0.151
804.40 0.1511
804.50 0.1511
804.60 0.1511
804.70 0.1512
804.80 0.1512
804.90 0.1512
805.00 0.1513
805.10 0.1513
805.20 0.1513
805.30 0.1514
805.40 0.1514
805.50 0.1514
805.60 0.1515
805.70 0.1515
805.80 0.1515
805.90 0.1515
806.00 0.1516
806.10 0.1516
806.20 0.1516
806.30 0.1517
806.40 0.1517
806.50 0.1517
806.60 0.1518
806.70 0.1518
806.80 0.1518
806.90 0.1519
807.00 0.1519
807.10 0.1519
807.20 0.152
807.30 0.152
807.40 0.152
807.50 0.1521
807.60 0.1521
807.70 0.1521
807.80 0.1522
807.90 0.1522
808.00 0.1522
808.10 0.1523
808.20 0.1523
808.30 0.1523
808.40 0.1524
808.50 0.1524
808.60 0.1524
808.70 0.1525
808.80 0.1525
808.90 0.1525
809.00 0.1525
809.10 0.1526
809.20 0.1526
809.30 0.1526
809.40 0.1527
809.50 0.1527
809.60 0.1527
809.70 0.1528
809.80 0.1528
809.90 0.1528
810.00 0.1529
810.10 0.1529
810.20 0.1529
810.30 0.1529
810.40 0.1529
810.50 0.1529
810.60 0.1529
810.70 0.1529
810.80 0.1529
810.90 0.1529
811.00 0.1529
811.10 0.1529
811.20 0.1529
811.30 0.153
811.40 0.153
811.50 0.153
811.60 0.153
811.70 0.153
811.80 0.153
811.90 0.153
812.00 0.153
812.10 0.153
812.20 0.153
812.30 0.153
812.40 0.153
812.50 0.153
812.60 0.153
812.70 0.153
812.80 0.1531
812.90 0.1531
813.00 0.1531
813.10 0.1531
813.20 0.1531
813.30 0.1531
813.40 0.1531
813.50 0.1531
813.60 0.1531
813.70 0.1531
813.80 0.1531
813.90 0.1531
814.00 0.1531
814.10 0.1531
814.20 0.1531
814.30 0.1532
814.40 0.1532
814.50 0.1532
814.60 0.1532
814.70 0.1532
814.80 0.1532
814.90 0.1532
815.00 0.1532
815.10 0.1532
815.20 0.1532
815.30 0.1532
815.40 0.1532
815.50 0.1532
815.60 0.1532
815.70 0.1532
815.80 0.1532
815.90 0.1533
816.00 0.1533
816.10 0.1533
816.20 0.1533
816.30 0.1533
816.40 0.1533
816.50 0.1533
816.60 0.1533
816.70 0.1533
816.80 0.1533
816.90 0.1533
817.00 0.1533
817.10 0.1533
817.20 0.1533
817.30 0.1533
817.40 0.1533
817.50 0.1534
817.60 0.1534
817.70 0.1534
817.80 0.1534
817.90 0.1534
818.00 0.1534
818.10 0.1534
818.20 0.1534
818.30 0.1534
818.40 0.1534
818.50 0.1534
818.60 0.1534
818.70 0.1534
818.80 0.1534
818.90 0.1534
819.00 0.1534
819.10 0.1535
819.20 0.1535
819.30 0.1535
819.40 0.1535
819.50 0.1535
819.60 0.1535
819.70 0.1535
819.80 0.1535
819.90 0.1535
820.00 0.1535
820.10 0.1535
820.20 0.1535
820.30 0.1535
820.40 0.1536
820.50 0.1536
820.60 0.1536
820.70 0.1536
820.80 0.1536
820.90 0.1536
821.00 0.1537
821.10 0.1537
821.20 0.1537
821.30 0.1537
821.40 0.1537
821.50 0.1537
821.60 0.1537
821.70 0.1538
821.80 0.1538
821.90 0.1538
822.00 0.1538
822.10 0.1538
822.20 0.1538
822.30 0.1539
822.40 0.1539
822.50 0.1539
822.60 0.1539
822.70 0.154
822.80 0.154
822.90 0.154
823.00 0.154
823.10 0.154
823.20 0.1541
823.30 0.1541
823.40 0.1541
823.50 0.1541
823.60 0.1542
823.70 0.1542
823.80 0.1542
823.90 0.1542
824.00 0.1542
824.10 0.1543
824.20 0.1543
824.30 0.1543
824.40 0.1543
824.50 0.1543
824.60 0.1544
824.70 0.1544
824.80 0.1544
824.90 0.1544
825.00 0.1545
825.10 0.1545
825.20 0.1545
825.30 0.1545
825.40 0.1545
825.50 0.1546
825.60 0.1546
825.70 0.1546
825.80 0.1546
825.90 0.1546
826.00 0.1547
826.10 0.1547
826.20 0.1547
826.30 0.1547
826.40 0.1548
826.50 0.1548
826.60 0.1548
826.70 0.1548
826.80 0.1548
826.90 0.1549
827.00 0.1549
827.10 0.1549
827.20 0.1549
827.30 0.155
827.40 0.155
827.50 0.155
827.60 0.155
827.70 0.1551
827.80 0.1551
827.90 0.1551
828.00 0.1552
828.10 0.1552
828.20 0.1552
828.30 0.1552
828.40 0.1553
828.50 0.1553
828.60 0.1553
828.70 0.1553
828.80 0.1554
828.90 0.1554
829.00 0.1554
829.10 0.1554
829.20 0.1555
829.30 0.1555
829.40 0.1555
829.50 0.1556
829.60 0.1556
829.70 0.1556
829.80 0.1556
829.90 0.1557
830.00 0.1557
830.10 0.1557
830.20 0.1557
830.30 0.1558
830.40 0.1558
830.50 0.1558
830.60 0.1558
830.70 0.1559
830.80 0.1559
830.90 0.1559
831.00 0.1559
831.10 0.156
831.20 0.156
831.30 0.156
831.40 0.1561
831.50 0.1561
831.60 0.1561
831.70 0.1561
831.80 0.1562
831.90 0.1562
832.00 0.1562
832.10 0.1562
832.20 0.1562
832.30 0.1563
832.40 0.1563
832.50 0.1563
832.60 0.1563
832.70 0.1563
832.80 0.1564
832.90 0.1564
833.00 0.1564
833.10 0.1564
833.20 0.1564
833.30 0.1565
833.40 0.1565
833.50 0.1565
833.60 0.1565
833.70 0.1565
833.80 0.1566
833.90 0.1566
834.00 0.1566
834.10 0.1566
834.20 0.1566
834.30 0.1567
834.40 0.1567
834.50 0.1567
834.60 0.1567
834.70 0.1567
834.80 0.1568
834.90 0.1568
835.00 0.1568
835.10 0.1568
835.20 0.1568
835.30 0.1569
835.40 0.1569
835.50 0.1569
835.60 0.1569
835.70 0.1569
835.80 0.157
835.90 0.157
836.00 0.157
836.10 0.157
836.20 0.157
836.30 0.1571
836.40 0.1571
836.50 0.1571
836.60 0.1571
836.70 0.1571
836.80 0.1572
836.90 0.1572
837.00 0.1572
837.10 0.1572
837.20 0.1572
837.30 0.1572
837.40 0.1572
837.50 0.1573
837.60 0.1573
837.70 0.1573
837.80 0.1573
837.90 0.1573
838.00 0.1573
838.10 0.1574
838.20 0.1574
838.30 0.1574
838.40 0.1574
838.50 0.1574
838.60 0.1574
838.70 0.1574
838.80 0.1575
838.90 0.1575
839.00 0.1575
839.10 0.1575
839.20 0.1575
839.30 0.1575
839.40 0.1575
839.50 0.1576
839.60 0.1576
839.70 0.1576
839.80 0.1576
839.90 0.1576
840.00 0.1576
840.10 0.1576
840.20 0.1577
840.30 0.1577
840.40 0.1577
840.50 0.1577
840.60 0.1577
840.70 0.1577
840.80 0.1577
840.90 0.1578
841.00 0.1578
841.10 0.1578
841.20 0.1578
841.30 0.1578
841.40 0.1578
841.50 0.1578
841.60 0.1579
841.70 0.1579
841.80 0.1579
841.90 0.1579
842.00 0.1579
842.10 0.1579
842.20 0.1579
842.30 0.1579
842.40 0.1579
842.50 0.158
842.60 0.158
842.70 0.158
842.80 0.158
842.90 0.158
843.00 0.158
843.10 0.158
843.20 0.158
843.30 0.158
843.40 0.158
843.50 0.158
843.60 0.1581
843.70 0.1581
843.80 0.1581
843.90 0.1581
844.00 0.1581
844.10 0.1581
844.20 0.1581
844.30 0.1581
844.40 0.1581
844.50 0.1581
844.60 0.1581
844.70 0.1582
844.80 0.1582
844.90 0.1582
845.00 0.1582
845.10 0.1582
845.20 0.1582
845.30 0.1582
845.40 0.1582
845.50 0.1582
845.60 0.1582
845.70 0.1582
845.80 0.1583
845.90 0.1583
846.00 0.1583
846.10 0.1583
846.20 0.1583
846.30 0.1583
846.40 0.1583
846.50 0.1583
846.60 0.1583
846.70 0.1583
846.80 0.1583
846.90 0.1584
847.00 0.1584
847.10 0.1584
847.20 0.1584
847.30 0.1584
847.40 0.1584
847.50 0.1584
847.60 0.1584
847.70 0.1584
847.80 0.1584
847.90 0.1584
848.00 0.1584
848.10 0.1585
848.20 0.1585
848.30 0.1585
848.40 0.1585
848.50 0.1585
848.60 0.1585
848.70 0.1585
848.80 0.1585
848.90 0.1585
849.00 0.1585
849.10 0.1585
849.20 0.1585
849.30 0.1585
849.40 0.1586
849.50 0.1586
849.60 0.1586
849.70 0.1586
849.80 0.1586
849.90 0.1586
850.00 0.1586
850.10 0.1586
850.20 0.1586
850.30 0.1586
850.40 0.1586
850.50 0.1586
850.60 0.1586
850.70 0.1587
850.80 0.1587
850.90 0.1587
851.00 0.1587
851.10 0.1587
851.20 0.1587
851.30 0.1587
851.40 0.1587
851.50 0.1587
851.60 0.1587
851.70 0.1587
851.80 0.1587
851.90 0.1587
852.00 0.1588
852.10 0.1588
852.20 0.1588
852.30 0.1588
852.40 0.1588
852.50 0.1588
852.60 0.1588
852.70 0.1588
852.80 0.1588
852.90 0.1588
853.00 0.1588
853.10 0.1588
853.20 0.1589
853.30 0.1589
853.40 0.1589
853.50 0.1589
853.60 0.1589
853.70 0.1589
853.80 0.1589
853.90 0.1589
854.00 0.1589
854.10 0.1589
854.20 0.1589
854.30 0.1589
854.40 0.159
854.50 0.159
854.60 0.159
854.70 0.159
854.80 0.159
854.90 0.159
855.00 0.159
855.10 0.159
855.20 0.159
855.30 0.159
855.40 0.159
855.50 0.159
855.60 0.159
855.70 0.1591
855.80 0.1591
855.90 0.1591
856.00 0.1591
856.10 0.1591
856.20 0.1591
856.30 0.1591
856.40 0.1591
856.50 0.1591
856.60 0.1591
856.70 0.1591
856.80 0.1591
856.90 0.1592
857.00 0.1592
857.10 0.1592
857.20 0.1592
857.30 0.1592
857.40 0.1592
857.50 0.1592
857.60 0.1592
857.70 0.1592
857.80 0.1592
857.90 0.1592
858.00 0.1592
858.10 0.1593
858.20 0.1593
858.30 0.1593
858.40 0.1593
858.50 0.1593
858.60 0.1593
858.70 0.1593
858.80 0.1593
858.90 0.1593
859.00 0.1593
859.10 0.1593
859.20 0.1593
859.30 0.1594
859.40 0.1594
859.50 0.1594
859.60 0.1594
859.70 0.1594
859.80 0.1594
859.90 0.1594
860.00 0.1594
860.10 0.1594
860.20 0.1594
860.30 0.1594
860.40 0.1595
860.50 0.1595
860.60 0.1595
860.70 0.1595
860.80 0.1595
860.90 0.1595
861.00 0.1595
861.10 0.1595
861.20 0.1595
861.30 0.1595
861.40 0.1595
861.50 0.1595
861.60 0.1596
861.70 0.1596
861.80 0.1596
861.90 0.1596
862.00 0.1596
862.10 0.1596
862.20 0.1596
862.30 0.1596
862.40 0.1596
862.50 0.1596
862.60 0.1597
862.70 0.1597
862.80 0.1597
862.90 0.1597
863.00 0.1597
863.10 0.1597
863.20 0.1597
863.30 0.1597
863.40 0.1597
863.50 0.1598
863.60 0.1598
863.70 0.1598
863.80 0.1598
863.90 0.1598
864.00 0.1598
864.10 0.1598
864.20 0.1598
864.30 0.1598
864.40 0.1599
864.50 0.1599
864.60 0.1599
864.70 0.1599
864.80 0.1599
864.90 0.1599
865.00 0.1599
865.10 0.1599
865.20 0.1599
865.30 0.16
865.40 0.16
865.50 0.16
865.60 0.16
865.70 0.16
865.80 0.16
865.90 0.16
866.00 0.16
866.10 0.16
866.20 0.1601
866.30 0.1601
866.40 0.1601
866.50 0.1601
866.60 0.1601
866.70 0.1601
866.80 0.1601
866.90 0.1601
867.00 0.1601
867.10 0.1601
867.20 0.1601
867.30 0.1601
867.40 0.1601
867.50 0.1602
867.60 0.1602
867.70 0.1602
867.80 0.1602
867.90 0.1602
868.00 0.1602
868.10 0.1602
868.20 0.1602
868.30 0.1602
868.40 0.1602
868.50 0.1602
868.60 0.1602
868.70 0.1602
868.80 0.1602
868.90 0.1602
869.00 0.1602
869.10 0.1602
869.20 0.1602
869.30 0.1602
869.40 0.1602
869.50 0.1602
869.60 0.1602
869.70 0.1602
869.80 0.1602
869.90 0.1602
870.00 0.1602
870.10 0.1602
870.20 0.1602
870.30 0.1602
870.40 0.1602
870.50 0.1602
870.60 0.1602
870.70 0.1602
870.80 0.1602
870.90 0.1602
871.00 0.1602
871.10 0.1602
871.20 0.1602
871.30 0.1602
871.40 0.1602
871.50 0.1602
871.60 0.1602
871.70 0.1602
871.80 0.1602
871.90 0.1602
872.00 0.1602
872.10 0.1602
872.20 0.1602
872.30 0.1602
872.40 0.1602
872.50 0.1602
872.60 0.1602
872.70 0.1601
872.80 0.1601
872.90 0.1601
873.00 0.1601
873.10 0.1601
873.20 0.1601
873.30 0.1601
873.40 0.1601
873.50 0.1601
873.60 0.1601
873.70 0.1601
873.80 0.1601
873.90 0.16
874.00 0.16
874.10 0.16
874.20 0.16
874.30 0.16
874.40 0.16
874.50 0.16
874.60 0.16
874.70 0.16
874.80 0.16
874.90 0.16
875.00 0.16
875.10 0.16
875.20 0.1599
875.30 0.1599
875.40 0.1599
875.50 0.1599
875.60 0.1599
875.70 0.1599
875.80 0.1599
875.90 0.1599
876.00 0.1599
876.10 0.1599
876.20 0.1599
876.30 0.1599
876.40 0.1598
876.50 0.1598
876.60 0.1598
876.70 0.1598
876.80 0.1598
876.90 0.1598
877.00 0.1598
877.10 0.1598
877.20 0.1597
877.30 0.1597
877.40 0.1597
877.50 0.1597
877.60 0.1596
877.70 0.1596
877.80 0.1596
877.90 0.1595
878.00 0.1595
878.10 0.1595
878.20 0.1595
878.30 0.1594
878.40 0.1594
878.50 0.1594
878.60 0.1593
878.70 0.1593
878.80 0.1593
878.90 0.1593
879.00 0.1592
879.10 0.1592
879.20 0.1592
879.30 0.1591
879.40 0.1591
879.50 0.1591
879.60 0.1591
879.70 0.159
879.80 0.159
879.90 0.159
880.00 0.1589
880.10 0.1589
880.20 0.1589
880.30 0.1589
880.40 0.1588
880.50 0.1588
880.60 0.1588
880.70 0.1587
880.80 0.1587
880.90 0.1587
881.00 0.1587
881.10 0.1586
881.20 0.1586
881.30 0.1586
881.40 0.1585
881.50 0.1585
881.60 0.1585
881.70 0.1585
881.80 0.1584
881.90 0.1584
882.00 0.1584
882.10 0.1583
882.20 0.1583
882.30 0.1582
882.40 0.1582
882.50 0.1581
882.60 0.1581
882.70 0.1581
882.80 0.158
882.90 0.158
883.00 0.1579
883.10 0.1579
883.20 0.1578
883.30 0.1578
883.40 0.1577
883.50 0.1577
883.60 0.1577
883.70 0.1576
883.80 0.1576
883.90 0.1575
884.00 0.1575
884.10 0.1574
884.20 0.1574
884.30 0.1574
884.40 0.1573
884.50 0.1573
884.60 0.1572
884.70 0.1572
884.80 0.1571
884.90 0.1571
885.00 0.157
885.10 0.157
885.20 0.157
885.30 0.1569
885.40 0.1569
885.50 0.1568
885.60 0.1568
885.70 0.1567
885.80 0.1567
885.90 0.1566
886.00 0.1566
886.10 0.1566
886.20 0.1565
886.30 0.1565
886.40 0.1564
886.50 0.1564
886.60 0.1563
886.70 0.1563
886.80 0.1563
886.90 0.1562
887.00 0.1562
887.10 0.1561
887.20 0.156
887.30 0.156
887.40 0.1559
887.50 0.1559
887.60 0.1558
887.70 0.1557
887.80 0.1557
887.90 0.1556
888.00 0.1556
888.10 0.1555
888.20 0.1555
888.30 0.1554
888.40 0.1553
888.50 0.1553
888.60 0.1552
888.70 0.1552
888.80 0.1551
888.90 0.155
889.00 0.155
889.10 0.1549
889.20 0.1549
889.30 0.1548
889.40 0.1547
889.50 0.1547
889.60 0.1546
889.70 0.1546
889.80 0.1545
889.90 0.1545
890.00 0.1544
890.10 0.1543
890.20 0.1543
890.30 0.1542
890.40 0.1542
890.50 0.1541
890.60 0.154
890.70 0.154
890.80 0.1539
890.90 0.1539
891.00 0.1538
891.10 0.1537
891.20 0.1537
891.30 0.1536
891.40 0.1536
891.50 0.1535
891.60 0.1535
891.70 0.1534
891.80 0.1533
891.90 0.1533
892.00 0.1532
892.10 0.1532
892.20 0.1531
892.30 0.153
892.40 0.1529
892.50 0.1529
892.60 0.1528
892.70 0.1527
892.80 0.1527
892.90 0.1526
893.00 0.1525
893.10 0.1525
893.20 0.1524
893.30 0.1523
893.40 0.1523
893.50 0.1522
893.60 0.1521
893.70 0.152
893.80 0.152
893.90 0.1519
894.00 0.1518
894.10 0.1518
894.20 0.1517
894.30 0.1516
894.40 0.1516
894.50 0.1515
894.60 0.1514
894.70 0.1514
894.80 0.1513
894.90 0.1512
895.00 0.1511
895.10 0.1511
895.20 0.151
895.30 0.1509
895.40 0.1509
895.50 0.1508
895.60 0.1507
895.70 0.1507
895.80 0.1506
895.90 0.1505
896.00 0.1505
896.10 0.1504
896.20 0.1503
896.30 0.1503
896.40 0.1502
896.50 0.1501
896.60 0.1501
896.70 0.15
896.80 0.1499
896.90 0.1498
897.00 0.1498
897.10 0.1497
897.20 0.1496
897.30 0.1495
897.40 0.1495
897.50 0.1494
897.60 0.1493
897.70 0.1492
897.80 0.1491
897.90 0.1491
898.00 0.149
898.10 0.1489
898.20 0.1488
898.30 0.1488
898.40 0.1487
898.50 0.1486
898.60 0.1485
898.70 0.1484
898.80 0.1484
898.90 0.1483
899.00 0.1482
899.10 0.1481
899.20 0.148
899.30 0.148
899.40 0.1479
899.50 0.1478
899.60 0.1477
899.70 0.1477
899.80 0.1476
899.90 0.1475
900.00 0.1474
900.10 0.1473
900.20 0.1473
900.30 0.1472
900.40 0.1471
900.50 0.147
900.60 0.147
900.70 0.1469
900.80 0.1468
900.90 0.1467
901.00 0.1466
901.10 0.1466
901.20 0.1465
901.30 0.1464
901.40 0.1463
901.50 0.1463
901.60 0.1462
901.70 0.1461
901.80 0.146
901.90 0.1459
902.00 0.1459
902.10 0.1458
902.20 0.1457
902.30 0.1456
902.40 0.1455
902.50 0.1454
902.60 0.1453
902.70 0.1453
902.80 0.1452
902.90 0.1451
903.00 0.145
903.10 0.1449
903.20 0.1448
903.30 0.1447
903.40 0.1446
903.50 0.1446
903.60 0.1445
903.70 0.1444
903.80 0.1443
903.90 0.1442
904.00 0.1441
904.10 0.144
904.20 0.144
904.30 0.1439
904.40 0.1438
904.50 0.1437
904.60 0.1436
904.70 0.1435
904.80 0.1434
904.90 0.1434
905.00 0.1433
905.10 0.1432
905.20 0.1431
905.30 0.143
905.40 0.1429
905.50 0.1428
905.60 0.1428
905.70 0.1427
905.80 0.1426
905.90 0.1425
906.00 0.1424
906.10 0.1423
906.20 0.1422
906.30 0.1422
906.40 0.1421
906.50 0.142
906.60 0.1419
906.70 0.1418
906.80 0.1417
906.90 0.1416
907.00 0.1416
907.10 0.1415
907.20 0.1414
907.30 0.1413
907.40 0.1412
907.50 0.1411
907.60 0.141
907.70 0.1409
907.80 0.1408
907.90 0.1407
908.00 0.1406
908.10 0.1405
908.20 0.1404
908.30 0.1403
908.40 0.1402
908.50 0.1401
908.60 0.14
908.70 0.1399
908.80 0.1398
908.90 0.1397
909.00 0.1396
909.10 0.1395
909.20 0.1394
909.30 0.1393
909.40 0.1392
909.50 0.1391
909.60 0.139
909.70 0.1389
909.80 0.1388
909.90 0.1387
910.00 0.1386
910.10 0.1385
910.20 0.1384
910.30 0.1383
910.40 0.1382
910.50 0.1381
910.60 0.138
910.70 0.1379
910.80 0.1378
910.90 0.1377
911.00 0.1376
911.10 0.1375
911.20 0.1374
911.30 0.1373
911.40 0.1372
911.50 0.1372
911.60 0.1371
911.70 0.137
911.80 0.1369
911.90 0.1368
912.00 0.1367
912.10 0.1366
912.20 0.1364
912.30 0.1363
912.40 0.1362
912.50 0.1361
912.60 0.136
912.70 0.1359
912.80 0.1358
912.90 0.1357
913.00 0.1356
913.10 0.1355
913.20 0.1354
913.30 0.1353
913.40 0.1352
913.50 0.135
913.60 0.1349
913.70 0.1348
913.80 0.1347
913.90 0.1346
914.00 0.1345
914.10 0.1344
914.20 0.1343
914.30 0.1342
914.40 0.1341
914.50 0.134
914.60 0.1339
914.70 0.1338
914.80 0.1336
914.90 0.1335
915.00 0.1334
915.10 0.1333
915.20 0.1332
915.30 0.1331
915.40 0.133
915.50 0.1329
915.60 0.1328
915.70 0.1327
915.80 0.1326
915.90 0.1325
916.00 0.1324
916.10 0.1323
916.20 0.1322
916.30 0.132
916.40 0.1319
916.50 0.1318
916.60 0.1317
916.70 0.1316
916.80 0.1315
916.90 0.1314
917.00 0.1313
917.10 0.1312
917.20 0.1311
917.30 0.131
917.40 0.1308
917.50 0.1307
917.60 0.1306
917.70 0.1305
917.80 0.1304
917.90 0.1303
918.00 0.1301
918.10 0.13
918.20 0.1299
918.30 0.1298
918.40 0.1297
918.50 0.1296
918.60 0.1295
918.70 0.1293
918.80 0.1292
918.90 0.1291
919.00 0.129
919.10 0.1289
919.20 0.1288
919.30 0.1287
919.40 0.1285
919.50 0.1284
919.60 0.1283
919.70 0.1282
919.80 0.1281
919.90 0.128
920.00 0.1279
920.10 0.1277
920.20 0.1276
920.30 0.1275
920.40 0.1274
920.50 0.1273
920.60 0.1272
920.70 0.1271
920.80 0.1269
920.90 0.1268
921.00 0.1267
921.10 0.1266
921.20 0.1265
921.30 0.1264
921.40 0.1263
921.50 0.1261
921.60 0.126
921.70 0.1259
921.80 0.1258
921.90 0.1257
922.00 0.1256
922.10 0.1255
922.20 0.1253
922.30 0.1252
922.40 0.1251
922.50 0.125
922.60 0.1249
922.70 0.1247
922.80 0.1246
922.90 0.1245
923.00 0.1244
923.10 0.1242
923.20 0.1241
923.30 0.124
923.40 0.1239
923.50 0.1238
923.60 0.1236
923.70 0.1235
923.80 0.1234
923.90 0.1233
924.00 0.1232
924.10 0.123
924.20 0.1229
924.30 0.1228
924.40 0.1227
924.50 0.1226
924.60 0.1224
924.70 0.1223
924.80 0.1222
924.90 0.1221
925.00 0.122
925.10 0.1218
925.20 0.1217
925.30 0.1216
925.40 0.1215
925.50 0.1214
925.60 0.1213
925.70 0.1211
925.80 0.121
925.90 0.1209
926.00 0.1208
926.10 0.1207
926.20 0.1205
926.30 0.1204
926.40 0.1203
926.50 0.1202
926.60 0.1201
926.70 0.1199
926.80 0.1198
926.90 0.1197
927.00 0.1196
927.10 0.1195
927.20 0.1193
927.30 0.1192
927.40 0.1191
927.50 0.119
927.60 0.1188
927.70 0.1187
927.80 0.1186
927.90 0.1185
928.00 0.1183
928.10 0.1182
928.20 0.1181
928.30 0.118
928.40 0.1178
928.50 0.1177
928.60 0.1176
928.70 0.1175
928.80 0.1173
928.90 0.1172
929.00 0.1171
929.10 0.117
929.20 0.1168
929.30 0.1167
929.40 0.1166
929.50 0.1165
929.60 0.1163
929.70 0.1162
929.80 0.1161
929.90 0.116
930.00 0.1158
930.10 0.1157
930.20 0.1156
930.30 0.1155
930.40 0.1153
930.50 0.1152
930.60 0.1151
930.70 0.115
930.80 0.1148
930.90 0.1147
931.00 0.1146
931.10 0.1145
931.20 0.1143
931.30 0.1142
931.40 0.1141
931.50 0.114
931.60 0.1139
931.70 0.1137
931.80 0.1136
931.90 0.1135
932.00 0.1134
932.10 0.1132
932.20 0.1131
932.30 0.113
932.40 0.1129
932.50 0.1127
932.60 0.1126
932.70 0.1125
932.80 0.1124
932.90 0.1122
933.00 0.1121
933.10 0.112
933.20 0.1119
933.30 0.1117
933.40 0.1116
933.50 0.1115
933.60 0.1114
933.70 0.1112
933.80 0.1111
933.90 0.111
934.00 0.1109
934.10 0.1107
934.20 0.1106
934.30 0.1105
934.40 0.1104
934.50 0.1102
934.60 0.1101
934.70 0.11
934.80 0.1099
934.90 0.1097
935.00 0.1096
935.10 0.1095
935.20 0.1093
935.30 0.1092
935.40 0.1091
935.50 0.109
935.60 0.1088
935.70 0.1087
935.80 0.1086
935.90 0.1085
936.00 0.1083
936.10 0.1082
936.20 0.1081
936.30 0.108
936.40 0.1078
936.50 0.1077
936.60 0.1076
936.70 0.1075
936.80 0.1073
936.90 0.1072
937.00 0.1071
937.10 0.107
937.20 0.1068
937.30 0.1067
937.40 0.1066
937.50 0.1065
937.60 0.1063
937.70 0.1062
937.80 0.1061
937.90 0.106
938.00 0.1058
938.10 0.1057
938.20 0.1056
938.30 0.1055
938.40 0.1053
938.50 0.1052
938.60 0.1051
938.70 0.1049
938.80 0.1048
938.90 0.1047
939.00 0.1046
939.10 0.1044
939.20 0.1043
939.30 0.1042
939.40 0.1041
939.50 0.1039
939.60 0.1038
939.70 0.1037
939.80 0.1035
939.90 0.1034
940.00 0.1033
940.10 0.1032
940.20 0.103
940.30 0.1029
940.40 0.1028
940.50 0.1027
940.60 0.1025
940.70 0.1024
940.80 0.1023
940.90 0.1022
941.00 0.102
941.10 0.1019
941.20 0.1018
941.30 0.1017
941.40 0.1015
941.50 0.1014
941.60 0.1013
941.70 0.1012
941.80 0.101
941.90 0.1009
942.00 0.1008
942.10 0.1007
942.20 0.1005
942.30 0.1004
942.40 0.1003
942.50 0.1002
942.60 0.1
942.70 0.09992
942.80 0.0998
942.90 0.09967
943.00 0.09955
943.10 0.09942
943.20 0.0993
943.30 0.09918
943.40 0.09905
943.50 0.09893
943.60 0.0988
943.70 0.09868
943.80 0.09856
943.90 0.09843
944.00 0.09831
944.10 0.09819
944.20 0.09806
944.30 0.09794
944.40 0.09782
944.50 0.09769
944.60 0.09757
944.70 0.09745
944.80 0.09732
944.90 0.0972
945.00 0.09708
945.10 0.09695
945.20 0.09683
945.30 0.09671
945.40 0.09658
945.50 0.09646
945.60 0.09634
945.70 0.09621
945.80 0.09609
945.90 0.09597
946.00 0.09585
946.10 0.09572
946.20 0.0956
946.30 0.09548
946.40 0.09535
946.50 0.09523
946.60 0.09511
946.70 0.09499
946.80 0.09486
946.90 0.09474
947.00 0.09462
947.10 0.0945
947.20 0.09438
947.30 0.09426
947.40 0.09413
947.50 0.09401
947.60 0.09389
947.70 0.09377
947.80 0.09364
947.90 0.09352
948.00 0.0934
948.10 0.09328
948.20 0.09316
948.30 0.09303
948.40 0.09291
948.50 0.09279
948.60 0.09267
948.70 0.09255
948.80 0.09242
948.90 0.0923
949.00 0.09218
949.10 0.09206
949.20 0.09194
949.30 0.09182
949.40 0.0917
949.50 0.09158
949.60 0.09145
949.70 0.09133
949.80 0.09121
949.90 0.09109
950.00 0.09097
950.10 0.09085
950.20 0.09073
950.30 0.09061
950.40 0.09049
950.50 0.09037
950.60 0.09025
950.70 0.09013
950.80 0.09001
950.90 0.08989
951.00 0.08977
951.10 0.08965
951.20 0.08953
951.30 0.08941
951.40 0.08929
951.50 0.08917
951.60 0.08905
951.70 0.08893
951.80 0.08881
951.90 0.08869
952.00 0.08857
952.10 0.08845
952.20 0.08833
952.30 0.08821
952.40 0.0881
952.50 0.08798
952.60 0.08786
952.70 0.08774
952.80 0.08762
952.90 0.0875
953.00 0.08738
953.10 0.08726
953.20 0.08714
953.30 0.08703
953.40 0.08691
953.50 0.08679
953.60 0.08667
953.70 0.08655
953.80 0.08643
953.90 0.08632
954.00 0.0862
954.10 0.08608
954.20 0.08596
954.30 0.08584
954.40 0.08573
954.50 0.08561
954.60 0.08549
954.70 0.08537
954.80 0.08525
954.90 0.08514
955.00 0.08502
955.10 0.0849
955.20 0.08478
955.30 0.08467
955.40 0.08455
955.50 0.08443
955.60 0.08432
955.70 0.0842
955.80 0.08408
955.90 0.08396
956.00 0.08384
956.10 0.08372
956.20 0.0836
956.30 0.08348
956.40 0.08337
956.50 0.08325
956.60 0.08313
956.70 0.08301
956.80 0.08289
956.90 0.08277
957.00 0.08265
957.10 0.08254
957.20 0.08242
957.30 0.0823
957.40 0.08219
957.50 0.08207
957.60 0.08196
957.70 0.08184
957.80 0.08173
957.90 0.08161
958.00 0.0815
958.10 0.08138
958.20 0.08127
958.30 0.08115
958.40 0.08104
958.50 0.08092
958.60 0.08081
958.70 0.08069
958.80 0.08058
958.90 0.08046
959.00 0.08035
959.10 0.08023
959.20 0.08012
959.30 0.08
959.40 0.07989
959.50 0.07978
959.60 0.07966
959.70 0.07955
959.80 0.07943
959.90 0.07932
960.00 0.07921
960.10 0.07909
960.20 0.07898
960.30 0.07887
960.40 0.07875
960.50 0.07864
960.60 0.07853
960.70 0.07841
960.80 0.0783
960.90 0.07819
961.00 0.07808
961.10 0.07796
961.20 0.07785
961.30 0.07774
961.40 0.07762
961.50 0.07751
961.60 0.0774
961.70 0.07729
961.80 0.07718
961.90 0.07706
962.00 0.07695
962.10 0.07684
962.20 0.07673
962.30 0.07662
962.40 0.07651
962.50 0.0764
962.60 0.07628
962.70 0.07617
962.80 0.07606
962.90 0.07595
963.00 0.07584
963.10 0.07573
963.20 0.07562
963.30 0.07551
963.40 0.07539
963.50 0.07528
963.60 0.07517
963.70 0.07506
963.80 0.07495
963.90 0.07484
964.00 0.07473
964.10 0.07462
964.20 0.07451
964.30 0.0744
964.40 0.07429
964.50 0.07418
964.60 0.07406
964.70 0.07395
964.80 0.07384
964.90 0.07373
965.00 0.07362
965.10 0.0735
965.20 0.07339
965.30 0.07328
965.40 0.07317
965.50 0.07306
965.60 0.07295
965.70 0.07283
965.80 0.07272
965.90 0.07261
966.00 0.0725
966.10 0.07239
966.20 0.07228
966.30 0.07217
966.40 0.07206
966.50 0.07195
966.60 0.07184
966.70 0.07173
966.80 0.07163
966.90 0.07152
967.00 0.07141
967.10 0.0713
967.20 0.0712
967.30 0.07109
967.40 0.07098
967.50 0.07088
967.60 0.07077
967.70 0.07067
967.80 0.07056
967.90 0.07045
968.00 0.07035
968.10 0.07024
968.20 0.07013
968.30 0.07003
968.40 0.06992
968.50 0.06982
968.60 0.06971
968.70 0.06961
968.80 0.0695
968.90 0.0694
969.00 0.0693
969.10 0.06919
969.20 0.06909
969.30 0.06898
969.40 0.06888
969.50 0.06877
969.60 0.06867
969.70 0.06857
969.80 0.06846
969.90 0.06836
970.00 0.06825
970.10 0.06815
970.20 0.06804
970.30 0.06794
970.40 0.06784
970.50 0.06774
970.60 0.06763
970.70 0.06753
970.80 0.06743
970.90 0.06733
971.00 0.06722
971.10 0.06712
971.20 0.06702
971.30 0.06692
971.40 0.06682
971.50 0.06671
971.60 0.06661
971.70 0.06651
971.80 0.06641
971.90 0.06631
972.00 0.06621
972.10 0.06611
972.20 0.06601
972.30 0.06591
972.40 0.06581
972.50 0.06571
972.60 0.06561
972.70 0.06551
972.80 0.06541
972.90 0.06531
973.00 0.06521
973.10 0.06511
973.20 0.06501
973.30 0.06491
973.40 0.06481
973.50 0.06471
973.60 0.06461
973.70 0.06451
973.80 0.06441
973.90 0.06431
974.00 0.06421
974.10 0.06411
974.20 0.06401
974.30 0.06391
974.40 0.06381
974.50 0.06372
974.60 0.06362
974.70 0.06352
974.80 0.06342
974.90 0.06332
975.00 0.06322
975.10 0.06313
975.20 0.06303
975.30 0.06293
975.40 0.06283
975.50 0.06273
975.60 0.06263
975.70 0.06254
975.80 0.06244
975.90 0.06234
976.00 0.06224
976.10 0.06214
976.20 0.06205
976.30 0.06195
976.40 0.06185
976.50 0.06175
976.60 0.06166
976.70 0.06156
976.80 0.06146
976.90 0.06136
977.00 0.06127
977.10 0.06117
977.20 0.06108
977.30 0.06099
977.40 0.06089
977.50 0.0608
977.60 0.06071
977.70 0.06062
977.80 0.06052
977.90 0.06043
978.00 0.06034
978.10 0.06025
978.20 0.06015
978.30 0.06006
978.40 0.05997
978.50 0.05988
978.60 0.05979
978.70 0.05969
978.80 0.0596
978.90 0.05951
979.00 0.05942
979.10 0.05933
979.20 0.05923
979.30 0.05914
979.40 0.05905
979.50 0.05896
979.60 0.05887
979.70 0.05877
979.80 0.05868
979.90 0.05859
980.00 0.0585
980.10 0.05841
980.20 0.05832
980.30 0.05822
980.40 0.05813
980.50 0.05804
980.60 0.05795
980.70 0.05786
980.80 0.05777
980.90 0.05768
981.00 0.05758
981.10 0.05749
981.20 0.0574
981.30 0.05731
981.40 0.05722
981.50 0.05713
981.60 0.05704
981.70 0.05695
981.80 0.05686
981.90 0.05676
982.00 0.05667
982.10 0.05659
982.20 0.0565
982.30 0.05641
982.40 0.05632
982.50 0.05624
982.60 0.05615
982.70 0.05606
982.80 0.05597
982.90 0.05589
983.00 0.0558
983.10 0.05571
983.20 0.05562
983.30 0.05554
983.40 0.05545
983.50 0.05536
983.60 0.05528
983.70 0.05519
983.80 0.0551
983.90 0.05501
984.00 0.05493
984.10 0.05484
984.20 0.05475
984.30 0.05467
984.40 0.05458
984.50 0.05449
984.60 0.05441
984.70 0.05432
984.80 0.05424
984.90 0.05416
985.00 0.05408
985.10 0.054
985.20 0.05392
985.30 0.05384
985.40 0.05375
985.50 0.05367
985.60 0.05359
985.70 0.05351
985.80 0.05343
985.90 0.05335
986.00 0.05327
986.10 0.05319
986.20 0.05311
986.30 0.05302
986.40 0.05294
986.50 0.05286
986.60 0.05278
986.70 0.0527
986.80 0.05262
986.90 0.05254
987.00 0.05246
987.10 0.05237
987.20 0.05229
987.30 0.05221
987.40 0.05212
987.50 0.05204
987.60 0.05195
987.70 0.05187
987.80 0.05178
987.90 0.0517
988.00 0.05162
988.10 0.05153
988.20 0.05145
988.30 0.05136
988.40 0.05128
988.50 0.0512
988.60 0.05111
988.70 0.05103
988.80 0.05094
988.90 0.05086
989.00 0.05078
989.10 0.05069
989.20 0.05061
989.30 0.05053
989.40 0.05044
989.50 0.05036
989.60 0.05027
989.70 0.05019
989.80 0.05011
989.90 0.05002
990.00 0.04994
990.10 0.04986
990.20 0.04977
990.30 0.04969
990.40 0.04961
990.50 0.04952
990.60 0.04944
990.70 0.04936
990.80 0.04927
990.90 0.04919
991.00 0.04911
991.10 0.04903
991.20 0.04894
991.30 0.04886
991.40 0.04878
991.50 0.04869
991.60 0.04861
991.70 0.04853
991.80 0.04845
991.90 0.04836
992.00 0.04828
992.10 0.0482
992.20 0.04811
992.30 0.04803
992.40 0.04795
992.50 0.04787
992.60 0.04778
992.70 0.0477
992.80 0.04762
992.90 0.04754
993.00 0.04746
993.10 0.04737
993.20 0.04729
993.30 0.04721
993.40 0.04713
993.50 0.04704
993.60 0.04696
993.70 0.04688
993.80 0.0468
993.90 0.04672
994.00 0.04663
994.10 0.04655
994.20 0.04647
994.30 0.04639
994.40 0.04631
994.50 0.04622
994.60 0.04614
994.70 0.04605
994.80 0.04595
994.90 0.04584
995.00 0.04574
995.10 0.04564
995.20 0.04554
995.30 0.04544
995.40 0.04534
995.50 0.04524
995.60 0.04514
995.70 0.04505
995.80 0.04497
995.90 0.04489
996.00 0.04482
996.10 0.04474
996.20 0.04466
996.30 0.04458
996.40 0.0445
996.50 0.04442
996.60 0.04434
996.70 0.04427
996.80 0.04419
996.90 0.04411
997.00 0.04403
997.10 0.04395
997.20 0.04388
997.30 0.0438
997.40 0.04372
997.50 0.04365
997.60 0.04357
997.70 0.04349
997.80 0.04342
997.90 0.04335
998.00 0.04327
998.10 0.0432
998.20 0.04312
998.30 0.04305
998.40 0.04297
998.50 0.0429
998.60 0.04283
998.70 0.04275
998.80 0.04268
998.90 0.0426
999.00 0.04253
999.10 0.04245
999.20 0.04238
999.30 0.04231
999.40 0.04223
999.50 0.04216
999.60 0.04208
999.70 0.04201
999.80 0.04194
999.90 0.04187
1000.00 0.0418
1000.10 0.04173
1000.20 0.04166
1000.30 0.04159
1000.40 0.04152
1000.50 0.04145
1000.60 0.04138
1000.70 0.04131
1000.80 0.04123
1000.90 0.04116
1001.00 0.04109
1001.10 0.04102
1001.20 0.04095
1001.30 0.04088
1001.40 0.04081
1001.50 0.04074
1001.60 0.04067
1001.70 0.0406
1001.80 0.04053
1001.90 0.04046
1002.00 0.04039
1002.10 0.04033
1002.20 0.04026
1002.30 0.04019
1002.40 0.04013
1002.50 0.04006
1002.60 0.03999
1002.70 0.03992
1002.80 0.03986
1002.90 0.03979
1003.00 0.03972
1003.10 0.03966
1003.20 0.03959
1003.30 0.03952
1003.40 0.03946
1003.50 0.03939
1003.60 0.03933
1003.70 0.03926
1003.80 0.03919
1003.90 0.03913
1004.00 0.03906
1004.10 0.039
1004.20 0.03894
1004.30 0.03887
1004.40 0.03881
1004.50 0.03874
1004.60 0.03868
1004.70 0.03861
1004.80 0.03855
1004.90 0.03846
1005.00 0.03837
1005.10 0.03831
1005.20 0.03824
1005.30 0.03818
1005.40 0.03812
1005.50 0.03805
1005.60 0.03799
1005.70 0.03793
1005.80 0.03787
1005.90 0.03781
1006.00 0.03775
1006.10 0.03768
1006.20 0.03762
1006.30 0.03756
1006.40 0.0375
1006.50 0.03744
1006.60 0.03738
1006.70 0.03732
1006.80 0.03726
1006.90 0.0372
1007.00 0.03714
1007.10 0.03708
1007.20 0.03702
1007.30 0.03697
1007.40 0.03691
1007.50 0.03685
1007.60 0.03679
1007.70 0.03673
1007.80 0.03668
1007.90 0.03662
1008.00 0.03656
1008.10 0.03651
1008.20 0.03645
1008.30 0.03639
1008.40 0.03634
1008.50 0.03628
1008.60 0.03622
1008.70 0.03617
1008.80 0.03611
1008.90 0.03605
1009.00 0.036
1009.10 0.03594
1009.20 0.03588
1009.30 0.03583
1009.40 0.03577
1009.50 0.03571
1009.60 0.03566
1009.70 0.0356
1009.80 0.03555
1009.90 0.0355
1010.00 0.03545
1010.10 0.03539
1010.20 0.03534
1010.30 0.03529
1010.40 0.03523
1010.50 0.03518
1010.60 0.03513
1010.70 0.03507
1010.80 0.03502
1010.90 0.03497
1011.00 0.03492
1011.10 0.03486
1011.20 0.03481
1011.30 0.03476
1011.40 0.0347
1011.50 0.03465
1011.60 0.0346
1011.70 0.03455
1011.80 0.0345
1011.90 0.03445
1012.00 0.03439
1012.10 0.03435
1012.20 0.0343
1012.30 0.03425
1012.40 0.0342
1012.50 0.03415
1012.60 0.0341
1012.70 0.03405
1012.80 0.034
1012.90 0.03395
1013.00 0.0339
1013.10 0.03385
1013.20 0.0338
1013.30 0.03375
1013.40 0.0337
1013.50 0.03365
1013.60 0.0336
1013.70 0.03356
1013.80 0.03351
1013.90 0.03346
1014.00 0.03342
1014.10 0.03337
1014.20 0.03332
1014.30 0.03327
1014.40 0.03323
1014.50 0.03318
1014.60 0.03313
1014.70 0.03309
1014.80 0.03305
1014.90 0.03301
1015.00 0.03297
1015.10 0.03293
1015.20 0.03289
1015.30 0.03285
1015.40 0.03281
1015.50 0.03276
1015.60 0.03272
1015.70 0.03268
1015.80 0.03264
1015.90 0.0326
1016.00 0.03256
1016.10 0.03252
1016.20 0.03248
1016.30 0.03244
1016.40 0.0324
1016.50 0.03236
1016.60 0.03232
1016.70 0.03227
1016.80 0.03223
1016.90 0.03219
1017.00 0.03214
1017.10 0.0321
1017.20 0.03205
1017.30 0.03201
1017.40 0.03197
1017.50 0.03192
1017.60 0.03188
1017.70 0.03184
1017.80 0.03179
1017.90 0.03175
1018.00 0.03171
1018.10 0.03166
1018.20 0.03162
1018.30 0.03158
1018.40 0.03153
1018.50 0.03149
1018.60 0.03145
1018.70 0.0314
1018.80 0.03136
1018.90 0.03132
1019.00 0.03128
1019.10 0.03123
1019.20 0.03119
1019.30 0.03115
1019.40 0.03111
1019.50 0.03106
1019.60 0.03102
1019.70 0.03098
1019.80 0.03094
1019.90 0.0309
1020.00 0.03085
1020.10 0.03081
1020.20 0.03077
1020.30 0.03073
1020.40 0.03068
1020.50 0.03064
1020.60 0.0306
1020.70 0.03056
1020.80 0.03052
1020.90 0.03048
1021.00 0.03044
1021.10 0.03039
1021.20 0.03035
1021.30 0.03031
1021.40 0.03027
1021.50 0.03023
1021.60 0.03019
1021.70 0.03015
1021.80 0.03011
1021.90 0.03007
1022.00 0.03003
1022.10 0.02999
1022.20 0.02995
1022.30 0.02991
1022.40 0.02987
1022.50 0.02983
1022.60 0.02979
1022.70 0.02975
1022.80 0.02971
1022.90 0.02967
1023.00 0.02963
1023.10 0.02959
1023.20 0.02955
1023.30 0.02951
1023.40 0.02947
1023.50 0.02943
1023.60 0.02939
1023.70 0.02935
1023.80 0.02931
1023.90 0.02927
1024.00 0.02923
1024.10 0.0292
1024.20 0.02916
1024.30 0.02912
1024.40 0.02908
1024.50 0.02904
1024.60 0.029
1024.70 0.02896
1024.80 0.02892
1024.90 0.02888
1025.00 0.02884
1025.10 0.0288
1025.20 0.02876
1025.30 0.02873
1025.40 0.02869
1025.50 0.02865
1025.60 0.02861
1025.70 0.02857
1025.80 0.02853
1025.90 0.02849
1026.00 0.02845
1026.10 0.02841
1026.20 0.02838
1026.30 0.02834
1026.40 0.0283
1026.50 0.02826
1026.60 0.02822
1026.70 0.02818
1026.80 0.02814
1026.90 0.0281
1027.00 0.02806
1027.10 0.02803
1027.20 0.02799
1027.30 0.02796
1027.40 0.02792
1027.50 0.02789
1027.60 0.02785
1027.70 0.02782
1027.80 0.02778
1027.90 0.02775
1028.00 0.02771
1028.10 0.02768
1028.20 0.02764
1028.30 0.02761
1028.40 0.02757
1028.50 0.02754
1028.60 0.0275
1028.70 0.02747
1028.80 0.02743
1028.90 0.0274
1029.00 0.02736
1029.10 0.02733
1029.20 0.02729
1029.30 0.02726
1029.40 0.02722
1029.50 0.02719
1029.60 0.02715
1029.70 0.02712
1029.80 0.02708
1029.90 0.02705
1030.00 0.02701
1030.10 0.02698
1030.20 0.02694
1030.30 0.02691
1030.40 0.02687
1030.50 0.02684
1030.60 0.0268
1030.70 0.02677
1030.80 0.02674
1030.90 0.0267
1031.00 0.02667
1031.10 0.02663
1031.20 0.0266
1031.30 0.02656
1031.40 0.02653
1031.50 0.02649
1031.60 0.02646
1031.70 0.02642
1031.80 0.02639
1031.90 0.02635
1032.00 0.02632
1032.10 0.02629
1032.20 0.02626
1032.30 0.02622
1032.40 0.02619
1032.50 0.02616
1032.60 0.02613
1032.70 0.0261
1032.80 0.02606
1032.90 0.02603
1033.00 0.026
1033.10 0.02597
1033.20 0.02594
1033.30 0.02591
1033.40 0.02587
1033.50 0.02584
1033.60 0.02581
1033.70 0.02578
1033.80 0.02575
1033.90 0.02571
1034.00 0.02568
1034.10 0.02565
1034.20 0.02562
1034.30 0.02559
1034.40 0.02556
1034.50 0.02553
1034.60 0.02549
1034.70 0.02546
1034.80 0.02543
1034.90 0.0254
1035.00 0.02537
1035.10 0.02534
1035.20 0.0253
1035.30 0.02527
1035.40 0.02524
1035.50 0.02521
1035.60 0.02518
1035.70 0.02515
1035.80 0.02512
1035.90 0.02508
1036.00 0.02505
1036.10 0.02502
1036.20 0.02499
1036.30 0.02496
1036.40 0.02493
1036.50 0.0249
1036.60 0.02486
1036.70 0.02483
1036.80 0.0248
1036.90 0.02477
1037.00 0.02474
1037.10 0.02471
1037.20 0.02468
1037.30 0.02466
1037.40 0.02463
1037.50 0.0246
1037.60 0.02457
1037.70 0.02454
1037.80 0.02452
1037.90 0.02449
1038.00 0.02446
1038.10 0.02443
1038.20 0.02441
1038.30 0.02438
1038.40 0.02435
1038.50 0.02432
1038.60 0.0243
1038.70 0.02427
1038.80 0.02424
1038.90 0.02421
1039.00 0.02419
1039.10 0.02416
1039.20 0.02413
1039.30 0.0241
1039.40 0.02408
1039.50 0.02405
1039.60 0.02402
1039.70 0.02399
1039.80 0.02397
1039.90 0.02394
1040.00 0.02391
1040.10 0.02388
1040.20 0.02386
1040.30 0.02383
1040.40 0.0238
1040.50 0.02377
1040.60 0.02375
1040.70 0.02372
1040.80 0.02369
1040.90 0.02366
1041.00 0.02364
1041.10 0.02361
1041.20 0.02358
1041.30 0.02356
1041.40 0.02353
1041.50 0.0235
1041.60 0.02347
1041.70 0.02345
1041.80 0.02342
1041.90 0.02339
1042.00 0.02336
1042.10 0.02334
1042.20 0.02332
1042.30 0.02329
1042.40 0.02327
1042.50 0.02324
1042.60 0.02322
1042.70 0.0232
1042.80 0.02317
1042.90 0.02315
1043.00 0.02312
1043.10 0.0231
1043.20 0.02308
1043.30 0.02305
1043.40 0.02303
1043.50 0.023
1043.60 0.02298
1043.70 0.02296
1043.80 0.02293
1043.90 0.02291
1044.00 0.02288
1044.10 0.02286
1044.20 0.02284
1044.30 0.02281
1044.40 0.02279
1044.50 0.02276
1044.60 0.02274
1044.70 0.02272
1044.80 0.02269
1044.90 0.02267
1045.00 0.02265
1045.10 0.02262
1045.20 0.0226
1045.30 0.02257
1045.40 0.02255
1045.50 0.02253
1045.60 0.0225
1045.70 0.02248
1045.80 0.02245
1045.90 0.02243
1046.00 0.02241
1046.10 0.02238
1046.20 0.02236
1046.30 0.02234
1046.40 0.02231
1046.50 0.02229
1046.60 0.02226
1046.70 0.02224
1046.80 0.02222
1046.90 0.02219
1047.00 0.02217
1047.10 0.02215
1047.20 0.02213
1047.30 0.02211
1047.40 0.02209
1047.50 0.02207
1047.60 0.02205
1047.70 0.02202
1047.80 0.022
1047.90 0.02198
1048.00 0.02196
1048.10 0.02194
1048.20 0.02192
1048.30 0.0219
1048.40 0.02188
1048.50 0.02186
1048.60 0.02184
1048.70 0.02182
1048.80 0.0218
1048.90 0.02178
1049.00 0.02176
1049.10 0.02174
1049.20 0.02172
1049.30 0.0217
1049.40 0.02167
1049.50 0.02165
1049.60 0.02163
1049.70 0.02161
1049.80 0.02159
1049.90 0.02157
1050.00 0.02155
1050.10 0.02153
1050.20 0.02151
1050.30 0.02149
1050.40 0.02147
1050.50 0.02145
1050.60 0.02143
1050.70 0.02141
1050.80 0.02139
1050.90 0.02137
1051.00 0.02135
1051.10 0.02133
1051.20 0.02131
1051.30 0.02129
1051.40 0.02127
1051.50 0.02124
1051.60 0.02122
1051.70 0.0212
1051.80 0.02118
1051.90 0.02116
1052.00 0.02114
1052.10 0.02112
1052.20 0.02111
1052.30 0.02109
1052.40 0.02107
1052.50 0.02105
1052.60 0.02103
1052.70 0.02101
1052.80 0.02099
1052.90 0.02098
1053.00 0.02096
1053.10 0.02094
1053.20 0.02092
1053.30 0.0209
1053.40 0.02088
1053.50 0.02086
1053.60 0.02085
1053.70 0.02083
1053.80 0.02081
1053.90 0.02079
1054.00 0.02077
1054.10 0.02075
1054.20 0.02073
1054.30 0.02072
1054.40 0.0207
1054.50 0.02068
1054.60 0.02066
1054.70 0.02064
1054.80 0.02062
1054.90 0.02061
1055.00 0.02059
1055.10 0.02057
1055.20 0.02055
1055.30 0.02053
1055.40 0.02051
1055.50 0.0205
1055.60 0.02048
1055.70 0.02046
1055.80 0.02044
1055.90 0.02042
1056.00 0.0204
1056.10 0.02038
1056.20 0.02037
1056.30 0.02035
1056.40 0.02033
1056.50 0.02031
1056.60 0.02029
1056.70 0.02027
1056.80 0.02026
1056.90 0.02024
1057.00 0.02022
1057.10 0.0202
1057.20 0.02019
1057.30 0.02017
1057.40 0.02015
1057.50 0.02014
1057.60 0.02012
1057.70 0.02011
1057.80 0.02009
1057.90 0.02007
1058.00 0.02006
1058.10 0.02004
1058.20 0.02002
1058.30 0.02001
1058.40 0.01999
1058.50 0.01997
1058.60 0.01996
1058.70 0.01994
1058.80 0.01993
1058.90 0.01991
1059.00 0.01989
1059.10 0.01988
1059.20 0.01986
1059.30 0.01984
1059.40 0.01983
1059.50 0.01981
1059.60 0.01979
1059.70 0.01978
1059.80 0.01976
1059.90 0.01975
1060.00 0.01973
1060.10 0.01971
1060.20 0.0197
1060.30 0.01968
1060.40 0.01966
1060.50 0.01965
1060.60 0.01963
1060.70 0.01962
1060.80 0.0196
1060.90 0.01958
1061.00 0.01957
1061.10 0.01955
1061.20 0.01954
1061.30 0.01952
1061.40 0.0195
1061.50 0.01949
1061.60 0.01947
1061.70 0.01945
1061.80 0.01944
1061.90 0.01942
1062.00 0.01941
1062.10 0.01939
1062.20 0.01938
1062.30 0.01936
1062.40 0.01935
1062.50 0.01934
1062.60 0.01932
1062.70 0.01931
1062.80 0.01929
1062.90 0.01928
1063.00 0.01926
1063.10 0.01925
1063.20 0.01924
1063.30 0.01922
1063.40 0.01921
1063.50 0.01919
1063.60 0.01918
1063.70 0.01917
1063.80 0.01915
1063.90 0.01914
1064.00 0.01912
1064.10 0.01911
1064.20 0.0191
1064.30 0.01908
1064.40 0.01907
1064.50 0.01905
1064.60 0.01904
1064.70 0.01902
1064.80 0.01901
1064.90 0.019
1065.00 0.01898
1065.10 0.01897
1065.20 0.01895
1065.30 0.01894
1065.40 0.01893
1065.50 0.01891
1065.60 0.0189
1065.70 0.01888
1065.80 0.01887
1065.90 0.01886
1066.00 0.01884
1066.10 0.01883
1066.20 0.01881
1066.30 0.0188
1066.40 0.01879
1066.50 0.01877
1066.60 0.01876
1066.70 0.01874
1066.80 0.01873
1066.90 0.01872
1067.00 0.0187
1067.10 0.01869
1067.20 0.01868
1067.30 0.01866
1067.40 0.01865
1067.50 0.01864
1067.60 0.01863
1067.70 0.01861
1067.80 0.0186
1067.90 0.01859
1068.00 0.01857
1068.10 0.01856
1068.20 0.01855
1068.30 0.01854
1068.40 0.01852
1068.50 0.01851
1068.60 0.0185
1068.70 0.01849
1068.80 0.01847
1068.90 0.01846
1069.00 0.01845
1069.10 0.01843
1069.20 0.01842
1069.30 0.01841
1069.40 0.0184
1069.50 0.01838
1069.60 0.01837
1069.70 0.01836
1069.80 0.01835
1069.90 0.01833
1070.00 0.01832
1070.10 0.01831
1070.20 0.01829
1070.30 0.01828
1070.40 0.01827
1070.50 0.01826
1070.60 0.01824
1070.70 0.01823
1070.80 0.01822
1070.90 0.01821
1071.00 0.01819
1071.10 0.01818
1071.20 0.01817
1071.30 0.01816
1071.40 0.01814
1071.50 0.01813
1071.60 0.01812
1071.70 0.0181
1071.80 0.01809
1071.90 0.01808
1072.00 0.01807
1072.10 0.01806
1072.20 0.01805
1072.30 0.01804
1072.40 0.01803
1072.50 0.01802
1072.60 0.01801
1072.70 0.018
1072.80 0.01799
1072.90 0.01798
1073.00 0.01797
1073.10 0.01796
1073.20 0.01795
1073.30 0.01794
1073.40 0.01792
1073.50 0.01792
1073.60 0.01791
1073.70 0.0179
1073.80 0.01789
1073.90 0.01788
1074.00 0.01787
1074.10 0.01786
1074.20 0.01785
1074.30 0.01784
1074.40 0.01784
1074.50 0.01783
1074.60 0.01782
1074.70 0.01781
1074.80 0.0178
1074.90 0.01779
1075.00 0.01778
1075.10 0.01777
1075.20 0.01777
1075.30 0.01776
1075.40 0.01775
1075.50 0.01774
1075.60 0.01773
1075.70 0.01772
1075.80 0.01771
1075.90 0.0177
1076.00 0.0177
1076.10 0.01769
1076.20 0.01768
1076.30 0.01767
1076.40 0.01766
1076.50 0.01765
1076.60 0.01764
1076.70 0.01763
1076.80 0.01763
1076.90 0.01762
1077.00 0.01761
1077.10 0.0176
1077.20 0.01759
1077.30 0.01759
1077.40 0.01758
1077.50 0.01757
1077.60 0.01756
1077.70 0.01756
1077.80 0.01755
1077.90 0.01754
1078.00 0.01754
1078.10 0.01753
1078.20 0.01752
1078.30 0.01752
1078.40 0.01751
1078.50 0.0175
1078.60 0.01749
1078.70 0.01749
1078.80 0.01748
1078.90 0.01747
1079.00 0.01747
1079.10 0.01746
1079.20 0.01745
1079.30 0.01745
1079.40 0.01744
1079.50 0.01743
1079.60 0.01743
1079.70 0.01742
1079.80 0.01742
1079.90 0.01741
1080.00 0.01741
1080.10 0.0174
1080.20 0.0174
1080.30 0.01739
1080.40 0.01739
1080.50 0.01738
1080.60 0.01737
1080.70 0.01737
1080.80 0.01736
1080.90 0.01736
1081.00 0.01735
1081.10 0.01735
1081.20 0.01734
1081.30 0.01734
1081.40 0.01733
1081.50 0.01733
1081.60 0.01732
1081.70 0.01732
1081.80 0.01731
1081.90 0.01731
1082.00 0.0173
1082.10 0.0173
1082.20 0.01729
1082.30 0.01729
1082.40 0.01728
1082.50 0.01728
1082.60 0.01727
1082.70 0.01727
1082.80 0.01726
1082.90 0.01726
1083.00 0.01725
1083.10 0.01725
1083.20 0.01724
1083.30 0.01724
1083.40 0.01724
1083.50 0.01723
1083.60 0.01723
1083.70 0.01722
1083.80 0.01722
1083.90 0.01721
1084.00 0.01721
1084.10 0.0172
1084.20 0.0172
1084.30 0.0172
1084.40 0.01719
1084.50 0.01719
1084.60 0.01718
1084.70 0.01718
1084.80 0.01718
1084.90 0.01717
1085.00 0.01717
1085.10 0.01717
1085.20 0.01716
1085.30 0.01716
1085.40 0.01716
1085.50 0.01715
1085.60 0.01715
1085.70 0.01714
1085.80 0.01714
1085.90 0.01714
1086.00 0.01713
1086.10 0.01713
1086.20 0.01713
1086.30 0.01712
1086.40 0.01712
1086.50 0.01712
1086.60 0.01711
1086.70 0.01711
1086.80 0.01711
1086.90 0.0171
1087.00 0.0171
1087.10 0.0171
1087.20 0.0171
1087.30 0.01709
1087.40 0.01709
1087.50 0.01709
1087.60 0.01709
1087.70 0.01708
1087.80 0.01708
1087.90 0.01708
1088.00 0.01708
1088.10 0.01707
1088.20 0.01707
1088.30 0.01707
1088.40 0.01706
1088.50 0.01706
1088.60 0.01706
1088.70 0.01706
1088.80 0.01706
1088.90 0.01705
1089.00 0.01705
1089.10 0.01705
1089.20 0.01705
1089.30 0.01705
1089.40 0.01705
1089.50 0.01704
1089.60 0.01704
1089.70 0.01704
1089.80 0.01704
1089.90 0.01704
1090.00 0.01704
1090.10 0.01703
1090.20 0.01703
1090.30 0.01703
1090.40 0.01703
1090.50 0.01703
1090.60 0.01703
1090.70 0.01702
1090.80 0.01702
1090.90 0.01702
1091.00 0.01702
1091.10 0.01702
1091.20 0.01702
1091.30 0.01702
1091.40 0.01702
1091.50 0.01701
1091.60 0.01701
1091.70 0.01701
1091.80 0.01701
1091.90 0.01701
1092.00 0.01701
1092.10 0.01701
1092.20 0.01701
1092.30 0.01701
1092.40 0.01701
1092.50 0.01701
1092.60 0.01701
1092.70 0.01701
1092.80 0.01702
1092.90 0.01703
1093.00 0.01704
1093.10 0.01704
1093.20 0.01704
1093.30 0.01704
1093.40 0.01704
1093.50 0.01704
1093.60 0.01704
1093.70 0.01704
1093.80 0.01704
1093.90 0.01704
1094.00 0.01704
1094.10 0.01704
1094.20 0.01704
1094.30 0.01704
1094.40 0.01704
1094.50 0.01704
1094.60 0.01704
1094.70 0.01704
1094.80 0.01704
1094.90 0.01704
1095.00 0.01704
1095.10 0.01704
1095.20 0.01704
1095.30 0.01704
1095.40 0.01704
1095.50 0.01704
1095.60 0.01704
1095.70 0.01704
1095.80 0.01704
1095.90 0.01704
1096.00 0.01704
1096.10 0.01704
1096.20 0.01704
1096.30 0.01704
1096.40 0.01704
1096.50 0.01704
1096.60 0.01704
1096.70 0.01704
1096.80 0.01704
1096.90 0.01705
1097.00 0.01705
1097.10 0.01705
1097.20 0.01705
1097.30 0.01705
1097.40 0.01705
1097.50 0.01705
1097.60 0.01705
1097.70 0.01705
1097.80 0.01705
1097.90 0.01705
1098.00 0.01705
1098.10 0.01705
1098.20 0.01705
1098.30 0.01705
1098.40 0.01705
1098.50 0.01705
1098.60 0.01705
1098.70 0.01706
1098.80 0.01706
1098.90 0.01706
1099.00 0.01706
1099.10 0.01706
1099.20 0.01706
1099.30 0.01706
1099.40 0.01706
1099.50 0.01706
1099.60 0.01706
1099.70 0.01706
1099.80 0.01706
1099.90 0.01707
1100.00 0.01707
1100.10 0.01707
1100.20 0.01707
1100.30 0.01707
1100.40 0.01707
1100.50 0.01707
1100.60 0.01707
1100.70 0.01707
1100.80 0.01707
1100.90 0.01708
1101.00 0.01708
1101.10 0.01708
1101.20 0.01708
1101.30 0.01708
1101.40 0.01708
1101.50 0.01708
1101.60 0.01708
1101.70 0.01709
1101.80 0.01709
1101.90 0.01709
1102.00 0.01709
1102.10 0.01709
1102.20 0.01709
1102.30 0.01709
1102.40 0.0171
1102.50 0.0171
1102.60 0.0171
1102.70 0.0171
1102.80 0.0171
1102.90 0.0171
1103.00 0.0171
1103.10 0.01711
1103.20 0.01711
1103.30 0.01711
1103.40 0.01711
1103.50 0.01711
1103.60 0.01711
1103.70 0.01712
1103.80 0.01712
1103.90 0.01712
1104.00 0.01712
1104.10 0.01712
1104.20 0.01712
1104.30 0.01712
1104.40 0.01713
1104.50 0.01713
1104.60 0.01713
1104.70 0.01713
1104.80 0.01713
1104.90 0.01713
1105.00 0.01714
1105.10 0.01714
1105.20 0.01714
1105.30 0.01714
1105.40 0.01714
1105.50 0.01714
1105.60 0.01715
1105.70 0.01715
1105.80 0.01715
1105.90 0.01715
1106.00 0.01715
1106.10 0.01716
1106.20 0.01716
1106.30 0.01716
1106.40 0.01716
1106.50 0.01717
1106.60 0.01717
1106.70 0.01717
1106.80 0.01717
1106.90 0.01717
1107.00 0.01718
1107.10 0.01718
1107.20 0.01718
1107.30 0.01718
1107.40 0.01719
1107.50 0.01719
1107.60 0.01719
1107.70 0.01719
1107.80 0.0172
1107.90 0.0172
1108.00 0.0172
1108.10 0.0172
1108.20 0.01721
1108.30 0.01721
1108.40 0.01721
1108.50 0.01721
1108.60 0.01722
1108.70 0.01722
1108.80 0.01722
1108.90 0.01723
1109.00 0.01723
1109.10 0.01723
1109.20 0.01723
1109.30 0.01724
1109.40 0.01724
1109.50 0.01724
1109.60 0.01724
1109.70 0.01725
1109.80 0.01725
1109.90 0.01725
1110.00 0.01726
1110.10 0.01726
1110.20 0.01726
1110.30 0.01727
1110.40 0.01727
1110.50 0.01727
1110.60 0.01728
1110.70 0.01728
1110.80 0.01728
1110.90 0.01729
1111.00 0.01729
1111.10 0.01729
1111.20 0.0173
1111.30 0.0173
1111.40 0.0173
1111.50 0.0173
1111.60 0.01731
1111.70 0.01731
1111.80 0.01731
1111.90 0.01732
1112.00 0.01732
1112.10 0.01732
1112.20 0.01733
1112.30 0.01733
1112.40 0.01734
1112.50 0.01734
1112.60 0.01734
1112.70 0.01735
1112.80 0.01735
1112.90 0.01735
1113.00 0.01736
1113.10 0.01736
1113.20 0.01736
1113.30 0.01737
1113.40 0.01737
1113.50 0.01737
1113.60 0.01738
1113.70 0.01738
1113.80 0.01739
1113.90 0.01739
1114.00 0.01739
1114.10 0.0174
1114.20 0.0174
1114.30 0.01741
1114.40 0.01741
1114.50 0.01742
1114.60 0.01742
1114.70 0.01742
1114.80 0.01743
1114.90 0.01743
1115.00 0.01744
1115.10 0.01744
1115.20 0.01744
1115.30 0.01745
1115.40 0.01745
1115.50 0.01746
1115.60 0.01746
1115.70 0.01746
1115.80 0.01747
1115.90 0.01747
1116.00 0.01748
1116.10 0.01748
1116.20 0.01748
1116.30 0.01749
1116.40 0.01749
1116.50 0.0175
1116.60 0.0175
1116.70 0.0175
1116.80 0.01751
1116.90 0.01751
1117.00 0.01752
1117.10 0.01752
1117.20 0.01753
1117.30 0.01753
1117.40 0.01754
1117.50 0.01754
1117.60 0.01755
1117.70 0.01755
1117.80 0.01756
1117.90 0.01756
1118.00 0.01756
1118.10 0.01757
1118.20 0.01757
1118.30 0.01758
1118.40 0.01758
1118.50 0.01759
1118.60 0.01759
1118.70 0.0176
1118.80 0.0176
1118.90 0.01761
1119.00 0.01761
1119.10 0.01762
1119.20 0.01762
1119.30 0.01763
1119.40 0.01763
1119.50 0.01764
1119.60 0.01764
1119.70 0.01765
1119.80 0.01765
1119.90 0.01766
1120.00 0.01766
1120.10 0.01767
1120.20 0.01767
1120.30 0.01768
1120.40 0.01768
1120.50 0.01768
1120.60 0.01769
1120.70 0.01769
1120.80 0.0177
1120.90 0.0177
1121.00 0.01771
1121.10 0.01771
1121.20 0.01772
1121.30 0.01772
1121.40 0.01773
1121.50 0.01773
1121.60 0.01774
1121.70 0.01774
1121.80 0.01775
1121.90 0.01775
1122.00 0.01776
1122.10 0.01776
1122.20 0.01777
1122.30 0.01778
1122.40 0.01778
1122.50 0.01779
1122.60 0.0178
1122.70 0.01781
1122.80 0.01781
1122.90 0.01782
1123.00 0.01783
1123.10 0.01783
1123.20 0.01784
1123.30 0.01785
1123.40 0.01785
1123.50 0.01786
1123.60 0.01787
1123.70 0.01788
1123.80 0.01788
1123.90 0.01789
1124.00 0.0179
1124.10 0.0179
1124.20 0.01791
1124.30 0.01792
1124.40 0.01793
1124.50 0.01793
1124.60 0.01794
1124.70 0.01795
1124.80 0.01795
1124.90 0.01796
1125.00 0.01797
1125.10 0.01797
1125.20 0.01798
1125.30 0.01799
1125.40 0.018
1125.50 0.018
1125.60 0.01801
1125.70 0.01802
1125.80 0.01802
1125.90 0.01803
1126.00 0.01804
1126.10 0.01804
1126.20 0.01805
1126.30 0.01806
1126.40 0.01807
1126.50 0.01807
1126.60 0.01808
1126.70 0.01809
1126.80 0.01809
1126.90 0.0181
1127.00 0.01811
1127.10 0.01812
1127.20 0.01813
1127.30 0.01814
1127.40 0.01815
1127.50 0.01815
1127.60 0.01816
1127.70 0.01817
1127.80 0.01818
1127.90 0.01819
1128.00 0.0182
1128.10 0.01821
1128.20 0.01822
1128.30 0.01823
1128.40 0.01824
1128.50 0.01825
1128.60 0.01826
1128.70 0.01827
1128.80 0.01828
1128.90 0.01829
1129.00 0.0183
1129.10 0.01831
1129.20 0.01832
1129.30 0.01832
1129.40 0.01833
1129.50 0.01834
1129.60 0.01835
1129.70 0.01836
1129.80 0.01837
1129.90 0.01838
1130.00 0.01839
1130.10 0.0184
1130.20 0.01841
1130.30 0.01842
1130.40 0.01843
1130.50 0.01844
1130.60 0.01845
1130.70 0.01846
1130.80 0.01847
1130.90 0.01848
1131.00 0.01848
1131.10 0.01849
1131.20 0.0185
1131.30 0.01851
1131.40 0.01852
1131.50 0.01853
1131.60 0.01854
1131.70 0.01855
1131.80 0.01856
1131.90 0.01857
1132.00 0.01858
1132.10 0.01859
1132.20 0.0186
1132.30 0.01861
1132.40 0.01862
1132.50 0.01863
1132.60 0.01864
1132.70 0.01865
1132.80 0.01866
1132.90 0.01867
1133.00 0.01868
1133.10 0.01869
1133.20 0.0187
1133.30 0.01871
1133.40 0.01871
1133.50 0.01872
1133.60 0.01873
1133.70 0.01874
1133.80 0.01875
1133.90 0.01876
1134.00 0.01877
1134.10 0.01878
1134.20 0.01879
1134.30 0.0188
1134.40 0.01881
1134.50 0.01882
1134.60 0.01883
1134.70 0.01884
1134.80 0.01885
1134.90 0.01886
1135.00 0.01887
1135.10 0.01888
1135.20 0.01889
1135.30 0.0189
1135.40 0.01891
1135.50 0.01892
1135.60 0.01893
1135.70 0.01894
1135.80 0.01895
1135.90 0.01896
1136.00 0.01897
1136.10 0.01898
1136.20 0.01899
1136.30 0.019
1136.40 0.019
1136.50 0.01901
1136.60 0.01902
1136.70 0.01903
1136.80 0.01904
1136.90 0.01905
1137.00 0.01906
1137.10 0.01907
1137.20 0.01908
1137.30 0.01909
1137.40 0.01911
1137.50 0.01912
1137.60 0.01913
1137.70 0.01914
1137.80 0.01915
1137.90 0.01916
1138.00 0.01917
1138.10 0.01918
1138.20 0.01919
1138.30 0.0192
1138.40 0.01921
1138.50 0.01922
1138.60 0.01923
1138.70 0.01924
1138.80 0.01925
1138.90 0.01926
1139.00 0.01928
1139.10 0.01929
1139.20 0.0193
1139.30 0.01931
1139.40 0.01932
1139.50 0.01933
1139.60 0.01934
1139.70 0.01935
1139.80 0.01936
1139.90 0.01937
1140.00 0.01938
1140.10 0.01939
1140.20 0.0194
1140.30 0.01941
1140.40 0.01942
1140.50 0.01943
1140.60 0.01944
1140.70 0.01945
1140.80 0.01947
1140.90 0.01948
1141.00 0.01949
1141.10 0.0195
1141.20 0.01951
1141.30 0.01952
1141.40 0.01953
1141.50 0.01954
1141.60 0.01955
1141.70 0.01956
1141.80 0.01957
1141.90 0.01958
1142.00 0.01959
1142.10 0.0196
1142.20 0.01962
1142.30 0.01963
1142.40 0.01964
1142.50 0.01965
1142.60 0.01966
1142.70 0.01968
1142.80 0.01969
1142.90 0.0197
1143.00 0.01971
1143.10 0.01972
1143.20 0.01974
1143.30 0.01975
1143.40 0.01976
1143.50 0.01977
1143.60 0.01979
1143.70 0.0198
1143.80 0.01981
1143.90 0.01982
1144.00 0.01983
1144.10 0.01985
1144.20 0.01986
1144.30 0.01987
1144.40 0.01988
1144.50 0.01989
1144.60 0.01991
1144.70 0.01992
1144.80 0.01993
1144.90 0.01994
1145.00 0.01995
1145.10 0.01997
1145.20 0.01998
1145.30 0.01999
1145.40 0.02
1145.50 0.02001
1145.60 0.02003
1145.70 0.02004
1145.80 0.02005
1145.90 0.02006
1146.00 0.02007
1146.10 0.02009
1146.20 0.0201
1146.30 0.02011
1146.40 0.02012
1146.50 0.02013
1146.60 0.02015
1146.70 0.02016
1146.80 0.02017
1146.90 0.02018
1147.00 0.02019
1147.10 0.0202
1147.20 0.02021
1147.30 0.02023
1147.40 0.02024
1147.50 0.02025
1147.60 0.02026
1147.70 0.02027
1147.80 0.02028
1147.90 0.02029
1148.00 0.0203
1148.10 0.02031
1148.20 0.02032
1148.30 0.02033
1148.40 0.02034
1148.50 0.02035
1148.60 0.02036
1148.70 0.02037
1148.80 0.02039
1148.90 0.0204
1149.00 0.02041
1149.10 0.02042
1149.20 0.02043
1149.30 0.02044
1149.40 0.02045
1149.50 0.02046
1149.60 0.02047
1149.70 0.02048
1149.80 0.02049
1149.90 0.0205
1150.00 0.02051
1150.10 0.02052
1150.20 0.02053
1150.30 0.02054
1150.40 0.02056
1150.50 0.02057
1150.60 0.02058
1150.70 0.02059
1150.80 0.0206
1150.90 0.02061
1151.00 0.02062
1151.10 0.02063
1151.20 0.02064
1151.30 0.02065
1151.40 0.02066
1151.50 0.02067
1151.60 0.02068
1151.70 0.02069
1151.80 0.0207
1151.90 0.02071
1152.00 0.02072
1152.10 0.02074
1152.20 0.02075
1152.30 0.02076
1152.40 0.02077
1152.50 0.02078
1152.60 0.02079
1152.70 0.0208
1152.80 0.02081
1152.90 0.02082
1153.00 0.02083
1153.10 0.02085
1153.20 0.02086
1153.30 0.02087
1153.40 0.02088
1153.50 0.02089
1153.60 0.0209
1153.70 0.02091
1153.80 0.02092
1153.90 0.02093
1154.00 0.02095
1154.10 0.02096
1154.20 0.02097
1154.30 0.02098
1154.40 0.02099
1154.50 0.021
1154.60 0.02101
1154.70 0.02102
1154.80 0.02103
1154.90 0.02104
1155.00 0.02106
1155.10 0.02107
1155.20 0.02108
1155.30 0.02109
1155.40 0.0211
1155.50 0.02111
1155.60 0.02112
1155.70 0.02113
1155.80 0.02114
1155.90 0.02115
1156.00 0.02116
1156.10 0.02118
1156.20 0.02119
1156.30 0.0212
1156.40 0.02121
1156.50 0.02122
1156.60 0.02123
1156.70 0.02124
1156.80 0.02125
1156.90 0.02126
1157.00 0.02127
1157.10 0.02128
1157.20 0.02129
1157.30 0.0213
1157.40 0.02131
1157.50 0.02132
1157.60 0.02133
1157.70 0.02134
1157.80 0.02135
1157.90 0.02136
1158.00 0.02136
1158.10 0.02137
1158.20 0.02138
1158.30 0.02139
1158.40 0.0214
1158.50 0.02141
1158.60 0.02142
1158.70 0.02143
1158.80 0.02144
1158.90 0.02145
1159.00 0.02146
1159.10 0.02146
1159.20 0.02147
1159.30 0.02148
1159.40 0.02149
1159.50 0.0215
1159.60 0.02151
1159.70 0.02152
1159.80 0.02153
1159.90 0.02154
1160.00 0.02155
1160.10 0.02156
1160.20 0.02156
1160.30 0.02157
1160.40 0.02158
1160.50 0.02159
1160.60 0.0216
1160.70 0.02161
1160.80 0.02162
1160.90 0.02163
1161.00 0.02164
1161.10 0.02165
1161.20 0.02165
1161.30 0.02166
1161.40 0.02167
1161.50 0.02168
1161.60 0.02169
1161.70 0.0217
1161.80 0.02171
1161.90 0.02172
1162.00 0.02173
1162.10 0.02173
1162.20 0.02174
1162.30 0.02175
1162.40 0.02176
1162.50 0.02177
1162.60 0.02177
1162.70 0.02178
1162.80 0.02179
1162.90 0.0218
1163.00 0.0218
1163.10 0.02181
1163.20 0.02182
1163.30 0.02183
1163.40 0.02183
1163.50 0.02184
1163.60 0.02185
1163.70 0.02186
1163.80 0.02187
1163.90 0.02187
1164.00 0.02188
1164.10 0.02189
1164.20 0.0219
1164.30 0.0219
1164.40 0.02191
1164.50 0.02192
1164.60 0.02193
1164.70 0.02193
1164.80 0.02194
1164.90 0.02195
1165.00 0.02196
1165.10 0.02197
1165.20 0.02197
1165.30 0.02198
1165.40 0.02199
1165.50 0.022
1165.60 0.022
1165.70 0.02201
1165.80 0.02202
1165.90 0.02203
1166.00 0.02203
1166.10 0.02204
1166.20 0.02205
1166.30 0.02206
1166.40 0.02206
1166.50 0.02207
1166.60 0.02208
1166.70 0.02209
1166.80 0.02209
1166.90 0.0221
1167.00 0.02211
1167.10 0.02212
1167.20 0.02212
1167.30 0.02213
1167.40 0.02214
1167.50 0.02215
1167.60 0.02215
1167.70 0.02216
1167.80 0.02217
1167.90 0.02218
1168.00 0.02218
1168.10 0.02219
1168.20 0.0222
1168.30 0.02221
1168.40 0.02221
1168.50 0.02222
1168.60 0.02223
1168.70 0.02224
1168.80 0.02224
1168.90 0.02225
1169.00 0.02226
1169.10 0.02226
1169.20 0.02227
1169.30 0.02228
1169.40 0.02229
1169.50 0.02229
1169.60 0.0223
1169.70 0.02231
1169.80 0.02232
1169.90 0.02232
1170.00 0.02233
1170.10 0.02234
1170.20 0.02235
1170.30 0.02235
1170.40 0.02236
1170.50 0.02237
1170.60 0.02237
1170.70 0.02238
1170.80 0.02239
1170.90 0.0224
1171.00 0.0224
1171.10 0.02241
1171.20 0.02242
1171.30 0.02243
1171.40 0.02243
1171.50 0.02244
1171.60 0.02245
1171.70 0.02245
1171.80 0.02246
1171.90 0.02247
1172.00 0.02248
1172.10 0.02248
1172.20 0.02248
1172.30 0.02249
1172.40 0.02249
1172.50 0.02249
1172.60 0.0225
1172.70 0.0225
1172.80 0.0225
1172.90 0.02251
1173.00 0.02251
1173.10 0.02252
1173.20 0.02252
1173.30 0.02252
1173.40 0.02253
1173.50 0.02253
1173.60 0.02253
1173.70 0.02254
1173.80 0.02254
1173.90 0.02254
1174.00 0.02255
1174.10 0.02255
1174.20 0.02255
1174.30 0.02256
1174.40 0.02256
1174.50 0.02256
1174.60 0.02257
1174.70 0.02257
1174.80 0.02257
1174.90 0.02258
1175.00 0.02258
1175.10 0.02259
1175.20 0.02259
1175.30 0.02259
1175.40 0.0226
1175.50 0.0226
1175.60 0.0226
1175.70 0.02261
1175.80 0.02261
1175.90 0.02261
1176.00 0.02262
1176.10 0.02262
1176.20 0.02262
1176.30 0.02263
1176.40 0.02263
1176.50 0.02263
1176.60 0.02264
1176.70 0.02264
1176.80 0.02264
1176.90 0.02265
1177.00 0.02265
1177.10 0.02265
1177.20 0.02265
1177.30 0.02265
1177.40 0.02265
1177.50 0.02265
1177.60 0.02266
1177.70 0.02266
1177.80 0.02266
1177.90 0.02266
1178.00 0.02266
1178.10 0.02266
1178.20 0.02266
1178.30 0.02266
1178.40 0.02266
1178.50 0.02266
1178.60 0.02266
1178.70 0.02266
1178.80 0.02266
1178.90 0.02267
1179.00 0.02267
1179.10 0.02267
1179.20 0.02267
1179.30 0.02267
1179.40 0.02267
1179.50 0.02267
1179.60 0.02267
1179.70 0.02267
1179.80 0.02267
1179.90 0.02267
1180.00 0.02267
1180.10 0.02267
1180.20 0.02268
1180.30 0.02268
1180.40 0.02268
1180.50 0.02268
1180.60 0.02268
1180.70 0.02268
1180.80 0.02268
1180.90 0.02268
1181.00 0.02268
1181.10 0.02268
1181.20 0.02268
1181.30 0.02268
1181.40 0.02268
1181.50 0.02268
1181.60 0.02269
1181.70 0.02269
1181.80 0.02269
1181.90 0.02269
1182.00 0.02269
1182.10 0.02269
1182.20 0.02268
1182.30 0.02268
1182.40 0.02267
1182.50 0.02267
1182.60 0.02267
1182.70 0.02266
1182.80 0.02266
1182.90 0.02266
1183.00 0.02265
1183.10 0.02265
1183.20 0.02265
1183.30 0.02264
1183.40 0.02264
1183.50 0.02264
1183.60 0.02263
1183.70 0.02263
1183.80 0.02263
1183.90 0.02262
1184.00 0.02262
1184.10 0.02262
1184.20 0.02261
1184.30 0.02261
1184.40 0.02261
1184.50 0.0226
1184.60 0.0226
1184.70 0.0226
1184.80 0.02259
1184.90 0.02259
1185.00 0.02259
1185.10 0.02258
1185.20 0.02258
1185.30 0.02258
1185.40 0.02257
1185.50 0.02257
1185.60 0.02257
1185.70 0.02256
1185.80 0.02256
1185.90 0.02256
1186.00 0.02255
1186.10 0.02255
1186.20 0.02255
1186.30 0.02254
1186.40 0.02254
1186.50 0.02254
1186.60 0.02253
1186.70 0.02253
1186.80 0.02253
1186.90 0.02252
1187.00 0.02252
1187.10 0.02252
1187.20 0.02252
1187.30 0.02251
1187.40 0.02251
1187.50 0.02251
1187.60 0.02251
1187.70 0.02251
1187.80 0.0225
1187.90 0.0225
1188.00 0.0225
1188.10 0.0225
1188.20 0.02249
1188.30 0.02249
1188.40 0.02249
1188.50 0.02249
1188.60 0.02249
1188.70 0.02248
1188.80 0.02248
1188.90 0.02248
1189.00 0.02248
1189.10 0.02247
1189.20 0.02247
1189.30 0.02247
1189.40 0.02247
1189.50 0.02247
1189.60 0.02246
1189.70 0.02246
1189.80 0.02246
1189.90 0.02246
1190.00 0.02245
1190.10 0.02245
1190.20 0.02245
1190.30 0.02245
1190.40 0.02245
1190.50 0.02244
1190.60 0.02244
1190.70 0.02244
1190.80 0.02244
1190.90 0.02243
1191.00 0.02243
1191.10 0.02243
1191.20 0.02243
1191.30 0.02243
1191.40 0.02242
1191.50 0.02242
1191.60 0.02242
1191.70 0.02242
1191.80 0.02241
1191.90 0.02241
1192.00 0.02241
1192.10 0.02241
1192.20 0.0224
1192.30 0.0224
1192.40 0.0224
1192.50 0.0224
1192.60 0.02239
1192.70 0.02239
1192.80 0.02239
1192.90 0.02238
1193.00 0.02238
1193.10 0.02238
1193.20 0.02238
1193.30 0.02237
1193.40 0.02237
1193.50 0.02237
1193.60 0.02236
1193.70 0.02236
1193.80 0.02236
1193.90 0.02235
1194.00 0.02235
1194.10 0.02235
1194.20 0.02235
1194.30 0.02234
1194.40 0.02234
1194.50 0.02234
1194.60 0.02233
1194.70 0.02233
1194.80 0.02233
1194.90 0.02233
1195.00 0.02232
1195.10 0.02232
1195.20 0.02232
1195.30 0.02231
1195.40 0.02231
1195.50 0.02231
1195.60 0.02231
1195.70 0.0223
1195.80 0.0223
1195.90 0.0223
1196.00 0.02229
1196.10 0.02229
1196.20 0.02229
1196.30 0.02229
1196.40 0.02228
1196.50 0.02228
1196.60 0.02228
1196.70 0.02227
1196.80 0.02227
1196.90 0.02227
1197.00 0.02226
1197.10 0.02226
1197.20 0.02225
1197.30 0.02225
1197.40 0.02224
1197.50 0.02224
1197.60 0.02223
1197.70 0.02223
1197.80 0.02222
1197.90 0.02222
1198.00 0.02221
1198.10 0.02221
1198.20 0.0222
1198.30 0.02219
1198.40 0.02219
1198.50 0.02218
1198.60 0.02218
1198.70 0.02217
1198.80 0.02217
1198.90 0.02216
1199.00 0.02216
1199.10 0.02215
1199.20 0.02215
1199.30 0.02214
1199.40 0.02214
1199.50 0.02213
1199.60 0.02212
1199.70 0.02212
1199.80 0.02211
1199.90 0.02211
1200.00 0
