# Version 2.1 - nm, norm@500 to 1, cut digits, bergeron_60000_65.dat_60000
# Wavelength(nm)  Flambda(ergs/cm^s/s/nm)
300.00 6.384
300.10 6.377
300.20 6.369
300.30 6.361
300.40 6.353
300.50 6.346
300.60 6.338
300.70 6.33
300.80 6.323
300.90 6.315
301.00 6.307
301.10 6.3
301.20 6.292
301.30 6.284
301.40 6.277
301.50 6.269
301.60 6.261
301.70 6.254
301.80 6.246
301.90 6.239
302.00 6.231
302.10 6.223
302.20 6.216
302.30 6.208
302.40 6.201
302.50 6.193
302.60 6.186
302.70 6.178
302.80 6.171
302.90 6.163
303.00 6.156
303.10 6.149
303.20 6.141
303.30 6.134
303.40 6.126
303.50 6.119
303.60 6.112
303.70 6.104
303.80 6.097
303.90 6.089
304.00 6.082
304.10 6.075
304.20 6.068
304.30 6.06
304.40 6.053
304.50 6.046
304.60 6.038
304.70 6.031
304.80 6.024
304.90 6.017
305.00 6.009
305.10 6.002
305.20 5.995
305.30 5.988
305.40 5.981
305.50 5.973
305.60 5.966
305.70 5.959
305.80 5.952
305.90 5.945
306.00 5.938
306.10 5.931
306.20 5.924
306.30 5.916
306.40 5.909
306.50 5.902
306.60 5.895
306.70 5.888
306.80 5.881
306.90 5.874
307.00 5.867
307.10 5.86
307.20 5.853
307.30 5.846
307.40 5.839
307.50 5.832
307.60 5.825
307.70 5.818
307.80 5.811
307.90 5.805
308.00 5.798
308.10 5.791
308.20 5.784
308.30 5.777
308.40 5.77
308.50 5.763
308.60 5.756
308.70 5.75
308.80 5.743
308.90 5.736
309.00 5.729
309.10 5.722
309.20 5.715
309.30 5.709
309.40 5.702
309.50 5.695
309.60 5.688
309.70 5.682
309.80 5.675
309.90 5.668
310.00 5.662
310.10 5.655
310.20 5.648
310.30 5.642
310.40 5.635
310.50 5.628
310.60 5.622
310.70 5.615
310.80 5.608
310.90 5.602
311.00 5.595
311.10 5.588
311.20 5.582
311.30 5.575
311.40 5.569
311.50 5.562
311.60 5.556
311.70 5.549
311.80 5.543
311.90 5.536
312.00 5.53
312.10 5.523
312.20 5.517
312.30 5.51
312.40 5.504
312.50 5.497
312.60 5.491
312.70 5.484
312.80 5.478
312.90 5.471
313.00 5.465
313.10 5.458
313.20 5.452
313.30 5.446
313.40 5.439
313.50 5.433
313.60 5.427
313.70 5.42
313.80 5.414
313.90 5.408
314.00 5.401
314.10 5.395
314.20 5.389
314.30 5.382
314.40 5.376
314.50 5.37
314.60 5.364
314.70 5.357
314.80 5.351
314.90 5.345
315.00 5.339
315.10 5.332
315.20 5.326
315.30 5.32
315.40 5.314
315.50 5.308
315.60 5.301
315.70 5.295
315.80 5.289
315.90 5.283
316.00 5.277
316.10 5.271
316.20 5.265
316.30 5.258
316.40 5.252
316.50 5.246
316.60 5.24
316.70 5.234
316.80 5.228
316.90 5.222
317.00 5.216
317.10 5.21
317.20 5.204
317.30 5.198
317.40 5.192
317.50 5.186
317.60 5.18
317.70 5.174
317.80 5.168
317.90 5.162
318.00 5.156
318.10 5.15
318.20 5.144
318.30 5.138
318.40 5.132
318.50 5.126
318.60 5.12
318.70 5.114
318.80 5.108
318.90 5.103
319.00 5.097
319.10 5.091
319.20 5.085
319.30 5.079
319.40 5.073
319.50 5.067
319.60 5.062
319.70 5.056
319.80 5.05
319.90 5.044
320.00 5.038
320.10 5.033
320.20 5.027
320.30 5.021
320.40 5.015
320.50 5.009
320.60 5.004
320.70 4.998
320.80 4.992
320.90 4.987
321.00 4.981
321.10 4.975
321.20 4.969
321.30 4.964
321.40 4.958
321.50 4.952
321.60 4.947
321.70 4.941
321.80 4.935
321.90 4.93
322.00 4.924
322.10 4.919
322.20 4.913
322.30 4.907
322.40 4.902
322.50 4.896
322.60 4.891
322.70 4.885
322.80 4.879
322.90 4.874
323.00 4.868
323.10 4.863
323.20 4.857
323.30 4.852
323.40 4.846
323.50 4.841
323.60 4.835
323.70 4.83
323.80 4.824
323.90 4.819
324.00 4.813
324.10 4.808
324.20 4.802
324.30 4.797
324.40 4.791
324.50 4.786
324.60 4.781
324.70 4.775
324.80 4.77
324.90 4.764
325.00 4.759
325.10 4.754
325.20 4.748
325.30 4.743
325.40 4.737
325.50 4.732
325.60 4.727
325.70 4.721
325.80 4.716
325.90 4.711
326.00 4.705
326.10 4.7
326.20 4.695
326.30 4.69
326.40 4.684
326.50 4.679
326.60 4.674
326.70 4.668
326.80 4.663
326.90 4.658
327.00 4.653
327.10 4.647
327.20 4.642
327.30 4.637
327.40 4.632
327.50 4.627
327.60 4.621
327.70 4.616
327.80 4.611
327.90 4.606
328.00 4.601
328.10 4.595
328.20 4.59
328.30 4.585
328.40 4.58
328.50 4.575
328.60 4.57
328.70 4.565
328.80 4.56
328.90 4.554
329.00 4.549
329.10 4.544
329.20 4.539
329.30 4.534
329.40 4.529
329.50 4.524
329.60 4.519
329.70 4.514
329.80 4.509
329.90 4.504
330.00 4.499
330.10 4.494
330.20 4.489
330.30 4.484
330.40 4.479
330.50 4.474
330.60 4.469
330.70 4.464
330.80 4.459
330.90 4.454
331.00 4.449
331.10 4.444
331.20 4.439
331.30 4.434
331.40 4.429
331.50 4.424
331.60 4.419
331.70 4.414
331.80 4.409
331.90 4.405
332.00 4.4
332.10 4.395
332.20 4.39
332.30 4.385
332.40 4.38
332.50 4.375
332.60 4.371
332.70 4.366
332.80 4.361
332.90 4.356
333.00 4.351
333.10 4.346
333.20 4.342
333.30 4.337
333.40 4.332
333.50 4.327
333.60 4.322
333.70 4.318
333.80 4.313
333.90 4.308
334.00 4.303
334.10 4.299
334.20 4.294
334.30 4.289
334.40 4.284
334.50 4.28
334.60 4.275
334.70 4.27
334.80 4.266
334.90 4.261
335.00 4.256
335.10 4.251
335.20 4.247
335.30 4.242
335.40 4.237
335.50 4.233
335.60 4.228
335.70 4.223
335.80 4.219
335.90 4.214
336.00 4.21
336.10 4.205
336.20 4.2
336.30 4.196
336.40 4.191
336.50 4.187
336.60 4.182
336.70 4.177
336.80 4.173
336.90 4.168
337.00 4.164
337.10 4.159
337.20 4.155
337.30 4.15
337.40 4.146
337.50 4.141
337.60 4.136
337.70 4.132
337.80 4.127
337.90 4.123
338.00 4.118
338.10 4.114
338.20 4.109
338.30 4.105
338.40 4.1
338.50 4.096
338.60 4.092
338.70 4.087
338.80 4.083
338.90 4.078
339.00 4.074
339.10 4.069
339.20 4.065
339.30 4.06
339.40 4.056
339.50 4.052
339.60 4.047
339.70 4.043
339.80 4.038
339.90 4.034
340.00 4.03
340.10 4.025
340.20 4.021
340.30 4.017
340.40 4.012
340.50 4.008
340.60 4.004
340.70 3.999
340.80 3.995
340.90 3.991
341.00 3.986
341.10 3.982
341.20 3.978
341.30 3.973
341.40 3.969
341.50 3.965
341.60 3.96
341.70 3.956
341.80 3.952
341.90 3.948
342.00 3.943
342.10 3.939
342.20 3.935
342.30 3.931
342.40 3.926
342.50 3.922
342.60 3.918
342.70 3.914
342.80 3.909
342.90 3.905
343.00 3.901
343.10 3.897
343.20 3.893
343.30 3.888
343.40 3.884
343.50 3.88
343.60 3.876
343.70 3.872
343.80 3.868
343.90 3.863
344.00 3.859
344.10 3.855
344.20 3.851
344.30 3.847
344.40 3.843
344.50 3.839
344.60 3.834
344.70 3.83
344.80 3.826
344.90 3.822
345.00 3.818
345.10 3.814
345.20 3.81
345.30 3.806
345.40 3.802
345.50 3.798
345.60 3.794
345.70 3.79
345.80 3.786
345.90 3.781
346.00 3.777
346.10 3.773
346.20 3.769
346.30 3.765
346.40 3.761
346.50 3.757
346.60 3.753
346.70 3.749
346.80 3.745
346.90 3.741
347.00 3.737
347.10 3.733
347.20 3.729
347.30 3.725
347.40 3.721
347.50 3.718
347.60 3.714
347.70 3.71
347.80 3.706
347.90 3.702
348.00 3.698
348.10 3.694
348.20 3.69
348.30 3.686
348.40 3.682
348.50 3.678
348.60 3.674
348.70 3.67
348.80 3.667
348.90 3.663
349.00 3.659
349.10 3.655
349.20 3.651
349.30 3.647
349.40 3.643
349.50 3.639
349.60 3.636
349.70 3.632
349.80 3.628
349.90 3.624
350.00 3.62
350.10 3.616
350.20 3.613
350.30 3.609
350.40 3.605
350.50 3.601
350.60 3.597
350.70 3.594
350.80 3.59
350.90 3.586
351.00 3.582
351.10 3.578
351.20 3.575
351.30 3.571
351.40 3.567
351.50 3.563
351.60 3.56
351.70 3.556
351.80 3.552
351.90 3.548
352.00 3.545
352.10 3.541
352.20 3.537
352.30 3.534
352.40 3.53
352.50 3.526
352.60 3.522
352.70 3.519
352.80 3.515
352.90 3.511
353.00 3.508
353.10 3.504
353.20 3.5
353.30 3.497
353.40 3.493
353.50 3.489
353.60 3.486
353.70 3.482
353.80 3.478
353.90 3.475
354.00 3.471
354.10 3.467
354.20 3.464
354.30 3.46
354.40 3.457
354.50 3.453
354.60 3.449
354.70 3.446
354.80 3.442
354.90 3.439
355.00 3.435
355.10 3.432
355.20 3.428
355.30 3.424
355.40 3.421
355.50 3.417
355.60 3.414
355.70 3.41
355.80 3.407
355.90 3.403
356.00 3.399
356.10 3.396
356.20 3.392
356.30 3.389
356.40 3.385
356.50 3.382
356.60 3.378
356.70 3.375
356.80 3.371
356.90 3.368
357.00 3.364
357.10 3.361
357.20 3.357
357.30 3.354
357.40 3.35
357.50 3.347
357.60 3.343
357.70 3.34
357.80 3.337
357.90 3.333
358.00 3.33
358.10 3.326
358.20 3.323
358.30 3.319
358.40 3.316
358.50 3.313
358.60 3.309
358.70 3.306
358.80 3.302
358.90 3.299
359.00 3.295
359.10 3.292
359.20 3.289
359.30 3.285
359.40 3.282
359.50 3.278
359.60 3.275
359.70 3.272
359.80 3.268
359.90 3.265
360.00 3.262
360.10 3.258
360.20 3.255
360.30 3.252
360.40 3.248
360.50 3.245
360.60 3.242
360.70 3.238
360.80 3.235
360.90 3.232
361.00 3.228
361.10 3.225
361.20 3.222
361.30 3.218
361.40 3.215
361.50 3.212
361.60 3.208
361.70 3.205
361.80 3.202
361.90 3.199
362.00 3.195
362.10 3.192
362.20 3.189
362.30 3.186
362.40 3.182
362.50 3.179
362.60 3.176
362.70 3.172
362.80 3.169
362.90 3.166
363.00 3.163
363.10 3.16
363.20 3.156
363.30 3.153
363.40 3.15
363.50 3.147
363.60 3.143
363.70 3.14
363.80 3.137
363.90 3.134
364.00 3.131
364.10 3.128
364.20 3.124
364.30 3.121
364.40 3.118
364.50 3.115
364.60 3.112
364.70 3.108
364.80 3.105
364.90 3.102
365.00 3.099
365.10 3.096
365.20 3.093
365.30 3.09
365.40 3.086
365.50 3.083
365.60 3.08
365.70 3.077
365.80 3.074
365.90 3.071
366.00 3.068
366.10 3.064
366.20 3.061
366.30 3.058
366.40 3.055
366.50 3.052
366.60 3.048
366.70 3.045
366.80 3.042
366.90 3.039
367.00 3.036
367.10 3.032
367.20 3.029
367.30 3.026
367.40 3.023
367.50 3.02
367.60 3.017
367.70 3.013
367.80 3.01
367.90 3.007
368.00 3.004
368.10 3.001
368.20 2.998
368.30 2.994
368.40 2.991
368.50 2.988
368.60 2.985
368.70 2.982
368.80 2.979
368.90 2.976
369.00 2.973
369.10 2.97
369.20 2.967
369.30 2.963
369.40 2.96
369.50 2.957
369.60 2.954
369.70 2.951
369.80 2.948
369.90 2.945
370.00 2.942
370.10 2.939
370.20 2.936
370.30 2.933
370.40 2.93
370.50 2.927
370.60 2.924
370.70 2.921
370.80 2.918
370.90 2.915
371.00 2.912
371.10 2.909
371.20 2.906
371.30 2.903
371.40 2.9
371.50 2.897
371.60 2.894
371.70 2.891
371.80 2.888
371.90 2.885
372.00 2.882
372.10 2.879
372.20 2.877
372.30 2.874
372.40 2.871
372.50 2.868
372.60 2.866
372.70 2.863
372.80 2.86
372.90 2.857
373.00 2.855
373.10 2.852
373.20 2.849
373.30 2.846
373.40 2.844
373.50 2.841
373.60 2.838
373.70 2.835
373.80 2.833
373.90 2.83
374.00 2.827
374.10 2.825
374.20 2.822
374.30 2.82
374.40 2.817
374.50 2.815
374.60 2.812
374.70 2.809
374.80 2.807
374.90 2.804
375.00 2.802
375.10 2.799
375.20 2.797
375.30 2.794
375.40 2.792
375.50 2.789
375.60 2.787
375.70 2.784
375.80 2.782
375.90 2.779
376.00 2.777
376.10 2.773
376.20 2.77
376.30 2.767
376.40 2.764
376.50 2.761
376.60 2.757
376.70 2.754
376.80 2.751
376.90 2.748
377.00 2.745
377.10 2.743
377.20 2.742
377.30 2.74
377.40 2.739
377.50 2.737
377.60 2.736
377.70 2.734
377.80 2.733
377.90 2.731
378.00 2.73
378.10 2.727
378.20 2.723
378.30 2.72
378.40 2.717
378.50 2.714
378.60 2.711
378.70 2.707
378.80 2.704
378.90 2.701
379.00 2.698
379.10 2.694
379.20 2.69
379.30 2.687
379.40 2.683
379.50 2.679
379.60 2.676
379.70 2.672
379.80 2.668
379.90 2.665
380.00 2.661
380.10 2.661
380.20 2.662
380.30 2.662
380.40 2.662
380.50 2.663
380.60 2.663
380.70 2.663
380.80 2.664
380.90 2.664
381.00 2.664
381.10 2.662
381.20 2.661
381.30 2.659
381.40 2.657
381.50 2.655
381.60 2.652
381.70 2.649
381.80 2.645
381.90 2.641
382.00 2.637
382.10 2.632
382.20 2.626
382.30 2.619
382.40 2.611
382.50 2.604
382.60 2.596
382.70 2.588
382.80 2.581
382.90 2.573
383.00 2.566
383.10 2.558
383.20 2.55
383.30 2.541
383.40 2.532
383.50 2.525
383.60 2.524
383.70 2.528
383.80 2.533
383.90 2.538
384.00 2.544
384.10 2.549
384.20 2.554
384.30 2.558
384.40 2.562
384.50 2.566
384.60 2.569
384.70 2.572
384.80 2.574
384.90 2.576
385.00 2.578
385.10 2.579
385.20 2.58
385.30 2.58
385.40 2.58
385.50 2.58
385.60 2.579
385.70 2.578
385.80 2.577
385.90 2.576
386.00 2.574
386.10 2.571
386.20 2.569
386.30 2.565
386.40 2.562
386.50 2.558
386.60 2.554
386.70 2.549
386.80 2.545
386.90 2.539
387.00 2.533
387.10 2.527
387.20 2.52
387.30 2.512
387.40 2.504
387.50 2.495
387.60 2.486
387.70 2.476
387.80 2.466
387.90 2.454
388.00 2.443
388.10 2.43
388.20 2.416
388.30 2.402
388.40 2.387
388.50 2.372
388.60 2.356
388.70 2.341
388.80 2.329
388.90 2.321
389.00 2.324
389.10 2.332
389.20 2.343
389.30 2.354
389.40 2.366
389.50 2.377
389.60 2.386
389.70 2.396
389.80 2.404
389.90 2.412
390.00 2.419
390.10 2.426
390.20 2.432
390.30 2.437
390.40 2.442
390.50 2.446
390.60 2.45
390.70 2.453
390.80 2.456
390.90 2.459
391.00 2.461
391.10 2.462
391.20 2.464
391.30 2.465
391.40 2.465
391.50 2.466
391.60 2.466
391.70 2.466
391.80 2.465
391.90 2.465
392.00 2.464
392.10 2.463
392.20 2.462
392.30 2.461
392.40 2.459
392.50 2.458
392.60 2.456
392.70 2.454
392.80 2.452
392.90 2.45
393.00 2.448
393.10 2.445
393.20 2.442
393.30 2.44
393.40 2.437
393.50 2.433
393.60 2.43
393.70 2.427
393.80 2.423
393.90 2.419
394.00 2.415
394.10 2.41
394.20 2.406
394.30 2.401
394.40 2.396
394.50 2.39
394.60 2.384
394.70 2.378
394.80 2.371
394.90 2.364
395.00 2.357
395.10 2.349
395.20 2.34
395.30 2.331
395.40 2.321
395.50 2.311
395.60 2.299
395.70 2.287
395.80 2.274
395.90 2.26
396.00 2.245
396.10 2.23
396.20 2.213
396.30 2.195
396.40 2.176
396.50 2.155
396.60 2.134
396.70 2.112
396.80 2.087
396.90 2.063
397.00 2.039
397.10 2.057
397.20 2.077
397.30 2.097
397.40 2.116
397.50 2.134
397.60 2.15
397.70 2.165
397.80 2.179
397.90 2.193
398.00 2.204
398.10 2.215
398.20 2.225
398.30 2.234
398.40 2.241
398.50 2.249
398.60 2.255
398.70 2.261
398.80 2.266
398.90 2.27
399.00 2.274
399.10 2.277
399.20 2.28
399.30 2.283
399.40 2.285
399.50 2.286
399.60 2.288
399.70 2.289
399.80 2.29
399.90 2.29
400.00 2.291
400.10 2.291
400.20 2.291
400.30 2.291
400.40 2.29
400.50 2.29
400.60 2.289
400.70 2.288
400.80 2.288
400.90 2.287
401.00 2.286
401.10 2.284
401.20 2.283
401.30 2.282
401.40 2.281
401.50 2.279
401.60 2.278
401.70 2.276
401.80 2.275
401.90 2.273
402.00 2.271
402.10 2.27
402.20 2.268
402.30 2.266
402.40 2.264
402.50 2.263
402.60 2.261
402.70 2.259
402.80 2.257
402.90 2.255
403.00 2.253
403.10 2.251
403.20 2.249
403.30 2.247
403.40 2.245
403.50 2.243
403.60 2.241
403.70 2.239
403.80 2.237
403.90 2.235
404.00 2.232
404.10 2.23
404.20 2.228
404.30 2.226
404.40 2.224
404.50 2.221
404.60 2.219
404.70 2.217
404.80 2.214
404.90 2.212
405.00 2.209
405.10 2.207
405.20 2.204
405.30 2.202
405.40 2.199
405.50 2.197
405.60 2.194
405.70 2.191
405.80 2.189
405.90 2.186
406.00 2.183
406.10 2.18
406.20 2.177
406.30 2.174
406.40 2.17
406.50 2.167
406.60 2.164
406.70 2.16
406.80 2.157
406.90 2.153
407.00 2.149
407.10 2.145
407.20 2.14
407.30 2.136
407.40 2.131
407.50 2.126
407.60 2.12
407.70 2.115
407.80 2.109
407.90 2.102
408.00 2.096
408.10 2.089
408.20 2.081
408.30 2.072
408.40 2.064
408.50 2.054
408.60 2.043
408.70 2.033
408.80 2.02
408.90 2.008
409.00 1.994
409.10 1.979
409.20 1.963
409.30 1.946
409.40 1.926
409.50 1.906
409.60 1.885
409.70 1.862
409.80 1.836
409.90 1.809
410.00 1.776
410.10 1.753
410.20 1.738
410.30 1.761
410.40 1.787
410.50 1.814
410.60 1.837
410.70 1.857
410.80 1.877
410.90 1.893
411.00 1.909
411.10 1.924
411.20 1.936
411.30 1.948
411.40 1.959
411.50 1.968
411.60 1.977
411.70 1.985
411.80 1.991
411.90 1.997
412.00 2.003
412.10 2.007
412.20 2.011
412.30 2.015
412.40 2.018
412.50 2.02
412.60 2.023
412.70 2.024
412.80 2.026
412.90 2.027
413.00 2.028
413.10 2.029
413.20 2.029
413.30 2.03
413.40 2.03
413.50 2.03
413.60 2.03
413.70 2.029
413.80 2.029
413.90 2.028
414.00 2.028
414.10 2.027
414.20 2.026
414.30 2.025
414.40 2.024
414.50 2.023
414.60 2.022
414.70 2.021
414.80 2.02
414.90 2.019
415.00 2.017
415.10 2.016
415.20 2.015
415.30 2.013
415.40 2.012
415.50 2.011
415.60 2.009
415.70 2.008
415.80 2.006
415.90 2.005
416.00 2.003
416.10 2.002
416.20 2
416.30 1.999
416.40 1.997
416.50 1.995
416.60 1.994
416.70 1.992
416.80 1.991
416.90 1.989
417.00 1.987
417.10 1.986
417.20 1.984
417.30 1.982
417.40 1.981
417.50 1.979
417.60 1.977
417.70 1.976
417.80 1.974
417.90 1.972
418.00 1.971
418.10 1.969
418.20 1.967
418.30 1.966
418.40 1.964
418.50 1.962
418.60 1.961
418.70 1.959
418.80 1.957
418.90 1.956
419.00 1.954
419.10 1.952
419.20 1.95
419.30 1.949
419.40 1.947
419.50 1.945
419.60 1.944
419.70 1.942
419.80 1.94
419.90 1.938
420.00 1.937
420.10 1.935
420.20 1.933
420.30 1.932
420.40 1.93
420.50 1.928
420.60 1.927
420.70 1.925
420.80 1.923
420.90 1.921
421.00 1.92
421.10 1.918
421.20 1.916
421.30 1.915
421.40 1.913
421.50 1.911
421.60 1.909
421.70 1.908
421.80 1.906
421.90 1.904
422.00 1.903
422.10 1.901
422.20 1.899
422.30 1.897
422.40 1.896
422.50 1.894
422.60 1.892
422.70 1.891
422.80 1.889
422.90 1.887
423.00 1.886
423.10 1.884
423.20 1.882
423.30 1.881
423.40 1.879
423.50 1.877
423.60 1.875
423.70 1.874
423.80 1.872
423.90 1.87
424.00 1.869
424.10 1.867
424.20 1.865
424.30 1.864
424.40 1.862
424.50 1.86
424.60 1.858
424.70 1.857
424.80 1.855
424.90 1.853
425.00 1.852
425.10 1.85
425.20 1.848
425.30 1.847
425.40 1.845
425.50 1.843
425.60 1.841
425.70 1.84
425.80 1.838
425.90 1.836
426.00 1.835
426.10 1.833
426.20 1.831
426.30 1.829
426.40 1.828
426.50 1.826
426.60 1.824
426.70 1.822
426.80 1.821
426.90 1.819
427.00 1.817
427.10 1.815
427.20 1.814
427.30 1.812
427.40 1.81
427.50 1.808
427.60 1.807
427.70 1.805
427.80 1.803
427.90 1.801
428.00 1.799
428.10 1.798
428.20 1.796
428.30 1.794
428.40 1.792
428.50 1.79
428.60 1.788
428.70 1.786
428.80 1.784
428.90 1.782
429.00 1.78
429.10 1.778
429.20 1.776
429.30 1.774
429.40 1.772
429.50 1.77
429.60 1.768
429.70 1.766
429.80 1.763
429.90 1.761
430.00 1.759
430.10 1.756
430.20 1.754
430.30 1.751
430.40 1.749
430.50 1.746
430.60 1.743
430.70 1.74
430.80 1.737
430.90 1.734
431.00 1.731
431.10 1.727
431.20 1.724
431.30 1.72
431.40 1.716
431.50 1.712
431.60 1.707
431.70 1.703
431.80 1.698
431.90 1.692
432.00 1.686
432.10 1.68
432.20 1.673
432.30 1.666
432.40 1.658
432.50 1.649
432.60 1.64
432.70 1.63
432.80 1.619
432.90 1.607
433.00 1.595
433.10 1.58
433.20 1.565
433.30 1.549
433.40 1.53
433.50 1.511
433.60 1.49
433.70 1.466
433.80 1.437
433.90 1.404
434.00 1.367
434.10 1.367
434.20 1.403
434.30 1.433
434.40 1.459
434.50 1.481
434.60 1.499
434.70 1.515
434.80 1.531
434.90 1.544
435.00 1.557
435.10 1.568
435.20 1.578
435.30 1.587
435.40 1.595
435.50 1.601
435.60 1.608
435.70 1.613
435.80 1.618
435.90 1.622
436.00 1.626
436.10 1.629
436.20 1.632
436.30 1.634
436.40 1.636
436.50 1.638
436.60 1.639
436.70 1.64
436.80 1.641
436.90 1.642
437.00 1.643
437.10 1.643
437.20 1.643
437.30 1.643
437.40 1.643
437.50 1.643
437.60 1.643
437.70 1.642
437.80 1.642
437.90 1.641
438.00 1.641
438.10 1.64
438.20 1.639
438.30 1.639
438.40 1.638
438.50 1.637
438.60 1.636
438.70 1.635
438.80 1.634
438.90 1.633
439.00 1.632
439.10 1.631
439.20 1.63
439.30 1.629
439.40 1.628
439.50 1.627
439.60 1.626
439.70 1.625
439.80 1.624
439.90 1.622
440.00 1.621
440.10 1.62
440.20 1.619
440.30 1.618
440.40 1.616
440.50 1.615
440.60 1.614
440.70 1.613
440.80 1.612
440.90 1.61
441.00 1.609
441.10 1.608
441.20 1.607
441.30 1.605
441.40 1.604
441.50 1.603
441.60 1.601
441.70 1.6
441.80 1.599
441.90 1.598
442.00 1.596
442.10 1.595
442.20 1.594
442.30 1.592
442.40 1.591
442.50 1.59
442.60 1.589
442.70 1.587
442.80 1.586
442.90 1.585
443.00 1.583
443.10 1.582
443.20 1.581
443.30 1.579
443.40 1.578
443.50 1.577
443.60 1.575
443.70 1.574
443.80 1.573
443.90 1.572
444.00 1.57
444.10 1.569
444.20 1.568
444.30 1.566
444.40 1.565
444.50 1.564
444.60 1.562
444.70 1.561
444.80 1.56
444.90 1.559
445.00 1.557
445.10 1.556
445.20 1.555
445.30 1.553
445.40 1.552
445.50 1.551
445.60 1.549
445.70 1.548
445.80 1.547
445.90 1.546
446.00 1.544
446.10 1.543
446.20 1.542
446.30 1.54
446.40 1.539
446.50 1.538
446.60 1.536
446.70 1.535
446.80 1.534
446.90 1.533
447.00 1.531
447.10 1.53
447.20 1.529
447.30 1.527
447.40 1.526
447.50 1.525
447.60 1.524
447.70 1.522
447.80 1.521
447.90 1.52
448.00 1.518
448.10 1.517
448.20 1.516
448.30 1.515
448.40 1.513
448.50 1.512
448.60 1.511
448.70 1.51
448.80 1.508
448.90 1.507
449.00 1.506
449.10 1.505
449.20 1.503
449.30 1.502
449.40 1.501
449.50 1.499
449.60 1.498
449.70 1.497
449.80 1.496
449.90 1.494
450.00 1.493
450.10 1.492
450.20 1.491
450.30 1.489
450.40 1.488
450.50 1.487
450.60 1.486
450.70 1.484
450.80 1.483
450.90 1.482
451.00 1.481
451.10 1.479
451.20 1.478
451.30 1.477
451.40 1.476
451.50 1.475
451.60 1.473
451.70 1.472
451.80 1.471
451.90 1.47
452.00 1.468
452.10 1.467
452.20 1.466
452.30 1.465
452.40 1.463
452.50 1.462
452.60 1.461
452.70 1.46
452.80 1.459
452.90 1.457
453.00 1.456
453.10 1.455
453.20 1.454
453.30 1.452
453.40 1.451
453.50 1.45
453.60 1.449
453.70 1.448
453.80 1.446
453.90 1.445
454.00 1.444
454.10 1.443
454.20 1.442
454.30 1.44
454.40 1.439
454.50 1.438
454.60 1.437
454.70 1.436
454.80 1.434
454.90 1.433
455.00 1.432
455.10 1.431
455.20 1.43
455.30 1.428
455.40 1.427
455.50 1.426
455.60 1.425
455.70 1.424
455.80 1.422
455.90 1.421
456.00 1.42
456.10 1.419
456.20 1.418
456.30 1.417
456.40 1.415
456.50 1.414
456.60 1.413
456.70 1.412
456.80 1.411
456.90 1.41
457.00 1.408
457.10 1.407
457.20 1.406
457.30 1.405
457.40 1.404
457.50 1.403
457.60 1.401
457.70 1.4
457.80 1.399
457.90 1.398
458.00 1.397
458.10 1.396
458.20 1.394
458.30 1.393
458.40 1.392
458.50 1.391
458.60 1.39
458.70 1.389
458.80 1.387
458.90 1.386
459.00 1.385
459.10 1.384
459.20 1.383
459.30 1.382
459.40 1.381
459.50 1.379
459.60 1.378
459.70 1.377
459.80 1.376
459.90 1.375
460.00 1.374
460.10 1.373
460.20 1.371
460.30 1.37
460.40 1.369
460.50 1.368
460.60 1.367
460.70 1.366
460.80 1.365
460.90 1.364
461.00 1.362
461.10 1.361
461.20 1.36
461.30 1.359
461.40 1.358
461.50 1.357
461.60 1.356
461.70 1.355
461.80 1.354
461.90 1.352
462.00 1.351
462.10 1.35
462.20 1.349
462.30 1.348
462.40 1.347
462.50 1.346
462.60 1.345
462.70 1.344
462.80 1.342
462.90 1.341
463.00 1.34
463.10 1.339
463.20 1.338
463.30 1.337
463.40 1.336
463.50 1.335
463.60 1.334
463.70 1.333
463.80 1.331
463.90 1.33
464.00 1.329
464.10 1.328
464.20 1.327
464.30 1.326
464.40 1.325
464.50 1.324
464.60 1.323
464.70 1.322
464.80 1.321
464.90 1.319
465.00 1.318
465.10 1.317
465.20 1.316
465.30 1.315
465.40 1.314
465.50 1.313
465.60 1.312
465.70 1.311
465.80 1.31
465.90 1.309
466.00 1.308
466.10 1.307
466.20 1.306
466.30 1.304
466.40 1.303
466.50 1.302
466.60 1.301
466.70 1.3
466.80 1.299
466.90 1.298
467.00 1.297
467.10 1.296
467.20 1.295
467.30 1.294
467.40 1.293
467.50 1.292
467.60 1.291
467.70 1.29
467.80 1.289
467.90 1.288
468.00 1.286
468.10 1.285
468.20 1.284
468.30 1.283
468.40 1.282
468.50 1.281
468.60 1.28
468.70 1.279
468.80 1.278
468.90 1.277
469.00 1.276
469.10 1.275
469.20 1.274
469.30 1.273
469.40 1.272
469.50 1.271
469.60 1.27
469.70 1.269
469.80 1.268
469.90 1.267
470.00 1.266
470.10 1.265
470.20 1.264
470.30 1.263
470.40 1.262
470.50 1.261
470.60 1.259
470.70 1.258
470.80 1.257
470.90 1.256
471.00 1.255
471.10 1.254
471.20 1.253
471.30 1.252
471.40 1.251
471.50 1.25
471.60 1.249
471.70 1.248
471.80 1.247
471.90 1.246
472.00 1.245
472.10 1.244
472.20 1.243
472.30 1.242
472.40 1.241
472.50 1.24
472.60 1.239
472.70 1.238
472.80 1.237
472.90 1.236
473.00 1.235
473.10 1.234
473.20 1.233
473.30 1.232
473.40 1.231
473.50 1.23
473.60 1.229
473.70 1.228
473.80 1.227
473.90 1.226
474.00 1.225
474.10 1.224
474.20 1.223
474.30 1.222
474.40 1.221
474.50 1.22
474.60 1.219
474.70 1.218
474.80 1.217
474.90 1.216
475.00 1.215
475.10 1.214
475.20 1.213
475.30 1.212
475.40 1.211
475.50 1.21
475.60 1.209
475.70 1.208
475.80 1.207
475.90 1.206
476.00 1.205
476.10 1.204
476.20 1.203
476.30 1.202
476.40 1.201
476.50 1.2
476.60 1.199
476.70 1.198
476.80 1.197
476.90 1.196
477.00 1.195
477.10 1.194
477.20 1.193
477.30 1.192
477.40 1.191
477.50 1.19
477.60 1.189
477.70 1.188
477.80 1.187
477.90 1.186
478.00 1.185
478.10 1.184
478.20 1.183
478.30 1.182
478.40 1.181
478.50 1.18
478.60 1.179
478.70 1.178
478.80 1.177
478.90 1.176
479.00 1.175
479.10 1.174
479.20 1.173
479.30 1.172
479.40 1.171
479.50 1.17
479.60 1.169
479.70 1.168
479.80 1.167
479.90 1.166
480.00 1.164
480.10 1.163
480.20 1.162
480.30 1.161
480.40 1.16
480.50 1.159
480.60 1.158
480.70 1.157
480.80 1.155
480.90 1.154
481.00 1.153
481.10 1.152
481.20 1.151
481.30 1.15
481.40 1.148
481.50 1.147
481.60 1.146
481.70 1.144
481.80 1.143
481.90 1.142
482.00 1.14
482.10 1.139
482.20 1.137
482.30 1.136
482.40 1.134
482.50 1.132
482.60 1.131
482.70 1.129
482.80 1.127
482.90 1.125
483.00 1.124
483.10 1.122
483.20 1.12
483.30 1.117
483.40 1.114
483.50 1.111
483.60 1.109
483.70 1.106
483.80 1.103
483.90 1.1
484.00 1.098
484.10 1.095
484.20 1.091
484.30 1.086
484.40 1.082
484.50 1.077
484.60 1.073
484.70 1.067
484.80 1.06
484.90 1.053
485.00 1.046
485.10 1.04
485.20 1.031
485.30 1.022
485.40 1.012
485.50 1.001
485.60 0.9887
485.70 0.9755
485.80 0.9579
485.90 0.9383
486.00 0.9081
486.10 0.8692
486.20 0.8765
486.30 0.919
486.40 0.9409
486.50 0.9593
486.60 0.9732
486.70 0.985
486.80 0.995
486.90 1.004
487.00 1.012
487.10 1.019
487.20 1.025
487.30 1.03
487.40 1.035
487.50 1.041
487.60 1.046
487.70 1.049
487.80 1.052
487.90 1.055
488.00 1.057
488.10 1.06
488.20 1.062
488.30 1.063
488.40 1.064
488.50 1.065
488.60 1.066
488.70 1.067
488.80 1.068
488.90 1.069
489.00 1.07
489.10 1.071
489.20 1.071
489.30 1.071
489.40 1.071
489.50 1.071
489.60 1.071
489.70 1.07
489.80 1.07
489.90 1.07
490.00 1.07
490.10 1.07
490.20 1.07
490.30 1.069
490.40 1.069
490.50 1.068
490.60 1.068
490.70 1.067
490.80 1.067
490.90 1.067
491.00 1.066
491.10 1.066
491.20 1.065
491.30 1.064
491.40 1.064
491.50 1.063
491.60 1.063
491.70 1.062
491.80 1.061
491.90 1.061
492.00 1.06
492.10 1.059
492.20 1.059
492.30 1.058
492.40 1.057
492.50 1.057
492.60 1.056
492.70 1.055
492.80 1.054
492.90 1.054
493.00 1.053
493.10 1.052
493.20 1.052
493.30 1.051
493.40 1.05
493.50 1.049
493.60 1.049
493.70 1.048
493.80 1.047
493.90 1.046
494.00 1.046
494.10 1.045
494.20 1.044
494.30 1.043
494.40 1.043
494.50 1.042
494.60 1.041
494.70 1.04
494.80 1.04
494.90 1.039
495.00 1.038
495.10 1.037
495.20 1.037
495.30 1.036
495.40 1.035
495.50 1.034
495.60 1.034
495.70 1.033
495.80 1.032
495.90 1.031
496.00 1.03
496.10 1.03
496.20 1.029
496.30 1.028
496.40 1.027
496.50 1.027
496.60 1.026
496.70 1.025
496.80 1.024
496.90 1.024
497.00 1.023
497.10 1.022
497.20 1.021
497.30 1.021
497.40 1.02
497.50 1.019
497.60 1.018
497.70 1.017
497.80 1.017
497.90 1.016
498.00 1.015
498.10 1.014
498.20 1.014
498.30 1.013
498.40 1.012
498.50 1.011
498.60 1.011
498.70 1.01
498.80 1.009
498.90 1.008
499.00 1.008
499.10 1.007
499.20 1.006
499.30 1.005
499.40 1.005
499.50 1.004
499.60 1.003
499.70 1.002
499.80 1.002
499.90 1.001
500.00 1
500.10 0.9992
500.20 0.9985
500.30 0.9977
500.40 0.997
500.50 0.9962
500.60 0.9955
500.70 0.9947
500.80 0.994
500.90 0.9932
501.00 0.9925
501.10 0.9917
501.20 0.991
501.30 0.9902
501.40 0.9895
501.50 0.9887
501.60 0.988
501.70 0.9873
501.80 0.9865
501.90 0.9858
502.00 0.985
502.10 0.9843
502.20 0.9835
502.30 0.9828
502.40 0.9821
502.50 0.9813
502.60 0.9806
502.70 0.9798
502.80 0.9791
502.90 0.9784
503.00 0.9776
503.10 0.9769
503.20 0.9761
503.30 0.9754
503.40 0.9747
503.50 0.9739
503.60 0.9732
503.70 0.9725
503.80 0.9717
503.90 0.971
504.00 0.9703
504.10 0.9695
504.20 0.9688
504.30 0.9681
504.40 0.9674
504.50 0.9666
504.60 0.9659
504.70 0.9652
504.80 0.9645
504.90 0.9637
505.00 0.963
505.10 0.9623
505.20 0.9616
505.30 0.9608
505.40 0.9601
505.50 0.9594
505.60 0.9587
505.70 0.9579
505.80 0.9572
505.90 0.9565
506.00 0.9558
506.10 0.9551
506.20 0.9544
506.30 0.9536
506.40 0.9529
506.50 0.9522
506.60 0.9515
506.70 0.9508
506.80 0.9501
506.90 0.9494
507.00 0.9486
507.10 0.9479
507.20 0.9472
507.30 0.9465
507.40 0.9458
507.50 0.9451
507.60 0.9444
507.70 0.9437
507.80 0.943
507.90 0.9423
508.00 0.9416
508.10 0.9408
508.20 0.9401
508.30 0.9394
508.40 0.9387
508.50 0.938
508.60 0.9373
508.70 0.9366
508.80 0.9359
508.90 0.9352
509.00 0.9345
509.10 0.9338
509.20 0.9331
509.30 0.9324
509.40 0.9317
509.50 0.931
509.60 0.9304
509.70 0.9297
509.80 0.929
509.90 0.9283
510.00 0.9276
510.10 0.9269
510.20 0.9262
510.30 0.9255
510.40 0.9248
510.50 0.9241
510.60 0.9234
510.70 0.9227
510.80 0.9221
510.90 0.9214
511.00 0.9207
511.10 0.92
511.20 0.9193
511.30 0.9186
511.40 0.9179
511.50 0.9173
511.60 0.9166
511.70 0.9159
511.80 0.9152
511.90 0.9145
512.00 0.9138
512.10 0.9132
512.20 0.9125
512.30 0.9118
512.40 0.9111
512.50 0.9105
512.60 0.9098
512.70 0.9091
512.80 0.9084
512.90 0.9078
513.00 0.9071
513.10 0.9064
513.20 0.9057
513.30 0.9051
513.40 0.9044
513.50 0.9037
513.60 0.903
513.70 0.9024
513.80 0.9017
513.90 0.901
514.00 0.9004
514.10 0.8997
514.20 0.899
514.30 0.8984
514.40 0.8977
514.50 0.897
514.60 0.8964
514.70 0.8957
514.80 0.895
514.90 0.8944
515.00 0.8937
515.10 0.8931
515.20 0.8924
515.30 0.8917
515.40 0.8911
515.50 0.8904
515.60 0.8898
515.70 0.8891
515.80 0.8884
515.90 0.8878
516.00 0.8871
516.10 0.8865
516.20 0.8858
516.30 0.8852
516.40 0.8845
516.50 0.8839
516.60 0.8832
516.70 0.8826
516.80 0.8819
516.90 0.8813
517.00 0.8806
517.10 0.88
517.20 0.8793
517.30 0.8787
517.40 0.878
517.50 0.8774
517.60 0.8767
517.70 0.8761
517.80 0.8754
517.90 0.8748
518.00 0.8741
518.10 0.8735
518.20 0.8729
518.30 0.8722
518.40 0.8716
518.50 0.8709
518.60 0.8703
518.70 0.8697
518.80 0.869
518.90 0.8684
519.00 0.8677
519.10 0.8671
519.20 0.8665
519.30 0.8658
519.40 0.8652
519.50 0.8646
519.60 0.8639
519.70 0.8633
519.80 0.8627
519.90 0.862
520.00 0.8614
520.10 0.8608
520.20 0.8601
520.30 0.8595
520.40 0.8589
520.50 0.8582
520.60 0.8576
520.70 0.857
520.80 0.8564
520.90 0.8557
521.00 0.8551
521.10 0.8545
521.20 0.8538
521.30 0.8532
521.40 0.8526
521.50 0.852
521.60 0.8514
521.70 0.8507
521.80 0.8501
521.90 0.8495
522.00 0.8489
522.10 0.8482
522.20 0.8476
522.30 0.847
522.40 0.8464
522.50 0.8458
522.60 0.8452
522.70 0.8445
522.80 0.8439
522.90 0.8433
523.00 0.8427
523.10 0.8421
523.20 0.8415
523.30 0.8408
523.40 0.8402
523.50 0.8396
523.60 0.839
523.70 0.8384
523.80 0.8378
523.90 0.8372
524.00 0.8366
524.10 0.836
524.20 0.8353
524.30 0.8347
524.40 0.8341
524.50 0.8335
524.60 0.8329
524.70 0.8323
524.80 0.8317
524.90 0.8311
525.00 0.8305
525.10 0.8299
525.20 0.8293
525.30 0.8287
525.40 0.8281
525.50 0.8275
525.60 0.8269
525.70 0.8263
525.80 0.8257
525.90 0.8251
526.00 0.8245
526.10 0.8239
526.20 0.8233
526.30 0.8227
526.40 0.8221
526.50 0.8215
526.60 0.8209
526.70 0.8203
526.80 0.8197
526.90 0.8191
527.00 0.8185
527.10 0.8179
527.20 0.8173
527.30 0.8168
527.40 0.8162
527.50 0.8156
527.60 0.815
527.70 0.8144
527.80 0.8138
527.90 0.8132
528.00 0.8126
528.10 0.812
528.20 0.8115
528.30 0.8109
528.40 0.8103
528.50 0.8097
528.60 0.8091
528.70 0.8085
528.80 0.8079
528.90 0.8074
529.00 0.8068
529.10 0.8062
529.20 0.8056
529.30 0.805
529.40 0.8045
529.50 0.8039
529.60 0.8033
529.70 0.8027
529.80 0.8021
529.90 0.8016
530.00 0.801
530.10 0.8004
530.20 0.7998
530.30 0.7993
530.40 0.7987
530.50 0.7981
530.60 0.7975
530.70 0.797
530.80 0.7964
530.90 0.7958
531.00 0.7952
531.10 0.7947
531.20 0.7941
531.30 0.7935
531.40 0.793
531.50 0.7924
531.60 0.7918
531.70 0.7912
531.80 0.7907
531.90 0.7901
532.00 0.7895
532.10 0.789
532.20 0.7884
532.30 0.7878
532.40 0.7873
532.50 0.7867
532.60 0.7862
532.70 0.7856
532.80 0.785
532.90 0.7845
533.00 0.7839
533.10 0.7833
533.20 0.7828
533.30 0.7822
533.40 0.7817
533.50 0.7811
533.60 0.7805
533.70 0.78
533.80 0.7794
533.90 0.7789
534.00 0.7783
534.10 0.7778
534.20 0.7772
534.30 0.7766
534.40 0.7761
534.50 0.7755
534.60 0.775
534.70 0.7744
534.80 0.7739
534.90 0.7733
535.00 0.7728
535.10 0.7722
535.20 0.7717
535.30 0.7711
535.40 0.7706
535.50 0.77
535.60 0.7695
535.70 0.7689
535.80 0.7684
535.90 0.7678
536.00 0.7673
536.10 0.7667
536.20 0.7662
536.30 0.7656
536.40 0.7651
536.50 0.7645
536.60 0.764
536.70 0.7635
536.80 0.7629
536.90 0.7624
537.00 0.7618
537.10 0.7613
537.20 0.7607
537.30 0.7602
537.40 0.7597
537.50 0.7591
537.60 0.7586
537.70 0.758
537.80 0.7575
537.90 0.757
538.00 0.7564
538.10 0.7559
538.20 0.7554
538.30 0.7548
538.40 0.7543
538.50 0.7538
538.60 0.7532
538.70 0.7527
538.80 0.7521
538.90 0.7516
539.00 0.7511
539.10 0.7505
539.20 0.75
539.30 0.7495
539.40 0.749
539.50 0.7484
539.60 0.7479
539.70 0.7474
539.80 0.7468
539.90 0.7463
540.00 0.7458
540.10 0.7453
540.20 0.7447
540.30 0.7442
540.40 0.7437
540.50 0.7432
540.60 0.7426
540.70 0.7421
540.80 0.7416
540.90 0.7411
541.00 0.7405
541.10 0.74
541.20 0.7395
541.30 0.739
541.40 0.7384
541.50 0.7379
541.60 0.7374
541.70 0.7369
541.80 0.7364
541.90 0.7358
542.00 0.7353
542.10 0.7348
542.20 0.7343
542.30 0.7338
542.40 0.7333
542.50 0.7327
542.60 0.7322
542.70 0.7317
542.80 0.7312
542.90 0.7307
543.00 0.7302
543.10 0.7296
543.20 0.7291
543.30 0.7286
543.40 0.7281
543.50 0.7276
543.60 0.7271
543.70 0.7266
543.80 0.7261
543.90 0.7256
544.00 0.725
544.10 0.7245
544.20 0.724
544.30 0.7235
544.40 0.723
544.50 0.7225
544.60 0.722
544.70 0.7215
544.80 0.721
544.90 0.7205
545.00 0.72
545.10 0.7195
545.20 0.719
545.30 0.7185
545.40 0.718
545.50 0.7175
545.60 0.7169
545.70 0.7164
545.80 0.7159
545.90 0.7154
546.00 0.7149
546.10 0.7144
546.20 0.7139
546.30 0.7134
546.40 0.7129
546.50 0.7124
546.60 0.7119
546.70 0.7114
546.80 0.711
546.90 0.7105
547.00 0.71
547.10 0.7095
547.20 0.709
547.30 0.7085
547.40 0.708
547.50 0.7075
547.60 0.707
547.70 0.7065
547.80 0.706
547.90 0.7055
548.00 0.705
548.10 0.7045
548.20 0.704
548.30 0.7035
548.40 0.7031
548.50 0.7026
548.60 0.7021
548.70 0.7016
548.80 0.7011
548.90 0.7006
549.00 0.7001
549.10 0.6996
549.20 0.6991
549.30 0.6987
549.40 0.6982
549.50 0.6977
549.60 0.6972
549.70 0.6967
549.80 0.6962
549.90 0.6957
550.00 0.6953
550.10 0.6948
550.20 0.6943
550.30 0.6938
550.40 0.6933
550.50 0.6929
550.60 0.6924
550.70 0.6919
550.80 0.6914
550.90 0.6909
551.00 0.6905
551.10 0.69
551.20 0.6895
551.30 0.689
551.40 0.6885
551.50 0.6881
551.60 0.6876
551.70 0.6871
551.80 0.6866
551.90 0.6862
552.00 0.6857
552.10 0.6852
552.20 0.6847
552.30 0.6843
552.40 0.6838
552.50 0.6833
552.60 0.6828
552.70 0.6824
552.80 0.6819
552.90 0.6814
553.00 0.681
553.10 0.6805
553.20 0.68
553.30 0.6795
553.40 0.6791
553.50 0.6786
553.60 0.6781
553.70 0.6777
553.80 0.6772
553.90 0.6767
554.00 0.6763
554.10 0.6758
554.20 0.6753
554.30 0.6749
554.40 0.6744
554.50 0.6739
554.60 0.6735
554.70 0.673
554.80 0.6725
554.90 0.6721
555.00 0.6716
555.10 0.6712
555.20 0.6707
555.30 0.6702
555.40 0.6698
555.50 0.6693
555.60 0.6688
555.70 0.6684
555.80 0.6679
555.90 0.6675
556.00 0.667
556.10 0.6665
556.20 0.6661
556.30 0.6656
556.40 0.6652
556.50 0.6647
556.60 0.6643
556.70 0.6638
556.80 0.6633
556.90 0.6629
557.00 0.6624
557.10 0.662
557.20 0.6615
557.30 0.6611
557.40 0.6606
557.50 0.6602
557.60 0.6597
557.70 0.6593
557.80 0.6588
557.90 0.6584
558.00 0.6579
558.10 0.6575
558.20 0.657
558.30 0.6566
558.40 0.6561
558.50 0.6557
558.60 0.6552
558.70 0.6548
558.80 0.6543
558.90 0.6539
559.00 0.6534
559.10 0.653
559.20 0.6525
559.30 0.6521
559.40 0.6516
559.50 0.6512
559.60 0.6507
559.70 0.6503
559.80 0.6499
559.90 0.6494
560.00 0.649
560.10 0.6485
560.20 0.6481
560.30 0.6476
560.40 0.6472
560.50 0.6468
560.60 0.6463
560.70 0.6459
560.80 0.6454
560.90 0.645
561.00 0.6445
561.10 0.6441
561.20 0.6437
561.30 0.6432
561.40 0.6428
561.50 0.6424
561.60 0.6419
561.70 0.6415
561.80 0.641
561.90 0.6406
562.00 0.6402
562.10 0.6397
562.20 0.6393
562.30 0.6389
562.40 0.6384
562.50 0.638
562.60 0.6376
562.70 0.6371
562.80 0.6367
562.90 0.6363
563.00 0.6358
563.10 0.6354
563.20 0.635
563.30 0.6345
563.40 0.6341
563.50 0.6337
563.60 0.6332
563.70 0.6328
563.80 0.6324
563.90 0.632
564.00 0.6315
564.10 0.6311
564.20 0.6307
564.30 0.6302
564.40 0.6298
564.50 0.6294
564.60 0.629
564.70 0.6285
564.80 0.6281
564.90 0.6277
565.00 0.6273
565.10 0.6268
565.20 0.6264
565.30 0.626
565.40 0.6256
565.50 0.6251
565.60 0.6247
565.70 0.6243
565.80 0.6239
565.90 0.6235
566.00 0.623
566.10 0.6226
566.20 0.6222
566.30 0.6218
566.40 0.6213
566.50 0.6209
566.60 0.6205
566.70 0.6201
566.80 0.6197
566.90 0.6193
567.00 0.6188
567.10 0.6184
567.20 0.618
567.30 0.6176
567.40 0.6172
567.50 0.6167
567.60 0.6163
567.70 0.6159
567.80 0.6155
567.90 0.6151
568.00 0.6147
568.10 0.6143
568.20 0.6138
568.30 0.6134
568.40 0.613
568.50 0.6126
568.60 0.6122
568.70 0.6118
568.80 0.6114
568.90 0.611
569.00 0.6105
569.10 0.6101
569.20 0.6097
569.30 0.6093
569.40 0.6089
569.50 0.6085
569.60 0.6081
569.70 0.6077
569.80 0.6073
569.90 0.6069
570.00 0.6065
570.10 0.606
570.20 0.6056
570.30 0.6052
570.40 0.6048
570.50 0.6044
570.60 0.604
570.70 0.6036
570.80 0.6032
570.90 0.6028
571.00 0.6024
571.10 0.602
571.20 0.6016
571.30 0.6012
571.40 0.6008
571.50 0.6004
571.60 0.6
571.70 0.5996
571.80 0.5992
571.90 0.5988
572.00 0.5984
572.10 0.598
572.20 0.5976
572.30 0.5972
572.40 0.5968
572.50 0.5964
572.60 0.596
572.70 0.5956
572.80 0.5952
572.90 0.5948
573.00 0.5944
573.10 0.594
573.20 0.5936
573.30 0.5932
573.40 0.5928
573.50 0.5924
573.60 0.592
573.70 0.5916
573.80 0.5912
573.90 0.5908
574.00 0.5904
574.10 0.59
574.20 0.5896
574.30 0.5893
574.40 0.5889
574.50 0.5885
574.60 0.5881
574.70 0.5877
574.80 0.5873
574.90 0.5869
575.00 0.5865
575.10 0.5861
575.20 0.5857
575.30 0.5853
575.40 0.585
575.50 0.5846
575.60 0.5842
575.70 0.5838
575.80 0.5834
575.90 0.583
576.00 0.5826
576.10 0.5822
576.20 0.5818
576.30 0.5815
576.40 0.5811
576.50 0.5807
576.60 0.5803
576.70 0.5799
576.80 0.5795
576.90 0.5792
577.00 0.5788
577.10 0.5784
577.20 0.578
577.30 0.5776
577.40 0.5772
577.50 0.5768
577.60 0.5765
577.70 0.5761
577.80 0.5757
577.90 0.5753
578.00 0.5749
578.10 0.5746
578.20 0.5742
578.30 0.5738
578.40 0.5734
578.50 0.573
578.60 0.5727
578.70 0.5723
578.80 0.5719
578.90 0.5715
579.00 0.5711
579.10 0.5708
579.20 0.5704
579.30 0.57
579.40 0.5696
579.50 0.5693
579.60 0.5689
579.70 0.5685
579.80 0.5681
579.90 0.5678
580.00 0.5674
580.10 0.567
580.20 0.5666
580.30 0.5663
580.40 0.5659
580.50 0.5655
580.60 0.5651
580.70 0.5648
580.80 0.5644
580.90 0.564
581.00 0.5637
581.10 0.5633
581.20 0.5629
581.30 0.5625
581.40 0.5622
581.50 0.5618
581.60 0.5614
581.70 0.5611
581.80 0.5607
581.90 0.5603
582.00 0.56
582.10 0.5596
582.20 0.5592
582.30 0.5588
582.40 0.5585
582.50 0.5581
582.60 0.5577
582.70 0.5574
582.80 0.557
582.90 0.5566
583.00 0.5563
583.10 0.5559
583.20 0.5555
583.30 0.5552
583.40 0.5548
583.50 0.5545
583.60 0.5541
583.70 0.5537
583.80 0.5534
583.90 0.553
584.00 0.5526
584.10 0.5523
584.20 0.5519
584.30 0.5516
584.40 0.5512
584.50 0.5508
584.60 0.5505
584.70 0.5501
584.80 0.5497
584.90 0.5494
585.00 0.549
585.10 0.5487
585.20 0.5483
585.30 0.548
585.40 0.5476
585.50 0.5472
585.60 0.5469
585.70 0.5465
585.80 0.5462
585.90 0.5458
586.00 0.5454
586.10 0.5451
586.20 0.5447
586.30 0.5444
586.40 0.544
586.50 0.5437
586.60 0.5433
586.70 0.543
586.80 0.5426
586.90 0.5423
587.00 0.5419
587.10 0.5415
587.20 0.5412
587.30 0.5408
587.40 0.5405
587.50 0.5401
587.60 0.5398
587.70 0.5394
587.80 0.5391
587.90 0.5387
588.00 0.5384
588.10 0.538
588.20 0.5377
588.30 0.5373
588.40 0.537
588.50 0.5366
588.60 0.5363
588.70 0.5359
588.80 0.5356
588.90 0.5352
589.00 0.5349
589.10 0.5345
589.20 0.5342
589.30 0.5338
589.40 0.5335
589.50 0.5331
589.60 0.5328
589.70 0.5324
589.80 0.5321
589.90 0.5318
590.00 0.5314
590.10 0.5311
590.20 0.5307
590.30 0.5304
590.40 0.53
590.50 0.5297
590.60 0.5293
590.70 0.529
590.80 0.5287
590.90 0.5283
591.00 0.528
591.10 0.5276
591.20 0.5273
591.30 0.5269
591.40 0.5266
591.50 0.5263
591.60 0.5259
591.70 0.5256
591.80 0.5252
591.90 0.5249
592.00 0.5246
592.10 0.5242
592.20 0.5239
592.30 0.5235
592.40 0.5232
592.50 0.5229
592.60 0.5225
592.70 0.5222
592.80 0.5219
592.90 0.5215
593.00 0.5212
593.10 0.5208
593.20 0.5205
593.30 0.5202
593.40 0.5198
593.50 0.5195
593.60 0.5192
593.70 0.5188
593.80 0.5185
593.90 0.5182
594.00 0.5178
594.10 0.5175
594.20 0.5172
594.30 0.5168
594.40 0.5165
594.50 0.5162
594.60 0.5158
594.70 0.5155
594.80 0.5152
594.90 0.5148
595.00 0.5145
595.10 0.5142
595.20 0.5138
595.30 0.5135
595.40 0.5132
595.50 0.5128
595.60 0.5125
595.70 0.5122
595.80 0.5119
595.90 0.5115
596.00 0.5112
596.10 0.5109
596.20 0.5105
596.30 0.5102
596.40 0.5099
596.50 0.5096
596.60 0.5092
596.70 0.5089
596.80 0.5086
596.90 0.5082
597.00 0.5079
597.10 0.5076
597.20 0.5073
597.30 0.5069
597.40 0.5066
597.50 0.5063
597.60 0.506
597.70 0.5056
597.80 0.5053
597.90 0.505
598.00 0.5047
598.10 0.5043
598.20 0.504
598.30 0.5037
598.40 0.5034
598.50 0.5031
598.60 0.5027
598.70 0.5024
598.80 0.5021
598.90 0.5018
599.00 0.5014
599.10 0.5011
599.20 0.5008
599.30 0.5005
599.40 0.5002
599.50 0.4998
599.60 0.4995
599.70 0.4992
599.80 0.4989
599.90 0.4986
600.00 0.4983
600.10 0.4979
600.20 0.4976
600.30 0.4973
600.40 0.497
600.50 0.4967
600.60 0.4963
600.70 0.496
600.80 0.4957
600.90 0.4954
601.00 0.4951
601.10 0.4948
601.20 0.4944
601.30 0.4941
601.40 0.4938
601.50 0.4935
601.60 0.4932
601.70 0.4929
601.80 0.4926
601.90 0.4922
602.00 0.4919
602.10 0.4916
602.20 0.4913
602.30 0.491
602.40 0.4907
602.50 0.4904
602.60 0.4901
602.70 0.4897
602.80 0.4894
602.90 0.4891
603.00 0.4888
603.10 0.4885
603.20 0.4882
603.30 0.4879
603.40 0.4876
603.50 0.4873
603.60 0.487
603.70 0.4866
603.80 0.4863
603.90 0.486
604.00 0.4857
604.10 0.4854
604.20 0.4851
604.30 0.4848
604.40 0.4845
604.50 0.4842
604.60 0.4839
604.70 0.4836
604.80 0.4833
604.90 0.483
605.00 0.4826
605.10 0.4823
605.20 0.482
605.30 0.4817
605.40 0.4814
605.50 0.4811
605.60 0.4808
605.70 0.4805
605.80 0.4802
605.90 0.4799
606.00 0.4796
606.10 0.4793
606.20 0.479
606.30 0.4787
606.40 0.4784
606.50 0.4781
606.60 0.4778
606.70 0.4775
606.80 0.4772
606.90 0.4769
607.00 0.4766
607.10 0.4763
607.20 0.476
607.30 0.4757
607.40 0.4754
607.50 0.4751
607.60 0.4748
607.70 0.4745
607.80 0.4742
607.90 0.4739
608.00 0.4736
608.10 0.4733
608.20 0.473
608.30 0.4727
608.40 0.4724
608.50 0.4721
608.60 0.4718
608.70 0.4715
608.80 0.4712
608.90 0.4709
609.00 0.4706
609.10 0.4703
609.20 0.47
609.30 0.4697
609.40 0.4694
609.50 0.4691
609.60 0.4688
609.70 0.4685
609.80 0.4682
609.90 0.4679
610.00 0.4676
610.10 0.4673
610.20 0.4671
610.30 0.4668
610.40 0.4665
610.50 0.4662
610.60 0.4659
610.70 0.4656
610.80 0.4653
610.90 0.465
611.00 0.4647
611.10 0.4644
611.20 0.4641
611.30 0.4638
611.40 0.4635
611.50 0.4633
611.60 0.463
611.70 0.4627
611.80 0.4624
611.90 0.4621
612.00 0.4618
612.10 0.4615
612.20 0.4612
612.30 0.4609
612.40 0.4606
612.50 0.4604
612.60 0.4601
612.70 0.4598
612.80 0.4595
612.90 0.4592
613.00 0.4589
613.10 0.4586
613.20 0.4583
613.30 0.4581
613.40 0.4578
613.50 0.4575
613.60 0.4572
613.70 0.4569
613.80 0.4566
613.90 0.4563
614.00 0.4561
614.10 0.4558
614.20 0.4555
614.30 0.4552
614.40 0.4549
614.50 0.4546
614.60 0.4544
614.70 0.4541
614.80 0.4538
614.90 0.4535
615.00 0.4532
615.10 0.4529
615.20 0.4527
615.30 0.4524
615.40 0.4521
615.50 0.4518
615.60 0.4515
615.70 0.4512
615.80 0.451
615.90 0.4507
616.00 0.4504
616.10 0.4501
616.20 0.4498
616.30 0.4496
616.40 0.4493
616.50 0.449
616.60 0.4487
616.70 0.4484
616.80 0.4482
616.90 0.4479
617.00 0.4476
617.10 0.4473
617.20 0.447
617.30 0.4468
617.40 0.4465
617.50 0.4462
617.60 0.4459
617.70 0.4457
617.80 0.4454
617.90 0.4451
618.00 0.4448
618.10 0.4446
618.20 0.4443
618.30 0.444
618.40 0.4437
618.50 0.4435
618.60 0.4432
618.70 0.4429
618.80 0.4426
618.90 0.4424
619.00 0.4421
619.10 0.4418
619.20 0.4415
619.30 0.4413
619.40 0.441
619.50 0.4407
619.60 0.4404
619.70 0.4402
619.80 0.4399
619.90 0.4396
620.00 0.4393
620.10 0.4391
620.20 0.4388
620.30 0.4385
620.40 0.4383
620.50 0.438
620.60 0.4377
620.70 0.4374
620.80 0.4372
620.90 0.4369
621.00 0.4366
621.10 0.4364
621.20 0.4361
621.30 0.4358
621.40 0.4356
621.50 0.4353
621.60 0.435
621.70 0.4348
621.80 0.4345
621.90 0.4342
622.00 0.4339
622.10 0.4337
622.20 0.4334
622.30 0.4331
622.40 0.4329
622.50 0.4326
622.60 0.4323
622.70 0.4321
622.80 0.4318
622.90 0.4315
623.00 0.4313
623.10 0.431
623.20 0.4307
623.30 0.4305
623.40 0.4302
623.50 0.43
623.60 0.4297
623.70 0.4294
623.80 0.4292
623.90 0.4289
624.00 0.4286
624.10 0.4284
624.20 0.4281
624.30 0.4278
624.40 0.4276
624.50 0.4273
624.60 0.427
624.70 0.4268
624.80 0.4265
624.90 0.4263
625.00 0.426
625.10 0.4257
625.20 0.4255
625.30 0.4252
625.40 0.425
625.50 0.4247
625.60 0.4244
625.70 0.4242
625.80 0.4239
625.90 0.4237
626.00 0.4234
626.10 0.4231
626.20 0.4229
626.30 0.4226
626.40 0.4224
626.50 0.4221
626.60 0.4218
626.70 0.4216
626.80 0.4213
626.90 0.4211
627.00 0.4208
627.10 0.4205
627.20 0.4203
627.30 0.42
627.40 0.4198
627.50 0.4195
627.60 0.4193
627.70 0.419
627.80 0.4187
627.90 0.4185
628.00 0.4182
628.10 0.418
628.20 0.4177
628.30 0.4175
628.40 0.4172
628.50 0.417
628.60 0.4167
628.70 0.4164
628.80 0.4162
628.90 0.4159
629.00 0.4157
629.10 0.4154
629.20 0.4152
629.30 0.4149
629.40 0.4147
629.50 0.4144
629.60 0.4142
629.70 0.4139
629.80 0.4137
629.90 0.4134
630.00 0.4132
630.10 0.4129
630.20 0.4126
630.30 0.4124
630.40 0.4121
630.50 0.4119
630.60 0.4116
630.70 0.4114
630.80 0.4111
630.90 0.4109
631.00 0.4106
631.10 0.4104
631.20 0.4101
631.30 0.4099
631.40 0.4096
631.50 0.4094
631.60 0.4091
631.70 0.4089
631.80 0.4086
631.90 0.4084
632.00 0.4081
632.10 0.4079
632.20 0.4076
632.30 0.4074
632.40 0.4072
632.50 0.4069
632.60 0.4067
632.70 0.4064
632.80 0.4062
632.90 0.4059
633.00 0.4057
633.10 0.4054
633.20 0.4052
633.30 0.4049
633.40 0.4047
633.50 0.4044
633.60 0.4042
633.70 0.4039
633.80 0.4037
633.90 0.4035
634.00 0.4032
634.10 0.403
634.20 0.4027
634.30 0.4025
634.40 0.4022
634.50 0.402
634.60 0.4017
634.70 0.4015
634.80 0.4013
634.90 0.401
635.00 0.4008
635.10 0.4005
635.20 0.4003
635.30 0.4
635.40 0.3998
635.50 0.3996
635.60 0.3993
635.70 0.3991
635.80 0.3988
635.90 0.3986
636.00 0.3983
636.10 0.3981
636.20 0.3979
636.30 0.3976
636.40 0.3974
636.50 0.3971
636.60 0.3969
636.70 0.3967
636.80 0.3964
636.90 0.3962
637.00 0.3959
637.10 0.3957
637.20 0.3955
637.30 0.3952
637.40 0.395
637.50 0.3947
637.60 0.3945
637.70 0.3943
637.80 0.394
637.90 0.3938
638.00 0.3936
638.10 0.3933
638.20 0.3931
638.30 0.3928
638.40 0.3926
638.50 0.3924
638.60 0.3921
638.70 0.3919
638.80 0.3917
638.90 0.3914
639.00 0.3912
639.10 0.3909
639.20 0.3907
639.30 0.3905
639.40 0.3902
639.50 0.39
639.60 0.3898
639.70 0.3895
639.80 0.3893
639.90 0.3891
640.00 0.3888
640.10 0.3886
640.20 0.3884
640.30 0.3881
640.40 0.3879
640.50 0.3877
640.60 0.3874
640.70 0.3872
640.80 0.3869
640.90 0.3867
641.00 0.3865
641.10 0.3862
641.20 0.386
641.30 0.3858
641.40 0.3855
641.50 0.3853
641.60 0.3851
641.70 0.3848
641.80 0.3846
641.90 0.3844
642.00 0.3841
642.10 0.3839
642.20 0.3837
642.30 0.3835
642.40 0.3832
642.50 0.383
642.60 0.3828
642.70 0.3825
642.80 0.3823
642.90 0.3821
643.00 0.3818
643.10 0.3816
643.20 0.3814
643.30 0.3811
643.40 0.3809
643.50 0.3807
643.60 0.3804
643.70 0.3802
643.80 0.38
643.90 0.3798
644.00 0.3795
644.10 0.3793
644.20 0.3791
644.30 0.3788
644.40 0.3786
644.50 0.3784
644.60 0.3781
644.70 0.3779
644.80 0.3777
644.90 0.3774
645.00 0.3772
645.10 0.377
645.20 0.3768
645.30 0.3765
645.40 0.3763
645.50 0.3761
645.60 0.3758
645.70 0.3756
645.80 0.3754
645.90 0.3751
646.00 0.3749
646.10 0.3747
646.20 0.3745
646.30 0.3742
646.40 0.374
646.50 0.3738
646.60 0.3735
646.70 0.3733
646.80 0.3731
646.90 0.3728
647.00 0.3726
647.10 0.3724
647.20 0.3721
647.30 0.3719
647.40 0.3717
647.50 0.3714
647.60 0.3712
647.70 0.371
647.80 0.3707
647.90 0.3705
648.00 0.3703
648.10 0.37
648.20 0.3698
648.30 0.3696
648.40 0.3693
648.50 0.3691
648.60 0.3689
648.70 0.3686
648.80 0.3684
648.90 0.3681
649.00 0.3679
649.10 0.3677
649.20 0.3674
649.30 0.3672
649.40 0.3669
649.50 0.3667
649.60 0.3664
649.70 0.3662
649.80 0.366
649.90 0.3657
650.00 0.3655
650.10 0.3652
650.20 0.365
650.30 0.3647
650.40 0.3644
650.50 0.3642
650.60 0.3639
650.70 0.3636
650.80 0.3634
650.90 0.3631
651.00 0.3628
651.10 0.3626
651.20 0.3623
651.30 0.362
651.40 0.3617
651.50 0.3614
651.60 0.3611
651.70 0.3608
651.80 0.3605
651.90 0.3602
652.00 0.3599
652.10 0.3595
652.20 0.3592
652.30 0.3589
652.40 0.3585
652.50 0.3581
652.60 0.3577
652.70 0.3573
652.80 0.3569
652.90 0.3565
653.00 0.3561
653.10 0.3556
653.20 0.3552
653.30 0.3548
653.40 0.3541
653.50 0.3534
653.60 0.3528
653.70 0.3521
653.80 0.3514
653.90 0.3508
654.00 0.3501
654.10 0.3494
654.20 0.3487
654.30 0.348
654.40 0.3469
654.50 0.3457
654.60 0.3446
654.70 0.3435
654.80 0.3422
654.90 0.3404
655.00 0.3387
655.10 0.3369
655.20 0.3352
655.30 0.3333
655.40 0.3308
655.50 0.3282
655.60 0.3251
655.70 0.3217
655.80 0.3174
655.90 0.3122
656.00 0.3034
656.10 0.2933
656.20 0.2726
656.30 0.2819
656.40 0.2789
656.50 0.297
656.60 0.3056
656.70 0.3132
656.80 0.3172
656.90 0.3209
657.00 0.3236
657.10 0.3262
657.20 0.3283
657.30 0.3302
657.40 0.3316
657.50 0.3329
657.60 0.3343
657.70 0.3356
657.80 0.3369
657.90 0.3376
658.00 0.3383
658.10 0.339
658.20 0.3397
658.30 0.3403
658.40 0.3406
658.50 0.3408
658.60 0.3411
658.70 0.3413
658.80 0.3416
658.90 0.3418
659.00 0.3421
659.10 0.3423
659.20 0.3426
659.30 0.3428
659.40 0.3428
659.50 0.3428
659.60 0.3428
659.70 0.3427
659.80 0.3427
659.90 0.3427
660.00 0.3427
660.10 0.3427
660.20 0.3427
660.30 0.3426
660.40 0.3425
660.50 0.3424
660.60 0.3423
660.70 0.3422
660.80 0.3421
660.90 0.342
661.00 0.3419
661.10 0.3418
661.20 0.3417
661.30 0.3415
661.40 0.3414
661.50 0.3412
661.60 0.3411
661.70 0.3409
661.80 0.3408
661.90 0.3406
662.00 0.3405
662.10 0.3403
662.20 0.3402
662.30 0.34
662.40 0.3399
662.50 0.3397
662.60 0.3395
662.70 0.3394
662.80 0.3392
662.90 0.339
663.00 0.3389
663.10 0.3387
663.20 0.3385
663.30 0.3384
663.40 0.3382
663.50 0.338
663.60 0.3378
663.70 0.3376
663.80 0.3375
663.90 0.3373
664.00 0.3371
664.10 0.3369
664.20 0.3367
664.30 0.3366
664.40 0.3364
664.50 0.3362
664.60 0.336
664.70 0.3358
664.80 0.3357
664.90 0.3355
665.00 0.3353
665.10 0.3351
665.20 0.3349
665.30 0.3347
665.40 0.3346
665.50 0.3344
665.60 0.3342
665.70 0.334
665.80 0.3338
665.90 0.3336
666.00 0.3334
666.10 0.3333
666.20 0.3331
666.30 0.3329
666.40 0.3327
666.50 0.3325
666.60 0.3323
666.70 0.3321
666.80 0.332
666.90 0.3318
667.00 0.3316
667.10 0.3314
667.20 0.3312
667.30 0.331
667.40 0.3308
667.50 0.3307
667.60 0.3305
667.70 0.3303
667.80 0.3301
667.90 0.3299
668.00 0.3297
668.10 0.3295
668.20 0.3294
668.30 0.3292
668.40 0.329
668.50 0.3288
668.60 0.3286
668.70 0.3284
668.80 0.3282
668.90 0.3281
669.00 0.3279
669.10 0.3277
669.20 0.3275
669.30 0.3273
669.40 0.3271
669.50 0.3269
669.60 0.3268
669.70 0.3266
669.80 0.3264
669.90 0.3262
670.00 0.326
670.10 0.3258
670.20 0.3257
670.30 0.3255
670.40 0.3253
670.50 0.3251
670.60 0.3249
670.70 0.3247
670.80 0.3245
670.90 0.3244
671.00 0.3242
671.10 0.324
671.20 0.3238
671.30 0.3236
671.40 0.3234
671.50 0.3233
671.60 0.3231
671.70 0.3229
671.80 0.3227
671.90 0.3225
672.00 0.3223
672.10 0.3222
672.20 0.322
672.30 0.3218
672.40 0.3216
672.50 0.3214
672.60 0.3212
672.70 0.3211
672.80 0.3209
672.90 0.3207
673.00 0.3205
673.10 0.3203
673.20 0.3202
673.30 0.32
673.40 0.3198
673.50 0.3196
673.60 0.3194
673.70 0.3192
673.80 0.3191
673.90 0.3189
674.00 0.3187
674.10 0.3185
674.20 0.3183
674.30 0.3182
674.40 0.318
674.50 0.3178
674.60 0.3176
674.70 0.3174
674.80 0.3173
674.90 0.3171
675.00 0.3169
675.10 0.3167
675.20 0.3165
675.30 0.3164
675.40 0.3162
675.50 0.316
675.60 0.3158
675.70 0.3156
675.80 0.3155
675.90 0.3153
676.00 0.3151
676.10 0.3149
676.20 0.3147
676.30 0.3146
676.40 0.3144
676.50 0.3142
676.60 0.314
676.70 0.3139
676.80 0.3137
676.90 0.3135
677.00 0.3133
677.10 0.3131
677.20 0.313
677.30 0.3128
677.40 0.3126
677.50 0.3124
677.60 0.3123
677.70 0.3121
677.80 0.3119
677.90 0.3117
678.00 0.3116
678.10 0.3114
678.20 0.3112
678.30 0.311
678.40 0.3108
678.50 0.3107
678.60 0.3105
678.70 0.3103
678.80 0.3101
678.90 0.31
679.00 0.3098
679.10 0.3096
679.20 0.3094
679.30 0.3093
679.40 0.3091
679.50 0.3089
679.60 0.3087
679.70 0.3086
679.80 0.3084
679.90 0.3082
680.00 0.308
680.10 0.3079
680.20 0.3077
680.30 0.3075
680.40 0.3074
680.50 0.3072
680.60 0.307
680.70 0.3068
680.80 0.3067
680.90 0.3065
681.00 0.3063
681.10 0.3061
681.20 0.306
681.30 0.3058
681.40 0.3056
681.50 0.3055
681.60 0.3053
681.70 0.3051
681.80 0.3049
681.90 0.3048
682.00 0.3046
682.10 0.3044
682.20 0.3042
682.30 0.3041
682.40 0.3039
682.50 0.3037
682.60 0.3036
682.70 0.3034
682.80 0.3032
682.90 0.3031
683.00 0.3029
683.10 0.3027
683.20 0.3025
683.30 0.3024
683.40 0.3022
683.50 0.302
683.60 0.3019
683.70 0.3017
683.80 0.3015
683.90 0.3014
684.00 0.3012
684.10 0.301
684.20 0.3008
684.30 0.3007
684.40 0.3005
684.50 0.3003
684.60 0.3002
684.70 0.3
684.80 0.2998
684.90 0.2997
685.00 0.2995
685.10 0.2993
685.20 0.2992
685.30 0.299
685.40 0.2988
685.50 0.2987
685.60 0.2985
685.70 0.2983
685.80 0.2982
685.90 0.298
686.00 0.2978
686.10 0.2977
686.20 0.2975
686.30 0.2973
686.40 0.2972
686.50 0.297
686.60 0.2968
686.70 0.2967
686.80 0.2965
686.90 0.2963
687.00 0.2962
687.10 0.296
687.20 0.2958
687.30 0.2957
687.40 0.2955
687.50 0.2953
687.60 0.2952
687.70 0.295
687.80 0.2948
687.90 0.2947
688.00 0.2945
688.10 0.2943
688.20 0.2942
688.30 0.294
688.40 0.2938
688.50 0.2937
688.60 0.2935
688.70 0.2934
688.80 0.2932
688.90 0.293
689.00 0.2929
689.10 0.2927
689.20 0.2925
689.30 0.2924
689.40 0.2922
689.50 0.292
689.60 0.2919
689.70 0.2917
689.80 0.2916
689.90 0.2914
690.00 0.2912
690.10 0.2911
690.20 0.2909
690.30 0.2908
690.40 0.2906
690.50 0.2904
690.60 0.2903
690.70 0.2901
690.80 0.2899
690.90 0.2898
691.00 0.2896
691.10 0.2895
691.20 0.2893
691.30 0.2891
691.40 0.289
691.50 0.2888
691.60 0.2887
691.70 0.2885
691.80 0.2883
691.90 0.2882
692.00 0.288
692.10 0.2879
692.20 0.2877
692.30 0.2875
692.40 0.2874
692.50 0.2872
692.60 0.2871
692.70 0.2869
692.80 0.2867
692.90 0.2866
693.00 0.2864
693.10 0.2863
693.20 0.2861
693.30 0.2859
693.40 0.2858
693.50 0.2856
693.60 0.2855
693.70 0.2853
693.80 0.2852
693.90 0.285
694.00 0.2848
694.10 0.2847
694.20 0.2845
694.30 0.2844
694.40 0.2842
694.50 0.284
694.60 0.2839
694.70 0.2837
694.80 0.2836
694.90 0.2834
695.00 0.2833
695.10 0.2831
695.20 0.2829
695.30 0.2828
695.40 0.2826
695.50 0.2825
695.60 0.2823
695.70 0.2822
695.80 0.282
695.90 0.2819
696.00 0.2817
696.10 0.2815
696.20 0.2814
696.30 0.2812
696.40 0.2811
696.50 0.2809
696.60 0.2808
696.70 0.2806
696.80 0.2805
696.90 0.2803
697.00 0.2801
697.10 0.28
697.20 0.2798
697.30 0.2797
697.40 0.2795
697.50 0.2794
697.60 0.2792
697.70 0.2791
697.80 0.2789
697.90 0.2788
698.00 0.2786
698.10 0.2785
698.20 0.2783
698.30 0.2781
698.40 0.278
698.50 0.2778
698.60 0.2777
698.70 0.2775
698.80 0.2774
698.90 0.2772
699.00 0.2771
699.10 0.2769
699.20 0.2768
699.30 0.2766
699.40 0.2765
699.50 0.2763
699.60 0.2762
699.70 0.276
699.80 0.2758
699.90 0.2757
700.00 0.2755
700.10 0.2754
700.20 0.2752
700.30 0.2751
700.40 0.2749
700.50 0.2748
700.60 0.2746
700.70 0.2745
700.80 0.2743
700.90 0.2742
701.00 0.274
701.10 0.2739
701.20 0.2737
701.30 0.2736
701.40 0.2734
701.50 0.2733
701.60 0.2731
701.70 0.273
701.80 0.2728
701.90 0.2727
702.00 0.2725
702.10 0.2724
702.20 0.2722
702.30 0.2721
702.40 0.2719
702.50 0.2718
702.60 0.2716
702.70 0.2715
702.80 0.2713
702.90 0.2712
703.00 0.2711
703.10 0.2709
703.20 0.2708
703.30 0.2706
703.40 0.2705
703.50 0.2703
703.60 0.2702
703.70 0.27
703.80 0.2699
703.90 0.2697
704.00 0.2696
704.10 0.2694
704.20 0.2693
704.30 0.2691
704.40 0.269
704.50 0.2688
704.60 0.2687
704.70 0.2685
704.80 0.2684
704.90 0.2682
705.00 0.2681
705.10 0.2679
705.20 0.2678
705.30 0.2677
705.40 0.2675
705.50 0.2674
705.60 0.2672
705.70 0.2671
705.80 0.2669
705.90 0.2668
706.00 0.2666
706.10 0.2665
706.20 0.2664
706.30 0.2662
706.40 0.2661
706.50 0.2659
706.60 0.2658
706.70 0.2656
706.80 0.2655
706.90 0.2653
707.00 0.2652
707.10 0.265
707.20 0.2649
707.30 0.2648
707.40 0.2646
707.50 0.2645
707.60 0.2643
707.70 0.2642
707.80 0.264
707.90 0.2639
708.00 0.2638
708.10 0.2636
708.20 0.2635
708.30 0.2633
708.40 0.2632
708.50 0.263
708.60 0.2629
708.70 0.2627
708.80 0.2626
708.90 0.2625
709.00 0.2623
709.10 0.2622
709.20 0.262
709.30 0.2619
709.40 0.2617
709.50 0.2616
709.60 0.2615
709.70 0.2613
709.80 0.2612
709.90 0.261
710.00 0.2609
710.10 0.2608
710.20 0.2606
710.30 0.2605
710.40 0.2603
710.50 0.2602
710.60 0.2601
710.70 0.2599
710.80 0.2598
710.90 0.2596
711.00 0.2595
711.10 0.2593
711.20 0.2592
711.30 0.2591
711.40 0.2589
711.50 0.2588
711.60 0.2586
711.70 0.2585
711.80 0.2584
711.90 0.2582
712.00 0.2581
712.10 0.258
712.20 0.2578
712.30 0.2577
712.40 0.2575
712.50 0.2574
712.60 0.2573
712.70 0.2571
712.80 0.257
712.90 0.2568
713.00 0.2567
713.10 0.2566
713.20 0.2564
713.30 0.2563
713.40 0.2561
713.50 0.256
713.60 0.2559
713.70 0.2557
713.80 0.2556
713.90 0.2555
714.00 0.2553
714.10 0.2552
714.20 0.255
714.30 0.2549
714.40 0.2548
714.50 0.2546
714.60 0.2545
714.70 0.2543
714.80 0.2542
714.90 0.2541
715.00 0.2539
715.10 0.2538
715.20 0.2537
715.30 0.2535
715.40 0.2534
715.50 0.2533
715.60 0.2531
715.70 0.253
715.80 0.2528
715.90 0.2527
716.00 0.2526
716.10 0.2524
716.20 0.2523
716.30 0.2522
716.40 0.252
716.50 0.2519
716.60 0.2518
716.70 0.2516
716.80 0.2515
716.90 0.2514
717.00 0.2512
717.10 0.2511
717.20 0.251
717.30 0.2508
717.40 0.2507
717.50 0.2506
717.60 0.2504
717.70 0.2503
717.80 0.2501
717.90 0.25
718.00 0.2499
718.10 0.2497
718.20 0.2496
718.30 0.2495
718.40 0.2493
718.50 0.2492
718.60 0.2491
718.70 0.2489
718.80 0.2488
718.90 0.2487
719.00 0.2485
719.10 0.2484
719.20 0.2483
719.30 0.2481
719.40 0.248
719.50 0.2479
719.60 0.2477
719.70 0.2476
719.80 0.2475
719.90 0.2473
720.00 0.2472
720.10 0.2471
720.20 0.2469
720.30 0.2468
720.40 0.2467
720.50 0.2466
720.60 0.2464
720.70 0.2463
720.80 0.2462
720.90 0.246
721.00 0.2459
721.10 0.2458
721.20 0.2456
721.30 0.2455
721.40 0.2454
721.50 0.2452
721.60 0.2451
721.70 0.245
721.80 0.2448
721.90 0.2447
722.00 0.2446
722.10 0.2445
722.20 0.2443
722.30 0.2442
722.40 0.2441
722.50 0.2439
722.60 0.2438
722.70 0.2437
722.80 0.2435
722.90 0.2434
723.00 0.2433
723.10 0.2432
723.20 0.243
723.30 0.2429
723.40 0.2428
723.50 0.2426
723.60 0.2425
723.70 0.2424
723.80 0.2422
723.90 0.2421
724.00 0.242
724.10 0.2419
724.20 0.2417
724.30 0.2416
724.40 0.2415
724.50 0.2413
724.60 0.2412
724.70 0.2411
724.80 0.241
724.90 0.2408
725.00 0.2407
725.10 0.2406
725.20 0.2404
725.30 0.2403
725.40 0.2402
725.50 0.2401
725.60 0.2399
725.70 0.2398
725.80 0.2397
725.90 0.2396
726.00 0.2394
726.10 0.2393
726.20 0.2392
726.30 0.2391
726.40 0.2389
726.50 0.2388
726.60 0.2387
726.70 0.2385
726.80 0.2384
726.90 0.2383
727.00 0.2382
727.10 0.238
727.20 0.2379
727.30 0.2378
727.40 0.2377
727.50 0.2375
727.60 0.2374
727.70 0.2373
727.80 0.2372
727.90 0.237
728.00 0.2369
728.10 0.2368
728.20 0.2367
728.30 0.2365
728.40 0.2364
728.50 0.2363
728.60 0.2362
728.70 0.236
728.80 0.2359
728.90 0.2358
729.00 0.2357
729.10 0.2355
729.20 0.2354
729.30 0.2353
729.40 0.2352
729.50 0.235
729.60 0.2349
729.70 0.2348
729.80 0.2347
729.90 0.2345
730.00 0.2344
730.10 0.2343
730.20 0.2342
730.30 0.234
730.40 0.2339
730.50 0.2338
730.60 0.2337
730.70 0.2336
730.80 0.2334
730.90 0.2333
731.00 0.2332
731.10 0.2331
731.20 0.2329
731.30 0.2328
731.40 0.2327
731.50 0.2326
731.60 0.2325
731.70 0.2323
731.80 0.2322
731.90 0.2321
732.00 0.232
732.10 0.2318
732.20 0.2317
732.30 0.2316
732.40 0.2315
732.50 0.2314
732.60 0.2312
732.70 0.2311
732.80 0.231
732.90 0.2309
733.00 0.2308
733.10 0.2306
733.20 0.2305
733.30 0.2304
733.40 0.2303
733.50 0.2302
733.60 0.23
733.70 0.2299
733.80 0.2298
733.90 0.2297
734.00 0.2295
734.10 0.2294
734.20 0.2293
734.30 0.2292
734.40 0.2291
734.50 0.2289
734.60 0.2288
734.70 0.2287
734.80 0.2286
734.90 0.2285
735.00 0.2283
735.10 0.2282
735.20 0.2281
735.30 0.228
735.40 0.2279
735.50 0.2278
735.60 0.2276
735.70 0.2275
735.80 0.2274
735.90 0.2273
736.00 0.2272
736.10 0.227
736.20 0.2269
736.30 0.2268
736.40 0.2267
736.50 0.2266
736.60 0.2264
736.70 0.2263
736.80 0.2262
736.90 0.2261
737.00 0.226
737.10 0.2258
737.20 0.2257
737.30 0.2256
737.40 0.2255
737.50 0.2254
737.60 0.2253
737.70 0.2251
737.80 0.225
737.90 0.2249
738.00 0.2248
738.10 0.2247
738.20 0.2245
738.30 0.2244
738.40 0.2243
738.50 0.2242
738.60 0.2241
738.70 0.224
738.80 0.2238
738.90 0.2237
739.00 0.2236
739.10 0.2235
739.20 0.2234
739.30 0.2232
739.40 0.2231
739.50 0.223
739.60 0.2229
739.70 0.2228
739.80 0.2227
739.90 0.2225
740.00 0.2224
740.10 0.2223
740.20 0.2222
740.30 0.2221
740.40 0.222
740.50 0.2219
740.60 0.2217
740.70 0.2216
740.80 0.2215
740.90 0.2214
741.00 0.2213
741.10 0.2212
741.20 0.2211
741.30 0.2209
741.40 0.2208
741.50 0.2207
741.60 0.2206
741.70 0.2205
741.80 0.2204
741.90 0.2203
742.00 0.2201
742.10 0.22
742.20 0.2199
742.30 0.2198
742.40 0.2197
742.50 0.2196
742.60 0.2195
742.70 0.2193
742.80 0.2192
742.90 0.2191
743.00 0.219
743.10 0.2189
743.20 0.2188
743.30 0.2187
743.40 0.2186
743.50 0.2184
743.60 0.2183
743.70 0.2182
743.80 0.2181
743.90 0.218
744.00 0.2179
744.10 0.2178
744.20 0.2177
744.30 0.2175
744.40 0.2174
744.50 0.2173
744.60 0.2172
744.70 0.2171
744.80 0.217
744.90 0.2169
745.00 0.2168
745.10 0.2166
745.20 0.2165
745.30 0.2164
745.40 0.2163
745.50 0.2162
745.60 0.2161
745.70 0.216
745.80 0.2159
745.90 0.2157
746.00 0.2156
746.10 0.2155
746.20 0.2154
746.30 0.2153
746.40 0.2152
746.50 0.2151
746.60 0.215
746.70 0.2149
746.80 0.2147
746.90 0.2146
747.00 0.2145
747.10 0.2144
747.20 0.2143
747.30 0.2142
747.40 0.2141
747.50 0.214
747.60 0.2139
747.70 0.2137
747.80 0.2136
747.90 0.2135
748.00 0.2134
748.10 0.2133
748.20 0.2132
748.30 0.2131
748.40 0.213
748.50 0.2129
748.60 0.2127
748.70 0.2126
748.80 0.2125
748.90 0.2124
749.00 0.2123
749.10 0.2122
749.20 0.2121
749.30 0.212
749.40 0.2119
749.50 0.2118
749.60 0.2116
749.70 0.2115
749.80 0.2114
749.90 0.2113
750.00 0.2112
750.10 0.2111
750.20 0.211
750.30 0.2109
750.40 0.2108
750.50 0.2107
750.60 0.2106
750.70 0.2105
750.80 0.2103
750.90 0.2102
751.00 0.2101
751.10 0.21
751.20 0.2099
751.30 0.2098
751.40 0.2097
751.50 0.2096
751.60 0.2095
751.70 0.2094
751.80 0.2093
751.90 0.2092
752.00 0.2091
752.10 0.209
752.20 0.2088
752.30 0.2087
752.40 0.2086
752.50 0.2085
752.60 0.2084
752.70 0.2083
752.80 0.2082
752.90 0.2081
753.00 0.208
753.10 0.2079
753.20 0.2078
753.30 0.2077
753.40 0.2076
753.50 0.2075
753.60 0.2074
753.70 0.2073
753.80 0.2072
753.90 0.207
754.00 0.2069
754.10 0.2068
754.20 0.2067
754.30 0.2066
754.40 0.2065
754.50 0.2064
754.60 0.2063
754.70 0.2062
754.80 0.2061
754.90 0.206
755.00 0.2059
755.10 0.2058
755.20 0.2057
755.30 0.2056
755.40 0.2055
755.50 0.2054
755.60 0.2053
755.70 0.2051
755.80 0.205
755.90 0.2049
756.00 0.2048
756.10 0.2047
756.20 0.2046
756.30 0.2045
756.40 0.2044
756.50 0.2043
756.60 0.2042
756.70 0.2041
756.80 0.204
756.90 0.2039
757.00 0.2038
757.10 0.2037
757.20 0.2036
757.30 0.2035
757.40 0.2034
757.50 0.2033
757.60 0.2032
757.70 0.2031
757.80 0.203
757.90 0.2029
758.00 0.2027
758.10 0.2026
758.20 0.2025
758.30 0.2024
758.40 0.2023
758.50 0.2022
758.60 0.2021
758.70 0.202
758.80 0.2019
758.90 0.2018
759.00 0.2017
759.10 0.2016
759.20 0.2015
759.30 0.2014
759.40 0.2013
759.50 0.2012
759.60 0.2011
759.70 0.201
759.80 0.2009
759.90 0.2008
760.00 0.2007
760.10 0.2006
760.20 0.2005
760.30 0.2004
760.40 0.2003
760.50 0.2002
760.60 0.2001
760.70 0.2
760.80 0.1999
760.90 0.1998
761.00 0.1997
761.10 0.1996
761.20 0.1995
761.30 0.1994
761.40 0.1993
761.50 0.1992
761.60 0.1991
761.70 0.199
761.80 0.1989
761.90 0.1988
762.00 0.1987
762.10 0.1986
762.20 0.1985
762.30 0.1984
762.40 0.1983
762.50 0.1982
762.60 0.1981
762.70 0.198
762.80 0.1979
762.90 0.1978
763.00 0.1977
763.10 0.1976
763.20 0.1975
763.30 0.1974
763.40 0.1973
763.50 0.1972
763.60 0.1971
763.70 0.197
763.80 0.1969
763.90 0.1968
764.00 0.1967
764.10 0.1966
764.20 0.1965
764.30 0.1964
764.40 0.1963
764.50 0.1962
764.60 0.1961
764.70 0.196
764.80 0.1959
764.90 0.1958
765.00 0.1957
765.10 0.1956
765.20 0.1955
765.30 0.1954
765.40 0.1953
765.50 0.1952
765.60 0.1951
765.70 0.195
765.80 0.1949
765.90 0.1948
766.00 0.1947
766.10 0.1946
766.20 0.1945
766.30 0.1944
766.40 0.1943
766.50 0.1942
766.60 0.1941
766.70 0.194
766.80 0.1939
766.90 0.1938
767.00 0.1937
767.10 0.1936
767.20 0.1935
767.30 0.1934
767.40 0.1933
767.50 0.1932
767.60 0.1931
767.70 0.193
767.80 0.1929
767.90 0.1928
768.00 0.1927
768.10 0.1927
768.20 0.1926
768.30 0.1925
768.40 0.1924
768.50 0.1923
768.60 0.1922
768.70 0.1921
768.80 0.192
768.90 0.1919
769.00 0.1918
769.10 0.1917
769.20 0.1916
769.30 0.1915
769.40 0.1914
769.50 0.1913
769.60 0.1912
769.70 0.1911
769.80 0.191
769.90 0.1909
770.00 0.1908
770.10 0.1907
770.20 0.1906
770.30 0.1905
770.40 0.1904
770.50 0.1903
770.60 0.1902
770.70 0.1901
770.80 0.1901
770.90 0.19
771.00 0.1899
771.10 0.1898
771.20 0.1897
771.30 0.1896
771.40 0.1895
771.50 0.1894
771.60 0.1893
771.70 0.1892
771.80 0.1891
771.90 0.189
772.00 0.1889
772.10 0.1888
772.20 0.1887
772.30 0.1886
772.40 0.1885
772.50 0.1885
772.60 0.1884
772.70 0.1883
772.80 0.1882
772.90 0.1881
773.00 0.188
773.10 0.1879
773.20 0.1878
773.30 0.1877
773.40 0.1876
773.50 0.1875
773.60 0.1874
773.70 0.1873
773.80 0.1872
773.90 0.1871
774.00 0.1871
774.10 0.187
774.20 0.1869
774.30 0.1868
774.40 0.1867
774.50 0.1866
774.60 0.1865
774.70 0.1864
774.80 0.1863
774.90 0.1862
775.00 0.1861
775.10 0.186
775.20 0.1859
775.30 0.1858
775.40 0.1858
775.50 0.1857
775.60 0.1856
775.70 0.1855
775.80 0.1854
775.90 0.1853
776.00 0.1852
776.10 0.1851
776.20 0.185
776.30 0.1849
776.40 0.1848
776.50 0.1847
776.60 0.1846
776.70 0.1846
776.80 0.1845
776.90 0.1844
777.00 0.1843
777.10 0.1842
777.20 0.1841
777.30 0.184
777.40 0.1839
777.50 0.1838
777.60 0.1837
777.70 0.1836
777.80 0.1835
777.90 0.1834
778.00 0.1834
778.10 0.1833
778.20 0.1832
778.30 0.1831
778.40 0.183
778.50 0.1829
778.60 0.1828
778.70 0.1827
778.80 0.1826
778.90 0.1825
779.00 0.1824
779.10 0.1824
779.20 0.1823
779.30 0.1822
779.40 0.1821
779.50 0.182
779.60 0.1819
779.70 0.1818
779.80 0.1817
779.90 0.1816
780.00 0.1815
780.10 0.1814
780.20 0.1814
780.30 0.1813
780.40 0.1812
780.50 0.1811
780.60 0.181
780.70 0.1809
780.80 0.1808
780.90 0.1807
781.00 0.1806
781.10 0.1806
781.20 0.1805
781.30 0.1804
781.40 0.1803
781.50 0.1802
781.60 0.1801
781.70 0.18
781.80 0.1799
781.90 0.1799
782.00 0.1798
782.10 0.1797
782.20 0.1796
782.30 0.1795
782.40 0.1794
782.50 0.1793
782.60 0.1792
782.70 0.1791
782.80 0.1791
782.90 0.179
783.00 0.1789
783.10 0.1788
783.20 0.1787
783.30 0.1786
783.40 0.1785
783.50 0.1784
783.60 0.1784
783.70 0.1783
783.80 0.1782
783.90 0.1781
784.00 0.178
784.10 0.1779
784.20 0.1778
784.30 0.1777
784.40 0.1777
784.50 0.1776
784.60 0.1775
784.70 0.1774
784.80 0.1773
784.90 0.1772
785.00 0.1771
785.10 0.177
785.20 0.177
785.30 0.1769
785.40 0.1768
785.50 0.1767
785.60 0.1766
785.70 0.1765
785.80 0.1764
785.90 0.1763
786.00 0.1763
786.10 0.1762
786.20 0.1761
786.30 0.176
786.40 0.1759
786.50 0.1758
786.60 0.1757
786.70 0.1757
786.80 0.1756
786.90 0.1755
787.00 0.1754
787.10 0.1753
787.20 0.1752
787.30 0.1751
787.40 0.1751
787.50 0.175
787.60 0.1749
787.70 0.1748
787.80 0.1747
787.90 0.1746
788.00 0.1745
788.10 0.1744
788.20 0.1744
788.30 0.1743
788.40 0.1742
788.50 0.1741
788.60 0.174
788.70 0.1739
788.80 0.1738
788.90 0.1738
789.00 0.1737
789.10 0.1736
789.20 0.1735
789.30 0.1734
789.40 0.1733
789.50 0.1732
789.60 0.1732
789.70 0.1731
789.80 0.173
789.90 0.1729
790.00 0.1728
790.10 0.1727
790.20 0.1727
790.30 0.1726
790.40 0.1725
790.50 0.1724
790.60 0.1723
790.70 0.1722
790.80 0.1722
790.90 0.1721
791.00 0.172
791.10 0.1719
791.20 0.1718
791.30 0.1717
791.40 0.1717
791.50 0.1716
791.60 0.1715
791.70 0.1714
791.80 0.1713
791.90 0.1712
792.00 0.1712
792.10 0.1711
792.20 0.171
792.30 0.1709
792.40 0.1708
792.50 0.1707
792.60 0.1707
792.70 0.1706
792.80 0.1705
792.90 0.1704
793.00 0.1703
793.10 0.1702
793.20 0.1702
793.30 0.1701
793.40 0.17
793.50 0.1699
793.60 0.1698
793.70 0.1697
793.80 0.1697
793.90 0.1696
794.00 0.1695
794.10 0.1694
794.20 0.1693
794.30 0.1693
794.40 0.1692
794.50 0.1691
794.60 0.169
794.70 0.1689
794.80 0.1688
794.90 0.1688
795.00 0.1687
795.10 0.1686
795.20 0.1685
795.30 0.1684
795.40 0.1683
795.50 0.1683
795.60 0.1682
795.70 0.1681
795.80 0.168
795.90 0.1679
796.00 0.1679
796.10 0.1678
796.20 0.1677
796.30 0.1676
796.40 0.1675
796.50 0.1675
796.60 0.1674
796.70 0.1673
796.80 0.1672
796.90 0.1671
797.00 0.167
797.10 0.167
797.20 0.1669
797.30 0.1668
797.40 0.1667
797.50 0.1666
797.60 0.1666
797.70 0.1665
797.80 0.1664
797.90 0.1663
798.00 0.1662
798.10 0.1662
798.20 0.1661
798.30 0.166
798.40 0.1659
798.50 0.1658
798.60 0.1657
798.70 0.1657
798.80 0.1656
798.90 0.1655
799.00 0.1654
799.10 0.1653
799.20 0.1653
799.30 0.1652
799.40 0.1651
799.50 0.165
799.60 0.1649
799.70 0.1649
799.80 0.1648
799.90 0.1647
800.00 0.1646
800.10 0.1645
800.20 0.1645
800.30 0.1644
800.40 0.1643
800.50 0.1642
800.60 0.1642
800.70 0.1641
800.80 0.164
800.90 0.1639
801.00 0.1638
801.10 0.1638
801.20 0.1637
801.30 0.1636
801.40 0.1635
801.50 0.1634
801.60 0.1634
801.70 0.1633
801.80 0.1632
801.90 0.1631
802.00 0.1631
802.10 0.163
802.20 0.1629
802.30 0.1628
802.40 0.1627
802.50 0.1627
802.60 0.1626
802.70 0.1625
802.80 0.1624
802.90 0.1624
803.00 0.1623
803.10 0.1622
803.20 0.1621
803.30 0.162
803.40 0.162
803.50 0.1619
803.60 0.1618
803.70 0.1617
803.80 0.1617
803.90 0.1616
804.00 0.1615
804.10 0.1614
804.20 0.1613
804.30 0.1613
804.40 0.1612
804.50 0.1611
804.60 0.161
804.70 0.161
804.80 0.1609
804.90 0.1608
805.00 0.1607
805.10 0.1606
805.20 0.1606
805.30 0.1605
805.40 0.1604
805.50 0.1603
805.60 0.1603
805.70 0.1602
805.80 0.1601
805.90 0.16
806.00 0.16
806.10 0.1599
806.20 0.1598
806.30 0.1597
806.40 0.1596
806.50 0.1596
806.60 0.1595
806.70 0.1594
806.80 0.1593
806.90 0.1593
807.00 0.1592
807.10 0.1591
807.20 0.159
807.30 0.159
807.40 0.1589
807.50 0.1588
807.60 0.1587
807.70 0.1587
807.80 0.1586
807.90 0.1585
808.00 0.1584
808.10 0.1583
808.20 0.1583
808.30 0.1582
808.40 0.1581
808.50 0.158
808.60 0.158
808.70 0.1579
808.80 0.1578
808.90 0.1577
809.00 0.1577
809.10 0.1576
809.20 0.1575
809.30 0.1574
809.40 0.1574
809.50 0.1573
809.60 0.1572
809.70 0.1571
809.80 0.1571
809.90 0.157
810.00 0.1569
810.10 0.1568
810.20 0.1568
810.30 0.1567
810.40 0.1566
810.50 0.1565
810.60 0.1565
810.70 0.1564
810.80 0.1563
810.90 0.1562
811.00 0.1562
811.10 0.1561
811.20 0.156
811.30 0.1559
811.40 0.1559
811.50 0.1558
811.60 0.1557
811.70 0.1556
811.80 0.1556
811.90 0.1555
812.00 0.1554
812.10 0.1554
812.20 0.1553
812.30 0.1552
812.40 0.1551
812.50 0.1551
812.60 0.155
812.70 0.1549
812.80 0.1548
812.90 0.1548
813.00 0.1547
813.10 0.1546
813.20 0.1545
813.30 0.1545
813.40 0.1544
813.50 0.1543
813.60 0.1543
813.70 0.1542
813.80 0.1541
813.90 0.154
814.00 0.154
814.10 0.1539
814.20 0.1538
814.30 0.1537
814.40 0.1537
814.50 0.1536
814.60 0.1535
814.70 0.1535
814.80 0.1534
814.90 0.1533
815.00 0.1532
815.10 0.1532
815.20 0.1531
815.30 0.153
815.40 0.1529
815.50 0.1529
815.60 0.1528
815.70 0.1527
815.80 0.1527
815.90 0.1526
816.00 0.1525
816.10 0.1524
816.20 0.1524
816.30 0.1523
816.40 0.1522
816.50 0.1521
816.60 0.1521
816.70 0.152
816.80 0.1519
816.90 0.1519
817.00 0.1518
817.10 0.1517
817.20 0.1516
817.30 0.1516
817.40 0.1515
817.50 0.1514
817.60 0.1514
817.70 0.1513
817.80 0.1512
817.90 0.1511
818.00 0.1511
818.10 0.151
818.20 0.1509
818.30 0.1509
818.40 0.1508
818.50 0.1507
818.60 0.1506
818.70 0.1506
818.80 0.1505
818.90 0.1504
819.00 0.1504
819.10 0.1503
819.20 0.1502
819.30 0.1501
819.40 0.1501
819.50 0.15
819.60 0.1499
819.70 0.1499
819.80 0.1498
819.90 0.1497
820.00 0.1496
820.10 0.1496
820.20 0.1495
820.30 0.1494
820.40 0.1494
820.50 0.1493
820.60 0.1492
820.70 0.1491
820.80 0.1491
820.90 0.149
821.00 0.1489
821.10 0.1489
821.20 0.1488
821.30 0.1487
821.40 0.1487
821.50 0.1486
821.60 0.1485
821.70 0.1484
821.80 0.1484
821.90 0.1483
822.00 0.1482
822.10 0.1482
822.20 0.1481
822.30 0.148
822.40 0.148
822.50 0.1479
822.60 0.1478
822.70 0.1478
822.80 0.1477
822.90 0.1476
823.00 0.1475
823.10 0.1475
823.20 0.1474
823.30 0.1473
823.40 0.1473
823.50 0.1472
823.60 0.1471
823.70 0.1471
823.80 0.147
823.90 0.1469
824.00 0.1469
824.10 0.1468
824.20 0.1467
824.30 0.1466
824.40 0.1466
824.50 0.1465
824.60 0.1464
824.70 0.1464
824.80 0.1463
824.90 0.1462
825.00 0.1462
825.10 0.1461
825.20 0.146
825.30 0.146
825.40 0.1459
825.50 0.1458
825.60 0.1458
825.70 0.1457
825.80 0.1456
825.90 0.1456
826.00 0.1455
826.10 0.1454
826.20 0.1453
826.30 0.1453
826.40 0.1452
826.50 0.1451
826.60 0.1451
826.70 0.145
826.80 0.1449
826.90 0.1449
827.00 0.1448
827.10 0.1447
827.20 0.1447
827.30 0.1446
827.40 0.1445
827.50 0.1445
827.60 0.1444
827.70 0.1443
827.80 0.1443
827.90 0.1442
828.00 0.1441
828.10 0.1441
828.20 0.144
828.30 0.1439
828.40 0.1439
828.50 0.1438
828.60 0.1437
828.70 0.1437
828.80 0.1436
828.90 0.1435
829.00 0.1435
829.10 0.1434
829.20 0.1433
829.30 0.1433
829.40 0.1432
829.50 0.1431
829.60 0.1431
829.70 0.143
829.80 0.1429
829.90 0.1429
830.00 0.1428
830.10 0.1427
830.20 0.1427
830.30 0.1426
830.40 0.1425
830.50 0.1425
830.60 0.1424
830.70 0.1423
830.80 0.1423
830.90 0.1422
831.00 0.1421
831.10 0.1421
831.20 0.142
831.30 0.1419
831.40 0.1419
831.50 0.1418
831.60 0.1417
831.70 0.1417
831.80 0.1416
831.90 0.1415
832.00 0.1415
832.10 0.1414
832.20 0.1413
832.30 0.1413
832.40 0.1412
832.50 0.1411
832.60 0.1411
832.70 0.141
832.80 0.1409
832.90 0.1409
833.00 0.1408
833.10 0.1407
833.20 0.1407
833.30 0.1406
833.40 0.1405
833.50 0.1405
833.60 0.1404
833.70 0.1403
833.80 0.1403
833.90 0.1402
834.00 0.1401
834.10 0.1401
834.20 0.14
834.30 0.14
834.40 0.1399
834.50 0.1398
834.60 0.1398
834.70 0.1397
834.80 0.1396
834.90 0.1396
835.00 0.1395
835.10 0.1394
835.20 0.1394
835.30 0.1393
835.40 0.1392
835.50 0.1392
835.60 0.1391
835.70 0.139
835.80 0.139
835.90 0.1389
836.00 0.1389
836.10 0.1388
836.20 0.1387
836.30 0.1387
836.40 0.1386
836.50 0.1385
836.60 0.1385
836.70 0.1384
836.80 0.1383
836.90 0.1383
837.00 0.1382
837.10 0.1381
837.20 0.1381
837.30 0.138
837.40 0.1379
837.50 0.1379
837.60 0.1378
837.70 0.1378
837.80 0.1377
837.90 0.1376
838.00 0.1376
838.10 0.1375
838.20 0.1374
838.30 0.1374
838.40 0.1373
838.50 0.1372
838.60 0.1372
838.70 0.1371
838.80 0.1371
838.90 0.137
839.00 0.1369
839.10 0.1369
839.20 0.1368
839.30 0.1367
839.40 0.1367
839.50 0.1366
839.60 0.1366
839.70 0.1365
839.80 0.1364
839.90 0.1364
840.00 0.1363
840.10 0.1362
840.20 0.1362
840.30 0.1361
840.40 0.136
840.50 0.136
840.60 0.1359
840.70 0.1359
840.80 0.1358
840.90 0.1357
841.00 0.1357
841.10 0.1356
841.20 0.1355
841.30 0.1355
841.40 0.1354
841.50 0.1354
841.60 0.1353
841.70 0.1352
841.80 0.1352
841.90 0.1351
842.00 0.135
842.10 0.135
842.20 0.1349
842.30 0.1349
842.40 0.1348
842.50 0.1347
842.60 0.1347
842.70 0.1346
842.80 0.1346
842.90 0.1345
843.00 0.1344
843.10 0.1344
843.20 0.1343
843.30 0.1342
843.40 0.1342
843.50 0.1341
843.60 0.1341
843.70 0.134
843.80 0.1339
843.90 0.1339
844.00 0.1338
844.10 0.1338
844.20 0.1337
844.30 0.1336
844.40 0.1336
844.50 0.1335
844.60 0.1334
844.70 0.1334
844.80 0.1333
844.90 0.1333
845.00 0.1332
845.10 0.1331
845.20 0.1331
845.30 0.133
845.40 0.133
845.50 0.1329
845.60 0.1328
845.70 0.1328
845.80 0.1327
845.90 0.1326
846.00 0.1326
846.10 0.1325
846.20 0.1325
846.30 0.1324
846.40 0.1323
846.50 0.1323
846.60 0.1322
846.70 0.1322
846.80 0.1321
846.90 0.132
847.00 0.132
847.10 0.1319
847.20 0.1319
847.30 0.1318
847.40 0.1317
847.50 0.1317
847.60 0.1316
847.70 0.1316
847.80 0.1315
847.90 0.1314
848.00 0.1314
848.10 0.1313
848.20 0.1313
848.30 0.1312
848.40 0.1311
848.50 0.1311
848.60 0.131
848.70 0.131
848.80 0.1309
848.90 0.1308
849.00 0.1308
849.10 0.1307
849.20 0.1307
849.30 0.1306
849.40 0.1305
849.50 0.1305
849.60 0.1304
849.70 0.1304
849.80 0.1303
849.90 0.1302
850.00 0.1302
850.10 0.1301
850.20 0.1301
850.30 0.13
850.40 0.1299
850.50 0.1299
850.60 0.1298
850.70 0.1298
850.80 0.1297
850.90 0.1296
851.00 0.1296
851.10 0.1295
851.20 0.1295
851.30 0.1294
851.40 0.1294
851.50 0.1293
851.60 0.1292
851.70 0.1292
851.80 0.1291
851.90 0.1291
852.00 0.129
852.10 0.1289
852.20 0.1289
852.30 0.1288
852.40 0.1288
852.50 0.1287
852.60 0.1286
852.70 0.1286
852.80 0.1285
852.90 0.1285
853.00 0.1284
853.10 0.1284
853.20 0.1283
853.30 0.1282
853.40 0.1282
853.50 0.1281
853.60 0.1281
853.70 0.128
853.80 0.128
853.90 0.1279
854.00 0.1278
854.10 0.1278
854.20 0.1277
854.30 0.1277
854.40 0.1276
854.50 0.1275
854.60 0.1275
854.70 0.1274
854.80 0.1274
854.90 0.1273
855.00 0.1273
855.10 0.1272
855.20 0.1271
855.30 0.1271
855.40 0.127
855.50 0.127
855.60 0.1269
855.70 0.1269
855.80 0.1268
855.90 0.1267
856.00 0.1267
856.10 0.1266
856.20 0.1266
856.30 0.1265
856.40 0.1265
856.50 0.1264
856.60 0.1263
856.70 0.1263
856.80 0.1262
856.90 0.1262
857.00 0.1261
857.10 0.1261
857.20 0.126
857.30 0.1259
857.40 0.1259
857.50 0.1258
857.60 0.1258
857.70 0.1257
857.80 0.1257
857.90 0.1256
858.00 0.1255
858.10 0.1255
858.20 0.1254
858.30 0.1254
858.40 0.1253
858.50 0.1253
858.60 0.1252
858.70 0.1252
858.80 0.1251
858.90 0.125
859.00 0.125
859.10 0.1249
859.20 0.1249
859.30 0.1248
859.40 0.1248
859.50 0.1247
859.60 0.1246
859.70 0.1246
859.80 0.1245
859.90 0.1245
860.00 0.1244
860.10 0.1244
860.20 0.1243
860.30 0.1243
860.40 0.1242
860.50 0.1241
860.60 0.1241
860.70 0.124
860.80 0.124
860.90 0.1239
861.00 0.1239
861.10 0.1238
861.20 0.1238
861.30 0.1237
861.40 0.1236
861.50 0.1236
861.60 0.1235
861.70 0.1235
861.80 0.1234
861.90 0.1234
862.00 0.1233
862.10 0.1233
862.20 0.1232
862.30 0.1231
862.40 0.1231
862.50 0.123
862.60 0.123
862.70 0.1229
862.80 0.1229
862.90 0.1228
863.00 0.1228
863.10 0.1227
863.20 0.1227
863.30 0.1226
863.40 0.1225
863.50 0.1225
863.60 0.1224
863.70 0.1224
863.80 0.1223
863.90 0.1223
864.00 0.1222
864.10 0.1222
864.20 0.1221
864.30 0.1221
864.40 0.122
864.50 0.1219
864.60 0.1219
864.70 0.1218
864.80 0.1218
864.90 0.1217
865.00 0.1217
865.10 0.1216
865.20 0.1216
865.30 0.1215
865.40 0.1215
865.50 0.1214
865.60 0.1214
865.70 0.1213
865.80 0.1212
865.90 0.1212
866.00 0.1211
866.10 0.1211
866.20 0.121
866.30 0.121
866.40 0.1209
866.50 0.1209
866.60 0.1208
866.70 0.1208
866.80 0.1207
866.90 0.1207
867.00 0.1206
867.10 0.1205
867.20 0.1205
867.30 0.1204
867.40 0.1204
867.50 0.1203
867.60 0.1203
867.70 0.1202
867.80 0.1202
867.90 0.1201
868.00 0.1201
868.10 0.12
868.20 0.12
868.30 0.1199
868.40 0.1199
868.50 0.1198
868.60 0.1197
868.70 0.1197
868.80 0.1196
868.90 0.1196
869.00 0.1195
869.10 0.1195
869.20 0.1194
869.30 0.1194
869.40 0.1193
869.50 0.1193
869.60 0.1192
869.70 0.1192
869.80 0.1191
869.90 0.1191
870.00 0.119
870.10 0.1189
870.20 0.1189
870.30 0.1188
870.40 0.1188
870.50 0.1187
870.60 0.1187
870.70 0.1186
870.80 0.1186
870.90 0.1185
871.00 0.1185
871.10 0.1184
871.20 0.1184
871.30 0.1183
871.40 0.1183
871.50 0.1182
871.60 0.1182
871.70 0.1181
871.80 0.1181
871.90 0.118
872.00 0.1179
872.10 0.1179
872.20 0.1178
872.30 0.1178
872.40 0.1177
872.50 0.1177
872.60 0.1176
872.70 0.1176
872.80 0.1175
872.90 0.1175
873.00 0.1174
873.10 0.1174
873.20 0.1173
873.30 0.1173
873.40 0.1172
873.50 0.1172
873.60 0.1171
873.70 0.1171
873.80 0.117
873.90 0.117
874.00 0.1169
874.10 0.1169
874.20 0.1168
874.30 0.1168
874.40 0.1167
874.50 0.1167
874.60 0.1166
874.70 0.1166
874.80 0.1165
874.90 0.1165
875.00 0.1164
875.10 0.1164
875.20 0.1163
875.30 0.1163
875.40 0.1162
875.50 0.1162
875.60 0.1161
875.70 0.116
875.80 0.116
875.90 0.1159
876.00 0.1159
876.10 0.1158
876.20 0.1158
876.30 0.1157
876.40 0.1157
876.50 0.1156
876.60 0.1156
876.70 0.1155
876.80 0.1155
876.90 0.1154
877.00 0.1154
877.10 0.1153
877.20 0.1153
877.30 0.1152
877.40 0.1152
877.50 0.1151
877.60 0.1151
877.70 0.115
877.80 0.115
877.90 0.1149
878.00 0.1149
878.10 0.1148
878.20 0.1148
878.30 0.1147
878.40 0.1147
878.50 0.1146
878.60 0.1146
878.70 0.1145
878.80 0.1145
878.90 0.1144
879.00 0.1144
879.10 0.1143
879.20 0.1143
879.30 0.1142
879.40 0.1142
879.50 0.1141
879.60 0.1141
879.70 0.114
879.80 0.114
879.90 0.1139
880.00 0.1139
880.10 0.1138
880.20 0.1138
880.30 0.1137
880.40 0.1137
880.50 0.1136
880.60 0.1136
880.70 0.1135
880.80 0.1135
880.90 0.1134
881.00 0.1134
881.10 0.1133
881.20 0.1133
881.30 0.1132
881.40 0.1132
881.50 0.1131
881.60 0.1131
881.70 0.113
881.80 0.113
881.90 0.1129
882.00 0.1129
882.10 0.1128
882.20 0.1128
882.30 0.1127
882.40 0.1127
882.50 0.1126
882.60 0.1126
882.70 0.1125
882.80 0.1125
882.90 0.1124
883.00 0.1124
883.10 0.1123
883.20 0.1123
883.30 0.1122
883.40 0.1122
883.50 0.1121
883.60 0.1121
883.70 0.112
883.80 0.112
883.90 0.1119
884.00 0.1119
884.10 0.1118
884.20 0.1118
884.30 0.1117
884.40 0.1117
884.50 0.1117
884.60 0.1116
884.70 0.1116
884.80 0.1115
884.90 0.1115
885.00 0.1114
885.10 0.1114
885.20 0.1113
885.30 0.1113
885.40 0.1112
885.50 0.1112
885.60 0.1111
885.70 0.1111
885.80 0.111
885.90 0.111
886.00 0.1109
886.10 0.1109
886.20 0.1108
886.30 0.1108
886.40 0.1107
886.50 0.1107
886.60 0.1106
886.70 0.1106
886.80 0.1105
886.90 0.1105
887.00 0.1104
887.10 0.1104
887.20 0.1103
887.30 0.1103
887.40 0.1102
887.50 0.1102
887.60 0.1102
887.70 0.1101
887.80 0.1101
887.90 0.11
888.00 0.11
888.10 0.1099
888.20 0.1099
888.30 0.1098
888.40 0.1098
888.50 0.1097
888.60 0.1097
888.70 0.1096
888.80 0.1096
888.90 0.1096
889.00 0.1095
889.10 0.1095
889.20 0.1094
889.30 0.1094
889.40 0.1093
889.50 0.1093
889.60 0.1092
889.70 0.1092
889.80 0.1091
889.90 0.1091
890.00 0.1091
890.10 0.109
890.20 0.109
890.30 0.1089
890.40 0.1089
890.50 0.1088
890.60 0.1088
890.70 0.1087
890.80 0.1087
890.90 0.1086
891.00 0.1086
891.10 0.1086
891.20 0.1085
891.30 0.1085
891.40 0.1084
891.50 0.1084
891.60 0.1083
891.70 0.1083
891.80 0.1082
891.90 0.1082
892.00 0.1081
892.10 0.1081
892.20 0.108
892.30 0.108
892.40 0.1079
892.50 0.1079
892.60 0.1079
892.70 0.1078
892.80 0.1078
892.90 0.1077
893.00 0.1077
893.10 0.1076
893.20 0.1076
893.30 0.1075
893.40 0.1075
893.50 0.1074
893.60 0.1074
893.70 0.1073
893.80 0.1073
893.90 0.1072
894.00 0.1072
894.10 0.1071
894.20 0.1071
894.30 0.107
894.40 0.107
894.50 0.1069
894.60 0.1069
894.70 0.1068
894.80 0.1068
894.90 0.1067
895.00 0.1067
895.10 0.1066
895.20 0.1066
895.30 0.1065
895.40 0.1065
895.50 0.1065
895.60 0.1064
895.70 0.1064
895.80 0.1063
895.90 0.1063
896.00 0.1062
896.10 0.1062
896.20 0.1061
896.30 0.1061
896.40 0.106
896.50 0.106
896.60 0.1059
896.70 0.1059
896.80 0.1058
896.90 0.1058
897.00 0.1057
897.10 0.1057
897.20 0.1056
897.30 0.1056
897.40 0.1055
897.50 0.1055
897.60 0.1054
897.70 0.1054
897.80 0.1053
897.90 0.1053
898.00 0.1052
898.10 0.1052
898.20 0.1052
898.30 0.1051
898.40 0.1051
898.50 0.105
898.60 0.105
898.70 0.1049
898.80 0.1049
898.90 0.1048
899.00 0.1048
899.10 0.1047
899.20 0.1047
899.30 0.1046
899.40 0.1046
899.50 0.1045
899.60 0.1045
899.70 0.1044
899.80 0.1044
899.90 0.1043
900.00 0.1043
900.10 0.1042
900.20 0.1042
900.30 0.1041
900.40 0.1041
900.50 0.104
900.60 0.104
900.70 0.1039
900.80 0.1039
900.90 0.1038
901.00 0.1038
901.10 0.1038
901.20 0.1037
901.30 0.1037
901.40 0.1036
901.50 0.1036
901.60 0.1035
901.70 0.1035
901.80 0.1034
901.90 0.1034
902.00 0.1033
902.10 0.1033
902.20 0.1032
902.30 0.1032
902.40 0.1032
902.50 0.1031
902.60 0.1031
902.70 0.1031
902.80 0.103
902.90 0.103
903.00 0.1029
903.10 0.1029
903.20 0.1029
903.30 0.1028
903.40 0.1028
903.50 0.1027
903.60 0.1027
903.70 0.1027
903.80 0.1026
903.90 0.1026
904.00 0.1026
904.10 0.1025
904.20 0.1025
904.30 0.1024
904.40 0.1024
904.50 0.1024
904.60 0.1023
904.70 0.1023
904.80 0.1023
904.90 0.1022
905.00 0.1022
905.10 0.1021
905.20 0.1021
905.30 0.1021
905.40 0.102
905.50 0.102
905.60 0.102
905.70 0.1019
905.80 0.1019
905.90 0.1018
906.00 0.1018
906.10 0.1018
906.20 0.1017
906.30 0.1017
906.40 0.1016
906.50 0.1016
906.60 0.1016
906.70 0.1015
906.80 0.1015
906.90 0.1015
907.00 0.1014
907.10 0.1014
907.20 0.1013
907.30 0.1013
907.40 0.1013
907.50 0.1012
907.60 0.1012
907.70 0.1011
907.80 0.1011
907.90 0.1011
908.00 0.101
908.10 0.101
908.20 0.1009
908.30 0.1009
908.40 0.1008
908.50 0.1008
908.60 0.1008
908.70 0.1007
908.80 0.1007
908.90 0.1006
909.00 0.1006
909.10 0.1006
909.20 0.1005
909.30 0.1005
909.40 0.1004
909.50 0.1004
909.60 0.1004
909.70 0.1003
909.80 0.1003
909.90 0.1002
910.00 0.1002
910.10 0.1002
910.20 0.1001
910.30 0.1001
910.40 0.1
910.50 0.09999
910.60 0.09995
910.70 0.09991
910.80 0.09987
910.90 0.09983
911.00 0.09979
911.10 0.09975
911.20 0.09971
911.30 0.09967
911.40 0.09963
911.50 0.09959
911.60 0.09955
911.70 0.09951
911.80 0.09947
911.90 0.09943
912.00 0.09939
912.10 0.09934
912.20 0.0993
912.30 0.09925
912.40 0.09921
912.50 0.09916
912.60 0.09911
912.70 0.09907
912.80 0.09902
912.90 0.09898
913.00 0.09893
913.10 0.09888
913.20 0.09884
913.30 0.09879
913.40 0.09875
913.50 0.0987
913.60 0.09866
913.70 0.09861
913.80 0.09856
913.90 0.09852
914.00 0.09847
914.10 0.09843
914.20 0.09838
914.30 0.09834
914.40 0.09829
914.50 0.09824
914.60 0.0982
914.70 0.09815
914.80 0.09811
914.90 0.09806
915.00 0.09802
915.10 0.09797
915.20 0.09793
915.30 0.09788
915.40 0.09784
915.50 0.09779
915.60 0.09774
915.70 0.0977
915.80 0.09765
915.90 0.09761
916.00 0.09756
916.10 0.09752
916.20 0.09747
916.30 0.09743
916.40 0.09738
916.50 0.09734
916.60 0.09729
916.70 0.09725
916.80 0.0972
916.90 0.09716
917.00 0.09711
917.10 0.09706
917.20 0.09701
917.30 0.09695
917.40 0.0969
917.50 0.09685
917.60 0.0968
917.70 0.09675
917.80 0.09669
917.90 0.09664
918.00 0.09659
918.10 0.09654
918.20 0.09649
918.30 0.09644
918.40 0.09638
918.50 0.09633
918.60 0.09628
918.70 0.09623
918.80 0.09618
918.90 0.09612
919.00 0.09607
919.10 0.09602
919.20 0.09597
919.30 0.09592
919.40 0.09587
919.50 0.09581
919.60 0.09576
919.70 0.09571
919.80 0.09566
919.90 0.09561
920.00 0.09556
920.10 0.0955
920.20 0.09545
920.30 0.0954
920.40 0.09535
920.50 0.0953
920.60 0.09525
920.70 0.0952
920.80 0.09514
920.90 0.09509
921.00 0.09504
921.10 0.09499
921.20 0.09494
921.30 0.09489
921.40 0.09484
921.50 0.09479
921.60 0.09473
921.70 0.09468
921.80 0.09463
921.90 0.09458
922.00 0.09453
922.10 0.0945
922.20 0.09447
922.30 0.09444
922.40 0.09441
922.50 0.09437
922.60 0.09434
922.70 0.09431
922.80 0.09428
922.90 0.09425
923.00 0.09422
923.10 0.09419
923.20 0.09416
923.30 0.09413
923.40 0.0941
923.50 0.09407
923.60 0.09403
923.70 0.094
923.80 0.09397
923.90 0.09394
924.00 0.09391
924.10 0.09388
924.20 0.09385
924.30 0.09382
924.40 0.09379
924.50 0.09376
924.60 0.09373
924.70 0.0937
924.80 0.09367
924.90 0.09363
925.00 0.0936
925.10 0.09357
925.20 0.09354
925.30 0.09351
925.40 0.09348
925.50 0.09345
925.60 0.09342
925.70 0.09339
925.80 0.09336
925.90 0.09333
926.00 0.0933
926.10 0.09327
926.20 0.09324
926.30 0.09321
926.40 0.09318
926.50 0.09315
926.60 0.09311
926.70 0.09308
926.80 0.09305
926.90 0.09302
927.00 0.09299
927.10 0.09296
927.20 0.09293
927.30 0.0929
927.40 0.09287
927.50 0.09284
927.60 0.09281
927.70 0.09277
927.80 0.09274
927.90 0.09271
928.00 0.09268
928.10 0.09265
928.20 0.09262
928.30 0.09259
928.40 0.09256
928.50 0.09253
928.60 0.0925
928.70 0.09246
928.80 0.09243
928.90 0.0924
929.00 0.09237
929.10 0.09234
929.20 0.09231
929.30 0.09228
929.40 0.09225
929.50 0.09222
929.60 0.09219
929.70 0.09216
929.80 0.09212
929.90 0.09209
930.00 0.09206
930.10 0.09203
930.20 0.092
930.30 0.09197
930.40 0.09194
930.50 0.09191
930.60 0.09188
930.70 0.09185
930.80 0.09182
930.90 0.09179
931.00 0.09176
931.10 0.09172
931.20 0.09169
931.30 0.09166
931.40 0.09163
931.50 0.0916
931.60 0.09157
931.70 0.09154
931.80 0.09151
931.90 0.09148
932.00 0.09145
932.10 0.09141
932.20 0.09138
932.30 0.09134
932.40 0.09131
932.50 0.09127
932.60 0.09124
932.70 0.09121
932.80 0.09117
932.90 0.09114
933.00 0.0911
933.10 0.09107
933.20 0.09103
933.30 0.091
933.40 0.09096
933.50 0.09093
933.60 0.09089
933.70 0.09086
933.80 0.09082
933.90 0.09079
934.00 0.09075
934.10 0.09072
934.20 0.09068
934.30 0.09065
934.40 0.09061
934.50 0.09058
934.60 0.09054
934.70 0.09051
934.80 0.09047
934.90 0.09043
935.00 0.0904
935.10 0.09036
935.20 0.09033
935.30 0.09029
935.40 0.09025
935.50 0.09022
935.60 0.09018
935.70 0.09014
935.80 0.09011
935.90 0.09007
936.00 0.09004
936.10 0.09
936.20 0.08997
936.30 0.08993
936.40 0.08989
936.50 0.08986
936.60 0.08982
936.70 0.08979
936.80 0.08975
936.90 0.08971
937.00 0.08968
937.10 0.08964
937.20 0.0896
937.30 0.08957
937.40 0.08953
937.50 0.08949
937.60 0.08946
937.70 0.08942
937.80 0.08938
937.90 0.08935
938.00 0.08931
938.10 0.08927
938.20 0.08924
938.30 0.0892
938.40 0.08916
938.50 0.08913
938.60 0.08909
938.70 0.08905
938.80 0.08901
938.90 0.08898
939.00 0.08894
939.10 0.0889
939.20 0.08887
939.30 0.08883
939.40 0.08879
939.50 0.08875
939.60 0.08872
939.70 0.08868
939.80 0.08864
939.90 0.08861
940.00 0.08857
940.10 0.08853
940.20 0.0885
940.30 0.08846
940.40 0.08842
940.50 0.08838
940.60 0.08834
940.70 0.08831
940.80 0.08827
940.90 0.08823
941.00 0.08819
941.10 0.08815
941.20 0.08812
941.30 0.08808
941.40 0.08804
941.50 0.088
941.60 0.08797
941.70 0.08793
941.80 0.08789
941.90 0.08785
942.00 0.08781
942.10 0.08778
942.20 0.08774
942.30 0.0877
942.40 0.08766
942.50 0.08762
942.60 0.08758
942.70 0.08754
942.80 0.0875
942.90 0.08747
943.00 0.08743
943.10 0.08739
943.20 0.08735
943.30 0.08731
943.40 0.08727
943.50 0.08723
943.60 0.08719
943.70 0.08715
943.80 0.08711
943.90 0.08708
944.00 0.08704
944.10 0.087
944.20 0.08696
944.30 0.08692
944.40 0.08688
944.50 0.08684
944.60 0.0868
944.70 0.08676
944.80 0.08672
944.90 0.08668
945.00 0.08664
945.10 0.0866
945.20 0.08656
945.30 0.08652
945.40 0.08647
945.50 0.08643
945.60 0.08639
945.70 0.08635
945.80 0.08631
945.90 0.08626
946.00 0.08622
946.10 0.08618
946.20 0.08614
946.30 0.0861
946.40 0.08605
946.50 0.08601
946.60 0.08597
946.70 0.08593
946.80 0.08589
946.90 0.08585
947.00 0.0858
947.10 0.08576
947.20 0.08572
947.30 0.08567
947.40 0.08563
947.50 0.08558
947.60 0.08553
947.70 0.08549
947.80 0.08544
947.90 0.08539
948.00 0.08535
948.10 0.0853
948.20 0.08526
948.30 0.08521
948.40 0.08516
948.50 0.08512
948.60 0.08507
948.70 0.08502
948.80 0.08498
948.90 0.08493
949.00 0.08489
949.10 0.08484
949.20 0.08479
949.30 0.08475
949.40 0.0847
949.50 0.08464
949.60 0.08459
949.70 0.08454
949.80 0.08449
949.90 0.08443
950.00 0.08438
950.10 0.08433
950.20 0.08428
950.30 0.08422
950.40 0.08417
950.50 0.08412
950.60 0.08407
950.70 0.08401
950.80 0.08396
950.90 0.08391
951.00 0.08386
951.10 0.0838
951.20 0.08375
951.30 0.0837
951.40 0.08364
951.50 0.08359
951.60 0.08353
951.70 0.08347
951.80 0.08341
951.90 0.08336
952.00 0.0833
952.10 0.08324
952.20 0.08318
952.30 0.08312
952.40 0.08307
952.50 0.08301
952.60 0.08295
952.70 0.08289
952.80 0.08283
952.90 0.08277
953.00 0.08272
953.10 0.08266
953.20 0.0826
953.30 0.08255
953.40 0.08249
953.50 0.08243
953.60 0.08239
953.70 0.08234
953.80 0.08229
953.90 0.08224
954.00 0.0822
954.10 0.08216
954.20 0.08213
954.30 0.0821
954.40 0.08208
954.50 0.08207
954.60 0.08204
954.70 0.082
954.80 0.08196
954.90 0.08192
955.00 0.08187
955.10 0.08183
955.20 0.08181
955.30 0.08179
955.40 0.08177
955.50 0.08176
955.60 0.08174
955.70 0.08172
955.80 0.0817
955.90 0.08169
956.00 0.08168
956.10 0.08168
956.20 0.08167
956.30 0.08166
956.40 0.08165
956.50 0.08164
956.60 0.08163
956.70 0.08162
956.80 0.08162
956.90 0.08161
957.00 0.0816
957.10 0.08159
957.20 0.08158
957.30 0.08157
957.40 0.08156
957.50 0.08155
957.60 0.08153
957.70 0.08152
957.80 0.08151
957.90 0.08149
958.00 0.08148
958.10 0.08147
958.20 0.08146
958.30 0.08144
958.40 0.08143
958.50 0.08142
958.60 0.0814
958.70 0.08139
958.80 0.08138
958.90 0.08137
959.00 0.08135
959.10 0.08134
959.20 0.08133
959.30 0.08131
959.40 0.08129
959.50 0.08127
959.60 0.08125
959.70 0.08123
959.80 0.08121
959.90 0.08119
960.00 0.08117
960.10 0.08115
960.20 0.08113
960.30 0.08111
960.40 0.08109
960.50 0.08107
960.60 0.08105
960.70 0.08103
960.80 0.08101
960.90 0.08099
961.00 0.08097
961.10 0.08095
961.20 0.08093
961.30 0.08091
961.40 0.08089
961.50 0.08086
961.60 0.08084
961.70 0.08082
961.80 0.08079
961.90 0.08077
962.00 0.08075
962.10 0.08072
962.20 0.0807
962.30 0.08067
962.40 0.08064
962.50 0.08062
962.60 0.08059
962.70 0.08057
962.80 0.08054
962.90 0.08052
963.00 0.08049
963.10 0.08047
963.20 0.08044
963.30 0.08042
963.40 0.08039
963.50 0.08036
963.60 0.08033
963.70 0.08031
963.80 0.08028
963.90 0.08025
964.00 0.08023
964.10 0.0802
964.20 0.08017
964.30 0.08014
964.40 0.08012
964.50 0.08009
964.60 0.08006
964.70 0.08003
964.80 0.08
964.90 0.07997
965.00 0.07995
965.10 0.07992
965.20 0.07989
965.30 0.07986
965.40 0.07983
965.50 0.0798
965.60 0.07977
965.70 0.07975
965.80 0.07972
965.90 0.07969
966.00 0.07966
966.10 0.07963
966.20 0.0796
966.30 0.07958
966.40 0.07955
966.50 0.07952
966.60 0.07949
966.70 0.07946
966.80 0.07943
966.90 0.0794
967.00 0.07937
967.10 0.07934
967.20 0.07931
967.30 0.07928
967.40 0.07925
967.50 0.07922
967.60 0.07919
967.70 0.07916
967.80 0.07913
967.90 0.0791
968.00 0.07907
968.10 0.07904
968.20 0.07901
968.30 0.07898
968.40 0.07895
968.50 0.07892
968.60 0.07889
968.70 0.07886
968.80 0.07883
968.90 0.0788
969.00 0.07877
969.10 0.07874
969.20 0.07871
969.30 0.07868
969.40 0.07865
969.50 0.07862
969.60 0.07859
969.70 0.07856
969.80 0.07853
969.90 0.0785
970.00 0.07847
970.10 0.07844
970.20 0.07841
970.30 0.07838
970.40 0.07835
970.50 0.07832
970.60 0.07829
970.70 0.07826
970.80 0.07823
970.90 0.0782
971.00 0.07817
971.10 0.07814
971.20 0.07811
971.30 0.07808
971.40 0.07805
971.50 0.07802
971.60 0.07799
971.70 0.07796
971.80 0.07793
971.90 0.0779
972.00 0.07787
972.10 0.07784
972.20 0.07781
972.30 0.07778
972.40 0.07774
972.50 0.07771
972.60 0.07768
972.70 0.07765
972.80 0.07762
972.90 0.07759
973.00 0.07756
973.10 0.07753
973.20 0.0775
973.30 0.07747
973.40 0.07744
973.50 0.07741
973.60 0.07738
973.70 0.07735
973.80 0.07732
973.90 0.07729
974.00 0.07726
974.10 0.07723
974.20 0.0772
974.30 0.07717
974.40 0.07714
974.50 0.07711
974.60 0.07708
974.70 0.07705
974.80 0.07702
974.90 0.07699
975.00 0.07696
975.10 0.07693
975.20 0.0769
975.30 0.07686
975.40 0.07683
975.50 0.0768
975.60 0.07677
975.70 0.07674
975.80 0.07671
975.90 0.07668
976.00 0.07665
976.10 0.07662
976.20 0.07659
976.30 0.07656
976.40 0.07653
976.50 0.0765
976.60 0.07647
976.70 0.07644
976.80 0.07641
976.90 0.07638
977.00 0.07635
977.10 0.07632
977.20 0.07629
977.30 0.07626
977.40 0.07623
977.50 0.0762
977.60 0.07617
977.70 0.07614
977.80 0.07611
977.90 0.07608
978.00 0.07605
978.10 0.07602
978.20 0.07599
978.30 0.07596
978.40 0.07593
978.50 0.0759
978.60 0.07587
978.70 0.07584
978.80 0.07581
978.90 0.07578
979.00 0.07575
979.10 0.07572
979.20 0.07569
979.30 0.07566
979.40 0.07563
979.50 0.0756
979.60 0.07557
979.70 0.07554
979.80 0.07551
979.90 0.07548
980.00 0.07545
980.10 0.07542
980.20 0.07539
980.30 0.07536
980.40 0.07533
980.50 0.0753
980.60 0.07527
980.70 0.07524
980.80 0.07521
980.90 0.07518
981.00 0.07515
981.10 0.07512
981.20 0.07509
981.30 0.07506
981.40 0.07503
981.50 0.075
981.60 0.07497
981.70 0.07494
981.80 0.07491
981.90 0.07488
982.00 0.07485
982.10 0.07482
982.20 0.07479
982.30 0.07476
982.40 0.07473
982.50 0.0747
982.60 0.07467
982.70 0.07464
982.80 0.07461
982.90 0.07458
983.00 0.07455
983.10 0.07452
983.20 0.07449
983.30 0.07446
983.40 0.07443
983.50 0.07441
983.60 0.07438
983.70 0.07435
983.80 0.07432
983.90 0.07429
984.00 0.07426
984.10 0.07423
984.20 0.0742
984.30 0.07417
984.40 0.07414
984.50 0.07411
984.60 0.07408
984.70 0.07405
984.80 0.07402
984.90 0.07399
985.00 0.07396
985.10 0.07393
985.20 0.0739
985.30 0.07387
985.40 0.07384
985.50 0.07381
985.60 0.07378
985.70 0.07375
985.80 0.07372
985.90 0.07369
986.00 0.07366
986.10 0.07363
986.20 0.0736
986.30 0.07358
986.40 0.07355
986.50 0.07352
986.60 0.07349
986.70 0.07346
986.80 0.07343
986.90 0.0734
987.00 0.07337
987.10 0.07334
987.20 0.07331
987.30 0.07328
987.40 0.07325
987.50 0.07322
987.60 0.07319
987.70 0.07316
987.80 0.07313
987.90 0.0731
988.00 0.07307
988.10 0.07304
988.20 0.07301
988.30 0.07298
988.40 0.07295
988.50 0.07293
988.60 0.0729
988.70 0.07287
988.80 0.07284
988.90 0.07281
989.00 0.07278
989.10 0.07275
989.20 0.07272
989.30 0.07269
989.40 0.07266
989.50 0.07263
989.60 0.0726
989.70 0.07257
989.80 0.07254
989.90 0.07251
990.00 0.07248
990.10 0.07245
990.20 0.07242
990.30 0.07239
990.40 0.07236
990.50 0.07233
990.60 0.0723
990.70 0.07227
990.80 0.07224
990.90 0.07221
991.00 0.07218
991.10 0.07215
991.20 0.07212
991.30 0.07209
991.40 0.07206
991.50 0.07203
991.60 0.072
991.70 0.07197
991.80 0.07194
991.90 0.07191
992.00 0.07188
992.10 0.07185
992.20 0.07182
992.30 0.07179
992.40 0.07176
992.50 0.07173
992.60 0.0717
992.70 0.07167
992.80 0.07163
992.90 0.0716
993.00 0.07157
993.10 0.07154
993.20 0.07151
993.30 0.07148
993.40 0.07145
993.50 0.07142
993.60 0.07139
993.70 0.07135
993.80 0.07132
993.90 0.07129
994.00 0.07126
994.10 0.07123
994.20 0.0712
994.30 0.07117
994.40 0.07114
994.50 0.07111
994.60 0.07107
994.70 0.07104
994.80 0.07101
994.90 0.07098
995.00 0.07094
995.10 0.07091
995.20 0.07088
995.30 0.07085
995.40 0.07081
995.50 0.07078
995.60 0.07075
995.70 0.07072
995.80 0.07068
995.90 0.07065
996.00 0.07061
996.10 0.07058
996.20 0.07055
996.30 0.07051
996.40 0.07048
996.50 0.07044
996.60 0.07041
996.70 0.07037
996.80 0.07034
996.90 0.07031
997.00 0.07027
997.10 0.07024
997.20 0.0702
997.30 0.07016
997.40 0.07013
997.50 0.07009
997.60 0.07006
997.70 0.07002
997.80 0.06998
997.90 0.06994
998.00 0.0699
998.10 0.06986
998.20 0.06982
998.30 0.06978
998.40 0.06974
998.50 0.06969
998.60 0.06965
998.70 0.06961
998.80 0.06957
998.90 0.06953
999.00 0.06949
999.10 0.06945
999.20 0.06941
999.30 0.06937
999.40 0.06933
999.50 0.06929
999.60 0.06925
999.70 0.06921
999.80 0.06915
999.90 0.0691
1000.00 0.06905
1000.10 0.069
1000.20 0.06895
1000.30 0.0689
1000.40 0.06885
1000.50 0.0688
1000.60 0.06875
1000.70 0.0687
1000.80 0.06865
1000.90 0.0686
1001.00 0.06855
1001.10 0.0685
1001.20 0.06845
1001.30 0.0684
1001.40 0.06835
1001.50 0.06829
1001.60 0.06824
1001.70 0.06819
1001.80 0.06813
1001.90 0.06807
1002.00 0.06801
1002.10 0.06795
1002.20 0.06789
1002.30 0.06782
1002.40 0.06776
1002.50 0.0677
1002.60 0.06763
1002.70 0.06757
1002.80 0.06751
1002.90 0.06744
1003.00 0.06738
1003.10 0.06732
1003.20 0.06725
1003.30 0.06718
1003.40 0.06712
1003.50 0.06705
1003.60 0.06699
1003.70 0.06692
1003.80 0.06685
1003.90 0.0668
1004.00 0.06674
1004.10 0.06669
1004.20 0.06663
1004.30 0.0666
1004.40 0.06658
1004.50 0.06657
1004.60 0.0666
1004.70 0.06667
1004.80 0.06676
1004.90 0.06677
1005.00 0.06677
1005.10 0.06668
1005.20 0.06657
1005.30 0.06646
1005.40 0.06634
1005.50 0.06631
1005.60 0.06631
1005.70 0.06631
1005.80 0.0663
1005.90 0.0663
1006.00 0.06629
1006.10 0.06629
1006.20 0.0663
1006.30 0.06631
1006.40 0.06633
1006.50 0.06634
1006.60 0.06636
1006.70 0.06637
1006.80 0.06639
1006.90 0.0664
1007.00 0.06642
1007.10 0.06643
1007.20 0.06644
1007.30 0.06645
1007.40 0.06646
1007.50 0.06648
1007.60 0.06649
1007.70 0.06649
1007.80 0.06649
1007.90 0.06649
1008.00 0.06649
1008.10 0.0665
1008.20 0.0665
1008.30 0.0665
1008.40 0.0665
1008.50 0.0665
1008.60 0.0665
1008.70 0.0665
1008.80 0.0665
1008.90 0.0665
1009.00 0.06651
1009.10 0.06651
1009.20 0.06651
1009.30 0.06651
1009.40 0.06651
1009.50 0.06651
1009.60 0.06651
1009.70 0.0665
1009.80 0.06649
1009.90 0.06648
1010.00 0.06647
1010.10 0.06646
1010.20 0.06645
1010.30 0.06644
1010.40 0.06643
1010.50 0.06642
1010.60 0.06641
1010.70 0.0664
1010.80 0.06639
1010.90 0.06637
1011.00 0.06636
1011.10 0.06635
1011.20 0.06634
1011.30 0.06633
1011.40 0.06632
1011.50 0.06631
1011.60 0.0663
1011.70 0.06628
1011.80 0.06627
1011.90 0.06625
1012.00 0.06624
1012.10 0.06622
1012.20 0.0662
1012.30 0.06618
1012.40 0.06617
1012.50 0.06615
1012.60 0.06613
1012.70 0.06611
1012.80 0.06609
1012.90 0.06608
1013.00 0.06606
1013.10 0.06604
1013.20 0.06602
1013.30 0.066
1013.40 0.06599
1013.50 0.06597
1013.60 0.06595
1013.70 0.06593
1013.80 0.06591
1013.90 0.06589
1014.00 0.06587
1014.10 0.06585
1014.20 0.06583
1014.30 0.06581
1014.40 0.06579
1014.50 0.06577
1014.60 0.06575
1014.70 0.06573
1014.80 0.06571
1014.90 0.06568
1015.00 0.06566
1015.10 0.06564
1015.20 0.06562
1015.30 0.0656
1015.40 0.06557
1015.50 0.06555
1015.60 0.06553
1015.70 0.06551
1015.80 0.06549
1015.90 0.06547
1016.00 0.06544
1016.10 0.06542
1016.20 0.0654
1016.30 0.06538
1016.40 0.06536
1016.50 0.06534
1016.60 0.06531
1016.70 0.06529
1016.80 0.06527
1016.90 0.06525
1017.00 0.06522
1017.10 0.0652
1017.20 0.06518
1017.30 0.06515
1017.40 0.06513
1017.50 0.06511
1017.60 0.06509
1017.70 0.06506
1017.80 0.06504
1017.90 0.06502
1018.00 0.06499
1018.10 0.06497
1018.20 0.06495
1018.30 0.06492
1018.40 0.0649
1018.50 0.06488
1018.60 0.06486
1018.70 0.06483
1018.80 0.06481
1018.90 0.06478
1019.00 0.06476
1019.10 0.06474
1019.20 0.06471
1019.30 0.06469
1019.40 0.06467
1019.50 0.06464
1019.60 0.06462
1019.70 0.0646
1019.80 0.06457
1019.90 0.06455
1020.00 0.06453
1020.10 0.0645
1020.20 0.06448
1020.30 0.06446
1020.40 0.06443
1020.50 0.06441
1020.60 0.06439
1020.70 0.06436
1020.80 0.06434
1020.90 0.06432
1021.00 0.06429
1021.10 0.06427
1021.20 0.06424
1021.30 0.06422
1021.40 0.0642
1021.50 0.06417
1021.60 0.06415
1021.70 0.06413
1021.80 0.0641
1021.90 0.06408
1022.00 0.06406
1022.10 0.06403
1022.20 0.06401
1022.30 0.06398
1022.40 0.06396
1022.50 0.06394
1022.60 0.06391
1022.70 0.06389
1022.80 0.06387
1022.90 0.06384
1023.00 0.06382
1023.10 0.0638
1023.20 0.06377
1023.30 0.06375
1023.40 0.06372
1023.50 0.0637
1023.60 0.06368
1023.70 0.06365
1023.80 0.06363
1023.90 0.06361
1024.00 0.06358
1024.10 0.06356
1024.20 0.06354
1024.30 0.06351
1024.40 0.06349
1024.50 0.06346
1024.60 0.06344
1024.70 0.06342
1024.80 0.06339
1024.90 0.06337
1025.00 0.06335
1025.10 0.06332
1025.20 0.0633
1025.30 0.06328
1025.40 0.06325
1025.50 0.06323
1025.60 0.0632
1025.70 0.06318
1025.80 0.06316
1025.90 0.06313
1026.00 0.06311
1026.10 0.06309
1026.20 0.06306
1026.30 0.06304
1026.40 0.06302
1026.50 0.06299
1026.60 0.06297
1026.70 0.06295
1026.80 0.06292
1026.90 0.0629
1027.00 0.06287
1027.10 0.06285
1027.20 0.06283
1027.30 0.0628
1027.40 0.06278
1027.50 0.06276
1027.60 0.06273
1027.70 0.06271
1027.80 0.06269
1027.90 0.06266
1028.00 0.06264
1028.10 0.06262
1028.20 0.06259
1028.30 0.06257
1028.40 0.06255
1028.50 0.06252
1028.60 0.0625
1028.70 0.06248
1028.80 0.06245
1028.90 0.06243
1029.00 0.06241
1029.10 0.06238
1029.20 0.06236
1029.30 0.06234
1029.40 0.06231
1029.50 0.06229
1029.60 0.06227
1029.70 0.06224
1029.80 0.06222
1029.90 0.0622
1030.00 0.06217
1030.10 0.06215
1030.20 0.06213
1030.30 0.0621
1030.40 0.06208
1030.50 0.06206
1030.60 0.06203
1030.70 0.06201
1030.80 0.06199
1030.90 0.06196
1031.00 0.06194
1031.10 0.06192
1031.20 0.06189
1031.30 0.06187
1031.40 0.06185
1031.50 0.06182
1031.60 0.0618
1031.70 0.06178
1031.80 0.06175
1031.90 0.06173
1032.00 0.06171
1032.10 0.06169
1032.20 0.06166
1032.30 0.06164
1032.40 0.06162
1032.50 0.06159
1032.60 0.06157
1032.70 0.06155
1032.80 0.06152
1032.90 0.0615
1033.00 0.06148
1033.10 0.06145
1033.20 0.06143
1033.30 0.06141
1033.40 0.06139
1033.50 0.06136
1033.60 0.06134
1033.70 0.06132
1033.80 0.06129
1033.90 0.06127
1034.00 0.06125
1034.10 0.06123
1034.20 0.0612
1034.30 0.06118
1034.40 0.06116
1034.50 0.06113
1034.60 0.06111
1034.70 0.06109
1034.80 0.06107
1034.90 0.06104
1035.00 0.06102
1035.10 0.061
1035.20 0.06097
1035.30 0.06095
1035.40 0.06093
1035.50 0.06091
1035.60 0.06088
1035.70 0.06086
1035.80 0.06084
1035.90 0.06081
1036.00 0.06079
1036.10 0.06077
1036.20 0.06075
1036.30 0.06072
1036.40 0.0607
1036.50 0.06068
1036.60 0.06066
1036.70 0.06063
1036.80 0.06061
1036.90 0.06059
1037.00 0.06056
1037.10 0.06054
1037.20 0.06052
1037.30 0.0605
1037.40 0.06047
1037.50 0.06045
1037.60 0.06043
1037.70 0.06041
1037.80 0.06038
1037.90 0.06036
1038.00 0.06034
1038.10 0.06032
1038.20 0.06029
1038.30 0.06027
1038.40 0.06025
1038.50 0.06023
1038.60 0.0602
1038.70 0.06018
1038.80 0.06016
1038.90 0.06014
1039.00 0.06011
1039.10 0.06009
1039.20 0.06007
1039.30 0.06005
1039.40 0.06002
1039.50 0.06
1039.60 0.05998
1039.70 0.05996
1039.80 0.05993
1039.90 0.05991
1040.00 0.05989
1040.10 0.05987
1040.20 0.05985
1040.30 0.05982
1040.40 0.0598
1040.50 0.05978
1040.60 0.05976
1040.70 0.05973
1040.80 0.05971
1040.90 0.05969
1041.00 0.05967
1041.10 0.05964
1041.20 0.05962
1041.30 0.0596
1041.40 0.05958
1041.50 0.05956
1041.60 0.05953
1041.70 0.05951
1041.80 0.05949
1041.90 0.05947
1042.00 0.05944
1042.10 0.05942
1042.20 0.0594
1042.30 0.05938
1042.40 0.05936
1042.50 0.05933
1042.60 0.05931
1042.70 0.05929
1042.80 0.05927
1042.90 0.05925
1043.00 0.05922
1043.10 0.0592
1043.20 0.05918
1043.30 0.05916
1043.40 0.05914
1043.50 0.05911
1043.60 0.05909
1043.70 0.05907
1043.80 0.05905
1043.90 0.05903
1044.00 0.059
1044.10 0.05898
1044.20 0.05896
1044.30 0.05894
1044.40 0.05892
1044.50 0.05889
1044.60 0.05887
1044.70 0.05885
1044.80 0.05883
1044.90 0.05881
1045.00 0.05878
1045.10 0.05876
1045.20 0.05874
1045.30 0.05872
1045.40 0.0587
1045.50 0.05868
1045.60 0.05865
1045.70 0.05863
1045.80 0.05861
1045.90 0.05859
1046.00 0.05857
1046.10 0.05854
1046.20 0.05852
1046.30 0.0585
1046.40 0.05848
1046.50 0.05846
1046.60 0.05844
1046.70 0.05841
1046.80 0.05839
1046.90 0.05837
1047.00 0.05835
1047.10 0.05833
1047.20 0.05831
1047.30 0.05828
1047.40 0.05826
1047.50 0.05824
1047.60 0.05822
1047.70 0.0582
1047.80 0.05818
1047.90 0.05815
1048.00 0.05813
1048.10 0.05811
1048.20 0.05809
1048.30 0.05807
1048.40 0.05805
1048.50 0.05803
1048.60 0.058
1048.70 0.05798
1048.80 0.05796
1048.90 0.05794
1049.00 0.05792
1049.10 0.0579
1049.20 0.05788
1049.30 0.05785
1049.40 0.05783
1049.50 0.05781
1049.60 0.05779
1049.70 0.05777
1049.80 0.05775
1049.90 0.05773
1050.00 0.0577
1050.10 0.05768
1050.20 0.05766
1050.30 0.05764
1050.40 0.05762
1050.50 0.0576
1050.60 0.05758
1050.70 0.05755
1050.80 0.05753
1050.90 0.05751
1051.00 0.05749
1051.10 0.05747
1051.20 0.05745
1051.30 0.05743
1051.40 0.0574
1051.50 0.05738
1051.60 0.05736
1051.70 0.05734
1051.80 0.05732
1051.90 0.0573
1052.00 0.05728
1052.10 0.05726
1052.20 0.05724
1052.30 0.05721
1052.40 0.05719
1052.50 0.05717
1052.60 0.05715
1052.70 0.05713
1052.80 0.05711
1052.90 0.05709
1053.00 0.05707
1053.10 0.05705
1053.20 0.05702
1053.30 0.057
1053.40 0.05698
1053.50 0.05696
1053.60 0.05694
1053.70 0.05692
1053.80 0.0569
1053.90 0.05688
1054.00 0.05686
1054.10 0.05684
1054.20 0.05681
1054.30 0.05679
1054.40 0.05677
1054.50 0.05675
1054.60 0.05673
1054.70 0.05671
1054.80 0.05669
1054.90 0.05667
1055.00 0.05665
1055.10 0.05663
1055.20 0.0566
1055.30 0.05658
1055.40 0.05656
1055.50 0.05654
1055.60 0.05652
1055.70 0.0565
1055.80 0.05648
1055.90 0.05646
1056.00 0.05644
1056.10 0.05642
1056.20 0.0564
1056.30 0.05637
1056.40 0.05635
1056.50 0.05633
1056.60 0.05631
1056.70 0.05629
1056.80 0.05627
1056.90 0.05625
1057.00 0.05623
1057.10 0.05621
1057.20 0.05619
1057.30 0.05617
1057.40 0.05615
1057.50 0.05613
1057.60 0.05611
1057.70 0.05608
1057.80 0.05606
1057.90 0.05604
1058.00 0.05602
1058.10 0.056
1058.20 0.05598
1058.30 0.05596
1058.40 0.05594
1058.50 0.05592
1058.60 0.0559
1058.70 0.05588
1058.80 0.05586
1058.90 0.05584
1059.00 0.05582
1059.10 0.0558
1059.20 0.05578
1059.30 0.05576
1059.40 0.05573
1059.50 0.05571
1059.60 0.05569
1059.70 0.05567
1059.80 0.05565
1059.90 0.05563
1060.00 0.05561
1060.10 0.05559
1060.20 0.05557
1060.30 0.05555
1060.40 0.05553
1060.50 0.05551
1060.60 0.05549
1060.70 0.05547
1060.80 0.05545
1060.90 0.05543
1061.00 0.05541
1061.10 0.05539
1061.20 0.05537
1061.30 0.05535
1061.40 0.05533
1061.50 0.05531
1061.60 0.05529
1061.70 0.05526
1061.80 0.05524
1061.90 0.05522
1062.00 0.0552
1062.10 0.05518
1062.20 0.05516
1062.30 0.05514
1062.40 0.05512
1062.50 0.0551
1062.60 0.05508
1062.70 0.05506
1062.80 0.05504
1062.90 0.05502
1063.00 0.055
1063.10 0.05498
1063.20 0.05496
1063.30 0.05494
1063.40 0.05492
1063.50 0.0549
1063.60 0.05488
1063.70 0.05486
1063.80 0.05484
1063.90 0.05482
1064.00 0.0548
1064.10 0.05478
1064.20 0.05476
1064.30 0.05474
1064.40 0.05472
1064.50 0.0547
1064.60 0.05468
1064.70 0.05466
1064.80 0.05464
1064.90 0.05462
1065.00 0.0546
1065.10 0.05458
1065.20 0.05456
1065.30 0.05454
1065.40 0.05452
1065.50 0.0545
1065.60 0.05448
1065.70 0.05446
1065.80 0.05444
1065.90 0.05442
1066.00 0.0544
1066.10 0.05438
1066.20 0.05436
1066.30 0.05434
1066.40 0.05432
1066.50 0.0543
1066.60 0.05428
1066.70 0.05426
1066.80 0.05424
1066.90 0.05422
1067.00 0.0542
1067.10 0.05418
1067.20 0.05416
1067.30 0.05414
1067.40 0.05412
1067.50 0.0541
1067.60 0.05408
1067.70 0.05406
1067.80 0.05404
1067.90 0.05402
1068.00 0.054
1068.10 0.05398
1068.20 0.05396
1068.30 0.05394
1068.40 0.05392
1068.50 0.0539
1068.60 0.05388
1068.70 0.05386
1068.80 0.05384
1068.90 0.05382
1069.00 0.0538
1069.10 0.05378
1069.20 0.05376
1069.30 0.05374
1069.40 0.05372
1069.50 0.0537
1069.60 0.05368
1069.70 0.05366
1069.80 0.05364
1069.90 0.05362
1070.00 0.05361
1070.10 0.05359
1070.20 0.05357
1070.30 0.05355
1070.40 0.05353
1070.50 0.05351
1070.60 0.05349
1070.70 0.05347
1070.80 0.05345
1070.90 0.05343
1071.00 0.05341
1071.10 0.05339
1071.20 0.05337
1071.30 0.05335
1071.40 0.05333
1071.50 0.05331
1071.60 0.05329
1071.70 0.05327
1071.80 0.05325
1071.90 0.05323
1072.00 0.05321
1072.10 0.05319
1072.20 0.05317
1072.30 0.05315
1072.40 0.05313
1072.50 0.05311
1072.60 0.05309
1072.70 0.05308
1072.80 0.05306
1072.90 0.05304
1073.00 0.05302
1073.10 0.053
1073.20 0.05298
1073.30 0.05296
1073.40 0.05294
1073.50 0.05292
1073.60 0.0529
1073.70 0.05288
1073.80 0.05286
1073.90 0.05284
1074.00 0.05282
1074.10 0.0528
1074.20 0.05278
1074.30 0.05276
1074.40 0.05274
1074.50 0.05272
1074.60 0.0527
1074.70 0.05268
1074.80 0.05266
1074.90 0.05264
1075.00 0.05263
1075.10 0.05261
1075.20 0.05259
1075.30 0.05257
1075.40 0.05255
1075.50 0.05253
1075.60 0.05251
1075.70 0.05249
1075.80 0.05247
1075.90 0.05245
1076.00 0.05243
1076.10 0.05241
1076.20 0.05239
1076.30 0.05237
1076.40 0.05235
1076.50 0.05233
1076.60 0.05231
1076.70 0.05229
1076.80 0.05227
1076.90 0.05226
1077.00 0.05224
1077.10 0.05222
1077.20 0.0522
1077.30 0.05218
1077.40 0.05216
1077.50 0.05214
1077.60 0.05212
1077.70 0.0521
1077.80 0.05208
1077.90 0.05206
1078.00 0.05204
1078.10 0.05202
1078.20 0.052
1078.30 0.05198
1078.40 0.05196
1078.50 0.05194
1078.60 0.05192
1078.70 0.0519
1078.80 0.05188
1078.90 0.05186
1079.00 0.05184
1079.10 0.05182
1079.20 0.0518
1079.30 0.05178
1079.40 0.05176
1079.50 0.05174
1079.60 0.05172
1079.70 0.0517
1079.80 0.05168
1079.90 0.05166
1080.00 0.05164
1080.10 0.05162
1080.20 0.0516
1080.30 0.05158
1080.40 0.05156
1080.50 0.05154
1080.60 0.05152
1080.70 0.0515
1080.80 0.05148
1080.90 0.05146
1081.00 0.05144
1081.10 0.05142
1081.20 0.05141
1081.30 0.05139
1081.40 0.05137
1081.50 0.05135
1081.60 0.05132
1081.70 0.0513
1081.80 0.05128
1081.90 0.05126
1082.00 0.05124
1082.10 0.05122
1082.20 0.0512
1082.30 0.05118
1082.40 0.05116
1082.50 0.05114
1082.60 0.05112
1082.70 0.0511
1082.80 0.05108
1082.90 0.05106
1083.00 0.05103
1083.10 0.05101
1083.20 0.05099
1083.30 0.05097
1083.40 0.05095
1083.50 0.05093
1083.60 0.05091
1083.70 0.05089
1083.80 0.05087
1083.90 0.05084
1084.00 0.05082
1084.10 0.0508
1084.20 0.05078
1084.30 0.05076
1084.40 0.05073
1084.50 0.05071
1084.60 0.05069
1084.70 0.05066
1084.80 0.05064
1084.90 0.05062
1085.00 0.05059
1085.10 0.05057
1085.20 0.05055
1085.30 0.05052
1085.40 0.0505
1085.50 0.05048
1085.60 0.05045
1085.70 0.05043
1085.80 0.0504
1085.90 0.05038
1086.00 0.05036
1086.10 0.05033
1086.20 0.05031
1086.30 0.05029
1086.40 0.05026
1086.50 0.05024
1086.60 0.05021
1086.70 0.05019
1086.80 0.05016
1086.90 0.05013
1087.00 0.05011
1087.10 0.05008
1087.20 0.05005
1087.30 0.05002
1087.40 0.04999
1087.50 0.04996
1087.60 0.04993
1087.70 0.0499
1087.80 0.04987
1087.90 0.04984
1088.00 0.04981
1088.10 0.04978
1088.20 0.04975
1088.30 0.04973
1088.40 0.0497
1088.50 0.04966
1088.60 0.04963
1088.70 0.04959
1088.80 0.04955
1088.90 0.04951
1089.00 0.04947
1089.10 0.04943
1089.20 0.04939
1089.30 0.04936
1089.40 0.04932
1089.50 0.04928
1089.60 0.04924
1089.70 0.0492
1089.80 0.04916
1089.90 0.04912
1090.00 0.04909
1090.10 0.04905
1090.20 0.04901
1090.30 0.04897
1090.40 0.04893
1090.50 0.04889
1090.60 0.04884
1090.70 0.04879
1090.80 0.04873
1090.90 0.04868
1091.00 0.04863
1091.10 0.04858
1091.20 0.04853
1091.30 0.04847
1091.40 0.04842
1091.50 0.04837
1091.60 0.04832
1091.70 0.04827
1091.80 0.04821
1091.90 0.04816
1092.00 0.04811
1092.10 0.04805
1092.20 0.048
1092.30 0.04794
1092.40 0.04789
1092.50 0.04783
1092.60 0.04777
1092.70 0.04772
1092.80 0.04768
1092.90 0.04764
1093.00 0.0476
1093.10 0.04757
1093.20 0.04756
1093.30 0.04755
1093.40 0.04758
1093.50 0.04763
1093.60 0.04775
1093.70 0.04784
1093.80 0.0479
1093.90 0.04789
1094.00 0.04776
1094.10 0.04763
1094.20 0.0475
1094.30 0.04741
1094.40 0.0474
1094.50 0.04739
1094.60 0.04739
1094.70 0.04738
1094.80 0.04737
1094.90 0.04737
1095.00 0.04737
1095.10 0.04739
1095.20 0.04741
1095.30 0.04743
1095.40 0.04745
1095.50 0.04747
1095.60 0.0475
1095.70 0.04752
1095.80 0.04754
1095.90 0.04756
1096.00 0.04758
1096.10 0.0476
1096.20 0.04762
1096.30 0.04764
1096.40 0.04767
1096.50 0.04769
1096.60 0.0477
1096.70 0.04771
1096.80 0.04773
1096.90 0.04774
1097.00 0.04776
1097.10 0.04776
1097.20 0.04777
1097.30 0.04778
1097.40 0.04778
1097.50 0.04779
1097.60 0.0478
1097.70 0.0478
1097.80 0.04781
1097.90 0.04781
1098.00 0.04782
1098.10 0.04783
1098.20 0.04783
1098.30 0.04784
1098.40 0.04784
1098.50 0.04785
1098.60 0.04784
1098.70 0.04784
1098.80 0.04784
1098.90 0.04783
1099.00 0.04783
1099.10 0.04782
1099.20 0.04782
1099.30 0.04781
1099.40 0.04781
1099.50 0.04781
1099.60 0.0478
1099.70 0.0478
1099.80 0.04779
1099.90 0.04779
1100.00 0.04779
1100.10 0.04778
1100.20 0.04778
1100.30 0.04777
1100.40 0.04777
1100.50 0.04776
1100.60 0.04775
1100.70 0.04774
1100.80 0.04773
1100.90 0.04772
1101.00 0.04771
1101.10 0.0477
1101.20 0.04769
1101.30 0.04768
1101.40 0.04767
1101.50 0.04766
1101.60 0.04765
1101.70 0.04764
1101.80 0.04763
1101.90 0.04762
1102.00 0.04761
1102.10 0.0476
1102.20 0.04759
1102.30 0.04758
1102.40 0.04757
1102.50 0.04755
1102.60 0.04754
1102.70 0.04753
1102.80 0.04751
1102.90 0.0475
1103.00 0.04749
1103.10 0.04748
1103.20 0.04746
1103.30 0.04745
1103.40 0.04744
1103.50 0.04742
1103.60 0.04741
1103.70 0.0474
1103.80 0.04738
1103.90 0.04737
1104.00 0.04735
1104.10 0.04734
1104.20 0.04732
1104.30 0.04731
1104.40 0.0473
1104.50 0.04728
1104.60 0.04727
1104.70 0.04725
1104.80 0.04724
1104.90 0.04723
1105.00 0.04721
1105.10 0.0472
1105.20 0.04718
1105.30 0.04717
1105.40 0.04716
1105.50 0.04714
1105.60 0.04713
1105.70 0.04711
1105.80 0.0471
1105.90 0.04708
1106.00 0.04707
1106.10 0.04705
1106.20 0.04704
1106.30 0.04702
1106.40 0.04701
1106.50 0.04699
1106.60 0.04698
1106.70 0.04696
1106.80 0.04695
1106.90 0.04693
1107.00 0.04692
1107.10 0.0469
1107.20 0.04688
1107.30 0.04687
1107.40 0.04685
1107.50 0.04684
1107.60 0.04682
1107.70 0.04681
1107.80 0.04679
1107.90 0.04678
1108.00 0.04676
1108.10 0.04675
1108.20 0.04673
1108.30 0.04671
1108.40 0.0467
1108.50 0.04668
1108.60 0.04667
1108.70 0.04665
1108.80 0.04664
1108.90 0.04662
1109.00 0.04661
1109.10 0.04659
1109.20 0.04658
1109.30 0.04656
1109.40 0.04654
1109.50 0.04653
1109.60 0.04651
1109.70 0.0465
1109.80 0.04648
1109.90 0.04647
1110.00 0.04645
1110.10 0.04643
1110.20 0.04642
1110.30 0.0464
1110.40 0.04639
1110.50 0.04637
1110.60 0.04636
1110.70 0.04634
1110.80 0.04632
1110.90 0.04631
1111.00 0.04629
1111.10 0.04628
1111.20 0.04626
1111.30 0.04625
1111.40 0.04623
1111.50 0.04621
1111.60 0.0462
1111.70 0.04618
1111.80 0.04617
1111.90 0.04615
1112.00 0.04614
1112.10 0.04612
1112.20 0.0461
1112.30 0.04609
1112.40 0.04607
1112.50 0.04606
1112.60 0.04604
1112.70 0.04603
1112.80 0.04601
1112.90 0.04599
1113.00 0.04598
1113.10 0.04596
1113.20 0.04595
1113.30 0.04593
1113.40 0.04592
1113.50 0.0459
1113.60 0.04588
1113.70 0.04587
1113.80 0.04585
1113.90 0.04584
1114.00 0.04582
1114.10 0.04581
1114.20 0.04579
1114.30 0.04577
1114.40 0.04576
1114.50 0.04574
1114.60 0.04573
1114.70 0.04571
1114.80 0.0457
1114.90 0.04568
1115.00 0.04566
1115.10 0.04565
1115.20 0.04563
1115.30 0.04562
1115.40 0.0456
1115.50 0.04559
1115.60 0.04557
1115.70 0.04555
1115.80 0.04554
1115.90 0.04552
1116.00 0.04551
1116.10 0.04549
1116.20 0.04548
1116.30 0.04546
1116.40 0.04544
1116.50 0.04543
1116.60 0.04541
1116.70 0.0454
1116.80 0.04538
1116.90 0.04537
1117.00 0.04535
1117.10 0.04534
1117.20 0.04532
1117.30 0.0453
1117.40 0.04529
1117.50 0.04527
1117.60 0.04526
1117.70 0.04524
1117.80 0.04523
1117.90 0.04521
1118.00 0.0452
1118.10 0.04518
1118.20 0.04516
1118.30 0.04515
1118.40 0.04513
1118.50 0.04512
1118.60 0.0451
1118.70 0.04509
1118.80 0.04507
1118.90 0.04506
1119.00 0.04504
1119.10 0.04502
1119.20 0.04501
1119.30 0.04499
1119.40 0.04498
1119.50 0.04496
1119.60 0.04495
1119.70 0.04493
1119.80 0.04492
1119.90 0.0449
1120.00 0.04488
1120.10 0.04487
1120.20 0.04485
1120.30 0.04484
1120.40 0.04482
1120.50 0.04481
1120.60 0.04479
1120.70 0.04478
1120.80 0.04476
1120.90 0.04475
1121.00 0.04473
1121.10 0.04471
1121.20 0.0447
1121.30 0.04468
1121.40 0.04467
1121.50 0.04465
1121.60 0.04464
1121.70 0.04462
1121.80 0.04461
1121.90 0.04459
1122.00 0.04458
1122.10 0.04456
1122.20 0.04455
1122.30 0.04453
1122.40 0.04451
1122.50 0.0445
1122.60 0.04448
1122.70 0.04447
1122.80 0.04445
1122.90 0.04444
1123.00 0.04442
1123.10 0.04441
1123.20 0.04439
1123.30 0.04438
1123.40 0.04436
1123.50 0.04435
1123.60 0.04433
1123.70 0.04432
1123.80 0.0443
1123.90 0.04428
1124.00 0.04427
1124.10 0.04425
1124.20 0.04424
1124.30 0.04422
1124.40 0.04421
1124.50 0.04419
1124.60 0.04418
1124.70 0.04416
1124.80 0.04415
1124.90 0.04413
1125.00 0.04412
1125.10 0.0441
1125.20 0.04409
1125.30 0.04407
1125.40 0.04406
1125.50 0.04404
1125.60 0.04403
1125.70 0.04401
1125.80 0.044
1125.90 0.04398
1126.00 0.04397
1126.10 0.04395
1126.20 0.04393
1126.30 0.04392
1126.40 0.0439
1126.50 0.04389
1126.60 0.04387
1126.70 0.04386
1126.80 0.04384
1126.90 0.04383
1127.00 0.04381
1127.10 0.0438
1127.20 0.04378
1127.30 0.04377
1127.40 0.04375
1127.50 0.04374
1127.60 0.04372
1127.70 0.04371
1127.80 0.04369
1127.90 0.04368
1128.00 0.04366
1128.10 0.04365
1128.20 0.04363
1128.30 0.04362
1128.40 0.0436
1128.50 0.04359
1128.60 0.04357
1128.70 0.04356
1128.80 0.04354
1128.90 0.04353
1129.00 0.04351
1129.10 0.0435
1129.20 0.04348
1129.30 0.04347
1129.40 0.04345
1129.50 0.04344
1129.60 0.04342
1129.70 0.04341
1129.80 0.04339
1129.90 0.04338
1130.00 0.04336
1130.10 0.04335
1130.20 0.04333
1130.30 0.04332
1130.40 0.0433
1130.50 0.04329
1130.60 0.04327
1130.70 0.04326
1130.80 0.04325
1130.90 0.04323
1131.00 0.04322
1131.10 0.0432
1131.20 0.04319
1131.30 0.04317
1131.40 0.04316
1131.50 0.04314
1131.60 0.04313
1131.70 0.04311
1131.80 0.0431
1131.90 0.04308
1132.00 0.04307
1132.10 0.04305
1132.20 0.04304
1132.30 0.04302
1132.40 0.04301
1132.50 0.04299
1132.60 0.04298
1132.70 0.04296
1132.80 0.04295
1132.90 0.04293
1133.00 0.04292
1133.10 0.04291
1133.20 0.04289
1133.30 0.04288
1133.40 0.04286
1133.50 0.04285
1133.60 0.04283
1133.70 0.04282
1133.80 0.0428
1133.90 0.04279
1134.00 0.04277
1134.10 0.04276
1134.20 0.04274
1134.30 0.04273
1134.40 0.04271
1134.50 0.0427
1134.60 0.04269
1134.70 0.04267
1134.80 0.04266
1134.90 0.04264
1135.00 0.04263
1135.10 0.04261
1135.20 0.0426
1135.30 0.04258
1135.40 0.04257
1135.50 0.04255
1135.60 0.04254
1135.70 0.04252
1135.80 0.04251
1135.90 0.0425
1136.00 0.04248
1136.10 0.04247
1136.20 0.04245
1136.30 0.04244
1136.40 0.04242
1136.50 0.04241
1136.60 0.04239
1136.70 0.04238
1136.80 0.04236
1136.90 0.04235
1137.00 0.04234
1137.10 0.04232
1137.20 0.04231
1137.30 0.04229
1137.40 0.04228
1137.50 0.04226
1137.60 0.04225
1137.70 0.04223
1137.80 0.04222
1137.90 0.04221
1138.00 0.04219
1138.10 0.04218
1138.20 0.04216
1138.30 0.04215
1138.40 0.04213
1138.50 0.04212
1138.60 0.0421
1138.70 0.04209
1138.80 0.04208
1138.90 0.04206
1139.00 0.04205
1139.10 0.04203
1139.20 0.04202
1139.30 0.042
1139.40 0.04199
1139.50 0.04198
1139.60 0.04196
1139.70 0.04195
1139.80 0.04193
1139.90 0.04192
1140.00 0.0419
1140.10 0.04189
1140.20 0.04188
1140.30 0.04186
1140.40 0.04185
1140.50 0.04183
1140.60 0.04182
1140.70 0.0418
1140.80 0.04179
1140.90 0.04178
1141.00 0.04176
1141.10 0.04175
1141.20 0.04173
1141.30 0.04172
1141.40 0.0417
1141.50 0.04169
1141.60 0.04168
1141.70 0.04166
1141.80 0.04165
1141.90 0.04163
1142.00 0.04162
1142.10 0.0416
1142.20 0.04159
1142.30 0.04158
1142.40 0.04156
1142.50 0.04155
1142.60 0.04153
1142.70 0.04152
1142.80 0.04151
1142.90 0.04149
1143.00 0.04148
1143.10 0.04146
1143.20 0.04145
1143.30 0.04144
1143.40 0.04142
1143.50 0.04141
1143.60 0.04139
1143.70 0.04138
1143.80 0.04136
1143.90 0.04135
1144.00 0.04134
1144.10 0.04132
1144.20 0.04131
1144.30 0.04129
1144.40 0.04128
1144.50 0.04127
1144.60 0.04125
1144.70 0.04124
1144.80 0.04122
1144.90 0.04121
1145.00 0.0412
1145.10 0.04118
1145.20 0.04117
1145.30 0.04115
1145.40 0.04114
1145.50 0.04113
1145.60 0.04111
1145.70 0.0411
1145.80 0.04108
1145.90 0.04107
1146.00 0.04106
1146.10 0.04104
1146.20 0.04103
1146.30 0.04101
1146.40 0.041
1146.50 0.04099
1146.60 0.04097
1146.70 0.04096
1146.80 0.04094
1146.90 0.04093
1147.00 0.04092
1147.10 0.0409
1147.20 0.04089
1147.30 0.04088
1147.40 0.04086
1147.50 0.04085
1147.60 0.04083
1147.70 0.04082
1147.80 0.04081
1147.90 0.04079
1148.00 0.04078
1148.10 0.04076
1148.20 0.04075
1148.30 0.04074
1148.40 0.04072
1148.50 0.04071
1148.60 0.0407
1148.70 0.04068
1148.80 0.04067
1148.90 0.04065
1149.00 0.04064
1149.10 0.04063
1149.20 0.04061
1149.30 0.0406
1149.40 0.04059
1149.50 0.04057
1149.60 0.04056
1149.70 0.04054
1149.80 0.04053
1149.90 0.04052
1150.00 0.0405
1150.10 0.04049
1150.20 0.04048
1150.30 0.04046
1150.40 0.04045
1150.50 0.04043
1150.60 0.04042
1150.70 0.04041
1150.80 0.04039
1150.90 0.04038
1151.00 0.04037
1151.10 0.04035
1151.20 0.04034
1151.30 0.04033
1151.40 0.04031
1151.50 0.0403
1151.60 0.04028
1151.70 0.04027
1151.80 0.04026
1151.90 0.04024
1152.00 0.04023
1152.10 0.04022
1152.20 0.0402
1152.30 0.04019
1152.40 0.04018
1152.50 0.04016
1152.60 0.04015
1152.70 0.04014
1152.80 0.04012
1152.90 0.04011
1153.00 0.04009
1153.10 0.04008
1153.20 0.04007
1153.30 0.04005
1153.40 0.04004
1153.50 0.04003
1153.60 0.04001
1153.70 0.04
1153.80 0.03999
1153.90 0.03997
1154.00 0.03996
1154.10 0.03995
1154.20 0.03993
1154.30 0.03992
1154.40 0.03991
1154.50 0.03989
1154.60 0.03988
1154.70 0.03987
1154.80 0.03985
1154.90 0.03984
1155.00 0.03983
1155.10 0.03981
1155.20 0.0398
1155.30 0.03978
1155.40 0.03977
1155.50 0.03976
1155.60 0.03974
1155.70 0.03973
1155.80 0.03972
1155.90 0.0397
1156.00 0.03969
1156.10 0.03968
1156.20 0.03966
1156.30 0.03965
1156.40 0.03964
1156.50 0.03962
1156.60 0.03961
1156.70 0.0396
1156.80 0.03958
1156.90 0.03957
1157.00 0.03956
1157.10 0.03954
1157.20 0.03953
1157.30 0.03952
1157.40 0.0395
1157.50 0.03949
1157.60 0.03948
1157.70 0.03946
1157.80 0.03945
1157.90 0.03944
1158.00 0.03942
1158.10 0.03941
1158.20 0.0394
1158.30 0.03938
1158.40 0.03937
1158.50 0.03936
1158.60 0.03935
1158.70 0.03933
1158.80 0.03932
1158.90 0.03931
1159.00 0.03929
1159.10 0.03928
1159.20 0.03927
1159.30 0.03925
1159.40 0.03924
1159.50 0.03923
1159.60 0.03921
1159.70 0.0392
1159.80 0.03919
1159.90 0.03917
1160.00 0.03916
1160.10 0.03915
1160.20 0.03913
1160.30 0.03912
1160.40 0.03911
1160.50 0.03909
1160.60 0.03908
1160.70 0.03907
1160.80 0.03906
1160.90 0.03904
1161.00 0.03903
1161.10 0.03902
1161.20 0.039
1161.30 0.03899
1161.40 0.03898
1161.50 0.03896
1161.60 0.03895
1161.70 0.03894
1161.80 0.03892
1161.90 0.03891
1162.00 0.0389
1162.10 0.03889
1162.20 0.03887
1162.30 0.03886
1162.40 0.03885
1162.50 0.03883
1162.60 0.03882
1162.70 0.03881
1162.80 0.03879
1162.90 0.03878
1163.00 0.03877
1163.10 0.03876
1163.20 0.03874
1163.30 0.03873
1163.40 0.03872
1163.50 0.0387
1163.60 0.03869
1163.70 0.03868
1163.80 0.03866
1163.90 0.03865
1164.00 0.03864
1164.10 0.03863
1164.20 0.03861
1164.30 0.0386
1164.40 0.03859
1164.50 0.03857
1164.60 0.03856
1164.70 0.03855
1164.80 0.03854
1164.90 0.03852
1165.00 0.03851
1165.10 0.0385
1165.20 0.03848
1165.30 0.03847
1165.40 0.03846
1165.50 0.03845
1165.60 0.03843
1165.70 0.03842
1165.80 0.03841
1165.90 0.03839
1166.00 0.03838
1166.10 0.03837
1166.20 0.03836
1166.30 0.03834
1166.40 0.03833
1166.50 0.03832
1166.60 0.0383
1166.70 0.03829
1166.80 0.03828
1166.90 0.03827
1167.00 0.03825
1167.10 0.03824
1167.20 0.03823
1167.30 0.03822
1167.40 0.0382
1167.50 0.03819
1167.60 0.03818
1167.70 0.03816
1167.80 0.03815
1167.90 0.03814
1168.00 0.03813
1168.10 0.03811
1168.20 0.0381
1168.30 0.03809
1168.40 0.03808
1168.50 0.03806
1168.60 0.03805
1168.70 0.03804
1168.80 0.03802
1168.90 0.03801
1169.00 0.038
1169.10 0.03799
1169.20 0.03797
1169.30 0.03796
1169.40 0.03795
1169.50 0.03794
1169.60 0.03792
1169.70 0.03791
1169.80 0.0379
1169.90 0.03789
1170.00 0.03787
1170.10 0.03786
1170.20 0.03785
1170.30 0.03784
1170.40 0.03782
1170.50 0.03781
1170.60 0.0378
1170.70 0.03778
1170.80 0.03777
1170.90 0.03776
1171.00 0.03775
1171.10 0.03773
1171.20 0.03772
1171.30 0.03771
1171.40 0.0377
1171.50 0.03768
1171.60 0.03767
1171.70 0.03766
1171.80 0.03765
1171.90 0.03763
1172.00 0.03762
1172.10 0.03761
1172.20 0.0376
1172.30 0.03758
1172.40 0.03757
1172.50 0.03756
1172.60 0.03755
1172.70 0.03753
1172.80 0.03752
1172.90 0.03751
1173.00 0.0375
1173.10 0.03748
1173.20 0.03747
1173.30 0.03746
1173.40 0.03745
1173.50 0.03743
1173.60 0.03742
1173.70 0.03741
1173.80 0.0374
1173.90 0.03739
1174.00 0.03737
1174.10 0.03736
1174.20 0.03735
1174.30 0.03734
1174.40 0.03732
1174.50 0.03731
1174.60 0.0373
1174.70 0.03729
1174.80 0.03727
1174.90 0.03726
1175.00 0.03725
1175.10 0.03724
1175.20 0.03722
1175.30 0.03721
1175.40 0.0372
1175.50 0.03719
1175.60 0.03718
1175.70 0.03716
1175.80 0.03715
1175.90 0.03714
1176.00 0.03713
1176.10 0.03711
1176.20 0.0371
1176.30 0.03709
1176.40 0.03708
1176.50 0.03706
1176.60 0.03705
1176.70 0.03704
1176.80 0.03703
1176.90 0.03702
1177.00 0.037
1177.10 0.03699
1177.20 0.03698
1177.30 0.03697
1177.40 0.03695
1177.50 0.03694
1177.60 0.03693
1177.70 0.03692
1177.80 0.03691
1177.90 0.03689
1178.00 0.03688
1178.10 0.03687
1178.20 0.03686
1178.30 0.03684
1178.40 0.03683
1178.50 0.03682
1178.60 0.03681
1178.70 0.0368
1178.80 0.03678
1178.90 0.03677
1179.00 0.03676
1179.10 0.03675
1179.20 0.03673
1179.30 0.03672
1179.40 0.03671
1179.50 0.0367
1179.60 0.03669
1179.70 0.03667
1179.80 0.03666
1179.90 0.03665
1180.00 0.03664
1180.10 0.03663
1180.20 0.03661
1180.30 0.0366
1180.40 0.03659
1180.50 0.03658
1180.60 0.03657
1180.70 0.03655
1180.80 0.03654
1180.90 0.03653
1181.00 0.03652
1181.10 0.0365
1181.20 0.03649
1181.30 0.03648
1181.40 0.03647
1181.50 0.03646
1181.60 0.03644
1181.70 0.03643
1181.80 0.03642
1181.90 0.03641
1182.00 0.0364
1182.10 0.03638
1182.20 0.03637
1182.30 0.03636
1182.40 0.03635
1182.50 0.03634
1182.60 0.03632
1182.70 0.03631
1182.80 0.0363
1182.90 0.03629
1183.00 0.03628
1183.10 0.03627
1183.20 0.03625
1183.30 0.03624
1183.40 0.03623
1183.50 0.03622
1183.60 0.03621
1183.70 0.03619
1183.80 0.03618
1183.90 0.03617
1184.00 0.03616
1184.10 0.03615
1184.20 0.03613
1184.30 0.03612
1184.40 0.03611
1184.50 0.0361
1184.60 0.03609
1184.70 0.03607
1184.80 0.03606
1184.90 0.03605
1185.00 0.03604
1185.10 0.03603
1185.20 0.03602
1185.30 0.036
1185.40 0.03599
1185.50 0.03598
1185.60 0.03597
1185.70 0.03596
1185.80 0.03594
1185.90 0.03593
1186.00 0.03592
1186.10 0.03591
1186.20 0.0359
1186.30 0.03589
1186.40 0.03587
1186.50 0.03586
1186.60 0.03585
1186.70 0.03584
1186.80 0.03583
1186.90 0.03581
1187.00 0.0358
1187.10 0.03579
1187.20 0.03578
1187.30 0.03577
1187.40 0.03576
1187.50 0.03574
1187.60 0.03573
1187.70 0.03572
1187.80 0.03571
1187.90 0.0357
1188.00 0.03569
1188.10 0.03567
1188.20 0.03566
1188.30 0.03565
1188.40 0.03564
1188.50 0.03563
1188.60 0.03562
1188.70 0.0356
1188.80 0.03559
1188.90 0.03558
1189.00 0.03557
1189.10 0.03556
1189.20 0.03555
1189.30 0.03553
1189.40 0.03552
1189.50 0.03551
1189.60 0.0355
1189.70 0.03549
1189.80 0.03548
1189.90 0.03546
1190.00 0.03545
1190.10 0.03544
1190.20 0.03543
1190.30 0.03542
1190.40 0.03541
1190.50 0.03539
1190.60 0.03538
1190.70 0.03537
1190.80 0.03536
1190.90 0.03535
1191.00 0.03534
1191.10 0.03532
1191.20 0.03531
1191.30 0.0353
1191.40 0.03529
1191.50 0.03528
1191.60 0.03527
1191.70 0.03526
1191.80 0.03524
1191.90 0.03523
1192.00 0.03522
1192.10 0.03521
1192.20 0.0352
1192.30 0.03519
1192.40 0.03517
1192.50 0.03516
1192.60 0.03515
1192.70 0.03514
1192.80 0.03513
1192.90 0.03512
1193.00 0.03511
1193.10 0.03509
1193.20 0.03508
1193.30 0.03507
1193.40 0.03506
1193.50 0.03505
1193.60 0.03504
1193.70 0.03503
1193.80 0.03501
1193.90 0.035
1194.00 0.03499
1194.10 0.03498
1194.20 0.03497
1194.30 0.03496
1194.40 0.03495
1194.50 0.03493
1194.60 0.03492
1194.70 0.03491
1194.80 0.0349
1194.90 0.03489
1195.00 0.03488
1195.10 0.03487
1195.20 0.03486
1195.30 0.03484
1195.40 0.03483
1195.50 0.03482
1195.60 0.03481
1195.70 0.0348
1195.80 0.03479
1195.90 0.03478
1196.00 0.03476
1196.10 0.03475
1196.20 0.03474
1196.30 0.03473
1196.40 0.03472
1196.50 0.03471
1196.60 0.0347
1196.70 0.03469
1196.80 0.03467
1196.90 0.03466
1197.00 0.03465
1197.10 0.03464
1197.20 0.03463
1197.30 0.03462
1197.40 0.03461
1197.50 0.03459
1197.60 0.03458
1197.70 0.03457
1197.80 0.03456
1197.90 0.03455
1198.00 0.03454
1198.10 0.03453
1198.20 0.03452
1198.30 0.03451
1198.40 0.03449
1198.50 0.03448
1198.60 0.03447
1198.70 0.03446
1198.80 0.03445
1198.90 0.03444
1199.00 0.03443
1199.10 0.03442
1199.20 0.0344
1199.30 0.03439
1199.40 0.03438
1199.50 0.03437
1199.60 0.03436
1199.70 0.03435
1199.80 0.03434
1199.90 0.03433
1200.00 0
