# Version 2.1 - nm, norm@500 to 1, cut digits, bergeron_13500_65.dat_13500
# Wavelength(nm)  Flambda(ergs/cm^s/s/nm)
300.00 1.776
300.10 1.775
300.20 1.774
300.30 1.773
300.40 1.771
300.50 1.77
300.60 1.769
300.70 1.768
300.80 1.767
300.90 1.765
301.00 1.764
301.10 1.763
301.20 1.762
301.30 1.761
301.40 1.759
301.50 1.758
301.60 1.757
301.70 1.756
301.80 1.755
301.90 1.753
302.00 1.752
302.10 1.751
302.20 1.75
302.30 1.749
302.40 1.747
302.50 1.746
302.60 1.745
302.70 1.744
302.80 1.743
302.90 1.742
303.00 1.74
303.10 1.739
303.20 1.738
303.30 1.737
303.40 1.736
303.50 1.735
303.60 1.733
303.70 1.732
303.80 1.731
303.90 1.73
304.00 1.729
304.10 1.728
304.20 1.726
304.30 1.725
304.40 1.724
304.50 1.723
304.60 1.722
304.70 1.721
304.80 1.72
304.90 1.718
305.00 1.717
305.10 1.716
305.20 1.715
305.30 1.714
305.40 1.713
305.50 1.711
305.60 1.71
305.70 1.709
305.80 1.708
305.90 1.707
306.00 1.706
306.10 1.705
306.20 1.703
306.30 1.702
306.40 1.701
306.50 1.7
306.60 1.699
306.70 1.698
306.80 1.697
306.90 1.696
307.00 1.694
307.10 1.693
307.20 1.692
307.30 1.691
307.40 1.69
307.50 1.689
307.60 1.688
307.70 1.687
307.80 1.685
307.90 1.684
308.00 1.683
308.10 1.682
308.20 1.681
308.30 1.68
308.40 1.679
308.50 1.678
308.60 1.676
308.70 1.675
308.80 1.674
308.90 1.673
309.00 1.672
309.10 1.671
309.20 1.67
309.30 1.669
309.40 1.668
309.50 1.667
309.60 1.665
309.70 1.664
309.80 1.663
309.90 1.662
310.00 1.661
310.10 1.66
310.20 1.659
310.30 1.658
310.40 1.657
310.50 1.656
310.60 1.654
310.70 1.653
310.80 1.652
310.90 1.651
311.00 1.65
311.10 1.649
311.20 1.648
311.30 1.647
311.40 1.646
311.50 1.645
311.60 1.644
311.70 1.642
311.80 1.641
311.90 1.64
312.00 1.639
312.10 1.638
312.20 1.637
312.30 1.636
312.40 1.635
312.50 1.634
312.60 1.633
312.70 1.632
312.80 1.631
312.90 1.63
313.00 1.629
313.10 1.627
313.20 1.626
313.30 1.625
313.40 1.624
313.50 1.623
313.60 1.622
313.70 1.621
313.80 1.62
313.90 1.619
314.00 1.618
314.10 1.617
314.20 1.616
314.30 1.615
314.40 1.614
314.50 1.613
314.60 1.612
314.70 1.61
314.80 1.609
314.90 1.608
315.00 1.607
315.10 1.606
315.20 1.605
315.30 1.604
315.40 1.603
315.50 1.602
315.60 1.601
315.70 1.6
315.80 1.599
315.90 1.598
316.00 1.597
316.10 1.596
316.20 1.595
316.30 1.594
316.40 1.593
316.50 1.592
316.60 1.591
316.70 1.59
316.80 1.589
316.90 1.588
317.00 1.587
317.10 1.586
317.20 1.584
317.30 1.583
317.40 1.582
317.50 1.581
317.60 1.58
317.70 1.579
317.80 1.578
317.90 1.577
318.00 1.576
318.10 1.575
318.20 1.574
318.30 1.573
318.40 1.572
318.50 1.571
318.60 1.57
318.70 1.569
318.80 1.568
318.90 1.567
319.00 1.566
319.10 1.565
319.20 1.564
319.30 1.563
319.40 1.562
319.50 1.561
319.60 1.56
319.70 1.559
319.80 1.558
319.90 1.557
320.00 1.556
320.10 1.555
320.20 1.554
320.30 1.553
320.40 1.552
320.50 1.551
320.60 1.55
320.70 1.549
320.80 1.548
320.90 1.547
321.00 1.546
321.10 1.545
321.20 1.544
321.30 1.543
321.40 1.542
321.50 1.541
321.60 1.54
321.70 1.539
321.80 1.538
321.90 1.537
322.00 1.536
322.10 1.535
322.20 1.534
322.30 1.533
322.40 1.532
322.50 1.531
322.60 1.53
322.70 1.529
322.80 1.528
322.90 1.527
323.00 1.526
323.10 1.525
323.20 1.524
323.30 1.523
323.40 1.522
323.50 1.521
323.60 1.52
323.70 1.519
323.80 1.519
323.90 1.518
324.00 1.517
324.10 1.516
324.20 1.515
324.30 1.514
324.40 1.513
324.50 1.512
324.60 1.511
324.70 1.51
324.80 1.509
324.90 1.508
325.00 1.507
325.10 1.506
325.20 1.505
325.30 1.504
325.40 1.503
325.50 1.502
325.60 1.501
325.70 1.5
325.80 1.499
325.90 1.498
326.00 1.497
326.10 1.496
326.20 1.495
326.30 1.495
326.40 1.494
326.50 1.493
326.60 1.492
326.70 1.491
326.80 1.49
326.90 1.489
327.00 1.488
327.10 1.487
327.20 1.486
327.30 1.485
327.40 1.484
327.50 1.483
327.60 1.482
327.70 1.481
327.80 1.48
327.90 1.479
328.00 1.479
328.10 1.478
328.20 1.477
328.30 1.476
328.40 1.475
328.50 1.474
328.60 1.473
328.70 1.472
328.80 1.471
328.90 1.47
329.00 1.469
329.10 1.468
329.20 1.467
329.30 1.466
329.40 1.465
329.50 1.465
329.60 1.464
329.70 1.463
329.80 1.462
329.90 1.461
330.00 1.46
330.10 1.459
330.20 1.458
330.30 1.457
330.40 1.456
330.50 1.455
330.60 1.454
330.70 1.454
330.80 1.453
330.90 1.452
331.00 1.451
331.10 1.45
331.20 1.449
331.30 1.448
331.40 1.447
331.50 1.446
331.60 1.445
331.70 1.444
331.80 1.444
331.90 1.443
332.00 1.442
332.10 1.441
332.20 1.44
332.30 1.439
332.40 1.438
332.50 1.437
332.60 1.436
332.70 1.435
332.80 1.434
332.90 1.434
333.00 1.433
333.10 1.432
333.20 1.431
333.30 1.43
333.40 1.429
333.50 1.428
333.60 1.427
333.70 1.426
333.80 1.426
333.90 1.425
334.00 1.424
334.10 1.423
334.20 1.422
334.30 1.421
334.40 1.42
334.50 1.419
334.60 1.418
334.70 1.418
334.80 1.417
334.90 1.416
335.00 1.415
335.10 1.414
335.20 1.413
335.30 1.412
335.40 1.411
335.50 1.411
335.60 1.41
335.70 1.409
335.80 1.408
335.90 1.407
336.00 1.406
336.10 1.405
336.20 1.404
336.30 1.404
336.40 1.403
336.50 1.402
336.60 1.401
336.70 1.4
336.80 1.399
336.90 1.398
337.00 1.397
337.10 1.397
337.20 1.396
337.30 1.395
337.40 1.394
337.50 1.393
337.60 1.392
337.70 1.391
337.80 1.391
337.90 1.39
338.00 1.389
338.10 1.388
338.20 1.387
338.30 1.386
338.40 1.385
338.50 1.384
338.60 1.384
338.70 1.383
338.80 1.382
338.90 1.381
339.00 1.38
339.10 1.379
339.20 1.379
339.30 1.378
339.40 1.377
339.50 1.376
339.60 1.375
339.70 1.374
339.80 1.373
339.90 1.373
340.00 1.372
340.10 1.371
340.20 1.37
340.30 1.369
340.40 1.368
340.50 1.367
340.60 1.367
340.70 1.366
340.80 1.365
340.90 1.364
341.00 1.363
341.10 1.362
341.20 1.362
341.30 1.361
341.40 1.36
341.50 1.359
341.60 1.358
341.70 1.357
341.80 1.357
341.90 1.356
342.00 1.355
342.10 1.354
342.20 1.353
342.30 1.352
342.40 1.352
342.50 1.351
342.60 1.35
342.70 1.349
342.80 1.348
342.90 1.347
343.00 1.347
343.10 1.346
343.20 1.345
343.30 1.344
343.40 1.343
343.50 1.343
343.60 1.342
343.70 1.341
343.80 1.34
343.90 1.339
344.00 1.338
344.10 1.338
344.20 1.337
344.30 1.336
344.40 1.335
344.50 1.334
344.60 1.334
344.70 1.333
344.80 1.332
344.90 1.331
345.00 1.33
345.10 1.329
345.20 1.329
345.30 1.328
345.40 1.327
345.50 1.326
345.60 1.325
345.70 1.325
345.80 1.324
345.90 1.323
346.00 1.322
346.10 1.321
346.20 1.321
346.30 1.32
346.40 1.319
346.50 1.318
346.60 1.317
346.70 1.317
346.80 1.316
346.90 1.315
347.00 1.314
347.10 1.313
347.20 1.313
347.30 1.312
347.40 1.311
347.50 1.31
347.60 1.309
347.70 1.309
347.80 1.308
347.90 1.307
348.00 1.306
348.10 1.305
348.20 1.305
348.30 1.304
348.40 1.303
348.50 1.302
348.60 1.301
348.70 1.301
348.80 1.3
348.90 1.299
349.00 1.298
349.10 1.298
349.20 1.297
349.30 1.296
349.40 1.295
349.50 1.294
349.60 1.294
349.70 1.293
349.80 1.292
349.90 1.291
350.00 1.29
350.10 1.29
350.20 1.289
350.30 1.288
350.40 1.287
350.50 1.287
350.60 1.286
350.70 1.285
350.80 1.284
350.90 1.283
351.00 1.283
351.10 1.282
351.20 1.281
351.30 1.28
351.40 1.28
351.50 1.279
351.60 1.278
351.70 1.277
351.80 1.277
351.90 1.276
352.00 1.275
352.10 1.274
352.20 1.273
352.30 1.273
352.40 1.272
352.50 1.271
352.60 1.27
352.70 1.27
352.80 1.269
352.90 1.268
353.00 1.267
353.10 1.267
353.20 1.266
353.30 1.265
353.40 1.264
353.50 1.264
353.60 1.263
353.70 1.262
353.80 1.261
353.90 1.261
354.00 1.26
354.10 1.259
354.20 1.258
354.30 1.257
354.40 1.257
354.50 1.256
354.60 1.255
354.70 1.254
354.80 1.254
354.90 1.253
355.00 1.252
355.10 1.251
355.20 1.251
355.30 1.25
355.40 1.249
355.50 1.248
355.60 1.248
355.70 1.247
355.80 1.246
355.90 1.246
356.00 1.245
356.10 1.244
356.20 1.243
356.30 1.243
356.40 1.242
356.50 1.241
356.60 1.24
356.70 1.24
356.80 1.239
356.90 1.238
357.00 1.237
357.10 1.237
357.20 1.236
357.30 1.235
357.40 1.234
357.50 1.234
357.60 1.233
357.70 1.232
357.80 1.231
357.90 1.231
358.00 1.23
358.10 1.229
358.20 1.229
358.30 1.228
358.40 1.227
358.50 1.226
358.60 1.226
358.70 1.225
358.80 1.224
358.90 1.223
359.00 1.223
359.10 1.222
359.20 1.221
359.30 1.221
359.40 1.22
359.50 1.219
359.60 1.218
359.70 1.218
359.80 1.217
359.90 1.216
360.00 1.215
360.10 1.215
360.20 1.214
360.30 1.213
360.40 1.213
360.50 1.212
360.60 1.211
360.70 1.21
360.80 1.21
360.90 1.209
361.00 1.208
361.10 1.208
361.20 1.207
361.30 1.206
361.40 1.205
361.50 1.205
361.60 1.204
361.70 1.203
361.80 1.203
361.90 1.202
362.00 1.201
362.10 1.2
362.20 1.2
362.30 1.199
362.40 1.198
362.50 1.198
362.60 1.197
362.70 1.196
362.80 1.195
362.90 1.195
363.00 1.194
363.10 1.193
363.20 1.193
363.30 1.192
363.40 1.191
363.50 1.19
363.60 1.19
363.70 1.189
363.80 1.188
363.90 1.188
364.00 1.187
364.10 1.186
364.20 1.185
364.30 1.185
364.40 1.184
364.50 1.183
364.60 1.183
364.70 1.182
364.80 1.181
364.90 1.181
365.00 1.18
365.10 1.18
365.20 1.179
365.30 1.178
365.40 1.178
365.50 1.177
365.60 1.176
365.70 1.176
365.80 1.175
365.90 1.175
366.00 1.174
366.10 1.173
366.20 1.173
366.30 1.172
366.40 1.172
366.50 1.171
366.60 1.171
366.70 1.17
366.80 1.17
366.90 1.169
367.00 1.169
367.10 1.168
367.20 1.167
367.30 1.167
367.40 1.166
367.50 1.166
367.60 1.165
367.70 1.165
367.80 1.164
367.90 1.164
368.00 1.163
368.10 1.164
368.20 1.165
368.30 1.166
368.40 1.167
368.50 1.168
368.60 1.169
368.70 1.17
368.80 1.171
368.90 1.172
369.00 1.173
369.10 1.174
369.20 1.175
369.30 1.176
369.40 1.177
369.50 1.178
369.60 1.179
369.70 1.18
369.80 1.181
369.90 1.182
370.00 1.183
370.10 1.187
370.20 1.19
370.30 1.194
370.40 1.198
370.50 1.201
370.60 1.205
370.70 1.209
370.80 1.212
370.90 1.216
371.00 1.219
371.10 1.223
371.20 1.227
371.30 1.23
371.40 1.234
371.50 1.238
371.60 1.241
371.70 1.245
371.80 1.248
371.90 1.252
372.00 1.256
372.10 1.261
372.20 1.267
372.30 1.273
372.40 1.278
372.50 1.284
372.60 1.29
372.70 1.295
372.80 1.301
372.90 1.307
373.00 1.313
373.10 1.318
373.20 1.324
373.30 1.329
373.40 1.335
373.50 1.341
373.60 1.346
373.70 1.352
373.80 1.358
373.90 1.363
374.00 1.369
374.10 1.375
374.20 1.38
374.30 1.386
374.40 1.392
374.50 1.398
374.60 1.403
374.70 1.409
374.80 1.415
374.90 1.42
375.00 1.426
375.10 1.432
375.20 1.438
375.30 1.443
375.40 1.449
375.50 1.455
375.60 1.46
375.70 1.466
375.80 1.472
375.90 1.477
376.00 1.483
376.10 1.486
376.20 1.488
376.30 1.491
376.40 1.494
376.50 1.496
376.60 1.499
376.70 1.501
376.80 1.504
376.90 1.507
377.00 1.509
377.10 1.504
377.20 1.498
377.30 1.493
377.40 1.487
377.50 1.481
377.60 1.476
377.70 1.47
377.80 1.465
377.90 1.459
378.00 1.454
378.10 1.426
378.20 1.398
378.30 1.37
378.40 1.342
378.50 1.314
378.60 1.286
378.70 1.258
378.80 1.231
378.90 1.203
379.00 1.175
379.10 1.152
379.20 1.128
379.30 1.105
379.40 1.082
379.50 1.058
379.60 1.035
379.70 1.012
379.80 0.9882
379.90 0.965
380.00 0.9417
380.10 0.9783
380.20 1.015
380.30 1.051
380.40 1.088
380.50 1.124
380.60 1.16
380.70 1.197
380.80 1.233
380.90 1.269
381.00 1.306
381.10 1.322
381.20 1.338
381.30 1.354
381.40 1.37
381.50 1.386
381.60 1.389
381.70 1.387
381.80 1.381
381.90 1.37
382.00 1.355
382.10 1.335
382.20 1.31
382.30 1.269
382.40 1.228
382.50 1.187
382.60 1.146
382.70 1.105
382.80 1.065
382.90 1.024
383.00 0.9831
383.10 0.9424
383.20 0.9017
383.30 0.8553
383.40 0.8062
383.50 0.7507
383.60 0.7637
383.70 0.8164
383.80 0.8645
383.90 0.91
384.00 0.9548
384.10 0.9998
384.20 1.045
384.30 1.09
384.40 1.136
384.50 1.181
384.60 1.225
384.70 1.267
384.80 1.305
384.90 1.341
385.00 1.374
385.10 1.402
385.20 1.428
385.30 1.451
385.40 1.47
385.50 1.487
385.60 1.501
385.70 1.512
385.80 1.521
385.90 1.529
386.00 1.533
386.10 1.535
386.20 1.535
386.30 1.532
386.40 1.527
386.50 1.521
386.60 1.511
386.70 1.499
386.80 1.485
386.90 1.468
387.00 1.449
387.10 1.428
387.20 1.404
387.30 1.377
387.40 1.347
387.50 1.314
387.60 1.278
387.70 1.239
387.80 1.196
387.90 1.152
388.00 1.106
388.10 1.058
388.20 1.01
388.30 0.9618
388.40 0.9147
388.50 0.8677
388.60 0.8206
388.70 0.7705
388.80 0.7132
388.90 0.6487
389.00 0.7091
389.10 0.7643
389.20 0.8142
389.30 0.8607
389.40 0.907
389.50 0.9533
389.60 1
389.70 1.048
389.80 1.095
389.90 1.142
390.00 1.187
390.10 1.23
390.20 1.27
390.30 1.308
390.40 1.344
390.50 1.376
390.60 1.407
390.70 1.436
390.80 1.462
390.90 1.487
391.00 1.51
391.10 1.531
391.20 1.551
391.30 1.57
391.40 1.587
391.50 1.603
391.60 1.618
391.70 1.631
391.80 1.643
391.90 1.654
392.00 1.663
392.10 1.672
392.20 1.679
392.30 1.686
392.40 1.691
392.50 1.695
392.60 1.698
392.70 1.7
392.80 1.701
392.90 1.701
393.00 1.7
393.10 1.698
393.20 1.694
393.30 1.69
393.40 1.684
393.50 1.678
393.60 1.67
393.70 1.661
393.80 1.651
393.90 1.64
394.00 1.628
394.10 1.614
394.20 1.599
394.30 1.583
394.40 1.565
394.50 1.547
394.60 1.527
394.70 1.505
394.80 1.483
394.90 1.459
395.00 1.433
395.10 1.406
395.20 1.379
395.30 1.348
395.40 1.317
395.50 1.284
395.60 1.248
395.70 1.211
395.80 1.173
395.90 1.132
396.00 1.089
396.10 1.046
396.20 1.001
396.30 0.9556
396.40 0.9096
396.50 0.8642
396.60 0.819
396.70 0.7739
396.80 0.7245
396.90 0.6583
397.00 0.5753
397.10 0.6527
397.20 0.7162
397.30 0.766
397.40 0.8105
397.50 0.8549
397.60 0.8993
397.70 0.9443
397.80 0.9888
397.90 1.033
398.00 1.075
398.10 1.116
398.20 1.156
398.30 1.194
398.40 1.23
398.50 1.265
398.60 1.297
398.70 1.328
398.80 1.358
398.90 1.385
399.00 1.411
399.10 1.437
399.20 1.461
399.30 1.484
399.40 1.506
399.50 1.526
399.60 1.546
399.70 1.564
399.80 1.582
399.90 1.598
400.00 1.614
400.10 1.629
400.20 1.643
400.30 1.656
400.40 1.668
400.50 1.68
400.60 1.69
400.70 1.7
400.80 1.71
400.90 1.719
401.00 1.727
401.10 1.735
401.20 1.742
401.30 1.748
401.40 1.754
401.50 1.76
401.60 1.765
401.70 1.769
401.80 1.774
401.90 1.778
402.00 1.781
402.10 1.784
402.20 1.787
402.30 1.789
402.40 1.791
402.50 1.793
402.60 1.794
402.70 1.796
402.80 1.797
402.90 1.797
403.00 1.797
403.10 1.797
403.20 1.797
403.30 1.797
403.40 1.796
403.50 1.795
403.60 1.794
403.70 1.792
403.80 1.791
403.90 1.789
404.00 1.786
404.10 1.784
404.20 1.781
404.30 1.778
404.40 1.775
404.50 1.772
404.60 1.768
404.70 1.764
404.80 1.759
404.90 1.755
405.00 1.75
405.10 1.744
405.20 1.738
405.30 1.732
405.40 1.726
405.50 1.719
405.60 1.712
405.70 1.704
405.80 1.696
405.90 1.687
406.00 1.678
406.10 1.669
406.20 1.659
406.30 1.648
406.40 1.637
406.50 1.625
406.60 1.613
406.70 1.6
406.80 1.586
406.90 1.571
407.00 1.556
407.10 1.54
407.20 1.523
407.30 1.504
407.40 1.485
407.50 1.466
407.60 1.445
407.70 1.423
407.80 1.4
407.90 1.376
408.00 1.352
408.10 1.327
408.20 1.3
408.30 1.273
408.40 1.245
408.50 1.216
408.60 1.187
408.70 1.156
408.80 1.124
408.90 1.092
409.00 1.058
409.10 1.023
409.20 0.9868
409.30 0.9499
409.40 0.9111
409.50 0.8716
409.60 0.8316
409.70 0.7914
409.80 0.7511
409.90 0.7107
410.00 0.6614
410.10 0.6019
410.20 0.5323
410.30 0.6211
410.40 0.6874
410.50 0.7313
410.60 0.7706
410.70 0.8099
410.80 0.8492
410.90 0.8879
411.00 0.9258
411.10 0.9627
411.20 0.9978
411.30 1.032
411.40 1.065
411.50 1.097
411.60 1.127
411.70 1.157
411.80 1.185
411.90 1.212
412.00 1.239
412.10 1.264
412.20 1.289
412.30 1.313
412.40 1.336
412.50 1.358
412.60 1.379
412.70 1.399
412.80 1.418
412.90 1.437
413.00 1.454
413.10 1.47
413.20 1.486
413.30 1.5
413.40 1.514
413.50 1.527
413.60 1.539
413.70 1.55
413.80 1.561
413.90 1.571
414.00 1.581
414.10 1.59
414.20 1.598
414.30 1.606
414.40 1.614
414.50 1.621
414.60 1.627
414.70 1.634
414.80 1.639
414.90 1.645
415.00 1.65
415.10 1.655
415.20 1.659
415.30 1.664
415.40 1.668
415.50 1.671
415.60 1.675
415.70 1.678
415.80 1.681
415.90 1.684
416.00 1.686
416.10 1.689
416.20 1.691
416.30 1.693
416.40 1.695
416.50 1.697
416.60 1.698
416.70 1.7
416.80 1.701
416.90 1.702
417.00 1.703
417.10 1.705
417.20 1.705
417.30 1.706
417.40 1.707
417.50 1.708
417.60 1.708
417.70 1.709
417.80 1.709
417.90 1.709
418.00 1.71
418.10 1.71
418.20 1.71
418.30 1.71
418.40 1.71
418.50 1.71
418.60 1.71
418.70 1.71
418.80 1.709
418.90 1.709
419.00 1.709
419.10 1.709
419.20 1.708
419.30 1.708
419.40 1.707
419.50 1.707
419.60 1.706
419.70 1.706
419.80 1.705
419.90 1.704
420.00 1.704
420.10 1.703
420.20 1.702
420.30 1.702
420.40 1.701
420.50 1.7
420.60 1.699
420.70 1.698
420.80 1.697
420.90 1.697
421.00 1.696
421.10 1.695
421.20 1.694
421.30 1.693
421.40 1.692
421.50 1.691
421.60 1.689
421.70 1.688
421.80 1.687
421.90 1.686
422.00 1.685
422.10 1.684
422.20 1.682
422.30 1.681
422.40 1.68
422.50 1.679
422.60 1.677
422.70 1.676
422.80 1.675
422.90 1.673
423.00 1.672
423.10 1.671
423.20 1.669
423.30 1.668
423.40 1.666
423.50 1.665
423.60 1.663
423.70 1.661
423.80 1.66
423.90 1.658
424.00 1.657
424.10 1.655
424.20 1.653
424.30 1.651
424.40 1.65
424.50 1.648
424.60 1.646
424.70 1.644
424.80 1.642
424.90 1.64
425.00 1.638
425.10 1.636
425.20 1.634
425.30 1.632
425.40 1.63
425.50 1.628
425.60 1.625
425.70 1.623
425.80 1.621
425.90 1.618
426.00 1.616
426.10 1.613
426.20 1.61
426.30 1.607
426.40 1.604
426.50 1.602
426.60 1.599
426.70 1.596
426.80 1.593
426.90 1.59
427.00 1.586
427.10 1.583
427.20 1.58
427.30 1.576
427.40 1.573
427.50 1.569
427.60 1.565
427.70 1.561
427.80 1.557
427.90 1.553
428.00 1.548
428.10 1.544
428.20 1.539
428.30 1.534
428.40 1.529
428.50 1.524
428.60 1.519
428.70 1.513
428.80 1.507
428.90 1.501
429.00 1.495
429.10 1.489
429.20 1.482
429.30 1.475
429.40 1.468
429.50 1.461
429.60 1.453
429.70 1.445
429.80 1.436
429.90 1.428
430.00 1.419
430.10 1.409
430.20 1.4
430.30 1.39
430.40 1.379
430.50 1.368
430.60 1.357
430.70 1.345
430.80 1.333
430.90 1.32
431.00 1.307
431.10 1.294
431.20 1.28
431.30 1.265
431.40 1.25
431.50 1.235
431.60 1.218
431.70 1.201
431.80 1.183
431.90 1.163
432.00 1.143
432.10 1.122
432.20 1.099
432.30 1.076
432.40 1.051
432.50 1.024
432.60 0.9962
432.70 0.9675
432.80 0.9383
432.90 0.9093
433.00 0.8806
433.10 0.8528
433.20 0.8246
433.30 0.7958
433.40 0.7649
433.50 0.7332
433.60 0.7007
433.70 0.6676
433.80 0.6311
433.90 0.5914
434.00 0.4851
434.10 0.4863
434.20 0.5946
434.30 0.6331
434.40 0.6685
434.50 0.701
434.60 0.7326
434.70 0.7634
434.80 0.7933
434.90 0.821
435.00 0.8482
435.10 0.8749
435.20 0.9024
435.30 0.9301
435.40 0.958
435.50 0.9851
435.60 1.011
435.70 1.036
435.80 1.059
435.90 1.081
436.00 1.102
436.10 1.121
436.20 1.139
436.30 1.157
436.40 1.173
436.50 1.188
436.60 1.202
436.70 1.216
436.80 1.229
436.90 1.241
437.00 1.253
437.10 1.264
437.20 1.275
437.30 1.285
437.40 1.295
437.50 1.304
437.60 1.313
437.70 1.322
437.80 1.33
437.90 1.338
438.00 1.345
438.10 1.352
438.20 1.358
438.30 1.365
438.40 1.371
438.50 1.376
438.60 1.381
438.70 1.386
438.80 1.391
438.90 1.395
439.00 1.4
439.10 1.404
439.20 1.407
439.30 1.411
439.40 1.414
439.50 1.417
439.60 1.42
439.70 1.423
439.80 1.425
439.90 1.428
440.00 1.43
440.10 1.432
440.20 1.434
440.30 1.436
440.40 1.437
440.50 1.439
440.60 1.44
440.70 1.442
440.80 1.443
440.90 1.444
441.00 1.445
441.10 1.446
441.20 1.447
441.30 1.448
441.40 1.448
441.50 1.449
441.60 1.45
441.70 1.45
441.80 1.451
441.90 1.451
442.00 1.451
442.10 1.452
442.20 1.452
442.30 1.452
442.40 1.452
442.50 1.452
442.60 1.452
442.70 1.452
442.80 1.452
442.90 1.452
443.00 1.452
443.10 1.452
443.20 1.451
443.30 1.451
443.40 1.451
443.50 1.451
443.60 1.45
443.70 1.45
443.80 1.45
443.90 1.449
444.00 1.449
444.10 1.448
444.20 1.448
444.30 1.447
444.40 1.447
444.50 1.446
444.60 1.446
444.70 1.445
444.80 1.445
444.90 1.444
445.00 1.444
445.10 1.443
445.20 1.442
445.30 1.442
445.40 1.441
445.50 1.44
445.60 1.44
445.70 1.439
445.80 1.438
445.90 1.438
446.00 1.437
446.10 1.436
446.20 1.435
446.30 1.435
446.40 1.434
446.50 1.433
446.60 1.432
446.70 1.432
446.80 1.431
446.90 1.43
447.00 1.429
447.10 1.428
447.20 1.428
447.30 1.427
447.40 1.426
447.50 1.425
447.60 1.424
447.70 1.424
447.80 1.423
447.90 1.422
448.00 1.421
448.10 1.42
448.20 1.42
448.30 1.419
448.40 1.418
448.50 1.417
448.60 1.416
448.70 1.415
448.80 1.414
448.90 1.414
449.00 1.413
449.10 1.412
449.20 1.411
449.30 1.41
449.40 1.409
449.50 1.408
449.60 1.408
449.70 1.407
449.80 1.406
449.90 1.405
450.00 1.404
450.10 1.403
450.20 1.402
450.30 1.401
450.40 1.4
450.50 1.4
450.60 1.399
450.70 1.398
450.80 1.397
450.90 1.396
451.00 1.395
451.10 1.394
451.20 1.393
451.30 1.392
451.40 1.392
451.50 1.391
451.60 1.39
451.70 1.389
451.80 1.388
451.90 1.387
452.00 1.386
452.10 1.385
452.20 1.384
452.30 1.383
452.40 1.382
452.50 1.382
452.60 1.381
452.70 1.38
452.80 1.379
452.90 1.378
453.00 1.377
453.10 1.376
453.20 1.375
453.30 1.374
453.40 1.373
453.50 1.372
453.60 1.371
453.70 1.371
453.80 1.37
453.90 1.369
454.00 1.368
454.10 1.367
454.20 1.366
454.30 1.365
454.40 1.364
454.50 1.363
454.60 1.362
454.70 1.361
454.80 1.36
454.90 1.36
455.00 1.359
455.10 1.358
455.20 1.357
455.30 1.356
455.40 1.355
455.50 1.354
455.60 1.353
455.70 1.352
455.80 1.351
455.90 1.35
456.00 1.349
456.10 1.349
456.20 1.348
456.30 1.347
456.40 1.346
456.50 1.345
456.60 1.344
456.70 1.343
456.80 1.342
456.90 1.341
457.00 1.34
457.10 1.339
457.20 1.339
457.30 1.338
457.40 1.337
457.50 1.336
457.60 1.335
457.70 1.334
457.80 1.333
457.90 1.332
458.00 1.331
458.10 1.33
458.20 1.329
458.30 1.328
458.40 1.328
458.50 1.327
458.60 1.326
458.70 1.325
458.80 1.324
458.90 1.323
459.00 1.322
459.10 1.321
459.20 1.32
459.30 1.319
459.40 1.318
459.50 1.317
459.60 1.316
459.70 1.316
459.80 1.315
459.90 1.314
460.00 1.313
460.10 1.312
460.20 1.311
460.30 1.31
460.40 1.309
460.50 1.308
460.60 1.307
460.70 1.306
460.80 1.305
460.90 1.305
461.00 1.304
461.10 1.303
461.20 1.302
461.30 1.301
461.40 1.3
461.50 1.299
461.60 1.298
461.70 1.297
461.80 1.296
461.90 1.295
462.00 1.295
462.10 1.294
462.20 1.293
462.30 1.292
462.40 1.291
462.50 1.29
462.60 1.289
462.70 1.288
462.80 1.287
462.90 1.286
463.00 1.285
463.10 1.284
463.20 1.284
463.30 1.283
463.40 1.282
463.50 1.281
463.60 1.28
463.70 1.279
463.80 1.278
463.90 1.277
464.00 1.276
464.10 1.275
464.20 1.274
464.30 1.273
464.40 1.273
464.50 1.272
464.60 1.271
464.70 1.27
464.80 1.269
464.90 1.268
465.00 1.267
465.10 1.266
465.20 1.265
465.30 1.264
465.40 1.263
465.50 1.262
465.60 1.262
465.70 1.261
465.80 1.26
465.90 1.259
466.00 1.258
466.10 1.257
466.20 1.256
466.30 1.255
466.40 1.254
466.50 1.253
466.60 1.252
466.70 1.251
466.80 1.25
466.90 1.25
467.00 1.249
467.10 1.248
467.20 1.247
467.30 1.246
467.40 1.245
467.50 1.244
467.60 1.243
467.70 1.242
467.80 1.241
467.90 1.24
468.00 1.239
468.10 1.238
468.20 1.238
468.30 1.237
468.40 1.236
468.50 1.235
468.60 1.234
468.70 1.233
468.80 1.232
468.90 1.231
469.00 1.23
469.10 1.229
469.20 1.228
469.30 1.227
469.40 1.226
469.50 1.225
469.60 1.224
469.70 1.223
469.80 1.222
469.90 1.221
470.00 1.22
470.10 1.219
470.20 1.219
470.30 1.218
470.40 1.217
470.50 1.216
470.60 1.215
470.70 1.214
470.80 1.213
470.90 1.212
471.00 1.211
471.10 1.21
471.20 1.209
471.30 1.208
471.40 1.207
471.50 1.206
471.60 1.205
471.70 1.204
471.80 1.203
471.90 1.202
472.00 1.201
472.10 1.2
472.20 1.199
472.30 1.198
472.40 1.197
472.50 1.196
472.60 1.195
472.70 1.194
472.80 1.192
472.90 1.191
473.00 1.19
473.10 1.189
473.20 1.188
473.30 1.187
473.40 1.186
473.50 1.185
473.60 1.184
473.70 1.183
473.80 1.182
473.90 1.18
474.00 1.179
474.10 1.178
474.20 1.177
474.30 1.176
474.40 1.175
474.50 1.174
474.60 1.172
474.70 1.171
474.80 1.17
474.90 1.169
475.00 1.168
475.10 1.166
475.20 1.165
475.30 1.164
475.40 1.163
475.50 1.161
475.60 1.16
475.70 1.159
475.80 1.157
475.90 1.156
476.00 1.155
476.10 1.153
476.20 1.152
476.30 1.15
476.40 1.149
476.50 1.147
476.60 1.146
476.70 1.144
476.80 1.143
476.90 1.142
477.00 1.14
477.10 1.139
477.20 1.137
477.30 1.135
477.40 1.133
477.50 1.132
477.60 1.13
477.70 1.128
477.80 1.126
477.90 1.125
478.00 1.123
478.10 1.121
478.20 1.119
478.30 1.117
478.40 1.115
478.50 1.113
478.60 1.11
478.70 1.108
478.80 1.106
478.90 1.104
479.00 1.102
479.10 1.1
479.20 1.097
479.30 1.094
479.40 1.091
479.50 1.089
479.60 1.086
479.70 1.083
479.80 1.08
479.90 1.078
480.00 1.075
480.10 1.072
480.20 1.069
480.30 1.065
480.40 1.061
480.50 1.057
480.60 1.053
480.70 1.05
480.80 1.046
480.90 1.042
481.00 1.038
481.10 1.035
481.20 1.03
481.30 1.024
481.40 1.019
481.50 1.013
481.60 1.008
481.70 1.003
481.80 0.9974
481.90 0.992
482.00 0.9867
482.10 0.9813
482.20 0.9743
482.30 0.9666
482.40 0.9588
482.50 0.9511
482.60 0.9434
482.70 0.9356
482.80 0.9279
482.90 0.9202
483.00 0.9125
483.10 0.9048
483.20 0.8949
483.30 0.8838
483.40 0.8729
483.50 0.8619
483.60 0.8509
483.70 0.8399
483.80 0.8289
483.90 0.818
484.00 0.807
484.10 0.7961
484.20 0.7834
484.30 0.7698
484.40 0.7563
484.50 0.7428
484.60 0.7292
484.70 0.7145
484.80 0.6992
484.90 0.6839
485.00 0.6687
485.10 0.6534
485.20 0.6374
485.30 0.621
485.40 0.6037
485.50 0.5859
485.60 0.5671
485.70 0.5477
485.80 0.526
485.90 0.5033
486.00 0.4738
486.10 0.3667
486.20 0.4274
486.30 0.4852
486.40 0.5098
486.50 0.5322
486.60 0.5522
486.70 0.571
486.80 0.5887
486.90 0.6059
487.00 0.622
487.10 0.6377
487.20 0.6525
487.30 0.667
487.40 0.6814
487.50 0.6959
487.60 0.7103
487.70 0.7234
487.80 0.7359
487.90 0.7484
488.00 0.7609
488.10 0.7734
488.20 0.784
488.30 0.7937
488.40 0.8035
488.50 0.8132
488.60 0.8229
488.70 0.8326
488.80 0.8422
488.90 0.8519
489.00 0.8616
489.10 0.8712
489.20 0.8786
489.30 0.8848
489.40 0.8911
489.50 0.8973
489.60 0.9035
489.70 0.9098
489.80 0.916
489.90 0.9222
490.00 0.9284
490.10 0.9346
490.20 0.9392
490.30 0.943
490.40 0.9467
490.50 0.9505
490.60 0.9543
490.70 0.9581
490.80 0.9618
490.90 0.9656
491.00 0.9693
491.10 0.9731
491.20 0.9758
491.30 0.9779
491.40 0.9801
491.50 0.9823
491.60 0.9844
491.70 0.9866
491.80 0.9887
491.90 0.9909
492.00 0.993
492.10 0.9952
492.20 0.9967
492.30 0.9978
492.40 0.999
492.50 1
492.60 1.001
492.70 1.003
492.80 1.004
492.90 1.005
493.00 1.006
493.10 1.007
493.20 1.008
493.30 1.009
493.40 1.009
493.50 1.01
493.60 1.01
493.70 1.011
493.80 1.011
493.90 1.012
494.00 1.012
494.10 1.013
494.20 1.013
494.30 1.014
494.40 1.014
494.50 1.014
494.60 1.014
494.70 1.014
494.80 1.014
494.90 1.015
495.00 1.015
495.10 1.015
495.20 1.015
495.30 1.015
495.40 1.015
495.50 1.015
495.60 1.015
495.70 1.014
495.80 1.014
495.90 1.014
496.00 1.014
496.10 1.014
496.20 1.014
496.30 1.014
496.40 1.013
496.50 1.013
496.60 1.013
496.70 1.013
496.80 1.013
496.90 1.012
497.00 1.012
497.10 1.012
497.20 1.012
497.30 1.011
497.40 1.011
497.50 1.01
497.60 1.01
497.70 1.01
497.80 1.009
497.90 1.009
498.00 1.009
498.10 1.008
498.20 1.008
498.30 1.008
498.40 1.007
498.50 1.007
498.60 1.006
498.70 1.006
498.80 1.005
498.90 1.005
499.00 1.005
499.10 1.004
499.20 1.004
499.30 1.003
499.40 1.003
499.50 1.002
499.60 1.002
499.70 1.001
499.80 1.001
499.90 1
500.00 1
500.10 0.9995
500.20 0.999
500.30 0.9985
500.40 0.998
500.50 0.9975
500.60 0.997
500.70 0.9965
500.80 0.996
500.90 0.9955
501.00 0.995
501.10 0.9945
501.20 0.9939
501.30 0.9934
501.40 0.9929
501.50 0.9924
501.60 0.9918
501.70 0.9913
501.80 0.9908
501.90 0.9902
502.00 0.9897
502.10 0.9892
502.20 0.9886
502.30 0.9881
502.40 0.9875
502.50 0.987
502.60 0.9864
502.70 0.9859
502.80 0.9853
502.90 0.9848
503.00 0.9842
503.10 0.9837
503.20 0.9831
503.30 0.9826
503.40 0.982
503.50 0.9814
503.60 0.9809
503.70 0.9803
503.80 0.9798
503.90 0.9792
504.00 0.9787
504.10 0.9781
504.20 0.9775
504.30 0.977
504.40 0.9764
504.50 0.9758
504.60 0.9752
504.70 0.9747
504.80 0.9741
504.90 0.9735
505.00 0.973
505.10 0.9724
505.20 0.9718
505.30 0.9713
505.40 0.9707
505.50 0.9701
505.60 0.9695
505.70 0.969
505.80 0.9684
505.90 0.9678
506.00 0.9672
506.10 0.9667
506.20 0.9661
506.30 0.9655
506.40 0.9649
506.50 0.9644
506.60 0.9638
506.70 0.9632
506.80 0.9626
506.90 0.962
507.00 0.9615
507.10 0.9609
507.20 0.9603
507.30 0.9597
507.40 0.9592
507.50 0.9586
507.60 0.958
507.70 0.9574
507.80 0.9568
507.90 0.9563
508.00 0.9557
508.10 0.9551
508.20 0.9545
508.30 0.9539
508.40 0.9534
508.50 0.9528
508.60 0.9522
508.70 0.9516
508.80 0.951
508.90 0.9505
509.00 0.9499
509.10 0.9493
509.20 0.9487
509.30 0.9482
509.40 0.9476
509.50 0.947
509.60 0.9464
509.70 0.9458
509.80 0.9453
509.90 0.9447
510.00 0.9441
510.10 0.9435
510.20 0.943
510.30 0.9424
510.40 0.9418
510.50 0.9412
510.60 0.9406
510.70 0.9401
510.80 0.9395
510.90 0.9389
511.00 0.9383
511.10 0.9377
511.20 0.9372
511.30 0.9366
511.40 0.936
511.50 0.9354
511.60 0.9349
511.70 0.9343
511.80 0.9337
511.90 0.9331
512.00 0.9326
512.10 0.932
512.20 0.9314
512.30 0.9308
512.40 0.9303
512.50 0.9297
512.60 0.9291
512.70 0.9285
512.80 0.928
512.90 0.9274
513.00 0.9268
513.10 0.9263
513.20 0.9257
513.30 0.9251
513.40 0.9245
513.50 0.924
513.60 0.9234
513.70 0.9228
513.80 0.9223
513.90 0.9217
514.00 0.9211
514.10 0.9205
514.20 0.92
514.30 0.9194
514.40 0.9188
514.50 0.9183
514.60 0.9177
514.70 0.9171
514.80 0.9166
514.90 0.916
515.00 0.9154
515.10 0.9149
515.20 0.9143
515.30 0.9137
515.40 0.9132
515.50 0.9126
515.60 0.912
515.70 0.9115
515.80 0.9109
515.90 0.9103
516.00 0.9098
516.10 0.9092
516.20 0.9087
516.30 0.9081
516.40 0.9075
516.50 0.907
516.60 0.9064
516.70 0.9058
516.80 0.9053
516.90 0.9047
517.00 0.9042
517.10 0.9036
517.20 0.903
517.30 0.9025
517.40 0.9019
517.50 0.9014
517.60 0.9008
517.70 0.9003
517.80 0.8997
517.90 0.8991
518.00 0.8986
518.10 0.898
518.20 0.8975
518.30 0.8969
518.40 0.8964
518.50 0.8958
518.60 0.8953
518.70 0.8947
518.80 0.8941
518.90 0.8936
519.00 0.893
519.10 0.8925
519.20 0.8919
519.30 0.8914
519.40 0.8908
519.50 0.8903
519.60 0.8897
519.70 0.8892
519.80 0.8886
519.90 0.8881
520.00 0.8875
520.10 0.887
520.20 0.8864
520.30 0.8859
520.40 0.8853
520.50 0.8848
520.60 0.8842
520.70 0.8837
520.80 0.8832
520.90 0.8826
521.00 0.8821
521.10 0.8815
521.20 0.881
521.30 0.8804
521.40 0.8799
521.50 0.8793
521.60 0.8788
521.70 0.8783
521.80 0.8777
521.90 0.8772
522.00 0.8766
522.10 0.8761
522.20 0.8755
522.30 0.875
522.40 0.8745
522.50 0.8739
522.60 0.8734
522.70 0.8728
522.80 0.8723
522.90 0.8718
523.00 0.8712
523.10 0.8707
523.20 0.8701
523.30 0.8696
523.40 0.8691
523.50 0.8685
523.60 0.868
523.70 0.8675
523.80 0.8669
523.90 0.8664
524.00 0.8659
524.10 0.8653
524.20 0.8648
524.30 0.8643
524.40 0.8637
524.50 0.8632
524.60 0.8627
524.70 0.8621
524.80 0.8616
524.90 0.8611
525.00 0.8605
525.10 0.86
525.20 0.8595
525.30 0.8589
525.40 0.8584
525.50 0.8579
525.60 0.8574
525.70 0.8568
525.80 0.8563
525.90 0.8558
526.00 0.8553
526.10 0.8547
526.20 0.8542
526.30 0.8537
526.40 0.8532
526.50 0.8526
526.60 0.8521
526.70 0.8516
526.80 0.8511
526.90 0.8505
527.00 0.85
527.10 0.8495
527.20 0.849
527.30 0.8484
527.40 0.8479
527.50 0.8474
527.60 0.8469
527.70 0.8464
527.80 0.8458
527.90 0.8453
528.00 0.8448
528.10 0.8443
528.20 0.8438
528.30 0.8432
528.40 0.8427
528.50 0.8422
528.60 0.8417
528.70 0.8412
528.80 0.8407
528.90 0.8401
529.00 0.8396
529.10 0.8391
529.20 0.8386
529.30 0.8381
529.40 0.8376
529.50 0.8371
529.60 0.8365
529.70 0.836
529.80 0.8355
529.90 0.835
530.00 0.8345
530.10 0.834
530.20 0.8335
530.30 0.833
530.40 0.8325
530.50 0.8319
530.60 0.8314
530.70 0.8309
530.80 0.8304
530.90 0.8299
531.00 0.8294
531.10 0.8289
531.20 0.8284
531.30 0.8279
531.40 0.8274
531.50 0.8269
531.60 0.8264
531.70 0.8259
531.80 0.8254
531.90 0.8249
532.00 0.8243
532.10 0.8238
532.20 0.8233
532.30 0.8228
532.40 0.8223
532.50 0.8218
532.60 0.8213
532.70 0.8208
532.80 0.8203
532.90 0.8198
533.00 0.8193
533.10 0.8188
533.20 0.8183
533.30 0.8178
533.40 0.8173
533.50 0.8168
533.60 0.8163
533.70 0.8158
533.80 0.8153
533.90 0.8148
534.00 0.8143
534.10 0.8138
534.20 0.8133
534.30 0.8129
534.40 0.8124
534.50 0.8119
534.60 0.8114
534.70 0.8109
534.80 0.8104
534.90 0.8099
535.00 0.8094
535.10 0.8089
535.20 0.8084
535.30 0.8079
535.40 0.8074
535.50 0.8069
535.60 0.8064
535.70 0.806
535.80 0.8055
535.90 0.805
536.00 0.8045
536.10 0.804
536.20 0.8035
536.30 0.803
536.40 0.8025
536.50 0.802
536.60 0.8016
536.70 0.8011
536.80 0.8006
536.90 0.8001
537.00 0.7996
537.10 0.7991
537.20 0.7986
537.30 0.7982
537.40 0.7977
537.50 0.7972
537.60 0.7967
537.70 0.7962
537.80 0.7957
537.90 0.7953
538.00 0.7948
538.10 0.7943
538.20 0.7938
538.30 0.7933
538.40 0.7929
538.50 0.7924
538.60 0.7919
538.70 0.7914
538.80 0.7909
538.90 0.7905
539.00 0.79
539.10 0.7895
539.20 0.789
539.30 0.7886
539.40 0.7881
539.50 0.7876
539.60 0.7871
539.70 0.7866
539.80 0.7862
539.90 0.7857
540.00 0.7852
540.10 0.7847
540.20 0.7843
540.30 0.7838
540.40 0.7833
540.50 0.7829
540.60 0.7824
540.70 0.7819
540.80 0.7814
540.90 0.781
541.00 0.7805
541.10 0.78
541.20 0.7796
541.30 0.7791
541.40 0.7786
541.50 0.7781
541.60 0.7777
541.70 0.7772
541.80 0.7767
541.90 0.7763
542.00 0.7758
542.10 0.7753
542.20 0.7749
542.30 0.7744
542.40 0.7739
542.50 0.7735
542.60 0.773
542.70 0.7725
542.80 0.7721
542.90 0.7716
543.00 0.7711
543.10 0.7707
543.20 0.7702
543.30 0.7698
543.40 0.7693
543.50 0.7688
543.60 0.7684
543.70 0.7679
543.80 0.7674
543.90 0.767
544.00 0.7665
544.10 0.7661
544.20 0.7656
544.30 0.7651
544.40 0.7647
544.50 0.7642
544.60 0.7638
544.70 0.7633
544.80 0.7629
544.90 0.7624
545.00 0.7619
545.10 0.7615
545.20 0.761
545.30 0.7606
545.40 0.7601
545.50 0.7597
545.60 0.7592
545.70 0.7588
545.80 0.7583
545.90 0.7578
546.00 0.7574
546.10 0.7569
546.20 0.7565
546.30 0.756
546.40 0.7556
546.50 0.7552
546.60 0.7547
546.70 0.7543
546.80 0.7538
546.90 0.7534
547.00 0.753
547.10 0.7525
547.20 0.7521
547.30 0.7516
547.40 0.7512
547.50 0.7507
547.60 0.7503
547.70 0.7498
547.80 0.7494
547.90 0.7489
548.00 0.7485
548.10 0.748
548.20 0.7476
548.30 0.7472
548.40 0.7467
548.50 0.7463
548.60 0.7458
548.70 0.7454
548.80 0.7449
548.90 0.7445
549.00 0.744
549.10 0.7436
549.20 0.7431
549.30 0.7427
549.40 0.7423
549.50 0.7418
549.60 0.7414
549.70 0.7409
549.80 0.7405
549.90 0.7401
550.00 0.7396
550.10 0.7392
550.20 0.7387
550.30 0.7383
550.40 0.7379
550.50 0.7374
550.60 0.737
550.70 0.7365
550.80 0.7361
550.90 0.7357
551.00 0.7352
551.10 0.7348
551.20 0.7343
551.30 0.7339
551.40 0.7335
551.50 0.733
551.60 0.7326
551.70 0.7322
551.80 0.7317
551.90 0.7313
552.00 0.7309
552.10 0.7304
552.20 0.73
552.30 0.7296
552.40 0.7291
552.50 0.7287
552.60 0.7283
552.70 0.7278
552.80 0.7274
552.90 0.727
553.00 0.7265
553.10 0.7261
553.20 0.7257
553.30 0.7253
553.40 0.7248
553.50 0.7244
553.60 0.724
553.70 0.7235
553.80 0.7231
553.90 0.7227
554.00 0.7222
554.10 0.7218
554.20 0.7214
554.30 0.721
554.40 0.7205
554.50 0.7201
554.60 0.7197
554.70 0.7193
554.80 0.7188
554.90 0.7184
555.00 0.718
555.10 0.7176
555.20 0.7171
555.30 0.7167
555.40 0.7163
555.50 0.7159
555.60 0.7154
555.70 0.715
555.80 0.7146
555.90 0.7142
556.00 0.7138
556.10 0.7133
556.20 0.7129
556.30 0.7125
556.40 0.7121
556.50 0.7117
556.60 0.7112
556.70 0.7108
556.80 0.7104
556.90 0.71
557.00 0.7096
557.10 0.7091
557.20 0.7087
557.30 0.7083
557.40 0.7079
557.50 0.7075
557.60 0.7071
557.70 0.7066
557.80 0.7062
557.90 0.7058
558.00 0.7054
558.10 0.705
558.20 0.7046
558.30 0.7042
558.40 0.7037
558.50 0.7033
558.60 0.7029
558.70 0.7025
558.80 0.7021
558.90 0.7017
559.00 0.7013
559.10 0.7008
559.20 0.7004
559.30 0.7
559.40 0.6996
559.50 0.6992
559.60 0.6988
559.70 0.6984
559.80 0.698
559.90 0.6976
560.00 0.6972
560.10 0.6968
560.20 0.6963
560.30 0.6959
560.40 0.6955
560.50 0.6951
560.60 0.6947
560.70 0.6943
560.80 0.6939
560.90 0.6935
561.00 0.6931
561.10 0.6927
561.20 0.6923
561.30 0.6919
561.40 0.6915
561.50 0.6911
561.60 0.6907
561.70 0.6903
561.80 0.6898
561.90 0.6894
562.00 0.689
562.10 0.6886
562.20 0.6882
562.30 0.6878
562.40 0.6874
562.50 0.687
562.60 0.6866
562.70 0.6862
562.80 0.6858
562.90 0.6854
563.00 0.685
563.10 0.6846
563.20 0.6842
563.30 0.6838
563.40 0.6834
563.50 0.683
563.60 0.6826
563.70 0.6822
563.80 0.6818
563.90 0.6814
564.00 0.681
564.10 0.6806
564.20 0.6803
564.30 0.6799
564.40 0.6795
564.50 0.6791
564.60 0.6787
564.70 0.6783
564.80 0.6779
564.90 0.6775
565.00 0.6771
565.10 0.6767
565.20 0.6763
565.30 0.6759
565.40 0.6755
565.50 0.6751
565.60 0.6747
565.70 0.6743
565.80 0.6739
565.90 0.6736
566.00 0.6732
566.10 0.6728
566.20 0.6724
566.30 0.672
566.40 0.6716
566.50 0.6712
566.60 0.6708
566.70 0.6704
566.80 0.67
566.90 0.6697
567.00 0.6693
567.10 0.6689
567.20 0.6685
567.30 0.6681
567.40 0.6677
567.50 0.6673
567.60 0.6669
567.70 0.6666
567.80 0.6662
567.90 0.6658
568.00 0.6654
568.10 0.665
568.20 0.6646
568.30 0.6642
568.40 0.6639
568.50 0.6635
568.60 0.6631
568.70 0.6627
568.80 0.6623
568.90 0.6619
569.00 0.6616
569.10 0.6612
569.20 0.6608
569.30 0.6604
569.40 0.66
569.50 0.6596
569.60 0.6593
569.70 0.6589
569.80 0.6585
569.90 0.6581
570.00 0.6577
570.10 0.6574
570.20 0.657
570.30 0.6566
570.40 0.6562
570.50 0.6558
570.60 0.6555
570.70 0.6551
570.80 0.6547
570.90 0.6543
571.00 0.654
571.10 0.6536
571.20 0.6532
571.30 0.6528
571.40 0.6524
571.50 0.6521
571.60 0.6517
571.70 0.6513
571.80 0.6509
571.90 0.6506
572.00 0.6502
572.10 0.6498
572.20 0.6495
572.30 0.6491
572.40 0.6487
572.50 0.6483
572.60 0.648
572.70 0.6476
572.80 0.6472
572.90 0.6468
573.00 0.6465
573.10 0.6461
573.20 0.6457
573.30 0.6454
573.40 0.645
573.50 0.6446
573.60 0.6442
573.70 0.6439
573.80 0.6435
573.90 0.6431
574.00 0.6428
574.10 0.6424
574.20 0.642
574.30 0.6417
574.40 0.6413
574.50 0.6409
574.60 0.6406
574.70 0.6402
574.80 0.6398
574.90 0.6395
575.00 0.6391
575.10 0.6387
575.20 0.6384
575.30 0.638
575.40 0.6376
575.50 0.6373
575.60 0.6369
575.70 0.6365
575.80 0.6362
575.90 0.6358
576.00 0.6354
576.10 0.6351
576.20 0.6347
576.30 0.6344
576.40 0.634
576.50 0.6336
576.60 0.6333
576.70 0.6329
576.80 0.6325
576.90 0.6322
577.00 0.6318
577.10 0.6315
577.20 0.6311
577.30 0.6307
577.40 0.6304
577.50 0.63
577.60 0.6297
577.70 0.6293
577.80 0.6289
577.90 0.6286
578.00 0.6282
578.10 0.6279
578.20 0.6275
578.30 0.6271
578.40 0.6268
578.50 0.6264
578.60 0.6261
578.70 0.6257
578.80 0.6254
578.90 0.625
579.00 0.6247
579.10 0.6243
579.20 0.6239
579.30 0.6236
579.40 0.6232
579.50 0.6229
579.60 0.6225
579.70 0.6222
579.80 0.6218
579.90 0.6215
580.00 0.6211
580.10 0.6208
580.20 0.6204
580.30 0.62
580.40 0.6197
580.50 0.6193
580.60 0.619
580.70 0.6186
580.80 0.6183
580.90 0.6179
581.00 0.6176
581.10 0.6172
581.20 0.6169
581.30 0.6165
581.40 0.6162
581.50 0.6158
581.60 0.6155
581.70 0.6151
581.80 0.6148
581.90 0.6144
582.00 0.6141
582.10 0.6137
582.20 0.6134
582.30 0.613
582.40 0.6127
582.50 0.6124
582.60 0.612
582.70 0.6117
582.80 0.6113
582.90 0.611
583.00 0.6106
583.10 0.6103
583.20 0.6099
583.30 0.6096
583.40 0.6092
583.50 0.6089
583.60 0.6085
583.70 0.6082
583.80 0.6079
583.90 0.6075
584.00 0.6072
584.10 0.6068
584.20 0.6065
584.30 0.6061
584.40 0.6058
584.50 0.6055
584.60 0.6051
584.70 0.6048
584.80 0.6044
584.90 0.6041
585.00 0.6038
585.10 0.6034
585.20 0.6031
585.30 0.6027
585.40 0.6024
585.50 0.6021
585.60 0.6017
585.70 0.6014
585.80 0.601
585.90 0.6007
586.00 0.6004
586.10 0.6
586.20 0.5997
586.30 0.5993
586.40 0.599
586.50 0.5987
586.60 0.5983
586.70 0.598
586.80 0.5977
586.90 0.5973
587.00 0.597
587.10 0.5967
587.20 0.5963
587.30 0.596
587.40 0.5956
587.50 0.5953
587.60 0.595
587.70 0.5946
587.80 0.5943
587.90 0.594
588.00 0.5936
588.10 0.5933
588.20 0.593
588.30 0.5926
588.40 0.5923
588.50 0.592
588.60 0.5916
588.70 0.5913
588.80 0.591
588.90 0.5906
589.00 0.5903
589.10 0.59
589.20 0.5896
589.30 0.5893
589.40 0.589
589.50 0.5887
589.60 0.5883
589.70 0.588
589.80 0.5877
589.90 0.5873
590.00 0.587
590.10 0.5867
590.20 0.5864
590.30 0.586
590.40 0.5857
590.50 0.5854
590.60 0.585
590.70 0.5847
590.80 0.5844
590.90 0.5841
591.00 0.5837
591.10 0.5834
591.20 0.5831
591.30 0.5828
591.40 0.5824
591.50 0.5821
591.60 0.5818
591.70 0.5815
591.80 0.5811
591.90 0.5808
592.00 0.5805
592.10 0.5802
592.20 0.5798
592.30 0.5795
592.40 0.5792
592.50 0.5789
592.60 0.5785
592.70 0.5782
592.80 0.5779
592.90 0.5776
593.00 0.5773
593.10 0.5769
593.20 0.5766
593.30 0.5763
593.40 0.576
593.50 0.5756
593.60 0.5753
593.70 0.575
593.80 0.5747
593.90 0.5744
594.00 0.574
594.10 0.5737
594.20 0.5734
594.30 0.5731
594.40 0.5728
594.50 0.5724
594.60 0.5721
594.70 0.5718
594.80 0.5715
594.90 0.5712
595.00 0.5709
595.10 0.5705
595.20 0.5702
595.30 0.5699
595.40 0.5696
595.50 0.5693
595.60 0.569
595.70 0.5686
595.80 0.5683
595.90 0.568
596.00 0.5677
596.10 0.5674
596.20 0.567
596.30 0.5667
596.40 0.5664
596.50 0.566
596.60 0.5657
596.70 0.5654
596.80 0.565
596.90 0.5647
597.00 0.5644
597.10 0.564
597.20 0.5637
597.30 0.5634
597.40 0.5631
597.50 0.5628
597.60 0.5625
597.70 0.5622
597.80 0.5618
597.90 0.5615
598.00 0.5612
598.10 0.5609
598.20 0.5606
598.30 0.5603
598.40 0.56
598.50 0.5597
598.60 0.5594
598.70 0.559
598.80 0.5587
598.90 0.5584
599.00 0.5581
599.10 0.5578
599.20 0.5575
599.30 0.5572
599.40 0.5569
599.50 0.5566
599.60 0.5563
599.70 0.556
599.80 0.5556
599.90 0.5553
600.00 0.555
600.10 0.5547
600.20 0.5544
600.30 0.5541
600.40 0.5538
600.50 0.5535
600.60 0.5532
600.70 0.5529
600.80 0.5526
600.90 0.5523
601.00 0.552
601.10 0.5517
601.20 0.5514
601.30 0.5511
601.40 0.5507
601.50 0.5504
601.60 0.5501
601.70 0.5498
601.80 0.5495
601.90 0.5492
602.00 0.5489
602.10 0.5486
602.20 0.5483
602.30 0.548
602.40 0.5477
602.50 0.5474
602.60 0.5471
602.70 0.5468
602.80 0.5465
602.90 0.5462
603.00 0.5459
603.10 0.5456
603.20 0.5453
603.30 0.545
603.40 0.5447
603.50 0.5444
603.60 0.5441
603.70 0.5438
603.80 0.5435
603.90 0.5432
604.00 0.5429
604.10 0.5426
604.20 0.5423
604.30 0.542
604.40 0.5417
604.50 0.5414
604.60 0.5411
604.70 0.5408
604.80 0.5405
604.90 0.5402
605.00 0.5399
605.10 0.5396
605.20 0.5393
605.30 0.539
605.40 0.5387
605.50 0.5384
605.60 0.5381
605.70 0.5379
605.80 0.5376
605.90 0.5373
606.00 0.537
606.10 0.5367
606.20 0.5364
606.30 0.5361
606.40 0.5358
606.50 0.5355
606.60 0.5352
606.70 0.5349
606.80 0.5346
606.90 0.5343
607.00 0.534
607.10 0.5337
607.20 0.5334
607.30 0.5331
607.40 0.5329
607.50 0.5326
607.60 0.5323
607.70 0.532
607.80 0.5317
607.90 0.5314
608.00 0.5311
608.10 0.5308
608.20 0.5305
608.30 0.5302
608.40 0.5299
608.50 0.5297
608.60 0.5294
608.70 0.5291
608.80 0.5288
608.90 0.5285
609.00 0.5282
609.10 0.5279
609.20 0.5276
609.30 0.5273
609.40 0.527
609.50 0.5268
609.60 0.5265
609.70 0.5262
609.80 0.5259
609.90 0.5256
610.00 0.5253
610.10 0.525
610.20 0.5247
610.30 0.5245
610.40 0.5242
610.50 0.5239
610.60 0.5236
610.70 0.5233
610.80 0.523
610.90 0.5227
611.00 0.5225
611.10 0.5222
611.20 0.5219
611.30 0.5216
611.40 0.5213
611.50 0.521
611.60 0.5207
611.70 0.5205
611.80 0.5202
611.90 0.5199
612.00 0.5196
612.10 0.5193
612.20 0.519
612.30 0.5188
612.40 0.5185
612.50 0.5182
612.60 0.5179
612.70 0.5176
612.80 0.5174
612.90 0.5171
613.00 0.5168
613.10 0.5165
613.20 0.5162
613.30 0.5159
613.40 0.5157
613.50 0.5154
613.60 0.5151
613.70 0.5148
613.80 0.5145
613.90 0.5143
614.00 0.514
614.10 0.5137
614.20 0.5134
614.30 0.5131
614.40 0.5129
614.50 0.5126
614.60 0.5123
614.70 0.512
614.80 0.5117
614.90 0.5115
615.00 0.5112
615.10 0.5109
615.20 0.5106
615.30 0.5104
615.40 0.5101
615.50 0.5098
615.60 0.5095
615.70 0.5092
615.80 0.509
615.90 0.5087
616.00 0.5084
616.10 0.5081
616.20 0.5079
616.30 0.5076
616.40 0.5073
616.50 0.507
616.60 0.5068
616.70 0.5065
616.80 0.5062
616.90 0.5059
617.00 0.5057
617.10 0.5054
617.20 0.5051
617.30 0.5048
617.40 0.5046
617.50 0.5043
617.60 0.504
617.70 0.5037
617.80 0.5035
617.90 0.5032
618.00 0.5029
618.10 0.5026
618.20 0.5024
618.30 0.5021
618.40 0.5018
618.50 0.5016
618.60 0.5013
618.70 0.501
618.80 0.5007
618.90 0.5005
619.00 0.5002
619.10 0.4999
619.20 0.4996
619.30 0.4994
619.40 0.4991
619.50 0.4988
619.60 0.4986
619.70 0.4983
619.80 0.498
619.90 0.4978
620.00 0.4975
620.10 0.4972
620.20 0.4969
620.30 0.4967
620.40 0.4964
620.50 0.4961
620.60 0.4959
620.70 0.4956
620.80 0.4953
620.90 0.4951
621.00 0.4948
621.10 0.4945
621.20 0.4942
621.30 0.494
621.40 0.4937
621.50 0.4934
621.60 0.4932
621.70 0.4929
621.80 0.4926
621.90 0.4924
622.00 0.4921
622.10 0.4918
622.20 0.4916
622.30 0.4913
622.40 0.491
622.50 0.4908
622.60 0.4905
622.70 0.4902
622.80 0.49
622.90 0.4897
623.00 0.4894
623.10 0.4892
623.20 0.4889
623.30 0.4886
623.40 0.4884
623.50 0.4881
623.60 0.4879
623.70 0.4876
623.80 0.4873
623.90 0.4871
624.00 0.4868
624.10 0.4865
624.20 0.4863
624.30 0.486
624.40 0.4857
624.50 0.4855
624.60 0.4852
624.70 0.4849
624.80 0.4847
624.90 0.4844
625.00 0.4842
625.10 0.4839
625.20 0.4836
625.30 0.4834
625.40 0.4831
625.50 0.4828
625.60 0.4826
625.70 0.4823
625.80 0.4821
625.90 0.4818
626.00 0.4815
626.10 0.4813
626.20 0.481
626.30 0.4807
626.40 0.4805
626.50 0.4802
626.60 0.48
626.70 0.4797
626.80 0.4794
626.90 0.4792
627.00 0.4789
627.10 0.4787
627.20 0.4784
627.30 0.4781
627.40 0.4779
627.50 0.4776
627.60 0.4774
627.70 0.4771
627.80 0.4768
627.90 0.4766
628.00 0.4763
628.10 0.4761
628.20 0.4758
628.30 0.4755
628.40 0.4753
628.50 0.475
628.60 0.4748
628.70 0.4745
628.80 0.4742
628.90 0.474
629.00 0.4737
629.10 0.4735
629.20 0.4732
629.30 0.473
629.40 0.4727
629.50 0.4724
629.60 0.4722
629.70 0.4719
629.80 0.4717
629.90 0.4714
630.00 0.4712
630.10 0.4709
630.20 0.4706
630.30 0.4704
630.40 0.4701
630.50 0.4699
630.60 0.4696
630.70 0.4693
630.80 0.4691
630.90 0.4688
631.00 0.4686
631.10 0.4683
631.20 0.4681
631.30 0.4678
631.40 0.4675
631.50 0.4673
631.60 0.467
631.70 0.4668
631.80 0.4665
631.90 0.4663
632.00 0.466
632.10 0.4657
632.20 0.4655
632.30 0.4652
632.40 0.465
632.50 0.4647
632.60 0.4645
632.70 0.4642
632.80 0.4639
632.90 0.4637
633.00 0.4634
633.10 0.4632
633.20 0.4629
633.30 0.4627
633.40 0.4624
633.50 0.4622
633.60 0.4619
633.70 0.4616
633.80 0.4614
633.90 0.4611
634.00 0.4609
634.10 0.4606
634.20 0.4604
634.30 0.4601
634.40 0.4598
634.50 0.4596
634.60 0.4593
634.70 0.4591
634.80 0.4588
634.90 0.4585
635.00 0.4583
635.10 0.458
635.20 0.4578
635.30 0.4575
635.40 0.4573
635.50 0.457
635.60 0.4567
635.70 0.4565
635.80 0.4562
635.90 0.456
636.00 0.4557
636.10 0.4554
636.20 0.4552
636.30 0.4549
636.40 0.4547
636.50 0.4544
636.60 0.4541
636.70 0.4539
636.80 0.4536
636.90 0.4534
637.00 0.4531
637.10 0.4528
637.20 0.4526
637.30 0.4523
637.40 0.4521
637.50 0.4518
637.60 0.4515
637.70 0.4513
637.80 0.451
637.90 0.4507
638.00 0.4505
638.10 0.4502
638.20 0.45
638.30 0.4497
638.40 0.4494
638.50 0.4492
638.60 0.4489
638.70 0.4486
638.80 0.4484
638.90 0.4481
639.00 0.4478
639.10 0.4476
639.20 0.4473
639.30 0.447
639.40 0.4468
639.50 0.4465
639.60 0.4462
639.70 0.4459
639.80 0.4457
639.90 0.4454
640.00 0.4451
640.10 0.4449
640.20 0.4446
640.30 0.4443
640.40 0.444
640.50 0.4438
640.60 0.4435
640.70 0.4432
640.80 0.4429
640.90 0.4426
641.00 0.4424
641.10 0.4421
641.20 0.4418
641.30 0.4415
641.40 0.4412
641.50 0.441
641.60 0.4407
641.70 0.4404
641.80 0.4401
641.90 0.4398
642.00 0.4395
642.10 0.4392
642.20 0.439
642.30 0.4387
642.40 0.4384
642.50 0.4381
642.60 0.4378
642.70 0.4375
642.80 0.4372
642.90 0.4369
643.00 0.4366
643.10 0.4363
643.20 0.436
643.30 0.4357
643.40 0.4354
643.50 0.435
643.60 0.4347
643.70 0.4344
643.80 0.4341
643.90 0.4338
644.00 0.4334
644.10 0.4331
644.20 0.4328
644.30 0.4325
644.40 0.4321
644.50 0.4318
644.60 0.4315
644.70 0.4311
644.80 0.4308
644.90 0.4304
645.00 0.4301
645.10 0.4298
645.20 0.4294
645.30 0.4291
645.40 0.4287
645.50 0.4283
645.60 0.4279
645.70 0.4276
645.80 0.4272
645.90 0.4268
646.00 0.4264
646.10 0.4261
646.20 0.4257
646.30 0.4253
646.40 0.4249
646.50 0.4244
646.60 0.424
646.70 0.4236
646.80 0.4232
646.90 0.4227
647.00 0.4223
647.10 0.4219
647.20 0.4215
647.30 0.421
647.40 0.4205
647.50 0.42
647.60 0.4195
647.70 0.419
647.80 0.4185
647.90 0.418
648.00 0.4176
648.10 0.4171
648.20 0.4166
648.30 0.416
648.40 0.4154
648.50 0.4148
648.60 0.4142
648.70 0.4136
648.80 0.413
648.90 0.4124
649.00 0.4118
649.10 0.4112
649.20 0.4106
649.30 0.41
649.40 0.4092
649.50 0.4084
649.60 0.4077
649.70 0.4069
649.80 0.4061
649.90 0.4054
650.00 0.4046
650.10 0.4039
650.20 0.4031
650.30 0.4023
650.40 0.4013
650.50 0.4003
650.60 0.3992
650.70 0.3982
650.80 0.3972
650.90 0.3962
651.00 0.3952
651.10 0.3942
651.20 0.3932
651.30 0.3921
651.40 0.3907
651.50 0.3893
651.60 0.3879
651.70 0.3865
651.80 0.3851
651.90 0.3837
652.00 0.3823
652.10 0.3809
652.20 0.3795
652.30 0.378
652.40 0.3761
652.50 0.3741
652.60 0.3721
652.70 0.3702
652.80 0.3682
652.90 0.3663
653.00 0.3643
653.10 0.3624
653.20 0.3604
653.30 0.3583
653.40 0.3556
653.50 0.3529
653.60 0.3502
653.70 0.3475
653.80 0.3447
653.90 0.342
654.00 0.3393
654.10 0.3366
654.20 0.3339
654.30 0.3311
654.40 0.3276
654.50 0.3242
654.60 0.3208
654.70 0.3174
654.80 0.3139
654.90 0.3097
655.00 0.3056
655.10 0.3015
655.20 0.2974
655.30 0.2932
655.40 0.2887
655.50 0.2841
655.60 0.279
655.70 0.2739
655.80 0.2681
655.90 0.262
656.00 0.2541
656.10 0.2456
656.20 0.213
656.30 0.1818
656.40 0.2348
656.50 0.2488
656.60 0.2565
656.70 0.2637
656.80 0.2692
656.90 0.2746
657.00 0.2794
657.10 0.2841
657.20 0.2883
657.30 0.2925
657.40 0.2963
657.50 0.3001
657.60 0.3039
657.70 0.3077
657.80 0.3114
657.90 0.3145
658.00 0.3176
658.10 0.3207
658.20 0.3237
658.30 0.3267
658.40 0.329
658.50 0.3313
658.60 0.3337
658.70 0.336
658.80 0.3384
658.90 0.3407
659.00 0.343
659.10 0.3453
659.20 0.3477
659.30 0.3498
659.40 0.3514
659.50 0.3529
659.60 0.3545
659.70 0.356
659.80 0.3575
659.90 0.3591
660.00 0.3606
660.10 0.3621
660.20 0.3637
660.30 0.3651
660.40 0.366
660.50 0.367
660.60 0.3679
660.70 0.3689
660.80 0.3699
660.90 0.3708
661.00 0.3718
661.10 0.3727
661.20 0.3737
661.30 0.3745
661.40 0.3751
661.50 0.3757
661.60 0.3762
661.70 0.3768
661.80 0.3774
661.90 0.3779
662.00 0.3785
662.10 0.379
662.20 0.3796
662.30 0.3801
662.40 0.3804
662.50 0.3807
662.60 0.3811
662.70 0.3814
662.80 0.3817
662.90 0.382
663.00 0.3823
663.10 0.3826
663.20 0.3829
663.30 0.3832
663.40 0.3834
663.50 0.3835
663.60 0.3837
663.70 0.3838
663.80 0.384
663.90 0.3841
664.00 0.3843
664.10 0.3845
664.20 0.3846
664.30 0.3847
664.40 0.3848
664.50 0.3849
664.60 0.3849
664.70 0.385
664.80 0.385
664.90 0.3851
665.00 0.3851
665.10 0.3852
665.20 0.3852
665.30 0.3852
665.40 0.3852
665.50 0.3852
665.60 0.3852
665.70 0.3852
665.80 0.3852
665.90 0.3851
666.00 0.3851
666.10 0.3851
666.20 0.3851
666.30 0.3851
666.40 0.385
666.50 0.3849
666.60 0.3849
666.70 0.3848
666.80 0.3847
666.90 0.3847
667.00 0.3846
667.10 0.3845
667.20 0.3845
667.30 0.3844
667.40 0.3843
667.50 0.3842
667.60 0.3841
667.70 0.384
667.80 0.3839
667.90 0.3838
668.00 0.3837
668.10 0.3836
668.20 0.3835
668.30 0.3834
668.40 0.3833
668.50 0.3832
668.60 0.3831
668.70 0.383
668.80 0.3829
668.90 0.3827
669.00 0.3826
669.10 0.3825
669.20 0.3824
669.30 0.3823
669.40 0.3821
669.50 0.382
669.60 0.3819
669.70 0.3817
669.80 0.3816
669.90 0.3815
670.00 0.3813
670.10 0.3812
670.20 0.3811
670.30 0.3809
670.40 0.3808
670.50 0.3806
670.60 0.3805
670.70 0.3803
670.80 0.3802
670.90 0.38
671.00 0.3799
671.10 0.3797
671.20 0.3796
671.30 0.3795
671.40 0.3793
671.50 0.3791
671.60 0.379
671.70 0.3788
671.80 0.3787
671.90 0.3785
672.00 0.3784
672.10 0.3782
672.20 0.3781
672.30 0.3779
672.40 0.3778
672.50 0.3776
672.60 0.3774
672.70 0.3773
672.80 0.3771
672.90 0.377
673.00 0.3768
673.10 0.3766
673.20 0.3765
673.30 0.3763
673.40 0.3762
673.50 0.376
673.60 0.3758
673.70 0.3757
673.80 0.3755
673.90 0.3753
674.00 0.3752
674.10 0.375
674.20 0.3748
674.30 0.3747
674.40 0.3745
674.50 0.3744
674.60 0.3742
674.70 0.374
674.80 0.3738
674.90 0.3737
675.00 0.3735
675.10 0.3733
675.20 0.3732
675.30 0.373
675.40 0.3728
675.50 0.3727
675.60 0.3725
675.70 0.3723
675.80 0.3722
675.90 0.372
676.00 0.3718
676.10 0.3717
676.20 0.3715
676.30 0.3713
676.40 0.3712
676.50 0.371
676.60 0.3708
676.70 0.3706
676.80 0.3705
676.90 0.3703
677.00 0.3701
677.10 0.37
677.20 0.3698
677.30 0.3696
677.40 0.3694
677.50 0.3693
677.60 0.3691
677.70 0.3689
677.80 0.3688
677.90 0.3686
678.00 0.3684
678.10 0.3682
678.20 0.3681
678.30 0.3679
678.40 0.3677
678.50 0.3676
678.60 0.3674
678.70 0.3672
678.80 0.367
678.90 0.3669
679.00 0.3667
679.10 0.3665
679.20 0.3663
679.30 0.3662
679.40 0.366
679.50 0.3658
679.60 0.3657
679.70 0.3655
679.80 0.3653
679.90 0.3651
680.00 0.365
680.10 0.3648
680.20 0.3646
680.30 0.3644
680.40 0.3643
680.50 0.3641
680.60 0.3639
680.70 0.3638
680.80 0.3636
680.90 0.3634
681.00 0.3632
681.10 0.3631
681.20 0.3629
681.30 0.3627
681.40 0.3625
681.50 0.3624
681.60 0.3622
681.70 0.362
681.80 0.3619
681.90 0.3617
682.00 0.3615
682.10 0.3613
682.20 0.3612
682.30 0.361
682.40 0.3608
682.50 0.3607
682.60 0.3605
682.70 0.3603
682.80 0.3601
682.90 0.36
683.00 0.3598
683.10 0.3596
683.20 0.3594
683.30 0.3593
683.40 0.3591
683.50 0.3589
683.60 0.3588
683.70 0.3586
683.80 0.3584
683.90 0.3582
684.00 0.3581
684.10 0.3579
684.20 0.3577
684.30 0.3576
684.40 0.3574
684.50 0.3572
684.60 0.357
684.70 0.3569
684.80 0.3567
684.90 0.3565
685.00 0.3564
685.10 0.3562
685.20 0.356
685.30 0.3558
685.40 0.3557
685.50 0.3555
685.60 0.3553
685.70 0.3552
685.80 0.355
685.90 0.3548
686.00 0.3546
686.10 0.3545
686.20 0.3543
686.30 0.3541
686.40 0.354
686.50 0.3538
686.60 0.3536
686.70 0.3535
686.80 0.3533
686.90 0.3531
687.00 0.3529
687.10 0.3528
687.20 0.3526
687.30 0.3524
687.40 0.3523
687.50 0.3521
687.60 0.3519
687.70 0.3518
687.80 0.3516
687.90 0.3514
688.00 0.3512
688.10 0.3511
688.20 0.3509
688.30 0.3507
688.40 0.3506
688.50 0.3504
688.60 0.3502
688.70 0.3501
688.80 0.3499
688.90 0.3497
689.00 0.3496
689.10 0.3494
689.20 0.3492
689.30 0.3491
689.40 0.3489
689.50 0.3487
689.60 0.3486
689.70 0.3484
689.80 0.3482
689.90 0.3481
690.00 0.3479
690.10 0.3477
690.20 0.3475
690.30 0.3474
690.40 0.3472
690.50 0.347
690.60 0.3469
690.70 0.3467
690.80 0.3465
690.90 0.3464
691.00 0.3462
691.10 0.346
691.20 0.3459
691.30 0.3457
691.40 0.3455
691.50 0.3454
691.60 0.3452
691.70 0.345
691.80 0.3449
691.90 0.3447
692.00 0.3446
692.10 0.3444
692.20 0.3442
692.30 0.3441
692.40 0.3439
692.50 0.3437
692.60 0.3436
692.70 0.3434
692.80 0.3432
692.90 0.3431
693.00 0.3429
693.10 0.3427
693.20 0.3426
693.30 0.3424
693.40 0.3422
693.50 0.3421
693.60 0.3419
693.70 0.3417
693.80 0.3416
693.90 0.3414
694.00 0.3413
694.10 0.3411
694.20 0.3409
694.30 0.3408
694.40 0.3406
694.50 0.3404
694.60 0.3403
694.70 0.3401
694.80 0.3399
694.90 0.3398
695.00 0.3396
695.10 0.3395
695.20 0.3393
695.30 0.3391
695.40 0.339
695.50 0.3388
695.60 0.3386
695.70 0.3385
695.80 0.3383
695.90 0.3381
696.00 0.338
696.10 0.3378
696.20 0.3377
696.30 0.3375
696.40 0.3373
696.50 0.3372
696.60 0.337
696.70 0.3368
696.80 0.3367
696.90 0.3365
697.00 0.3364
697.10 0.3362
697.20 0.336
697.30 0.3359
697.40 0.3357
697.50 0.3356
697.60 0.3354
697.70 0.3352
697.80 0.3351
697.90 0.3349
698.00 0.3347
698.10 0.3346
698.20 0.3344
698.30 0.3343
698.40 0.3341
698.50 0.3339
698.60 0.3338
698.70 0.3336
698.80 0.3335
698.90 0.3333
699.00 0.3331
699.10 0.333
699.20 0.3328
699.30 0.3327
699.40 0.3325
699.50 0.3323
699.60 0.3322
699.70 0.332
699.80 0.3319
699.90 0.3317
700.00 0.3315
700.10 0.3314
700.20 0.3312
700.30 0.331
700.40 0.3309
700.50 0.3307
700.60 0.3306
700.70 0.3304
700.80 0.3302
700.90 0.3301
701.00 0.3299
701.10 0.3297
701.20 0.3296
701.30 0.3294
701.40 0.3292
701.50 0.3291
701.60 0.3289
701.70 0.3287
701.80 0.3286
701.90 0.3284
702.00 0.3282
702.10 0.3281
702.20 0.3279
702.30 0.3278
702.40 0.3276
702.50 0.3274
702.60 0.3273
702.70 0.3271
702.80 0.3269
702.90 0.3268
703.00 0.3266
703.10 0.3264
703.20 0.3263
703.30 0.3261
703.40 0.326
703.50 0.3258
703.60 0.3256
703.70 0.3255
703.80 0.3253
703.90 0.3251
704.00 0.325
704.10 0.3248
704.20 0.3247
704.30 0.3245
704.40 0.3243
704.50 0.3242
704.60 0.324
704.70 0.3238
704.80 0.3237
704.90 0.3235
705.00 0.3234
705.10 0.3232
705.20 0.3231
705.30 0.3229
705.40 0.3227
705.50 0.3226
705.60 0.3224
705.70 0.3223
705.80 0.3221
705.90 0.322
706.00 0.3218
706.10 0.3217
706.20 0.3215
706.30 0.3214
706.40 0.3212
706.50 0.3211
706.60 0.3209
706.70 0.3207
706.80 0.3206
706.90 0.3204
707.00 0.3203
707.10 0.3201
707.20 0.32
707.30 0.3198
707.40 0.3197
707.50 0.3195
707.60 0.3194
707.70 0.3192
707.80 0.3191
707.90 0.3189
708.00 0.3188
708.10 0.3186
708.20 0.3185
708.30 0.3183
708.40 0.3182
708.50 0.318
708.60 0.3179
708.70 0.3177
708.80 0.3176
708.90 0.3174
709.00 0.3173
709.10 0.3171
709.20 0.3169
709.30 0.3168
709.40 0.3166
709.50 0.3165
709.60 0.3163
709.70 0.3162
709.80 0.316
709.90 0.3159
710.00 0.3157
710.10 0.3156
710.20 0.3154
710.30 0.3153
710.40 0.3151
710.50 0.315
710.60 0.3148
710.70 0.3147
710.80 0.3145
710.90 0.3144
711.00 0.3142
711.10 0.3141
711.20 0.3139
711.30 0.3138
711.40 0.3137
711.50 0.3135
711.60 0.3134
711.70 0.3132
711.80 0.3131
711.90 0.3129
712.00 0.3128
712.10 0.3126
712.20 0.3125
712.30 0.3123
712.40 0.3122
712.50 0.312
712.60 0.3119
712.70 0.3117
712.80 0.3116
712.90 0.3114
713.00 0.3113
713.10 0.3111
713.20 0.311
713.30 0.3108
713.40 0.3107
713.50 0.3105
713.60 0.3104
713.70 0.3102
713.80 0.3101
713.90 0.31
714.00 0.3098
714.10 0.3097
714.20 0.3095
714.30 0.3094
714.40 0.3092
714.50 0.3091
714.60 0.3089
714.70 0.3088
714.80 0.3086
714.90 0.3085
715.00 0.3083
715.10 0.3082
715.20 0.308
715.30 0.3079
715.40 0.3078
715.50 0.3076
715.60 0.3075
715.70 0.3073
715.80 0.3072
715.90 0.307
716.00 0.3069
716.10 0.3068
716.20 0.3066
716.30 0.3065
716.40 0.3063
716.50 0.3062
716.60 0.306
716.70 0.3059
716.80 0.3057
716.90 0.3056
717.00 0.3055
717.10 0.3053
717.20 0.3052
717.30 0.305
717.40 0.3049
717.50 0.3047
717.60 0.3046
717.70 0.3045
717.80 0.3043
717.90 0.3042
718.00 0.304
718.10 0.3039
718.20 0.3037
718.30 0.3036
718.40 0.3035
718.50 0.3033
718.60 0.3032
718.70 0.303
718.80 0.3029
718.90 0.3027
719.00 0.3026
719.10 0.3025
719.20 0.3023
719.30 0.3022
719.40 0.302
719.50 0.3019
719.60 0.3018
719.70 0.3016
719.80 0.3015
719.90 0.3013
720.00 0.3012
720.10 0.301
720.20 0.3009
720.30 0.3008
720.40 0.3006
720.50 0.3005
720.60 0.3003
720.70 0.3002
720.80 0.3001
720.90 0.2999
721.00 0.2998
721.10 0.2996
721.20 0.2995
721.30 0.2994
721.40 0.2992
721.50 0.2991
721.60 0.2989
721.70 0.2988
721.80 0.2987
721.90 0.2985
722.00 0.2984
722.10 0.2982
722.20 0.2981
722.30 0.298
722.40 0.2978
722.50 0.2977
722.60 0.2975
722.70 0.2974
722.80 0.2973
722.90 0.2971
723.00 0.297
723.10 0.2968
723.20 0.2967
723.30 0.2966
723.40 0.2964
723.50 0.2963
723.60 0.2961
723.70 0.296
723.80 0.2959
723.90 0.2957
724.00 0.2956
724.10 0.2954
724.20 0.2953
724.30 0.2952
724.40 0.295
724.50 0.2949
724.60 0.2948
724.70 0.2946
724.80 0.2945
724.90 0.2943
725.00 0.2942
725.10 0.2941
725.20 0.2939
725.30 0.2938
725.40 0.2937
725.50 0.2935
725.60 0.2934
725.70 0.2932
725.80 0.2931
725.90 0.293
726.00 0.2928
726.10 0.2927
726.20 0.2926
726.30 0.2924
726.40 0.2923
726.50 0.2922
726.60 0.292
726.70 0.2919
726.80 0.2917
726.90 0.2916
727.00 0.2915
727.10 0.2913
727.20 0.2912
727.30 0.2911
727.40 0.2909
727.50 0.2908
727.60 0.2907
727.70 0.2905
727.80 0.2904
727.90 0.2902
728.00 0.2901
728.10 0.29
728.20 0.2898
728.30 0.2897
728.40 0.2896
728.50 0.2894
728.60 0.2893
728.70 0.2892
728.80 0.289
728.90 0.2889
729.00 0.2888
729.10 0.2886
729.20 0.2885
729.30 0.2884
729.40 0.2882
729.50 0.2881
729.60 0.288
729.70 0.2878
729.80 0.2877
729.90 0.2876
730.00 0.2874
730.10 0.2873
730.20 0.2872
730.30 0.287
730.40 0.2869
730.50 0.2868
730.60 0.2866
730.70 0.2865
730.80 0.2864
730.90 0.2862
731.00 0.2861
731.10 0.286
731.20 0.2858
731.30 0.2857
731.40 0.2856
731.50 0.2854
731.60 0.2853
731.70 0.2852
731.80 0.285
731.90 0.2849
732.00 0.2848
732.10 0.2846
732.20 0.2845
732.30 0.2844
732.40 0.2842
732.50 0.2841
732.60 0.284
732.70 0.2839
732.80 0.2837
732.90 0.2836
733.00 0.2835
733.10 0.2833
733.20 0.2832
733.30 0.2831
733.40 0.2829
733.50 0.2828
733.60 0.2827
733.70 0.2825
733.80 0.2824
733.90 0.2823
734.00 0.2822
734.10 0.282
734.20 0.2819
734.30 0.2818
734.40 0.2816
734.50 0.2815
734.60 0.2814
734.70 0.2812
734.80 0.2811
734.90 0.281
735.00 0.2809
735.10 0.2807
735.20 0.2806
735.30 0.2805
735.40 0.2803
735.50 0.2802
735.60 0.2801
735.70 0.2799
735.80 0.2798
735.90 0.2797
736.00 0.2796
736.10 0.2794
736.20 0.2793
736.30 0.2792
736.40 0.279
736.50 0.2789
736.60 0.2788
736.70 0.2787
736.80 0.2785
736.90 0.2784
737.00 0.2783
737.10 0.2781
737.20 0.278
737.30 0.2779
737.40 0.2778
737.50 0.2776
737.60 0.2775
737.70 0.2774
737.80 0.2772
737.90 0.2771
738.00 0.277
738.10 0.2769
738.20 0.2767
738.30 0.2766
738.40 0.2765
738.50 0.2763
738.60 0.2762
738.70 0.2761
738.80 0.276
738.90 0.2758
739.00 0.2757
739.10 0.2756
739.20 0.2755
739.30 0.2753
739.40 0.2752
739.50 0.2751
739.60 0.2749
739.70 0.2748
739.80 0.2747
739.90 0.2746
740.00 0.2744
740.10 0.2743
740.20 0.2742
740.30 0.2741
740.40 0.2739
740.50 0.2738
740.60 0.2737
740.70 0.2736
740.80 0.2734
740.90 0.2733
741.00 0.2732
741.10 0.2731
741.20 0.2729
741.30 0.2728
741.40 0.2727
741.50 0.2726
741.60 0.2724
741.70 0.2723
741.80 0.2722
741.90 0.2721
742.00 0.2719
742.10 0.2718
742.20 0.2717
742.30 0.2716
742.40 0.2714
742.50 0.2713
742.60 0.2712
742.70 0.2711
742.80 0.2709
742.90 0.2708
743.00 0.2707
743.10 0.2706
743.20 0.2705
743.30 0.2703
743.40 0.2702
743.50 0.2701
743.60 0.27
743.70 0.2698
743.80 0.2697
743.90 0.2696
744.00 0.2695
744.10 0.2693
744.20 0.2692
744.30 0.2691
744.40 0.269
744.50 0.2689
744.60 0.2687
744.70 0.2686
744.80 0.2685
744.90 0.2684
745.00 0.2682
745.10 0.2681
745.20 0.268
745.30 0.2679
745.40 0.2677
745.50 0.2676
745.60 0.2675
745.70 0.2674
745.80 0.2673
745.90 0.2671
746.00 0.267
746.10 0.2669
746.20 0.2668
746.30 0.2666
746.40 0.2665
746.50 0.2664
746.60 0.2663
746.70 0.2662
746.80 0.266
746.90 0.2659
747.00 0.2658
747.10 0.2657
747.20 0.2656
747.30 0.2654
747.40 0.2653
747.50 0.2652
747.60 0.2651
747.70 0.2649
747.80 0.2648
747.90 0.2647
748.00 0.2646
748.10 0.2645
748.20 0.2643
748.30 0.2642
748.40 0.2641
748.50 0.264
748.60 0.2639
748.70 0.2637
748.80 0.2636
748.90 0.2635
749.00 0.2634
749.10 0.2633
749.20 0.2631
749.30 0.263
749.40 0.2629
749.50 0.2628
749.60 0.2627
749.70 0.2625
749.80 0.2624
749.90 0.2623
750.00 0.2622
750.10 0.2621
750.20 0.2619
750.30 0.2618
750.40 0.2617
750.50 0.2616
750.60 0.2615
750.70 0.2614
750.80 0.2612
750.90 0.2611
751.00 0.261
751.10 0.2609
751.20 0.2608
751.30 0.2606
751.40 0.2605
751.50 0.2604
751.60 0.2603
751.70 0.2602
751.80 0.2601
751.90 0.2599
752.00 0.2598
752.10 0.2597
752.20 0.2596
752.30 0.2595
752.40 0.2594
752.50 0.2592
752.60 0.2591
752.70 0.259
752.80 0.2589
752.90 0.2588
753.00 0.2587
753.10 0.2585
753.20 0.2584
753.30 0.2583
753.40 0.2582
753.50 0.2581
753.60 0.258
753.70 0.2578
753.80 0.2577
753.90 0.2576
754.00 0.2575
754.10 0.2574
754.20 0.2573
754.30 0.2571
754.40 0.257
754.50 0.2569
754.60 0.2568
754.70 0.2567
754.80 0.2566
754.90 0.2564
755.00 0.2563
755.10 0.2562
755.20 0.2561
755.30 0.256
755.40 0.2559
755.50 0.2558
755.60 0.2556
755.70 0.2555
755.80 0.2554
755.90 0.2553
756.00 0.2552
756.10 0.2551
756.20 0.2549
756.30 0.2548
756.40 0.2547
756.50 0.2546
756.60 0.2545
756.70 0.2544
756.80 0.2543
756.90 0.2541
757.00 0.254
757.10 0.2539
757.20 0.2538
757.30 0.2537
757.40 0.2536
757.50 0.2535
757.60 0.2533
757.70 0.2532
757.80 0.2531
757.90 0.253
758.00 0.2529
758.10 0.2528
758.20 0.2527
758.30 0.2525
758.40 0.2524
758.50 0.2523
758.60 0.2522
758.70 0.2521
758.80 0.252
758.90 0.2519
759.00 0.2517
759.10 0.2516
759.20 0.2515
759.30 0.2514
759.40 0.2513
759.50 0.2512
759.60 0.2511
759.70 0.2509
759.80 0.2508
759.90 0.2507
760.00 0.2506
760.10 0.2505
760.20 0.2504
760.30 0.2503
760.40 0.2502
760.50 0.2501
760.60 0.2499
760.70 0.2498
760.80 0.2497
760.90 0.2496
761.00 0.2495
761.10 0.2494
761.20 0.2493
761.30 0.2492
761.40 0.249
761.50 0.2489
761.60 0.2488
761.70 0.2487
761.80 0.2486
761.90 0.2485
762.00 0.2484
762.10 0.2483
762.20 0.2482
762.30 0.2481
762.40 0.2479
762.50 0.2478
762.60 0.2477
762.70 0.2476
762.80 0.2475
762.90 0.2474
763.00 0.2473
763.10 0.2472
763.20 0.2471
763.30 0.2469
763.40 0.2468
763.50 0.2467
763.60 0.2466
763.70 0.2465
763.80 0.2464
763.90 0.2463
764.00 0.2462
764.10 0.2461
764.20 0.246
764.30 0.2458
764.40 0.2457
764.50 0.2456
764.60 0.2455
764.70 0.2454
764.80 0.2453
764.90 0.2452
765.00 0.2451
765.10 0.245
765.20 0.2449
765.30 0.2448
765.40 0.2446
765.50 0.2445
765.60 0.2444
765.70 0.2443
765.80 0.2442
765.90 0.2441
766.00 0.244
766.10 0.2439
766.20 0.2438
766.30 0.2437
766.40 0.2436
766.50 0.2434
766.60 0.2433
766.70 0.2432
766.80 0.2431
766.90 0.243
767.00 0.2429
767.10 0.2428
767.20 0.2427
767.30 0.2426
767.40 0.2425
767.50 0.2424
767.60 0.2423
767.70 0.2421
767.80 0.242
767.90 0.2419
768.00 0.2418
768.10 0.2417
768.20 0.2416
768.30 0.2415
768.40 0.2414
768.50 0.2413
768.60 0.2412
768.70 0.2411
768.80 0.241
768.90 0.2409
769.00 0.2407
769.10 0.2406
769.20 0.2405
769.30 0.2404
769.40 0.2403
769.50 0.2402
769.60 0.2401
769.70 0.24
769.80 0.2399
769.90 0.2398
770.00 0.2397
770.10 0.2396
770.20 0.2395
770.30 0.2394
770.40 0.2392
770.50 0.2391
770.60 0.239
770.70 0.2389
770.80 0.2388
770.90 0.2387
771.00 0.2386
771.10 0.2385
771.20 0.2384
771.30 0.2383
771.40 0.2382
771.50 0.2381
771.60 0.238
771.70 0.2379
771.80 0.2378
771.90 0.2377
772.00 0.2376
772.10 0.2375
772.20 0.2374
772.30 0.2373
772.40 0.2371
772.50 0.237
772.60 0.2369
772.70 0.2368
772.80 0.2367
772.90 0.2366
773.00 0.2365
773.10 0.2364
773.20 0.2363
773.30 0.2362
773.40 0.2361
773.50 0.236
773.60 0.2359
773.70 0.2358
773.80 0.2357
773.90 0.2356
774.00 0.2355
774.10 0.2354
774.20 0.2353
774.30 0.2352
774.40 0.2351
774.50 0.235
774.60 0.2349
774.70 0.2348
774.80 0.2347
774.90 0.2345
775.00 0.2344
775.10 0.2343
775.20 0.2342
775.30 0.2341
775.40 0.234
775.50 0.2339
775.60 0.2338
775.70 0.2337
775.80 0.2336
775.90 0.2335
776.00 0.2334
776.10 0.2333
776.20 0.2332
776.30 0.2331
776.40 0.233
776.50 0.2329
776.60 0.2328
776.70 0.2327
776.80 0.2326
776.90 0.2325
777.00 0.2324
777.10 0.2323
777.20 0.2322
777.30 0.2321
777.40 0.232
777.50 0.2319
777.60 0.2318
777.70 0.2317
777.80 0.2316
777.90 0.2315
778.00 0.2314
778.10 0.2313
778.20 0.2312
778.30 0.2311
778.40 0.231
778.50 0.2309
778.60 0.2308
778.70 0.2307
778.80 0.2306
778.90 0.2304
779.00 0.2303
779.10 0.2302
779.20 0.2301
779.30 0.23
779.40 0.2299
779.50 0.2298
779.60 0.2297
779.70 0.2296
779.80 0.2295
779.90 0.2294
780.00 0.2293
780.10 0.2292
780.20 0.2291
780.30 0.229
780.40 0.2289
780.50 0.2288
780.60 0.2287
780.70 0.2286
780.80 0.2285
780.90 0.2284
781.00 0.2283
781.10 0.2282
781.20 0.2281
781.30 0.228
781.40 0.2279
781.50 0.2278
781.60 0.2277
781.70 0.2276
781.80 0.2275
781.90 0.2274
782.00 0.2273
782.10 0.2272
782.20 0.2271
782.30 0.227
782.40 0.2269
782.50 0.2268
782.60 0.2267
782.70 0.2267
782.80 0.2266
782.90 0.2265
783.00 0.2264
783.10 0.2263
783.20 0.2262
783.30 0.2261
783.40 0.226
783.50 0.2259
783.60 0.2258
783.70 0.2257
783.80 0.2256
783.90 0.2255
784.00 0.2254
784.10 0.2253
784.20 0.2252
784.30 0.2251
784.40 0.225
784.50 0.2249
784.60 0.2248
784.70 0.2247
784.80 0.2246
784.90 0.2245
785.00 0.2244
785.10 0.2243
785.20 0.2242
785.30 0.2241
785.40 0.224
785.50 0.2239
785.60 0.2238
785.70 0.2237
785.80 0.2236
785.90 0.2235
786.00 0.2234
786.10 0.2233
786.20 0.2232
786.30 0.2231
786.40 0.223
786.50 0.2229
786.60 0.2228
786.70 0.2227
786.80 0.2226
786.90 0.2225
787.00 0.2224
787.10 0.2223
787.20 0.2222
787.30 0.2222
787.40 0.2221
787.50 0.222
787.60 0.2219
787.70 0.2218
787.80 0.2217
787.90 0.2216
788.00 0.2215
788.10 0.2214
788.20 0.2213
788.30 0.2212
788.40 0.2211
788.50 0.221
788.60 0.2209
788.70 0.2208
788.80 0.2207
788.90 0.2206
789.00 0.2205
789.10 0.2204
789.20 0.2203
789.30 0.2202
789.40 0.2201
789.50 0.22
789.60 0.2199
789.70 0.2198
789.80 0.2197
789.90 0.2196
790.00 0.2196
790.10 0.2195
790.20 0.2194
790.30 0.2193
790.40 0.2192
790.50 0.2191
790.60 0.219
790.70 0.2189
790.80 0.2188
790.90 0.2187
791.00 0.2186
791.10 0.2185
791.20 0.2184
791.30 0.2183
791.40 0.2182
791.50 0.2181
791.60 0.218
791.70 0.2179
791.80 0.2179
791.90 0.2178
792.00 0.2177
792.10 0.2176
792.20 0.2175
792.30 0.2174
792.40 0.2173
792.50 0.2172
792.60 0.2171
792.70 0.217
792.80 0.2169
792.90 0.2168
793.00 0.2167
793.10 0.2166
793.20 0.2165
793.30 0.2164
793.40 0.2164
793.50 0.2163
793.60 0.2162
793.70 0.2161
793.80 0.216
793.90 0.2159
794.00 0.2158
794.10 0.2157
794.20 0.2156
794.30 0.2155
794.40 0.2154
794.50 0.2153
794.60 0.2152
794.70 0.2151
794.80 0.2151
794.90 0.215
795.00 0.2149
795.10 0.2148
795.20 0.2147
795.30 0.2146
795.40 0.2145
795.50 0.2144
795.60 0.2143
795.70 0.2142
795.80 0.2141
795.90 0.214
796.00 0.2139
796.10 0.2139
796.20 0.2138
796.30 0.2137
796.40 0.2136
796.50 0.2135
796.60 0.2134
796.70 0.2133
796.80 0.2132
796.90 0.2131
797.00 0.213
797.10 0.2129
797.20 0.2128
797.30 0.2127
797.40 0.2127
797.50 0.2126
797.60 0.2125
797.70 0.2124
797.80 0.2123
797.90 0.2122
798.00 0.2121
798.10 0.212
798.20 0.2119
798.30 0.2118
798.40 0.2117
798.50 0.2116
798.60 0.2116
798.70 0.2115
798.80 0.2114
798.90 0.2113
799.00 0.2112
799.10 0.2111
799.20 0.211
799.30 0.2109
799.40 0.2108
799.50 0.2107
799.60 0.2106
799.70 0.2106
799.80 0.2105
799.90 0.2104
800.00 0.2103
800.10 0.2102
800.20 0.2101
800.30 0.21
800.40 0.2099
800.50 0.2098
800.60 0.2097
800.70 0.2097
800.80 0.2096
800.90 0.2095
801.00 0.2094
801.10 0.2093
801.20 0.2092
801.30 0.2091
801.40 0.209
801.50 0.2089
801.60 0.2089
801.70 0.2088
801.80 0.2087
801.90 0.2086
802.00 0.2085
802.10 0.2084
802.20 0.2083
802.30 0.2082
802.40 0.2081
802.50 0.2081
802.60 0.208
802.70 0.2079
802.80 0.2078
802.90 0.2077
803.00 0.2076
803.10 0.2075
803.20 0.2074
803.30 0.2073
803.40 0.2073
803.50 0.2072
803.60 0.2071
803.70 0.207
803.80 0.2069
803.90 0.2068
804.00 0.2067
804.10 0.2066
804.20 0.2066
804.30 0.2065
804.40 0.2064
804.50 0.2063
804.60 0.2062
804.70 0.2061
804.80 0.206
804.90 0.2059
805.00 0.2059
805.10 0.2058
805.20 0.2057
805.30 0.2056
805.40 0.2055
805.50 0.2054
805.60 0.2053
805.70 0.2052
805.80 0.2052
805.90 0.2051
806.00 0.205
806.10 0.2049
806.20 0.2048
806.30 0.2047
806.40 0.2046
806.50 0.2045
806.60 0.2045
806.70 0.2044
806.80 0.2043
806.90 0.2042
807.00 0.2041
807.10 0.204
807.20 0.2039
807.30 0.2038
807.40 0.2038
807.50 0.2037
807.60 0.2036
807.70 0.2035
807.80 0.2034
807.90 0.2033
808.00 0.2032
808.10 0.2031
808.20 0.2031
808.30 0.203
808.40 0.2029
808.50 0.2028
808.60 0.2027
808.70 0.2026
808.80 0.2025
808.90 0.2025
809.00 0.2024
809.10 0.2023
809.20 0.2022
809.30 0.2021
809.40 0.202
809.50 0.2019
809.60 0.2019
809.70 0.2018
809.80 0.2017
809.90 0.2016
810.00 0.2015
810.10 0.2014
810.20 0.2013
810.30 0.2013
810.40 0.2012
810.50 0.2011
810.60 0.201
810.70 0.2009
810.80 0.2008
810.90 0.2007
811.00 0.2007
811.10 0.2006
811.20 0.2005
811.30 0.2004
811.40 0.2003
811.50 0.2002
811.60 0.2002
811.70 0.2001
811.80 0.2
811.90 0.1999
812.00 0.1998
812.10 0.1997
812.20 0.1997
812.30 0.1996
812.40 0.1995
812.50 0.1994
812.60 0.1993
812.70 0.1992
812.80 0.1991
812.90 0.1991
813.00 0.199
813.10 0.1989
813.20 0.1988
813.30 0.1987
813.40 0.1986
813.50 0.1986
813.60 0.1985
813.70 0.1984
813.80 0.1983
813.90 0.1982
814.00 0.1981
814.10 0.1981
814.20 0.198
814.30 0.1979
814.40 0.1978
814.50 0.1977
814.60 0.1976
814.70 0.1976
814.80 0.1975
814.90 0.1974
815.00 0.1973
815.10 0.1972
815.20 0.1971
815.30 0.1971
815.40 0.197
815.50 0.1969
815.60 0.1968
815.70 0.1967
815.80 0.1966
815.90 0.1966
816.00 0.1965
816.10 0.1964
816.20 0.1963
816.30 0.1962
816.40 0.1961
816.50 0.1961
816.60 0.196
816.70 0.1959
816.80 0.1958
816.90 0.1957
817.00 0.1957
817.10 0.1956
817.20 0.1955
817.30 0.1954
817.40 0.1953
817.50 0.1952
817.60 0.1952
817.70 0.1951
817.80 0.195
817.90 0.1949
818.00 0.1948
818.10 0.1947
818.20 0.1947
818.30 0.1946
818.40 0.1945
818.50 0.1944
818.60 0.1943
818.70 0.1943
818.80 0.1942
818.90 0.1941
819.00 0.194
819.10 0.1939
819.20 0.1938
819.30 0.1938
819.40 0.1937
819.50 0.1936
819.60 0.1935
819.70 0.1934
819.80 0.1934
819.90 0.1933
820.00 0.1932
820.10 0.1931
820.20 0.193
820.30 0.193
820.40 0.1929
820.50 0.1928
820.60 0.1927
820.70 0.1926
820.80 0.1925
820.90 0.1925
821.00 0.1924
821.10 0.1923
821.20 0.1922
821.30 0.1921
821.40 0.1921
821.50 0.192
821.60 0.1919
821.70 0.1918
821.80 0.1917
821.90 0.1917
822.00 0.1916
822.10 0.1915
822.20 0.1914
822.30 0.1913
822.40 0.1913
822.50 0.1912
822.60 0.1911
822.70 0.191
822.80 0.1909
822.90 0.1909
823.00 0.1908
823.10 0.1907
823.20 0.1906
823.30 0.1905
823.40 0.1905
823.50 0.1904
823.60 0.1903
823.70 0.1902
823.80 0.1902
823.90 0.1901
824.00 0.19
824.10 0.1899
824.20 0.1898
824.30 0.1898
824.40 0.1897
824.50 0.1896
824.60 0.1895
824.70 0.1894
824.80 0.1894
824.90 0.1893
825.00 0.1892
825.10 0.1891
825.20 0.189
825.30 0.189
825.40 0.1889
825.50 0.1888
825.60 0.1887
825.70 0.1886
825.80 0.1886
825.90 0.1885
826.00 0.1884
826.10 0.1883
826.20 0.1883
826.30 0.1882
826.40 0.1881
826.50 0.188
826.60 0.1879
826.70 0.1879
826.80 0.1878
826.90 0.1877
827.00 0.1876
827.10 0.1876
827.20 0.1875
827.30 0.1874
827.40 0.1873
827.50 0.1872
827.60 0.1872
827.70 0.1871
827.80 0.187
827.90 0.1869
828.00 0.1869
828.10 0.1868
828.20 0.1867
828.30 0.1866
828.40 0.1865
828.50 0.1865
828.60 0.1864
828.70 0.1863
828.80 0.1862
828.90 0.1862
829.00 0.1861
829.10 0.186
829.20 0.1859
829.30 0.1858
829.40 0.1858
829.50 0.1857
829.60 0.1856
829.70 0.1855
829.80 0.1855
829.90 0.1854
830.00 0.1853
830.10 0.1852
830.20 0.1852
830.30 0.1851
830.40 0.185
830.50 0.1849
830.60 0.1848
830.70 0.1848
830.80 0.1847
830.90 0.1846
831.00 0.1845
831.10 0.1845
831.20 0.1844
831.30 0.1843
831.40 0.1842
831.50 0.1842
831.60 0.1841
831.70 0.184
831.80 0.1839
831.90 0.1839
832.00 0.1838
832.10 0.1837
832.20 0.1836
832.30 0.1835
832.40 0.1835
832.50 0.1834
832.60 0.1833
832.70 0.1832
832.80 0.1832
832.90 0.1831
833.00 0.183
833.10 0.1829
833.20 0.1829
833.30 0.1828
833.40 0.1827
833.50 0.1826
833.60 0.1826
833.70 0.1825
833.80 0.1824
833.90 0.1823
834.00 0.1823
834.10 0.1822
834.20 0.1821
834.30 0.182
834.40 0.182
834.50 0.1819
834.60 0.1818
834.70 0.1817
834.80 0.1817
834.90 0.1816
835.00 0.1815
835.10 0.1814
835.20 0.1814
835.30 0.1813
835.40 0.1812
835.50 0.1811
835.60 0.1811
835.70 0.181
835.80 0.1809
835.90 0.1808
836.00 0.1808
836.10 0.1807
836.20 0.1806
836.30 0.1805
836.40 0.1805
836.50 0.1804
836.60 0.1803
836.70 0.1802
836.80 0.1802
836.90 0.1801
837.00 0.18
837.10 0.1799
837.20 0.1799
837.30 0.1798
837.40 0.1797
837.50 0.1797
837.60 0.1796
837.70 0.1795
837.80 0.1794
837.90 0.1794
838.00 0.1793
838.10 0.1792
838.20 0.1791
838.30 0.1791
838.40 0.179
838.50 0.1789
838.60 0.1788
838.70 0.1788
838.80 0.1787
838.90 0.1786
839.00 0.1785
839.10 0.1785
839.20 0.1784
839.30 0.1783
839.40 0.1783
839.50 0.1782
839.60 0.1781
839.70 0.178
839.80 0.178
839.90 0.1779
840.00 0.1778
840.10 0.1777
840.20 0.1777
840.30 0.1776
840.40 0.1775
840.50 0.1774
840.60 0.1774
840.70 0.1773
840.80 0.1772
840.90 0.1772
841.00 0.1771
841.10 0.177
841.20 0.1769
841.30 0.1769
841.40 0.1768
841.50 0.1767
841.60 0.1766
841.70 0.1766
841.80 0.1765
841.90 0.1764
842.00 0.1764
842.10 0.1763
842.20 0.1762
842.30 0.1761
842.40 0.1761
842.50 0.176
842.60 0.1759
842.70 0.1758
842.80 0.1758
842.90 0.1757
843.00 0.1756
843.10 0.1755
843.20 0.1755
843.30 0.1754
843.40 0.1753
843.50 0.1752
843.60 0.1752
843.70 0.1751
843.80 0.175
843.90 0.1749
844.00 0.1749
844.10 0.1748
844.20 0.1747
844.30 0.1747
844.40 0.1746
844.50 0.1745
844.60 0.1744
844.70 0.1744
844.80 0.1743
844.90 0.1742
845.00 0.1741
845.10 0.1741
845.20 0.174
845.30 0.1739
845.40 0.1738
845.50 0.1738
845.60 0.1737
845.70 0.1736
845.80 0.1736
845.90 0.1735
846.00 0.1734
846.10 0.1733
846.20 0.1733
846.30 0.1732
846.40 0.1731
846.50 0.173
846.60 0.173
846.70 0.1729
846.80 0.1728
846.90 0.1727
847.00 0.1727
847.10 0.1727
847.20 0.1726
847.30 0.1726
847.40 0.1726
847.50 0.1726
847.60 0.1726
847.70 0.1725
847.80 0.1725
847.90 0.1725
848.00 0.1725
848.10 0.1725
848.20 0.1725
848.30 0.1724
848.40 0.1724
848.50 0.1724
848.60 0.1724
848.70 0.1724
848.80 0.1723
848.90 0.1723
849.00 0.1723
849.10 0.1723
849.20 0.1723
849.30 0.1722
849.40 0.1722
849.50 0.1722
849.60 0.1722
849.70 0.1722
849.80 0.1722
849.90 0.1721
850.00 0.1721
850.10 0.1721
850.20 0.1721
850.30 0.1721
850.40 0.172
850.50 0.172
850.60 0.172
850.70 0.172
850.80 0.172
850.90 0.172
851.00 0.1719
851.10 0.1719
851.20 0.1719
851.30 0.1719
851.40 0.1719
851.50 0.1718
851.60 0.1718
851.70 0.1718
851.80 0.1718
851.90 0.1718
852.00 0.1717
852.10 0.1717
852.20 0.1717
852.30 0.1716
852.40 0.1716
852.50 0.1716
852.60 0.1715
852.70 0.1715
852.80 0.1714
852.90 0.1714
853.00 0.1714
853.10 0.1713
853.20 0.1713
853.30 0.1713
853.40 0.1712
853.50 0.1712
853.60 0.1711
853.70 0.1711
853.80 0.1711
853.90 0.171
854.00 0.171
854.10 0.171
854.20 0.1709
854.30 0.1709
854.40 0.1709
854.50 0.1708
854.60 0.1708
854.70 0.1707
854.80 0.1707
854.90 0.1707
855.00 0.1706
855.10 0.1706
855.20 0.1706
855.30 0.1705
855.40 0.1705
855.50 0.1704
855.60 0.1704
855.70 0.1704
855.80 0.1703
855.90 0.1703
856.00 0.1703
856.10 0.1702
856.20 0.1702
856.30 0.1701
856.40 0.1701
856.50 0.1701
856.60 0.17
856.70 0.17
856.80 0.17
856.90 0.1699
857.00 0.1699
857.10 0.1699
857.20 0.1698
857.30 0.1698
857.40 0.1698
857.50 0.1697
857.60 0.1697
857.70 0.1697
857.80 0.1696
857.90 0.1696
858.00 0.1696
858.10 0.1695
858.20 0.1695
858.30 0.1695
858.40 0.1694
858.50 0.1694
858.60 0.1694
858.70 0.1693
858.80 0.1693
858.90 0.1693
859.00 0.1692
859.10 0.1692
859.20 0.1692
859.30 0.1691
859.40 0.1691
859.50 0.1691
859.60 0.169
859.70 0.169
859.80 0.169
859.90 0.1689
860.00 0.1689
860.10 0.1689
860.20 0.1688
860.30 0.1688
860.40 0.1688
860.50 0.1687
860.60 0.1687
860.70 0.1687
860.80 0.1686
860.90 0.1686
861.00 0.1686
861.10 0.1685
861.20 0.1685
861.30 0.1685
861.40 0.1684
861.50 0.1684
861.60 0.1684
861.70 0.1683
861.80 0.1683
861.90 0.1683
862.00 0.1682
862.10 0.1681
862.20 0.168
862.30 0.1679
862.40 0.1677
862.50 0.1676
862.60 0.1675
862.70 0.1673
862.80 0.1672
862.90 0.1671
863.00 0.1669
863.10 0.1668
863.20 0.1667
863.30 0.1666
863.40 0.1664
863.50 0.1663
863.60 0.1662
863.70 0.166
863.80 0.1659
863.90 0.1658
864.00 0.1656
864.10 0.1655
864.20 0.1654
864.30 0.1653
864.40 0.1651
864.50 0.165
864.60 0.1649
864.70 0.1647
864.80 0.1646
864.90 0.1645
865.00 0.1644
865.10 0.1642
865.20 0.1641
865.30 0.164
865.40 0.1638
865.50 0.1637
865.60 0.1636
865.70 0.1635
865.80 0.1633
865.90 0.1632
866.00 0.1631
866.10 0.1629
866.20 0.1628
866.30 0.1627
866.40 0.1626
866.50 0.1624
866.60 0.1623
866.70 0.1622
866.80 0.1621
866.90 0.1619
867.00 0.1618
867.10 0.1618
867.20 0.1619
867.30 0.162
867.40 0.162
867.50 0.1621
867.60 0.1621
867.70 0.1622
867.80 0.1622
867.90 0.1623
868.00 0.1623
868.10 0.1624
868.20 0.1624
868.30 0.1625
868.40 0.1625
868.50 0.1626
868.60 0.1626
868.70 0.1627
868.80 0.1627
868.90 0.1628
869.00 0.1628
869.10 0.1629
869.20 0.1629
869.30 0.163
869.40 0.163
869.50 0.1631
869.60 0.1631
869.70 0.1632
869.80 0.1632
869.90 0.1633
870.00 0.1633
870.10 0.1634
870.20 0.1635
870.30 0.1635
870.40 0.1636
870.50 0.1636
870.60 0.1637
870.70 0.1637
870.80 0.1638
870.90 0.1638
871.00 0.1639
871.10 0.1639
871.20 0.164
871.30 0.164
871.40 0.1641
871.50 0.1641
871.60 0.1642
871.70 0.1642
871.80 0.1643
871.90 0.1643
872.00 0.1644
872.10 0.1642
872.20 0.1641
872.30 0.164
872.40 0.1638
872.50 0.1637
872.60 0.1636
872.70 0.1634
872.80 0.1633
872.90 0.1632
873.00 0.163
873.10 0.1629
873.20 0.1628
873.30 0.1627
873.40 0.1625
873.50 0.1624
873.60 0.1623
873.70 0.1621
873.80 0.162
873.90 0.1619
874.00 0.1617
874.10 0.1616
874.20 0.1615
874.30 0.1613
874.40 0.1612
874.50 0.1611
874.60 0.161
874.70 0.1608
874.80 0.1607
874.90 0.1606
875.00 0.1604
875.10 0.1603
875.20 0.1602
875.30 0.16
875.40 0.1599
875.50 0.1598
875.60 0.1596
875.70 0.1595
875.80 0.1594
875.90 0.1593
876.00 0.1591
876.10 0.159
876.20 0.1589
876.30 0.1587
876.40 0.1586
876.50 0.1585
876.60 0.1583
876.70 0.1582
876.80 0.1581
876.90 0.158
877.00 0.1578
877.10 0.1579
877.20 0.1579
877.30 0.158
877.40 0.158
877.50 0.158
877.60 0.1581
877.70 0.1581
877.80 0.1582
877.90 0.1582
878.00 0.1582
878.10 0.1583
878.20 0.1583
878.30 0.1584
878.40 0.1584
878.50 0.1585
878.60 0.1585
878.70 0.1585
878.80 0.1586
878.90 0.1586
879.00 0.1587
879.10 0.1587
879.20 0.1587
879.30 0.1588
879.40 0.1588
879.50 0.1589
879.60 0.1589
879.70 0.1589
879.80 0.159
879.90 0.159
880.00 0.1591
880.10 0.1591
880.20 0.1591
880.30 0.1592
880.40 0.1592
880.50 0.1593
880.60 0.1593
880.70 0.1594
880.80 0.1594
880.90 0.1594
881.00 0.1595
881.10 0.1595
881.20 0.1596
881.30 0.1596
881.40 0.1596
881.50 0.1597
881.60 0.1597
881.70 0.1598
881.80 0.1598
881.90 0.1598
882.00 0.1599
882.10 0.1594
882.20 0.1588
882.30 0.1583
882.40 0.1578
882.50 0.1573
882.60 0.1568
882.70 0.1563
882.80 0.1557
882.90 0.1552
883.00 0.1547
883.10 0.1542
883.20 0.1537
883.30 0.1532
883.40 0.1526
883.50 0.1521
883.60 0.1516
883.70 0.1511
883.80 0.1506
883.90 0.1501
884.00 0.1496
884.10 0.149
884.20 0.1485
884.30 0.148
884.40 0.1475
884.50 0.147
884.60 0.1465
884.70 0.146
884.80 0.1455
884.90 0.145
885.00 0.1444
885.10 0.1439
885.20 0.1434
885.30 0.1429
885.40 0.1424
885.50 0.1419
885.60 0.1414
885.70 0.1409
885.80 0.1404
885.90 0.1398
886.00 0.1393
886.10 0.1388
886.20 0.1383
886.30 0.1378
886.40 0.1373
886.50 0.1368
886.60 0.1363
886.70 0.1358
886.80 0.1353
886.90 0.1348
887.00 0.1343
887.10 0.1346
887.20 0.135
887.30 0.1353
887.40 0.1357
887.50 0.136
887.60 0.1364
887.70 0.1367
887.80 0.1371
887.90 0.1374
888.00 0.1378
888.10 0.1381
888.20 0.1385
888.30 0.1389
888.40 0.1392
888.50 0.1396
888.60 0.1399
888.70 0.1403
888.80 0.1406
888.90 0.141
889.00 0.1413
889.10 0.1417
889.20 0.142
889.30 0.1424
889.40 0.1427
889.50 0.1431
889.60 0.1434
889.70 0.1438
889.80 0.1441
889.90 0.1445
890.00 0.1448
890.10 0.1452
890.20 0.1455
890.30 0.1459
890.40 0.1462
890.50 0.1466
890.60 0.1469
890.70 0.1473
890.80 0.1476
890.90 0.148
891.00 0.1483
891.10 0.1487
891.20 0.149
891.30 0.1494
891.40 0.1497
891.50 0.15
891.60 0.1504
891.70 0.1507
891.80 0.1511
891.90 0.1514
892.00 0.1518
892.10 0.1516
892.20 0.1515
892.30 0.1513
892.40 0.1511
892.50 0.151
892.60 0.1508
892.70 0.1506
892.80 0.1505
892.90 0.1503
893.00 0.1501
893.10 0.15
893.20 0.1498
893.30 0.1497
893.40 0.1495
893.50 0.1493
893.60 0.1492
893.70 0.149
893.80 0.1489
893.90 0.1487
894.00 0.1485
894.10 0.1484
894.20 0.1482
894.30 0.148
894.40 0.1479
894.50 0.1477
894.60 0.1476
894.70 0.1474
894.80 0.1472
894.90 0.1471
895.00 0.1469
895.10 0.1467
895.20 0.1466
895.30 0.1464
895.40 0.1463
895.50 0.1461
895.60 0.1459
895.70 0.1458
895.80 0.1456
895.90 0.1455
896.00 0.1453
896.10 0.1451
896.20 0.145
896.30 0.1448
896.40 0.1447
896.50 0.1445
896.60 0.1443
896.70 0.1442
896.80 0.144
896.90 0.1439
897.00 0.1437
897.10 0.1432
897.20 0.1427
897.30 0.1422
897.40 0.1417
897.50 0.1412
897.60 0.1407
897.70 0.1402
897.80 0.1397
897.90 0.1392
898.00 0.1388
898.10 0.1383
898.20 0.1378
898.30 0.1373
898.40 0.1368
898.50 0.1363
898.60 0.1358
898.70 0.1353
898.80 0.1348
898.90 0.1343
899.00 0.1338
899.10 0.1333
899.20 0.1328
899.30 0.1324
899.40 0.1319
899.50 0.1314
899.60 0.1309
899.70 0.1304
899.80 0.1299
899.90 0.1294
900.00 0.1289
900.10 0.1284
900.20 0.1279
900.30 0.1275
900.40 0.127
900.50 0.1265
900.60 0.126
900.70 0.1255
900.80 0.125
900.90 0.1245
901.00 0.124
901.10 0.1236
901.20 0.1231
901.30 0.1226
901.40 0.1221
901.50 0.1216
901.60 0.1211
901.70 0.1206
901.80 0.1202
901.90 0.1197
902.00 0.1192
902.10 0.1196
902.20 0.12
902.30 0.1204
902.40 0.1209
902.50 0.1213
902.60 0.1217
902.70 0.1221
902.80 0.1225
902.90 0.1229
903.00 0.1234
903.10 0.1238
903.20 0.1242
903.30 0.1246
903.40 0.125
903.50 0.1255
903.60 0.1259
903.70 0.1263
903.80 0.1267
903.90 0.1271
904.00 0.1275
904.10 0.1279
904.20 0.1284
904.30 0.1288
904.40 0.1292
904.50 0.1296
904.60 0.13
904.70 0.1304
904.80 0.1309
904.90 0.1313
905.00 0.1317
905.10 0.1321
905.20 0.1325
905.30 0.1329
905.40 0.1333
905.50 0.1337
905.60 0.1342
905.70 0.1346
905.80 0.135
905.90 0.1354
906.00 0.1358
906.10 0.1362
906.20 0.1366
906.30 0.137
906.40 0.1375
906.50 0.1379
906.60 0.1383
906.70 0.1387
906.80 0.1391
906.90 0.1395
907.00 0.1399
907.10 0.14
907.20 0.14
907.30 0.1401
907.40 0.1402
907.50 0.1402
907.60 0.1403
907.70 0.1403
907.80 0.1404
907.90 0.1405
908.00 0.1405
908.10 0.1406
908.20 0.1406
908.30 0.1407
908.40 0.1408
908.50 0.1408
908.60 0.1409
908.70 0.1409
908.80 0.141
908.90 0.1411
909.00 0.1411
909.10 0.1412
909.20 0.1412
909.30 0.1413
909.40 0.1413
909.50 0.1414
909.60 0.1415
909.70 0.1415
909.80 0.1416
909.90 0.1416
910.00 0.1417
910.10 0.1418
910.20 0.1418
910.30 0.1419
910.40 0.1419
910.50 0.142
910.60 0.1421
910.70 0.1421
910.80 0.1422
910.90 0.1422
911.00 0.1423
911.10 0.1424
911.20 0.1424
911.30 0.1425
911.40 0.1425
911.50 0.1426
911.60 0.1426
911.70 0.1427
911.80 0.1428
911.90 0.1428
912.00 0.1429
912.10 0.1427
912.20 0.1425
912.30 0.1423
912.40 0.1421
912.50 0.1419
912.60 0.1417
912.70 0.1415
912.80 0.1413
912.90 0.1411
913.00 0.1409
913.10 0.1407
913.20 0.1405
913.30 0.1403
913.40 0.1401
913.50 0.1399
913.60 0.1397
913.70 0.1395
913.80 0.1393
913.90 0.1391
914.00 0.1389
914.10 0.1387
914.20 0.1385
914.30 0.1383
914.40 0.1381
914.50 0.1379
914.60 0.1377
914.70 0.1375
914.80 0.1373
914.90 0.1371
915.00 0.1369
915.10 0.1367
915.20 0.1365
915.30 0.1363
915.40 0.1361
915.50 0.1359
915.60 0.1357
915.70 0.1355
915.80 0.1353
915.90 0.1351
916.00 0.1349
916.10 0.1347
916.20 0.1345
916.30 0.1343
916.40 0.1341
916.50 0.1339
916.60 0.1337
916.70 0.1335
916.80 0.1333
916.90 0.1331
917.00 0.1329
917.10 0.1323
917.20 0.1318
917.30 0.1312
917.40 0.1306
917.50 0.1301
917.60 0.1295
917.70 0.129
917.80 0.1284
917.90 0.1278
918.00 0.1273
918.10 0.1267
918.20 0.1261
918.30 0.1256
918.40 0.125
918.50 0.1245
918.60 0.1239
918.70 0.1233
918.80 0.1228
918.90 0.1222
919.00 0.1217
919.10 0.1211
919.20 0.1205
919.30 0.12
919.40 0.1194
919.50 0.1189
919.60 0.1183
919.70 0.1177
919.80 0.1172
919.90 0.1166
920.00 0.1161
920.10 0.1155
920.20 0.115
920.30 0.1144
920.40 0.1138
920.50 0.1133
920.60 0.1127
920.70 0.1122
920.80 0.1116
920.90 0.1111
921.00 0.1105
921.10 0.11
921.20 0.1094
921.30 0.1088
921.40 0.1083
921.50 0.1077
921.60 0.1072
921.70 0.1066
921.80 0.1061
921.90 0.1055
922.00 0.105
922.10 0.1054
922.20 0.1057
922.30 0.1061
922.40 0.1065
922.50 0.1069
922.60 0.1073
922.70 0.1076
922.80 0.108
922.90 0.1084
923.00 0.1088
923.10 0.1092
923.20 0.1096
923.30 0.1099
923.40 0.1103
923.50 0.1107
923.60 0.1111
923.70 0.1115
923.80 0.1118
923.90 0.1122
924.00 0.1126
924.10 0.113
924.20 0.1134
924.30 0.1137
924.40 0.1141
924.50 0.1145
924.60 0.1149
924.70 0.1153
924.80 0.1156
924.90 0.116
925.00 0.1164
925.10 0.1168
925.20 0.1171
925.30 0.1175
925.40 0.1179
925.50 0.1183
925.60 0.1187
925.70 0.119
925.80 0.1194
925.90 0.1198
926.00 0.1202
926.10 0.1205
926.20 0.1209
926.30 0.1213
926.40 0.1217
926.50 0.122
926.60 0.1224
926.70 0.1228
926.80 0.1232
926.90 0.1235
927.00 0.1239
927.10 0.1241
927.20 0.1243
927.30 0.1245
927.40 0.1247
927.50 0.1249
927.60 0.1251
927.70 0.1253
927.80 0.1255
927.90 0.1256
928.00 0.1258
928.10 0.126
928.20 0.1262
928.30 0.1264
928.40 0.1266
928.50 0.1268
928.60 0.127
928.70 0.1272
928.80 0.1274
928.90 0.1276
929.00 0.1278
929.10 0.1279
929.20 0.1281
929.30 0.1283
929.40 0.1285
929.50 0.1287
929.60 0.1289
929.70 0.1291
929.80 0.1293
929.90 0.1295
930.00 0.1297
930.10 0.1298
930.20 0.13
930.30 0.1302
930.40 0.1304
930.50 0.1306
930.60 0.1308
930.70 0.131
930.80 0.1312
930.90 0.1314
931.00 0.1315
931.10 0.1317
931.20 0.1319
931.30 0.1321
931.40 0.1323
931.50 0.1325
931.60 0.1327
931.70 0.1329
931.80 0.1331
931.90 0.1332
932.00 0.1334
932.10 0.1335
932.20 0.1335
932.30 0.1335
932.40 0.1336
932.50 0.1336
932.60 0.1337
932.70 0.1337
932.80 0.1337
932.90 0.1338
933.00 0.1338
933.10 0.1338
933.20 0.1339
933.30 0.1339
933.40 0.1339
933.50 0.134
933.60 0.134
933.70 0.1341
933.80 0.1341
933.90 0.1341
934.00 0.1342
934.10 0.1342
934.20 0.1342
934.30 0.1343
934.40 0.1343
934.50 0.1342
934.60 0.1342
934.70 0.1342
934.80 0.1342
934.90 0.1342
935.00 0.1342
935.10 0.1342
935.20 0.1342
935.30 0.1342
935.40 0.1341
935.50 0.1341
935.60 0.1341
935.70 0.1341
935.80 0.1341
935.90 0.1341
936.00 0.1341
936.10 0.1341
936.20 0.134
936.30 0.134
936.40 0.134
936.50 0.134
936.60 0.134
936.70 0.134
936.80 0.134
936.90 0.134
937.00 0.134
937.10 0.1339
937.20 0.1339
937.30 0.1338
937.40 0.1338
937.50 0.1338
937.60 0.1337
937.70 0.1337
937.80 0.1336
937.90 0.1336
938.00 0.1336
938.10 0.1335
938.20 0.1335
938.30 0.1335
938.40 0.1334
938.50 0.1333
938.60 0.1333
938.70 0.1332
938.80 0.1332
938.90 0.1331
939.00 0.133
939.10 0.133
939.20 0.1329
939.30 0.1329
939.40 0.1328
939.50 0.1328
939.60 0.1327
939.70 0.1326
939.80 0.1326
939.90 0.1325
940.00 0.1325
940.10 0.1324
940.20 0.1324
940.30 0.1323
940.40 0.1322
940.50 0.1321
940.60 0.1321
940.70 0.132
940.80 0.1319
940.90 0.1318
941.00 0.1317
941.10 0.1316
941.20 0.1316
941.30 0.1315
941.40 0.1314
941.50 0.1313
941.60 0.1312
941.70 0.1312
941.80 0.1311
941.90 0.131
942.00 0.1309
942.10 0.1308
942.20 0.1307
942.30 0.1306
942.40 0.1305
942.50 0.1304
942.60 0.1303
942.70 0.1301
942.80 0.13
942.90 0.1299
943.00 0.1298
943.10 0.1297
943.20 0.1295
943.30 0.1294
943.40 0.1293
943.50 0.1292
943.60 0.1291
943.70 0.129
943.80 0.1288
943.90 0.1287
944.00 0.1286
944.10 0.1285
944.20 0.1284
944.30 0.1282
944.40 0.1281
944.50 0.1279
944.60 0.1278
944.70 0.1276
944.80 0.1274
944.90 0.1273
945.00 0.1271
945.10 0.127
945.20 0.1268
945.30 0.1267
945.40 0.1264
945.50 0.1262
945.60 0.126
945.70 0.1258
945.80 0.1256
945.90 0.1254
946.00 0.1252
946.10 0.125
946.20 0.1248
946.30 0.1246
946.40 0.1244
946.50 0.1242
946.60 0.124
946.70 0.1238
946.80 0.1236
946.90 0.1234
947.00 0.1232
947.10 0.1229
947.20 0.1227
947.30 0.1224
947.40 0.1221
947.50 0.1218
947.60 0.1215
947.70 0.1212
947.80 0.1208
947.90 0.1205
948.00 0.1202
948.10 0.1199
948.20 0.1196
948.30 0.1193
948.40 0.119
948.50 0.1186
948.60 0.1183
948.70 0.118
948.80 0.1177
948.90 0.1174
949.00 0.1171
949.10 0.1168
949.20 0.1165
949.30 0.1161
949.40 0.1157
949.50 0.1152
949.60 0.1148
949.70 0.1143
949.80 0.1139
949.90 0.1134
950.00 0.1129
950.10 0.1125
950.20 0.112
950.30 0.1116
950.40 0.1111
950.50 0.1107
950.60 0.1102
950.70 0.1098
950.80 0.1093
950.90 0.1088
951.00 0.1084
951.10 0.1079
951.20 0.1075
951.30 0.107
951.40 0.1065
951.50 0.1059
951.60 0.1053
951.70 0.1048
951.80 0.1042
951.90 0.1036
952.00 0.1031
952.10 0.1024
952.20 0.1018
952.30 0.1012
952.40 0.1005
952.50 0.09992
952.60 0.09929
952.70 0.09866
952.80 0.09804
952.90 0.09735
953.00 0.09667
953.10 0.09599
953.20 0.09531
953.30 0.09463
953.40 0.09395
953.50 0.09327
953.60 0.09256
953.70 0.09185
953.80 0.09114
953.90 0.09043
954.00 0.08977
954.10 0.08911
954.20 0.08876
954.30 0.08983
954.40 0.0887
954.50 0.08901
954.60 0.08961
954.70 0.0902
954.80 0.09085
954.90 0.0915
955.00 0.09215
955.10 0.09279
955.20 0.0934
955.30 0.09402
955.40 0.09463
955.50 0.09524
955.60 0.09585
955.70 0.09646
955.80 0.09707
955.90 0.0976
956.00 0.09814
956.10 0.09867
956.20 0.0992
956.30 0.09974
956.40 0.1003
956.50 0.1008
956.60 0.1013
956.70 0.1019
956.80 0.1024
956.90 0.1029
957.00 0.1035
957.10 0.1039
957.20 0.1044
957.30 0.1049
957.40 0.1052
957.50 0.1056
957.60 0.1059
957.70 0.1063
957.80 0.1067
957.90 0.107
958.00 0.1074
958.10 0.1078
958.20 0.1081
958.30 0.1085
958.40 0.1089
958.50 0.1092
958.60 0.1096
958.70 0.11
958.80 0.1103
958.90 0.1107
959.00 0.111
959.10 0.1114
959.20 0.1118
959.30 0.1121
959.40 0.1124
959.50 0.1126
959.60 0.1128
959.70 0.113
959.80 0.1132
959.90 0.1134
960.00 0.1137
960.10 0.1139
960.20 0.1141
960.30 0.1143
960.40 0.1145
960.50 0.1148
960.60 0.115
960.70 0.1152
960.80 0.1154
960.90 0.1156
961.00 0.1158
961.10 0.1161
961.20 0.1163
961.30 0.1165
961.40 0.1166
961.50 0.1168
961.60 0.1169
961.70 0.1171
961.80 0.1172
961.90 0.1174
962.00 0.1175
962.10 0.1176
962.20 0.1177
962.30 0.1178
962.40 0.1179
962.50 0.118
962.60 0.1181
962.70 0.1182
962.80 0.1183
962.90 0.1184
963.00 0.1185
963.10 0.1186
963.20 0.1187
963.30 0.1188
963.40 0.1189
963.50 0.119
963.60 0.119
963.70 0.1191
963.80 0.1192
963.90 0.1192
964.00 0.1193
964.10 0.1194
964.20 0.1194
964.30 0.1195
964.40 0.1195
964.50 0.1196
964.60 0.1196
964.70 0.1196
964.80 0.1197
964.90 0.1197
965.00 0.1197
965.10 0.1197
965.20 0.1198
965.30 0.1198
965.40 0.1198
965.50 0.1199
965.60 0.1199
965.70 0.1199
965.80 0.12
965.90 0.12
966.00 0.12
966.10 0.1201
966.20 0.1201
966.30 0.1201
966.40 0.1201
966.50 0.1201
966.60 0.1201
966.70 0.1202
966.80 0.1202
966.90 0.1202
967.00 0.1202
967.10 0.1202
967.20 0.1202
967.30 0.1202
967.40 0.1202
967.50 0.1202
967.60 0.1202
967.70 0.1202
967.80 0.1202
967.90 0.1202
968.00 0.1202
968.10 0.1202
968.20 0.1202
968.30 0.1202
968.40 0.1201
968.50 0.1201
968.60 0.1201
968.70 0.1201
968.80 0.1201
968.90 0.1201
969.00 0.12
969.10 0.12
969.20 0.12
969.30 0.12
969.40 0.12
969.50 0.12
969.60 0.1199
969.70 0.1199
969.80 0.1199
969.90 0.1199
970.00 0.1199
970.10 0.1199
970.20 0.1199
970.30 0.1198
970.40 0.1198
970.50 0.1198
970.60 0.1198
970.70 0.1197
970.80 0.1197
970.90 0.1197
971.00 0.1196
971.10 0.1196
971.20 0.1196
971.30 0.1196
971.40 0.1195
971.50 0.1195
971.60 0.1195
971.70 0.1195
971.80 0.1194
971.90 0.1194
972.00 0.1194
972.10 0.1194
972.20 0.1193
972.30 0.1193
972.40 0.1193
972.50 0.1192
972.60 0.1192
972.70 0.1192
972.80 0.1191
972.90 0.1191
973.00 0.1191
973.10 0.119
973.20 0.119
973.30 0.119
973.40 0.1189
973.50 0.1189
973.60 0.1189
973.70 0.1188
973.80 0.1188
973.90 0.1188
974.00 0.1187
974.10 0.1187
974.20 0.1187
974.30 0.1186
974.40 0.1186
974.50 0.1186
974.60 0.1185
974.70 0.1185
974.80 0.1184
974.90 0.1184
975.00 0.1184
975.10 0.1183
975.20 0.1183
975.30 0.1183
975.40 0.1182
975.50 0.1182
975.60 0.1181
975.70 0.1181
975.80 0.1181
975.90 0.118
976.00 0.118
976.10 0.118
976.20 0.1179
976.30 0.1179
976.40 0.1178
976.50 0.1178
976.60 0.1178
976.70 0.1177
976.80 0.1177
976.90 0.1176
977.00 0.1176
977.10 0.1176
977.20 0.1175
977.30 0.1175
977.40 0.1174
977.50 0.1174
977.60 0.1173
977.70 0.1173
977.80 0.1173
977.90 0.1172
978.00 0.1172
978.10 0.1171
978.20 0.1171
978.30 0.117
978.40 0.117
978.50 0.117
978.60 0.1169
978.70 0.1169
978.80 0.1168
978.90 0.1168
979.00 0.1167
979.10 0.1167
979.20 0.1167
979.30 0.1166
979.40 0.1166
979.50 0.1165
979.60 0.1165
979.70 0.1164
979.80 0.1164
979.90 0.1164
980.00 0.1163
980.10 0.1163
980.20 0.1162
980.30 0.1162
980.40 0.1161
980.50 0.1161
980.60 0.1161
980.70 0.116
980.80 0.116
980.90 0.1159
981.00 0.1159
981.10 0.1158
981.20 0.1158
981.30 0.1158
981.40 0.1157
981.50 0.1157
981.60 0.1156
981.70 0.1156
981.80 0.1155
981.90 0.1155
982.00 0.1155
982.10 0.1154
982.20 0.1154
982.30 0.1153
982.40 0.1153
982.50 0.1152
982.60 0.1152
982.70 0.1151
982.80 0.1151
982.90 0.115
983.00 0.115
983.10 0.1149
983.20 0.1149
983.30 0.1148
983.40 0.1148
983.50 0.1147
983.60 0.1147
983.70 0.1146
983.80 0.1146
983.90 0.1145
984.00 0.1145
984.10 0.1144
984.20 0.1144
984.30 0.1143
984.40 0.1143
984.50 0.1143
984.60 0.1142
984.70 0.1142
984.80 0.1141
984.90 0.114
985.00 0.114
985.10 0.1139
985.20 0.1139
985.30 0.1138
985.40 0.1138
985.50 0.1137
985.60 0.1137
985.70 0.1136
985.80 0.1136
985.90 0.1135
986.00 0.1135
986.10 0.1134
986.20 0.1134
986.30 0.1133
986.40 0.1133
986.50 0.1132
986.60 0.1131
986.70 0.1131
986.80 0.113
986.90 0.113
987.00 0.1129
987.10 0.1129
987.20 0.1128
987.30 0.1128
987.40 0.1127
987.50 0.1126
987.60 0.1126
987.70 0.1125
987.80 0.1125
987.90 0.1124
988.00 0.1123
988.10 0.1123
988.20 0.1122
988.30 0.1122
988.40 0.1121
988.50 0.112
988.60 0.112
988.70 0.1119
988.80 0.1118
988.90 0.1118
989.00 0.1117
989.10 0.1116
989.20 0.1116
989.30 0.1115
989.40 0.1114
989.50 0.1114
989.60 0.1113
989.70 0.1112
989.80 0.1112
989.90 0.1111
990.00 0.111
990.10 0.1109
990.20 0.1109
990.30 0.1108
990.40 0.1107
990.50 0.1107
990.60 0.1106
990.70 0.1105
990.80 0.1104
990.90 0.1104
991.00 0.1103
991.10 0.1102
991.20 0.1101
991.30 0.11
991.40 0.11
991.50 0.1099
991.60 0.1098
991.70 0.1097
991.80 0.1097
991.90 0.1096
992.00 0.1095
992.10 0.1094
992.20 0.1093
992.30 0.1092
992.40 0.1091
992.50 0.109
992.60 0.1089
992.70 0.1088
992.80 0.1087
992.90 0.1086
993.00 0.1085
993.10 0.1084
993.20 0.1082
993.30 0.1081
993.40 0.108
993.50 0.1079
993.60 0.1078
993.70 0.1077
993.80 0.1076
993.90 0.1075
994.00 0.1074
994.10 0.1073
994.20 0.1071
994.30 0.107
994.40 0.1069
994.50 0.1068
994.60 0.1067
994.70 0.1066
994.80 0.1064
994.90 0.1063
995.00 0.1062
995.10 0.106
995.20 0.1059
995.30 0.1058
995.40 0.1056
995.50 0.1055
995.60 0.1054
995.70 0.1052
995.80 0.105
995.90 0.1048
996.00 0.1047
996.10 0.1045
996.20 0.1043
996.30 0.1041
996.40 0.104
996.50 0.1038
996.60 0.1036
996.70 0.1034
996.80 0.1033
996.90 0.1031
997.00 0.1029
997.10 0.1027
997.20 0.1025
997.30 0.1023
997.40 0.1021
997.50 0.1019
997.60 0.1017
997.70 0.1015
997.80 0.1012
997.90 0.1009
998.00 0.1007
998.10 0.1004
998.20 0.1002
998.30 0.0999
998.40 0.09964
998.50 0.09938
998.60 0.09912
998.70 0.09886
998.80 0.0986
998.90 0.09834
999.00 0.09808
999.10 0.09782
999.20 0.09756
999.30 0.0973
999.40 0.09704
999.50 0.09678
999.60 0.09652
999.70 0.09618
999.80 0.09581
999.90 0.09544
1000.00 0.09508
1000.10 0.09471
1000.20 0.09434
1000.30 0.09397
1000.40 0.0936
1000.50 0.09324
1000.60 0.09287
1000.70 0.0925
1000.80 0.09214
1000.90 0.09177
1001.00 0.0914
1001.10 0.09104
1001.20 0.09067
1001.30 0.0903
1001.40 0.08994
1001.50 0.08957
1001.60 0.0892
1001.70 0.08878
1001.80 0.08833
1001.90 0.08789
1002.00 0.08744
1002.10 0.08695
1002.20 0.08645
1002.30 0.08595
1002.40 0.08546
1002.50 0.08496
1002.60 0.08447
1002.70 0.08397
1002.80 0.08348
1002.90 0.08298
1003.00 0.08249
1003.10 0.08199
1003.20 0.08143
1003.30 0.08085
1003.40 0.08028
1003.50 0.0797
1003.60 0.07912
1003.70 0.07854
1003.80 0.07797
1003.90 0.07728
1004.00 0.07657
1004.10 0.07585
1004.20 0.07514
1004.30 0.07421
1004.40 0.07323
1004.50 0.07217
1004.60 0.07177
1004.70 0.07169
1004.80 0.07268
1004.90 0.07362
1005.00 0.07456
1005.10 0.07529
1005.20 0.07595
1005.30 0.07662
1005.40 0.07728
1005.50 0.07784
1005.60 0.07836
1005.70 0.07888
1005.80 0.0794
1005.90 0.07993
1006.00 0.08045
1006.10 0.08097
1006.20 0.08143
1006.30 0.08187
1006.40 0.08232
1006.50 0.08276
1006.60 0.0832
1006.70 0.08364
1006.80 0.08409
1006.90 0.08453
1007.00 0.08497
1007.10 0.08535
1007.20 0.08574
1007.30 0.08613
1007.40 0.08651
1007.50 0.0869
1007.60 0.08728
1007.70 0.0876
1007.80 0.08789
1007.90 0.08819
1008.00 0.08848
1008.10 0.08878
1008.20 0.08907
1008.30 0.08937
1008.40 0.08966
1008.50 0.08996
1008.60 0.09025
1008.70 0.09055
1008.80 0.09084
1008.90 0.09113
1009.00 0.09143
1009.10 0.09172
1009.20 0.09201
1009.30 0.09231
1009.40 0.0926
1009.50 0.0929
1009.60 0.09319
1009.70 0.0934
1009.80 0.09358
1009.90 0.09376
1010.00 0.09394
1010.10 0.09413
1010.20 0.09431
1010.30 0.09449
1010.40 0.09467
1010.50 0.09485
1010.60 0.09504
1010.70 0.09522
1010.80 0.0954
1010.90 0.09558
1011.00 0.09576
1011.10 0.09594
1011.20 0.09613
1011.30 0.09631
1011.40 0.09649
1011.50 0.09667
1011.60 0.09685
1011.70 0.09699
1011.80 0.09711
1011.90 0.09724
1012.00 0.09736
1012.10 0.09746
1012.20 0.09755
1012.30 0.09765
1012.40 0.09774
1012.50 0.09784
1012.60 0.09793
1012.70 0.09803
1012.80 0.09812
1012.90 0.09821
1013.00 0.09831
1013.10 0.0984
1013.20 0.0985
1013.30 0.09859
1013.40 0.09869
1013.50 0.09878
1013.60 0.09887
1013.70 0.09894
1013.80 0.099
1013.90 0.09906
1014.00 0.09912
1014.10 0.09919
1014.20 0.09925
1014.30 0.09931
1014.40 0.09937
1014.50 0.09943
1014.60 0.09949
1014.70 0.09953
1014.80 0.09956
1014.90 0.09959
1015.00 0.09962
1015.10 0.09965
1015.20 0.09968
1015.30 0.09971
1015.40 0.09974
1015.50 0.09977
1015.60 0.0998
1015.70 0.09983
1015.80 0.09987
1015.90 0.0999
1016.00 0.09993
1016.10 0.09996
1016.20 0.09999
1016.30 0.1
1016.40 0.1001
1016.50 0.1001
1016.60 0.1001
1016.70 0.1001
1016.80 0.1001
1016.90 0.1002
1017.00 0.1002
1017.10 0.1002
1017.20 0.1002
1017.30 0.1002
1017.40 0.1002
1017.50 0.1002
1017.60 0.1002
1017.70 0.1002
1017.80 0.1002
1017.90 0.1002
1018.00 0.1002
1018.10 0.1002
1018.20 0.1002
1018.30 0.1002
1018.40 0.1002
1018.50 0.1002
1018.60 0.1002
1018.70 0.1002
1018.80 0.1002
1018.90 0.1002
1019.00 0.1002
1019.10 0.1002
1019.20 0.1002
1019.30 0.1002
1019.40 0.1002
1019.50 0.1002
1019.60 0.1002
1019.70 0.1001
1019.80 0.1001
1019.90 0.1001
1020.00 0.1001
1020.10 0.1001
1020.20 0.1001
1020.30 0.1001
1020.40 0.1001
1020.50 0.1001
1020.60 0.1001
1020.70 0.1
1020.80 0.1
1020.90 0.1
1021.00 0.09999
1021.10 0.09997
1021.20 0.09995
1021.30 0.09994
1021.40 0.09992
1021.50 0.0999
1021.60 0.09988
1021.70 0.09986
1021.80 0.09985
1021.90 0.09983
1022.00 0.09981
1022.10 0.09979
1022.20 0.09976
1022.30 0.09974
1022.40 0.09972
1022.50 0.09969
1022.60 0.09967
1022.70 0.09965
1022.80 0.09963
1022.90 0.0996
1023.00 0.09958
1023.10 0.09956
1023.20 0.09953
1023.30 0.09951
1023.40 0.09949
1023.50 0.09947
1023.60 0.09944
1023.70 0.09942
1023.80 0.0994
1023.90 0.09937
1024.00 0.09935
1024.10 0.09933
1024.20 0.0993
1024.30 0.09928
1024.40 0.09926
1024.50 0.09924
1024.60 0.09921
1024.70 0.09919
1024.80 0.09916
1024.90 0.09913
1025.00 0.0991
1025.10 0.09908
1025.20 0.09905
1025.30 0.09902
1025.40 0.099
1025.50 0.09897
1025.60 0.09894
1025.70 0.09891
1025.80 0.09889
1025.90 0.09886
1026.00 0.09883
1026.10 0.0988
1026.20 0.09878
1026.30 0.09875
1026.40 0.09872
1026.50 0.09869
1026.60 0.09867
1026.70 0.09864
1026.80 0.09861
1026.90 0.09859
1027.00 0.09856
1027.10 0.09853
1027.20 0.0985
1027.30 0.09847
1027.40 0.09844
1027.50 0.09841
1027.60 0.09838
1027.70 0.09835
1027.80 0.09832
1027.90 0.09829
1028.00 0.09826
1028.10 0.09822
1028.20 0.09819
1028.30 0.09816
1028.40 0.09813
1028.50 0.0981
1028.60 0.09807
1028.70 0.09804
1028.80 0.09801
1028.90 0.09798
1029.00 0.09795
1029.10 0.09792
1029.20 0.09789
1029.30 0.09786
1029.40 0.09783
1029.50 0.0978
1029.60 0.09777
1029.70 0.09774
1029.80 0.09771
1029.90 0.09768
1030.00 0.09765
1030.10 0.09762
1030.20 0.09759
1030.30 0.09756
1030.40 0.09753
1030.50 0.0975
1030.60 0.09747
1030.70 0.09744
1030.80 0.09741
1030.90 0.09738
1031.00 0.09735
1031.10 0.09732
1031.20 0.09729
1031.30 0.09726
1031.40 0.09723
1031.50 0.0972
1031.60 0.09717
1031.70 0.09714
1031.80 0.09711
1031.90 0.09708
1032.00 0.09705
1032.10 0.09702
1032.20 0.09699
1032.30 0.09695
1032.40 0.09692
1032.50 0.09689
1032.60 0.09686
1032.70 0.09683
1032.80 0.0968
1032.90 0.09676
1033.00 0.09673
1033.10 0.0967
1033.20 0.09667
1033.30 0.09664
1033.40 0.0966
1033.50 0.09657
1033.60 0.09654
1033.70 0.09651
1033.80 0.09648
1033.90 0.09644
1034.00 0.09641
1034.10 0.09638
1034.20 0.09635
1034.30 0.09632
1034.40 0.09629
1034.50 0.09625
1034.60 0.09622
1034.70 0.09619
1034.80 0.09616
1034.90 0.09613
1035.00 0.0961
1035.10 0.09606
1035.20 0.09603
1035.30 0.096
1035.40 0.09597
1035.50 0.09594
1035.60 0.09591
1035.70 0.09587
1035.80 0.09584
1035.90 0.09581
1036.00 0.09578
1036.10 0.09575
1036.20 0.09572
1036.30 0.09569
1036.40 0.09565
1036.50 0.09562
1036.60 0.09559
1036.70 0.09556
1036.80 0.09553
1036.90 0.0955
1037.00 0.09546
1037.10 0.09543
1037.20 0.0954
1037.30 0.09537
1037.40 0.09534
1037.50 0.0953
1037.60 0.09527
1037.70 0.09524
1037.80 0.09521
1037.90 0.09517
1038.00 0.09514
1038.10 0.09511
1038.20 0.09508
1038.30 0.09505
1038.40 0.09501
1038.50 0.09498
1038.60 0.09495
1038.70 0.09492
1038.80 0.09489
1038.90 0.09485
1039.00 0.09482
1039.10 0.09479
1039.20 0.09476
1039.30 0.09473
1039.40 0.09469
1039.50 0.09466
1039.60 0.09463
1039.70 0.0946
1039.80 0.09457
1039.90 0.09453
1040.00 0.0945
1040.10 0.09447
1040.20 0.09444
1040.30 0.09441
1040.40 0.09437
1040.50 0.09434
1040.60 0.09431
1040.70 0.09428
1040.80 0.09425
1040.90 0.09421
1041.00 0.09418
1041.10 0.09415
1041.20 0.09412
1041.30 0.09409
1041.40 0.09406
1041.50 0.09402
1041.60 0.09399
1041.70 0.09396
1041.80 0.09393
1041.90 0.0939
1042.00 0.09386
1042.10 0.09383
1042.20 0.0938
1042.30 0.09377
1042.40 0.09374
1042.50 0.0937
1042.60 0.09367
1042.70 0.09364
1042.80 0.09361
1042.90 0.09357
1043.00 0.09354
1043.10 0.09351
1043.20 0.09348
1043.30 0.09345
1043.40 0.09341
1043.50 0.09338
1043.60 0.09335
1043.70 0.09332
1043.80 0.09329
1043.90 0.09325
1044.00 0.09322
1044.10 0.09319
1044.20 0.09316
1044.30 0.09312
1044.40 0.09309
1044.50 0.09306
1044.60 0.09303
1044.70 0.093
1044.80 0.09296
1044.90 0.09293
1045.00 0.0929
1045.10 0.09287
1045.20 0.09284
1045.30 0.09281
1045.40 0.09277
1045.50 0.09274
1045.60 0.09271
1045.70 0.09268
1045.80 0.09265
1045.90 0.09261
1046.00 0.09258
1046.10 0.09255
1046.20 0.09252
1046.30 0.09249
1046.40 0.09245
1046.50 0.09242
1046.60 0.09239
1046.70 0.09236
1046.80 0.09233
1046.90 0.0923
1047.00 0.09226
1047.10 0.09223
1047.20 0.0922
1047.30 0.09217
1047.40 0.09214
1047.50 0.0921
1047.60 0.09207
1047.70 0.09204
1047.80 0.09201
1047.90 0.09198
1048.00 0.09194
1048.10 0.09191
1048.20 0.09188
1048.30 0.09185
1048.40 0.09182
1048.50 0.09179
1048.60 0.09175
1048.70 0.09172
1048.80 0.09169
1048.90 0.09166
1049.00 0.09163
1049.10 0.09159
1049.20 0.09156
1049.30 0.09153
1049.40 0.0915
1049.50 0.09147
1049.60 0.09144
1049.70 0.0914
1049.80 0.09137
1049.90 0.09134
1050.00 0.09131
1050.10 0.09128
1050.20 0.09125
1050.30 0.09121
1050.40 0.09118
1050.50 0.09115
1050.60 0.09112
1050.70 0.09109
1050.80 0.09106
1050.90 0.09102
1051.00 0.09099
1051.10 0.09096
1051.20 0.09093
1051.30 0.0909
1051.40 0.09087
1051.50 0.09084
1051.60 0.0908
1051.70 0.09077
1051.80 0.09074
1051.90 0.09071
1052.00 0.09068
1052.10 0.09065
1052.20 0.09061
1052.30 0.09058
1052.40 0.09055
1052.50 0.09052
1052.60 0.09049
1052.70 0.09046
1052.80 0.09042
1052.90 0.09039
1053.00 0.09036
1053.10 0.09033
1053.20 0.0903
1053.30 0.09027
1053.40 0.09023
1053.50 0.0902
1053.60 0.09017
1053.70 0.09014
1053.80 0.09011
1053.90 0.09008
1054.00 0.09004
1054.10 0.09001
1054.20 0.08998
1054.30 0.08995
1054.40 0.08992
1054.50 0.08989
1054.60 0.08985
1054.70 0.08982
1054.80 0.08979
1054.90 0.08976
1055.00 0.08973
1055.10 0.0897
1055.20 0.08967
1055.30 0.08963
1055.40 0.0896
1055.50 0.08957
1055.60 0.08954
1055.70 0.08951
1055.80 0.08948
1055.90 0.08945
1056.00 0.08941
1056.10 0.08938
1056.20 0.08935
1056.30 0.08932
1056.40 0.08929
1056.50 0.08926
1056.60 0.08923
1056.70 0.08919
1056.80 0.08916
1056.90 0.08913
1057.00 0.0891
1057.10 0.08907
1057.20 0.08904
1057.30 0.08901
1057.40 0.08897
1057.50 0.08894
1057.60 0.08891
1057.70 0.08888
1057.80 0.08885
1057.90 0.08882
1058.00 0.08878
1058.10 0.08875
1058.20 0.08872
1058.30 0.08869
1058.40 0.08866
1058.50 0.08863
1058.60 0.08859
1058.70 0.08856
1058.80 0.08853
1058.90 0.0885
1059.00 0.08847
1059.10 0.08844
1059.20 0.08841
1059.30 0.08837
1059.40 0.08834
1059.50 0.08831
1059.60 0.08828
1059.70 0.08825
1059.80 0.08822
1059.90 0.08818
1060.00 0.08815
1060.10 0.08812
1060.20 0.08809
1060.30 0.08806
1060.40 0.08803
1060.50 0.088
1060.60 0.08797
1060.70 0.08793
1060.80 0.0879
1060.90 0.08787
1061.00 0.08784
1061.10 0.08781
1061.20 0.08778
1061.30 0.08775
1061.40 0.08771
1061.50 0.08768
1061.60 0.08765
1061.70 0.08762
1061.80 0.08759
1061.90 0.08756
1062.00 0.08753
1062.10 0.08749
1062.20 0.08746
1062.30 0.08743
1062.40 0.0874
1062.50 0.08737
1062.60 0.08733
1062.70 0.0873
1062.80 0.08727
1062.90 0.08724
1063.00 0.08721
1063.10 0.08717
1063.20 0.08714
1063.30 0.08711
1063.40 0.08708
1063.50 0.08705
1063.60 0.08701
1063.70 0.08698
1063.80 0.08695
1063.90 0.08692
1064.00 0.08689
1064.10 0.08685
1064.20 0.08682
1064.30 0.08679
1064.40 0.08676
1064.50 0.08673
1064.60 0.08669
1064.70 0.08666
1064.80 0.08663
1064.90 0.0866
1065.00 0.08657
1065.10 0.08654
1065.20 0.0865
1065.30 0.08647
1065.40 0.08644
1065.50 0.08641
1065.60 0.08638
1065.70 0.08634
1065.80 0.08631
1065.90 0.08628
1066.00 0.08625
1066.10 0.08622
1066.20 0.08619
1066.30 0.08615
1066.40 0.08612
1066.50 0.08609
1066.60 0.08606
1066.70 0.08603
1066.80 0.086
1066.90 0.08596
1067.00 0.08593
1067.10 0.0859
1067.20 0.08587
1067.30 0.08583
1067.40 0.0858
1067.50 0.08576
1067.60 0.08573
1067.70 0.0857
1067.80 0.08566
1067.90 0.08563
1068.00 0.0856
1068.10 0.08556
1068.20 0.08553
1068.30 0.0855
1068.40 0.08546
1068.50 0.08543
1068.60 0.08539
1068.70 0.08536
1068.80 0.08533
1068.90 0.08529
1069.00 0.08526
1069.10 0.08523
1069.20 0.08519
1069.30 0.08516
1069.40 0.08513
1069.50 0.08509
1069.60 0.08506
1069.70 0.08503
1069.80 0.08499
1069.90 0.08496
1070.00 0.08493
1070.10 0.08489
1070.20 0.08486
1070.30 0.08483
1070.40 0.08479
1070.50 0.08476
1070.60 0.08473
1070.70 0.08469
1070.80 0.08466
1070.90 0.08463
1071.00 0.08459
1071.10 0.08456
1071.20 0.08453
1071.30 0.08449
1071.40 0.08446
1071.50 0.08443
1071.60 0.08439
1071.70 0.08436
1071.80 0.08433
1071.90 0.08429
1072.00 0.08426
1072.10 0.08423
1072.20 0.08419
1072.30 0.08416
1072.40 0.08412
1072.50 0.08408
1072.60 0.08405
1072.70 0.08401
1072.80 0.08398
1072.90 0.08394
1073.00 0.08391
1073.10 0.08387
1073.20 0.08384
1073.30 0.0838
1073.40 0.08377
1073.50 0.08373
1073.60 0.08369
1073.70 0.08365
1073.80 0.08361
1073.90 0.08357
1074.00 0.08353
1074.10 0.0835
1074.20 0.08346
1074.30 0.08342
1074.40 0.08338
1074.50 0.08334
1074.60 0.0833
1074.70 0.08326
1074.80 0.08322
1074.90 0.08318
1075.00 0.08315
1075.10 0.08311
1075.20 0.08307
1075.30 0.08303
1075.40 0.08299
1075.50 0.08295
1075.60 0.08291
1075.70 0.08287
1075.80 0.08284
1075.90 0.0828
1076.00 0.08276
1076.10 0.08272
1076.20 0.08268
1076.30 0.08264
1076.40 0.0826
1076.50 0.08256
1076.60 0.08253
1076.70 0.08249
1076.80 0.08245
1076.90 0.08241
1077.00 0.08237
1077.10 0.08233
1077.20 0.08229
1077.30 0.08224
1077.40 0.0822
1077.50 0.08215
1077.60 0.08211
1077.70 0.08206
1077.80 0.08201
1077.90 0.08197
1078.00 0.08192
1078.10 0.08187
1078.20 0.08183
1078.30 0.08178
1078.40 0.08173
1078.50 0.08169
1078.60 0.08164
1078.70 0.08159
1078.80 0.08154
1078.90 0.0815
1079.00 0.08145
1079.10 0.0814
1079.20 0.08136
1079.30 0.08131
1079.40 0.08126
1079.50 0.08121
1079.60 0.08116
1079.70 0.0811
1079.80 0.08104
1079.90 0.08099
1080.00 0.08093
1080.10 0.08087
1080.20 0.08082
1080.30 0.08076
1080.40 0.0807
1080.50 0.08065
1080.60 0.08059
1080.70 0.08053
1080.80 0.08048
1080.90 0.08042
1081.00 0.08036
1081.10 0.08031
1081.20 0.08025
1081.30 0.08019
1081.40 0.08014
1081.50 0.08008
1081.60 0.08001
1081.70 0.07994
1081.80 0.07986
1081.90 0.07979
1082.00 0.07972
1082.10 0.07965
1082.20 0.07958
1082.30 0.0795
1082.40 0.07943
1082.50 0.07935
1082.60 0.07928
1082.70 0.07921
1082.80 0.07913
1082.90 0.07906
1083.00 0.07898
1083.10 0.07891
1083.20 0.07884
1083.30 0.07876
1083.40 0.07869
1083.50 0.07861
1083.60 0.07851
1083.70 0.07842
1083.80 0.07833
1083.90 0.07823
1084.00 0.07814
1084.10 0.07804
1084.20 0.07795
1084.30 0.07785
1084.40 0.07776
1084.50 0.07765
1084.60 0.07753
1084.70 0.07741
1084.80 0.07729
1084.90 0.07717
1085.00 0.07705
1085.10 0.07692
1085.20 0.0768
1085.30 0.07668
1085.40 0.07656
1085.50 0.07644
1085.60 0.07632
1085.70 0.0762
1085.80 0.07607
1085.90 0.07595
1086.00 0.07583
1086.10 0.07571
1086.20 0.07559
1086.30 0.07547
1086.40 0.07535
1086.50 0.07522
1086.60 0.07507
1086.70 0.07493
1086.80 0.07478
1086.90 0.07464
1087.00 0.07449
1087.10 0.07431
1087.20 0.07413
1087.30 0.07395
1087.40 0.07376
1087.50 0.07358
1087.60 0.0734
1087.70 0.07322
1087.80 0.07304
1087.90 0.07285
1088.00 0.07267
1088.10 0.07249
1088.20 0.07231
1088.30 0.07213
1088.40 0.07195
1088.50 0.07174
1088.60 0.07149
1088.70 0.07125
1088.80 0.071
1088.90 0.07075
1089.00 0.0705
1089.10 0.07025
1089.20 0.07001
1089.30 0.06976
1089.40 0.06951
1089.50 0.06926
1089.60 0.06901
1089.70 0.06877
1089.80 0.06852
1089.90 0.06827
1090.00 0.06802
1090.10 0.06778
1090.20 0.06753
1090.30 0.06728
1090.40 0.06704
1090.50 0.06676
1090.60 0.06643
1090.70 0.06609
1090.80 0.06576
1090.90 0.06543
1091.00 0.0651
1091.10 0.06476
1091.20 0.06443
1091.30 0.0641
1091.40 0.06377
1091.50 0.06343
1091.60 0.0631
1091.70 0.06277
1091.80 0.06244
1091.90 0.06211
1092.00 0.06176
1092.10 0.06135
1092.20 0.06093
1092.30 0.06051
1092.40 0.0601
1092.50 0.05968
1092.60 0.05927
1092.70 0.0588
1092.80 0.05823
1092.90 0.05767
1093.00 0.0571
1093.10 0.05639
1093.20 0.05539
1093.30 0.05433
1093.40 0.0528
1093.50 0.05245
1093.60 0.05376
1093.70 0.05495
1093.80 0.05592
1093.90 0.05674
1094.00 0.05728
1094.10 0.05781
1094.20 0.05834
1094.30 0.05883
1094.40 0.0592
1094.50 0.05957
1094.60 0.05995
1094.70 0.06032
1094.80 0.0607
1094.90 0.06107
1095.00 0.06142
1095.10 0.06171
1095.20 0.06199
1095.30 0.06228
1095.40 0.06257
1095.50 0.06286
1095.60 0.06315
1095.70 0.06343
1095.80 0.06372
1095.90 0.06401
1096.00 0.0643
1096.10 0.06458
1096.20 0.06487
1096.30 0.06516
1096.40 0.06545
1096.50 0.06571
1096.60 0.06595
1096.70 0.06618
1096.80 0.06641
1096.90 0.06664
1097.00 0.06687
1097.10 0.06705
1097.20 0.06724
1097.30 0.06742
1097.40 0.06761
1097.50 0.0678
1097.60 0.06798
1097.70 0.06817
1097.80 0.06835
1097.90 0.06854
1098.00 0.06872
1098.10 0.06891
1098.20 0.06909
1098.30 0.06928
1098.40 0.06946
1098.50 0.06963
1098.60 0.06975
1098.70 0.06987
1098.80 0.06998
1098.90 0.0701
1099.00 0.07022
1099.10 0.07034
1099.20 0.07046
1099.30 0.07058
1099.40 0.07069
1099.50 0.07081
1099.60 0.07093
1099.70 0.07105
1099.80 0.07117
1099.90 0.07129
1100.00 0.0714
1100.10 0.07152
1100.20 0.07164
1100.30 0.07176
1100.40 0.07187
1100.50 0.07198
1100.60 0.07205
1100.70 0.07212
1100.80 0.0722
1100.90 0.07227
1101.00 0.07234
1101.10 0.07242
1101.20 0.07249
1101.30 0.07256
1101.40 0.07263
1101.50 0.07271
1101.60 0.07278
1101.70 0.07285
1101.80 0.07293
1101.90 0.073
1102.00 0.07307
1102.10 0.07312
1102.20 0.07316
1102.30 0.07321
1102.40 0.07325
1102.50 0.07329
1102.60 0.07333
1102.70 0.07336
1102.80 0.0734
1102.90 0.07343
1103.00 0.07347
1103.10 0.0735
1103.20 0.07353
1103.30 0.07357
1103.40 0.0736
1103.50 0.07363
1103.60 0.07365
1103.70 0.07367
1103.80 0.07369
1103.90 0.07371
1104.00 0.07374
1104.10 0.07376
1104.20 0.07378
1104.30 0.0738
1104.40 0.07382
1104.50 0.07384
1104.60 0.07386
1104.70 0.07388
1104.80 0.0739
1104.90 0.07392
1105.00 0.07394
1105.10 0.07396
1105.20 0.07398
1105.30 0.074
1105.40 0.07402
1105.50 0.07403
1105.60 0.07403
1105.70 0.07404
1105.80 0.07404
1105.90 0.07404
1106.00 0.07404
1106.10 0.07405
1106.20 0.07405
1106.30 0.07405
1106.40 0.07406
1106.50 0.07406
1106.60 0.07406
1106.70 0.07406
1106.80 0.07407
1106.90 0.07407
1107.00 0.07407
1107.10 0.07407
1107.20 0.07407
1107.30 0.07407
1107.40 0.07407
1107.50 0.07407
1107.60 0.07406
1107.70 0.07405
1107.80 0.07405
1107.90 0.07404
1108.00 0.07403
1108.10 0.07402
1108.20 0.07402
1108.30 0.07401
1108.40 0.074
1108.50 0.07399
1108.60 0.07399
1108.70 0.07398
1108.80 0.07397
1108.90 0.07396
1109.00 0.07396
1109.10 0.07395
1109.20 0.07394
1109.30 0.07393
1109.40 0.07392
1109.50 0.07392
1109.60 0.0739
1109.70 0.07389
1109.80 0.07388
1109.90 0.07386
1110.00 0.07385
1110.10 0.07384
1110.20 0.07382
1110.30 0.07381
1110.40 0.0738
1110.50 0.07378
1110.60 0.07377
1110.70 0.07376
1110.80 0.07374
1110.90 0.07373
1111.00 0.07372
1111.10 0.0737
1111.20 0.07369
1111.30 0.07368
1111.40 0.07366
1111.50 0.07365
1111.60 0.07364
1111.70 0.07362
1111.80 0.07361
1111.90 0.0736
1112.00 0.07358
1112.10 0.07357
1112.20 0.07355
1112.30 0.07353
1112.40 0.07352
1112.50 0.0735
1112.60 0.07348
1112.70 0.07347
1112.80 0.07345
1112.90 0.07343
1113.00 0.07342
1113.10 0.0734
1113.20 0.07339
1113.30 0.07337
1113.40 0.07335
1113.50 0.07333
1113.60 0.07332
1113.70 0.0733
1113.80 0.07328
1113.90 0.07326
1114.00 0.07324
1114.10 0.07322
1114.20 0.0732
1114.30 0.07318
1114.40 0.07316
1114.50 0.07315
1114.60 0.07313
1114.70 0.07311
1114.80 0.07309
1114.90 0.07307
1115.00 0.07305
1115.10 0.07303
1115.20 0.07301
1115.30 0.07299
1115.40 0.07298
1115.50 0.07296
1115.60 0.07294
1115.70 0.07292
1115.80 0.0729
1115.90 0.07288
1116.00 0.07286
1116.10 0.07284
1116.20 0.07283
1116.30 0.07281
1116.40 0.07279
1116.50 0.07277
1116.60 0.07275
1116.70 0.07273
1116.80 0.07271
1116.90 0.07269
1117.00 0.07268
1117.10 0.07265
1117.20 0.07263
1117.30 0.07261
1117.40 0.07259
1117.50 0.07257
1117.60 0.07255
1117.70 0.07253
1117.80 0.07251
1117.90 0.07249
1118.00 0.07247
1118.10 0.07245
1118.20 0.07242
1118.30 0.0724
1118.40 0.07238
1118.50 0.07236
1118.60 0.07234
1118.70 0.07232
1118.80 0.0723
1118.90 0.07228
1119.00 0.07226
1119.10 0.07224
1119.20 0.07222
1119.30 0.0722
1119.40 0.07217
1119.50 0.07215
1119.60 0.07213
1119.70 0.07211
1119.80 0.07209
1119.90 0.07207
1120.00 0.07205
1120.10 0.07203
1120.20 0.07201
1120.30 0.07199
1120.40 0.07197
1120.50 0.07195
1120.60 0.07193
1120.70 0.0719
1120.80 0.07188
1120.90 0.07186
1121.00 0.07184
1121.10 0.07182
1121.20 0.0718
1121.30 0.07178
1121.40 0.07176
1121.50 0.07174
1121.60 0.07172
1121.70 0.0717
1121.80 0.07168
1121.90 0.07166
1122.00 0.07164
1122.10 0.07161
1122.20 0.07159
1122.30 0.07157
1122.40 0.07155
1122.50 0.07153
1122.60 0.0715
1122.70 0.07148
1122.80 0.07146
1122.90 0.07144
1123.00 0.07142
1123.10 0.0714
1123.20 0.07137
1123.30 0.07135
1123.40 0.07133
1123.50 0.07131
1123.60 0.07129
1123.70 0.07127
1123.80 0.07124
1123.90 0.07122
1124.00 0.0712
1124.10 0.07118
1124.20 0.07116
1124.30 0.07114
1124.40 0.07111
1124.50 0.07109
1124.60 0.07107
1124.70 0.07105
1124.80 0.07103
1124.90 0.07101
1125.00 0.07098
1125.10 0.07096
1125.20 0.07094
1125.30 0.07092
1125.40 0.0709
1125.50 0.07088
1125.60 0.07085
1125.70 0.07083
1125.80 0.07081
1125.90 0.07079
1126.00 0.07077
1126.10 0.07075
1126.20 0.07072
1126.30 0.0707
1126.40 0.07068
1126.50 0.07066
1126.60 0.07064
1126.70 0.07062
1126.80 0.0706
1126.90 0.07057
1127.00 0.07055
1127.10 0.07053
1127.20 0.07051
1127.30 0.07049
1127.40 0.07046
1127.50 0.07044
1127.60 0.07042
1127.70 0.0704
1127.80 0.07038
1127.90 0.07035
1128.00 0.07033
1128.10 0.07031
1128.20 0.07029
1128.30 0.07027
1128.40 0.07024
1128.50 0.07022
1128.60 0.0702
1128.70 0.07018
1128.80 0.07016
1128.90 0.07014
1129.00 0.07011
1129.10 0.07009
1129.20 0.07007
1129.30 0.07005
1129.40 0.07003
1129.50 0.07
1129.60 0.06998
1129.70 0.06996
1129.80 0.06994
1129.90 0.06992
1130.00 0.0699
1130.10 0.06987
1130.20 0.06985
1130.30 0.06983
1130.40 0.06981
1130.50 0.06979
1130.60 0.06976
1130.70 0.06974
1130.80 0.06972
1130.90 0.0697
1131.00 0.06968
1131.10 0.06966
1131.20 0.06963
1131.30 0.06961
1131.40 0.06959
1131.50 0.06957
1131.60 0.06955
1131.70 0.06953
1131.80 0.0695
1131.90 0.06948
1132.00 0.06946
1132.10 0.06944
1132.20 0.06942
1132.30 0.06939
1132.40 0.06937
1132.50 0.06935
1132.60 0.06933
1132.70 0.06931
1132.80 0.06929
1132.90 0.06926
1133.00 0.06924
1133.10 0.06922
1133.20 0.0692
1133.30 0.06918
1133.40 0.06915
1133.50 0.06913
1133.60 0.06911
1133.70 0.06909
1133.80 0.06907
1133.90 0.06905
1134.00 0.06902
1134.10 0.069
1134.20 0.06898
1134.30 0.06896
1134.40 0.06894
1134.50 0.06892
1134.60 0.06889
1134.70 0.06887
1134.80 0.06885
1134.90 0.06883
1135.00 0.06881
1135.10 0.06879
1135.20 0.06876
1135.30 0.06874
1135.40 0.06872
1135.50 0.0687
1135.60 0.06868
1135.70 0.06866
1135.80 0.06863
1135.90 0.06861
1136.00 0.06859
1136.10 0.06857
1136.20 0.06855
1136.30 0.06853
1136.40 0.0685
1136.50 0.06848
1136.60 0.06846
1136.70 0.06844
1136.80 0.06842
1136.90 0.0684
1137.00 0.06838
1137.10 0.06835
1137.20 0.06833
1137.30 0.06831
1137.40 0.06829
1137.50 0.06827
1137.60 0.06825
1137.70 0.06822
1137.80 0.0682
1137.90 0.06818
1138.00 0.06816
1138.10 0.06814
1138.20 0.06812
1138.30 0.06809
1138.40 0.06807
1138.50 0.06805
1138.60 0.06803
1138.70 0.06801
1138.80 0.06799
1138.90 0.06797
1139.00 0.06794
1139.10 0.06792
1139.20 0.0679
1139.30 0.06788
1139.40 0.06786
1139.50 0.06784
1139.60 0.06782
1139.70 0.06779
1139.80 0.06777
1139.90 0.06775
1140.00 0.06773
1140.10 0.06771
1140.20 0.06769
1140.30 0.06766
1140.40 0.06764
1140.50 0.06762
1140.60 0.0676
1140.70 0.06758
1140.80 0.06756
1140.90 0.06754
1141.00 0.06752
1141.10 0.06749
1141.20 0.06747
1141.30 0.06745
1141.40 0.06743
1141.50 0.06741
1141.60 0.06739
1141.70 0.06737
1141.80 0.06734
1141.90 0.06732
1142.00 0.0673
1142.10 0.06728
1142.20 0.06726
1142.30 0.06724
1142.40 0.06722
1142.50 0.0672
1142.60 0.06717
1142.70 0.06715
1142.80 0.06713
1142.90 0.06711
1143.00 0.06709
1143.10 0.06707
1143.20 0.06705
1143.30 0.06703
1143.40 0.067
1143.50 0.06698
1143.60 0.06696
1143.70 0.06694
1143.80 0.06692
1143.90 0.0669
1144.00 0.06688
1144.10 0.06686
1144.20 0.06683
1144.30 0.06681
1144.40 0.06679
1144.50 0.06677
1144.60 0.06675
1144.70 0.06673
1144.80 0.06671
1144.90 0.06669
1145.00 0.06667
1145.10 0.06664
1145.20 0.06662
1145.30 0.0666
1145.40 0.06658
1145.50 0.06656
1145.60 0.06654
1145.70 0.06652
1145.80 0.0665
1145.90 0.06648
1146.00 0.06646
1146.10 0.06643
1146.20 0.06641
1146.30 0.06639
1146.40 0.06637
1146.50 0.06635
1146.60 0.06633
1146.70 0.06631
1146.80 0.06629
1146.90 0.06627
1147.00 0.06624
1147.10 0.06622
1147.20 0.0662
1147.30 0.06618
1147.40 0.06616
1147.50 0.06614
1147.60 0.06612
1147.70 0.0661
1147.80 0.06608
1147.90 0.06606
1148.00 0.06604
1148.10 0.06602
1148.20 0.06599
1148.30 0.06597
1148.40 0.06595
1148.50 0.06593
1148.60 0.06591
1148.70 0.06589
1148.80 0.06587
1148.90 0.06585
1149.00 0.06583
1149.10 0.06581
1149.20 0.06579
1149.30 0.06576
1149.40 0.06574
1149.50 0.06572
1149.60 0.0657
1149.70 0.06568
1149.80 0.06566
1149.90 0.06564
1150.00 0.06562
1150.10 0.0656
1150.20 0.06558
1150.30 0.06556
1150.40 0.06554
1150.50 0.06552
1150.60 0.0655
1150.70 0.06547
1150.80 0.06545
1150.90 0.06543
1151.00 0.06541
1151.10 0.06539
1151.20 0.06537
1151.30 0.06535
1151.40 0.06533
1151.50 0.06531
1151.60 0.06529
1151.70 0.06527
1151.80 0.06525
1151.90 0.06523
1152.00 0.06521
1152.10 0.06519
1152.20 0.06516
1152.30 0.06514
1152.40 0.06512
1152.50 0.0651
1152.60 0.06508
1152.70 0.06506
1152.80 0.06504
1152.90 0.06502
1153.00 0.065
1153.10 0.06498
1153.20 0.06496
1153.30 0.06494
1153.40 0.06492
1153.50 0.0649
1153.60 0.06488
1153.70 0.06486
1153.80 0.06484
1153.90 0.06482
1154.00 0.0648
1154.10 0.06477
1154.20 0.06475
1154.30 0.06473
1154.40 0.06471
1154.50 0.06469
1154.60 0.06467
1154.70 0.06465
1154.80 0.06463
1154.90 0.06461
1155.00 0.06459
1155.10 0.06457
1155.20 0.06455
1155.30 0.06453
1155.40 0.06451
1155.50 0.06449
1155.60 0.06447
1155.70 0.06445
1155.80 0.06443
1155.90 0.06441
1156.00 0.06439
1156.10 0.06437
1156.20 0.06435
1156.30 0.06433
1156.40 0.06431
1156.50 0.06429
1156.60 0.06427
1156.70 0.06424
1156.80 0.06422
1156.90 0.0642
1157.00 0.06418
1157.10 0.06416
1157.20 0.06414
1157.30 0.06412
1157.40 0.0641
1157.50 0.06408
1157.60 0.06406
1157.70 0.06404
1157.80 0.06402
1157.90 0.064
1158.00 0.06398
1158.10 0.06396
1158.20 0.06394
1158.30 0.06392
1158.40 0.0639
1158.50 0.06388
1158.60 0.06386
1158.70 0.06384
1158.80 0.06382
1158.90 0.0638
1159.00 0.06378
1159.10 0.06376
1159.20 0.06374
1159.30 0.06372
1159.40 0.0637
1159.50 0.06368
1159.60 0.06366
1159.70 0.06364
1159.80 0.06362
1159.90 0.0636
1160.00 0.06358
1160.10 0.06356
1160.20 0.06354
1160.30 0.06352
1160.40 0.0635
1160.50 0.06348
1160.60 0.06346
1160.70 0.06344
1160.80 0.06342
1160.90 0.0634
1161.00 0.06338
1161.10 0.06336
1161.20 0.06334
1161.30 0.06332
1161.40 0.0633
1161.50 0.06328
1161.60 0.06326
1161.70 0.06324
1161.80 0.06322
1161.90 0.0632
1162.00 0.06318
1162.10 0.06316
1162.20 0.06314
1162.30 0.06312
1162.40 0.0631
1162.50 0.06308
1162.60 0.06306
1162.70 0.06304
1162.80 0.06302
1162.90 0.063
1163.00 0.06298
1163.10 0.06296
1163.20 0.06294
1163.30 0.06292
1163.40 0.0629
1163.50 0.06288
1163.60 0.06286
1163.70 0.06284
1163.80 0.06283
1163.90 0.06281
1164.00 0.06279
1164.10 0.06277
1164.20 0.06275
1164.30 0.06273
1164.40 0.06271
1164.50 0.06269
1164.60 0.06267
1164.70 0.06265
1164.80 0.06263
1164.90 0.06261
1165.00 0.06259
1165.10 0.06257
1165.20 0.06255
1165.30 0.06253
1165.40 0.06251
1165.50 0.06249
1165.60 0.06247
1165.70 0.06245
1165.80 0.06243
1165.90 0.06241
1166.00 0.06239
1166.10 0.06237
1166.20 0.06235
1166.30 0.06233
1166.40 0.06231
1166.50 0.06229
1166.60 0.06228
1166.70 0.06226
1166.80 0.06224
1166.90 0.06222
1167.00 0.0622
1167.10 0.06218
1167.20 0.06216
1167.30 0.06214
1167.40 0.06212
1167.50 0.0621
1167.60 0.06208
1167.70 0.06206
1167.80 0.06204
1167.90 0.06202
1168.00 0.062
1168.10 0.06198
1168.20 0.06196
1168.30 0.06194
1168.40 0.06192
1168.50 0.06191
1168.60 0.06189
1168.70 0.06187
1168.80 0.06185
1168.90 0.06183
1169.00 0.06181
1169.10 0.06179
1169.20 0.06177
1169.30 0.06175
1169.40 0.06173
1169.50 0.06171
1169.60 0.06169
1169.70 0.06167
1169.80 0.06165
1169.90 0.06163
1170.00 0.06162
1170.10 0.0616
1170.20 0.06158
1170.30 0.06156
1170.40 0.06154
1170.50 0.06152
1170.60 0.0615
1170.70 0.06148
1170.80 0.06146
1170.90 0.06144
1171.00 0.06142
1171.10 0.0614
1171.20 0.06138
1171.30 0.06137
1171.40 0.06135
1171.50 0.06133
1171.60 0.06131
1171.70 0.06129
1171.80 0.06127
1171.90 0.06125
1172.00 0.06123
1172.10 0.06121
1172.20 0.06119
1172.30 0.06117
1172.40 0.06115
1172.50 0.06114
1172.60 0.06112
1172.70 0.0611
1172.80 0.06108
1172.90 0.06106
1173.00 0.06104
1173.10 0.06102
1173.20 0.061
1173.30 0.06098
1173.40 0.06096
1173.50 0.06094
1173.60 0.06093
1173.70 0.06091
1173.80 0.06089
1173.90 0.06087
1174.00 0.06085
1174.10 0.06083
1174.20 0.06081
1174.30 0.06079
1174.40 0.06077
1174.50 0.06076
1174.60 0.06074
1174.70 0.06072
1174.80 0.0607
1174.90 0.06068
1175.00 0.06066
1175.10 0.06064
1175.20 0.06062
1175.30 0.0606
1175.40 0.06058
1175.50 0.06057
1175.60 0.06055
1175.70 0.06053
1175.80 0.06051
1175.90 0.06049
1176.00 0.06047
1176.10 0.06045
1176.20 0.06043
1176.30 0.06041
1176.40 0.0604
1176.50 0.06038
1176.60 0.06036
1176.70 0.06034
1176.80 0.06032
1176.90 0.0603
1177.00 0.06028
1177.10 0.06026
1177.20 0.06025
1177.30 0.06023
1177.40 0.06021
1177.50 0.06019
1177.60 0.06017
1177.70 0.06015
1177.80 0.06013
1177.90 0.06011
1178.00 0.0601
1178.10 0.06008
1178.20 0.06006
1178.30 0.06004
1178.40 0.06002
1178.50 0.06
1178.60 0.05998
1178.70 0.05996
1178.80 0.05995
1178.90 0.05993
1179.00 0.05991
1179.10 0.05989
1179.20 0.05987
1179.30 0.05985
1179.40 0.05983
1179.50 0.05982
1179.60 0.0598
1179.70 0.05978
1179.80 0.05976
1179.90 0.05974
1180.00 0.05972
1180.10 0.0597
1180.20 0.05969
1180.30 0.05967
1180.40 0.05965
1180.50 0.05963
1180.60 0.05961
1180.70 0.05959
1180.80 0.05957
1180.90 0.05956
1181.00 0.05954
1181.10 0.05952
1181.20 0.0595
1181.30 0.05948
1181.40 0.05946
1181.50 0.05944
1181.60 0.05943
1181.70 0.05941
1181.80 0.05939
1181.90 0.05937
1182.00 0.05935
1182.10 0.05933
1182.20 0.05932
1182.30 0.0593
1182.40 0.05928
1182.50 0.05926
1182.60 0.05924
1182.70 0.05922
1182.80 0.05921
1182.90 0.05919
1183.00 0.05917
1183.10 0.05915
1183.20 0.05913
1183.30 0.05911
1183.40 0.0591
1183.50 0.05908
1183.60 0.05906
1183.70 0.05904
1183.80 0.05902
1183.90 0.059
1184.00 0.05899
1184.10 0.05897
1184.20 0.05895
1184.30 0.05893
1184.40 0.05891
1184.50 0.05889
1184.60 0.05888
1184.70 0.05886
1184.80 0.05884
1184.90 0.05882
1185.00 0.0588
1185.10 0.05878
1185.20 0.05877
1185.30 0.05875
1185.40 0.05873
1185.50 0.05871
1185.60 0.05869
1185.70 0.05868
1185.80 0.05866
1185.90 0.05864
1186.00 0.05862
1186.10 0.0586
1186.20 0.05858
1186.30 0.05857
1186.40 0.05855
1186.50 0.05853
1186.60 0.05851
1186.70 0.05849
1186.80 0.05848
1186.90 0.05846
1187.00 0.05844
1187.10 0.05842
1187.20 0.0584
1187.30 0.05838
1187.40 0.05837
1187.50 0.05835
1187.60 0.05833
1187.70 0.05831
1187.80 0.05829
1187.90 0.05828
1188.00 0.05826
1188.10 0.05824
1188.20 0.05822
1188.30 0.0582
1188.40 0.05819
1188.50 0.05817
1188.60 0.05815
1188.70 0.05813
1188.80 0.05811
1188.90 0.0581
1189.00 0.05808
1189.10 0.05806
1189.20 0.05804
1189.30 0.05802
1189.40 0.05801
1189.50 0.05799
1189.60 0.05797
1189.70 0.05795
1189.80 0.05794
1189.90 0.05792
1190.00 0.0579
1190.10 0.05788
1190.20 0.05786
1190.30 0.05785
1190.40 0.05783
1190.50 0.05781
1190.60 0.05779
1190.70 0.05777
1190.80 0.05776
1190.90 0.05774
1191.00 0.05772
1191.10 0.0577
1191.20 0.05769
1191.30 0.05767
1191.40 0.05765
1191.50 0.05763
1191.60 0.05761
1191.70 0.0576
1191.80 0.05758
1191.90 0.05756
1192.00 0.05754
1192.10 0.05752
1192.20 0.05751
1192.30 0.05749
1192.40 0.05747
1192.50 0.05745
1192.60 0.05744
1192.70 0.05742
1192.80 0.0574
1192.90 0.05738
1193.00 0.05737
1193.10 0.05735
1193.20 0.05733
1193.30 0.05731
1193.40 0.05729
1193.50 0.05728
1193.60 0.05726
1193.70 0.05724
1193.80 0.05722
1193.90 0.05721
1194.00 0.05719
1194.10 0.05717
1194.20 0.05715
1194.30 0.05714
1194.40 0.05712
1194.50 0.0571
1194.60 0.05708
1194.70 0.05707
1194.80 0.05705
1194.90 0.05703
1195.00 0.05701
1195.10 0.057
1195.20 0.05698
1195.30 0.05696
1195.40 0.05694
1195.50 0.05693
1195.60 0.05691
1195.70 0.05689
1195.80 0.05687
1195.90 0.05686
1196.00 0.05684
1196.10 0.05682
1196.20 0.0568
1196.30 0.05678
1196.40 0.05677
1196.50 0.05675
1196.60 0.05673
1196.70 0.05672
1196.80 0.0567
1196.90 0.05668
1197.00 0.05666
1197.10 0.05665
1197.20 0.05663
1197.30 0.05661
1197.40 0.05659
1197.50 0.05658
1197.60 0.05656
1197.70 0.05654
1197.80 0.05652
1197.90 0.05651
1198.00 0.05649
1198.10 0.05647
1198.20 0.05645
1198.30 0.05644
1198.40 0.05642
1198.50 0.0564
1198.60 0.05638
1198.70 0.05637
1198.80 0.05635
1198.90 0.05633
1199.00 0.05631
1199.10 0.0563
1199.20 0.05628
1199.30 0.05626
1199.40 0.05625
1199.50 0.05623
1199.60 0.05621
1199.70 0.05619
1199.80 0.05618
1199.90 0.05616
1200.00 0
