# Version 2.1 - nm, norm@500 to 1, cut digits, bergeron_1750_80.dat_1750
# Wavelength(nm)  Flambda(ergs/cm^s/s/nm)
300.00 0.02619
300.10 0.0263
300.20 0.0264
300.30 0.02651
300.40 0.02661
300.50 0.02672
300.60 0.02682
300.70 0.02693
300.80 0.02703
300.90 0.02714
301.00 0.02725
301.10 0.02735
301.20 0.02746
301.30 0.02756
301.40 0.02766
301.50 0.02777
301.60 0.02787
301.70 0.02798
301.80 0.02808
301.90 0.02819
302.00 0.02829
302.10 0.0284
302.20 0.02851
302.30 0.02863
302.40 0.02874
302.50 0.02885
302.60 0.02896
302.70 0.02907
302.80 0.02918
302.90 0.02929
303.00 0.0294
303.10 0.02951
303.20 0.02962
303.30 0.02973
303.40 0.02984
303.50 0.02995
303.60 0.03006
303.70 0.03017
303.80 0.03028
303.90 0.03039
304.00 0.03051
304.10 0.03062
304.20 0.03074
304.30 0.03086
304.40 0.03097
304.50 0.03109
304.60 0.03121
304.70 0.03132
304.80 0.03144
304.90 0.03156
305.00 0.03167
305.10 0.03179
305.20 0.03191
305.30 0.03202
305.40 0.03214
305.50 0.03226
305.60 0.03237
305.70 0.03249
305.80 0.0326
305.90 0.03272
306.00 0.03284
306.10 0.03296
306.20 0.03308
306.30 0.0332
306.40 0.03333
306.50 0.03345
306.60 0.03357
306.70 0.0337
306.80 0.03382
306.90 0.03394
307.00 0.03406
307.10 0.03419
307.20 0.03431
307.30 0.03443
307.40 0.03455
307.50 0.03467
307.60 0.03479
307.70 0.03492
307.80 0.03504
307.90 0.03516
308.00 0.03528
308.10 0.03541
308.20 0.03554
308.30 0.03567
308.40 0.0358
308.50 0.03593
308.60 0.03606
308.70 0.03619
308.80 0.03632
308.90 0.03645
309.00 0.03657
309.10 0.0367
309.20 0.03683
309.30 0.03696
309.40 0.03709
309.50 0.03722
309.60 0.03734
309.70 0.03747
309.80 0.0376
309.90 0.03773
310.00 0.03786
310.10 0.03799
310.20 0.03813
310.30 0.03826
310.40 0.0384
310.50 0.03854
310.60 0.03867
310.70 0.03881
310.80 0.03895
310.90 0.03908
311.00 0.03922
311.10 0.03935
311.20 0.03949
311.30 0.03962
311.40 0.03976
311.50 0.03989
311.60 0.04003
311.70 0.04016
311.80 0.0403
311.90 0.04043
312.00 0.04056
312.10 0.0407
312.20 0.04084
312.30 0.04098
312.40 0.04112
312.50 0.04126
312.60 0.0414
312.70 0.04155
312.80 0.04169
312.90 0.04183
313.00 0.04198
313.10 0.04212
313.20 0.04226
313.30 0.0424
313.40 0.04254
313.50 0.04269
313.60 0.04283
313.70 0.04297
313.80 0.04311
313.90 0.04325
314.00 0.0434
314.10 0.04354
314.20 0.04369
314.30 0.04384
314.40 0.04399
314.50 0.04414
314.60 0.04429
314.70 0.04444
314.80 0.04459
314.90 0.04474
315.00 0.04489
315.10 0.04504
315.20 0.04518
315.30 0.04533
315.40 0.04548
315.50 0.04563
315.60 0.04577
315.70 0.04592
315.80 0.04607
315.90 0.04622
316.00 0.04637
316.10 0.04652
316.20 0.04668
316.30 0.04684
316.40 0.04699
316.50 0.04715
316.60 0.04731
316.70 0.04746
316.80 0.04762
316.90 0.04778
317.00 0.04793
317.10 0.04809
317.20 0.04824
317.30 0.0484
317.40 0.04855
317.50 0.04871
317.60 0.04886
317.70 0.04902
317.80 0.04917
317.90 0.04933
318.00 0.04949
318.10 0.04964
318.20 0.04981
318.30 0.04997
318.40 0.05014
318.50 0.0503
318.60 0.05046
318.70 0.05063
318.80 0.05079
318.90 0.05096
319.00 0.05112
319.10 0.05128
319.20 0.05144
319.30 0.05161
319.40 0.05177
319.50 0.05193
319.60 0.05209
319.70 0.05225
319.80 0.05241
319.90 0.05258
320.00 0.05275
320.10 0.05291
320.20 0.05308
320.30 0.05325
320.40 0.05343
320.50 0.0536
320.60 0.05377
320.70 0.05394
320.80 0.05411
320.90 0.05428
321.00 0.05445
321.10 0.05462
321.20 0.05479
321.30 0.05496
321.40 0.05513
321.50 0.0553
321.60 0.05547
321.70 0.05564
321.80 0.05581
321.90 0.05598
322.00 0.05615
322.10 0.05633
322.20 0.0565
322.30 0.05668
322.40 0.05686
322.50 0.05704
322.60 0.05722
322.70 0.0574
322.80 0.05758
322.90 0.05776
323.00 0.05793
323.10 0.05811
323.20 0.05829
323.30 0.05847
323.40 0.05864
323.50 0.05882
323.60 0.059
323.70 0.05918
323.80 0.05935
323.90 0.05953
324.00 0.05971
324.10 0.05989
324.20 0.06008
324.30 0.06027
324.40 0.06045
324.50 0.06064
324.60 0.06083
324.70 0.06101
324.80 0.0612
324.90 0.06139
325.00 0.06157
325.10 0.06176
325.20 0.06194
325.30 0.06213
325.40 0.06231
325.50 0.0625
325.60 0.06268
325.70 0.06287
325.80 0.06305
325.90 0.06324
326.00 0.06342
326.10 0.06361
326.20 0.06381
326.30 0.064
326.40 0.0642
326.50 0.06439
326.60 0.06459
326.70 0.06478
326.80 0.06498
326.90 0.06517
327.00 0.06536
327.10 0.06556
327.20 0.06575
327.30 0.06594
327.40 0.06614
327.50 0.06633
327.60 0.06652
327.70 0.06671
327.80 0.06691
327.90 0.0671
328.00 0.0673
328.10 0.0675
328.20 0.0677
328.30 0.0679
328.40 0.0681
328.50 0.06831
328.60 0.06851
328.70 0.06871
328.80 0.06891
328.90 0.06912
329.00 0.06932
329.10 0.06952
329.20 0.06972
329.30 0.06992
329.40 0.07012
329.50 0.07032
329.60 0.07052
329.70 0.07072
329.80 0.07092
329.90 0.07112
330.00 0.07132
330.10 0.07153
330.20 0.07175
330.30 0.07196
330.40 0.07217
330.50 0.07238
330.60 0.07259
330.70 0.0728
330.80 0.07301
330.90 0.07322
331.00 0.07343
331.10 0.07364
331.20 0.07385
331.30 0.07406
331.40 0.07427
331.50 0.07448
331.60 0.07469
331.70 0.07489
331.80 0.0751
331.90 0.07531
332.00 0.07552
332.10 0.07574
332.20 0.07596
332.30 0.07618
332.40 0.0764
332.50 0.07662
332.60 0.07684
332.70 0.07706
332.80 0.07728
332.90 0.07749
333.00 0.07771
333.10 0.07793
333.20 0.07815
333.30 0.07837
333.40 0.07858
333.50 0.0788
333.60 0.07902
333.70 0.07923
333.80 0.07945
333.90 0.07967
334.00 0.07988
334.10 0.08011
334.20 0.08034
334.30 0.08057
334.40 0.0808
334.50 0.08103
334.60 0.08125
334.70 0.08148
334.80 0.08171
334.90 0.08194
335.00 0.08216
335.10 0.08239
335.20 0.08261
335.30 0.08284
335.40 0.08307
335.50 0.08329
335.60 0.08352
335.70 0.08374
335.80 0.08397
335.90 0.08419
336.00 0.08441
336.10 0.08465
336.20 0.08489
336.30 0.08513
336.40 0.08536
336.50 0.0856
336.60 0.08584
336.70 0.08607
336.80 0.08631
336.90 0.08655
337.00 0.08678
337.10 0.08702
337.20 0.08725
337.30 0.08749
337.40 0.08772
337.50 0.08795
337.60 0.08819
337.70 0.08842
337.80 0.08865
337.90 0.08889
338.00 0.08912
338.10 0.08937
338.20 0.08961
338.30 0.08986
338.40 0.0901
338.50 0.09035
338.60 0.09059
338.70 0.09084
338.80 0.09108
338.90 0.09133
339.00 0.09157
339.10 0.09182
339.20 0.09206
339.30 0.0923
339.40 0.09255
339.50 0.09279
339.60 0.09303
339.70 0.09327
339.80 0.09351
339.90 0.09375
340.00 0.094
340.10 0.09425
340.20 0.09451
340.30 0.09476
340.40 0.09502
340.50 0.09527
340.60 0.09553
340.70 0.09578
340.80 0.09603
340.90 0.09629
341.00 0.09654
341.10 0.09679
341.20 0.09704
341.30 0.0973
341.40 0.09755
341.50 0.0978
341.60 0.09805
341.70 0.0983
341.80 0.09855
341.90 0.0988
342.00 0.09905
342.10 0.09932
342.20 0.09958
342.30 0.09984
342.40 0.1001
342.50 0.1004
342.60 0.1006
342.70 0.1009
342.80 0.1012
342.90 0.1014
343.00 0.1017
343.10 0.1019
343.20 0.1022
343.30 0.1025
343.40 0.1027
343.50 0.103
343.60 0.1032
343.70 0.1035
343.80 0.1038
343.90 0.104
344.00 0.1043
344.10 0.1046
344.20 0.1048
344.30 0.1051
344.40 0.1054
344.50 0.1056
344.60 0.1059
344.70 0.1062
344.80 0.1065
344.90 0.1067
345.00 0.107
345.10 0.1073
345.20 0.1075
345.30 0.1078
345.40 0.1081
345.50 0.1084
345.60 0.1086
345.70 0.1089
345.80 0.1092
345.90 0.1094
346.00 0.1097
346.10 0.11
346.20 0.1103
346.30 0.1105
346.40 0.1108
346.50 0.1111
346.60 0.1114
346.70 0.1117
346.80 0.1119
346.90 0.1122
347.00 0.1125
347.10 0.1128
347.20 0.1131
347.30 0.1133
347.40 0.1136
347.50 0.1139
347.60 0.1142
347.70 0.1145
347.80 0.1147
347.90 0.115
348.00 0.1153
348.10 0.1156
348.20 0.1159
348.30 0.1162
348.40 0.1165
348.50 0.1167
348.60 0.117
348.70 0.1173
348.80 0.1176
348.90 0.1179
349.00 0.1182
349.10 0.1185
349.20 0.1188
349.30 0.1191
349.40 0.1193
349.50 0.1196
349.60 0.1199
349.70 0.1202
349.80 0.1205
349.90 0.1208
350.00 0.1211
350.10 0.1214
350.20 0.1217
350.30 0.122
350.40 0.1223
350.50 0.1226
350.60 0.1229
350.70 0.1232
350.80 0.1235
350.90 0.1238
351.00 0.1241
351.10 0.1244
351.20 0.1247
351.30 0.125
351.40 0.1252
351.50 0.1255
351.60 0.1258
351.70 0.1261
351.80 0.1264
351.90 0.1267
352.00 0.127
352.10 0.1273
352.20 0.1276
352.30 0.128
352.40 0.1283
352.50 0.1286
352.60 0.1289
352.70 0.1292
352.80 0.1295
352.90 0.1298
353.00 0.1301
353.10 0.1304
353.20 0.1307
353.30 0.131
353.40 0.1313
353.50 0.1316
353.60 0.132
353.70 0.1323
353.80 0.1326
353.90 0.1329
354.00 0.1332
354.10 0.1335
354.20 0.1338
354.30 0.1341
354.40 0.1344
354.50 0.1348
354.60 0.1351
354.70 0.1354
354.80 0.1357
354.90 0.136
355.00 0.1364
355.10 0.1367
355.20 0.137
355.30 0.1373
355.40 0.1376
355.50 0.1379
355.60 0.1382
355.70 0.1386
355.80 0.1389
355.90 0.1392
356.00 0.1395
356.10 0.1398
356.20 0.1402
356.30 0.1405
356.40 0.1408
356.50 0.1411
356.60 0.1415
356.70 0.1418
356.80 0.1421
356.90 0.1425
357.00 0.1428
357.10 0.1431
357.20 0.1434
357.30 0.1438
357.40 0.1441
357.50 0.1444
357.60 0.1447
357.70 0.145
357.80 0.1454
357.90 0.1457
358.00 0.146
358.10 0.1464
358.20 0.1467
358.30 0.147
358.40 0.1474
358.50 0.1477
358.60 0.148
358.70 0.1484
358.80 0.1487
358.90 0.1491
359.00 0.1494
359.10 0.1497
359.20 0.1501
359.30 0.1504
359.40 0.1507
359.50 0.1511
359.60 0.1514
359.70 0.1517
359.80 0.1521
359.90 0.1524
360.00 0.1527
360.10 0.1531
360.20 0.1534
360.30 0.1538
360.40 0.1541
360.50 0.1545
360.60 0.1548
360.70 0.1552
360.80 0.1555
360.90 0.1558
361.00 0.1562
361.10 0.1565
361.20 0.1569
361.30 0.1572
361.40 0.1576
361.50 0.1579
361.60 0.1583
361.70 0.1586
361.80 0.1589
361.90 0.1593
362.00 0.1596
362.10 0.16
362.20 0.1603
362.30 0.1607
362.40 0.161
362.50 0.1614
362.60 0.1617
362.70 0.1621
362.80 0.1624
362.90 0.1628
363.00 0.1631
363.10 0.1635
363.20 0.1639
363.30 0.1642
363.40 0.1646
363.50 0.1649
363.60 0.1653
363.70 0.1657
363.80 0.166
363.90 0.1664
364.00 0.1667
364.10 0.1671
364.20 0.1674
364.30 0.1678
364.40 0.1681
364.50 0.1685
364.60 0.1689
364.70 0.1692
364.80 0.1696
364.90 0.17
365.00 0.1703
365.10 0.1707
365.20 0.1711
365.30 0.1714
365.40 0.1718
365.50 0.1722
365.60 0.1725
365.70 0.1729
365.80 0.1733
365.90 0.1736
366.00 0.174
366.10 0.1744
366.20 0.1747
366.30 0.1751
366.40 0.1755
366.50 0.1759
366.60 0.1762
366.70 0.1766
366.80 0.177
366.90 0.1774
367.00 0.1777
367.10 0.1781
367.20 0.1785
367.30 0.1788
367.40 0.1792
367.50 0.1796
367.60 0.18
367.70 0.1803
367.80 0.1807
367.90 0.1811
368.00 0.1814
368.10 0.1818
368.20 0.1822
368.30 0.1826
368.40 0.183
368.50 0.1834
368.60 0.1838
368.70 0.1841
368.80 0.1845
368.90 0.1849
369.00 0.1853
369.10 0.1857
369.20 0.1861
369.30 0.1864
369.40 0.1868
369.50 0.1872
369.60 0.1876
369.70 0.188
369.80 0.1883
369.90 0.1887
370.00 0.1891
370.10 0.1895
370.20 0.1899
370.30 0.1903
370.40 0.1907
370.50 0.1911
370.60 0.1915
370.70 0.1919
370.80 0.1923
370.90 0.1926
371.00 0.193
371.10 0.1934
371.20 0.1938
371.30 0.1942
371.40 0.1946
371.50 0.195
371.60 0.1954
371.70 0.1958
371.80 0.1962
371.90 0.1965
372.00 0.1969
372.10 0.1973
372.20 0.1977
372.30 0.1981
372.40 0.1986
372.50 0.199
372.60 0.1994
372.70 0.1998
372.80 0.2002
372.90 0.2006
373.00 0.201
373.10 0.2014
373.20 0.2018
373.30 0.2022
373.40 0.2026
373.50 0.203
373.60 0.2034
373.70 0.2038
373.80 0.2042
373.90 0.2046
374.00 0.205
374.10 0.2054
374.20 0.2058
374.30 0.2062
374.40 0.2066
374.50 0.207
374.60 0.2075
374.70 0.2079
374.80 0.2083
374.90 0.2087
375.00 0.2091
375.10 0.2095
375.20 0.2099
375.30 0.2103
375.40 0.2107
375.50 0.2111
375.60 0.2116
375.70 0.212
375.80 0.2124
375.90 0.2128
376.00 0.2132
376.10 0.2136
376.20 0.214
376.30 0.2144
376.40 0.2149
376.50 0.2153
376.60 0.2157
376.70 0.2161
376.80 0.2165
376.90 0.2169
377.00 0.2174
377.10 0.2178
377.20 0.2182
377.30 0.2186
377.40 0.2191
377.50 0.2195
377.60 0.2199
377.70 0.2203
377.80 0.2207
377.90 0.2212
378.00 0.2216
378.10 0.222
378.20 0.2224
378.30 0.2229
378.40 0.2233
378.50 0.2237
378.60 0.2242
378.70 0.2246
378.80 0.225
378.90 0.2254
379.00 0.2259
379.10 0.2263
379.20 0.2267
379.30 0.2272
379.40 0.2276
379.50 0.228
379.60 0.2285
379.70 0.2289
379.80 0.2293
379.90 0.2298
380.00 0.2302
380.10 0.2306
380.20 0.2311
380.30 0.2315
380.40 0.2319
380.50 0.2324
380.60 0.2328
380.70 0.2332
380.80 0.2337
380.90 0.2341
381.00 0.2345
381.10 0.235
381.20 0.2354
381.30 0.2359
381.40 0.2363
381.50 0.2367
381.60 0.2372
381.70 0.2376
381.80 0.2381
381.90 0.2385
382.00 0.239
382.10 0.2394
382.20 0.2399
382.30 0.2403
382.40 0.2407
382.50 0.2412
382.60 0.2416
382.70 0.2421
382.80 0.2425
382.90 0.243
383.00 0.2434
383.10 0.2439
383.20 0.2443
383.30 0.2448
383.40 0.2452
383.50 0.2457
383.60 0.2461
383.70 0.2466
383.80 0.247
383.90 0.2475
384.00 0.2479
384.10 0.2484
384.20 0.2488
384.30 0.2493
384.40 0.2497
384.50 0.2502
384.60 0.2507
384.70 0.2511
384.80 0.2516
384.90 0.252
385.00 0.2525
385.10 0.2529
385.20 0.2534
385.30 0.2539
385.40 0.2543
385.50 0.2548
385.60 0.2552
385.70 0.2557
385.80 0.2561
385.90 0.2566
386.00 0.2571
386.10 0.2575
386.20 0.258
386.30 0.2585
386.40 0.2589
386.50 0.2594
386.60 0.2598
386.70 0.2603
386.80 0.2608
386.90 0.2612
387.00 0.2617
387.10 0.2622
387.20 0.2626
387.30 0.2631
387.40 0.2636
387.50 0.264
387.60 0.2645
387.70 0.265
387.80 0.2655
387.90 0.2659
388.00 0.2664
388.10 0.2669
388.20 0.2673
388.30 0.2678
388.40 0.2683
388.50 0.2688
388.60 0.2692
388.70 0.2697
388.80 0.2702
388.90 0.2707
389.00 0.2711
389.10 0.2716
389.20 0.2721
389.30 0.2726
389.40 0.273
389.50 0.2735
389.60 0.274
389.70 0.2745
389.80 0.2749
389.90 0.2754
390.00 0.2759
390.10 0.2764
390.20 0.2769
390.30 0.2773
390.40 0.2778
390.50 0.2783
390.60 0.2788
390.70 0.2793
390.80 0.2798
390.90 0.2802
391.00 0.2807
391.10 0.2812
391.20 0.2817
391.30 0.2822
391.40 0.2827
391.50 0.2832
391.60 0.2837
391.70 0.2841
391.80 0.2846
391.90 0.2851
392.00 0.2856
392.10 0.2861
392.20 0.2866
392.30 0.2871
392.40 0.2876
392.50 0.2881
392.60 0.2885
392.70 0.289
392.80 0.2895
392.90 0.29
393.00 0.2905
393.10 0.291
393.20 0.2915
393.30 0.292
393.40 0.2925
393.50 0.293
393.60 0.2935
393.70 0.294
393.80 0.2945
393.90 0.295
394.00 0.2955
394.10 0.296
394.20 0.2965
394.30 0.297
394.40 0.2975
394.50 0.298
394.60 0.2985
394.70 0.299
394.80 0.2995
394.90 0.3
395.00 0.3005
395.10 0.301
395.20 0.3015
395.30 0.302
395.40 0.3025
395.50 0.303
395.60 0.3035
395.70 0.304
395.80 0.3045
395.90 0.305
396.00 0.3055
396.10 0.306
396.20 0.3065
396.30 0.307
396.40 0.3075
396.50 0.3081
396.60 0.3086
396.70 0.3091
396.80 0.3096
396.90 0.3101
397.00 0.3106
397.10 0.3111
397.20 0.3116
397.30 0.3121
397.40 0.3127
397.50 0.3132
397.60 0.3137
397.70 0.3142
397.80 0.3147
397.90 0.3152
398.00 0.3157
398.10 0.3162
398.20 0.3168
398.30 0.3173
398.40 0.3178
398.50 0.3183
398.60 0.3188
398.70 0.3194
398.80 0.3199
398.90 0.3204
399.00 0.3209
399.10 0.3214
399.20 0.3219
399.30 0.3225
399.40 0.323
399.50 0.3235
399.60 0.324
399.70 0.3245
399.80 0.3251
399.90 0.3256
400.00 0.3261
400.10 0.3266
400.20 0.3272
400.30 0.3277
400.40 0.3282
400.50 0.3287
400.60 0.3293
400.70 0.3298
400.80 0.3303
400.90 0.3309
401.00 0.3314
401.10 0.3319
401.20 0.3324
401.30 0.333
401.40 0.3335
401.50 0.334
401.60 0.3346
401.70 0.3351
401.80 0.3356
401.90 0.3361
402.00 0.3367
402.10 0.3372
402.20 0.3378
402.30 0.3383
402.40 0.3388
402.50 0.3394
402.60 0.3399
402.70 0.3404
402.80 0.341
402.90 0.3415
403.00 0.342
403.10 0.3426
403.20 0.3431
403.30 0.3436
403.40 0.3442
403.50 0.3447
403.60 0.3453
403.70 0.3458
403.80 0.3463
403.90 0.3469
404.00 0.3474
404.10 0.3479
404.20 0.3485
404.30 0.349
404.40 0.3496
404.50 0.3501
404.60 0.3507
404.70 0.3512
404.80 0.3518
404.90 0.3523
405.00 0.3528
405.10 0.3534
405.20 0.3539
405.30 0.3545
405.40 0.355
405.50 0.3556
405.60 0.3561
405.70 0.3567
405.80 0.3572
405.90 0.3578
406.00 0.3583
406.10 0.3589
406.20 0.3594
406.30 0.36
406.40 0.3605
406.50 0.3611
406.60 0.3616
406.70 0.3622
406.80 0.3627
406.90 0.3633
407.00 0.3638
407.10 0.3644
407.20 0.3649
407.30 0.3655
407.40 0.366
407.50 0.3666
407.60 0.3671
407.70 0.3677
407.80 0.3683
407.90 0.3688
408.00 0.3694
408.10 0.3699
408.20 0.3705
408.30 0.371
408.40 0.3716
408.50 0.3722
408.60 0.3727
408.70 0.3733
408.80 0.3738
408.90 0.3744
409.00 0.375
409.10 0.3755
409.20 0.3761
409.30 0.3766
409.40 0.3772
409.50 0.3778
409.60 0.3783
409.70 0.3789
409.80 0.3795
409.90 0.38
410.00 0.3806
410.10 0.3812
410.20 0.3817
410.30 0.3823
410.40 0.3829
410.50 0.3834
410.60 0.384
410.70 0.3846
410.80 0.3851
410.90 0.3857
411.00 0.3863
411.10 0.3868
411.20 0.3874
411.30 0.388
411.40 0.3885
411.50 0.3891
411.60 0.3897
411.70 0.3902
411.80 0.3908
411.90 0.3914
412.00 0.392
412.10 0.3925
412.20 0.3931
412.30 0.3937
412.40 0.3943
412.50 0.3948
412.60 0.3954
412.70 0.396
412.80 0.3966
412.90 0.3971
413.00 0.3977
413.10 0.3983
413.20 0.3989
413.30 0.3994
413.40 0.4
413.50 0.4006
413.60 0.4012
413.70 0.4018
413.80 0.4023
413.90 0.4029
414.00 0.4035
414.10 0.4041
414.20 0.4047
414.30 0.4052
414.40 0.4058
414.50 0.4064
414.60 0.407
414.70 0.4076
414.80 0.4082
414.90 0.4087
415.00 0.4093
415.10 0.4099
415.20 0.4105
415.30 0.4111
415.40 0.4117
415.50 0.4123
415.60 0.4128
415.70 0.4134
415.80 0.414
415.90 0.4146
416.00 0.4152
416.10 0.4158
416.20 0.4164
416.30 0.417
416.40 0.4176
416.50 0.4181
416.60 0.4187
416.70 0.4193
416.80 0.4199
416.90 0.4205
417.00 0.4211
417.10 0.4217
417.20 0.4223
417.30 0.4229
417.40 0.4235
417.50 0.4241
417.60 0.4247
417.70 0.4252
417.80 0.4258
417.90 0.4264
418.00 0.427
418.10 0.4276
418.20 0.4282
418.30 0.4288
418.40 0.4294
418.50 0.43
418.60 0.4306
418.70 0.4312
418.80 0.4318
418.90 0.4324
419.00 0.433
419.10 0.4336
419.20 0.4342
419.30 0.4348
419.40 0.4354
419.50 0.436
419.60 0.4366
419.70 0.4372
419.80 0.4378
419.90 0.4384
420.00 0.439
420.10 0.4396
420.20 0.4402
420.30 0.4408
420.40 0.4414
420.50 0.442
420.60 0.4426
420.70 0.4433
420.80 0.4439
420.90 0.4445
421.00 0.4451
421.10 0.4457
421.20 0.4463
421.30 0.4469
421.40 0.4475
421.50 0.4481
421.60 0.4487
421.70 0.4493
421.80 0.4499
421.90 0.4505
422.00 0.4512
422.10 0.4518
422.20 0.4524
422.30 0.453
422.40 0.4536
422.50 0.4542
422.60 0.4548
422.70 0.4554
422.80 0.456
422.90 0.4567
423.00 0.4573
423.10 0.4579
423.20 0.4585
423.30 0.4591
423.40 0.4597
423.50 0.4604
423.60 0.461
423.70 0.4616
423.80 0.4622
423.90 0.4628
424.00 0.4634
424.10 0.464
424.20 0.4647
424.30 0.4653
424.40 0.4659
424.50 0.4665
424.60 0.4671
424.70 0.4678
424.80 0.4684
424.90 0.469
425.00 0.4696
425.10 0.4702
425.20 0.4709
425.30 0.4715
425.40 0.4721
425.50 0.4727
425.60 0.4733
425.70 0.474
425.80 0.4746
425.90 0.4752
426.00 0.4758
426.10 0.4765
426.20 0.4771
426.30 0.4777
426.40 0.4783
426.50 0.479
426.60 0.4796
426.70 0.4802
426.80 0.4808
426.90 0.4815
427.00 0.4821
427.10 0.4827
427.20 0.4834
427.30 0.484
427.40 0.4846
427.50 0.4852
427.60 0.4859
427.70 0.4865
427.80 0.4871
427.90 0.4878
428.00 0.4884
428.10 0.489
428.20 0.4897
428.30 0.4903
428.40 0.4909
428.50 0.4916
428.60 0.4922
428.70 0.4928
428.80 0.4935
428.90 0.4941
429.00 0.4947
429.10 0.4954
429.20 0.496
429.30 0.4966
429.40 0.4973
429.50 0.4979
429.60 0.4985
429.70 0.4992
429.80 0.4998
429.90 0.5004
430.00 0.5011
430.10 0.5017
430.20 0.5024
430.30 0.503
430.40 0.5036
430.50 0.5043
430.60 0.5049
430.70 0.5055
430.80 0.5062
430.90 0.5068
431.00 0.5075
431.10 0.5081
431.20 0.5087
431.30 0.5094
431.40 0.51
431.50 0.5107
431.60 0.5113
431.70 0.512
431.80 0.5126
431.90 0.5132
432.00 0.5139
432.10 0.5145
432.20 0.5152
432.30 0.5158
432.40 0.5165
432.50 0.5171
432.60 0.5178
432.70 0.5184
432.80 0.519
432.90 0.5197
433.00 0.5203
433.10 0.521
433.20 0.5216
433.30 0.5223
433.40 0.5229
433.50 0.5236
433.60 0.5242
433.70 0.5249
433.80 0.5255
433.90 0.5262
434.00 0.5268
434.10 0.5275
434.20 0.5281
434.30 0.5288
434.40 0.5294
434.50 0.5301
434.60 0.5307
434.70 0.5314
434.80 0.532
434.90 0.5327
435.00 0.5333
435.10 0.534
435.20 0.5347
435.30 0.5353
435.40 0.536
435.50 0.5366
435.60 0.5373
435.70 0.5379
435.80 0.5386
435.90 0.5392
436.00 0.5399
436.10 0.5406
436.20 0.5412
436.30 0.5419
436.40 0.5425
436.50 0.5432
436.60 0.5438
436.70 0.5445
436.80 0.5451
436.90 0.5458
437.00 0.5465
437.10 0.5471
437.20 0.5478
437.30 0.5484
437.40 0.5491
437.50 0.5498
437.60 0.5504
437.70 0.5511
437.80 0.5517
437.90 0.5524
438.00 0.5531
438.10 0.5537
438.20 0.5544
438.30 0.5551
438.40 0.5557
438.50 0.5564
438.60 0.557
438.70 0.5577
438.80 0.5584
438.90 0.559
439.00 0.5597
439.10 0.5604
439.20 0.561
439.30 0.5617
439.40 0.5624
439.50 0.563
439.60 0.5637
439.70 0.5644
439.80 0.565
439.90 0.5657
440.00 0.5664
440.10 0.567
440.20 0.5677
440.30 0.5684
440.40 0.569
440.50 0.5697
440.60 0.5704
440.70 0.571
440.80 0.5717
440.90 0.5724
441.00 0.5731
441.10 0.5737
441.20 0.5744
441.30 0.5751
441.40 0.5757
441.50 0.5764
441.60 0.5771
441.70 0.5778
441.80 0.5784
441.90 0.5791
442.00 0.5798
442.10 0.5804
442.20 0.5811
442.30 0.5818
442.40 0.5825
442.50 0.5831
442.60 0.5838
442.70 0.5845
442.80 0.5852
442.90 0.5858
443.00 0.5865
443.10 0.5872
443.20 0.5879
443.30 0.5886
443.40 0.5892
443.50 0.5899
443.60 0.5906
443.70 0.5913
443.80 0.5919
443.90 0.5926
444.00 0.5933
444.10 0.594
444.20 0.5947
444.30 0.5953
444.40 0.596
444.50 0.5967
444.60 0.5974
444.70 0.5981
444.80 0.5987
444.90 0.5994
445.00 0.6001
445.10 0.6008
445.20 0.6015
445.30 0.6021
445.40 0.6028
445.50 0.6035
445.60 0.6042
445.70 0.6049
445.80 0.6056
445.90 0.6062
446.00 0.6069
446.10 0.6076
446.20 0.6083
446.30 0.609
446.40 0.6097
446.50 0.6104
446.60 0.611
446.70 0.6117
446.80 0.6124
446.90 0.6131
447.00 0.6138
447.10 0.6145
447.20 0.6152
447.30 0.6158
447.40 0.6165
447.50 0.6172
447.60 0.6179
447.70 0.6186
447.80 0.6193
447.90 0.62
448.00 0.6207
448.10 0.6213
448.20 0.622
448.30 0.6227
448.40 0.6234
448.50 0.6241
448.60 0.6248
448.70 0.6255
448.80 0.6262
448.90 0.6269
449.00 0.6276
449.10 0.6282
449.20 0.6289
449.30 0.6296
449.40 0.6303
449.50 0.631
449.60 0.6317
449.70 0.6324
449.80 0.6331
449.90 0.6338
450.00 0.6345
450.10 0.6352
450.20 0.6359
450.30 0.6366
450.40 0.6373
450.50 0.638
450.60 0.6386
450.70 0.6393
450.80 0.64
450.90 0.6407
451.00 0.6414
451.10 0.6421
451.20 0.6428
451.30 0.6435
451.40 0.6442
451.50 0.6449
451.60 0.6456
451.70 0.6463
451.80 0.647
451.90 0.6477
452.00 0.6484
452.10 0.6491
452.20 0.6498
452.30 0.6505
452.40 0.6512
452.50 0.6519
452.60 0.6526
452.70 0.6533
452.80 0.654
452.90 0.6547
453.00 0.6554
453.10 0.6561
453.20 0.6568
453.30 0.6575
453.40 0.6582
453.50 0.6589
453.60 0.6596
453.70 0.6603
453.80 0.661
453.90 0.6617
454.00 0.6624
454.10 0.6631
454.20 0.6638
454.30 0.6645
454.40 0.6652
454.50 0.6659
454.60 0.6666
454.70 0.6673
454.80 0.668
454.90 0.6688
455.00 0.6695
455.10 0.6702
455.20 0.6709
455.30 0.6716
455.40 0.6723
455.50 0.673
455.60 0.6737
455.70 0.6744
455.80 0.6751
455.90 0.6758
456.00 0.6765
456.10 0.6772
456.20 0.6779
456.30 0.6786
456.40 0.6793
456.50 0.6801
456.60 0.6808
456.70 0.6815
456.80 0.6822
456.90 0.6829
457.00 0.6836
457.10 0.6843
457.20 0.685
457.30 0.6857
457.40 0.6864
457.50 0.6871
457.60 0.6879
457.70 0.6886
457.80 0.6893
457.90 0.69
458.00 0.6907
458.10 0.6914
458.20 0.6921
458.30 0.6928
458.40 0.6935
458.50 0.6943
458.60 0.695
458.70 0.6957
458.80 0.6964
458.90 0.6971
459.00 0.6978
459.10 0.6985
459.20 0.6992
459.30 0.7
459.40 0.7007
459.50 0.7014
459.60 0.7021
459.70 0.7028
459.80 0.7035
459.90 0.7042
460.00 0.705
460.10 0.7057
460.20 0.7064
460.30 0.7071
460.40 0.7078
460.50 0.7085
460.60 0.7093
460.70 0.71
460.80 0.7107
460.90 0.7114
461.00 0.7121
461.10 0.7128
461.20 0.7136
461.30 0.7143
461.40 0.715
461.50 0.7157
461.60 0.7164
461.70 0.7171
461.80 0.7179
461.90 0.7186
462.00 0.7193
462.10 0.72
462.20 0.7207
462.30 0.7215
462.40 0.7222
462.50 0.7229
462.60 0.7236
462.70 0.7243
462.80 0.7251
462.90 0.7258
463.00 0.7265
463.10 0.7272
463.20 0.7279
463.30 0.7287
463.40 0.7294
463.50 0.7301
463.60 0.7308
463.70 0.7315
463.80 0.7323
463.90 0.733
464.00 0.7337
464.10 0.7344
464.20 0.7351
464.30 0.7359
464.40 0.7366
464.50 0.7373
464.60 0.738
464.70 0.7388
464.80 0.7395
464.90 0.7402
465.00 0.7409
465.10 0.7416
465.20 0.7424
465.30 0.7431
465.40 0.7438
465.50 0.7446
465.60 0.7453
465.70 0.746
465.80 0.7467
465.90 0.7475
466.00 0.7482
466.10 0.7489
466.20 0.7496
466.30 0.7504
466.40 0.7511
466.50 0.7518
466.60 0.7525
466.70 0.7533
466.80 0.754
466.90 0.7547
467.00 0.7554
467.10 0.7562
467.20 0.7569
467.30 0.7576
467.40 0.7584
467.50 0.7591
467.60 0.7598
467.70 0.7605
467.80 0.7613
467.90 0.762
468.00 0.7627
468.10 0.7634
468.20 0.7642
468.30 0.7649
468.40 0.7656
468.50 0.7664
468.60 0.7671
468.70 0.7678
468.80 0.7685
468.90 0.7693
469.00 0.77
469.10 0.7707
469.20 0.7715
469.30 0.7722
469.40 0.7729
469.50 0.7737
469.60 0.7744
469.70 0.7751
469.80 0.7758
469.90 0.7766
470.00 0.7773
470.10 0.778
470.20 0.7788
470.30 0.7795
470.40 0.7802
470.50 0.781
470.60 0.7817
470.70 0.7824
470.80 0.7832
470.90 0.7839
471.00 0.7846
471.10 0.7854
471.20 0.7861
471.30 0.7868
471.40 0.7876
471.50 0.7883
471.60 0.789
471.70 0.7898
471.80 0.7905
471.90 0.7912
472.00 0.792
472.10 0.7927
472.20 0.7934
472.30 0.7942
472.40 0.7949
472.50 0.7956
472.60 0.7964
472.70 0.7971
472.80 0.7978
472.90 0.7986
473.00 0.7993
473.10 0.8
473.20 0.8008
473.30 0.8015
473.40 0.8022
473.50 0.803
473.60 0.8037
473.70 0.8045
473.80 0.8052
473.90 0.8059
474.00 0.8067
474.10 0.8074
474.20 0.8081
474.30 0.8089
474.40 0.8096
474.50 0.8103
474.60 0.8111
474.70 0.8118
474.80 0.8126
474.90 0.8133
475.00 0.814
475.10 0.8148
475.20 0.8155
475.30 0.8162
475.40 0.817
475.50 0.8177
475.60 0.8185
475.70 0.8192
475.80 0.8199
475.90 0.8207
476.00 0.8214
476.10 0.8221
476.20 0.8229
476.30 0.8236
476.40 0.8244
476.50 0.8251
476.60 0.8258
476.70 0.8266
476.80 0.8273
476.90 0.8281
477.00 0.8288
477.10 0.8295
477.20 0.8303
477.30 0.831
477.40 0.8318
477.50 0.8325
477.60 0.8332
477.70 0.834
477.80 0.8347
477.90 0.8355
478.00 0.8362
478.10 0.8369
478.20 0.8377
478.30 0.8384
478.40 0.8392
478.50 0.8399
478.60 0.8406
478.70 0.8414
478.80 0.8421
478.90 0.8429
479.00 0.8436
479.10 0.8443
479.20 0.8451
479.30 0.8458
479.40 0.8466
479.50 0.8473
479.60 0.848
479.70 0.8488
479.80 0.8495
479.90 0.8503
480.00 0.851
480.10 0.8517
480.20 0.8525
480.30 0.8532
480.40 0.854
480.50 0.8547
480.60 0.8555
480.70 0.8562
480.80 0.8569
480.90 0.8577
481.00 0.8584
481.10 0.8592
481.20 0.8599
481.30 0.8607
481.40 0.8614
481.50 0.8621
481.60 0.8629
481.70 0.8636
481.80 0.8644
481.90 0.8651
482.00 0.8659
482.10 0.8666
482.20 0.8673
482.30 0.8681
482.40 0.8688
482.50 0.8696
482.60 0.8703
482.70 0.8711
482.80 0.8718
482.90 0.8726
483.00 0.8733
483.10 0.874
483.20 0.8748
483.30 0.8755
483.40 0.8763
483.50 0.877
483.60 0.8778
483.70 0.8785
483.80 0.8793
483.90 0.88
484.00 0.8807
484.10 0.8815
484.20 0.8822
484.30 0.883
484.40 0.8837
484.50 0.8845
484.60 0.8852
484.70 0.8859
484.80 0.8867
484.90 0.8874
485.00 0.8882
485.10 0.8889
485.20 0.8897
485.30 0.8904
485.40 0.8912
485.50 0.8919
485.60 0.8927
485.70 0.8934
485.80 0.8941
485.90 0.8949
486.00 0.8956
486.10 0.8964
486.20 0.8971
486.30 0.8979
486.40 0.8986
486.50 0.8994
486.60 0.9001
486.70 0.9008
486.80 0.9016
486.90 0.9023
487.00 0.9031
487.10 0.9038
487.20 0.9046
487.30 0.9053
487.40 0.9061
487.50 0.9068
487.60 0.9076
487.70 0.9083
487.80 0.909
487.90 0.9098
488.00 0.9105
488.10 0.9113
488.20 0.912
488.30 0.9128
488.40 0.9135
488.50 0.9143
488.60 0.915
488.70 0.9158
488.80 0.9165
488.90 0.9173
489.00 0.918
489.10 0.9187
489.20 0.9195
489.30 0.9202
489.40 0.921
489.50 0.9217
489.60 0.9225
489.70 0.9232
489.80 0.924
489.90 0.9247
490.00 0.9255
490.10 0.9262
490.20 0.927
490.30 0.9277
490.40 0.9285
490.50 0.9292
490.60 0.9299
490.70 0.9307
490.80 0.9314
490.90 0.9322
491.00 0.9329
491.10 0.9337
491.20 0.9344
491.30 0.9352
491.40 0.9359
491.50 0.9367
491.60 0.9374
491.70 0.9382
491.80 0.9389
491.90 0.9396
492.00 0.9404
492.10 0.9411
492.20 0.9419
492.30 0.9426
492.40 0.9434
492.50 0.9441
492.60 0.9449
492.70 0.9456
492.80 0.9464
492.90 0.9471
493.00 0.9478
493.10 0.9486
493.20 0.9493
493.30 0.9501
493.40 0.9508
493.50 0.9516
493.60 0.9523
493.70 0.9531
493.80 0.9538
493.90 0.9546
494.00 0.9553
494.10 0.9561
494.20 0.9568
494.30 0.9576
494.40 0.9583
494.50 0.959
494.60 0.9598
494.70 0.9605
494.80 0.9613
494.90 0.962
495.00 0.9628
495.10 0.9635
495.20 0.9643
495.30 0.965
495.40 0.9658
495.50 0.9665
495.60 0.9672
495.70 0.968
495.80 0.9687
495.90 0.9695
496.00 0.9702
496.10 0.971
496.20 0.9717
496.30 0.9725
496.40 0.9732
496.50 0.974
496.60 0.9747
496.70 0.9754
496.80 0.9762
496.90 0.9769
497.00 0.9777
497.10 0.9784
497.20 0.9792
497.30 0.9799
497.40 0.9807
497.50 0.9814
497.60 0.9821
497.70 0.9829
497.80 0.9836
497.90 0.9844
498.00 0.9851
498.10 0.9859
498.20 0.9866
498.30 0.9874
498.40 0.9881
498.50 0.9888
498.60 0.9896
498.70 0.9903
498.80 0.9911
498.90 0.9918
499.00 0.9926
499.10 0.9933
499.20 0.994
499.30 0.9948
499.40 0.9955
499.50 0.9963
499.60 0.997
499.70 0.9978
499.80 0.9985
499.90 0.9993
500.00 1
500.10 1.001
500.20 1.001
500.30 1.002
500.40 1.003
500.50 1.004
500.60 1.004
500.70 1.005
500.80 1.006
500.90 1.007
501.00 1.007
501.10 1.008
501.20 1.009
501.30 1.01
501.40 1.01
501.50 1.011
501.60 1.012
501.70 1.013
501.80 1.013
501.90 1.014
502.00 1.015
502.10 1.016
502.20 1.016
502.30 1.017
502.40 1.018
502.50 1.019
502.60 1.019
502.70 1.02
502.80 1.021
502.90 1.022
503.00 1.022
503.10 1.023
503.20 1.024
503.30 1.024
503.40 1.025
503.50 1.026
503.60 1.027
503.70 1.027
503.80 1.028
503.90 1.029
504.00 1.03
504.10 1.03
504.20 1.031
504.30 1.032
504.40 1.033
504.50 1.033
504.60 1.034
504.70 1.035
504.80 1.036
504.90 1.036
505.00 1.037
505.10 1.038
505.20 1.038
505.30 1.039
505.40 1.04
505.50 1.041
505.60 1.041
505.70 1.042
505.80 1.043
505.90 1.044
506.00 1.044
506.10 1.045
506.20 1.046
506.30 1.047
506.40 1.047
506.50 1.048
506.60 1.049
506.70 1.049
506.80 1.05
506.90 1.051
507.00 1.052
507.10 1.052
507.20 1.053
507.30 1.054
507.40 1.055
507.50 1.055
507.60 1.056
507.70 1.057
507.80 1.058
507.90 1.058
508.00 1.059
508.10 1.06
508.20 1.06
508.30 1.061
508.40 1.062
508.50 1.063
508.60 1.063
508.70 1.064
508.80 1.065
508.90 1.066
509.00 1.066
509.10 1.067
509.20 1.068
509.30 1.068
509.40 1.069
509.50 1.07
509.60 1.071
509.70 1.071
509.80 1.072
509.90 1.073
510.00 1.074
510.10 1.074
510.20 1.075
510.30 1.076
510.40 1.077
510.50 1.077
510.60 1.078
510.70 1.079
510.80 1.079
510.90 1.08
511.00 1.081
511.10 1.082
511.20 1.082
511.30 1.083
511.40 1.084
511.50 1.085
511.60 1.085
511.70 1.086
511.80 1.087
511.90 1.087
512.00 1.088
512.10 1.089
512.20 1.09
512.30 1.09
512.40 1.091
512.50 1.092
512.60 1.093
512.70 1.093
512.80 1.094
512.90 1.095
513.00 1.096
513.10 1.096
513.20 1.097
513.30 1.098
513.40 1.098
513.50 1.099
513.60 1.1
513.70 1.101
513.80 1.101
513.90 1.102
514.00 1.103
514.10 1.104
514.20 1.104
514.30 1.105
514.40 1.106
514.50 1.106
514.60 1.107
514.70 1.108
514.80 1.109
514.90 1.109
515.00 1.11
515.10 1.111
515.20 1.111
515.30 1.112
515.40 1.113
515.50 1.114
515.60 1.114
515.70 1.115
515.80 1.116
515.90 1.117
516.00 1.117
516.10 1.118
516.20 1.119
516.30 1.119
516.40 1.12
516.50 1.121
516.60 1.122
516.70 1.122
516.80 1.123
516.90 1.124
517.00 1.124
517.10 1.125
517.20 1.126
517.30 1.127
517.40 1.127
517.50 1.128
517.60 1.129
517.70 1.129
517.80 1.13
517.90 1.131
518.00 1.132
518.10 1.132
518.20 1.133
518.30 1.134
518.40 1.134
518.50 1.135
518.60 1.136
518.70 1.137
518.80 1.137
518.90 1.138
519.00 1.139
519.10 1.139
519.20 1.14
519.30 1.141
519.40 1.141
519.50 1.142
519.60 1.143
519.70 1.144
519.80 1.144
519.90 1.145
520.00 1.146
520.10 1.146
520.20 1.147
520.30 1.148
520.40 1.149
520.50 1.149
520.60 1.15
520.70 1.151
520.80 1.151
520.90 1.152
521.00 1.153
521.10 1.154
521.20 1.154
521.30 1.155
521.40 1.156
521.50 1.156
521.60 1.157
521.70 1.158
521.80 1.158
521.90 1.159
522.00 1.16
522.10 1.161
522.20 1.161
522.30 1.162
522.40 1.163
522.50 1.163
522.60 1.164
522.70 1.165
522.80 1.166
522.90 1.166
523.00 1.167
523.10 1.168
523.20 1.168
523.30 1.169
523.40 1.17
523.50 1.17
523.60 1.171
523.70 1.172
523.80 1.173
523.90 1.173
524.00 1.174
524.10 1.175
524.20 1.175
524.30 1.176
524.40 1.177
524.50 1.177
524.60 1.178
524.70 1.179
524.80 1.179
524.90 1.18
525.00 1.181
525.10 1.182
525.20 1.182
525.30 1.183
525.40 1.184
525.50 1.184
525.60 1.185
525.70 1.186
525.80 1.186
525.90 1.187
526.00 1.188
526.10 1.188
526.20 1.189
526.30 1.19
526.40 1.191
526.50 1.191
526.60 1.192
526.70 1.193
526.80 1.193
526.90 1.194
527.00 1.195
527.10 1.195
527.20 1.196
527.30 1.197
527.40 1.197
527.50 1.198
527.60 1.199
527.70 1.199
527.80 1.2
527.90 1.201
528.00 1.202
528.10 1.202
528.20 1.203
528.30 1.204
528.40 1.204
528.50 1.205
528.60 1.206
528.70 1.206
528.80 1.207
528.90 1.208
529.00 1.208
529.10 1.209
529.20 1.21
529.30 1.21
529.40 1.211
529.50 1.212
529.60 1.212
529.70 1.213
529.80 1.214
529.90 1.214
530.00 1.215
530.10 1.216
530.20 1.216
530.30 1.217
530.40 1.218
530.50 1.218
530.60 1.219
530.70 1.22
530.80 1.22
530.90 1.221
531.00 1.222
531.10 1.222
531.20 1.223
531.30 1.224
531.40 1.224
531.50 1.225
531.60 1.226
531.70 1.226
531.80 1.227
531.90 1.228
532.00 1.228
532.10 1.229
532.20 1.23
532.30 1.23
532.40 1.231
532.50 1.232
532.60 1.232
532.70 1.233
532.80 1.234
532.90 1.234
533.00 1.235
533.10 1.236
533.20 1.236
533.30 1.237
533.40 1.238
533.50 1.238
533.60 1.239
533.70 1.24
533.80 1.24
533.90 1.241
534.00 1.242
534.10 1.242
534.20 1.243
534.30 1.243
534.40 1.244
534.50 1.245
534.60 1.245
534.70 1.246
534.80 1.247
534.90 1.247
535.00 1.248
535.10 1.249
535.20 1.249
535.30 1.25
535.40 1.251
535.50 1.251
535.60 1.252
535.70 1.253
535.80 1.253
535.90 1.254
536.00 1.254
536.10 1.255
536.20 1.256
536.30 1.256
536.40 1.257
536.50 1.258
536.60 1.258
536.70 1.259
536.80 1.26
536.90 1.26
537.00 1.261
537.10 1.261
537.20 1.262
537.30 1.263
537.40 1.263
537.50 1.264
537.60 1.265
537.70 1.265
537.80 1.266
537.90 1.267
538.00 1.267
538.10 1.268
538.20 1.268
538.30 1.269
538.40 1.27
538.50 1.27
538.60 1.271
538.70 1.271
538.80 1.272
538.90 1.273
539.00 1.273
539.10 1.274
539.20 1.275
539.30 1.275
539.40 1.276
539.50 1.276
539.60 1.277
539.70 1.278
539.80 1.278
539.90 1.279
540.00 1.28
540.10 1.28
540.20 1.281
540.30 1.281
540.40 1.282
540.50 1.283
540.60 1.283
540.70 1.284
540.80 1.284
540.90 1.285
541.00 1.286
541.10 1.286
541.20 1.287
541.30 1.287
541.40 1.288
541.50 1.289
541.60 1.289
541.70 1.29
541.80 1.29
541.90 1.291
542.00 1.292
542.10 1.292
542.20 1.293
542.30 1.293
542.40 1.294
542.50 1.295
542.60 1.295
542.70 1.296
542.80 1.296
542.90 1.297
543.00 1.298
543.10 1.298
543.20 1.299
543.30 1.299
543.40 1.3
543.50 1.301
543.60 1.301
543.70 1.302
543.80 1.302
543.90 1.303
544.00 1.303
544.10 1.304
544.20 1.305
544.30 1.305
544.40 1.306
544.50 1.306
544.60 1.307
544.70 1.308
544.80 1.308
544.90 1.309
545.00 1.309
545.10 1.31
545.20 1.31
545.30 1.311
545.40 1.312
545.50 1.312
545.60 1.313
545.70 1.313
545.80 1.314
545.90 1.314
546.00 1.315
546.10 1.316
546.20 1.316
546.30 1.317
546.40 1.317
546.50 1.318
546.60 1.318
546.70 1.319
546.80 1.319
546.90 1.32
547.00 1.321
547.10 1.321
547.20 1.322
547.30 1.322
547.40 1.323
547.50 1.323
547.60 1.324
547.70 1.325
547.80 1.325
547.90 1.326
548.00 1.326
548.10 1.327
548.20 1.327
548.30 1.328
548.40 1.328
548.50 1.329
548.60 1.329
548.70 1.33
548.80 1.331
548.90 1.331
549.00 1.332
549.10 1.332
549.20 1.333
549.30 1.333
549.40 1.334
549.50 1.334
549.60 1.335
549.70 1.335
549.80 1.336
549.90 1.336
550.00 1.337
550.10 1.338
550.20 1.338
550.30 1.339
550.40 1.339
550.50 1.34
550.60 1.34
550.70 1.341
550.80 1.341
550.90 1.342
551.00 1.342
551.10 1.343
551.20 1.343
551.30 1.344
551.40 1.344
551.50 1.345
551.60 1.345
551.70 1.346
551.80 1.346
551.90 1.347
552.00 1.347
552.10 1.348
552.20 1.348
552.30 1.349
552.40 1.349
552.50 1.35
552.60 1.35
552.70 1.351
552.80 1.351
552.90 1.352
553.00 1.352
553.10 1.353
553.20 1.353
553.30 1.354
553.40 1.354
553.50 1.355
553.60 1.355
553.70 1.356
553.80 1.356
553.90 1.357
554.00 1.357
554.10 1.358
554.20 1.358
554.30 1.359
554.40 1.359
554.50 1.36
554.60 1.36
554.70 1.36
554.80 1.361
554.90 1.361
555.00 1.362
555.10 1.362
555.20 1.363
555.30 1.363
555.40 1.364
555.50 1.364
555.60 1.365
555.70 1.365
555.80 1.366
555.90 1.366
556.00 1.367
556.10 1.367
556.20 1.367
556.30 1.368
556.40 1.368
556.50 1.369
556.60 1.369
556.70 1.37
556.80 1.37
556.90 1.371
557.00 1.371
557.10 1.371
557.20 1.372
557.30 1.372
557.40 1.373
557.50 1.373
557.60 1.374
557.70 1.374
557.80 1.375
557.90 1.375
558.00 1.375
558.10 1.376
558.20 1.376
558.30 1.377
558.40 1.377
558.50 1.378
558.60 1.378
558.70 1.378
558.80 1.379
558.90 1.379
559.00 1.38
559.10 1.38
559.20 1.38
559.30 1.381
559.40 1.381
559.50 1.382
559.60 1.382
559.70 1.383
559.80 1.383
559.90 1.383
560.00 1.384
560.10 1.384
560.20 1.385
560.30 1.385
560.40 1.385
560.50 1.386
560.60 1.386
560.70 1.387
560.80 1.387
560.90 1.387
561.00 1.388
561.10 1.388
561.20 1.389
561.30 1.389
561.40 1.389
561.50 1.39
561.60 1.39
561.70 1.391
561.80 1.391
561.90 1.391
562.00 1.392
562.10 1.392
562.20 1.393
562.30 1.393
562.40 1.393
562.50 1.394
562.60 1.394
562.70 1.394
562.80 1.395
562.90 1.395
563.00 1.396
563.10 1.396
563.20 1.396
563.30 1.397
563.40 1.397
563.50 1.397
563.60 1.398
563.70 1.398
563.80 1.399
563.90 1.399
564.00 1.399
564.10 1.4
564.20 1.4
564.30 1.4
564.40 1.401
564.50 1.401
564.60 1.401
564.70 1.402
564.80 1.402
564.90 1.402
565.00 1.403
565.10 1.403
565.20 1.403
565.30 1.404
565.40 1.404
565.50 1.404
565.60 1.405
565.70 1.405
565.80 1.405
565.90 1.406
566.00 1.406
566.10 1.406
566.20 1.407
566.30 1.407
566.40 1.407
566.50 1.408
566.60 1.408
566.70 1.408
566.80 1.409
566.90 1.409
567.00 1.409
567.10 1.409
567.20 1.41
567.30 1.41
567.40 1.41
567.50 1.411
567.60 1.411
567.70 1.411
567.80 1.411
567.90 1.412
568.00 1.412
568.10 1.412
568.20 1.413
568.30 1.413
568.40 1.413
568.50 1.413
568.60 1.414
568.70 1.414
568.80 1.414
568.90 1.415
569.00 1.415
569.10 1.415
569.20 1.415
569.30 1.416
569.40 1.416
569.50 1.416
569.60 1.416
569.70 1.417
569.80 1.417
569.90 1.417
570.00 1.417
570.10 1.418
570.20 1.418
570.30 1.418
570.40 1.418
570.50 1.418
570.60 1.419
570.70 1.419
570.80 1.419
570.90 1.419
571.00 1.42
571.10 1.42
571.20 1.42
571.30 1.42
571.40 1.42
571.50 1.421
571.60 1.421
571.70 1.421
571.80 1.421
571.90 1.422
572.00 1.422
572.10 1.422
572.20 1.422
572.30 1.422
572.40 1.423
572.50 1.423
572.60 1.423
572.70 1.423
572.80 1.423
572.90 1.424
573.00 1.424
573.10 1.424
573.20 1.424
573.30 1.424
573.40 1.424
573.50 1.425
573.60 1.425
573.70 1.425
573.80 1.425
573.90 1.425
574.00 1.426
574.10 1.426
574.20 1.426
574.30 1.426
574.40 1.426
574.50 1.426
574.60 1.427
574.70 1.427
574.80 1.427
574.90 1.427
575.00 1.427
575.10 1.427
575.20 1.428
575.30 1.428
575.40 1.428
575.50 1.428
575.60 1.428
575.70 1.428
575.80 1.428
575.90 1.429
576.00 1.429
576.10 1.429
576.20 1.429
576.30 1.429
576.40 1.429
576.50 1.429
576.60 1.43
576.70 1.43
576.80 1.43
576.90 1.43
577.00 1.43
577.10 1.43
577.20 1.43
577.30 1.43
577.40 1.431
577.50 1.431
577.60 1.431
577.70 1.431
577.80 1.431
577.90 1.431
578.00 1.431
578.10 1.431
578.20 1.431
578.30 1.432
578.40 1.432
578.50 1.432
578.60 1.432
578.70 1.432
578.80 1.432
578.90 1.432
579.00 1.432
579.10 1.432
579.20 1.432
579.30 1.433
579.40 1.433
579.50 1.433
579.60 1.433
579.70 1.433
579.80 1.433
579.90 1.433
580.00 1.433
580.10 1.433
580.20 1.433
580.30 1.433
580.40 1.434
580.50 1.434
580.60 1.434
580.70 1.434
580.80 1.434
580.90 1.434
581.00 1.434
581.10 1.434
581.20 1.434
581.30 1.434
581.40 1.434
581.50 1.434
581.60 1.434
581.70 1.434
581.80 1.434
581.90 1.434
582.00 1.434
582.10 1.434
582.20 1.434
582.30 1.434
582.40 1.435
582.50 1.435
582.60 1.435
582.70 1.435
582.80 1.435
582.90 1.435
583.00 1.435
583.10 1.435
583.20 1.435
583.30 1.435
583.40 1.435
583.50 1.435
583.60 1.435
583.70 1.435
583.80 1.435
583.90 1.435
584.00 1.435
584.10 1.435
584.20 1.435
584.30 1.435
584.40 1.435
584.50 1.435
584.60 1.435
584.70 1.435
584.80 1.435
584.90 1.435
585.00 1.435
585.10 1.435
585.20 1.434
585.30 1.434
585.40 1.434
585.50 1.434
585.60 1.434
585.70 1.434
585.80 1.434
585.90 1.434
586.00 1.434
586.10 1.434
586.20 1.434
586.30 1.434
586.40 1.434
586.50 1.434
586.60 1.434
586.70 1.433
586.80 1.433
586.90 1.433
587.00 1.433
587.10 1.433
587.20 1.433
587.30 1.433
587.40 1.433
587.50 1.433
587.60 1.433
587.70 1.432
587.80 1.432
587.90 1.432
588.00 1.432
588.10 1.432
588.20 1.432
588.30 1.432
588.40 1.432
588.50 1.432
588.60 1.431
588.70 1.431
588.80 1.431
588.90 1.431
589.00 1.431
589.10 1.431
589.20 1.431
589.30 1.43
589.40 1.43
589.50 1.43
589.60 1.43
589.70 1.43
589.80 1.429
589.90 1.429
590.00 1.429
590.10 1.429
590.20 1.429
590.30 1.429
590.40 1.428
590.50 1.428
590.60 1.428
590.70 1.428
590.80 1.428
590.90 1.427
591.00 1.427
591.10 1.427
591.20 1.427
591.30 1.427
591.40 1.426
591.50 1.426
591.60 1.426
591.70 1.426
591.80 1.426
591.90 1.425
592.00 1.425
592.10 1.425
592.20 1.425
592.30 1.425
592.40 1.424
592.50 1.424
592.60 1.424
592.70 1.424
592.80 1.423
592.90 1.423
593.00 1.423
593.10 1.423
593.20 1.423
593.30 1.422
593.40 1.422
593.50 1.422
593.60 1.422
593.70 1.421
593.80 1.421
593.90 1.421
594.00 1.421
594.10 1.42
594.20 1.42
594.30 1.42
594.40 1.42
594.50 1.419
594.60 1.419
594.70 1.419
594.80 1.418
594.90 1.418
595.00 1.418
595.10 1.418
595.20 1.417
595.30 1.417
595.40 1.417
595.50 1.417
595.60 1.416
595.70 1.416
595.80 1.416
595.90 1.415
596.00 1.415
596.10 1.415
596.20 1.415
596.30 1.414
596.40 1.414
596.50 1.414
596.60 1.413
596.70 1.413
596.80 1.413
596.90 1.412
597.00 1.412
597.10 1.412
597.20 1.411
597.30 1.411
597.40 1.411
597.50 1.41
597.60 1.41
597.70 1.41
597.80 1.409
597.90 1.409
598.00 1.409
598.10 1.408
598.20 1.408
598.30 1.408
598.40 1.407
598.50 1.407
598.60 1.407
598.70 1.406
598.80 1.406
598.90 1.406
599.00 1.405
599.10 1.405
599.20 1.404
599.30 1.404
599.40 1.404
599.50 1.403
599.60 1.403
599.70 1.403
599.80 1.402
599.90 1.402
600.00 1.401
600.10 1.401
600.20 1.401
600.30 1.4
600.40 1.4
600.50 1.399
600.60 1.399
600.70 1.399
600.80 1.398
600.90 1.398
601.00 1.397
601.10 1.397
601.20 1.397
601.30 1.396
601.40 1.396
601.50 1.395
601.60 1.395
601.70 1.394
601.80 1.394
601.90 1.393
602.00 1.393
602.10 1.393
602.20 1.392
602.30 1.392
602.40 1.391
602.50 1.391
602.60 1.39
602.70 1.39
602.80 1.389
602.90 1.389
603.00 1.388
603.10 1.388
603.20 1.388
603.30 1.387
603.40 1.387
603.50 1.386
603.60 1.386
603.70 1.385
603.80 1.385
603.90 1.384
604.00 1.384
604.10 1.383
604.20 1.383
604.30 1.382
604.40 1.382
604.50 1.381
604.60 1.381
604.70 1.38
604.80 1.379
604.90 1.379
605.00 1.378
605.10 1.378
605.20 1.377
605.30 1.377
605.40 1.376
605.50 1.376
605.60 1.375
605.70 1.375
605.80 1.374
605.90 1.374
606.00 1.373
606.10 1.373
606.20 1.372
606.30 1.371
606.40 1.371
606.50 1.37
606.60 1.37
606.70 1.369
606.80 1.369
606.90 1.368
607.00 1.367
607.10 1.367
607.20 1.366
607.30 1.366
607.40 1.365
607.50 1.365
607.60 1.364
607.70 1.363
607.80 1.363
607.90 1.362
608.00 1.362
608.10 1.361
608.20 1.36
608.30 1.36
608.40 1.359
608.50 1.359
608.60 1.358
608.70 1.357
608.80 1.357
608.90 1.356
609.00 1.355
609.10 1.355
609.20 1.354
609.30 1.354
609.40 1.353
609.50 1.352
609.60 1.352
609.70 1.351
609.80 1.35
609.90 1.35
610.00 1.349
610.10 1.348
610.20 1.348
610.30 1.347
610.40 1.346
610.50 1.346
610.60 1.345
610.70 1.344
610.80 1.344
610.90 1.343
611.00 1.342
611.10 1.342
611.20 1.341
611.30 1.34
611.40 1.34
611.50 1.339
611.60 1.338
611.70 1.337
611.80 1.337
611.90 1.336
612.00 1.335
612.10 1.335
612.20 1.334
612.30 1.333
612.40 1.333
612.50 1.332
612.60 1.331
612.70 1.33
612.80 1.33
612.90 1.329
613.00 1.328
613.10 1.327
613.20 1.327
613.30 1.326
613.40 1.325
613.50 1.324
613.60 1.324
613.70 1.323
613.80 1.322
613.90 1.321
614.00 1.321
614.10 1.32
614.20 1.319
614.30 1.318
614.40 1.318
614.50 1.317
614.60 1.316
614.70 1.315
614.80 1.314
614.90 1.314
615.00 1.313
615.10 1.312
615.20 1.311
615.30 1.31
615.40 1.31
615.50 1.309
615.60 1.308
615.70 1.307
615.80 1.306
615.90 1.305
616.00 1.305
616.10 1.304
616.20 1.303
616.30 1.302
616.40 1.301
616.50 1.3
616.60 1.299
616.70 1.299
616.80 1.298
616.90 1.297
617.00 1.296
617.10 1.295
617.20 1.294
617.30 1.294
617.40 1.293
617.50 1.292
617.60 1.291
617.70 1.29
617.80 1.289
617.90 1.288
618.00 1.287
618.10 1.287
618.20 1.286
618.30 1.285
618.40 1.284
618.50 1.283
618.60 1.282
618.70 1.281
618.80 1.28
618.90 1.279
619.00 1.279
619.10 1.278
619.20 1.277
619.30 1.276
619.40 1.275
619.50 1.274
619.60 1.273
619.70 1.272
619.80 1.271
619.90 1.27
620.00 1.269
620.10 1.268
620.20 1.267
620.30 1.266
620.40 1.266
620.50 1.265
620.60 1.264
620.70 1.263
620.80 1.262
620.90 1.261
621.00 1.26
621.10 1.259
621.20 1.258
621.30 1.257
621.40 1.256
621.50 1.255
621.60 1.254
621.70 1.253
621.80 1.252
621.90 1.251
622.00 1.25
622.10 1.249
622.20 1.248
622.30 1.247
622.40 1.247
622.50 1.246
622.60 1.245
622.70 1.244
622.80 1.243
622.90 1.242
623.00 1.241
623.10 1.24
623.20 1.239
623.30 1.238
623.40 1.237
623.50 1.236
623.60 1.235
623.70 1.234
623.80 1.233
623.90 1.232
624.00 1.231
624.10 1.23
624.20 1.229
624.30 1.228
624.40 1.227
624.50 1.226
624.60 1.225
624.70 1.224
624.80 1.223
624.90 1.222
625.00 1.221
625.10 1.22
625.20 1.219
625.30 1.218
625.40 1.216
625.50 1.215
625.60 1.214
625.70 1.213
625.80 1.212
625.90 1.211
626.00 1.21
626.10 1.209
626.20 1.208
626.30 1.207
626.40 1.206
626.50 1.205
626.60 1.204
626.70 1.203
626.80 1.202
626.90 1.201
627.00 1.199
627.10 1.198
627.20 1.197
627.30 1.196
627.40 1.195
627.50 1.194
627.60 1.193
627.70 1.192
627.80 1.191
627.90 1.19
628.00 1.189
628.10 1.187
628.20 1.186
628.30 1.185
628.40 1.184
628.50 1.183
628.60 1.182
628.70 1.181
628.80 1.18
628.90 1.179
629.00 1.178
629.10 1.176
629.20 1.175
629.30 1.174
629.40 1.173
629.50 1.172
629.60 1.171
629.70 1.17
629.80 1.168
629.90 1.167
630.00 1.166
630.10 1.165
630.20 1.164
630.30 1.163
630.40 1.162
630.50 1.161
630.60 1.159
630.70 1.158
630.80 1.157
630.90 1.156
631.00 1.155
631.10 1.154
631.20 1.153
631.30 1.151
631.40 1.15
631.50 1.149
631.60 1.148
631.70 1.147
631.80 1.146
631.90 1.144
632.00 1.143
632.10 1.142
632.20 1.141
632.30 1.14
632.40 1.139
632.50 1.137
632.60 1.136
632.70 1.135
632.80 1.134
632.90 1.133
633.00 1.132
633.10 1.13
633.20 1.129
633.30 1.128
633.40 1.127
633.50 1.126
633.60 1.124
633.70 1.123
633.80 1.122
633.90 1.121
634.00 1.12
634.10 1.118
634.20 1.117
634.30 1.116
634.40 1.115
634.50 1.114
634.60 1.112
634.70 1.111
634.80 1.11
634.90 1.109
635.00 1.107
635.10 1.106
635.20 1.105
635.30 1.104
635.40 1.103
635.50 1.101
635.60 1.1
635.70 1.099
635.80 1.098
635.90 1.096
636.00 1.095
636.10 1.094
636.20 1.093
636.30 1.092
636.40 1.09
636.50 1.089
636.60 1.088
636.70 1.087
636.80 1.085
636.90 1.084
637.00 1.083
637.10 1.082
637.20 1.08
637.30 1.079
637.40 1.078
637.50 1.077
637.60 1.075
637.70 1.074
637.80 1.073
637.90 1.072
638.00 1.07
638.10 1.069
638.20 1.068
638.30 1.067
638.40 1.065
638.50 1.064
638.60 1.063
638.70 1.062
638.80 1.06
638.90 1.059
639.00 1.058
639.10 1.057
639.20 1.055
639.30 1.054
639.40 1.053
639.50 1.052
639.60 1.05
639.70 1.049
639.80 1.048
639.90 1.046
640.00 1.045
640.10 1.044
640.20 1.043
640.30 1.041
640.40 1.04
640.50 1.039
640.60 1.037
640.70 1.036
640.80 1.035
640.90 1.034
641.00 1.032
641.10 1.031
641.20 1.03
641.30 1.028
641.40 1.027
641.50 1.026
641.60 1.025
641.70 1.023
641.80 1.022
641.90 1.021
642.00 1.019
642.10 1.018
642.20 1.017
642.30 1.015
642.40 1.014
642.50 1.013
642.60 1.011
642.70 1.01
642.80 1.009
642.90 1.007
643.00 1.006
643.10 1.005
643.20 1.003
643.30 1.002
643.40 1
643.50 0.9991
643.60 0.9978
643.70 0.9965
643.80 0.9952
643.90 0.9938
644.00 0.9925
644.10 0.9912
644.20 0.9898
644.30 0.9885
644.40 0.9872
644.50 0.9858
644.60 0.9845
644.70 0.9832
644.80 0.9818
644.90 0.9805
645.00 0.9792
645.10 0.9778
645.20 0.9765
645.30 0.9752
645.40 0.9738
645.50 0.9725
645.60 0.9712
645.70 0.9698
645.80 0.9685
645.90 0.9672
646.00 0.9658
646.10 0.9645
646.20 0.9632
646.30 0.9619
646.40 0.9605
646.50 0.9592
646.60 0.9579
646.70 0.9566
646.80 0.9553
646.90 0.9539
647.00 0.9526
647.10 0.9513
647.20 0.95
647.30 0.9487
647.40 0.9473
647.50 0.946
647.60 0.9447
647.70 0.9433
647.80 0.942
647.90 0.9406
648.00 0.9393
648.10 0.938
648.20 0.9366
648.30 0.9353
648.40 0.934
648.50 0.9326
648.60 0.9313
648.70 0.9299
648.80 0.9286
648.90 0.9273
649.00 0.9259
649.10 0.9246
649.20 0.9233
649.30 0.9219
649.40 0.9206
649.50 0.9192
649.60 0.9179
649.70 0.9166
649.80 0.9152
649.90 0.9139
650.00 0.9126
650.10 0.9112
650.20 0.9099
650.30 0.9085
650.40 0.9072
650.50 0.9059
650.60 0.9045
650.70 0.9032
650.80 0.9018
650.90 0.9005
651.00 0.8991
651.10 0.8978
651.20 0.8965
651.30 0.8951
651.40 0.8938
651.50 0.8924
651.60 0.8911
651.70 0.8898
651.80 0.8884
651.90 0.8871
652.00 0.8857
652.10 0.8844
652.20 0.8831
652.30 0.8817
652.40 0.8804
652.50 0.879
652.60 0.8777
652.70 0.8764
652.80 0.875
652.90 0.8737
653.00 0.8724
653.10 0.871
653.20 0.8697
653.30 0.8684
653.40 0.867
653.50 0.8657
653.60 0.8643
653.70 0.863
653.80 0.8617
653.90 0.8603
654.00 0.859
654.10 0.8577
654.20 0.8563
654.30 0.855
654.40 0.8537
654.50 0.8523
654.60 0.851
654.70 0.8496
654.80 0.8483
654.90 0.847
655.00 0.8456
655.10 0.8443
655.20 0.843
655.30 0.8417
655.40 0.8403
655.50 0.839
655.60 0.8377
655.70 0.8364
655.80 0.8351
655.90 0.8338
656.00 0.8324
656.10 0.8311
656.20 0.8297
656.30 0.8284
656.40 0.8271
656.50 0.8258
656.60 0.8245
656.70 0.8231
656.80 0.8218
656.90 0.8205
657.00 0.8192
657.10 0.8179
657.20 0.8165
657.30 0.8152
657.40 0.8139
657.50 0.8125
657.60 0.8112
657.70 0.8099
657.80 0.8086
657.90 0.8073
658.00 0.806
658.10 0.8046
658.20 0.8033
658.30 0.802
658.40 0.8007
658.50 0.7994
658.60 0.7981
658.70 0.7968
658.80 0.7954
658.90 0.7941
659.00 0.7928
659.10 0.7915
659.20 0.7902
659.30 0.7889
659.40 0.7876
659.50 0.7863
659.60 0.785
659.70 0.7837
659.80 0.7824
659.90 0.7811
660.00 0.7798
660.10 0.7785
660.20 0.7772
660.30 0.7759
660.40 0.7746
660.50 0.7732
660.60 0.7719
660.70 0.7706
660.80 0.7693
660.90 0.768
661.00 0.7667
661.10 0.7654
661.20 0.7641
661.30 0.7628
661.40 0.7615
661.50 0.7602
661.60 0.7589
661.70 0.7576
661.80 0.7563
661.90 0.755
662.00 0.7537
662.10 0.7525
662.20 0.7512
662.30 0.7499
662.40 0.7486
662.50 0.7473
662.60 0.746
662.70 0.7447
662.80 0.7434
662.90 0.7421
663.00 0.7408
663.10 0.7395
663.20 0.7383
663.30 0.737
663.40 0.7357
663.50 0.7344
663.60 0.7331
663.70 0.7318
663.80 0.7305
663.90 0.7293
664.00 0.728
664.10 0.7267
664.20 0.7254
664.30 0.7241
664.40 0.7229
664.50 0.7216
664.60 0.7203
664.70 0.719
664.80 0.7177
664.90 0.7165
665.00 0.7152
665.10 0.7139
665.20 0.7126
665.30 0.7114
665.40 0.7101
665.50 0.7088
665.60 0.7076
665.70 0.7063
665.80 0.705
665.90 0.7038
666.00 0.7025
666.10 0.7012
666.20 0.7
666.30 0.6987
666.40 0.6974
666.50 0.6961
666.60 0.6949
666.70 0.6936
666.80 0.6923
666.90 0.6911
667.00 0.6898
667.10 0.6885
667.20 0.6873
667.30 0.686
667.40 0.6848
667.50 0.6835
667.60 0.6822
667.70 0.681
667.80 0.6797
667.90 0.6785
668.00 0.6772
668.10 0.676
668.20 0.6747
668.30 0.6735
668.40 0.6722
668.50 0.671
668.60 0.6697
668.70 0.6685
668.80 0.6673
668.90 0.666
669.00 0.6648
669.10 0.6635
669.20 0.6623
669.30 0.6611
669.40 0.6598
669.50 0.6586
669.60 0.6573
669.70 0.6561
669.80 0.6549
669.90 0.6536
670.00 0.6524
670.10 0.6511
670.20 0.6499
670.30 0.6487
670.40 0.6474
670.50 0.6462
670.60 0.645
670.70 0.6437
670.80 0.6425
670.90 0.6413
671.00 0.64
671.10 0.6388
671.20 0.6376
671.30 0.6363
671.40 0.6351
671.50 0.6339
671.60 0.6327
671.70 0.6314
671.80 0.6302
671.90 0.629
672.00 0.6277
672.10 0.6265
672.20 0.6253
672.30 0.6241
672.40 0.6229
672.50 0.6216
672.60 0.6204
672.70 0.6192
672.80 0.618
672.90 0.6168
673.00 0.6156
673.10 0.6144
673.20 0.6132
673.30 0.6119
673.40 0.6107
673.50 0.6095
673.60 0.6083
673.70 0.6071
673.80 0.6059
673.90 0.6047
674.00 0.6035
674.10 0.6023
674.20 0.6011
674.30 0.5999
674.40 0.5987
674.50 0.5975
674.60 0.5963
674.70 0.5951
674.80 0.5939
674.90 0.5927
675.00 0.5915
675.10 0.5903
675.20 0.5891
675.30 0.5879
675.40 0.5867
675.50 0.5855
675.60 0.5843
675.70 0.5831
675.80 0.582
675.90 0.5808
676.00 0.5796
676.10 0.5784
676.20 0.5772
676.30 0.576
676.40 0.5748
676.50 0.5737
676.60 0.5725
676.70 0.5713
676.80 0.5701
676.90 0.569
677.00 0.5678
677.10 0.5666
677.20 0.5655
677.30 0.5643
677.40 0.5631
677.50 0.5619
677.60 0.5608
677.70 0.5596
677.80 0.5585
677.90 0.5573
678.00 0.5561
678.10 0.555
678.20 0.5538
678.30 0.5527
678.40 0.5515
678.50 0.5503
678.60 0.5492
678.70 0.548
678.80 0.5468
678.90 0.5457
679.00 0.5445
679.10 0.5434
679.20 0.5422
679.30 0.5411
679.40 0.5399
679.50 0.5388
679.60 0.5376
679.70 0.5365
679.80 0.5353
679.90 0.5342
680.00 0.533
680.10 0.5319
680.20 0.5307
680.30 0.5296
680.40 0.5284
680.50 0.5273
680.60 0.5261
680.70 0.525
680.80 0.5239
680.90 0.5227
681.00 0.5216
681.10 0.5204
681.20 0.5193
681.30 0.5182
681.40 0.517
681.50 0.5159
681.60 0.5148
681.70 0.5136
681.80 0.5125
681.90 0.5114
682.00 0.5102
682.10 0.5091
682.20 0.508
682.30 0.5069
682.40 0.5057
682.50 0.5046
682.60 0.5035
682.70 0.5024
682.80 0.5012
682.90 0.5001
683.00 0.499
683.10 0.4979
683.20 0.4968
683.30 0.4956
683.40 0.4945
683.50 0.4934
683.60 0.4923
683.70 0.4912
683.80 0.4901
683.90 0.489
684.00 0.4879
684.10 0.4868
684.20 0.4856
684.30 0.4845
684.40 0.4834
684.50 0.4823
684.60 0.4812
684.70 0.4801
684.80 0.479
684.90 0.4779
685.00 0.4768
685.10 0.4758
685.20 0.4747
685.30 0.4736
685.40 0.4725
685.50 0.4714
685.60 0.4703
685.70 0.4692
685.80 0.4681
685.90 0.467
686.00 0.466
686.10 0.4649
686.20 0.4638
686.30 0.4627
686.40 0.4616
686.50 0.4606
686.60 0.4595
686.70 0.4584
686.80 0.4573
686.90 0.4563
687.00 0.4552
687.10 0.4541
687.20 0.453
687.30 0.452
687.40 0.4509
687.50 0.4498
687.60 0.4488
687.70 0.4477
687.80 0.4466
687.90 0.4456
688.00 0.4445
688.10 0.4435
688.20 0.4424
688.30 0.4413
688.40 0.4403
688.50 0.4392
688.60 0.4382
688.70 0.4371
688.80 0.4361
688.90 0.435
689.00 0.434
689.10 0.4329
689.20 0.4319
689.30 0.4309
689.40 0.4298
689.50 0.4288
689.60 0.4278
689.70 0.4268
689.80 0.4258
689.90 0.4247
690.00 0.4237
690.10 0.4227
690.20 0.4217
690.30 0.4207
690.40 0.4197
690.50 0.4187
690.60 0.4177
690.70 0.4166
690.80 0.4156
690.90 0.4146
691.00 0.4136
691.10 0.4126
691.20 0.4116
691.30 0.4106
691.40 0.4096
691.50 0.4086
691.60 0.4076
691.70 0.4066
691.80 0.4055
691.90 0.4045
692.00 0.4035
692.10 0.4025
692.20 0.4015
692.30 0.4005
692.40 0.3995
692.50 0.3985
692.60 0.3975
692.70 0.3965
692.80 0.3955
692.90 0.3945
693.00 0.3935
693.10 0.3925
693.20 0.3915
693.30 0.3905
693.40 0.3895
693.50 0.3885
693.60 0.3875
693.70 0.3865
693.80 0.3856
693.90 0.3846
694.00 0.3836
694.10 0.3826
694.20 0.3816
694.30 0.3806
694.40 0.3796
694.50 0.3786
694.60 0.3776
694.70 0.3766
694.80 0.3756
694.90 0.3746
695.00 0.3737
695.10 0.3727
695.20 0.3718
695.30 0.3709
695.40 0.3699
695.50 0.369
695.60 0.3681
695.70 0.3671
695.80 0.3662
695.90 0.3653
696.00 0.3644
696.10 0.3634
696.20 0.3625
696.30 0.3616
696.40 0.3606
696.50 0.3597
696.60 0.3588
696.70 0.3579
696.80 0.3569
696.90 0.356
697.00 0.3551
697.10 0.3542
697.20 0.3532
697.30 0.3523
697.40 0.3514
697.50 0.3505
697.60 0.3496
697.70 0.3486
697.80 0.3477
697.90 0.3468
698.00 0.3459
698.10 0.345
698.20 0.3441
698.30 0.3431
698.40 0.3422
698.50 0.3413
698.60 0.3404
698.70 0.3395
698.80 0.3386
698.90 0.3376
699.00 0.3367
699.10 0.3358
699.20 0.3349
699.30 0.334
699.40 0.3331
699.50 0.3322
699.60 0.3313
699.70 0.3304
699.80 0.3294
699.90 0.3285
700.00 0.3276
700.10 0.3268
700.20 0.3259
700.30 0.3251
700.40 0.3242
700.50 0.3234
700.60 0.3225
700.70 0.3217
700.80 0.3209
700.90 0.32
701.00 0.3192
701.10 0.3183
701.20 0.3175
701.30 0.3166
701.40 0.3158
701.50 0.3149
701.60 0.3141
701.70 0.3133
701.80 0.3124
701.90 0.3116
702.00 0.3107
702.10 0.3099
702.20 0.3091
702.30 0.3082
702.40 0.3074
702.50 0.3065
702.60 0.3057
702.70 0.3049
702.80 0.304
702.90 0.3032
703.00 0.3024
703.10 0.3015
703.20 0.3007
703.30 0.2999
703.40 0.299
703.50 0.2982
703.60 0.2974
703.70 0.2965
703.80 0.2957
703.90 0.2949
704.00 0.294
704.10 0.2932
704.20 0.2924
704.30 0.2915
704.40 0.2907
704.50 0.2899
704.60 0.289
704.70 0.2882
704.80 0.2874
704.90 0.2866
705.00 0.2857
705.10 0.285
705.20 0.2842
705.30 0.2835
705.40 0.2827
705.50 0.282
705.60 0.2812
705.70 0.2804
705.80 0.2797
705.90 0.2789
706.00 0.2782
706.10 0.2774
706.20 0.2767
706.30 0.2759
706.40 0.2752
706.50 0.2744
706.60 0.2737
706.70 0.2729
706.80 0.2722
706.90 0.2714
707.00 0.2707
707.10 0.2699
707.20 0.2692
707.30 0.2684
707.40 0.2677
707.50 0.2669
707.60 0.2662
707.70 0.2654
707.80 0.2647
707.90 0.2639
708.00 0.2632
708.10 0.2624
708.20 0.2617
708.30 0.261
708.40 0.2602
708.50 0.2595
708.60 0.2587
708.70 0.258
708.80 0.2572
708.90 0.2565
709.00 0.2558
709.10 0.255
709.20 0.2543
709.30 0.2535
709.40 0.2528
709.50 0.2521
709.60 0.2513
709.70 0.2506
709.80 0.2498
709.90 0.2491
710.00 0.2484
710.10 0.2477
710.20 0.247
710.30 0.2464
710.40 0.2457
710.50 0.245
710.60 0.2444
710.70 0.2437
710.80 0.243
710.90 0.2424
711.00 0.2417
711.10 0.241
711.20 0.2404
711.30 0.2397
711.40 0.239
711.50 0.2384
711.60 0.2377
711.70 0.237
711.80 0.2364
711.90 0.2357
712.00 0.2351
712.10 0.2344
712.20 0.2337
712.30 0.2331
712.40 0.2324
712.50 0.2318
712.60 0.2311
712.70 0.2304
712.80 0.2298
712.90 0.2291
713.00 0.2285
713.10 0.2278
713.20 0.2272
713.30 0.2265
713.40 0.2258
713.50 0.2252
713.60 0.2245
713.70 0.2239
713.80 0.2232
713.90 0.2226
714.00 0.2219
714.10 0.2213
714.20 0.2206
714.30 0.2199
714.40 0.2193
714.50 0.2186
714.60 0.218
714.70 0.2173
714.80 0.2167
714.90 0.216
715.00 0.2154
715.10 0.2148
715.20 0.2142
715.30 0.2136
715.40 0.2131
715.50 0.2125
715.60 0.2119
715.70 0.2113
715.80 0.2108
715.90 0.2102
716.00 0.2096
716.10 0.209
716.20 0.2085
716.30 0.2079
716.40 0.2073
716.50 0.2067
716.60 0.2062
716.70 0.2056
716.80 0.205
716.90 0.2044
717.00 0.2039
717.10 0.2033
717.20 0.2027
717.30 0.2021
717.40 0.2016
717.50 0.201
717.60 0.2004
717.70 0.1999
717.80 0.1993
717.90 0.1987
718.00 0.1981
718.10 0.1976
718.20 0.197
718.30 0.1964
718.40 0.1959
718.50 0.1953
718.60 0.1947
718.70 0.1942
718.80 0.1936
718.90 0.193
719.00 0.1925
719.10 0.1919
719.20 0.1913
719.30 0.1908
719.40 0.1902
719.50 0.1896
719.60 0.1891
719.70 0.1885
719.80 0.1879
719.90 0.1874
720.00 0.1868
720.10 0.1863
720.20 0.1858
720.30 0.1853
720.40 0.1848
720.50 0.1844
720.60 0.1839
720.70 0.1834
720.80 0.1829
720.90 0.1824
721.00 0.1819
721.10 0.1814
721.20 0.1809
721.30 0.1804
721.40 0.1799
721.50 0.1795
721.60 0.179
721.70 0.1785
721.80 0.178
721.90 0.1775
722.00 0.177
722.10 0.1765
722.20 0.176
722.30 0.1756
722.40 0.1751
722.50 0.1746
722.60 0.1741
722.70 0.1736
722.80 0.1731
722.90 0.1726
723.00 0.1722
723.10 0.1717
723.20 0.1712
723.30 0.1707
723.40 0.1702
723.50 0.1697
723.60 0.1693
723.70 0.1688
723.80 0.1683
723.90 0.1678
724.00 0.1673
724.10 0.1668
724.20 0.1664
724.30 0.1659
724.40 0.1654
724.50 0.1649
724.60 0.1644
724.70 0.164
724.80 0.1635
724.90 0.163
725.00 0.1625
725.10 0.1621
725.20 0.1617
725.30 0.1613
725.40 0.1609
725.50 0.1605
725.60 0.1601
725.70 0.1596
725.80 0.1592
725.90 0.1588
726.00 0.1584
726.10 0.158
726.20 0.1576
726.30 0.1572
726.40 0.1568
726.50 0.1564
726.60 0.156
726.70 0.1556
726.80 0.1551
726.90 0.1547
727.00 0.1543
727.10 0.1539
727.20 0.1535
727.30 0.1531
727.40 0.1527
727.50 0.1523
727.60 0.1519
727.70 0.1515
727.80 0.1511
727.90 0.1507
728.00 0.1503
728.10 0.1499
728.20 0.1495
728.30 0.1491
728.40 0.1487
728.50 0.1482
728.60 0.1478
728.70 0.1474
728.80 0.147
728.90 0.1466
729.00 0.1462
729.10 0.1458
729.20 0.1454
729.30 0.145
729.40 0.1446
729.50 0.1442
729.60 0.1438
729.70 0.1434
729.80 0.143
729.90 0.1426
730.00 0.1422
730.10 0.1419
730.20 0.1416
730.30 0.1413
730.40 0.141
730.50 0.1407
730.60 0.1405
730.70 0.1402
730.80 0.1399
730.90 0.1396
731.00 0.1393
731.10 0.139
731.20 0.1387
731.30 0.1384
731.40 0.1381
731.50 0.1378
731.60 0.1375
731.70 0.1372
731.80 0.137
731.90 0.1367
732.00 0.1364
732.10 0.1361
732.20 0.1358
732.30 0.1355
732.40 0.1352
732.50 0.1349
732.60 0.1346
732.70 0.1344
732.80 0.1341
732.90 0.1338
733.00 0.1335
733.10 0.1332
733.20 0.1329
733.30 0.1326
733.40 0.1323
733.50 0.132
733.60 0.1318
733.70 0.1315
733.80 0.1312
733.90 0.1309
734.00 0.1306
734.10 0.1303
734.20 0.13
734.30 0.1297
734.40 0.1295
734.50 0.1292
734.60 0.1289
734.70 0.1286
734.80 0.1283
734.90 0.128
735.00 0.1277
735.10 0.1275
735.20 0.1272
735.30 0.1269
735.40 0.1266
735.50 0.1263
735.60 0.126
735.70 0.1258
735.80 0.1255
735.90 0.1252
736.00 0.1249
736.10 0.1246
736.20 0.1243
736.30 0.1241
736.40 0.1238
736.50 0.1235
736.60 0.1232
736.70 0.1229
736.80 0.1226
736.90 0.1224
737.00 0.1221
737.10 0.1218
737.20 0.1215
737.30 0.1212
737.40 0.1209
737.50 0.1207
737.60 0.1204
737.70 0.1201
737.80 0.1198
737.90 0.1195
738.00 0.1193
738.10 0.119
738.20 0.1187
738.30 0.1184
738.40 0.1181
738.50 0.1179
738.60 0.1176
738.70 0.1173
738.80 0.117
738.90 0.1167
739.00 0.1165
739.10 0.1162
739.20 0.1159
739.30 0.1156
739.40 0.1153
739.50 0.1151
739.60 0.1148
739.70 0.1145
739.80 0.1142
739.90 0.1139
740.00 0.1137
740.10 0.1135
740.20 0.1133
740.30 0.1131
740.40 0.113
740.50 0.1128
740.60 0.1126
740.70 0.1125
740.80 0.1123
740.90 0.1121
741.00 0.1119
741.10 0.1118
741.20 0.1116
741.30 0.1114
741.40 0.1113
741.50 0.1111
741.60 0.1109
741.70 0.1107
741.80 0.1106
741.90 0.1104
742.00 0.1102
742.10 0.1101
742.20 0.1099
742.30 0.1097
742.40 0.1095
742.50 0.1094
742.60 0.1092
742.70 0.109
742.80 0.1089
742.90 0.1087
743.00 0.1085
743.10 0.1083
743.20 0.1082
743.30 0.108
743.40 0.1078
743.50 0.1077
743.60 0.1075
743.70 0.1073
743.80 0.1072
743.90 0.107
744.00 0.1068
744.10 0.1066
744.20 0.1065
744.30 0.1063
744.40 0.1061
744.50 0.106
744.60 0.1058
744.70 0.1056
744.80 0.1055
744.90 0.1053
745.00 0.1051
745.10 0.105
745.20 0.1048
745.30 0.1046
745.40 0.1045
745.50 0.1043
745.60 0.1041
745.70 0.1039
745.80 0.1038
745.90 0.1036
746.00 0.1034
746.10 0.1033
746.20 0.1031
746.30 0.1029
746.40 0.1028
746.50 0.1026
746.60 0.1024
746.70 0.1023
746.80 0.1021
746.90 0.1019
747.00 0.1018
747.10 0.1016
747.20 0.1014
747.30 0.1013
747.40 0.1011
747.50 0.1009
747.60 0.1008
747.70 0.1006
747.80 0.1004
747.90 0.1003
748.00 0.1001
748.10 0.09994
748.20 0.09977
748.30 0.09961
748.40 0.09944
748.50 0.09928
748.60 0.09911
748.70 0.09895
748.80 0.09878
748.90 0.09861
749.00 0.09845
749.10 0.09828
749.20 0.09812
749.30 0.09795
749.40 0.09779
749.50 0.09762
749.60 0.09746
749.70 0.0973
749.80 0.09713
749.90 0.09697
750.00 0.0968
750.10 0.0967
750.20 0.0966
750.30 0.0965
750.40 0.0964
750.50 0.09629
750.60 0.09619
750.70 0.09609
750.80 0.09599
750.90 0.09589
751.00 0.09579
751.10 0.09569
751.20 0.09559
751.30 0.09548
751.40 0.09538
751.50 0.09528
751.60 0.09518
751.70 0.09508
751.80 0.09498
751.90 0.09488
752.00 0.09478
752.10 0.09468
752.20 0.09458
752.30 0.09448
752.40 0.09438
752.50 0.09428
752.60 0.09418
752.70 0.09407
752.80 0.09397
752.90 0.09387
753.00 0.09377
753.10 0.09367
753.20 0.09357
753.30 0.09347
753.40 0.09337
753.50 0.09327
753.60 0.09317
753.70 0.09307
753.80 0.09297
753.90 0.09287
754.00 0.09278
754.10 0.09268
754.20 0.09258
754.30 0.09248
754.40 0.09238
754.50 0.09228
754.60 0.09218
754.70 0.09208
754.80 0.09198
754.90 0.09188
755.00 0.09178
755.10 0.09168
755.20 0.09158
755.30 0.09148
755.40 0.09138
755.50 0.09129
755.60 0.09119
755.70 0.09109
755.80 0.09099
755.90 0.09089
756.00 0.09079
756.10 0.09069
756.20 0.09059
756.30 0.0905
756.40 0.0904
756.50 0.0903
756.60 0.0902
756.70 0.0901
756.80 0.09
756.90 0.08991
757.00 0.08981
757.10 0.08971
757.20 0.08961
757.30 0.08951
757.40 0.08941
757.50 0.08932
757.60 0.08922
757.70 0.08912
757.80 0.08902
757.90 0.08893
758.00 0.08883
758.10 0.08873
758.20 0.08863
758.30 0.08853
758.40 0.08844
758.50 0.08834
758.60 0.08824
758.70 0.08814
758.80 0.08805
758.90 0.08795
759.00 0.08785
759.10 0.08776
759.20 0.08766
759.30 0.08756
759.40 0.08746
759.50 0.08737
759.60 0.08727
759.70 0.08717
759.80 0.08708
759.90 0.08698
760.00 0.08688
760.10 0.08682
760.20 0.08676
760.30 0.0867
760.40 0.08664
760.50 0.08658
760.60 0.08652
760.70 0.08646
760.80 0.0864
760.90 0.08634
761.00 0.08628
761.10 0.08622
761.20 0.08616
761.30 0.0861
761.40 0.08604
761.50 0.08598
761.60 0.08592
761.70 0.08586
761.80 0.0858
761.90 0.08574
762.00 0.08568
762.10 0.08562
762.20 0.08556
762.30 0.0855
762.40 0.08544
762.50 0.08538
762.60 0.08532
762.70 0.08526
762.80 0.0852
762.90 0.08514
763.00 0.08508
763.10 0.08502
763.20 0.08496
763.30 0.0849
763.40 0.08484
763.50 0.08479
763.60 0.08473
763.70 0.08467
763.80 0.08461
763.90 0.08455
764.00 0.08449
764.10 0.08443
764.20 0.08437
764.30 0.08431
764.40 0.08425
764.50 0.08419
764.60 0.08413
764.70 0.08407
764.80 0.08402
764.90 0.08396
765.00 0.0839
765.10 0.08384
765.20 0.08378
765.30 0.08372
765.40 0.08366
765.50 0.0836
765.60 0.08354
765.70 0.08348
765.80 0.08343
765.90 0.08337
766.00 0.08331
766.10 0.08325
766.20 0.08319
766.30 0.08313
766.40 0.08307
766.50 0.08301
766.60 0.08296
766.70 0.0829
766.80 0.08284
766.90 0.08278
767.00 0.08272
767.10 0.08266
767.20 0.08261
767.30 0.08255
767.40 0.08249
767.50 0.08243
767.60 0.08237
767.70 0.08231
767.80 0.08226
767.90 0.0822
768.00 0.08214
768.10 0.08208
768.20 0.08202
768.30 0.08196
768.40 0.08191
768.50 0.08185
768.60 0.08179
768.70 0.08173
768.80 0.08167
768.90 0.08162
769.00 0.08156
769.10 0.0815
769.20 0.08144
769.30 0.08138
769.40 0.08133
769.50 0.08127
769.60 0.08121
769.70 0.08115
769.80 0.0811
769.90 0.08104
770.00 0.08098
770.10 0.08095
770.20 0.08092
770.30 0.08089
770.40 0.08086
770.50 0.08083
770.60 0.0808
770.70 0.08077
770.80 0.08074
770.90 0.08071
771.00 0.08068
771.10 0.08065
771.20 0.08062
771.30 0.08059
771.40 0.08056
771.50 0.08053
771.60 0.0805
771.70 0.08048
771.80 0.08045
771.90 0.08042
772.00 0.08039
772.10 0.08036
772.20 0.08033
772.30 0.0803
772.40 0.08027
772.50 0.08024
772.60 0.08021
772.70 0.08018
772.80 0.08015
772.90 0.08012
773.00 0.08009
773.10 0.08006
773.20 0.08003
773.30 0.08
773.40 0.07997
773.50 0.07994
773.60 0.07991
773.70 0.07989
773.80 0.07986
773.90 0.07983
774.00 0.0798
774.10 0.07977
774.20 0.07974
774.30 0.07971
774.40 0.07968
774.50 0.07965
774.60 0.07962
774.70 0.07959
774.80 0.07956
774.90 0.07953
775.00 0.0795
775.10 0.07948
775.20 0.07945
775.30 0.07942
775.40 0.07939
775.50 0.07936
775.60 0.07933
775.70 0.0793
775.80 0.07927
775.90 0.07924
776.00 0.07921
776.10 0.07918
776.20 0.07916
776.30 0.07913
776.40 0.0791
776.50 0.07907
776.60 0.07904
776.70 0.07901
776.80 0.07898
776.90 0.07895
777.00 0.07892
777.10 0.07889
777.20 0.07887
777.30 0.07884
777.40 0.07881
777.50 0.07878
777.60 0.07875
777.70 0.07872
777.80 0.07869
777.90 0.07866
778.00 0.07863
778.10 0.07861
778.20 0.07858
778.30 0.07855
778.40 0.07852
778.50 0.07849
778.60 0.07846
778.70 0.07843
778.80 0.0784
778.90 0.07838
779.00 0.07835
779.10 0.07832
779.20 0.07829
779.30 0.07826
779.40 0.07823
779.50 0.0782
779.60 0.07817
779.70 0.07815
779.80 0.07812
779.90 0.07809
780.00 0.07806
780.10 0.07808
780.20 0.0781
780.30 0.07813
780.40 0.07815
780.50 0.07817
780.60 0.07819
780.70 0.07821
780.80 0.07824
780.90 0.07826
781.00 0.07828
781.10 0.0783
781.20 0.07832
781.30 0.07834
781.40 0.07837
781.50 0.07839
781.60 0.07841
781.70 0.07843
781.80 0.07845
781.90 0.07848
782.00 0.0785
782.10 0.07852
782.20 0.07854
782.30 0.07856
782.40 0.07858
782.50 0.07861
782.60 0.07863
782.70 0.07865
782.80 0.07867
782.90 0.07869
783.00 0.07871
783.10 0.07873
783.20 0.07876
783.30 0.07878
783.40 0.0788
783.50 0.07882
783.60 0.07884
783.70 0.07886
783.80 0.07889
783.90 0.07891
784.00 0.07893
784.10 0.07895
784.20 0.07897
784.30 0.07899
784.40 0.07901
784.50 0.07904
784.60 0.07906
784.70 0.07908
784.80 0.0791
784.90 0.07912
785.00 0.07914
785.10 0.07916
785.20 0.07918
785.30 0.07921
785.40 0.07923
785.50 0.07925
785.60 0.07927
785.70 0.07929
785.80 0.07931
785.90 0.07933
786.00 0.07935
786.10 0.07938
786.20 0.0794
786.30 0.07942
786.40 0.07944
786.50 0.07946
786.60 0.07948
786.70 0.0795
786.80 0.07952
786.90 0.07954
787.00 0.07957
787.10 0.07959
787.20 0.07961
787.30 0.07963
787.40 0.07965
787.50 0.07967
787.60 0.07969
787.70 0.07971
787.80 0.07973
787.90 0.07975
788.00 0.07978
788.10 0.0798
788.20 0.07982
788.30 0.07984
788.40 0.07986
788.50 0.07988
788.60 0.0799
788.70 0.07992
788.80 0.07994
788.90 0.07996
789.00 0.07998
789.10 0.08
789.20 0.08003
789.30 0.08005
789.40 0.08007
789.50 0.08009
789.60 0.08011
789.70 0.08013
789.80 0.08015
789.90 0.08017
790.00 0.08019
790.10 0.08024
790.20 0.08029
790.30 0.08034
790.40 0.08039
790.50 0.08044
790.60 0.08049
790.70 0.08054
790.80 0.08059
790.90 0.08064
791.00 0.08069
791.10 0.08074
791.20 0.08079
791.30 0.08084
791.40 0.08088
791.50 0.08093
791.60 0.08098
791.70 0.08103
791.80 0.08108
791.90 0.08113
792.00 0.08118
792.10 0.08123
792.20 0.08128
792.30 0.08133
792.40 0.08138
792.50 0.08143
792.60 0.08148
792.70 0.08152
792.80 0.08157
792.90 0.08162
793.00 0.08167
793.10 0.08172
793.20 0.08177
793.30 0.08182
793.40 0.08187
793.50 0.08192
793.60 0.08196
793.70 0.08201
793.80 0.08206
793.90 0.08211
794.00 0.08216
794.10 0.08221
794.20 0.08226
794.30 0.08231
794.40 0.08235
794.50 0.0824
794.60 0.08245
794.70 0.0825
794.80 0.08255
794.90 0.0826
795.00 0.08265
795.10 0.08269
795.20 0.08274
795.30 0.08279
795.40 0.08284
795.50 0.08289
795.60 0.08294
795.70 0.08298
795.80 0.08303
795.90 0.08308
796.00 0.08313
796.10 0.08318
796.20 0.08322
796.30 0.08327
796.40 0.08332
796.50 0.08337
796.60 0.08342
796.70 0.08346
796.80 0.08351
796.90 0.08356
797.00 0.08361
797.10 0.08366
797.20 0.0837
797.30 0.08375
797.40 0.0838
797.50 0.08385
797.60 0.08389
797.70 0.08394
797.80 0.08399
797.90 0.08404
798.00 0.08409
798.10 0.08413
798.20 0.08418
798.30 0.08423
798.40 0.08428
798.50 0.08432
798.60 0.08437
798.70 0.08442
798.80 0.08447
798.90 0.08451
799.00 0.08456
799.10 0.08461
799.20 0.08465
799.30 0.0847
799.40 0.08475
799.50 0.0848
799.60 0.08484
799.70 0.08489
799.80 0.08494
799.90 0.08499
800.00 0.08503
800.10 0.08506
800.20 0.08509
800.30 0.08511
800.40 0.08514
800.50 0.08517
800.60 0.08519
800.70 0.08522
800.80 0.08525
800.90 0.08528
801.00 0.0853
801.10 0.08533
801.20 0.08536
801.30 0.08538
801.40 0.08541
801.50 0.08544
801.60 0.08546
801.70 0.08549
801.80 0.08552
801.90 0.08554
802.00 0.08557
802.10 0.0856
802.20 0.08563
802.30 0.08565
802.40 0.08568
802.50 0.08571
802.60 0.08573
802.70 0.08576
802.80 0.08579
802.90 0.08581
803.00 0.08584
803.10 0.08587
803.20 0.08589
803.30 0.08592
803.40 0.08595
803.50 0.08597
803.60 0.086
803.70 0.08603
803.80 0.08605
803.90 0.08608
804.00 0.0861
804.10 0.08613
804.20 0.08616
804.30 0.08618
804.40 0.08621
804.50 0.08624
804.60 0.08626
804.70 0.08629
804.80 0.08632
804.90 0.08634
805.00 0.08637
805.10 0.0864
805.20 0.08642
805.30 0.08645
805.40 0.08647
805.50 0.0865
805.60 0.08653
805.70 0.08655
805.80 0.08658
805.90 0.08661
806.00 0.08663
806.10 0.08666
806.20 0.08668
806.30 0.08671
806.40 0.08674
806.50 0.08676
806.60 0.08679
806.70 0.08681
806.80 0.08684
806.90 0.08687
807.00 0.08689
807.10 0.08692
807.20 0.08694
807.30 0.08697
807.40 0.087
807.50 0.08702
807.60 0.08705
807.70 0.08707
807.80 0.0871
807.90 0.08713
808.00 0.08715
808.10 0.08718
808.20 0.0872
808.30 0.08723
808.40 0.08726
808.50 0.08728
808.60 0.08731
808.70 0.08733
808.80 0.08736
808.90 0.08738
809.00 0.08741
809.10 0.08744
809.20 0.08746
809.30 0.08749
809.40 0.08751
809.50 0.08754
809.60 0.08756
809.70 0.08759
809.80 0.08762
809.90 0.08764
810.00 0.08767
810.10 0.08768
810.20 0.08769
810.30 0.0877
810.40 0.08772
810.50 0.08773
810.60 0.08774
810.70 0.08776
810.80 0.08777
810.90 0.08778
811.00 0.08779
811.10 0.08781
811.20 0.08782
811.30 0.08783
811.40 0.08784
811.50 0.08786
811.60 0.08787
811.70 0.08788
811.80 0.0879
811.90 0.08791
812.00 0.08792
812.10 0.08793
812.20 0.08795
812.30 0.08796
812.40 0.08797
812.50 0.08798
812.60 0.088
812.70 0.08801
812.80 0.08802
812.90 0.08803
813.00 0.08805
813.10 0.08806
813.20 0.08807
813.30 0.08808
813.40 0.0881
813.50 0.08811
813.60 0.08812
813.70 0.08813
813.80 0.08815
813.90 0.08816
814.00 0.08817
814.10 0.08818
814.20 0.0882
814.30 0.08821
814.40 0.08822
814.50 0.08823
814.60 0.08825
814.70 0.08826
814.80 0.08827
814.90 0.08828
815.00 0.0883
815.10 0.08831
815.20 0.08832
815.30 0.08833
815.40 0.08835
815.50 0.08836
815.60 0.08837
815.70 0.08838
815.80 0.08839
815.90 0.08841
816.00 0.08842
816.10 0.08843
816.20 0.08844
816.30 0.08846
816.40 0.08847
816.50 0.08848
816.60 0.08849
816.70 0.08851
816.80 0.08852
816.90 0.08853
817.00 0.08854
817.10 0.08855
817.20 0.08857
817.30 0.08858
817.40 0.08859
817.50 0.0886
817.60 0.08861
817.70 0.08863
817.80 0.08864
817.90 0.08865
818.00 0.08866
818.10 0.08868
818.20 0.08869
818.30 0.0887
818.40 0.08871
818.50 0.08872
818.60 0.08874
818.70 0.08875
818.80 0.08876
818.90 0.08877
819.00 0.08878
819.10 0.0888
819.20 0.08881
819.30 0.08882
819.40 0.08883
819.50 0.08884
819.60 0.08886
819.70 0.08887
819.80 0.08888
819.90 0.08889
820.00 0.0889
820.10 0.08892
820.20 0.08895
820.30 0.08898
820.40 0.08901
820.50 0.08904
820.60 0.08907
820.70 0.0891
820.80 0.08913
820.90 0.08916
821.00 0.08919
821.10 0.08922
821.20 0.08925
821.30 0.08928
821.40 0.08931
821.50 0.08934
821.60 0.08937
821.70 0.0894
821.80 0.08943
821.90 0.08946
822.00 0.08949
822.10 0.08953
822.20 0.08958
822.30 0.08962
822.40 0.08966
822.50 0.08971
822.60 0.08975
822.70 0.08979
822.80 0.08983
822.90 0.08988
823.00 0.08992
823.10 0.08996
823.20 0.09
823.30 0.09005
823.40 0.09009
823.50 0.09013
823.60 0.09017
823.70 0.09022
823.80 0.09026
823.90 0.0903
824.00 0.09034
824.10 0.09039
824.20 0.09043
824.30 0.09047
824.40 0.09051
824.50 0.09056
824.60 0.0906
824.70 0.09064
824.80 0.09068
824.90 0.09072
825.00 0.09077
825.10 0.09081
825.20 0.09085
825.30 0.09089
825.40 0.09093
825.50 0.09098
825.60 0.09102
825.70 0.09106
825.80 0.0911
825.90 0.09114
826.00 0.09119
826.10 0.09123
826.20 0.09127
826.30 0.09131
826.40 0.09135
826.50 0.0914
826.60 0.09144
826.70 0.09148
826.80 0.09152
826.90 0.09156
827.00 0.0916
827.10 0.09165
827.20 0.0917
827.30 0.09175
827.40 0.0918
827.50 0.09185
827.60 0.0919
827.70 0.09195
827.80 0.092
827.90 0.09205
828.00 0.0921
828.10 0.09215
828.20 0.0922
828.30 0.09225
828.40 0.0923
828.50 0.09235
828.60 0.0924
828.70 0.09245
828.80 0.0925
828.90 0.09255
829.00 0.0926
829.10 0.09265
829.20 0.09269
829.30 0.09274
829.40 0.09279
829.50 0.09284
829.60 0.09289
829.70 0.09294
829.80 0.09299
829.90 0.09304
830.00 0.09309
830.10 0.09314
830.20 0.09319
830.30 0.09323
830.40 0.09328
830.50 0.09333
830.60 0.09338
830.70 0.09343
830.80 0.09348
830.90 0.09353
831.00 0.09358
831.10 0.09363
831.20 0.09367
831.30 0.09372
831.40 0.09377
831.50 0.09382
831.60 0.09387
831.70 0.09392
831.80 0.09397
831.90 0.09401
832.00 0.09406
832.10 0.0941
832.20 0.09414
832.30 0.09418
832.40 0.09421
832.50 0.09425
832.60 0.09429
832.70 0.09432
832.80 0.09436
832.90 0.0944
833.00 0.09444
833.10 0.09447
833.20 0.09451
833.30 0.09455
833.40 0.09458
833.50 0.09462
833.60 0.09466
833.70 0.0947
833.80 0.09473
833.90 0.09477
834.00 0.09481
834.10 0.09484
834.20 0.09488
834.30 0.09492
834.40 0.09495
834.50 0.09499
834.60 0.09503
834.70 0.09507
834.80 0.0951
834.90 0.09514
835.00 0.09518
835.10 0.09521
835.20 0.09525
835.30 0.09529
835.40 0.09532
835.50 0.09536
835.60 0.0954
835.70 0.09543
835.80 0.09547
835.90 0.09551
836.00 0.09554
836.10 0.09558
836.20 0.09562
836.30 0.09565
836.40 0.09569
836.50 0.09572
836.60 0.09576
836.70 0.0958
836.80 0.09583
836.90 0.09587
837.00 0.09591
837.10 0.09594
837.20 0.09596
837.30 0.09599
837.40 0.09602
837.50 0.09605
837.60 0.09608
837.70 0.09611
837.80 0.09614
837.90 0.09617
838.00 0.09619
838.10 0.09622
838.20 0.09625
838.30 0.09628
838.40 0.09631
838.50 0.09634
838.60 0.09637
838.70 0.09639
838.80 0.09642
838.90 0.09645
839.00 0.09648
839.10 0.09651
839.20 0.09654
839.30 0.09656
839.40 0.09659
839.50 0.09662
839.60 0.09665
839.70 0.09668
839.80 0.09671
839.90 0.09673
840.00 0.09676
840.10 0.09679
840.20 0.09682
840.30 0.09685
840.40 0.09688
840.50 0.0969
840.60 0.09693
840.70 0.09696
840.80 0.09699
840.90 0.09702
841.00 0.09704
841.10 0.09707
841.20 0.0971
841.30 0.09713
841.40 0.09716
841.50 0.09719
841.60 0.09721
841.70 0.09724
841.80 0.09727
841.90 0.0973
842.00 0.09733
842.10 0.09735
842.20 0.09737
842.30 0.09739
842.40 0.09741
842.50 0.09743
842.60 0.09745
842.70 0.09747
842.80 0.09749
842.90 0.09751
843.00 0.09753
843.10 0.09755
843.20 0.09757
843.30 0.09759
843.40 0.09761
843.50 0.09763
843.60 0.09765
843.70 0.09767
843.80 0.09769
843.90 0.09771
844.00 0.09773
844.10 0.09775
844.20 0.09777
844.30 0.09779
844.40 0.09781
844.50 0.09783
844.60 0.09785
844.70 0.09787
844.80 0.09789
844.90 0.09791
845.00 0.09793
845.10 0.09794
845.20 0.09796
845.30 0.09798
845.40 0.098
845.50 0.09802
845.60 0.09804
845.70 0.09806
845.80 0.09808
845.90 0.0981
846.00 0.09812
846.10 0.09814
846.20 0.09816
846.30 0.09818
846.40 0.0982
846.50 0.09822
846.60 0.09824
846.70 0.09826
846.80 0.09828
846.90 0.0983
847.00 0.09832
847.10 0.09834
847.20 0.09836
847.30 0.09839
847.40 0.09841
847.50 0.09843
847.60 0.09845
847.70 0.09847
847.80 0.0985
847.90 0.09852
848.00 0.09854
848.10 0.09856
848.20 0.09858
848.30 0.09861
848.40 0.09863
848.50 0.09865
848.60 0.09867
848.70 0.09869
848.80 0.09871
848.90 0.09874
849.00 0.09876
849.10 0.09878
849.20 0.0988
849.30 0.09882
849.40 0.09885
849.50 0.09887
849.60 0.09889
849.70 0.09891
849.80 0.09893
849.90 0.09895
850.00 0.09898
850.10 0.099
850.20 0.09902
850.30 0.09904
850.40 0.09906
850.50 0.09908
850.60 0.09911
850.70 0.09913
850.80 0.09915
850.90 0.09917
851.00 0.09919
851.10 0.09921
851.20 0.09924
851.30 0.09926
851.40 0.09928
851.50 0.0993
851.60 0.09932
851.70 0.09934
851.80 0.09937
851.90 0.09939
852.00 0.09941
852.10 0.09943
852.20 0.09946
852.30 0.09949
852.40 0.09951
852.50 0.09954
852.60 0.09956
852.70 0.09959
852.80 0.09962
852.90 0.09964
853.00 0.09967
853.10 0.0997
853.20 0.09972
853.30 0.09975
853.40 0.09977
853.50 0.0998
853.60 0.09983
853.70 0.09985
853.80 0.09988
853.90 0.0999
854.00 0.09993
854.10 0.09995
854.20 0.09998
854.30 0.1
854.40 0.1
854.50 0.1001
854.60 0.1001
854.70 0.1001
854.80 0.1001
854.90 0.1002
855.00 0.1002
855.10 0.1002
855.20 0.1002
855.30 0.1003
855.40 0.1003
855.50 0.1003
855.60 0.1003
855.70 0.1004
855.80 0.1004
855.90 0.1004
856.00 0.1004
856.10 0.1005
856.20 0.1005
856.30 0.1005
856.40 0.1005
856.50 0.1006
856.60 0.1006
856.70 0.1006
856.80 0.1006
856.90 0.1007
857.00 0.1007
857.10 0.1007
857.20 0.1008
857.30 0.1008
857.40 0.1008
857.50 0.1009
857.60 0.1009
857.70 0.1009
857.80 0.1009
857.90 0.101
858.00 0.101
858.10 0.101
858.20 0.1011
858.30 0.1011
858.40 0.1011
858.50 0.1012
858.60 0.1012
858.70 0.1012
858.80 0.1012
858.90 0.1013
859.00 0.1013
859.10 0.1013
859.20 0.1014
859.30 0.1014
859.40 0.1014
859.50 0.1015
859.60 0.1015
859.70 0.1015
859.80 0.1015
859.90 0.1016
860.00 0.1016
860.10 0.1016
860.20 0.1017
860.30 0.1017
860.40 0.1017
860.50 0.1017
860.60 0.1018
860.70 0.1018
860.80 0.1018
860.90 0.1019
861.00 0.1019
861.10 0.1019
861.20 0.102
861.30 0.102
861.40 0.102
861.50 0.102
861.60 0.1021
861.70 0.1021
861.80 0.1021
861.90 0.1022
862.00 0.1022
862.10 0.1022
862.20 0.1023
862.30 0.1023
862.40 0.1023
862.50 0.1024
862.60 0.1024
862.70 0.1025
862.80 0.1025
862.90 0.1025
863.00 0.1026
863.10 0.1026
863.20 0.1026
863.30 0.1027
863.40 0.1027
863.50 0.1028
863.60 0.1028
863.70 0.1028
863.80 0.1029
863.90 0.1029
864.00 0.103
864.10 0.103
864.20 0.103
864.30 0.1031
864.40 0.1031
864.50 0.1031
864.60 0.1032
864.70 0.1032
864.80 0.1033
864.90 0.1033
865.00 0.1033
865.10 0.1034
865.20 0.1034
865.30 0.1034
865.40 0.1035
865.50 0.1035
865.60 0.1036
865.70 0.1036
865.80 0.1036
865.90 0.1037
866.00 0.1037
866.10 0.1037
866.20 0.1038
866.30 0.1038
866.40 0.1039
866.50 0.1039
866.60 0.1039
866.70 0.104
866.80 0.104
866.90 0.104
867.00 0.1041
867.10 0.1041
867.20 0.1041
867.30 0.1042
867.40 0.1042
867.50 0.1042
867.60 0.1043
867.70 0.1043
867.80 0.1043
867.90 0.1043
868.00 0.1044
868.10 0.1044
868.20 0.1044
868.30 0.1045
868.40 0.1045
868.50 0.1045
868.60 0.1046
868.70 0.1046
868.80 0.1046
868.90 0.1046
869.00 0.1047
869.10 0.1047
869.20 0.1047
869.30 0.1048
869.40 0.1048
869.50 0.1048
869.60 0.1049
869.70 0.1049
869.80 0.1049
869.90 0.1049
870.00 0.105
870.10 0.105
870.20 0.105
870.30 0.1051
870.40 0.1051
870.50 0.1051
870.60 0.1052
870.70 0.1052
870.80 0.1052
870.90 0.1052
871.00 0.1053
871.10 0.1053
871.20 0.1053
871.30 0.1054
871.40 0.1054
871.50 0.1054
871.60 0.1055
871.70 0.1055
871.80 0.1055
871.90 0.1055
872.00 0.1056
872.10 0.1056
872.20 0.1056
872.30 0.1056
872.40 0.1057
872.50 0.1057
872.60 0.1057
872.70 0.1057
872.80 0.1058
872.90 0.1058
873.00 0.1058
873.10 0.1058
873.20 0.1058
873.30 0.1059
873.40 0.1059
873.50 0.1059
873.60 0.1059
873.70 0.106
873.80 0.106
873.90 0.106
874.00 0.106
874.10 0.1061
874.20 0.1061
874.30 0.1061
874.40 0.1061
874.50 0.1061
874.60 0.1062
874.70 0.1062
874.80 0.1062
874.90 0.1062
875.00 0.1063
875.10 0.1063
875.20 0.1063
875.30 0.1063
875.40 0.1064
875.50 0.1064
875.60 0.1064
875.70 0.1064
875.80 0.1064
875.90 0.1065
876.00 0.1065
876.10 0.1065
876.20 0.1065
876.30 0.1066
876.40 0.1066
876.50 0.1066
876.60 0.1066
876.70 0.1067
876.80 0.1067
876.90 0.1067
877.00 0.1067
877.10 0.1067
877.20 0.1067
877.30 0.1067
877.40 0.1067
877.50 0.1067
877.60 0.1067
877.70 0.1067
877.80 0.1067
877.90 0.1067
878.00 0.1067
878.10 0.1067
878.20 0.1067
878.30 0.1067
878.40 0.1067
878.50 0.1067
878.60 0.1067
878.70 0.1067
878.80 0.1067
878.90 0.1067
879.00 0.1067
879.10 0.1067
879.20 0.1067
879.30 0.1067
879.40 0.1067
879.50 0.1067
879.60 0.1067
879.70 0.1067
879.80 0.1067
879.90 0.1067
880.00 0.1067
880.10 0.1067
880.20 0.1067
880.30 0.1067
880.40 0.1067
880.50 0.1067
880.60 0.1067
880.70 0.1067
880.80 0.1067
880.90 0.1067
881.00 0.1067
881.10 0.1067
881.20 0.1067
881.30 0.1067
881.40 0.1067
881.50 0.1067
881.60 0.1067
881.70 0.1067
881.80 0.1067
881.90 0.1067
882.00 0.1067
882.10 0.1067
882.20 0.1067
882.30 0.1067
882.40 0.1067
882.50 0.1066
882.60 0.1066
882.70 0.1066
882.80 0.1066
882.90 0.1066
883.00 0.1066
883.10 0.1065
883.20 0.1065
883.30 0.1065
883.40 0.1065
883.50 0.1065
883.60 0.1065
883.70 0.1064
883.80 0.1064
883.90 0.1064
884.00 0.1064
884.10 0.1064
884.20 0.1064
884.30 0.1064
884.40 0.1063
884.50 0.1063
884.60 0.1063
884.70 0.1063
884.80 0.1063
884.90 0.1063
885.00 0.1062
885.10 0.1062
885.20 0.1062
885.30 0.1062
885.40 0.1062
885.50 0.1062
885.60 0.1062
885.70 0.1061
885.80 0.1061
885.90 0.1061
886.00 0.1061
886.10 0.1061
886.20 0.1061
886.30 0.106
886.40 0.106
886.50 0.106
886.60 0.106
886.70 0.106
886.80 0.106
886.90 0.106
887.00 0.1059
887.10 0.1059
887.20 0.1059
887.30 0.1059
887.40 0.1058
887.50 0.1058
887.60 0.1058
887.70 0.1057
887.80 0.1057
887.90 0.1057
888.00 0.1056
888.10 0.1056
888.20 0.1056
888.30 0.1055
888.40 0.1055
888.50 0.1055
888.60 0.1055
888.70 0.1054
888.80 0.1054
888.90 0.1054
889.00 0.1053
889.10 0.1053
889.20 0.1053
889.30 0.1052
889.40 0.1052
889.50 0.1052
889.60 0.1052
889.70 0.1051
889.80 0.1051
889.90 0.1051
890.00 0.105
890.10 0.105
890.20 0.105
890.30 0.1049
890.40 0.1049
890.50 0.1049
890.60 0.1049
890.70 0.1048
890.80 0.1048
890.90 0.1048
891.00 0.1047
891.10 0.1047
891.20 0.1047
891.30 0.1046
891.40 0.1046
891.50 0.1046
891.60 0.1046
891.70 0.1045
891.80 0.1045
891.90 0.1045
892.00 0.1044
892.10 0.1044
892.20 0.1044
892.30 0.1043
892.40 0.1043
892.50 0.1043
892.60 0.1042
892.70 0.1042
892.80 0.1042
892.90 0.1041
893.00 0.1041
893.10 0.104
893.20 0.104
893.30 0.104
893.40 0.1039
893.50 0.1039
893.60 0.1039
893.70 0.1038
893.80 0.1038
893.90 0.1038
894.00 0.1037
894.10 0.1037
894.20 0.1037
894.30 0.1036
894.40 0.1036
894.50 0.1035
894.60 0.1035
894.70 0.1035
894.80 0.1034
894.90 0.1034
895.00 0.1034
895.10 0.1033
895.20 0.1033
895.30 0.1033
895.40 0.1032
895.50 0.1032
895.60 0.1032
895.70 0.1031
895.80 0.1031
895.90 0.1031
896.00 0.103
896.10 0.103
896.20 0.1029
896.30 0.1029
896.40 0.1029
896.50 0.1028
896.60 0.1028
896.70 0.1028
896.80 0.1027
896.90 0.1027
897.00 0.1027
897.10 0.1026
897.20 0.1026
897.30 0.1025
897.40 0.1025
897.50 0.1024
897.60 0.1024
897.70 0.1023
897.80 0.1023
897.90 0.1023
898.00 0.1022
898.10 0.1022
898.20 0.1021
898.30 0.1021
898.40 0.102
898.50 0.102
898.60 0.1019
898.70 0.1019
898.80 0.1019
898.90 0.1018
899.00 0.1018
899.10 0.1017
899.20 0.1017
899.30 0.1016
899.40 0.1016
899.50 0.1015
899.60 0.1015
899.70 0.1015
899.80 0.1014
899.90 0.1014
900.00 0.1013
900.10 0.1013
900.20 0.1012
900.30 0.1012
900.40 0.1011
900.50 0.1011
900.60 0.101
900.70 0.101
900.80 0.101
900.90 0.1009
901.00 0.1009
901.10 0.1008
901.20 0.1008
901.30 0.1007
901.40 0.1007
901.50 0.1006
901.60 0.1006
901.70 0.1006
901.80 0.1005
901.90 0.1005
902.00 0.1004
902.10 0.1004
902.20 0.1003
902.30 0.1003
902.40 0.1002
902.50 0.1002
902.60 0.1001
902.70 0.1001
902.80 0.1
902.90 0.09995
903.00 0.09989
903.10 0.09984
903.20 0.09979
903.30 0.09973
903.40 0.09968
903.50 0.09963
903.60 0.09957
903.70 0.09952
903.80 0.09947
903.90 0.09941
904.00 0.09936
904.10 0.09931
904.20 0.09925
904.30 0.0992
904.40 0.09915
904.50 0.09909
904.60 0.09904
904.70 0.09899
904.80 0.09894
904.90 0.09888
905.00 0.09883
905.10 0.09878
905.20 0.09872
905.30 0.09867
905.40 0.09862
905.50 0.09857
905.60 0.09851
905.70 0.09846
905.80 0.09841
905.90 0.09835
906.00 0.0983
906.10 0.09825
906.20 0.0982
906.30 0.09814
906.40 0.09809
906.50 0.09804
906.60 0.09799
906.70 0.09793
906.80 0.09788
906.90 0.09783
907.00 0.09777
907.10 0.09771
907.20 0.09765
907.30 0.09758
907.40 0.09752
907.50 0.09746
907.60 0.09739
907.70 0.09733
907.80 0.09726
907.90 0.0972
908.00 0.09714
908.10 0.09707
908.20 0.09701
908.30 0.09695
908.40 0.09688
908.50 0.09682
908.60 0.09676
908.70 0.09669
908.80 0.09663
908.90 0.09656
909.00 0.0965
909.10 0.09644
909.20 0.09637
909.30 0.09631
909.40 0.09625
909.50 0.09618
909.60 0.09612
909.70 0.09606
909.80 0.096
909.90 0.09593
910.00 0.09587
910.10 0.09581
910.20 0.09574
910.30 0.09568
910.40 0.09562
910.50 0.09555
910.60 0.09549
910.70 0.09543
910.80 0.09536
910.90 0.0953
911.00 0.09524
911.10 0.09518
911.20 0.09511
911.30 0.09505
911.40 0.09499
911.50 0.09492
911.60 0.09486
911.70 0.0948
911.80 0.09474
911.90 0.09467
912.00 0.09461
912.10 0.09454
912.20 0.09447
912.30 0.09439
912.40 0.09432
912.50 0.09425
912.60 0.09418
912.70 0.0941
912.80 0.09403
912.90 0.09396
913.00 0.09389
913.10 0.09382
913.20 0.09374
913.30 0.09367
913.40 0.0936
913.50 0.09353
913.60 0.09346
913.70 0.09338
913.80 0.09331
913.90 0.09324
914.00 0.09317
914.10 0.0931
914.20 0.09302
914.30 0.09295
914.40 0.09288
914.50 0.09281
914.60 0.09274
914.70 0.09267
914.80 0.09259
914.90 0.09252
915.00 0.09245
915.10 0.09238
915.20 0.09231
915.30 0.09224
915.40 0.09216
915.50 0.09209
915.60 0.09202
915.70 0.09195
915.80 0.09188
915.90 0.09181
916.00 0.09174
916.10 0.09167
916.20 0.09159
916.30 0.09152
916.40 0.09145
916.50 0.09138
916.60 0.09131
916.70 0.09124
916.80 0.09117
916.90 0.0911
917.00 0.09102
917.10 0.09094
917.20 0.09086
917.30 0.09078
917.40 0.0907
917.50 0.09062
917.60 0.09054
917.70 0.09046
917.80 0.09038
917.90 0.09029
918.00 0.09021
918.10 0.09013
918.20 0.09005
918.30 0.08997
918.40 0.08989
918.50 0.08981
918.60 0.08973
918.70 0.08965
918.80 0.08957
918.90 0.08949
919.00 0.08941
919.10 0.08933
919.20 0.08924
919.30 0.08916
919.40 0.08908
919.50 0.089
919.60 0.08892
919.70 0.08884
919.80 0.08876
919.90 0.08868
920.00 0.0886
920.10 0.08852
920.20 0.08844
920.30 0.08836
920.40 0.08828
920.50 0.0882
920.60 0.08812
920.70 0.08804
920.80 0.08796
920.90 0.08788
921.00 0.0878
921.10 0.08772
921.20 0.08764
921.30 0.08756
921.40 0.08748
921.50 0.0874
921.60 0.08732
921.70 0.08724
921.80 0.08716
921.90 0.08708
922.00 0.087
922.10 0.08691
922.20 0.08683
922.30 0.08674
922.40 0.08665
922.50 0.08657
922.60 0.08648
922.70 0.08639
922.80 0.08631
922.90 0.08622
923.00 0.08613
923.10 0.08604
923.20 0.08596
923.30 0.08587
923.40 0.08578
923.50 0.0857
923.60 0.08561
923.70 0.08552
923.80 0.08544
923.90 0.08535
924.00 0.08526
924.10 0.08518
924.20 0.08509
924.30 0.08501
924.40 0.08492
924.50 0.08483
924.60 0.08475
924.70 0.08466
924.80 0.08457
924.90 0.08449
925.00 0.0844
925.10 0.08432
925.20 0.08423
925.30 0.08414
925.40 0.08406
925.50 0.08397
925.60 0.08389
925.70 0.0838
925.80 0.08371
925.90 0.08363
926.00 0.08354
926.10 0.08346
926.20 0.08337
926.30 0.08328
926.40 0.0832
926.50 0.08311
926.60 0.08303
926.70 0.08294
926.80 0.08286
926.90 0.08277
927.00 0.08269
927.10 0.08259
927.20 0.0825
927.30 0.08241
927.40 0.08232
927.50 0.08222
927.60 0.08213
927.70 0.08204
927.80 0.08195
927.90 0.08185
928.00 0.08176
928.10 0.08167
928.20 0.08158
928.30 0.08148
928.40 0.08139
928.50 0.0813
928.60 0.08121
928.70 0.08112
928.80 0.08102
928.90 0.08093
929.00 0.08084
929.10 0.08075
929.20 0.08066
929.30 0.08056
929.40 0.08047
929.50 0.08038
929.60 0.08029
929.70 0.0802
929.80 0.08011
929.90 0.08001
930.00 0.07992
930.10 0.07983
930.20 0.07974
930.30 0.07965
930.40 0.07956
930.50 0.07947
930.60 0.07938
930.70 0.07928
930.80 0.07919
930.90 0.0791
931.00 0.07901
931.10 0.07892
931.20 0.07883
931.30 0.07874
931.40 0.07865
931.50 0.07856
931.60 0.07846
931.70 0.07837
931.80 0.07828
931.90 0.07819
932.00 0.0781
932.10 0.07801
932.20 0.07791
932.30 0.07782
932.40 0.07773
932.50 0.07764
932.60 0.07754
932.70 0.07745
932.80 0.07736
932.90 0.07727
933.00 0.07717
933.10 0.07708
933.20 0.07699
933.30 0.0769
933.40 0.0768
933.50 0.07671
933.60 0.07662
933.70 0.07653
933.80 0.07643
933.90 0.07634
934.00 0.07625
934.10 0.07616
934.20 0.07606
934.30 0.07597
934.40 0.07588
934.50 0.07579
934.60 0.07569
934.70 0.0756
934.80 0.0755
934.90 0.07541
935.00 0.07532
935.10 0.07522
935.20 0.07513
935.30 0.07504
935.40 0.07494
935.50 0.07485
935.60 0.07476
935.70 0.07466
935.80 0.07457
935.90 0.07448
936.00 0.07438
936.10 0.07429
936.20 0.0742
936.30 0.07411
936.40 0.07401
936.50 0.07392
936.60 0.07383
936.70 0.07373
936.80 0.07364
936.90 0.07355
937.00 0.07346
937.10 0.07336
937.20 0.07327
937.30 0.07317
937.40 0.07308
937.50 0.07299
937.60 0.07289
937.70 0.0728
937.80 0.07271
937.90 0.07261
938.00 0.07252
938.10 0.07243
938.20 0.07233
938.30 0.07224
938.40 0.07214
938.50 0.07205
938.60 0.07195
938.70 0.07186
938.80 0.07176
938.90 0.07167
939.00 0.07157
939.10 0.07148
939.20 0.07138
939.30 0.07129
939.40 0.07119
939.50 0.0711
939.60 0.071
939.70 0.07091
939.80 0.07081
939.90 0.07072
940.00 0.07062
940.10 0.07053
940.20 0.07043
940.30 0.07034
940.40 0.07024
940.50 0.07015
940.60 0.07006
940.70 0.06996
940.80 0.06987
940.90 0.06978
941.00 0.06968
941.10 0.06959
941.20 0.0695
941.30 0.0694
941.40 0.06931
941.50 0.06922
941.60 0.06913
941.70 0.06903
941.80 0.06894
941.90 0.06885
942.00 0.06875
942.10 0.06866
942.20 0.06857
942.30 0.06848
942.40 0.06838
942.50 0.06829
942.60 0.0682
942.70 0.06811
942.80 0.06801
942.90 0.06792
943.00 0.06783
943.10 0.06774
943.20 0.06764
943.30 0.06755
943.40 0.06746
943.50 0.06737
943.60 0.06727
943.70 0.06718
943.80 0.06709
943.90 0.067
944.00 0.06691
944.10 0.06681
944.20 0.06672
944.30 0.06663
944.40 0.06654
944.50 0.06645
944.60 0.06635
944.70 0.06626
944.80 0.06617
944.90 0.06608
945.00 0.06599
945.10 0.0659
945.20 0.0658
945.30 0.06571
945.40 0.06562
945.50 0.06553
945.60 0.06544
945.70 0.06535
945.80 0.06526
945.90 0.06516
946.00 0.06507
946.10 0.06498
946.20 0.06489
946.30 0.0648
946.40 0.06471
946.50 0.06462
946.60 0.06453
946.70 0.06443
946.80 0.06434
946.90 0.06425
947.00 0.06416
947.10 0.06407
947.20 0.06398
947.30 0.06389
947.40 0.0638
947.50 0.06371
947.60 0.06362
947.70 0.06353
947.80 0.06344
947.90 0.06335
948.00 0.06326
948.10 0.06317
948.20 0.06308
948.30 0.06299
948.40 0.0629
948.50 0.0628
948.60 0.06271
948.70 0.06262
948.80 0.06253
948.90 0.06244
949.00 0.06235
949.10 0.06227
949.20 0.06218
949.30 0.06209
949.40 0.062
949.50 0.06191
949.60 0.06182
949.70 0.06173
949.80 0.06164
949.90 0.06155
950.00 0.06146
950.10 0.06137
950.20 0.06128
950.30 0.06119
950.40 0.0611
950.50 0.06101
950.60 0.06092
950.70 0.06083
950.80 0.06074
950.90 0.06065
951.00 0.06056
951.10 0.06047
951.20 0.06038
951.30 0.06029
951.40 0.0602
951.50 0.06011
951.60 0.06002
951.70 0.05993
951.80 0.05984
951.90 0.05976
952.00 0.05967
952.10 0.05958
952.20 0.05949
952.30 0.0594
952.40 0.05931
952.50 0.05922
952.60 0.05913
952.70 0.05904
952.80 0.05895
952.90 0.05887
953.00 0.05878
953.10 0.05869
953.20 0.0586
953.30 0.05851
953.40 0.05842
953.50 0.05834
953.60 0.05825
953.70 0.05816
953.80 0.05807
953.90 0.05798
954.00 0.05789
954.10 0.05781
954.20 0.05772
954.30 0.05763
954.40 0.05754
954.50 0.05745
954.60 0.05737
954.70 0.05728
954.80 0.05719
954.90 0.0571
955.00 0.05701
955.10 0.05693
955.20 0.05684
955.30 0.05675
955.40 0.05666
955.50 0.05657
955.60 0.05649
955.70 0.0564
955.80 0.05631
955.90 0.05622
956.00 0.05613
956.10 0.05605
956.20 0.05596
956.30 0.05587
956.40 0.05578
956.50 0.05569
956.60 0.0556
956.70 0.05552
956.80 0.05543
956.90 0.05534
957.00 0.05525
957.10 0.05516
957.20 0.05508
957.30 0.05499
957.40 0.05491
957.50 0.05482
957.60 0.05473
957.70 0.05465
957.80 0.05456
957.90 0.05447
958.00 0.05439
958.10 0.0543
958.20 0.05421
958.30 0.05413
958.40 0.05404
958.50 0.05396
958.60 0.05387
958.70 0.05378
958.80 0.0537
958.90 0.05361
959.00 0.05353
959.10 0.05344
959.20 0.05335
959.30 0.05327
959.40 0.05318
959.50 0.0531
959.60 0.05301
959.70 0.05293
959.80 0.05284
959.90 0.05276
960.00 0.05267
960.10 0.05259
960.20 0.0525
960.30 0.05242
960.40 0.05233
960.50 0.05225
960.60 0.05216
960.70 0.05208
960.80 0.05199
960.90 0.05191
961.00 0.05182
961.10 0.05174
961.20 0.05165
961.30 0.05157
961.40 0.05148
961.50 0.0514
961.60 0.05131
961.70 0.05123
961.80 0.05115
961.90 0.05106
962.00 0.05098
962.10 0.05089
962.20 0.05081
962.30 0.05073
962.40 0.05064
962.50 0.05056
962.60 0.05048
962.70 0.05039
962.80 0.05031
962.90 0.05023
963.00 0.05014
963.10 0.05006
963.20 0.04998
963.30 0.04989
963.40 0.04981
963.50 0.04973
963.60 0.04964
963.70 0.04956
963.80 0.04948
963.90 0.04939
964.00 0.04931
964.10 0.04923
964.20 0.04915
964.30 0.04906
964.40 0.04898
964.50 0.04889
964.60 0.04881
964.70 0.04872
964.80 0.04864
964.90 0.04856
965.00 0.04847
965.10 0.04839
965.20 0.0483
965.30 0.04822
965.40 0.04813
965.50 0.04805
965.60 0.04796
965.70 0.04788
965.80 0.0478
965.90 0.04771
966.00 0.04763
966.10 0.04754
966.20 0.04746
966.30 0.04738
966.40 0.0473
966.50 0.04721
966.60 0.04713
966.70 0.04705
966.80 0.04697
966.90 0.04689
967.00 0.04681
967.10 0.04673
967.20 0.04665
967.30 0.04657
967.40 0.04649
967.50 0.04641
967.60 0.04633
967.70 0.04625
967.80 0.04617
967.90 0.04609
968.00 0.04601
968.10 0.04593
968.20 0.04585
968.30 0.04577
968.40 0.04569
968.50 0.04561
968.60 0.04553
968.70 0.04545
968.80 0.04537
968.90 0.04529
969.00 0.04522
969.10 0.04514
969.20 0.04506
969.30 0.04498
969.40 0.0449
969.50 0.04482
969.60 0.04474
969.70 0.04467
969.80 0.04459
969.90 0.04451
970.00 0.04443
970.10 0.04435
970.20 0.04427
970.30 0.04419
970.40 0.04412
970.50 0.04404
970.60 0.04396
970.70 0.04389
970.80 0.04381
970.90 0.04373
971.00 0.04366
971.10 0.04358
971.20 0.0435
971.30 0.04342
971.40 0.04335
971.50 0.04327
971.60 0.04319
971.70 0.04312
971.80 0.04304
971.90 0.04296
972.00 0.04289
972.10 0.04281
972.20 0.04274
972.30 0.04266
972.40 0.04259
972.50 0.04251
972.60 0.04244
972.70 0.04236
972.80 0.04228
972.90 0.04221
973.00 0.04213
973.10 0.04206
973.20 0.04198
973.30 0.04191
973.40 0.04183
973.50 0.04176
973.60 0.04168
973.70 0.04161
973.80 0.04153
973.90 0.04146
974.00 0.04138
974.10 0.04131
974.20 0.04123
974.30 0.04116
974.40 0.04108
974.50 0.04101
974.60 0.04094
974.70 0.04086
974.80 0.04079
974.90 0.04071
975.00 0.04064
975.10 0.04057
975.20 0.04049
975.30 0.04042
975.40 0.04034
975.50 0.04027
975.60 0.0402
975.70 0.04012
975.80 0.04005
975.90 0.03998
976.00 0.0399
976.10 0.03983
976.20 0.03975
976.30 0.03968
976.40 0.03961
976.50 0.03953
976.60 0.03946
976.70 0.03939
976.80 0.03931
976.90 0.03924
977.00 0.03917
977.10 0.0391
977.20 0.03903
977.30 0.03896
977.40 0.03889
977.50 0.03882
977.60 0.03875
977.70 0.03868
977.80 0.03861
977.90 0.03854
978.00 0.03847
978.10 0.0384
978.20 0.03833
978.30 0.03826
978.40 0.03819
978.50 0.03812
978.60 0.03805
978.70 0.03798
978.80 0.03792
978.90 0.03785
979.00 0.03778
979.10 0.03771
979.20 0.03764
979.30 0.03757
979.40 0.0375
979.50 0.03743
979.60 0.03736
979.70 0.03729
979.80 0.03723
979.90 0.03716
980.00 0.03709
980.10 0.03702
980.20 0.03695
980.30 0.03688
980.40 0.03681
980.50 0.03674
980.60 0.03667
980.70 0.03661
980.80 0.03654
980.90 0.03647
981.00 0.0364
981.10 0.03633
981.20 0.03626
981.30 0.03619
981.40 0.03613
981.50 0.03606
981.60 0.03599
981.70 0.03592
981.80 0.03585
981.90 0.03578
982.00 0.03572
982.10 0.03565
982.20 0.03558
982.30 0.03552
982.40 0.03545
982.50 0.03539
982.60 0.03532
982.70 0.03526
982.80 0.03519
982.90 0.03513
983.00 0.03506
983.10 0.03499
983.20 0.03493
983.30 0.03486
983.40 0.0348
983.50 0.03473
983.60 0.03467
983.70 0.0346
983.80 0.03454
983.90 0.03447
984.00 0.03441
984.10 0.03434
984.20 0.03428
984.30 0.03421
984.40 0.03415
984.50 0.03408
984.60 0.03402
984.70 0.03395
984.80 0.03389
984.90 0.03383
985.00 0.03377
985.10 0.03371
985.20 0.03365
985.30 0.03359
985.40 0.03353
985.50 0.03347
985.60 0.03341
985.70 0.03335
985.80 0.03329
985.90 0.03323
986.00 0.03317
986.10 0.03311
986.20 0.03305
986.30 0.03299
986.40 0.03292
986.50 0.03286
986.60 0.0328
986.70 0.03274
986.80 0.03268
986.90 0.03262
987.00 0.03256
987.10 0.0325
987.20 0.03244
987.30 0.03237
987.40 0.03231
987.50 0.03225
987.60 0.03218
987.70 0.03212
987.80 0.03206
987.90 0.032
988.00 0.03193
988.10 0.03187
988.20 0.03181
988.30 0.03174
988.40 0.03168
988.50 0.03162
988.60 0.03156
988.70 0.03149
988.80 0.03143
988.90 0.03137
989.00 0.03131
989.10 0.03124
989.20 0.03118
989.30 0.03112
989.40 0.03106
989.50 0.031
989.60 0.03093
989.70 0.03087
989.80 0.03081
989.90 0.03075
990.00 0.03068
990.10 0.03062
990.20 0.03056
990.30 0.0305
990.40 0.03044
990.50 0.03037
990.60 0.03031
990.70 0.03025
990.80 0.03019
990.90 0.03013
991.00 0.03006
991.10 0.03
991.20 0.02994
991.30 0.02988
991.40 0.02982
991.50 0.02976
991.60 0.02969
991.70 0.02963
991.80 0.02957
991.90 0.02951
992.00 0.02945
992.10 0.02939
992.20 0.02933
992.30 0.02927
992.40 0.0292
992.50 0.02914
992.60 0.02908
992.70 0.02902
992.80 0.02896
992.90 0.0289
993.00 0.02884
993.10 0.02878
993.20 0.02872
993.30 0.02865
993.40 0.02859
993.50 0.02853
993.60 0.02847
993.70 0.02841
993.80 0.02835
993.90 0.02829
994.00 0.02823
994.10 0.02817
994.20 0.02811
994.30 0.02805
994.40 0.02799
994.50 0.02792
994.60 0.02786
994.70 0.02779
994.80 0.02772
994.90 0.02764
995.00 0.02757
995.10 0.02749
995.20 0.02742
995.30 0.02734
995.40 0.02727
995.50 0.02719
995.60 0.02712
995.70 0.02705
995.80 0.027
995.90 0.02694
996.00 0.02688
996.10 0.02682
996.20 0.02676
996.30 0.02671
996.40 0.02665
996.50 0.02659
996.60 0.02653
996.70 0.02647
996.80 0.02642
996.90 0.02636
997.00 0.0263
997.10 0.02624
997.20 0.02619
997.30 0.02613
997.40 0.02608
997.50 0.02602
997.60 0.02596
997.70 0.02591
997.80 0.02585
997.90 0.0258
998.00 0.02574
998.10 0.02569
998.20 0.02564
998.30 0.02558
998.40 0.02553
998.50 0.02547
998.60 0.02542
998.70 0.02536
998.80 0.02531
998.90 0.02525
999.00 0.0252
999.10 0.02515
999.20 0.02509
999.30 0.02504
999.40 0.02498
999.50 0.02493
999.60 0.02487
999.70 0.02482
999.80 0.02477
999.90 0.02472
1000.00 0.02467
1000.10 0.02462
1000.20 0.02456
1000.30 0.02451
1000.40 0.02446
1000.50 0.02441
1000.60 0.02436
1000.70 0.02431
1000.80 0.02426
1000.90 0.0242
1001.00 0.02415
1001.10 0.0241
1001.20 0.02405
1001.30 0.024
1001.40 0.02395
1001.50 0.0239
1001.60 0.02384
1001.70 0.02379
1001.80 0.02374
1001.90 0.02369
1002.00 0.02365
1002.10 0.0236
1002.20 0.02355
1002.30 0.0235
1002.40 0.02345
1002.50 0.0234
1002.60 0.02335
1002.70 0.0233
1002.80 0.02325
1002.90 0.02321
1003.00 0.02316
1003.10 0.02311
1003.20 0.02306
1003.30 0.02301
1003.40 0.02296
1003.50 0.02292
1003.60 0.02287
1003.70 0.02282
1003.80 0.02277
1003.90 0.02273
1004.00 0.02268
1004.10 0.02263
1004.20 0.02259
1004.30 0.02254
1004.40 0.02249
1004.50 0.02245
1004.60 0.0224
1004.70 0.02235
1004.80 0.02231
1004.90 0.02224
1005.00 0.02218
1005.10 0.02213
1005.20 0.02209
1005.30 0.02204
1005.40 0.022
1005.50 0.02195
1005.60 0.02191
1005.70 0.02186
1005.80 0.02182
1005.90 0.02177
1006.00 0.02173
1006.10 0.02168
1006.20 0.02164
1006.30 0.0216
1006.40 0.02155
1006.50 0.02151
1006.60 0.02147
1006.70 0.02142
1006.80 0.02138
1006.90 0.02134
1007.00 0.02129
1007.10 0.02125
1007.20 0.02121
1007.30 0.02117
1007.40 0.02112
1007.50 0.02108
1007.60 0.02104
1007.70 0.021
1007.80 0.02096
1007.90 0.02092
1008.00 0.02088
1008.10 0.02084
1008.20 0.0208
1008.30 0.02076
1008.40 0.02072
1008.50 0.02068
1008.60 0.02064
1008.70 0.0206
1008.80 0.02056
1008.90 0.02051
1009.00 0.02047
1009.10 0.02043
1009.20 0.02039
1009.30 0.02035
1009.40 0.02031
1009.50 0.02027
1009.60 0.02023
1009.70 0.02019
1009.80 0.02016
1009.90 0.02012
1010.00 0.02008
1010.10 0.02004
1010.20 0.02001
1010.30 0.01997
1010.40 0.01993
1010.50 0.01989
1010.60 0.01986
1010.70 0.01982
1010.80 0.01978
1010.90 0.01974
1011.00 0.0197
1011.10 0.01967
1011.20 0.01963
1011.30 0.01959
1011.40 0.01955
1011.50 0.01952
1011.60 0.01948
1011.70 0.01944
1011.80 0.01941
1011.90 0.01937
1012.00 0.01933
1012.10 0.0193
1012.20 0.01926
1012.30 0.01923
1012.40 0.01919
1012.50 0.01916
1012.60 0.01912
1012.70 0.01909
1012.80 0.01905
1012.90 0.01902
1013.00 0.01898
1013.10 0.01895
1013.20 0.01892
1013.30 0.01888
1013.40 0.01885
1013.50 0.01881
1013.60 0.01878
1013.70 0.01874
1013.80 0.01871
1013.90 0.01868
1014.00 0.01864
1014.10 0.01861
1014.20 0.01858
1014.30 0.01854
1014.40 0.01851
1014.50 0.01848
1014.60 0.01844
1014.70 0.01841
1014.80 0.01838
1014.90 0.01835
1015.00 0.01833
1015.10 0.0183
1015.20 0.01827
1015.30 0.01824
1015.40 0.01821
1015.50 0.01818
1015.60 0.01815
1015.70 0.01812
1015.80 0.0181
1015.90 0.01807
1016.00 0.01804
1016.10 0.01801
1016.20 0.01798
1016.30 0.01795
1016.40 0.01792
1016.50 0.0179
1016.60 0.01787
1016.70 0.01784
1016.80 0.01781
1016.90 0.01777
1017.00 0.01774
1017.10 0.01771
1017.20 0.01768
1017.30 0.01765
1017.40 0.01762
1017.50 0.01759
1017.60 0.01756
1017.70 0.01753
1017.80 0.0175
1017.90 0.01747
1018.00 0.01744
1018.10 0.01741
1018.20 0.01738
1018.30 0.01735
1018.40 0.01732
1018.50 0.01728
1018.60 0.01725
1018.70 0.01722
1018.80 0.0172
1018.90 0.01717
1019.00 0.01714
1019.10 0.01711
1019.20 0.01708
1019.30 0.01705
1019.40 0.01702
1019.50 0.01699
1019.60 0.01696
1019.70 0.01693
1019.80 0.0169
1019.90 0.01687
1020.00 0.01684
1020.10 0.01681
1020.20 0.01678
1020.30 0.01675
1020.40 0.01672
1020.50 0.01669
1020.60 0.01666
1020.70 0.01664
1020.80 0.01661
1020.90 0.01658
1021.00 0.01655
1021.10 0.01652
1021.20 0.01649
1021.30 0.01646
1021.40 0.01644
1021.50 0.01641
1021.60 0.01638
1021.70 0.01635
1021.80 0.01632
1021.90 0.01629
1022.00 0.01626
1022.10 0.01624
1022.20 0.01621
1022.30 0.01618
1022.40 0.01615
1022.50 0.01613
1022.60 0.0161
1022.70 0.01607
1022.80 0.01604
1022.90 0.01602
1023.00 0.01599
1023.10 0.01596
1023.20 0.01593
1023.30 0.01591
1023.40 0.01588
1023.50 0.01585
1023.60 0.01582
1023.70 0.0158
1023.80 0.01577
1023.90 0.01574
1024.00 0.01571
1024.10 0.01569
1024.20 0.01566
1024.30 0.01563
1024.40 0.01561
1024.50 0.01558
1024.60 0.01555
1024.70 0.01552
1024.80 0.0155
1024.90 0.01547
1025.00 0.01544
1025.10 0.01542
1025.20 0.01539
1025.30 0.01536
1025.40 0.01533
1025.50 0.01531
1025.60 0.01528
1025.70 0.01525
1025.80 0.01523
1025.90 0.0152
1026.00 0.01517
1026.10 0.01515
1026.20 0.01512
1026.30 0.01509
1026.40 0.01507
1026.50 0.01504
1026.60 0.01501
1026.70 0.01498
1026.80 0.01496
1026.90 0.01493
1027.00 0.0149
1027.10 0.01488
1027.20 0.01486
1027.30 0.01483
1027.40 0.01481
1027.50 0.01478
1027.60 0.01476
1027.70 0.01474
1027.80 0.01471
1027.90 0.01469
1028.00 0.01466
1028.10 0.01464
1028.20 0.01462
1028.30 0.01459
1028.40 0.01457
1028.50 0.01454
1028.60 0.01452
1028.70 0.0145
1028.80 0.01447
1028.90 0.01445
1029.00 0.01442
1029.10 0.0144
1029.20 0.01438
1029.30 0.01435
1029.40 0.01433
1029.50 0.01431
1029.60 0.01428
1029.70 0.01426
1029.80 0.01423
1029.90 0.01421
1030.00 0.01419
1030.10 0.01416
1030.20 0.01414
1030.30 0.01411
1030.40 0.01409
1030.50 0.01407
1030.60 0.01404
1030.70 0.01402
1030.80 0.014
1030.90 0.01397
1031.00 0.01395
1031.10 0.01393
1031.20 0.0139
1031.30 0.01388
1031.40 0.01385
1031.50 0.01383
1031.60 0.01381
1031.70 0.01378
1031.80 0.01376
1031.90 0.01374
1032.00 0.01371
1032.10 0.01369
1032.20 0.01367
1032.30 0.01365
1032.40 0.01363
1032.50 0.0136
1032.60 0.01358
1032.70 0.01356
1032.80 0.01354
1032.90 0.01352
1033.00 0.0135
1033.10 0.01348
1033.20 0.01346
1033.30 0.01343
1033.40 0.01341
1033.50 0.01339
1033.60 0.01337
1033.70 0.01335
1033.80 0.01333
1033.90 0.01331
1034.00 0.01328
1034.10 0.01326
1034.20 0.01324
1034.30 0.01322
1034.40 0.0132
1034.50 0.01318
1034.60 0.01316
1034.70 0.01314
1034.80 0.01311
1034.90 0.01309
1035.00 0.01307
1035.10 0.01305
1035.20 0.01303
1035.30 0.01301
1035.40 0.01299
1035.50 0.01297
1035.60 0.01294
1035.70 0.01292
1035.80 0.0129
1035.90 0.01288
1036.00 0.01286
1036.10 0.01284
1036.20 0.01282
1036.30 0.0128
1036.40 0.01278
1036.50 0.01275
1036.60 0.01273
1036.70 0.01271
1036.80 0.01269
1036.90 0.01267
1037.00 0.01265
1037.10 0.01263
1037.20 0.01261
1037.30 0.01259
1037.40 0.01258
1037.50 0.01256
1037.60 0.01254
1037.70 0.01252
1037.80 0.0125
1037.90 0.01248
1038.00 0.01246
1038.10 0.01245
1038.20 0.01243
1038.30 0.01241
1038.40 0.01239
1038.50 0.01237
1038.60 0.01235
1038.70 0.01234
1038.80 0.01232
1038.90 0.0123
1039.00 0.01228
1039.10 0.01226
1039.20 0.01225
1039.30 0.01223
1039.40 0.01221
1039.50 0.01219
1039.60 0.01217
1039.70 0.01215
1039.80 0.01214
1039.90 0.01212
1040.00 0.0121
1040.10 0.01208
1040.20 0.01206
1040.30 0.01204
1040.40 0.01203
1040.50 0.01201
1040.60 0.01199
1040.70 0.01197
1040.80 0.01195
1040.90 0.01194
1041.00 0.01192
1041.10 0.0119
1041.20 0.01188
1041.30 0.01186
1041.40 0.01185
1041.50 0.01183
1041.60 0.01181
1041.70 0.01179
1041.80 0.01177
1041.90 0.01175
1042.00 0.01174
1042.10 0.01172
1042.20 0.01171
1042.30 0.01169
1042.40 0.01167
1042.50 0.01166
1042.60 0.01164
1042.70 0.01163
1042.80 0.01161
1042.90 0.01159
1043.00 0.01158
1043.10 0.01156
1043.20 0.01155
1043.30 0.01153
1043.40 0.01152
1043.50 0.0115
1043.60 0.01148
1043.70 0.01147
1043.80 0.01145
1043.90 0.01144
1044.00 0.01142
1044.10 0.01141
1044.20 0.01139
1044.30 0.01137
1044.40 0.01136
1044.50 0.01134
1044.60 0.01133
1044.70 0.01131
1044.80 0.0113
1044.90 0.01128
1045.00 0.01127
1045.10 0.01125
1045.20 0.01123
1045.30 0.01122
1045.40 0.0112
1045.50 0.01119
1045.60 0.01117
1045.70 0.01116
1045.80 0.01114
1045.90 0.01112
1046.00 0.01111
1046.10 0.01109
1046.20 0.01108
1046.30 0.01106
1046.40 0.01105
1046.50 0.01103
1046.60 0.01102
1046.70 0.011
1046.80 0.01098
1046.90 0.01097
1047.00 0.01095
1047.10 0.01094
1047.20 0.01093
1047.30 0.01091
1047.40 0.0109
1047.50 0.01089
1047.60 0.01087
1047.70 0.01086
1047.80 0.01085
1047.90 0.01083
1048.00 0.01082
1048.10 0.01081
1048.20 0.01079
1048.30 0.01078
1048.40 0.01077
1048.50 0.01075
1048.60 0.01074
1048.70 0.01073
1048.80 0.01071
1048.90 0.0107
1049.00 0.01069
1049.10 0.01067
1049.20 0.01066
1049.30 0.01065
1049.40 0.01063
1049.50 0.01062
1049.60 0.01061
1049.70 0.01059
1049.80 0.01058
1049.90 0.01057
1050.00 0.01055
1050.10 0.01054
1050.20 0.01053
1050.30 0.01051
1050.40 0.0105
1050.50 0.01049
1050.60 0.01047
1050.70 0.01046
1050.80 0.01045
1050.90 0.01043
1051.00 0.01042
1051.10 0.01041
1051.20 0.0104
1051.30 0.01038
1051.40 0.01037
1051.50 0.01036
1051.60 0.01034
1051.70 0.01033
1051.80 0.01032
1051.90 0.0103
1052.00 0.01029
1052.10 0.01028
1052.20 0.01027
1052.30 0.01025
1052.40 0.01024
1052.50 0.01023
1052.60 0.01022
1052.70 0.01021
1052.80 0.01019
1052.90 0.01018
1053.00 0.01017
1053.10 0.01016
1053.20 0.01014
1053.30 0.01013
1053.40 0.01012
1053.50 0.01011
1053.60 0.0101
1053.70 0.01008
1053.80 0.01007
1053.90 0.01006
1054.00 0.01005
1054.10 0.01004
1054.20 0.01002
1054.30 0.01001
1054.40 0.01
1054.50 0.009988
1054.60 0.009976
1054.70 0.009964
1054.80 0.009952
1054.90 0.009941
1055.00 0.009929
1055.10 0.009917
1055.20 0.009905
1055.30 0.009893
1055.40 0.009881
1055.50 0.009869
1055.60 0.009857
1055.70 0.009845
1055.80 0.009833
1055.90 0.009821
1056.00 0.009809
1056.10 0.009797
1056.20 0.009785
1056.30 0.009773
1056.40 0.009761
1056.50 0.009749
1056.60 0.009738
1056.70 0.009726
1056.80 0.009714
1056.90 0.009702
1057.00 0.00969
1057.10 0.009679
1057.20 0.009669
1057.30 0.009658
1057.40 0.009647
1057.50 0.009636
1057.60 0.009626
1057.70 0.009615
1057.80 0.009604
1057.90 0.009594
1058.00 0.009583
1058.10 0.009572
1058.20 0.009562
1058.30 0.009551
1058.40 0.00954
1058.50 0.00953
1058.60 0.009519
1058.70 0.009508
1058.80 0.009498
1058.90 0.009487
1059.00 0.009477
1059.10 0.009466
1059.20 0.009455
1059.30 0.009445
1059.40 0.009434
1059.50 0.009423
1059.60 0.009413
1059.70 0.009402
1059.80 0.009392
1059.90 0.009381
1060.00 0.00937
1060.10 0.00936
1060.20 0.009349
1060.30 0.009339
1060.40 0.009328
1060.50 0.009317
1060.60 0.009307
1060.70 0.009296
1060.80 0.009286
1060.90 0.009275
1061.00 0.009265
1061.10 0.009254
1061.20 0.009244
1061.30 0.009233
1061.40 0.009222
1061.50 0.009212
1061.60 0.009201
1061.70 0.009191
1061.80 0.00918
1061.90 0.00917
1062.00 0.009159
1062.10 0.00915
1062.20 0.009141
1062.30 0.009132
1062.40 0.009122
1062.50 0.009113
1062.60 0.009104
1062.70 0.009095
1062.80 0.009085
1062.90 0.009076
1063.00 0.009067
1063.10 0.009058
1063.20 0.009048
1063.30 0.009039
1063.40 0.00903
1063.50 0.009021
1063.60 0.009011
1063.70 0.009002
1063.80 0.008993
1063.90 0.008984
1064.00 0.008975
1064.10 0.008965
1064.20 0.008956
1064.30 0.008947
1064.40 0.008938
1064.50 0.008929
1064.60 0.00892
1064.70 0.00891
1064.80 0.008901
1064.90 0.008892
1065.00 0.008883
1065.10 0.008874
1065.20 0.008865
1065.30 0.008855
1065.40 0.008846
1065.50 0.008837
1065.60 0.008828
1065.70 0.008819
1065.80 0.00881
1065.90 0.0088
1066.00 0.008791
1066.10 0.008782
1066.20 0.008773
1066.30 0.008764
1066.40 0.008755
1066.50 0.008746
1066.60 0.008737
1066.70 0.008727
1066.80 0.008718
1066.90 0.008709
1067.00 0.0087
1067.10 0.008692
1067.20 0.008683
1067.30 0.008675
1067.40 0.008666
1067.50 0.008658
1067.60 0.008649
1067.70 0.008641
1067.80 0.008633
1067.90 0.008624
1068.00 0.008616
1068.10 0.008607
1068.20 0.008599
1068.30 0.00859
1068.40 0.008582
1068.50 0.008573
1068.60 0.008565
1068.70 0.008557
1068.80 0.008548
1068.90 0.00854
1069.00 0.008531
1069.10 0.008523
1069.20 0.008515
1069.30 0.008506
1069.40 0.008498
1069.50 0.008489
1069.60 0.008481
1069.70 0.008473
1069.80 0.008464
1069.90 0.008456
1070.00 0.008447
1070.10 0.008439
1070.20 0.008431
1070.30 0.008422
1070.40 0.008414
1070.50 0.008406
1070.60 0.008397
1070.70 0.008389
1070.80 0.008381
1070.90 0.008372
1071.00 0.008364
1071.10 0.008355
1071.20 0.008347
1071.30 0.008339
1071.40 0.00833
1071.50 0.008322
1071.60 0.008314
1071.70 0.008305
1071.80 0.008297
1071.90 0.008289
1072.00 0.00828
1072.10 0.008274
1072.20 0.008267
1072.30 0.00826
1072.40 0.008254
1072.50 0.008247
1072.60 0.00824
1072.70 0.008234
1072.80 0.008227
1072.90 0.00822
1073.00 0.008214
1073.10 0.008207
1073.20 0.0082
1073.30 0.008194
1073.40 0.008187
1073.50 0.008181
1073.60 0.008175
1073.70 0.008169
1073.80 0.008163
1073.90 0.008158
1074.00 0.008152
1074.10 0.008146
1074.20 0.00814
1074.30 0.008134
1074.40 0.008129
1074.50 0.008123
1074.60 0.008117
1074.70 0.008111
1074.80 0.008106
1074.90 0.0081
1075.00 0.008094
1075.10 0.008088
1075.20 0.008083
1075.30 0.008077
1075.40 0.008071
1075.50 0.008065
1075.60 0.00806
1075.70 0.008054
1075.80 0.008048
1075.90 0.008042
1076.00 0.008037
1076.10 0.008031
1076.20 0.008025
1076.30 0.008019
1076.40 0.008014
1076.50 0.008008
1076.60 0.008002
1076.70 0.007997
1076.80 0.007991
1076.90 0.007985
1077.00 0.007979
1077.10 0.007974
1077.20 0.007969
1077.30 0.007964
1077.40 0.007959
1077.50 0.007954
1077.60 0.00795
1077.70 0.007945
1077.80 0.00794
1077.90 0.007936
1078.00 0.007931
1078.10 0.007927
1078.20 0.007922
1078.30 0.007917
1078.40 0.007913
1078.50 0.007908
1078.60 0.007904
1078.70 0.007899
1078.80 0.007894
1078.90 0.00789
1079.00 0.007885
1079.10 0.007881
1079.20 0.007876
1079.30 0.007871
1079.40 0.007867
1079.50 0.007863
1079.60 0.007859
1079.70 0.007856
1079.80 0.007852
1079.90 0.007849
1080.00 0.007845
1080.10 0.007842
1080.20 0.007838
1080.30 0.007835
1080.40 0.007831
1080.50 0.007828
1080.60 0.007824
1080.70 0.007821
1080.80 0.007818
1080.90 0.007814
1081.00 0.007811
1081.10 0.007807
1081.20 0.007804
1081.30 0.0078
1081.40 0.007797
1081.50 0.007793
1081.60 0.00779
1081.70 0.007786
1081.80 0.007783
1081.90 0.007779
1082.00 0.007776
1082.10 0.007773
1082.20 0.007769
1082.30 0.007766
1082.40 0.007763
1082.50 0.00776
1082.60 0.007756
1082.70 0.007753
1082.80 0.00775
1082.90 0.007747
1083.00 0.007743
1083.10 0.00774
1083.20 0.007737
1083.30 0.007734
1083.40 0.00773
1083.50 0.007727
1083.60 0.007724
1083.70 0.007721
1083.80 0.007718
1083.90 0.007716
1084.00 0.007713
1084.10 0.00771
1084.20 0.007707
1084.30 0.007704
1084.40 0.007701
1084.50 0.007698
1084.60 0.007696
1084.70 0.007693
1084.80 0.007691
1084.90 0.007688
1085.00 0.007686
1085.10 0.007683
1085.20 0.007681
1085.30 0.007678
1085.40 0.007676
1085.50 0.007673
1085.60 0.007671
1085.70 0.007668
1085.80 0.007666
1085.90 0.007663
1086.00 0.007661
1086.10 0.007658
1086.20 0.007656
1086.30 0.007653
1086.40 0.007651
1086.50 0.007648
1086.60 0.007646
1086.70 0.007644
1086.80 0.007642
1086.90 0.00764
1087.00 0.007638
1087.10 0.007636
1087.20 0.007634
1087.30 0.007632
1087.40 0.00763
1087.50 0.007628
1087.60 0.007626
1087.70 0.007624
1087.80 0.007623
1087.90 0.007621
1088.00 0.007619
1088.10 0.007617
1088.20 0.007615
1088.30 0.007613
1088.40 0.007611
1088.50 0.007609
1088.60 0.007608
1088.70 0.007607
1088.80 0.007605
1088.90 0.007604
1089.00 0.007602
1089.10 0.007601
1089.20 0.007599
1089.30 0.007598
1089.40 0.007596
1089.50 0.007595
1089.60 0.007594
1089.70 0.007592
1089.80 0.007591
1089.90 0.007589
1090.00 0.007588
1090.10 0.007586
1090.20 0.007585
1090.30 0.007584
1090.40 0.007582
1090.50 0.007581
1090.60 0.00758
1090.70 0.007579
1090.80 0.007578
1090.90 0.007577
1091.00 0.007576
1091.10 0.007575
1091.20 0.007574
1091.30 0.007573
1091.40 0.007572
1091.50 0.007571
1091.60 0.00757
1091.70 0.007569
1091.80 0.007568
1091.90 0.007567
1092.00 0.007566
1092.10 0.007566
1092.20 0.007565
1092.30 0.007564
1092.40 0.007563
1092.50 0.007563
1092.60 0.007562
1092.70 0.007563
1092.80 0.00757
1092.90 0.007576
1093.00 0.007582
1093.10 0.007586
1093.20 0.007585
1093.30 0.007585
1093.40 0.007585
1093.50 0.007584
1093.60 0.007583
1093.70 0.007583
1093.80 0.007582
1093.90 0.007582
1094.00 0.007582
1094.10 0.007581
1094.20 0.007581
1094.30 0.00758
1094.40 0.00758
1094.50 0.00758
1094.60 0.007579
1094.70 0.007579
1094.80 0.007579
1094.90 0.007578
1095.00 0.007578
1095.10 0.007578
1095.20 0.007577
1095.30 0.007577
1095.40 0.007577
1095.50 0.007577
1095.60 0.007576
1095.70 0.007576
1095.80 0.007576
1095.90 0.007576
1096.00 0.007575
1096.10 0.007575
1096.20 0.007575
1096.30 0.007575
1096.40 0.007574
1096.50 0.007574
1096.60 0.007574
1096.70 0.007574
1096.80 0.007574
1096.90 0.007574
1097.00 0.007573
1097.10 0.007573
1097.20 0.007573
1097.30 0.007573
1097.40 0.007573
1097.50 0.007573
1097.60 0.007573
1097.70 0.007573
1097.80 0.007573
1097.90 0.007573
1098.00 0.007573
1098.10 0.007573
1098.20 0.007573
1098.30 0.007573
1098.40 0.007573
1098.50 0.007573
1098.60 0.007573
1098.70 0.007573
1098.80 0.007573
1098.90 0.007573
1099.00 0.007573
1099.10 0.007574
1099.20 0.007574
1099.30 0.007574
1099.40 0.007574
1099.50 0.007574
1099.60 0.007574
1099.70 0.007574
1099.80 0.007575
1099.90 0.007575
1100.00 0.007575
1100.10 0.007575
1100.20 0.007575
1100.30 0.007575
1100.40 0.007575
1100.50 0.007576
1100.60 0.007576
1100.70 0.007576
1100.80 0.007577
1100.90 0.007577
1101.00 0.007577
1101.10 0.007578
1101.20 0.007578
1101.30 0.007578
1101.40 0.007578
1101.50 0.007579
1101.60 0.007579
1101.70 0.007579
1101.80 0.00758
1101.90 0.00758
1102.00 0.00758
1102.10 0.007581
1102.20 0.007581
1102.30 0.007582
1102.40 0.007582
1102.50 0.007583
1102.60 0.007583
1102.70 0.007584
1102.80 0.007584
1102.90 0.007585
1103.00 0.007585
1103.10 0.007586
1103.20 0.007586
1103.30 0.007587
1103.40 0.007587
1103.50 0.007588
1103.60 0.007588
1103.70 0.007588
1103.80 0.007589
1103.90 0.007589
1104.00 0.00759
1104.10 0.00759
1104.20 0.00759
1104.30 0.007591
1104.40 0.007591
1104.50 0.007592
1104.60 0.007592
1104.70 0.007592
1104.80 0.007593
1104.90 0.007593
1105.00 0.007594
1105.10 0.007594
1105.20 0.007594
1105.30 0.007595
1105.40 0.007595
1105.50 0.007596
1105.60 0.007597
1105.70 0.007597
1105.80 0.007598
1105.90 0.007599
1106.00 0.0076
1106.10 0.007601
1106.20 0.007602
1106.30 0.007603
1106.40 0.007604
1106.50 0.007604
1106.60 0.007605
1106.70 0.007606
1106.80 0.007607
1106.90 0.007608
1107.00 0.007609
1107.10 0.00761
1107.20 0.007611
1107.30 0.007612
1107.40 0.007613
1107.50 0.007614
1107.60 0.007615
1107.70 0.007616
1107.80 0.007617
1107.90 0.007618
1108.00 0.007619
1108.10 0.007621
1108.20 0.007622
1108.30 0.007623
1108.40 0.007624
1108.50 0.007625
1108.60 0.007626
1108.70 0.007627
1108.80 0.007629
1108.90 0.00763
1109.00 0.007631
1109.10 0.007632
1109.20 0.007633
1109.30 0.007634
1109.40 0.007635
1109.50 0.007637
1109.60 0.007638
1109.70 0.00764
1109.80 0.007641
1109.90 0.007642
1110.00 0.007644
1110.10 0.007645
1110.20 0.007647
1110.30 0.007648
1110.40 0.00765
1110.50 0.007651
1110.60 0.007652
1110.70 0.007654
1110.80 0.007655
1110.90 0.007657
1111.00 0.007658
1111.10 0.00766
1111.20 0.007661
1111.30 0.007662
1111.40 0.007664
1111.50 0.007665
1111.60 0.007667
1111.70 0.007668
1111.80 0.00767
1111.90 0.007671
1112.00 0.007672
1112.10 0.007674
1112.20 0.007676
1112.30 0.007677
1112.40 0.007679
1112.50 0.007681
1112.60 0.007683
1112.70 0.007684
1112.80 0.007686
1112.90 0.007688
1113.00 0.007689
1113.10 0.007691
1113.20 0.007693
1113.30 0.007694
1113.40 0.007696
1113.50 0.007698
1113.60 0.0077
1113.70 0.007702
1113.80 0.007704
1113.90 0.007706
1114.00 0.007708
1114.10 0.00771
1114.20 0.007712
1114.30 0.007714
1114.40 0.007716
1114.50 0.007718
1114.60 0.00772
1114.70 0.007722
1114.80 0.007724
1114.90 0.007726
1115.00 0.007728
1115.10 0.00773
1115.20 0.007732
1115.30 0.007734
1115.40 0.007736
1115.50 0.007738
1115.60 0.00774
1115.70 0.007742
1115.80 0.007744
1115.90 0.007746
1116.00 0.007748
1116.10 0.00775
1116.20 0.007752
1116.30 0.007754
1116.40 0.007756
1116.50 0.007758
1116.60 0.00776
1116.70 0.007762
1116.80 0.007764
1116.90 0.007766
1117.00 0.007768
1117.10 0.007771
1117.20 0.007773
1117.30 0.007775
1117.40 0.007778
1117.50 0.00778
1117.60 0.007783
1117.70 0.007785
1117.80 0.007787
1117.90 0.00779
1118.00 0.007792
1118.10 0.007795
1118.20 0.007797
1118.30 0.007799
1118.40 0.007802
1118.50 0.007804
1118.60 0.007807
1118.70 0.007809
1118.80 0.007811
1118.90 0.007814
1119.00 0.007816
1119.10 0.007819
1119.20 0.007821
1119.30 0.007823
1119.40 0.007826
1119.50 0.007828
1119.60 0.00783
1119.70 0.007833
1119.80 0.007835
1119.90 0.007838
1120.00 0.00784
1120.10 0.007842
1120.20 0.007845
1120.30 0.007847
1120.40 0.007849
1120.50 0.007852
1120.60 0.007854
1120.70 0.007857
1120.80 0.007859
1120.90 0.007861
1121.00 0.007864
1121.10 0.007866
1121.20 0.007868
1121.30 0.007871
1121.40 0.007873
1121.50 0.007875
1121.60 0.007878
1121.70 0.00788
1121.80 0.007883
1121.90 0.007885
1122.00 0.007887
1122.10 0.007891
1122.20 0.007895
1122.30 0.007899
1122.40 0.007903
1122.50 0.007907
1122.60 0.007911
1122.70 0.007915
1122.80 0.007919
1122.90 0.007923
1123.00 0.007927
1123.10 0.007931
1123.20 0.007935
1123.30 0.007939
1123.40 0.007943
1123.50 0.007947
1123.60 0.007951
1123.70 0.007955
1123.80 0.007959
1123.90 0.007963
1124.00 0.007967
1124.10 0.007971
1124.20 0.007975
1124.30 0.007979
1124.40 0.007983
1124.50 0.007987
1124.60 0.007991
1124.70 0.007995
1124.80 0.007999
1124.90 0.008003
1125.00 0.008007
1125.10 0.008011
1125.20 0.008015
1125.30 0.008019
1125.40 0.008023
1125.50 0.008027
1125.60 0.008031
1125.70 0.008035
1125.80 0.008039
1125.90 0.008043
1126.00 0.008047
1126.10 0.00805
1126.20 0.008054
1126.30 0.008058
1126.40 0.008062
1126.50 0.008066
1126.60 0.00807
1126.70 0.008074
1126.80 0.008078
1126.90 0.008082
1127.00 0.008086
1127.10 0.008092
1127.20 0.008097
1127.30 0.008103
1127.40 0.008109
1127.50 0.008114
1127.60 0.00812
1127.70 0.008126
1127.80 0.008131
1127.90 0.008137
1128.00 0.008143
1128.10 0.008148
1128.20 0.008154
1128.30 0.00816
1128.40 0.008165
1128.50 0.008171
1128.60 0.008177
1128.70 0.008182
1128.80 0.008188
1128.90 0.008194
1129.00 0.008199
1129.10 0.008205
1129.20 0.008211
1129.30 0.008216
1129.40 0.008222
1129.50 0.008227
1129.60 0.008233
1129.70 0.008239
1129.80 0.008244
1129.90 0.00825
1130.00 0.008256
1130.10 0.008261
1130.20 0.008267
1130.30 0.008272
1130.40 0.008278
1130.50 0.008284
1130.60 0.008289
1130.70 0.008295
1130.80 0.008301
1130.90 0.008306
1131.00 0.008312
1131.10 0.008317
1131.20 0.008323
1131.30 0.008329
1131.40 0.008334
1131.50 0.00834
1131.60 0.008345
1131.70 0.008351
1131.80 0.008357
1131.90 0.008362
1132.00 0.008368
1132.10 0.008374
1132.20 0.00838
1132.30 0.008386
1132.40 0.008392
1132.50 0.008398
1132.60 0.008404
1132.70 0.00841
1132.80 0.008416
1132.90 0.008422
1133.00 0.008428
1133.10 0.008434
1133.20 0.00844
1133.30 0.008446
1133.40 0.008452
1133.50 0.008458
1133.60 0.008464
1133.70 0.00847
1133.80 0.008476
1133.90 0.008482
1134.00 0.008488
1134.10 0.008494
1134.20 0.008499
1134.30 0.008505
1134.40 0.008511
1134.50 0.008517
1134.60 0.008523
1134.70 0.008529
1134.80 0.008535
1134.90 0.008541
1135.00 0.008547
1135.10 0.008553
1135.20 0.008559
1135.30 0.008565
1135.40 0.008571
1135.50 0.008577
1135.60 0.008583
1135.70 0.008589
1135.80 0.008595
1135.90 0.008601
1136.00 0.008607
1136.10 0.008612
1136.20 0.008618
1136.30 0.008624
1136.40 0.00863
1136.50 0.008636
1136.60 0.008642
1136.70 0.008648
1136.80 0.008654
1136.90 0.00866
1137.00 0.008666
1137.10 0.008672
1137.20 0.008679
1137.30 0.008686
1137.40 0.008693
1137.50 0.008699
1137.60 0.008706
1137.70 0.008713
1137.80 0.00872
1137.90 0.008726
1138.00 0.008733
1138.10 0.00874
1138.20 0.008746
1138.30 0.008753
1138.40 0.00876
1138.50 0.008767
1138.60 0.008773
1138.70 0.00878
1138.80 0.008787
1138.90 0.008793
1139.00 0.0088
1139.10 0.008807
1139.20 0.008813
1139.30 0.00882
1139.40 0.008827
1139.50 0.008833
1139.60 0.00884
1139.70 0.008847
1139.80 0.008853
1139.90 0.00886
1140.00 0.008867
1140.10 0.008873
1140.20 0.00888
1140.30 0.008887
1140.40 0.008893
1140.50 0.0089
1140.60 0.008907
1140.70 0.008913
1140.80 0.00892
1140.90 0.008927
1141.00 0.008933
1141.10 0.00894
1141.20 0.008947
1141.30 0.008953
1141.40 0.00896
1141.50 0.008967
1141.60 0.008973
1141.70 0.00898
1141.80 0.008986
1141.90 0.008993
1142.00 0.009
1142.10 0.009008
1142.20 0.009016
1142.30 0.009023
1142.40 0.009031
1142.50 0.009039
1142.60 0.009047
1142.70 0.009055
1142.80 0.009063
1142.90 0.009071
1143.00 0.009079
1143.10 0.009087
1143.20 0.009095
1143.30 0.009103
1143.40 0.00911
1143.50 0.009118
1143.60 0.009126
1143.70 0.009134
1143.80 0.009142
1143.90 0.00915
1144.00 0.009158
1144.10 0.009166
1144.20 0.009174
1144.30 0.009181
1144.40 0.009189
1144.50 0.009197
1144.60 0.009205
1144.70 0.009213
1144.80 0.009221
1144.90 0.009229
1145.00 0.009236
1145.10 0.009244
1145.20 0.009252
1145.30 0.00926
1145.40 0.009268
1145.50 0.009276
1145.60 0.009283
1145.70 0.009291
1145.80 0.009299
1145.90 0.009307
1146.00 0.009315
1146.10 0.009323
1146.20 0.00933
1146.30 0.009338
1146.40 0.009346
1146.50 0.009354
1146.60 0.009362
1146.70 0.009369
1146.80 0.009377
1146.90 0.009385
1147.00 0.009393
1147.10 0.0094
1147.20 0.009407
1147.30 0.009414
1147.40 0.009421
1147.50 0.009429
1147.60 0.009436
1147.70 0.009443
1147.80 0.00945
1147.90 0.009457
1148.00 0.009464
1148.10 0.009471
1148.20 0.009478
1148.30 0.009486
1148.40 0.009493
1148.50 0.0095
1148.60 0.009507
1148.70 0.009514
1148.80 0.009521
1148.90 0.009528
1149.00 0.009535
1149.10 0.009542
1149.20 0.00955
1149.30 0.009557
1149.40 0.009564
1149.50 0.009571
1149.60 0.009578
1149.70 0.009585
1149.80 0.009592
1149.90 0.009599
1150.00 0.009606
1150.10 0.009613
1150.20 0.00962
1150.30 0.009628
1150.40 0.009635
1150.50 0.009642
1150.60 0.009649
1150.70 0.009656
1150.80 0.009663
1150.90 0.00967
1151.00 0.009677
1151.10 0.009684
1151.20 0.009691
1151.30 0.009698
1151.40 0.009705
1151.50 0.009712
1151.60 0.009719
1151.70 0.009726
1151.80 0.009733
1151.90 0.00974
1152.00 0.009747
1152.10 0.009755
1152.20 0.009763
1152.30 0.00977
1152.40 0.009778
1152.50 0.009785
1152.60 0.009793
1152.70 0.009801
1152.80 0.009808
1152.90 0.009816
1153.00 0.009823
1153.10 0.009831
1153.20 0.009839
1153.30 0.009846
1153.40 0.009854
1153.50 0.009861
1153.60 0.009869
1153.70 0.009876
1153.80 0.009884
1153.90 0.009892
1154.00 0.009899
1154.10 0.009907
1154.20 0.009914
1154.30 0.009922
1154.40 0.009929
1154.50 0.009937
1154.60 0.009944
1154.70 0.009952
1154.80 0.00996
1154.90 0.009967
1155.00 0.009975
1155.10 0.009982
1155.20 0.00999
1155.30 0.009997
1155.40 0.01
1155.50 0.01001
1155.60 0.01002
1155.70 0.01003
1155.80 0.01003
1155.90 0.01004
1156.00 0.01005
1156.10 0.01006
1156.20 0.01006
1156.30 0.01007
1156.40 0.01008
1156.50 0.01009
1156.60 0.01009
1156.70 0.0101
1156.80 0.01011
1156.90 0.01012
1157.00 0.01012
1157.10 0.01013
1157.20 0.01014
1157.30 0.01014
1157.40 0.01015
1157.50 0.01016
1157.60 0.01016
1157.70 0.01017
1157.80 0.01018
1157.90 0.01018
1158.00 0.01019
1158.10 0.0102
1158.20 0.0102
1158.30 0.01021
1158.40 0.01022
1158.50 0.01022
1158.60 0.01023
1158.70 0.01024
1158.80 0.01024
1158.90 0.01025
1159.00 0.01025
1159.10 0.01026
1159.20 0.01027
1159.30 0.01027
1159.40 0.01028
1159.50 0.01029
1159.60 0.01029
1159.70 0.0103
1159.80 0.01031
1159.90 0.01031
1160.00 0.01032
1160.10 0.01033
1160.20 0.01033
1160.30 0.01034
1160.40 0.01034
1160.50 0.01035
1160.60 0.01036
1160.70 0.01036
1160.80 0.01037
1160.90 0.01038
1161.00 0.01038
1161.10 0.01039
1161.20 0.0104
1161.30 0.0104
1161.40 0.01041
1161.50 0.01042
1161.60 0.01042
1161.70 0.01043
1161.80 0.01043
1161.90 0.01044
1162.00 0.01045
1162.10 0.01045
1162.20 0.01046
1162.30 0.01046
1162.40 0.01047
1162.50 0.01048
1162.60 0.01048
1162.70 0.01049
1162.80 0.01049
1162.90 0.0105
1163.00 0.0105
1163.10 0.01051
1163.20 0.01052
1163.30 0.01052
1163.40 0.01053
1163.50 0.01053
1163.60 0.01054
1163.70 0.01054
1163.80 0.01055
1163.90 0.01055
1164.00 0.01056
1164.10 0.01057
1164.20 0.01057
1164.30 0.01058
1164.40 0.01058
1164.50 0.01059
1164.60 0.01059
1164.70 0.0106
1164.80 0.01061
1164.90 0.01061
1165.00 0.01062
1165.10 0.01062
1165.20 0.01063
1165.30 0.01063
1165.40 0.01064
1165.50 0.01065
1165.60 0.01065
1165.70 0.01066
1165.80 0.01066
1165.90 0.01067
1166.00 0.01067
1166.10 0.01068
1166.20 0.01068
1166.30 0.01069
1166.40 0.0107
1166.50 0.0107
1166.60 0.01071
1166.70 0.01071
1166.80 0.01072
1166.90 0.01072
1167.00 0.01073
1167.10 0.01074
1167.20 0.01074
1167.30 0.01075
1167.40 0.01075
1167.50 0.01076
1167.60 0.01076
1167.70 0.01077
1167.80 0.01078
1167.90 0.01078
1168.00 0.01079
1168.10 0.01079
1168.20 0.0108
1168.30 0.0108
1168.40 0.01081
1168.50 0.01082
1168.60 0.01082
1168.70 0.01083
1168.80 0.01083
1168.90 0.01084
1169.00 0.01084
1169.10 0.01085
1169.20 0.01086
1169.30 0.01086
1169.40 0.01087
1169.50 0.01087
1169.60 0.01088
1169.70 0.01088
1169.80 0.01089
1169.90 0.01089
1170.00 0.0109
1170.10 0.01091
1170.20 0.01091
1170.30 0.01092
1170.40 0.01092
1170.50 0.01093
1170.60 0.01093
1170.70 0.01094
1170.80 0.01095
1170.90 0.01095
1171.00 0.01096
1171.10 0.01096
1171.20 0.01097
1171.30 0.01097
1171.40 0.01098
1171.50 0.01099
1171.60 0.01099
1171.70 0.011
1171.80 0.011
1171.90 0.01101
1172.00 0.01101
1172.10 0.01102
1172.20 0.01102
1172.30 0.01102
1172.40 0.01103
1172.50 0.01103
1172.60 0.01103
1172.70 0.01103
1172.80 0.01104
1172.90 0.01104
1173.00 0.01104
1173.10 0.01105
1173.20 0.01105
1173.30 0.01105
1173.40 0.01106
1173.50 0.01106
1173.60 0.01106
1173.70 0.01106
1173.80 0.01107
1173.90 0.01107
1174.00 0.01107
1174.10 0.01108
1174.20 0.01108
1174.30 0.01108
1174.40 0.01109
1174.50 0.01109
1174.60 0.01109
1174.70 0.01109
1174.80 0.0111
1174.90 0.0111
1175.00 0.0111
1175.10 0.01111
1175.20 0.01111
1175.30 0.01111
1175.40 0.01112
1175.50 0.01112
1175.60 0.01112
1175.70 0.01112
1175.80 0.01113
1175.90 0.01113
1176.00 0.01113
1176.10 0.01114
1176.20 0.01114
1176.30 0.01114
1176.40 0.01114
1176.50 0.01115
1176.60 0.01115
1176.70 0.01115
1176.80 0.01116
1176.90 0.01116
1177.00 0.01116
1177.10 0.01116
1177.20 0.01116
1177.30 0.01117
1177.40 0.01117
1177.50 0.01117
1177.60 0.01117
1177.70 0.01117
1177.80 0.01117
1177.90 0.01117
1178.00 0.01117
1178.10 0.01117
1178.20 0.01118
1178.30 0.01118
1178.40 0.01118
1178.50 0.01118
1178.60 0.01118
1178.70 0.01118
1178.80 0.01118
1178.90 0.01118
1179.00 0.01118
1179.10 0.01119
1179.20 0.01119
1179.30 0.01119
1179.40 0.01119
1179.50 0.01119
1179.60 0.01119
1179.70 0.01119
1179.80 0.01119
1179.90 0.01119
1180.00 0.01119
1180.10 0.0112
1180.20 0.0112
1180.30 0.0112
1180.40 0.0112
1180.50 0.0112
1180.60 0.0112
1180.70 0.0112
1180.80 0.0112
1180.90 0.0112
1181.00 0.01121
1181.10 0.01121
1181.20 0.01121
1181.30 0.01121
1181.40 0.01121
1181.50 0.01121
1181.60 0.01121
1181.70 0.01121
1181.80 0.01121
1181.90 0.01122
1182.00 0.01122
1182.10 0.01121
1182.20 0.01121
1182.30 0.01121
1182.40 0.01121
1182.50 0.01121
1182.60 0.01121
1182.70 0.0112
1182.80 0.0112
1182.90 0.0112
1183.00 0.0112
1183.10 0.0112
1183.20 0.01119
1183.30 0.01119
1183.40 0.01119
1183.50 0.01119
1183.60 0.01119
1183.70 0.01119
1183.80 0.01118
1183.90 0.01118
1184.00 0.01118
1184.10 0.01118
1184.20 0.01118
1184.30 0.01117
1184.40 0.01117
1184.50 0.01117
1184.60 0.01117
1184.70 0.01117
1184.80 0.01117
1184.90 0.01116
1185.00 0.01116
1185.10 0.01116
1185.20 0.01116
1185.30 0.01116
1185.40 0.01115
1185.50 0.01115
1185.60 0.01115
1185.70 0.01115
1185.80 0.01115
1185.90 0.01115
1186.00 0.01114
1186.10 0.01114
1186.20 0.01114
1186.30 0.01114
1186.40 0.01114
1186.50 0.01113
1186.60 0.01113
1186.70 0.01113
1186.80 0.01113
1186.90 0.01113
1187.00 0.01113
1187.10 0.01113
1187.20 0.01112
1187.30 0.01112
1187.40 0.01112
1187.50 0.01112
1187.60 0.01112
1187.70 0.01112
1187.80 0.01112
1187.90 0.01112
1188.00 0.01112
1188.10 0.01112
1188.20 0.01111
1188.30 0.01111
1188.40 0.01111
1188.50 0.01111
1188.60 0.01111
1188.70 0.01111
1188.80 0.01111
1188.90 0.01111
1189.00 0.01111
1189.10 0.01111
1189.20 0.01111
1189.30 0.0111
1189.40 0.0111
1189.50 0.0111
1189.60 0.0111
1189.70 0.0111
1189.80 0.0111
1189.90 0.0111
1190.00 0.0111
1190.10 0.0111
1190.20 0.0111
1190.30 0.0111
1190.40 0.01109
1190.50 0.01109
1190.60 0.01109
1190.70 0.01109
1190.80 0.01109
1190.90 0.01109
1191.00 0.01109
1191.10 0.01109
1191.20 0.01109
1191.30 0.01109
1191.40 0.01109
1191.50 0.01108
1191.60 0.01108
1191.70 0.01108
1191.80 0.01108
1191.90 0.01108
1192.00 0.01108
1192.10 0.01108
1192.20 0.01108
1192.30 0.01108
1192.40 0.01107
1192.50 0.01107
1192.60 0.01107
1192.70 0.01107
1192.80 0.01107
1192.90 0.01107
1193.00 0.01107
1193.10 0.01107
1193.20 0.01106
1193.30 0.01106
1193.40 0.01106
1193.50 0.01106
1193.60 0.01106
1193.70 0.01106
1193.80 0.01106
1193.90 0.01105
1194.00 0.01105
1194.10 0.01105
1194.20 0.01105
1194.30 0.01105
1194.40 0.01105
1194.50 0.01105
1194.60 0.01105
1194.70 0.01104
1194.80 0.01104
1194.90 0.01104
1195.00 0.01104
1195.10 0.01104
1195.20 0.01104
1195.30 0.01104
1195.40 0.01103
1195.50 0.01103
1195.60 0.01103
1195.70 0.01103
1195.80 0.01103
1195.90 0.01103
1196.00 0.01103
1196.10 0.01102
1196.20 0.01102
1196.30 0.01102
1196.40 0.01102
1196.50 0.01102
1196.60 0.01102
1196.70 0.01102
1196.80 0.01102
1196.90 0.01101
1197.00 0.01101
1197.10 0.01101
1197.20 0.01101
1197.30 0.011
1197.40 0.011
1197.50 0.011
1197.60 0.01099
1197.70 0.01099
1197.80 0.01099
1197.90 0.01099
1198.00 0.01098
1198.10 0.01098
1198.20 0.01098
1198.30 0.01097
1198.40 0.01097
1198.50 0.01097
1198.60 0.01096
1198.70 0.01096
1198.80 0.01096
1198.90 0.01095
1199.00 0.01095
1199.10 0.01095
1199.20 0.01095
1199.30 0.01094
1199.40 0.01094
1199.50 0.01094
1199.60 0.01093
1199.70 0.01093
1199.80 0.01093
1199.90 0.01092
1200.00 0
