# Version 2.1 - nm, norm@500 to 1, cut digits, bergeron_7000_80.dat_7000
# Wavelength(nm)  Flambda(ergs/cm^s/s/nm)
300.00 1.082
300.10 1.083
300.20 1.083
300.30 1.083
300.40 1.084
300.50 1.084
300.60 1.084
300.70 1.084
300.80 1.085
300.90 1.085
301.00 1.085
301.10 1.086
301.20 1.086
301.30 1.086
301.40 1.087
301.50 1.087
301.60 1.087
301.70 1.087
301.80 1.088
301.90 1.088
302.00 1.088
302.10 1.089
302.20 1.089
302.30 1.089
302.40 1.089
302.50 1.09
302.60 1.09
302.70 1.09
302.80 1.091
302.90 1.091
303.00 1.091
303.10 1.091
303.20 1.092
303.30 1.092
303.40 1.092
303.50 1.093
303.60 1.093
303.70 1.093
303.80 1.093
303.90 1.094
304.00 1.094
304.10 1.094
304.20 1.094
304.30 1.095
304.40 1.095
304.50 1.095
304.60 1.096
304.70 1.096
304.80 1.096
304.90 1.096
305.00 1.097
305.10 1.097
305.20 1.097
305.30 1.097
305.40 1.098
305.50 1.098
305.60 1.098
305.70 1.099
305.80 1.099
305.90 1.099
306.00 1.099
306.10 1.1
306.20 1.1
306.30 1.1
306.40 1.1
306.50 1.101
306.60 1.101
306.70 1.101
306.80 1.101
306.90 1.102
307.00 1.102
307.10 1.102
307.20 1.102
307.30 1.103
307.40 1.103
307.50 1.103
307.60 1.104
307.70 1.104
307.80 1.104
307.90 1.104
308.00 1.105
308.10 1.105
308.20 1.105
308.30 1.105
308.40 1.106
308.50 1.106
308.60 1.106
308.70 1.106
308.80 1.107
308.90 1.107
309.00 1.107
309.10 1.107
309.20 1.108
309.30 1.108
309.40 1.108
309.50 1.108
309.60 1.109
309.70 1.109
309.80 1.109
309.90 1.109
310.00 1.11
310.10 1.11
310.20 1.11
310.30 1.11
310.40 1.11
310.50 1.111
310.60 1.111
310.70 1.111
310.80 1.111
310.90 1.112
311.00 1.112
311.10 1.112
311.20 1.112
311.30 1.113
311.40 1.113
311.50 1.113
311.60 1.113
311.70 1.114
311.80 1.114
311.90 1.114
312.00 1.114
312.10 1.114
312.20 1.115
312.30 1.115
312.40 1.115
312.50 1.115
312.60 1.116
312.70 1.116
312.80 1.116
312.90 1.116
313.00 1.116
313.10 1.117
313.20 1.117
313.30 1.117
313.40 1.117
313.50 1.118
313.60 1.118
313.70 1.118
313.80 1.118
313.90 1.118
314.00 1.119
314.10 1.119
314.20 1.119
314.30 1.119
314.40 1.12
314.50 1.12
314.60 1.12
314.70 1.12
314.80 1.12
314.90 1.121
315.00 1.121
315.10 1.121
315.20 1.121
315.30 1.122
315.40 1.122
315.50 1.122
315.60 1.122
315.70 1.122
315.80 1.123
315.90 1.123
316.00 1.123
316.10 1.123
316.20 1.123
316.30 1.124
316.40 1.124
316.50 1.124
316.60 1.124
316.70 1.124
316.80 1.125
316.90 1.125
317.00 1.125
317.10 1.125
317.20 1.125
317.30 1.126
317.40 1.126
317.50 1.126
317.60 1.126
317.70 1.126
317.80 1.127
317.90 1.127
318.00 1.127
318.10 1.127
318.20 1.127
318.30 1.128
318.40 1.128
318.50 1.128
318.60 1.128
318.70 1.128
318.80 1.129
318.90 1.129
319.00 1.129
319.10 1.129
319.20 1.129
319.30 1.13
319.40 1.13
319.50 1.13
319.60 1.13
319.70 1.13
319.80 1.13
319.90 1.131
320.00 1.131
320.10 1.131
320.20 1.131
320.30 1.131
320.40 1.132
320.50 1.132
320.60 1.132
320.70 1.132
320.80 1.132
320.90 1.133
321.00 1.133
321.10 1.133
321.20 1.133
321.30 1.133
321.40 1.133
321.50 1.134
321.60 1.134
321.70 1.134
321.80 1.134
321.90 1.134
322.00 1.134
322.10 1.135
322.20 1.135
322.30 1.135
322.40 1.135
322.50 1.135
322.60 1.136
322.70 1.136
322.80 1.136
322.90 1.136
323.00 1.136
323.10 1.136
323.20 1.137
323.30 1.137
323.40 1.137
323.50 1.137
323.60 1.137
323.70 1.137
323.80 1.138
323.90 1.138
324.00 1.138
324.10 1.138
324.20 1.138
324.30 1.138
324.40 1.139
324.50 1.139
324.60 1.139
324.70 1.139
324.80 1.139
324.90 1.139
325.00 1.139
325.10 1.14
325.20 1.14
325.30 1.14
325.40 1.14
325.50 1.14
325.60 1.14
325.70 1.141
325.80 1.141
325.90 1.141
326.00 1.141
326.10 1.141
326.20 1.141
326.30 1.142
326.40 1.142
326.50 1.142
326.60 1.142
326.70 1.142
326.80 1.142
326.90 1.142
327.00 1.143
327.10 1.143
327.20 1.143
327.30 1.143
327.40 1.143
327.50 1.143
327.60 1.143
327.70 1.144
327.80 1.144
327.90 1.144
328.00 1.144
328.10 1.144
328.20 1.144
328.30 1.144
328.40 1.145
328.50 1.145
328.60 1.145
328.70 1.145
328.80 1.145
328.90 1.145
329.00 1.145
329.10 1.146
329.20 1.146
329.30 1.146
329.40 1.146
329.50 1.146
329.60 1.146
329.70 1.146
329.80 1.147
329.90 1.147
330.00 1.147
330.10 1.147
330.20 1.147
330.30 1.147
330.40 1.147
330.50 1.147
330.60 1.148
330.70 1.148
330.80 1.148
330.90 1.148
331.00 1.148
331.10 1.148
331.20 1.148
331.30 1.149
331.40 1.149
331.50 1.149
331.60 1.149
331.70 1.149
331.80 1.149
331.90 1.149
332.00 1.149
332.10 1.15
332.20 1.15
332.30 1.15
332.40 1.15
332.50 1.15
332.60 1.15
332.70 1.15
332.80 1.15
332.90 1.151
333.00 1.151
333.10 1.151
333.20 1.151
333.30 1.151
333.40 1.151
333.50 1.151
333.60 1.151
333.70 1.151
333.80 1.152
333.90 1.152
334.00 1.152
334.10 1.152
334.20 1.152
334.30 1.152
334.40 1.152
334.50 1.152
334.60 1.152
334.70 1.153
334.80 1.153
334.90 1.153
335.00 1.153
335.10 1.153
335.20 1.153
335.30 1.153
335.40 1.153
335.50 1.153
335.60 1.154
335.70 1.154
335.80 1.154
335.90 1.154
336.00 1.154
336.10 1.154
336.20 1.154
336.30 1.154
336.40 1.154
336.50 1.155
336.60 1.155
336.70 1.155
336.80 1.155
336.90 1.155
337.00 1.155
337.10 1.155
337.20 1.155
337.30 1.155
337.40 1.155
337.50 1.156
337.60 1.156
337.70 1.156
337.80 1.156
337.90 1.156
338.00 1.156
338.10 1.156
338.20 1.156
338.30 1.156
338.40 1.156
338.50 1.156
338.60 1.157
338.70 1.157
338.80 1.157
338.90 1.157
339.00 1.157
339.10 1.157
339.20 1.157
339.30 1.157
339.40 1.157
339.50 1.157
339.60 1.157
339.70 1.158
339.80 1.158
339.90 1.158
340.00 1.158
340.10 1.158
340.20 1.158
340.30 1.158
340.40 1.158
340.50 1.158
340.60 1.158
340.70 1.158
340.80 1.158
340.90 1.159
341.00 1.159
341.10 1.159
341.20 1.159
341.30 1.159
341.40 1.159
341.50 1.159
341.60 1.159
341.70 1.159
341.80 1.159
341.90 1.159
342.00 1.159
342.10 1.16
342.20 1.16
342.30 1.16
342.40 1.16
342.50 1.16
342.60 1.16
342.70 1.16
342.80 1.16
342.90 1.16
343.00 1.16
343.10 1.16
343.20 1.16
343.30 1.16
343.40 1.16
343.50 1.161
343.60 1.161
343.70 1.161
343.80 1.161
343.90 1.161
344.00 1.161
344.10 1.161
344.20 1.161
344.30 1.161
344.40 1.161
344.50 1.161
344.60 1.161
344.70 1.161
344.80 1.161
344.90 1.161
345.00 1.162
345.10 1.162
345.20 1.162
345.30 1.162
345.40 1.162
345.50 1.162
345.60 1.162
345.70 1.162
345.80 1.162
345.90 1.162
346.00 1.162
346.10 1.162
346.20 1.162
346.30 1.162
346.40 1.162
346.50 1.162
346.60 1.163
346.70 1.163
346.80 1.163
346.90 1.163
347.00 1.163
347.10 1.163
347.20 1.163
347.30 1.163
347.40 1.163
347.50 1.163
347.60 1.163
347.70 1.163
347.80 1.163
347.90 1.163
348.00 1.163
348.10 1.163
348.20 1.163
348.30 1.163
348.40 1.163
348.50 1.164
348.60 1.164
348.70 1.164
348.80 1.164
348.90 1.164
349.00 1.164
349.10 1.164
349.20 1.164
349.30 1.164
349.40 1.164
349.50 1.164
349.60 1.164
349.70 1.164
349.80 1.164
349.90 1.164
350.00 1.164
350.10 1.164
350.20 1.164
350.30 1.164
350.40 1.164
350.50 1.164
350.60 1.164
350.70 1.165
350.80 1.165
350.90 1.165
351.00 1.165
351.10 1.165
351.20 1.165
351.30 1.165
351.40 1.165
351.50 1.165
351.60 1.165
351.70 1.165
351.80 1.165
351.90 1.165
352.00 1.165
352.10 1.165
352.20 1.165
352.30 1.165
352.40 1.165
352.50 1.165
352.60 1.165
352.70 1.165
352.80 1.165
352.90 1.165
353.00 1.165
353.10 1.165
353.20 1.165
353.30 1.165
353.40 1.165
353.50 1.165
353.60 1.165
353.70 1.166
353.80 1.166
353.90 1.166
354.00 1.166
354.10 1.166
354.20 1.166
354.30 1.166
354.40 1.166
354.50 1.166
354.60 1.166
354.70 1.166
354.80 1.166
354.90 1.166
355.00 1.166
355.10 1.166
355.20 1.166
355.30 1.166
355.40 1.166
355.50 1.166
355.60 1.166
355.70 1.166
355.80 1.166
355.90 1.166
356.00 1.166
356.10 1.166
356.20 1.166
356.30 1.166
356.40 1.166
356.50 1.166
356.60 1.166
356.70 1.166
356.80 1.166
356.90 1.166
357.00 1.166
357.10 1.166
357.20 1.166
357.30 1.166
357.40 1.166
357.50 1.166
357.60 1.166
357.70 1.166
357.80 1.166
357.90 1.166
358.00 1.166
358.10 1.166
358.20 1.166
358.30 1.166
358.40 1.166
358.50 1.166
358.60 1.166
358.70 1.166
358.80 1.166
358.90 1.166
359.00 1.166
359.10 1.166
359.20 1.166
359.30 1.166
359.40 1.166
359.50 1.166
359.60 1.166
359.70 1.166
359.80 1.167
359.90 1.167
360.00 1.167
360.10 1.167
360.20 1.167
360.30 1.167
360.40 1.167
360.50 1.167
360.60 1.167
360.70 1.167
360.80 1.167
360.90 1.167
361.00 1.167
361.10 1.167
361.20 1.167
361.30 1.167
361.40 1.167
361.50 1.167
361.60 1.167
361.70 1.167
361.80 1.167
361.90 1.167
362.00 1.167
362.10 1.167
362.20 1.167
362.30 1.167
362.40 1.167
362.50 1.166
362.60 1.166
362.70 1.166
362.80 1.166
362.90 1.166
363.00 1.166
363.10 1.166
363.20 1.166
363.30 1.166
363.40 1.166
363.50 1.166
363.60 1.166
363.70 1.166
363.80 1.166
363.90 1.166
364.00 1.166
364.10 1.166
364.20 1.166
364.30 1.166
364.40 1.166
364.50 1.166
364.60 1.166
364.70 1.166
364.80 1.166
364.90 1.166
365.00 1.166
365.10 1.166
365.20 1.166
365.30 1.166
365.40 1.166
365.50 1.166
365.60 1.166
365.70 1.166
365.80 1.166
365.90 1.166
366.00 1.166
366.10 1.166
366.20 1.166
366.30 1.166
366.40 1.166
366.50 1.166
366.60 1.166
366.70 1.166
366.80 1.166
366.90 1.166
367.00 1.166
367.10 1.166
367.20 1.166
367.30 1.166
367.40 1.166
367.50 1.166
367.60 1.166
367.70 1.166
367.80 1.166
367.90 1.165
368.00 1.165
368.10 1.165
368.20 1.165
368.30 1.165
368.40 1.165
368.50 1.165
368.60 1.165
368.70 1.165
368.80 1.165
368.90 1.165
369.00 1.165
369.10 1.165
369.20 1.165
369.30 1.165
369.40 1.165
369.50 1.165
369.60 1.165
369.70 1.165
369.80 1.165
369.90 1.165
370.00 1.165
370.10 1.165
370.20 1.165
370.30 1.165
370.40 1.165
370.50 1.165
370.60 1.165
370.70 1.165
370.80 1.165
370.90 1.165
371.00 1.165
371.10 1.165
371.20 1.165
371.30 1.165
371.40 1.165
371.50 1.165
371.60 1.165
371.70 1.165
371.80 1.165
371.90 1.165
372.00 1.164
372.10 1.165
372.20 1.165
372.30 1.165
372.40 1.165
372.50 1.165
372.60 1.165
372.70 1.165
372.80 1.165
372.90 1.165
373.00 1.165
373.10 1.165
373.20 1.165
373.30 1.165
373.40 1.165
373.50 1.165
373.60 1.165
373.70 1.165
373.80 1.165
373.90 1.165
374.00 1.165
374.10 1.165
374.20 1.165
374.30 1.165
374.40 1.165
374.50 1.165
374.60 1.165
374.70 1.165
374.80 1.165
374.90 1.166
375.00 1.166
375.10 1.166
375.20 1.166
375.30 1.166
375.40 1.166
375.50 1.166
375.60 1.166
375.70 1.166
375.80 1.166
375.90 1.167
376.00 1.167
376.10 1.167
376.20 1.167
376.30 1.167
376.40 1.167
376.50 1.167
376.60 1.167
376.70 1.168
376.80 1.168
376.90 1.168
377.00 1.168
377.10 1.168
377.20 1.168
377.30 1.168
377.40 1.168
377.50 1.168
377.60 1.168
377.70 1.168
377.80 1.169
377.90 1.169
378.00 1.169
378.10 1.168
378.20 1.168
378.30 1.167
378.40 1.167
378.50 1.166
378.60 1.166
378.70 1.166
378.80 1.165
378.90 1.165
379.00 1.164
379.10 1.163
379.20 1.162
379.30 1.161
379.40 1.16
379.50 1.159
379.60 1.158
379.70 1.156
379.80 1.155
379.90 1.154
380.00 1.153
380.10 1.155
380.20 1.157
380.30 1.158
380.40 1.16
380.50 1.162
380.60 1.164
380.70 1.165
380.80 1.167
380.90 1.169
381.00 1.171
381.10 1.171
381.20 1.171
381.30 1.172
381.40 1.172
381.50 1.172
381.60 1.172
381.70 1.172
381.80 1.172
381.90 1.172
382.00 1.171
382.10 1.171
382.20 1.17
382.30 1.167
382.40 1.164
382.50 1.161
382.60 1.158
382.70 1.155
382.80 1.152
382.90 1.149
383.00 1.146
383.10 1.143
383.20 1.14
383.30 1.132
383.40 1.12
383.50 1.096
383.60 1.103
383.70 1.124
383.80 1.135
383.90 1.143
384.00 1.148
384.10 1.153
384.20 1.158
384.30 1.161
384.40 1.164
384.50 1.167
384.60 1.169
384.70 1.171
384.80 1.173
384.90 1.174
385.00 1.175
385.10 1.176
385.20 1.177
385.30 1.178
385.40 1.178
385.50 1.179
385.60 1.179
385.70 1.179
385.80 1.18
385.90 1.18
386.00 1.18
386.10 1.18
386.20 1.18
386.30 1.18
386.40 1.18
386.50 1.179
386.60 1.179
386.70 1.179
386.80 1.178
386.90 1.178
387.00 1.177
387.10 1.176
387.20 1.175
387.30 1.174
387.40 1.173
387.50 1.171
387.60 1.169
387.70 1.166
387.80 1.163
387.90 1.16
388.00 1.155
388.10 1.149
388.20 1.143
388.30 1.135
388.40 1.124
388.50 1.112
388.60 1.098
388.70 1.076
388.80 1.04
388.90 0.9888
389.00 1.038
389.10 1.074
389.20 1.096
389.30 1.111
389.40 1.123
389.50 1.134
389.60 1.142
389.70 1.15
389.80 1.156
389.90 1.16
390.00 1.164
390.10 1.167
390.20 1.17
390.30 1.172
390.40 1.174
390.50 1.175
390.60 1.177
390.70 1.178
390.80 1.179
390.90 1.18
391.00 1.181
391.10 1.181
391.20 1.182
391.30 1.182
391.40 1.183
391.50 1.183
391.60 1.183
391.70 1.184
391.80 1.184
391.90 1.184
392.00 1.184
392.10 1.185
392.20 1.185
392.30 1.185
392.40 1.185
392.50 1.185
392.60 1.185
392.70 1.185
392.80 1.185
392.90 1.185
393.00 1.185
393.10 1.185
393.20 1.184
393.30 1.184
393.40 1.184
393.50 1.184
393.60 1.184
393.70 1.184
393.80 1.183
393.90 1.183
394.00 1.183
394.10 1.182
394.20 1.182
394.30 1.181
394.40 1.181
394.50 1.18
394.60 1.179
394.70 1.178
394.80 1.177
394.90 1.176
395.00 1.175
395.10 1.174
395.20 1.172
395.30 1.17
395.40 1.168
395.50 1.166
395.60 1.163
395.70 1.16
395.80 1.156
395.90 1.151
396.00 1.146
396.10 1.139
396.20 1.13
396.30 1.119
396.40 1.106
396.50 1.087
396.60 1.064
396.70 1.037
396.80 0.997
396.90 0.9282
397.00 0.8312
397.10 0.9231
397.20 0.9903
397.30 1.033
397.40 1.06
397.50 1.084
397.60 1.103
397.70 1.117
397.80 1.128
397.90 1.137
398.00 1.144
398.10 1.15
398.20 1.155
398.30 1.158
398.40 1.162
398.50 1.164
398.60 1.167
398.70 1.169
398.80 1.17
398.90 1.172
399.00 1.173
399.10 1.174
399.20 1.175
399.30 1.176
399.40 1.177
399.50 1.177
399.60 1.178
399.70 1.178
399.80 1.179
399.90 1.179
400.00 1.18
400.10 1.18
400.20 1.18
400.30 1.18
400.40 1.181
400.50 1.181
400.60 1.181
400.70 1.181
400.80 1.181
400.90 1.181
401.00 1.181
401.10 1.181
401.20 1.181
401.30 1.182
401.40 1.182
401.50 1.182
401.60 1.182
401.70 1.182
401.80 1.182
401.90 1.182
402.00 1.182
402.10 1.181
402.20 1.181
402.30 1.181
402.40 1.181
402.50 1.181
402.60 1.181
402.70 1.181
402.80 1.181
402.90 1.181
403.00 1.181
403.10 1.181
403.20 1.181
403.30 1.181
403.40 1.181
403.50 1.18
403.60 1.18
403.70 1.18
403.80 1.18
403.90 1.18
404.00 1.18
404.10 1.18
404.20 1.18
404.30 1.179
404.40 1.179
404.50 1.179
404.60 1.179
404.70 1.179
404.80 1.179
404.90 1.178
405.00 1.178
405.10 1.178
405.20 1.178
405.30 1.178
405.40 1.177
405.50 1.177
405.60 1.177
405.70 1.177
405.80 1.176
405.90 1.176
406.00 1.176
406.10 1.176
406.20 1.175
406.30 1.175
406.40 1.175
406.50 1.174
406.60 1.174
406.70 1.173
406.80 1.173
406.90 1.172
407.00 1.172
407.10 1.171
407.20 1.171
407.30 1.17
407.40 1.169
407.50 1.168
407.60 1.167
407.70 1.166
407.80 1.165
407.90 1.164
408.00 1.163
408.10 1.161
408.20 1.159
408.30 1.157
408.40 1.155
408.50 1.152
408.60 1.149
408.70 1.146
408.80 1.142
408.90 1.137
409.00 1.132
409.10 1.125
409.20 1.117
409.30 1.108
409.40 1.094
409.50 1.078
409.60 1.058
409.70 1.029
409.80 0.9912
409.90 0.9459
410.00 0.87
410.10 0.7783
410.20 0.6709
410.30 0.8118
410.40 0.9126
410.50 0.9736
410.60 1.012
410.70 1.044
410.80 1.069
410.90 1.086
411.00 1.1
411.10 1.112
411.20 1.12
411.30 1.127
411.40 1.133
411.50 1.137
411.60 1.141
411.70 1.145
411.80 1.148
411.90 1.15
412.00 1.152
412.10 1.154
412.20 1.156
412.30 1.157
412.40 1.158
412.50 1.159
412.60 1.16
412.70 1.161
412.80 1.162
412.90 1.163
413.00 1.163
413.10 1.164
413.20 1.164
413.30 1.164
413.40 1.165
413.50 1.165
413.60 1.165
413.70 1.165
413.80 1.166
413.90 1.166
414.00 1.166
414.10 1.166
414.20 1.166
414.30 1.166
414.40 1.166
414.50 1.166
414.60 1.166
414.70 1.166
414.80 1.166
414.90 1.166
415.00 1.166
415.10 1.166
415.20 1.166
415.30 1.166
415.40 1.166
415.50 1.166
415.60 1.166
415.70 1.166
415.80 1.166
415.90 1.166
416.00 1.166
416.10 1.165
416.20 1.165
416.30 1.165
416.40 1.165
416.50 1.165
416.60 1.165
416.70 1.165
416.80 1.165
416.90 1.165
417.00 1.165
417.10 1.164
417.20 1.164
417.30 1.164
417.40 1.164
417.50 1.164
417.60 1.164
417.70 1.164
417.80 1.164
417.90 1.164
418.00 1.163
418.10 1.163
418.20 1.163
418.30 1.163
418.40 1.163
418.50 1.163
418.60 1.163
418.70 1.163
418.80 1.162
418.90 1.162
419.00 1.162
419.10 1.162
419.20 1.162
419.30 1.162
419.40 1.162
419.50 1.161
419.60 1.161
419.70 1.161
419.80 1.161
419.90 1.161
420.00 1.161
420.10 1.161
420.20 1.16
420.30 1.16
420.40 1.16
420.50 1.16
420.60 1.16
420.70 1.16
420.80 1.159
420.90 1.159
421.00 1.159
421.10 1.159
421.20 1.159
421.30 1.159
421.40 1.159
421.50 1.158
421.60 1.158
421.70 1.158
421.80 1.158
421.90 1.158
422.00 1.158
422.10 1.157
422.20 1.157
422.30 1.157
422.40 1.157
422.50 1.157
422.60 1.157
422.70 1.156
422.80 1.156
422.90 1.156
423.00 1.156
423.10 1.156
423.20 1.156
423.30 1.155
423.40 1.155
423.50 1.155
423.60 1.155
423.70 1.155
423.80 1.155
423.90 1.154
424.00 1.154
424.10 1.154
424.20 1.154
424.30 1.154
424.40 1.154
424.50 1.153
424.60 1.153
424.70 1.153
424.80 1.153
424.90 1.153
425.00 1.152
425.10 1.152
425.20 1.152
425.30 1.152
425.40 1.152
425.50 1.152
425.60 1.151
425.70 1.151
425.80 1.151
425.90 1.151
426.00 1.151
426.10 1.15
426.20 1.15
426.30 1.15
426.40 1.15
426.50 1.15
426.60 1.149
426.70 1.149
426.80 1.149
426.90 1.149
427.00 1.149
427.10 1.148
427.20 1.148
427.30 1.148
427.40 1.148
427.50 1.148
427.60 1.147
427.70 1.147
427.80 1.147
427.90 1.147
428.00 1.146
428.10 1.146
428.20 1.146
428.30 1.146
428.40 1.145
428.50 1.145
428.60 1.145
428.70 1.145
428.80 1.144
428.90 1.144
429.00 1.144
429.10 1.144
429.20 1.143
429.30 1.143
429.40 1.142
429.50 1.142
429.60 1.142
429.70 1.141
429.80 1.141
429.90 1.141
430.00 1.14
430.10 1.14
430.20 1.139
430.30 1.139
430.40 1.138
430.50 1.138
430.60 1.137
430.70 1.137
430.80 1.136
430.90 1.135
431.00 1.135
431.10 1.134
431.20 1.133
431.30 1.132
431.40 1.131
431.50 1.13
431.60 1.129
431.70 1.127
431.80 1.126
431.90 1.124
432.00 1.122
432.10 1.12
432.20 1.118
432.30 1.115
432.40 1.112
432.50 1.108
432.60 1.103
432.70 1.098
432.80 1.091
432.90 1.084
433.00 1.075
433.10 1.065
433.20 1.052
433.30 1.038
433.40 1.017
433.50 0.9906
433.60 0.9584
433.70 0.9058
433.80 0.834
433.90 0.743
434.00 0.5406
434.10 0.5441
434.20 0.7531
434.30 0.8407
434.40 0.91
434.50 0.961
434.60 0.992
434.70 1.018
434.80 1.038
434.90 1.051
435.00 1.063
435.10 1.073
435.20 1.081
435.30 1.088
435.40 1.094
435.50 1.099
435.60 1.103
435.70 1.107
435.80 1.11
435.90 1.112
436.00 1.114
436.10 1.116
436.20 1.117
436.30 1.119
436.40 1.12
436.50 1.121
436.60 1.122
436.70 1.122
436.80 1.123
436.90 1.123
437.00 1.124
437.10 1.124
437.20 1.125
437.30 1.125
437.40 1.125
437.50 1.125
437.60 1.126
437.70 1.126
437.80 1.126
437.90 1.126
438.00 1.126
438.10 1.126
438.20 1.126
438.30 1.126
438.40 1.126
438.50 1.126
438.60 1.126
438.70 1.126
438.80 1.126
438.90 1.126
439.00 1.126
439.10 1.126
439.20 1.126
439.30 1.126
439.40 1.126
439.50 1.126
439.60 1.126
439.70 1.126
439.80 1.126
439.90 1.125
440.00 1.125
440.10 1.125
440.20 1.125
440.30 1.125
440.40 1.125
440.50 1.125
440.60 1.125
440.70 1.124
440.80 1.124
440.90 1.124
441.00 1.124
441.10 1.124
441.20 1.124
441.30 1.124
441.40 1.123
441.50 1.123
441.60 1.123
441.70 1.123
441.80 1.123
441.90 1.123
442.00 1.122
442.10 1.122
442.20 1.122
442.30 1.122
442.40 1.122
442.50 1.122
442.60 1.122
442.70 1.121
442.80 1.121
442.90 1.121
443.00 1.121
443.10 1.121
443.20 1.12
443.30 1.12
443.40 1.12
443.50 1.12
443.60 1.12
443.70 1.12
443.80 1.119
443.90 1.119
444.00 1.119
444.10 1.119
444.20 1.119
444.30 1.119
444.40 1.118
444.50 1.118
444.60 1.118
444.70 1.118
444.80 1.118
444.90 1.118
445.00 1.117
445.10 1.117
445.20 1.117
445.30 1.117
445.40 1.117
445.50 1.116
445.60 1.116
445.70 1.116
445.80 1.116
445.90 1.116
446.00 1.116
446.10 1.115
446.20 1.115
446.30 1.115
446.40 1.115
446.50 1.115
446.60 1.114
446.70 1.114
446.80 1.114
446.90 1.114
447.00 1.114
447.10 1.113
447.20 1.113
447.30 1.113
447.40 1.113
447.50 1.113
447.60 1.113
447.70 1.112
447.80 1.112
447.90 1.112
448.00 1.112
448.10 1.112
448.20 1.111
448.30 1.111
448.40 1.111
448.50 1.111
448.60 1.111
448.70 1.11
448.80 1.11
448.90 1.11
449.00 1.11
449.10 1.11
449.20 1.11
449.30 1.109
449.40 1.109
449.50 1.109
449.60 1.109
449.70 1.108
449.80 1.108
449.90 1.108
450.00 1.108
450.10 1.108
450.20 1.108
450.30 1.107
450.40 1.107
450.50 1.107
450.60 1.107
450.70 1.106
450.80 1.106
450.90 1.106
451.00 1.106
451.10 1.106
451.20 1.106
451.30 1.105
451.40 1.105
451.50 1.105
451.60 1.105
451.70 1.105
451.80 1.104
451.90 1.104
452.00 1.104
452.10 1.104
452.20 1.104
452.30 1.103
452.40 1.103
452.50 1.103
452.60 1.103
452.70 1.103
452.80 1.102
452.90 1.102
453.00 1.102
453.10 1.102
453.20 1.102
453.30 1.101
453.40 1.101
453.50 1.101
453.60 1.101
453.70 1.101
453.80 1.1
453.90 1.1
454.00 1.1
454.10 1.1
454.20 1.1
454.30 1.099
454.40 1.099
454.50 1.099
454.60 1.099
454.70 1.099
454.80 1.098
454.90 1.098
455.00 1.098
455.10 1.098
455.20 1.098
455.30 1.097
455.40 1.097
455.50 1.097
455.60 1.097
455.70 1.097
455.80 1.096
455.90 1.096
456.00 1.096
456.10 1.096
456.20 1.096
456.30 1.095
456.40 1.095
456.50 1.095
456.60 1.095
456.70 1.094
456.80 1.094
456.90 1.094
457.00 1.094
457.10 1.094
457.20 1.093
457.30 1.093
457.40 1.093
457.50 1.093
457.60 1.093
457.70 1.092
457.80 1.092
457.90 1.092
458.00 1.092
458.10 1.092
458.20 1.091
458.30 1.091
458.40 1.091
458.50 1.091
458.60 1.091
458.70 1.09
458.80 1.09
458.90 1.09
459.00 1.09
459.10 1.09
459.20 1.089
459.30 1.089
459.40 1.089
459.50 1.089
459.60 1.089
459.70 1.088
459.80 1.088
459.90 1.088
460.00 1.088
460.10 1.087
460.20 1.087
460.30 1.087
460.40 1.087
460.50 1.087
460.60 1.086
460.70 1.086
460.80 1.086
460.90 1.086
461.00 1.086
461.10 1.085
461.20 1.085
461.30 1.085
461.40 1.085
461.50 1.085
461.60 1.084
461.70 1.084
461.80 1.084
461.90 1.084
462.00 1.084
462.10 1.083
462.20 1.083
462.30 1.083
462.40 1.083
462.50 1.082
462.60 1.082
462.70 1.082
462.80 1.082
462.90 1.082
463.00 1.081
463.10 1.081
463.20 1.081
463.30 1.081
463.40 1.081
463.50 1.08
463.60 1.08
463.70 1.08
463.80 1.08
463.90 1.08
464.00 1.079
464.10 1.079
464.20 1.079
464.30 1.079
464.40 1.078
464.50 1.078
464.60 1.078
464.70 1.078
464.80 1.078
464.90 1.077
465.00 1.077
465.10 1.077
465.20 1.077
465.30 1.077
465.40 1.076
465.50 1.076
465.60 1.076
465.70 1.076
465.80 1.075
465.90 1.075
466.00 1.075
466.10 1.075
466.20 1.075
466.30 1.074
466.40 1.074
466.50 1.074
466.60 1.074
466.70 1.074
466.80 1.073
466.90 1.073
467.00 1.073
467.10 1.073
467.20 1.073
467.30 1.072
467.40 1.072
467.50 1.072
467.60 1.072
467.70 1.071
467.80 1.071
467.90 1.071
468.00 1.071
468.10 1.071
468.20 1.07
468.30 1.07
468.40 1.07
468.50 1.07
468.60 1.07
468.70 1.069
468.80 1.069
468.90 1.069
469.00 1.069
469.10 1.068
469.20 1.068
469.30 1.068
469.40 1.068
469.50 1.068
469.60 1.067
469.70 1.067
469.80 1.067
469.90 1.067
470.00 1.066
470.10 1.066
470.20 1.066
470.30 1.066
470.40 1.066
470.50 1.065
470.60 1.065
470.70 1.065
470.80 1.065
470.90 1.065
471.00 1.064
471.10 1.064
471.20 1.064
471.30 1.064
471.40 1.063
471.50 1.063
471.60 1.063
471.70 1.063
471.80 1.063
471.90 1.062
472.00 1.062
472.10 1.062
472.20 1.062
472.30 1.061
472.40 1.061
472.50 1.061
472.60 1.061
472.70 1.061
472.80 1.06
472.90 1.06
473.00 1.06
473.10 1.06
473.20 1.059
473.30 1.059
473.40 1.059
473.50 1.059
473.60 1.058
473.70 1.058
473.80 1.058
473.90 1.058
474.00 1.058
474.10 1.057
474.20 1.057
474.30 1.057
474.40 1.057
474.50 1.056
474.60 1.056
474.70 1.056
474.80 1.056
474.90 1.055
475.00 1.055
475.10 1.055
475.20 1.055
475.30 1.054
475.40 1.054
475.50 1.054
475.60 1.054
475.70 1.053
475.80 1.053
475.90 1.053
476.00 1.053
476.10 1.052
476.20 1.052
476.30 1.052
476.40 1.052
476.50 1.052
476.60 1.051
476.70 1.051
476.80 1.051
476.90 1.051
477.00 1.05
477.10 1.05
477.20 1.05
477.30 1.05
477.40 1.049
477.50 1.049
477.60 1.049
477.70 1.048
477.80 1.048
477.90 1.048
478.00 1.048
478.10 1.047
478.20 1.047
478.30 1.047
478.40 1.047
478.50 1.046
478.60 1.046
478.70 1.046
478.80 1.045
478.90 1.045
479.00 1.045
479.10 1.045
479.20 1.044
479.30 1.044
479.40 1.044
479.50 1.043
479.60 1.043
479.70 1.043
479.80 1.042
479.90 1.042
480.00 1.042
480.10 1.041
480.20 1.041
480.30 1.041
480.40 1.04
480.50 1.04
480.60 1.04
480.70 1.039
480.80 1.039
480.90 1.039
481.00 1.038
481.10 1.038
481.20 1.037
481.30 1.037
481.40 1.036
481.50 1.036
481.60 1.035
481.70 1.035
481.80 1.034
481.90 1.034
482.00 1.033
482.10 1.033
482.20 1.032
482.30 1.031
482.40 1.031
482.50 1.03
482.60 1.029
482.70 1.028
482.80 1.027
482.90 1.026
483.00 1.026
483.10 1.025
483.20 1.023
483.30 1.022
483.40 1.02
483.50 1.018
483.60 1.016
483.70 1.015
483.80 1.013
483.90 1.011
484.00 1.009
484.10 1.008
484.20 1.004
484.30 1.001
484.40 0.9968
484.50 0.993
484.60 0.9892
484.70 0.9827
484.80 0.9749
484.90 0.9671
485.00 0.9593
485.10 0.9515
485.20 0.9396
485.30 0.9258
485.40 0.9072
485.50 0.8864
485.60 0.8563
485.70 0.8218
485.80 0.7654
485.90 0.6987
486.00 0.5958
486.10 0.4083
486.20 0.4815
486.30 0.6398
486.40 0.7199
486.50 0.7875
486.60 0.8324
486.70 0.8667
486.80 0.8916
486.90 0.9121
487.00 0.9278
487.10 0.9412
487.20 0.9505
487.30 0.9578
487.40 0.9652
487.50 0.9725
487.60 0.9798
487.70 0.9845
487.80 0.9879
487.90 0.9912
488.00 0.9946
488.10 0.998
488.20 0.9999
488.30 1.001
488.40 1.002
488.50 1.004
488.60 1.005
488.70 1.006
488.80 1.008
488.90 1.009
489.00 1.01
489.10 1.011
489.20 1.012
489.30 1.012
489.40 1.013
489.50 1.013
489.60 1.014
489.70 1.014
489.80 1.014
489.90 1.015
490.00 1.015
490.10 1.015
490.20 1.015
490.30 1.015
490.40 1.015
490.50 1.016
490.60 1.016
490.70 1.016
490.80 1.016
490.90 1.016
491.00 1.016
491.10 1.016
491.20 1.016
491.30 1.016
491.40 1.016
491.50 1.016
491.60 1.015
491.70 1.015
491.80 1.015
491.90 1.015
492.00 1.015
492.10 1.015
492.20 1.015
492.30 1.015
492.40 1.015
492.50 1.014
492.60 1.014
492.70 1.014
492.80 1.014
492.90 1.014
493.00 1.014
493.10 1.014
493.20 1.014
493.30 1.013
493.40 1.013
493.50 1.013
493.60 1.013
493.70 1.013
493.80 1.013
493.90 1.012
494.00 1.012
494.10 1.012
494.20 1.012
494.30 1.012
494.40 1.011
494.50 1.011
494.60 1.011
494.70 1.011
494.80 1.011
494.90 1.011
495.00 1.01
495.10 1.01
495.20 1.01
495.30 1.01
495.40 1.01
495.50 1.009
495.60 1.009
495.70 1.009
495.80 1.009
495.90 1.009
496.00 1.008
496.10 1.008
496.20 1.008
496.30 1.008
496.40 1.008
496.50 1.007
496.60 1.007
496.70 1.007
496.80 1.007
496.90 1.007
497.00 1.006
497.10 1.006
497.20 1.006
497.30 1.006
497.40 1.006
497.50 1.005
497.60 1.005
497.70 1.005
497.80 1.005
497.90 1.005
498.00 1.004
498.10 1.004
498.20 1.004
498.30 1.004
498.40 1.003
498.50 1.003
498.60 1.003
498.70 1.003
498.80 1.003
498.90 1.002
499.00 1.002
499.10 1.002
499.20 1.002
499.30 1.002
499.40 1.001
499.50 1.001
499.60 1.001
499.70 1.001
499.80 1
499.90 1
500.00 1
500.10 0.9998
500.20 0.9996
500.30 0.9993
500.40 0.9991
500.50 0.9989
500.60 0.9987
500.70 0.9984
500.80 0.9982
500.90 0.998
501.00 0.9978
501.10 0.9976
501.20 0.9973
501.30 0.9971
501.40 0.9969
501.50 0.9967
501.60 0.9964
501.70 0.9962
501.80 0.996
501.90 0.9958
502.00 0.9956
502.10 0.9953
502.20 0.9951
502.30 0.9949
502.40 0.9947
502.50 0.9945
502.60 0.9942
502.70 0.994
502.80 0.9938
502.90 0.9936
503.00 0.9934
503.10 0.9931
503.20 0.9929
503.30 0.9927
503.40 0.9924
503.50 0.9922
503.60 0.992
503.70 0.9918
503.80 0.9915
503.90 0.9913
504.00 0.9911
504.10 0.9909
504.20 0.9906
504.30 0.9904
504.40 0.9902
504.50 0.9899
504.60 0.9897
504.70 0.9895
504.80 0.9893
504.90 0.989
505.00 0.9888
505.10 0.9886
505.20 0.9884
505.30 0.9881
505.40 0.9879
505.50 0.9877
505.60 0.9875
505.70 0.9872
505.80 0.987
505.90 0.9868
506.00 0.9866
506.10 0.9863
506.20 0.9861
506.30 0.9859
506.40 0.9856
506.50 0.9854
506.60 0.9852
506.70 0.9849
506.80 0.9847
506.90 0.9845
507.00 0.9842
507.10 0.984
507.20 0.9838
507.30 0.9836
507.40 0.9833
507.50 0.9831
507.60 0.9829
507.70 0.9827
507.80 0.9824
507.90 0.9822
508.00 0.982
508.10 0.9818
508.20 0.9815
508.30 0.9813
508.40 0.9811
508.50 0.9808
508.60 0.9806
508.70 0.9804
508.80 0.9802
508.90 0.9799
509.00 0.9797
509.10 0.9795
509.20 0.9792
509.30 0.979
509.40 0.9788
509.50 0.9786
509.60 0.9784
509.70 0.9781
509.80 0.9779
509.90 0.9777
510.00 0.9775
510.10 0.9772
510.20 0.977
510.30 0.9768
510.40 0.9766
510.50 0.9763
510.60 0.9761
510.70 0.9759
510.80 0.9756
510.90 0.9754
511.00 0.9752
511.10 0.975
511.20 0.9747
511.30 0.9745
511.40 0.9743
511.50 0.9741
511.60 0.9738
511.70 0.9736
511.80 0.9734
511.90 0.9731
512.00 0.9729
512.10 0.9727
512.20 0.9725
512.30 0.9722
512.40 0.972
512.50 0.9718
512.60 0.9715
512.70 0.9713
512.80 0.9711
512.90 0.9708
513.00 0.9706
513.10 0.9704
513.20 0.9701
513.30 0.9699
513.40 0.9697
513.50 0.9694
513.60 0.9692
513.70 0.969
513.80 0.9688
513.90 0.9685
514.00 0.9683
514.10 0.9681
514.20 0.9679
514.30 0.9676
514.40 0.9674
514.50 0.9672
514.60 0.967
514.70 0.9667
514.80 0.9665
514.90 0.9663
515.00 0.9661
515.10 0.9659
515.20 0.9656
515.30 0.9654
515.40 0.9652
515.50 0.9649
515.60 0.9647
515.70 0.9645
515.80 0.9642
515.90 0.964
516.00 0.9638
516.10 0.9635
516.20 0.9633
516.30 0.9631
516.40 0.9629
516.50 0.9626
516.60 0.9624
516.70 0.9622
516.80 0.9619
516.90 0.9617
517.00 0.9615
517.10 0.9613
517.20 0.961
517.30 0.9608
517.40 0.9606
517.50 0.9603
517.60 0.9601
517.70 0.9599
517.80 0.9596
517.90 0.9594
518.00 0.9592
518.10 0.959
518.20 0.9587
518.30 0.9585
518.40 0.9583
518.50 0.9581
518.60 0.9578
518.70 0.9576
518.80 0.9574
518.90 0.9571
519.00 0.9569
519.10 0.9567
519.20 0.9565
519.30 0.9562
519.40 0.956
519.50 0.9558
519.60 0.9556
519.70 0.9553
519.80 0.9551
519.90 0.9549
520.00 0.9546
520.10 0.9544
520.20 0.9542
520.30 0.954
520.40 0.9537
520.50 0.9535
520.60 0.9533
520.70 0.953
520.80 0.9528
520.90 0.9526
521.00 0.9523
521.10 0.9521
521.20 0.9519
521.30 0.9516
521.40 0.9514
521.50 0.9512
521.60 0.951
521.70 0.9507
521.80 0.9505
521.90 0.9503
522.00 0.9501
522.10 0.9498
522.20 0.9496
522.30 0.9494
522.40 0.9492
522.50 0.9489
522.60 0.9487
522.70 0.9485
522.80 0.9482
522.90 0.948
523.00 0.9478
523.10 0.9475
523.20 0.9473
523.30 0.9471
523.40 0.9469
523.50 0.9466
523.60 0.9464
523.70 0.9462
523.80 0.9459
523.90 0.9457
524.00 0.9455
524.10 0.9452
524.20 0.945
524.30 0.9448
524.40 0.9446
524.50 0.9443
524.60 0.9441
524.70 0.9439
524.80 0.9436
524.90 0.9434
525.00 0.9432
525.10 0.943
525.20 0.9427
525.30 0.9425
525.40 0.9423
525.50 0.942
525.60 0.9418
525.70 0.9416
525.80 0.9414
525.90 0.9411
526.00 0.9409
526.10 0.9407
526.20 0.9405
526.30 0.9402
526.40 0.94
526.50 0.9398
526.60 0.9395
526.70 0.9393
526.80 0.9391
526.90 0.9389
527.00 0.9386
527.10 0.9384
527.20 0.9382
527.30 0.938
527.40 0.9377
527.50 0.9375
527.60 0.9373
527.70 0.9371
527.80 0.9368
527.90 0.9366
528.00 0.9364
528.10 0.9362
528.20 0.9359
528.30 0.9357
528.40 0.9355
528.50 0.9352
528.60 0.935
528.70 0.9348
528.80 0.9345
528.90 0.9343
529.00 0.9341
529.10 0.9338
529.20 0.9336
529.30 0.9334
529.40 0.9332
529.50 0.9329
529.60 0.9327
529.70 0.9325
529.80 0.9323
529.90 0.9321
530.00 0.9318
530.10 0.9316
530.20 0.9314
530.30 0.9311
530.40 0.9309
530.50 0.9307
530.60 0.9305
530.70 0.9302
530.80 0.93
530.90 0.9298
531.00 0.9295
531.10 0.9293
531.20 0.9291
531.30 0.9289
531.40 0.9286
531.50 0.9284
531.60 0.9282
531.70 0.9279
531.80 0.9277
531.90 0.9275
532.00 0.9273
532.10 0.927
532.20 0.9268
532.30 0.9266
532.40 0.9263
532.50 0.9261
532.60 0.9259
532.70 0.9257
532.80 0.9254
532.90 0.9252
533.00 0.925
533.10 0.9248
533.20 0.9245
533.30 0.9243
533.40 0.9241
533.50 0.9238
533.60 0.9236
533.70 0.9234
533.80 0.9232
533.90 0.9229
534.00 0.9227
534.10 0.9225
534.20 0.9223
534.30 0.922
534.40 0.9218
534.50 0.9216
534.60 0.9213
534.70 0.9211
534.80 0.9209
534.90 0.9206
535.00 0.9204
535.10 0.9202
535.20 0.9199
535.30 0.9197
535.40 0.9195
535.50 0.9193
535.60 0.919
535.70 0.9188
535.80 0.9186
535.90 0.9184
536.00 0.9181
536.10 0.9179
536.20 0.9177
536.30 0.9175
536.40 0.9172
536.50 0.917
536.60 0.9168
536.70 0.9165
536.80 0.9163
536.90 0.9161
537.00 0.9159
537.10 0.9156
537.20 0.9154
537.30 0.9152
537.40 0.915
537.50 0.9147
537.60 0.9145
537.70 0.9143
537.80 0.9141
537.90 0.9138
538.00 0.9136
538.10 0.9134
538.20 0.9132
538.30 0.9129
538.40 0.9127
538.50 0.9125
538.60 0.9123
538.70 0.912
538.80 0.9118
538.90 0.9116
539.00 0.9113
539.10 0.9111
539.20 0.9109
539.30 0.9107
539.40 0.9104
539.50 0.9102
539.60 0.91
539.70 0.9098
539.80 0.9095
539.90 0.9093
540.00 0.9091
540.10 0.9089
540.20 0.9086
540.30 0.9084
540.40 0.9082
540.50 0.9079
540.60 0.9077
540.70 0.9075
540.80 0.9073
540.90 0.907
541.00 0.9068
541.10 0.9066
541.20 0.9064
541.30 0.9061
541.40 0.9059
541.50 0.9057
541.60 0.9054
541.70 0.9052
541.80 0.905
541.90 0.9047
542.00 0.9045
542.10 0.9043
542.20 0.9041
542.30 0.9038
542.40 0.9036
542.50 0.9034
542.60 0.9032
542.70 0.9029
542.80 0.9027
542.90 0.9025
543.00 0.9023
543.10 0.902
543.20 0.9018
543.30 0.9016
543.40 0.9014
543.50 0.9011
543.60 0.9009
543.70 0.9007
543.80 0.9005
543.90 0.9003
544.00 0.9
544.10 0.8998
544.20 0.8996
544.30 0.8994
544.40 0.8991
544.50 0.8989
544.60 0.8987
544.70 0.8984
544.80 0.8982
544.90 0.898
545.00 0.8978
545.10 0.8975
545.20 0.8973
545.30 0.8971
545.40 0.8968
545.50 0.8966
545.60 0.8964
545.70 0.8962
545.80 0.8959
545.90 0.8957
546.00 0.8955
546.10 0.8952
546.20 0.895
546.30 0.8948
546.40 0.8946
546.50 0.8943
546.60 0.8941
546.70 0.8939
546.80 0.8937
546.90 0.8934
547.00 0.8932
547.10 0.893
547.20 0.8928
547.30 0.8925
547.40 0.8923
547.50 0.8921
547.60 0.8919
547.70 0.8916
547.80 0.8914
547.90 0.8912
548.00 0.891
548.10 0.8907
548.20 0.8905
548.30 0.8903
548.40 0.8901
548.50 0.8898
548.60 0.8896
548.70 0.8894
548.80 0.8892
548.90 0.8889
549.00 0.8887
549.10 0.8885
549.20 0.8883
549.30 0.888
549.40 0.8878
549.50 0.8876
549.60 0.8874
549.70 0.8871
549.80 0.8869
549.90 0.8867
550.00 0.8865
550.10 0.8863
550.20 0.886
550.30 0.8858
550.40 0.8856
550.50 0.8853
550.60 0.8851
550.70 0.8849
550.80 0.8847
550.90 0.8844
551.00 0.8842
551.10 0.884
551.20 0.8837
551.30 0.8835
551.40 0.8833
551.50 0.8831
551.60 0.8829
551.70 0.8826
551.80 0.8824
551.90 0.8822
552.00 0.882
552.10 0.8818
552.20 0.8815
552.30 0.8813
552.40 0.8811
552.50 0.8808
552.60 0.8806
552.70 0.8804
552.80 0.8802
552.90 0.8799
553.00 0.8797
553.10 0.8795
553.20 0.8793
553.30 0.879
553.40 0.8788
553.50 0.8786
553.60 0.8784
553.70 0.8781
553.80 0.8779
553.90 0.8777
554.00 0.8775
554.10 0.8772
554.20 0.877
554.30 0.8768
554.40 0.8766
554.50 0.8764
554.60 0.8761
554.70 0.8759
554.80 0.8757
554.90 0.8755
555.00 0.8753
555.10 0.875
555.20 0.8748
555.30 0.8746
555.40 0.8744
555.50 0.8741
555.60 0.8739
555.70 0.8737
555.80 0.8734
555.90 0.8732
556.00 0.873
556.10 0.8728
556.20 0.8725
556.30 0.8723
556.40 0.8721
556.50 0.8719
556.60 0.8716
556.70 0.8714
556.80 0.8712
556.90 0.871
557.00 0.8707
557.10 0.8705
557.20 0.8703
557.30 0.8701
557.40 0.8699
557.50 0.8696
557.60 0.8694
557.70 0.8692
557.80 0.869
557.90 0.8688
558.00 0.8685
558.10 0.8683
558.20 0.8681
558.30 0.8679
558.40 0.8676
558.50 0.8674
558.60 0.8672
558.70 0.867
558.80 0.8668
558.90 0.8665
559.00 0.8663
559.10 0.8661
559.20 0.8659
559.30 0.8657
559.40 0.8654
559.50 0.8652
559.60 0.865
559.70 0.8648
559.80 0.8645
559.90 0.8643
560.00 0.8641
560.10 0.8638
560.20 0.8636
560.30 0.8634
560.40 0.8632
560.50 0.8629
560.60 0.8627
560.70 0.8625
560.80 0.8623
560.90 0.862
561.00 0.8618
561.10 0.8616
561.20 0.8614
561.30 0.8612
561.40 0.8609
561.50 0.8607
561.60 0.8605
561.70 0.8603
561.80 0.8601
561.90 0.8599
562.00 0.8596
562.10 0.8594
562.20 0.8592
562.30 0.859
562.40 0.8588
562.50 0.8585
562.60 0.8583
562.70 0.8581
562.80 0.8579
562.90 0.8576
563.00 0.8574
563.10 0.8572
563.20 0.857
563.30 0.8568
563.40 0.8565
563.50 0.8563
563.60 0.8561
563.70 0.8559
563.80 0.8556
563.90 0.8554
564.00 0.8552
564.10 0.855
564.20 0.8548
564.30 0.8545
564.40 0.8543
564.50 0.8541
564.60 0.8539
564.70 0.8537
564.80 0.8534
564.90 0.8532
565.00 0.853
565.10 0.8528
565.20 0.8526
565.30 0.8523
565.40 0.8521
565.50 0.8519
565.60 0.8516
565.70 0.8514
565.80 0.8512
565.90 0.851
566.00 0.8507
566.10 0.8505
566.20 0.8503
566.30 0.8501
566.40 0.8499
566.50 0.8496
566.60 0.8494
566.70 0.8492
566.80 0.849
566.90 0.8488
567.00 0.8485
567.10 0.8483
567.20 0.8481
567.30 0.8479
567.40 0.8477
567.50 0.8475
567.60 0.8472
567.70 0.847
567.80 0.8468
567.90 0.8466
568.00 0.8464
568.10 0.8462
568.20 0.8459
568.30 0.8457
568.40 0.8455
568.50 0.8453
568.60 0.845
568.70 0.8448
568.80 0.8446
568.90 0.8444
569.00 0.8442
569.10 0.8439
569.20 0.8437
569.30 0.8435
569.40 0.8433
569.50 0.843
569.60 0.8428
569.70 0.8426
569.80 0.8424
569.90 0.8422
570.00 0.8419
570.10 0.8417
570.20 0.8415
570.30 0.8413
570.40 0.8411
570.50 0.8409
570.60 0.8406
570.70 0.8404
570.80 0.8402
570.90 0.84
571.00 0.8398
571.10 0.8396
571.20 0.8393
571.30 0.8391
571.40 0.8389
571.50 0.8387
571.60 0.8385
571.70 0.8382
571.80 0.838
571.90 0.8378
572.00 0.8376
572.10 0.8374
572.20 0.8372
572.30 0.8369
572.40 0.8367
572.50 0.8365
572.60 0.8363
572.70 0.8361
572.80 0.8358
572.90 0.8356
573.00 0.8354
573.10 0.8352
573.20 0.835
573.30 0.8347
573.40 0.8345
573.50 0.8343
573.60 0.8341
573.70 0.8338
573.80 0.8336
573.90 0.8334
574.00 0.8332
574.10 0.8329
574.20 0.8327
574.30 0.8325
574.40 0.8323
574.50 0.8321
574.60 0.8319
574.70 0.8316
574.80 0.8314
574.90 0.8312
575.00 0.831
575.10 0.8308
575.20 0.8306
575.30 0.8303
575.40 0.8301
575.50 0.8299
575.60 0.8297
575.70 0.8295
575.80 0.8293
575.90 0.8291
576.00 0.8288
576.10 0.8286
576.20 0.8284
576.30 0.8282
576.40 0.828
576.50 0.8277
576.60 0.8275
576.70 0.8273
576.80 0.8271
576.90 0.8269
577.00 0.8266
577.10 0.8264
577.20 0.8262
577.30 0.826
577.40 0.8258
577.50 0.8256
577.60 0.8253
577.70 0.8251
577.80 0.8249
577.90 0.8247
578.00 0.8245
578.10 0.8243
578.20 0.8241
578.30 0.8238
578.40 0.8236
578.50 0.8234
578.60 0.8232
578.70 0.823
578.80 0.8228
578.90 0.8225
579.00 0.8223
579.10 0.8221
579.20 0.8219
579.30 0.8217
579.40 0.8214
579.50 0.8212
579.60 0.821
579.70 0.8208
579.80 0.8206
579.90 0.8204
580.00 0.8201
580.10 0.8199
580.20 0.8197
580.30 0.8195
580.40 0.8193
580.50 0.8191
580.60 0.8188
580.70 0.8186
580.80 0.8184
580.90 0.8182
581.00 0.818
581.10 0.8178
581.20 0.8175
581.30 0.8173
581.40 0.8171
581.50 0.8169
581.60 0.8167
581.70 0.8165
581.80 0.8162
581.90 0.816
582.00 0.8158
582.10 0.8156
582.20 0.8154
582.30 0.8152
582.40 0.815
582.50 0.8147
582.60 0.8145
582.70 0.8143
582.80 0.8141
582.90 0.8139
583.00 0.8137
583.10 0.8135
583.20 0.8132
583.30 0.813
583.40 0.8128
583.50 0.8126
583.60 0.8124
583.70 0.8121
583.80 0.8119
583.90 0.8117
584.00 0.8115
584.10 0.8113
584.20 0.811
584.30 0.8108
584.40 0.8106
584.50 0.8104
584.60 0.8102
584.70 0.81
584.80 0.8098
584.90 0.8096
585.00 0.8093
585.10 0.8091
585.20 0.8089
585.30 0.8087
585.40 0.8085
585.50 0.8083
585.60 0.8081
585.70 0.8079
585.80 0.8077
585.90 0.8074
586.00 0.8072
586.10 0.807
586.20 0.8068
586.30 0.8066
586.40 0.8064
586.50 0.8062
586.60 0.8059
586.70 0.8057
586.80 0.8055
586.90 0.8053
587.00 0.8051
587.10 0.8049
587.20 0.8046
587.30 0.8044
587.40 0.8042
587.50 0.804
587.60 0.8038
587.70 0.8036
587.80 0.8033
587.90 0.8031
588.00 0.8029
588.10 0.8027
588.20 0.8025
588.30 0.8023
588.40 0.8021
588.50 0.8018
588.60 0.8016
588.70 0.8014
588.80 0.8012
588.90 0.801
589.00 0.8008
589.10 0.8006
589.20 0.8003
589.30 0.8001
589.40 0.7999
589.50 0.7997
589.60 0.7995
589.70 0.7993
589.80 0.7991
589.90 0.7988
590.00 0.7986
590.10 0.7984
590.20 0.7982
590.30 0.798
590.40 0.7978
590.50 0.7976
590.60 0.7974
590.70 0.7971
590.80 0.7969
590.90 0.7967
591.00 0.7965
591.10 0.7963
591.20 0.7961
591.30 0.7959
591.40 0.7957
591.50 0.7954
591.60 0.7952
591.70 0.795
591.80 0.7948
591.90 0.7946
592.00 0.7944
592.10 0.7942
592.20 0.794
592.30 0.7938
592.40 0.7935
592.50 0.7933
592.60 0.7931
592.70 0.7929
592.80 0.7927
592.90 0.7925
593.00 0.7923
593.10 0.7921
593.20 0.7919
593.30 0.7917
593.40 0.7914
593.50 0.7912
593.60 0.791
593.70 0.7908
593.80 0.7906
593.90 0.7904
594.00 0.7902
594.10 0.79
594.20 0.7898
594.30 0.7896
594.40 0.7893
594.50 0.7891
594.60 0.7889
594.70 0.7887
594.80 0.7885
594.90 0.7883
595.00 0.7881
595.10 0.7878
595.20 0.7876
595.30 0.7874
595.40 0.7872
595.50 0.787
595.60 0.7868
595.70 0.7866
595.80 0.7864
595.90 0.7862
596.00 0.786
596.10 0.7858
596.20 0.7855
596.30 0.7853
596.40 0.7851
596.50 0.7849
596.60 0.7847
596.70 0.7845
596.80 0.7843
596.90 0.7841
597.00 0.7838
597.10 0.7836
597.20 0.7834
597.30 0.7832
597.40 0.783
597.50 0.7828
597.60 0.7826
597.70 0.7824
597.80 0.7822
597.90 0.7819
598.00 0.7817
598.10 0.7815
598.20 0.7813
598.30 0.7811
598.40 0.7809
598.50 0.7807
598.60 0.7805
598.70 0.7803
598.80 0.7801
598.90 0.7798
599.00 0.7796
599.10 0.7794
599.20 0.7792
599.30 0.779
599.40 0.7788
599.50 0.7786
599.60 0.7784
599.70 0.7782
599.80 0.778
599.90 0.7777
600.00 0.7775
600.10 0.7773
600.20 0.7771
600.30 0.7769
600.40 0.7767
600.50 0.7765
600.60 0.7763
600.70 0.7761
600.80 0.7759
600.90 0.7757
601.00 0.7755
601.10 0.7752
601.20 0.775
601.30 0.7748
601.40 0.7746
601.50 0.7744
601.60 0.7742
601.70 0.774
601.80 0.7738
601.90 0.7736
602.00 0.7734
602.10 0.7732
602.20 0.773
602.30 0.7728
602.40 0.7725
602.50 0.7723
602.60 0.7721
602.70 0.7719
602.80 0.7717
602.90 0.7715
603.00 0.7713
603.10 0.7711
603.20 0.7709
603.30 0.7707
603.40 0.7705
603.50 0.7703
603.60 0.77
603.70 0.7698
603.80 0.7696
603.90 0.7694
604.00 0.7692
604.10 0.769
604.20 0.7688
604.30 0.7686
604.40 0.7684
604.50 0.7682
604.60 0.768
604.70 0.7678
604.80 0.7676
604.90 0.7674
605.00 0.7671
605.10 0.7669
605.20 0.7667
605.30 0.7665
605.40 0.7663
605.50 0.7661
605.60 0.7659
605.70 0.7657
605.80 0.7655
605.90 0.7653
606.00 0.7651
606.10 0.7649
606.20 0.7646
606.30 0.7644
606.40 0.7642
606.50 0.764
606.60 0.7638
606.70 0.7636
606.80 0.7634
606.90 0.7632
607.00 0.763
607.10 0.7628
607.20 0.7626
607.30 0.7624
607.40 0.7622
607.50 0.762
607.60 0.7618
607.70 0.7616
607.80 0.7614
607.90 0.7612
608.00 0.761
608.10 0.7608
608.20 0.7605
608.30 0.7603
608.40 0.7601
608.50 0.7599
608.60 0.7597
608.70 0.7595
608.80 0.7593
608.90 0.7591
609.00 0.7589
609.10 0.7587
609.20 0.7585
609.30 0.7583
609.40 0.7581
609.50 0.7579
609.60 0.7577
609.70 0.7575
609.80 0.7573
609.90 0.757
610.00 0.7568
610.10 0.7566
610.20 0.7564
610.30 0.7562
610.40 0.756
610.50 0.7558
610.60 0.7556
610.70 0.7554
610.80 0.7552
610.90 0.755
611.00 0.7548
611.10 0.7546
611.20 0.7544
611.30 0.7542
611.40 0.754
611.50 0.7538
611.60 0.7536
611.70 0.7534
611.80 0.7532
611.90 0.753
612.00 0.7528
612.10 0.7526
612.20 0.7524
612.30 0.7522
612.40 0.7519
612.50 0.7517
612.60 0.7515
612.70 0.7513
612.80 0.7511
612.90 0.7509
613.00 0.7507
613.10 0.7505
613.20 0.7503
613.30 0.7501
613.40 0.7499
613.50 0.7497
613.60 0.7495
613.70 0.7493
613.80 0.7491
613.90 0.7489
614.00 0.7487
614.10 0.7485
614.20 0.7483
614.30 0.7481
614.40 0.7479
614.50 0.7477
614.60 0.7475
614.70 0.7473
614.80 0.7471
614.90 0.7469
615.00 0.7467
615.10 0.7465
615.20 0.7463
615.30 0.746
615.40 0.7458
615.50 0.7456
615.60 0.7454
615.70 0.7452
615.80 0.745
615.90 0.7448
616.00 0.7446
616.10 0.7444
616.20 0.7442
616.30 0.744
616.40 0.7438
616.50 0.7436
616.60 0.7434
616.70 0.7432
616.80 0.743
616.90 0.7428
617.00 0.7426
617.10 0.7424
617.20 0.7422
617.30 0.742
617.40 0.7418
617.50 0.7416
617.60 0.7414
617.70 0.7412
617.80 0.741
617.90 0.7408
618.00 0.7406
618.10 0.7404
618.20 0.7402
618.30 0.74
618.40 0.7398
618.50 0.7396
618.60 0.7394
618.70 0.7392
618.80 0.739
618.90 0.7388
619.00 0.7386
619.10 0.7384
619.20 0.7382
619.30 0.738
619.40 0.7378
619.50 0.7376
619.60 0.7374
619.70 0.7371
619.80 0.7369
619.90 0.7367
620.00 0.7365
620.10 0.7363
620.20 0.7361
620.30 0.7359
620.40 0.7357
620.50 0.7355
620.60 0.7353
620.70 0.7351
620.80 0.7349
620.90 0.7347
621.00 0.7345
621.10 0.7343
621.20 0.7341
621.30 0.7339
621.40 0.7337
621.50 0.7335
621.60 0.7333
621.70 0.7331
621.80 0.7329
621.90 0.7327
622.00 0.7325
622.10 0.7323
622.20 0.7321
622.30 0.7319
622.40 0.7317
622.50 0.7315
622.60 0.7313
622.70 0.7312
622.80 0.731
622.90 0.7308
623.00 0.7306
623.10 0.7304
623.20 0.7302
623.30 0.73
623.40 0.7297
623.50 0.7295
623.60 0.7293
623.70 0.7291
623.80 0.7289
623.90 0.7287
624.00 0.7285
624.10 0.7283
624.20 0.7281
624.30 0.7279
624.40 0.7277
624.50 0.7275
624.60 0.7273
624.70 0.7271
624.80 0.7269
624.90 0.7268
625.00 0.7266
625.10 0.7264
625.20 0.7262
625.30 0.726
625.40 0.7258
625.50 0.7256
625.60 0.7254
625.70 0.7252
625.80 0.725
625.90 0.7248
626.00 0.7246
626.10 0.7244
626.20 0.7242
626.30 0.724
626.40 0.7238
626.50 0.7236
626.60 0.7234
626.70 0.7232
626.80 0.723
626.90 0.7228
627.00 0.7226
627.10 0.7224
627.20 0.7222
627.30 0.722
627.40 0.7218
627.50 0.7216
627.60 0.7214
627.70 0.7212
627.80 0.721
627.90 0.7208
628.00 0.7206
628.10 0.7204
628.20 0.7202
628.30 0.72
628.40 0.7198
628.50 0.7196
628.60 0.7194
628.70 0.7192
628.80 0.719
628.90 0.7189
629.00 0.7187
629.10 0.7185
629.20 0.7183
629.30 0.7181
629.40 0.7179
629.50 0.7177
629.60 0.7175
629.70 0.7173
629.80 0.7171
629.90 0.7169
630.00 0.7167
630.10 0.7165
630.20 0.7163
630.30 0.7161
630.40 0.7159
630.50 0.7157
630.60 0.7155
630.70 0.7153
630.80 0.7151
630.90 0.7149
631.00 0.7147
631.10 0.7145
631.20 0.7143
631.30 0.7141
631.40 0.7139
631.50 0.7137
631.60 0.7135
631.70 0.7133
631.80 0.7131
631.90 0.7129
632.00 0.7127
632.10 0.7125
632.20 0.7123
632.30 0.7121
632.40 0.7119
632.50 0.7117
632.60 0.7116
632.70 0.7114
632.80 0.7112
632.90 0.711
633.00 0.7108
633.10 0.7106
633.20 0.7104
633.30 0.7102
633.40 0.71
633.50 0.7098
633.60 0.7096
633.70 0.7094
633.80 0.7092
633.90 0.709
634.00 0.7088
634.10 0.7086
634.20 0.7084
634.30 0.7082
634.40 0.708
634.50 0.7078
634.60 0.7076
634.70 0.7074
634.80 0.7072
634.90 0.707
635.00 0.7068
635.10 0.7066
635.20 0.7064
635.30 0.7062
635.40 0.706
635.50 0.7058
635.60 0.7056
635.70 0.7054
635.80 0.7052
635.90 0.705
636.00 0.7048
636.10 0.7046
636.20 0.7044
636.30 0.7043
636.40 0.7041
636.50 0.7039
636.60 0.7037
636.70 0.7035
636.80 0.7033
636.90 0.7031
637.00 0.7029
637.10 0.7027
637.20 0.7025
637.30 0.7023
637.40 0.7021
637.50 0.7019
637.60 0.7017
637.70 0.7015
637.80 0.7013
637.90 0.7011
638.00 0.7009
638.10 0.7006
638.20 0.7004
638.30 0.7002
638.40 0.7
638.50 0.6998
638.60 0.6996
638.70 0.6994
638.80 0.6992
638.90 0.699
639.00 0.6988
639.10 0.6986
639.20 0.6984
639.30 0.6981
639.40 0.6979
639.50 0.6977
639.60 0.6975
639.70 0.6972
639.80 0.697
639.90 0.6968
640.00 0.6966
640.10 0.6964
640.20 0.6961
640.30 0.6959
640.40 0.6957
640.50 0.6955
640.60 0.6952
640.70 0.695
640.80 0.6948
640.90 0.6946
641.00 0.6943
641.10 0.6941
641.20 0.6939
641.30 0.6936
641.40 0.6934
641.50 0.6932
641.60 0.693
641.70 0.6927
641.80 0.6925
641.90 0.6923
642.00 0.692
642.10 0.6918
642.20 0.6916
642.30 0.6913
642.40 0.6911
642.50 0.6909
642.60 0.6906
642.70 0.6904
642.80 0.6902
642.90 0.6899
643.00 0.6897
643.10 0.6895
643.20 0.6892
643.30 0.689
643.40 0.6888
643.50 0.6886
643.60 0.6883
643.70 0.6881
643.80 0.6879
643.90 0.6877
644.00 0.6874
644.10 0.6872
644.20 0.687
644.30 0.6868
644.40 0.6865
644.50 0.6863
644.60 0.6861
644.70 0.6858
644.80 0.6856
644.90 0.6853
645.00 0.6851
645.10 0.6849
645.20 0.6846
645.30 0.6844
645.40 0.6841
645.50 0.6839
645.60 0.6837
645.70 0.6834
645.80 0.6832
645.90 0.6829
646.00 0.6827
646.10 0.6824
646.20 0.6822
646.30 0.6819
646.40 0.6817
646.50 0.6814
646.60 0.6811
646.70 0.6808
646.80 0.6806
646.90 0.6803
647.00 0.68
647.10 0.6798
647.20 0.6795
647.30 0.6792
647.40 0.6789
647.50 0.6786
647.60 0.6783
647.70 0.678
647.80 0.6777
647.90 0.6774
648.00 0.6771
648.10 0.6768
648.20 0.6765
648.30 0.6762
648.40 0.6759
648.50 0.6756
648.60 0.6752
648.70 0.6749
648.80 0.6746
648.90 0.6742
649.00 0.6739
649.10 0.6736
649.20 0.6733
649.30 0.6729
649.40 0.6725
649.50 0.6721
649.60 0.6717
649.70 0.6712
649.80 0.6708
649.90 0.6704
650.00 0.67
650.10 0.6696
650.20 0.6692
650.30 0.6687
650.40 0.6682
650.50 0.6677
650.60 0.6671
650.70 0.6666
650.80 0.6661
650.90 0.6655
651.00 0.665
651.10 0.6645
651.20 0.6639
651.30 0.6634
651.40 0.6626
651.50 0.6618
651.60 0.6611
651.70 0.6603
651.80 0.6595
651.90 0.6587
652.00 0.658
652.10 0.6572
652.20 0.6564
652.30 0.6556
652.40 0.6543
652.50 0.6531
652.60 0.6518
652.70 0.6506
652.80 0.6493
652.90 0.6481
653.00 0.6468
653.10 0.6456
653.20 0.6443
653.30 0.6429
653.40 0.6404
653.50 0.638
653.60 0.6356
653.70 0.6332
653.80 0.6308
653.90 0.6284
654.00 0.6259
654.10 0.6235
654.20 0.6211
654.30 0.6183
654.40 0.6138
654.50 0.6094
654.60 0.6049
654.70 0.6005
654.80 0.5954
654.90 0.5877
655.00 0.5801
655.10 0.5725
655.20 0.5649
655.30 0.5564
655.40 0.5445
655.50 0.5318
655.60 0.5155
655.70 0.4979
655.80 0.4745
655.90 0.449
656.00 0.4152
656.10 0.3807
656.20 0.3447
656.30 0.3251
656.40 0.3581
656.50 0.3939
656.60 0.4276
656.70 0.4591
656.80 0.4823
656.90 0.504
657.00 0.52
657.10 0.5351
657.20 0.5467
657.30 0.5574
657.40 0.5647
657.50 0.572
657.60 0.5793
657.70 0.5866
657.80 0.5932
657.90 0.5973
658.00 0.6014
658.10 0.6055
658.20 0.6096
658.30 0.6133
658.40 0.6153
658.50 0.6173
658.60 0.6194
658.70 0.6214
658.80 0.6235
658.90 0.6255
659.00 0.6275
659.10 0.6295
659.20 0.6316
659.30 0.6334
659.40 0.6343
659.50 0.6351
659.60 0.636
659.70 0.6369
659.80 0.6377
659.90 0.6386
660.00 0.6395
660.10 0.6404
660.20 0.6412
660.30 0.642
660.40 0.6424
660.50 0.6428
660.60 0.6431
660.70 0.6435
660.80 0.6439
660.90 0.6443
661.00 0.6447
661.10 0.6451
661.20 0.6455
661.30 0.6458
661.40 0.6459
661.50 0.6461
661.60 0.6463
661.70 0.6464
661.80 0.6466
661.90 0.6467
662.00 0.6469
662.10 0.647
662.20 0.6472
662.30 0.6473
662.40 0.6474
662.50 0.6474
662.60 0.6475
662.70 0.6475
662.80 0.6475
662.90 0.6476
663.00 0.6476
663.10 0.6476
663.20 0.6477
663.30 0.6477
663.40 0.6477
663.50 0.6476
663.60 0.6476
663.70 0.6475
663.80 0.6475
663.90 0.6475
664.00 0.6474
664.10 0.6474
664.20 0.6473
664.30 0.6473
664.40 0.6472
664.50 0.6471
664.60 0.6471
664.70 0.647
664.80 0.6469
664.90 0.6468
665.00 0.6468
665.10 0.6467
665.20 0.6466
665.30 0.6465
665.40 0.6464
665.50 0.6463
665.60 0.6462
665.70 0.6461
665.80 0.646
665.90 0.6459
666.00 0.6458
666.10 0.6457
666.20 0.6456
666.30 0.6455
666.40 0.6453
666.50 0.6452
666.60 0.6451
666.70 0.645
666.80 0.6448
666.90 0.6447
667.00 0.6446
667.10 0.6444
667.20 0.6443
667.30 0.6442
667.40 0.644
667.50 0.6439
667.60 0.6438
667.70 0.6437
667.80 0.6435
667.90 0.6434
668.00 0.6433
668.10 0.6431
668.20 0.643
668.30 0.6429
668.40 0.6427
668.50 0.6426
668.60 0.6424
668.70 0.6423
668.80 0.6421
668.90 0.642
669.00 0.6418
669.10 0.6417
669.20 0.6415
669.30 0.6414
669.40 0.6413
669.50 0.6411
669.60 0.641
669.70 0.6408
669.80 0.6407
669.90 0.6406
670.00 0.6404
670.10 0.6403
670.20 0.6401
670.30 0.64
670.40 0.6398
670.50 0.6397
670.60 0.6396
670.70 0.6394
670.80 0.6393
670.90 0.6391
671.00 0.639
671.10 0.6388
671.20 0.6387
671.30 0.6386
671.40 0.6384
671.50 0.6383
671.60 0.6381
671.70 0.638
671.80 0.6378
671.90 0.6377
672.00 0.6375
672.10 0.6374
672.20 0.6372
672.30 0.6371
672.40 0.6369
672.50 0.6368
672.60 0.6366
672.70 0.6365
672.80 0.6363
672.90 0.6362
673.00 0.636
673.10 0.6359
673.20 0.6357
673.30 0.6356
673.40 0.6354
673.50 0.6352
673.60 0.6351
673.70 0.6349
673.80 0.6348
673.90 0.6346
674.00 0.6344
674.10 0.6343
674.20 0.6341
674.30 0.634
674.40 0.6338
674.50 0.6336
674.60 0.6335
674.70 0.6333
674.80 0.6331
674.90 0.633
675.00 0.6328
675.10 0.6326
675.20 0.6325
675.30 0.6323
675.40 0.6321
675.50 0.6319
675.60 0.6318
675.70 0.6316
675.80 0.6314
675.90 0.6313
676.00 0.6311
676.10 0.6309
676.20 0.6307
676.30 0.6306
676.40 0.6304
676.50 0.6302
676.60 0.63
676.70 0.6299
676.80 0.6297
676.90 0.6295
677.00 0.6293
677.10 0.6292
677.20 0.629
677.30 0.6288
677.40 0.6287
677.50 0.6285
677.60 0.6283
677.70 0.6281
677.80 0.628
677.90 0.6278
678.00 0.6276
678.10 0.6274
678.20 0.6273
678.30 0.6271
678.40 0.6269
678.50 0.6268
678.60 0.6266
678.70 0.6264
678.80 0.6262
678.90 0.6261
679.00 0.6259
679.10 0.6257
679.20 0.6256
679.30 0.6254
679.40 0.6252
679.50 0.625
679.60 0.6249
679.70 0.6247
679.80 0.6245
679.90 0.6244
680.00 0.6242
680.10 0.624
680.20 0.6239
680.30 0.6237
680.40 0.6235
680.50 0.6233
680.60 0.6232
680.70 0.623
680.80 0.6228
680.90 0.6226
681.00 0.6225
681.10 0.6223
681.20 0.6221
681.30 0.6219
681.40 0.6218
681.50 0.6216
681.60 0.6214
681.70 0.6213
681.80 0.6211
681.90 0.6209
682.00 0.6208
682.10 0.6206
682.20 0.6204
682.30 0.6202
682.40 0.6201
682.50 0.6199
682.60 0.6197
682.70 0.6196
682.80 0.6194
682.90 0.6192
683.00 0.619
683.10 0.6189
683.20 0.6187
683.30 0.6185
683.40 0.6183
683.50 0.6182
683.60 0.618
683.70 0.6178
683.80 0.6177
683.90 0.6175
684.00 0.6173
684.10 0.6171
684.20 0.617
684.30 0.6168
684.40 0.6166
684.50 0.6165
684.60 0.6163
684.70 0.6161
684.80 0.6159
684.90 0.6158
685.00 0.6156
685.10 0.6154
685.20 0.6153
685.30 0.6151
685.40 0.6149
685.50 0.6147
685.60 0.6146
685.70 0.6144
685.80 0.6142
685.90 0.6141
686.00 0.6139
686.10 0.6137
686.20 0.6135
686.30 0.6134
686.40 0.6132
686.50 0.613
686.60 0.6129
686.70 0.6127
686.80 0.6125
686.90 0.6124
687.00 0.6122
687.10 0.612
687.20 0.6118
687.30 0.6117
687.40 0.6115
687.50 0.6113
687.60 0.6112
687.70 0.611
687.80 0.6108
687.90 0.6107
688.00 0.6105
688.10 0.6103
688.20 0.6102
688.30 0.61
688.40 0.6098
688.50 0.6097
688.60 0.6095
688.70 0.6093
688.80 0.6091
688.90 0.609
689.00 0.6088
689.10 0.6086
689.20 0.6085
689.30 0.6083
689.40 0.6081
689.50 0.608
689.60 0.6078
689.70 0.6076
689.80 0.6075
689.90 0.6073
690.00 0.6071
690.10 0.6069
690.20 0.6068
690.30 0.6066
690.40 0.6064
690.50 0.6063
690.60 0.6061
690.70 0.6059
690.80 0.6058
690.90 0.6056
691.00 0.6054
691.10 0.6053
691.20 0.6051
691.30 0.6049
691.40 0.6048
691.50 0.6046
691.60 0.6044
691.70 0.6042
691.80 0.6041
691.90 0.6039
692.00 0.6037
692.10 0.6036
692.20 0.6034
692.30 0.6032
692.40 0.6031
692.50 0.6029
692.60 0.6027
692.70 0.6026
692.80 0.6024
692.90 0.6022
693.00 0.6021
693.10 0.6019
693.20 0.6017
693.30 0.6016
693.40 0.6014
693.50 0.6012
693.60 0.6011
693.70 0.6009
693.80 0.6007
693.90 0.6006
694.00 0.6004
694.10 0.6002
694.20 0.6001
694.30 0.5999
694.40 0.5997
694.50 0.5996
694.60 0.5994
694.70 0.5992
694.80 0.5991
694.90 0.5989
695.00 0.5987
695.10 0.5986
695.20 0.5984
695.30 0.5982
695.40 0.5981
695.50 0.5979
695.60 0.5977
695.70 0.5976
695.80 0.5974
695.90 0.5972
696.00 0.5971
696.10 0.5969
696.20 0.5967
696.30 0.5966
696.40 0.5964
696.50 0.5962
696.60 0.5961
696.70 0.5959
696.80 0.5957
696.90 0.5956
697.00 0.5954
697.10 0.5952
697.20 0.5951
697.30 0.5949
697.40 0.5947
697.50 0.5946
697.60 0.5944
697.70 0.5942
697.80 0.5941
697.90 0.5939
698.00 0.5938
698.10 0.5936
698.20 0.5934
698.30 0.5933
698.40 0.5931
698.50 0.5929
698.60 0.5928
698.70 0.5926
698.80 0.5924
698.90 0.5923
699.00 0.5921
699.10 0.5919
699.20 0.5918
699.30 0.5916
699.40 0.5914
699.50 0.5913
699.60 0.5911
699.70 0.591
699.80 0.5908
699.90 0.5906
700.00 0.5905
700.10 0.5903
700.20 0.5901
700.30 0.59
700.40 0.5898
700.50 0.5896
700.60 0.5895
700.70 0.5893
700.80 0.5891
700.90 0.589
701.00 0.5888
701.10 0.5887
701.20 0.5885
701.30 0.5883
701.40 0.5882
701.50 0.588
701.60 0.5878
701.70 0.5877
701.80 0.5875
701.90 0.5873
702.00 0.5872
702.10 0.587
702.20 0.5869
702.30 0.5867
702.40 0.5865
702.50 0.5864
702.60 0.5862
702.70 0.586
702.80 0.5859
702.90 0.5857
703.00 0.5856
703.10 0.5854
703.20 0.5852
703.30 0.5851
703.40 0.5849
703.50 0.5847
703.60 0.5846
703.70 0.5844
703.80 0.5843
703.90 0.5841
704.00 0.5839
704.10 0.5838
704.20 0.5836
704.30 0.5834
704.40 0.5833
704.50 0.5831
704.60 0.583
704.70 0.5828
704.80 0.5826
704.90 0.5825
705.00 0.5823
705.10 0.5822
705.20 0.582
705.30 0.5818
705.40 0.5817
705.50 0.5815
705.60 0.5813
705.70 0.5812
705.80 0.581
705.90 0.5809
706.00 0.5807
706.10 0.5805
706.20 0.5804
706.30 0.5802
706.40 0.58
706.50 0.5799
706.60 0.5797
706.70 0.5796
706.80 0.5794
706.90 0.5792
707.00 0.5791
707.10 0.5789
707.20 0.5788
707.30 0.5786
707.40 0.5784
707.50 0.5783
707.60 0.5781
707.70 0.5779
707.80 0.5778
707.90 0.5776
708.00 0.5775
708.10 0.5773
708.20 0.5771
708.30 0.577
708.40 0.5768
708.50 0.5767
708.60 0.5765
708.70 0.5763
708.80 0.5762
708.90 0.576
709.00 0.5759
709.10 0.5757
709.20 0.5755
709.30 0.5754
709.40 0.5752
709.50 0.5751
709.60 0.5749
709.70 0.5747
709.80 0.5746
709.90 0.5744
710.00 0.5743
710.10 0.5741
710.20 0.5739
710.30 0.5738
710.40 0.5736
710.50 0.5735
710.60 0.5733
710.70 0.5731
710.80 0.573
710.90 0.5728
711.00 0.5727
711.10 0.5725
711.20 0.5723
711.30 0.5722
711.40 0.572
711.50 0.5719
711.60 0.5717
711.70 0.5716
711.80 0.5714
711.90 0.5712
712.00 0.5711
712.10 0.5709
712.20 0.5708
712.30 0.5706
712.40 0.5704
712.50 0.5703
712.60 0.5701
712.70 0.57
712.80 0.5698
712.90 0.5696
713.00 0.5695
713.10 0.5693
713.20 0.5692
713.30 0.569
713.40 0.5689
713.50 0.5687
713.60 0.5685
713.70 0.5684
713.80 0.5682
713.90 0.5681
714.00 0.5679
714.10 0.5678
714.20 0.5676
714.30 0.5674
714.40 0.5673
714.50 0.5671
714.60 0.567
714.70 0.5668
714.80 0.5667
714.90 0.5665
715.00 0.5663
715.10 0.5662
715.20 0.566
715.30 0.5659
715.40 0.5657
715.50 0.5656
715.60 0.5654
715.70 0.5652
715.80 0.5651
715.90 0.5649
716.00 0.5648
716.10 0.5646
716.20 0.5645
716.30 0.5643
716.40 0.5641
716.50 0.564
716.60 0.5638
716.70 0.5637
716.80 0.5635
716.90 0.5634
717.00 0.5632
717.10 0.563
717.20 0.5629
717.30 0.5627
717.40 0.5626
717.50 0.5624
717.60 0.5623
717.70 0.5621
717.80 0.562
717.90 0.5618
718.00 0.5616
718.10 0.5615
718.20 0.5613
718.30 0.5612
718.40 0.561
718.50 0.5609
718.60 0.5607
718.70 0.5606
718.80 0.5604
718.90 0.5602
719.00 0.5601
719.10 0.5599
719.20 0.5598
719.30 0.5596
719.40 0.5595
719.50 0.5593
719.60 0.5592
719.70 0.559
719.80 0.5588
719.90 0.5587
720.00 0.5585
720.10 0.5584
720.20 0.5582
720.30 0.5581
720.40 0.5579
720.50 0.5578
720.60 0.5576
720.70 0.5575
720.80 0.5573
720.90 0.5571
721.00 0.557
721.10 0.5568
721.20 0.5567
721.30 0.5565
721.40 0.5564
721.50 0.5562
721.60 0.5561
721.70 0.5559
721.80 0.5557
721.90 0.5556
722.00 0.5554
722.10 0.5553
722.20 0.5551
722.30 0.555
722.40 0.5548
722.50 0.5547
722.60 0.5545
722.70 0.5544
722.80 0.5542
722.90 0.554
723.00 0.5539
723.10 0.5537
723.20 0.5536
723.30 0.5534
723.40 0.5533
723.50 0.5531
723.60 0.553
723.70 0.5528
723.80 0.5527
723.90 0.5525
724.00 0.5524
724.10 0.5522
724.20 0.552
724.30 0.5519
724.40 0.5517
724.50 0.5516
724.60 0.5514
724.70 0.5513
724.80 0.5511
724.90 0.551
725.00 0.5508
725.10 0.5507
725.20 0.5505
725.30 0.5504
725.40 0.5502
725.50 0.5501
725.60 0.5499
725.70 0.5498
725.80 0.5496
725.90 0.5494
726.00 0.5493
726.10 0.5491
726.20 0.549
726.30 0.5488
726.40 0.5487
726.50 0.5485
726.60 0.5484
726.70 0.5482
726.80 0.5481
726.90 0.5479
727.00 0.5478
727.10 0.5476
727.20 0.5475
727.30 0.5473
727.40 0.5472
727.50 0.547
727.60 0.5469
727.70 0.5467
727.80 0.5466
727.90 0.5464
728.00 0.5462
728.10 0.5461
728.20 0.5459
728.30 0.5458
728.40 0.5456
728.50 0.5455
728.60 0.5453
728.70 0.5452
728.80 0.545
728.90 0.5449
729.00 0.5447
729.10 0.5446
729.20 0.5444
729.30 0.5443
729.40 0.5441
729.50 0.544
729.60 0.5438
729.70 0.5437
729.80 0.5435
729.90 0.5434
730.00 0.5432
730.10 0.5431
730.20 0.5429
730.30 0.5428
730.40 0.5426
730.50 0.5425
730.60 0.5423
730.70 0.5422
730.80 0.542
730.90 0.5419
731.00 0.5417
731.10 0.5416
731.20 0.5414
731.30 0.5413
731.40 0.5411
731.50 0.541
731.60 0.5408
731.70 0.5407
731.80 0.5405
731.90 0.5404
732.00 0.5402
732.10 0.5401
732.20 0.5399
732.30 0.5398
732.40 0.5396
732.50 0.5395
732.60 0.5393
732.70 0.5392
732.80 0.539
732.90 0.5389
733.00 0.5387
733.10 0.5386
733.20 0.5384
733.30 0.5383
733.40 0.5381
733.50 0.538
733.60 0.5378
733.70 0.5377
733.80 0.5375
733.90 0.5374
734.00 0.5372
734.10 0.5371
734.20 0.5369
734.30 0.5368
734.40 0.5366
734.50 0.5365
734.60 0.5363
734.70 0.5362
734.80 0.536
734.90 0.5359
735.00 0.5357
735.10 0.5356
735.20 0.5354
735.30 0.5353
735.40 0.5351
735.50 0.535
735.60 0.5348
735.70 0.5347
735.80 0.5345
735.90 0.5344
736.00 0.5342
736.10 0.5341
736.20 0.5339
736.30 0.5338
736.40 0.5336
736.50 0.5335
736.60 0.5333
736.70 0.5332
736.80 0.533
736.90 0.5329
737.00 0.5328
737.10 0.5326
737.20 0.5325
737.30 0.5323
737.40 0.5322
737.50 0.532
737.60 0.5319
737.70 0.5317
737.80 0.5316
737.90 0.5314
738.00 0.5313
738.10 0.5311
738.20 0.531
738.30 0.5308
738.40 0.5307
738.50 0.5305
738.60 0.5304
738.70 0.5303
738.80 0.5301
738.90 0.53
739.00 0.5298
739.10 0.5297
739.20 0.5295
739.30 0.5294
739.40 0.5292
739.50 0.5291
739.60 0.5289
739.70 0.5288
739.80 0.5286
739.90 0.5285
740.00 0.5284
740.10 0.5282
740.20 0.5281
740.30 0.5279
740.40 0.5278
740.50 0.5276
740.60 0.5275
740.70 0.5273
740.80 0.5272
740.90 0.527
741.00 0.5269
741.10 0.5267
741.20 0.5266
741.30 0.5264
741.40 0.5263
741.50 0.5262
741.60 0.526
741.70 0.5259
741.80 0.5257
741.90 0.5256
742.00 0.5254
742.10 0.5253
742.20 0.5251
742.30 0.525
742.40 0.5248
742.50 0.5247
742.60 0.5245
742.70 0.5244
742.80 0.5243
742.90 0.5241
743.00 0.524
743.10 0.5238
743.20 0.5237
743.30 0.5235
743.40 0.5234
743.50 0.5232
743.60 0.5231
743.70 0.5229
743.80 0.5228
743.90 0.5227
744.00 0.5225
744.10 0.5224
744.20 0.5222
744.30 0.5221
744.40 0.5219
744.50 0.5218
744.60 0.5216
744.70 0.5215
744.80 0.5214
744.90 0.5212
745.00 0.5211
745.10 0.5209
745.20 0.5208
745.30 0.5206
745.40 0.5205
745.50 0.5203
745.60 0.5202
745.70 0.5201
745.80 0.5199
745.90 0.5198
746.00 0.5196
746.10 0.5195
746.20 0.5193
746.30 0.5192
746.40 0.5191
746.50 0.5189
746.60 0.5188
746.70 0.5186
746.80 0.5185
746.90 0.5183
747.00 0.5182
747.10 0.5181
747.20 0.5179
747.30 0.5178
747.40 0.5176
747.50 0.5175
747.60 0.5173
747.70 0.5172
747.80 0.5171
747.90 0.5169
748.00 0.5168
748.10 0.5166
748.20 0.5165
748.30 0.5163
748.40 0.5162
748.50 0.5161
748.60 0.5159
748.70 0.5158
748.80 0.5156
748.90 0.5155
749.00 0.5153
749.10 0.5152
749.20 0.5151
749.30 0.5149
749.40 0.5148
749.50 0.5146
749.60 0.5145
749.70 0.5144
749.80 0.5142
749.90 0.5141
750.00 0.5139
750.10 0.5138
750.20 0.5136
750.30 0.5135
750.40 0.5134
750.50 0.5132
750.60 0.5131
750.70 0.5129
750.80 0.5128
750.90 0.5126
751.00 0.5125
751.10 0.5124
751.20 0.5122
751.30 0.5121
751.40 0.5119
751.50 0.5118
751.60 0.5116
751.70 0.5115
751.80 0.5114
751.90 0.5112
752.00 0.5111
752.10 0.5109
752.20 0.5108
752.30 0.5107
752.40 0.5105
752.50 0.5104
752.60 0.5102
752.70 0.5101
752.80 0.5099
752.90 0.5098
753.00 0.5097
753.10 0.5095
753.20 0.5094
753.30 0.5092
753.40 0.5091
753.50 0.509
753.60 0.5088
753.70 0.5087
753.80 0.5085
753.90 0.5084
754.00 0.5083
754.10 0.5081
754.20 0.508
754.30 0.5078
754.40 0.5077
754.50 0.5075
754.60 0.5074
754.70 0.5073
754.80 0.5071
754.90 0.507
755.00 0.5068
755.10 0.5067
755.20 0.5066
755.30 0.5064
755.40 0.5063
755.50 0.5061
755.60 0.506
755.70 0.5059
755.80 0.5057
755.90 0.5056
756.00 0.5054
756.10 0.5053
756.20 0.5052
756.30 0.505
756.40 0.5049
756.50 0.5047
756.60 0.5046
756.70 0.5045
756.80 0.5043
756.90 0.5042
757.00 0.5041
757.10 0.5039
757.20 0.5038
757.30 0.5036
757.40 0.5035
757.50 0.5034
757.60 0.5032
757.70 0.5031
757.80 0.5029
757.90 0.5028
758.00 0.5027
758.10 0.5025
758.20 0.5024
758.30 0.5022
758.40 0.5021
758.50 0.502
758.60 0.5018
758.70 0.5017
758.80 0.5016
758.90 0.5014
759.00 0.5013
759.10 0.5011
759.20 0.501
759.30 0.5009
759.40 0.5007
759.50 0.5006
759.60 0.5005
759.70 0.5003
759.80 0.5002
759.90 0.5
760.00 0.4999
760.10 0.4998
760.20 0.4996
760.30 0.4995
760.40 0.4993
760.50 0.4992
760.60 0.4991
760.70 0.4989
760.80 0.4988
760.90 0.4987
761.00 0.4985
761.10 0.4984
761.20 0.4982
761.30 0.4981
761.40 0.498
761.50 0.4978
761.60 0.4977
761.70 0.4976
761.80 0.4974
761.90 0.4973
762.00 0.4971
762.10 0.497
762.20 0.4969
762.30 0.4967
762.40 0.4966
762.50 0.4965
762.60 0.4963
762.70 0.4962
762.80 0.496
762.90 0.4959
763.00 0.4958
763.10 0.4956
763.20 0.4955
763.30 0.4954
763.40 0.4952
763.50 0.4951
763.60 0.4949
763.70 0.4948
763.80 0.4947
763.90 0.4945
764.00 0.4944
764.10 0.4943
764.20 0.4941
764.30 0.494
764.40 0.4938
764.50 0.4937
764.60 0.4936
764.70 0.4934
764.80 0.4933
764.90 0.4932
765.00 0.493
765.10 0.4929
765.20 0.4928
765.30 0.4926
765.40 0.4925
765.50 0.4924
765.60 0.4922
765.70 0.4921
765.80 0.4919
765.90 0.4918
766.00 0.4917
766.10 0.4915
766.20 0.4914
766.30 0.4913
766.40 0.4911
766.50 0.491
766.60 0.4909
766.70 0.4907
766.80 0.4906
766.90 0.4905
767.00 0.4903
767.10 0.4902
767.20 0.4901
767.30 0.4899
767.40 0.4898
767.50 0.4896
767.60 0.4895
767.70 0.4894
767.80 0.4892
767.90 0.4891
768.00 0.489
768.10 0.4888
768.20 0.4887
768.30 0.4886
768.40 0.4884
768.50 0.4883
768.60 0.4882
768.70 0.488
768.80 0.4879
768.90 0.4878
769.00 0.4876
769.10 0.4875
769.20 0.4874
769.30 0.4872
769.40 0.4871
769.50 0.487
769.60 0.4868
769.70 0.4867
769.80 0.4866
769.90 0.4864
770.00 0.4863
770.10 0.4862
770.20 0.486
770.30 0.4859
770.40 0.4858
770.50 0.4856
770.60 0.4855
770.70 0.4854
770.80 0.4852
770.90 0.4851
771.00 0.4849
771.10 0.4848
771.20 0.4847
771.30 0.4845
771.40 0.4844
771.50 0.4843
771.60 0.4841
771.70 0.484
771.80 0.4839
771.90 0.4837
772.00 0.4836
772.10 0.4835
772.20 0.4833
772.30 0.4832
772.40 0.4831
772.50 0.4829
772.60 0.4828
772.70 0.4827
772.80 0.4825
772.90 0.4824
773.00 0.4823
773.10 0.4821
773.20 0.482
773.30 0.4819
773.40 0.4817
773.50 0.4816
773.60 0.4815
773.70 0.4813
773.80 0.4812
773.90 0.4811
774.00 0.4809
774.10 0.4808
774.20 0.4807
774.30 0.4805
774.40 0.4804
774.50 0.4803
774.60 0.4802
774.70 0.48
774.80 0.4799
774.90 0.4798
775.00 0.4796
775.10 0.4795
775.20 0.4794
775.30 0.4792
775.40 0.4791
775.50 0.479
775.60 0.4788
775.70 0.4787
775.80 0.4786
775.90 0.4784
776.00 0.4783
776.10 0.4782
776.20 0.478
776.30 0.4779
776.40 0.4778
776.50 0.4776
776.60 0.4775
776.70 0.4774
776.80 0.4773
776.90 0.4771
777.00 0.477
777.10 0.4769
777.20 0.4767
777.30 0.4766
777.40 0.4765
777.50 0.4763
777.60 0.4762
777.70 0.4761
777.80 0.4759
777.90 0.4758
778.00 0.4757
778.10 0.4756
778.20 0.4754
778.30 0.4753
778.40 0.4752
778.50 0.475
778.60 0.4749
778.70 0.4748
778.80 0.4746
778.90 0.4745
779.00 0.4744
779.10 0.4742
779.20 0.4741
779.30 0.474
779.40 0.4739
779.50 0.4737
779.60 0.4736
779.70 0.4735
779.80 0.4733
779.90 0.4732
780.00 0.4731
780.10 0.4729
780.20 0.4728
780.30 0.4727
780.40 0.4726
780.50 0.4724
780.60 0.4723
780.70 0.4722
780.80 0.472
780.90 0.4719
781.00 0.4718
781.10 0.4716
781.20 0.4715
781.30 0.4714
781.40 0.4713
781.50 0.4711
781.60 0.471
781.70 0.4709
781.80 0.4707
781.90 0.4706
782.00 0.4705
782.10 0.4704
782.20 0.4702
782.30 0.4701
782.40 0.47
782.50 0.4698
782.60 0.4697
782.70 0.4696
782.80 0.4694
782.90 0.4693
783.00 0.4692
783.10 0.4691
783.20 0.4689
783.30 0.4688
783.40 0.4687
783.50 0.4685
783.60 0.4684
783.70 0.4683
783.80 0.4682
783.90 0.468
784.00 0.4679
784.10 0.4678
784.20 0.4676
784.30 0.4675
784.40 0.4674
784.50 0.4673
784.60 0.4671
784.70 0.467
784.80 0.4669
784.90 0.4667
785.00 0.4666
785.10 0.4665
785.20 0.4664
785.30 0.4662
785.40 0.4661
785.50 0.466
785.60 0.4658
785.70 0.4657
785.80 0.4656
785.90 0.4655
786.00 0.4653
786.10 0.4652
786.20 0.4651
786.30 0.465
786.40 0.4648
786.50 0.4647
786.60 0.4646
786.70 0.4644
786.80 0.4643
786.90 0.4642
787.00 0.4641
787.10 0.4639
787.20 0.4638
787.30 0.4637
787.40 0.4636
787.50 0.4634
787.60 0.4633
787.70 0.4632
787.80 0.4631
787.90 0.4629
788.00 0.4628
788.10 0.4627
788.20 0.4625
788.30 0.4624
788.40 0.4623
788.50 0.4622
788.60 0.462
788.70 0.4619
788.80 0.4618
788.90 0.4617
789.00 0.4615
789.10 0.4614
789.20 0.4613
789.30 0.4612
789.40 0.461
789.50 0.4609
789.60 0.4608
789.70 0.4607
789.80 0.4605
789.90 0.4604
790.00 0.4603
790.10 0.4602
790.20 0.46
790.30 0.4599
790.40 0.4598
790.50 0.4596
790.60 0.4595
790.70 0.4594
790.80 0.4593
790.90 0.4591
791.00 0.459
791.10 0.4589
791.20 0.4588
791.30 0.4586
791.40 0.4585
791.50 0.4584
791.60 0.4583
791.70 0.4581
791.80 0.458
791.90 0.4579
792.00 0.4578
792.10 0.4576
792.20 0.4575
792.30 0.4574
792.40 0.4572
792.50 0.4571
792.60 0.457
792.70 0.4569
792.80 0.4567
792.90 0.4566
793.00 0.4565
793.10 0.4564
793.20 0.4562
793.30 0.4561
793.40 0.456
793.50 0.4559
793.60 0.4557
793.70 0.4556
793.80 0.4555
793.90 0.4554
794.00 0.4552
794.10 0.4551
794.20 0.455
794.30 0.4549
794.40 0.4547
794.50 0.4546
794.60 0.4545
794.70 0.4544
794.80 0.4542
794.90 0.4541
795.00 0.454
795.10 0.4539
795.20 0.4538
795.30 0.4536
795.40 0.4535
795.50 0.4534
795.60 0.4533
795.70 0.4531
795.80 0.453
795.90 0.4529
796.00 0.4528
796.10 0.4526
796.20 0.4525
796.30 0.4524
796.40 0.4523
796.50 0.4521
796.60 0.452
796.70 0.4519
796.80 0.4518
796.90 0.4516
797.00 0.4515
797.10 0.4514
797.20 0.4513
797.30 0.4512
797.40 0.451
797.50 0.4509
797.60 0.4508
797.70 0.4507
797.80 0.4505
797.90 0.4504
798.00 0.4503
798.10 0.4502
798.20 0.45
798.30 0.4499
798.40 0.4498
798.50 0.4497
798.60 0.4496
798.70 0.4494
798.80 0.4493
798.90 0.4492
799.00 0.4491
799.10 0.4489
799.20 0.4488
799.30 0.4487
799.40 0.4486
799.50 0.4485
799.60 0.4483
799.70 0.4482
799.80 0.4481
799.90 0.448
800.00 0.4478
800.10 0.4477
800.20 0.4476
800.30 0.4475
800.40 0.4473
800.50 0.4472
800.60 0.4471
800.70 0.447
800.80 0.4469
800.90 0.4467
801.00 0.4466
801.10 0.4465
801.20 0.4464
801.30 0.4462
801.40 0.4461
801.50 0.446
801.60 0.4459
801.70 0.4458
801.80 0.4456
801.90 0.4455
802.00 0.4454
802.10 0.4453
802.20 0.4451
802.30 0.445
802.40 0.4449
802.50 0.4448
802.60 0.4447
802.70 0.4445
802.80 0.4444
802.90 0.4443
803.00 0.4442
803.10 0.4441
803.20 0.4439
803.30 0.4438
803.40 0.4437
803.50 0.4436
803.60 0.4434
803.70 0.4433
803.80 0.4432
803.90 0.4431
804.00 0.443
804.10 0.4428
804.20 0.4427
804.30 0.4426
804.40 0.4425
804.50 0.4424
804.60 0.4422
804.70 0.4421
804.80 0.442
804.90 0.4419
805.00 0.4418
805.10 0.4416
805.20 0.4415
805.30 0.4414
805.40 0.4413
805.50 0.4412
805.60 0.441
805.70 0.4409
805.80 0.4408
805.90 0.4407
806.00 0.4405
806.10 0.4404
806.20 0.4403
806.30 0.4402
806.40 0.4401
806.50 0.4399
806.60 0.4398
806.70 0.4397
806.80 0.4396
806.90 0.4395
807.00 0.4394
807.10 0.4392
807.20 0.4391
807.30 0.439
807.40 0.4389
807.50 0.4388
807.60 0.4386
807.70 0.4385
807.80 0.4384
807.90 0.4383
808.00 0.4382
808.10 0.438
808.20 0.4379
808.30 0.4378
808.40 0.4377
808.50 0.4376
808.60 0.4374
808.70 0.4373
808.80 0.4372
808.90 0.4371
809.00 0.437
809.10 0.4368
809.20 0.4367
809.30 0.4366
809.40 0.4365
809.50 0.4364
809.60 0.4363
809.70 0.4361
809.80 0.436
809.90 0.4359
810.00 0.4358
810.10 0.4357
810.20 0.4355
810.30 0.4354
810.40 0.4353
810.50 0.4352
810.60 0.4351
810.70 0.4349
810.80 0.4348
810.90 0.4347
811.00 0.4346
811.10 0.4345
811.20 0.4344
811.30 0.4342
811.40 0.4341
811.50 0.434
811.60 0.4339
811.70 0.4338
811.80 0.4336
811.90 0.4335
812.00 0.4334
812.10 0.4333
812.20 0.4332
812.30 0.4331
812.40 0.4329
812.50 0.4328
812.60 0.4327
812.70 0.4326
812.80 0.4325
812.90 0.4323
813.00 0.4322
813.10 0.4321
813.20 0.432
813.30 0.4319
813.40 0.4318
813.50 0.4316
813.60 0.4315
813.70 0.4314
813.80 0.4313
813.90 0.4312
814.00 0.4311
814.10 0.4309
814.20 0.4308
814.30 0.4307
814.40 0.4306
814.50 0.4305
814.60 0.4303
814.70 0.4302
814.80 0.4301
814.90 0.43
815.00 0.4299
815.10 0.4298
815.20 0.4296
815.30 0.4295
815.40 0.4294
815.50 0.4293
815.60 0.4292
815.70 0.4291
815.80 0.4289
815.90 0.4288
816.00 0.4287
816.10 0.4286
816.20 0.4285
816.30 0.4284
816.40 0.4282
816.50 0.4281
816.60 0.428
816.70 0.4279
816.80 0.4278
816.90 0.4277
817.00 0.4276
817.10 0.4274
817.20 0.4273
817.30 0.4272
817.40 0.4271
817.50 0.427
817.60 0.4269
817.70 0.4267
817.80 0.4266
817.90 0.4265
818.00 0.4264
818.10 0.4263
818.20 0.4262
818.30 0.426
818.40 0.4259
818.50 0.4258
818.60 0.4257
818.70 0.4256
818.80 0.4255
818.90 0.4254
819.00 0.4252
819.10 0.4251
819.20 0.425
819.30 0.4249
819.40 0.4248
819.50 0.4247
819.60 0.4246
819.70 0.4244
819.80 0.4243
819.90 0.4242
820.00 0.4241
820.10 0.424
820.20 0.4239
820.30 0.4237
820.40 0.4236
820.50 0.4235
820.60 0.4234
820.70 0.4233
820.80 0.4232
820.90 0.4231
821.00 0.4229
821.10 0.4228
821.20 0.4227
821.30 0.4226
821.40 0.4225
821.50 0.4224
821.60 0.4222
821.70 0.4221
821.80 0.422
821.90 0.4219
822.00 0.4218
822.10 0.4217
822.20 0.4216
822.30 0.4214
822.40 0.4213
822.50 0.4212
822.60 0.4211
822.70 0.421
822.80 0.4209
822.90 0.4208
823.00 0.4206
823.10 0.4205
823.20 0.4204
823.30 0.4203
823.40 0.4202
823.50 0.4201
823.60 0.42
823.70 0.4198
823.80 0.4197
823.90 0.4196
824.00 0.4195
824.10 0.4194
824.20 0.4193
824.30 0.4192
824.40 0.419
824.50 0.4189
824.60 0.4188
824.70 0.4187
824.80 0.4186
824.90 0.4185
825.00 0.4184
825.10 0.4183
825.20 0.4181
825.30 0.418
825.40 0.4179
825.50 0.4178
825.60 0.4177
825.70 0.4176
825.80 0.4175
825.90 0.4174
826.00 0.4172
826.10 0.4171
826.20 0.417
826.30 0.4169
826.40 0.4168
826.50 0.4167
826.60 0.4166
826.70 0.4164
826.80 0.4163
826.90 0.4162
827.00 0.4161
827.10 0.416
827.20 0.4159
827.30 0.4158
827.40 0.4157
827.50 0.4155
827.60 0.4154
827.70 0.4153
827.80 0.4152
827.90 0.4151
828.00 0.415
828.10 0.4149
828.20 0.4148
828.30 0.4146
828.40 0.4145
828.50 0.4144
828.60 0.4143
828.70 0.4142
828.80 0.4141
828.90 0.414
829.00 0.4139
829.10 0.4137
829.20 0.4136
829.30 0.4135
829.40 0.4134
829.50 0.4133
829.60 0.4132
829.70 0.4131
829.80 0.413
829.90 0.4129
830.00 0.4127
830.10 0.4126
830.20 0.4125
830.30 0.4124
830.40 0.4123
830.50 0.4122
830.60 0.4121
830.70 0.412
830.80 0.4119
830.90 0.4117
831.00 0.4116
831.10 0.4115
831.20 0.4114
831.30 0.4113
831.40 0.4112
831.50 0.4111
831.60 0.411
831.70 0.4109
831.80 0.4107
831.90 0.4106
832.00 0.4105
832.10 0.4104
832.20 0.4103
832.30 0.4102
832.40 0.4101
832.50 0.41
832.60 0.4099
832.70 0.4097
832.80 0.4096
832.90 0.4095
833.00 0.4094
833.10 0.4093
833.20 0.4092
833.30 0.4091
833.40 0.409
833.50 0.4089
833.60 0.4087
833.70 0.4086
833.80 0.4085
833.90 0.4084
834.00 0.4083
834.10 0.4082
834.20 0.4081
834.30 0.408
834.40 0.4079
834.50 0.4078
834.60 0.4076
834.70 0.4075
834.80 0.4074
834.90 0.4073
835.00 0.4072
835.10 0.4071
835.20 0.407
835.30 0.4069
835.40 0.4068
835.50 0.4067
835.60 0.4066
835.70 0.4064
835.80 0.4063
835.90 0.4062
836.00 0.4061
836.10 0.406
836.20 0.4059
836.30 0.4058
836.40 0.4057
836.50 0.4056
836.60 0.4055
836.70 0.4054
836.80 0.4052
836.90 0.4051
837.00 0.405
837.10 0.4049
837.20 0.4048
837.30 0.4047
837.40 0.4046
837.50 0.4045
837.60 0.4044
837.70 0.4043
837.80 0.4042
837.90 0.404
838.00 0.4039
838.10 0.4038
838.20 0.4037
838.30 0.4036
838.40 0.4035
838.50 0.4034
838.60 0.4033
838.70 0.4032
838.80 0.4031
838.90 0.403
839.00 0.4028
839.10 0.4027
839.20 0.4026
839.30 0.4025
839.40 0.4024
839.50 0.4023
839.60 0.4022
839.70 0.4021
839.80 0.402
839.90 0.4019
840.00 0.4018
840.10 0.4017
840.20 0.4015
840.30 0.4014
840.40 0.4013
840.50 0.4012
840.60 0.4011
840.70 0.401
840.80 0.4009
840.90 0.4008
841.00 0.4007
841.10 0.4006
841.20 0.4005
841.30 0.4004
841.40 0.4003
841.50 0.4001
841.60 0.4
841.70 0.3999
841.80 0.3998
841.90 0.3997
842.00 0.3996
842.10 0.3995
842.20 0.3994
842.30 0.3993
842.40 0.3992
842.50 0.3991
842.60 0.399
842.70 0.3988
842.80 0.3987
842.90 0.3986
843.00 0.3985
843.10 0.3984
843.20 0.3983
843.30 0.3982
843.40 0.3981
843.50 0.398
843.60 0.3979
843.70 0.3978
843.80 0.3977
843.90 0.3976
844.00 0.3974
844.10 0.3973
844.20 0.3972
844.30 0.3971
844.40 0.397
844.50 0.3969
844.60 0.3968
844.70 0.3967
844.80 0.3966
844.90 0.3965
845.00 0.3964
845.10 0.3963
845.20 0.3962
845.30 0.396
845.40 0.3959
845.50 0.3958
845.60 0.3957
845.70 0.3956
845.80 0.3955
845.90 0.3954
846.00 0.3953
846.10 0.3952
846.20 0.3951
846.30 0.395
846.40 0.3949
846.50 0.3948
846.60 0.3947
846.70 0.3946
846.80 0.3944
846.90 0.3943
847.00 0.3942
847.10 0.3941
847.20 0.394
847.30 0.3939
847.40 0.3938
847.50 0.3937
847.60 0.3936
847.70 0.3935
847.80 0.3934
847.90 0.3933
848.00 0.3932
848.10 0.3931
848.20 0.393
848.30 0.3929
848.40 0.3928
848.50 0.3927
848.60 0.3926
848.70 0.3924
848.80 0.3923
848.90 0.3922
849.00 0.3921
849.10 0.392
849.20 0.3919
849.30 0.3918
849.40 0.3917
849.50 0.3916
849.60 0.3915
849.70 0.3914
849.80 0.3913
849.90 0.3912
850.00 0.3911
850.10 0.391
850.20 0.3909
850.30 0.3908
850.40 0.3907
850.50 0.3906
850.60 0.3905
850.70 0.3904
850.80 0.3903
850.90 0.3902
851.00 0.39
851.10 0.3899
851.20 0.3898
851.30 0.3897
851.40 0.3896
851.50 0.3895
851.60 0.3894
851.70 0.3893
851.80 0.3892
851.90 0.3891
852.00 0.389
852.10 0.3889
852.20 0.3888
852.30 0.3887
852.40 0.3886
852.50 0.3885
852.60 0.3884
852.70 0.3883
852.80 0.3882
852.90 0.3881
853.00 0.388
853.10 0.3879
853.20 0.3878
853.30 0.3877
853.40 0.3876
853.50 0.3874
853.60 0.3873
853.70 0.3872
853.80 0.3871
853.90 0.387
854.00 0.3869
854.10 0.3868
854.20 0.3867
854.30 0.3866
854.40 0.3865
854.50 0.3864
854.60 0.3863
854.70 0.3862
854.80 0.3861
854.90 0.386
855.00 0.3859
855.10 0.3858
855.20 0.3857
855.30 0.3856
855.40 0.3855
855.50 0.3854
855.60 0.3853
855.70 0.3852
855.80 0.3851
855.90 0.385
856.00 0.3849
856.10 0.3848
856.20 0.3847
856.30 0.3845
856.40 0.3844
856.50 0.3843
856.60 0.3842
856.70 0.3841
856.80 0.384
856.90 0.3839
857.00 0.3838
857.10 0.3837
857.20 0.3836
857.30 0.3835
857.40 0.3834
857.50 0.3833
857.60 0.3832
857.70 0.3831
857.80 0.383
857.90 0.3829
858.00 0.3828
858.10 0.3827
858.20 0.3826
858.30 0.3825
858.40 0.3824
858.50 0.3823
858.60 0.3822
858.70 0.3821
858.80 0.382
858.90 0.3819
859.00 0.3818
859.10 0.3817
859.20 0.3816
859.30 0.3815
859.40 0.3814
859.50 0.3813
859.60 0.3812
859.70 0.3811
859.80 0.381
859.90 0.3809
860.00 0.3808
860.10 0.3807
860.20 0.3806
860.30 0.3805
860.40 0.3804
860.50 0.3803
860.60 0.3802
860.70 0.3801
860.80 0.38
860.90 0.3799
861.00 0.3798
861.10 0.3797
861.20 0.3795
861.30 0.3794
861.40 0.3793
861.50 0.3792
861.60 0.3791
861.70 0.379
861.80 0.3789
861.90 0.3788
862.00 0.3787
862.10 0.3786
862.20 0.3785
862.30 0.3784
862.40 0.3783
862.50 0.3782
862.60 0.3781
862.70 0.378
862.80 0.3779
862.90 0.3778
863.00 0.3777
863.10 0.3776
863.20 0.3775
863.30 0.3774
863.40 0.3773
863.50 0.3772
863.60 0.3771
863.70 0.377
863.80 0.3769
863.90 0.3768
864.00 0.3767
864.10 0.3766
864.20 0.3765
864.30 0.3764
864.40 0.3763
864.50 0.3762
864.60 0.3761
864.70 0.376
864.80 0.3759
864.90 0.3758
865.00 0.3757
865.10 0.3756
865.20 0.3755
865.30 0.3754
865.40 0.3753
865.50 0.3752
865.60 0.3751
865.70 0.375
865.80 0.3749
865.90 0.3748
866.00 0.3747
866.10 0.3746
866.20 0.3745
866.30 0.3744
866.40 0.3743
866.50 0.3742
866.60 0.3741
866.70 0.374
866.80 0.3739
866.90 0.3738
867.00 0.3737
867.10 0.3736
867.20 0.3735
867.30 0.3734
867.40 0.3733
867.50 0.3732
867.60 0.3731
867.70 0.373
867.80 0.3729
867.90 0.3728
868.00 0.3727
868.10 0.3726
868.20 0.3725
868.30 0.3724
868.40 0.3723
868.50 0.3722
868.60 0.3721
868.70 0.372
868.80 0.3719
868.90 0.3718
869.00 0.3717
869.10 0.3716
869.20 0.3715
869.30 0.3714
869.40 0.3713
869.50 0.3712
869.60 0.3711
869.70 0.371
869.80 0.3709
869.90 0.3708
870.00 0.3707
870.10 0.3706
870.20 0.3705
870.30 0.3704
870.40 0.3703
870.50 0.3702
870.60 0.3701
870.70 0.3701
870.80 0.37
870.90 0.3699
871.00 0.3698
871.10 0.3697
871.20 0.3696
871.30 0.3695
871.40 0.3694
871.50 0.3693
871.60 0.3692
871.70 0.3691
871.80 0.369
871.90 0.3689
872.00 0.3688
872.10 0.3687
872.20 0.3686
872.30 0.3685
872.40 0.3684
872.50 0.3683
872.60 0.3682
872.70 0.3681
872.80 0.368
872.90 0.3679
873.00 0.3678
873.10 0.3677
873.20 0.3676
873.30 0.3675
873.40 0.3674
873.50 0.3673
873.60 0.3672
873.70 0.3671
873.80 0.367
873.90 0.3669
874.00 0.3668
874.10 0.3667
874.20 0.3666
874.30 0.3665
874.40 0.3664
874.50 0.3663
874.60 0.3662
874.70 0.3661
874.80 0.366
874.90 0.3659
875.00 0.3659
875.10 0.3658
875.20 0.3657
875.30 0.3656
875.40 0.3655
875.50 0.3654
875.60 0.3653
875.70 0.3652
875.80 0.3651
875.90 0.365
876.00 0.3649
876.10 0.3648
876.20 0.3647
876.30 0.3646
876.40 0.3645
876.50 0.3644
876.60 0.3643
876.70 0.3642
876.80 0.3641
876.90 0.364
877.00 0.3639
877.10 0.3638
877.20 0.3637
877.30 0.3636
877.40 0.3635
877.50 0.3634
877.60 0.3633
877.70 0.3632
877.80 0.3631
877.90 0.3631
878.00 0.363
878.10 0.3629
878.20 0.3628
878.30 0.3627
878.40 0.3626
878.50 0.3625
878.60 0.3624
878.70 0.3623
878.80 0.3622
878.90 0.3621
879.00 0.362
879.10 0.3619
879.20 0.3618
879.30 0.3617
879.40 0.3616
879.50 0.3615
879.60 0.3614
879.70 0.3613
879.80 0.3612
879.90 0.3611
880.00 0.361
880.10 0.361
880.20 0.3609
880.30 0.3608
880.40 0.3607
880.50 0.3606
880.60 0.3605
880.70 0.3604
880.80 0.3603
880.90 0.3602
881.00 0.3601
881.10 0.36
881.20 0.3599
881.30 0.3598
881.40 0.3597
881.50 0.3596
881.60 0.3595
881.70 0.3594
881.80 0.3593
881.90 0.3592
882.00 0.3592
882.10 0.3591
882.20 0.359
882.30 0.3589
882.40 0.3588
882.50 0.3587
882.60 0.3586
882.70 0.3585
882.80 0.3584
882.90 0.3583
883.00 0.3582
883.10 0.3581
883.20 0.358
883.30 0.3579
883.40 0.3578
883.50 0.3577
883.60 0.3576
883.70 0.3575
883.80 0.3574
883.90 0.3573
884.00 0.3572
884.10 0.3571
884.20 0.357
884.30 0.3569
884.40 0.3568
884.50 0.3567
884.60 0.3566
884.70 0.3565
884.80 0.3564
884.90 0.3563
885.00 0.3562
885.10 0.3561
885.20 0.356
885.30 0.3559
885.40 0.3558
885.50 0.3557
885.60 0.3556
885.70 0.3555
885.80 0.3554
885.90 0.3553
886.00 0.3552
886.10 0.3551
886.20 0.355
886.30 0.3549
886.40 0.3548
886.50 0.3547
886.60 0.3546
886.70 0.3545
886.80 0.3544
886.90 0.3543
887.00 0.3542
887.10 0.3542
887.20 0.3541
887.30 0.354
887.40 0.3539
887.50 0.3538
887.60 0.3537
887.70 0.3536
887.80 0.3535
887.90 0.3534
888.00 0.3534
888.10 0.3533
888.20 0.3532
888.30 0.3531
888.40 0.353
888.50 0.3529
888.60 0.3528
888.70 0.3527
888.80 0.3527
888.90 0.3526
889.00 0.3525
889.10 0.3524
889.20 0.3523
889.30 0.3522
889.40 0.3521
889.50 0.352
889.60 0.3519
889.70 0.3519
889.80 0.3518
889.90 0.3517
890.00 0.3516
890.10 0.3515
890.20 0.3514
890.30 0.3513
890.40 0.3512
890.50 0.3512
890.60 0.3511
890.70 0.351
890.80 0.3509
890.90 0.3508
891.00 0.3507
891.10 0.3506
891.20 0.3505
891.30 0.3504
891.40 0.3504
891.50 0.3503
891.60 0.3502
891.70 0.3501
891.80 0.35
891.90 0.3499
892.00 0.3498
892.10 0.3497
892.20 0.3497
892.30 0.3496
892.40 0.3495
892.50 0.3494
892.60 0.3493
892.70 0.3492
892.80 0.3491
892.90 0.349
893.00 0.3489
893.10 0.3488
893.20 0.3487
893.30 0.3486
893.40 0.3485
893.50 0.3485
893.60 0.3484
893.70 0.3483
893.80 0.3482
893.90 0.3481
894.00 0.348
894.10 0.3479
894.20 0.3478
894.30 0.3477
894.40 0.3476
894.50 0.3475
894.60 0.3474
894.70 0.3473
894.80 0.3473
894.90 0.3472
895.00 0.3471
895.10 0.347
895.20 0.3469
895.30 0.3468
895.40 0.3467
895.50 0.3466
895.60 0.3465
895.70 0.3464
895.80 0.3463
895.90 0.3463
896.00 0.3462
896.10 0.3461
896.20 0.346
896.30 0.3459
896.40 0.3458
896.50 0.3457
896.60 0.3456
896.70 0.3455
896.80 0.3454
896.90 0.3453
897.00 0.3452
897.10 0.3451
897.20 0.345
897.30 0.3449
897.40 0.3448
897.50 0.3447
897.60 0.3446
897.70 0.3445
897.80 0.3444
897.90 0.3443
898.00 0.3442
898.10 0.3441
898.20 0.344
898.30 0.3439
898.40 0.3438
898.50 0.3437
898.60 0.3436
898.70 0.3435
898.80 0.3434
898.90 0.3433
899.00 0.3432
899.10 0.3431
899.20 0.343
899.30 0.3429
899.40 0.3428
899.50 0.3427
899.60 0.3426
899.70 0.3425
899.80 0.3424
899.90 0.3423
900.00 0.3421
900.10 0.342
900.20 0.3419
900.30 0.3418
900.40 0.3417
900.50 0.3416
900.60 0.3415
900.70 0.3414
900.80 0.3413
900.90 0.3412
901.00 0.3411
901.10 0.341
901.20 0.3409
901.30 0.3408
901.40 0.3407
901.50 0.3406
901.60 0.3405
901.70 0.3404
901.80 0.3403
901.90 0.3402
902.00 0.3401
902.10 0.34
902.20 0.3399
902.30 0.3399
902.40 0.3398
902.50 0.3397
902.60 0.3396
902.70 0.3396
902.80 0.3395
902.90 0.3394
903.00 0.3393
903.10 0.3393
903.20 0.3392
903.30 0.3391
903.40 0.339
903.50 0.339
903.60 0.3389
903.70 0.3388
903.80 0.3387
903.90 0.3387
904.00 0.3386
904.10 0.3385
904.20 0.3384
904.30 0.3384
904.40 0.3383
904.50 0.3382
904.60 0.3381
904.70 0.3381
904.80 0.338
904.90 0.3379
905.00 0.3378
905.10 0.3378
905.20 0.3377
905.30 0.3376
905.40 0.3375
905.50 0.3375
905.60 0.3374
905.70 0.3373
905.80 0.3373
905.90 0.3372
906.00 0.3371
906.10 0.337
906.20 0.337
906.30 0.3369
906.40 0.3368
906.50 0.3367
906.60 0.3367
906.70 0.3366
906.80 0.3365
906.90 0.3364
907.00 0.3364
907.10 0.3363
907.20 0.3362
907.30 0.3361
907.40 0.336
907.50 0.3359
907.60 0.3358
907.70 0.3358
907.80 0.3357
907.90 0.3356
908.00 0.3355
908.10 0.3354
908.20 0.3353
908.30 0.3352
908.40 0.3351
908.50 0.3351
908.60 0.335
908.70 0.3349
908.80 0.3348
908.90 0.3347
909.00 0.3346
909.10 0.3345
909.20 0.3345
909.30 0.3344
909.40 0.3343
909.50 0.3342
909.60 0.3341
909.70 0.334
909.80 0.3339
909.90 0.3339
910.00 0.3338
910.10 0.3337
910.20 0.3336
910.30 0.3335
910.40 0.3334
910.50 0.3333
910.60 0.3333
910.70 0.3332
910.80 0.3331
910.90 0.333
911.00 0.3329
911.10 0.3328
911.20 0.3327
911.30 0.3327
911.40 0.3326
911.50 0.3325
911.60 0.3324
911.70 0.3323
911.80 0.3322
911.90 0.3321
912.00 0.3321
912.10 0.332
912.20 0.3319
912.30 0.3318
912.40 0.3317
912.50 0.3316
912.60 0.3315
912.70 0.3314
912.80 0.3313
912.90 0.3313
913.00 0.3312
913.10 0.3311
913.20 0.331
913.30 0.3309
913.40 0.3308
913.50 0.3307
913.60 0.3306
913.70 0.3305
913.80 0.3305
913.90 0.3304
914.00 0.3303
914.10 0.3302
914.20 0.3301
914.30 0.33
914.40 0.3299
914.50 0.3298
914.60 0.3297
914.70 0.3297
914.80 0.3296
914.90 0.3295
915.00 0.3294
915.10 0.3293
915.20 0.3292
915.30 0.3291
915.40 0.329
915.50 0.329
915.60 0.3289
915.70 0.3288
915.80 0.3287
915.90 0.3286
916.00 0.3285
916.10 0.3284
916.20 0.3283
916.30 0.3282
916.40 0.3282
916.50 0.3281
916.60 0.328
916.70 0.3279
916.80 0.3278
916.90 0.3277
917.00 0.3276
917.10 0.3275
917.20 0.3274
917.30 0.3273
917.40 0.3272
917.50 0.327
917.60 0.3269
917.70 0.3268
917.80 0.3267
917.90 0.3265
918.00 0.3264
918.10 0.3263
918.20 0.3262
918.30 0.3261
918.40 0.3259
918.50 0.3258
918.60 0.3257
918.70 0.3256
918.80 0.3255
918.90 0.3253
919.00 0.3252
919.10 0.3251
919.20 0.325
919.30 0.3249
919.40 0.3248
919.50 0.3246
919.60 0.3245
919.70 0.3244
919.80 0.3243
919.90 0.3242
920.00 0.324
920.10 0.3239
920.20 0.3238
920.30 0.3237
920.40 0.3236
920.50 0.3234
920.60 0.3233
920.70 0.3232
920.80 0.3231
920.90 0.323
921.00 0.3228
921.10 0.3227
921.20 0.3226
921.30 0.3225
921.40 0.3224
921.50 0.3222
921.60 0.3221
921.70 0.322
921.80 0.3219
921.90 0.3218
922.00 0.3217
922.10 0.3216
922.20 0.3216
922.30 0.3215
922.40 0.3215
922.50 0.3214
922.60 0.3214
922.70 0.3213
922.80 0.3213
922.90 0.3212
923.00 0.3211
923.10 0.3211
923.20 0.321
923.30 0.321
923.40 0.3209
923.50 0.3209
923.60 0.3208
923.70 0.3208
923.80 0.3207
923.90 0.3207
924.00 0.3206
924.10 0.3206
924.20 0.3205
924.30 0.3205
924.40 0.3204
924.50 0.3204
924.60 0.3203
924.70 0.3203
924.80 0.3202
924.90 0.3202
925.00 0.3201
925.10 0.3201
925.20 0.32
925.30 0.32
925.40 0.3199
925.50 0.3199
925.60 0.3198
925.70 0.3198
925.80 0.3197
925.90 0.3197
926.00 0.3196
926.10 0.3196
926.20 0.3195
926.30 0.3195
926.40 0.3194
926.50 0.3194
926.60 0.3193
926.70 0.3193
926.80 0.3192
926.90 0.3192
927.00 0.3191
927.10 0.3191
927.20 0.319
927.30 0.3189
927.40 0.3188
927.50 0.3187
927.60 0.3187
927.70 0.3186
927.80 0.3185
927.90 0.3184
928.00 0.3184
928.10 0.3183
928.20 0.3182
928.30 0.3181
928.40 0.3181
928.50 0.318
928.60 0.3179
928.70 0.3178
928.80 0.3177
928.90 0.3177
929.00 0.3176
929.10 0.3175
929.20 0.3174
929.30 0.3174
929.40 0.3173
929.50 0.3172
929.60 0.3171
929.70 0.3171
929.80 0.317
929.90 0.3169
930.00 0.3168
930.10 0.3167
930.20 0.3167
930.30 0.3166
930.40 0.3165
930.50 0.3164
930.60 0.3164
930.70 0.3163
930.80 0.3162
930.90 0.3161
931.00 0.3161
931.10 0.316
931.20 0.3159
931.30 0.3158
931.40 0.3158
931.50 0.3157
931.60 0.3156
931.70 0.3155
931.80 0.3155
931.90 0.3154
932.00 0.3153
932.10 0.3152
932.20 0.3151
932.30 0.3151
932.40 0.315
932.50 0.3149
932.60 0.3148
932.70 0.3147
932.80 0.3147
932.90 0.3146
933.00 0.3145
933.10 0.3144
933.20 0.3143
933.30 0.3143
933.40 0.3142
933.50 0.3141
933.60 0.314
933.70 0.3139
933.80 0.3139
933.90 0.3138
934.00 0.3137
934.10 0.3136
934.20 0.3135
934.30 0.3135
934.40 0.3134
934.50 0.3133
934.60 0.3132
934.70 0.3131
934.80 0.3131
934.90 0.313
935.00 0.3129
935.10 0.3128
935.20 0.3127
935.30 0.3127
935.40 0.3126
935.50 0.3125
935.60 0.3124
935.70 0.3123
935.80 0.3123
935.90 0.3122
936.00 0.3121
936.10 0.312
936.20 0.3119
936.30 0.3119
936.40 0.3118
936.50 0.3117
936.60 0.3116
936.70 0.3115
936.80 0.3115
936.90 0.3114
937.00 0.3113
937.10 0.3112
937.20 0.3111
937.30 0.3111
937.40 0.311
937.50 0.3109
937.60 0.3108
937.70 0.3107
937.80 0.3107
937.90 0.3106
938.00 0.3105
938.10 0.3104
938.20 0.3103
938.30 0.3103
938.40 0.3102
938.50 0.3101
938.60 0.31
938.70 0.3099
938.80 0.3099
938.90 0.3098
939.00 0.3097
939.10 0.3096
939.20 0.3095
939.30 0.3095
939.40 0.3094
939.50 0.3093
939.60 0.3092
939.70 0.3091
939.80 0.3091
939.90 0.309
940.00 0.3089
940.10 0.3088
940.20 0.3087
940.30 0.3087
940.40 0.3086
940.50 0.3085
940.60 0.3084
940.70 0.3084
940.80 0.3083
940.90 0.3082
941.00 0.3081
941.10 0.308
941.20 0.308
941.30 0.3079
941.40 0.3078
941.50 0.3077
941.60 0.3076
941.70 0.3076
941.80 0.3075
941.90 0.3074
942.00 0.3073
942.10 0.3072
942.20 0.3072
942.30 0.3071
942.40 0.307
942.50 0.3069
942.60 0.3068
942.70 0.3068
942.80 0.3067
942.90 0.3066
943.00 0.3065
943.10 0.3065
943.20 0.3064
943.30 0.3063
943.40 0.3062
943.50 0.3061
943.60 0.3061
943.70 0.306
943.80 0.3059
943.90 0.3058
944.00 0.3057
944.10 0.3057
944.20 0.3056
944.30 0.3055
944.40 0.3054
944.50 0.3053
944.60 0.3053
944.70 0.3052
944.80 0.3051
944.90 0.305
945.00 0.3049
945.10 0.3049
945.20 0.3048
945.30 0.3047
945.40 0.3046
945.50 0.3045
945.60 0.3044
945.70 0.3044
945.80 0.3043
945.90 0.3042
946.00 0.3041
946.10 0.304
946.20 0.3039
946.30 0.3039
946.40 0.3038
946.50 0.3037
946.60 0.3036
946.70 0.3035
946.80 0.3035
946.90 0.3034
947.00 0.3033
947.10 0.3032
947.20 0.3031
947.30 0.3031
947.40 0.303
947.50 0.3029
947.60 0.3028
947.70 0.3027
947.80 0.3026
947.90 0.3025
948.00 0.3024
948.10 0.3023
948.20 0.3023
948.30 0.3022
948.40 0.3021
948.50 0.302
948.60 0.3019
948.70 0.3018
948.80 0.3017
948.90 0.3016
949.00 0.3015
949.10 0.3015
949.20 0.3014
949.30 0.3013
949.40 0.3012
949.50 0.3011
949.60 0.301
949.70 0.3009
949.80 0.3008
949.90 0.3007
950.00 0.3005
950.10 0.3004
950.20 0.3003
950.30 0.3002
950.40 0.3001
950.50 0.3
950.60 0.2999
950.70 0.2998
950.80 0.2997
950.90 0.2996
951.00 0.2995
951.10 0.2994
951.20 0.2993
951.30 0.2992
951.40 0.299
951.50 0.2989
951.60 0.2988
951.70 0.2986
951.80 0.2985
951.90 0.2983
952.00 0.2982
952.10 0.298
952.20 0.2979
952.30 0.2977
952.40 0.2975
952.50 0.2974
952.60 0.2972
952.70 0.297
952.80 0.2968
952.90 0.2966
953.00 0.2964
953.10 0.2962
953.20 0.2959
953.30 0.2957
953.40 0.2955
953.50 0.2953
953.60 0.2949
953.70 0.2946
953.80 0.2943
953.90 0.294
954.00 0.2936
954.10 0.2931
954.20 0.2928
954.30 0.2932
954.40 0.2927
954.50 0.2928
954.60 0.2931
954.70 0.2934
954.80 0.2936
954.90 0.2937
955.00 0.2939
955.10 0.2941
955.20 0.2941
955.30 0.2942
955.40 0.2943
955.50 0.2943
955.60 0.2944
955.70 0.2945
955.80 0.2946
955.90 0.2946
956.00 0.2946
956.10 0.2946
956.20 0.2946
956.30 0.2946
956.40 0.2946
956.50 0.2946
956.60 0.2946
956.70 0.2947
956.80 0.2947
956.90 0.2947
957.00 0.2947
957.10 0.2947
957.20 0.2946
957.30 0.2946
957.40 0.2946
957.50 0.2945
957.60 0.2945
957.70 0.2944
957.80 0.2944
957.90 0.2944
958.00 0.2943
958.10 0.2943
958.20 0.2942
958.30 0.2942
958.40 0.2941
958.50 0.2941
958.60 0.294
958.70 0.294
958.80 0.2939
958.90 0.2939
959.00 0.2938
959.10 0.2938
959.20 0.2938
959.30 0.2937
959.40 0.2936
959.50 0.2936
959.60 0.2935
959.70 0.2934
959.80 0.2934
959.90 0.2933
960.00 0.2933
960.10 0.2932
960.20 0.2931
960.30 0.2931
960.40 0.293
960.50 0.2929
960.60 0.2929
960.70 0.2928
960.80 0.2927
960.90 0.2927
961.00 0.2926
961.10 0.2925
961.20 0.2925
961.30 0.2924
961.40 0.2924
961.50 0.2923
961.60 0.2922
961.70 0.2922
961.80 0.2921
961.90 0.292
962.00 0.292
962.10 0.2919
962.20 0.2918
962.30 0.2917
962.40 0.2917
962.50 0.2916
962.60 0.2915
962.70 0.2915
962.80 0.2914
962.90 0.2913
963.00 0.2912
963.10 0.2912
963.20 0.2911
963.30 0.291
963.40 0.291
963.50 0.2909
963.60 0.2908
963.70 0.2908
963.80 0.2907
963.90 0.2906
964.00 0.2905
964.10 0.2905
964.20 0.2904
964.30 0.2903
964.40 0.2903
964.50 0.2902
964.60 0.2901
964.70 0.29
964.80 0.29
964.90 0.2899
965.00 0.2898
965.10 0.2897
965.20 0.2897
965.30 0.2896
965.40 0.2895
965.50 0.2895
965.60 0.2894
965.70 0.2893
965.80 0.2892
965.90 0.2892
966.00 0.2891
966.10 0.289
966.20 0.289
966.30 0.2889
966.40 0.2888
966.50 0.2887
966.60 0.2887
966.70 0.2886
966.80 0.2885
966.90 0.2885
967.00 0.2884
967.10 0.2883
967.20 0.2882
967.30 0.2882
967.40 0.2881
967.50 0.288
967.60 0.2879
967.70 0.2879
967.80 0.2878
967.90 0.2877
968.00 0.2877
968.10 0.2876
968.20 0.2875
968.30 0.2874
968.40 0.2874
968.50 0.2873
968.60 0.2872
968.70 0.2871
968.80 0.2871
968.90 0.287
969.00 0.2869
969.10 0.2869
969.20 0.2868
969.30 0.2867
969.40 0.2866
969.50 0.2866
969.60 0.2865
969.70 0.2864
969.80 0.2864
969.90 0.2863
970.00 0.2862
970.10 0.2861
970.20 0.2861
970.30 0.286
970.40 0.2859
970.50 0.2859
970.60 0.2858
970.70 0.2857
970.80 0.2856
970.90 0.2856
971.00 0.2855
971.10 0.2854
971.20 0.2854
971.30 0.2853
971.40 0.2852
971.50 0.2851
971.60 0.2851
971.70 0.285
971.80 0.2849
971.90 0.2849
972.00 0.2848
972.10 0.2847
972.20 0.2846
972.30 0.2846
972.40 0.2845
972.50 0.2844
972.60 0.2844
972.70 0.2843
972.80 0.2842
972.90 0.2841
973.00 0.2841
973.10 0.284
973.20 0.2839
973.30 0.2839
973.40 0.2838
973.50 0.2837
973.60 0.2836
973.70 0.2836
973.80 0.2835
973.90 0.2834
974.00 0.2834
974.10 0.2833
974.20 0.2832
974.30 0.2831
974.40 0.2831
974.50 0.283
974.60 0.2829
974.70 0.2829
974.80 0.2828
974.90 0.2827
975.00 0.2826
975.10 0.2826
975.20 0.2825
975.30 0.2824
975.40 0.2824
975.50 0.2823
975.60 0.2822
975.70 0.2821
975.80 0.2821
975.90 0.282
976.00 0.2819
976.10 0.2819
976.20 0.2818
976.30 0.2817
976.40 0.2817
976.50 0.2816
976.60 0.2815
976.70 0.2814
976.80 0.2814
976.90 0.2813
977.00 0.2812
977.10 0.2812
977.20 0.2811
977.30 0.281
977.40 0.2809
977.50 0.2809
977.60 0.2808
977.70 0.2807
977.80 0.2807
977.90 0.2806
978.00 0.2805
978.10 0.2804
978.20 0.2804
978.30 0.2803
978.40 0.2802
978.50 0.2802
978.60 0.2801
978.70 0.28
978.80 0.28
978.90 0.2799
979.00 0.2798
979.10 0.2797
979.20 0.2797
979.30 0.2796
979.40 0.2795
979.50 0.2795
979.60 0.2794
979.70 0.2793
979.80 0.2792
979.90 0.2792
980.00 0.2791
980.10 0.279
980.20 0.279
980.30 0.2789
980.40 0.2788
980.50 0.2788
980.60 0.2787
980.70 0.2786
980.80 0.2785
980.90 0.2785
981.00 0.2784
981.10 0.2783
981.20 0.2783
981.30 0.2782
981.40 0.2781
981.50 0.2781
981.60 0.278
981.70 0.2779
981.80 0.2778
981.90 0.2778
982.00 0.2777
982.10 0.2776
982.20 0.2776
982.30 0.2775
982.40 0.2774
982.50 0.2774
982.60 0.2773
982.70 0.2772
982.80 0.2771
982.90 0.2771
983.00 0.277
983.10 0.2769
983.20 0.2769
983.30 0.2768
983.40 0.2767
983.50 0.2767
983.60 0.2766
983.70 0.2765
983.80 0.2764
983.90 0.2764
984.00 0.2763
984.10 0.2762
984.20 0.2762
984.30 0.2761
984.40 0.276
984.50 0.276
984.60 0.2759
984.70 0.2758
984.80 0.2758
984.90 0.2757
985.00 0.2756
985.10 0.2755
985.20 0.2755
985.30 0.2754
985.40 0.2753
985.50 0.2753
985.60 0.2752
985.70 0.2751
985.80 0.2751
985.90 0.275
986.00 0.2749
986.10 0.2749
986.20 0.2748
986.30 0.2747
986.40 0.2747
986.50 0.2746
986.60 0.2745
986.70 0.2744
986.80 0.2744
986.90 0.2743
987.00 0.2742
987.10 0.2742
987.20 0.2741
987.30 0.274
987.40 0.274
987.50 0.2739
987.60 0.2738
987.70 0.2738
987.80 0.2737
987.90 0.2736
988.00 0.2735
988.10 0.2735
988.20 0.2734
988.30 0.2733
988.40 0.2733
988.50 0.2732
988.60 0.2731
988.70 0.2731
988.80 0.273
988.90 0.2729
989.00 0.2729
989.10 0.2728
989.20 0.2727
989.30 0.2727
989.40 0.2726
989.50 0.2725
989.60 0.2724
989.70 0.2724
989.80 0.2723
989.90 0.2722
990.00 0.2722
990.10 0.2721
990.20 0.272
990.30 0.272
990.40 0.2719
990.50 0.2718
990.60 0.2718
990.70 0.2717
990.80 0.2716
990.90 0.2716
991.00 0.2715
991.10 0.2714
991.20 0.2714
991.30 0.2713
991.40 0.2712
991.50 0.2711
991.60 0.2711
991.70 0.271
991.80 0.2709
991.90 0.2709
992.00 0.2708
992.10 0.2707
992.20 0.2707
992.30 0.2706
992.40 0.2705
992.50 0.2705
992.60 0.2704
992.70 0.2703
992.80 0.2702
992.90 0.2702
993.00 0.2701
993.10 0.27
993.20 0.27
993.30 0.2699
993.40 0.2698
993.50 0.2698
993.60 0.2697
993.70 0.2696
993.80 0.2695
993.90 0.2695
994.00 0.2694
994.10 0.2693
994.20 0.2693
994.30 0.2692
994.40 0.2691
994.50 0.2691
994.60 0.269
994.70 0.2689
994.80 0.2689
994.90 0.2688
995.00 0.2687
995.10 0.2686
995.20 0.2686
995.30 0.2685
995.40 0.2684
995.50 0.2684
995.60 0.2683
995.70 0.2682
995.80 0.2681
995.90 0.2681
996.00 0.268
996.10 0.2679
996.20 0.2679
996.30 0.2678
996.40 0.2677
996.50 0.2676
996.60 0.2676
996.70 0.2675
996.80 0.2674
996.90 0.2674
997.00 0.2673
997.10 0.2672
997.20 0.2671
997.30 0.2671
997.40 0.267
997.50 0.2669
997.60 0.2668
997.70 0.2668
997.80 0.2667
997.90 0.2666
998.00 0.2665
998.10 0.2664
998.20 0.2663
998.30 0.2663
998.40 0.2662
998.50 0.2661
998.60 0.266
998.70 0.2659
998.80 0.2658
998.90 0.2658
999.00 0.2657
999.10 0.2656
999.20 0.2655
999.30 0.2654
999.40 0.2654
999.50 0.2653
999.60 0.2652
999.70 0.2651
999.80 0.265
999.90 0.2648
1000.00 0.2647
1000.10 0.2646
1000.20 0.2645
1000.30 0.2644
1000.40 0.2643
1000.50 0.2642
1000.60 0.264
1000.70 0.2639
1000.80 0.2638
1000.90 0.2637
1001.00 0.2636
1001.10 0.2635
1001.20 0.2633
1001.30 0.2632
1001.40 0.2631
1001.50 0.263
1001.60 0.2629
1001.70 0.2627
1001.80 0.2626
1001.90 0.2624
1002.00 0.2622
1002.10 0.262
1002.20 0.2617
1002.30 0.2615
1002.40 0.2613
1002.50 0.261
1002.60 0.2608
1002.70 0.2606
1002.80 0.2603
1002.90 0.2601
1003.00 0.2599
1003.10 0.2596
1003.20 0.2593
1003.30 0.2589
1003.40 0.2585
1003.50 0.2581
1003.60 0.2577
1003.70 0.2574
1003.80 0.257
1003.90 0.2564
1004.00 0.2559
1004.10 0.2553
1004.20 0.2547
1004.30 0.2538
1004.40 0.2529
1004.50 0.2519
1004.60 0.2521
1004.70 0.2515
1004.80 0.2522
1004.90 0.2531
1005.00 0.2539
1005.10 0.2544
1005.20 0.2548
1005.30 0.2553
1005.40 0.2558
1005.50 0.2561
1005.60 0.2563
1005.70 0.2566
1005.80 0.2568
1005.90 0.2571
1006.00 0.2573
1006.10 0.2576
1006.20 0.2577
1006.30 0.2579
1006.40 0.258
1006.50 0.2581
1006.60 0.2582
1006.70 0.2583
1006.80 0.2584
1006.90 0.2586
1007.00 0.2587
1007.10 0.2587
1007.20 0.2588
1007.30 0.2588
1007.40 0.2589
1007.50 0.2589
1007.60 0.2589
1007.70 0.2589
1007.80 0.2589
1007.90 0.2589
1008.00 0.2589
1008.10 0.2589
1008.20 0.2589
1008.30 0.2589
1008.40 0.2588
1008.50 0.2588
1008.60 0.2588
1008.70 0.2588
1008.80 0.2588
1008.90 0.2588
1009.00 0.2588
1009.10 0.2587
1009.20 0.2587
1009.30 0.2587
1009.40 0.2587
1009.50 0.2587
1009.60 0.2587
1009.70 0.2586
1009.80 0.2586
1009.90 0.2585
1010.00 0.2585
1010.10 0.2584
1010.20 0.2584
1010.30 0.2583
1010.40 0.2583
1010.50 0.2582
1010.60 0.2582
1010.70 0.2582
1010.80 0.2581
1010.90 0.2581
1011.00 0.258
1011.10 0.258
1011.20 0.2579
1011.30 0.2579
1011.40 0.2578
1011.50 0.2578
1011.60 0.2577
1011.70 0.2577
1011.80 0.2576
1011.90 0.2576
1012.00 0.2575
1012.10 0.2574
1012.20 0.2574
1012.30 0.2573
1012.40 0.2573
1012.50 0.2572
1012.60 0.2572
1012.70 0.2571
1012.80 0.257
1012.90 0.257
1013.00 0.2569
1013.10 0.2569
1013.20 0.2568
1013.30 0.2568
1013.40 0.2567
1013.50 0.2566
1013.60 0.2566
1013.70 0.2565
1013.80 0.2565
1013.90 0.2564
1014.00 0.2563
1014.10 0.2563
1014.20 0.2562
1014.30 0.2562
1014.40 0.2561
1014.50 0.2561
1014.60 0.256
1014.70 0.2559
1014.80 0.2559
1014.90 0.2558
1015.00 0.2558
1015.10 0.2557
1015.20 0.2556
1015.30 0.2556
1015.40 0.2555
1015.50 0.2554
1015.60 0.2554
1015.70 0.2553
1015.80 0.2553
1015.90 0.2552
1016.00 0.2551
1016.10 0.2551
1016.20 0.255
1016.30 0.255
1016.40 0.2549
1016.50 0.2548
1016.60 0.2548
1016.70 0.2547
1016.80 0.2547
1016.90 0.2546
1017.00 0.2545
1017.10 0.2545
1017.20 0.2544
1017.30 0.2543
1017.40 0.2543
1017.50 0.2542
1017.60 0.2542
1017.70 0.2541
1017.80 0.254
1017.90 0.254
1018.00 0.2539
1018.10 0.2539
1018.20 0.2538
1018.30 0.2537
1018.40 0.2537
1018.50 0.2536
1018.60 0.2535
1018.70 0.2535
1018.80 0.2534
1018.90 0.2534
1019.00 0.2533
1019.10 0.2532
1019.20 0.2532
1019.30 0.2531
1019.40 0.2531
1019.50 0.253
1019.60 0.2529
1019.70 0.2529
1019.80 0.2528
1019.90 0.2527
1020.00 0.2527
1020.10 0.2526
1020.20 0.2526
1020.30 0.2525
1020.40 0.2524
1020.50 0.2524
1020.60 0.2523
1020.70 0.2523
1020.80 0.2522
1020.90 0.2521
1021.00 0.2521
1021.10 0.252
1021.20 0.252
1021.30 0.2519
1021.40 0.2518
1021.50 0.2518
1021.60 0.2517
1021.70 0.2516
1021.80 0.2516
1021.90 0.2515
1022.00 0.2515
1022.10 0.2514
1022.20 0.2513
1022.30 0.2513
1022.40 0.2512
1022.50 0.2511
1022.60 0.2511
1022.70 0.251
1022.80 0.251
1022.90 0.2509
1023.00 0.2508
1023.10 0.2508
1023.20 0.2507
1023.30 0.2507
1023.40 0.2506
1023.50 0.2505
1023.60 0.2505
1023.70 0.2504
1023.80 0.2503
1023.90 0.2503
1024.00 0.2502
1024.10 0.2502
1024.20 0.2501
1024.30 0.25
1024.40 0.25
1024.50 0.2499
1024.60 0.2499
1024.70 0.2498
1024.80 0.2497
1024.90 0.2497
1025.00 0.2496
1025.10 0.2496
1025.20 0.2495
1025.30 0.2494
1025.40 0.2494
1025.50 0.2493
1025.60 0.2493
1025.70 0.2492
1025.80 0.2491
1025.90 0.2491
1026.00 0.249
1026.10 0.2489
1026.20 0.2489
1026.30 0.2488
1026.40 0.2488
1026.50 0.2487
1026.60 0.2486
1026.70 0.2486
1026.80 0.2485
1026.90 0.2485
1027.00 0.2484
1027.10 0.2483
1027.20 0.2483
1027.30 0.2482
1027.40 0.2482
1027.50 0.2481
1027.60 0.248
1027.70 0.248
1027.80 0.2479
1027.90 0.2479
1028.00 0.2478
1028.10 0.2477
1028.20 0.2477
1028.30 0.2476
1028.40 0.2476
1028.50 0.2475
1028.60 0.2474
1028.70 0.2474
1028.80 0.2473
1028.90 0.2473
1029.00 0.2472
1029.10 0.2471
1029.20 0.2471
1029.30 0.247
1029.40 0.247
1029.50 0.2469
1029.60 0.2468
1029.70 0.2468
1029.80 0.2467
1029.90 0.2467
1030.00 0.2466
1030.10 0.2465
1030.20 0.2465
1030.30 0.2464
1030.40 0.2464
1030.50 0.2463
1030.60 0.2462
1030.70 0.2462
1030.80 0.2461
1030.90 0.2461
1031.00 0.246
1031.10 0.2459
1031.20 0.2459
1031.30 0.2458
1031.40 0.2458
1031.50 0.2457
1031.60 0.2456
1031.70 0.2456
1031.80 0.2455
1031.90 0.2455
1032.00 0.2454
1032.10 0.2453
1032.20 0.2453
1032.30 0.2452
1032.40 0.2452
1032.50 0.2451
1032.60 0.245
1032.70 0.245
1032.80 0.2449
1032.90 0.2449
1033.00 0.2448
1033.10 0.2447
1033.20 0.2447
1033.30 0.2446
1033.40 0.2446
1033.50 0.2445
1033.60 0.2444
1033.70 0.2444
1033.80 0.2443
1033.90 0.2443
1034.00 0.2442
1034.10 0.2441
1034.20 0.2441
1034.30 0.244
1034.40 0.244
1034.50 0.2439
1034.60 0.2438
1034.70 0.2438
1034.80 0.2437
1034.90 0.2437
1035.00 0.2436
1035.10 0.2435
1035.20 0.2435
1035.30 0.2434
1035.40 0.2434
1035.50 0.2433
1035.60 0.2433
1035.70 0.2432
1035.80 0.2431
1035.90 0.2431
1036.00 0.243
1036.10 0.243
1036.20 0.2429
1036.30 0.2428
1036.40 0.2428
1036.50 0.2427
1036.60 0.2427
1036.70 0.2426
1036.80 0.2425
1036.90 0.2425
1037.00 0.2424
1037.10 0.2424
1037.20 0.2423
1037.30 0.2422
1037.40 0.2422
1037.50 0.2421
1037.60 0.2421
1037.70 0.242
1037.80 0.242
1037.90 0.2419
1038.00 0.2418
1038.10 0.2418
1038.20 0.2417
1038.30 0.2417
1038.40 0.2416
1038.50 0.2415
1038.60 0.2415
1038.70 0.2414
1038.80 0.2414
1038.90 0.2413
1039.00 0.2412
1039.10 0.2412
1039.20 0.2411
1039.30 0.2411
1039.40 0.241
1039.50 0.241
1039.60 0.2409
1039.70 0.2408
1039.80 0.2408
1039.90 0.2407
1040.00 0.2407
1040.10 0.2406
1040.20 0.2405
1040.30 0.2405
1040.40 0.2404
1040.50 0.2404
1040.60 0.2403
1040.70 0.2403
1040.80 0.2402
1040.90 0.2401
1041.00 0.2401
1041.10 0.24
1041.20 0.24
1041.30 0.2399
1041.40 0.2398
1041.50 0.2398
1041.60 0.2397
1041.70 0.2397
1041.80 0.2396
1041.90 0.2396
1042.00 0.2395
1042.10 0.2394
1042.20 0.2394
1042.30 0.2393
1042.40 0.2393
1042.50 0.2392
1042.60 0.2391
1042.70 0.2391
1042.80 0.239
1042.90 0.239
1043.00 0.2389
1043.10 0.2389
1043.20 0.2388
1043.30 0.2387
1043.40 0.2387
1043.50 0.2386
1043.60 0.2386
1043.70 0.2385
1043.80 0.2384
1043.90 0.2384
1044.00 0.2383
1044.10 0.2383
1044.20 0.2382
1044.30 0.2382
1044.40 0.2381
1044.50 0.238
1044.60 0.238
1044.70 0.2379
1044.80 0.2379
1044.90 0.2378
1045.00 0.2378
1045.10 0.2377
1045.20 0.2376
1045.30 0.2376
1045.40 0.2375
1045.50 0.2375
1045.60 0.2374
1045.70 0.2374
1045.80 0.2373
1045.90 0.2372
1046.00 0.2372
1046.10 0.2371
1046.20 0.2371
1046.30 0.237
1046.40 0.237
1046.50 0.2369
1046.60 0.2368
1046.70 0.2368
1046.80 0.2367
1046.90 0.2367
1047.00 0.2366
1047.10 0.2366
1047.20 0.2365
1047.30 0.2364
1047.40 0.2364
1047.50 0.2363
1047.60 0.2363
1047.70 0.2362
1047.80 0.2362
1047.90 0.2361
1048.00 0.236
1048.10 0.236
1048.20 0.2359
1048.30 0.2359
1048.40 0.2358
1048.50 0.2358
1048.60 0.2357
1048.70 0.2356
1048.80 0.2356
1048.90 0.2355
1049.00 0.2355
1049.10 0.2354
1049.20 0.2354
1049.30 0.2353
1049.40 0.2352
1049.50 0.2352
1049.60 0.2351
1049.70 0.2351
1049.80 0.235
1049.90 0.235
1050.00 0.2349
1050.10 0.2349
1050.20 0.2348
1050.30 0.2347
1050.40 0.2347
1050.50 0.2346
1050.60 0.2346
1050.70 0.2345
1050.80 0.2345
1050.90 0.2344
1051.00 0.2343
1051.10 0.2343
1051.20 0.2342
1051.30 0.2342
1051.40 0.2341
1051.50 0.2341
1051.60 0.234
1051.70 0.234
1051.80 0.2339
1051.90 0.2338
1052.00 0.2338
1052.10 0.2337
1052.20 0.2337
1052.30 0.2336
1052.40 0.2336
1052.50 0.2335
1052.60 0.2334
1052.70 0.2334
1052.80 0.2333
1052.90 0.2333
1053.00 0.2332
1053.10 0.2332
1053.20 0.2331
1053.30 0.2331
1053.40 0.233
1053.50 0.2329
1053.60 0.2329
1053.70 0.2328
1053.80 0.2328
1053.90 0.2327
1054.00 0.2327
1054.10 0.2326
1054.20 0.2325
1054.30 0.2325
1054.40 0.2324
1054.50 0.2324
1054.60 0.2323
1054.70 0.2323
1054.80 0.2322
1054.90 0.2322
1055.00 0.2321
1055.10 0.232
1055.20 0.232
1055.30 0.2319
1055.40 0.2319
1055.50 0.2318
1055.60 0.2318
1055.70 0.2317
1055.80 0.2317
1055.90 0.2316
1056.00 0.2315
1056.10 0.2315
1056.20 0.2314
1056.30 0.2314
1056.40 0.2313
1056.50 0.2313
1056.60 0.2312
1056.70 0.2312
1056.80 0.2311
1056.90 0.231
1057.00 0.231
1057.10 0.2309
1057.20 0.2309
1057.30 0.2308
1057.40 0.2308
1057.50 0.2307
1057.60 0.2307
1057.70 0.2306
1057.80 0.2305
1057.90 0.2305
1058.00 0.2304
1058.10 0.2304
1058.20 0.2303
1058.30 0.2303
1058.40 0.2302
1058.50 0.2302
1058.60 0.2301
1058.70 0.23
1058.80 0.23
1058.90 0.2299
1059.00 0.2299
1059.10 0.2298
1059.20 0.2298
1059.30 0.2297
1059.40 0.2297
1059.50 0.2296
1059.60 0.2295
1059.70 0.2295
1059.80 0.2294
1059.90 0.2294
1060.00 0.2293
1060.10 0.2293
1060.20 0.2292
1060.30 0.2292
1060.40 0.2291
1060.50 0.229
1060.60 0.229
1060.70 0.2289
1060.80 0.2289
1060.90 0.2288
1061.00 0.2288
1061.10 0.2287
1061.20 0.2287
1061.30 0.2286
1061.40 0.2286
1061.50 0.2285
1061.60 0.2284
1061.70 0.2284
1061.80 0.2283
1061.90 0.2283
1062.00 0.2282
1062.10 0.2282
1062.20 0.2281
1062.30 0.2281
1062.40 0.228
1062.50 0.228
1062.60 0.2279
1062.70 0.2278
1062.80 0.2278
1062.90 0.2277
1063.00 0.2277
1063.10 0.2276
1063.20 0.2276
1063.30 0.2275
1063.40 0.2275
1063.50 0.2274
1063.60 0.2273
1063.70 0.2273
1063.80 0.2272
1063.90 0.2272
1064.00 0.2271
1064.10 0.2271
1064.20 0.227
1064.30 0.227
1064.40 0.2269
1064.50 0.2269
1064.60 0.2268
1064.70 0.2267
1064.80 0.2267
1064.90 0.2266
1065.00 0.2266
1065.10 0.2265
1065.20 0.2265
1065.30 0.2264
1065.40 0.2264
1065.50 0.2263
1065.60 0.2263
1065.70 0.2262
1065.80 0.2261
1065.90 0.2261
1066.00 0.226
1066.10 0.226
1066.20 0.2259
1066.30 0.2259
1066.40 0.2258
1066.50 0.2258
1066.60 0.2257
1066.70 0.2257
1066.80 0.2256
1066.90 0.2255
1067.00 0.2255
1067.10 0.2254
1067.20 0.2254
1067.30 0.2253
1067.40 0.2253
1067.50 0.2252
1067.60 0.2252
1067.70 0.2251
1067.80 0.2251
1067.90 0.225
1068.00 0.225
1068.10 0.2249
1068.20 0.2248
1068.30 0.2248
1068.40 0.2247
1068.50 0.2247
1068.60 0.2246
1068.70 0.2246
1068.80 0.2245
1068.90 0.2245
1069.00 0.2244
1069.10 0.2244
1069.20 0.2243
1069.30 0.2243
1069.40 0.2242
1069.50 0.2242
1069.60 0.2241
1069.70 0.224
1069.80 0.224
1069.90 0.2239
1070.00 0.2239
1070.10 0.2238
1070.20 0.2238
1070.30 0.2237
1070.40 0.2237
1070.50 0.2236
1070.60 0.2236
1070.70 0.2235
1070.80 0.2235
1070.90 0.2234
1071.00 0.2234
1071.10 0.2233
1071.20 0.2232
1071.30 0.2232
1071.40 0.2231
1071.50 0.2231
1071.60 0.223
1071.70 0.223
1071.80 0.2229
1071.90 0.2229
1072.00 0.2228
1072.10 0.2228
1072.20 0.2227
1072.30 0.2227
1072.40 0.2226
1072.50 0.2226
1072.60 0.2225
1072.70 0.2224
1072.80 0.2224
1072.90 0.2223
1073.00 0.2223
1073.10 0.2222
1073.20 0.2222
1073.30 0.2221
1073.40 0.2221
1073.50 0.222
1073.60 0.222
1073.70 0.2219
1073.80 0.2219
1073.90 0.2218
1074.00 0.2218
1074.10 0.2217
1074.20 0.2216
1074.30 0.2216
1074.40 0.2215
1074.50 0.2215
1074.60 0.2214
1074.70 0.2214
1074.80 0.2213
1074.90 0.2213
1075.00 0.2212
1075.10 0.2212
1075.20 0.2211
1075.30 0.2211
1075.40 0.221
1075.50 0.221
1075.60 0.2209
1075.70 0.2209
1075.80 0.2208
1075.90 0.2207
1076.00 0.2207
1076.10 0.2206
1076.20 0.2206
1076.30 0.2205
1076.40 0.2205
1076.50 0.2204
1076.60 0.2204
1076.70 0.2203
1076.80 0.2203
1076.90 0.2202
1077.00 0.2202
1077.10 0.2201
1077.20 0.2201
1077.30 0.22
1077.40 0.22
1077.50 0.2199
1077.60 0.2199
1077.70 0.2198
1077.80 0.2197
1077.90 0.2197
1078.00 0.2196
1078.10 0.2196
1078.20 0.2195
1078.30 0.2195
1078.40 0.2194
1078.50 0.2194
1078.60 0.2193
1078.70 0.2193
1078.80 0.2192
1078.90 0.2192
1079.00 0.2191
1079.10 0.2191
1079.20 0.219
1079.30 0.219
1079.40 0.2189
1079.50 0.2189
1079.60 0.2188
1079.70 0.2187
1079.80 0.2187
1079.90 0.2186
1080.00 0.2186
1080.10 0.2185
1080.20 0.2185
1080.30 0.2184
1080.40 0.2184
1080.50 0.2183
1080.60 0.2183
1080.70 0.2182
1080.80 0.2182
1080.90 0.2181
1081.00 0.2181
1081.10 0.218
1081.20 0.2179
1081.30 0.2179
1081.40 0.2178
1081.50 0.2178
1081.60 0.2177
1081.70 0.2177
1081.80 0.2176
1081.90 0.2176
1082.00 0.2175
1082.10 0.2175
1082.20 0.2174
1082.30 0.2174
1082.40 0.2173
1082.50 0.2172
1082.60 0.2172
1082.70 0.2171
1082.80 0.2171
1082.90 0.217
1083.00 0.217
1083.10 0.2169
1083.20 0.2169
1083.30 0.2168
1083.40 0.2168
1083.50 0.2167
1083.60 0.2167
1083.70 0.2166
1083.80 0.2165
1083.90 0.2165
1084.00 0.2164
1084.10 0.2164
1084.20 0.2163
1084.30 0.2163
1084.40 0.2162
1084.50 0.2162
1084.60 0.2161
1084.70 0.216
1084.80 0.216
1084.90 0.2159
1085.00 0.2159
1085.10 0.2158
1085.20 0.2157
1085.30 0.2157
1085.40 0.2156
1085.50 0.2156
1085.60 0.2155
1085.70 0.2154
1085.80 0.2154
1085.90 0.2153
1086.00 0.2153
1086.10 0.2152
1086.20 0.2151
1086.30 0.2151
1086.40 0.215
1086.50 0.215
1086.60 0.2149
1086.70 0.2148
1086.80 0.2148
1086.90 0.2147
1087.00 0.2146
1087.10 0.2146
1087.20 0.2145
1087.30 0.2144
1087.40 0.2143
1087.50 0.2143
1087.60 0.2142
1087.70 0.2141
1087.80 0.2141
1087.90 0.214
1088.00 0.2139
1088.10 0.2138
1088.20 0.2138
1088.30 0.2137
1088.40 0.2136
1088.50 0.2135
1088.60 0.2134
1088.70 0.2133
1088.80 0.2132
1088.90 0.2131
1089.00 0.213
1089.10 0.2128
1089.20 0.2127
1089.30 0.2126
1089.40 0.2125
1089.50 0.2124
1089.60 0.2123
1089.70 0.2122
1089.80 0.212
1089.90 0.2119
1090.00 0.2118
1090.10 0.2117
1090.20 0.2116
1090.30 0.2115
1090.40 0.2114
1090.50 0.2112
1090.60 0.2109
1090.70 0.2107
1090.80 0.2104
1090.90 0.2101
1091.00 0.2099
1091.10 0.2096
1091.20 0.2093
1091.30 0.2091
1091.40 0.2088
1091.50 0.2085
1091.60 0.2083
1091.70 0.208
1091.80 0.2078
1091.90 0.2075
1092.00 0.2072
1092.10 0.2066
1092.20 0.206
1092.30 0.2054
1092.40 0.2049
1092.50 0.2043
1092.60 0.2037
1092.70 0.203
1092.80 0.202
1092.90 0.201
1093.00 0.2
1093.10 0.1988
1093.20 0.197
1093.30 0.1952
1093.40 0.193
1093.50 0.1928
1093.60 0.1941
1093.70 0.1962
1093.80 0.1979
1093.90 0.1993
1094.00 0.2002
1094.10 0.201
1094.20 0.2019
1094.30 0.2027
1094.40 0.2032
1094.50 0.2036
1094.60 0.2041
1094.70 0.2046
1094.80 0.205
1094.90 0.2055
1095.00 0.2059
1095.10 0.2061
1095.20 0.2062
1095.30 0.2064
1095.40 0.2066
1095.50 0.2067
1095.60 0.2069
1095.70 0.207
1095.80 0.2072
1095.90 0.2074
1096.00 0.2075
1096.10 0.2077
1096.20 0.2079
1096.30 0.208
1096.40 0.2082
1096.50 0.2083
1096.60 0.2084
1096.70 0.2084
1096.80 0.2085
1096.90 0.2085
1097.00 0.2085
1097.10 0.2085
1097.20 0.2085
1097.30 0.2086
1097.40 0.2086
1097.50 0.2086
1097.60 0.2086
1097.70 0.2086
1097.80 0.2086
1097.90 0.2086
1098.00 0.2086
1098.10 0.2086
1098.20 0.2086
1098.30 0.2086
1098.40 0.2086
1098.50 0.2086
1098.60 0.2085
1098.70 0.2085
1098.80 0.2085
1098.90 0.2085
1099.00 0.2084
1099.10 0.2084
1099.20 0.2084
1099.30 0.2083
1099.40 0.2083
1099.50 0.2083
1099.60 0.2083
1099.70 0.2082
1099.80 0.2082
1099.90 0.2082
1100.00 0.2081
1100.10 0.2081
1100.20 0.2081
1100.30 0.2081
1100.40 0.208
1100.50 0.208
1100.60 0.208
1100.70 0.2079
1100.80 0.2079
1100.90 0.2078
1101.00 0.2078
1101.10 0.2078
1101.20 0.2077
1101.30 0.2077
1101.40 0.2076
1101.50 0.2076
1101.60 0.2076
1101.70 0.2075
1101.80 0.2075
1101.90 0.2074
1102.00 0.2074
1102.10 0.2074
1102.20 0.2073
1102.30 0.2073
1102.40 0.2072
1102.50 0.2072
1102.60 0.2071
1102.70 0.2071
1102.80 0.207
1102.90 0.207
1103.00 0.207
1103.10 0.2069
1103.20 0.2069
1103.30 0.2068
1103.40 0.2068
1103.50 0.2068
1103.60 0.2067
1103.70 0.2067
1103.80 0.2066
1103.90 0.2066
1104.00 0.2065
1104.10 0.2065
1104.20 0.2064
1104.30 0.2064
1104.40 0.2063
1104.50 0.2063
1104.60 0.2062
1104.70 0.2062
1104.80 0.2061
1104.90 0.2061
1105.00 0.2061
1105.10 0.206
1105.20 0.206
1105.30 0.2059
1105.40 0.2059
1105.50 0.2058
1105.60 0.2058
1105.70 0.2057
1105.80 0.2057
1105.90 0.2056
1106.00 0.2056
1106.10 0.2055
1106.20 0.2055
1106.30 0.2055
1106.40 0.2054
1106.50 0.2054
1106.60 0.2053
1106.70 0.2053
1106.80 0.2052
1106.90 0.2052
1107.00 0.2051
1107.10 0.2051
1107.20 0.205
1107.30 0.205
1107.40 0.2049
1107.50 0.2049
1107.60 0.2049
1107.70 0.2048
1107.80 0.2048
1107.90 0.2047
1108.00 0.2047
1108.10 0.2046
1108.20 0.2046
1108.30 0.2045
1108.40 0.2045
1108.50 0.2044
1108.60 0.2044
1108.70 0.2043
1108.80 0.2043
1108.90 0.2042
1109.00 0.2042
1109.10 0.2042
1109.20 0.2041
1109.30 0.2041
1109.40 0.204
1109.50 0.204
1109.60 0.2039
1109.70 0.2039
1109.80 0.2038
1109.90 0.2038
1110.00 0.2037
1110.10 0.2037
1110.20 0.2036
1110.30 0.2036
1110.40 0.2035
1110.50 0.2035
1110.60 0.2034
1110.70 0.2034
1110.80 0.2034
1110.90 0.2033
1111.00 0.2033
1111.10 0.2032
1111.20 0.2032
1111.30 0.2031
1111.40 0.2031
1111.50 0.203
1111.60 0.203
1111.70 0.2029
1111.80 0.2029
1111.90 0.2028
1112.00 0.2028
1112.10 0.2027
1112.20 0.2027
1112.30 0.2027
1112.40 0.2026
1112.50 0.2026
1112.60 0.2025
1112.70 0.2025
1112.80 0.2024
1112.90 0.2024
1113.00 0.2023
1113.10 0.2023
1113.20 0.2022
1113.30 0.2022
1113.40 0.2021
1113.50 0.2021
1113.60 0.202
1113.70 0.202
1113.80 0.2019
1113.90 0.2019
1114.00 0.2019
1114.10 0.2018
1114.20 0.2018
1114.30 0.2017
1114.40 0.2017
1114.50 0.2016
1114.60 0.2016
1114.70 0.2015
1114.80 0.2015
1114.90 0.2014
1115.00 0.2014
1115.10 0.2013
1115.20 0.2013
1115.30 0.2012
1115.40 0.2012
1115.50 0.2012
1115.60 0.2011
1115.70 0.2011
1115.80 0.201
1115.90 0.201
1116.00 0.2009
1116.10 0.2009
1116.20 0.2008
1116.30 0.2008
1116.40 0.2007
1116.50 0.2007
1116.60 0.2007
1116.70 0.2006
1116.80 0.2006
1116.90 0.2005
1117.00 0.2005
1117.10 0.2004
1117.20 0.2004
1117.30 0.2003
1117.40 0.2003
1117.50 0.2002
1117.60 0.2002
1117.70 0.2001
1117.80 0.2001
1117.90 0.2
1118.00 0.2
1118.10 0.2
1118.20 0.1999
1118.30 0.1999
1118.40 0.1998
1118.50 0.1998
1118.60 0.1997
1118.70 0.1997
1118.80 0.1996
1118.90 0.1996
1119.00 0.1995
1119.10 0.1995
1119.20 0.1994
1119.30 0.1994
1119.40 0.1994
1119.50 0.1993
1119.60 0.1993
1119.70 0.1992
1119.80 0.1992
1119.90 0.1991
1120.00 0.1991
1120.10 0.199
1120.20 0.199
1120.30 0.1989
1120.40 0.1989
1120.50 0.1988
1120.60 0.1988
1120.70 0.1988
1120.80 0.1987
1120.90 0.1987
1121.00 0.1986
1121.10 0.1986
1121.20 0.1985
1121.30 0.1985
1121.40 0.1984
1121.50 0.1984
1121.60 0.1983
1121.70 0.1983
1121.80 0.1983
1121.90 0.1982
1122.00 0.1982
1122.10 0.1981
1122.20 0.1981
1122.30 0.198
1122.40 0.198
1122.50 0.1979
1122.60 0.1979
1122.70 0.1978
1122.80 0.1978
1122.90 0.1977
1123.00 0.1977
1123.10 0.1977
1123.20 0.1976
1123.30 0.1976
1123.40 0.1975
1123.50 0.1975
1123.60 0.1974
1123.70 0.1974
1123.80 0.1973
1123.90 0.1973
1124.00 0.1972
1124.10 0.1972
1124.20 0.1972
1124.30 0.1971
1124.40 0.1971
1124.50 0.197
1124.60 0.197
1124.70 0.1969
1124.80 0.1969
1124.90 0.1968
1125.00 0.1968
1125.10 0.1967
1125.20 0.1967
1125.30 0.1967
1125.40 0.1966
1125.50 0.1966
1125.60 0.1965
1125.70 0.1965
1125.80 0.1964
1125.90 0.1964
1126.00 0.1963
1126.10 0.1963
1126.20 0.1962
1126.30 0.1962
1126.40 0.1962
1126.50 0.1961
1126.60 0.1961
1126.70 0.196
1126.80 0.196
1126.90 0.1959
1127.00 0.1959
1127.10 0.1958
1127.20 0.1958
1127.30 0.1957
1127.40 0.1957
1127.50 0.1957
1127.60 0.1956
1127.70 0.1956
1127.80 0.1955
1127.90 0.1955
1128.00 0.1954
1128.10 0.1954
1128.20 0.1953
1128.30 0.1953
1128.40 0.1953
1128.50 0.1952
1128.60 0.1952
1128.70 0.1951
1128.80 0.1951
1128.90 0.195
1129.00 0.195
1129.10 0.1949
1129.20 0.1949
1129.30 0.1949
1129.40 0.1948
1129.50 0.1948
1129.60 0.1947
1129.70 0.1947
1129.80 0.1946
1129.90 0.1946
1130.00 0.1945
1130.10 0.1945
1130.20 0.1945
1130.30 0.1944
1130.40 0.1944
1130.50 0.1943
1130.60 0.1943
1130.70 0.1942
1130.80 0.1942
1130.90 0.1941
1131.00 0.1941
1131.10 0.1941
1131.20 0.194
1131.30 0.194
1131.40 0.1939
1131.50 0.1939
1131.60 0.1938
1131.70 0.1938
1131.80 0.1937
1131.90 0.1937
1132.00 0.1937
1132.10 0.1936
1132.20 0.1936
1132.30 0.1935
1132.40 0.1935
1132.50 0.1934
1132.60 0.1934
1132.70 0.1933
1132.80 0.1933
1132.90 0.1933
1133.00 0.1932
1133.10 0.1932
1133.20 0.1931
1133.30 0.1931
1133.40 0.193
1133.50 0.193
1133.60 0.1929
1133.70 0.1929
1133.80 0.1929
1133.90 0.1928
1134.00 0.1928
1134.10 0.1927
1134.20 0.1927
1134.30 0.1926
1134.40 0.1926
1134.50 0.1925
1134.60 0.1925
1134.70 0.1925
1134.80 0.1924
1134.90 0.1924
1135.00 0.1923
1135.10 0.1923
1135.20 0.1922
1135.30 0.1922
1135.40 0.1921
1135.50 0.1921
1135.60 0.1921
1135.70 0.192
1135.80 0.192
1135.90 0.1919
1136.00 0.1919
1136.10 0.1918
1136.20 0.1918
1136.30 0.1918
1136.40 0.1917
1136.50 0.1917
1136.60 0.1916
1136.70 0.1916
1136.80 0.1915
1136.90 0.1915
1137.00 0.1914
1137.10 0.1914
1137.20 0.1914
1137.30 0.1913
1137.40 0.1913
1137.50 0.1912
1137.60 0.1912
1137.70 0.1911
1137.80 0.1911
1137.90 0.1911
1138.00 0.191
1138.10 0.191
1138.20 0.1909
1138.30 0.1909
1138.40 0.1908
1138.50 0.1908
1138.60 0.1907
1138.70 0.1907
1138.80 0.1907
1138.90 0.1906
1139.00 0.1906
1139.10 0.1905
1139.20 0.1905
1139.30 0.1904
1139.40 0.1904
1139.50 0.1904
1139.60 0.1903
1139.70 0.1903
1139.80 0.1902
1139.90 0.1902
1140.00 0.1901
1140.10 0.1901
1140.20 0.1901
1140.30 0.19
1140.40 0.19
1140.50 0.1899
1140.60 0.1899
1140.70 0.1898
1140.80 0.1898
1140.90 0.1898
1141.00 0.1897
1141.10 0.1897
1141.20 0.1896
1141.30 0.1896
1141.40 0.1895
1141.50 0.1895
1141.60 0.1895
1141.70 0.1894
1141.80 0.1894
1141.90 0.1893
1142.00 0.1893
1142.10 0.1892
1142.20 0.1892
1142.30 0.1891
1142.40 0.1891
1142.50 0.1891
1142.60 0.189
1142.70 0.189
1142.80 0.1889
1142.90 0.1889
1143.00 0.1888
1143.10 0.1888
1143.20 0.1888
1143.30 0.1887
1143.40 0.1887
1143.50 0.1886
1143.60 0.1886
1143.70 0.1885
1143.80 0.1885
1143.90 0.1885
1144.00 0.1884
1144.10 0.1884
1144.20 0.1883
1144.30 0.1883
1144.40 0.1882
1144.50 0.1882
1144.60 0.1882
1144.70 0.1881
1144.80 0.1881
1144.90 0.188
1145.00 0.188
1145.10 0.1879
1145.20 0.1879
1145.30 0.1879
1145.40 0.1878
1145.50 0.1878
1145.60 0.1877
1145.70 0.1877
1145.80 0.1876
1145.90 0.1876
1146.00 0.1876
1146.10 0.1875
1146.20 0.1875
1146.30 0.1874
1146.40 0.1874
1146.50 0.1873
1146.60 0.1873
1146.70 0.1873
1146.80 0.1872
1146.90 0.1872
1147.00 0.1871
1147.10 0.1871
1147.20 0.187
1147.30 0.187
1147.40 0.187
1147.50 0.1869
1147.60 0.1869
1147.70 0.1868
1147.80 0.1868
1147.90 0.1867
1148.00 0.1867
1148.10 0.1867
1148.20 0.1866
1148.30 0.1866
1148.40 0.1865
1148.50 0.1865
1148.60 0.1864
1148.70 0.1864
1148.80 0.1864
1148.90 0.1863
1149.00 0.1863
1149.10 0.1862
1149.20 0.1862
1149.30 0.1862
1149.40 0.1861
1149.50 0.1861
1149.60 0.186
1149.70 0.186
1149.80 0.1859
1149.90 0.1859
1150.00 0.1859
1150.10 0.1858
1150.20 0.1858
1150.30 0.1857
1150.40 0.1857
1150.50 0.1856
1150.60 0.1856
1150.70 0.1856
1150.80 0.1855
1150.90 0.1855
1151.00 0.1854
1151.10 0.1854
1151.20 0.1853
1151.30 0.1853
1151.40 0.1853
1151.50 0.1852
1151.60 0.1852
1151.70 0.1851
1151.80 0.1851
1151.90 0.1851
1152.00 0.185
1152.10 0.185
1152.20 0.1849
1152.30 0.1849
1152.40 0.1848
1152.50 0.1848
1152.60 0.1848
1152.70 0.1847
1152.80 0.1847
1152.90 0.1846
1153.00 0.1846
1153.10 0.1846
1153.20 0.1845
1153.30 0.1845
1153.40 0.1844
1153.50 0.1844
1153.60 0.1843
1153.70 0.1843
1153.80 0.1843
1153.90 0.1842
1154.00 0.1842
1154.10 0.1841
1154.20 0.1841
1154.30 0.1841
1154.40 0.184
1154.50 0.184
1154.60 0.1839
1154.70 0.1839
1154.80 0.1838
1154.90 0.1838
1155.00 0.1838
1155.10 0.1837
1155.20 0.1837
1155.30 0.1836
1155.40 0.1836
1155.50 0.1836
1155.60 0.1835
1155.70 0.1835
1155.80 0.1834
1155.90 0.1834
1156.00 0.1833
1156.10 0.1833
1156.20 0.1833
1156.30 0.1832
1156.40 0.1832
1156.50 0.1831
1156.60 0.1831
1156.70 0.1831
1156.80 0.183
1156.90 0.183
1157.00 0.1829
1157.10 0.1829
1157.20 0.1829
1157.30 0.1828
1157.40 0.1828
1157.50 0.1827
1157.60 0.1827
1157.70 0.1826
1157.80 0.1826
1157.90 0.1826
1158.00 0.1825
1158.10 0.1825
1158.20 0.1824
1158.30 0.1824
1158.40 0.1824
1158.50 0.1823
1158.60 0.1823
1158.70 0.1822
1158.80 0.1822
1158.90 0.1822
1159.00 0.1821
1159.10 0.1821
1159.20 0.182
1159.30 0.182
1159.40 0.1819
1159.50 0.1819
1159.60 0.1819
1159.70 0.1818
1159.80 0.1818
1159.90 0.1817
1160.00 0.1817
1160.10 0.1817
1160.20 0.1816
1160.30 0.1816
1160.40 0.1815
1160.50 0.1815
1160.60 0.1815
1160.70 0.1814
1160.80 0.1814
1160.90 0.1813
1161.00 0.1813
1161.10 0.1813
1161.20 0.1812
1161.30 0.1812
1161.40 0.1811
1161.50 0.1811
1161.60 0.1811
1161.70 0.181
1161.80 0.181
1161.90 0.1809
1162.00 0.1809
1162.10 0.1808
1162.20 0.1808
1162.30 0.1808
1162.40 0.1807
1162.50 0.1807
1162.60 0.1806
1162.70 0.1806
1162.80 0.1806
1162.90 0.1805
1163.00 0.1805
1163.10 0.1804
1163.20 0.1804
1163.30 0.1804
1163.40 0.1803
1163.50 0.1803
1163.60 0.1802
1163.70 0.1802
1163.80 0.1802
1163.90 0.1801
1164.00 0.1801
1164.10 0.18
1164.20 0.18
1164.30 0.1799
1164.40 0.1799
1164.50 0.1799
1164.60 0.1798
1164.70 0.1798
1164.80 0.1797
1164.90 0.1797
1165.00 0.1797
1165.10 0.1796
1165.20 0.1796
1165.30 0.1795
1165.40 0.1795
1165.50 0.1795
1165.60 0.1794
1165.70 0.1794
1165.80 0.1793
1165.90 0.1793
1166.00 0.1793
1166.10 0.1792
1166.20 0.1792
1166.30 0.1791
1166.40 0.1791
1166.50 0.1791
1166.60 0.179
1166.70 0.179
1166.80 0.1789
1166.90 0.1789
1167.00 0.1789
1167.10 0.1788
1167.20 0.1788
1167.30 0.1787
1167.40 0.1787
1167.50 0.1787
1167.60 0.1786
1167.70 0.1786
1167.80 0.1785
1167.90 0.1785
1168.00 0.1785
1168.10 0.1784
1168.20 0.1784
1168.30 0.1783
1168.40 0.1783
1168.50 0.1783
1168.60 0.1782
1168.70 0.1782
1168.80 0.1781
1168.90 0.1781
1169.00 0.1781
1169.10 0.178
1169.20 0.178
1169.30 0.1779
1169.40 0.1779
1169.50 0.1779
1169.60 0.1778
1169.70 0.1778
1169.80 0.1777
1169.90 0.1777
1170.00 0.1777
1170.10 0.1776
1170.20 0.1776
1170.30 0.1775
1170.40 0.1775
1170.50 0.1775
1170.60 0.1774
1170.70 0.1774
1170.80 0.1773
1170.90 0.1773
1171.00 0.1773
1171.10 0.1772
1171.20 0.1772
1171.30 0.1771
1171.40 0.1771
1171.50 0.1771
1171.60 0.177
1171.70 0.177
1171.80 0.1769
1171.90 0.1769
1172.00 0.1769
1172.10 0.1768
1172.20 0.1768
1172.30 0.1767
1172.40 0.1767
1172.50 0.1767
1172.60 0.1766
1172.70 0.1766
1172.80 0.1765
1172.90 0.1765
1173.00 0.1765
1173.10 0.1764
1173.20 0.1764
1173.30 0.1764
1173.40 0.1763
1173.50 0.1763
1173.60 0.1762
1173.70 0.1762
1173.80 0.1762
1173.90 0.1761
1174.00 0.1761
1174.10 0.176
1174.20 0.176
1174.30 0.176
1174.40 0.1759
1174.50 0.1759
1174.60 0.1758
1174.70 0.1758
1174.80 0.1758
1174.90 0.1757
1175.00 0.1757
1175.10 0.1756
1175.20 0.1756
1175.30 0.1756
1175.40 0.1755
1175.50 0.1755
1175.60 0.1754
1175.70 0.1754
1175.80 0.1754
1175.90 0.1753
1176.00 0.1753
1176.10 0.1753
1176.20 0.1752
1176.30 0.1752
1176.40 0.1751
1176.50 0.1751
1176.60 0.1751
1176.70 0.175
1176.80 0.175
1176.90 0.1749
1177.00 0.1749
1177.10 0.1749
1177.20 0.1748
1177.30 0.1748
1177.40 0.1747
1177.50 0.1747
1177.60 0.1747
1177.70 0.1746
1177.80 0.1746
1177.90 0.1746
1178.00 0.1745
1178.10 0.1745
1178.20 0.1744
1178.30 0.1744
1178.40 0.1744
1178.50 0.1743
1178.60 0.1743
1178.70 0.1742
1178.80 0.1742
1178.90 0.1742
1179.00 0.1741
1179.10 0.1741
1179.20 0.174
1179.30 0.174
1179.40 0.174
1179.50 0.1739
1179.60 0.1739
1179.70 0.1739
1179.80 0.1738
1179.90 0.1738
1180.00 0.1737
1180.10 0.1737
1180.20 0.1737
1180.30 0.1736
1180.40 0.1736
1180.50 0.1735
1180.60 0.1735
1180.70 0.1735
1180.80 0.1734
1180.90 0.1734
1181.00 0.1734
1181.10 0.1733
1181.20 0.1733
1181.30 0.1732
1181.40 0.1732
1181.50 0.1732
1181.60 0.1731
1181.70 0.1731
1181.80 0.173
1181.90 0.173
1182.00 0.173
1182.10 0.1729
1182.20 0.1729
1182.30 0.1728
1182.40 0.1728
1182.50 0.1728
1182.60 0.1727
1182.70 0.1727
1182.80 0.1727
1182.90 0.1726
1183.00 0.1726
1183.10 0.1725
1183.20 0.1725
1183.30 0.1725
1183.40 0.1724
1183.50 0.1724
1183.60 0.1724
1183.70 0.1723
1183.80 0.1723
1183.90 0.1722
1184.00 0.1722
1184.10 0.1722
1184.20 0.1721
1184.30 0.1721
1184.40 0.172
1184.50 0.172
1184.60 0.172
1184.70 0.1719
1184.80 0.1719
1184.90 0.1719
1185.00 0.1718
1185.10 0.1718
1185.20 0.1717
1185.30 0.1717
1185.40 0.1717
1185.50 0.1716
1185.60 0.1716
1185.70 0.1715
1185.80 0.1715
1185.90 0.1715
1186.00 0.1714
1186.10 0.1714
1186.20 0.1714
1186.30 0.1713
1186.40 0.1713
1186.50 0.1712
1186.60 0.1712
1186.70 0.1712
1186.80 0.1711
1186.90 0.1711
1187.00 0.1711
1187.10 0.171
1187.20 0.171
1187.30 0.1709
1187.40 0.1709
1187.50 0.1709
1187.60 0.1708
1187.70 0.1708
1187.80 0.1708
1187.90 0.1707
1188.00 0.1707
1188.10 0.1706
1188.20 0.1706
1188.30 0.1706
1188.40 0.1705
1188.50 0.1705
1188.60 0.1704
1188.70 0.1704
1188.80 0.1704
1188.90 0.1703
1189.00 0.1703
1189.10 0.1703
1189.20 0.1702
1189.30 0.1702
1189.40 0.1701
1189.50 0.1701
1189.60 0.1701
1189.70 0.17
1189.80 0.17
1189.90 0.17
1190.00 0.1699
1190.10 0.1699
1190.20 0.1698
1190.30 0.1698
1190.40 0.1698
1190.50 0.1697
1190.60 0.1697
1190.70 0.1697
1190.80 0.1696
1190.90 0.1696
1191.00 0.1695
1191.10 0.1695
1191.20 0.1695
1191.30 0.1694
1191.40 0.1694
1191.50 0.1694
1191.60 0.1693
1191.70 0.1693
1191.80 0.1692
1191.90 0.1692
1192.00 0.1692
1192.10 0.1691
1192.20 0.1691
1192.30 0.1691
1192.40 0.169
1192.50 0.169
1192.60 0.1689
1192.70 0.1689
1192.80 0.1689
1192.90 0.1688
1193.00 0.1688
1193.10 0.1688
1193.20 0.1687
1193.30 0.1687
1193.40 0.1686
1193.50 0.1686
1193.60 0.1686
1193.70 0.1685
1193.80 0.1685
1193.90 0.1685
1194.00 0.1684
1194.10 0.1684
1194.20 0.1684
1194.30 0.1683
1194.40 0.1683
1194.50 0.1682
1194.60 0.1682
1194.70 0.1682
1194.80 0.1681
1194.90 0.1681
1195.00 0.1681
1195.10 0.168
1195.20 0.168
1195.30 0.1679
1195.40 0.1679
1195.50 0.1679
1195.60 0.1678
1195.70 0.1678
1195.80 0.1678
1195.90 0.1677
1196.00 0.1677
1196.10 0.1676
1196.20 0.1676
1196.30 0.1676
1196.40 0.1675
1196.50 0.1675
1196.60 0.1675
1196.70 0.1674
1196.80 0.1674
1196.90 0.1674
1197.00 0.1673
1197.10 0.1673
1197.20 0.1672
1197.30 0.1672
1197.40 0.1672
1197.50 0.1671
1197.60 0.1671
1197.70 0.1671
1197.80 0.167
1197.90 0.167
1198.00 0.1669
1198.10 0.1669
1198.20 0.1669
1198.30 0.1668
1198.40 0.1668
1198.50 0.1668
1198.60 0.1667
1198.70 0.1667
1198.80 0.1667
1198.90 0.1666
1199.00 0.1666
1199.10 0.1665
1199.20 0.1665
1199.30 0.1665
1199.40 0.1664
1199.50 0.1664
1199.60 0.1664
1199.70 0.1663
1199.80 0.1663
1199.90 0.1662
1200.00 0
