# Version 2.1 - nm, norm@500 to 1, cut digits, bergeron_130000_95.dat_130000
# Wavelength(nm)  Flambda(ergs/cm^s/s/nm)
300.00 7.043
300.10 7.034
300.20 7.025
300.30 7.016
300.40 7.007
300.50 6.998
300.60 6.989
300.70 6.98
300.80 6.971
300.90 6.963
301.00 6.954
301.10 6.945
301.20 6.936
301.30 6.927
301.40 6.918
301.50 6.91
301.60 6.901
301.70 6.892
301.80 6.884
301.90 6.875
302.00 6.866
302.10 6.857
302.20 6.849
302.30 6.84
302.40 6.832
302.50 6.823
302.60 6.814
302.70 6.806
302.80 6.797
302.90 6.789
303.00 6.78
303.10 6.771
303.20 6.763
303.30 6.754
303.40 6.746
303.50 6.737
303.60 6.729
303.70 6.721
303.80 6.712
303.90 6.704
304.00 6.695
304.10 6.687
304.20 6.678
304.30 6.67
304.40 6.662
304.50 6.653
304.60 6.645
304.70 6.637
304.80 6.628
304.90 6.62
305.00 6.612
305.10 6.604
305.20 6.595
305.30 6.587
305.40 6.579
305.50 6.571
305.60 6.562
305.70 6.554
305.80 6.546
305.90 6.538
306.00 6.53
306.10 6.522
306.20 6.513
306.30 6.505
306.40 6.497
306.50 6.489
306.60 6.481
306.70 6.473
306.80 6.465
306.90 6.457
307.00 6.449
307.10 6.441
307.20 6.433
307.30 6.425
307.40 6.417
307.50 6.409
307.60 6.401
307.70 6.393
307.80 6.385
307.90 6.377
308.00 6.369
308.10 6.361
308.20 6.353
308.30 6.346
308.40 6.338
308.50 6.33
308.60 6.322
308.70 6.314
308.80 6.306
308.90 6.299
309.00 6.291
309.10 6.283
309.20 6.275
309.30 6.267
309.40 6.26
309.50 6.252
309.60 6.244
309.70 6.237
309.80 6.229
309.90 6.221
310.00 6.214
310.10 6.206
310.20 6.198
310.30 6.191
310.40 6.183
310.50 6.175
310.60 6.168
310.70 6.16
310.80 6.153
310.90 6.145
311.00 6.138
311.10 6.13
311.20 6.123
311.30 6.115
311.40 6.108
311.50 6.1
311.60 6.093
311.70 6.085
311.80 6.078
311.90 6.07
312.00 6.063
312.10 6.055
312.20 6.048
312.30 6.041
312.40 6.033
312.50 6.026
312.60 6.018
312.70 6.011
312.80 6.004
312.90 5.996
313.00 5.989
313.10 5.982
313.20 5.974
313.30 5.967
313.40 5.96
313.50 5.953
313.60 5.945
313.70 5.938
313.80 5.931
313.90 5.924
314.00 5.916
314.10 5.909
314.20 5.902
314.30 5.895
314.40 5.888
314.50 5.881
314.60 5.873
314.70 5.866
314.80 5.859
314.90 5.852
315.00 5.845
315.10 5.838
315.20 5.831
315.30 5.824
315.40 5.817
315.50 5.81
315.60 5.803
315.70 5.796
315.80 5.789
315.90 5.782
316.00 5.775
316.10 5.768
316.20 5.761
316.30 5.754
316.40 5.747
316.50 5.74
316.60 5.733
316.70 5.726
316.80 5.719
316.90 5.712
317.00 5.705
317.10 5.698
317.20 5.691
317.30 5.685
317.40 5.678
317.50 5.671
317.60 5.664
317.70 5.657
317.80 5.65
317.90 5.644
318.00 5.637
318.10 5.63
318.20 5.623
318.30 5.617
318.40 5.61
318.50 5.603
318.60 5.596
318.70 5.59
318.80 5.583
318.90 5.576
319.00 5.57
319.10 5.563
319.20 5.556
319.30 5.55
319.40 5.543
319.50 5.536
319.60 5.53
319.70 5.523
319.80 5.516
319.90 5.51
320.00 5.503
320.10 5.497
320.20 5.49
320.30 5.484
320.40 5.477
320.50 5.471
320.60 5.464
320.70 5.458
320.80 5.451
320.90 5.445
321.00 5.438
321.10 5.432
321.20 5.425
321.30 5.419
321.40 5.412
321.50 5.406
321.60 5.399
321.70 5.393
321.80 5.387
321.90 5.38
322.00 5.374
322.10 5.367
322.20 5.361
322.30 5.355
322.40 5.348
322.50 5.342
322.60 5.336
322.70 5.329
322.80 5.323
322.90 5.317
323.00 5.31
323.10 5.304
323.20 5.298
323.30 5.292
323.40 5.285
323.50 5.279
323.60 5.273
323.70 5.267
323.80 5.26
323.90 5.254
324.00 5.248
324.10 5.242
324.20 5.236
324.30 5.229
324.40 5.223
324.50 5.217
324.60 5.211
324.70 5.205
324.80 5.199
324.90 5.192
325.00 5.186
325.10 5.18
325.20 5.174
325.30 5.168
325.40 5.162
325.50 5.156
325.60 5.15
325.70 5.144
325.80 5.138
325.90 5.132
326.00 5.126
326.10 5.12
326.20 5.114
326.30 5.108
326.40 5.102
326.50 5.096
326.60 5.09
326.70 5.084
326.80 5.078
326.90 5.072
327.00 5.066
327.10 5.06
327.20 5.054
327.30 5.048
327.40 5.042
327.50 5.036
327.60 5.031
327.70 5.025
327.80 5.019
327.90 5.013
328.00 5.007
328.10 5.001
328.20 4.995
328.30 4.99
328.40 4.984
328.50 4.978
328.60 4.972
328.70 4.966
328.80 4.961
328.90 4.955
329.00 4.949
329.10 4.943
329.20 4.938
329.30 4.932
329.40 4.926
329.50 4.92
329.60 4.915
329.70 4.909
329.80 4.903
329.90 4.898
330.00 4.892
330.10 4.886
330.20 4.881
330.30 4.875
330.40 4.869
330.50 4.864
330.60 4.858
330.70 4.853
330.80 4.847
330.90 4.841
331.00 4.836
331.10 4.83
331.20 4.825
331.30 4.819
331.40 4.813
331.50 4.808
331.60 4.802
331.70 4.797
331.80 4.791
331.90 4.786
332.00 4.78
332.10 4.775
332.20 4.769
332.30 4.764
332.40 4.758
332.50 4.753
332.60 4.747
332.70 4.742
332.80 4.736
332.90 4.731
333.00 4.725
333.10 4.72
333.20 4.715
333.30 4.709
333.40 4.704
333.50 4.698
333.60 4.693
333.70 4.688
333.80 4.682
333.90 4.677
334.00 4.671
334.10 4.666
334.20 4.661
334.30 4.655
334.40 4.65
334.50 4.645
334.60 4.639
334.70 4.634
334.80 4.629
334.90 4.624
335.00 4.618
335.10 4.613
335.20 4.608
335.30 4.602
335.40 4.597
335.50 4.592
335.60 4.587
335.70 4.581
335.80 4.576
335.90 4.571
336.00 4.566
336.10 4.561
336.20 4.555
336.30 4.55
336.40 4.545
336.50 4.54
336.60 4.535
336.70 4.53
336.80 4.524
336.90 4.519
337.00 4.514
337.10 4.509
337.20 4.504
337.30 4.499
337.40 4.494
337.50 4.489
337.60 4.483
337.70 4.478
337.80 4.473
337.90 4.468
338.00 4.463
338.10 4.458
338.20 4.453
338.30 4.448
338.40 4.443
338.50 4.438
338.60 4.433
338.70 4.428
338.80 4.423
338.90 4.418
339.00 4.413
339.10 4.408
339.20 4.403
339.30 4.398
339.40 4.393
339.50 4.388
339.60 4.383
339.70 4.378
339.80 4.373
339.90 4.368
340.00 4.363
340.10 4.358
340.20 4.354
340.30 4.349
340.40 4.344
340.50 4.339
340.60 4.334
340.70 4.329
340.80 4.324
340.90 4.319
341.00 4.315
341.10 4.31
341.20 4.305
341.30 4.3
341.40 4.295
341.50 4.29
341.60 4.286
341.70 4.281
341.80 4.276
341.90 4.271
342.00 4.266
342.10 4.262
342.20 4.257
342.30 4.252
342.40 4.247
342.50 4.243
342.60 4.238
342.70 4.233
342.80 4.228
342.90 4.224
343.00 4.219
343.10 4.214
343.20 4.21
343.30 4.205
343.40 4.2
343.50 4.195
343.60 4.191
343.70 4.186
343.80 4.181
343.90 4.177
344.00 4.172
344.10 4.167
344.20 4.163
344.30 4.158
344.40 4.154
344.50 4.149
344.60 4.144
344.70 4.14
344.80 4.135
344.90 4.131
345.00 4.126
345.10 4.121
345.20 4.117
345.30 4.112
345.40 4.108
345.50 4.103
345.60 4.099
345.70 4.094
345.80 4.089
345.90 4.085
346.00 4.08
346.10 4.076
346.20 4.071
346.30 4.067
346.40 4.062
346.50 4.058
346.60 4.053
346.70 4.049
346.80 4.044
346.90 4.04
347.00 4.036
347.10 4.031
347.20 4.027
347.30 4.022
347.40 4.018
347.50 4.013
347.60 4.009
347.70 4.004
347.80 4
347.90 3.996
348.00 3.991
348.10 3.987
348.20 3.982
348.30 3.978
348.40 3.974
348.50 3.969
348.60 3.965
348.70 3.961
348.80 3.956
348.90 3.952
349.00 3.948
349.10 3.943
349.20 3.939
349.30 3.935
349.40 3.93
349.50 3.926
349.60 3.922
349.70 3.917
349.80 3.913
349.90 3.909
350.00 3.904
350.10 3.9
350.20 3.896
350.30 3.892
350.40 3.887
350.50 3.883
350.60 3.879
350.70 3.875
350.80 3.87
350.90 3.866
351.00 3.862
351.10 3.858
351.20 3.854
351.30 3.849
351.40 3.845
351.50 3.841
351.60 3.837
351.70 3.833
351.80 3.828
351.90 3.824
352.00 3.82
352.10 3.816
352.20 3.812
352.30 3.808
352.40 3.803
352.50 3.799
352.60 3.795
352.70 3.791
352.80 3.787
352.90 3.783
353.00 3.779
353.10 3.775
353.20 3.771
353.30 3.766
353.40 3.762
353.50 3.758
353.60 3.754
353.70 3.75
353.80 3.746
353.90 3.742
354.00 3.738
354.10 3.734
354.20 3.73
354.30 3.726
354.40 3.722
354.50 3.718
354.60 3.714
354.70 3.71
354.80 3.706
354.90 3.702
355.00 3.698
355.10 3.694
355.20 3.69
355.30 3.686
355.40 3.682
355.50 3.678
355.60 3.674
355.70 3.67
355.80 3.666
355.90 3.662
356.00 3.658
356.10 3.654
356.20 3.65
356.30 3.646
356.40 3.642
356.50 3.638
356.60 3.634
356.70 3.631
356.80 3.627
356.90 3.623
357.00 3.619
357.10 3.615
357.20 3.611
357.30 3.607
357.40 3.603
357.50 3.599
357.60 3.596
357.70 3.592
357.80 3.588
357.90 3.584
358.00 3.58
358.10 3.576
358.20 3.572
358.30 3.569
358.40 3.565
358.50 3.561
358.60 3.557
358.70 3.553
358.80 3.55
358.90 3.546
359.00 3.542
359.10 3.538
359.20 3.534
359.30 3.531
359.40 3.527
359.50 3.523
359.60 3.519
359.70 3.516
359.80 3.512
359.90 3.508
360.00 3.504
360.10 3.501
360.20 3.497
360.30 3.493
360.40 3.49
360.50 3.486
360.60 3.482
360.70 3.478
360.80 3.475
360.90 3.471
361.00 3.467
361.10 3.464
361.20 3.46
361.30 3.456
361.40 3.453
361.50 3.449
361.60 3.445
361.70 3.442
361.80 3.438
361.90 3.434
362.00 3.431
362.10 3.427
362.20 3.423
362.30 3.42
362.40 3.416
362.50 3.413
362.60 3.409
362.70 3.405
362.80 3.402
362.90 3.398
363.00 3.394
363.10 3.391
363.20 3.387
363.30 3.384
363.40 3.38
363.50 3.377
363.60 3.373
363.70 3.37
363.80 3.366
363.90 3.362
364.00 3.359
364.10 3.355
364.20 3.352
364.30 3.348
364.40 3.345
364.50 3.341
364.60 3.338
364.70 3.334
364.80 3.331
364.90 3.327
365.00 3.324
365.10 3.32
365.20 3.317
365.30 3.313
365.40 3.31
365.50 3.306
365.60 3.303
365.70 3.299
365.80 3.296
365.90 3.292
366.00 3.289
366.10 3.285
366.20 3.282
366.30 3.279
366.40 3.275
366.50 3.272
366.60 3.268
366.70 3.265
366.80 3.261
366.90 3.258
367.00 3.255
367.10 3.251
367.20 3.248
367.30 3.244
367.40 3.241
367.50 3.238
367.60 3.234
367.70 3.231
367.80 3.227
367.90 3.224
368.00 3.221
368.10 3.217
368.20 3.214
368.30 3.21
368.40 3.207
368.50 3.204
368.60 3.2
368.70 3.197
368.80 3.194
368.90 3.19
369.00 3.187
369.10 3.184
369.20 3.18
369.30 3.177
369.40 3.173
369.50 3.17
369.60 3.167
369.70 3.163
369.80 3.16
369.90 3.157
370.00 3.153
370.10 3.15
370.20 3.147
370.30 3.143
370.40 3.14
370.50 3.137
370.60 3.133
370.70 3.13
370.80 3.127
370.90 3.124
371.00 3.12
371.10 3.117
371.20 3.114
371.30 3.11
371.40 3.107
371.50 3.104
371.60 3.101
371.70 3.097
371.80 3.094
371.90 3.091
372.00 3.087
372.10 3.084
372.20 3.081
372.30 3.078
372.40 3.075
372.50 3.072
372.60 3.069
372.70 3.066
372.80 3.062
372.90 3.059
373.00 3.056
373.10 3.053
373.20 3.05
373.30 3.047
373.40 3.044
373.50 3.041
373.60 3.038
373.70 3.035
373.80 3.032
373.90 3.028
374.00 3.025
374.10 3.022
374.20 3.019
374.30 3.016
374.40 3.013
374.50 3.01
374.60 3.007
374.70 3.003
374.80 3
374.90 2.997
375.00 2.994
375.10 2.991
375.20 2.988
375.30 2.985
375.40 2.982
375.50 2.978
375.60 2.975
375.70 2.972
375.80 2.969
375.90 2.966
376.00 2.963
376.10 2.96
376.20 2.957
376.30 2.954
376.40 2.951
376.50 2.947
376.60 2.944
376.70 2.941
376.80 2.938
376.90 2.935
377.00 2.932
377.10 2.929
377.20 2.926
377.30 2.923
377.40 2.92
377.50 2.917
377.60 2.914
377.70 2.911
377.80 2.908
377.90 2.905
378.00 2.902
378.10 2.899
378.20 2.896
378.30 2.893
378.40 2.89
378.50 2.887
378.60 2.884
378.70 2.882
378.80 2.879
378.90 2.876
379.00 2.873
379.10 2.87
379.20 2.867
379.30 2.864
379.40 2.861
379.50 2.858
379.60 2.855
379.70 2.852
379.80 2.849
379.90 2.846
380.00 2.843
380.10 2.84
380.20 2.838
380.30 2.835
380.40 2.832
380.50 2.829
380.60 2.826
380.70 2.823
380.80 2.82
380.90 2.817
381.00 2.815
381.10 2.812
381.20 2.809
381.30 2.806
381.40 2.803
381.50 2.8
381.60 2.798
381.70 2.795
381.80 2.792
381.90 2.789
382.00 2.786
382.10 2.783
382.20 2.781
382.30 2.778
382.40 2.775
382.50 2.772
382.60 2.769
382.70 2.767
382.80 2.764
382.90 2.761
383.00 2.758
383.10 2.756
383.20 2.753
383.30 2.75
383.40 2.747
383.50 2.744
383.60 2.742
383.70 2.739
383.80 2.736
383.90 2.733
384.00 2.731
384.10 2.728
384.20 2.725
384.30 2.722
384.40 2.72
384.50 2.717
384.60 2.714
384.70 2.712
384.80 2.709
384.90 2.706
385.00 2.703
385.10 2.701
385.20 2.698
385.30 2.695
385.40 2.693
385.50 2.69
385.60 2.687
385.70 2.685
385.80 2.682
385.90 2.679
386.00 2.677
386.10 2.674
386.20 2.671
386.30 2.669
386.40 2.666
386.50 2.663
386.60 2.661
386.70 2.658
386.80 2.656
386.90 2.653
387.00 2.65
387.10 2.648
387.20 2.645
387.30 2.642
387.40 2.64
387.50 2.637
387.60 2.635
387.70 2.632
387.80 2.629
387.90 2.627
388.00 2.624
388.10 2.622
388.20 2.619
388.30 2.617
388.40 2.614
388.50 2.611
388.60 2.609
388.70 2.606
388.80 2.604
388.90 2.601
389.00 2.599
389.10 2.596
389.20 2.594
389.30 2.591
389.40 2.588
389.50 2.586
389.60 2.583
389.70 2.581
389.80 2.578
389.90 2.576
390.00 2.573
390.10 2.571
390.20 2.568
390.30 2.566
390.40 2.563
390.50 2.561
390.60 2.558
390.70 2.556
390.80 2.553
390.90 2.551
391.00 2.548
391.10 2.546
391.20 2.544
391.30 2.541
391.40 2.539
391.50 2.536
391.60 2.534
391.70 2.531
391.80 2.529
391.90 2.526
392.00 2.524
392.10 2.521
392.20 2.519
392.30 2.517
392.40 2.514
392.50 2.512
392.60 2.509
392.70 2.507
392.80 2.504
392.90 2.502
393.00 2.5
393.10 2.497
393.20 2.495
393.30 2.492
393.40 2.49
393.50 2.487
393.60 2.485
393.70 2.483
393.80 2.48
393.90 2.478
394.00 2.475
394.10 2.473
394.20 2.471
394.30 2.468
394.40 2.466
394.50 2.463
394.60 2.461
394.70 2.459
394.80 2.456
394.90 2.454
395.00 2.451
395.10 2.449
395.20 2.447
395.30 2.444
395.40 2.442
395.50 2.44
395.60 2.437
395.70 2.435
395.80 2.433
395.90 2.43
396.00 2.428
396.10 2.426
396.20 2.423
396.30 2.421
396.40 2.419
396.50 2.416
396.60 2.414
396.70 2.412
396.80 2.409
396.90 2.407
397.00 2.405
397.10 2.403
397.20 2.4
397.30 2.398
397.40 2.396
397.50 2.394
397.60 2.391
397.70 2.389
397.80 2.387
397.90 2.385
398.00 2.383
398.10 2.38
398.20 2.378
398.30 2.376
398.40 2.374
398.50 2.372
398.60 2.37
398.70 2.367
398.80 2.365
398.90 2.363
399.00 2.361
399.10 2.359
399.20 2.357
399.30 2.354
399.40 2.352
399.50 2.35
399.60 2.348
399.70 2.346
399.80 2.344
399.90 2.341
400.00 2.339
400.10 2.337
400.20 2.335
400.30 2.333
400.40 2.331
400.50 2.328
400.60 2.326
400.70 2.324
400.80 2.322
400.90 2.32
401.00 2.318
401.10 2.315
401.20 2.313
401.30 2.311
401.40 2.309
401.50 2.307
401.60 2.305
401.70 2.302
401.80 2.3
401.90 2.298
402.00 2.296
402.10 2.294
402.20 2.292
402.30 2.289
402.40 2.287
402.50 2.285
402.60 2.283
402.70 2.281
402.80 2.278
402.90 2.276
403.00 2.274
403.10 2.272
403.20 2.27
403.30 2.267
403.40 2.265
403.50 2.263
403.60 2.261
403.70 2.259
403.80 2.256
403.90 2.254
404.00 2.252
404.10 2.25
404.20 2.248
404.30 2.245
404.40 2.243
404.50 2.241
404.60 2.239
404.70 2.236
404.80 2.234
404.90 2.232
405.00 2.23
405.10 2.228
405.20 2.225
405.30 2.223
405.40 2.221
405.50 2.219
405.60 2.216
405.70 2.214
405.80 2.212
405.90 2.21
406.00 2.207
406.10 2.205
406.20 2.203
406.30 2.201
406.40 2.198
406.50 2.196
406.60 2.194
406.70 2.192
406.80 2.189
406.90 2.187
407.00 2.185
407.10 2.183
407.20 2.18
407.30 2.178
407.40 2.176
407.50 2.174
407.60 2.171
407.70 2.169
407.80 2.167
407.90 2.165
408.00 2.162
408.10 2.16
408.20 2.158
408.30 2.156
408.40 2.153
408.50 2.151
408.60 2.149
408.70 2.147
408.80 2.145
408.90 2.143
409.00 2.141
409.10 2.138
409.20 2.136
409.30 2.134
409.40 2.132
409.50 2.13
409.60 2.128
409.70 2.127
409.80 2.125
409.90 2.123
410.00 2.121
410.10 2.119
410.20 2.117
410.30 2.116
410.40 2.114
410.50 2.112
410.60 2.11
410.70 2.108
410.80 2.106
410.90 2.104
411.00 2.102
411.10 2.1
411.20 2.098
411.30 2.097
411.40 2.095
411.50 2.093
411.60 2.092
411.70 2.09
411.80 2.088
411.90 2.087
412.00 2.085
412.10 2.083
412.20 2.082
412.30 2.08
412.40 2.079
412.50 2.077
412.60 2.075
412.70 2.074
412.80 2.072
412.90 2.071
413.00 2.069
413.10 2.068
413.20 2.066
413.30 2.064
413.40 2.063
413.50 2.061
413.60 2.06
413.70 2.058
413.80 2.057
413.90 2.055
414.00 2.053
414.10 2.052
414.20 2.05
414.30 2.049
414.40 2.047
414.50 2.045
414.60 2.044
414.70 2.042
414.80 2.041
414.90 2.039
415.00 2.037
415.10 2.036
415.20 2.034
415.30 2.032
415.40 2.031
415.50 2.029
415.60 2.028
415.70 2.026
415.80 2.024
415.90 2.023
416.00 2.021
416.10 2.019
416.20 2.018
416.30 2.016
416.40 2.014
416.50 2.013
416.60 2.011
416.70 2.009
416.80 2.008
416.90 2.006
417.00 2.004
417.10 2.003
417.20 2.001
417.30 1.999
417.40 1.998
417.50 1.996
417.60 1.994
417.70 1.993
417.80 1.991
417.90 1.989
418.00 1.987
418.10 1.986
418.20 1.984
418.30 1.982
418.40 1.981
418.50 1.979
418.60 1.977
418.70 1.975
418.80 1.974
418.90 1.972
419.00 1.97
419.10 1.969
419.20 1.967
419.30 1.965
419.40 1.963
419.50 1.962
419.60 1.96
419.70 1.958
419.80 1.956
419.90 1.955
420.00 1.953
420.10 1.951
420.20 1.949
420.30 1.948
420.40 1.946
420.50 1.944
420.60 1.942
420.70 1.94
420.80 1.939
420.90 1.937
421.00 1.935
421.10 1.933
421.20 1.932
421.30 1.93
421.40 1.928
421.50 1.926
421.60 1.924
421.70 1.923
421.80 1.921
421.90 1.919
422.00 1.917
422.10 1.915
422.20 1.913
422.30 1.912
422.40 1.91
422.50 1.908
422.60 1.906
422.70 1.904
422.80 1.903
422.90 1.901
423.00 1.899
423.10 1.897
423.20 1.895
423.30 1.893
423.40 1.891
423.50 1.89
423.60 1.888
423.70 1.886
423.80 1.884
423.90 1.882
424.00 1.88
424.10 1.878
424.20 1.876
424.30 1.875
424.40 1.873
424.50 1.871
424.60 1.869
424.70 1.867
424.80 1.865
424.90 1.863
425.00 1.861
425.10 1.859
425.20 1.857
425.30 1.855
425.40 1.853
425.50 1.851
425.60 1.849
425.70 1.848
425.80 1.846
425.90 1.844
426.00 1.842
426.10 1.84
426.20 1.838
426.30 1.836
426.40 1.834
426.50 1.832
426.60 1.83
426.70 1.828
426.80 1.826
426.90 1.824
427.00 1.821
427.10 1.819
427.20 1.817
427.30 1.815
427.40 1.813
427.50 1.811
427.60 1.809
427.70 1.807
427.80 1.805
427.90 1.803
428.00 1.801
428.10 1.799
428.20 1.796
428.30 1.794
428.40 1.792
428.50 1.79
428.60 1.788
428.70 1.786
428.80 1.784
428.90 1.781
429.00 1.779
429.10 1.777
429.20 1.775
429.30 1.773
429.40 1.77
429.50 1.768
429.60 1.766
429.70 1.764
429.80 1.761
429.90 1.759
430.00 1.757
430.10 1.755
430.20 1.752
430.30 1.75
430.40 1.748
430.50 1.745
430.60 1.743
430.70 1.741
430.80 1.739
430.90 1.736
431.00 1.734
431.10 1.732
431.20 1.729
431.30 1.727
431.40 1.725
431.50 1.722
431.60 1.72
431.70 1.717
431.80 1.715
431.90 1.713
432.00 1.71
432.10 1.708
432.20 1.705
432.30 1.703
432.40 1.701
432.50 1.698
432.60 1.696
432.70 1.693
432.80 1.691
432.90 1.688
433.00 1.686
433.10 1.683
433.20 1.68
433.30 1.678
433.40 1.675
433.50 1.672
433.60 1.669
433.70 1.666
433.80 1.663
433.90 1.66
434.00 1.658
434.10 1.657
434.20 1.657
434.30 1.657
434.40 1.657
434.50 1.658
434.60 1.658
434.70 1.658
434.80 1.657
434.90 1.657
435.00 1.657
435.10 1.657
435.20 1.656
435.30 1.656
435.40 1.656
435.50 1.655
435.60 1.655
435.70 1.654
435.80 1.654
435.90 1.653
436.00 1.653
436.10 1.652
436.20 1.652
436.30 1.651
436.40 1.651
436.50 1.65
436.60 1.649
436.70 1.649
436.80 1.648
436.90 1.648
437.00 1.647
437.10 1.646
437.20 1.646
437.30 1.645
437.40 1.644
437.50 1.644
437.60 1.643
437.70 1.642
437.80 1.642
437.90 1.641
438.00 1.64
438.10 1.639
438.20 1.639
438.30 1.638
438.40 1.637
438.50 1.636
438.60 1.636
438.70 1.635
438.80 1.634
438.90 1.633
439.00 1.632
439.10 1.632
439.20 1.631
439.30 1.63
439.40 1.629
439.50 1.628
439.60 1.627
439.70 1.626
439.80 1.626
439.90 1.625
440.00 1.624
440.10 1.623
440.20 1.622
440.30 1.621
440.40 1.62
440.50 1.619
440.60 1.618
440.70 1.617
440.80 1.616
440.90 1.615
441.00 1.614
441.10 1.613
441.20 1.612
441.30 1.611
441.40 1.61
441.50 1.609
441.60 1.608
441.70 1.607
441.80 1.606
441.90 1.605
442.00 1.604
442.10 1.603
442.20 1.602
442.30 1.601
442.40 1.6
442.50 1.599
442.60 1.597
442.70 1.596
442.80 1.595
442.90 1.594
443.00 1.593
443.10 1.592
443.20 1.591
443.30 1.59
443.40 1.588
443.50 1.587
443.60 1.586
443.70 1.585
443.80 1.584
443.90 1.583
444.00 1.582
444.10 1.58
444.20 1.579
444.30 1.578
444.40 1.577
444.50 1.576
444.60 1.575
444.70 1.573
444.80 1.572
444.90 1.571
445.00 1.57
445.10 1.569
445.20 1.568
445.30 1.566
445.40 1.565
445.50 1.564
445.60 1.563
445.70 1.562
445.80 1.56
445.90 1.559
446.00 1.558
446.10 1.557
446.20 1.555
446.30 1.554
446.40 1.553
446.50 1.552
446.60 1.551
446.70 1.549
446.80 1.548
446.90 1.547
447.00 1.546
447.10 1.545
447.20 1.543
447.30 1.542
447.40 1.541
447.50 1.54
447.60 1.538
447.70 1.537
447.80 1.536
447.90 1.535
448.00 1.533
448.10 1.532
448.20 1.531
448.30 1.53
448.40 1.529
448.50 1.527
448.60 1.526
448.70 1.525
448.80 1.524
448.90 1.522
449.00 1.521
449.10 1.52
449.20 1.519
449.30 1.517
449.40 1.516
449.50 1.515
449.60 1.514
449.70 1.512
449.80 1.511
449.90 1.51
450.00 1.509
450.10 1.507
450.20 1.506
450.30 1.505
450.40 1.504
450.50 1.502
450.60 1.501
450.70 1.5
450.80 1.499
450.90 1.498
451.00 1.496
451.10 1.495
451.20 1.494
451.30 1.493
451.40 1.491
451.50 1.49
451.60 1.489
451.70 1.488
451.80 1.486
451.90 1.485
452.00 1.484
452.10 1.483
452.20 1.481
452.30 1.48
452.40 1.479
452.50 1.478
452.60 1.477
452.70 1.475
452.80 1.474
452.90 1.473
453.00 1.472
453.10 1.47
453.20 1.469
453.30 1.468
453.40 1.467
453.50 1.465
453.60 1.464
453.70 1.463
453.80 1.462
453.90 1.461
454.00 1.459
454.10 1.458
454.20 1.457
454.30 1.456
454.40 1.454
454.50 1.453
454.60 1.452
454.70 1.451
454.80 1.449
454.90 1.448
455.00 1.447
455.10 1.446
455.20 1.445
455.30 1.443
455.40 1.442
455.50 1.441
455.60 1.44
455.70 1.439
455.80 1.437
455.90 1.436
456.00 1.435
456.10 1.434
456.20 1.432
456.30 1.431
456.40 1.43
456.50 1.429
456.60 1.428
456.70 1.426
456.80 1.425
456.90 1.424
457.00 1.423
457.10 1.422
457.20 1.42
457.30 1.419
457.40 1.418
457.50 1.417
457.60 1.416
457.70 1.414
457.80 1.413
457.90 1.412
458.00 1.411
458.10 1.41
458.20 1.408
458.30 1.407
458.40 1.406
458.50 1.405
458.60 1.404
458.70 1.402
458.80 1.401
458.90 1.4
459.00 1.399
459.10 1.398
459.20 1.397
459.30 1.395
459.40 1.394
459.50 1.393
459.60 1.392
459.70 1.391
459.80 1.389
459.90 1.388
460.00 1.387
460.10 1.386
460.20 1.385
460.30 1.384
460.40 1.382
460.50 1.381
460.60 1.38
460.70 1.379
460.80 1.378
460.90 1.376
461.00 1.375
461.10 1.374
461.20 1.373
461.30 1.372
461.40 1.371
461.50 1.369
461.60 1.368
461.70 1.367
461.80 1.366
461.90 1.365
462.00 1.364
462.10 1.362
462.20 1.361
462.30 1.36
462.40 1.359
462.50 1.358
462.60 1.357
462.70 1.355
462.80 1.354
462.90 1.353
463.00 1.352
463.10 1.351
463.20 1.35
463.30 1.349
463.40 1.347
463.50 1.346
463.60 1.345
463.70 1.344
463.80 1.343
463.90 1.342
464.00 1.341
464.10 1.339
464.20 1.338
464.30 1.337
464.40 1.336
464.50 1.335
464.60 1.334
464.70 1.332
464.80 1.331
464.90 1.33
465.00 1.329
465.10 1.328
465.20 1.327
465.30 1.326
465.40 1.324
465.50 1.323
465.60 1.322
465.70 1.321
465.80 1.32
465.90 1.319
466.00 1.318
466.10 1.316
466.20 1.315
466.30 1.314
466.40 1.313
466.50 1.312
466.60 1.311
466.70 1.31
466.80 1.309
466.90 1.307
467.00 1.306
467.10 1.305
467.20 1.304
467.30 1.303
467.40 1.302
467.50 1.301
467.60 1.299
467.70 1.298
467.80 1.297
467.90 1.296
468.00 1.295
468.10 1.294
468.20 1.293
468.30 1.292
468.40 1.29
468.50 1.289
468.60 1.288
468.70 1.287
468.80 1.286
468.90 1.285
469.00 1.284
469.10 1.283
469.20 1.281
469.30 1.28
469.40 1.279
469.50 1.278
469.60 1.277
469.70 1.276
469.80 1.275
469.90 1.274
470.00 1.272
470.10 1.271
470.20 1.27
470.30 1.269
470.40 1.268
470.50 1.267
470.60 1.266
470.70 1.264
470.80 1.263
470.90 1.262
471.00 1.261
471.10 1.26
471.20 1.259
471.30 1.258
471.40 1.257
471.50 1.255
471.60 1.254
471.70 1.253
471.80 1.252
471.90 1.251
472.00 1.25
472.10 1.249
472.20 1.247
472.30 1.246
472.40 1.245
472.50 1.244
472.60 1.243
472.70 1.242
472.80 1.241
472.90 1.239
473.00 1.238
473.10 1.237
473.20 1.236
473.30 1.235
473.40 1.234
473.50 1.232
473.60 1.231
473.70 1.23
473.80 1.229
473.90 1.228
474.00 1.227
474.10 1.225
474.20 1.224
474.30 1.223
474.40 1.222
474.50 1.221
474.60 1.22
474.70 1.218
474.80 1.217
474.90 1.216
475.00 1.215
475.10 1.214
475.20 1.212
475.30 1.211
475.40 1.21
475.50 1.209
475.60 1.208
475.70 1.206
475.80 1.205
475.90 1.204
476.00 1.203
476.10 1.201
476.20 1.2
476.30 1.199
476.40 1.198
476.50 1.196
476.60 1.195
476.70 1.194
476.80 1.193
476.90 1.191
477.00 1.19
477.10 1.189
477.20 1.188
477.30 1.186
477.40 1.185
477.50 1.184
477.60 1.182
477.70 1.181
477.80 1.18
477.90 1.178
478.00 1.177
478.10 1.176
478.20 1.174
478.30 1.173
478.40 1.172
478.50 1.17
478.60 1.169
478.70 1.168
478.80 1.166
478.90 1.165
479.00 1.163
479.10 1.162
479.20 1.161
479.30 1.159
479.40 1.158
479.50 1.156
479.60 1.155
479.70 1.153
479.80 1.152
479.90 1.15
480.00 1.149
480.10 1.147
480.20 1.146
480.30 1.144
480.40 1.143
480.50 1.141
480.60 1.139
480.70 1.138
480.80 1.136
480.90 1.135
481.00 1.133
481.10 1.132
481.20 1.13
481.30 1.128
481.40 1.126
481.50 1.125
481.60 1.123
481.70 1.121
481.80 1.119
481.90 1.118
482.00 1.116
482.10 1.114
482.20 1.113
482.30 1.111
482.40 1.109
482.50 1.107
482.60 1.105
482.70 1.103
482.80 1.101
482.90 1.099
483.00 1.098
483.10 1.096
483.20 1.094
483.30 1.092
483.40 1.09
483.50 1.088
483.60 1.086
483.70 1.084
483.80 1.082
483.90 1.08
484.00 1.078
484.10 1.076
484.20 1.074
484.30 1.072
484.40 1.07
484.50 1.068
484.60 1.066
484.70 1.064
484.80 1.062
484.90 1.06
485.00 1.058
485.10 1.056
485.20 1.055
485.30 1.054
485.40 1.053
485.50 1.052
485.60 1.052
485.70 1.052
485.80 1.054
485.90 1.057
486.00 1.06
486.10 1.062
486.20 1.061
486.30 1.056
486.40 1.052
486.50 1.047
486.60 1.045
486.70 1.043
486.80 1.041
486.90 1.04
487.00 1.04
487.10 1.04
487.20 1.04
487.30 1.04
487.40 1.04
487.50 1.04
487.60 1.04
487.70 1.041
487.80 1.041
487.90 1.041
488.00 1.042
488.10 1.042
488.20 1.042
488.30 1.043
488.40 1.043
488.50 1.043
488.60 1.044
488.70 1.044
488.80 1.044
488.90 1.045
489.00 1.045
489.10 1.045
489.20 1.045
489.30 1.045
489.40 1.046
489.50 1.046
489.60 1.046
489.70 1.046
489.80 1.046
489.90 1.046
490.00 1.046
490.10 1.046
490.20 1.047
490.30 1.046
490.40 1.046
490.50 1.046
490.60 1.046
490.70 1.046
490.80 1.046
490.90 1.046
491.00 1.046
491.10 1.046
491.20 1.046
491.30 1.046
491.40 1.046
491.50 1.045
491.60 1.045
491.70 1.045
491.80 1.045
491.90 1.044
492.00 1.044
492.10 1.044
492.20 1.044
492.30 1.043
492.40 1.043
492.50 1.043
492.60 1.042
492.70 1.042
492.80 1.042
492.90 1.041
493.00 1.041
493.10 1.041
493.20 1.04
493.30 1.04
493.40 1.039
493.50 1.039
493.60 1.039
493.70 1.038
493.80 1.038
493.90 1.037
494.00 1.037
494.10 1.036
494.20 1.036
494.30 1.035
494.40 1.035
494.50 1.034
494.60 1.034
494.70 1.033
494.80 1.033
494.90 1.032
495.00 1.032
495.10 1.031
495.20 1.031
495.30 1.03
495.40 1.03
495.50 1.029
495.60 1.028
495.70 1.028
495.80 1.027
495.90 1.027
496.00 1.026
496.10 1.026
496.20 1.025
496.30 1.024
496.40 1.024
496.50 1.023
496.60 1.022
496.70 1.022
496.80 1.021
496.90 1.021
497.00 1.02
497.10 1.019
497.20 1.019
497.30 1.018
497.40 1.017
497.50 1.017
497.60 1.016
497.70 1.016
497.80 1.015
497.90 1.014
498.00 1.014
498.10 1.013
498.20 1.012
498.30 1.012
498.40 1.011
498.50 1.01
498.60 1.01
498.70 1.009
498.80 1.008
498.90 1.008
499.00 1.007
499.10 1.006
499.20 1.006
499.30 1.005
499.40 1.004
499.50 1.003
499.60 1.003
499.70 1.002
499.80 1.001
499.90 1.001
500.00 1
500.10 0.9993
500.20 0.9986
500.30 0.9979
500.40 0.9972
500.50 0.9965
500.60 0.9958
500.70 0.9951
500.80 0.9944
500.90 0.9937
501.00 0.993
501.10 0.9923
501.20 0.9916
501.30 0.9909
501.40 0.9902
501.50 0.9895
501.60 0.9888
501.70 0.9881
501.80 0.9874
501.90 0.9867
502.00 0.986
502.10 0.9853
502.20 0.9846
502.30 0.9838
502.40 0.9831
502.50 0.9824
502.60 0.9817
502.70 0.981
502.80 0.9803
502.90 0.9796
503.00 0.9789
503.10 0.9782
503.20 0.9775
503.30 0.9767
503.40 0.976
503.50 0.9753
503.60 0.9746
503.70 0.9739
503.80 0.9732
503.90 0.9725
504.00 0.9718
504.10 0.971
504.20 0.9703
504.30 0.9696
504.40 0.9689
504.50 0.9682
504.60 0.9675
504.70 0.9668
504.80 0.966
504.90 0.9653
505.00 0.9646
505.10 0.9639
505.20 0.9632
505.30 0.9625
505.40 0.9618
505.50 0.9611
505.60 0.9604
505.70 0.9596
505.80 0.9589
505.90 0.9582
506.00 0.9575
506.10 0.9568
506.20 0.9561
506.30 0.9554
506.40 0.9547
506.50 0.954
506.60 0.9533
506.70 0.9526
506.80 0.9518
506.90 0.9511
507.00 0.9504
507.10 0.9497
507.20 0.949
507.30 0.9483
507.40 0.9476
507.50 0.9469
507.60 0.9462
507.70 0.9455
507.80 0.9448
507.90 0.9441
508.00 0.9434
508.10 0.9427
508.20 0.942
508.30 0.9413
508.40 0.9405
508.50 0.9398
508.60 0.9391
508.70 0.9384
508.80 0.9377
508.90 0.937
509.00 0.9363
509.10 0.9356
509.20 0.9349
509.30 0.9342
509.40 0.9335
509.50 0.9328
509.60 0.9321
509.70 0.9314
509.80 0.9308
509.90 0.9301
510.00 0.9294
510.10 0.9287
510.20 0.928
510.30 0.9273
510.40 0.9266
510.50 0.9259
510.60 0.9252
510.70 0.9245
510.80 0.9238
510.90 0.9231
511.00 0.9224
511.10 0.9217
511.20 0.921
511.30 0.9204
511.40 0.9197
511.50 0.919
511.60 0.9183
511.70 0.9176
511.80 0.9169
511.90 0.9162
512.00 0.9155
512.10 0.9148
512.20 0.9142
512.30 0.9135
512.40 0.9128
512.50 0.9121
512.60 0.9114
512.70 0.9107
512.80 0.9101
512.90 0.9094
513.00 0.9087
513.10 0.908
513.20 0.9073
513.30 0.9067
513.40 0.906
513.50 0.9053
513.60 0.9046
513.70 0.9039
513.80 0.9033
513.90 0.9026
514.00 0.9019
514.10 0.9012
514.20 0.9006
514.30 0.8999
514.40 0.8992
514.50 0.8985
514.60 0.8979
514.70 0.8972
514.80 0.8965
514.90 0.8958
515.00 0.8952
515.10 0.8945
515.20 0.8938
515.30 0.8932
515.40 0.8925
515.50 0.8918
515.60 0.8912
515.70 0.8905
515.80 0.8898
515.90 0.8892
516.00 0.8885
516.10 0.8878
516.20 0.8872
516.30 0.8865
516.40 0.8858
516.50 0.8852
516.60 0.8845
516.70 0.8839
516.80 0.8832
516.90 0.8825
517.00 0.8819
517.10 0.8812
517.20 0.8806
517.30 0.8799
517.40 0.8792
517.50 0.8786
517.60 0.8779
517.70 0.8773
517.80 0.8766
517.90 0.876
518.00 0.8753
518.10 0.8747
518.20 0.874
518.30 0.8734
518.40 0.8727
518.50 0.872
518.60 0.8714
518.70 0.8707
518.80 0.8701
518.90 0.8694
519.00 0.8688
519.10 0.8681
519.20 0.8675
519.30 0.8669
519.40 0.8662
519.50 0.8656
519.60 0.8649
519.70 0.8643
519.80 0.8636
519.90 0.863
520.00 0.8623
520.10 0.8617
520.20 0.8611
520.30 0.8604
520.40 0.8598
520.50 0.8591
520.60 0.8585
520.70 0.8579
520.80 0.8572
520.90 0.8566
521.00 0.8559
521.10 0.8553
521.20 0.8547
521.30 0.854
521.40 0.8534
521.50 0.8528
521.60 0.8521
521.70 0.8515
521.80 0.8509
521.90 0.8502
522.00 0.8496
522.10 0.849
522.20 0.8483
522.30 0.8477
522.40 0.8471
522.50 0.8465
522.60 0.8458
522.70 0.8452
522.80 0.8446
522.90 0.8439
523.00 0.8433
523.10 0.8427
523.20 0.8421
523.30 0.8414
523.40 0.8408
523.50 0.8402
523.60 0.8396
523.70 0.8389
523.80 0.8383
523.90 0.8377
524.00 0.8371
524.10 0.8365
524.20 0.8358
524.30 0.8352
524.40 0.8346
524.50 0.834
524.60 0.8334
524.70 0.8328
524.80 0.8321
524.90 0.8315
525.00 0.8309
525.10 0.8303
525.20 0.8297
525.30 0.8291
525.40 0.8284
525.50 0.8278
525.60 0.8272
525.70 0.8266
525.80 0.826
525.90 0.8254
526.00 0.8248
526.10 0.8242
526.20 0.8236
526.30 0.823
526.40 0.8223
526.50 0.8217
526.60 0.8211
526.70 0.8205
526.80 0.8199
526.90 0.8193
527.00 0.8187
527.10 0.8181
527.20 0.8175
527.30 0.8169
527.40 0.8163
527.50 0.8157
527.60 0.8151
527.70 0.8145
527.80 0.8139
527.90 0.8133
528.00 0.8127
528.10 0.8121
528.20 0.8115
528.30 0.8109
528.40 0.8103
528.50 0.8097
528.60 0.8091
528.70 0.8085
528.80 0.8079
528.90 0.8073
529.00 0.8067
529.10 0.8061
529.20 0.8056
529.30 0.805
529.40 0.8044
529.50 0.8038
529.60 0.8032
529.70 0.8026
529.80 0.802
529.90 0.8014
530.00 0.8008
530.10 0.8002
530.20 0.7997
530.30 0.7991
530.40 0.7985
530.50 0.7979
530.60 0.7973
530.70 0.7967
530.80 0.7962
530.90 0.7956
531.00 0.795
531.10 0.7944
531.20 0.7938
531.30 0.7932
531.40 0.7927
531.50 0.7921
531.60 0.7915
531.70 0.7909
531.80 0.7903
531.90 0.7898
532.00 0.7892
532.10 0.7886
532.20 0.788
532.30 0.7875
532.40 0.7869
532.50 0.7863
532.60 0.7857
532.70 0.7852
532.80 0.7846
532.90 0.784
533.00 0.7834
533.10 0.7829
533.20 0.7823
533.30 0.7817
533.40 0.7812
533.50 0.7806
533.60 0.78
533.70 0.7794
533.80 0.7789
533.90 0.7783
534.00 0.7777
534.10 0.7772
534.20 0.7766
534.30 0.776
534.40 0.7755
534.50 0.7749
534.60 0.7743
534.70 0.7738
534.80 0.7732
534.90 0.7727
535.00 0.7721
535.10 0.7715
535.20 0.771
535.30 0.7704
535.40 0.7698
535.50 0.7693
535.60 0.7687
535.70 0.7682
535.80 0.7676
535.90 0.7671
536.00 0.7665
536.10 0.7659
536.20 0.7654
536.30 0.7648
536.40 0.7643
536.50 0.7637
536.60 0.7632
536.70 0.7626
536.80 0.7621
536.90 0.7615
537.00 0.7609
537.10 0.7604
537.20 0.7598
537.30 0.7593
537.40 0.7587
537.50 0.7582
537.60 0.7576
537.70 0.7571
537.80 0.7566
537.90 0.756
538.00 0.7555
538.10 0.7549
538.20 0.7544
538.30 0.7538
538.40 0.7533
538.50 0.7527
538.60 0.7522
538.70 0.7516
538.80 0.7511
538.90 0.7506
539.00 0.75
539.10 0.7495
539.20 0.7489
539.30 0.7484
539.40 0.7478
539.50 0.7473
539.60 0.7468
539.70 0.7462
539.80 0.7457
539.90 0.7452
540.00 0.7446
540.10 0.7441
540.20 0.7435
540.30 0.743
540.40 0.7425
540.50 0.7419
540.60 0.7414
540.70 0.7409
540.80 0.7403
540.90 0.7398
541.00 0.7393
541.10 0.7387
541.20 0.7382
541.30 0.7377
541.40 0.7371
541.50 0.7366
541.60 0.7361
541.70 0.7355
541.80 0.735
541.90 0.7345
542.00 0.734
542.10 0.7334
542.20 0.7329
542.30 0.7324
542.40 0.7319
542.50 0.7313
542.60 0.7308
542.70 0.7303
542.80 0.7298
542.90 0.7292
543.00 0.7287
543.10 0.7282
543.20 0.7277
543.30 0.7271
543.40 0.7266
543.50 0.7261
543.60 0.7256
543.70 0.7251
543.80 0.7245
543.90 0.724
544.00 0.7235
544.10 0.723
544.20 0.7225
544.30 0.7219
544.40 0.7214
544.50 0.7209
544.60 0.7204
544.70 0.7199
544.80 0.7194
544.90 0.7189
545.00 0.7183
545.10 0.7178
545.20 0.7173
545.30 0.7168
545.40 0.7163
545.50 0.7158
545.60 0.7153
545.70 0.7148
545.80 0.7142
545.90 0.7137
546.00 0.7132
546.10 0.7127
546.20 0.7122
546.30 0.7117
546.40 0.7112
546.50 0.7107
546.60 0.7102
546.70 0.7097
546.80 0.7092
546.90 0.7087
547.00 0.7082
547.10 0.7076
547.20 0.7071
547.30 0.7066
547.40 0.7061
547.50 0.7056
547.60 0.7051
547.70 0.7046
547.80 0.7041
547.90 0.7036
548.00 0.7031
548.10 0.7026
548.20 0.7021
548.30 0.7016
548.40 0.7011
548.50 0.7006
548.60 0.7001
548.70 0.6996
548.80 0.6991
548.90 0.6986
549.00 0.6981
549.10 0.6976
549.20 0.6972
549.30 0.6967
549.40 0.6962
549.50 0.6957
549.60 0.6952
549.70 0.6947
549.80 0.6942
549.90 0.6937
550.00 0.6932
550.10 0.6927
550.20 0.6922
550.30 0.6917
550.40 0.6912
550.50 0.6908
550.60 0.6903
550.70 0.6898
550.80 0.6893
550.90 0.6888
551.00 0.6883
551.10 0.6878
551.20 0.6873
551.30 0.6869
551.40 0.6864
551.50 0.6859
551.60 0.6854
551.70 0.6849
551.80 0.6844
551.90 0.6839
552.00 0.6835
552.10 0.683
552.20 0.6825
552.30 0.682
552.40 0.6815
552.50 0.6811
552.60 0.6806
552.70 0.6801
552.80 0.6796
552.90 0.6791
553.00 0.6787
553.10 0.6782
553.20 0.6777
553.30 0.6772
553.40 0.6767
553.50 0.6763
553.60 0.6758
553.70 0.6753
553.80 0.6748
553.90 0.6744
554.00 0.6739
554.10 0.6734
554.20 0.6729
554.30 0.6725
554.40 0.672
554.50 0.6715
554.60 0.671
554.70 0.6706
554.80 0.6701
554.90 0.6696
555.00 0.6692
555.10 0.6687
555.20 0.6682
555.30 0.6678
555.40 0.6673
555.50 0.6668
555.60 0.6663
555.70 0.6659
555.80 0.6654
555.90 0.6649
556.00 0.6645
556.10 0.664
556.20 0.6635
556.30 0.6631
556.40 0.6626
556.50 0.6622
556.60 0.6617
556.70 0.6612
556.80 0.6608
556.90 0.6603
557.00 0.6598
557.10 0.6594
557.20 0.6589
557.30 0.6585
557.40 0.658
557.50 0.6575
557.60 0.6571
557.70 0.6566
557.80 0.6562
557.90 0.6557
558.00 0.6552
558.10 0.6548
558.20 0.6543
558.30 0.6539
558.40 0.6534
558.50 0.6529
558.60 0.6525
558.70 0.652
558.80 0.6516
558.90 0.6511
559.00 0.6507
559.10 0.6502
559.20 0.6498
559.30 0.6493
559.40 0.6489
559.50 0.6484
559.60 0.648
559.70 0.6475
559.80 0.6471
559.90 0.6466
560.00 0.6462
560.10 0.6457
560.20 0.6453
560.30 0.6448
560.40 0.6444
560.50 0.6439
560.60 0.6435
560.70 0.643
560.80 0.6426
560.90 0.6421
561.00 0.6417
561.10 0.6412
561.20 0.6408
561.30 0.6403
561.40 0.6399
561.50 0.6394
561.60 0.639
561.70 0.6386
561.80 0.6381
561.90 0.6377
562.00 0.6372
562.10 0.6368
562.20 0.6363
562.30 0.6359
562.40 0.6355
562.50 0.635
562.60 0.6346
562.70 0.6341
562.80 0.6337
562.90 0.6333
563.00 0.6328
563.10 0.6324
563.20 0.6319
563.30 0.6315
563.40 0.6311
563.50 0.6306
563.60 0.6302
563.70 0.6298
563.80 0.6293
563.90 0.6289
564.00 0.6284
564.10 0.628
564.20 0.6276
564.30 0.6271
564.40 0.6267
564.50 0.6263
564.60 0.6258
564.70 0.6254
564.80 0.625
564.90 0.6246
565.00 0.6241
565.10 0.6237
565.20 0.6233
565.30 0.6228
565.40 0.6224
565.50 0.622
565.60 0.6215
565.70 0.6211
565.80 0.6207
565.90 0.6203
566.00 0.6198
566.10 0.6194
566.20 0.619
566.30 0.6185
566.40 0.6181
566.50 0.6177
566.60 0.6173
566.70 0.6168
566.80 0.6164
566.90 0.616
567.00 0.6156
567.10 0.6151
567.20 0.6147
567.30 0.6143
567.40 0.6139
567.50 0.6135
567.60 0.613
567.70 0.6126
567.80 0.6122
567.90 0.6118
568.00 0.6113
568.10 0.6109
568.20 0.6105
568.30 0.6101
568.40 0.6097
568.50 0.6093
568.60 0.6088
568.70 0.6084
568.80 0.608
568.90 0.6076
569.00 0.6072
569.10 0.6068
569.20 0.6063
569.30 0.6059
569.40 0.6055
569.50 0.6051
569.60 0.6047
569.70 0.6043
569.80 0.6038
569.90 0.6034
570.00 0.603
570.10 0.6026
570.20 0.6022
570.30 0.6018
570.40 0.6014
570.50 0.601
570.60 0.6005
570.70 0.6001
570.80 0.5997
570.90 0.5993
571.00 0.5989
571.10 0.5985
571.20 0.5981
571.30 0.5977
571.40 0.5973
571.50 0.5969
571.60 0.5965
571.70 0.596
571.80 0.5956
571.90 0.5952
572.00 0.5948
572.10 0.5944
572.20 0.594
572.30 0.5936
572.40 0.5932
572.50 0.5928
572.60 0.5924
572.70 0.592
572.80 0.5916
572.90 0.5912
573.00 0.5908
573.10 0.5904
573.20 0.59
573.30 0.5896
573.40 0.5892
573.50 0.5888
573.60 0.5884
573.70 0.588
573.80 0.5876
573.90 0.5872
574.00 0.5868
574.10 0.5864
574.20 0.586
574.30 0.5856
574.40 0.5852
574.50 0.5848
574.60 0.5844
574.70 0.584
574.80 0.5836
574.90 0.5832
575.00 0.5828
575.10 0.5824
575.20 0.582
575.30 0.5816
575.40 0.5812
575.50 0.5808
575.60 0.5804
575.70 0.58
575.80 0.5796
575.90 0.5792
576.00 0.5789
576.10 0.5785
576.20 0.5781
576.30 0.5777
576.40 0.5773
576.50 0.5769
576.60 0.5765
576.70 0.5761
576.80 0.5757
576.90 0.5753
577.00 0.5749
577.10 0.5746
577.20 0.5742
577.30 0.5738
577.40 0.5734
577.50 0.573
577.60 0.5726
577.70 0.5722
577.80 0.5718
577.90 0.5715
578.00 0.5711
578.10 0.5707
578.20 0.5703
578.30 0.5699
578.40 0.5695
578.50 0.5691
578.60 0.5688
578.70 0.5684
578.80 0.568
578.90 0.5676
579.00 0.5672
579.10 0.5668
579.20 0.5665
579.30 0.5661
579.40 0.5657
579.50 0.5653
579.60 0.5649
579.70 0.5646
579.80 0.5642
579.90 0.5638
580.00 0.5634
580.10 0.563
580.20 0.5627
580.30 0.5623
580.40 0.5619
580.50 0.5615
580.60 0.5611
580.70 0.5608
580.80 0.5604
580.90 0.56
581.00 0.5596
581.10 0.5593
581.20 0.5589
581.30 0.5585
581.40 0.5581
581.50 0.5578
581.60 0.5574
581.70 0.557
581.80 0.5566
581.90 0.5563
582.00 0.5559
582.10 0.5555
582.20 0.5551
582.30 0.5548
582.40 0.5544
582.50 0.554
582.60 0.5537
582.70 0.5533
582.80 0.5529
582.90 0.5525
583.00 0.5522
583.10 0.5518
583.20 0.5514
583.30 0.5511
583.40 0.5507
583.50 0.5503
583.60 0.55
583.70 0.5496
583.80 0.5492
583.90 0.5489
584.00 0.5485
584.10 0.5481
584.20 0.5478
584.30 0.5474
584.40 0.547
584.50 0.5467
584.60 0.5463
584.70 0.5459
584.80 0.5456
584.90 0.5452
585.00 0.5448
585.10 0.5445
585.20 0.5441
585.30 0.5437
585.40 0.5434
585.50 0.543
585.60 0.5427
585.70 0.5423
585.80 0.5419
585.90 0.5416
586.00 0.5412
586.10 0.5409
586.20 0.5405
586.30 0.5401
586.40 0.5398
586.50 0.5394
586.60 0.5391
586.70 0.5387
586.80 0.5383
586.90 0.538
587.00 0.5376
587.10 0.5373
587.20 0.5369
587.30 0.5365
587.40 0.5362
587.50 0.5358
587.60 0.5355
587.70 0.5351
587.80 0.5348
587.90 0.5344
588.00 0.5341
588.10 0.5337
588.20 0.5333
588.30 0.533
588.40 0.5326
588.50 0.5323
588.60 0.5319
588.70 0.5316
588.80 0.5312
588.90 0.5309
589.00 0.5305
589.10 0.5302
589.20 0.5298
589.30 0.5295
589.40 0.5291
589.50 0.5288
589.60 0.5284
589.70 0.5281
589.80 0.5277
589.90 0.5274
590.00 0.527
590.10 0.5267
590.20 0.5263
590.30 0.526
590.40 0.5256
590.50 0.5253
590.60 0.5249
590.70 0.5246
590.80 0.5242
590.90 0.5239
591.00 0.5235
591.10 0.5232
591.20 0.5228
591.30 0.5225
591.40 0.5222
591.50 0.5218
591.60 0.5215
591.70 0.5211
591.80 0.5208
591.90 0.5204
592.00 0.5201
592.10 0.5197
592.20 0.5194
592.30 0.5191
592.40 0.5187
592.50 0.5184
592.60 0.518
592.70 0.5177
592.80 0.5174
592.90 0.517
593.00 0.5167
593.10 0.5163
593.20 0.516
593.30 0.5156
593.40 0.5153
593.50 0.515
593.60 0.5146
593.70 0.5143
593.80 0.514
593.90 0.5136
594.00 0.5133
594.10 0.5129
594.20 0.5126
594.30 0.5123
594.40 0.5119
594.50 0.5116
594.60 0.5113
594.70 0.5109
594.80 0.5106
594.90 0.5102
595.00 0.5099
595.10 0.5096
595.20 0.5092
595.30 0.5089
595.40 0.5086
595.50 0.5082
595.60 0.5079
595.70 0.5076
595.80 0.5072
595.90 0.5069
596.00 0.5066
596.10 0.5062
596.20 0.5059
596.30 0.5056
596.40 0.5052
596.50 0.5049
596.60 0.5046
596.70 0.5043
596.80 0.5039
596.90 0.5036
597.00 0.5033
597.10 0.5029
597.20 0.5026
597.30 0.5023
597.40 0.502
597.50 0.5016
597.60 0.5013
597.70 0.501
597.80 0.5006
597.90 0.5003
598.00 0.5
598.10 0.4997
598.20 0.4993
598.30 0.499
598.40 0.4987
598.50 0.4984
598.60 0.498
598.70 0.4977
598.80 0.4974
598.90 0.4971
599.00 0.4967
599.10 0.4964
599.20 0.4961
599.30 0.4958
599.40 0.4954
599.50 0.4951
599.60 0.4948
599.70 0.4945
599.80 0.4941
599.90 0.4938
600.00 0.4935
600.10 0.4932
600.20 0.4929
600.30 0.4925
600.40 0.4922
600.50 0.4919
600.60 0.4916
600.70 0.4912
600.80 0.4909
600.90 0.4906
601.00 0.4903
601.10 0.49
601.20 0.4897
601.30 0.4893
601.40 0.489
601.50 0.4887
601.60 0.4884
601.70 0.4881
601.80 0.4877
601.90 0.4874
602.00 0.4871
602.10 0.4868
602.20 0.4865
602.30 0.4862
602.40 0.4859
602.50 0.4855
602.60 0.4852
602.70 0.4849
602.80 0.4846
602.90 0.4843
603.00 0.484
603.10 0.4836
603.20 0.4833
603.30 0.483
603.40 0.4827
603.50 0.4824
603.60 0.4821
603.70 0.4818
603.80 0.4815
603.90 0.4811
604.00 0.4808
604.10 0.4805
604.20 0.4802
604.30 0.4799
604.40 0.4796
604.50 0.4793
604.60 0.479
604.70 0.4787
604.80 0.4783
604.90 0.478
605.00 0.4777
605.10 0.4774
605.20 0.4771
605.30 0.4768
605.40 0.4765
605.50 0.4762
605.60 0.4759
605.70 0.4756
605.80 0.4753
605.90 0.475
606.00 0.4747
606.10 0.4743
606.20 0.474
606.30 0.4737
606.40 0.4734
606.50 0.4731
606.60 0.4728
606.70 0.4725
606.80 0.4722
606.90 0.4719
607.00 0.4716
607.10 0.4713
607.20 0.471
607.30 0.4707
607.40 0.4704
607.50 0.4701
607.60 0.4698
607.70 0.4695
607.80 0.4692
607.90 0.4689
608.00 0.4686
608.10 0.4683
608.20 0.468
608.30 0.4677
608.40 0.4674
608.50 0.4671
608.60 0.4668
608.70 0.4665
608.80 0.4662
608.90 0.4659
609.00 0.4656
609.10 0.4653
609.20 0.465
609.30 0.4647
609.40 0.4644
609.50 0.4641
609.60 0.4638
609.70 0.4635
609.80 0.4632
609.90 0.4629
610.00 0.4626
610.10 0.4623
610.20 0.462
610.30 0.4617
610.40 0.4614
610.50 0.4611
610.60 0.4608
610.70 0.4605
610.80 0.4602
610.90 0.4599
611.00 0.4596
611.10 0.4593
611.20 0.459
611.30 0.4587
611.40 0.4584
611.50 0.4582
611.60 0.4579
611.70 0.4576
611.80 0.4573
611.90 0.457
612.00 0.4567
612.10 0.4564
612.20 0.4561
612.30 0.4558
612.40 0.4555
612.50 0.4552
612.60 0.4549
612.70 0.4546
612.80 0.4544
612.90 0.4541
613.00 0.4538
613.10 0.4535
613.20 0.4532
613.30 0.4529
613.40 0.4526
613.50 0.4523
613.60 0.452
613.70 0.4517
613.80 0.4515
613.90 0.4512
614.00 0.4509
614.10 0.4506
614.20 0.4503
614.30 0.45
614.40 0.4497
614.50 0.4494
614.60 0.4492
614.70 0.4489
614.80 0.4486
614.90 0.4483
615.00 0.448
615.10 0.4477
615.20 0.4474
615.30 0.4472
615.40 0.4469
615.50 0.4466
615.60 0.4463
615.70 0.446
615.80 0.4457
615.90 0.4455
616.00 0.4452
616.10 0.4449
616.20 0.4446
616.30 0.4443
616.40 0.444
616.50 0.4438
616.60 0.4435
616.70 0.4432
616.80 0.4429
616.90 0.4426
617.00 0.4423
617.10 0.4421
617.20 0.4418
617.30 0.4415
617.40 0.4412
617.50 0.4409
617.60 0.4407
617.70 0.4404
617.80 0.4401
617.90 0.4398
618.00 0.4395
618.10 0.4393
618.20 0.439
618.30 0.4387
618.40 0.4384
618.50 0.4381
618.60 0.4379
618.70 0.4376
618.80 0.4373
618.90 0.437
619.00 0.4368
619.10 0.4365
619.20 0.4362
619.30 0.4359
619.40 0.4357
619.50 0.4354
619.60 0.4351
619.70 0.4348
619.80 0.4345
619.90 0.4343
620.00 0.434
620.10 0.4337
620.20 0.4334
620.30 0.4332
620.40 0.4329
620.50 0.4326
620.60 0.4324
620.70 0.4321
620.80 0.4318
620.90 0.4315
621.00 0.4313
621.10 0.431
621.20 0.4307
621.30 0.4304
621.40 0.4302
621.50 0.4299
621.60 0.4296
621.70 0.4294
621.80 0.4291
621.90 0.4288
622.00 0.4285
622.10 0.4283
622.20 0.428
622.30 0.4277
622.40 0.4275
622.50 0.4272
622.60 0.4269
622.70 0.4266
622.80 0.4264
622.90 0.4261
623.00 0.4258
623.10 0.4256
623.20 0.4253
623.30 0.425
623.40 0.4248
623.50 0.4245
623.60 0.4242
623.70 0.424
623.80 0.4237
623.90 0.4234
624.00 0.4232
624.10 0.4229
624.20 0.4226
624.30 0.4224
624.40 0.4221
624.50 0.4218
624.60 0.4216
624.70 0.4213
624.80 0.421
624.90 0.4208
625.00 0.4205
625.10 0.4202
625.20 0.42
625.30 0.4197
625.40 0.4194
625.50 0.4192
625.60 0.4189
625.70 0.4186
625.80 0.4184
625.90 0.4181
626.00 0.4179
626.10 0.4176
626.20 0.4173
626.30 0.4171
626.40 0.4168
626.50 0.4165
626.60 0.4163
626.70 0.416
626.80 0.4158
626.90 0.4155
627.00 0.4152
627.10 0.415
627.20 0.4147
627.30 0.4144
627.40 0.4142
627.50 0.4139
627.60 0.4137
627.70 0.4134
627.80 0.4131
627.90 0.4129
628.00 0.4126
628.10 0.4124
628.20 0.4121
628.30 0.4118
628.40 0.4116
628.50 0.4113
628.60 0.4111
628.70 0.4108
628.80 0.4105
628.90 0.4103
629.00 0.41
629.10 0.4098
629.20 0.4095
629.30 0.4093
629.40 0.409
629.50 0.4087
629.60 0.4085
629.70 0.4082
629.80 0.408
629.90 0.4077
630.00 0.4075
630.10 0.4072
630.20 0.4069
630.30 0.4067
630.40 0.4064
630.50 0.4062
630.60 0.4059
630.70 0.4057
630.80 0.4054
630.90 0.4052
631.00 0.4049
631.10 0.4046
631.20 0.4044
631.30 0.4041
631.40 0.4039
631.50 0.4036
631.60 0.4034
631.70 0.4031
631.80 0.4029
631.90 0.4026
632.00 0.4024
632.10 0.4021
632.20 0.4018
632.30 0.4016
632.40 0.4013
632.50 0.4011
632.60 0.4008
632.70 0.4006
632.80 0.4003
632.90 0.4001
633.00 0.3998
633.10 0.3996
633.20 0.3993
633.30 0.3991
633.40 0.3988
633.50 0.3986
633.60 0.3983
633.70 0.3981
633.80 0.3978
633.90 0.3976
634.00 0.3973
634.10 0.3971
634.20 0.3968
634.30 0.3966
634.40 0.3963
634.50 0.3961
634.60 0.3958
634.70 0.3955
634.80 0.3953
634.90 0.395
635.00 0.3948
635.10 0.3945
635.20 0.3943
635.30 0.394
635.40 0.3938
635.50 0.3935
635.60 0.3933
635.70 0.393
635.80 0.3928
635.90 0.3925
636.00 0.3923
636.10 0.3921
636.20 0.3918
636.30 0.3916
636.40 0.3913
636.50 0.3911
636.60 0.3908
636.70 0.3906
636.80 0.3903
636.90 0.3901
637.00 0.3898
637.10 0.3896
637.20 0.3893
637.30 0.3891
637.40 0.3888
637.50 0.3886
637.60 0.3883
637.70 0.3881
637.80 0.3878
637.90 0.3876
638.00 0.3873
638.10 0.3871
638.20 0.3868
638.30 0.3866
638.40 0.3863
638.50 0.3861
638.60 0.3858
638.70 0.3856
638.80 0.3853
638.90 0.3851
639.00 0.3848
639.10 0.3846
639.20 0.3843
639.30 0.3841
639.40 0.3838
639.50 0.3836
639.60 0.3833
639.70 0.3831
639.80 0.3829
639.90 0.3826
640.00 0.3824
640.10 0.3821
640.20 0.3819
640.30 0.3816
640.40 0.3814
640.50 0.3811
640.60 0.3809
640.70 0.3806
640.80 0.3804
640.90 0.3801
641.00 0.3799
641.10 0.3796
641.20 0.3794
641.30 0.3791
641.40 0.3789
641.50 0.3786
641.60 0.3784
641.70 0.3781
641.80 0.3779
641.90 0.3776
642.00 0.3773
642.10 0.3771
642.20 0.3768
642.30 0.3766
642.40 0.3763
642.50 0.3761
642.60 0.3758
642.70 0.3756
642.80 0.3753
642.90 0.3751
643.00 0.3748
643.10 0.3746
643.20 0.3743
643.30 0.3741
643.40 0.3738
643.50 0.3735
643.60 0.3733
643.70 0.373
643.80 0.3728
643.90 0.3725
644.00 0.3722
644.10 0.372
644.20 0.3717
644.30 0.3715
644.40 0.3712
644.50 0.3709
644.60 0.3707
644.70 0.3704
644.80 0.3702
644.90 0.3699
645.00 0.3696
645.10 0.3694
645.20 0.3691
645.30 0.3688
645.40 0.3686
645.50 0.3683
645.60 0.368
645.70 0.3678
645.80 0.3675
645.90 0.3672
646.00 0.3669
646.10 0.3667
646.20 0.3664
646.30 0.3661
646.40 0.3659
646.50 0.3656
646.60 0.3653
646.70 0.365
646.80 0.3647
646.90 0.3644
647.00 0.3642
647.10 0.3639
647.20 0.3636
647.30 0.3633
647.40 0.363
647.50 0.3627
647.60 0.3624
647.70 0.3621
647.80 0.3618
647.90 0.3615
648.00 0.3613
648.10 0.361
648.20 0.3607
648.30 0.3604
648.40 0.3601
648.50 0.3597
648.60 0.3594
648.70 0.3591
648.80 0.3588
648.90 0.3585
649.00 0.3582
649.10 0.3579
649.20 0.3575
649.30 0.3572
649.40 0.3569
649.50 0.3565
649.60 0.3562
649.70 0.3559
649.80 0.3555
649.90 0.3552
650.00 0.3548
650.10 0.3545
650.20 0.3542
650.30 0.3538
650.40 0.3535
650.50 0.3531
650.60 0.3527
650.70 0.3523
650.80 0.352
650.90 0.3516
651.00 0.3512
651.10 0.3509
651.20 0.3505
651.30 0.3501
651.40 0.3497
651.50 0.3493
651.60 0.3489
651.70 0.3485
651.80 0.348
651.90 0.3476
652.00 0.3472
652.10 0.3468
652.20 0.3464
652.30 0.346
652.40 0.3455
652.50 0.3451
652.60 0.3446
652.70 0.3442
652.80 0.3437
652.90 0.3433
653.00 0.3428
653.10 0.3423
653.20 0.3419
653.30 0.3414
653.40 0.3409
653.50 0.3404
653.60 0.34
653.70 0.3395
653.80 0.339
653.90 0.3385
654.00 0.338
654.10 0.3375
654.20 0.337
654.30 0.3365
654.40 0.336
654.50 0.3355
654.60 0.335
654.70 0.3345
654.80 0.334
654.90 0.3336
655.00 0.3331
655.10 0.3327
655.20 0.3323
655.30 0.3319
655.40 0.3315
655.50 0.3313
655.60 0.3311
655.70 0.3311
655.80 0.3314
655.90 0.332
656.00 0.3337
656.10 0.3358
656.20 0.3436
656.30 0.3501
656.40 0.3393
656.50 0.334
656.60 0.3318
656.70 0.33
656.80 0.3293
656.90 0.3287
657.00 0.3284
657.10 0.3282
657.20 0.3281
657.30 0.3281
657.40 0.3281
657.50 0.3282
657.60 0.3282
657.70 0.3283
657.80 0.3283
657.90 0.3284
658.00 0.3285
658.10 0.3287
658.20 0.3288
658.30 0.3289
658.40 0.329
658.50 0.329
658.60 0.3291
658.70 0.3292
658.80 0.3293
658.90 0.3294
659.00 0.3295
659.10 0.3296
659.20 0.3297
659.30 0.3298
659.40 0.3298
659.50 0.3299
659.60 0.3299
659.70 0.33
659.80 0.33
659.90 0.3301
660.00 0.3301
660.10 0.3302
660.20 0.3302
660.30 0.3303
660.40 0.3303
660.50 0.3303
660.60 0.3303
660.70 0.3303
660.80 0.3303
660.90 0.3303
661.00 0.3303
661.10 0.3303
661.20 0.3303
661.30 0.3303
661.40 0.3302
661.50 0.3302
661.60 0.3301
661.70 0.3301
661.80 0.33
661.90 0.33
662.00 0.33
662.10 0.3299
662.20 0.3299
662.30 0.3298
662.40 0.3297
662.50 0.3297
662.60 0.3296
662.70 0.3295
662.80 0.3294
662.90 0.3293
663.00 0.3293
663.10 0.3292
663.20 0.3291
663.30 0.329
663.40 0.3289
663.50 0.3288
663.60 0.3287
663.70 0.3286
663.80 0.3285
663.90 0.3284
664.00 0.3283
664.10 0.3282
664.20 0.3281
664.30 0.328
664.40 0.3278
664.50 0.3277
664.60 0.3276
664.70 0.3275
664.80 0.3273
664.90 0.3272
665.00 0.3271
665.10 0.327
665.20 0.3268
665.30 0.3267
665.40 0.3266
665.50 0.3264
665.60 0.3263
665.70 0.3262
665.80 0.326
665.90 0.3259
666.00 0.3257
666.10 0.3256
666.20 0.3255
666.30 0.3253
666.40 0.3252
666.50 0.325
666.60 0.3249
666.70 0.3247
666.80 0.3246
666.90 0.3244
667.00 0.3243
667.10 0.3241
667.20 0.324
667.30 0.3238
667.40 0.3237
667.50 0.3235
667.60 0.3234
667.70 0.3232
667.80 0.323
667.90 0.3229
668.00 0.3227
668.10 0.3226
668.20 0.3224
668.30 0.3222
668.40 0.3221
668.50 0.3219
668.60 0.3218
668.70 0.3216
668.80 0.3214
668.90 0.3213
669.00 0.3211
669.10 0.3209
669.20 0.3208
669.30 0.3206
669.40 0.3205
669.50 0.3203
669.60 0.3201
669.70 0.32
669.80 0.3198
669.90 0.3196
670.00 0.3195
670.10 0.3193
670.20 0.3191
670.30 0.319
670.40 0.3188
670.50 0.3186
670.60 0.3184
670.70 0.3183
670.80 0.3181
670.90 0.3179
671.00 0.3178
671.10 0.3176
671.20 0.3174
671.30 0.3173
671.40 0.3171
671.50 0.3169
671.60 0.3167
671.70 0.3166
671.80 0.3164
671.90 0.3162
672.00 0.3161
672.10 0.3159
672.20 0.3157
672.30 0.3155
672.40 0.3154
672.50 0.3152
672.60 0.315
672.70 0.3149
672.80 0.3147
672.90 0.3145
673.00 0.3143
673.10 0.3142
673.20 0.314
673.30 0.3138
673.40 0.3137
673.50 0.3135
673.60 0.3133
673.70 0.3131
673.80 0.313
673.90 0.3128
674.00 0.3126
674.10 0.3124
674.20 0.3123
674.30 0.3121
674.40 0.3119
674.50 0.3117
674.60 0.3116
674.70 0.3114
674.80 0.3112
674.90 0.3111
675.00 0.3109
675.10 0.3107
675.20 0.3105
675.30 0.3104
675.40 0.3102
675.50 0.31
675.60 0.3098
675.70 0.3097
675.80 0.3095
675.90 0.3093
676.00 0.3092
676.10 0.309
676.20 0.3088
676.30 0.3086
676.40 0.3085
676.50 0.3083
676.60 0.3081
676.70 0.3079
676.80 0.3078
676.90 0.3076
677.00 0.3074
677.10 0.3073
677.20 0.3071
677.30 0.3069
677.40 0.3067
677.50 0.3066
677.60 0.3064
677.70 0.3062
677.80 0.306
677.90 0.3059
678.00 0.3057
678.10 0.3055
678.20 0.3054
678.30 0.3052
678.40 0.305
678.50 0.3048
678.60 0.3047
678.70 0.3045
678.80 0.3043
678.90 0.3042
679.00 0.304
679.10 0.3038
679.20 0.3036
679.30 0.3035
679.40 0.3033
679.50 0.3031
679.60 0.303
679.70 0.3028
679.80 0.3026
679.90 0.3024
680.00 0.3023
680.10 0.3021
680.20 0.3019
680.30 0.3018
680.40 0.3016
680.50 0.3014
680.60 0.3012
680.70 0.3011
680.80 0.3009
680.90 0.3007
681.00 0.3006
681.10 0.3004
681.20 0.3002
681.30 0.3001
681.40 0.2999
681.50 0.2997
681.60 0.2995
681.70 0.2994
681.80 0.2992
681.90 0.299
682.00 0.2989
682.10 0.2987
682.20 0.2985
682.30 0.2984
682.40 0.2982
682.50 0.298
682.60 0.2979
682.70 0.2977
682.80 0.2975
682.90 0.2974
683.00 0.2972
683.10 0.297
683.20 0.2968
683.30 0.2967
683.40 0.2965
683.50 0.2963
683.60 0.2962
683.70 0.296
683.80 0.2958
683.90 0.2957
684.00 0.2955
684.10 0.2953
684.20 0.2952
684.30 0.295
684.40 0.2948
684.50 0.2947
684.60 0.2945
684.70 0.2943
684.80 0.2942
684.90 0.294
685.00 0.2938
685.10 0.2937
685.20 0.2935
685.30 0.2933
685.40 0.2932
685.50 0.293
685.60 0.2928
685.70 0.2927
685.80 0.2925
685.90 0.2923
686.00 0.2922
686.10 0.292
686.20 0.2918
686.30 0.2917
686.40 0.2915
686.50 0.2914
686.60 0.2912
686.70 0.291
686.80 0.2909
686.90 0.2907
687.00 0.2905
687.10 0.2904
687.20 0.2902
687.30 0.29
687.40 0.2899
687.50 0.2897
687.60 0.2895
687.70 0.2894
687.80 0.2892
687.90 0.2891
688.00 0.2889
688.10 0.2887
688.20 0.2886
688.30 0.2884
688.40 0.2882
688.50 0.2881
688.60 0.2879
688.70 0.2878
688.80 0.2876
688.90 0.2874
689.00 0.2873
689.10 0.2871
689.20 0.2869
689.30 0.2868
689.40 0.2866
689.50 0.2865
689.60 0.2863
689.70 0.2861
689.80 0.286
689.90 0.2858
690.00 0.2857
690.10 0.2855
690.20 0.2853
690.30 0.2852
690.40 0.285
690.50 0.2849
690.60 0.2847
690.70 0.2845
690.80 0.2844
690.90 0.2842
691.00 0.2841
691.10 0.2839
691.20 0.2837
691.30 0.2836
691.40 0.2834
691.50 0.2833
691.60 0.2831
691.70 0.2829
691.80 0.2828
691.90 0.2826
692.00 0.2825
692.10 0.2823
692.20 0.2821
692.30 0.282
692.40 0.2818
692.50 0.2817
692.60 0.2815
692.70 0.2813
692.80 0.2812
692.90 0.281
693.00 0.2809
693.10 0.2807
693.20 0.2806
693.30 0.2804
693.40 0.2802
693.50 0.2801
693.60 0.2799
693.70 0.2798
693.80 0.2796
693.90 0.2795
694.00 0.2793
694.10 0.2791
694.20 0.279
694.30 0.2788
694.40 0.2787
694.50 0.2785
694.60 0.2784
694.70 0.2782
694.80 0.278
694.90 0.2779
695.00 0.2777
695.10 0.2776
695.20 0.2774
695.30 0.2773
695.40 0.2771
695.50 0.2769
695.60 0.2768
695.70 0.2766
695.80 0.2765
695.90 0.2763
696.00 0.2762
696.10 0.276
696.20 0.2759
696.30 0.2757
696.40 0.2756
696.50 0.2754
696.60 0.2752
696.70 0.2751
696.80 0.2749
696.90 0.2748
697.00 0.2746
697.10 0.2745
697.20 0.2743
697.30 0.2742
697.40 0.274
697.50 0.2739
697.60 0.2737
697.70 0.2736
697.80 0.2734
697.90 0.2733
698.00 0.2731
698.10 0.2729
698.20 0.2728
698.30 0.2726
698.40 0.2725
698.50 0.2723
698.60 0.2722
698.70 0.272
698.80 0.2719
698.90 0.2717
699.00 0.2716
699.10 0.2714
699.20 0.2713
699.30 0.2711
699.40 0.271
699.50 0.2708
699.60 0.2707
699.70 0.2705
699.80 0.2704
699.90 0.2702
700.00 0.2701
700.10 0.2699
700.20 0.2698
700.30 0.2696
700.40 0.2695
700.50 0.2693
700.60 0.2692
700.70 0.269
700.80 0.2689
700.90 0.2687
701.00 0.2686
701.10 0.2684
701.20 0.2683
701.30 0.2681
701.40 0.268
701.50 0.2678
701.60 0.2677
701.70 0.2675
701.80 0.2674
701.90 0.2672
702.00 0.2671
702.10 0.2669
702.20 0.2668
702.30 0.2666
702.40 0.2665
702.50 0.2663
702.60 0.2662
702.70 0.266
702.80 0.2659
702.90 0.2657
703.00 0.2656
703.10 0.2654
703.20 0.2653
703.30 0.2651
703.40 0.265
703.50 0.2649
703.60 0.2647
703.70 0.2646
703.80 0.2644
703.90 0.2643
704.00 0.2641
704.10 0.264
704.20 0.2638
704.30 0.2637
704.40 0.2635
704.50 0.2634
704.60 0.2632
704.70 0.2631
704.80 0.2629
704.90 0.2628
705.00 0.2626
705.10 0.2625
705.20 0.2624
705.30 0.2622
705.40 0.2621
705.50 0.2619
705.60 0.2618
705.70 0.2616
705.80 0.2615
705.90 0.2613
706.00 0.2612
706.10 0.2611
706.20 0.2609
706.30 0.2608
706.40 0.2606
706.50 0.2605
706.60 0.2603
706.70 0.2602
706.80 0.2601
706.90 0.2599
707.00 0.2598
707.10 0.2596
707.20 0.2595
707.30 0.2593
707.40 0.2592
707.50 0.259
707.60 0.2589
707.70 0.2588
707.80 0.2586
707.90 0.2585
708.00 0.2583
708.10 0.2582
708.20 0.258
708.30 0.2579
708.40 0.2578
708.50 0.2576
708.60 0.2575
708.70 0.2573
708.80 0.2572
708.90 0.257
709.00 0.2569
709.10 0.2568
709.20 0.2566
709.30 0.2565
709.40 0.2563
709.50 0.2562
709.60 0.2561
709.70 0.2559
709.80 0.2558
709.90 0.2556
710.00 0.2555
710.10 0.2553
710.20 0.2552
710.30 0.2551
710.40 0.2549
710.50 0.2548
710.60 0.2546
710.70 0.2545
710.80 0.2544
710.90 0.2542
711.00 0.2541
711.10 0.254
711.20 0.2538
711.30 0.2537
711.40 0.2535
711.50 0.2534
711.60 0.2533
711.70 0.2531
711.80 0.253
711.90 0.2528
712.00 0.2527
712.10 0.2526
712.20 0.2524
712.30 0.2523
712.40 0.2521
712.50 0.252
712.60 0.2519
712.70 0.2517
712.80 0.2516
712.90 0.2515
713.00 0.2513
713.10 0.2512
713.20 0.251
713.30 0.2509
713.40 0.2508
713.50 0.2506
713.60 0.2505
713.70 0.2504
713.80 0.2502
713.90 0.2501
714.00 0.2499
714.10 0.2498
714.20 0.2497
714.30 0.2495
714.40 0.2494
714.50 0.2493
714.60 0.2491
714.70 0.249
714.80 0.2488
714.90 0.2487
715.00 0.2486
715.10 0.2484
715.20 0.2483
715.30 0.2482
715.40 0.248
715.50 0.2479
715.60 0.2478
715.70 0.2476
715.80 0.2475
715.90 0.2474
716.00 0.2472
716.10 0.2471
716.20 0.2469
716.30 0.2468
716.40 0.2467
716.50 0.2465
716.60 0.2464
716.70 0.2463
716.80 0.2461
716.90 0.246
717.00 0.2459
717.10 0.2457
717.20 0.2456
717.30 0.2455
717.40 0.2453
717.50 0.2452
717.60 0.2451
717.70 0.2449
717.80 0.2448
717.90 0.2447
718.00 0.2445
718.10 0.2444
718.20 0.2443
718.30 0.2441
718.40 0.244
718.50 0.2439
718.60 0.2437
718.70 0.2436
718.80 0.2435
718.90 0.2433
719.00 0.2432
719.10 0.2431
719.20 0.2429
719.30 0.2428
719.40 0.2427
719.50 0.2425
719.60 0.2424
719.70 0.2423
719.80 0.2421
719.90 0.242
720.00 0.2419
720.10 0.2417
720.20 0.2416
720.30 0.2415
720.40 0.2414
720.50 0.2412
720.60 0.2411
720.70 0.241
720.80 0.2408
720.90 0.2407
721.00 0.2406
721.10 0.2404
721.20 0.2403
721.30 0.2402
721.40 0.2401
721.50 0.2399
721.60 0.2398
721.70 0.2397
721.80 0.2395
721.90 0.2394
722.00 0.2393
722.10 0.2391
722.20 0.239
722.30 0.2389
722.40 0.2388
722.50 0.2386
722.60 0.2385
722.70 0.2384
722.80 0.2382
722.90 0.2381
723.00 0.238
723.10 0.2379
723.20 0.2377
723.30 0.2376
723.40 0.2375
723.50 0.2373
723.60 0.2372
723.70 0.2371
723.80 0.237
723.90 0.2368
724.00 0.2367
724.10 0.2366
724.20 0.2364
724.30 0.2363
724.40 0.2362
724.50 0.2361
724.60 0.2359
724.70 0.2358
724.80 0.2357
724.90 0.2355
725.00 0.2354
725.10 0.2353
725.20 0.2352
725.30 0.235
725.40 0.2349
725.50 0.2348
725.60 0.2347
725.70 0.2345
725.80 0.2344
725.90 0.2343
726.00 0.2342
726.10 0.234
726.20 0.2339
726.30 0.2338
726.40 0.2336
726.50 0.2335
726.60 0.2334
726.70 0.2333
726.80 0.2331
726.90 0.233
727.00 0.2329
727.10 0.2328
727.20 0.2326
727.30 0.2325
727.40 0.2324
727.50 0.2323
727.60 0.2321
727.70 0.232
727.80 0.2319
727.90 0.2318
728.00 0.2316
728.10 0.2315
728.20 0.2314
728.30 0.2313
728.40 0.2311
728.50 0.231
728.60 0.2309
728.70 0.2308
728.80 0.2307
728.90 0.2305
729.00 0.2304
729.10 0.2303
729.20 0.2302
729.30 0.23
729.40 0.2299
729.50 0.2298
729.60 0.2297
729.70 0.2295
729.80 0.2294
729.90 0.2293
730.00 0.2292
730.10 0.229
730.20 0.2289
730.30 0.2288
730.40 0.2287
730.50 0.2286
730.60 0.2284
730.70 0.2283
730.80 0.2282
730.90 0.2281
731.00 0.2279
731.10 0.2278
731.20 0.2277
731.30 0.2276
731.40 0.2275
731.50 0.2273
731.60 0.2272
731.70 0.2271
731.80 0.227
731.90 0.2269
732.00 0.2267
732.10 0.2266
732.20 0.2265
732.30 0.2264
732.40 0.2263
732.50 0.2261
732.60 0.226
732.70 0.2259
732.80 0.2258
732.90 0.2257
733.00 0.2255
733.10 0.2254
733.20 0.2253
733.30 0.2252
733.40 0.2251
733.50 0.2249
733.60 0.2248
733.70 0.2247
733.80 0.2246
733.90 0.2245
734.00 0.2243
734.10 0.2242
734.20 0.2241
734.30 0.224
734.40 0.2239
734.50 0.2237
734.60 0.2236
734.70 0.2235
734.80 0.2234
734.90 0.2233
735.00 0.2231
735.10 0.223
735.20 0.2229
735.30 0.2228
735.40 0.2227
735.50 0.2226
735.60 0.2224
735.70 0.2223
735.80 0.2222
735.90 0.2221
736.00 0.222
736.10 0.2218
736.20 0.2217
736.30 0.2216
736.40 0.2215
736.50 0.2214
736.60 0.2213
736.70 0.2211
736.80 0.221
736.90 0.2209
737.00 0.2208
737.10 0.2207
737.20 0.2205
737.30 0.2204
737.40 0.2203
737.50 0.2202
737.60 0.2201
737.70 0.22
737.80 0.2198
737.90 0.2197
738.00 0.2196
738.10 0.2195
738.20 0.2194
738.30 0.2193
738.40 0.2191
738.50 0.219
738.60 0.2189
738.70 0.2188
738.80 0.2187
738.90 0.2186
739.00 0.2184
739.10 0.2183
739.20 0.2182
739.30 0.2181
739.40 0.218
739.50 0.2179
739.60 0.2177
739.70 0.2176
739.80 0.2175
739.90 0.2174
740.00 0.2173
740.10 0.2172
740.20 0.217
740.30 0.2169
740.40 0.2168
740.50 0.2167
740.60 0.2166
740.70 0.2165
740.80 0.2164
740.90 0.2162
741.00 0.2161
741.10 0.216
741.20 0.2159
741.30 0.2158
741.40 0.2157
741.50 0.2156
741.60 0.2155
741.70 0.2153
741.80 0.2152
741.90 0.2151
742.00 0.215
742.10 0.2149
742.20 0.2148
742.30 0.2147
742.40 0.2146
742.50 0.2144
742.60 0.2143
742.70 0.2142
742.80 0.2141
742.90 0.214
743.00 0.2139
743.10 0.2138
743.20 0.2137
743.30 0.2135
743.40 0.2134
743.50 0.2133
743.60 0.2132
743.70 0.2131
743.80 0.213
743.90 0.2129
744.00 0.2128
744.10 0.2126
744.20 0.2125
744.30 0.2124
744.40 0.2123
744.50 0.2122
744.60 0.2121
744.70 0.212
744.80 0.2119
744.90 0.2118
745.00 0.2116
745.10 0.2115
745.20 0.2114
745.30 0.2113
745.40 0.2112
745.50 0.2111
745.60 0.211
745.70 0.2109
745.80 0.2108
745.90 0.2106
746.00 0.2105
746.10 0.2104
746.20 0.2103
746.30 0.2102
746.40 0.2101
746.50 0.21
746.60 0.2099
746.70 0.2098
746.80 0.2096
746.90 0.2095
747.00 0.2094
747.10 0.2093
747.20 0.2092
747.30 0.2091
747.40 0.209
747.50 0.2089
747.60 0.2088
747.70 0.2087
747.80 0.2085
747.90 0.2084
748.00 0.2083
748.10 0.2082
748.20 0.2081
748.30 0.208
748.40 0.2079
748.50 0.2078
748.60 0.2077
748.70 0.2076
748.80 0.2074
748.90 0.2073
749.00 0.2072
749.10 0.2071
749.20 0.207
749.30 0.2069
749.40 0.2068
749.50 0.2067
749.60 0.2066
749.70 0.2065
749.80 0.2064
749.90 0.2062
750.00 0.2061
750.10 0.206
750.20 0.2059
750.30 0.2058
750.40 0.2057
750.50 0.2056
750.60 0.2055
750.70 0.2054
750.80 0.2053
750.90 0.2052
751.00 0.2051
751.10 0.205
751.20 0.2049
751.30 0.2048
751.40 0.2047
751.50 0.2045
751.60 0.2044
751.70 0.2043
751.80 0.2042
751.90 0.2041
752.00 0.204
752.10 0.2039
752.20 0.2038
752.30 0.2037
752.40 0.2036
752.50 0.2035
752.60 0.2034
752.70 0.2033
752.80 0.2032
752.90 0.2031
753.00 0.203
753.10 0.2029
753.20 0.2028
753.30 0.2026
753.40 0.2025
753.50 0.2024
753.60 0.2023
753.70 0.2022
753.80 0.2021
753.90 0.202
754.00 0.2019
754.10 0.2018
754.20 0.2017
754.30 0.2016
754.40 0.2015
754.50 0.2014
754.60 0.2013
754.70 0.2012
754.80 0.2011
754.90 0.201
755.00 0.2009
755.10 0.2008
755.20 0.2007
755.30 0.2006
755.40 0.2004
755.50 0.2003
755.60 0.2002
755.70 0.2001
755.80 0.2
755.90 0.1999
756.00 0.1998
756.10 0.1997
756.20 0.1996
756.30 0.1995
756.40 0.1994
756.50 0.1993
756.60 0.1992
756.70 0.1991
756.80 0.199
756.90 0.1989
757.00 0.1988
757.10 0.1987
757.20 0.1986
757.30 0.1985
757.40 0.1984
757.50 0.1983
757.60 0.1982
757.70 0.1981
757.80 0.198
757.90 0.1979
758.00 0.1978
758.10 0.1977
758.20 0.1976
758.30 0.1975
758.40 0.1973
758.50 0.1972
758.60 0.1971
758.70 0.197
758.80 0.1969
758.90 0.1968
759.00 0.1967
759.10 0.1966
759.20 0.1965
759.30 0.1964
759.40 0.1963
759.50 0.1962
759.60 0.1961
759.70 0.196
759.80 0.1959
759.90 0.1958
760.00 0.1957
760.10 0.1956
760.20 0.1955
760.30 0.1954
760.40 0.1953
760.50 0.1952
760.60 0.1951
760.70 0.195
760.80 0.1949
760.90 0.1948
761.00 0.1947
761.10 0.1946
761.20 0.1945
761.30 0.1944
761.40 0.1943
761.50 0.1942
761.60 0.1941
761.70 0.194
761.80 0.1939
761.90 0.1938
762.00 0.1937
762.10 0.1936
762.20 0.1935
762.30 0.1934
762.40 0.1933
762.50 0.1932
762.60 0.1931
762.70 0.193
762.80 0.1929
762.90 0.1928
763.00 0.1927
763.10 0.1926
763.20 0.1925
763.30 0.1924
763.40 0.1923
763.50 0.1922
763.60 0.1921
763.70 0.192
763.80 0.1919
763.90 0.1918
764.00 0.1917
764.10 0.1917
764.20 0.1916
764.30 0.1915
764.40 0.1914
764.50 0.1913
764.60 0.1912
764.70 0.1911
764.80 0.191
764.90 0.1909
765.00 0.1908
765.10 0.1907
765.20 0.1906
765.30 0.1905
765.40 0.1904
765.50 0.1903
765.60 0.1902
765.70 0.1901
765.80 0.19
765.90 0.1899
766.00 0.1898
766.10 0.1897
766.20 0.1896
766.30 0.1895
766.40 0.1894
766.50 0.1893
766.60 0.1892
766.70 0.1891
766.80 0.189
766.90 0.1889
767.00 0.1888
767.10 0.1887
767.20 0.1886
767.30 0.1885
767.40 0.1884
767.50 0.1883
767.60 0.1882
767.70 0.1881
767.80 0.1881
767.90 0.188
768.00 0.1879
768.10 0.1878
768.20 0.1877
768.30 0.1876
768.40 0.1875
768.50 0.1874
768.60 0.1873
768.70 0.1872
768.80 0.1871
768.90 0.187
769.00 0.1869
769.10 0.1868
769.20 0.1867
769.30 0.1866
769.40 0.1865
769.50 0.1864
769.60 0.1863
769.70 0.1862
769.80 0.1861
769.90 0.186
770.00 0.1859
770.10 0.1858
770.20 0.1858
770.30 0.1857
770.40 0.1856
770.50 0.1855
770.60 0.1854
770.70 0.1853
770.80 0.1852
770.90 0.1851
771.00 0.185
771.10 0.1849
771.20 0.1848
771.30 0.1847
771.40 0.1846
771.50 0.1845
771.60 0.1844
771.70 0.1843
771.80 0.1843
771.90 0.1842
772.00 0.1841
772.10 0.184
772.20 0.1839
772.30 0.1838
772.40 0.1837
772.50 0.1836
772.60 0.1835
772.70 0.1834
772.80 0.1833
772.90 0.1832
773.00 0.1831
773.10 0.183
773.20 0.183
773.30 0.1829
773.40 0.1828
773.50 0.1827
773.60 0.1826
773.70 0.1825
773.80 0.1824
773.90 0.1823
774.00 0.1822
774.10 0.1821
774.20 0.182
774.30 0.1819
774.40 0.1819
774.50 0.1818
774.60 0.1817
774.70 0.1816
774.80 0.1815
774.90 0.1814
775.00 0.1813
775.10 0.1812
775.20 0.1811
775.30 0.181
775.40 0.1809
775.50 0.1808
775.60 0.1808
775.70 0.1807
775.80 0.1806
775.90 0.1805
776.00 0.1804
776.10 0.1803
776.20 0.1802
776.30 0.1801
776.40 0.18
776.50 0.1799
776.60 0.1798
776.70 0.1797
776.80 0.1797
776.90 0.1796
777.00 0.1795
777.10 0.1794
777.20 0.1793
777.30 0.1792
777.40 0.1791
777.50 0.179
777.60 0.1789
777.70 0.1788
777.80 0.1787
777.90 0.1787
778.00 0.1786
778.10 0.1785
778.20 0.1784
778.30 0.1783
778.40 0.1782
778.50 0.1781
778.60 0.178
778.70 0.1779
778.80 0.1778
778.90 0.1778
779.00 0.1777
779.10 0.1776
779.20 0.1775
779.30 0.1774
779.40 0.1773
779.50 0.1772
779.60 0.1771
779.70 0.177
779.80 0.1769
779.90 0.1769
780.00 0.1768
780.10 0.1767
780.20 0.1766
780.30 0.1765
780.40 0.1764
780.50 0.1763
780.60 0.1762
780.70 0.1761
780.80 0.1761
780.90 0.176
781.00 0.1759
781.10 0.1758
781.20 0.1757
781.30 0.1756
781.40 0.1755
781.50 0.1754
781.60 0.1754
781.70 0.1753
781.80 0.1752
781.90 0.1751
782.00 0.175
782.10 0.1749
782.20 0.1748
782.30 0.1748
782.40 0.1747
782.50 0.1746
782.60 0.1745
782.70 0.1744
782.80 0.1743
782.90 0.1742
783.00 0.1741
783.10 0.1741
783.20 0.174
783.30 0.1739
783.40 0.1738
783.50 0.1737
783.60 0.1736
783.70 0.1735
783.80 0.1734
783.90 0.1734
784.00 0.1733
784.10 0.1732
784.20 0.1731
784.30 0.173
784.40 0.1729
784.50 0.1728
784.60 0.1728
784.70 0.1727
784.80 0.1726
784.90 0.1725
785.00 0.1724
785.10 0.1723
785.20 0.1722
785.30 0.1722
785.40 0.1721
785.50 0.172
785.60 0.1719
785.70 0.1718
785.80 0.1717
785.90 0.1716
786.00 0.1716
786.10 0.1715
786.20 0.1714
786.30 0.1713
786.40 0.1712
786.50 0.1711
786.60 0.171
786.70 0.171
786.80 0.1709
786.90 0.1708
787.00 0.1707
787.10 0.1706
787.20 0.1705
787.30 0.1704
787.40 0.1704
787.50 0.1703
787.60 0.1702
787.70 0.1701
787.80 0.17
787.90 0.1699
788.00 0.1698
788.10 0.1698
788.20 0.1697
788.30 0.1696
788.40 0.1695
788.50 0.1694
788.60 0.1693
788.70 0.1693
788.80 0.1692
788.90 0.1691
789.00 0.169
789.10 0.1689
789.20 0.1688
789.30 0.1687
789.40 0.1687
789.50 0.1686
789.60 0.1685
789.70 0.1684
789.80 0.1683
789.90 0.1682
790.00 0.1682
790.10 0.1681
790.20 0.168
790.30 0.1679
790.40 0.1678
790.50 0.1677
790.60 0.1677
790.70 0.1676
790.80 0.1675
790.90 0.1674
791.00 0.1673
791.10 0.1672
791.20 0.1672
791.30 0.1671
791.40 0.167
791.50 0.1669
791.60 0.1668
791.70 0.1668
791.80 0.1667
791.90 0.1666
792.00 0.1665
792.10 0.1664
792.20 0.1663
792.30 0.1663
792.40 0.1662
792.50 0.1661
792.60 0.166
792.70 0.1659
792.80 0.1659
792.90 0.1658
793.00 0.1657
793.10 0.1656
793.20 0.1655
793.30 0.1654
793.40 0.1654
793.50 0.1653
793.60 0.1652
793.70 0.1651
793.80 0.165
793.90 0.165
794.00 0.1649
794.10 0.1648
794.20 0.1647
794.30 0.1646
794.40 0.1645
794.50 0.1645
794.60 0.1644
794.70 0.1643
794.80 0.1642
794.90 0.1641
795.00 0.1641
795.10 0.164
795.20 0.1639
795.30 0.1638
795.40 0.1637
795.50 0.1637
795.60 0.1636
795.70 0.1635
795.80 0.1634
795.90 0.1633
796.00 0.1633
796.10 0.1632
796.20 0.1631
796.30 0.163
796.40 0.1629
796.50 0.1629
796.60 0.1628
796.70 0.1627
796.80 0.1626
796.90 0.1625
797.00 0.1624
797.10 0.1624
797.20 0.1623
797.30 0.1622
797.40 0.1621
797.50 0.162
797.60 0.162
797.70 0.1619
797.80 0.1618
797.90 0.1617
798.00 0.1616
798.10 0.1616
798.20 0.1615
798.30 0.1614
798.40 0.1613
798.50 0.1613
798.60 0.1612
798.70 0.1611
798.80 0.161
798.90 0.1609
799.00 0.1609
799.10 0.1608
799.20 0.1607
799.30 0.1606
799.40 0.1605
799.50 0.1605
799.60 0.1604
799.70 0.1603
799.80 0.1602
799.90 0.1601
800.00 0.1601
800.10 0.16
800.20 0.1599
800.30 0.1598
800.40 0.1597
800.50 0.1597
800.60 0.1596
800.70 0.1595
800.80 0.1594
800.90 0.1594
801.00 0.1593
801.10 0.1592
801.20 0.1591
801.30 0.1591
801.40 0.159
801.50 0.1589
801.60 0.1588
801.70 0.1587
801.80 0.1587
801.90 0.1586
802.00 0.1585
802.10 0.1584
802.20 0.1584
802.30 0.1583
802.40 0.1582
802.50 0.1581
802.60 0.158
802.70 0.158
802.80 0.1579
802.90 0.1578
803.00 0.1577
803.10 0.1577
803.20 0.1576
803.30 0.1575
803.40 0.1574
803.50 0.1574
803.60 0.1573
803.70 0.1572
803.80 0.1571
803.90 0.1571
804.00 0.157
804.10 0.1569
804.20 0.1568
804.30 0.1567
804.40 0.1567
804.50 0.1566
804.60 0.1565
804.70 0.1564
804.80 0.1564
804.90 0.1563
805.00 0.1562
805.10 0.1561
805.20 0.1561
805.30 0.156
805.40 0.1559
805.50 0.1558
805.60 0.1558
805.70 0.1557
805.80 0.1556
805.90 0.1555
806.00 0.1555
806.10 0.1554
806.20 0.1553
806.30 0.1552
806.40 0.1551
806.50 0.1551
806.60 0.155
806.70 0.1549
806.80 0.1548
806.90 0.1548
807.00 0.1547
807.10 0.1546
807.20 0.1545
807.30 0.1545
807.40 0.1544
807.50 0.1543
807.60 0.1542
807.70 0.1542
807.80 0.1541
807.90 0.154
808.00 0.1539
808.10 0.1539
808.20 0.1538
808.30 0.1537
808.40 0.1536
808.50 0.1536
808.60 0.1535
808.70 0.1534
808.80 0.1533
808.90 0.1533
809.00 0.1532
809.10 0.1531
809.20 0.153
809.30 0.153
809.40 0.1529
809.50 0.1528
809.60 0.1527
809.70 0.1527
809.80 0.1526
809.90 0.1525
810.00 0.1524
810.10 0.1524
810.20 0.1523
810.30 0.1522
810.40 0.1522
810.50 0.1521
810.60 0.152
810.70 0.1519
810.80 0.1519
810.90 0.1518
811.00 0.1517
811.10 0.1516
811.20 0.1516
811.30 0.1515
811.40 0.1514
811.50 0.1514
811.60 0.1513
811.70 0.1512
811.80 0.1511
811.90 0.1511
812.00 0.151
812.10 0.1509
812.20 0.1508
812.30 0.1508
812.40 0.1507
812.50 0.1506
812.60 0.1506
812.70 0.1505
812.80 0.1504
812.90 0.1503
813.00 0.1503
813.10 0.1502
813.20 0.1501
813.30 0.15
813.40 0.15
813.50 0.1499
813.60 0.1498
813.70 0.1498
813.80 0.1497
813.90 0.1496
814.00 0.1495
814.10 0.1495
814.20 0.1494
814.30 0.1493
814.40 0.1493
814.50 0.1492
814.60 0.1491
814.70 0.149
814.80 0.149
814.90 0.1489
815.00 0.1488
815.10 0.1488
815.20 0.1487
815.30 0.1486
815.40 0.1485
815.50 0.1485
815.60 0.1484
815.70 0.1483
815.80 0.1483
815.90 0.1482
816.00 0.1481
816.10 0.148
816.20 0.148
816.30 0.1479
816.40 0.1478
816.50 0.1478
816.60 0.1477
816.70 0.1476
816.80 0.1475
816.90 0.1475
817.00 0.1474
817.10 0.1473
817.20 0.1473
817.30 0.1472
817.40 0.1471
817.50 0.147
817.60 0.147
817.70 0.1469
817.80 0.1468
817.90 0.1468
818.00 0.1467
818.10 0.1466
818.20 0.1466
818.30 0.1465
818.40 0.1464
818.50 0.1463
818.60 0.1463
818.70 0.1462
818.80 0.1461
818.90 0.1461
819.00 0.146
819.10 0.1459
819.20 0.1458
819.30 0.1458
819.40 0.1457
819.50 0.1456
819.60 0.1456
819.70 0.1455
819.80 0.1454
819.90 0.1454
820.00 0.1453
820.10 0.1452
820.20 0.1451
820.30 0.1451
820.40 0.145
820.50 0.1449
820.60 0.1449
820.70 0.1448
820.80 0.1447
820.90 0.1447
821.00 0.1446
821.10 0.1445
821.20 0.1445
821.30 0.1444
821.40 0.1443
821.50 0.1442
821.60 0.1442
821.70 0.1441
821.80 0.144
821.90 0.144
822.00 0.1439
822.10 0.1438
822.20 0.1438
822.30 0.1437
822.40 0.1436
822.50 0.1436
822.60 0.1435
822.70 0.1434
822.80 0.1434
822.90 0.1433
823.00 0.1432
823.10 0.1432
823.20 0.1431
823.30 0.143
823.40 0.1429
823.50 0.1429
823.60 0.1428
823.70 0.1427
823.80 0.1427
823.90 0.1426
824.00 0.1425
824.10 0.1425
824.20 0.1424
824.30 0.1423
824.40 0.1423
824.50 0.1422
824.60 0.1421
824.70 0.1421
824.80 0.142
824.90 0.1419
825.00 0.1419
825.10 0.1418
825.20 0.1417
825.30 0.1417
825.40 0.1416
825.50 0.1415
825.60 0.1415
825.70 0.1414
825.80 0.1413
825.90 0.1413
826.00 0.1412
826.10 0.1411
826.20 0.1411
826.30 0.141
826.40 0.1409
826.50 0.1409
826.60 0.1408
826.70 0.1407
826.80 0.1407
826.90 0.1406
827.00 0.1405
827.10 0.1405
827.20 0.1404
827.30 0.1403
827.40 0.1403
827.50 0.1402
827.60 0.1401
827.70 0.1401
827.80 0.14
827.90 0.1399
828.00 0.1399
828.10 0.1398
828.20 0.1397
828.30 0.1397
828.40 0.1396
828.50 0.1395
828.60 0.1395
828.70 0.1394
828.80 0.1393
828.90 0.1393
829.00 0.1392
829.10 0.1391
829.20 0.1391
829.30 0.139
829.40 0.1389
829.50 0.1389
829.60 0.1388
829.70 0.1387
829.80 0.1387
829.90 0.1386
830.00 0.1385
830.10 0.1385
830.20 0.1384
830.30 0.1383
830.40 0.1383
830.50 0.1382
830.60 0.1381
830.70 0.1381
830.80 0.138
830.90 0.1379
831.00 0.1379
831.10 0.1378
831.20 0.1378
831.30 0.1377
831.40 0.1376
831.50 0.1376
831.60 0.1375
831.70 0.1374
831.80 0.1374
831.90 0.1373
832.00 0.1372
832.10 0.1372
832.20 0.1371
832.30 0.137
832.40 0.137
832.50 0.1369
832.60 0.1368
832.70 0.1368
832.80 0.1367
832.90 0.1367
833.00 0.1366
833.10 0.1365
833.20 0.1365
833.30 0.1364
833.40 0.1363
833.50 0.1363
833.60 0.1362
833.70 0.1361
833.80 0.1361
833.90 0.136
834.00 0.1359
834.10 0.1359
834.20 0.1358
834.30 0.1358
834.40 0.1357
834.50 0.1356
834.60 0.1356
834.70 0.1355
834.80 0.1354
834.90 0.1354
835.00 0.1353
835.10 0.1352
835.20 0.1352
835.30 0.1351
835.40 0.1351
835.50 0.135
835.60 0.1349
835.70 0.1349
835.80 0.1348
835.90 0.1347
836.00 0.1347
836.10 0.1346
836.20 0.1345
836.30 0.1345
836.40 0.1344
836.50 0.1344
836.60 0.1343
836.70 0.1342
836.80 0.1342
836.90 0.1341
837.00 0.134
837.10 0.134
837.20 0.1339
837.30 0.1339
837.40 0.1338
837.50 0.1337
837.60 0.1337
837.70 0.1336
837.80 0.1335
837.90 0.1335
838.00 0.1334
838.10 0.1334
838.20 0.1333
838.30 0.1332
838.40 0.1332
838.50 0.1331
838.60 0.133
838.70 0.133
838.80 0.1329
838.90 0.1329
839.00 0.1328
839.10 0.1327
839.20 0.1327
839.30 0.1326
839.40 0.1325
839.50 0.1325
839.60 0.1324
839.70 0.1324
839.80 0.1323
839.90 0.1322
840.00 0.1322
840.10 0.1321
840.20 0.1321
840.30 0.132
840.40 0.1319
840.50 0.1319
840.60 0.1318
840.70 0.1317
840.80 0.1317
840.90 0.1316
841.00 0.1316
841.10 0.1315
841.20 0.1314
841.30 0.1314
841.40 0.1313
841.50 0.1313
841.60 0.1312
841.70 0.1311
841.80 0.1311
841.90 0.131
842.00 0.1309
842.10 0.1309
842.20 0.1308
842.30 0.1308
842.40 0.1307
842.50 0.1306
842.60 0.1306
842.70 0.1305
842.80 0.1305
842.90 0.1304
843.00 0.1303
843.10 0.1303
843.20 0.1302
843.30 0.1302
843.40 0.1301
843.50 0.13
843.60 0.13
843.70 0.1299
843.80 0.1299
843.90 0.1298
844.00 0.1297
844.10 0.1297
844.20 0.1296
844.30 0.1296
844.40 0.1295
844.50 0.1294
844.60 0.1294
844.70 0.1293
844.80 0.1293
844.90 0.1292
845.00 0.1291
845.10 0.1291
845.20 0.129
845.30 0.129
845.40 0.1289
845.50 0.1288
845.60 0.1288
845.70 0.1287
845.80 0.1287
845.90 0.1286
846.00 0.1285
846.10 0.1285
846.20 0.1284
846.30 0.1284
846.40 0.1283
846.50 0.1282
846.60 0.1282
846.70 0.1281
846.80 0.1281
846.90 0.128
847.00 0.1279
847.10 0.1279
847.20 0.1278
847.30 0.1278
847.40 0.1277
847.50 0.1276
847.60 0.1276
847.70 0.1275
847.80 0.1275
847.90 0.1274
848.00 0.1273
848.10 0.1273
848.20 0.1272
848.30 0.1272
848.40 0.1271
848.50 0.1271
848.60 0.127
848.70 0.1269
848.80 0.1269
848.90 0.1268
849.00 0.1268
849.10 0.1267
849.20 0.1266
849.30 0.1266
849.40 0.1265
849.50 0.1265
849.60 0.1264
849.70 0.1263
849.80 0.1263
849.90 0.1262
850.00 0.1262
850.10 0.1261
850.20 0.1261
850.30 0.126
850.40 0.1259
850.50 0.1259
850.60 0.1258
850.70 0.1258
850.80 0.1257
850.90 0.1256
851.00 0.1256
851.10 0.1255
851.20 0.1255
851.30 0.1254
851.40 0.1254
851.50 0.1253
851.60 0.1252
851.70 0.1252
851.80 0.1251
851.90 0.1251
852.00 0.125
852.10 0.125
852.20 0.1249
852.30 0.1248
852.40 0.1248
852.50 0.1247
852.60 0.1247
852.70 0.1246
852.80 0.1245
852.90 0.1245
853.00 0.1244
853.10 0.1244
853.20 0.1243
853.30 0.1243
853.40 0.1242
853.50 0.1241
853.60 0.1241
853.70 0.124
853.80 0.124
853.90 0.1239
854.00 0.1239
854.10 0.1238
854.20 0.1238
854.30 0.1237
854.40 0.1236
854.50 0.1236
854.60 0.1235
854.70 0.1235
854.80 0.1234
854.90 0.1234
855.00 0.1233
855.10 0.1232
855.20 0.1232
855.30 0.1231
855.40 0.1231
855.50 0.123
855.60 0.123
855.70 0.1229
855.80 0.1228
855.90 0.1228
856.00 0.1227
856.10 0.1227
856.20 0.1226
856.30 0.1226
856.40 0.1225
856.50 0.1224
856.60 0.1224
856.70 0.1223
856.80 0.1223
856.90 0.1222
857.00 0.1222
857.10 0.1221
857.20 0.1221
857.30 0.122
857.40 0.1219
857.50 0.1219
857.60 0.1218
857.70 0.1218
857.80 0.1217
857.90 0.1217
858.00 0.1216
858.10 0.1216
858.20 0.1215
858.30 0.1214
858.40 0.1214
858.50 0.1213
858.60 0.1213
858.70 0.1212
858.80 0.1212
858.90 0.1211
859.00 0.1211
859.10 0.121
859.20 0.1209
859.30 0.1209
859.40 0.1208
859.50 0.1208
859.60 0.1207
859.70 0.1207
859.80 0.1206
859.90 0.1206
860.00 0.1205
860.10 0.1205
860.20 0.1204
860.30 0.1203
860.40 0.1203
860.50 0.1202
860.60 0.1202
860.70 0.1201
860.80 0.1201
860.90 0.12
861.00 0.12
861.10 0.1199
861.20 0.1199
861.30 0.1198
861.40 0.1197
861.50 0.1197
861.60 0.1196
861.70 0.1196
861.80 0.1195
861.90 0.1195
862.00 0.1194
862.10 0.1194
862.20 0.1193
862.30 0.1193
862.40 0.1192
862.50 0.1191
862.60 0.1191
862.70 0.119
862.80 0.119
862.90 0.1189
863.00 0.1189
863.10 0.1188
863.20 0.1188
863.30 0.1187
863.40 0.1187
863.50 0.1186
863.60 0.1185
863.70 0.1185
863.80 0.1184
863.90 0.1184
864.00 0.1183
864.10 0.1183
864.20 0.1182
864.30 0.1182
864.40 0.1181
864.50 0.1181
864.60 0.118
864.70 0.118
864.80 0.1179
864.90 0.1179
865.00 0.1178
865.10 0.1177
865.20 0.1177
865.30 0.1176
865.40 0.1176
865.50 0.1175
865.60 0.1175
865.70 0.1174
865.80 0.1174
865.90 0.1173
866.00 0.1173
866.10 0.1172
866.20 0.1172
866.30 0.1171
866.40 0.117
866.50 0.117
866.60 0.1169
866.70 0.1169
866.80 0.1168
866.90 0.1168
867.00 0.1167
867.10 0.1167
867.20 0.1166
867.30 0.1166
867.40 0.1165
867.50 0.1165
867.60 0.1164
867.70 0.1164
867.80 0.1163
867.90 0.1163
868.00 0.1162
868.10 0.1162
868.20 0.1161
868.30 0.116
868.40 0.116
868.50 0.1159
868.60 0.1159
868.70 0.1158
868.80 0.1158
868.90 0.1157
869.00 0.1157
869.10 0.1156
869.20 0.1156
869.30 0.1155
869.40 0.1155
869.50 0.1154
869.60 0.1154
869.70 0.1153
869.80 0.1153
869.90 0.1152
870.00 0.1152
870.10 0.1151
870.20 0.1151
870.30 0.115
870.40 0.115
870.50 0.1149
870.60 0.1148
870.70 0.1148
870.80 0.1147
870.90 0.1147
871.00 0.1146
871.10 0.1146
871.20 0.1145
871.30 0.1145
871.40 0.1144
871.50 0.1144
871.60 0.1143
871.70 0.1143
871.80 0.1142
871.90 0.1142
872.00 0.1141
872.10 0.1141
872.20 0.114
872.30 0.114
872.40 0.1139
872.50 0.1139
872.60 0.1138
872.70 0.1138
872.80 0.1137
872.90 0.1137
873.00 0.1136
873.10 0.1136
873.20 0.1135
873.30 0.1135
873.40 0.1134
873.50 0.1134
873.60 0.1133
873.70 0.1133
873.80 0.1132
873.90 0.1132
874.00 0.1131
874.10 0.113
874.20 0.113
874.30 0.1129
874.40 0.1129
874.50 0.1128
874.60 0.1128
874.70 0.1127
874.80 0.1127
874.90 0.1126
875.00 0.1126
875.10 0.1125
875.20 0.1125
875.30 0.1124
875.40 0.1124
875.50 0.1123
875.60 0.1123
875.70 0.1122
875.80 0.1122
875.90 0.1121
876.00 0.1121
876.10 0.112
876.20 0.112
876.30 0.1119
876.40 0.1119
876.50 0.1118
876.60 0.1118
876.70 0.1117
876.80 0.1117
876.90 0.1116
877.00 0.1116
877.10 0.1115
877.20 0.1115
877.30 0.1114
877.40 0.1114
877.50 0.1113
877.60 0.1113
877.70 0.1112
877.80 0.1112
877.90 0.1111
878.00 0.1111
878.10 0.111
878.20 0.111
878.30 0.1109
878.40 0.1109
878.50 0.1108
878.60 0.1108
878.70 0.1107
878.80 0.1107
878.90 0.1106
879.00 0.1106
879.10 0.1105
879.20 0.1105
879.30 0.1104
879.40 0.1104
879.50 0.1103
879.60 0.1103
879.70 0.1102
879.80 0.1102
879.90 0.1101
880.00 0.1101
880.10 0.11
880.20 0.11
880.30 0.11
880.40 0.1099
880.50 0.1099
880.60 0.1098
880.70 0.1098
880.80 0.1097
880.90 0.1097
881.00 0.1096
881.10 0.1096
881.20 0.1095
881.30 0.1095
881.40 0.1094
881.50 0.1094
881.60 0.1093
881.70 0.1093
881.80 0.1092
881.90 0.1092
882.00 0.1091
882.10 0.1091
882.20 0.109
882.30 0.109
882.40 0.1089
882.50 0.1089
882.60 0.1088
882.70 0.1088
882.80 0.1087
882.90 0.1087
883.00 0.1086
883.10 0.1086
883.20 0.1085
883.30 0.1085
883.40 0.1084
883.50 0.1084
883.60 0.1083
883.70 0.1083
883.80 0.1082
883.90 0.1082
884.00 0.1082
884.10 0.1081
884.20 0.1081
884.30 0.108
884.40 0.108
884.50 0.1079
884.60 0.1079
884.70 0.1078
884.80 0.1078
884.90 0.1077
885.00 0.1077
885.10 0.1076
885.20 0.1076
885.30 0.1075
885.40 0.1075
885.50 0.1074
885.60 0.1074
885.70 0.1073
885.80 0.1073
885.90 0.1072
886.00 0.1072
886.10 0.1071
886.20 0.1071
886.30 0.1071
886.40 0.107
886.50 0.107
886.60 0.1069
886.70 0.1069
886.80 0.1068
886.90 0.1068
887.00 0.1067
887.10 0.1067
887.20 0.1066
887.30 0.1066
887.40 0.1065
887.50 0.1065
887.60 0.1064
887.70 0.1064
887.80 0.1063
887.90 0.1063
888.00 0.1063
888.10 0.1062
888.20 0.1062
888.30 0.1061
888.40 0.1061
888.50 0.106
888.60 0.106
888.70 0.1059
888.80 0.1059
888.90 0.1058
889.00 0.1058
889.10 0.1057
889.20 0.1057
889.30 0.1056
889.40 0.1056
889.50 0.1055
889.60 0.1055
889.70 0.1055
889.80 0.1054
889.90 0.1054
890.00 0.1053
890.10 0.1053
890.20 0.1052
890.30 0.1052
890.40 0.1051
890.50 0.1051
890.60 0.105
890.70 0.105
890.80 0.1049
890.90 0.1049
891.00 0.1049
891.10 0.1048
891.20 0.1048
891.30 0.1047
891.40 0.1047
891.50 0.1046
891.60 0.1046
891.70 0.1045
891.80 0.1045
891.90 0.1044
892.00 0.1044
892.10 0.1043
892.20 0.1043
892.30 0.1043
892.40 0.1042
892.50 0.1042
892.60 0.1041
892.70 0.1041
892.80 0.104
892.90 0.104
893.00 0.1039
893.10 0.1039
893.20 0.1038
893.30 0.1038
893.40 0.1037
893.50 0.1037
893.60 0.1037
893.70 0.1036
893.80 0.1036
893.90 0.1035
894.00 0.1035
894.10 0.1034
894.20 0.1034
894.30 0.1033
894.40 0.1033
894.50 0.1032
894.60 0.1032
894.70 0.1032
894.80 0.1031
894.90 0.1031
895.00 0.103
895.10 0.103
895.20 0.1029
895.30 0.1029
895.40 0.1028
895.50 0.1028
895.60 0.1028
895.70 0.1027
895.80 0.1027
895.90 0.1026
896.00 0.1026
896.10 0.1025
896.20 0.1025
896.30 0.1024
896.40 0.1024
896.50 0.1023
896.60 0.1023
896.70 0.1023
896.80 0.1022
896.90 0.1022
897.00 0.1021
897.10 0.1021
897.20 0.102
897.30 0.102
897.40 0.1019
897.50 0.1019
897.60 0.1019
897.70 0.1018
897.80 0.1018
897.90 0.1017
898.00 0.1017
898.10 0.1016
898.20 0.1016
898.30 0.1015
898.40 0.1015
898.50 0.1015
898.60 0.1014
898.70 0.1014
898.80 0.1013
898.90 0.1013
899.00 0.1012
899.10 0.1012
899.20 0.1011
899.30 0.1011
899.40 0.1011
899.50 0.101
899.60 0.101
899.70 0.1009
899.80 0.1009
899.90 0.1008
900.00 0.1008
900.10 0.1007
900.20 0.1007
900.30 0.1007
900.40 0.1006
900.50 0.1006
900.60 0.1005
900.70 0.1005
900.80 0.1004
900.90 0.1004
901.00 0.1004
901.10 0.1003
901.20 0.1003
901.30 0.1002
901.40 0.1002
901.50 0.1001
901.60 0.1001
901.70 0.1
901.80 0.1
901.90 0.09996
902.00 0.09991
902.10 0.09987
902.20 0.09983
902.30 0.09978
902.40 0.09974
902.50 0.0997
902.60 0.09965
902.70 0.09961
902.80 0.09957
902.90 0.09953
903.00 0.09948
903.10 0.09944
903.20 0.0994
903.30 0.09935
903.40 0.09931
903.50 0.09927
903.60 0.09922
903.70 0.09918
903.80 0.09914
903.90 0.09909
904.00 0.09905
904.10 0.09901
904.20 0.09896
904.30 0.09892
904.40 0.09888
904.50 0.09884
904.60 0.09879
904.70 0.09875
904.80 0.09871
904.90 0.09866
905.00 0.09862
905.10 0.09858
905.20 0.09854
905.30 0.09849
905.40 0.09845
905.50 0.09841
905.60 0.09836
905.70 0.09832
905.80 0.09828
905.90 0.09824
906.00 0.09819
906.10 0.09815
906.20 0.09811
906.30 0.09807
906.40 0.09802
906.50 0.09798
906.60 0.09794
906.70 0.09789
906.80 0.09785
906.90 0.09781
907.00 0.09777
907.10 0.09773
907.20 0.09768
907.30 0.09764
907.40 0.0976
907.50 0.09756
907.60 0.09751
907.70 0.09747
907.80 0.09743
907.90 0.09739
908.00 0.09735
908.10 0.0973
908.20 0.09726
908.30 0.09722
908.40 0.09718
908.50 0.09714
908.60 0.09709
908.70 0.09705
908.80 0.09701
908.90 0.09697
909.00 0.09693
909.10 0.09689
909.20 0.09684
909.30 0.0968
909.40 0.09676
909.50 0.09672
909.60 0.09668
909.70 0.09663
909.80 0.09659
909.90 0.09655
910.00 0.09651
910.10 0.09647
910.20 0.09643
910.30 0.09638
910.40 0.09634
910.50 0.0963
910.60 0.09626
910.70 0.09622
910.80 0.09618
910.90 0.09613
911.00 0.09609
911.10 0.09605
911.20 0.09601
911.30 0.09597
911.40 0.09593
911.50 0.09589
911.60 0.09584
911.70 0.0958
911.80 0.09576
911.90 0.09572
912.00 0.09568
912.10 0.09564
912.20 0.0956
912.30 0.09556
912.40 0.09551
912.50 0.09547
912.60 0.09543
912.70 0.09539
912.80 0.09535
912.90 0.09531
913.00 0.09527
913.10 0.09523
913.20 0.09519
913.30 0.09515
913.40 0.09511
913.50 0.09506
913.60 0.09502
913.70 0.09498
913.80 0.09494
913.90 0.0949
914.00 0.09486
914.10 0.09482
914.20 0.09478
914.30 0.09474
914.40 0.0947
914.50 0.09466
914.60 0.09462
914.70 0.09458
914.80 0.09454
914.90 0.0945
915.00 0.09445
915.10 0.09441
915.20 0.09437
915.30 0.09433
915.40 0.09429
915.50 0.09425
915.60 0.09421
915.70 0.09417
915.80 0.09413
915.90 0.09409
916.00 0.09405
916.10 0.09401
916.20 0.09397
916.30 0.09393
916.40 0.09389
916.50 0.09385
916.60 0.09381
916.70 0.09377
916.80 0.09373
916.90 0.09369
917.00 0.09365
917.10 0.09361
917.20 0.09357
917.30 0.09353
917.40 0.09349
917.50 0.09345
917.60 0.09341
917.70 0.09337
917.80 0.09333
917.90 0.09329
918.00 0.09325
918.10 0.09321
918.20 0.09317
918.30 0.09313
918.40 0.09309
918.50 0.09305
918.60 0.09301
918.70 0.09297
918.80 0.09293
918.90 0.09289
919.00 0.09285
919.10 0.09281
919.20 0.09277
919.30 0.09273
919.40 0.09269
919.50 0.09265
919.60 0.09261
919.70 0.09257
919.80 0.09253
919.90 0.09249
920.00 0.09246
920.10 0.09242
920.20 0.09238
920.30 0.09234
920.40 0.0923
920.50 0.09226
920.60 0.09222
920.70 0.09218
920.80 0.09214
920.90 0.0921
921.00 0.09206
921.10 0.09202
921.20 0.09198
921.30 0.09194
921.40 0.0919
921.50 0.09187
921.60 0.09183
921.70 0.09179
921.80 0.09175
921.90 0.09171
922.00 0.09167
922.10 0.09163
922.20 0.09159
922.30 0.09155
922.40 0.09151
922.50 0.09147
922.60 0.09144
922.70 0.0914
922.80 0.09136
922.90 0.09132
923.00 0.09128
923.10 0.09124
923.20 0.0912
923.30 0.09116
923.40 0.09113
923.50 0.09109
923.60 0.09105
923.70 0.09101
923.80 0.09097
923.90 0.09093
924.00 0.09089
924.10 0.09085
924.20 0.09082
924.30 0.09078
924.40 0.09074
924.50 0.0907
924.60 0.09066
924.70 0.09062
924.80 0.09058
924.90 0.09055
925.00 0.09051
925.10 0.09047
925.20 0.09043
925.30 0.09039
925.40 0.09035
925.50 0.09032
925.60 0.09028
925.70 0.09024
925.80 0.0902
925.90 0.09016
926.00 0.09012
926.10 0.09009
926.20 0.09005
926.30 0.09001
926.40 0.08997
926.50 0.08993
926.60 0.08989
926.70 0.08986
926.80 0.08982
926.90 0.08978
927.00 0.08974
927.10 0.0897
927.20 0.08967
927.30 0.08963
927.40 0.08959
927.50 0.08955
927.60 0.08951
927.70 0.08948
927.80 0.08944
927.90 0.0894
928.00 0.08936
928.10 0.08933
928.20 0.08929
928.30 0.08925
928.40 0.08921
928.50 0.08917
928.60 0.08914
928.70 0.0891
928.80 0.08906
928.90 0.08902
929.00 0.08899
929.10 0.08895
929.20 0.08891
929.30 0.08887
929.40 0.08884
929.50 0.0888
929.60 0.08876
929.70 0.08872
929.80 0.08869
929.90 0.08865
930.00 0.08861
930.10 0.08857
930.20 0.08854
930.30 0.0885
930.40 0.08846
930.50 0.08842
930.60 0.08839
930.70 0.08835
930.80 0.08831
930.90 0.08827
931.00 0.08824
931.10 0.0882
931.20 0.08816
931.30 0.08812
931.40 0.08809
931.50 0.08805
931.60 0.08801
931.70 0.08798
931.80 0.08794
931.90 0.0879
932.00 0.08786
932.10 0.08783
932.20 0.08779
932.30 0.08775
932.40 0.08772
932.50 0.08768
932.60 0.08764
932.70 0.08761
932.80 0.08757
932.90 0.08753
933.00 0.08749
933.10 0.08746
933.20 0.08742
933.30 0.08738
933.40 0.08735
933.50 0.08731
933.60 0.08727
933.70 0.08724
933.80 0.0872
933.90 0.08716
934.00 0.08713
934.10 0.08709
934.20 0.08705
934.30 0.08702
934.40 0.08698
934.50 0.08694
934.60 0.08691
934.70 0.08687
934.80 0.08683
934.90 0.0868
935.00 0.08676
935.10 0.08673
935.20 0.08669
935.30 0.08665
935.40 0.08662
935.50 0.08658
935.60 0.08654
935.70 0.08651
935.80 0.08647
935.90 0.08643
936.00 0.0864
936.10 0.08636
936.20 0.08633
936.30 0.08629
936.40 0.08625
936.50 0.08622
936.60 0.08618
936.70 0.08614
936.80 0.08611
936.90 0.08607
937.00 0.08604
937.10 0.086
937.20 0.08596
937.30 0.08593
937.40 0.08589
937.50 0.08586
937.60 0.08582
937.70 0.08578
937.80 0.08575
937.90 0.08571
938.00 0.08568
938.10 0.08564
938.20 0.08561
938.30 0.08557
938.40 0.08553
938.50 0.0855
938.60 0.08546
938.70 0.08543
938.80 0.08539
938.90 0.08536
939.00 0.08532
939.10 0.08528
939.20 0.08525
939.30 0.08521
939.40 0.08518
939.50 0.08514
939.60 0.08511
939.70 0.08507
939.80 0.08503
939.90 0.085
940.00 0.08496
940.10 0.08493
940.20 0.08489
940.30 0.08486
940.40 0.08482
940.50 0.08479
940.60 0.08475
940.70 0.08472
940.80 0.08468
940.90 0.08464
941.00 0.08461
941.10 0.08457
941.20 0.08454
941.30 0.0845
941.40 0.08447
941.50 0.08443
941.60 0.0844
941.70 0.08436
941.80 0.08433
941.90 0.08429
942.00 0.08426
942.10 0.08422
942.20 0.08419
942.30 0.08415
942.40 0.08412
942.50 0.08408
942.60 0.08405
942.70 0.08401
942.80 0.08398
942.90 0.08394
943.00 0.08391
943.10 0.08387
943.20 0.08384
943.30 0.0838
943.40 0.08377
943.50 0.08373
943.60 0.0837
943.70 0.08366
943.80 0.08363
943.90 0.08359
944.00 0.08356
944.10 0.08352
944.20 0.08349
944.30 0.08345
944.40 0.08342
944.50 0.08339
944.60 0.08335
944.70 0.08332
944.80 0.08328
944.90 0.08325
945.00 0.08321
945.10 0.08318
945.20 0.08314
945.30 0.08311
945.40 0.08307
945.50 0.08304
945.60 0.08301
945.70 0.08297
945.80 0.08294
945.90 0.0829
946.00 0.08287
946.10 0.08283
946.20 0.0828
946.30 0.08277
946.40 0.08273
946.50 0.0827
946.60 0.08266
946.70 0.08263
946.80 0.08259
946.90 0.08256
947.00 0.08253
947.10 0.08249
947.20 0.08246
947.30 0.08242
947.40 0.08239
947.50 0.08236
947.60 0.08232
947.70 0.08229
947.80 0.08225
947.90 0.08222
948.00 0.08219
948.10 0.08215
948.20 0.08212
948.30 0.08208
948.40 0.08205
948.50 0.08202
948.60 0.08198
948.70 0.08195
948.80 0.08191
948.90 0.08188
949.00 0.08185
949.10 0.08181
949.20 0.08178
949.30 0.08174
949.40 0.08171
949.50 0.08168
949.60 0.08164
949.70 0.08161
949.80 0.08158
949.90 0.08154
950.00 0.08151
950.10 0.08148
950.20 0.08144
950.30 0.08141
950.40 0.08137
950.50 0.08134
950.60 0.08131
950.70 0.08127
950.80 0.08124
950.90 0.08121
951.00 0.08117
951.10 0.08114
951.20 0.08111
951.30 0.08107
951.40 0.08104
951.50 0.08101
951.60 0.08097
951.70 0.08094
951.80 0.08091
951.90 0.08087
952.00 0.08084
952.10 0.08081
952.20 0.08077
952.30 0.08074
952.40 0.08071
952.50 0.08067
952.60 0.08064
952.70 0.08061
952.80 0.08058
952.90 0.08054
953.00 0.08051
953.10 0.08048
953.20 0.08044
953.30 0.08041
953.40 0.08038
953.50 0.08034
953.60 0.08031
953.70 0.08028
953.80 0.08025
953.90 0.08021
954.00 0.08018
954.10 0.08015
954.20 0.08011
954.30 0.08008
954.40 0.08005
954.50 0.08002
954.60 0.07998
954.70 0.07995
954.80 0.07992
954.90 0.07988
955.00 0.07985
955.10 0.07982
955.20 0.07978
955.30 0.07975
955.40 0.07972
955.50 0.07969
955.60 0.07965
955.70 0.07962
955.80 0.07959
955.90 0.07955
956.00 0.07952
956.10 0.07949
956.20 0.07946
956.30 0.07942
956.40 0.07939
956.50 0.07936
956.60 0.07933
956.70 0.07929
956.80 0.07926
956.90 0.07923
957.00 0.0792
957.10 0.07916
957.20 0.07913
957.30 0.0791
957.40 0.07907
957.50 0.07903
957.60 0.079
957.70 0.07897
957.80 0.07894
957.90 0.0789
958.00 0.07887
958.10 0.07884
958.20 0.07881
958.30 0.07877
958.40 0.07874
958.50 0.07871
958.60 0.07868
958.70 0.07864
958.80 0.07861
958.90 0.07858
959.00 0.07855
959.10 0.07852
959.20 0.07848
959.30 0.07845
959.40 0.07842
959.50 0.07839
959.60 0.07835
959.70 0.07832
959.80 0.07829
959.90 0.07826
960.00 0.07823
960.10 0.07819
960.20 0.07816
960.30 0.07813
960.40 0.0781
960.50 0.07807
960.60 0.07803
960.70 0.078
960.80 0.07797
960.90 0.07794
961.00 0.07791
961.10 0.07787
961.20 0.07784
961.30 0.07781
961.40 0.07778
961.50 0.07775
961.60 0.07772
961.70 0.07768
961.80 0.07765
961.90 0.07762
962.00 0.07759
962.10 0.07756
962.20 0.07753
962.30 0.07749
962.40 0.07746
962.50 0.07743
962.60 0.0774
962.70 0.07737
962.80 0.07734
962.90 0.0773
963.00 0.07727
963.10 0.07724
963.20 0.07721
963.30 0.07718
963.40 0.07715
963.50 0.07711
963.60 0.07708
963.70 0.07705
963.80 0.07702
963.90 0.07699
964.00 0.07696
964.10 0.07693
964.20 0.07689
964.30 0.07686
964.40 0.07683
964.50 0.0768
964.60 0.07677
964.70 0.07674
964.80 0.07671
964.90 0.07668
965.00 0.07664
965.10 0.07661
965.20 0.07658
965.30 0.07655
965.40 0.07652
965.50 0.07649
965.60 0.07646
965.70 0.07643
965.80 0.0764
965.90 0.07636
966.00 0.07633
966.10 0.0763
966.20 0.07627
966.30 0.07624
966.40 0.07621
966.50 0.07618
966.60 0.07615
966.70 0.07612
966.80 0.07609
966.90 0.07605
967.00 0.07602
967.10 0.07599
967.20 0.07596
967.30 0.07593
967.40 0.0759
967.50 0.07587
967.60 0.07584
967.70 0.07581
967.80 0.07578
967.90 0.07575
968.00 0.07572
968.10 0.07568
968.20 0.07565
968.30 0.07562
968.40 0.07559
968.50 0.07556
968.60 0.07553
968.70 0.0755
968.80 0.07547
968.90 0.07544
969.00 0.07541
969.10 0.07538
969.20 0.07535
969.30 0.07532
969.40 0.07529
969.50 0.07526
969.60 0.07523
969.70 0.0752
969.80 0.07516
969.90 0.07513
970.00 0.0751
970.10 0.07507
970.20 0.07504
970.30 0.07501
970.40 0.07498
970.50 0.07495
970.60 0.07492
970.70 0.07489
970.80 0.07486
970.90 0.07483
971.00 0.0748
971.10 0.07477
971.20 0.07474
971.30 0.07471
971.40 0.07468
971.50 0.07465
971.60 0.07462
971.70 0.07459
971.80 0.07456
971.90 0.07453
972.00 0.0745
972.10 0.07447
972.20 0.07444
972.30 0.07441
972.40 0.07438
972.50 0.07435
972.60 0.07432
972.70 0.07429
972.80 0.07426
972.90 0.07423
973.00 0.0742
973.10 0.07417
973.20 0.07414
973.30 0.07411
973.40 0.07408
973.50 0.07405
973.60 0.07402
973.70 0.07399
973.80 0.07396
973.90 0.07393
974.00 0.0739
974.10 0.07387
974.20 0.07384
974.30 0.07381
974.40 0.07378
974.50 0.07375
974.60 0.07372
974.70 0.07369
974.80 0.07366
974.90 0.07363
975.00 0.0736
975.10 0.07357
975.20 0.07354
975.30 0.07351
975.40 0.07348
975.50 0.07345
975.60 0.07342
975.70 0.07339
975.80 0.07336
975.90 0.07334
976.00 0.07331
976.10 0.07328
976.20 0.07325
976.30 0.07322
976.40 0.07319
976.50 0.07316
976.60 0.07313
976.70 0.0731
976.80 0.07307
976.90 0.07304
977.00 0.07301
977.10 0.07298
977.20 0.07295
977.30 0.07292
977.40 0.07289
977.50 0.07286
977.60 0.07283
977.70 0.07281
977.80 0.07278
977.90 0.07275
978.00 0.07272
978.10 0.07269
978.20 0.07266
978.30 0.07263
978.40 0.0726
978.50 0.07257
978.60 0.07254
978.70 0.07251
978.80 0.07249
978.90 0.07246
979.00 0.07243
979.10 0.0724
979.20 0.07237
979.30 0.07234
979.40 0.07231
979.50 0.07228
979.60 0.07225
979.70 0.07222
979.80 0.07219
979.90 0.07217
980.00 0.07214
980.10 0.07211
980.20 0.07208
980.30 0.07205
980.40 0.07202
980.50 0.07199
980.60 0.07196
980.70 0.07193
980.80 0.07191
980.90 0.07188
981.00 0.07185
981.10 0.07182
981.20 0.07179
981.30 0.07176
981.40 0.07173
981.50 0.0717
981.60 0.07167
981.70 0.07165
981.80 0.07162
981.90 0.07159
982.00 0.07156
982.10 0.07153
982.20 0.0715
982.30 0.07147
982.40 0.07144
982.50 0.07142
982.60 0.07139
982.70 0.07136
982.80 0.07133
982.90 0.0713
983.00 0.07127
983.10 0.07125
983.20 0.07122
983.30 0.07119
983.40 0.07116
983.50 0.07113
983.60 0.0711
983.70 0.07107
983.80 0.07105
983.90 0.07102
984.00 0.07099
984.10 0.07096
984.20 0.07093
984.30 0.0709
984.40 0.07088
984.50 0.07085
984.60 0.07082
984.70 0.07079
984.80 0.07076
984.90 0.07073
985.00 0.07071
985.10 0.07068
985.20 0.07065
985.30 0.07062
985.40 0.07059
985.50 0.07056
985.60 0.07054
985.70 0.07051
985.80 0.07048
985.90 0.07045
986.00 0.07042
986.10 0.0704
986.20 0.07037
986.30 0.07034
986.40 0.07031
986.50 0.07028
986.60 0.07026
986.70 0.07023
986.80 0.0702
986.90 0.07017
987.00 0.07014
987.10 0.07012
987.20 0.07009
987.30 0.07006
987.40 0.07003
987.50 0.07
987.60 0.06998
987.70 0.06995
987.80 0.06992
987.90 0.06989
988.00 0.06986
988.10 0.06984
988.20 0.06981
988.30 0.06978
988.40 0.06975
988.50 0.06973
988.60 0.0697
988.70 0.06967
988.80 0.06964
988.90 0.06961
989.00 0.06959
989.10 0.06956
989.20 0.06953
989.30 0.0695
989.40 0.06948
989.50 0.06945
989.60 0.06942
989.70 0.06939
989.80 0.06937
989.90 0.06934
990.00 0.06931
990.10 0.06928
990.20 0.06926
990.30 0.06923
990.40 0.0692
990.50 0.06917
990.60 0.06915
990.70 0.06912
990.80 0.06909
990.90 0.06906
991.00 0.06904
991.10 0.06901
991.20 0.06898
991.30 0.06895
991.40 0.06893
991.50 0.0689
991.60 0.06887
991.70 0.06884
991.80 0.06882
991.90 0.06879
992.00 0.06876
992.10 0.06874
992.20 0.06871
992.30 0.06868
992.40 0.06865
992.50 0.06863
992.60 0.0686
992.70 0.06857
992.80 0.06855
992.90 0.06852
993.00 0.06849
993.10 0.06846
993.20 0.06844
993.30 0.06841
993.40 0.06838
993.50 0.06836
993.60 0.06833
993.70 0.0683
993.80 0.06827
993.90 0.06825
994.00 0.06822
994.10 0.06819
994.20 0.06817
994.30 0.06814
994.40 0.06811
994.50 0.06809
994.60 0.06806
994.70 0.06803
994.80 0.068
994.90 0.06798
995.00 0.06795
995.10 0.06792
995.20 0.0679
995.30 0.06787
995.40 0.06784
995.50 0.06782
995.60 0.06779
995.70 0.06776
995.80 0.06774
995.90 0.06771
996.00 0.06768
996.10 0.06766
996.20 0.06763
996.30 0.0676
996.40 0.06758
996.50 0.06755
996.60 0.06752
996.70 0.0675
996.80 0.06747
996.90 0.06744
997.00 0.06742
997.10 0.06739
997.20 0.06736
997.30 0.06734
997.40 0.06731
997.50 0.06729
997.60 0.06726
997.70 0.06723
997.80 0.06721
997.90 0.06718
998.00 0.06715
998.10 0.06713
998.20 0.0671
998.30 0.06708
998.40 0.06705
998.50 0.06702
998.60 0.067
998.70 0.06697
998.80 0.06694
998.90 0.06692
999.00 0.06689
999.10 0.06687
999.20 0.06684
999.30 0.06681
999.40 0.06679
999.50 0.06676
999.60 0.06673
999.70 0.06671
999.80 0.06668
999.90 0.06665
1000.00 0.06662
1000.10 0.06659
1000.20 0.06656
1000.30 0.06653
1000.40 0.0665
1000.50 0.06648
1000.60 0.06645
1000.70 0.06642
1000.80 0.06639
1000.90 0.06636
1001.00 0.06633
1001.10 0.0663
1001.20 0.06627
1001.30 0.06624
1001.40 0.06622
1001.50 0.06619
1001.60 0.06616
1001.70 0.06613
1001.80 0.06611
1001.90 0.06608
1002.00 0.06606
1002.10 0.06603
1002.20 0.066
1002.30 0.06598
1002.40 0.06595
1002.50 0.06593
1002.60 0.0659
1002.70 0.06588
1002.80 0.06585
1002.90 0.06583
1003.00 0.0658
1003.10 0.06578
1003.20 0.06575
1003.30 0.06572
1003.40 0.0657
1003.50 0.06567
1003.60 0.06565
1003.70 0.06562
1003.80 0.0656
1003.90 0.06557
1004.00 0.06555
1004.10 0.06552
1004.20 0.0655
1004.30 0.06547
1004.40 0.06545
1004.50 0.06542
1004.60 0.06539
1004.70 0.06537
1004.80 0.06534
1004.90 0.06532
1005.00 0.06529
1005.10 0.06527
1005.20 0.06524
1005.30 0.06522
1005.40 0.06519
1005.50 0.06517
1005.60 0.06514
1005.70 0.06511
1005.80 0.06509
1005.90 0.06506
1006.00 0.06504
1006.10 0.06501
1006.20 0.06499
1006.30 0.06496
1006.40 0.06494
1006.50 0.06491
1006.60 0.06488
1006.70 0.06486
1006.80 0.06483
1006.90 0.06481
1007.00 0.06478
1007.10 0.06476
1007.20 0.06473
1007.30 0.06471
1007.40 0.06468
1007.50 0.06465
1007.60 0.06463
1007.70 0.0646
1007.80 0.06458
1007.90 0.06455
1008.00 0.06453
1008.10 0.0645
1008.20 0.06448
1008.30 0.06445
1008.40 0.06443
1008.50 0.0644
1008.60 0.06438
1008.70 0.06435
1008.80 0.06433
1008.90 0.0643
1009.00 0.06428
1009.10 0.06425
1009.20 0.06423
1009.30 0.0642
1009.40 0.06417
1009.50 0.06415
1009.60 0.06412
1009.70 0.0641
1009.80 0.06407
1009.90 0.06405
1010.00 0.06402
1010.10 0.064
1010.20 0.06397
1010.30 0.06395
1010.40 0.06392
1010.50 0.0639
1010.60 0.06387
1010.70 0.06385
1010.80 0.06383
1010.90 0.0638
1011.00 0.06378
1011.10 0.06375
1011.20 0.06373
1011.30 0.0637
1011.40 0.06368
1011.50 0.06365
1011.60 0.06363
1011.70 0.0636
1011.80 0.06358
1011.90 0.06355
1012.00 0.06353
1012.10 0.0635
1012.20 0.06348
1012.30 0.06345
1012.40 0.06343
1012.50 0.0634
1012.60 0.06338
1012.70 0.06336
1012.80 0.06333
1012.90 0.06331
1013.00 0.06328
1013.10 0.06326
1013.20 0.06323
1013.30 0.06321
1013.40 0.06318
1013.50 0.06316
1013.60 0.06314
1013.70 0.06311
1013.80 0.06309
1013.90 0.06306
1014.00 0.06304
1014.10 0.06301
1014.20 0.06299
1014.30 0.06296
1014.40 0.06294
1014.50 0.06292
1014.60 0.06289
1014.70 0.06287
1014.80 0.06284
1014.90 0.06282
1015.00 0.06279
1015.10 0.06277
1015.20 0.06275
1015.30 0.06272
1015.40 0.0627
1015.50 0.06267
1015.60 0.06265
1015.70 0.06263
1015.80 0.0626
1015.90 0.06258
1016.00 0.06255
1016.10 0.06253
1016.20 0.0625
1016.30 0.06248
1016.40 0.06246
1016.50 0.06243
1016.60 0.06241
1016.70 0.06238
1016.80 0.06236
1016.90 0.06234
1017.00 0.06231
1017.10 0.06229
1017.20 0.06226
1017.30 0.06224
1017.40 0.06222
1017.50 0.06219
1017.60 0.06217
1017.70 0.06215
1017.80 0.06212
1017.90 0.0621
1018.00 0.06207
1018.10 0.06205
1018.20 0.06203
1018.30 0.062
1018.40 0.06198
1018.50 0.06195
1018.60 0.06193
1018.70 0.06191
1018.80 0.06188
1018.90 0.06186
1019.00 0.06184
1019.10 0.06181
1019.20 0.06179
1019.30 0.06176
1019.40 0.06174
1019.50 0.06172
1019.60 0.06169
1019.70 0.06167
1019.80 0.06165
1019.90 0.06162
1020.00 0.0616
1020.10 0.06158
1020.20 0.06155
1020.30 0.06153
1020.40 0.0615
1020.50 0.06148
1020.60 0.06146
1020.70 0.06143
1020.80 0.06141
1020.90 0.06139
1021.00 0.06136
1021.10 0.06134
1021.20 0.06132
1021.30 0.06129
1021.40 0.06127
1021.50 0.06125
1021.60 0.06122
1021.70 0.0612
1021.80 0.06118
1021.90 0.06115
1022.00 0.06113
1022.10 0.06111
1022.20 0.06108
1022.30 0.06106
1022.40 0.06104
1022.50 0.06101
1022.60 0.06099
1022.70 0.06097
1022.80 0.06094
1022.90 0.06092
1023.00 0.0609
1023.10 0.06087
1023.20 0.06085
1023.30 0.06083
1023.40 0.0608
1023.50 0.06078
1023.60 0.06076
1023.70 0.06073
1023.80 0.06071
1023.90 0.06069
1024.00 0.06066
1024.10 0.06064
1024.20 0.06062
1024.30 0.06059
1024.40 0.06057
1024.50 0.06055
1024.60 0.06052
1024.70 0.0605
1024.80 0.06048
1024.90 0.06045
1025.00 0.06043
1025.10 0.06041
1025.20 0.06039
1025.30 0.06036
1025.40 0.06034
1025.50 0.06032
1025.60 0.06029
1025.70 0.06027
1025.80 0.06025
1025.90 0.06022
1026.00 0.0602
1026.10 0.06018
1026.20 0.06016
1026.30 0.06013
1026.40 0.06011
1026.50 0.06009
1026.60 0.06006
1026.70 0.06004
1026.80 0.06002
1026.90 0.06
1027.00 0.05997
1027.10 0.05995
1027.20 0.05993
1027.30 0.0599
1027.40 0.05988
1027.50 0.05986
1027.60 0.05984
1027.70 0.05981
1027.80 0.05979
1027.90 0.05977
1028.00 0.05974
1028.10 0.05972
1028.20 0.0597
1028.30 0.05968
1028.40 0.05965
1028.50 0.05963
1028.60 0.05961
1028.70 0.05959
1028.80 0.05956
1028.90 0.05954
1029.00 0.05952
1029.10 0.0595
1029.20 0.05947
1029.30 0.05945
1029.40 0.05943
1029.50 0.05941
1029.60 0.05938
1029.70 0.05936
1029.80 0.05934
1029.90 0.05931
1030.00 0.05929
1030.10 0.05927
1030.20 0.05925
1030.30 0.05922
1030.40 0.0592
1030.50 0.05918
1030.60 0.05916
1030.70 0.05913
1030.80 0.05911
1030.90 0.05909
1031.00 0.05907
1031.10 0.05904
1031.20 0.05902
1031.30 0.059
1031.40 0.05898
1031.50 0.05895
1031.60 0.05893
1031.70 0.05891
1031.80 0.05889
1031.90 0.05886
1032.00 0.05884
1032.10 0.05882
1032.20 0.0588
1032.30 0.05878
1032.40 0.05875
1032.50 0.05873
1032.60 0.05871
1032.70 0.05869
1032.80 0.05866
1032.90 0.05864
1033.00 0.05862
1033.10 0.0586
1033.20 0.05858
1033.30 0.05855
1033.40 0.05853
1033.50 0.05851
1033.60 0.05849
1033.70 0.05846
1033.80 0.05844
1033.90 0.05842
1034.00 0.0584
1034.10 0.05838
1034.20 0.05835
1034.30 0.05833
1034.40 0.05831
1034.50 0.05829
1034.60 0.05827
1034.70 0.05824
1034.80 0.05822
1034.90 0.0582
1035.00 0.05818
1035.10 0.05816
1035.20 0.05813
1035.30 0.05811
1035.40 0.05809
1035.50 0.05807
1035.60 0.05805
1035.70 0.05802
1035.80 0.058
1035.90 0.05798
1036.00 0.05796
1036.10 0.05794
1036.20 0.05791
1036.30 0.05789
1036.40 0.05787
1036.50 0.05785
1036.60 0.05783
1036.70 0.0578
1036.80 0.05778
1036.90 0.05776
1037.00 0.05774
1037.10 0.05772
1037.20 0.05769
1037.30 0.05767
1037.40 0.05765
1037.50 0.05763
1037.60 0.05761
1037.70 0.05759
1037.80 0.05756
1037.90 0.05754
1038.00 0.05752
1038.10 0.0575
1038.20 0.05748
1038.30 0.05745
1038.40 0.05743
1038.50 0.05741
1038.60 0.05739
1038.70 0.05737
1038.80 0.05735
1038.90 0.05732
1039.00 0.0573
1039.10 0.05728
1039.20 0.05726
1039.30 0.05724
1039.40 0.05722
1039.50 0.0572
1039.60 0.05717
1039.70 0.05715
1039.80 0.05713
1039.90 0.05711
1040.00 0.05709
1040.10 0.05707
1040.20 0.05704
1040.30 0.05702
1040.40 0.057
1040.50 0.05698
1040.60 0.05696
1040.70 0.05694
1040.80 0.05691
1040.90 0.05689
1041.00 0.05687
1041.10 0.05685
1041.20 0.05683
1041.30 0.05681
1041.40 0.05679
1041.50 0.05676
1041.60 0.05674
1041.70 0.05672
1041.80 0.0567
1041.90 0.05668
1042.00 0.05666
1042.10 0.05664
1042.20 0.05661
1042.30 0.05659
1042.40 0.05657
1042.50 0.05655
1042.60 0.05653
1042.70 0.05651
1042.80 0.05649
1042.90 0.05647
1043.00 0.05644
1043.10 0.05642
1043.20 0.0564
1043.30 0.05638
1043.40 0.05636
1043.50 0.05634
1043.60 0.05632
1043.70 0.0563
1043.80 0.05627
1043.90 0.05625
1044.00 0.05623
1044.10 0.05621
1044.20 0.05619
1044.30 0.05617
1044.40 0.05615
1044.50 0.05613
1044.60 0.05611
1044.70 0.05608
1044.80 0.05606
1044.90 0.05604
1045.00 0.05602
1045.10 0.056
1045.20 0.05598
1045.30 0.05596
1045.40 0.05594
1045.50 0.05592
1045.60 0.05589
1045.70 0.05587
1045.80 0.05585
1045.90 0.05583
1046.00 0.05581
1046.10 0.05579
1046.20 0.05577
1046.30 0.05575
1046.40 0.05573
1046.50 0.0557
1046.60 0.05568
1046.70 0.05566
1046.80 0.05564
1046.90 0.05562
1047.00 0.0556
1047.10 0.05558
1047.20 0.05556
1047.30 0.05554
1047.40 0.05552
1047.50 0.0555
1047.60 0.05547
1047.70 0.05545
1047.80 0.05543
1047.90 0.05541
1048.00 0.05539
1048.10 0.05537
1048.20 0.05535
1048.30 0.05533
1048.40 0.05531
1048.50 0.05529
1048.60 0.05527
1048.70 0.05525
1048.80 0.05523
1048.90 0.0552
1049.00 0.05518
1049.10 0.05516
1049.20 0.05514
1049.30 0.05512
1049.40 0.0551
1049.50 0.05508
1049.60 0.05506
1049.70 0.05504
1049.80 0.05502
1049.90 0.055
1050.00 0.05498
1050.10 0.05496
1050.20 0.05494
1050.30 0.05492
1050.40 0.05489
1050.50 0.05487
1050.60 0.05485
1050.70 0.05483
1050.80 0.05481
1050.90 0.05479
1051.00 0.05477
1051.10 0.05475
1051.20 0.05473
1051.30 0.05471
1051.40 0.05469
1051.50 0.05467
1051.60 0.05465
1051.70 0.05463
1051.80 0.05461
1051.90 0.05459
1052.00 0.05457
1052.10 0.05454
1052.20 0.05452
1052.30 0.0545
1052.40 0.05448
1052.50 0.05446
1052.60 0.05444
1052.70 0.05442
1052.80 0.0544
1052.90 0.05438
1053.00 0.05436
1053.10 0.05434
1053.20 0.05432
1053.30 0.0543
1053.40 0.05428
1053.50 0.05426
1053.60 0.05424
1053.70 0.05422
1053.80 0.0542
1053.90 0.05418
1054.00 0.05416
1054.10 0.05414
1054.20 0.05412
1054.30 0.0541
1054.40 0.05408
1054.50 0.05406
1054.60 0.05404
1054.70 0.05402
1054.80 0.054
1054.90 0.05398
1055.00 0.05396
1055.10 0.05394
1055.20 0.05392
1055.30 0.05389
1055.40 0.05387
1055.50 0.05385
1055.60 0.05383
1055.70 0.05381
1055.80 0.05379
1055.90 0.05377
1056.00 0.05375
1056.10 0.05373
1056.20 0.05371
1056.30 0.05369
1056.40 0.05367
1056.50 0.05365
1056.60 0.05363
1056.70 0.05361
1056.80 0.05359
1056.90 0.05357
1057.00 0.05355
1057.10 0.05353
1057.20 0.05351
1057.30 0.05349
1057.40 0.05347
1057.50 0.05345
1057.60 0.05343
1057.70 0.05341
1057.80 0.05339
1057.90 0.05337
1058.00 0.05335
1058.10 0.05333
1058.20 0.05331
1058.30 0.05329
1058.40 0.05327
1058.50 0.05325
1058.60 0.05323
1058.70 0.05321
1058.80 0.05319
1058.90 0.05317
1059.00 0.05315
1059.10 0.05313
1059.20 0.05311
1059.30 0.05309
1059.40 0.05307
1059.50 0.05305
1059.60 0.05304
1059.70 0.05302
1059.80 0.053
1059.90 0.05298
1060.00 0.05296
1060.10 0.05294
1060.20 0.05292
1060.30 0.0529
1060.40 0.05288
1060.50 0.05286
1060.60 0.05284
1060.70 0.05282
1060.80 0.0528
1060.90 0.05278
1061.00 0.05276
1061.10 0.05274
1061.20 0.05272
1061.30 0.0527
1061.40 0.05268
1061.50 0.05266
1061.60 0.05264
1061.70 0.05262
1061.80 0.0526
1061.90 0.05258
1062.00 0.05256
1062.10 0.05254
1062.20 0.05252
1062.30 0.0525
1062.40 0.05248
1062.50 0.05246
1062.60 0.05244
1062.70 0.05242
1062.80 0.0524
1062.90 0.05239
1063.00 0.05237
1063.10 0.05235
1063.20 0.05233
1063.30 0.05231
1063.40 0.05229
1063.50 0.05227
1063.60 0.05225
1063.70 0.05223
1063.80 0.05221
1063.90 0.05219
1064.00 0.05217
1064.10 0.05215
1064.20 0.05213
1064.30 0.05211
1064.40 0.05209
1064.50 0.05207
1064.60 0.05205
1064.70 0.05204
1064.80 0.05202
1064.90 0.052
1065.00 0.05198
1065.10 0.05196
1065.20 0.05194
1065.30 0.05192
1065.40 0.0519
1065.50 0.05188
1065.60 0.05186
1065.70 0.05184
1065.80 0.05182
1065.90 0.0518
1066.00 0.05178
1066.10 0.05176
1066.20 0.05174
1066.30 0.05173
1066.40 0.05171
1066.50 0.05169
1066.60 0.05167
1066.70 0.05165
1066.80 0.05163
1066.90 0.05161
1067.00 0.05159
1067.10 0.05157
1067.20 0.05155
1067.30 0.05153
1067.40 0.05151
1067.50 0.05149
1067.60 0.05148
1067.70 0.05146
1067.80 0.05144
1067.90 0.05142
1068.00 0.0514
1068.10 0.05138
1068.20 0.05136
1068.30 0.05134
1068.40 0.05132
1068.50 0.0513
1068.60 0.05128
1068.70 0.05127
1068.80 0.05125
1068.90 0.05123
1069.00 0.05121
1069.10 0.05119
1069.20 0.05117
1069.30 0.05115
1069.40 0.05113
1069.50 0.05111
1069.60 0.05109
1069.70 0.05108
1069.80 0.05106
1069.90 0.05104
1070.00 0.05102
1070.10 0.051
1070.20 0.05098
1070.30 0.05096
1070.40 0.05094
1070.50 0.05092
1070.60 0.0509
1070.70 0.05089
1070.80 0.05087
1070.90 0.05085
1071.00 0.05083
1071.10 0.05081
1071.20 0.05079
1071.30 0.05077
1071.40 0.05075
1071.50 0.05073
1071.60 0.05071
1071.70 0.0507
1071.80 0.05068
1071.90 0.05066
1072.00 0.05064
1072.10 0.05062
1072.20 0.0506
1072.30 0.05058
1072.40 0.05056
1072.50 0.05055
1072.60 0.05053
1072.70 0.05051
1072.80 0.05049
1072.90 0.05047
1073.00 0.05045
1073.10 0.05043
1073.20 0.05041
1073.30 0.0504
1073.40 0.05038
1073.50 0.05036
1073.60 0.05034
1073.70 0.05032
1073.80 0.0503
1073.90 0.05028
1074.00 0.05026
1074.10 0.05025
1074.20 0.05023
1074.30 0.05021
1074.40 0.05019
1074.50 0.05017
1074.60 0.05015
1074.70 0.05013
1074.80 0.05012
1074.90 0.0501
1075.00 0.05008
1075.10 0.05006
1075.20 0.05004
1075.30 0.05002
1075.40 0.05
1075.50 0.04999
1075.60 0.04997
1075.70 0.04995
1075.80 0.04993
1075.90 0.04991
1076.00 0.04989
1076.10 0.04987
1076.20 0.04986
1076.30 0.04984
1076.40 0.04982
1076.50 0.0498
1076.60 0.04978
1076.70 0.04976
1076.80 0.04975
1076.90 0.04973
1077.00 0.04971
1077.10 0.04969
1077.20 0.04967
1077.30 0.04965
1077.40 0.04963
1077.50 0.04962
1077.60 0.0496
1077.70 0.04958
1077.80 0.04956
1077.90 0.04954
1078.00 0.04952
1078.10 0.04951
1078.20 0.04949
1078.30 0.04947
1078.40 0.04945
1078.50 0.04943
1078.60 0.04941
1078.70 0.0494
1078.80 0.04938
1078.90 0.04936
1079.00 0.04934
1079.10 0.04932
1079.20 0.04931
1079.30 0.04929
1079.40 0.04927
1079.50 0.04925
1079.60 0.04923
1079.70 0.04921
1079.80 0.0492
1079.90 0.04918
1080.00 0.04916
1080.10 0.04914
1080.20 0.04912
1080.30 0.04911
1080.40 0.04909
1080.50 0.04907
1080.60 0.04905
1080.70 0.04903
1080.80 0.04901
1080.90 0.049
1081.00 0.04898
1081.10 0.04896
1081.20 0.04894
1081.30 0.04892
1081.40 0.04891
1081.50 0.04889
1081.60 0.04887
1081.70 0.04885
1081.80 0.04883
1081.90 0.04882
1082.00 0.0488
1082.10 0.04878
1082.20 0.04876
1082.30 0.04874
1082.40 0.04873
1082.50 0.04871
1082.60 0.04869
1082.70 0.04867
1082.80 0.04865
1082.90 0.04864
1083.00 0.04862
1083.10 0.0486
1083.20 0.04858
1083.30 0.04857
1083.40 0.04855
1083.50 0.04853
1083.60 0.04851
1083.70 0.04849
1083.80 0.04848
1083.90 0.04846
1084.00 0.04844
1084.10 0.04842
1084.20 0.04841
1084.30 0.04839
1084.40 0.04837
1084.50 0.04835
1084.60 0.04833
1084.70 0.04832
1084.80 0.0483
1084.90 0.04828
1085.00 0.04826
1085.10 0.04825
1085.20 0.04823
1085.30 0.04821
1085.40 0.04819
1085.50 0.04818
1085.60 0.04816
1085.70 0.04814
1085.80 0.04812
1085.90 0.04811
1086.00 0.04809
1086.10 0.04807
1086.20 0.04805
1086.30 0.04803
1086.40 0.04802
1086.50 0.048
1086.60 0.04798
1086.70 0.04796
1086.80 0.04795
1086.90 0.04793
1087.00 0.04791
1087.10 0.04789
1087.20 0.04788
1087.30 0.04786
1087.40 0.04784
1087.50 0.04783
1087.60 0.04781
1087.70 0.04779
1087.80 0.04777
1087.90 0.04776
1088.00 0.04774
1088.10 0.04772
1088.20 0.0477
1088.30 0.04769
1088.40 0.04767
1088.50 0.04765
1088.60 0.04763
1088.70 0.04762
1088.80 0.0476
1088.90 0.04758
1089.00 0.04757
1089.10 0.04755
1089.20 0.04753
1089.30 0.04751
1089.40 0.0475
1089.50 0.04748
1089.60 0.04746
1089.70 0.04745
1089.80 0.04743
1089.90 0.04741
1090.00 0.04739
1090.10 0.04738
1090.20 0.04736
1090.30 0.04734
1090.40 0.04733
1090.50 0.04731
1090.60 0.04729
1090.70 0.04728
1090.80 0.04726
1090.90 0.04724
1091.00 0.04722
1091.10 0.04721
1091.20 0.04719
1091.30 0.04717
1091.40 0.04716
1091.50 0.04714
1091.60 0.04712
1091.70 0.04711
1091.80 0.04709
1091.90 0.04707
1092.00 0.04706
1092.10 0.04704
1092.20 0.04702
1092.30 0.04701
1092.40 0.04699
1092.50 0.04697
1092.60 0.04696
1092.70 0.04694
1092.80 0.04693
1092.90 0.04691
1093.00 0.04689
1093.10 0.04688
1093.20 0.04686
1093.30 0.04685
1093.40 0.04683
1093.50 0.04682
1093.60 0.0468
1093.70 0.04679
1093.80 0.04677
1093.90 0.04676
1094.00 0.04674
1094.10 0.04672
1094.20 0.04671
1094.30 0.04669
1094.40 0.04667
1094.50 0.04665
1094.60 0.04664
1094.70 0.04662
1094.80 0.0466
1094.90 0.04658
1095.00 0.04657
1095.10 0.04655
1095.20 0.04653
1095.30 0.04651
1095.40 0.0465
1095.50 0.04648
1095.60 0.04646
1095.70 0.04645
1095.80 0.04643
1095.90 0.04641
1096.00 0.0464
1096.10 0.04638
1096.20 0.04636
1096.30 0.04635
1096.40 0.04633
1096.50 0.04631
1096.60 0.0463
1096.70 0.04628
1096.80 0.04626
1096.90 0.04625
1097.00 0.04623
1097.10 0.04621
1097.20 0.0462
1097.30 0.04618
1097.40 0.04616
1097.50 0.04615
1097.60 0.04613
1097.70 0.04611
1097.80 0.0461
1097.90 0.04608
1098.00 0.04606
1098.10 0.04605
1098.20 0.04603
1098.30 0.04602
1098.40 0.046
1098.50 0.04598
1098.60 0.04597
1098.70 0.04595
1098.80 0.04593
1098.90 0.04592
1099.00 0.0459
1099.10 0.04588
1099.20 0.04587
1099.30 0.04585
1099.40 0.04584
1099.50 0.04582
1099.60 0.0458
1099.70 0.04579
1099.80 0.04577
1099.90 0.04575
1100.00 0.04574
1100.10 0.04572
1100.20 0.04571
1100.30 0.04569
1100.40 0.04567
1100.50 0.04566
1100.60 0.04564
1100.70 0.04563
1100.80 0.04561
1100.90 0.04559
1101.00 0.04558
1101.10 0.04556
1101.20 0.04555
1101.30 0.04553
1101.40 0.04551
1101.50 0.0455
1101.60 0.04548
1101.70 0.04546
1101.80 0.04545
1101.90 0.04543
1102.00 0.04542
1102.10 0.0454
1102.20 0.04538
1102.30 0.04537
1102.40 0.04535
1102.50 0.04534
1102.60 0.04532
1102.70 0.04531
1102.80 0.04529
1102.90 0.04527
1103.00 0.04526
1103.10 0.04524
1103.20 0.04523
1103.30 0.04521
1103.40 0.04519
1103.50 0.04518
1103.60 0.04516
1103.70 0.04515
1103.80 0.04513
1103.90 0.04511
1104.00 0.0451
1104.10 0.04508
1104.20 0.04507
1104.30 0.04505
1104.40 0.04504
1104.50 0.04502
1104.60 0.045
1104.70 0.04499
1104.80 0.04497
1104.90 0.04496
1105.00 0.04494
1105.10 0.04493
1105.20 0.04491
1105.30 0.04489
1105.40 0.04488
1105.50 0.04486
1105.60 0.04485
1105.70 0.04483
1105.80 0.04482
1105.90 0.0448
1106.00 0.04478
1106.10 0.04477
1106.20 0.04475
1106.30 0.04474
1106.40 0.04472
1106.50 0.04471
1106.60 0.04469
1106.70 0.04468
1106.80 0.04466
1106.90 0.04464
1107.00 0.04463
1107.10 0.04461
1107.20 0.0446
1107.30 0.04458
1107.40 0.04457
1107.50 0.04455
1107.60 0.04454
1107.70 0.04452
1107.80 0.0445
1107.90 0.04449
1108.00 0.04447
1108.10 0.04446
1108.20 0.04444
1108.30 0.04443
1108.40 0.04441
1108.50 0.0444
1108.60 0.04438
1108.70 0.04436
1108.80 0.04435
1108.90 0.04433
1109.00 0.04432
1109.10 0.0443
1109.20 0.04429
1109.30 0.04427
1109.40 0.04426
1109.50 0.04424
1109.60 0.04423
1109.70 0.04421
1109.80 0.0442
1109.90 0.04418
1110.00 0.04416
1110.10 0.04415
1110.20 0.04413
1110.30 0.04412
1110.40 0.0441
1110.50 0.04409
1110.60 0.04407
1110.70 0.04406
1110.80 0.04404
1110.90 0.04403
1111.00 0.04401
1111.10 0.044
1111.20 0.04398
1111.30 0.04397
1111.40 0.04395
1111.50 0.04393
1111.60 0.04392
1111.70 0.0439
1111.80 0.04389
1111.90 0.04387
1112.00 0.04386
1112.10 0.04384
1112.20 0.04383
1112.30 0.04381
1112.40 0.0438
1112.50 0.04378
1112.60 0.04377
1112.70 0.04375
1112.80 0.04374
1112.90 0.04372
1113.00 0.04371
1113.10 0.04369
1113.20 0.04368
1113.30 0.04366
1113.40 0.04365
1113.50 0.04363
1113.60 0.04362
1113.70 0.0436
1113.80 0.04358
1113.90 0.04357
1114.00 0.04355
1114.10 0.04354
1114.20 0.04352
1114.30 0.04351
1114.40 0.04349
1114.50 0.04348
1114.60 0.04346
1114.70 0.04345
1114.80 0.04343
1114.90 0.04342
1115.00 0.0434
1115.10 0.04339
1115.20 0.04337
1115.30 0.04336
1115.40 0.04334
1115.50 0.04333
1115.60 0.04331
1115.70 0.0433
1115.80 0.04328
1115.90 0.04327
1116.00 0.04325
1116.10 0.04324
1116.20 0.04322
1116.30 0.04321
1116.40 0.04319
1116.50 0.04318
1116.60 0.04316
1116.70 0.04315
1116.80 0.04313
1116.90 0.04312
1117.00 0.0431
1117.10 0.04309
1117.20 0.04307
1117.30 0.04306
1117.40 0.04304
1117.50 0.04303
1117.60 0.04301
1117.70 0.043
1117.80 0.04298
1117.90 0.04297
1118.00 0.04295
1118.10 0.04294
1118.20 0.04292
1118.30 0.04291
1118.40 0.0429
1118.50 0.04288
1118.60 0.04287
1118.70 0.04285
1118.80 0.04284
1118.90 0.04282
1119.00 0.04281
1119.10 0.04279
1119.20 0.04278
1119.30 0.04276
1119.40 0.04275
1119.50 0.04273
1119.60 0.04272
1119.70 0.0427
1119.80 0.04269
1119.90 0.04267
1120.00 0.04266
1120.10 0.04264
1120.20 0.04263
1120.30 0.04261
1120.40 0.0426
1120.50 0.04258
1120.60 0.04257
1120.70 0.04255
1120.80 0.04254
1120.90 0.04252
1121.00 0.04251
1121.10 0.0425
1121.20 0.04248
1121.30 0.04247
1121.40 0.04245
1121.50 0.04244
1121.60 0.04242
1121.70 0.04241
1121.80 0.04239
1121.90 0.04238
1122.00 0.04236
1122.10 0.04235
1122.20 0.04233
1122.30 0.04232
1122.40 0.0423
1122.50 0.04229
1122.60 0.04228
1122.70 0.04226
1122.80 0.04225
1122.90 0.04223
1123.00 0.04222
1123.10 0.0422
1123.20 0.04219
1123.30 0.04217
1123.40 0.04216
1123.50 0.04214
1123.60 0.04213
1123.70 0.04211
1123.80 0.0421
1123.90 0.04209
1124.00 0.04207
1124.10 0.04206
1124.20 0.04204
1124.30 0.04203
1124.40 0.04201
1124.50 0.042
1124.60 0.04198
1124.70 0.04197
1124.80 0.04195
1124.90 0.04194
1125.00 0.04193
1125.10 0.04191
1125.20 0.0419
1125.30 0.04188
1125.40 0.04187
1125.50 0.04185
1125.60 0.04184
1125.70 0.04182
1125.80 0.04181
1125.90 0.0418
1126.00 0.04178
1126.10 0.04177
1126.20 0.04175
1126.30 0.04174
1126.40 0.04172
1126.50 0.04171
1126.60 0.04169
1126.70 0.04168
1126.80 0.04167
1126.90 0.04165
1127.00 0.04164
1127.10 0.04162
1127.20 0.04161
1127.30 0.04159
1127.40 0.04158
1127.50 0.04156
1127.60 0.04155
1127.70 0.04154
1127.80 0.04152
1127.90 0.04151
1128.00 0.04149
1128.10 0.04148
1128.20 0.04146
1128.30 0.04145
1128.40 0.04144
1128.50 0.04142
1128.60 0.04141
1128.70 0.04139
1128.80 0.04138
1128.90 0.04136
1129.00 0.04135
1129.10 0.04134
1129.20 0.04132
1129.30 0.04131
1129.40 0.04129
1129.50 0.04128
1129.60 0.04126
1129.70 0.04125
1129.80 0.04124
1129.90 0.04122
1130.00 0.04121
1130.10 0.04119
1130.20 0.04118
1130.30 0.04116
1130.40 0.04115
1130.50 0.04114
1130.60 0.04112
1130.70 0.04111
1130.80 0.04109
1130.90 0.04108
1131.00 0.04107
1131.10 0.04105
1131.20 0.04104
1131.30 0.04102
1131.40 0.04101
1131.50 0.04099
1131.60 0.04098
1131.70 0.04097
1131.80 0.04095
1131.90 0.04094
1132.00 0.04092
1132.10 0.04091
1132.20 0.0409
1132.30 0.04088
1132.40 0.04087
1132.50 0.04085
1132.60 0.04084
1132.70 0.04083
1132.80 0.04081
1132.90 0.0408
1133.00 0.04078
1133.10 0.04077
1133.20 0.04075
1133.30 0.04074
1133.40 0.04073
1133.50 0.04071
1133.60 0.0407
1133.70 0.04068
1133.80 0.04067
1133.90 0.04066
1134.00 0.04064
1134.10 0.04063
1134.20 0.04061
1134.30 0.0406
1134.40 0.04059
1134.50 0.04057
1134.60 0.04056
1134.70 0.04054
1134.80 0.04053
1134.90 0.04052
1135.00 0.0405
1135.10 0.04049
1135.20 0.04047
1135.30 0.04046
1135.40 0.04045
1135.50 0.04043
1135.60 0.04042
1135.70 0.04041
1135.80 0.04039
1135.90 0.04038
1136.00 0.04036
1136.10 0.04035
1136.20 0.04034
1136.30 0.04032
1136.40 0.04031
1136.50 0.04029
1136.60 0.04028
1136.70 0.04027
1136.80 0.04025
1136.90 0.04024
1137.00 0.04022
1137.10 0.04021
1137.20 0.0402
1137.30 0.04018
1137.40 0.04017
1137.50 0.04016
1137.60 0.04014
1137.70 0.04013
1137.80 0.04011
1137.90 0.0401
1138.00 0.04009
1138.10 0.04007
1138.20 0.04006
1138.30 0.04005
1138.40 0.04003
1138.50 0.04002
1138.60 0.04
1138.70 0.03999
1138.80 0.03998
1138.90 0.03996
1139.00 0.03995
1139.10 0.03994
1139.20 0.03992
1139.30 0.03991
1139.40 0.03989
1139.50 0.03988
1139.60 0.03987
1139.70 0.03985
1139.80 0.03984
1139.90 0.03983
1140.00 0.03981
1140.10 0.0398
1140.20 0.03978
1140.30 0.03977
1140.40 0.03976
1140.50 0.03974
1140.60 0.03973
1140.70 0.03972
1140.80 0.0397
1140.90 0.03969
1141.00 0.03968
1141.10 0.03966
1141.20 0.03965
1141.30 0.03963
1141.40 0.03962
1141.50 0.03961
1141.60 0.03959
1141.70 0.03958
1141.80 0.03957
1141.90 0.03955
1142.00 0.03954
1142.10 0.03953
1142.20 0.03951
1142.30 0.0395
1142.40 0.03949
1142.50 0.03947
1142.60 0.03946
1142.70 0.03944
1142.80 0.03943
1142.90 0.03942
1143.00 0.0394
1143.10 0.03939
1143.20 0.03938
1143.30 0.03936
1143.40 0.03935
1143.50 0.03934
1143.60 0.03932
1143.70 0.03931
1143.80 0.0393
1143.90 0.03928
1144.00 0.03927
1144.10 0.03926
1144.20 0.03924
1144.30 0.03923
1144.40 0.03922
1144.50 0.0392
1144.60 0.03919
1144.70 0.03918
1144.80 0.03916
1144.90 0.03915
1145.00 0.03914
1145.10 0.03912
1145.20 0.03911
1145.30 0.0391
1145.40 0.03908
1145.50 0.03907
1145.60 0.03905
1145.70 0.03904
1145.80 0.03903
1145.90 0.03901
1146.00 0.039
1146.10 0.03899
1146.20 0.03897
1146.30 0.03896
1146.40 0.03895
1146.50 0.03893
1146.60 0.03892
1146.70 0.03891
1146.80 0.03889
1146.90 0.03888
1147.00 0.03887
1147.10 0.03885
1147.20 0.03884
1147.30 0.03883
1147.40 0.03882
1147.50 0.0388
1147.60 0.03879
1147.70 0.03878
1147.80 0.03876
1147.90 0.03875
1148.00 0.03874
1148.10 0.03872
1148.20 0.03871
1148.30 0.0387
1148.40 0.03868
1148.50 0.03867
1148.60 0.03866
1148.70 0.03864
1148.80 0.03863
1148.90 0.03862
1149.00 0.0386
1149.10 0.03859
1149.20 0.03858
1149.30 0.03856
1149.40 0.03855
1149.50 0.03854
1149.60 0.03852
1149.70 0.03851
1149.80 0.0385
1149.90 0.03849
1150.00 0.03847
1150.10 0.03846
1150.20 0.03845
1150.30 0.03843
1150.40 0.03842
1150.50 0.03841
1150.60 0.03839
1150.70 0.03838
1150.80 0.03837
1150.90 0.03835
1151.00 0.03834
1151.10 0.03833
1151.20 0.03831
1151.30 0.0383
1151.40 0.03829
1151.50 0.03828
1151.60 0.03826
1151.70 0.03825
1151.80 0.03824
1151.90 0.03822
1152.00 0.03821
1152.10 0.0382
1152.20 0.03818
1152.30 0.03817
1152.40 0.03816
1152.50 0.03815
1152.60 0.03813
1152.70 0.03812
1152.80 0.03811
1152.90 0.03809
1153.00 0.03808
1153.10 0.03807
1153.20 0.03805
1153.30 0.03804
1153.40 0.03803
1153.50 0.03802
1153.60 0.038
1153.70 0.03799
1153.80 0.03798
1153.90 0.03796
1154.00 0.03795
1154.10 0.03794
1154.20 0.03793
1154.30 0.03791
1154.40 0.0379
1154.50 0.03789
1154.60 0.03787
1154.70 0.03786
1154.80 0.03785
1154.90 0.03784
1155.00 0.03782
1155.10 0.03781
1155.20 0.0378
1155.30 0.03778
1155.40 0.03777
1155.50 0.03776
1155.60 0.03774
1155.70 0.03773
1155.80 0.03772
1155.90 0.03771
1156.00 0.03769
1156.10 0.03768
1156.20 0.03767
1156.30 0.03766
1156.40 0.03764
1156.50 0.03763
1156.60 0.03762
1156.70 0.0376
1156.80 0.03759
1156.90 0.03758
1157.00 0.03757
1157.10 0.03755
1157.20 0.03754
1157.30 0.03753
1157.40 0.03751
1157.50 0.0375
1157.60 0.03749
1157.70 0.03748
1157.80 0.03746
1157.90 0.03745
1158.00 0.03744
1158.10 0.03743
1158.20 0.03741
1158.30 0.0374
1158.40 0.03739
1158.50 0.03738
1158.60 0.03736
1158.70 0.03735
1158.80 0.03734
1158.90 0.03732
1159.00 0.03731
1159.10 0.0373
1159.20 0.03729
1159.30 0.03727
1159.40 0.03726
1159.50 0.03725
1159.60 0.03724
1159.70 0.03722
1159.80 0.03721
1159.90 0.0372
1160.00 0.03719
1160.10 0.03717
1160.20 0.03716
1160.30 0.03715
1160.40 0.03714
1160.50 0.03712
1160.60 0.03711
1160.70 0.0371
1160.80 0.03708
1160.90 0.03707
1161.00 0.03706
1161.10 0.03705
1161.20 0.03703
1161.30 0.03702
1161.40 0.03701
1161.50 0.037
1161.60 0.03698
1161.70 0.03697
1161.80 0.03696
1161.90 0.03695
1162.00 0.03693
1162.10 0.03692
1162.20 0.03691
1162.30 0.0369
1162.40 0.03688
1162.50 0.03687
1162.60 0.03686
1162.70 0.03685
1162.80 0.03683
1162.90 0.03682
1163.00 0.03681
1163.10 0.0368
1163.20 0.03678
1163.30 0.03677
1163.40 0.03676
1163.50 0.03675
1163.60 0.03674
1163.70 0.03672
1163.80 0.03671
1163.90 0.0367
1164.00 0.03669
1164.10 0.03667
1164.20 0.03666
1164.30 0.03665
1164.40 0.03664
1164.50 0.03662
1164.60 0.03661
1164.70 0.0366
1164.80 0.03659
1164.90 0.03657
1165.00 0.03656
1165.10 0.03655
1165.20 0.03654
1165.30 0.03652
1165.40 0.03651
1165.50 0.0365
1165.60 0.03649
1165.70 0.03648
1165.80 0.03646
1165.90 0.03645
1166.00 0.03644
1166.10 0.03643
1166.20 0.03641
1166.30 0.0364
1166.40 0.03639
1166.50 0.03638
1166.60 0.03636
1166.70 0.03635
1166.80 0.03634
1166.90 0.03633
1167.00 0.03632
1167.10 0.0363
1167.20 0.03629
1167.30 0.03628
1167.40 0.03627
1167.50 0.03625
1167.60 0.03624
1167.70 0.03623
1167.80 0.03622
1167.90 0.03621
1168.00 0.03619
1168.10 0.03618
1168.20 0.03617
1168.30 0.03616
1168.40 0.03615
1168.50 0.03613
1168.60 0.03612
1168.70 0.03611
1168.80 0.0361
1168.90 0.03608
1169.00 0.03607
1169.10 0.03606
1169.20 0.03605
1169.30 0.03604
1169.40 0.03602
1169.50 0.03601
1169.60 0.036
1169.70 0.03599
1169.80 0.03598
1169.90 0.03596
1170.00 0.03595
1170.10 0.03594
1170.20 0.03593
1170.30 0.03591
1170.40 0.0359
1170.50 0.03589
1170.60 0.03588
1170.70 0.03587
1170.80 0.03585
1170.90 0.03584
1171.00 0.03583
1171.10 0.03582
1171.20 0.03581
1171.30 0.03579
1171.40 0.03578
1171.50 0.03577
1171.60 0.03576
1171.70 0.03575
1171.80 0.03573
1171.90 0.03572
1172.00 0.03571
1172.10 0.0357
1172.20 0.03569
1172.30 0.03567
1172.40 0.03566
1172.50 0.03565
1172.60 0.03564
1172.70 0.03563
1172.80 0.03561
1172.90 0.0356
1173.00 0.03559
1173.10 0.03558
1173.20 0.03557
1173.30 0.03555
1173.40 0.03554
1173.50 0.03553
1173.60 0.03552
1173.70 0.03551
1173.80 0.0355
1173.90 0.03548
1174.00 0.03547
1174.10 0.03546
1174.20 0.03545
1174.30 0.03544
1174.40 0.03542
1174.50 0.03541
1174.60 0.0354
1174.70 0.03539
1174.80 0.03538
1174.90 0.03536
1175.00 0.03535
1175.10 0.03534
1175.20 0.03533
1175.30 0.03532
1175.40 0.03531
1175.50 0.03529
1175.60 0.03528
1175.70 0.03527
1175.80 0.03526
1175.90 0.03525
1176.00 0.03523
1176.10 0.03522
1176.20 0.03521
1176.30 0.0352
1176.40 0.03519
1176.50 0.03518
1176.60 0.03516
1176.70 0.03515
1176.80 0.03514
1176.90 0.03513
1177.00 0.03512
1177.10 0.0351
1177.20 0.03509
1177.30 0.03508
1177.40 0.03507
1177.50 0.03506
1177.60 0.03505
1177.70 0.03503
1177.80 0.03502
1177.90 0.03501
1178.00 0.035
1178.10 0.03499
1178.20 0.03498
1178.30 0.03496
1178.40 0.03495
1178.50 0.03494
1178.60 0.03493
1178.70 0.03492
1178.80 0.03491
1178.90 0.03489
1179.00 0.03488
1179.10 0.03487
1179.20 0.03486
1179.30 0.03485
1179.40 0.03484
1179.50 0.03482
1179.60 0.03481
1179.70 0.0348
1179.80 0.03479
1179.90 0.03478
1180.00 0.03477
1180.10 0.03475
1180.20 0.03474
1180.30 0.03473
1180.40 0.03472
1180.50 0.03471
1180.60 0.0347
1180.70 0.03469
1180.80 0.03467
1180.90 0.03466
1181.00 0.03465
1181.10 0.03464
1181.20 0.03463
1181.30 0.03462
1181.40 0.0346
1181.50 0.03459
1181.60 0.03458
1181.70 0.03457
1181.80 0.03456
1181.90 0.03455
1182.00 0.03454
1182.10 0.03452
1182.20 0.03451
1182.30 0.0345
1182.40 0.03449
1182.50 0.03448
1182.60 0.03447
1182.70 0.03445
1182.80 0.03444
1182.90 0.03443
1183.00 0.03442
1183.10 0.03441
1183.20 0.0344
1183.30 0.03439
1183.40 0.03437
1183.50 0.03436
1183.60 0.03435
1183.70 0.03434
1183.80 0.03433
1183.90 0.03432
1184.00 0.03431
1184.10 0.03429
1184.20 0.03428
1184.30 0.03427
1184.40 0.03426
1184.50 0.03425
1184.60 0.03424
1184.70 0.03423
1184.80 0.03422
1184.90 0.0342
1185.00 0.03419
1185.10 0.03418
1185.20 0.03417
1185.30 0.03416
1185.40 0.03415
1185.50 0.03414
1185.60 0.03412
1185.70 0.03411
1185.80 0.0341
1185.90 0.03409
1186.00 0.03408
1186.10 0.03407
1186.20 0.03406
1186.30 0.03404
1186.40 0.03403
1186.50 0.03402
1186.60 0.03401
1186.70 0.034
1186.80 0.03399
1186.90 0.03398
1187.00 0.03397
1187.10 0.03395
1187.20 0.03394
1187.30 0.03393
1187.40 0.03392
1187.50 0.03391
1187.60 0.0339
1187.70 0.03389
1187.80 0.03388
1187.90 0.03386
1188.00 0.03385
1188.10 0.03384
1188.20 0.03383
1188.30 0.03382
1188.40 0.03381
1188.50 0.0338
1188.60 0.03379
1188.70 0.03377
1188.80 0.03376
1188.90 0.03375
1189.00 0.03374
1189.10 0.03373
1189.20 0.03372
1189.30 0.03371
1189.40 0.0337
1189.50 0.03369
1189.60 0.03367
1189.70 0.03366
1189.80 0.03365
1189.90 0.03364
1190.00 0.03363
1190.10 0.03362
1190.20 0.03361
1190.30 0.0336
1190.40 0.03359
1190.50 0.03357
1190.60 0.03356
1190.70 0.03355
1190.80 0.03354
1190.90 0.03353
1191.00 0.03352
1191.10 0.03351
1191.20 0.0335
1191.30 0.03349
1191.40 0.03347
1191.50 0.03346
1191.60 0.03345
1191.70 0.03344
1191.80 0.03343
1191.90 0.03342
1192.00 0.03341
1192.10 0.0334
1192.20 0.03339
1192.30 0.03337
1192.40 0.03336
1192.50 0.03335
1192.60 0.03334
1192.70 0.03333
1192.80 0.03332
1192.90 0.03331
1193.00 0.0333
1193.10 0.03329
1193.20 0.03328
1193.30 0.03326
1193.40 0.03325
1193.50 0.03324
1193.60 0.03323
1193.70 0.03322
1193.80 0.03321
1193.90 0.0332
1194.00 0.03319
1194.10 0.03318
1194.20 0.03317
1194.30 0.03315
1194.40 0.03314
1194.50 0.03313
1194.60 0.03312
1194.70 0.03311
1194.80 0.0331
1194.90 0.03309
1195.00 0.03308
1195.10 0.03307
1195.20 0.03306
1195.30 0.03305
1195.40 0.03303
1195.50 0.03302
1195.60 0.03301
1195.70 0.033
1195.80 0.03299
1195.90 0.03298
1196.00 0.03297
1196.10 0.03296
1196.20 0.03295
1196.30 0.03294
1196.40 0.03293
1196.50 0.03291
1196.60 0.0329
1196.70 0.03289
1196.80 0.03288
1196.90 0.03287
1197.00 0.03286
1197.10 0.03285
1197.20 0.03284
1197.30 0.03283
1197.40 0.03282
1197.50 0.03281
1197.60 0.0328
1197.70 0.03278
1197.80 0.03277
1197.90 0.03276
1198.00 0.03275
1198.10 0.03274
1198.20 0.03273
1198.30 0.03272
1198.40 0.03271
1198.50 0.0327
1198.60 0.03269
1198.70 0.03268
1198.80 0.03267
1198.90 0.03266
1199.00 0.03265
1199.10 0.03263
1199.20 0.03262
1199.30 0.03261
1199.40 0.0326
1199.50 0.03259
1199.60 0.03258
1199.70 0.03257
1199.80 0.03256
1199.90 0.03255
1200.00 0
