# Version 2.1 - nm, norm@500 to 1, cut digits, bergeron_25000_65.dat_25000
# Wavelength(nm)  Flambda(ergs/cm^s/s/nm)
300.00 4.051
300.10 4.047
300.20 4.043
300.30 4.038
300.40 4.034
300.50 4.03
300.60 4.026
300.70 4.021
300.80 4.017
300.90 4.013
301.00 4.009
301.10 4.005
301.20 4
301.30 3.996
301.40 3.992
301.50 3.988
301.60 3.984
301.70 3.98
301.80 3.975
301.90 3.971
302.00 3.967
302.10 3.963
302.20 3.959
302.30 3.955
302.40 3.951
302.50 3.947
302.60 3.942
302.70 3.938
302.80 3.934
302.90 3.93
303.00 3.926
303.10 3.922
303.20 3.918
303.30 3.914
303.40 3.91
303.50 3.906
303.60 3.902
303.70 3.898
303.80 3.893
303.90 3.889
304.00 3.885
304.10 3.881
304.20 3.877
304.30 3.873
304.40 3.869
304.50 3.865
304.60 3.861
304.70 3.857
304.80 3.853
304.90 3.849
305.00 3.845
305.10 3.841
305.20 3.837
305.30 3.833
305.40 3.83
305.50 3.826
305.60 3.822
305.70 3.818
305.80 3.814
305.90 3.81
306.00 3.806
306.10 3.802
306.20 3.798
306.30 3.794
306.40 3.79
306.50 3.786
306.60 3.782
306.70 3.779
306.80 3.775
306.90 3.771
307.00 3.767
307.10 3.763
307.20 3.759
307.30 3.755
307.40 3.751
307.50 3.748
307.60 3.744
307.70 3.74
307.80 3.736
307.90 3.732
308.00 3.728
308.10 3.725
308.20 3.721
308.30 3.717
308.40 3.713
308.50 3.709
308.60 3.706
308.70 3.702
308.80 3.698
308.90 3.694
309.00 3.69
309.10 3.687
309.20 3.683
309.30 3.679
309.40 3.675
309.50 3.672
309.60 3.668
309.70 3.664
309.80 3.66
309.90 3.657
310.00 3.653
310.10 3.649
310.20 3.645
310.30 3.642
310.40 3.638
310.50 3.634
310.60 3.631
310.70 3.627
310.80 3.623
310.90 3.62
311.00 3.616
311.10 3.612
311.20 3.609
311.30 3.605
311.40 3.601
311.50 3.598
311.60 3.594
311.70 3.59
311.80 3.587
311.90 3.583
312.00 3.579
312.10 3.576
312.20 3.572
312.30 3.569
312.40 3.565
312.50 3.561
312.60 3.558
312.70 3.554
312.80 3.551
312.90 3.547
313.00 3.543
313.10 3.54
313.20 3.536
313.30 3.533
313.40 3.529
313.50 3.526
313.60 3.522
313.70 3.518
313.80 3.515
313.90 3.511
314.00 3.508
314.10 3.504
314.20 3.501
314.30 3.497
314.40 3.494
314.50 3.49
314.60 3.487
314.70 3.483
314.80 3.48
314.90 3.476
315.00 3.473
315.10 3.469
315.20 3.466
315.30 3.462
315.40 3.459
315.50 3.455
315.60 3.452
315.70 3.448
315.80 3.445
315.90 3.441
316.00 3.438
316.10 3.435
316.20 3.431
316.30 3.428
316.40 3.424
316.50 3.421
316.60 3.417
316.70 3.414
316.80 3.411
316.90 3.407
317.00 3.404
317.10 3.4
317.20 3.397
317.30 3.394
317.40 3.39
317.50 3.387
317.60 3.383
317.70 3.38
317.80 3.377
317.90 3.373
318.00 3.37
318.10 3.367
318.20 3.363
318.30 3.36
318.40 3.357
318.50 3.353
318.60 3.35
318.70 3.347
318.80 3.343
318.90 3.34
319.00 3.337
319.10 3.333
319.20 3.33
319.30 3.327
319.40 3.323
319.50 3.32
319.60 3.317
319.70 3.314
319.80 3.31
319.90 3.307
320.00 3.304
320.10 3.3
320.20 3.297
320.30 3.294
320.40 3.291
320.50 3.287
320.60 3.284
320.70 3.281
320.80 3.278
320.90 3.274
321.00 3.271
321.10 3.268
321.20 3.265
321.30 3.262
321.40 3.258
321.50 3.255
321.60 3.252
321.70 3.249
321.80 3.246
321.90 3.242
322.00 3.239
322.10 3.236
322.20 3.233
322.30 3.23
322.40 3.226
322.50 3.223
322.60 3.22
322.70 3.217
322.80 3.214
322.90 3.211
323.00 3.207
323.10 3.204
323.20 3.201
323.30 3.198
323.40 3.195
323.50 3.192
323.60 3.189
323.70 3.185
323.80 3.182
323.90 3.179
324.00 3.176
324.10 3.173
324.20 3.17
324.30 3.167
324.40 3.164
324.50 3.161
324.60 3.157
324.70 3.154
324.80 3.151
324.90 3.148
325.00 3.145
325.10 3.142
325.20 3.139
325.30 3.136
325.40 3.133
325.50 3.13
325.60 3.127
325.70 3.124
325.80 3.121
325.90 3.118
326.00 3.115
326.10 3.112
326.20 3.109
326.30 3.106
326.40 3.103
326.50 3.1
326.60 3.097
326.70 3.094
326.80 3.091
326.90 3.088
327.00 3.085
327.10 3.082
327.20 3.079
327.30 3.076
327.40 3.073
327.50 3.07
327.60 3.067
327.70 3.064
327.80 3.061
327.90 3.058
328.00 3.055
328.10 3.052
328.20 3.049
328.30 3.046
328.40 3.043
328.50 3.04
328.60 3.037
328.70 3.034
328.80 3.031
328.90 3.028
329.00 3.025
329.10 3.022
329.20 3.019
329.30 3.017
329.40 3.014
329.50 3.011
329.60 3.008
329.70 3.005
329.80 3.002
329.90 2.999
330.00 2.996
330.10 2.993
330.20 2.991
330.30 2.988
330.40 2.985
330.50 2.982
330.60 2.979
330.70 2.976
330.80 2.973
330.90 2.97
331.00 2.968
331.10 2.965
331.20 2.962
331.30 2.959
331.40 2.956
331.50 2.953
331.60 2.951
331.70 2.948
331.80 2.945
331.90 2.942
332.00 2.939
332.10 2.936
332.20 2.934
332.30 2.931
332.40 2.928
332.50 2.925
332.60 2.922
332.70 2.92
332.80 2.917
332.90 2.914
333.00 2.911
333.10 2.909
333.20 2.906
333.30 2.903
333.40 2.9
333.50 2.897
333.60 2.895
333.70 2.892
333.80 2.889
333.90 2.886
334.00 2.884
334.10 2.881
334.20 2.878
334.30 2.875
334.40 2.873
334.50 2.87
334.60 2.867
334.70 2.864
334.80 2.862
334.90 2.859
335.00 2.856
335.10 2.854
335.20 2.851
335.30 2.848
335.40 2.845
335.50 2.843
335.60 2.84
335.70 2.837
335.80 2.835
335.90 2.832
336.00 2.829
336.10 2.827
336.20 2.824
336.30 2.821
336.40 2.819
336.50 2.816
336.60 2.813
336.70 2.811
336.80 2.808
336.90 2.805
337.00 2.803
337.10 2.8
337.20 2.797
337.30 2.795
337.40 2.792
337.50 2.789
337.60 2.787
337.70 2.784
337.80 2.782
337.90 2.779
338.00 2.776
338.10 2.774
338.20 2.771
338.30 2.768
338.40 2.766
338.50 2.763
338.60 2.761
338.70 2.758
338.80 2.756
338.90 2.753
339.00 2.75
339.10 2.748
339.20 2.745
339.30 2.743
339.40 2.74
339.50 2.737
339.60 2.735
339.70 2.732
339.80 2.73
339.90 2.727
340.00 2.725
340.10 2.722
340.20 2.719
340.30 2.717
340.40 2.714
340.50 2.712
340.60 2.709
340.70 2.707
340.80 2.704
340.90 2.702
341.00 2.699
341.10 2.697
341.20 2.694
341.30 2.692
341.40 2.689
341.50 2.687
341.60 2.684
341.70 2.682
341.80 2.679
341.90 2.677
342.00 2.674
342.10 2.672
342.20 2.669
342.30 2.667
342.40 2.664
342.50 2.662
342.60 2.659
342.70 2.657
342.80 2.654
342.90 2.652
343.00 2.649
343.10 2.647
343.20 2.644
343.30 2.642
343.40 2.639
343.50 2.637
343.60 2.635
343.70 2.632
343.80 2.63
343.90 2.627
344.00 2.625
344.10 2.622
344.20 2.62
344.30 2.617
344.40 2.615
344.50 2.613
344.60 2.61
344.70 2.608
344.80 2.605
344.90 2.603
345.00 2.601
345.10 2.598
345.20 2.596
345.30 2.593
345.40 2.591
345.50 2.589
345.60 2.586
345.70 2.584
345.80 2.581
345.90 2.579
346.00 2.577
346.10 2.574
346.20 2.572
346.30 2.57
346.40 2.567
346.50 2.565
346.60 2.562
346.70 2.56
346.80 2.558
346.90 2.555
347.00 2.553
347.10 2.551
347.20 2.548
347.30 2.546
347.40 2.544
347.50 2.541
347.60 2.539
347.70 2.537
347.80 2.534
347.90 2.532
348.00 2.53
348.10 2.527
348.20 2.525
348.30 2.523
348.40 2.52
348.50 2.518
348.60 2.516
348.70 2.513
348.80 2.511
348.90 2.509
349.00 2.507
349.10 2.504
349.20 2.502
349.30 2.5
349.40 2.497
349.50 2.495
349.60 2.493
349.70 2.49
349.80 2.488
349.90 2.486
350.00 2.484
350.10 2.481
350.20 2.479
350.30 2.477
350.40 2.475
350.50 2.472
350.60 2.47
350.70 2.468
350.80 2.466
350.90 2.463
351.00 2.461
351.10 2.459
351.20 2.457
351.30 2.454
351.40 2.452
351.50 2.45
351.60 2.448
351.70 2.445
351.80 2.443
351.90 2.441
352.00 2.439
352.10 2.437
352.20 2.434
352.30 2.432
352.40 2.43
352.50 2.428
352.60 2.426
352.70 2.423
352.80 2.421
352.90 2.419
353.00 2.417
353.10 2.415
353.20 2.412
353.30 2.41
353.40 2.408
353.50 2.406
353.60 2.404
353.70 2.401
353.80 2.399
353.90 2.397
354.00 2.395
354.10 2.393
354.20 2.391
354.30 2.388
354.40 2.386
354.50 2.384
354.60 2.382
354.70 2.38
354.80 2.378
354.90 2.376
355.00 2.373
355.10 2.371
355.20 2.369
355.30 2.367
355.40 2.365
355.50 2.363
355.60 2.361
355.70 2.358
355.80 2.356
355.90 2.354
356.00 2.352
356.10 2.35
356.20 2.348
356.30 2.346
356.40 2.344
356.50 2.342
356.60 2.339
356.70 2.337
356.80 2.335
356.90 2.333
357.00 2.331
357.10 2.329
357.20 2.327
357.30 2.325
357.40 2.323
357.50 2.321
357.60 2.319
357.70 2.316
357.80 2.314
357.90 2.312
358.00 2.31
358.10 2.308
358.20 2.306
358.30 2.304
358.40 2.302
358.50 2.3
358.60 2.298
358.70 2.296
358.80 2.294
358.90 2.292
359.00 2.29
359.10 2.288
359.20 2.286
359.30 2.284
359.40 2.282
359.50 2.279
359.60 2.277
359.70 2.275
359.80 2.273
359.90 2.271
360.00 2.269
360.10 2.267
360.20 2.265
360.30 2.263
360.40 2.261
360.50 2.259
360.60 2.257
360.70 2.255
360.80 2.253
360.90 2.251
361.00 2.249
361.10 2.247
361.20 2.245
361.30 2.243
361.40 2.241
361.50 2.239
361.60 2.237
361.70 2.235
361.80 2.233
361.90 2.231
362.00 2.229
362.10 2.227
362.20 2.225
362.30 2.223
362.40 2.221
362.50 2.219
362.60 2.218
362.70 2.216
362.80 2.214
362.90 2.212
363.00 2.21
363.10 2.208
363.20 2.206
363.30 2.204
363.40 2.202
363.50 2.2
363.60 2.198
363.70 2.196
363.80 2.194
363.90 2.192
364.00 2.19
364.10 2.188
364.20 2.186
364.30 2.184
364.40 2.183
364.50 2.181
364.60 2.179
364.70 2.177
364.80 2.175
364.90 2.173
365.00 2.171
365.10 2.169
365.20 2.167
365.30 2.165
365.40 2.163
365.50 2.161
365.60 2.16
365.70 2.158
365.80 2.156
365.90 2.154
366.00 2.152
366.10 2.15
366.20 2.147
366.30 2.145
366.40 2.143
366.50 2.14
366.60 2.138
366.70 2.136
366.80 2.133
366.90 2.131
367.00 2.129
367.10 2.127
367.20 2.124
367.30 2.122
367.40 2.12
367.50 2.117
367.60 2.115
367.70 2.113
367.80 2.111
367.90 2.108
368.00 2.106
368.10 2.104
368.20 2.102
368.30 2.1
368.40 2.098
368.50 2.096
368.60 2.093
368.70 2.091
368.80 2.089
368.90 2.087
369.00 2.085
369.10 2.083
369.20 2.081
369.30 2.079
369.40 2.077
369.50 2.075
369.60 2.072
369.70 2.07
369.80 2.068
369.90 2.066
370.00 2.064
370.10 2.063
370.20 2.061
370.30 2.059
370.40 2.058
370.50 2.056
370.60 2.054
370.70 2.053
370.80 2.051
370.90 2.049
371.00 2.048
371.10 2.046
371.20 2.044
371.30 2.043
371.40 2.041
371.50 2.039
371.60 2.038
371.70 2.036
371.80 2.034
371.90 2.033
372.00 2.031
372.10 2.031
372.20 2.03
372.30 2.029
372.40 2.029
372.50 2.028
372.60 2.027
372.70 2.027
372.80 2.026
372.90 2.026
373.00 2.025
373.10 2.024
373.20 2.024
373.30 2.023
373.40 2.023
373.50 2.022
373.60 2.021
373.70 2.021
373.80 2.02
373.90 2.02
374.00 2.019
374.10 2.019
374.20 2.018
374.30 2.018
374.40 2.017
374.50 2.017
374.60 2.017
374.70 2.016
374.80 2.016
374.90 2.016
375.00 2.015
375.10 2.015
375.20 2.015
375.30 2.014
375.40 2.014
375.50 2.014
375.60 2.013
375.70 2.013
375.80 2.012
375.90 2.012
376.00 2.012
376.10 2.001
376.20 1.99
376.30 1.98
376.40 1.969
376.50 1.959
376.60 1.948
376.70 1.938
376.80 1.927
376.90 1.916
377.00 1.906
377.10 1.917
377.20 1.928
377.30 1.939
377.40 1.95
377.50 1.961
377.60 1.971
377.70 1.982
377.80 1.993
377.90 2.004
378.00 2.015
378.10 2.008
378.20 2.002
378.30 1.995
378.40 1.989
378.50 1.982
378.60 1.976
378.70 1.969
378.80 1.963
378.90 1.957
379.00 1.95
379.10 1.935
379.20 1.921
379.30 1.906
379.40 1.892
379.50 1.877
379.60 1.863
379.70 1.848
379.80 1.834
379.90 1.819
380.00 1.805
380.10 1.827
380.20 1.85
380.30 1.872
380.40 1.895
380.50 1.917
380.60 1.939
380.70 1.962
380.80 1.984
380.90 2.006
381.00 2.028
381.10 2.035
381.20 2.041
381.30 2.047
381.40 2.053
381.50 2.059
381.60 2.058
381.70 2.054
381.80 2.048
381.90 2.04
382.00 2.028
382.10 2.014
382.20 1.998
382.30 1.965
382.40 1.933
382.50 1.901
382.60 1.869
382.70 1.837
382.80 1.805
382.90 1.773
383.00 1.741
383.10 1.709
383.20 1.677
383.30 1.63
383.40 1.583
383.50 1.536
383.60 1.545
383.70 1.592
383.80 1.638
383.90 1.683
384.00 1.726
384.10 1.766
384.20 1.804
384.30 1.84
384.40 1.874
384.50 1.905
384.60 1.934
384.70 1.961
384.80 1.986
384.90 2.009
385.00 2.029
385.10 2.047
385.20 2.064
385.30 2.079
385.40 2.091
385.50 2.102
385.60 2.112
385.70 2.119
385.80 2.124
385.90 2.128
386.00 2.13
386.10 2.13
386.20 2.129
386.30 2.126
386.40 2.121
386.50 2.114
386.60 2.105
386.70 2.095
386.80 2.083
386.90 2.069
387.00 2.052
387.10 2.035
387.20 2.014
387.30 1.991
387.40 1.967
387.50 1.94
387.60 1.91
387.70 1.879
387.80 1.844
387.90 1.808
388.00 1.769
388.10 1.727
388.20 1.682
388.30 1.636
388.40 1.586
388.50 1.533
388.60 1.478
388.70 1.418
388.80 1.36
388.90 1.305
389.00 1.354
389.10 1.409
389.20 1.467
389.30 1.52
389.40 1.571
389.50 1.619
389.60 1.664
389.70 1.706
389.80 1.747
389.90 1.784
390.00 1.819
390.10 1.852
390.20 1.882
390.30 1.911
390.40 1.938
390.50 1.962
390.60 1.985
390.70 2.007
390.80 2.026
390.90 2.044
391.00 2.061
391.10 2.076
391.20 2.089
391.30 2.102
391.40 2.113
391.50 2.123
391.60 2.133
391.70 2.141
391.80 2.148
391.90 2.154
392.00 2.16
392.10 2.164
392.20 2.168
392.30 2.171
392.40 2.173
392.50 2.175
392.60 2.176
392.70 2.176
392.80 2.176
392.90 2.174
393.00 2.172
393.10 2.17
393.20 2.167
393.30 2.163
393.40 2.158
393.50 2.153
393.60 2.147
393.70 2.14
393.80 2.133
393.90 2.124
394.00 2.115
394.10 2.105
394.20 2.094
394.30 2.083
394.40 2.07
394.50 2.056
394.60 2.041
394.70 2.024
394.80 2.006
394.90 1.988
395.00 1.967
395.10 1.945
395.20 1.922
395.30 1.896
395.40 1.869
395.50 1.841
395.60 1.809
395.70 1.777
395.80 1.742
395.90 1.705
396.00 1.666
396.10 1.625
396.20 1.581
396.30 1.534
396.40 1.487
396.50 1.434
396.60 1.38
396.70 1.323
396.80 1.256
396.90 1.182
397.00 1.1
397.10 1.174
397.20 1.243
397.30 1.309
397.40 1.365
397.50 1.418
397.60 1.468
397.70 1.514
397.80 1.558
397.90 1.599
398.00 1.638
398.10 1.674
398.20 1.709
398.30 1.741
398.40 1.771
398.50 1.799
398.60 1.825
398.70 1.849
398.80 1.872
398.90 1.893
399.00 1.912
399.10 1.93
399.20 1.946
399.30 1.962
399.40 1.976
399.50 1.988
399.60 2
399.70 2.011
399.80 2.021
399.90 2.03
400.00 2.038
400.10 2.046
400.20 2.053
400.30 2.059
400.40 2.065
400.50 2.07
400.60 2.074
400.70 2.078
400.80 2.082
400.90 2.086
401.00 2.088
401.10 2.091
401.20 2.093
401.30 2.095
401.40 2.097
401.50 2.099
401.60 2.1
401.70 2.101
401.80 2.101
401.90 2.102
402.00 2.102
402.10 2.103
402.20 2.103
402.30 2.102
402.40 2.102
402.50 2.102
402.60 2.101
402.70 2.101
402.80 2.1
402.90 2.099
403.00 2.098
403.10 2.097
403.20 2.095
403.30 2.094
403.40 2.092
403.50 2.091
403.60 2.089
403.70 2.087
403.80 2.085
403.90 2.083
404.00 2.081
404.10 2.079
404.20 2.077
404.30 2.074
404.40 2.072
404.50 2.069
404.60 2.066
404.70 2.063
404.80 2.06
404.90 2.057
405.00 2.054
405.10 2.05
405.20 2.046
405.30 2.043
405.40 2.039
405.50 2.034
405.60 2.03
405.70 2.025
405.80 2.02
405.90 2.015
406.00 2.009
406.10 2.003
406.20 1.997
406.30 1.991
406.40 1.984
406.50 1.977
406.60 1.969
406.70 1.961
406.80 1.952
406.90 1.943
407.00 1.933
407.10 1.923
407.20 1.912
407.30 1.9
407.40 1.888
407.50 1.875
407.60 1.861
407.70 1.846
407.80 1.831
407.90 1.814
408.00 1.796
408.10 1.777
408.20 1.757
408.30 1.735
408.40 1.713
408.50 1.688
408.60 1.663
408.70 1.636
408.80 1.606
408.90 1.575
409.00 1.543
409.10 1.509
409.20 1.472
409.30 1.434
409.40 1.393
409.50 1.351
409.60 1.306
409.70 1.258
409.80 1.206
409.90 1.15
410.00 1.08
410.10 1.012
410.20 0.9456
410.30 1.038
410.40 1.115
410.50 1.177
410.60 1.227
410.70 1.275
410.80 1.32
410.90 1.36
411.00 1.399
411.10 1.437
411.20 1.471
411.30 1.504
411.40 1.535
411.50 1.563
411.60 1.59
411.70 1.615
411.80 1.638
411.90 1.66
412.00 1.68
412.10 1.699
412.20 1.716
412.30 1.733
412.40 1.747
412.50 1.761
412.60 1.774
412.70 1.785
412.80 1.796
412.90 1.807
413.00 1.816
413.10 1.824
413.20 1.832
413.30 1.839
413.40 1.846
413.50 1.852
413.60 1.857
413.70 1.862
413.80 1.867
413.90 1.871
414.00 1.875
414.10 1.878
414.20 1.881
414.30 1.884
414.40 1.886
414.50 1.888
414.60 1.89
414.70 1.892
414.80 1.893
414.90 1.894
415.00 1.895
415.10 1.896
415.20 1.897
415.30 1.898
415.40 1.898
415.50 1.898
415.60 1.899
415.70 1.899
415.80 1.899
415.90 1.898
416.00 1.898
416.10 1.898
416.20 1.898
416.30 1.897
416.40 1.897
416.50 1.896
416.60 1.896
416.70 1.895
416.80 1.894
416.90 1.894
417.00 1.893
417.10 1.892
417.20 1.891
417.30 1.89
417.40 1.889
417.50 1.888
417.60 1.887
417.70 1.886
417.80 1.885
417.90 1.884
418.00 1.883
418.10 1.882
418.20 1.881
418.30 1.88
418.40 1.879
418.50 1.877
418.60 1.876
418.70 1.875
418.80 1.874
418.90 1.872
419.00 1.871
419.10 1.87
419.20 1.869
419.30 1.867
419.40 1.866
419.50 1.865
419.60 1.863
419.70 1.862
419.80 1.861
419.90 1.859
420.00 1.858
420.10 1.856
420.20 1.855
420.30 1.854
420.40 1.852
420.50 1.851
420.60 1.849
420.70 1.848
420.80 1.846
420.90 1.845
421.00 1.843
421.10 1.842
421.20 1.841
421.30 1.839
421.40 1.838
421.50 1.836
421.60 1.835
421.70 1.833
421.80 1.832
421.90 1.83
422.00 1.828
422.10 1.827
422.20 1.825
422.30 1.824
422.40 1.822
422.50 1.821
422.60 1.819
422.70 1.818
422.80 1.816
422.90 1.814
423.00 1.813
423.10 1.811
423.20 1.81
423.30 1.808
423.40 1.806
423.50 1.805
423.60 1.803
423.70 1.801
423.80 1.8
423.90 1.798
424.00 1.796
424.10 1.795
424.20 1.793
424.30 1.791
424.40 1.79
424.50 1.788
424.60 1.786
424.70 1.784
424.80 1.783
424.90 1.781
425.00 1.779
425.10 1.777
425.20 1.776
425.30 1.774
425.40 1.772
425.50 1.77
425.60 1.768
425.70 1.766
425.80 1.765
425.90 1.763
426.00 1.761
426.10 1.759
426.20 1.757
426.30 1.755
426.40 1.753
426.50 1.751
426.60 1.749
426.70 1.747
426.80 1.745
426.90 1.742
427.00 1.74
427.10 1.738
427.20 1.736
427.30 1.733
427.40 1.731
427.50 1.729
427.60 1.726
427.70 1.724
427.80 1.721
427.90 1.719
428.00 1.716
428.10 1.714
428.20 1.711
428.30 1.708
428.40 1.705
428.50 1.702
428.60 1.699
428.70 1.696
428.80 1.693
428.90 1.689
429.00 1.686
429.10 1.682
429.20 1.679
429.30 1.675
429.40 1.671
429.50 1.667
429.60 1.663
429.70 1.658
429.80 1.654
429.90 1.649
430.00 1.644
430.10 1.639
430.20 1.633
430.30 1.627
430.40 1.621
430.50 1.615
430.60 1.608
430.70 1.601
430.80 1.594
430.90 1.586
431.00 1.578
431.10 1.569
431.20 1.56
431.30 1.55
431.40 1.539
431.50 1.528
431.60 1.517
431.70 1.504
431.80 1.491
431.90 1.477
432.00 1.462
432.10 1.446
432.20 1.428
432.30 1.41
432.40 1.391
432.50 1.37
432.60 1.349
432.70 1.326
432.80 1.301
432.90 1.275
433.00 1.248
433.10 1.219
433.20 1.188
433.30 1.156
433.40 1.121
433.50 1.084
433.60 1.045
433.70 1.001
433.80 0.95
433.90 0.8922
434.00 0.7906
434.10 0.7919
434.20 0.8958
434.30 0.9511
434.40 1
434.50 1.042
434.60 1.079
434.70 1.114
434.80 1.147
434.90 1.177
435.00 1.205
435.10 1.233
435.20 1.257
435.30 1.281
435.40 1.303
435.50 1.324
435.60 1.343
435.70 1.361
435.80 1.377
435.90 1.393
436.00 1.407
436.10 1.42
436.20 1.433
436.30 1.444
436.40 1.454
436.50 1.464
436.60 1.473
436.70 1.481
436.80 1.489
436.90 1.496
437.00 1.502
437.10 1.508
437.20 1.513
437.30 1.518
437.40 1.523
437.50 1.527
437.60 1.53
437.70 1.534
437.80 1.537
437.90 1.54
438.00 1.542
438.10 1.545
438.20 1.547
438.30 1.549
438.40 1.55
438.50 1.552
438.60 1.553
438.70 1.554
438.80 1.555
438.90 1.556
439.00 1.557
439.10 1.558
439.20 1.558
439.30 1.559
439.40 1.559
439.50 1.559
439.60 1.56
439.70 1.56
439.80 1.56
439.90 1.56
440.00 1.56
440.10 1.559
440.20 1.559
440.30 1.559
440.40 1.559
440.50 1.558
440.60 1.558
440.70 1.557
440.80 1.557
440.90 1.556
441.00 1.556
441.10 1.555
441.20 1.555
441.30 1.554
441.40 1.553
441.50 1.553
441.60 1.552
441.70 1.551
441.80 1.55
441.90 1.55
442.00 1.549
442.10 1.548
442.20 1.547
442.30 1.546
442.40 1.545
442.50 1.544
442.60 1.544
442.70 1.543
442.80 1.542
442.90 1.541
443.00 1.54
443.10 1.539
443.20 1.538
443.30 1.537
443.40 1.536
443.50 1.535
443.60 1.534
443.70 1.533
443.80 1.532
443.90 1.531
444.00 1.53
444.10 1.529
444.20 1.528
444.30 1.527
444.40 1.526
444.50 1.525
444.60 1.523
444.70 1.522
444.80 1.521
444.90 1.52
445.00 1.519
445.10 1.518
445.20 1.517
445.30 1.516
445.40 1.515
445.50 1.514
445.60 1.513
445.70 1.511
445.80 1.51
445.90 1.509
446.00 1.508
446.10 1.507
446.20 1.506
446.30 1.505
446.40 1.504
446.50 1.503
446.60 1.501
446.70 1.5
446.80 1.499
446.90 1.498
447.00 1.497
447.10 1.496
447.20 1.495
447.30 1.494
447.40 1.492
447.50 1.491
447.60 1.49
447.70 1.489
447.80 1.488
447.90 1.487
448.00 1.486
448.10 1.485
448.20 1.483
448.30 1.482
448.40 1.481
448.50 1.48
448.60 1.479
448.70 1.478
448.80 1.477
448.90 1.475
449.00 1.474
449.10 1.473
449.20 1.472
449.30 1.471
449.40 1.47
449.50 1.469
449.60 1.467
449.70 1.466
449.80 1.465
449.90 1.464
450.00 1.463
450.10 1.462
450.20 1.461
450.30 1.46
450.40 1.458
450.50 1.457
450.60 1.456
450.70 1.455
450.80 1.454
450.90 1.453
451.00 1.452
451.10 1.45
451.20 1.449
451.30 1.448
451.40 1.447
451.50 1.446
451.60 1.445
451.70 1.444
451.80 1.443
451.90 1.441
452.00 1.44
452.10 1.439
452.20 1.438
452.30 1.437
452.40 1.436
452.50 1.435
452.60 1.434
452.70 1.432
452.80 1.431
452.90 1.43
453.00 1.429
453.10 1.428
453.20 1.427
453.30 1.426
453.40 1.425
453.50 1.424
453.60 1.422
453.70 1.421
453.80 1.42
453.90 1.419
454.00 1.418
454.10 1.417
454.20 1.416
454.30 1.415
454.40 1.414
454.50 1.412
454.60 1.411
454.70 1.41
454.80 1.409
454.90 1.408
455.00 1.407
455.10 1.406
455.20 1.405
455.30 1.404
455.40 1.402
455.50 1.401
455.60 1.4
455.70 1.399
455.80 1.398
455.90 1.397
456.00 1.396
456.10 1.395
456.20 1.394
456.30 1.393
456.40 1.392
456.50 1.39
456.60 1.389
456.70 1.388
456.80 1.387
456.90 1.386
457.00 1.385
457.10 1.384
457.20 1.383
457.30 1.382
457.40 1.381
457.50 1.38
457.60 1.378
457.70 1.377
457.80 1.376
457.90 1.375
458.00 1.374
458.10 1.373
458.20 1.372
458.30 1.371
458.40 1.37
458.50 1.369
458.60 1.368
458.70 1.367
458.80 1.366
458.90 1.365
459.00 1.363
459.10 1.362
459.20 1.361
459.30 1.36
459.40 1.359
459.50 1.358
459.60 1.357
459.70 1.356
459.80 1.355
459.90 1.354
460.00 1.353
460.10 1.352
460.20 1.351
460.30 1.35
460.40 1.349
460.50 1.347
460.60 1.346
460.70 1.345
460.80 1.344
460.90 1.343
461.00 1.342
461.10 1.341
461.20 1.34
461.30 1.339
461.40 1.338
461.50 1.337
461.60 1.336
461.70 1.335
461.80 1.334
461.90 1.333
462.00 1.332
462.10 1.331
462.20 1.33
462.30 1.329
462.40 1.328
462.50 1.327
462.60 1.325
462.70 1.324
462.80 1.323
462.90 1.322
463.00 1.321
463.10 1.32
463.20 1.319
463.30 1.318
463.40 1.317
463.50 1.316
463.60 1.315
463.70 1.314
463.80 1.313
463.90 1.312
464.00 1.311
464.10 1.31
464.20 1.309
464.30 1.308
464.40 1.307
464.50 1.306
464.60 1.305
464.70 1.304
464.80 1.303
464.90 1.302
465.00 1.301
465.10 1.3
465.20 1.299
465.30 1.298
465.40 1.297
465.50 1.296
465.60 1.295
465.70 1.294
465.80 1.293
465.90 1.292
466.00 1.291
466.10 1.29
466.20 1.289
466.30 1.288
466.40 1.287
466.50 1.286
466.60 1.285
466.70 1.284
466.80 1.283
466.90 1.281
467.00 1.28
467.10 1.279
467.20 1.278
467.30 1.277
467.40 1.276
467.50 1.275
467.60 1.274
467.70 1.273
467.80 1.272
467.90 1.271
468.00 1.27
468.10 1.269
468.20 1.268
468.30 1.267
468.40 1.266
468.50 1.265
468.60 1.264
468.70 1.263
468.80 1.262
468.90 1.261
469.00 1.26
469.10 1.259
469.20 1.258
469.30 1.257
469.40 1.256
469.50 1.255
469.60 1.254
469.70 1.253
469.80 1.252
469.90 1.251
470.00 1.25
470.10 1.249
470.20 1.248
470.30 1.247
470.40 1.246
470.50 1.245
470.60 1.244
470.70 1.243
470.80 1.242
470.90 1.241
471.00 1.24
471.10 1.239
471.20 1.238
471.30 1.237
471.40 1.236
471.50 1.235
471.60 1.234
471.70 1.233
471.80 1.232
471.90 1.231
472.00 1.23
472.10 1.229
472.20 1.228
472.30 1.227
472.40 1.226
472.50 1.225
472.60 1.224
472.70 1.223
472.80 1.222
472.90 1.221
473.00 1.22
473.10 1.219
473.20 1.218
473.30 1.217
473.40 1.216
473.50 1.215
473.60 1.214
473.70 1.213
473.80 1.212
473.90 1.211
474.00 1.21
474.10 1.209
474.20 1.208
474.30 1.207
474.40 1.206
474.50 1.205
474.60 1.204
474.70 1.203
474.80 1.202
474.90 1.201
475.00 1.2
475.10 1.199
475.20 1.198
475.30 1.197
475.40 1.196
475.50 1.195
475.60 1.194
475.70 1.193
475.80 1.191
475.90 1.19
476.00 1.189
476.10 1.188
476.20 1.187
476.30 1.186
476.40 1.185
476.50 1.184
476.60 1.183
476.70 1.182
476.80 1.18
476.90 1.179
477.00 1.178
477.10 1.177
477.20 1.176
477.30 1.175
477.40 1.174
477.50 1.172
477.60 1.171
477.70 1.17
477.80 1.169
477.90 1.168
478.00 1.166
478.10 1.165
478.20 1.164
478.30 1.162
478.40 1.161
478.50 1.16
478.60 1.158
478.70 1.157
478.80 1.156
478.90 1.154
479.00 1.153
479.10 1.152
479.20 1.15
479.30 1.149
479.40 1.147
479.50 1.146
479.60 1.144
479.70 1.142
479.80 1.141
479.90 1.139
480.00 1.138
480.10 1.136
480.20 1.134
480.30 1.132
480.40 1.13
480.50 1.128
480.60 1.126
480.70 1.124
480.80 1.122
480.90 1.12
481.00 1.118
481.10 1.116
481.20 1.114
481.30 1.111
481.40 1.108
481.50 1.105
481.60 1.103
481.70 1.1
481.80 1.097
481.90 1.094
482.00 1.092
482.10 1.089
482.20 1.085
482.30 1.081
482.40 1.076
482.50 1.072
482.60 1.068
482.70 1.064
482.80 1.059
482.90 1.055
483.00 1.051
483.10 1.046
483.20 1.04
483.30 1.033
483.40 1.026
483.50 1.018
483.60 1.011
483.70 1.004
483.80 0.9965
483.90 0.9892
484.00 0.982
484.10 0.9747
484.20 0.965
484.30 0.954
484.40 0.943
484.50 0.932
484.60 0.9211
484.70 0.9077
484.80 0.8932
484.90 0.8787
485.00 0.8642
485.10 0.8497
485.20 0.8331
485.30 0.8154
485.40 0.7962
485.50 0.7763
485.60 0.7542
485.70 0.731
485.80 0.7028
485.90 0.6721
486.00 0.6313
486.10 0.54
486.20 0.586
486.30 0.6469
486.40 0.6802
486.50 0.7101
486.60 0.7348
486.70 0.7571
486.80 0.7769
486.90 0.7957
487.00 0.8128
487.10 0.8292
487.20 0.8434
487.30 0.8566
487.40 0.8697
487.50 0.8829
487.60 0.896
487.70 0.9066
487.80 0.916
487.90 0.9254
488.00 0.9348
488.10 0.9442
488.20 0.951
488.30 0.9566
488.40 0.9622
488.50 0.9678
488.60 0.9734
488.70 0.9789
488.80 0.9845
488.90 0.9901
489.00 0.9956
489.10 1.001
489.20 1.005
489.30 1.007
489.40 1.01
489.50 1.012
489.60 1.015
489.70 1.017
489.80 1.02
489.90 1.022
490.00 1.025
490.10 1.028
490.20 1.029
490.30 1.03
490.40 1.031
490.50 1.032
490.60 1.033
490.70 1.034
490.80 1.035
490.90 1.036
491.00 1.037
491.10 1.038
491.20 1.039
491.30 1.039
491.40 1.039
491.50 1.039
491.60 1.04
491.70 1.04
491.80 1.04
491.90 1.041
492.00 1.041
492.10 1.041
492.20 1.041
492.30 1.041
492.40 1.041
492.50 1.041
492.60 1.04
492.70 1.04
492.80 1.04
492.90 1.04
493.00 1.04
493.10 1.04
493.20 1.039
493.30 1.039
493.40 1.039
493.50 1.038
493.60 1.038
493.70 1.037
493.80 1.037
493.90 1.037
494.00 1.036
494.10 1.036
494.20 1.036
494.30 1.035
494.40 1.035
494.50 1.034
494.60 1.034
494.70 1.033
494.80 1.033
494.90 1.032
495.00 1.032
495.10 1.031
495.20 1.031
495.30 1.03
495.40 1.029
495.50 1.029
495.60 1.028
495.70 1.028
495.80 1.027
495.90 1.027
496.00 1.026
496.10 1.025
496.20 1.025
496.30 1.024
496.40 1.024
496.50 1.023
496.60 1.022
496.70 1.022
496.80 1.021
496.90 1.02
497.00 1.02
497.10 1.019
497.20 1.019
497.30 1.018
497.40 1.017
497.50 1.017
497.60 1.016
497.70 1.015
497.80 1.015
497.90 1.014
498.00 1.013
498.10 1.013
498.20 1.012
498.30 1.011
498.40 1.011
498.50 1.01
498.60 1.009
498.70 1.009
498.80 1.008
498.90 1.007
499.00 1.007
499.10 1.006
499.20 1.005
499.30 1.005
499.40 1.004
499.50 1.003
499.60 1.003
499.70 1.002
499.80 1.001
499.90 1.001
500.00 1
500.10 0.9993
500.20 0.9986
500.30 0.998
500.40 0.9973
500.50 0.9966
500.60 0.9959
500.70 0.9952
500.80 0.9946
500.90 0.9939
501.00 0.9932
501.10 0.9925
501.20 0.9918
501.30 0.9912
501.40 0.9905
501.50 0.9898
501.60 0.9891
501.70 0.9884
501.80 0.9878
501.90 0.9871
502.00 0.9864
502.10 0.9857
502.20 0.985
502.30 0.9843
502.40 0.9837
502.50 0.983
502.60 0.9823
502.70 0.9816
502.80 0.9809
502.90 0.9802
503.00 0.9796
503.10 0.9789
503.20 0.9782
503.30 0.9775
503.40 0.9768
503.50 0.9762
503.60 0.9755
503.70 0.9748
503.80 0.9741
503.90 0.9734
504.00 0.9728
504.10 0.9721
504.20 0.9714
504.30 0.9707
504.40 0.97
504.50 0.9694
504.60 0.9687
504.70 0.968
504.80 0.9673
504.90 0.9666
505.00 0.966
505.10 0.9653
505.20 0.9646
505.30 0.9639
505.40 0.9633
505.50 0.9626
505.60 0.9619
505.70 0.9612
505.80 0.9606
505.90 0.9599
506.00 0.9592
506.10 0.9585
506.20 0.9579
506.30 0.9572
506.40 0.9565
506.50 0.9558
506.60 0.9552
506.70 0.9545
506.80 0.9538
506.90 0.9532
507.00 0.9525
507.10 0.9518
507.20 0.9511
507.30 0.9505
507.40 0.9498
507.50 0.9491
507.60 0.9485
507.70 0.9478
507.80 0.9471
507.90 0.9465
508.00 0.9458
508.10 0.9451
508.20 0.9445
508.30 0.9438
508.40 0.9431
508.50 0.9425
508.60 0.9418
508.70 0.9412
508.80 0.9405
508.90 0.9398
509.00 0.9392
509.10 0.9385
509.20 0.9379
509.30 0.9372
509.40 0.9365
509.50 0.9359
509.60 0.9352
509.70 0.9346
509.80 0.9339
509.90 0.9332
510.00 0.9326
510.10 0.9319
510.20 0.9313
510.30 0.9306
510.40 0.93
510.50 0.9293
510.60 0.9287
510.70 0.928
510.80 0.9274
510.90 0.9267
511.00 0.926
511.10 0.9254
511.20 0.9247
511.30 0.9241
511.40 0.9234
511.50 0.9228
511.60 0.9222
511.70 0.9215
511.80 0.9209
511.90 0.9202
512.00 0.9196
512.10 0.9189
512.20 0.9183
512.30 0.9176
512.40 0.917
512.50 0.9163
512.60 0.9157
512.70 0.9151
512.80 0.9144
512.90 0.9138
513.00 0.9131
513.10 0.9125
513.20 0.9118
513.30 0.9112
513.40 0.9106
513.50 0.9099
513.60 0.9093
513.70 0.9086
513.80 0.908
513.90 0.9074
514.00 0.9067
514.10 0.9061
514.20 0.9055
514.30 0.9048
514.40 0.9042
514.50 0.9036
514.60 0.9029
514.70 0.9023
514.80 0.9017
514.90 0.901
515.00 0.9004
515.10 0.8998
515.20 0.8991
515.30 0.8985
515.40 0.8979
515.50 0.8973
515.60 0.8966
515.70 0.896
515.80 0.8954
515.90 0.8947
516.00 0.8941
516.10 0.8935
516.20 0.8929
516.30 0.8922
516.40 0.8916
516.50 0.891
516.60 0.8904
516.70 0.8898
516.80 0.8891
516.90 0.8885
517.00 0.8879
517.10 0.8873
517.20 0.8867
517.30 0.886
517.40 0.8854
517.50 0.8848
517.60 0.8842
517.70 0.8836
517.80 0.8829
517.90 0.8823
518.00 0.8817
518.10 0.8811
518.20 0.8805
518.30 0.8799
518.40 0.8793
518.50 0.8786
518.60 0.878
518.70 0.8774
518.80 0.8768
518.90 0.8762
519.00 0.8756
519.10 0.875
519.20 0.8744
519.30 0.8738
519.40 0.8732
519.50 0.8725
519.60 0.8719
519.70 0.8713
519.80 0.8707
519.90 0.8701
520.00 0.8695
520.10 0.8689
520.20 0.8683
520.30 0.8677
520.40 0.8671
520.50 0.8665
520.60 0.8659
520.70 0.8653
520.80 0.8647
520.90 0.8641
521.00 0.8635
521.10 0.8629
521.20 0.8623
521.30 0.8617
521.40 0.8611
521.50 0.8605
521.60 0.8599
521.70 0.8593
521.80 0.8587
521.90 0.8581
522.00 0.8575
522.10 0.8569
522.20 0.8563
522.30 0.8557
522.40 0.8551
522.50 0.8545
522.60 0.854
522.70 0.8534
522.80 0.8528
522.90 0.8522
523.00 0.8516
523.10 0.851
523.20 0.8504
523.30 0.8498
523.40 0.8492
523.50 0.8487
523.60 0.8481
523.70 0.8475
523.80 0.8469
523.90 0.8463
524.00 0.8457
524.10 0.8451
524.20 0.8446
524.30 0.844
524.40 0.8434
524.50 0.8428
524.60 0.8422
524.70 0.8416
524.80 0.8411
524.90 0.8405
525.00 0.8399
525.10 0.8393
525.20 0.8387
525.30 0.8382
525.40 0.8376
525.50 0.837
525.60 0.8364
525.70 0.8359
525.80 0.8353
525.90 0.8347
526.00 0.8341
526.10 0.8336
526.20 0.833
526.30 0.8324
526.40 0.8318
526.50 0.8313
526.60 0.8307
526.70 0.8301
526.80 0.8295
526.90 0.829
527.00 0.8284
527.10 0.8278
527.20 0.8273
527.30 0.8267
527.40 0.8261
527.50 0.8256
527.60 0.825
527.70 0.8244
527.80 0.8239
527.90 0.8233
528.00 0.8227
528.10 0.8222
528.20 0.8216
528.30 0.821
528.40 0.8205
528.50 0.8199
528.60 0.8193
528.70 0.8188
528.80 0.8182
528.90 0.8177
529.00 0.8171
529.10 0.8165
529.20 0.816
529.30 0.8154
529.40 0.8149
529.50 0.8143
529.60 0.8137
529.70 0.8132
529.80 0.8126
529.90 0.8121
530.00 0.8115
530.10 0.811
530.20 0.8104
530.30 0.8099
530.40 0.8093
530.50 0.8088
530.60 0.8082
530.70 0.8076
530.80 0.8071
530.90 0.8065
531.00 0.806
531.10 0.8054
531.20 0.8049
531.30 0.8043
531.40 0.8038
531.50 0.8032
531.60 0.8027
531.70 0.8021
531.80 0.8016
531.90 0.8011
532.00 0.8005
532.10 0.8
532.20 0.7994
532.30 0.7989
532.40 0.7983
532.50 0.7978
532.60 0.7972
532.70 0.7967
532.80 0.7962
532.90 0.7956
533.00 0.7951
533.10 0.7945
533.20 0.794
533.30 0.7934
533.40 0.7929
533.50 0.7924
533.60 0.7918
533.70 0.7913
533.80 0.7908
533.90 0.7902
534.00 0.7897
534.10 0.7891
534.20 0.7886
534.30 0.7881
534.40 0.7875
534.50 0.787
534.60 0.7865
534.70 0.7859
534.80 0.7854
534.90 0.7849
535.00 0.7843
535.10 0.7838
535.20 0.7833
535.30 0.7827
535.40 0.7822
535.50 0.7817
535.60 0.7811
535.70 0.7806
535.80 0.7801
535.90 0.7796
536.00 0.779
536.10 0.7785
536.20 0.778
536.30 0.7774
536.40 0.7769
536.50 0.7764
536.60 0.7759
536.70 0.7753
536.80 0.7748
536.90 0.7743
537.00 0.7738
537.10 0.7732
537.20 0.7727
537.30 0.7722
537.40 0.7717
537.50 0.7712
537.60 0.7706
537.70 0.7701
537.80 0.7696
537.90 0.7691
538.00 0.7686
538.10 0.768
538.20 0.7675
538.30 0.767
538.40 0.7665
538.50 0.766
538.60 0.7655
538.70 0.7649
538.80 0.7644
538.90 0.7639
539.00 0.7634
539.10 0.7629
539.20 0.7624
539.30 0.7619
539.40 0.7613
539.50 0.7608
539.60 0.7603
539.70 0.7598
539.80 0.7593
539.90 0.7588
540.00 0.7583
540.10 0.7578
540.20 0.7572
540.30 0.7567
540.40 0.7562
540.50 0.7557
540.60 0.7552
540.70 0.7547
540.80 0.7542
540.90 0.7537
541.00 0.7532
541.10 0.7527
541.20 0.7522
541.30 0.7517
541.40 0.7512
541.50 0.7507
541.60 0.7502
541.70 0.7497
541.80 0.7491
541.90 0.7486
542.00 0.7481
542.10 0.7476
542.20 0.7471
542.30 0.7466
542.40 0.7461
542.50 0.7456
542.60 0.7451
542.70 0.7446
542.80 0.7441
542.90 0.7436
543.00 0.7431
543.10 0.7426
543.20 0.7422
543.30 0.7417
543.40 0.7412
543.50 0.7407
543.60 0.7402
543.70 0.7397
543.80 0.7392
543.90 0.7387
544.00 0.7382
544.10 0.7377
544.20 0.7372
544.30 0.7367
544.40 0.7362
544.50 0.7357
544.60 0.7352
544.70 0.7347
544.80 0.7343
544.90 0.7338
545.00 0.7333
545.10 0.7328
545.20 0.7323
545.30 0.7318
545.40 0.7313
545.50 0.7308
545.60 0.7303
545.70 0.7299
545.80 0.7294
545.90 0.7289
546.00 0.7284
546.10 0.7279
546.20 0.7274
546.30 0.7269
546.40 0.7265
546.50 0.726
546.60 0.7255
546.70 0.725
546.80 0.7245
546.90 0.7241
547.00 0.7236
547.10 0.7231
547.20 0.7226
547.30 0.7221
547.40 0.7216
547.50 0.7212
547.60 0.7207
547.70 0.7202
547.80 0.7197
547.90 0.7193
548.00 0.7188
548.10 0.7183
548.20 0.7178
548.30 0.7173
548.40 0.7169
548.50 0.7164
548.60 0.7159
548.70 0.7154
548.80 0.715
548.90 0.7145
549.00 0.714
549.10 0.7135
549.20 0.7131
549.30 0.7126
549.40 0.7121
549.50 0.7117
549.60 0.7112
549.70 0.7107
549.80 0.7103
549.90 0.7098
550.00 0.7093
550.10 0.7088
550.20 0.7084
550.30 0.7079
550.40 0.7074
550.50 0.707
550.60 0.7065
550.70 0.706
550.80 0.7056
550.90 0.7051
551.00 0.7046
551.10 0.7042
551.20 0.7037
551.30 0.7032
551.40 0.7028
551.50 0.7023
551.60 0.7019
551.70 0.7014
551.80 0.7009
551.90 0.7005
552.00 0.7
552.10 0.6995
552.20 0.6991
552.30 0.6986
552.40 0.6982
552.50 0.6977
552.60 0.6972
552.70 0.6968
552.80 0.6963
552.90 0.6959
553.00 0.6954
553.10 0.6949
553.20 0.6945
553.30 0.694
553.40 0.6936
553.50 0.6931
553.60 0.6927
553.70 0.6922
553.80 0.6918
553.90 0.6913
554.00 0.6908
554.10 0.6904
554.20 0.6899
554.30 0.6895
554.40 0.689
554.50 0.6886
554.60 0.6881
554.70 0.6877
554.80 0.6872
554.90 0.6868
555.00 0.6863
555.10 0.6859
555.20 0.6854
555.30 0.685
555.40 0.6845
555.50 0.6841
555.60 0.6836
555.70 0.6832
555.80 0.6827
555.90 0.6823
556.00 0.6818
556.10 0.6814
556.20 0.6809
556.30 0.6805
556.40 0.6801
556.50 0.6796
556.60 0.6792
556.70 0.6787
556.80 0.6783
556.90 0.6778
557.00 0.6774
557.10 0.6769
557.20 0.6765
557.30 0.6761
557.40 0.6756
557.50 0.6752
557.60 0.6747
557.70 0.6743
557.80 0.6739
557.90 0.6734
558.00 0.673
558.10 0.6725
558.20 0.6721
558.30 0.6717
558.40 0.6712
558.50 0.6708
558.60 0.6703
558.70 0.6699
558.80 0.6695
558.90 0.669
559.00 0.6686
559.10 0.6682
559.20 0.6677
559.30 0.6673
559.40 0.6669
559.50 0.6664
559.60 0.666
559.70 0.6656
559.80 0.6651
559.90 0.6647
560.00 0.6643
560.10 0.6638
560.20 0.6634
560.30 0.663
560.40 0.6625
560.50 0.6621
560.60 0.6617
560.70 0.6612
560.80 0.6608
560.90 0.6604
561.00 0.66
561.10 0.6595
561.20 0.6591
561.30 0.6587
561.40 0.6582
561.50 0.6578
561.60 0.6574
561.70 0.657
561.80 0.6565
561.90 0.6561
562.00 0.6557
562.10 0.6553
562.20 0.6548
562.30 0.6544
562.40 0.654
562.50 0.6536
562.60 0.6531
562.70 0.6527
562.80 0.6523
562.90 0.6519
563.00 0.6514
563.10 0.651
563.20 0.6506
563.30 0.6502
563.40 0.6498
563.50 0.6493
563.60 0.6489
563.70 0.6485
563.80 0.6481
563.90 0.6477
564.00 0.6472
564.10 0.6468
564.20 0.6464
564.30 0.646
564.40 0.6456
564.50 0.6452
564.60 0.6447
564.70 0.6443
564.80 0.6439
564.90 0.6435
565.00 0.6431
565.10 0.6427
565.20 0.6423
565.30 0.6418
565.40 0.6414
565.50 0.641
565.60 0.6406
565.70 0.6402
565.80 0.6398
565.90 0.6394
566.00 0.6389
566.10 0.6385
566.20 0.6381
566.30 0.6377
566.40 0.6373
566.50 0.6369
566.60 0.6365
566.70 0.6361
566.80 0.6357
566.90 0.6353
567.00 0.6348
567.10 0.6344
567.20 0.634
567.30 0.6336
567.40 0.6332
567.50 0.6328
567.60 0.6324
567.70 0.632
567.80 0.6316
567.90 0.6312
568.00 0.6308
568.10 0.6304
568.20 0.63
568.30 0.6296
568.40 0.6292
568.50 0.6288
568.60 0.6284
568.70 0.628
568.80 0.6275
568.90 0.6271
569.00 0.6267
569.10 0.6263
569.20 0.6259
569.30 0.6255
569.40 0.6251
569.50 0.6247
569.60 0.6243
569.70 0.6239
569.80 0.6235
569.90 0.6231
570.00 0.6227
570.10 0.6223
570.20 0.6219
570.30 0.6215
570.40 0.6212
570.50 0.6208
570.60 0.6204
570.70 0.62
570.80 0.6196
570.90 0.6192
571.00 0.6188
571.10 0.6184
571.20 0.618
571.30 0.6176
571.40 0.6172
571.50 0.6168
571.60 0.6164
571.70 0.616
571.80 0.6156
571.90 0.6152
572.00 0.6148
572.10 0.6144
572.20 0.6141
572.30 0.6137
572.40 0.6133
572.50 0.6129
572.60 0.6125
572.70 0.6121
572.80 0.6117
572.90 0.6113
573.00 0.6109
573.10 0.6105
573.20 0.6101
573.30 0.6098
573.40 0.6094
573.50 0.609
573.60 0.6086
573.70 0.6082
573.80 0.6078
573.90 0.6074
574.00 0.6071
574.10 0.6067
574.20 0.6063
574.30 0.6059
574.40 0.6055
574.50 0.6051
574.60 0.6047
574.70 0.6044
574.80 0.604
574.90 0.6036
575.00 0.6032
575.10 0.6028
575.20 0.6024
575.30 0.6021
575.40 0.6017
575.50 0.6013
575.60 0.6009
575.70 0.6005
575.80 0.6002
575.90 0.5998
576.00 0.5994
576.10 0.599
576.20 0.5986
576.30 0.5983
576.40 0.5979
576.50 0.5975
576.60 0.5971
576.70 0.5967
576.80 0.5964
576.90 0.596
577.00 0.5956
577.10 0.5952
577.20 0.5949
577.30 0.5945
577.40 0.5941
577.50 0.5937
577.60 0.5934
577.70 0.593
577.80 0.5926
577.90 0.5922
578.00 0.5919
578.10 0.5915
578.20 0.5911
578.30 0.5907
578.40 0.5904
578.50 0.59
578.60 0.5896
578.70 0.5892
578.80 0.5889
578.90 0.5885
579.00 0.5881
579.10 0.5878
579.20 0.5874
579.30 0.587
579.40 0.5866
579.50 0.5863
579.60 0.5859
579.70 0.5855
579.80 0.5852
579.90 0.5848
580.00 0.5844
580.10 0.5841
580.20 0.5837
580.30 0.5833
580.40 0.583
580.50 0.5826
580.60 0.5822
580.70 0.5819
580.80 0.5815
580.90 0.5811
581.00 0.5808
581.10 0.5804
581.20 0.58
581.30 0.5797
581.40 0.5793
581.50 0.5789
581.60 0.5786
581.70 0.5782
581.80 0.5779
581.90 0.5775
582.00 0.5771
582.10 0.5768
582.20 0.5764
582.30 0.576
582.40 0.5757
582.50 0.5753
582.60 0.575
582.70 0.5746
582.80 0.5742
582.90 0.5739
583.00 0.5735
583.10 0.5732
583.20 0.5728
583.30 0.5724
583.40 0.5721
583.50 0.5717
583.60 0.5714
583.70 0.571
583.80 0.5707
583.90 0.5703
584.00 0.5699
584.10 0.5696
584.20 0.5692
584.30 0.5689
584.40 0.5685
584.50 0.5682
584.60 0.5678
584.70 0.5674
584.80 0.5671
584.90 0.5667
585.00 0.5664
585.10 0.566
585.20 0.5657
585.30 0.5653
585.40 0.565
585.50 0.5646
585.60 0.5643
585.70 0.5639
585.80 0.5636
585.90 0.5632
586.00 0.5629
586.10 0.5625
586.20 0.5622
586.30 0.5618
586.40 0.5615
586.50 0.5611
586.60 0.5608
586.70 0.5604
586.80 0.5601
586.90 0.5597
587.00 0.5594
587.10 0.559
587.20 0.5587
587.30 0.5583
587.40 0.558
587.50 0.5576
587.60 0.5573
587.70 0.5569
587.80 0.5566
587.90 0.5562
588.00 0.5559
588.10 0.5555
588.20 0.5552
588.30 0.5549
588.40 0.5545
588.50 0.5542
588.60 0.5538
588.70 0.5535
588.80 0.5531
588.90 0.5528
589.00 0.5524
589.10 0.5521
589.20 0.5518
589.30 0.5514
589.40 0.5511
589.50 0.5507
589.60 0.5504
589.70 0.5501
589.80 0.5497
589.90 0.5494
590.00 0.549
590.10 0.5487
590.20 0.5484
590.30 0.548
590.40 0.5477
590.50 0.5473
590.60 0.547
590.70 0.5467
590.80 0.5463
590.90 0.546
591.00 0.5456
591.10 0.5453
591.20 0.545
591.30 0.5446
591.40 0.5443
591.50 0.544
591.60 0.5436
591.70 0.5433
591.80 0.5429
591.90 0.5426
592.00 0.5423
592.10 0.5419
592.20 0.5416
592.30 0.5413
592.40 0.5409
592.50 0.5406
592.60 0.5403
592.70 0.5399
592.80 0.5396
592.90 0.5393
593.00 0.5389
593.10 0.5386
593.20 0.5383
593.30 0.5379
593.40 0.5376
593.50 0.5373
593.60 0.5369
593.70 0.5366
593.80 0.5363
593.90 0.536
594.00 0.5356
594.10 0.5353
594.20 0.535
594.30 0.5346
594.40 0.5343
594.50 0.534
594.60 0.5337
594.70 0.5333
594.80 0.533
594.90 0.5327
595.00 0.5323
595.10 0.532
595.20 0.5317
595.30 0.5314
595.40 0.531
595.50 0.5307
595.60 0.5304
595.70 0.5301
595.80 0.5297
595.90 0.5294
596.00 0.5291
596.10 0.5288
596.20 0.5284
596.30 0.5281
596.40 0.5278
596.50 0.5275
596.60 0.5271
596.70 0.5268
596.80 0.5265
596.90 0.5262
597.00 0.5258
597.10 0.5255
597.20 0.5252
597.30 0.5249
597.40 0.5246
597.50 0.5242
597.60 0.5239
597.70 0.5236
597.80 0.5233
597.90 0.5229
598.00 0.5226
598.10 0.5223
598.20 0.522
598.30 0.5217
598.40 0.5214
598.50 0.521
598.60 0.5207
598.70 0.5204
598.80 0.5201
598.90 0.5198
599.00 0.5194
599.10 0.5191
599.20 0.5188
599.30 0.5185
599.40 0.5182
599.50 0.5179
599.60 0.5175
599.70 0.5172
599.80 0.5169
599.90 0.5166
600.00 0.5163
600.10 0.516
600.20 0.5156
600.30 0.5153
600.40 0.515
600.50 0.5147
600.60 0.5144
600.70 0.5141
600.80 0.5138
600.90 0.5135
601.00 0.5131
601.10 0.5128
601.20 0.5125
601.30 0.5122
601.40 0.5119
601.50 0.5116
601.60 0.5113
601.70 0.511
601.80 0.5106
601.90 0.5103
602.00 0.51
602.10 0.5097
602.20 0.5094
602.30 0.5091
602.40 0.5088
602.50 0.5085
602.60 0.5082
602.70 0.5079
602.80 0.5076
602.90 0.5072
603.00 0.5069
603.10 0.5066
603.20 0.5063
603.30 0.506
603.40 0.5057
603.50 0.5054
603.60 0.5051
603.70 0.5048
603.80 0.5045
603.90 0.5042
604.00 0.5039
604.10 0.5036
604.20 0.5033
604.30 0.5029
604.40 0.5026
604.50 0.5023
604.60 0.502
604.70 0.5017
604.80 0.5014
604.90 0.5011
605.00 0.5008
605.10 0.5005
605.20 0.5002
605.30 0.4999
605.40 0.4996
605.50 0.4993
605.60 0.499
605.70 0.4987
605.80 0.4984
605.90 0.4981
606.00 0.4978
606.10 0.4975
606.20 0.4972
606.30 0.4969
606.40 0.4966
606.50 0.4963
606.60 0.496
606.70 0.4957
606.80 0.4954
606.90 0.4951
607.00 0.4948
607.10 0.4945
607.20 0.4942
607.30 0.4939
607.40 0.4936
607.50 0.4933
607.60 0.493
607.70 0.4927
607.80 0.4924
607.90 0.4921
608.00 0.4918
608.10 0.4915
608.20 0.4912
608.30 0.4909
608.40 0.4906
608.50 0.4903
608.60 0.49
608.70 0.4897
608.80 0.4895
608.90 0.4892
609.00 0.4889
609.10 0.4886
609.20 0.4883
609.30 0.488
609.40 0.4877
609.50 0.4874
609.60 0.4871
609.70 0.4868
609.80 0.4865
609.90 0.4862
610.00 0.4859
610.10 0.4856
610.20 0.4853
610.30 0.4851
610.40 0.4848
610.50 0.4845
610.60 0.4842
610.70 0.4839
610.80 0.4836
610.90 0.4833
611.00 0.483
611.10 0.4827
611.20 0.4824
611.30 0.4821
611.40 0.4819
611.50 0.4816
611.60 0.4813
611.70 0.481
611.80 0.4807
611.90 0.4804
612.00 0.4801
612.10 0.4798
612.20 0.4796
612.30 0.4793
612.40 0.479
612.50 0.4787
612.60 0.4784
612.70 0.4781
612.80 0.4778
612.90 0.4775
613.00 0.4773
613.10 0.477
613.20 0.4767
613.30 0.4764
613.40 0.4761
613.50 0.4758
613.60 0.4756
613.70 0.4753
613.80 0.475
613.90 0.4747
614.00 0.4744
614.10 0.4741
614.20 0.4738
614.30 0.4736
614.40 0.4733
614.50 0.473
614.60 0.4727
614.70 0.4724
614.80 0.4722
614.90 0.4719
615.00 0.4716
615.10 0.4713
615.20 0.471
615.30 0.4707
615.40 0.4705
615.50 0.4702
615.60 0.4699
615.70 0.4696
615.80 0.4693
615.90 0.4691
616.00 0.4688
616.10 0.4685
616.20 0.4682
616.30 0.4679
616.40 0.4677
616.50 0.4674
616.60 0.4671
616.70 0.4668
616.80 0.4666
616.90 0.4663
617.00 0.466
617.10 0.4657
617.20 0.4654
617.30 0.4652
617.40 0.4649
617.50 0.4646
617.60 0.4643
617.70 0.4641
617.80 0.4638
617.90 0.4635
618.00 0.4632
618.10 0.463
618.20 0.4627
618.30 0.4624
618.40 0.4621
618.50 0.4619
618.60 0.4616
618.70 0.4613
618.80 0.461
618.90 0.4608
619.00 0.4605
619.10 0.4602
619.20 0.4599
619.30 0.4597
619.40 0.4594
619.50 0.4591
619.60 0.4588
619.70 0.4586
619.80 0.4583
619.90 0.458
620.00 0.4578
620.10 0.4575
620.20 0.4572
620.30 0.4569
620.40 0.4567
620.50 0.4564
620.60 0.4561
620.70 0.4559
620.80 0.4556
620.90 0.4553
621.00 0.4551
621.10 0.4548
621.20 0.4545
621.30 0.4542
621.40 0.454
621.50 0.4537
621.60 0.4534
621.70 0.4532
621.80 0.4529
621.90 0.4526
622.00 0.4524
622.10 0.4521
622.20 0.4518
622.30 0.4516
622.40 0.4513
622.50 0.451
622.60 0.4508
622.70 0.4505
622.80 0.4502
622.90 0.45
623.00 0.4497
623.10 0.4494
623.20 0.4492
623.30 0.4489
623.40 0.4486
623.50 0.4484
623.60 0.4481
623.70 0.4478
623.80 0.4476
623.90 0.4473
624.00 0.4471
624.10 0.4468
624.20 0.4465
624.30 0.4463
624.40 0.446
624.50 0.4457
624.60 0.4455
624.70 0.4452
624.80 0.4449
624.90 0.4447
625.00 0.4444
625.10 0.4442
625.20 0.4439
625.30 0.4436
625.40 0.4434
625.50 0.4431
625.60 0.4429
625.70 0.4426
625.80 0.4423
625.90 0.4421
626.00 0.4418
626.10 0.4415
626.20 0.4413
626.30 0.441
626.40 0.4408
626.50 0.4405
626.60 0.4403
626.70 0.44
626.80 0.4397
626.90 0.4395
627.00 0.4392
627.10 0.439
627.20 0.4387
627.30 0.4384
627.40 0.4382
627.50 0.4379
627.60 0.4377
627.70 0.4374
627.80 0.4372
627.90 0.4369
628.00 0.4366
628.10 0.4364
628.20 0.4361
628.30 0.4359
628.40 0.4356
628.50 0.4354
628.60 0.4351
628.70 0.4348
628.80 0.4346
628.90 0.4343
629.00 0.4341
629.10 0.4338
629.20 0.4336
629.30 0.4333
629.40 0.4331
629.50 0.4328
629.60 0.4325
629.70 0.4323
629.80 0.432
629.90 0.4318
630.00 0.4315
630.10 0.4313
630.20 0.431
630.30 0.4308
630.40 0.4305
630.50 0.4303
630.60 0.43
630.70 0.4298
630.80 0.4295
630.90 0.4293
631.00 0.429
631.10 0.4287
631.20 0.4285
631.30 0.4282
631.40 0.428
631.50 0.4277
631.60 0.4275
631.70 0.4272
631.80 0.427
631.90 0.4267
632.00 0.4265
632.10 0.4262
632.20 0.426
632.30 0.4257
632.40 0.4255
632.50 0.4252
632.60 0.425
632.70 0.4247
632.80 0.4245
632.90 0.4242
633.00 0.424
633.10 0.4237
633.20 0.4235
633.30 0.4232
633.40 0.423
633.50 0.4227
633.60 0.4225
633.70 0.4222
633.80 0.422
633.90 0.4218
634.00 0.4215
634.10 0.4213
634.20 0.421
634.30 0.4208
634.40 0.4205
634.50 0.4203
634.60 0.42
634.70 0.4198
634.80 0.4195
634.90 0.4193
635.00 0.419
635.10 0.4188
635.20 0.4185
635.30 0.4183
635.40 0.418
635.50 0.4178
635.60 0.4176
635.70 0.4173
635.80 0.4171
635.90 0.4168
636.00 0.4166
636.10 0.4163
636.20 0.4161
636.30 0.4158
636.40 0.4156
636.50 0.4153
636.60 0.4151
636.70 0.4149
636.80 0.4146
636.90 0.4144
637.00 0.4141
637.10 0.4139
637.20 0.4136
637.30 0.4134
637.40 0.4131
637.50 0.4129
637.60 0.4126
637.70 0.4124
637.80 0.4122
637.90 0.4119
638.00 0.4117
638.10 0.4114
638.20 0.4112
638.30 0.4109
638.40 0.4107
638.50 0.4104
638.60 0.4102
638.70 0.41
638.80 0.4097
638.90 0.4095
639.00 0.4092
639.10 0.409
639.20 0.4087
639.30 0.4085
639.40 0.4083
639.50 0.408
639.60 0.4078
639.70 0.4075
639.80 0.4073
639.90 0.407
640.00 0.4068
640.10 0.4065
640.20 0.4063
640.30 0.4061
640.40 0.4058
640.50 0.4056
640.60 0.4053
640.70 0.4051
640.80 0.4048
640.90 0.4046
641.00 0.4044
641.10 0.4041
641.20 0.4039
641.30 0.4036
641.40 0.4034
641.50 0.4031
641.60 0.4029
641.70 0.4026
641.80 0.4024
641.90 0.4021
642.00 0.4019
642.10 0.4017
642.20 0.4014
642.30 0.4012
642.40 0.4009
642.50 0.4007
642.60 0.4004
642.70 0.4002
642.80 0.3999
642.90 0.3997
643.00 0.3994
643.10 0.3992
643.20 0.3989
643.30 0.3987
643.40 0.3984
643.50 0.3982
643.60 0.3979
643.70 0.3977
643.80 0.3974
643.90 0.3972
644.00 0.3969
644.10 0.3967
644.20 0.3964
644.30 0.3962
644.40 0.3959
644.50 0.3957
644.60 0.3954
644.70 0.3952
644.80 0.3949
644.90 0.3946
645.00 0.3944
645.10 0.3941
645.20 0.3939
645.30 0.3936
645.40 0.3933
645.50 0.3931
645.60 0.3928
645.70 0.3926
645.80 0.3923
645.90 0.392
646.00 0.3918
646.10 0.3915
646.20 0.3912
646.30 0.391
646.40 0.3907
646.50 0.3904
646.60 0.3901
646.70 0.3899
646.80 0.3896
646.90 0.3893
647.00 0.389
647.10 0.3887
647.20 0.3885
647.30 0.3882
647.40 0.3879
647.50 0.3876
647.60 0.3873
647.70 0.387
647.80 0.3867
647.90 0.3864
648.00 0.3861
648.10 0.3858
648.20 0.3855
648.30 0.3852
648.40 0.3849
648.50 0.3845
648.60 0.3842
648.70 0.3839
648.80 0.3835
648.90 0.3832
649.00 0.3829
649.10 0.3825
649.20 0.3822
649.30 0.3818
649.40 0.3815
649.50 0.3811
649.60 0.3807
649.70 0.3803
649.80 0.3799
649.90 0.3795
650.00 0.3791
650.10 0.3787
650.20 0.3783
650.30 0.3779
650.40 0.3774
650.50 0.3769
650.60 0.3764
650.70 0.376
650.80 0.3755
650.90 0.375
651.00 0.3745
651.10 0.374
651.20 0.3735
651.30 0.373
651.40 0.3723
651.50 0.3716
651.60 0.3709
651.70 0.3703
651.80 0.3696
651.90 0.3689
652.00 0.3682
652.10 0.3676
652.20 0.3669
652.30 0.3661
652.40 0.3651
652.50 0.3641
652.60 0.363
652.70 0.362
652.80 0.361
652.90 0.3599
653.00 0.3589
653.10 0.3579
653.20 0.3569
653.30 0.3557
653.40 0.354
653.50 0.3522
653.60 0.3505
653.70 0.3488
653.80 0.347
653.90 0.3453
654.00 0.3436
654.10 0.3418
654.20 0.3401
654.30 0.3382
654.40 0.3356
654.50 0.333
654.60 0.3303
654.70 0.3277
654.80 0.3249
654.90 0.3214
655.00 0.3179
655.10 0.3144
655.20 0.3109
655.30 0.3072
655.40 0.3028
655.50 0.2983
655.60 0.2932
655.70 0.2879
655.80 0.2817
655.90 0.2749
656.00 0.266
656.10 0.2564
656.20 0.2333
656.30 0.1655
656.40 0.2452
656.50 0.2597
656.60 0.2685
656.70 0.2767
656.80 0.2826
656.90 0.2883
657.00 0.293
657.10 0.2976
657.20 0.3017
657.30 0.3055
657.40 0.3087
657.50 0.3118
657.60 0.315
657.70 0.3181
657.80 0.3211
657.90 0.3233
658.00 0.3256
658.10 0.3278
658.20 0.33
658.30 0.332
658.40 0.3334
658.50 0.3347
658.60 0.336
658.70 0.3373
658.80 0.3386
658.90 0.3399
659.00 0.3412
659.10 0.3425
659.20 0.3438
659.30 0.345
659.40 0.3456
659.50 0.3462
659.60 0.3468
659.70 0.3474
659.80 0.348
659.90 0.3486
660.00 0.3492
660.10 0.3498
660.20 0.3504
660.30 0.3509
660.40 0.3512
660.50 0.3514
660.60 0.3516
660.70 0.3519
660.80 0.3521
660.90 0.3524
661.00 0.3526
661.10 0.3528
661.20 0.3531
661.30 0.3533
661.40 0.3534
661.50 0.3534
661.60 0.3535
661.70 0.3535
661.80 0.3536
661.90 0.3536
662.00 0.3537
662.10 0.3538
662.20 0.3538
662.30 0.3539
662.40 0.3538
662.50 0.3538
662.60 0.3537
662.70 0.3537
662.80 0.3537
662.90 0.3536
663.00 0.3536
663.10 0.3535
663.20 0.3535
663.30 0.3534
663.40 0.3534
663.50 0.3533
663.60 0.3532
663.70 0.3531
663.80 0.353
663.90 0.3529
664.00 0.3528
664.10 0.3527
664.20 0.3526
664.30 0.3525
664.40 0.3524
664.50 0.3522
664.60 0.3521
664.70 0.352
664.80 0.3519
664.90 0.3517
665.00 0.3516
665.10 0.3515
665.20 0.3514
665.30 0.3512
665.40 0.3511
665.50 0.3509
665.60 0.3508
665.70 0.3506
665.80 0.3505
665.90 0.3503
666.00 0.3502
666.10 0.3501
666.20 0.3499
666.30 0.3498
666.40 0.3496
666.50 0.3494
666.60 0.3493
666.70 0.3491
666.80 0.349
666.90 0.3488
667.00 0.3486
667.10 0.3485
667.20 0.3483
667.30 0.3482
667.40 0.348
667.50 0.3478
667.60 0.3477
667.70 0.3475
667.80 0.3473
667.90 0.3472
668.00 0.347
668.10 0.3468
668.20 0.3467
668.30 0.3465
668.40 0.3463
668.50 0.3462
668.60 0.346
668.70 0.3458
668.80 0.3456
668.90 0.3455
669.00 0.3453
669.10 0.3451
669.20 0.345
669.30 0.3448
669.40 0.3446
669.50 0.3444
669.60 0.3443
669.70 0.3441
669.80 0.3439
669.90 0.3437
670.00 0.3436
670.10 0.3434
670.20 0.3432
670.30 0.343
670.40 0.3429
670.50 0.3427
670.60 0.3425
670.70 0.3423
670.80 0.3422
670.90 0.342
671.00 0.3418
671.10 0.3416
671.20 0.3414
671.30 0.3413
671.40 0.3411
671.50 0.3409
671.60 0.3407
671.70 0.3406
671.80 0.3404
671.90 0.3402
672.00 0.34
672.10 0.3399
672.20 0.3397
672.30 0.3395
672.40 0.3393
672.50 0.3391
672.60 0.339
672.70 0.3388
672.80 0.3386
672.90 0.3384
673.00 0.3382
673.10 0.3381
673.20 0.3379
673.30 0.3377
673.40 0.3375
673.50 0.3374
673.60 0.3372
673.70 0.337
673.80 0.3368
673.90 0.3366
674.00 0.3365
674.10 0.3363
674.20 0.3361
674.30 0.3359
674.40 0.3357
674.50 0.3356
674.60 0.3354
674.70 0.3352
674.80 0.335
674.90 0.3349
675.00 0.3347
675.10 0.3345
675.20 0.3343
675.30 0.3341
675.40 0.334
675.50 0.3338
675.60 0.3336
675.70 0.3334
675.80 0.3333
675.90 0.3331
676.00 0.3329
676.10 0.3327
676.20 0.3325
676.30 0.3324
676.40 0.3322
676.50 0.332
676.60 0.3318
676.70 0.3317
676.80 0.3315
676.90 0.3313
677.00 0.3311
677.10 0.3309
677.20 0.3308
677.30 0.3306
677.40 0.3304
677.50 0.3302
677.60 0.3301
677.70 0.3299
677.80 0.3297
677.90 0.3295
678.00 0.3294
678.10 0.3292
678.20 0.329
678.30 0.3288
678.40 0.3287
678.50 0.3285
678.60 0.3283
678.70 0.3281
678.80 0.328
678.90 0.3278
679.00 0.3276
679.10 0.3274
679.20 0.3272
679.30 0.3271
679.40 0.3269
679.50 0.3267
679.60 0.3265
679.70 0.3264
679.80 0.3262
679.90 0.326
680.00 0.3258
680.10 0.3257
680.20 0.3255
680.30 0.3253
680.40 0.3251
680.50 0.325
680.60 0.3248
680.70 0.3246
680.80 0.3245
680.90 0.3243
681.00 0.3241
681.10 0.3239
681.20 0.3238
681.30 0.3236
681.40 0.3234
681.50 0.3232
681.60 0.3231
681.70 0.3229
681.80 0.3227
681.90 0.3225
682.00 0.3224
682.10 0.3222
682.20 0.322
682.30 0.3219
682.40 0.3217
682.50 0.3215
682.60 0.3213
682.70 0.3212
682.80 0.321
682.90 0.3208
683.00 0.3206
683.10 0.3205
683.20 0.3203
683.30 0.3201
683.40 0.32
683.50 0.3198
683.60 0.3196
683.70 0.3194
683.80 0.3193
683.90 0.3191
684.00 0.3189
684.10 0.3188
684.20 0.3186
684.30 0.3184
684.40 0.3182
684.50 0.3181
684.60 0.3179
684.70 0.3177
684.80 0.3176
684.90 0.3174
685.00 0.3172
685.10 0.3171
685.20 0.3169
685.30 0.3167
685.40 0.3165
685.50 0.3164
685.60 0.3162
685.70 0.316
685.80 0.3159
685.90 0.3157
686.00 0.3155
686.10 0.3154
686.20 0.3152
686.30 0.315
686.40 0.3149
686.50 0.3147
686.60 0.3145
686.70 0.3144
686.80 0.3142
686.90 0.314
687.00 0.3139
687.10 0.3137
687.20 0.3135
687.30 0.3133
687.40 0.3132
687.50 0.313
687.60 0.3128
687.70 0.3127
687.80 0.3125
687.90 0.3123
688.00 0.3122
688.10 0.312
688.20 0.3118
688.30 0.3117
688.40 0.3115
688.50 0.3113
688.60 0.3112
688.70 0.311
688.80 0.3108
688.90 0.3107
689.00 0.3105
689.10 0.3103
689.20 0.3102
689.30 0.31
689.40 0.3099
689.50 0.3097
689.60 0.3095
689.70 0.3094
689.80 0.3092
689.90 0.309
690.00 0.3089
690.10 0.3087
690.20 0.3085
690.30 0.3084
690.40 0.3082
690.50 0.308
690.60 0.3079
690.70 0.3077
690.80 0.3076
690.90 0.3074
691.00 0.3072
691.10 0.3071
691.20 0.3069
691.30 0.3067
691.40 0.3066
691.50 0.3064
691.60 0.3063
691.70 0.3061
691.80 0.3059
691.90 0.3058
692.00 0.3056
692.10 0.3054
692.20 0.3053
692.30 0.3051
692.40 0.305
692.50 0.3048
692.60 0.3046
692.70 0.3045
692.80 0.3043
692.90 0.3041
693.00 0.304
693.10 0.3038
693.20 0.3037
693.30 0.3035
693.40 0.3033
693.50 0.3032
693.60 0.303
693.70 0.3028
693.80 0.3027
693.90 0.3025
694.00 0.3024
694.10 0.3022
694.20 0.302
694.30 0.3019
694.40 0.3017
694.50 0.3016
694.60 0.3014
694.70 0.3012
694.80 0.3011
694.90 0.3009
695.00 0.3008
695.10 0.3006
695.20 0.3004
695.30 0.3003
695.40 0.3001
695.50 0.3
695.60 0.2998
695.70 0.2997
695.80 0.2995
695.90 0.2993
696.00 0.2992
696.10 0.299
696.20 0.2989
696.30 0.2987
696.40 0.2985
696.50 0.2984
696.60 0.2982
696.70 0.2981
696.80 0.2979
696.90 0.2978
697.00 0.2976
697.10 0.2974
697.20 0.2973
697.30 0.2971
697.40 0.297
697.50 0.2968
697.60 0.2967
697.70 0.2965
697.80 0.2963
697.90 0.2962
698.00 0.296
698.10 0.2959
698.20 0.2957
698.30 0.2956
698.40 0.2954
698.50 0.2952
698.60 0.2951
698.70 0.2949
698.80 0.2948
698.90 0.2946
699.00 0.2945
699.10 0.2943
699.20 0.2942
699.30 0.294
699.40 0.2938
699.50 0.2937
699.60 0.2935
699.70 0.2934
699.80 0.2932
699.90 0.2931
700.00 0.2929
700.10 0.2928
700.20 0.2926
700.30 0.2925
700.40 0.2923
700.50 0.2921
700.60 0.292
700.70 0.2918
700.80 0.2917
700.90 0.2915
701.00 0.2914
701.10 0.2912
701.20 0.2911
701.30 0.2909
701.40 0.2908
701.50 0.2906
701.60 0.2905
701.70 0.2903
701.80 0.2902
701.90 0.29
702.00 0.2899
702.10 0.2897
702.20 0.2896
702.30 0.2894
702.40 0.2892
702.50 0.2891
702.60 0.2889
702.70 0.2888
702.80 0.2886
702.90 0.2885
703.00 0.2883
703.10 0.2882
703.20 0.288
703.30 0.2879
703.40 0.2877
703.50 0.2876
703.60 0.2874
703.70 0.2873
703.80 0.2871
703.90 0.287
704.00 0.2868
704.10 0.2867
704.20 0.2865
704.30 0.2864
704.40 0.2862
704.50 0.2861
704.60 0.2859
704.70 0.2858
704.80 0.2856
704.90 0.2855
705.00 0.2853
705.10 0.2852
705.20 0.285
705.30 0.2849
705.40 0.2847
705.50 0.2846
705.60 0.2844
705.70 0.2843
705.80 0.2841
705.90 0.284
706.00 0.2838
706.10 0.2837
706.20 0.2835
706.30 0.2834
706.40 0.2832
706.50 0.2831
706.60 0.283
706.70 0.2828
706.80 0.2827
706.90 0.2825
707.00 0.2824
707.10 0.2822
707.20 0.2821
707.30 0.2819
707.40 0.2818
707.50 0.2816
707.60 0.2815
707.70 0.2813
707.80 0.2812
707.90 0.281
708.00 0.2809
708.10 0.2807
708.20 0.2806
708.30 0.2805
708.40 0.2803
708.50 0.2802
708.60 0.28
708.70 0.2799
708.80 0.2797
708.90 0.2796
709.00 0.2794
709.10 0.2793
709.20 0.2791
709.30 0.279
709.40 0.2788
709.50 0.2787
709.60 0.2786
709.70 0.2784
709.80 0.2783
709.90 0.2781
710.00 0.278
710.10 0.2778
710.20 0.2777
710.30 0.2775
710.40 0.2774
710.50 0.2773
710.60 0.2771
710.70 0.277
710.80 0.2768
710.90 0.2767
711.00 0.2765
711.10 0.2764
711.20 0.2762
711.30 0.2761
711.40 0.276
711.50 0.2758
711.60 0.2757
711.70 0.2755
711.80 0.2754
711.90 0.2752
712.00 0.2751
712.10 0.275
712.20 0.2748
712.30 0.2747
712.40 0.2745
712.50 0.2744
712.60 0.2743
712.70 0.2741
712.80 0.274
712.90 0.2738
713.00 0.2737
713.10 0.2735
713.20 0.2734
713.30 0.2733
713.40 0.2731
713.50 0.273
713.60 0.2728
713.70 0.2727
713.80 0.2725
713.90 0.2724
714.00 0.2723
714.10 0.2721
714.20 0.272
714.30 0.2718
714.40 0.2717
714.50 0.2716
714.60 0.2714
714.70 0.2713
714.80 0.2711
714.90 0.271
715.00 0.2709
715.10 0.2707
715.20 0.2706
715.30 0.2704
715.40 0.2703
715.50 0.2702
715.60 0.27
715.70 0.2699
715.80 0.2697
715.90 0.2696
716.00 0.2695
716.10 0.2693
716.20 0.2692
716.30 0.269
716.40 0.2689
716.50 0.2688
716.60 0.2686
716.70 0.2685
716.80 0.2684
716.90 0.2682
717.00 0.2681
717.10 0.2679
717.20 0.2678
717.30 0.2677
717.40 0.2675
717.50 0.2674
717.60 0.2673
717.70 0.2671
717.80 0.267
717.90 0.2668
718.00 0.2667
718.10 0.2666
718.20 0.2664
718.30 0.2663
718.40 0.2662
718.50 0.266
718.60 0.2659
718.70 0.2657
718.80 0.2656
718.90 0.2655
719.00 0.2653
719.10 0.2652
719.20 0.2651
719.30 0.2649
719.40 0.2648
719.50 0.2646
719.60 0.2645
719.70 0.2644
719.80 0.2642
719.90 0.2641
720.00 0.264
720.10 0.2638
720.20 0.2637
720.30 0.2636
720.40 0.2634
720.50 0.2633
720.60 0.2632
720.70 0.263
720.80 0.2629
720.90 0.2628
721.00 0.2626
721.10 0.2625
721.20 0.2623
721.30 0.2622
721.40 0.2621
721.50 0.2619
721.60 0.2618
721.70 0.2617
721.80 0.2615
721.90 0.2614
722.00 0.2613
722.10 0.2611
722.20 0.261
722.30 0.2609
722.40 0.2607
722.50 0.2606
722.60 0.2605
722.70 0.2603
722.80 0.2602
722.90 0.2601
723.00 0.2599
723.10 0.2598
723.20 0.2597
723.30 0.2595
723.40 0.2594
723.50 0.2593
723.60 0.2591
723.70 0.259
723.80 0.2589
723.90 0.2587
724.00 0.2586
724.10 0.2585
724.20 0.2584
724.30 0.2582
724.40 0.2581
724.50 0.258
724.60 0.2578
724.70 0.2577
724.80 0.2576
724.90 0.2574
725.00 0.2573
725.10 0.2572
725.20 0.257
725.30 0.2569
725.40 0.2568
725.50 0.2566
725.60 0.2565
725.70 0.2564
725.80 0.2562
725.90 0.2561
726.00 0.256
726.10 0.2559
726.20 0.2557
726.30 0.2556
726.40 0.2555
726.50 0.2553
726.60 0.2552
726.70 0.2551
726.80 0.255
726.90 0.2548
727.00 0.2547
727.10 0.2546
727.20 0.2544
727.30 0.2543
727.40 0.2542
727.50 0.254
727.60 0.2539
727.70 0.2538
727.80 0.2537
727.90 0.2535
728.00 0.2534
728.10 0.2533
728.20 0.2531
728.30 0.253
728.40 0.2529
728.50 0.2528
728.60 0.2526
728.70 0.2525
728.80 0.2524
728.90 0.2522
729.00 0.2521
729.10 0.252
729.20 0.2519
729.30 0.2517
729.40 0.2516
729.50 0.2515
729.60 0.2513
729.70 0.2512
729.80 0.2511
729.90 0.251
730.00 0.2508
730.10 0.2507
730.20 0.2506
730.30 0.2505
730.40 0.2503
730.50 0.2502
730.60 0.2501
730.70 0.25
730.80 0.2498
730.90 0.2497
731.00 0.2496
731.10 0.2494
731.20 0.2493
731.30 0.2492
731.40 0.2491
731.50 0.2489
731.60 0.2488
731.70 0.2487
731.80 0.2486
731.90 0.2484
732.00 0.2483
732.10 0.2482
732.20 0.2481
732.30 0.2479
732.40 0.2478
732.50 0.2477
732.60 0.2476
732.70 0.2474
732.80 0.2473
732.90 0.2472
733.00 0.2471
733.10 0.247
733.20 0.2468
733.30 0.2467
733.40 0.2466
733.50 0.2465
733.60 0.2463
733.70 0.2462
733.80 0.2461
733.90 0.246
734.00 0.2458
734.10 0.2457
734.20 0.2456
734.30 0.2455
734.40 0.2453
734.50 0.2452
734.60 0.2451
734.70 0.245
734.80 0.2448
734.90 0.2447
735.00 0.2446
735.10 0.2445
735.20 0.2444
735.30 0.2442
735.40 0.2441
735.50 0.244
735.60 0.2439
735.70 0.2437
735.80 0.2436
735.90 0.2435
736.00 0.2434
736.10 0.2432
736.20 0.2431
736.30 0.243
736.40 0.2429
736.50 0.2428
736.60 0.2426
736.70 0.2425
736.80 0.2424
736.90 0.2423
737.00 0.2421
737.10 0.242
737.20 0.2419
737.30 0.2418
737.40 0.2417
737.50 0.2415
737.60 0.2414
737.70 0.2413
737.80 0.2412
737.90 0.241
738.00 0.2409
738.10 0.2408
738.20 0.2407
738.30 0.2406
738.40 0.2404
738.50 0.2403
738.60 0.2402
738.70 0.2401
738.80 0.24
738.90 0.2398
739.00 0.2397
739.10 0.2396
739.20 0.2395
739.30 0.2394
739.40 0.2392
739.50 0.2391
739.60 0.239
739.70 0.2389
739.80 0.2387
739.90 0.2386
740.00 0.2385
740.10 0.2384
740.20 0.2383
740.30 0.2382
740.40 0.238
740.50 0.2379
740.60 0.2378
740.70 0.2377
740.80 0.2376
740.90 0.2374
741.00 0.2373
741.10 0.2372
741.20 0.2371
741.30 0.237
741.40 0.2369
741.50 0.2367
741.60 0.2366
741.70 0.2365
741.80 0.2364
741.90 0.2363
742.00 0.2361
742.10 0.236
742.20 0.2359
742.30 0.2358
742.40 0.2357
742.50 0.2356
742.60 0.2354
742.70 0.2353
742.80 0.2352
742.90 0.2351
743.00 0.235
743.10 0.2349
743.20 0.2347
743.30 0.2346
743.40 0.2345
743.50 0.2344
743.60 0.2343
743.70 0.2342
743.80 0.234
743.90 0.2339
744.00 0.2338
744.10 0.2337
744.20 0.2336
744.30 0.2335
744.40 0.2333
744.50 0.2332
744.60 0.2331
744.70 0.233
744.80 0.2329
744.90 0.2328
745.00 0.2327
745.10 0.2325
745.20 0.2324
745.30 0.2323
745.40 0.2322
745.50 0.2321
745.60 0.232
745.70 0.2318
745.80 0.2317
745.90 0.2316
746.00 0.2315
746.10 0.2314
746.20 0.2313
746.30 0.2312
746.40 0.231
746.50 0.2309
746.60 0.2308
746.70 0.2307
746.80 0.2306
746.90 0.2305
747.00 0.2303
747.10 0.2302
747.20 0.2301
747.30 0.23
747.40 0.2299
747.50 0.2298
747.60 0.2297
747.70 0.2295
747.80 0.2294
747.90 0.2293
748.00 0.2292
748.10 0.2291
748.20 0.229
748.30 0.2289
748.40 0.2287
748.50 0.2286
748.60 0.2285
748.70 0.2284
748.80 0.2283
748.90 0.2282
749.00 0.2281
749.10 0.228
749.20 0.2278
749.30 0.2277
749.40 0.2276
749.50 0.2275
749.60 0.2274
749.70 0.2273
749.80 0.2272
749.90 0.227
750.00 0.2269
750.10 0.2268
750.20 0.2267
750.30 0.2266
750.40 0.2265
750.50 0.2264
750.60 0.2263
750.70 0.2262
750.80 0.226
750.90 0.2259
751.00 0.2258
751.10 0.2257
751.20 0.2256
751.30 0.2255
751.40 0.2254
751.50 0.2253
751.60 0.2252
751.70 0.225
751.80 0.2249
751.90 0.2248
752.00 0.2247
752.10 0.2246
752.20 0.2245
752.30 0.2244
752.40 0.2243
752.50 0.2242
752.60 0.2241
752.70 0.2239
752.80 0.2238
752.90 0.2237
753.00 0.2236
753.10 0.2235
753.20 0.2234
753.30 0.2233
753.40 0.2232
753.50 0.2231
753.60 0.223
753.70 0.2228
753.80 0.2227
753.90 0.2226
754.00 0.2225
754.10 0.2224
754.20 0.2223
754.30 0.2222
754.40 0.2221
754.50 0.222
754.60 0.2219
754.70 0.2218
754.80 0.2216
754.90 0.2215
755.00 0.2214
755.10 0.2213
755.20 0.2212
755.30 0.2211
755.40 0.221
755.50 0.2209
755.60 0.2208
755.70 0.2207
755.80 0.2206
755.90 0.2205
756.00 0.2203
756.10 0.2202
756.20 0.2201
756.30 0.22
756.40 0.2199
756.50 0.2198
756.60 0.2197
756.70 0.2196
756.80 0.2195
756.90 0.2194
757.00 0.2193
757.10 0.2192
757.20 0.219
757.30 0.2189
757.40 0.2188
757.50 0.2187
757.60 0.2186
757.70 0.2185
757.80 0.2184
757.90 0.2183
758.00 0.2182
758.10 0.2181
758.20 0.218
758.30 0.2179
758.40 0.2178
758.50 0.2177
758.60 0.2175
758.70 0.2174
758.80 0.2173
758.90 0.2172
759.00 0.2171
759.10 0.217
759.20 0.2169
759.30 0.2168
759.40 0.2167
759.50 0.2166
759.60 0.2165
759.70 0.2164
759.80 0.2163
759.90 0.2162
760.00 0.2161
760.10 0.2159
760.20 0.2158
760.30 0.2157
760.40 0.2156
760.50 0.2155
760.60 0.2154
760.70 0.2153
760.80 0.2152
760.90 0.2151
761.00 0.215
761.10 0.2149
761.20 0.2148
761.30 0.2147
761.40 0.2146
761.50 0.2145
761.60 0.2144
761.70 0.2143
761.80 0.2142
761.90 0.2141
762.00 0.214
762.10 0.2139
762.20 0.2138
762.30 0.2137
762.40 0.2136
762.50 0.2135
762.60 0.2133
762.70 0.2132
762.80 0.2131
762.90 0.213
763.00 0.2129
763.10 0.2128
763.20 0.2127
763.30 0.2126
763.40 0.2125
763.50 0.2124
763.60 0.2123
763.70 0.2122
763.80 0.2121
763.90 0.212
764.00 0.2119
764.10 0.2118
764.20 0.2117
764.30 0.2116
764.40 0.2115
764.50 0.2114
764.60 0.2113
764.70 0.2112
764.80 0.2111
764.90 0.211
765.00 0.2109
765.10 0.2108
765.20 0.2107
765.30 0.2106
765.40 0.2105
765.50 0.2104
765.60 0.2103
765.70 0.2102
765.80 0.2101
765.90 0.21
766.00 0.2099
766.10 0.2098
766.20 0.2097
766.30 0.2096
766.40 0.2095
766.50 0.2094
766.60 0.2092
766.70 0.2091
766.80 0.209
766.90 0.2089
767.00 0.2088
767.10 0.2087
767.20 0.2086
767.30 0.2085
767.40 0.2084
767.50 0.2083
767.60 0.2082
767.70 0.2081
767.80 0.208
767.90 0.2079
768.00 0.2078
768.10 0.2077
768.20 0.2076
768.30 0.2075
768.40 0.2074
768.50 0.2073
768.60 0.2072
768.70 0.2071
768.80 0.207
768.90 0.2069
769.00 0.2068
769.10 0.2067
769.20 0.2066
769.30 0.2065
769.40 0.2064
769.50 0.2063
769.60 0.2062
769.70 0.2061
769.80 0.206
769.90 0.2059
770.00 0.2058
770.10 0.2057
770.20 0.2056
770.30 0.2055
770.40 0.2054
770.50 0.2053
770.60 0.2052
770.70 0.2051
770.80 0.205
770.90 0.2049
771.00 0.2048
771.10 0.2047
771.20 0.2046
771.30 0.2045
771.40 0.2044
771.50 0.2043
771.60 0.2043
771.70 0.2042
771.80 0.2041
771.90 0.204
772.00 0.2039
772.10 0.2038
772.20 0.2037
772.30 0.2036
772.40 0.2035
772.50 0.2034
772.60 0.2033
772.70 0.2032
772.80 0.2031
772.90 0.203
773.00 0.2029
773.10 0.2028
773.20 0.2027
773.30 0.2026
773.40 0.2025
773.50 0.2024
773.60 0.2023
773.70 0.2022
773.80 0.2021
773.90 0.202
774.00 0.2019
774.10 0.2018
774.20 0.2017
774.30 0.2016
774.40 0.2015
774.50 0.2014
774.60 0.2013
774.70 0.2012
774.80 0.2011
774.90 0.201
775.00 0.201
775.10 0.2009
775.20 0.2008
775.30 0.2007
775.40 0.2006
775.50 0.2005
775.60 0.2004
775.70 0.2003
775.80 0.2002
775.90 0.2001
776.00 0.2
776.10 0.1999
776.20 0.1998
776.30 0.1997
776.40 0.1996
776.50 0.1995
776.60 0.1994
776.70 0.1993
776.80 0.1992
776.90 0.1991
777.00 0.199
777.10 0.1989
777.20 0.1988
777.30 0.1987
777.40 0.1987
777.50 0.1986
777.60 0.1985
777.70 0.1984
777.80 0.1983
777.90 0.1982
778.00 0.1981
778.10 0.198
778.20 0.1979
778.30 0.1978
778.40 0.1977
778.50 0.1976
778.60 0.1975
778.70 0.1974
778.80 0.1973
778.90 0.1972
779.00 0.1971
779.10 0.197
779.20 0.1969
779.30 0.1968
779.40 0.1968
779.50 0.1967
779.60 0.1966
779.70 0.1965
779.80 0.1964
779.90 0.1963
780.00 0.1962
780.10 0.1961
780.20 0.196
780.30 0.1959
780.40 0.1958
780.50 0.1957
780.60 0.1956
780.70 0.1955
780.80 0.1954
780.90 0.1954
781.00 0.1953
781.10 0.1952
781.20 0.1951
781.30 0.195
781.40 0.1949
781.50 0.1948
781.60 0.1947
781.70 0.1946
781.80 0.1945
781.90 0.1944
782.00 0.1943
782.10 0.1942
782.20 0.1942
782.30 0.1941
782.40 0.194
782.50 0.1939
782.60 0.1938
782.70 0.1937
782.80 0.1936
782.90 0.1935
783.00 0.1934
783.10 0.1933
783.20 0.1932
783.30 0.1931
783.40 0.1931
783.50 0.193
783.60 0.1929
783.70 0.1928
783.80 0.1927
783.90 0.1926
784.00 0.1925
784.10 0.1924
784.20 0.1923
784.30 0.1922
784.40 0.1921
784.50 0.1921
784.60 0.192
784.70 0.1919
784.80 0.1918
784.90 0.1917
785.00 0.1916
785.10 0.1915
785.20 0.1914
785.30 0.1913
785.40 0.1912
785.50 0.1911
785.60 0.1911
785.70 0.191
785.80 0.1909
785.90 0.1908
786.00 0.1907
786.10 0.1906
786.20 0.1905
786.30 0.1904
786.40 0.1903
786.50 0.1902
786.60 0.1902
786.70 0.1901
786.80 0.19
786.90 0.1899
787.00 0.1898
787.10 0.1897
787.20 0.1896
787.30 0.1895
787.40 0.1894
787.50 0.1893
787.60 0.1893
787.70 0.1892
787.80 0.1891
787.90 0.189
788.00 0.1889
788.10 0.1888
788.20 0.1887
788.30 0.1886
788.40 0.1885
788.50 0.1885
788.60 0.1884
788.70 0.1883
788.80 0.1882
788.90 0.1881
789.00 0.188
789.10 0.1879
789.20 0.1878
789.30 0.1877
789.40 0.1876
789.50 0.1876
789.60 0.1875
789.70 0.1874
789.80 0.1873
789.90 0.1872
790.00 0.1871
790.10 0.187
790.20 0.1869
790.30 0.1869
790.40 0.1868
790.50 0.1867
790.60 0.1866
790.70 0.1865
790.80 0.1864
790.90 0.1863
791.00 0.1862
791.10 0.1862
791.20 0.1861
791.30 0.186
791.40 0.1859
791.50 0.1858
791.60 0.1857
791.70 0.1856
791.80 0.1855
791.90 0.1855
792.00 0.1854
792.10 0.1853
792.20 0.1852
792.30 0.1851
792.40 0.185
792.50 0.1849
792.60 0.1849
792.70 0.1848
792.80 0.1847
792.90 0.1846
793.00 0.1845
793.10 0.1844
793.20 0.1843
793.30 0.1843
793.40 0.1842
793.50 0.1841
793.60 0.184
793.70 0.1839
793.80 0.1838
793.90 0.1837
794.00 0.1836
794.10 0.1836
794.20 0.1835
794.30 0.1834
794.40 0.1833
794.50 0.1832
794.60 0.1831
794.70 0.183
794.80 0.183
794.90 0.1829
795.00 0.1828
795.10 0.1827
795.20 0.1826
795.30 0.1825
795.40 0.1825
795.50 0.1824
795.60 0.1823
795.70 0.1822
795.80 0.1821
795.90 0.182
796.00 0.1819
796.10 0.1819
796.20 0.1818
796.30 0.1817
796.40 0.1816
796.50 0.1815
796.60 0.1814
796.70 0.1813
796.80 0.1813
796.90 0.1812
797.00 0.1811
797.10 0.181
797.20 0.1809
797.30 0.1808
797.40 0.1808
797.50 0.1807
797.60 0.1806
797.70 0.1805
797.80 0.1804
797.90 0.1803
798.00 0.1802
798.10 0.1802
798.20 0.1801
798.30 0.18
798.40 0.1799
798.50 0.1798
798.60 0.1797
798.70 0.1797
798.80 0.1796
798.90 0.1795
799.00 0.1794
799.10 0.1793
799.20 0.1792
799.30 0.1791
799.40 0.1791
799.50 0.179
799.60 0.1789
799.70 0.1788
799.80 0.1787
799.90 0.1786
800.00 0.1786
800.10 0.1785
800.20 0.1784
800.30 0.1783
800.40 0.1782
800.50 0.1782
800.60 0.1781
800.70 0.178
800.80 0.1779
800.90 0.1778
801.00 0.1777
801.10 0.1777
801.20 0.1776
801.30 0.1775
801.40 0.1774
801.50 0.1773
801.60 0.1772
801.70 0.1772
801.80 0.1771
801.90 0.177
802.00 0.1769
802.10 0.1768
802.20 0.1768
802.30 0.1767
802.40 0.1766
802.50 0.1765
802.60 0.1764
802.70 0.1763
802.80 0.1763
802.90 0.1762
803.00 0.1761
803.10 0.176
803.20 0.1759
803.30 0.1759
803.40 0.1758
803.50 0.1757
803.60 0.1756
803.70 0.1755
803.80 0.1755
803.90 0.1754
804.00 0.1753
804.10 0.1752
804.20 0.1751
804.30 0.175
804.40 0.175
804.50 0.1749
804.60 0.1748
804.70 0.1747
804.80 0.1746
804.90 0.1746
805.00 0.1745
805.10 0.1744
805.20 0.1743
805.30 0.1742
805.40 0.1742
805.50 0.1741
805.60 0.174
805.70 0.1739
805.80 0.1738
805.90 0.1738
806.00 0.1737
806.10 0.1736
806.20 0.1735
806.30 0.1734
806.40 0.1734
806.50 0.1733
806.60 0.1732
806.70 0.1731
806.80 0.173
806.90 0.173
807.00 0.1729
807.10 0.1728
807.20 0.1727
807.30 0.1726
807.40 0.1726
807.50 0.1725
807.60 0.1724
807.70 0.1723
807.80 0.1722
807.90 0.1722
808.00 0.1721
808.10 0.172
808.20 0.1719
808.30 0.1718
808.40 0.1718
808.50 0.1717
808.60 0.1716
808.70 0.1715
808.80 0.1714
808.90 0.1714
809.00 0.1713
809.10 0.1712
809.20 0.1711
809.30 0.171
809.40 0.171
809.50 0.1709
809.60 0.1708
809.70 0.1707
809.80 0.1707
809.90 0.1706
810.00 0.1705
810.10 0.1704
810.20 0.1703
810.30 0.1703
810.40 0.1702
810.50 0.1701
810.60 0.17
810.70 0.1699
810.80 0.1699
810.90 0.1698
811.00 0.1697
811.10 0.1696
811.20 0.1696
811.30 0.1695
811.40 0.1694
811.50 0.1693
811.60 0.1693
811.70 0.1692
811.80 0.1691
811.90 0.169
812.00 0.1689
812.10 0.1689
812.20 0.1688
812.30 0.1687
812.40 0.1686
812.50 0.1686
812.60 0.1685
812.70 0.1684
812.80 0.1683
812.90 0.1683
813.00 0.1682
813.10 0.1681
813.20 0.168
813.30 0.1679
813.40 0.1679
813.50 0.1678
813.60 0.1677
813.70 0.1676
813.80 0.1676
813.90 0.1675
814.00 0.1674
814.10 0.1673
814.20 0.1673
814.30 0.1672
814.40 0.1671
814.50 0.167
814.60 0.1669
814.70 0.1669
814.80 0.1668
814.90 0.1667
815.00 0.1666
815.10 0.1666
815.20 0.1665
815.30 0.1664
815.40 0.1663
815.50 0.1663
815.60 0.1662
815.70 0.1661
815.80 0.166
815.90 0.166
816.00 0.1659
816.10 0.1658
816.20 0.1657
816.30 0.1657
816.40 0.1656
816.50 0.1655
816.60 0.1654
816.70 0.1654
816.80 0.1653
816.90 0.1652
817.00 0.1651
817.10 0.1651
817.20 0.165
817.30 0.1649
817.40 0.1648
817.50 0.1648
817.60 0.1647
817.70 0.1646
817.80 0.1645
817.90 0.1644
818.00 0.1644
818.10 0.1643
818.20 0.1642
818.30 0.1641
818.40 0.1641
818.50 0.164
818.60 0.1639
818.70 0.1638
818.80 0.1638
818.90 0.1637
819.00 0.1636
819.10 0.1635
819.20 0.1635
819.30 0.1634
819.40 0.1633
819.50 0.1632
819.60 0.1632
819.70 0.1631
819.80 0.163
819.90 0.163
820.00 0.1629
820.10 0.1628
820.20 0.1627
820.30 0.1627
820.40 0.1626
820.50 0.1625
820.60 0.1624
820.70 0.1624
820.80 0.1623
820.90 0.1622
821.00 0.1621
821.10 0.1621
821.20 0.162
821.30 0.1619
821.40 0.1618
821.50 0.1618
821.60 0.1617
821.70 0.1616
821.80 0.1616
821.90 0.1615
822.00 0.1614
822.10 0.1613
822.20 0.1613
822.30 0.1612
822.40 0.1611
822.50 0.161
822.60 0.161
822.70 0.1609
822.80 0.1608
822.90 0.1607
823.00 0.1607
823.10 0.1606
823.20 0.1605
823.30 0.1605
823.40 0.1604
823.50 0.1603
823.60 0.1602
823.70 0.1602
823.80 0.1601
823.90 0.16
824.00 0.16
824.10 0.1599
824.20 0.1598
824.30 0.1597
824.40 0.1597
824.50 0.1596
824.60 0.1595
824.70 0.1594
824.80 0.1594
824.90 0.1593
825.00 0.1592
825.10 0.1592
825.20 0.1591
825.30 0.159
825.40 0.1589
825.50 0.1589
825.60 0.1588
825.70 0.1587
825.80 0.1587
825.90 0.1586
826.00 0.1585
826.10 0.1584
826.20 0.1584
826.30 0.1583
826.40 0.1582
826.50 0.1582
826.60 0.1581
826.70 0.158
826.80 0.1579
826.90 0.1579
827.00 0.1578
827.10 0.1577
827.20 0.1576
827.30 0.1576
827.40 0.1575
827.50 0.1574
827.60 0.1574
827.70 0.1573
827.80 0.1572
827.90 0.1571
828.00 0.1571
828.10 0.157
828.20 0.1569
828.30 0.1569
828.40 0.1568
828.50 0.1567
828.60 0.1566
828.70 0.1566
828.80 0.1565
828.90 0.1564
829.00 0.1564
829.10 0.1563
829.20 0.1562
829.30 0.1561
829.40 0.1561
829.50 0.156
829.60 0.1559
829.70 0.1559
829.80 0.1558
829.90 0.1557
830.00 0.1556
830.10 0.1556
830.20 0.1555
830.30 0.1554
830.40 0.1554
830.50 0.1553
830.60 0.1552
830.70 0.1552
830.80 0.1551
830.90 0.155
831.00 0.1549
831.10 0.1549
831.20 0.1548
831.30 0.1547
831.40 0.1547
831.50 0.1546
831.60 0.1545
831.70 0.1544
831.80 0.1544
831.90 0.1543
832.00 0.1542
832.10 0.1542
832.20 0.1541
832.30 0.154
832.40 0.1539
832.50 0.1539
832.60 0.1538
832.70 0.1537
832.80 0.1537
832.90 0.1536
833.00 0.1535
833.10 0.1535
833.20 0.1534
833.30 0.1533
833.40 0.1532
833.50 0.1532
833.60 0.1531
833.70 0.153
833.80 0.153
833.90 0.1529
834.00 0.1528
834.10 0.1527
834.20 0.1527
834.30 0.1526
834.40 0.1525
834.50 0.1525
834.60 0.1524
834.70 0.1523
834.80 0.1522
834.90 0.1522
835.00 0.1521
835.10 0.152
835.20 0.152
835.30 0.1519
835.40 0.1518
835.50 0.1518
835.60 0.1517
835.70 0.1516
835.80 0.1515
835.90 0.1515
836.00 0.1514
836.10 0.1513
836.20 0.1513
836.30 0.1512
836.40 0.1511
836.50 0.1511
836.60 0.151
836.70 0.1509
836.80 0.1508
836.90 0.1508
837.00 0.1507
837.10 0.1506
837.20 0.1506
837.30 0.1505
837.40 0.1504
837.50 0.1504
837.60 0.1503
837.70 0.1502
837.80 0.1502
837.90 0.1501
838.00 0.15
838.10 0.15
838.20 0.1499
838.30 0.1498
838.40 0.1498
838.50 0.1497
838.60 0.1496
838.70 0.1496
838.80 0.1495
838.90 0.1494
839.00 0.1493
839.10 0.1493
839.20 0.1492
839.30 0.1491
839.40 0.1491
839.50 0.149
839.60 0.1489
839.70 0.1489
839.80 0.1488
839.90 0.1487
840.00 0.1487
840.10 0.1486
840.20 0.1485
840.30 0.1485
840.40 0.1484
840.50 0.1483
840.60 0.1483
840.70 0.1482
840.80 0.1481
840.90 0.1481
841.00 0.148
841.10 0.1479
841.20 0.1479
841.30 0.1478
841.40 0.1477
841.50 0.1477
841.60 0.1476
841.70 0.1475
841.80 0.1475
841.90 0.1474
842.00 0.1473
842.10 0.1473
842.20 0.1472
842.30 0.1471
842.40 0.1471
842.50 0.147
842.60 0.1469
842.70 0.1469
842.80 0.1468
842.90 0.1467
843.00 0.1467
843.10 0.1466
843.20 0.1465
843.30 0.1465
843.40 0.1464
843.50 0.1463
843.60 0.1463
843.70 0.1462
843.80 0.1461
843.90 0.1461
844.00 0.146
844.10 0.146
844.20 0.1459
844.30 0.1458
844.40 0.1458
844.50 0.1457
844.60 0.1456
844.70 0.1456
844.80 0.1455
844.90 0.1454
845.00 0.1454
845.10 0.1453
845.20 0.1452
845.30 0.1452
845.40 0.1451
845.50 0.145
845.60 0.145
845.70 0.1449
845.80 0.1448
845.90 0.1448
846.00 0.1447
846.10 0.1447
846.20 0.1446
846.30 0.1445
846.40 0.1445
846.50 0.1444
846.60 0.1443
846.70 0.1443
846.80 0.1442
846.90 0.1441
847.00 0.1441
847.10 0.144
847.20 0.1439
847.30 0.1439
847.40 0.1438
847.50 0.1438
847.60 0.1437
847.70 0.1436
847.80 0.1436
847.90 0.1435
848.00 0.1434
848.10 0.1434
848.20 0.1433
848.30 0.1433
848.40 0.1432
848.50 0.1431
848.60 0.1431
848.70 0.143
848.80 0.1429
848.90 0.1429
849.00 0.1428
849.10 0.1428
849.20 0.1427
849.30 0.1426
849.40 0.1426
849.50 0.1425
849.60 0.1424
849.70 0.1424
849.80 0.1423
849.90 0.1423
850.00 0.1422
850.10 0.1421
850.20 0.1421
850.30 0.142
850.40 0.142
850.50 0.1419
850.60 0.1418
850.70 0.1418
850.80 0.1417
850.90 0.1416
851.00 0.1416
851.10 0.1415
851.20 0.1415
851.30 0.1414
851.40 0.1413
851.50 0.1413
851.60 0.1412
851.70 0.1412
851.80 0.1411
851.90 0.141
852.00 0.141
852.10 0.1409
852.20 0.1408
852.30 0.1408
852.40 0.1407
852.50 0.1407
852.60 0.1406
852.70 0.1406
852.80 0.1405
852.90 0.1404
853.00 0.1404
853.10 0.1403
853.20 0.1403
853.30 0.1402
853.40 0.1401
853.50 0.1401
853.60 0.14
853.70 0.14
853.80 0.1399
853.90 0.1398
854.00 0.1398
854.10 0.1397
854.20 0.1397
854.30 0.1396
854.40 0.1395
854.50 0.1395
854.60 0.1394
854.70 0.1394
854.80 0.1393
854.90 0.1393
855.00 0.1392
855.10 0.1391
855.20 0.1391
855.30 0.139
855.40 0.139
855.50 0.1389
855.60 0.1388
855.70 0.1388
855.80 0.1387
855.90 0.1387
856.00 0.1386
856.10 0.1385
856.20 0.1385
856.30 0.1384
856.40 0.1384
856.50 0.1383
856.60 0.1383
856.70 0.1382
856.80 0.1381
856.90 0.1381
857.00 0.138
857.10 0.138
857.20 0.1379
857.30 0.1378
857.40 0.1378
857.50 0.1377
857.60 0.1377
857.70 0.1376
857.80 0.1376
857.90 0.1375
858.00 0.1375
858.10 0.1374
858.20 0.1373
858.30 0.1373
858.40 0.1372
858.50 0.1372
858.60 0.1371
858.70 0.1371
858.80 0.137
858.90 0.1369
859.00 0.1369
859.10 0.1368
859.20 0.1368
859.30 0.1367
859.40 0.1367
859.50 0.1366
859.60 0.1366
859.70 0.1365
859.80 0.1364
859.90 0.1364
860.00 0.1363
860.10 0.1363
860.20 0.1362
860.30 0.1362
860.40 0.1361
860.50 0.1361
860.60 0.136
860.70 0.1359
860.80 0.1359
860.90 0.1358
861.00 0.1358
861.10 0.1357
861.20 0.1357
861.30 0.1356
861.40 0.1356
861.50 0.1355
861.60 0.1354
861.70 0.1354
861.80 0.1353
861.90 0.1353
862.00 0.1352
862.10 0.1352
862.20 0.1351
862.30 0.135
862.40 0.135
862.50 0.1349
862.60 0.1349
862.70 0.1348
862.80 0.1347
862.90 0.1347
863.00 0.1346
863.10 0.1346
863.20 0.1345
863.30 0.1344
863.40 0.1344
863.50 0.1343
863.60 0.1343
863.70 0.1342
863.80 0.1341
863.90 0.1341
864.00 0.134
864.10 0.134
864.20 0.1339
864.30 0.1338
864.40 0.1338
864.50 0.1337
864.60 0.1337
864.70 0.1336
864.80 0.1335
864.90 0.1335
865.00 0.1334
865.10 0.1334
865.20 0.1333
865.30 0.1333
865.40 0.1332
865.50 0.1331
865.60 0.1331
865.70 0.133
865.80 0.133
865.90 0.1329
866.00 0.1328
866.10 0.1328
866.20 0.1327
866.30 0.1327
866.40 0.1326
866.50 0.1325
866.60 0.1325
866.70 0.1324
866.80 0.1324
866.90 0.1323
867.00 0.1322
867.10 0.1322
867.20 0.1321
867.30 0.1321
867.40 0.132
867.50 0.132
867.60 0.1319
867.70 0.1319
867.80 0.1318
867.90 0.1318
868.00 0.1317
868.10 0.1317
868.20 0.1316
868.30 0.1316
868.40 0.1315
868.50 0.1315
868.60 0.1314
868.70 0.1314
868.80 0.1313
868.90 0.1313
869.00 0.1313
869.10 0.1312
869.20 0.1312
869.30 0.1311
869.40 0.1311
869.50 0.131
869.60 0.131
869.70 0.1309
869.80 0.1309
869.90 0.1308
870.00 0.1308
870.10 0.1307
870.20 0.1307
870.30 0.1306
870.40 0.1306
870.50 0.1305
870.60 0.1305
870.70 0.1304
870.80 0.1304
870.90 0.1303
871.00 0.1303
871.10 0.1302
871.20 0.1302
871.30 0.1301
871.40 0.1301
871.50 0.13
871.60 0.13
871.70 0.1299
871.80 0.1299
871.90 0.1298
872.00 0.1298
872.10 0.1297
872.20 0.1297
872.30 0.1296
872.40 0.1295
872.50 0.1295
872.60 0.1294
872.70 0.1294
872.80 0.1293
872.90 0.1293
873.00 0.1292
873.10 0.1292
873.20 0.1291
873.30 0.1291
873.40 0.129
873.50 0.129
873.60 0.1289
873.70 0.1288
873.80 0.1288
873.90 0.1287
874.00 0.1287
874.10 0.1286
874.20 0.1286
874.30 0.1285
874.40 0.1285
874.50 0.1284
874.60 0.1284
874.70 0.1283
874.80 0.1283
874.90 0.1282
875.00 0.1281
875.10 0.1281
875.20 0.128
875.30 0.128
875.40 0.1279
875.50 0.1279
875.60 0.1278
875.70 0.1278
875.80 0.1277
875.90 0.1277
876.00 0.1276
876.10 0.1276
876.20 0.1275
876.30 0.1274
876.40 0.1274
876.50 0.1273
876.60 0.1273
876.70 0.1272
876.80 0.1272
876.90 0.1271
877.00 0.1271
877.10 0.127
877.20 0.127
877.30 0.1269
877.40 0.1269
877.50 0.1268
877.60 0.1268
877.70 0.1267
877.80 0.1267
877.90 0.1266
878.00 0.1266
878.10 0.1265
878.20 0.1265
878.30 0.1265
878.40 0.1264
878.50 0.1264
878.60 0.1263
878.70 0.1263
878.80 0.1262
878.90 0.1262
879.00 0.1261
879.10 0.1261
879.20 0.126
879.30 0.126
879.40 0.1259
879.50 0.1259
879.60 0.1258
879.70 0.1258
879.80 0.1257
879.90 0.1257
880.00 0.1257
880.10 0.1256
880.20 0.1256
880.30 0.1255
880.40 0.1255
880.50 0.1254
880.60 0.1254
880.70 0.1253
880.80 0.1253
880.90 0.1252
881.00 0.1252
881.10 0.1251
881.20 0.1251
881.30 0.125
881.40 0.125
881.50 0.1249
881.60 0.1249
881.70 0.1249
881.80 0.1248
881.90 0.1248
882.00 0.1247
882.10 0.1246
882.20 0.1245
882.30 0.1245
882.40 0.1244
882.50 0.1243
882.60 0.1242
882.70 0.1241
882.80 0.124
882.90 0.124
883.00 0.1239
883.10 0.1238
883.20 0.1237
883.30 0.1236
883.40 0.1235
883.50 0.1235
883.60 0.1234
883.70 0.1233
883.80 0.1232
883.90 0.1231
884.00 0.123
884.10 0.123
884.20 0.1229
884.30 0.1228
884.40 0.1227
884.50 0.1226
884.60 0.1226
884.70 0.1225
884.80 0.1224
884.90 0.1223
885.00 0.1222
885.10 0.1221
885.20 0.1221
885.30 0.122
885.40 0.1219
885.50 0.1218
885.60 0.1217
885.70 0.1216
885.80 0.1216
885.90 0.1215
886.00 0.1214
886.10 0.1213
886.20 0.1212
886.30 0.1212
886.40 0.1211
886.50 0.121
886.60 0.1209
886.70 0.1208
886.80 0.1207
886.90 0.1207
887.00 0.1206
887.10 0.1206
887.20 0.1206
887.30 0.1206
887.40 0.1206
887.50 0.1206
887.60 0.1206
887.70 0.1206
887.80 0.1206
887.90 0.1206
888.00 0.1206
888.10 0.1206
888.20 0.1206
888.30 0.1206
888.40 0.1206
888.50 0.1206
888.60 0.1206
888.70 0.1206
888.80 0.1206
888.90 0.1206
889.00 0.1206
889.10 0.1206
889.20 0.1206
889.30 0.1206
889.40 0.1206
889.50 0.1206
889.60 0.1206
889.70 0.1206
889.80 0.1206
889.90 0.1206
890.00 0.1206
890.10 0.1206
890.20 0.1206
890.30 0.1206
890.40 0.1206
890.50 0.1206
890.60 0.1206
890.70 0.1206
890.80 0.1206
890.90 0.1206
891.00 0.1206
891.10 0.1206
891.20 0.1206
891.30 0.1206
891.40 0.1206
891.50 0.1206
891.60 0.1206
891.70 0.1206
891.80 0.1206
891.90 0.1206
892.00 0.1206
892.10 0.1205
892.20 0.1205
892.30 0.1204
892.40 0.1203
892.50 0.1202
892.60 0.1202
892.70 0.1201
892.80 0.12
892.90 0.12
893.00 0.1199
893.10 0.1198
893.20 0.1198
893.30 0.1197
893.40 0.1196
893.50 0.1195
893.60 0.1195
893.70 0.1194
893.80 0.1193
893.90 0.1193
894.00 0.1192
894.10 0.1191
894.20 0.1191
894.30 0.119
894.40 0.1189
894.50 0.1188
894.60 0.1188
894.70 0.1187
894.80 0.1186
894.90 0.1186
895.00 0.1185
895.10 0.1184
895.20 0.1184
895.30 0.1183
895.40 0.1182
895.50 0.1182
895.60 0.1181
895.70 0.118
895.80 0.1179
895.90 0.1179
896.00 0.1178
896.10 0.1177
896.20 0.1177
896.30 0.1176
896.40 0.1175
896.50 0.1175
896.60 0.1174
896.70 0.1173
896.80 0.1173
896.90 0.1172
897.00 0.1171
897.10 0.117
897.20 0.1169
897.30 0.1167
897.40 0.1166
897.50 0.1165
897.60 0.1163
897.70 0.1162
897.80 0.1161
897.90 0.1159
898.00 0.1158
898.10 0.1157
898.20 0.1155
898.30 0.1154
898.40 0.1153
898.50 0.1151
898.60 0.115
898.70 0.1149
898.80 0.1148
898.90 0.1146
899.00 0.1145
899.10 0.1144
899.20 0.1142
899.30 0.1141
899.40 0.114
899.50 0.1138
899.60 0.1137
899.70 0.1136
899.80 0.1135
899.90 0.1133
900.00 0.1132
900.10 0.1131
900.20 0.1129
900.30 0.1128
900.40 0.1127
900.50 0.1125
900.60 0.1124
900.70 0.1123
900.80 0.1122
900.90 0.112
901.00 0.1119
901.10 0.1118
901.20 0.1116
901.30 0.1115
901.40 0.1114
901.50 0.1112
901.60 0.1111
901.70 0.111
901.80 0.1109
901.90 0.1107
902.00 0.1106
902.10 0.1107
902.20 0.1107
902.30 0.1108
902.40 0.1108
902.50 0.1109
902.60 0.111
902.70 0.111
902.80 0.1111
902.90 0.1111
903.00 0.1112
903.10 0.1113
903.20 0.1113
903.30 0.1114
903.40 0.1114
903.50 0.1115
903.60 0.1116
903.70 0.1116
903.80 0.1117
903.90 0.1117
904.00 0.1118
904.10 0.1119
904.20 0.1119
904.30 0.112
904.40 0.112
904.50 0.1121
904.60 0.1122
904.70 0.1122
904.80 0.1123
904.90 0.1123
905.00 0.1124
905.10 0.1125
905.20 0.1125
905.30 0.1126
905.40 0.1126
905.50 0.1127
905.60 0.1128
905.70 0.1128
905.80 0.1129
905.90 0.1129
906.00 0.113
906.10 0.1131
906.20 0.1131
906.30 0.1132
906.40 0.1132
906.50 0.1133
906.60 0.1133
906.70 0.1134
906.80 0.1135
906.90 0.1135
907.00 0.1136
907.10 0.1136
907.20 0.1135
907.30 0.1135
907.40 0.1135
907.50 0.1135
907.60 0.1135
907.70 0.1134
907.80 0.1134
907.90 0.1134
908.00 0.1134
908.10 0.1134
908.20 0.1133
908.30 0.1133
908.40 0.1133
908.50 0.1133
908.60 0.1132
908.70 0.1132
908.80 0.1132
908.90 0.1132
909.00 0.1132
909.10 0.1131
909.20 0.1131
909.30 0.1131
909.40 0.1131
909.50 0.1131
909.60 0.113
909.70 0.113
909.80 0.113
909.90 0.113
910.00 0.113
910.10 0.1129
910.20 0.1129
910.30 0.1129
910.40 0.1129
910.50 0.1128
910.60 0.1128
910.70 0.1128
910.80 0.1128
910.90 0.1128
911.00 0.1127
911.10 0.1127
911.20 0.1127
911.30 0.1127
911.40 0.1127
911.50 0.1126
911.60 0.1126
911.70 0.1126
911.80 0.1126
911.90 0.1126
912.00 0.1125
912.10 0.1125
912.20 0.1124
912.30 0.1123
912.40 0.1122
912.50 0.1121
912.60 0.1121
912.70 0.112
912.80 0.1119
912.90 0.1118
913.00 0.1117
913.10 0.1117
913.20 0.1116
913.30 0.1115
913.40 0.1114
913.50 0.1113
913.60 0.1113
913.70 0.1112
913.80 0.1111
913.90 0.111
914.00 0.111
914.10 0.1109
914.20 0.1108
914.30 0.1107
914.40 0.1106
914.50 0.1106
914.60 0.1105
914.70 0.1104
914.80 0.1103
914.90 0.1102
915.00 0.1102
915.10 0.1101
915.20 0.11
915.30 0.1099
915.40 0.1099
915.50 0.1098
915.60 0.1097
915.70 0.1096
915.80 0.1095
915.90 0.1095
916.00 0.1094
916.10 0.1093
916.20 0.1092
916.30 0.1092
916.40 0.1091
916.50 0.109
916.60 0.1089
916.70 0.1088
916.80 0.1088
916.90 0.1087
917.00 0.1086
917.10 0.1084
917.20 0.1082
917.30 0.108
917.40 0.1078
917.50 0.1077
917.60 0.1075
917.70 0.1073
917.80 0.1071
917.90 0.1069
918.00 0.1067
918.10 0.1065
918.20 0.1063
918.30 0.1061
918.40 0.106
918.50 0.1058
918.60 0.1056
918.70 0.1054
918.80 0.1052
918.90 0.105
919.00 0.1048
919.10 0.1046
919.20 0.1044
919.30 0.1043
919.40 0.1041
919.50 0.1039
919.60 0.1037
919.70 0.1035
919.80 0.1033
919.90 0.1031
920.00 0.1029
920.10 0.1028
920.20 0.1026
920.30 0.1024
920.40 0.1022
920.50 0.102
920.60 0.1018
920.70 0.1016
920.80 0.1014
920.90 0.1013
921.00 0.1011
921.10 0.1009
921.20 0.1007
921.30 0.1005
921.40 0.1003
921.50 0.1001
921.60 0.09995
921.70 0.09976
921.80 0.09958
921.90 0.09939
922.00 0.0992
922.10 0.09928
922.20 0.09935
922.30 0.09943
922.40 0.0995
922.50 0.09958
922.60 0.09965
922.70 0.09973
922.80 0.0998
922.90 0.09987
923.00 0.09995
923.10 0.1
923.20 0.1001
923.30 0.1002
923.40 0.1002
923.50 0.1003
923.60 0.1004
923.70 0.1005
923.80 0.1005
923.90 0.1006
924.00 0.1007
924.10 0.1008
924.20 0.1008
924.30 0.1009
924.40 0.101
924.50 0.1011
924.60 0.1011
924.70 0.1012
924.80 0.1013
924.90 0.1014
925.00 0.1014
925.10 0.1015
925.20 0.1016
925.30 0.1016
925.40 0.1017
925.50 0.1018
925.60 0.1019
925.70 0.1019
925.80 0.102
925.90 0.1021
926.00 0.1022
926.10 0.1022
926.20 0.1023
926.30 0.1024
926.40 0.1025
926.50 0.1025
926.60 0.1026
926.70 0.1027
926.80 0.1027
926.90 0.1028
927.00 0.1029
927.10 0.1029
927.20 0.1029
927.30 0.103
927.40 0.103
927.50 0.103
927.60 0.103
927.70 0.1031
927.80 0.1031
927.90 0.1031
928.00 0.1032
928.10 0.1032
928.20 0.1032
928.30 0.1032
928.40 0.1033
928.50 0.1033
928.60 0.1033
928.70 0.1033
928.80 0.1034
928.90 0.1034
929.00 0.1034
929.10 0.1034
929.20 0.1035
929.30 0.1035
929.40 0.1035
929.50 0.1036
929.60 0.1036
929.70 0.1036
929.80 0.1036
929.90 0.1037
930.00 0.1037
930.10 0.1037
930.20 0.1037
930.30 0.1038
930.40 0.1038
930.50 0.1038
930.60 0.1038
930.70 0.1039
930.80 0.1039
930.90 0.1039
931.00 0.1039
931.10 0.104
931.20 0.104
931.30 0.104
931.40 0.1041
931.50 0.1041
931.60 0.1041
931.70 0.1041
931.80 0.1042
931.90 0.1042
932.00 0.1042
932.10 0.1042
932.20 0.1042
932.30 0.1042
932.40 0.1041
932.50 0.1041
932.60 0.1041
932.70 0.1041
932.80 0.1041
932.90 0.104
933.00 0.104
933.10 0.104
933.20 0.104
933.30 0.104
933.40 0.104
933.50 0.1039
933.60 0.1039
933.70 0.1039
933.80 0.1039
933.90 0.1039
934.00 0.1039
934.10 0.1038
934.20 0.1038
934.30 0.1038
934.40 0.1038
934.50 0.1037
934.60 0.1037
934.70 0.1037
934.80 0.1036
934.90 0.1036
935.00 0.1036
935.10 0.1036
935.20 0.1035
935.30 0.1035
935.40 0.1035
935.50 0.1034
935.60 0.1034
935.70 0.1034
935.80 0.1033
935.90 0.1033
936.00 0.1033
936.10 0.1032
936.20 0.1032
936.30 0.1032
936.40 0.1032
936.50 0.1031
936.60 0.1031
936.70 0.1031
936.80 0.103
936.90 0.103
937.00 0.103
937.10 0.1029
937.20 0.1029
937.30 0.1029
937.40 0.1028
937.50 0.1028
937.60 0.1027
937.70 0.1027
937.80 0.1027
937.90 0.1026
938.00 0.1026
938.10 0.1025
938.20 0.1025
938.30 0.1025
938.40 0.1024
938.50 0.1024
938.60 0.1023
938.70 0.1023
938.80 0.1022
938.90 0.1022
939.00 0.1022
939.10 0.1021
939.20 0.1021
939.30 0.102
939.40 0.102
939.50 0.1019
939.60 0.1019
939.70 0.1019
939.80 0.1018
939.90 0.1018
940.00 0.1017
940.10 0.1017
940.20 0.1016
940.30 0.1016
940.40 0.1015
940.50 0.1015
940.60 0.1014
940.70 0.1014
940.80 0.1013
940.90 0.1013
941.00 0.1012
941.10 0.1012
941.20 0.1011
941.30 0.1011
941.40 0.101
941.50 0.101
941.60 0.1009
941.70 0.1009
941.80 0.1008
941.90 0.1008
942.00 0.1007
942.10 0.1007
942.20 0.1006
942.30 0.1006
942.40 0.1005
942.50 0.1005
942.60 0.1004
942.70 0.1003
942.80 0.1003
942.90 0.1002
943.00 0.1001
943.10 0.1001
943.20 0.1
943.30 0.09996
943.40 0.0999
943.50 0.09984
943.60 0.09978
943.70 0.09972
943.80 0.09966
943.90 0.0996
944.00 0.09954
944.10 0.09948
944.20 0.09942
944.30 0.09935
944.40 0.09928
944.50 0.09921
944.60 0.09914
944.70 0.09907
944.80 0.099
944.90 0.09892
945.00 0.09885
945.10 0.09878
945.20 0.09871
945.30 0.09864
945.40 0.09855
945.50 0.09847
945.60 0.09838
945.70 0.0983
945.80 0.09821
945.90 0.09812
946.00 0.09804
946.10 0.09795
946.20 0.09787
946.30 0.09778
946.40 0.0977
946.50 0.09761
946.60 0.09752
946.70 0.09744
946.80 0.09735
946.90 0.09727
947.00 0.09718
947.10 0.09708
947.20 0.09698
947.30 0.09689
947.40 0.09676
947.50 0.09664
947.60 0.09652
947.70 0.0964
947.80 0.09628
947.90 0.09616
948.00 0.09604
948.10 0.09592
948.20 0.09579
948.30 0.09567
948.40 0.09555
948.50 0.09543
948.60 0.09531
948.70 0.09519
948.80 0.09507
948.90 0.09495
949.00 0.09483
949.10 0.09471
949.20 0.09459
949.30 0.09447
949.40 0.09429
949.50 0.09411
949.60 0.09393
949.70 0.09376
949.80 0.09358
949.90 0.0934
950.00 0.09323
950.10 0.09305
950.20 0.09287
950.30 0.0927
950.40 0.09252
950.50 0.09234
950.60 0.09217
950.70 0.09199
950.80 0.09181
950.90 0.09164
951.00 0.09146
951.10 0.09129
951.20 0.09111
951.30 0.09093
951.40 0.0907
951.50 0.09047
951.60 0.09024
951.70 0.09001
951.80 0.08978
951.90 0.08955
952.00 0.08932
952.10 0.08905
952.20 0.08877
952.30 0.0885
952.40 0.08823
952.50 0.08796
952.60 0.08769
952.70 0.08742
952.80 0.08715
952.90 0.08682
953.00 0.0865
953.10 0.08618
953.20 0.08586
953.30 0.08554
953.40 0.08522
953.50 0.0849
953.60 0.08454
953.70 0.08418
953.80 0.08382
953.90 0.08346
954.00 0.08308
954.10 0.08269
954.20 0.08231
954.30 0.08192
954.40 0.08154
954.50 0.08124
954.60 0.08121
954.70 0.08118
954.80 0.0815
954.90 0.08181
955.00 0.08213
955.10 0.08245
955.20 0.08275
955.30 0.08305
955.40 0.08335
955.50 0.08365
955.60 0.08395
955.70 0.08425
955.80 0.08454
955.90 0.08477
956.00 0.085
956.10 0.08523
956.20 0.08546
956.30 0.08568
956.40 0.08591
956.50 0.08614
956.60 0.08637
956.70 0.08659
956.80 0.08682
956.90 0.08705
957.00 0.08728
957.10 0.08746
957.20 0.08763
957.30 0.08781
957.40 0.08794
957.50 0.08806
957.60 0.08819
957.70 0.08831
957.80 0.08844
957.90 0.08857
958.00 0.08869
958.10 0.08882
958.20 0.08894
958.30 0.08907
958.40 0.08919
958.50 0.08932
958.60 0.08944
958.70 0.08957
958.80 0.08969
958.90 0.08982
959.00 0.08994
959.10 0.09006
959.20 0.09019
959.30 0.09031
959.40 0.09037
959.50 0.09043
959.60 0.09049
959.70 0.09055
959.80 0.0906
959.90 0.09066
960.00 0.09072
960.10 0.09078
960.20 0.09084
960.30 0.0909
960.40 0.09095
960.50 0.09101
960.60 0.09107
960.70 0.09113
960.80 0.09119
960.90 0.09125
961.00 0.0913
961.10 0.09136
961.20 0.09142
961.30 0.09148
961.40 0.09151
961.50 0.09153
961.60 0.09156
961.70 0.09159
961.80 0.09162
961.90 0.09165
962.00 0.09168
962.10 0.09169
962.20 0.09171
962.30 0.09172
962.40 0.09173
962.50 0.09175
962.60 0.09176
962.70 0.09177
962.80 0.09179
962.90 0.0918
963.00 0.09182
963.10 0.09183
963.20 0.09184
963.30 0.09186
963.40 0.09186
963.50 0.09186
963.60 0.09186
963.70 0.09186
963.80 0.09186
963.90 0.09186
964.00 0.09186
964.10 0.09186
964.20 0.09186
964.30 0.09186
964.40 0.09185
964.50 0.09184
964.60 0.09183
964.70 0.09182
964.80 0.09181
964.90 0.0918
965.00 0.09178
965.10 0.09177
965.20 0.09176
965.30 0.09175
965.40 0.09174
965.50 0.09173
965.60 0.09172
965.70 0.09171
965.80 0.0917
965.90 0.09169
966.00 0.09168
966.10 0.09167
966.20 0.09165
966.30 0.09164
966.40 0.09163
966.50 0.09161
966.60 0.09159
966.70 0.09157
966.80 0.09155
966.90 0.09153
967.00 0.09152
967.10 0.09149
967.20 0.09147
967.30 0.09145
967.40 0.09143
967.50 0.09141
967.60 0.09139
967.70 0.09136
967.80 0.09134
967.90 0.09132
968.00 0.0913
968.10 0.09128
968.20 0.09125
968.30 0.09123
968.40 0.09121
968.50 0.09118
968.60 0.09115
968.70 0.09113
968.80 0.0911
968.90 0.09108
969.00 0.09105
969.10 0.09102
969.20 0.091
969.30 0.09097
969.40 0.09095
969.50 0.09092
969.60 0.09089
969.70 0.09087
969.80 0.09084
969.90 0.09082
970.00 0.09079
970.10 0.09076
970.20 0.09074
970.30 0.09071
970.40 0.09068
970.50 0.09065
970.60 0.09062
970.70 0.0906
970.80 0.09057
970.90 0.09054
971.00 0.09051
971.10 0.09048
971.20 0.09045
971.30 0.09042
971.40 0.09039
971.50 0.09036
971.60 0.09033
971.70 0.0903
971.80 0.09027
971.90 0.09025
972.00 0.09022
972.10 0.09019
972.20 0.09015
972.30 0.09012
972.40 0.09009
972.50 0.09006
972.60 0.09003
972.70 0.09
972.80 0.08997
972.90 0.08994
973.00 0.0899
973.10 0.08987
973.20 0.08984
973.30 0.08981
973.40 0.08978
973.50 0.08975
973.60 0.08972
973.70 0.08969
973.80 0.08966
973.90 0.08962
974.00 0.08959
974.10 0.08956
974.20 0.08953
974.30 0.0895
974.40 0.08947
974.50 0.08943
974.60 0.0894
974.70 0.08937
974.80 0.08934
974.90 0.0893
975.00 0.08927
975.10 0.08924
975.20 0.0892
975.30 0.08917
975.40 0.08914
975.50 0.08911
975.60 0.08907
975.70 0.08904
975.80 0.08901
975.90 0.08898
976.00 0.08894
976.10 0.08891
976.20 0.08888
976.30 0.08885
976.40 0.08881
976.50 0.08878
976.60 0.08875
976.70 0.08872
976.80 0.08868
976.90 0.08865
977.00 0.08862
977.10 0.08858
977.20 0.08855
977.30 0.08851
977.40 0.08848
977.50 0.08845
977.60 0.08841
977.70 0.08838
977.80 0.08834
977.90 0.08831
978.00 0.08827
978.10 0.08824
978.20 0.08821
978.30 0.08817
978.40 0.08814
978.50 0.0881
978.60 0.08807
978.70 0.08803
978.80 0.088
978.90 0.08797
979.00 0.08793
979.10 0.0879
979.20 0.08786
979.30 0.08783
979.40 0.0878
979.50 0.08776
979.60 0.08773
979.70 0.08769
979.80 0.08766
979.90 0.08763
980.00 0.08759
980.10 0.08756
980.20 0.08752
980.30 0.08749
980.40 0.08746
980.50 0.08742
980.60 0.08739
980.70 0.08735
980.80 0.08732
980.90 0.08729
981.00 0.08725
981.10 0.08722
981.20 0.08718
981.30 0.08715
981.40 0.08712
981.50 0.08708
981.60 0.08705
981.70 0.08701
981.80 0.08698
981.90 0.08695
982.00 0.08691
982.10 0.08688
982.20 0.08684
982.30 0.08681
982.40 0.08677
982.50 0.08674
982.60 0.0867
982.70 0.08666
982.80 0.08663
982.90 0.08659
983.00 0.08656
983.10 0.08652
983.20 0.08649
983.30 0.08645
983.40 0.08642
983.50 0.08638
983.60 0.08635
983.70 0.08631
983.80 0.08628
983.90 0.08624
984.00 0.08621
984.10 0.08617
984.20 0.08614
984.30 0.0861
984.40 0.08606
984.50 0.08603
984.60 0.08599
984.70 0.08596
984.80 0.08592
984.90 0.08588
985.00 0.08585
985.10 0.08581
985.20 0.08577
985.30 0.08574
985.40 0.0857
985.50 0.08566
985.60 0.08563
985.70 0.08559
985.80 0.08555
985.90 0.08552
986.00 0.08548
986.10 0.08545
986.20 0.08541
986.30 0.08537
986.40 0.08534
986.50 0.0853
986.60 0.08526
986.70 0.08523
986.80 0.08519
986.90 0.08515
987.00 0.08512
987.10 0.08508
987.20 0.08504
987.30 0.085
987.40 0.08496
987.50 0.08493
987.60 0.08489
987.70 0.08485
987.80 0.08481
987.90 0.08477
988.00 0.08474
988.10 0.0847
988.20 0.08466
988.30 0.08462
988.40 0.08458
988.50 0.08455
988.60 0.08451
988.70 0.08447
988.80 0.08443
988.90 0.08439
989.00 0.08435
989.10 0.08431
989.20 0.08426
989.30 0.08422
989.40 0.08418
989.50 0.08414
989.60 0.0841
989.70 0.08406
989.80 0.08402
989.90 0.08398
990.00 0.08394
990.10 0.0839
990.20 0.08386
990.30 0.08382
990.40 0.08378
990.50 0.08374
990.60 0.0837
990.70 0.08366
990.80 0.08361
990.90 0.08357
991.00 0.08353
991.10 0.08348
991.20 0.08344
991.30 0.08339
991.40 0.08335
991.50 0.08331
991.60 0.08326
991.70 0.08322
991.80 0.08318
991.90 0.08313
992.00 0.08309
992.10 0.08304
992.20 0.083
992.30 0.08295
992.40 0.0829
992.50 0.08286
992.60 0.08281
992.70 0.08276
992.80 0.08271
992.90 0.08266
993.00 0.0826
993.10 0.08255
993.20 0.0825
993.30 0.08245
993.40 0.0824
993.50 0.08235
993.60 0.08229
993.70 0.08224
993.80 0.08219
993.90 0.08214
994.00 0.08209
994.10 0.08203
994.20 0.08198
994.30 0.08193
994.40 0.08188
994.50 0.08183
994.60 0.08178
994.70 0.08172
994.80 0.08166
994.90 0.0816
995.00 0.08154
995.10 0.08148
995.20 0.08142
995.30 0.08136
995.40 0.0813
995.50 0.08123
995.60 0.08117
995.70 0.08111
995.80 0.08103
995.90 0.08096
996.00 0.08089
996.10 0.08082
996.20 0.08075
996.30 0.08068
996.40 0.08061
996.50 0.08054
996.60 0.08047
996.70 0.08039
996.80 0.08032
996.90 0.08025
997.00 0.08018
997.10 0.0801
997.20 0.08001
997.30 0.07993
997.40 0.07985
997.50 0.07977
997.60 0.07968
997.70 0.07958
997.80 0.07947
997.90 0.07937
998.00 0.07926
998.10 0.07915
998.20 0.07904
998.30 0.07894
998.40 0.07883
998.50 0.07872
998.60 0.07862
998.70 0.07851
998.80 0.0784
998.90 0.0783
999.00 0.07819
999.10 0.07808
999.20 0.07797
999.30 0.07787
999.40 0.07776
999.50 0.07765
999.60 0.07755
999.70 0.0774
999.80 0.07723
999.90 0.07707
1000.00 0.0769
1000.10 0.07673
1000.20 0.07657
1000.30 0.0764
1000.40 0.07624
1000.50 0.07607
1000.60 0.07591
1000.70 0.07574
1000.80 0.07558
1000.90 0.07542
1001.00 0.07525
1001.10 0.07509
1001.20 0.07492
1001.30 0.07476
1001.40 0.07459
1001.50 0.07443
1001.60 0.07426
1001.70 0.07406
1001.80 0.07384
1001.90 0.07363
1002.00 0.07341
1002.10 0.07315
1002.20 0.07288
1002.30 0.07262
1002.40 0.07236
1002.50 0.07209
1002.60 0.07183
1002.70 0.07157
1002.80 0.0713
1002.90 0.07104
1003.00 0.07078
1003.10 0.07052
1003.20 0.07019
1003.30 0.06985
1003.40 0.0695
1003.50 0.06916
1003.60 0.06882
1003.70 0.06848
1003.80 0.06813
1003.90 0.06773
1004.00 0.06731
1004.10 0.06689
1004.20 0.06647
1004.30 0.066
1004.40 0.06553
1004.50 0.06504
1004.60 0.06454
1004.70 0.06409
1004.80 0.06382
1004.90 0.06377
1005.00 0.06372
1005.10 0.06397
1005.20 0.06432
1005.30 0.06467
1005.40 0.06502
1005.50 0.0654
1005.60 0.06578
1005.70 0.06617
1005.80 0.06655
1005.90 0.06694
1006.00 0.06732
1006.10 0.06771
1006.20 0.06801
1006.30 0.06828
1006.40 0.06855
1006.50 0.06883
1006.60 0.0691
1006.70 0.06937
1006.80 0.06964
1006.90 0.06991
1007.00 0.07019
1007.10 0.07039
1007.20 0.0706
1007.30 0.07081
1007.40 0.07101
1007.50 0.07122
1007.60 0.07142
1007.70 0.07157
1007.80 0.07171
1007.90 0.07184
1008.00 0.07197
1008.10 0.0721
1008.20 0.07224
1008.30 0.07237
1008.40 0.0725
1008.50 0.07263
1008.60 0.07276
1008.70 0.0729
1008.80 0.07303
1008.90 0.07316
1009.00 0.07329
1009.10 0.07342
1009.20 0.07356
1009.30 0.07369
1009.40 0.07382
1009.50 0.07395
1009.60 0.07408
1009.70 0.07416
1009.80 0.07422
1009.90 0.07428
1010.00 0.07434
1010.10 0.0744
1010.20 0.07446
1010.30 0.07452
1010.40 0.07458
1010.50 0.07464
1010.60 0.0747
1010.70 0.07476
1010.80 0.07482
1010.90 0.07488
1011.00 0.07494
1011.10 0.075
1011.20 0.07506
1011.30 0.07512
1011.40 0.07518
1011.50 0.07524
1011.60 0.0753
1011.70 0.07534
1011.80 0.07538
1011.90 0.07541
1012.00 0.07544
1012.10 0.07546
1012.20 0.07548
1012.30 0.0755
1012.40 0.07551
1012.50 0.07553
1012.60 0.07555
1012.70 0.07557
1012.80 0.07559
1012.90 0.0756
1013.00 0.07562
1013.10 0.07564
1013.20 0.07566
1013.30 0.07568
1013.40 0.07569
1013.50 0.07571
1013.60 0.07573
1013.70 0.07574
1013.80 0.07574
1013.90 0.07574
1014.00 0.07575
1014.10 0.07575
1014.20 0.07575
1014.30 0.07576
1014.40 0.07576
1014.50 0.07576
1014.60 0.07577
1014.70 0.07576
1014.80 0.07575
1014.90 0.07575
1015.00 0.07574
1015.10 0.07573
1015.20 0.07573
1015.30 0.07572
1015.40 0.07571
1015.50 0.0757
1015.60 0.0757
1015.70 0.07569
1015.80 0.07568
1015.90 0.07568
1016.00 0.07567
1016.10 0.07566
1016.20 0.07566
1016.30 0.07565
1016.40 0.07564
1016.50 0.07563
1016.60 0.07563
1016.70 0.07562
1016.80 0.0756
1016.90 0.07559
1017.00 0.07558
1017.10 0.07556
1017.20 0.07555
1017.30 0.07553
1017.40 0.07551
1017.50 0.0755
1017.60 0.07548
1017.70 0.07547
1017.80 0.07545
1017.90 0.07544
1018.00 0.07542
1018.10 0.0754
1018.20 0.07539
1018.30 0.07537
1018.40 0.07536
1018.50 0.07534
1018.60 0.07532
1018.70 0.07531
1018.80 0.07529
1018.90 0.07527
1019.00 0.07525
1019.10 0.07523
1019.20 0.07521
1019.30 0.07519
1019.40 0.07517
1019.50 0.07515
1019.60 0.07513
1019.70 0.07511
1019.80 0.07509
1019.90 0.07507
1020.00 0.07505
1020.10 0.07503
1020.20 0.07501
1020.30 0.07499
1020.40 0.07497
1020.50 0.07495
1020.60 0.07493
1020.70 0.07491
1020.80 0.07488
1020.90 0.07486
1021.00 0.07484
1021.10 0.07482
1021.20 0.0748
1021.30 0.07477
1021.40 0.07475
1021.50 0.07473
1021.60 0.07471
1021.70 0.07468
1021.80 0.07466
1021.90 0.07464
1022.00 0.07462
1022.10 0.07459
1022.20 0.07457
1022.30 0.07455
1022.40 0.07452
1022.50 0.0745
1022.60 0.07448
1022.70 0.07445
1022.80 0.07443
1022.90 0.0744
1023.00 0.07438
1023.10 0.07436
1023.20 0.07433
1023.30 0.07431
1023.40 0.07429
1023.50 0.07426
1023.60 0.07424
1023.70 0.07421
1023.80 0.07419
1023.90 0.07417
1024.00 0.07414
1024.10 0.07412
1024.20 0.0741
1024.30 0.07407
1024.40 0.07405
1024.50 0.07402
1024.60 0.074
1024.70 0.07398
1024.80 0.07395
1024.90 0.07393
1025.00 0.0739
1025.10 0.07388
1025.20 0.07385
1025.30 0.07383
1025.40 0.0738
1025.50 0.07378
1025.60 0.07375
1025.70 0.07373
1025.80 0.0737
1025.90 0.07368
1026.00 0.07365
1026.10 0.07363
1026.20 0.0736
1026.30 0.07358
1026.40 0.07355
1026.50 0.07353
1026.60 0.0735
1026.70 0.07348
1026.80 0.07345
1026.90 0.07343
1027.00 0.0734
1027.10 0.07338
1027.20 0.07335
1027.30 0.07333
1027.40 0.0733
1027.50 0.07328
1027.60 0.07325
1027.70 0.07322
1027.80 0.0732
1027.90 0.07317
1028.00 0.07315
1028.10 0.07312
1028.20 0.0731
1028.30 0.07307
1028.40 0.07305
1028.50 0.07302
1028.60 0.07299
1028.70 0.07297
1028.80 0.07294
1028.90 0.07292
1029.00 0.07289
1029.10 0.07287
1029.20 0.07284
1029.30 0.07282
1029.40 0.07279
1029.50 0.07276
1029.60 0.07274
1029.70 0.07271
1029.80 0.07269
1029.90 0.07266
1030.00 0.07264
1030.10 0.07261
1030.20 0.07259
1030.30 0.07256
1030.40 0.07253
1030.50 0.07251
1030.60 0.07248
1030.70 0.07246
1030.80 0.07243
1030.90 0.07241
1031.00 0.07238
1031.10 0.07236
1031.20 0.07233
1031.30 0.07231
1031.40 0.07228
1031.50 0.07226
1031.60 0.07223
1031.70 0.0722
1031.80 0.07218
1031.90 0.07215
1032.00 0.07213
1032.10 0.0721
1032.20 0.07208
1032.30 0.07205
1032.40 0.07203
1032.50 0.072
1032.60 0.07197
1032.70 0.07195
1032.80 0.07192
1032.90 0.0719
1033.00 0.07187
1033.10 0.07185
1033.20 0.07182
1033.30 0.07179
1033.40 0.07177
1033.50 0.07174
1033.60 0.07172
1033.70 0.07169
1033.80 0.07166
1033.90 0.07164
1034.00 0.07161
1034.10 0.07159
1034.20 0.07156
1034.30 0.07154
1034.40 0.07151
1034.50 0.07149
1034.60 0.07146
1034.70 0.07143
1034.80 0.07141
1034.90 0.07138
1035.00 0.07136
1035.10 0.07133
1035.20 0.07131
1035.30 0.07128
1035.40 0.07125
1035.50 0.07123
1035.60 0.0712
1035.70 0.07118
1035.80 0.07115
1035.90 0.07113
1036.00 0.0711
1036.10 0.07108
1036.20 0.07105
1036.30 0.07102
1036.40 0.071
1036.50 0.07097
1036.60 0.07095
1036.70 0.07092
1036.80 0.0709
1036.90 0.07087
1037.00 0.07085
1037.10 0.07082
1037.20 0.0708
1037.30 0.07077
1037.40 0.07074
1037.50 0.07072
1037.60 0.07069
1037.70 0.07067
1037.80 0.07064
1037.90 0.07062
1038.00 0.07059
1038.10 0.07056
1038.20 0.07054
1038.30 0.07051
1038.40 0.07049
1038.50 0.07046
1038.60 0.07044
1038.70 0.07041
1038.80 0.07039
1038.90 0.07036
1039.00 0.07034
1039.10 0.07031
1039.20 0.07028
1039.30 0.07026
1039.40 0.07023
1039.50 0.07021
1039.60 0.07018
1039.70 0.07016
1039.80 0.07013
1039.90 0.07011
1040.00 0.07008
1040.10 0.07006
1040.20 0.07003
1040.30 0.07
1040.40 0.06998
1040.50 0.06995
1040.60 0.06993
1040.70 0.0699
1040.80 0.06988
1040.90 0.06985
1041.00 0.06983
1041.10 0.0698
1041.20 0.06978
1041.30 0.06975
1041.40 0.06973
1041.50 0.0697
1041.60 0.06968
1041.70 0.06965
1041.80 0.06963
1041.90 0.0696
1042.00 0.06958
1042.10 0.06955
1042.20 0.06952
1042.30 0.0695
1042.40 0.06947
1042.50 0.06945
1042.60 0.06942
1042.70 0.0694
1042.80 0.06937
1042.90 0.06935
1043.00 0.06932
1043.10 0.0693
1043.20 0.06927
1043.30 0.06925
1043.40 0.06922
1043.50 0.0692
1043.60 0.06917
1043.70 0.06915
1043.80 0.06912
1043.90 0.0691
1044.00 0.06907
1044.10 0.06905
1044.20 0.06902
1044.30 0.069
1044.40 0.06897
1044.50 0.06895
1044.60 0.06892
1044.70 0.0689
1044.80 0.06887
1044.90 0.06885
1045.00 0.06882
1045.10 0.0688
1045.20 0.06877
1045.30 0.06875
1045.40 0.06872
1045.50 0.0687
1045.60 0.06867
1045.70 0.06865
1045.80 0.06862
1045.90 0.0686
1046.00 0.06857
1046.10 0.06855
1046.20 0.06852
1046.30 0.0685
1046.40 0.06847
1046.50 0.06845
1046.60 0.06842
1046.70 0.0684
1046.80 0.06837
1046.90 0.06835
1047.00 0.06832
1047.10 0.0683
1047.20 0.06827
1047.30 0.06825
1047.40 0.06822
1047.50 0.0682
1047.60 0.06817
1047.70 0.06815
1047.80 0.06812
1047.90 0.0681
1048.00 0.06807
1048.10 0.06805
1048.20 0.06802
1048.30 0.068
1048.40 0.06797
1048.50 0.06795
1048.60 0.06793
1048.70 0.0679
1048.80 0.06788
1048.90 0.06785
1049.00 0.06783
1049.10 0.0678
1049.20 0.06778
1049.30 0.06775
1049.40 0.06773
1049.50 0.0677
1049.60 0.06768
1049.70 0.06765
1049.80 0.06763
1049.90 0.0676
1050.00 0.06758
1050.10 0.06756
1050.20 0.06753
1050.30 0.06751
1050.40 0.06748
1050.50 0.06746
1050.60 0.06743
1050.70 0.06741
1050.80 0.06738
1050.90 0.06736
1051.00 0.06733
1051.10 0.06731
1051.20 0.06729
1051.30 0.06726
1051.40 0.06724
1051.50 0.06721
1051.60 0.06719
1051.70 0.06716
1051.80 0.06714
1051.90 0.06711
1052.00 0.06709
1052.10 0.06707
1052.20 0.06704
1052.30 0.06702
1052.40 0.06699
1052.50 0.06697
1052.60 0.06694
1052.70 0.06692
1052.80 0.06689
1052.90 0.06687
1053.00 0.06685
1053.10 0.06682
1053.20 0.0668
1053.30 0.06677
1053.40 0.06675
1053.50 0.06672
1053.60 0.0667
1053.70 0.06668
1053.80 0.06665
1053.90 0.06663
1054.00 0.0666
1054.10 0.06658
1054.20 0.06655
1054.30 0.06653
1054.40 0.06651
1054.50 0.06648
1054.60 0.06646
1054.70 0.06643
1054.80 0.06641
1054.90 0.06638
1055.00 0.06636
1055.10 0.06634
1055.20 0.06631
1055.30 0.06629
1055.40 0.06626
1055.50 0.06624
1055.60 0.06621
1055.70 0.06619
1055.80 0.06617
1055.90 0.06614
1056.00 0.06612
1056.10 0.06609
1056.20 0.06607
1056.30 0.06605
1056.40 0.06602
1056.50 0.066
1056.60 0.06597
1056.70 0.06595
1056.80 0.06593
1056.90 0.0659
1057.00 0.06588
1057.10 0.06585
1057.20 0.06583
1057.30 0.06581
1057.40 0.06578
1057.50 0.06576
1057.60 0.06573
1057.70 0.06571
1057.80 0.06568
1057.90 0.06566
1058.00 0.06564
1058.10 0.06561
1058.20 0.06559
1058.30 0.06556
1058.40 0.06554
1058.50 0.06552
1058.60 0.06549
1058.70 0.06547
1058.80 0.06544
1058.90 0.06542
1059.00 0.0654
1059.10 0.06537
1059.20 0.06535
1059.30 0.06533
1059.40 0.0653
1059.50 0.06528
1059.60 0.06525
1059.70 0.06523
1059.80 0.06521
1059.90 0.06518
1060.00 0.06516
1060.10 0.06513
1060.20 0.06511
1060.30 0.06509
1060.40 0.06506
1060.50 0.06504
1060.60 0.06501
1060.70 0.06499
1060.80 0.06497
1060.90 0.06494
1061.00 0.06492
1061.10 0.0649
1061.20 0.06487
1061.30 0.06485
1061.40 0.06482
1061.50 0.0648
1061.60 0.06478
1061.70 0.06475
1061.80 0.06473
1061.90 0.06471
1062.00 0.06468
1062.10 0.06466
1062.20 0.06463
1062.30 0.06461
1062.40 0.06459
1062.50 0.06456
1062.60 0.06454
1062.70 0.06451
1062.80 0.06449
1062.90 0.06447
1063.00 0.06444
1063.10 0.06442
1063.20 0.0644
1063.30 0.06437
1063.40 0.06435
1063.50 0.06432
1063.60 0.0643
1063.70 0.06428
1063.80 0.06425
1063.90 0.06423
1064.00 0.06421
1064.10 0.06418
1064.20 0.06416
1064.30 0.06413
1064.40 0.06411
1064.50 0.06409
1064.60 0.06406
1064.70 0.06404
1064.80 0.06402
1064.90 0.06399
1065.00 0.06397
1065.10 0.06394
1065.20 0.06392
1065.30 0.0639
1065.40 0.06387
1065.50 0.06385
1065.60 0.06383
1065.70 0.0638
1065.80 0.06378
1065.90 0.06376
1066.00 0.06373
1066.10 0.06371
1066.20 0.06368
1066.30 0.06366
1066.40 0.06364
1066.50 0.06361
1066.60 0.06359
1066.70 0.06357
1066.80 0.06354
1066.90 0.06352
1067.00 0.0635
1067.10 0.06347
1067.20 0.06345
1067.30 0.06342
1067.40 0.0634
1067.50 0.06338
1067.60 0.06335
1067.70 0.06333
1067.80 0.0633
1067.90 0.06328
1068.00 0.06326
1068.10 0.06323
1068.20 0.06321
1068.30 0.06318
1068.40 0.06316
1068.50 0.06314
1068.60 0.06311
1068.70 0.06309
1068.80 0.06306
1068.90 0.06304
1069.00 0.06302
1069.10 0.06299
1069.20 0.06297
1069.30 0.06294
1069.40 0.06292
1069.50 0.0629
1069.60 0.06287
1069.70 0.06285
1069.80 0.06282
1069.90 0.0628
1070.00 0.06278
1070.10 0.06275
1070.20 0.06273
1070.30 0.06271
1070.40 0.06268
1070.50 0.06266
1070.60 0.06263
1070.70 0.06261
1070.80 0.06259
1070.90 0.06256
1071.00 0.06254
1071.10 0.06252
1071.20 0.06249
1071.30 0.06247
1071.40 0.06244
1071.50 0.06242
1071.60 0.0624
1071.70 0.06237
1071.80 0.06235
1071.90 0.06233
1072.00 0.0623
1072.10 0.06228
1072.20 0.06225
1072.30 0.06223
1072.40 0.0622
1072.50 0.06218
1072.60 0.06216
1072.70 0.06213
1072.80 0.06211
1072.90 0.06208
1073.00 0.06206
1073.10 0.06203
1073.20 0.06201
1073.30 0.06198
1073.40 0.06196
1073.50 0.06194
1073.60 0.06191
1073.70 0.06188
1073.80 0.06186
1073.90 0.06183
1074.00 0.06181
1074.10 0.06178
1074.20 0.06176
1074.30 0.06173
1074.40 0.06171
1074.50 0.06168
1074.60 0.06166
1074.70 0.06163
1074.80 0.06161
1074.90 0.06158
1075.00 0.06156
1075.10 0.06153
1075.20 0.0615
1075.30 0.06148
1075.40 0.06145
1075.50 0.06143
1075.60 0.0614
1075.70 0.06138
1075.80 0.06135
1075.90 0.06133
1076.00 0.0613
1076.10 0.06128
1076.20 0.06125
1076.30 0.06123
1076.40 0.0612
1076.50 0.06118
1076.60 0.06115
1076.70 0.06113
1076.80 0.0611
1076.90 0.06108
1077.00 0.06105
1077.10 0.06102
1077.20 0.061
1077.30 0.06097
1077.40 0.06094
1077.50 0.06092
1077.60 0.06089
1077.70 0.06086
1077.80 0.06083
1077.90 0.06081
1078.00 0.06078
1078.10 0.06075
1078.20 0.06072
1078.30 0.0607
1078.40 0.06067
1078.50 0.06064
1078.60 0.06061
1078.70 0.06058
1078.80 0.06056
1078.90 0.06053
1079.00 0.0605
1079.10 0.06047
1079.20 0.06045
1079.30 0.06042
1079.40 0.06039
1079.50 0.06036
1079.60 0.06033
1079.70 0.0603
1079.80 0.06027
1079.90 0.06024
1080.00 0.06021
1080.10 0.06018
1080.20 0.06015
1080.30 0.06012
1080.40 0.06009
1080.50 0.06006
1080.60 0.06003
1080.70 0.05999
1080.80 0.05996
1080.90 0.05993
1081.00 0.0599
1081.10 0.05987
1081.20 0.05984
1081.30 0.05981
1081.40 0.05978
1081.50 0.05975
1081.60 0.05972
1081.70 0.05968
1081.80 0.05965
1081.90 0.05962
1082.00 0.05958
1082.10 0.05954
1082.20 0.05951
1082.30 0.05947
1082.40 0.05943
1082.50 0.0594
1082.60 0.05936
1082.70 0.05932
1082.80 0.05929
1082.90 0.05925
1083.00 0.05921
1083.10 0.05918
1083.20 0.05914
1083.30 0.0591
1083.40 0.05907
1083.50 0.05903
1083.60 0.05899
1083.70 0.05894
1083.80 0.0589
1083.90 0.05886
1084.00 0.05882
1084.10 0.05878
1084.20 0.05873
1084.30 0.05869
1084.40 0.05865
1084.50 0.0586
1084.60 0.05855
1084.70 0.0585
1084.80 0.05845
1084.90 0.05839
1085.00 0.05834
1085.10 0.05829
1085.20 0.05824
1085.30 0.05818
1085.40 0.05813
1085.50 0.05808
1085.60 0.05803
1085.70 0.05797
1085.80 0.05792
1085.90 0.05787
1086.00 0.05781
1086.10 0.05776
1086.20 0.05771
1086.30 0.05766
1086.40 0.05761
1086.50 0.05755
1086.60 0.05748
1086.70 0.05742
1086.80 0.05735
1086.90 0.05729
1087.00 0.05722
1087.10 0.05714
1087.20 0.05706
1087.30 0.05698
1087.40 0.0569
1087.50 0.05682
1087.60 0.05674
1087.70 0.05666
1087.80 0.05658
1087.90 0.0565
1088.00 0.05642
1088.10 0.05634
1088.20 0.05626
1088.30 0.05618
1088.40 0.0561
1088.50 0.05601
1088.60 0.05589
1088.70 0.05577
1088.80 0.05565
1088.90 0.05553
1089.00 0.05541
1089.10 0.05529
1089.20 0.05517
1089.30 0.05505
1089.40 0.05493
1089.50 0.05481
1089.60 0.05469
1089.70 0.05458
1089.80 0.05446
1089.90 0.05434
1090.00 0.05422
1090.10 0.0541
1090.20 0.05398
1090.30 0.05386
1090.40 0.05374
1090.50 0.0536
1090.60 0.05341
1090.70 0.05323
1090.80 0.05304
1090.90 0.05285
1091.00 0.05266
1091.10 0.05248
1091.20 0.05229
1091.30 0.0521
1091.40 0.05191
1091.50 0.05173
1091.60 0.05154
1091.70 0.05135
1091.80 0.05117
1091.90 0.05098
1092.00 0.05078
1092.10 0.05051
1092.20 0.05024
1092.30 0.04997
1092.40 0.0497
1092.50 0.04943
1092.60 0.04916
1092.70 0.04887
1092.80 0.04852
1092.90 0.04818
1093.00 0.04783
1093.10 0.04747
1093.20 0.04705
1093.30 0.04664
1093.40 0.04619
1093.50 0.04573
1093.60 0.04526
1093.70 0.04496
1093.80 0.0448
1093.90 0.04482
1094.00 0.04523
1094.10 0.04564
1094.20 0.04604
1094.30 0.04643
1094.40 0.04677
1094.50 0.04711
1094.60 0.04745
1094.70 0.04779
1094.80 0.04812
1094.90 0.04846
1095.00 0.04876
1095.10 0.04895
1095.20 0.04915
1095.30 0.04935
1095.40 0.04954
1095.50 0.04974
1095.60 0.04994
1095.70 0.05013
1095.80 0.05033
1095.90 0.05053
1096.00 0.05072
1096.10 0.05092
1096.20 0.05111
1096.30 0.05131
1096.40 0.05151
1096.50 0.05168
1096.60 0.05181
1096.70 0.05194
1096.80 0.05207
1096.90 0.0522
1097.00 0.05233
1097.10 0.05242
1097.20 0.05252
1097.30 0.05261
1097.40 0.0527
1097.50 0.05279
1097.60 0.05288
1097.70 0.05297
1097.80 0.05307
1097.90 0.05316
1098.00 0.05325
1098.10 0.05334
1098.20 0.05343
1098.30 0.05352
1098.40 0.05362
1098.50 0.05369
1098.60 0.05374
1098.70 0.05379
1098.80 0.05383
1098.90 0.05388
1099.00 0.05393
1099.10 0.05397
1099.20 0.05402
1099.30 0.05407
1099.40 0.05411
1099.50 0.05416
1099.60 0.05421
1099.70 0.05426
1099.80 0.0543
1099.90 0.05435
1100.00 0.0544
1100.10 0.05444
1100.20 0.05449
1100.30 0.05454
1100.40 0.05458
1100.50 0.05462
1100.60 0.05464
1100.70 0.05466
1100.80 0.05468
1100.90 0.0547
1101.00 0.05472
1101.10 0.05474
1101.20 0.05476
1101.30 0.05478
1101.40 0.0548
1101.50 0.05482
1101.60 0.05484
1101.70 0.05486
1101.80 0.05488
1101.90 0.0549
1102.00 0.05492
1102.10 0.05492
1102.20 0.05493
1102.30 0.05494
1102.40 0.05495
1102.50 0.05496
1102.60 0.05497
1102.70 0.05497
1102.80 0.05498
1102.90 0.05498
1103.00 0.05498
1103.10 0.05499
1103.20 0.05499
1103.30 0.055
1103.40 0.055
1103.50 0.055
1103.60 0.055
1103.70 0.055
1103.80 0.05499
1103.90 0.05499
1104.00 0.05499
1104.10 0.05498
1104.20 0.05498
1104.30 0.05498
1104.40 0.05498
1104.50 0.05497
1104.60 0.05497
1104.70 0.05497
1104.80 0.05496
1104.90 0.05496
1105.00 0.05496
1105.10 0.05495
1105.20 0.05495
1105.30 0.05495
1105.40 0.05494
1105.50 0.05494
1105.60 0.05493
1105.70 0.05492
1105.80 0.05491
1105.90 0.0549
1106.00 0.05489
1106.10 0.05489
1106.20 0.05488
1106.30 0.05487
1106.40 0.05486
1106.50 0.05485
1106.60 0.05484
1106.70 0.05483
1106.80 0.05482
1106.90 0.05481
1107.00 0.05481
1107.10 0.05479
1107.20 0.05478
1107.30 0.05477
1107.40 0.05476
1107.50 0.05475
1107.60 0.05474
1107.70 0.05472
1107.80 0.05471
1107.90 0.0547
1108.00 0.05469
1108.10 0.05467
1108.20 0.05466
1108.30 0.05465
1108.40 0.05464
1108.50 0.05462
1108.60 0.05461
1108.70 0.0546
1108.80 0.05458
1108.90 0.05457
1109.00 0.05456
1109.10 0.05455
1109.20 0.05453
1109.30 0.05452
1109.40 0.05451
1109.50 0.05449
1109.60 0.05448
1109.70 0.05446
1109.80 0.05445
1109.90 0.05443
1110.00 0.05442
1110.10 0.0544
1110.20 0.05439
1110.30 0.05438
1110.40 0.05436
1110.50 0.05435
1110.60 0.05433
1110.70 0.05432
1110.80 0.0543
1110.90 0.05429
1111.00 0.05427
1111.10 0.05426
1111.20 0.05424
1111.30 0.05423
1111.40 0.05421
1111.50 0.0542
1111.60 0.05418
1111.70 0.05417
1111.80 0.05415
1111.90 0.05414
1112.00 0.05412
1112.10 0.05411
1112.20 0.05409
1112.30 0.05407
1112.40 0.05406
1112.50 0.05404
1112.60 0.05403
1112.70 0.05401
1112.80 0.05399
1112.90 0.05398
1113.00 0.05396
1113.10 0.05395
1113.20 0.05393
1113.30 0.05392
1113.40 0.0539
1113.50 0.05388
1113.60 0.05387
1113.70 0.05385
1113.80 0.05383
1113.90 0.05382
1114.00 0.0538
1114.10 0.05378
1114.20 0.05377
1114.30 0.05375
1114.40 0.05373
1114.50 0.05372
1114.60 0.0537
1114.70 0.05368
1114.80 0.05367
1114.90 0.05365
1115.00 0.05363
1115.10 0.05362
1115.20 0.0536
1115.30 0.05358
1115.40 0.05357
1115.50 0.05355
1115.60 0.05353
1115.70 0.05352
1115.80 0.0535
1115.90 0.05348
1116.00 0.05347
1116.10 0.05345
1116.20 0.05343
1116.30 0.05342
1116.40 0.0534
1116.50 0.05338
1116.60 0.05337
1116.70 0.05335
1116.80 0.05333
1116.90 0.05332
1117.00 0.0533
1117.10 0.05328
1117.20 0.05327
1117.30 0.05325
1117.40 0.05323
1117.50 0.05321
1117.60 0.0532
1117.70 0.05318
1117.80 0.05316
1117.90 0.05314
1118.00 0.05313
1118.10 0.05311
1118.20 0.05309
1118.30 0.05308
1118.40 0.05306
1118.50 0.05304
1118.60 0.05302
1118.70 0.05301
1118.80 0.05299
1118.90 0.05297
1119.00 0.05296
1119.10 0.05294
1119.20 0.05292
1119.30 0.0529
1119.40 0.05289
1119.50 0.05287
1119.60 0.05285
1119.70 0.05283
1119.80 0.05282
1119.90 0.0528
1120.00 0.05278
1120.10 0.05277
1120.20 0.05275
1120.30 0.05273
1120.40 0.05272
1120.50 0.0527
1120.60 0.05268
1120.70 0.05266
1120.80 0.05265
1120.90 0.05263
1121.00 0.05261
1121.10 0.0526
1121.20 0.05258
1121.30 0.05256
1121.40 0.05254
1121.50 0.05253
1121.60 0.05251
1121.70 0.05249
1121.80 0.05248
1121.90 0.05246
1122.00 0.05244
1122.10 0.05242
1122.20 0.05241
1122.30 0.05239
1122.40 0.05237
1122.50 0.05236
1122.60 0.05234
1122.70 0.05232
1122.80 0.0523
1122.90 0.05229
1123.00 0.05227
1123.10 0.05225
1123.20 0.05223
1123.30 0.05222
1123.40 0.0522
1123.50 0.05218
1123.60 0.05216
1123.70 0.05215
1123.80 0.05213
1123.90 0.05211
1124.00 0.0521
1124.10 0.05208
1124.20 0.05206
1124.30 0.05204
1124.40 0.05203
1124.50 0.05201
1124.60 0.05199
1124.70 0.05198
1124.80 0.05196
1124.90 0.05194
1125.00 0.05192
1125.10 0.05191
1125.20 0.05189
1125.30 0.05187
1125.40 0.05185
1125.50 0.05184
1125.60 0.05182
1125.70 0.0518
1125.80 0.05179
1125.90 0.05177
1126.00 0.05175
1126.10 0.05173
1126.20 0.05172
1126.30 0.0517
1126.40 0.05168
1126.50 0.05167
1126.60 0.05165
1126.70 0.05163
1126.80 0.05161
1126.90 0.0516
1127.00 0.05158
1127.10 0.05156
1127.20 0.05155
1127.30 0.05153
1127.40 0.05151
1127.50 0.05149
1127.60 0.05148
1127.70 0.05146
1127.80 0.05144
1127.90 0.05143
1128.00 0.05141
1128.10 0.05139
1128.20 0.05137
1128.30 0.05136
1128.40 0.05134
1128.50 0.05132
1128.60 0.05131
1128.70 0.05129
1128.80 0.05127
1128.90 0.05125
1129.00 0.05124
1129.10 0.05122
1129.20 0.0512
1129.30 0.05119
1129.40 0.05117
1129.50 0.05115
1129.60 0.05114
1129.70 0.05112
1129.80 0.0511
1129.90 0.05108
1130.00 0.05107
1130.10 0.05105
1130.20 0.05103
1130.30 0.05102
1130.40 0.051
1130.50 0.05098
1130.60 0.05096
1130.70 0.05095
1130.80 0.05093
1130.90 0.05091
1131.00 0.0509
1131.10 0.05088
1131.20 0.05086
1131.30 0.05085
1131.40 0.05083
1131.50 0.05081
1131.60 0.0508
1131.70 0.05078
1131.80 0.05076
1131.90 0.05074
1132.00 0.05073
1132.10 0.05071
1132.20 0.05069
1132.30 0.05068
1132.40 0.05066
1132.50 0.05064
1132.60 0.05063
1132.70 0.05061
1132.80 0.05059
1132.90 0.05058
1133.00 0.05056
1133.10 0.05054
1133.20 0.05052
1133.30 0.05051
1133.40 0.05049
1133.50 0.05047
1133.60 0.05046
1133.70 0.05044
1133.80 0.05042
1133.90 0.05041
1134.00 0.05039
1134.10 0.05037
1134.20 0.05036
1134.30 0.05034
1134.40 0.05032
1134.50 0.05031
1134.60 0.05029
1134.70 0.05027
1134.80 0.05026
1134.90 0.05024
1135.00 0.05022
1135.10 0.0502
1135.20 0.05019
1135.30 0.05017
1135.40 0.05015
1135.50 0.05014
1135.60 0.05012
1135.70 0.0501
1135.80 0.05009
1135.90 0.05007
1136.00 0.05005
1136.10 0.05004
1136.20 0.05002
1136.30 0.05
1136.40 0.04999
1136.50 0.04997
1136.60 0.04995
1136.70 0.04994
1136.80 0.04992
1136.90 0.0499
1137.00 0.04989
1137.10 0.04987
1137.20 0.04985
1137.30 0.04984
1137.40 0.04982
1137.50 0.0498
1137.60 0.04979
1137.70 0.04977
1137.80 0.04975
1137.90 0.04974
1138.00 0.04972
1138.10 0.0497
1138.20 0.04969
1138.30 0.04967
1138.40 0.04965
1138.50 0.04964
1138.60 0.04962
1138.70 0.0496
1138.80 0.04959
1138.90 0.04957
1139.00 0.04956
1139.10 0.04954
1139.20 0.04952
1139.30 0.04951
1139.40 0.04949
1139.50 0.04947
1139.60 0.04946
1139.70 0.04944
1139.80 0.04942
1139.90 0.04941
1140.00 0.04939
1140.10 0.04937
1140.20 0.04936
1140.30 0.04934
1140.40 0.04932
1140.50 0.04931
1140.60 0.04929
1140.70 0.04927
1140.80 0.04926
1140.90 0.04924
1141.00 0.04923
1141.10 0.04921
1141.20 0.04919
1141.30 0.04918
1141.40 0.04916
1141.50 0.04914
1141.60 0.04913
1141.70 0.04911
1141.80 0.04909
1141.90 0.04908
1142.00 0.04906
1142.10 0.04904
1142.20 0.04903
1142.30 0.04901
1142.40 0.049
1142.50 0.04898
1142.60 0.04896
1142.70 0.04895
1142.80 0.04893
1142.90 0.04891
1143.00 0.0489
1143.10 0.04888
1143.20 0.04887
1143.30 0.04885
1143.40 0.04883
1143.50 0.04882
1143.60 0.0488
1143.70 0.04878
1143.80 0.04877
1143.90 0.04875
1144.00 0.04874
1144.10 0.04872
1144.20 0.0487
1144.30 0.04869
1144.40 0.04867
1144.50 0.04865
1144.60 0.04864
1144.70 0.04862
1144.80 0.04861
1144.90 0.04859
1145.00 0.04857
1145.10 0.04856
1145.20 0.04854
1145.30 0.04852
1145.40 0.04851
1145.50 0.04849
1145.60 0.04848
1145.70 0.04846
1145.80 0.04844
1145.90 0.04843
1146.00 0.04841
1146.10 0.0484
1146.20 0.04838
1146.30 0.04836
1146.40 0.04835
1146.50 0.04833
1146.60 0.04831
1146.70 0.0483
1146.80 0.04828
1146.90 0.04827
1147.00 0.04825
1147.10 0.04823
1147.20 0.04822
1147.30 0.0482
1147.40 0.04819
1147.50 0.04817
1147.60 0.04815
1147.70 0.04814
1147.80 0.04812
1147.90 0.04811
1148.00 0.04809
1148.10 0.04807
1148.20 0.04806
1148.30 0.04804
1148.40 0.04803
1148.50 0.04801
1148.60 0.04799
1148.70 0.04798
1148.80 0.04796
1148.90 0.04795
1149.00 0.04793
1149.10 0.04792
1149.20 0.0479
1149.30 0.04788
1149.40 0.04787
1149.50 0.04785
1149.60 0.04784
1149.70 0.04782
1149.80 0.0478
1149.90 0.04779
1150.00 0.04777
1150.10 0.04776
1150.20 0.04774
1150.30 0.04772
1150.40 0.04771
1150.50 0.04769
1150.60 0.04768
1150.70 0.04766
1150.80 0.04765
1150.90 0.04763
1151.00 0.04761
1151.10 0.0476
1151.20 0.04758
1151.30 0.04757
1151.40 0.04755
1151.50 0.04753
1151.60 0.04752
1151.70 0.0475
1151.80 0.04749
1151.90 0.04747
1152.00 0.04746
1152.10 0.04744
1152.20 0.04742
1152.30 0.04741
1152.40 0.04739
1152.50 0.04738
1152.60 0.04736
1152.70 0.04735
1152.80 0.04733
1152.90 0.04731
1153.00 0.0473
1153.10 0.04728
1153.20 0.04727
1153.30 0.04725
1153.40 0.04724
1153.50 0.04722
1153.60 0.04721
1153.70 0.04719
1153.80 0.04717
1153.90 0.04716
1154.00 0.04714
1154.10 0.04713
1154.20 0.04711
1154.30 0.0471
1154.40 0.04708
1154.50 0.04706
1154.60 0.04705
1154.70 0.04703
1154.80 0.04702
1154.90 0.047
1155.00 0.04699
1155.10 0.04697
1155.20 0.04696
1155.30 0.04694
1155.40 0.04692
1155.50 0.04691
1155.60 0.04689
1155.70 0.04688
1155.80 0.04686
1155.90 0.04685
1156.00 0.04683
1156.10 0.04682
1156.20 0.0468
1156.30 0.04678
1156.40 0.04677
1156.50 0.04675
1156.60 0.04674
1156.70 0.04672
1156.80 0.04671
1156.90 0.04669
1157.00 0.04668
1157.10 0.04666
1157.20 0.04665
1157.30 0.04663
1157.40 0.04661
1157.50 0.0466
1157.60 0.04658
1157.70 0.04657
1157.80 0.04655
1157.90 0.04654
1158.00 0.04652
1158.10 0.04651
1158.20 0.04649
1158.30 0.04648
1158.40 0.04646
1158.50 0.04645
1158.60 0.04643
1158.70 0.04642
1158.80 0.0464
1158.90 0.04638
1159.00 0.04637
1159.10 0.04635
1159.20 0.04634
1159.30 0.04632
1159.40 0.04631
1159.50 0.04629
1159.60 0.04628
1159.70 0.04626
1159.80 0.04625
1159.90 0.04623
1160.00 0.04622
1160.10 0.0462
1160.20 0.04619
1160.30 0.04617
1160.40 0.04616
1160.50 0.04614
1160.60 0.04613
1160.70 0.04611
1160.80 0.04609
1160.90 0.04608
1161.00 0.04606
1161.10 0.04605
1161.20 0.04603
1161.30 0.04602
1161.40 0.046
1161.50 0.04599
1161.60 0.04597
1161.70 0.04596
1161.80 0.04594
1161.90 0.04593
1162.00 0.04591
1162.10 0.0459
1162.20 0.04588
1162.30 0.04587
1162.40 0.04585
1162.50 0.04584
1162.60 0.04582
1162.70 0.04581
1162.80 0.04579
1162.90 0.04578
1163.00 0.04576
1163.10 0.04575
1163.20 0.04573
1163.30 0.04572
1163.40 0.0457
1163.50 0.04569
1163.60 0.04567
1163.70 0.04566
1163.80 0.04564
1163.90 0.04563
1164.00 0.04561
1164.10 0.0456
1164.20 0.04558
1164.30 0.04557
1164.40 0.04555
1164.50 0.04554
1164.60 0.04552
1164.70 0.04551
1164.80 0.04549
1164.90 0.04548
1165.00 0.04546
1165.10 0.04545
1165.20 0.04543
1165.30 0.04542
1165.40 0.0454
1165.50 0.04539
1165.60 0.04537
1165.70 0.04536
1165.80 0.04534
1165.90 0.04533
1166.00 0.04531
1166.10 0.0453
1166.20 0.04528
1166.30 0.04527
1166.40 0.04525
1166.50 0.04524
1166.60 0.04522
1166.70 0.04521
1166.80 0.04519
1166.90 0.04518
1167.00 0.04516
1167.10 0.04515
1167.20 0.04513
1167.30 0.04512
1167.40 0.0451
1167.50 0.04509
1167.60 0.04508
1167.70 0.04506
1167.80 0.04505
1167.90 0.04503
1168.00 0.04502
1168.10 0.045
1168.20 0.04499
1168.30 0.04497
1168.40 0.04496
1168.50 0.04494
1168.60 0.04493
1168.70 0.04491
1168.80 0.0449
1168.90 0.04488
1169.00 0.04487
1169.10 0.04485
1169.20 0.04484
1169.30 0.04483
1169.40 0.04481
1169.50 0.0448
1169.60 0.04478
1169.70 0.04477
1169.80 0.04475
1169.90 0.04474
1170.00 0.04472
1170.10 0.04471
1170.20 0.04469
1170.30 0.04468
1170.40 0.04466
1170.50 0.04465
1170.60 0.04463
1170.70 0.04462
1170.80 0.04461
1170.90 0.04459
1171.00 0.04458
1171.10 0.04456
1171.20 0.04455
1171.30 0.04453
1171.40 0.04452
1171.50 0.0445
1171.60 0.04449
1171.70 0.04447
1171.80 0.04446
1171.90 0.04445
1172.00 0.04443
1172.10 0.04442
1172.20 0.0444
1172.30 0.04439
1172.40 0.04437
1172.50 0.04436
1172.60 0.04434
1172.70 0.04433
1172.80 0.04431
1172.90 0.0443
1173.00 0.04429
1173.10 0.04427
1173.20 0.04426
1173.30 0.04424
1173.40 0.04423
1173.50 0.04421
1173.60 0.0442
1173.70 0.04418
1173.80 0.04417
1173.90 0.04416
1174.00 0.04414
1174.10 0.04413
1174.20 0.04411
1174.30 0.0441
1174.40 0.04408
1174.50 0.04407
1174.60 0.04406
1174.70 0.04404
1174.80 0.04403
1174.90 0.04401
1175.00 0.044
1175.10 0.04398
1175.20 0.04397
1175.30 0.04395
1175.40 0.04394
1175.50 0.04393
1175.60 0.04391
1175.70 0.0439
1175.80 0.04388
1175.90 0.04387
1176.00 0.04385
1176.10 0.04384
1176.20 0.04383
1176.30 0.04381
1176.40 0.0438
1176.50 0.04378
1176.60 0.04377
1176.70 0.04375
1176.80 0.04374
1176.90 0.04373
1177.00 0.04371
1177.10 0.0437
1177.20 0.04368
1177.30 0.04367
1177.40 0.04365
1177.50 0.04364
1177.60 0.04363
1177.70 0.04361
1177.80 0.0436
1177.90 0.04358
1178.00 0.04357
1178.10 0.04356
1178.20 0.04354
1178.30 0.04353
1178.40 0.04351
1178.50 0.0435
1178.60 0.04349
1178.70 0.04347
1178.80 0.04346
1178.90 0.04344
1179.00 0.04343
1179.10 0.04341
1179.20 0.0434
1179.30 0.04339
1179.40 0.04337
1179.50 0.04336
1179.60 0.04334
1179.70 0.04333
1179.80 0.04332
1179.90 0.0433
1180.00 0.04329
1180.10 0.04327
1180.20 0.04326
1180.30 0.04325
1180.40 0.04323
1180.50 0.04322
1180.60 0.0432
1180.70 0.04319
1180.80 0.04318
1180.90 0.04316
1181.00 0.04315
1181.10 0.04313
1181.20 0.04312
1181.30 0.04311
1181.40 0.04309
1181.50 0.04308
1181.60 0.04306
1181.70 0.04305
1181.80 0.04303
1181.90 0.04302
1182.00 0.04301
1182.10 0.04299
1182.20 0.04298
1182.30 0.04297
1182.40 0.04295
1182.50 0.04294
1182.60 0.04292
1182.70 0.04291
1182.80 0.0429
1182.90 0.04288
1183.00 0.04287
1183.10 0.04285
1183.20 0.04284
1183.30 0.04283
1183.40 0.04281
1183.50 0.0428
1183.60 0.04278
1183.70 0.04277
1183.80 0.04276
1183.90 0.04274
1184.00 0.04273
1184.10 0.04272
1184.20 0.0427
1184.30 0.04269
1184.40 0.04267
1184.50 0.04266
1184.60 0.04265
1184.70 0.04263
1184.80 0.04262
1184.90 0.04261
1185.00 0.04259
1185.10 0.04258
1185.20 0.04256
1185.30 0.04255
1185.40 0.04254
1185.50 0.04252
1185.60 0.04251
1185.70 0.0425
1185.80 0.04248
1185.90 0.04247
1186.00 0.04245
1186.10 0.04244
1186.20 0.04243
1186.30 0.04241
1186.40 0.0424
1186.50 0.04239
1186.60 0.04237
1186.70 0.04236
1186.80 0.04234
1186.90 0.04233
1187.00 0.04232
1187.10 0.0423
1187.20 0.04229
1187.30 0.04228
1187.40 0.04226
1187.50 0.04225
1187.60 0.04223
1187.70 0.04222
1187.80 0.04221
1187.90 0.04219
1188.00 0.04218
1188.10 0.04217
1188.20 0.04215
1188.30 0.04214
1188.40 0.04213
1188.50 0.04211
1188.60 0.0421
1188.70 0.04209
1188.80 0.04207
1188.90 0.04206
1189.00 0.04204
1189.10 0.04203
1189.20 0.04202
1189.30 0.042
1189.40 0.04199
1189.50 0.04198
1189.60 0.04196
1189.70 0.04195
1189.80 0.04194
1189.90 0.04192
1190.00 0.04191
1190.10 0.0419
1190.20 0.04188
1190.30 0.04187
1190.40 0.04186
1190.50 0.04184
1190.60 0.04183
1190.70 0.04181
1190.80 0.0418
1190.90 0.04179
1191.00 0.04177
1191.10 0.04176
1191.20 0.04175
1191.30 0.04173
1191.40 0.04172
1191.50 0.04171
1191.60 0.04169
1191.70 0.04168
1191.80 0.04167
1191.90 0.04165
1192.00 0.04164
1192.10 0.04163
1192.20 0.04161
1192.30 0.0416
1192.40 0.04159
1192.50 0.04157
1192.60 0.04156
1192.70 0.04155
1192.80 0.04153
1192.90 0.04152
1193.00 0.04151
1193.10 0.04149
1193.20 0.04148
1193.30 0.04147
1193.40 0.04145
1193.50 0.04144
1193.60 0.04143
1193.70 0.04141
1193.80 0.0414
1193.90 0.04139
1194.00 0.04137
1194.10 0.04136
1194.20 0.04135
1194.30 0.04133
1194.40 0.04132
1194.50 0.04131
1194.60 0.04129
1194.70 0.04128
1194.80 0.04127
1194.90 0.04125
1195.00 0.04124
1195.10 0.04123
1195.20 0.04121
1195.30 0.0412
1195.40 0.04119
1195.50 0.04117
1195.60 0.04116
1195.70 0.04115
1195.80 0.04113
1195.90 0.04112
1196.00 0.04111
1196.10 0.04109
1196.20 0.04108
1196.30 0.04107
1196.40 0.04105
1196.50 0.04104
1196.60 0.04103
1196.70 0.04102
1196.80 0.041
1196.90 0.04099
1197.00 0.04098
1197.10 0.04096
1197.20 0.04095
1197.30 0.04094
1197.40 0.04092
1197.50 0.04091
1197.60 0.0409
1197.70 0.04088
1197.80 0.04087
1197.90 0.04086
1198.00 0.04084
1198.10 0.04083
1198.20 0.04082
1198.30 0.04081
1198.40 0.04079
1198.50 0.04078
1198.60 0.04077
1198.70 0.04075
1198.80 0.04074
1198.90 0.04073
1199.00 0.04071
1199.10 0.0407
1199.20 0.04069
1199.30 0.04068
1199.40 0.04066
1199.50 0.04065
1199.60 0.04064
1199.70 0.04062
1199.80 0.04061
1199.90 0.0406
1200.00 0
