# Version 2.1 - nm, norm@500 to 1, cut digits, bergeron_20000_70.dat_20000
# Wavelength(nm)  Flambda(ergs/cm^s/s/nm)
300.00 3.186
300.10 3.183
300.20 3.18
300.30 3.177
300.40 3.174
300.50 3.171
300.60 3.169
300.70 3.166
300.80 3.163
300.90 3.16
301.00 3.157
301.10 3.154
301.20 3.151
301.30 3.148
301.40 3.145
301.50 3.142
301.60 3.139
301.70 3.136
301.80 3.133
301.90 3.13
302.00 3.127
302.10 3.124
302.20 3.121
302.30 3.118
302.40 3.115
302.50 3.113
302.60 3.11
302.70 3.107
302.80 3.104
302.90 3.101
303.00 3.098
303.10 3.095
303.20 3.092
303.30 3.089
303.40 3.086
303.50 3.084
303.60 3.081
303.70 3.078
303.80 3.075
303.90 3.072
304.00 3.069
304.10 3.066
304.20 3.064
304.30 3.061
304.40 3.058
304.50 3.055
304.60 3.052
304.70 3.049
304.80 3.047
304.90 3.044
305.00 3.041
305.10 3.038
305.20 3.035
305.30 3.032
305.40 3.03
305.50 3.027
305.60 3.024
305.70 3.021
305.80 3.018
305.90 3.016
306.00 3.013
306.10 3.01
306.20 3.007
306.30 3.004
306.40 3.002
306.50 2.999
306.60 2.996
306.70 2.993
306.80 2.991
306.90 2.988
307.00 2.985
307.10 2.982
307.20 2.98
307.30 2.977
307.40 2.974
307.50 2.971
307.60 2.969
307.70 2.966
307.80 2.963
307.90 2.96
308.00 2.958
308.10 2.955
308.20 2.952
308.30 2.949
308.40 2.947
308.50 2.944
308.60 2.941
308.70 2.939
308.80 2.936
308.90 2.933
309.00 2.931
309.10 2.928
309.20 2.925
309.30 2.923
309.40 2.92
309.50 2.917
309.60 2.915
309.70 2.912
309.80 2.909
309.90 2.906
310.00 2.904
310.10 2.901
310.20 2.899
310.30 2.896
310.40 2.893
310.50 2.891
310.60 2.888
310.70 2.885
310.80 2.883
310.90 2.88
311.00 2.877
311.10 2.875
311.20 2.872
311.30 2.87
311.40 2.867
311.50 2.864
311.60 2.862
311.70 2.859
311.80 2.856
311.90 2.854
312.00 2.851
312.10 2.849
312.20 2.846
312.30 2.844
312.40 2.841
312.50 2.838
312.60 2.836
312.70 2.833
312.80 2.831
312.90 2.828
313.00 2.825
313.10 2.823
313.20 2.82
313.30 2.818
313.40 2.815
313.50 2.813
313.60 2.81
313.70 2.808
313.80 2.805
313.90 2.803
314.00 2.8
314.10 2.797
314.20 2.795
314.30 2.792
314.40 2.79
314.50 2.787
314.60 2.785
314.70 2.782
314.80 2.78
314.90 2.777
315.00 2.775
315.10 2.772
315.20 2.77
315.30 2.767
315.40 2.765
315.50 2.762
315.60 2.76
315.70 2.757
315.80 2.755
315.90 2.752
316.00 2.75
316.10 2.747
316.20 2.745
316.30 2.742
316.40 2.74
316.50 2.738
316.60 2.735
316.70 2.733
316.80 2.73
316.90 2.728
317.00 2.725
317.10 2.723
317.20 2.72
317.30 2.718
317.40 2.715
317.50 2.713
317.60 2.711
317.70 2.708
317.80 2.706
317.90 2.703
318.00 2.701
318.10 2.699
318.20 2.696
318.30 2.694
318.40 2.691
318.50 2.689
318.60 2.686
318.70 2.684
318.80 2.682
318.90 2.679
319.00 2.677
319.10 2.674
319.20 2.672
319.30 2.67
319.40 2.667
319.50 2.665
319.60 2.663
319.70 2.66
319.80 2.658
319.90 2.655
320.00 2.653
320.10 2.651
320.20 2.648
320.30 2.646
320.40 2.644
320.50 2.641
320.60 2.639
320.70 2.637
320.80 2.634
320.90 2.632
321.00 2.63
321.10 2.627
321.20 2.625
321.30 2.623
321.40 2.62
321.50 2.618
321.60 2.616
321.70 2.613
321.80 2.611
321.90 2.609
322.00 2.606
322.10 2.604
322.20 2.602
322.30 2.599
322.40 2.597
322.50 2.595
322.60 2.593
322.70 2.59
322.80 2.588
322.90 2.586
323.00 2.583
323.10 2.581
323.20 2.579
323.30 2.577
323.40 2.574
323.50 2.572
323.60 2.57
323.70 2.568
323.80 2.565
323.90 2.563
324.00 2.561
324.10 2.558
324.20 2.556
324.30 2.554
324.40 2.552
324.50 2.549
324.60 2.547
324.70 2.545
324.80 2.543
324.90 2.541
325.00 2.538
325.10 2.536
325.20 2.534
325.30 2.532
325.40 2.529
325.50 2.527
325.60 2.525
325.70 2.523
325.80 2.521
325.90 2.518
326.00 2.516
326.10 2.514
326.20 2.512
326.30 2.51
326.40 2.507
326.50 2.505
326.60 2.503
326.70 2.501
326.80 2.499
326.90 2.496
327.00 2.494
327.10 2.492
327.20 2.49
327.30 2.488
327.40 2.485
327.50 2.483
327.60 2.481
327.70 2.479
327.80 2.477
327.90 2.475
328.00 2.473
328.10 2.47
328.20 2.468
328.30 2.466
328.40 2.464
328.50 2.462
328.60 2.46
328.70 2.457
328.80 2.455
328.90 2.453
329.00 2.451
329.10 2.449
329.20 2.447
329.30 2.445
329.40 2.443
329.50 2.44
329.60 2.438
329.70 2.436
329.80 2.434
329.90 2.432
330.00 2.43
330.10 2.428
330.20 2.426
330.30 2.424
330.40 2.421
330.50 2.419
330.60 2.417
330.70 2.415
330.80 2.413
330.90 2.411
331.00 2.409
331.10 2.407
331.20 2.405
331.30 2.403
331.40 2.401
331.50 2.399
331.60 2.396
331.70 2.394
331.80 2.392
331.90 2.39
332.00 2.388
332.10 2.386
332.20 2.384
332.30 2.382
332.40 2.38
332.50 2.378
332.60 2.376
332.70 2.374
332.80 2.372
332.90 2.37
333.00 2.368
333.10 2.366
333.20 2.364
333.30 2.362
333.40 2.36
333.50 2.358
333.60 2.356
333.70 2.353
333.80 2.351
333.90 2.349
334.00 2.347
334.10 2.345
334.20 2.343
334.30 2.341
334.40 2.339
334.50 2.337
334.60 2.335
334.70 2.333
334.80 2.331
334.90 2.329
335.00 2.327
335.10 2.325
335.20 2.323
335.30 2.321
335.40 2.319
335.50 2.317
335.60 2.315
335.70 2.313
335.80 2.312
335.90 2.31
336.00 2.308
336.10 2.306
336.20 2.304
336.30 2.302
336.40 2.3
336.50 2.298
336.60 2.296
336.70 2.294
336.80 2.292
336.90 2.29
337.00 2.288
337.10 2.286
337.20 2.284
337.30 2.282
337.40 2.28
337.50 2.278
337.60 2.276
337.70 2.274
337.80 2.272
337.90 2.271
338.00 2.269
338.10 2.267
338.20 2.265
338.30 2.263
338.40 2.261
338.50 2.259
338.60 2.257
338.70 2.255
338.80 2.253
338.90 2.251
339.00 2.249
339.10 2.248
339.20 2.246
339.30 2.244
339.40 2.242
339.50 2.24
339.60 2.238
339.70 2.236
339.80 2.234
339.90 2.232
340.00 2.23
340.10 2.229
340.20 2.227
340.30 2.225
340.40 2.223
340.50 2.221
340.60 2.219
340.70 2.217
340.80 2.215
340.90 2.214
341.00 2.212
341.10 2.21
341.20 2.208
341.30 2.206
341.40 2.204
341.50 2.202
341.60 2.201
341.70 2.199
341.80 2.197
341.90 2.195
342.00 2.193
342.10 2.191
342.20 2.189
342.30 2.188
342.40 2.186
342.50 2.184
342.60 2.182
342.70 2.18
342.80 2.178
342.90 2.177
343.00 2.175
343.10 2.173
343.20 2.171
343.30 2.169
343.40 2.167
343.50 2.166
343.60 2.164
343.70 2.162
343.80 2.16
343.90 2.158
344.00 2.157
344.10 2.155
344.20 2.153
344.30 2.151
344.40 2.149
344.50 2.148
344.60 2.146
344.70 2.144
344.80 2.142
344.90 2.14
345.00 2.139
345.10 2.137
345.20 2.135
345.30 2.133
345.40 2.132
345.50 2.13
345.60 2.128
345.70 2.126
345.80 2.124
345.90 2.123
346.00 2.121
346.10 2.119
346.20 2.117
346.30 2.116
346.40 2.114
346.50 2.112
346.60 2.11
346.70 2.109
346.80 2.107
346.90 2.105
347.00 2.103
347.10 2.102
347.20 2.1
347.30 2.098
347.40 2.096
347.50 2.095
347.60 2.093
347.70 2.091
347.80 2.089
347.90 2.088
348.00 2.086
348.10 2.084
348.20 2.082
348.30 2.081
348.40 2.079
348.50 2.077
348.60 2.076
348.70 2.074
348.80 2.072
348.90 2.07
349.00 2.069
349.10 2.067
349.20 2.065
349.30 2.064
349.40 2.062
349.50 2.06
349.60 2.059
349.70 2.057
349.80 2.055
349.90 2.053
350.00 2.052
350.10 2.05
350.20 2.048
350.30 2.047
350.40 2.045
350.50 2.043
350.60 2.042
350.70 2.04
350.80 2.038
350.90 2.037
351.00 2.035
351.10 2.033
351.20 2.032
351.30 2.03
351.40 2.028
351.50 2.027
351.60 2.025
351.70 2.023
351.80 2.022
351.90 2.02
352.00 2.018
352.10 2.017
352.20 2.015
352.30 2.013
352.40 2.012
352.50 2.01
352.60 2.008
352.70 2.007
352.80 2.005
352.90 2.003
353.00 2.002
353.10 2
353.20 1.998
353.30 1.997
353.40 1.995
353.50 1.994
353.60 1.992
353.70 1.99
353.80 1.989
353.90 1.987
354.00 1.985
354.10 1.984
354.20 1.982
354.30 1.981
354.40 1.979
354.50 1.977
354.60 1.976
354.70 1.974
354.80 1.973
354.90 1.971
355.00 1.969
355.10 1.968
355.20 1.966
355.30 1.964
355.40 1.963
355.50 1.961
355.60 1.96
355.70 1.958
355.80 1.957
355.90 1.955
356.00 1.953
356.10 1.952
356.20 1.95
356.30 1.949
356.40 1.947
356.50 1.945
356.60 1.944
356.70 1.942
356.80 1.941
356.90 1.939
357.00 1.938
357.10 1.936
357.20 1.934
357.30 1.933
357.40 1.931
357.50 1.93
357.60 1.928
357.70 1.927
357.80 1.925
357.90 1.923
358.00 1.922
358.10 1.92
358.20 1.919
358.30 1.917
358.40 1.916
358.50 1.914
358.60 1.913
358.70 1.911
358.80 1.909
358.90 1.908
359.00 1.906
359.10 1.905
359.20 1.903
359.30 1.902
359.40 1.9
359.50 1.899
359.60 1.897
359.70 1.896
359.80 1.894
359.90 1.893
360.00 1.891
360.10 1.89
360.20 1.888
360.30 1.887
360.40 1.885
360.50 1.883
360.60 1.882
360.70 1.88
360.80 1.879
360.90 1.877
361.00 1.876
361.10 1.874
361.20 1.873
361.30 1.871
361.40 1.87
361.50 1.868
361.60 1.867
361.70 1.865
361.80 1.864
361.90 1.862
362.00 1.861
362.10 1.859
362.20 1.858
362.30 1.856
362.40 1.855
362.50 1.853
362.60 1.852
362.70 1.851
362.80 1.849
362.90 1.848
363.00 1.846
363.10 1.845
363.20 1.843
363.30 1.842
363.40 1.84
363.50 1.839
363.60 1.837
363.70 1.836
363.80 1.834
363.90 1.833
364.00 1.831
364.10 1.83
364.20 1.828
364.30 1.827
364.40 1.826
364.50 1.824
364.60 1.823
364.70 1.821
364.80 1.82
364.90 1.818
365.00 1.817
365.10 1.815
365.20 1.814
365.30 1.812
365.40 1.811
365.50 1.81
365.60 1.808
365.70 1.807
365.80 1.805
365.90 1.804
366.00 1.802
366.10 1.801
366.20 1.799
366.30 1.797
366.40 1.795
366.50 1.793
366.60 1.791
366.70 1.79
366.80 1.788
366.90 1.786
367.00 1.784
367.10 1.782
367.20 1.78
367.30 1.779
367.40 1.777
367.50 1.775
367.60 1.773
367.70 1.771
367.80 1.769
367.90 1.768
368.00 1.766
368.10 1.764
368.20 1.762
368.30 1.761
368.40 1.759
368.50 1.757
368.60 1.756
368.70 1.754
368.80 1.752
368.90 1.751
369.00 1.749
369.10 1.747
369.20 1.746
369.30 1.744
369.40 1.742
369.50 1.741
369.60 1.739
369.70 1.737
369.80 1.736
369.90 1.734
370.00 1.732
370.10 1.731
370.20 1.73
370.30 1.728
370.40 1.727
370.50 1.726
370.60 1.724
370.70 1.723
370.80 1.722
370.90 1.72
371.00 1.719
371.10 1.718
371.20 1.716
371.30 1.715
371.40 1.714
371.50 1.712
371.60 1.711
371.70 1.71
371.80 1.708
371.90 1.707
372.00 1.706
372.10 1.705
372.20 1.705
372.30 1.704
372.40 1.704
372.50 1.703
372.60 1.703
372.70 1.702
372.80 1.702
372.90 1.701
373.00 1.701
373.10 1.7
373.20 1.7
373.30 1.699
373.40 1.699
373.50 1.698
373.60 1.698
373.70 1.697
373.80 1.697
373.90 1.696
374.00 1.696
374.10 1.696
374.20 1.696
374.30 1.695
374.40 1.695
374.50 1.695
374.60 1.695
374.70 1.695
374.80 1.695
374.90 1.694
375.00 1.694
375.10 1.694
375.20 1.694
375.30 1.694
375.40 1.693
375.50 1.693
375.60 1.693
375.70 1.693
375.80 1.693
375.90 1.692
376.00 1.692
376.10 1.686
376.20 1.679
376.30 1.672
376.40 1.666
376.50 1.659
376.60 1.652
376.70 1.646
376.80 1.639
376.90 1.632
377.00 1.626
377.10 1.633
377.20 1.64
377.30 1.647
377.40 1.655
377.50 1.662
377.60 1.669
377.70 1.676
377.80 1.683
377.90 1.691
378.00 1.698
378.10 1.693
378.20 1.688
378.30 1.683
378.40 1.678
378.50 1.673
378.60 1.668
378.70 1.663
378.80 1.657
378.90 1.652
379.00 1.647
379.10 1.638
379.20 1.628
379.30 1.618
379.40 1.608
379.50 1.598
379.60 1.589
379.70 1.579
379.80 1.569
379.90 1.559
380.00 1.55
380.10 1.566
380.20 1.583
380.30 1.599
380.40 1.616
380.50 1.632
380.60 1.649
380.70 1.665
380.80 1.682
380.90 1.698
381.00 1.715
381.10 1.719
381.20 1.724
381.30 1.728
381.40 1.733
381.50 1.737
381.60 1.736
381.70 1.732
381.80 1.726
381.90 1.719
382.00 1.709
382.10 1.696
382.20 1.682
382.30 1.656
382.40 1.631
382.50 1.605
382.60 1.579
382.70 1.554
382.80 1.528
382.90 1.503
383.00 1.478
383.10 1.452
383.20 1.427
383.30 1.393
383.40 1.359
383.50 1.326
383.60 1.333
383.70 1.367
383.80 1.4
383.90 1.433
384.00 1.466
384.10 1.498
384.20 1.529
384.30 1.558
384.40 1.587
384.50 1.613
384.60 1.639
384.70 1.663
384.80 1.685
384.90 1.706
385.00 1.725
385.10 1.742
385.20 1.757
385.30 1.772
385.40 1.784
385.50 1.794
385.60 1.804
385.70 1.81
385.80 1.816
385.90 1.82
386.00 1.821
386.10 1.822
386.20 1.821
386.30 1.817
386.40 1.812
386.50 1.805
386.60 1.796
386.70 1.785
386.80 1.773
386.90 1.759
387.00 1.742
387.10 1.725
387.20 1.704
387.30 1.683
387.40 1.659
387.50 1.633
387.60 1.606
387.70 1.577
387.80 1.545
387.90 1.513
388.00 1.479
388.10 1.442
388.20 1.405
388.30 1.366
388.40 1.326
388.50 1.285
388.60 1.243
388.70 1.199
388.80 1.157
388.90 1.117
389.00 1.153
389.10 1.192
389.20 1.235
389.30 1.276
389.40 1.316
389.50 1.355
389.60 1.392
389.70 1.429
389.80 1.464
389.90 1.497
390.00 1.53
390.10 1.561
390.20 1.591
390.30 1.619
390.40 1.646
390.50 1.671
390.60 1.695
390.70 1.718
390.80 1.739
390.90 1.759
391.00 1.778
391.10 1.795
391.20 1.811
391.30 1.826
391.40 1.84
391.50 1.853
391.60 1.865
391.70 1.875
391.80 1.885
391.90 1.893
392.00 1.901
392.10 1.907
392.20 1.913
392.30 1.918
392.40 1.922
392.50 1.925
392.60 1.926
392.70 1.927
392.80 1.928
392.90 1.927
393.00 1.925
393.10 1.923
393.20 1.919
393.30 1.915
393.40 1.91
393.50 1.904
393.60 1.897
393.70 1.889
393.80 1.88
393.90 1.87
394.00 1.859
394.10 1.846
394.20 1.833
394.30 1.819
394.40 1.804
394.50 1.787
394.60 1.77
394.70 1.75
394.80 1.73
394.90 1.709
395.00 1.686
395.10 1.662
395.20 1.637
395.30 1.61
395.40 1.582
395.50 1.553
395.60 1.522
395.70 1.491
395.80 1.458
395.90 1.423
396.00 1.387
396.10 1.351
396.20 1.312
396.30 1.273
396.40 1.233
396.50 1.191
396.60 1.147
396.70 1.103
396.80 1.055
396.90 0.999
397.00 0.936
397.10 0.9931
397.20 1.046
397.30 1.093
397.40 1.136
397.50 1.178
397.60 1.219
397.70 1.257
397.80 1.295
397.90 1.332
398.00 1.367
398.10 1.401
398.20 1.433
398.30 1.464
398.40 1.494
398.50 1.523
398.60 1.551
398.70 1.577
398.80 1.602
398.90 1.626
399.00 1.648
399.10 1.67
399.20 1.69
399.30 1.709
399.40 1.727
399.50 1.744
399.60 1.76
399.70 1.776
399.80 1.79
399.90 1.803
400.00 1.816
400.10 1.828
400.20 1.839
400.30 1.849
400.40 1.858
400.50 1.867
400.60 1.876
400.70 1.884
400.80 1.891
400.90 1.898
401.00 1.904
401.10 1.909
401.20 1.915
401.30 1.919
401.40 1.924
401.50 1.928
401.60 1.932
401.70 1.935
401.80 1.938
401.90 1.941
402.00 1.943
402.10 1.945
402.20 1.947
402.30 1.948
402.40 1.95
402.50 1.95
402.60 1.951
402.70 1.952
402.80 1.952
402.90 1.952
403.00 1.952
403.10 1.951
403.20 1.951
403.30 1.95
403.40 1.949
403.50 1.948
403.60 1.946
403.70 1.945
403.80 1.943
403.90 1.941
404.00 1.938
404.10 1.936
404.20 1.933
404.30 1.93
404.40 1.927
404.50 1.924
404.60 1.92
404.70 1.916
404.80 1.912
404.90 1.908
405.00 1.903
405.10 1.898
405.20 1.893
405.30 1.887
405.40 1.881
405.50 1.875
405.60 1.869
405.70 1.862
405.80 1.855
405.90 1.847
406.00 1.839
406.10 1.83
406.20 1.821
406.30 1.812
406.40 1.802
406.50 1.792
406.60 1.781
406.70 1.77
406.80 1.758
406.90 1.745
407.00 1.732
407.10 1.718
407.20 1.703
407.30 1.688
407.40 1.672
407.50 1.655
407.60 1.638
407.70 1.619
407.80 1.6
407.90 1.58
408.00 1.559
408.10 1.537
408.20 1.514
408.30 1.49
408.40 1.466
408.50 1.44
408.60 1.413
408.70 1.385
408.80 1.356
408.90 1.326
409.00 1.295
409.10 1.263
409.20 1.23
409.30 1.196
409.40 1.161
409.50 1.125
409.60 1.088
409.70 1.049
409.80 1.008
409.90 0.9659
410.00 0.9147
410.10 0.8622
410.20 0.8082
410.30 0.8813
410.40 0.9405
410.50 0.9859
410.60 1.025
410.70 1.063
410.80 1.1
410.90 1.135
411.00 1.168
411.10 1.201
411.20 1.233
411.30 1.263
411.40 1.293
411.50 1.321
411.60 1.348
411.70 1.374
411.80 1.399
411.90 1.423
412.00 1.446
412.10 1.467
412.20 1.488
412.30 1.508
412.40 1.527
412.50 1.544
412.60 1.562
412.70 1.577
412.80 1.593
412.90 1.607
413.00 1.621
413.10 1.634
413.20 1.646
413.30 1.657
413.40 1.668
413.50 1.679
413.60 1.688
413.70 1.697
413.80 1.706
413.90 1.714
414.00 1.721
414.10 1.728
414.20 1.735
414.30 1.741
414.40 1.747
414.50 1.752
414.60 1.757
414.70 1.762
414.80 1.766
414.90 1.77
415.00 1.774
415.10 1.778
415.20 1.781
415.30 1.784
415.40 1.787
415.50 1.789
415.60 1.792
415.70 1.794
415.80 1.796
415.90 1.798
416.00 1.799
416.10 1.801
416.20 1.802
416.30 1.803
416.40 1.805
416.50 1.806
416.60 1.806
416.70 1.807
416.80 1.808
416.90 1.808
417.00 1.809
417.10 1.809
417.20 1.809
417.30 1.809
417.40 1.81
417.50 1.81
417.60 1.81
417.70 1.81
417.80 1.809
417.90 1.809
418.00 1.809
418.10 1.809
418.20 1.808
418.30 1.808
418.40 1.807
418.50 1.807
418.60 1.806
418.70 1.806
418.80 1.805
418.90 1.804
419.00 1.804
419.10 1.803
419.20 1.802
419.30 1.801
419.40 1.8
419.50 1.8
419.60 1.799
419.70 1.798
419.80 1.797
419.90 1.796
420.00 1.795
420.10 1.794
420.20 1.793
420.30 1.792
420.40 1.791
420.50 1.789
420.60 1.788
420.70 1.787
420.80 1.786
420.90 1.785
421.00 1.784
421.10 1.782
421.20 1.781
421.30 1.78
421.40 1.778
421.50 1.777
421.60 1.776
421.70 1.774
421.80 1.773
421.90 1.772
422.00 1.77
422.10 1.769
422.20 1.767
422.30 1.766
422.40 1.765
422.50 1.763
422.60 1.762
422.70 1.76
422.80 1.759
422.90 1.757
423.00 1.755
423.10 1.754
423.20 1.752
423.30 1.751
423.40 1.749
423.50 1.747
423.60 1.746
423.70 1.744
423.80 1.742
423.90 1.74
424.00 1.739
424.10 1.737
424.20 1.735
424.30 1.733
424.40 1.731
424.50 1.729
424.60 1.727
424.70 1.726
424.80 1.724
424.90 1.722
425.00 1.72
425.10 1.717
425.20 1.715
425.30 1.713
425.40 1.711
425.50 1.709
425.60 1.707
425.70 1.704
425.80 1.702
425.90 1.7
426.00 1.697
426.10 1.695
426.20 1.693
426.30 1.69
426.40 1.688
426.50 1.685
426.60 1.682
426.70 1.68
426.80 1.677
426.90 1.674
427.00 1.671
427.10 1.668
427.20 1.665
427.30 1.662
427.40 1.659
427.50 1.655
427.60 1.652
427.70 1.649
427.80 1.645
427.90 1.641
428.00 1.638
428.10 1.634
428.20 1.63
428.30 1.626
428.40 1.621
428.50 1.617
428.60 1.612
428.70 1.608
428.80 1.603
428.90 1.598
429.00 1.593
429.10 1.587
429.20 1.582
429.30 1.576
429.40 1.57
429.50 1.564
429.60 1.557
429.70 1.55
429.80 1.543
429.90 1.536
430.00 1.528
430.10 1.52
430.20 1.512
430.30 1.503
430.40 1.494
430.50 1.485
430.60 1.475
430.70 1.465
430.80 1.454
430.90 1.443
431.00 1.431
431.10 1.419
431.20 1.407
431.30 1.393
431.40 1.379
431.50 1.365
431.60 1.35
431.70 1.334
431.80 1.318
431.90 1.301
432.00 1.283
432.10 1.265
432.20 1.245
432.30 1.225
432.40 1.205
432.50 1.183
432.60 1.16
432.70 1.137
432.80 1.113
432.90 1.088
433.00 1.063
433.10 1.036
433.20 1.008
433.30 0.9803
433.40 0.9506
433.50 0.92
433.60 0.8885
433.70 0.8541
433.80 0.8153
433.90 0.7721
434.00 0.6774
434.10 0.6783
434.20 0.7749
434.30 0.8162
434.40 0.8534
434.50 0.8865
434.60 0.9167
434.70 0.9459
434.80 0.9741
434.90 1.001
435.00 1.027
435.10 1.052
435.20 1.076
435.30 1.099
435.40 1.121
435.50 1.142
435.60 1.163
435.70 1.182
435.80 1.201
435.90 1.219
436.00 1.236
436.10 1.252
436.20 1.268
436.30 1.282
436.40 1.296
436.50 1.31
436.60 1.322
436.70 1.334
436.80 1.345
436.90 1.356
437.00 1.366
437.10 1.376
437.20 1.385
437.30 1.393
437.40 1.401
437.50 1.409
437.60 1.416
437.70 1.423
437.80 1.429
437.90 1.435
438.00 1.441
438.10 1.446
438.20 1.451
438.30 1.456
438.40 1.46
438.50 1.464
438.60 1.468
438.70 1.471
438.80 1.475
438.90 1.478
439.00 1.481
439.10 1.483
439.20 1.486
439.30 1.488
439.40 1.49
439.50 1.492
439.60 1.494
439.70 1.496
439.80 1.497
439.90 1.499
440.00 1.5
440.10 1.501
440.20 1.502
440.30 1.503
440.40 1.504
440.50 1.505
440.60 1.506
440.70 1.506
440.80 1.507
440.90 1.507
441.00 1.508
441.10 1.508
441.20 1.508
441.30 1.509
441.40 1.509
441.50 1.509
441.60 1.509
441.70 1.509
441.80 1.509
441.90 1.509
442.00 1.509
442.10 1.509
442.20 1.508
442.30 1.508
442.40 1.508
442.50 1.507
442.60 1.507
442.70 1.507
442.80 1.506
442.90 1.506
443.00 1.505
443.10 1.505
443.20 1.504
443.30 1.504
443.40 1.503
443.50 1.503
443.60 1.502
443.70 1.502
443.80 1.501
443.90 1.5
444.00 1.5
444.10 1.499
444.20 1.498
444.30 1.498
444.40 1.497
444.50 1.496
444.60 1.495
444.70 1.495
444.80 1.494
444.90 1.493
445.00 1.492
445.10 1.491
445.20 1.491
445.30 1.49
445.40 1.489
445.50 1.488
445.60 1.487
445.70 1.486
445.80 1.485
445.90 1.485
446.00 1.484
446.10 1.483
446.20 1.482
446.30 1.481
446.40 1.48
446.50 1.479
446.60 1.478
446.70 1.477
446.80 1.476
446.90 1.475
447.00 1.475
447.10 1.474
447.20 1.473
447.30 1.472
447.40 1.471
447.50 1.47
447.60 1.469
447.70 1.468
447.80 1.467
447.90 1.466
448.00 1.465
448.10 1.464
448.20 1.463
448.30 1.462
448.40 1.461
448.50 1.46
448.60 1.459
448.70 1.458
448.80 1.457
448.90 1.456
449.00 1.455
449.10 1.454
449.20 1.453
449.30 1.452
449.40 1.451
449.50 1.45
449.60 1.449
449.70 1.448
449.80 1.447
449.90 1.446
450.00 1.445
450.10 1.444
450.20 1.443
450.30 1.442
450.40 1.441
450.50 1.44
450.60 1.439
450.70 1.438
450.80 1.436
450.90 1.435
451.00 1.434
451.10 1.433
451.20 1.432
451.30 1.431
451.40 1.43
451.50 1.429
451.60 1.428
451.70 1.427
451.80 1.426
451.90 1.425
452.00 1.424
452.10 1.423
452.20 1.422
452.30 1.421
452.40 1.42
452.50 1.419
452.60 1.418
452.70 1.417
452.80 1.416
452.90 1.415
453.00 1.414
453.10 1.413
453.20 1.412
453.30 1.411
453.40 1.409
453.50 1.408
453.60 1.407
453.70 1.406
453.80 1.405
453.90 1.404
454.00 1.403
454.10 1.402
454.20 1.401
454.30 1.4
454.40 1.399
454.50 1.398
454.60 1.397
454.70 1.396
454.80 1.395
454.90 1.394
455.00 1.393
455.10 1.392
455.20 1.391
455.30 1.39
455.40 1.389
455.50 1.388
455.60 1.387
455.70 1.386
455.80 1.385
455.90 1.384
456.00 1.382
456.10 1.381
456.20 1.38
456.30 1.379
456.40 1.378
456.50 1.377
456.60 1.376
456.70 1.375
456.80 1.374
456.90 1.373
457.00 1.372
457.10 1.371
457.20 1.37
457.30 1.369
457.40 1.368
457.50 1.367
457.60 1.366
457.70 1.365
457.80 1.364
457.90 1.363
458.00 1.362
458.10 1.361
458.20 1.36
458.30 1.359
458.40 1.358
458.50 1.357
458.60 1.356
458.70 1.355
458.80 1.354
458.90 1.353
459.00 1.352
459.10 1.351
459.20 1.35
459.30 1.349
459.40 1.348
459.50 1.346
459.60 1.345
459.70 1.344
459.80 1.343
459.90 1.342
460.00 1.341
460.10 1.34
460.20 1.339
460.30 1.338
460.40 1.337
460.50 1.336
460.60 1.335
460.70 1.334
460.80 1.333
460.90 1.332
461.00 1.331
461.10 1.33
461.20 1.329
461.30 1.328
461.40 1.327
461.50 1.326
461.60 1.325
461.70 1.324
461.80 1.323
461.90 1.322
462.00 1.321
462.10 1.32
462.20 1.319
462.30 1.318
462.40 1.317
462.50 1.316
462.60 1.315
462.70 1.314
462.80 1.313
462.90 1.312
463.00 1.311
463.10 1.31
463.20 1.309
463.30 1.308
463.40 1.307
463.50 1.306
463.60 1.305
463.70 1.304
463.80 1.303
463.90 1.302
464.00 1.301
464.10 1.3
464.20 1.299
464.30 1.298
464.40 1.297
464.50 1.296
464.60 1.295
464.70 1.294
464.80 1.293
464.90 1.292
465.00 1.291
465.10 1.29
465.20 1.289
465.30 1.288
465.40 1.287
465.50 1.286
465.60 1.285
465.70 1.284
465.80 1.283
465.90 1.282
466.00 1.281
466.10 1.28
466.20 1.279
466.30 1.278
466.40 1.277
466.50 1.276
466.60 1.275
466.70 1.274
466.80 1.273
466.90 1.272
467.00 1.271
467.10 1.27
467.20 1.269
467.30 1.268
467.40 1.267
467.50 1.266
467.60 1.265
467.70 1.264
467.80 1.263
467.90 1.262
468.00 1.261
468.10 1.26
468.20 1.259
468.30 1.258
468.40 1.257
468.50 1.256
468.60 1.255
468.70 1.254
468.80 1.253
468.90 1.252
469.00 1.251
469.10 1.25
469.20 1.249
469.30 1.248
469.40 1.247
469.50 1.246
469.60 1.245
469.70 1.244
469.80 1.243
469.90 1.242
470.00 1.241
470.10 1.24
470.20 1.239
470.30 1.238
470.40 1.237
470.50 1.236
470.60 1.235
470.70 1.234
470.80 1.233
470.90 1.232
471.00 1.231
471.10 1.23
471.20 1.229
471.30 1.227
471.40 1.226
471.50 1.225
471.60 1.224
471.70 1.223
471.80 1.222
471.90 1.221
472.00 1.22
472.10 1.219
472.20 1.218
472.30 1.217
472.40 1.216
472.50 1.215
472.60 1.214
472.70 1.213
472.80 1.212
472.90 1.211
473.00 1.209
473.10 1.208
473.20 1.207
473.30 1.206
473.40 1.205
473.50 1.204
473.60 1.203
473.70 1.202
473.80 1.201
473.90 1.199
474.00 1.198
474.10 1.197
474.20 1.196
474.30 1.195
474.40 1.194
474.50 1.193
474.60 1.191
474.70 1.19
474.80 1.189
474.90 1.188
475.00 1.187
475.10 1.186
475.20 1.184
475.30 1.183
475.40 1.182
475.50 1.181
475.60 1.179
475.70 1.178
475.80 1.177
475.90 1.176
476.00 1.174
476.10 1.173
476.20 1.172
476.30 1.17
476.40 1.169
476.50 1.167
476.60 1.166
476.70 1.165
476.80 1.163
476.90 1.162
477.00 1.161
477.10 1.159
477.20 1.158
477.30 1.156
477.40 1.154
477.50 1.153
477.60 1.151
477.70 1.15
477.80 1.148
477.90 1.147
478.00 1.145
478.10 1.143
478.20 1.142
478.30 1.14
478.40 1.138
478.50 1.136
478.60 1.134
478.70 1.132
478.80 1.13
478.90 1.129
479.00 1.127
479.10 1.125
479.20 1.123
479.30 1.12
479.40 1.118
479.50 1.116
479.60 1.113
479.70 1.111
479.80 1.109
479.90 1.106
480.00 1.104
480.10 1.102
480.20 1.099
480.30 1.096
480.40 1.093
480.50 1.089
480.60 1.086
480.70 1.083
480.80 1.08
480.90 1.077
481.00 1.074
481.10 1.071
481.20 1.067
481.30 1.063
481.40 1.059
481.50 1.054
481.60 1.05
481.70 1.046
481.80 1.042
481.90 1.037
482.00 1.033
482.10 1.029
482.20 1.023
482.30 1.017
482.40 1.011
482.50 1.005
482.60 0.9986
482.70 0.9924
482.80 0.9863
482.90 0.9801
483.00 0.974
483.10 0.9678
483.20 0.9597
483.30 0.9506
483.40 0.9416
483.50 0.9325
483.60 0.9235
483.70 0.9145
483.80 0.9054
483.90 0.8964
484.00 0.8874
484.10 0.8784
484.20 0.8674
484.30 0.8556
484.40 0.8437
484.50 0.8318
484.60 0.82
484.70 0.8066
484.80 0.7925
484.90 0.7784
485.00 0.7643
485.10 0.7502
485.20 0.7348
485.30 0.7189
485.40 0.7021
485.50 0.685
485.60 0.6666
485.70 0.6476
485.80 0.6254
485.90 0.6016
486.00 0.5692
486.10 0.476
486.20 0.526
486.30 0.5819
486.40 0.6078
486.50 0.6311
486.60 0.6509
486.70 0.6691
486.80 0.686
486.90 0.7023
487.00 0.7176
487.10 0.7325
487.20 0.7461
487.30 0.7592
487.40 0.7722
487.50 0.7852
487.60 0.7982
487.70 0.8096
487.80 0.8201
487.90 0.8307
488.00 0.8413
488.10 0.8519
488.20 0.8604
488.30 0.868
488.40 0.8755
488.50 0.8831
488.60 0.8906
488.70 0.8982
488.80 0.9057
488.90 0.9133
489.00 0.9208
489.10 0.9283
489.20 0.9338
489.30 0.9384
489.40 0.9429
489.50 0.9474
489.60 0.9519
489.70 0.9565
489.80 0.961
489.90 0.9655
490.00 0.97
490.10 0.9745
490.20 0.9777
490.30 0.9803
490.40 0.9828
490.50 0.9854
490.60 0.9879
490.70 0.9905
490.80 0.9931
490.90 0.9956
491.00 0.9982
491.10 1.001
491.20 1.002
491.30 1.004
491.40 1.005
491.50 1.007
491.60 1.008
491.70 1.009
491.80 1.011
491.90 1.012
492.00 1.013
492.10 1.015
492.20 1.016
492.30 1.016
492.40 1.017
492.50 1.017
492.60 1.018
492.70 1.019
492.80 1.019
492.90 1.02
493.00 1.02
493.10 1.021
493.20 1.021
493.30 1.022
493.40 1.022
493.50 1.022
493.60 1.022
493.70 1.022
493.80 1.022
493.90 1.023
494.00 1.023
494.10 1.023
494.20 1.023
494.30 1.023
494.40 1.023
494.50 1.023
494.60 1.023
494.70 1.022
494.80 1.022
494.90 1.022
495.00 1.022
495.10 1.022
495.20 1.022
495.30 1.021
495.40 1.021
495.50 1.021
495.60 1.021
495.70 1.02
495.80 1.02
495.90 1.02
496.00 1.019
496.10 1.019
496.20 1.019
496.30 1.018
496.40 1.018
496.50 1.018
496.60 1.017
496.70 1.017
496.80 1.016
496.90 1.016
497.00 1.016
497.10 1.015
497.20 1.015
497.30 1.014
497.40 1.014
497.50 1.013
497.60 1.013
497.70 1.012
497.80 1.012
497.90 1.011
498.00 1.011
498.10 1.01
498.20 1.01
498.30 1.009
498.40 1.009
498.50 1.008
498.60 1.008
498.70 1.007
498.80 1.007
498.90 1.006
499.00 1.006
499.10 1.005
499.20 1.005
499.30 1.004
499.40 1.003
499.50 1.003
499.60 1.002
499.70 1.002
499.80 1.001
499.90 1.001
500.00 1
500.10 0.9994
500.20 0.9988
500.30 0.9983
500.40 0.9977
500.50 0.9971
500.60 0.9965
500.70 0.9959
500.80 0.9953
500.90 0.9947
501.00 0.9941
501.10 0.9935
501.20 0.9929
501.30 0.9923
501.40 0.9917
501.50 0.9911
501.60 0.9905
501.70 0.9899
501.80 0.9893
501.90 0.9886
502.00 0.988
502.10 0.9874
502.20 0.9868
502.30 0.9862
502.40 0.9856
502.50 0.9849
502.60 0.9843
502.70 0.9837
502.80 0.9831
502.90 0.9825
503.00 0.9818
503.10 0.9812
503.20 0.9806
503.30 0.98
503.40 0.9794
503.50 0.9787
503.60 0.9781
503.70 0.9775
503.80 0.9768
503.90 0.9762
504.00 0.9756
504.10 0.975
504.20 0.9743
504.30 0.9737
504.40 0.9731
504.50 0.9724
504.60 0.9718
504.70 0.9712
504.80 0.9705
504.90 0.9699
505.00 0.9693
505.10 0.9687
505.20 0.968
505.30 0.9674
505.40 0.9668
505.50 0.9661
505.60 0.9655
505.70 0.9649
505.80 0.9642
505.90 0.9636
506.00 0.963
506.10 0.9623
506.20 0.9617
506.30 0.9611
506.40 0.9604
506.50 0.9598
506.60 0.9592
506.70 0.9585
506.80 0.9579
506.90 0.9573
507.00 0.9566
507.10 0.956
507.20 0.9554
507.30 0.9547
507.40 0.9541
507.50 0.9535
507.60 0.9528
507.70 0.9522
507.80 0.9516
507.90 0.9509
508.00 0.9503
508.10 0.9497
508.20 0.9491
508.30 0.9484
508.40 0.9478
508.50 0.9472
508.60 0.9465
508.70 0.9459
508.80 0.9453
508.90 0.9446
509.00 0.944
509.10 0.9434
509.20 0.9427
509.30 0.9421
509.40 0.9415
509.50 0.9409
509.60 0.9402
509.70 0.9396
509.80 0.939
509.90 0.9384
510.00 0.9377
510.10 0.9371
510.20 0.9365
510.30 0.9358
510.40 0.9352
510.50 0.9346
510.60 0.934
510.70 0.9333
510.80 0.9327
510.90 0.9321
511.00 0.9315
511.10 0.9308
511.20 0.9302
511.30 0.9296
511.40 0.929
511.50 0.9283
511.60 0.9277
511.70 0.9271
511.80 0.9265
511.90 0.9259
512.00 0.9252
512.10 0.9246
512.20 0.924
512.30 0.9234
512.40 0.9228
512.50 0.9221
512.60 0.9215
512.70 0.9209
512.80 0.9203
512.90 0.9197
513.00 0.9191
513.10 0.9184
513.20 0.9178
513.30 0.9172
513.40 0.9166
513.50 0.916
513.60 0.9154
513.70 0.9147
513.80 0.9141
513.90 0.9135
514.00 0.9129
514.10 0.9123
514.20 0.9117
514.30 0.9111
514.40 0.9105
514.50 0.9098
514.60 0.9092
514.70 0.9086
514.80 0.908
514.90 0.9074
515.00 0.9068
515.10 0.9062
515.20 0.9056
515.30 0.905
515.40 0.9044
515.50 0.9038
515.60 0.9031
515.70 0.9025
515.80 0.9019
515.90 0.9013
516.00 0.9007
516.10 0.9001
516.20 0.8995
516.30 0.8989
516.40 0.8983
516.50 0.8977
516.60 0.8971
516.70 0.8965
516.80 0.8959
516.90 0.8953
517.00 0.8947
517.10 0.8941
517.20 0.8935
517.30 0.8929
517.40 0.8923
517.50 0.8917
517.60 0.8911
517.70 0.8905
517.80 0.8899
517.90 0.8893
518.00 0.8887
518.10 0.8881
518.20 0.8875
518.30 0.8869
518.40 0.8863
518.50 0.8857
518.60 0.8851
518.70 0.8846
518.80 0.884
518.90 0.8834
519.00 0.8828
519.10 0.8822
519.20 0.8816
519.30 0.881
519.40 0.8804
519.50 0.8798
519.60 0.8792
519.70 0.8786
519.80 0.8781
519.90 0.8775
520.00 0.8769
520.10 0.8763
520.20 0.8757
520.30 0.8751
520.40 0.8745
520.50 0.874
520.60 0.8734
520.70 0.8728
520.80 0.8722
520.90 0.8716
521.00 0.871
521.10 0.8704
521.20 0.8699
521.30 0.8693
521.40 0.8687
521.50 0.8681
521.60 0.8675
521.70 0.867
521.80 0.8664
521.90 0.8658
522.00 0.8652
522.10 0.8647
522.20 0.8641
522.30 0.8635
522.40 0.8629
522.50 0.8624
522.60 0.8618
522.70 0.8612
522.80 0.8606
522.90 0.8601
523.00 0.8595
523.10 0.8589
523.20 0.8583
523.30 0.8578
523.40 0.8572
523.50 0.8566
523.60 0.856
523.70 0.8555
523.80 0.8549
523.90 0.8543
524.00 0.8538
524.10 0.8532
524.20 0.8526
524.30 0.8521
524.40 0.8515
524.50 0.8509
524.60 0.8504
524.70 0.8498
524.80 0.8492
524.90 0.8487
525.00 0.8481
525.10 0.8475
525.20 0.847
525.30 0.8464
525.40 0.8458
525.50 0.8453
525.60 0.8447
525.70 0.8442
525.80 0.8436
525.90 0.843
526.00 0.8425
526.10 0.8419
526.20 0.8414
526.30 0.8408
526.40 0.8402
526.50 0.8397
526.60 0.8391
526.70 0.8386
526.80 0.838
526.90 0.8374
527.00 0.8369
527.10 0.8363
527.20 0.8358
527.30 0.8352
527.40 0.8347
527.50 0.8341
527.60 0.8336
527.70 0.833
527.80 0.8325
527.90 0.8319
528.00 0.8314
528.10 0.8308
528.20 0.8303
528.30 0.8297
528.40 0.8292
528.50 0.8286
528.60 0.8281
528.70 0.8275
528.80 0.827
528.90 0.8264
529.00 0.8259
529.10 0.8253
529.20 0.8248
529.30 0.8242
529.40 0.8237
529.50 0.8231
529.60 0.8226
529.70 0.8221
529.80 0.8215
529.90 0.821
530.00 0.8204
530.10 0.8199
530.20 0.8193
530.30 0.8188
530.40 0.8183
530.50 0.8177
530.60 0.8172
530.70 0.8166
530.80 0.8161
530.90 0.8156
531.00 0.815
531.10 0.8145
531.20 0.8139
531.30 0.8134
531.40 0.8129
531.50 0.8123
531.60 0.8118
531.70 0.8113
531.80 0.8107
531.90 0.8102
532.00 0.8097
532.10 0.8091
532.20 0.8086
532.30 0.8081
532.40 0.8075
532.50 0.807
532.60 0.8065
532.70 0.8059
532.80 0.8054
532.90 0.8049
533.00 0.8044
533.10 0.8038
533.20 0.8033
533.30 0.8028
533.40 0.8022
533.50 0.8017
533.60 0.8012
533.70 0.8007
533.80 0.8001
533.90 0.7996
534.00 0.7991
534.10 0.7986
534.20 0.798
534.30 0.7975
534.40 0.797
534.50 0.7965
534.60 0.7959
534.70 0.7954
534.80 0.7949
534.90 0.7944
535.00 0.7939
535.10 0.7933
535.20 0.7928
535.30 0.7923
535.40 0.7918
535.50 0.7913
535.60 0.7907
535.70 0.7902
535.80 0.7897
535.90 0.7892
536.00 0.7887
536.10 0.7882
536.20 0.7876
536.30 0.7871
536.40 0.7866
536.50 0.7861
536.60 0.7856
536.70 0.7851
536.80 0.7845
536.90 0.784
537.00 0.7835
537.10 0.783
537.20 0.7825
537.30 0.782
537.40 0.7815
537.50 0.781
537.60 0.7805
537.70 0.7799
537.80 0.7794
537.90 0.7789
538.00 0.7784
538.10 0.7779
538.20 0.7774
538.30 0.7769
538.40 0.7764
538.50 0.7759
538.60 0.7754
538.70 0.7749
538.80 0.7744
538.90 0.7739
539.00 0.7734
539.10 0.7729
539.20 0.7724
539.30 0.7718
539.40 0.7713
539.50 0.7708
539.60 0.7703
539.70 0.7698
539.80 0.7693
539.90 0.7688
540.00 0.7683
540.10 0.7678
540.20 0.7673
540.30 0.7668
540.40 0.7663
540.50 0.7658
540.60 0.7653
540.70 0.7649
540.80 0.7644
540.90 0.7639
541.00 0.7634
541.10 0.7629
541.20 0.7624
541.30 0.7619
541.40 0.7614
541.50 0.7609
541.60 0.7604
541.70 0.7599
541.80 0.7594
541.90 0.7589
542.00 0.7584
542.10 0.7579
542.20 0.7574
542.30 0.7569
542.40 0.7565
542.50 0.756
542.60 0.7555
542.70 0.755
542.80 0.7545
542.90 0.754
543.00 0.7535
543.10 0.753
543.20 0.7525
543.30 0.7521
543.40 0.7516
543.50 0.7511
543.60 0.7506
543.70 0.7501
543.80 0.7496
543.90 0.7491
544.00 0.7487
544.10 0.7482
544.20 0.7477
544.30 0.7472
544.40 0.7467
544.50 0.7462
544.60 0.7458
544.70 0.7453
544.80 0.7448
544.90 0.7443
545.00 0.7438
545.10 0.7434
545.20 0.7429
545.30 0.7424
545.40 0.7419
545.50 0.7414
545.60 0.741
545.70 0.7405
545.80 0.74
545.90 0.7395
546.00 0.7391
546.10 0.7386
546.20 0.7381
546.30 0.7376
546.40 0.7372
546.50 0.7367
546.60 0.7362
546.70 0.7357
546.80 0.7353
546.90 0.7348
547.00 0.7343
547.10 0.7338
547.20 0.7334
547.30 0.7329
547.40 0.7324
547.50 0.732
547.60 0.7315
547.70 0.731
547.80 0.7305
547.90 0.7301
548.00 0.7296
548.10 0.7291
548.20 0.7287
548.30 0.7282
548.40 0.7277
548.50 0.7273
548.60 0.7268
548.70 0.7263
548.80 0.7259
548.90 0.7254
549.00 0.7249
549.10 0.7245
549.20 0.724
549.30 0.7235
549.40 0.7231
549.50 0.7226
549.60 0.7222
549.70 0.7217
549.80 0.7212
549.90 0.7208
550.00 0.7203
550.10 0.7198
550.20 0.7194
550.30 0.7189
550.40 0.7185
550.50 0.718
550.60 0.7175
550.70 0.7171
550.80 0.7166
550.90 0.7162
551.00 0.7157
551.10 0.7153
551.20 0.7148
551.30 0.7143
551.40 0.7139
551.50 0.7134
551.60 0.713
551.70 0.7125
551.80 0.7121
551.90 0.7116
552.00 0.7111
552.10 0.7107
552.20 0.7102
552.30 0.7098
552.40 0.7093
552.50 0.7089
552.60 0.7084
552.70 0.708
552.80 0.7075
552.90 0.7071
553.00 0.7066
553.10 0.7062
553.20 0.7057
553.30 0.7053
553.40 0.7048
553.50 0.7044
553.60 0.7039
553.70 0.7035
553.80 0.703
553.90 0.7026
554.00 0.7021
554.10 0.7017
554.20 0.7012
554.30 0.7008
554.40 0.7004
554.50 0.6999
554.60 0.6995
554.70 0.699
554.80 0.6986
554.90 0.6981
555.00 0.6977
555.10 0.6973
555.20 0.6968
555.30 0.6964
555.40 0.6959
555.50 0.6955
555.60 0.695
555.70 0.6946
555.80 0.6942
555.90 0.6937
556.00 0.6933
556.10 0.6928
556.20 0.6924
556.30 0.692
556.40 0.6915
556.50 0.6911
556.60 0.6906
556.70 0.6902
556.80 0.6898
556.90 0.6893
557.00 0.6889
557.10 0.6885
557.20 0.688
557.30 0.6876
557.40 0.6872
557.50 0.6867
557.60 0.6863
557.70 0.6859
557.80 0.6854
557.90 0.685
558.00 0.6846
558.10 0.6841
558.20 0.6837
558.30 0.6833
558.40 0.6828
558.50 0.6824
558.60 0.682
558.70 0.6815
558.80 0.6811
558.90 0.6807
559.00 0.6802
559.10 0.6798
559.20 0.6794
559.30 0.679
559.40 0.6785
559.50 0.6781
559.60 0.6777
559.70 0.6772
559.80 0.6768
559.90 0.6764
560.00 0.676
560.10 0.6755
560.20 0.6751
560.30 0.6747
560.40 0.6743
560.50 0.6738
560.60 0.6734
560.70 0.673
560.80 0.6726
560.90 0.6721
561.00 0.6717
561.10 0.6713
561.20 0.6709
561.30 0.6705
561.40 0.67
561.50 0.6696
561.60 0.6692
561.70 0.6688
561.80 0.6684
561.90 0.6679
562.00 0.6675
562.10 0.6671
562.20 0.6667
562.30 0.6663
562.40 0.6658
562.50 0.6654
562.60 0.665
562.70 0.6646
562.80 0.6642
562.90 0.6638
563.00 0.6633
563.10 0.6629
563.20 0.6625
563.30 0.6621
563.40 0.6617
563.50 0.6613
563.60 0.6609
563.70 0.6604
563.80 0.66
563.90 0.6596
564.00 0.6592
564.10 0.6588
564.20 0.6584
564.30 0.658
564.40 0.6575
564.50 0.6571
564.60 0.6567
564.70 0.6563
564.80 0.6559
564.90 0.6555
565.00 0.6551
565.10 0.6547
565.20 0.6543
565.30 0.6539
565.40 0.6535
565.50 0.653
565.60 0.6526
565.70 0.6522
565.80 0.6518
565.90 0.6514
566.00 0.651
566.10 0.6506
566.20 0.6502
566.30 0.6498
566.40 0.6494
566.50 0.649
566.60 0.6486
566.70 0.6482
566.80 0.6478
566.90 0.6474
567.00 0.647
567.10 0.6466
567.20 0.6462
567.30 0.6458
567.40 0.6453
567.50 0.6449
567.60 0.6445
567.70 0.6441
567.80 0.6437
567.90 0.6433
568.00 0.6429
568.10 0.6425
568.20 0.6421
568.30 0.6417
568.40 0.6413
568.50 0.6409
568.60 0.6405
568.70 0.6401
568.80 0.6397
568.90 0.6394
569.00 0.639
569.10 0.6386
569.20 0.6382
569.30 0.6378
569.40 0.6374
569.50 0.637
569.60 0.6366
569.70 0.6362
569.80 0.6358
569.90 0.6354
570.00 0.635
570.10 0.6346
570.20 0.6342
570.30 0.6338
570.40 0.6334
570.50 0.633
570.60 0.6327
570.70 0.6323
570.80 0.6319
570.90 0.6315
571.00 0.6311
571.10 0.6307
571.20 0.6303
571.30 0.6299
571.40 0.6295
571.50 0.6291
571.60 0.6287
571.70 0.6284
571.80 0.628
571.90 0.6276
572.00 0.6272
572.10 0.6268
572.20 0.6264
572.30 0.626
572.40 0.6256
572.50 0.6253
572.60 0.6249
572.70 0.6245
572.80 0.6241
572.90 0.6237
573.00 0.6233
573.10 0.6229
573.20 0.6226
573.30 0.6222
573.40 0.6218
573.50 0.6214
573.60 0.621
573.70 0.6206
573.80 0.6203
573.90 0.6199
574.00 0.6195
574.10 0.6191
574.20 0.6187
574.30 0.6184
574.40 0.618
574.50 0.6176
574.60 0.6172
574.70 0.6168
574.80 0.6165
574.90 0.6161
575.00 0.6157
575.10 0.6153
575.20 0.6149
575.30 0.6146
575.40 0.6142
575.50 0.6138
575.60 0.6134
575.70 0.613
575.80 0.6127
575.90 0.6123
576.00 0.6119
576.10 0.6115
576.20 0.6112
576.30 0.6108
576.40 0.6104
576.50 0.61
576.60 0.6097
576.70 0.6093
576.80 0.6089
576.90 0.6085
577.00 0.6082
577.10 0.6078
577.20 0.6074
577.30 0.6071
577.40 0.6067
577.50 0.6063
577.60 0.6059
577.70 0.6056
577.80 0.6052
577.90 0.6048
578.00 0.6045
578.10 0.6041
578.20 0.6037
578.30 0.6033
578.40 0.603
578.50 0.6026
578.60 0.6022
578.70 0.6019
578.80 0.6015
578.90 0.6011
579.00 0.6008
579.10 0.6004
579.20 0.6
579.30 0.5997
579.40 0.5993
579.50 0.5989
579.60 0.5986
579.70 0.5982
579.80 0.5978
579.90 0.5975
580.00 0.5971
580.10 0.5967
580.20 0.5964
580.30 0.596
580.40 0.5957
580.50 0.5953
580.60 0.5949
580.70 0.5946
580.80 0.5942
580.90 0.5938
581.00 0.5935
581.10 0.5931
581.20 0.5928
581.30 0.5924
581.40 0.592
581.50 0.5917
581.60 0.5913
581.70 0.591
581.80 0.5906
581.90 0.5902
582.00 0.5899
582.10 0.5895
582.20 0.5892
582.30 0.5888
582.40 0.5884
582.50 0.5881
582.60 0.5877
582.70 0.5874
582.80 0.587
582.90 0.5867
583.00 0.5863
583.10 0.5859
583.20 0.5856
583.30 0.5852
583.40 0.5849
583.50 0.5845
583.60 0.5842
583.70 0.5838
583.80 0.5835
583.90 0.5831
584.00 0.5827
584.10 0.5824
584.20 0.582
584.30 0.5817
584.40 0.5813
584.50 0.581
584.60 0.5806
584.70 0.5803
584.80 0.5799
584.90 0.5796
585.00 0.5792
585.10 0.5789
585.20 0.5785
585.30 0.5782
585.40 0.5778
585.50 0.5775
585.60 0.5771
585.70 0.5768
585.80 0.5764
585.90 0.5761
586.00 0.5757
586.10 0.5754
586.20 0.575
586.30 0.5747
586.40 0.5743
586.50 0.574
586.60 0.5736
586.70 0.5733
586.80 0.5729
586.90 0.5726
587.00 0.5723
587.10 0.5719
587.20 0.5716
587.30 0.5712
587.40 0.5709
587.50 0.5705
587.60 0.5702
587.70 0.5698
587.80 0.5695
587.90 0.5692
588.00 0.5688
588.10 0.5685
588.20 0.5681
588.30 0.5678
588.40 0.5674
588.50 0.5671
588.60 0.5668
588.70 0.5664
588.80 0.5661
588.90 0.5657
589.00 0.5654
589.10 0.5651
589.20 0.5647
589.30 0.5644
589.40 0.564
589.50 0.5637
589.60 0.5634
589.70 0.563
589.80 0.5627
589.90 0.5623
590.00 0.562
590.10 0.5617
590.20 0.5613
590.30 0.561
590.40 0.5607
590.50 0.5603
590.60 0.56
590.70 0.5596
590.80 0.5593
590.90 0.559
591.00 0.5586
591.10 0.5583
591.20 0.558
591.30 0.5576
591.40 0.5573
591.50 0.557
591.60 0.5566
591.70 0.5563
591.80 0.556
591.90 0.5556
592.00 0.5553
592.10 0.555
592.20 0.5546
592.30 0.5543
592.40 0.554
592.50 0.5536
592.60 0.5533
592.70 0.553
592.80 0.5526
592.90 0.5523
593.00 0.552
593.10 0.5516
593.20 0.5513
593.30 0.551
593.40 0.5507
593.50 0.5503
593.60 0.55
593.70 0.5497
593.80 0.5493
593.90 0.549
594.00 0.5487
594.10 0.5484
594.20 0.548
594.30 0.5477
594.40 0.5474
594.50 0.547
594.60 0.5467
594.70 0.5464
594.80 0.5461
594.90 0.5457
595.00 0.5454
595.10 0.5451
595.20 0.5448
595.30 0.5444
595.40 0.5441
595.50 0.5438
595.60 0.5435
595.70 0.5431
595.80 0.5428
595.90 0.5425
596.00 0.5422
596.10 0.5419
596.20 0.5415
596.30 0.5412
596.40 0.5409
596.50 0.5406
596.60 0.5402
596.70 0.5399
596.80 0.5396
596.90 0.5393
597.00 0.539
597.10 0.5386
597.20 0.5383
597.30 0.538
597.40 0.5377
597.50 0.5374
597.60 0.537
597.70 0.5367
597.80 0.5364
597.90 0.5361
598.00 0.5358
598.10 0.5354
598.20 0.5351
598.30 0.5348
598.40 0.5345
598.50 0.5342
598.60 0.5339
598.70 0.5335
598.80 0.5332
598.90 0.5329
599.00 0.5326
599.10 0.5323
599.20 0.532
599.30 0.5316
599.40 0.5313
599.50 0.531
599.60 0.5307
599.70 0.5304
599.80 0.5301
599.90 0.5298
600.00 0.5294
600.10 0.5291
600.20 0.5288
600.30 0.5285
600.40 0.5282
600.50 0.5279
600.60 0.5276
600.70 0.5272
600.80 0.5269
600.90 0.5266
601.00 0.5263
601.10 0.526
601.20 0.5257
601.30 0.5254
601.40 0.5251
601.50 0.5248
601.60 0.5244
601.70 0.5241
601.80 0.5238
601.90 0.5235
602.00 0.5232
602.10 0.5229
602.20 0.5226
602.30 0.5223
602.40 0.522
602.50 0.5217
602.60 0.5214
602.70 0.521
602.80 0.5207
602.90 0.5204
603.00 0.5201
603.10 0.5198
603.20 0.5195
603.30 0.5192
603.40 0.5189
603.50 0.5186
603.60 0.5183
603.70 0.518
603.80 0.5177
603.90 0.5174
604.00 0.5171
604.10 0.5168
604.20 0.5165
604.30 0.5162
604.40 0.5159
604.50 0.5156
604.60 0.5152
604.70 0.5149
604.80 0.5146
604.90 0.5143
605.00 0.514
605.10 0.5137
605.20 0.5134
605.30 0.5131
605.40 0.5128
605.50 0.5125
605.60 0.5122
605.70 0.5119
605.80 0.5116
605.90 0.5113
606.00 0.511
606.10 0.5107
606.20 0.5104
606.30 0.5101
606.40 0.5098
606.50 0.5095
606.60 0.5092
606.70 0.5089
606.80 0.5086
606.90 0.5083
607.00 0.508
607.10 0.5077
607.20 0.5074
607.30 0.5071
607.40 0.5068
607.50 0.5065
607.60 0.5062
607.70 0.5059
607.80 0.5056
607.90 0.5054
608.00 0.5051
608.10 0.5048
608.20 0.5045
608.30 0.5042
608.40 0.5039
608.50 0.5036
608.60 0.5033
608.70 0.503
608.80 0.5027
608.90 0.5024
609.00 0.5021
609.10 0.5018
609.20 0.5015
609.30 0.5012
609.40 0.5009
609.50 0.5006
609.60 0.5003
609.70 0.5001
609.80 0.4998
609.90 0.4995
610.00 0.4992
610.10 0.4989
610.20 0.4986
610.30 0.4983
610.40 0.498
610.50 0.4977
610.60 0.4974
610.70 0.4971
610.80 0.4969
610.90 0.4966
611.00 0.4963
611.10 0.496
611.20 0.4957
611.30 0.4954
611.40 0.4951
611.50 0.4948
611.60 0.4945
611.70 0.4942
611.80 0.494
611.90 0.4937
612.00 0.4934
612.10 0.4931
612.20 0.4928
612.30 0.4925
612.40 0.4922
612.50 0.4919
612.60 0.4917
612.70 0.4914
612.80 0.4911
612.90 0.4908
613.00 0.4905
613.10 0.4902
613.20 0.4899
613.30 0.4897
613.40 0.4894
613.50 0.4891
613.60 0.4888
613.70 0.4885
613.80 0.4882
613.90 0.488
614.00 0.4877
614.10 0.4874
614.20 0.4871
614.30 0.4868
614.40 0.4865
614.50 0.4863
614.60 0.486
614.70 0.4857
614.80 0.4854
614.90 0.4851
615.00 0.4848
615.10 0.4846
615.20 0.4843
615.30 0.484
615.40 0.4837
615.50 0.4834
615.60 0.4832
615.70 0.4829
615.80 0.4826
615.90 0.4823
616.00 0.482
616.10 0.4818
616.20 0.4815
616.30 0.4812
616.40 0.4809
616.50 0.4806
616.60 0.4804
616.70 0.4801
616.80 0.4798
616.90 0.4795
617.00 0.4792
617.10 0.479
617.20 0.4787
617.30 0.4784
617.40 0.4781
617.50 0.4779
617.60 0.4776
617.70 0.4773
617.80 0.477
617.90 0.4767
618.00 0.4765
618.10 0.4762
618.20 0.4759
618.30 0.4756
618.40 0.4754
618.50 0.4751
618.60 0.4748
618.70 0.4745
618.80 0.4743
618.90 0.474
619.00 0.4737
619.10 0.4734
619.20 0.4732
619.30 0.4729
619.40 0.4726
619.50 0.4724
619.60 0.4721
619.70 0.4718
619.80 0.4715
619.90 0.4713
620.00 0.471
620.10 0.4707
620.20 0.4704
620.30 0.4702
620.40 0.4699
620.50 0.4696
620.60 0.4694
620.70 0.4691
620.80 0.4688
620.90 0.4685
621.00 0.4683
621.10 0.468
621.20 0.4677
621.30 0.4675
621.40 0.4672
621.50 0.4669
621.60 0.4666
621.70 0.4664
621.80 0.4661
621.90 0.4658
622.00 0.4656
622.10 0.4653
622.20 0.465
622.30 0.4648
622.40 0.4645
622.50 0.4642
622.60 0.464
622.70 0.4637
622.80 0.4634
622.90 0.4632
623.00 0.4629
623.10 0.4626
623.20 0.4624
623.30 0.4621
623.40 0.4618
623.50 0.4616
623.60 0.4613
623.70 0.461
623.80 0.4608
623.90 0.4605
624.00 0.4602
624.10 0.46
624.20 0.4597
624.30 0.4594
624.40 0.4592
624.50 0.4589
624.60 0.4586
624.70 0.4584
624.80 0.4581
624.90 0.4578
625.00 0.4576
625.10 0.4573
625.20 0.457
625.30 0.4568
625.40 0.4565
625.50 0.4563
625.60 0.456
625.70 0.4557
625.80 0.4555
625.90 0.4552
626.00 0.4549
626.10 0.4547
626.20 0.4544
626.30 0.4542
626.40 0.4539
626.50 0.4536
626.60 0.4534
626.70 0.4531
626.80 0.4528
626.90 0.4526
627.00 0.4523
627.10 0.4521
627.20 0.4518
627.30 0.4515
627.40 0.4513
627.50 0.451
627.60 0.4508
627.70 0.4505
627.80 0.4502
627.90 0.45
628.00 0.4497
628.10 0.4495
628.20 0.4492
628.30 0.4489
628.40 0.4487
628.50 0.4484
628.60 0.4482
628.70 0.4479
628.80 0.4476
628.90 0.4474
629.00 0.4471
629.10 0.4469
629.20 0.4466
629.30 0.4464
629.40 0.4461
629.50 0.4458
629.60 0.4456
629.70 0.4453
629.80 0.4451
629.90 0.4448
630.00 0.4445
630.10 0.4443
630.20 0.444
630.30 0.4438
630.40 0.4435
630.50 0.4433
630.60 0.443
630.70 0.4427
630.80 0.4425
630.90 0.4422
631.00 0.442
631.10 0.4417
631.20 0.4415
631.30 0.4412
631.40 0.4409
631.50 0.4407
631.60 0.4404
631.70 0.4402
631.80 0.4399
631.90 0.4397
632.00 0.4394
632.10 0.4392
632.20 0.4389
632.30 0.4387
632.40 0.4384
632.50 0.4381
632.60 0.4379
632.70 0.4376
632.80 0.4374
632.90 0.4371
633.00 0.4369
633.10 0.4366
633.20 0.4364
633.30 0.4361
633.40 0.4358
633.50 0.4356
633.60 0.4353
633.70 0.4351
633.80 0.4348
633.90 0.4346
634.00 0.4343
634.10 0.4341
634.20 0.4338
634.30 0.4336
634.40 0.4333
634.50 0.433
634.60 0.4328
634.70 0.4325
634.80 0.4323
634.90 0.432
635.00 0.4318
635.10 0.4315
635.20 0.4313
635.30 0.431
635.40 0.4308
635.50 0.4305
635.60 0.4302
635.70 0.43
635.80 0.4297
635.90 0.4295
636.00 0.4292
636.10 0.429
636.20 0.4287
636.30 0.4285
636.40 0.4282
636.50 0.428
636.60 0.4277
636.70 0.4274
636.80 0.4272
636.90 0.4269
637.00 0.4267
637.10 0.4264
637.20 0.4262
637.30 0.4259
637.40 0.4257
637.50 0.4254
637.60 0.4252
637.70 0.4249
637.80 0.4246
637.90 0.4244
638.00 0.4241
638.10 0.4239
638.20 0.4236
638.30 0.4234
638.40 0.4231
638.50 0.4228
638.60 0.4226
638.70 0.4223
638.80 0.4221
638.90 0.4218
639.00 0.4216
639.10 0.4213
639.20 0.421
639.30 0.4208
639.40 0.4205
639.50 0.4203
639.60 0.42
639.70 0.4197
639.80 0.4195
639.90 0.4192
640.00 0.419
640.10 0.4187
640.20 0.4184
640.30 0.4182
640.40 0.4179
640.50 0.4177
640.60 0.4174
640.70 0.4171
640.80 0.4169
640.90 0.4166
641.00 0.4163
641.10 0.4161
641.20 0.4158
641.30 0.4155
641.40 0.4153
641.50 0.415
641.60 0.4147
641.70 0.4145
641.80 0.4142
641.90 0.4139
642.00 0.4137
642.10 0.4134
642.20 0.4131
642.30 0.4129
642.40 0.4126
642.50 0.4123
642.60 0.412
642.70 0.4117
642.80 0.4115
642.90 0.4112
643.00 0.4109
643.10 0.4106
643.20 0.4104
643.30 0.4101
643.40 0.4098
643.50 0.4095
643.60 0.4092
643.70 0.4089
643.80 0.4086
643.90 0.4083
644.00 0.4081
644.10 0.4078
644.20 0.4075
644.30 0.4072
644.40 0.4069
644.50 0.4066
644.60 0.4063
644.70 0.406
644.80 0.4057
644.90 0.4054
645.00 0.4051
645.10 0.4048
645.20 0.4044
645.30 0.4041
645.40 0.4038
645.50 0.4035
645.60 0.4032
645.70 0.4028
645.80 0.4025
645.90 0.4022
646.00 0.4019
646.10 0.4015
646.20 0.4012
646.30 0.4009
646.40 0.4005
646.50 0.4002
646.60 0.3998
646.70 0.3994
646.80 0.3991
646.90 0.3987
647.00 0.3984
647.10 0.398
647.20 0.3976
647.30 0.3973
647.40 0.3969
647.50 0.3965
647.60 0.396
647.70 0.3956
647.80 0.3952
647.90 0.3948
648.00 0.3944
648.10 0.394
648.20 0.3936
648.30 0.3932
648.40 0.3927
648.50 0.3922
648.60 0.3917
648.70 0.3913
648.80 0.3908
648.90 0.3903
649.00 0.3898
649.10 0.3893
649.20 0.3888
649.30 0.3883
649.40 0.3877
649.50 0.3872
649.60 0.3866
649.70 0.386
649.80 0.3854
649.90 0.3848
650.00 0.3842
650.10 0.3836
650.20 0.383
650.30 0.3824
650.40 0.3816
650.50 0.3808
650.60 0.38
650.70 0.3793
650.80 0.3785
650.90 0.3777
651.00 0.3769
651.10 0.3762
651.20 0.3754
651.30 0.3746
651.40 0.3735
651.50 0.3725
651.60 0.3714
651.70 0.3703
651.80 0.3693
651.90 0.3682
652.00 0.3672
652.10 0.3661
652.20 0.3651
652.30 0.3639
652.40 0.3624
652.50 0.3609
652.60 0.3594
652.70 0.3579
652.80 0.3564
652.90 0.3549
653.00 0.3534
653.10 0.3518
653.20 0.3503
653.30 0.3487
653.40 0.3465
653.50 0.3443
653.60 0.3421
653.70 0.3399
653.80 0.3377
653.90 0.3355
654.00 0.3333
654.10 0.3311
654.20 0.3289
654.30 0.3266
654.40 0.3237
654.50 0.3208
654.60 0.3179
654.70 0.315
654.80 0.312
654.90 0.3085
655.00 0.305
655.10 0.3015
655.20 0.298
655.30 0.2944
655.40 0.2904
655.50 0.2863
655.60 0.2818
655.70 0.2772
655.80 0.2719
655.90 0.2663
656.00 0.2587
656.10 0.2505
656.20 0.227
656.30 0.1536
656.40 0.2396
656.50 0.2534
656.60 0.2608
656.70 0.2677
656.80 0.2726
656.90 0.2774
657.00 0.2816
657.10 0.2857
657.20 0.2894
657.30 0.2931
657.40 0.2962
657.50 0.2994
657.60 0.3026
657.70 0.3057
657.80 0.3088
657.90 0.3113
658.00 0.3139
658.10 0.3164
658.20 0.3189
658.30 0.3213
658.40 0.3231
658.50 0.3249
658.60 0.3267
658.70 0.3285
658.80 0.3303
658.90 0.3321
659.00 0.3339
659.10 0.3357
659.20 0.3375
659.30 0.3392
659.40 0.3403
659.50 0.3413
659.60 0.3424
659.70 0.3435
659.80 0.3446
659.90 0.3457
660.00 0.3468
660.10 0.3478
660.20 0.3489
660.30 0.3499
660.40 0.3505
660.50 0.3512
660.60 0.3518
660.70 0.3524
660.80 0.353
660.90 0.3536
661.00 0.3543
661.10 0.3549
661.20 0.3555
661.30 0.3561
661.40 0.3564
661.50 0.3567
661.60 0.357
661.70 0.3574
661.80 0.3577
661.90 0.358
662.00 0.3584
662.10 0.3587
662.20 0.359
662.30 0.3593
662.40 0.3595
662.50 0.3596
662.60 0.3598
662.70 0.3599
662.80 0.3601
662.90 0.3603
663.00 0.3604
663.10 0.3606
663.20 0.3607
663.30 0.3608
663.40 0.3609
663.50 0.3609
663.60 0.361
663.70 0.361
663.80 0.3611
663.90 0.3611
664.00 0.3611
664.10 0.3612
664.20 0.3612
664.30 0.3612
664.40 0.3612
664.50 0.3612
664.60 0.3612
664.70 0.3611
664.80 0.3611
664.90 0.3611
665.00 0.361
665.10 0.361
665.20 0.361
665.30 0.3609
665.40 0.3609
665.50 0.3608
665.60 0.3607
665.70 0.3606
665.80 0.3606
665.90 0.3605
666.00 0.3604
666.10 0.3603
666.20 0.3603
666.30 0.3602
666.40 0.3601
666.50 0.36
666.60 0.3599
666.70 0.3598
666.80 0.3596
666.90 0.3595
667.00 0.3594
667.10 0.3593
667.20 0.3592
667.30 0.3591
667.40 0.359
667.50 0.3589
667.60 0.3587
667.70 0.3586
667.80 0.3585
667.90 0.3583
668.00 0.3582
668.10 0.3581
668.20 0.358
668.30 0.3578
668.40 0.3577
668.50 0.3575
668.60 0.3574
668.70 0.3573
668.80 0.3571
668.90 0.357
669.00 0.3568
669.10 0.3567
669.20 0.3566
669.30 0.3564
669.40 0.3563
669.50 0.3561
669.60 0.356
669.70 0.3558
669.80 0.3556
669.90 0.3555
670.00 0.3553
670.10 0.3552
670.20 0.355
670.30 0.3549
670.40 0.3547
670.50 0.3546
670.60 0.3544
670.70 0.3542
670.80 0.3541
670.90 0.3539
671.00 0.3538
671.10 0.3536
671.20 0.3535
671.30 0.3533
671.40 0.3531
671.50 0.353
671.60 0.3528
671.70 0.3526
671.80 0.3525
671.90 0.3523
672.00 0.3521
672.10 0.352
672.20 0.3518
672.30 0.3517
672.40 0.3515
672.50 0.3513
672.60 0.3511
672.70 0.351
672.80 0.3508
672.90 0.3506
673.00 0.3505
673.10 0.3503
673.20 0.3501
673.30 0.35
673.40 0.3498
673.50 0.3496
673.60 0.3495
673.70 0.3493
673.80 0.3491
673.90 0.349
674.00 0.3488
674.10 0.3486
674.20 0.3484
674.30 0.3483
674.40 0.3481
674.50 0.3479
674.60 0.3478
674.70 0.3476
674.80 0.3474
674.90 0.3472
675.00 0.3471
675.10 0.3469
675.20 0.3467
675.30 0.3466
675.40 0.3464
675.50 0.3462
675.60 0.346
675.70 0.3459
675.80 0.3457
675.90 0.3455
676.00 0.3454
676.10 0.3452
676.20 0.345
676.30 0.3448
676.40 0.3447
676.50 0.3445
676.60 0.3443
676.70 0.3441
676.80 0.344
676.90 0.3438
677.00 0.3436
677.10 0.3434
677.20 0.3433
677.30 0.3431
677.40 0.3429
677.50 0.3428
677.60 0.3426
677.70 0.3424
677.80 0.3422
677.90 0.3421
678.00 0.3419
678.10 0.3417
678.20 0.3415
678.30 0.3414
678.40 0.3412
678.50 0.341
678.60 0.3408
678.70 0.3407
678.80 0.3405
678.90 0.3403
679.00 0.3402
679.10 0.34
679.20 0.3398
679.30 0.3396
679.40 0.3395
679.50 0.3393
679.60 0.3391
679.70 0.3389
679.80 0.3388
679.90 0.3386
680.00 0.3384
680.10 0.3383
680.20 0.3381
680.30 0.3379
680.40 0.3377
680.50 0.3376
680.60 0.3374
680.70 0.3372
680.80 0.337
680.90 0.3369
681.00 0.3367
681.10 0.3365
681.20 0.3363
681.30 0.3362
681.40 0.336
681.50 0.3358
681.60 0.3357
681.70 0.3355
681.80 0.3353
681.90 0.3351
682.00 0.335
682.10 0.3348
682.20 0.3346
682.30 0.3345
682.40 0.3343
682.50 0.3341
682.60 0.3339
682.70 0.3338
682.80 0.3336
682.90 0.3334
683.00 0.3333
683.10 0.3331
683.20 0.3329
683.30 0.3327
683.40 0.3326
683.50 0.3324
683.60 0.3322
683.70 0.3321
683.80 0.3319
683.90 0.3317
684.00 0.3315
684.10 0.3314
684.20 0.3312
684.30 0.331
684.40 0.3309
684.50 0.3307
684.60 0.3305
684.70 0.3303
684.80 0.3302
684.90 0.33
685.00 0.3298
685.10 0.3297
685.20 0.3295
685.30 0.3293
685.40 0.3292
685.50 0.329
685.60 0.3288
685.70 0.3286
685.80 0.3285
685.90 0.3283
686.00 0.3281
686.10 0.328
686.20 0.3278
686.30 0.3276
686.40 0.3275
686.50 0.3273
686.60 0.3271
686.70 0.327
686.80 0.3268
686.90 0.3266
687.00 0.3264
687.10 0.3263
687.20 0.3261
687.30 0.3259
687.40 0.3258
687.50 0.3256
687.60 0.3254
687.70 0.3253
687.80 0.3251
687.90 0.3249
688.00 0.3248
688.10 0.3246
688.20 0.3244
688.30 0.3243
688.40 0.3241
688.50 0.3239
688.60 0.3238
688.70 0.3236
688.80 0.3234
688.90 0.3233
689.00 0.3231
689.10 0.3229
689.20 0.3228
689.30 0.3226
689.40 0.3224
689.50 0.3223
689.60 0.3221
689.70 0.3219
689.80 0.3218
689.90 0.3216
690.00 0.3214
690.10 0.3213
690.20 0.3211
690.30 0.3209
690.40 0.3208
690.50 0.3206
690.60 0.3204
690.70 0.3203
690.80 0.3201
690.90 0.32
691.00 0.3198
691.10 0.3196
691.20 0.3195
691.30 0.3193
691.40 0.3191
691.50 0.319
691.60 0.3188
691.70 0.3186
691.80 0.3185
691.90 0.3183
692.00 0.3181
692.10 0.318
692.20 0.3178
692.30 0.3177
692.40 0.3175
692.50 0.3173
692.60 0.3172
692.70 0.317
692.80 0.3168
692.90 0.3167
693.00 0.3165
693.10 0.3164
693.20 0.3162
693.30 0.316
693.40 0.3159
693.50 0.3157
693.60 0.3155
693.70 0.3154
693.80 0.3152
693.90 0.315
694.00 0.3149
694.10 0.3147
694.20 0.3146
694.30 0.3144
694.40 0.3142
694.50 0.3141
694.60 0.3139
694.70 0.3138
694.80 0.3136
694.90 0.3134
695.00 0.3133
695.10 0.3131
695.20 0.3129
695.30 0.3128
695.40 0.3126
695.50 0.3125
695.60 0.3123
695.70 0.3121
695.80 0.312
695.90 0.3118
696.00 0.3117
696.10 0.3115
696.20 0.3113
696.30 0.3112
696.40 0.311
696.50 0.3109
696.60 0.3107
696.70 0.3106
696.80 0.3104
696.90 0.3102
697.00 0.3101
697.10 0.3099
697.20 0.3098
697.30 0.3096
697.40 0.3094
697.50 0.3093
697.60 0.3091
697.70 0.309
697.80 0.3088
697.90 0.3086
698.00 0.3085
698.10 0.3083
698.20 0.3082
698.30 0.308
698.40 0.3079
698.50 0.3077
698.60 0.3075
698.70 0.3074
698.80 0.3072
698.90 0.3071
699.00 0.3069
699.10 0.3068
699.20 0.3066
699.30 0.3064
699.40 0.3063
699.50 0.3061
699.60 0.306
699.70 0.3058
699.80 0.3057
699.90 0.3055
700.00 0.3053
700.10 0.3052
700.20 0.305
700.30 0.3049
700.40 0.3047
700.50 0.3046
700.60 0.3044
700.70 0.3043
700.80 0.3041
700.90 0.3039
701.00 0.3038
701.10 0.3036
701.20 0.3035
701.30 0.3033
701.40 0.3032
701.50 0.303
701.60 0.3029
701.70 0.3027
701.80 0.3026
701.90 0.3024
702.00 0.3022
702.10 0.3021
702.20 0.3019
702.30 0.3018
702.40 0.3016
702.50 0.3015
702.60 0.3013
702.70 0.3012
702.80 0.301
702.90 0.3009
703.00 0.3007
703.10 0.3006
703.20 0.3004
703.30 0.3002
703.40 0.3001
703.50 0.2999
703.60 0.2998
703.70 0.2996
703.80 0.2995
703.90 0.2993
704.00 0.2992
704.10 0.299
704.20 0.2989
704.30 0.2987
704.40 0.2986
704.50 0.2984
704.60 0.2983
704.70 0.2981
704.80 0.298
704.90 0.2978
705.00 0.2977
705.10 0.2975
705.20 0.2974
705.30 0.2972
705.40 0.297
705.50 0.2969
705.60 0.2967
705.70 0.2966
705.80 0.2964
705.90 0.2963
706.00 0.2961
706.10 0.296
706.20 0.2958
706.30 0.2957
706.40 0.2955
706.50 0.2954
706.60 0.2952
706.70 0.2951
706.80 0.2949
706.90 0.2948
707.00 0.2947
707.10 0.2945
707.20 0.2944
707.30 0.2942
707.40 0.2941
707.50 0.2939
707.60 0.2938
707.70 0.2936
707.80 0.2935
707.90 0.2933
708.00 0.2932
708.10 0.293
708.20 0.2929
708.30 0.2927
708.40 0.2926
708.50 0.2924
708.60 0.2923
708.70 0.2921
708.80 0.292
708.90 0.2918
709.00 0.2917
709.10 0.2915
709.20 0.2914
709.30 0.2912
709.40 0.2911
709.50 0.2909
709.60 0.2908
709.70 0.2906
709.80 0.2905
709.90 0.2903
710.00 0.2902
710.10 0.2901
710.20 0.2899
710.30 0.2898
710.40 0.2896
710.50 0.2895
710.60 0.2893
710.70 0.2892
710.80 0.289
710.90 0.2889
711.00 0.2887
711.10 0.2886
711.20 0.2885
711.30 0.2883
711.40 0.2882
711.50 0.288
711.60 0.2879
711.70 0.2877
711.80 0.2876
711.90 0.2874
712.00 0.2873
712.10 0.2871
712.20 0.287
712.30 0.2869
712.40 0.2867
712.50 0.2866
712.60 0.2864
712.70 0.2863
712.80 0.2861
712.90 0.286
713.00 0.2858
713.10 0.2857
713.20 0.2856
713.30 0.2854
713.40 0.2853
713.50 0.2851
713.60 0.285
713.70 0.2848
713.80 0.2847
713.90 0.2846
714.00 0.2844
714.10 0.2843
714.20 0.2841
714.30 0.284
714.40 0.2838
714.50 0.2837
714.60 0.2835
714.70 0.2834
714.80 0.2833
714.90 0.2831
715.00 0.283
715.10 0.2828
715.20 0.2827
715.30 0.2826
715.40 0.2824
715.50 0.2823
715.60 0.2821
715.70 0.282
715.80 0.2818
715.90 0.2817
716.00 0.2816
716.10 0.2814
716.20 0.2813
716.30 0.2811
716.40 0.281
716.50 0.2809
716.60 0.2807
716.70 0.2806
716.80 0.2804
716.90 0.2803
717.00 0.2802
717.10 0.28
717.20 0.2799
717.30 0.2797
717.40 0.2796
717.50 0.2795
717.60 0.2793
717.70 0.2792
717.80 0.279
717.90 0.2789
718.00 0.2788
718.10 0.2786
718.20 0.2785
718.30 0.2783
718.40 0.2782
718.50 0.2781
718.60 0.2779
718.70 0.2778
718.80 0.2776
718.90 0.2775
719.00 0.2774
719.10 0.2772
719.20 0.2771
719.30 0.2769
719.40 0.2768
719.50 0.2767
719.60 0.2765
719.70 0.2764
719.80 0.2763
719.90 0.2761
720.00 0.276
720.10 0.2758
720.20 0.2757
720.30 0.2756
720.40 0.2754
720.50 0.2753
720.60 0.2752
720.70 0.275
720.80 0.2749
720.90 0.2747
721.00 0.2746
721.10 0.2745
721.20 0.2743
721.30 0.2742
721.40 0.2741
721.50 0.2739
721.60 0.2738
721.70 0.2737
721.80 0.2735
721.90 0.2734
722.00 0.2732
722.10 0.2731
722.20 0.273
722.30 0.2728
722.40 0.2727
722.50 0.2726
722.60 0.2724
722.70 0.2723
722.80 0.2722
722.90 0.272
723.00 0.2719
723.10 0.2718
723.20 0.2716
723.30 0.2715
723.40 0.2713
723.50 0.2712
723.60 0.2711
723.70 0.2709
723.80 0.2708
723.90 0.2707
724.00 0.2705
724.10 0.2704
724.20 0.2703
724.30 0.2701
724.40 0.27
724.50 0.2699
724.60 0.2697
724.70 0.2696
724.80 0.2695
724.90 0.2693
725.00 0.2692
725.10 0.2691
725.20 0.2689
725.30 0.2688
725.40 0.2687
725.50 0.2685
725.60 0.2684
725.70 0.2683
725.80 0.2681
725.90 0.268
726.00 0.2679
726.10 0.2677
726.20 0.2676
726.30 0.2675
726.40 0.2673
726.50 0.2672
726.60 0.2671
726.70 0.2669
726.80 0.2668
726.90 0.2667
727.00 0.2665
727.10 0.2664
727.20 0.2663
727.30 0.2661
727.40 0.266
727.50 0.2659
727.60 0.2658
727.70 0.2656
727.80 0.2655
727.90 0.2654
728.00 0.2652
728.10 0.2651
728.20 0.265
728.30 0.2648
728.40 0.2647
728.50 0.2646
728.60 0.2644
728.70 0.2643
728.80 0.2642
728.90 0.264
729.00 0.2639
729.10 0.2638
729.20 0.2637
729.30 0.2635
729.40 0.2634
729.50 0.2633
729.60 0.2631
729.70 0.263
729.80 0.2629
729.90 0.2627
730.00 0.2626
730.10 0.2625
730.20 0.2624
730.30 0.2622
730.40 0.2621
730.50 0.262
730.60 0.2618
730.70 0.2617
730.80 0.2616
730.90 0.2615
731.00 0.2613
731.10 0.2612
731.20 0.2611
731.30 0.2609
731.40 0.2608
731.50 0.2607
731.60 0.2606
731.70 0.2604
731.80 0.2603
731.90 0.2602
732.00 0.2601
732.10 0.2599
732.20 0.2598
732.30 0.2597
732.40 0.2595
732.50 0.2594
732.60 0.2593
732.70 0.2592
732.80 0.259
732.90 0.2589
733.00 0.2588
733.10 0.2587
733.20 0.2585
733.30 0.2584
733.40 0.2583
733.50 0.2581
733.60 0.258
733.70 0.2579
733.80 0.2578
733.90 0.2576
734.00 0.2575
734.10 0.2574
734.20 0.2573
734.30 0.2571
734.40 0.257
734.50 0.2569
734.60 0.2568
734.70 0.2566
734.80 0.2565
734.90 0.2564
735.00 0.2563
735.10 0.2561
735.20 0.256
735.30 0.2559
735.40 0.2558
735.50 0.2556
735.60 0.2555
735.70 0.2554
735.80 0.2553
735.90 0.2551
736.00 0.255
736.10 0.2549
736.20 0.2548
736.30 0.2546
736.40 0.2545
736.50 0.2544
736.60 0.2543
736.70 0.2541
736.80 0.254
736.90 0.2539
737.00 0.2538
737.10 0.2536
737.20 0.2535
737.30 0.2534
737.40 0.2533
737.50 0.2531
737.60 0.253
737.70 0.2529
737.80 0.2528
737.90 0.2526
738.00 0.2525
738.10 0.2524
738.20 0.2523
738.30 0.2521
738.40 0.252
738.50 0.2519
738.60 0.2518
738.70 0.2516
738.80 0.2515
738.90 0.2514
739.00 0.2513
739.10 0.2512
739.20 0.251
739.30 0.2509
739.40 0.2508
739.50 0.2507
739.60 0.2505
739.70 0.2504
739.80 0.2503
739.90 0.2502
740.00 0.25
740.10 0.2499
740.20 0.2498
740.30 0.2497
740.40 0.2496
740.50 0.2494
740.60 0.2493
740.70 0.2492
740.80 0.2491
740.90 0.249
741.00 0.2488
741.10 0.2487
741.20 0.2486
741.30 0.2485
741.40 0.2484
741.50 0.2482
741.60 0.2481
741.70 0.248
741.80 0.2479
741.90 0.2478
742.00 0.2476
742.10 0.2475
742.20 0.2474
742.30 0.2473
742.40 0.2472
742.50 0.247
742.60 0.2469
742.70 0.2468
742.80 0.2467
742.90 0.2466
743.00 0.2464
743.10 0.2463
743.20 0.2462
743.30 0.2461
743.40 0.246
743.50 0.2458
743.60 0.2457
743.70 0.2456
743.80 0.2455
743.90 0.2454
744.00 0.2453
744.10 0.2451
744.20 0.245
744.30 0.2449
744.40 0.2448
744.50 0.2447
744.60 0.2445
744.70 0.2444
744.80 0.2443
744.90 0.2442
745.00 0.2441
745.10 0.244
745.20 0.2438
745.30 0.2437
745.40 0.2436
745.50 0.2435
745.60 0.2434
745.70 0.2432
745.80 0.2431
745.90 0.243
746.00 0.2429
746.10 0.2428
746.20 0.2427
746.30 0.2425
746.40 0.2424
746.50 0.2423
746.60 0.2422
746.70 0.2421
746.80 0.242
746.90 0.2418
747.00 0.2417
747.10 0.2416
747.20 0.2415
747.30 0.2414
747.40 0.2413
747.50 0.2411
747.60 0.241
747.70 0.2409
747.80 0.2408
747.90 0.2407
748.00 0.2405
748.10 0.2404
748.20 0.2403
748.30 0.2402
748.40 0.2401
748.50 0.24
748.60 0.2399
748.70 0.2397
748.80 0.2396
748.90 0.2395
749.00 0.2394
749.10 0.2393
749.20 0.2392
749.30 0.239
749.40 0.2389
749.50 0.2388
749.60 0.2387
749.70 0.2386
749.80 0.2385
749.90 0.2383
750.00 0.2382
750.10 0.2381
750.20 0.238
750.30 0.2379
750.40 0.2378
750.50 0.2377
750.60 0.2375
750.70 0.2374
750.80 0.2373
750.90 0.2372
751.00 0.2371
751.10 0.237
751.20 0.2369
751.30 0.2368
751.40 0.2366
751.50 0.2365
751.60 0.2364
751.70 0.2363
751.80 0.2362
751.90 0.2361
752.00 0.236
752.10 0.2359
752.20 0.2357
752.30 0.2356
752.40 0.2355
752.50 0.2354
752.60 0.2353
752.70 0.2352
752.80 0.2351
752.90 0.235
753.00 0.2348
753.10 0.2347
753.20 0.2346
753.30 0.2345
753.40 0.2344
753.50 0.2343
753.60 0.2342
753.70 0.2341
753.80 0.2339
753.90 0.2338
754.00 0.2337
754.10 0.2336
754.20 0.2335
754.30 0.2334
754.40 0.2333
754.50 0.2332
754.60 0.233
754.70 0.2329
754.80 0.2328
754.90 0.2327
755.00 0.2326
755.10 0.2325
755.20 0.2324
755.30 0.2323
755.40 0.2322
755.50 0.232
755.60 0.2319
755.70 0.2318
755.80 0.2317
755.90 0.2316
756.00 0.2315
756.10 0.2314
756.20 0.2313
756.30 0.2312
756.40 0.2311
756.50 0.2309
756.60 0.2308
756.70 0.2307
756.80 0.2306
756.90 0.2305
757.00 0.2304
757.10 0.2303
757.20 0.2302
757.30 0.2301
757.40 0.2299
757.50 0.2298
757.60 0.2297
757.70 0.2296
757.80 0.2295
757.90 0.2294
758.00 0.2293
758.10 0.2292
758.20 0.2291
758.30 0.229
758.40 0.2288
758.50 0.2287
758.60 0.2286
758.70 0.2285
758.80 0.2284
758.90 0.2283
759.00 0.2282
759.10 0.2281
759.20 0.228
759.30 0.2279
759.40 0.2278
759.50 0.2276
759.60 0.2275
759.70 0.2274
759.80 0.2273
759.90 0.2272
760.00 0.2271
760.10 0.227
760.20 0.2269
760.30 0.2268
760.40 0.2267
760.50 0.2266
760.60 0.2265
760.70 0.2264
760.80 0.2262
760.90 0.2261
761.00 0.226
761.10 0.2259
761.20 0.2258
761.30 0.2257
761.40 0.2256
761.50 0.2255
761.60 0.2254
761.70 0.2253
761.80 0.2252
761.90 0.2251
762.00 0.225
762.10 0.2249
762.20 0.2248
762.30 0.2247
762.40 0.2245
762.50 0.2244
762.60 0.2243
762.70 0.2242
762.80 0.2241
762.90 0.224
763.00 0.2239
763.10 0.2238
763.20 0.2237
763.30 0.2236
763.40 0.2235
763.50 0.2234
763.60 0.2233
763.70 0.2232
763.80 0.2231
763.90 0.223
764.00 0.2229
764.10 0.2227
764.20 0.2226
764.30 0.2225
764.40 0.2224
764.50 0.2223
764.60 0.2222
764.70 0.2221
764.80 0.222
764.90 0.2219
765.00 0.2218
765.10 0.2217
765.20 0.2216
765.30 0.2215
765.40 0.2214
765.50 0.2213
765.60 0.2212
765.70 0.2211
765.80 0.221
765.90 0.2209
766.00 0.2208
766.10 0.2207
766.20 0.2205
766.30 0.2204
766.40 0.2203
766.50 0.2202
766.60 0.2201
766.70 0.22
766.80 0.2199
766.90 0.2198
767.00 0.2197
767.10 0.2196
767.20 0.2195
767.30 0.2194
767.40 0.2193
767.50 0.2192
767.60 0.2191
767.70 0.219
767.80 0.2189
767.90 0.2188
768.00 0.2187
768.10 0.2186
768.20 0.2185
768.30 0.2184
768.40 0.2183
768.50 0.2182
768.60 0.2181
768.70 0.218
768.80 0.2179
768.90 0.2178
769.00 0.2176
769.10 0.2175
769.20 0.2174
769.30 0.2173
769.40 0.2172
769.50 0.2171
769.60 0.217
769.70 0.2169
769.80 0.2168
769.90 0.2167
770.00 0.2166
770.10 0.2165
770.20 0.2164
770.30 0.2163
770.40 0.2162
770.50 0.2161
770.60 0.216
770.70 0.2159
770.80 0.2158
770.90 0.2157
771.00 0.2156
771.10 0.2155
771.20 0.2154
771.30 0.2153
771.40 0.2152
771.50 0.2151
771.60 0.215
771.70 0.2149
771.80 0.2148
771.90 0.2147
772.00 0.2146
772.10 0.2145
772.20 0.2144
772.30 0.2143
772.40 0.2142
772.50 0.2141
772.60 0.214
772.70 0.2139
772.80 0.2138
772.90 0.2137
773.00 0.2136
773.10 0.2135
773.20 0.2134
773.30 0.2133
773.40 0.2132
773.50 0.2131
773.60 0.213
773.70 0.2129
773.80 0.2128
773.90 0.2127
774.00 0.2126
774.10 0.2125
774.20 0.2124
774.30 0.2123
774.40 0.2122
774.50 0.2121
774.60 0.212
774.70 0.2119
774.80 0.2118
774.90 0.2117
775.00 0.2116
775.10 0.2115
775.20 0.2114
775.30 0.2113
775.40 0.2112
775.50 0.2111
775.60 0.211
775.70 0.2109
775.80 0.2108
775.90 0.2107
776.00 0.2106
776.10 0.2105
776.20 0.2104
776.30 0.2103
776.40 0.2102
776.50 0.2102
776.60 0.2101
776.70 0.21
776.80 0.2099
776.90 0.2098
777.00 0.2097
777.10 0.2096
777.20 0.2095
777.30 0.2094
777.40 0.2093
777.50 0.2092
777.60 0.2091
777.70 0.209
777.80 0.2089
777.90 0.2088
778.00 0.2087
778.10 0.2086
778.20 0.2085
778.30 0.2084
778.40 0.2083
778.50 0.2082
778.60 0.2081
778.70 0.208
778.80 0.2079
778.90 0.2078
779.00 0.2077
779.10 0.2076
779.20 0.2075
779.30 0.2074
779.40 0.2073
779.50 0.2072
779.60 0.2071
779.70 0.207
779.80 0.2069
779.90 0.2068
780.00 0.2067
780.10 0.2066
780.20 0.2066
780.30 0.2065
780.40 0.2064
780.50 0.2063
780.60 0.2062
780.70 0.2061
780.80 0.206
780.90 0.2059
781.00 0.2058
781.10 0.2057
781.20 0.2056
781.30 0.2055
781.40 0.2054
781.50 0.2053
781.60 0.2052
781.70 0.2051
781.80 0.205
781.90 0.2049
782.00 0.2048
782.10 0.2048
782.20 0.2047
782.30 0.2046
782.40 0.2045
782.50 0.2044
782.60 0.2043
782.70 0.2042
782.80 0.2041
782.90 0.204
783.00 0.2039
783.10 0.2038
783.20 0.2037
783.30 0.2036
783.40 0.2035
783.50 0.2034
783.60 0.2033
783.70 0.2032
783.80 0.2032
783.90 0.2031
784.00 0.203
784.10 0.2029
784.20 0.2028
784.30 0.2027
784.40 0.2026
784.50 0.2025
784.60 0.2024
784.70 0.2023
784.80 0.2022
784.90 0.2021
785.00 0.202
785.10 0.2019
785.20 0.2018
785.30 0.2018
785.40 0.2017
785.50 0.2016
785.60 0.2015
785.70 0.2014
785.80 0.2013
785.90 0.2012
786.00 0.2011
786.10 0.201
786.20 0.2009
786.30 0.2008
786.40 0.2007
786.50 0.2006
786.60 0.2005
786.70 0.2005
786.80 0.2004
786.90 0.2003
787.00 0.2002
787.10 0.2001
787.20 0.2
787.30 0.1999
787.40 0.1998
787.50 0.1997
787.60 0.1996
787.70 0.1995
787.80 0.1994
787.90 0.1993
788.00 0.1993
788.10 0.1992
788.20 0.1991
788.30 0.199
788.40 0.1989
788.50 0.1988
788.60 0.1987
788.70 0.1986
788.80 0.1985
788.90 0.1984
789.00 0.1983
789.10 0.1982
789.20 0.1982
789.30 0.1981
789.40 0.198
789.50 0.1979
789.60 0.1978
789.70 0.1977
789.80 0.1976
789.90 0.1975
790.00 0.1974
790.10 0.1973
790.20 0.1972
790.30 0.1972
790.40 0.1971
790.50 0.197
790.60 0.1969
790.70 0.1968
790.80 0.1967
790.90 0.1966
791.00 0.1965
791.10 0.1964
791.20 0.1963
791.30 0.1963
791.40 0.1962
791.50 0.1961
791.60 0.196
791.70 0.1959
791.80 0.1958
791.90 0.1957
792.00 0.1956
792.10 0.1955
792.20 0.1955
792.30 0.1954
792.40 0.1953
792.50 0.1952
792.60 0.1951
792.70 0.195
792.80 0.1949
792.90 0.1948
793.00 0.1947
793.10 0.1947
793.20 0.1946
793.30 0.1945
793.40 0.1944
793.50 0.1943
793.60 0.1942
793.70 0.1941
793.80 0.194
793.90 0.1939
794.00 0.1939
794.10 0.1938
794.20 0.1937
794.30 0.1936
794.40 0.1935
794.50 0.1934
794.60 0.1933
794.70 0.1932
794.80 0.1931
794.90 0.1931
795.00 0.193
795.10 0.1929
795.20 0.1928
795.30 0.1927
795.40 0.1926
795.50 0.1925
795.60 0.1924
795.70 0.1924
795.80 0.1923
795.90 0.1922
796.00 0.1921
796.10 0.192
796.20 0.1919
796.30 0.1918
796.40 0.1917
796.50 0.1917
796.60 0.1916
796.70 0.1915
796.80 0.1914
796.90 0.1913
797.00 0.1912
797.10 0.1911
797.20 0.191
797.30 0.191
797.40 0.1909
797.50 0.1908
797.60 0.1907
797.70 0.1906
797.80 0.1905
797.90 0.1904
798.00 0.1904
798.10 0.1903
798.20 0.1902
798.30 0.1901
798.40 0.19
798.50 0.1899
798.60 0.1898
798.70 0.1897
798.80 0.1897
798.90 0.1896
799.00 0.1895
799.10 0.1894
799.20 0.1893
799.30 0.1892
799.40 0.1891
799.50 0.1891
799.60 0.189
799.70 0.1889
799.80 0.1888
799.90 0.1887
800.00 0.1886
800.10 0.1885
800.20 0.1885
800.30 0.1884
800.40 0.1883
800.50 0.1882
800.60 0.1881
800.70 0.188
800.80 0.1879
800.90 0.1879
801.00 0.1878
801.10 0.1877
801.20 0.1876
801.30 0.1875
801.40 0.1874
801.50 0.1874
801.60 0.1873
801.70 0.1872
801.80 0.1871
801.90 0.187
802.00 0.1869
802.10 0.1868
802.20 0.1868
802.30 0.1867
802.40 0.1866
802.50 0.1865
802.60 0.1864
802.70 0.1863
802.80 0.1863
802.90 0.1862
803.00 0.1861
803.10 0.186
803.20 0.1859
803.30 0.1858
803.40 0.1858
803.50 0.1857
803.60 0.1856
803.70 0.1855
803.80 0.1854
803.90 0.1853
804.00 0.1853
804.10 0.1852
804.20 0.1851
804.30 0.185
804.40 0.1849
804.50 0.1848
804.60 0.1848
804.70 0.1847
804.80 0.1846
804.90 0.1845
805.00 0.1844
805.10 0.1843
805.20 0.1843
805.30 0.1842
805.40 0.1841
805.50 0.184
805.60 0.1839
805.70 0.1838
805.80 0.1838
805.90 0.1837
806.00 0.1836
806.10 0.1835
806.20 0.1834
806.30 0.1833
806.40 0.1833
806.50 0.1832
806.60 0.1831
806.70 0.183
806.80 0.1829
806.90 0.1828
807.00 0.1828
807.10 0.1827
807.20 0.1826
807.30 0.1825
807.40 0.1824
807.50 0.1824
807.60 0.1823
807.70 0.1822
807.80 0.1821
807.90 0.182
808.00 0.1819
808.10 0.1819
808.20 0.1818
808.30 0.1817
808.40 0.1816
808.50 0.1815
808.60 0.1815
808.70 0.1814
808.80 0.1813
808.90 0.1812
809.00 0.1811
809.10 0.181
809.20 0.181
809.30 0.1809
809.40 0.1808
809.50 0.1807
809.60 0.1806
809.70 0.1806
809.80 0.1805
809.90 0.1804
810.00 0.1803
810.10 0.1802
810.20 0.1801
810.30 0.1801
810.40 0.18
810.50 0.1799
810.60 0.1798
810.70 0.1797
810.80 0.1797
810.90 0.1796
811.00 0.1795
811.10 0.1794
811.20 0.1793
811.30 0.1793
811.40 0.1792
811.50 0.1791
811.60 0.179
811.70 0.179
811.80 0.1789
811.90 0.1788
812.00 0.1787
812.10 0.1786
812.20 0.1786
812.30 0.1785
812.40 0.1784
812.50 0.1783
812.60 0.1782
812.70 0.1782
812.80 0.1781
812.90 0.178
813.00 0.1779
813.10 0.1778
813.20 0.1778
813.30 0.1777
813.40 0.1776
813.50 0.1775
813.60 0.1774
813.70 0.1774
813.80 0.1773
813.90 0.1772
814.00 0.1771
814.10 0.177
814.20 0.177
814.30 0.1769
814.40 0.1768
814.50 0.1767
814.60 0.1767
814.70 0.1766
814.80 0.1765
814.90 0.1764
815.00 0.1763
815.10 0.1763
815.20 0.1762
815.30 0.1761
815.40 0.176
815.50 0.1759
815.60 0.1759
815.70 0.1758
815.80 0.1757
815.90 0.1756
816.00 0.1756
816.10 0.1755
816.20 0.1754
816.30 0.1753
816.40 0.1752
816.50 0.1752
816.60 0.1751
816.70 0.175
816.80 0.1749
816.90 0.1749
817.00 0.1748
817.10 0.1747
817.20 0.1746
817.30 0.1745
817.40 0.1745
817.50 0.1744
817.60 0.1743
817.70 0.1742
817.80 0.1742
817.90 0.1741
818.00 0.174
818.10 0.1739
818.20 0.1738
818.30 0.1738
818.40 0.1737
818.50 0.1736
818.60 0.1735
818.70 0.1735
818.80 0.1734
818.90 0.1733
819.00 0.1732
819.10 0.1731
819.20 0.1731
819.30 0.173
819.40 0.1729
819.50 0.1728
819.60 0.1728
819.70 0.1727
819.80 0.1726
819.90 0.1725
820.00 0.1725
820.10 0.1724
820.20 0.1723
820.30 0.1722
820.40 0.1721
820.50 0.1721
820.60 0.172
820.70 0.1719
820.80 0.1718
820.90 0.1718
821.00 0.1717
821.10 0.1716
821.20 0.1715
821.30 0.1715
821.40 0.1714
821.50 0.1713
821.60 0.1712
821.70 0.1712
821.80 0.1711
821.90 0.171
822.00 0.1709
822.10 0.1709
822.20 0.1708
822.30 0.1707
822.40 0.1706
822.50 0.1706
822.60 0.1705
822.70 0.1704
822.80 0.1703
822.90 0.1703
823.00 0.1702
823.10 0.1701
823.20 0.17
823.30 0.17
823.40 0.1699
823.50 0.1698
823.60 0.1697
823.70 0.1697
823.80 0.1696
823.90 0.1695
824.00 0.1694
824.10 0.1694
824.20 0.1693
824.30 0.1692
824.40 0.1691
824.50 0.1691
824.60 0.169
824.70 0.1689
824.80 0.1688
824.90 0.1688
825.00 0.1687
825.10 0.1686
825.20 0.1685
825.30 0.1685
825.40 0.1684
825.50 0.1683
825.60 0.1682
825.70 0.1682
825.80 0.1681
825.90 0.168
826.00 0.1679
826.10 0.1679
826.20 0.1678
826.30 0.1677
826.40 0.1676
826.50 0.1676
826.60 0.1675
826.70 0.1674
826.80 0.1674
826.90 0.1673
827.00 0.1672
827.10 0.1671
827.20 0.1671
827.30 0.167
827.40 0.1669
827.50 0.1668
827.60 0.1668
827.70 0.1667
827.80 0.1666
827.90 0.1665
828.00 0.1665
828.10 0.1664
828.20 0.1663
828.30 0.1662
828.40 0.1662
828.50 0.1661
828.60 0.166
828.70 0.1659
828.80 0.1659
828.90 0.1658
829.00 0.1657
829.10 0.1657
829.20 0.1656
829.30 0.1655
829.40 0.1654
829.50 0.1654
829.60 0.1653
829.70 0.1652
829.80 0.1651
829.90 0.1651
830.00 0.165
830.10 0.1649
830.20 0.1648
830.30 0.1648
830.40 0.1647
830.50 0.1646
830.60 0.1645
830.70 0.1645
830.80 0.1644
830.90 0.1643
831.00 0.1643
831.10 0.1642
831.20 0.1641
831.30 0.164
831.40 0.164
831.50 0.1639
831.60 0.1638
831.70 0.1637
831.80 0.1637
831.90 0.1636
832.00 0.1635
832.10 0.1635
832.20 0.1634
832.30 0.1633
832.40 0.1632
832.50 0.1632
832.60 0.1631
832.70 0.163
832.80 0.1629
832.90 0.1629
833.00 0.1628
833.10 0.1627
833.20 0.1626
833.30 0.1626
833.40 0.1625
833.50 0.1624
833.60 0.1623
833.70 0.1623
833.80 0.1622
833.90 0.1621
834.00 0.162
834.10 0.162
834.20 0.1619
834.30 0.1618
834.40 0.1617
834.50 0.1617
834.60 0.1616
834.70 0.1615
834.80 0.1615
834.90 0.1614
835.00 0.1613
835.10 0.1612
835.20 0.1612
835.30 0.1611
835.40 0.161
835.50 0.1609
835.60 0.1609
835.70 0.1608
835.80 0.1607
835.90 0.1606
836.00 0.1606
836.10 0.1605
836.20 0.1604
836.30 0.1604
836.40 0.1603
836.50 0.1602
836.60 0.1601
836.70 0.1601
836.80 0.16
836.90 0.1599
837.00 0.1598
837.10 0.1598
837.20 0.1597
837.30 0.1596
837.40 0.1596
837.50 0.1595
837.60 0.1594
837.70 0.1593
837.80 0.1593
837.90 0.1592
838.00 0.1591
838.10 0.1591
838.20 0.159
838.30 0.1589
838.40 0.1588
838.50 0.1588
838.60 0.1587
838.70 0.1586
838.80 0.1586
838.90 0.1585
839.00 0.1584
839.10 0.1584
839.20 0.1583
839.30 0.1582
839.40 0.1581
839.50 0.1581
839.60 0.158
839.70 0.1579
839.80 0.1579
839.90 0.1578
840.00 0.1577
840.10 0.1577
840.20 0.1576
840.30 0.1575
840.40 0.1574
840.50 0.1574
840.60 0.1573
840.70 0.1572
840.80 0.1572
840.90 0.1571
841.00 0.157
841.10 0.1569
841.20 0.1569
841.30 0.1568
841.40 0.1567
841.50 0.1567
841.60 0.1566
841.70 0.1565
841.80 0.1565
841.90 0.1564
842.00 0.1563
842.10 0.1563
842.20 0.1562
842.30 0.1561
842.40 0.156
842.50 0.156
842.60 0.1559
842.70 0.1558
842.80 0.1558
842.90 0.1557
843.00 0.1556
843.10 0.1556
843.20 0.1555
843.30 0.1554
843.40 0.1554
843.50 0.1553
843.60 0.1552
843.70 0.1552
843.80 0.1551
843.90 0.155
844.00 0.155
844.10 0.1549
844.20 0.1548
844.30 0.1547
844.40 0.1547
844.50 0.1546
844.60 0.1545
844.70 0.1545
844.80 0.1544
844.90 0.1543
845.00 0.1543
845.10 0.1542
845.20 0.1541
845.30 0.1541
845.40 0.154
845.50 0.1539
845.60 0.1539
845.70 0.1538
845.80 0.1537
845.90 0.1537
846.00 0.1536
846.10 0.1535
846.20 0.1535
846.30 0.1534
846.40 0.1533
846.50 0.1533
846.60 0.1532
846.70 0.1531
846.80 0.153
846.90 0.153
847.00 0.1529
847.10 0.1528
847.20 0.1528
847.30 0.1527
847.40 0.1527
847.50 0.1526
847.60 0.1525
847.70 0.1525
847.80 0.1524
847.90 0.1523
848.00 0.1523
848.10 0.1522
848.20 0.1521
848.30 0.1521
848.40 0.152
848.50 0.1519
848.60 0.1519
848.70 0.1518
848.80 0.1517
848.90 0.1517
849.00 0.1516
849.10 0.1515
849.20 0.1515
849.30 0.1514
849.40 0.1513
849.50 0.1513
849.60 0.1512
849.70 0.1511
849.80 0.1511
849.90 0.151
850.00 0.1509
850.10 0.1509
850.20 0.1508
850.30 0.1508
850.40 0.1507
850.50 0.1506
850.60 0.1506
850.70 0.1505
850.80 0.1504
850.90 0.1504
851.00 0.1503
851.10 0.1502
851.20 0.1502
851.30 0.1501
851.40 0.15
851.50 0.15
851.60 0.1499
851.70 0.1498
851.80 0.1498
851.90 0.1497
852.00 0.1497
852.10 0.1496
852.20 0.1495
852.30 0.1495
852.40 0.1494
852.50 0.1493
852.60 0.1493
852.70 0.1492
852.80 0.1492
852.90 0.1491
853.00 0.149
853.10 0.149
853.20 0.1489
853.30 0.1488
853.40 0.1488
853.50 0.1487
853.60 0.1487
853.70 0.1486
853.80 0.1485
853.90 0.1485
854.00 0.1484
854.10 0.1483
854.20 0.1483
854.30 0.1482
854.40 0.1482
854.50 0.1481
854.60 0.148
854.70 0.148
854.80 0.1479
854.90 0.1478
855.00 0.1478
855.10 0.1477
855.20 0.1477
855.30 0.1476
855.40 0.1475
855.50 0.1475
855.60 0.1474
855.70 0.1474
855.80 0.1473
855.90 0.1472
856.00 0.1472
856.10 0.1471
856.20 0.147
856.30 0.147
856.40 0.1469
856.50 0.1469
856.60 0.1468
856.70 0.1467
856.80 0.1467
856.90 0.1466
857.00 0.1466
857.10 0.1465
857.20 0.1464
857.30 0.1464
857.40 0.1463
857.50 0.1463
857.60 0.1462
857.70 0.1461
857.80 0.1461
857.90 0.146
858.00 0.146
858.10 0.1459
858.20 0.1458
858.30 0.1458
858.40 0.1457
858.50 0.1457
858.60 0.1456
858.70 0.1456
858.80 0.1455
858.90 0.1454
859.00 0.1454
859.10 0.1453
859.20 0.1453
859.30 0.1452
859.40 0.1451
859.50 0.1451
859.60 0.145
859.70 0.145
859.80 0.1449
859.90 0.1448
860.00 0.1448
860.10 0.1447
860.20 0.1447
860.30 0.1446
860.40 0.1446
860.50 0.1445
860.60 0.1444
860.70 0.1444
860.80 0.1443
860.90 0.1443
861.00 0.1442
861.10 0.1441
861.20 0.1441
861.30 0.144
861.40 0.144
861.50 0.1439
861.60 0.1439
861.70 0.1438
861.80 0.1437
861.90 0.1437
862.00 0.1436
862.10 0.1436
862.20 0.1435
862.30 0.1434
862.40 0.1434
862.50 0.1433
862.60 0.1433
862.70 0.1432
862.80 0.1431
862.90 0.1431
863.00 0.143
863.10 0.143
863.20 0.1429
863.30 0.1428
863.40 0.1428
863.50 0.1427
863.60 0.1427
863.70 0.1426
863.80 0.1426
863.90 0.1425
864.00 0.1424
864.10 0.1424
864.20 0.1423
864.30 0.1423
864.40 0.1422
864.50 0.1421
864.60 0.1421
864.70 0.142
864.80 0.142
864.90 0.1419
865.00 0.1418
865.10 0.1418
865.20 0.1417
865.30 0.1417
865.40 0.1416
865.50 0.1415
865.60 0.1415
865.70 0.1414
865.80 0.1414
865.90 0.1413
866.00 0.1413
866.10 0.1412
866.20 0.1411
866.30 0.1411
866.40 0.141
866.50 0.141
866.60 0.1409
866.70 0.1408
866.80 0.1408
866.90 0.1407
867.00 0.1407
867.10 0.1406
867.20 0.1406
867.30 0.1405
867.40 0.1405
867.50 0.1404
867.60 0.1403
867.70 0.1403
867.80 0.1402
867.90 0.1402
868.00 0.1401
868.10 0.1401
868.20 0.14
868.30 0.14
868.40 0.1399
868.50 0.1399
868.60 0.1398
868.70 0.1398
868.80 0.1397
868.90 0.1397
869.00 0.1396
869.10 0.1396
869.20 0.1395
869.30 0.1394
869.40 0.1394
869.50 0.1393
869.60 0.1393
869.70 0.1392
869.80 0.1392
869.90 0.1391
870.00 0.1391
870.10 0.139
870.20 0.139
870.30 0.1389
870.40 0.1389
870.50 0.1388
870.60 0.1388
870.70 0.1387
870.80 0.1387
870.90 0.1386
871.00 0.1386
871.10 0.1385
871.20 0.1385
871.30 0.1384
871.40 0.1383
871.50 0.1383
871.60 0.1382
871.70 0.1382
871.80 0.1381
871.90 0.1381
872.00 0.138
872.10 0.138
872.20 0.1379
872.30 0.1379
872.40 0.1378
872.50 0.1378
872.60 0.1377
872.70 0.1377
872.80 0.1376
872.90 0.1375
873.00 0.1375
873.10 0.1374
873.20 0.1374
873.30 0.1373
873.40 0.1373
873.50 0.1372
873.60 0.1372
873.70 0.1371
873.80 0.1371
873.90 0.137
874.00 0.137
874.10 0.1369
874.20 0.1368
874.30 0.1368
874.40 0.1367
874.50 0.1367
874.60 0.1366
874.70 0.1366
874.80 0.1365
874.90 0.1365
875.00 0.1364
875.10 0.1364
875.20 0.1363
875.30 0.1363
875.40 0.1362
875.50 0.1361
875.60 0.1361
875.70 0.136
875.80 0.136
875.90 0.1359
876.00 0.1359
876.10 0.1358
876.20 0.1358
876.30 0.1357
876.40 0.1357
876.50 0.1356
876.60 0.1356
876.70 0.1355
876.80 0.1355
876.90 0.1354
877.00 0.1353
877.10 0.1353
877.20 0.1352
877.30 0.1352
877.40 0.1351
877.50 0.1351
877.60 0.135
877.70 0.135
877.80 0.1349
877.90 0.1349
878.00 0.1348
878.10 0.1348
878.20 0.1347
878.30 0.1347
878.40 0.1346
878.50 0.1346
878.60 0.1345
878.70 0.1345
878.80 0.1344
878.90 0.1344
879.00 0.1343
879.10 0.1343
879.20 0.1342
879.30 0.1342
879.40 0.1341
879.50 0.1341
879.60 0.134
879.70 0.134
879.80 0.1339
879.90 0.1339
880.00 0.1338
880.10 0.1338
880.20 0.1337
880.30 0.1337
880.40 0.1336
880.50 0.1336
880.60 0.1335
880.70 0.1335
880.80 0.1334
880.90 0.1334
881.00 0.1333
881.10 0.1333
881.20 0.1332
881.30 0.1332
881.40 0.1331
881.50 0.1331
881.60 0.133
881.70 0.133
881.80 0.1329
881.90 0.1329
882.00 0.1328
882.10 0.1327
882.20 0.1327
882.30 0.1326
882.40 0.1325
882.50 0.1324
882.60 0.1324
882.70 0.1323
882.80 0.1322
882.90 0.1322
883.00 0.1321
883.10 0.132
883.20 0.1319
883.30 0.1319
883.40 0.1318
883.50 0.1317
883.60 0.1316
883.70 0.1316
883.80 0.1315
883.90 0.1314
884.00 0.1314
884.10 0.1313
884.20 0.1312
884.30 0.1311
884.40 0.1311
884.50 0.131
884.60 0.1309
884.70 0.1308
884.80 0.1308
884.90 0.1307
885.00 0.1306
885.10 0.1306
885.20 0.1305
885.30 0.1304
885.40 0.1303
885.50 0.1303
885.60 0.1302
885.70 0.1301
885.80 0.13
885.90 0.13
886.00 0.1299
886.10 0.1298
886.20 0.1298
886.30 0.1297
886.40 0.1296
886.50 0.1295
886.60 0.1295
886.70 0.1294
886.80 0.1293
886.90 0.1293
887.00 0.1292
887.10 0.1292
887.20 0.1292
887.30 0.1291
887.40 0.1291
887.50 0.1291
887.60 0.1291
887.70 0.1291
887.80 0.1291
887.90 0.129
888.00 0.129
888.10 0.129
888.20 0.129
888.30 0.129
888.40 0.129
888.50 0.129
888.60 0.1289
888.70 0.1289
888.80 0.1289
888.90 0.1289
889.00 0.1289
889.10 0.1289
889.20 0.1289
889.30 0.1288
889.40 0.1288
889.50 0.1288
889.60 0.1288
889.70 0.1288
889.80 0.1288
889.90 0.1287
890.00 0.1287
890.10 0.1287
890.20 0.1287
890.30 0.1287
890.40 0.1287
890.50 0.1287
890.60 0.1286
890.70 0.1286
890.80 0.1286
890.90 0.1286
891.00 0.1286
891.10 0.1286
891.20 0.1286
891.30 0.1285
891.40 0.1285
891.50 0.1285
891.60 0.1285
891.70 0.1285
891.80 0.1285
891.90 0.1284
892.00 0.1284
892.10 0.1284
892.20 0.1283
892.30 0.1282
892.40 0.1281
892.50 0.1281
892.60 0.128
892.70 0.1279
892.80 0.1278
892.90 0.1278
893.00 0.1277
893.10 0.1276
893.20 0.1276
893.30 0.1275
893.40 0.1274
893.50 0.1273
893.60 0.1273
893.70 0.1272
893.80 0.1271
893.90 0.127
894.00 0.127
894.10 0.1269
894.20 0.1268
894.30 0.1268
894.40 0.1267
894.50 0.1266
894.60 0.1265
894.70 0.1265
894.80 0.1264
894.90 0.1263
895.00 0.1263
895.10 0.1262
895.20 0.1261
895.30 0.126
895.40 0.126
895.50 0.1259
895.60 0.1258
895.70 0.1257
895.80 0.1257
895.90 0.1256
896.00 0.1255
896.10 0.1255
896.20 0.1254
896.30 0.1253
896.40 0.1252
896.50 0.1252
896.60 0.1251
896.70 0.125
896.80 0.125
896.90 0.1249
897.00 0.1248
897.10 0.1247
897.20 0.1246
897.30 0.1245
897.40 0.1244
897.50 0.1242
897.60 0.1241
897.70 0.124
897.80 0.1239
897.90 0.1238
898.00 0.1237
898.10 0.1236
898.20 0.1235
898.30 0.1233
898.40 0.1232
898.50 0.1231
898.60 0.123
898.70 0.1229
898.80 0.1228
898.90 0.1227
899.00 0.1225
899.10 0.1224
899.20 0.1223
899.30 0.1222
899.40 0.1221
899.50 0.122
899.60 0.1219
899.70 0.1218
899.80 0.1217
899.90 0.1215
900.00 0.1214
900.10 0.1213
900.20 0.1212
900.30 0.1211
900.40 0.121
900.50 0.1209
900.60 0.1208
900.70 0.1206
900.80 0.1205
900.90 0.1204
901.00 0.1203
901.10 0.1202
901.20 0.1201
901.30 0.12
901.40 0.1199
901.50 0.1197
901.60 0.1196
901.70 0.1195
901.80 0.1194
901.90 0.1193
902.00 0.1192
902.10 0.1192
902.20 0.1193
902.30 0.1193
902.40 0.1194
902.50 0.1194
902.60 0.1194
902.70 0.1195
902.80 0.1195
902.90 0.1196
903.00 0.1196
903.10 0.1197
903.20 0.1197
903.30 0.1197
903.40 0.1198
903.50 0.1198
903.60 0.1199
903.70 0.1199
903.80 0.1199
903.90 0.12
904.00 0.12
904.10 0.1201
904.20 0.1201
904.30 0.1202
904.40 0.1202
904.50 0.1202
904.60 0.1203
904.70 0.1203
904.80 0.1204
904.90 0.1204
905.00 0.1204
905.10 0.1205
905.20 0.1205
905.30 0.1206
905.40 0.1206
905.50 0.1207
905.60 0.1207
905.70 0.1207
905.80 0.1208
905.90 0.1208
906.00 0.1209
906.10 0.1209
906.20 0.1209
906.30 0.121
906.40 0.121
906.50 0.1211
906.60 0.1211
906.70 0.1211
906.80 0.1212
906.90 0.1212
907.00 0.1213
907.10 0.1212
907.20 0.1212
907.30 0.1212
907.40 0.1212
907.50 0.1212
907.60 0.1211
907.70 0.1211
907.80 0.1211
907.90 0.1211
908.00 0.121
908.10 0.121
908.20 0.121
908.30 0.121
908.40 0.1209
908.50 0.1209
908.60 0.1209
908.70 0.1209
908.80 0.1209
908.90 0.1208
909.00 0.1208
909.10 0.1208
909.20 0.1208
909.30 0.1207
909.40 0.1207
909.50 0.1207
909.60 0.1207
909.70 0.1206
909.80 0.1206
909.90 0.1206
910.00 0.1206
910.10 0.1206
910.20 0.1205
910.30 0.1205
910.40 0.1205
910.50 0.1205
910.60 0.1204
910.70 0.1204
910.80 0.1204
910.90 0.1204
911.00 0.1204
911.10 0.1203
911.20 0.1203
911.30 0.1203
911.40 0.1203
911.50 0.1202
911.60 0.1202
911.70 0.1202
911.80 0.1202
911.90 0.1201
912.00 0.1201
912.10 0.12
912.20 0.1199
912.30 0.1199
912.40 0.1198
912.50 0.1197
912.60 0.1196
912.70 0.1195
912.80 0.1194
912.90 0.1193
913.00 0.1192
913.10 0.1191
913.20 0.119
913.30 0.119
913.40 0.1189
913.50 0.1188
913.60 0.1187
913.70 0.1186
913.80 0.1185
913.90 0.1184
914.00 0.1183
914.10 0.1182
914.20 0.1182
914.30 0.1181
914.40 0.118
914.50 0.1179
914.60 0.1178
914.70 0.1177
914.80 0.1176
914.90 0.1175
915.00 0.1174
915.10 0.1173
915.20 0.1173
915.30 0.1172
915.40 0.1171
915.50 0.117
915.60 0.1169
915.70 0.1168
915.80 0.1167
915.90 0.1166
916.00 0.1165
916.10 0.1165
916.20 0.1164
916.30 0.1163
916.40 0.1162
916.50 0.1161
916.60 0.116
916.70 0.1159
916.80 0.1158
916.90 0.1158
917.00 0.1157
917.10 0.1155
917.20 0.1153
917.30 0.1151
917.40 0.1149
917.50 0.1148
917.60 0.1146
917.70 0.1144
917.80 0.1142
917.90 0.114
918.00 0.1139
918.10 0.1137
918.20 0.1135
918.30 0.1133
918.40 0.1132
918.50 0.113
918.60 0.1128
918.70 0.1126
918.80 0.1124
918.90 0.1123
919.00 0.1121
919.10 0.1119
919.20 0.1117
919.30 0.1116
919.40 0.1114
919.50 0.1112
919.60 0.111
919.70 0.1108
919.80 0.1107
919.90 0.1105
920.00 0.1103
920.10 0.1101
920.20 0.11
920.30 0.1098
920.40 0.1096
920.50 0.1094
920.60 0.1092
920.70 0.1091
920.80 0.1089
920.90 0.1087
921.00 0.1085
921.10 0.1084
921.20 0.1082
921.30 0.108
921.40 0.1078
921.50 0.1077
921.60 0.1075
921.70 0.1073
921.80 0.1071
921.90 0.1069
922.00 0.1068
922.10 0.1068
922.20 0.1069
922.30 0.107
922.40 0.107
922.50 0.1071
922.60 0.1071
922.70 0.1072
922.80 0.1073
922.90 0.1073
923.00 0.1074
923.10 0.1074
923.20 0.1075
923.30 0.1076
923.40 0.1076
923.50 0.1077
923.60 0.1077
923.70 0.1078
923.80 0.1079
923.90 0.1079
924.00 0.108
924.10 0.1081
924.20 0.1081
924.30 0.1082
924.40 0.1082
924.50 0.1083
924.60 0.1084
924.70 0.1084
924.80 0.1085
924.90 0.1085
925.00 0.1086
925.10 0.1087
925.20 0.1087
925.30 0.1088
925.40 0.1088
925.50 0.1089
925.60 0.109
925.70 0.109
925.80 0.1091
925.90 0.1091
926.00 0.1092
926.10 0.1093
926.20 0.1093
926.30 0.1094
926.40 0.1094
926.50 0.1095
926.60 0.1096
926.70 0.1096
926.80 0.1097
926.90 0.1097
927.00 0.1098
927.10 0.1098
927.20 0.1099
927.30 0.1099
927.40 0.11
927.50 0.11
927.60 0.11
927.70 0.1101
927.80 0.1101
927.90 0.1102
928.00 0.1102
928.10 0.1102
928.20 0.1103
928.30 0.1103
928.40 0.1104
928.50 0.1104
928.60 0.1104
928.70 0.1105
928.80 0.1105
928.90 0.1105
929.00 0.1106
929.10 0.1106
929.20 0.1107
929.30 0.1107
929.40 0.1107
929.50 0.1108
929.60 0.1108
929.70 0.1109
929.80 0.1109
929.90 0.1109
930.00 0.111
930.10 0.111
930.20 0.1111
930.30 0.1111
930.40 0.1111
930.50 0.1112
930.60 0.1112
930.70 0.1113
930.80 0.1113
930.90 0.1113
931.00 0.1114
931.10 0.1114
931.20 0.1115
931.30 0.1115
931.40 0.1115
931.50 0.1116
931.60 0.1116
931.70 0.1116
931.80 0.1117
931.90 0.1117
932.00 0.1118
932.10 0.1118
932.20 0.1117
932.30 0.1117
932.40 0.1117
932.50 0.1117
932.60 0.1117
932.70 0.1117
932.80 0.1117
932.90 0.1117
933.00 0.1117
933.10 0.1117
933.20 0.1117
933.30 0.1117
933.40 0.1117
933.50 0.1117
933.60 0.1116
933.70 0.1116
933.80 0.1116
933.90 0.1116
934.00 0.1116
934.10 0.1116
934.20 0.1116
934.30 0.1116
934.40 0.1116
934.50 0.1115
934.60 0.1115
934.70 0.1115
934.80 0.1115
934.90 0.1114
935.00 0.1114
935.10 0.1114
935.20 0.1114
935.30 0.1113
935.40 0.1113
935.50 0.1113
935.60 0.1112
935.70 0.1112
935.80 0.1112
935.90 0.1112
936.00 0.1111
936.10 0.1111
936.20 0.1111
936.30 0.1111
936.40 0.111
936.50 0.111
936.60 0.111
936.70 0.1109
936.80 0.1109
936.90 0.1109
937.00 0.1109
937.10 0.1108
937.20 0.1108
937.30 0.1107
937.40 0.1107
937.50 0.1107
937.60 0.1106
937.70 0.1106
937.80 0.1106
937.90 0.1105
938.00 0.1105
938.10 0.1104
938.20 0.1104
938.30 0.1104
938.40 0.1103
938.50 0.1103
938.60 0.1102
938.70 0.1102
938.80 0.1101
938.90 0.1101
939.00 0.11
939.10 0.11
939.20 0.1099
939.30 0.1099
939.40 0.1098
939.50 0.1098
939.60 0.1097
939.70 0.1097
939.80 0.1096
939.90 0.1096
940.00 0.1095
940.10 0.1095
940.20 0.1094
940.30 0.1094
940.40 0.1093
940.50 0.1092
940.60 0.1092
940.70 0.1091
940.80 0.1091
940.90 0.109
941.00 0.1089
941.10 0.1089
941.20 0.1088
941.30 0.1088
941.40 0.1087
941.50 0.1086
941.60 0.1086
941.70 0.1085
941.80 0.1085
941.90 0.1084
942.00 0.1083
942.10 0.1083
942.20 0.1082
942.30 0.1081
942.40 0.108
942.50 0.108
942.60 0.1079
942.70 0.1078
942.80 0.1077
942.90 0.1077
943.00 0.1076
943.10 0.1075
943.20 0.1074
943.30 0.1073
943.40 0.1073
943.50 0.1072
943.60 0.1071
943.70 0.107
943.80 0.107
943.90 0.1069
944.00 0.1068
944.10 0.1067
944.20 0.1066
944.30 0.1066
944.40 0.1065
944.50 0.1064
944.60 0.1063
944.70 0.1062
944.80 0.1061
944.90 0.106
945.00 0.1059
945.10 0.1058
945.20 0.1057
945.30 0.1056
945.40 0.1055
945.50 0.1054
945.60 0.1053
945.70 0.1052
945.80 0.1051
945.90 0.105
946.00 0.1048
946.10 0.1047
946.20 0.1046
946.30 0.1045
946.40 0.1044
946.50 0.1043
946.60 0.1042
946.70 0.1041
946.80 0.104
946.90 0.1039
947.00 0.1037
947.10 0.1036
947.20 0.1035
947.30 0.1034
947.40 0.1032
947.50 0.1031
947.60 0.1029
947.70 0.1028
947.80 0.1026
947.90 0.1025
948.00 0.1023
948.10 0.1022
948.20 0.102
948.30 0.1019
948.40 0.1017
948.50 0.1016
948.60 0.1014
948.70 0.1013
948.80 0.1011
948.90 0.101
949.00 0.1008
949.10 0.1007
949.20 0.1005
949.30 0.1004
949.40 0.1002
949.50 0.09999
949.60 0.09979
949.70 0.0996
949.80 0.0994
949.90 0.0992
950.00 0.09901
950.10 0.09881
950.20 0.09861
950.30 0.09842
950.40 0.09822
950.50 0.09802
950.60 0.09783
950.70 0.09763
950.80 0.09744
950.90 0.09724
951.00 0.09704
951.10 0.09685
951.20 0.09665
951.30 0.09646
951.40 0.09622
951.50 0.09599
951.60 0.09576
951.70 0.09552
951.80 0.09529
951.90 0.09505
952.00 0.09482
952.10 0.09456
952.20 0.09431
952.30 0.09405
952.40 0.09379
952.50 0.09353
952.60 0.09328
952.70 0.09302
952.80 0.09276
952.90 0.09248
953.00 0.0922
953.10 0.09192
953.20 0.09164
953.30 0.09136
953.40 0.09108
953.50 0.0908
953.60 0.0905
953.70 0.09021
953.80 0.08991
953.90 0.08961
954.00 0.08929
954.10 0.08898
954.20 0.08867
954.30 0.08835
954.40 0.08803
954.50 0.08779
954.60 0.08775
954.70 0.08772
954.80 0.08797
954.90 0.08822
955.00 0.08846
955.10 0.08871
955.20 0.08895
955.30 0.08918
955.40 0.08942
955.50 0.08966
955.60 0.08989
955.70 0.09013
955.80 0.09036
955.90 0.09056
956.00 0.09076
956.10 0.09096
956.20 0.09116
956.30 0.09136
956.40 0.09156
956.50 0.09176
956.60 0.09196
956.70 0.09216
956.80 0.09236
956.90 0.09256
957.00 0.09276
957.10 0.09293
957.20 0.09311
957.30 0.09328
957.40 0.09342
957.50 0.09356
957.60 0.0937
957.70 0.09383
957.80 0.09397
957.90 0.09411
958.00 0.09425
958.10 0.09439
958.20 0.09452
958.30 0.09466
958.40 0.0948
958.50 0.09494
958.60 0.09507
958.70 0.09521
958.80 0.09535
958.90 0.09549
959.00 0.09562
959.10 0.09576
959.20 0.0959
959.30 0.09604
959.40 0.09612
959.50 0.0962
959.60 0.09629
959.70 0.09637
959.80 0.09646
959.90 0.09654
960.00 0.09662
960.10 0.09671
960.20 0.09679
960.30 0.09687
960.40 0.09696
960.50 0.09704
960.60 0.09713
960.70 0.09721
960.80 0.09729
960.90 0.09738
961.00 0.09746
961.10 0.09754
961.20 0.09763
961.30 0.09771
961.40 0.09777
961.50 0.09782
961.60 0.09788
961.70 0.09793
961.80 0.09799
961.90 0.09804
962.00 0.0981
962.10 0.09813
962.20 0.09817
962.30 0.09821
962.40 0.09825
962.50 0.09829
962.60 0.09833
962.70 0.09836
962.80 0.0984
962.90 0.09844
963.00 0.09848
963.10 0.09852
963.20 0.09855
963.30 0.09859
963.40 0.09861
963.50 0.09864
963.60 0.09866
963.70 0.09868
963.80 0.0987
963.90 0.09873
964.00 0.09875
964.10 0.09877
964.20 0.09879
964.30 0.09881
964.40 0.09882
964.50 0.09883
964.60 0.09883
964.70 0.09884
964.80 0.09885
964.90 0.09885
965.00 0.09886
965.10 0.09887
965.20 0.09887
965.30 0.09888
965.40 0.09889
965.50 0.09889
965.60 0.0989
965.70 0.09891
965.80 0.09891
965.90 0.09892
966.00 0.09893
966.10 0.09893
966.20 0.09894
966.30 0.09895
966.40 0.09894
966.50 0.09894
966.60 0.09894
966.70 0.09893
966.80 0.09893
966.90 0.09892
967.00 0.09892
967.10 0.09891
967.20 0.0989
967.30 0.09889
967.40 0.09888
967.50 0.09887
967.60 0.09886
967.70 0.09885
967.80 0.09884
967.90 0.09883
968.00 0.09882
968.10 0.09881
968.20 0.0988
968.30 0.09879
968.40 0.09877
968.50 0.09875
968.60 0.09873
968.70 0.09871
968.80 0.0987
968.90 0.09868
969.00 0.09866
969.10 0.09864
969.20 0.09862
969.30 0.09861
969.40 0.09859
969.50 0.09857
969.60 0.09855
969.70 0.09853
969.80 0.09852
969.90 0.0985
970.00 0.09848
970.10 0.09846
970.20 0.09845
970.30 0.09843
970.40 0.0984
970.50 0.09838
970.60 0.09836
970.70 0.09833
970.80 0.09831
970.90 0.09828
971.00 0.09826
971.10 0.09824
971.20 0.09821
971.30 0.09819
971.40 0.09816
971.50 0.09814
971.60 0.09812
971.70 0.09809
971.80 0.09807
971.90 0.09804
972.00 0.09802
972.10 0.09799
972.20 0.09796
972.30 0.09793
972.40 0.09791
972.50 0.09788
972.60 0.09785
972.70 0.09782
972.80 0.09779
972.90 0.09776
973.00 0.09773
973.10 0.09771
973.20 0.09768
973.30 0.09765
973.40 0.09762
973.50 0.09759
973.60 0.09756
973.70 0.09754
973.80 0.09751
973.90 0.09748
974.00 0.09745
974.10 0.09742
974.20 0.09739
974.30 0.09737
974.40 0.09733
974.50 0.0973
974.60 0.09727
974.70 0.09724
974.80 0.0972
974.90 0.09717
975.00 0.09714
975.10 0.09711
975.20 0.09707
975.30 0.09704
975.40 0.09701
975.50 0.09698
975.60 0.09694
975.70 0.09691
975.80 0.09688
975.90 0.09685
976.00 0.09682
976.10 0.09678
976.20 0.09675
976.30 0.09672
976.40 0.09669
976.50 0.09665
976.60 0.09662
976.70 0.09659
976.80 0.09656
976.90 0.09653
977.00 0.09649
977.10 0.09646
977.20 0.09642
977.30 0.09638
977.40 0.09635
977.50 0.09631
977.60 0.09627
977.70 0.09624
977.80 0.0962
977.90 0.09616
978.00 0.09613
978.10 0.09609
978.20 0.09605
978.30 0.09602
978.40 0.09598
978.50 0.09594
978.60 0.09591
978.70 0.09587
978.80 0.09584
978.90 0.0958
979.00 0.09576
979.10 0.09573
979.20 0.09569
979.30 0.09565
979.40 0.09562
979.50 0.09558
979.60 0.09554
979.70 0.09551
979.80 0.09547
979.90 0.09544
980.00 0.0954
980.10 0.09536
980.20 0.09533
980.30 0.09529
980.40 0.09525
980.50 0.09522
980.60 0.09518
980.70 0.09515
980.80 0.09511
980.90 0.09507
981.00 0.09504
981.10 0.095
981.20 0.09496
981.30 0.09493
981.40 0.09489
981.50 0.09486
981.60 0.09482
981.70 0.09478
981.80 0.09475
981.90 0.09471
982.00 0.09468
982.10 0.09464
982.20 0.0946
982.30 0.09456
982.40 0.09452
982.50 0.09447
982.60 0.09443
982.70 0.09439
982.80 0.09435
982.90 0.09431
983.00 0.09427
983.10 0.09423
983.20 0.09419
983.30 0.09415
983.40 0.09411
983.50 0.09407
983.60 0.09403
983.70 0.09399
983.80 0.09395
983.90 0.09391
984.00 0.09387
984.10 0.09383
984.20 0.09379
984.30 0.09375
984.40 0.09371
984.50 0.09367
984.60 0.09363
984.70 0.09359
984.80 0.09355
984.90 0.0935
985.00 0.09346
985.10 0.09341
985.20 0.09337
985.30 0.09333
985.40 0.09328
985.50 0.09324
985.60 0.0932
985.70 0.09315
985.80 0.09311
985.90 0.09307
986.00 0.09302
986.10 0.09298
986.20 0.09294
986.30 0.09289
986.40 0.09285
986.50 0.09281
986.60 0.09276
986.70 0.09272
986.80 0.09268
986.90 0.09263
987.00 0.09259
987.10 0.09254
987.20 0.09249
987.30 0.09245
987.40 0.0924
987.50 0.09235
987.60 0.09231
987.70 0.09226
987.80 0.09221
987.90 0.09216
988.00 0.09212
988.10 0.09207
988.20 0.09202
988.30 0.09197
988.40 0.09193
988.50 0.09188
988.60 0.09183
988.70 0.09178
988.80 0.09173
988.90 0.09168
989.00 0.09162
989.10 0.09157
989.20 0.09152
989.30 0.09147
989.40 0.09142
989.50 0.09136
989.60 0.09131
989.70 0.09126
989.80 0.09121
989.90 0.09115
990.00 0.0911
990.10 0.09105
990.20 0.091
990.30 0.09094
990.40 0.09089
990.50 0.09084
990.60 0.09079
990.70 0.09073
990.80 0.09067
990.90 0.09061
991.00 0.09055
991.10 0.0905
991.20 0.09044
991.30 0.09038
991.40 0.09032
991.50 0.09026
991.60 0.0902
991.70 0.09014
991.80 0.09008
991.90 0.09002
992.00 0.08997
992.10 0.0899
992.20 0.08984
992.30 0.08977
992.40 0.08971
992.50 0.08965
992.60 0.08958
992.70 0.08951
992.80 0.08944
992.90 0.08936
993.00 0.08929
993.10 0.08922
993.20 0.08915
993.30 0.08907
993.40 0.089
993.50 0.08893
993.60 0.08885
993.70 0.08878
993.80 0.08871
993.90 0.08863
994.00 0.08856
994.10 0.08849
994.20 0.08842
994.30 0.08834
994.40 0.08827
994.50 0.0882
994.60 0.08812
994.70 0.08804
994.80 0.08795
994.90 0.08787
995.00 0.08778
995.10 0.08769
995.20 0.08761
995.30 0.08752
995.40 0.08744
995.50 0.08735
995.60 0.08726
995.70 0.08717
995.80 0.08706
995.90 0.08696
996.00 0.08686
996.10 0.08676
996.20 0.08666
996.30 0.08656
996.40 0.08646
996.50 0.08636
996.60 0.08626
996.70 0.08616
996.80 0.08605
996.90 0.08595
997.00 0.08585
997.10 0.08574
997.20 0.08562
997.30 0.0855
997.40 0.08539
997.50 0.08527
997.60 0.08516
997.70 0.08502
997.80 0.08488
997.90 0.08474
998.00 0.08459
998.10 0.08445
998.20 0.08431
998.30 0.08417
998.40 0.08403
998.50 0.08388
998.60 0.08374
998.70 0.0836
998.80 0.08346
998.90 0.08332
999.00 0.08317
999.10 0.08303
999.20 0.08289
999.30 0.08275
999.40 0.08261
999.50 0.08247
999.60 0.08233
999.70 0.08214
999.80 0.08195
999.90 0.08175
1000.00 0.08156
1000.10 0.08136
1000.20 0.08117
1000.30 0.08098
1000.40 0.08078
1000.50 0.08059
1000.60 0.08039
1000.70 0.0802
1000.80 0.08
1000.90 0.07981
1001.00 0.07962
1001.10 0.07942
1001.20 0.07923
1001.30 0.07904
1001.40 0.07884
1001.50 0.07865
1001.60 0.07846
1001.70 0.07823
1001.80 0.078
1001.90 0.07777
1002.00 0.07753
1002.10 0.07727
1002.20 0.077
1002.30 0.07674
1002.40 0.07647
1002.50 0.07621
1002.60 0.07594
1002.70 0.07568
1002.80 0.07542
1002.90 0.07515
1003.00 0.07489
1003.10 0.07462
1003.20 0.07432
1003.30 0.07401
1003.40 0.0737
1003.50 0.07339
1003.60 0.07308
1003.70 0.07277
1003.80 0.07246
1003.90 0.07211
1004.00 0.07176
1004.10 0.0714
1004.20 0.07104
1004.30 0.07067
1004.40 0.07028
1004.50 0.06989
1004.60 0.06951
1004.70 0.06916
1004.80 0.06896
1004.90 0.06891
1005.00 0.06887
1005.10 0.06905
1005.20 0.06931
1005.30 0.06957
1005.40 0.06983
1005.50 0.07013
1005.60 0.07044
1005.70 0.07075
1005.80 0.07106
1005.90 0.07138
1006.00 0.07169
1006.10 0.072
1006.20 0.07226
1006.30 0.07251
1006.40 0.07276
1006.50 0.07301
1006.60 0.07326
1006.70 0.0735
1006.80 0.07375
1006.90 0.074
1007.00 0.07425
1007.10 0.07445
1007.20 0.07466
1007.30 0.07487
1007.40 0.07508
1007.50 0.07528
1007.60 0.07549
1007.70 0.07566
1007.80 0.07581
1007.90 0.07597
1008.00 0.07612
1008.10 0.07628
1008.20 0.07643
1008.30 0.07659
1008.40 0.07674
1008.50 0.0769
1008.60 0.07705
1008.70 0.07721
1008.80 0.07736
1008.90 0.07751
1009.00 0.07767
1009.10 0.07782
1009.20 0.07798
1009.30 0.07813
1009.40 0.07828
1009.50 0.07844
1009.60 0.07859
1009.70 0.0787
1009.80 0.07879
1009.90 0.07889
1010.00 0.07898
1010.10 0.07907
1010.20 0.07916
1010.30 0.07926
1010.40 0.07935
1010.50 0.07944
1010.60 0.07953
1010.70 0.07963
1010.80 0.07972
1010.90 0.07981
1011.00 0.0799
1011.10 0.08
1011.20 0.08009
1011.30 0.08018
1011.40 0.08027
1011.50 0.08036
1011.60 0.08046
1011.70 0.08053
1011.80 0.08059
1011.90 0.08066
1012.00 0.08072
1012.10 0.08077
1012.20 0.08081
1012.30 0.08086
1012.40 0.08091
1012.50 0.08095
1012.60 0.081
1012.70 0.08104
1012.80 0.08109
1012.90 0.08114
1013.00 0.08118
1013.10 0.08123
1013.20 0.08128
1013.30 0.08132
1013.40 0.08137
1013.50 0.08141
1013.60 0.08146
1013.70 0.08149
1013.80 0.08152
1013.90 0.08155
1014.00 0.08157
1014.10 0.0816
1014.20 0.08163
1014.30 0.08165
1014.40 0.08168
1014.50 0.08171
1014.60 0.08173
1014.70 0.08175
1014.80 0.08176
1014.90 0.08177
1015.00 0.08178
1015.10 0.0818
1015.20 0.08181
1015.30 0.08182
1015.40 0.08183
1015.50 0.08184
1015.60 0.08185
1015.70 0.08187
1015.80 0.08188
1015.90 0.08189
1016.00 0.0819
1016.10 0.08191
1016.20 0.08192
1016.30 0.08193
1016.40 0.08195
1016.50 0.08196
1016.60 0.08197
1016.70 0.08197
1016.80 0.08198
1016.90 0.08198
1017.00 0.08198
1017.10 0.08198
1017.20 0.08197
1017.30 0.08197
1017.40 0.08196
1017.50 0.08196
1017.60 0.08196
1017.70 0.08195
1017.80 0.08195
1017.90 0.08195
1018.00 0.08194
1018.10 0.08194
1018.20 0.08193
1018.30 0.08193
1018.40 0.08193
1018.50 0.08192
1018.60 0.08192
1018.70 0.08191
1018.80 0.0819
1018.90 0.08189
1019.00 0.08188
1019.10 0.08186
1019.20 0.08185
1019.30 0.08184
1019.40 0.08183
1019.50 0.08182
1019.60 0.08181
1019.70 0.08179
1019.80 0.08178
1019.90 0.08177
1020.00 0.08176
1020.10 0.08175
1020.20 0.08174
1020.30 0.08172
1020.40 0.08171
1020.50 0.0817
1020.60 0.08169
1020.70 0.08167
1020.80 0.08166
1020.90 0.08164
1021.00 0.08162
1021.10 0.08161
1021.20 0.08159
1021.30 0.08158
1021.40 0.08156
1021.50 0.08154
1021.60 0.08153
1021.70 0.08151
1021.80 0.08149
1021.90 0.08148
1022.00 0.08146
1022.10 0.08144
1022.20 0.08142
1022.30 0.0814
1022.40 0.08138
1022.50 0.08136
1022.60 0.08134
1022.70 0.08132
1022.80 0.0813
1022.90 0.08128
1023.00 0.08126
1023.10 0.08124
1023.20 0.08122
1023.30 0.0812
1023.40 0.08118
1023.50 0.08115
1023.60 0.08113
1023.70 0.08111
1023.80 0.08109
1023.90 0.08107
1024.00 0.08105
1024.10 0.08103
1024.20 0.08101
1024.30 0.08099
1024.40 0.08097
1024.50 0.08095
1024.60 0.08093
1024.70 0.08091
1024.80 0.08089
1024.90 0.08086
1025.00 0.08084
1025.10 0.08082
1025.20 0.08079
1025.30 0.08077
1025.40 0.08075
1025.50 0.08072
1025.60 0.0807
1025.70 0.08068
1025.80 0.08065
1025.90 0.08063
1026.00 0.08061
1026.10 0.08058
1026.20 0.08056
1026.30 0.08054
1026.40 0.08051
1026.50 0.08049
1026.60 0.08047
1026.70 0.08044
1026.80 0.08042
1026.90 0.0804
1027.00 0.08037
1027.10 0.08035
1027.20 0.08032
1027.30 0.0803
1027.40 0.08027
1027.50 0.08025
1027.60 0.08022
1027.70 0.0802
1027.80 0.08017
1027.90 0.08014
1028.00 0.08012
1028.10 0.08009
1028.20 0.08007
1028.30 0.08004
1028.40 0.08002
1028.50 0.07999
1028.60 0.07997
1028.70 0.07994
1028.80 0.07991
1028.90 0.07989
1029.00 0.07986
1029.10 0.07984
1029.20 0.07981
1029.30 0.07979
1029.40 0.07976
1029.50 0.07974
1029.60 0.07971
1029.70 0.07969
1029.80 0.07966
1029.90 0.07963
1030.00 0.07961
1030.10 0.07958
1030.20 0.07956
1030.30 0.07953
1030.40 0.07951
1030.50 0.07948
1030.60 0.07946
1030.70 0.07943
1030.80 0.07941
1030.90 0.07938
1031.00 0.07936
1031.10 0.07933
1031.20 0.0793
1031.30 0.07928
1031.40 0.07925
1031.50 0.07923
1031.60 0.0792
1031.70 0.07918
1031.80 0.07915
1031.90 0.07913
1032.00 0.0791
1032.10 0.07908
1032.20 0.07905
1032.30 0.07902
1032.40 0.079
1032.50 0.07897
1032.60 0.07894
1032.70 0.07891
1032.80 0.07889
1032.90 0.07886
1033.00 0.07883
1033.10 0.07881
1033.20 0.07878
1033.30 0.07875
1033.40 0.07873
1033.50 0.0787
1033.60 0.07867
1033.70 0.07865
1033.80 0.07862
1033.90 0.07859
1034.00 0.07857
1034.10 0.07854
1034.20 0.07851
1034.30 0.07849
1034.40 0.07846
1034.50 0.07843
1034.60 0.07841
1034.70 0.07838
1034.80 0.07835
1034.90 0.07833
1035.00 0.0783
1035.10 0.07827
1035.20 0.07825
1035.30 0.07822
1035.40 0.07819
1035.50 0.07817
1035.60 0.07814
1035.70 0.07811
1035.80 0.07809
1035.90 0.07806
1036.00 0.07803
1036.10 0.07801
1036.20 0.07798
1036.30 0.07796
1036.40 0.07793
1036.50 0.0779
1036.60 0.07788
1036.70 0.07785
1036.80 0.07782
1036.90 0.0778
1037.00 0.07777
1037.10 0.07774
1037.20 0.07772
1037.30 0.07769
1037.40 0.07766
1037.50 0.07763
1037.60 0.07761
1037.70 0.07758
1037.80 0.07755
1037.90 0.07753
1038.00 0.0775
1038.10 0.07747
1038.20 0.07744
1038.30 0.07742
1038.40 0.07739
1038.50 0.07736
1038.60 0.07734
1038.70 0.07731
1038.80 0.07728
1038.90 0.07726
1039.00 0.07723
1039.10 0.0772
1039.20 0.07717
1039.30 0.07715
1039.40 0.07712
1039.50 0.07709
1039.60 0.07707
1039.70 0.07704
1039.80 0.07701
1039.90 0.07699
1040.00 0.07696
1040.10 0.07693
1040.20 0.0769
1040.30 0.07688
1040.40 0.07685
1040.50 0.07682
1040.60 0.0768
1040.70 0.07677
1040.80 0.07674
1040.90 0.07672
1041.00 0.07669
1041.10 0.07666
1041.20 0.07664
1041.30 0.07661
1041.40 0.07658
1041.50 0.07656
1041.60 0.07653
1041.70 0.0765
1041.80 0.07648
1041.90 0.07645
1042.00 0.07642
1042.10 0.0764
1042.20 0.07637
1042.30 0.07634
1042.40 0.07631
1042.50 0.07629
1042.60 0.07626
1042.70 0.07623
1042.80 0.07621
1042.90 0.07618
1043.00 0.07615
1043.10 0.07612
1043.20 0.0761
1043.30 0.07607
1043.40 0.07604
1043.50 0.07602
1043.60 0.07599
1043.70 0.07596
1043.80 0.07594
1043.90 0.07591
1044.00 0.07588
1044.10 0.07585
1044.20 0.07583
1044.30 0.0758
1044.40 0.07577
1044.50 0.07575
1044.60 0.07572
1044.70 0.07569
1044.80 0.07567
1044.90 0.07564
1045.00 0.07561
1045.10 0.07559
1045.20 0.07556
1045.30 0.07553
1045.40 0.07551
1045.50 0.07548
1045.60 0.07545
1045.70 0.07543
1045.80 0.0754
1045.90 0.07537
1046.00 0.07534
1046.10 0.07532
1046.20 0.07529
1046.30 0.07526
1046.40 0.07524
1046.50 0.07521
1046.60 0.07518
1046.70 0.07516
1046.80 0.07513
1046.90 0.0751
1047.00 0.07508
1047.10 0.07505
1047.20 0.07502
1047.30 0.075
1047.40 0.07497
1047.50 0.07494
1047.60 0.07492
1047.70 0.07489
1047.80 0.07486
1047.90 0.07484
1048.00 0.07481
1048.10 0.07478
1048.20 0.07476
1048.30 0.07473
1048.40 0.0747
1048.50 0.07468
1048.60 0.07465
1048.70 0.07462
1048.80 0.07459
1048.90 0.07457
1049.00 0.07454
1049.10 0.07451
1049.20 0.07449
1049.30 0.07446
1049.40 0.07443
1049.50 0.07441
1049.60 0.07438
1049.70 0.07435
1049.80 0.07433
1049.90 0.0743
1050.00 0.07427
1050.10 0.07425
1050.20 0.07422
1050.30 0.07419
1050.40 0.07417
1050.50 0.07414
1050.60 0.07411
1050.70 0.07409
1050.80 0.07406
1050.90 0.07403
1051.00 0.07401
1051.10 0.07398
1051.20 0.07396
1051.30 0.07393
1051.40 0.0739
1051.50 0.07388
1051.60 0.07385
1051.70 0.07382
1051.80 0.0738
1051.90 0.07377
1052.00 0.07374
1052.10 0.07372
1052.20 0.07369
1052.30 0.07366
1052.40 0.07364
1052.50 0.07361
1052.60 0.07358
1052.70 0.07356
1052.80 0.07353
1052.90 0.0735
1053.00 0.07348
1053.10 0.07345
1053.20 0.07342
1053.30 0.0734
1053.40 0.07337
1053.50 0.07334
1053.60 0.07332
1053.70 0.07329
1053.80 0.07326
1053.90 0.07324
1054.00 0.07321
1054.10 0.07318
1054.20 0.07316
1054.30 0.07313
1054.40 0.0731
1054.50 0.07308
1054.60 0.07305
1054.70 0.07302
1054.80 0.073
1054.90 0.07297
1055.00 0.07295
1055.10 0.07292
1055.20 0.07289
1055.30 0.07287
1055.40 0.07284
1055.50 0.07281
1055.60 0.07279
1055.70 0.07276
1055.80 0.07273
1055.90 0.07271
1056.00 0.07268
1056.10 0.07265
1056.20 0.07263
1056.30 0.0726
1056.40 0.07258
1056.50 0.07255
1056.60 0.07252
1056.70 0.0725
1056.80 0.07247
1056.90 0.07244
1057.00 0.07242
1057.10 0.07239
1057.20 0.07236
1057.30 0.07234
1057.40 0.07231
1057.50 0.07228
1057.60 0.07226
1057.70 0.07223
1057.80 0.0722
1057.90 0.07218
1058.00 0.07215
1058.10 0.07212
1058.20 0.0721
1058.30 0.07207
1058.40 0.07205
1058.50 0.07202
1058.60 0.07199
1058.70 0.07197
1058.80 0.07194
1058.90 0.07191
1059.00 0.07189
1059.10 0.07186
1059.20 0.07183
1059.30 0.07181
1059.40 0.07178
1059.50 0.07175
1059.60 0.07173
1059.70 0.0717
1059.80 0.07167
1059.90 0.07165
1060.00 0.07162
1060.10 0.07159
1060.20 0.07157
1060.30 0.07154
1060.40 0.07152
1060.50 0.07149
1060.60 0.07146
1060.70 0.07144
1060.80 0.07141
1060.90 0.07138
1061.00 0.07136
1061.10 0.07133
1061.20 0.0713
1061.30 0.07128
1061.40 0.07125
1061.50 0.07123
1061.60 0.0712
1061.70 0.07117
1061.80 0.07115
1061.90 0.07112
1062.00 0.07109
1062.10 0.07107
1062.20 0.07104
1062.30 0.07101
1062.40 0.07099
1062.50 0.07096
1062.60 0.07093
1062.70 0.07091
1062.80 0.07088
1062.90 0.07085
1063.00 0.07082
1063.10 0.0708
1063.20 0.07077
1063.30 0.07074
1063.40 0.07072
1063.50 0.07069
1063.60 0.07066
1063.70 0.07064
1063.80 0.07061
1063.90 0.07058
1064.00 0.07056
1064.10 0.07053
1064.20 0.0705
1064.30 0.07048
1064.40 0.07045
1064.50 0.07042
1064.60 0.0704
1064.70 0.07037
1064.80 0.07034
1064.90 0.07032
1065.00 0.07029
1065.10 0.07026
1065.20 0.07024
1065.30 0.07021
1065.40 0.07018
1065.50 0.07016
1065.60 0.07013
1065.70 0.0701
1065.80 0.07008
1065.90 0.07005
1066.00 0.07002
1066.10 0.07
1066.20 0.06997
1066.30 0.06994
1066.40 0.06992
1066.50 0.06989
1066.60 0.06986
1066.70 0.06984
1066.80 0.06981
1066.90 0.06978
1067.00 0.06976
1067.10 0.06973
1067.20 0.0697
1067.30 0.06967
1067.40 0.06964
1067.50 0.06962
1067.60 0.06959
1067.70 0.06956
1067.80 0.06953
1067.90 0.0695
1068.00 0.06947
1068.10 0.06945
1068.20 0.06942
1068.30 0.06939
1068.40 0.06936
1068.50 0.06933
1068.60 0.06931
1068.70 0.06928
1068.80 0.06925
1068.90 0.06922
1069.00 0.06919
1069.10 0.06917
1069.20 0.06914
1069.30 0.06911
1069.40 0.06908
1069.50 0.06905
1069.60 0.06903
1069.70 0.069
1069.80 0.06897
1069.90 0.06894
1070.00 0.06892
1070.10 0.06889
1070.20 0.06886
1070.30 0.06883
1070.40 0.0688
1070.50 0.06878
1070.60 0.06875
1070.70 0.06872
1070.80 0.06869
1070.90 0.06866
1071.00 0.06864
1071.10 0.06861
1071.20 0.06858
1071.30 0.06855
1071.40 0.06853
1071.50 0.0685
1071.60 0.06847
1071.70 0.06844
1071.80 0.06842
1071.90 0.06839
1072.00 0.06836
1072.10 0.06833
1072.20 0.0683
1072.30 0.06827
1072.40 0.06824
1072.50 0.06821
1072.60 0.06818
1072.70 0.06815
1072.80 0.06812
1072.90 0.06809
1073.00 0.06806
1073.10 0.06803
1073.20 0.06801
1073.30 0.06798
1073.40 0.06795
1073.50 0.06792
1073.60 0.06788
1073.70 0.06785
1073.80 0.06782
1073.90 0.06779
1074.00 0.06776
1074.10 0.06772
1074.20 0.06769
1074.30 0.06766
1074.40 0.06763
1074.50 0.0676
1074.60 0.06756
1074.70 0.06753
1074.80 0.0675
1074.90 0.06747
1075.00 0.06744
1075.10 0.0674
1075.20 0.06737
1075.30 0.06734
1075.40 0.06731
1075.50 0.06728
1075.60 0.06724
1075.70 0.06721
1075.80 0.06718
1075.90 0.06715
1076.00 0.06712
1076.10 0.06708
1076.20 0.06705
1076.30 0.06702
1076.40 0.06699
1076.50 0.06696
1076.60 0.06693
1076.70 0.06689
1076.80 0.06686
1076.90 0.06683
1077.00 0.0668
1077.10 0.06676
1077.20 0.06673
1077.30 0.06669
1077.40 0.06666
1077.50 0.06662
1077.60 0.06659
1077.70 0.06655
1077.80 0.06651
1077.90 0.06647
1078.00 0.06644
1078.10 0.0664
1078.20 0.06636
1078.30 0.06633
1078.40 0.06629
1078.50 0.06625
1078.60 0.06621
1078.70 0.06618
1078.80 0.06614
1078.90 0.0661
1079.00 0.06606
1079.10 0.06603
1079.20 0.06599
1079.30 0.06595
1079.40 0.06592
1079.50 0.06588
1079.60 0.06583
1079.70 0.06579
1079.80 0.06575
1079.90 0.0657
1080.00 0.06566
1080.10 0.06562
1080.20 0.06557
1080.30 0.06553
1080.40 0.06549
1080.50 0.06544
1080.60 0.0654
1080.70 0.06536
1080.80 0.06531
1080.90 0.06527
1081.00 0.06523
1081.10 0.06519
1081.20 0.06514
1081.30 0.0651
1081.40 0.06506
1081.50 0.06501
1081.60 0.06496
1081.70 0.06491
1081.80 0.06487
1081.90 0.06482
1082.00 0.06477
1082.10 0.06472
1082.20 0.06466
1082.30 0.06461
1082.40 0.06455
1082.50 0.0645
1082.60 0.06445
1082.70 0.06439
1082.80 0.06434
1082.90 0.06429
1083.00 0.06423
1083.10 0.06418
1083.20 0.06412
1083.30 0.06407
1083.40 0.06402
1083.50 0.06396
1083.60 0.0639
1083.70 0.06384
1083.80 0.06377
1083.90 0.06371
1084.00 0.06365
1084.10 0.06359
1084.20 0.06352
1084.30 0.06346
1084.40 0.0634
1084.50 0.06333
1084.60 0.06326
1084.70 0.06318
1084.80 0.0631
1084.90 0.06303
1085.00 0.06295
1085.10 0.06287
1085.20 0.0628
1085.30 0.06272
1085.40 0.06264
1085.50 0.06257
1085.60 0.06249
1085.70 0.06242
1085.80 0.06234
1085.90 0.06226
1086.00 0.06219
1086.10 0.06211
1086.20 0.06203
1086.30 0.06196
1086.40 0.06188
1086.50 0.0618
1086.60 0.06171
1086.70 0.06162
1086.80 0.06153
1086.90 0.06143
1087.00 0.06134
1087.10 0.06123
1087.20 0.06113
1087.30 0.06102
1087.40 0.06091
1087.50 0.0608
1087.60 0.0607
1087.70 0.06059
1087.80 0.06048
1087.90 0.06037
1088.00 0.06027
1088.10 0.06016
1088.20 0.06005
1088.30 0.05994
1088.40 0.05984
1088.50 0.05972
1088.60 0.05957
1088.70 0.05943
1088.80 0.05929
1088.90 0.05914
1089.00 0.059
1089.10 0.05886
1089.20 0.05871
1089.30 0.05857
1089.40 0.05843
1089.50 0.05829
1089.60 0.05814
1089.70 0.058
1089.80 0.05786
1089.90 0.05771
1090.00 0.05757
1090.10 0.05743
1090.20 0.05729
1090.30 0.05714
1090.40 0.057
1090.50 0.05684
1090.60 0.05665
1090.70 0.05646
1090.80 0.05627
1090.90 0.05607
1091.00 0.05588
1091.10 0.05569
1091.20 0.0555
1091.30 0.0553
1091.40 0.05511
1091.50 0.05492
1091.60 0.05473
1091.70 0.05454
1091.80 0.05434
1091.90 0.05415
1092.00 0.05395
1092.10 0.05371
1092.20 0.05346
1092.30 0.05322
1092.40 0.05298
1092.50 0.05274
1092.60 0.05249
1092.70 0.05223
1092.80 0.05194
1092.90 0.05165
1093.00 0.05135
1093.10 0.05104
1093.20 0.05069
1093.30 0.05034
1093.40 0.04994
1093.50 0.04951
1093.60 0.04902
1093.70 0.04867
1093.80 0.04845
1093.90 0.04844
1094.00 0.04887
1094.10 0.0493
1094.20 0.04974
1094.30 0.05012
1094.40 0.05041
1094.50 0.05069
1094.60 0.05098
1094.70 0.05126
1094.80 0.05154
1094.90 0.05183
1095.00 0.05208
1095.10 0.05226
1095.20 0.05245
1095.30 0.05263
1095.40 0.05281
1095.50 0.053
1095.60 0.05318
1095.70 0.05337
1095.80 0.05355
1095.90 0.05373
1096.00 0.05392
1096.10 0.0541
1096.20 0.05429
1096.30 0.05447
1096.40 0.05465
1096.50 0.05482
1096.60 0.05496
1096.70 0.05511
1096.80 0.05525
1096.90 0.05539
1097.00 0.05553
1097.10 0.05564
1097.20 0.05575
1097.30 0.05586
1097.40 0.05598
1097.50 0.05609
1097.60 0.0562
1097.70 0.05631
1097.80 0.05642
1097.90 0.05654
1098.00 0.05665
1098.10 0.05676
1098.20 0.05687
1098.30 0.05698
1098.40 0.05709
1098.50 0.05719
1098.60 0.05727
1098.70 0.05734
1098.80 0.05741
1098.90 0.05748
1099.00 0.05755
1099.10 0.05763
1099.20 0.0577
1099.30 0.05777
1099.40 0.05784
1099.50 0.05792
1099.60 0.05799
1099.70 0.05806
1099.80 0.05813
1099.90 0.0582
1100.00 0.05828
1100.10 0.05835
1100.20 0.05842
1100.30 0.05849
1100.40 0.05856
1100.50 0.05863
1100.60 0.05867
1100.70 0.05871
1100.80 0.05875
1100.90 0.0588
1101.00 0.05884
1101.10 0.05888
1101.20 0.05893
1101.30 0.05897
1101.40 0.05901
1101.50 0.05905
1101.60 0.0591
1101.70 0.05914
1101.80 0.05918
1101.90 0.05922
1102.00 0.05927
1102.10 0.0593
1102.20 0.05933
1102.30 0.05936
1102.40 0.05939
1102.50 0.05941
1102.60 0.05944
1102.70 0.05946
1102.80 0.05948
1102.90 0.05951
1103.00 0.05953
1103.10 0.05955
1103.20 0.05957
1103.30 0.0596
1103.40 0.05962
1103.50 0.05964
1103.60 0.05965
1103.70 0.05966
1103.80 0.05967
1103.90 0.05968
1104.00 0.05969
1104.10 0.05971
1104.20 0.05972
1104.30 0.05973
1104.40 0.05974
1104.50 0.05975
1104.60 0.05976
1104.70 0.05977
1104.80 0.05978
1104.90 0.05979
1105.00 0.05981
1105.10 0.05982
1105.20 0.05983
1105.30 0.05984
1105.40 0.05985
1105.50 0.05986
1105.60 0.05986
1105.70 0.05986
1105.80 0.05986
1105.90 0.05986
1106.00 0.05986
1106.10 0.05987
1106.20 0.05987
1106.30 0.05987
1106.40 0.05987
1106.50 0.05987
1106.60 0.05987
1106.70 0.05987
1106.80 0.05987
1106.90 0.05988
1107.00 0.05988
1107.10 0.05987
1107.20 0.05987
1107.30 0.05987
1107.40 0.05987
1107.50 0.05986
1107.60 0.05986
1107.70 0.05985
1107.80 0.05984
1107.90 0.05984
1108.00 0.05983
1108.10 0.05983
1108.20 0.05982
1108.30 0.05981
1108.40 0.05981
1108.50 0.0598
1108.60 0.05979
1108.70 0.05979
1108.80 0.05978
1108.90 0.05977
1109.00 0.05977
1109.10 0.05976
1109.20 0.05976
1109.30 0.05975
1109.40 0.05974
1109.50 0.05973
1109.60 0.05972
1109.70 0.05971
1109.80 0.0597
1109.90 0.05969
1110.00 0.05968
1110.10 0.05967
1110.20 0.05966
1110.30 0.05965
1110.40 0.05964
1110.50 0.05962
1110.60 0.05961
1110.70 0.0596
1110.80 0.05959
1110.90 0.05958
1111.00 0.05957
1111.10 0.05956
1111.20 0.05955
1111.30 0.05954
1111.40 0.05953
1111.50 0.05951
1111.60 0.0595
1111.70 0.05949
1111.80 0.05948
1111.90 0.05947
1112.00 0.05946
1112.10 0.05945
1112.20 0.05943
1112.30 0.05942
1112.40 0.05941
1112.50 0.05939
1112.60 0.05938
1112.70 0.05936
1112.80 0.05935
1112.90 0.05934
1113.00 0.05932
1113.10 0.05931
1113.20 0.0593
1113.30 0.05928
1113.40 0.05927
1113.50 0.05926
1113.60 0.05924
1113.70 0.05922
1113.80 0.05921
1113.90 0.05919
1114.00 0.05918
1114.10 0.05916
1114.20 0.05915
1114.30 0.05913
1114.40 0.05911
1114.50 0.0591
1114.60 0.05908
1114.70 0.05907
1114.80 0.05905
1114.90 0.05904
1115.00 0.05902
1115.10 0.05901
1115.20 0.05899
1115.30 0.05897
1115.40 0.05896
1115.50 0.05894
1115.60 0.05893
1115.70 0.05891
1115.80 0.0589
1115.90 0.05888
1116.00 0.05887
1116.10 0.05885
1116.20 0.05884
1116.30 0.05882
1116.40 0.0588
1116.50 0.05879
1116.60 0.05877
1116.70 0.05876
1116.80 0.05874
1116.90 0.05873
1117.00 0.05871
1117.10 0.05869
1117.20 0.05868
1117.30 0.05866
1117.40 0.05864
1117.50 0.05862
1117.60 0.05861
1117.70 0.05859
1117.80 0.05857
1117.90 0.05856
1118.00 0.05854
1118.10 0.05852
1118.20 0.0585
1118.30 0.05849
1118.40 0.05847
1118.50 0.05845
1118.60 0.05843
1118.70 0.05842
1118.80 0.0584
1118.90 0.05838
1119.00 0.05836
1119.10 0.05835
1119.20 0.05833
1119.30 0.05831
1119.40 0.0583
1119.50 0.05828
1119.60 0.05826
1119.70 0.05824
1119.80 0.05823
1119.90 0.05821
1120.00 0.05819
1120.10 0.05818
1120.20 0.05816
1120.30 0.05814
1120.40 0.05812
1120.50 0.05811
1120.60 0.05809
1120.70 0.05807
1120.80 0.05806
1120.90 0.05804
1121.00 0.05802
1121.10 0.058
1121.20 0.05799
1121.30 0.05797
1121.40 0.05795
1121.50 0.05794
1121.60 0.05792
1121.70 0.0579
1121.80 0.05788
1121.90 0.05787
1122.00 0.05785
1122.10 0.05783
1122.20 0.05781
1122.30 0.0578
1122.40 0.05778
1122.50 0.05776
1122.60 0.05774
1122.70 0.05772
1122.80 0.0577
1122.90 0.05769
1123.00 0.05767
1123.10 0.05765
1123.20 0.05763
1123.30 0.05761
1123.40 0.0576
1123.50 0.05758
1123.60 0.05756
1123.70 0.05754
1123.80 0.05752
1123.90 0.05751
1124.00 0.05749
1124.10 0.05747
1124.20 0.05745
1124.30 0.05743
1124.40 0.05742
1124.50 0.0574
1124.60 0.05738
1124.70 0.05736
1124.80 0.05734
1124.90 0.05733
1125.00 0.05731
1125.10 0.05729
1125.20 0.05727
1125.30 0.05725
1125.40 0.05724
1125.50 0.05722
1125.60 0.0572
1125.70 0.05718
1125.80 0.05716
1125.90 0.05715
1126.00 0.05713
1126.10 0.05711
1126.20 0.05709
1126.30 0.05708
1126.40 0.05706
1126.50 0.05704
1126.60 0.05702
1126.70 0.057
1126.80 0.05699
1126.90 0.05697
1127.00 0.05695
1127.10 0.05693
1127.20 0.05691
1127.30 0.0569
1127.40 0.05688
1127.50 0.05686
1127.60 0.05684
1127.70 0.05682
1127.80 0.0568
1127.90 0.05679
1128.00 0.05677
1128.10 0.05675
1128.20 0.05673
1128.30 0.05671
1128.40 0.0567
1128.50 0.05668
1128.60 0.05666
1128.70 0.05664
1128.80 0.05662
1128.90 0.0566
1129.00 0.05659
1129.10 0.05657
1129.20 0.05655
1129.30 0.05653
1129.40 0.05651
1129.50 0.0565
1129.60 0.05648
1129.70 0.05646
1129.80 0.05644
1129.90 0.05642
1130.00 0.0564
1130.10 0.05639
1130.20 0.05637
1130.30 0.05635
1130.40 0.05633
1130.50 0.05631
1130.60 0.0563
1130.70 0.05628
1130.80 0.05626
1130.90 0.05624
1131.00 0.05622
1131.10 0.05621
1131.20 0.05619
1131.30 0.05617
1131.40 0.05615
1131.50 0.05613
1131.60 0.05612
1131.70 0.0561
1131.80 0.05608
1131.90 0.05606
1132.00 0.05604
1132.10 0.05603
1132.20 0.05601
1132.30 0.05599
1132.40 0.05597
1132.50 0.05595
1132.60 0.05593
1132.70 0.05592
1132.80 0.0559
1132.90 0.05588
1133.00 0.05586
1133.10 0.05584
1133.20 0.05583
1133.30 0.05581
1133.40 0.05579
1133.50 0.05577
1133.60 0.05575
1133.70 0.05574
1133.80 0.05572
1133.90 0.0557
1134.00 0.05568
1134.10 0.05566
1134.20 0.05565
1134.30 0.05563
1134.40 0.05561
1134.50 0.05559
1134.60 0.05557
1134.70 0.05555
1134.80 0.05554
1134.90 0.05552
1135.00 0.0555
1135.10 0.05548
1135.20 0.05546
1135.30 0.05545
1135.40 0.05543
1135.50 0.05541
1135.60 0.05539
1135.70 0.05538
1135.80 0.05536
1135.90 0.05534
1136.00 0.05532
1136.10 0.0553
1136.20 0.05529
1136.30 0.05527
1136.40 0.05525
1136.50 0.05523
1136.60 0.05521
1136.70 0.0552
1136.80 0.05518
1136.90 0.05516
1137.00 0.05514
1137.10 0.05512
1137.20 0.05511
1137.30 0.05509
1137.40 0.05507
1137.50 0.05505
1137.60 0.05503
1137.70 0.05502
1137.80 0.055
1137.90 0.05498
1138.00 0.05496
1138.10 0.05494
1138.20 0.05493
1138.30 0.05491
1138.40 0.05489
1138.50 0.05487
1138.60 0.05486
1138.70 0.05484
1138.80 0.05482
1138.90 0.0548
1139.00 0.05478
1139.10 0.05477
1139.20 0.05475
1139.30 0.05473
1139.40 0.05471
1139.50 0.05469
1139.60 0.05468
1139.70 0.05466
1139.80 0.05464
1139.90 0.05462
1140.00 0.05461
1140.10 0.05459
1140.20 0.05457
1140.30 0.05455
1140.40 0.05453
1140.50 0.05452
1140.60 0.0545
1140.70 0.05448
1140.80 0.05446
1140.90 0.05445
1141.00 0.05443
1141.10 0.05441
1141.20 0.05439
1141.30 0.05437
1141.40 0.05436
1141.50 0.05434
1141.60 0.05432
1141.70 0.0543
1141.80 0.05429
1141.90 0.05427
1142.00 0.05425
1142.10 0.05423
1142.20 0.05422
1142.30 0.0542
1142.40 0.05418
1142.50 0.05416
1142.60 0.05414
1142.70 0.05413
1142.80 0.05411
1142.90 0.05409
1143.00 0.05407
1143.10 0.05406
1143.20 0.05404
1143.30 0.05402
1143.40 0.054
1143.50 0.05399
1143.60 0.05397
1143.70 0.05395
1143.80 0.05393
1143.90 0.05392
1144.00 0.0539
1144.10 0.05388
1144.20 0.05386
1144.30 0.05385
1144.40 0.05383
1144.50 0.05381
1144.60 0.05379
1144.70 0.05378
1144.80 0.05376
1144.90 0.05374
1145.00 0.05372
1145.10 0.05371
1145.20 0.05369
1145.30 0.05367
1145.40 0.05365
1145.50 0.05364
1145.60 0.05362
1145.70 0.0536
1145.80 0.05358
1145.90 0.05357
1146.00 0.05355
1146.10 0.05353
1146.20 0.05351
1146.30 0.0535
1146.40 0.05348
1146.50 0.05346
1146.60 0.05344
1146.70 0.05343
1146.80 0.05341
1146.90 0.05339
1147.00 0.05337
1147.10 0.05336
1147.20 0.05334
1147.30 0.05332
1147.40 0.0533
1147.50 0.05329
1147.60 0.05327
1147.70 0.05325
1147.80 0.05323
1147.90 0.05322
1148.00 0.0532
1148.10 0.05318
1148.20 0.05316
1148.30 0.05315
1148.40 0.05313
1148.50 0.05311
1148.60 0.0531
1148.70 0.05308
1148.80 0.05306
1148.90 0.05304
1149.00 0.05303
1149.10 0.05301
1149.20 0.05299
1149.30 0.05297
1149.40 0.05296
1149.50 0.05294
1149.60 0.05292
1149.70 0.05291
1149.80 0.05289
1149.90 0.05287
1150.00 0.05285
1150.10 0.05284
1150.20 0.05282
1150.30 0.0528
1150.40 0.05279
1150.50 0.05277
1150.60 0.05275
1150.70 0.05273
1150.80 0.05272
1150.90 0.0527
1151.00 0.05268
1151.10 0.05266
1151.20 0.05265
1151.30 0.05263
1151.40 0.05261
1151.50 0.0526
1151.60 0.05258
1151.70 0.05256
1151.80 0.05254
1151.90 0.05253
1152.00 0.05251
1152.10 0.05249
1152.20 0.05248
1152.30 0.05246
1152.40 0.05244
1152.50 0.05243
1152.60 0.05241
1152.70 0.05239
1152.80 0.05237
1152.90 0.05236
1153.00 0.05234
1153.10 0.05232
1153.20 0.05231
1153.30 0.05229
1153.40 0.05227
1153.50 0.05225
1153.60 0.05224
1153.70 0.05222
1153.80 0.0522
1153.90 0.05219
1154.00 0.05217
1154.10 0.05215
1154.20 0.05214
1154.30 0.05212
1154.40 0.0521
1154.50 0.05209
1154.60 0.05207
1154.70 0.05205
1154.80 0.05203
1154.90 0.05202
1155.00 0.052
1155.10 0.05198
1155.20 0.05197
1155.30 0.05195
1155.40 0.05193
1155.50 0.05192
1155.60 0.0519
1155.70 0.05188
1155.80 0.05187
1155.90 0.05185
1156.00 0.05183
1156.10 0.05181
1156.20 0.0518
1156.30 0.05178
1156.40 0.05176
1156.50 0.05175
1156.60 0.05173
1156.70 0.05171
1156.80 0.0517
1156.90 0.05168
1157.00 0.05166
1157.10 0.05165
1157.20 0.05163
1157.30 0.05161
1157.40 0.0516
1157.50 0.05158
1157.60 0.05156
1157.70 0.05155
1157.80 0.05153
1157.90 0.05151
1158.00 0.0515
1158.10 0.05148
1158.20 0.05146
1158.30 0.05145
1158.40 0.05143
1158.50 0.05141
1158.60 0.0514
1158.70 0.05138
1158.80 0.05136
1158.90 0.05135
1159.00 0.05133
1159.10 0.05131
1159.20 0.0513
1159.30 0.05128
1159.40 0.05126
1159.50 0.05125
1159.60 0.05123
1159.70 0.05121
1159.80 0.0512
1159.90 0.05118
1160.00 0.05116
1160.10 0.05115
1160.20 0.05113
1160.30 0.05111
1160.40 0.0511
1160.50 0.05108
1160.60 0.05106
1160.70 0.05105
1160.80 0.05103
1160.90 0.05101
1161.00 0.051
1161.10 0.05098
1161.20 0.05096
1161.30 0.05095
1161.40 0.05093
1161.50 0.05091
1161.60 0.0509
1161.70 0.05088
1161.80 0.05086
1161.90 0.05085
1162.00 0.05083
1162.10 0.05082
1162.20 0.0508
1162.30 0.05078
1162.40 0.05077
1162.50 0.05075
1162.60 0.05073
1162.70 0.05072
1162.80 0.0507
1162.90 0.05068
1163.00 0.05067
1163.10 0.05065
1163.20 0.05064
1163.30 0.05062
1163.40 0.0506
1163.50 0.05059
1163.60 0.05057
1163.70 0.05055
1163.80 0.05054
1163.90 0.05052
1164.00 0.0505
1164.10 0.05049
1164.20 0.05047
1164.30 0.05046
1164.40 0.05044
1164.50 0.05042
1164.60 0.05041
1164.70 0.05039
1164.80 0.05037
1164.90 0.05036
1165.00 0.05034
1165.10 0.05032
1165.20 0.05031
1165.30 0.05029
1165.40 0.05028
1165.50 0.05026
1165.60 0.05024
1165.70 0.05023
1165.80 0.05021
1165.90 0.05019
1166.00 0.05018
1166.10 0.05016
1166.20 0.05015
1166.30 0.05013
1166.40 0.05011
1166.50 0.0501
1166.60 0.05008
1166.70 0.05006
1166.80 0.05005
1166.90 0.05003
1167.00 0.05002
1167.10 0.05
1167.20 0.04998
1167.30 0.04997
1167.40 0.04995
1167.50 0.04994
1167.60 0.04992
1167.70 0.0499
1167.80 0.04989
1167.90 0.04987
1168.00 0.04986
1168.10 0.04984
1168.20 0.04982
1168.30 0.04981
1168.40 0.04979
1168.50 0.04978
1168.60 0.04976
1168.70 0.04974
1168.80 0.04973
1168.90 0.04971
1169.00 0.04969
1169.10 0.04968
1169.20 0.04966
1169.30 0.04965
1169.40 0.04963
1169.50 0.04961
1169.60 0.0496
1169.70 0.04958
1169.80 0.04957
1169.90 0.04955
1170.00 0.04953
1170.10 0.04952
1170.20 0.0495
1170.30 0.04949
1170.40 0.04947
1170.50 0.04946
1170.60 0.04944
1170.70 0.04942
1170.80 0.04941
1170.90 0.04939
1171.00 0.04938
1171.10 0.04936
1171.20 0.04934
1171.30 0.04933
1171.40 0.04931
1171.50 0.0493
1171.60 0.04928
1171.70 0.04926
1171.80 0.04925
1171.90 0.04923
1172.00 0.04922
1172.10 0.0492
1172.20 0.04918
1172.30 0.04917
1172.40 0.04915
1172.50 0.04914
1172.60 0.04912
1172.70 0.04911
1172.80 0.04909
1172.90 0.04907
1173.00 0.04906
1173.10 0.04904
1173.20 0.04903
1173.30 0.04901
1173.40 0.049
1173.50 0.04898
1173.60 0.04896
1173.70 0.04895
1173.80 0.04893
1173.90 0.04892
1174.00 0.0489
1174.10 0.04889
1174.20 0.04887
1174.30 0.04885
1174.40 0.04884
1174.50 0.04882
1174.60 0.04881
1174.70 0.04879
1174.80 0.04878
1174.90 0.04876
1175.00 0.04874
1175.10 0.04873
1175.20 0.04871
1175.30 0.0487
1175.40 0.04868
1175.50 0.04867
1175.60 0.04865
1175.70 0.04863
1175.80 0.04862
1175.90 0.0486
1176.00 0.04859
1176.10 0.04857
1176.20 0.04856
1176.30 0.04854
1176.40 0.04853
1176.50 0.04851
1176.60 0.04849
1176.70 0.04848
1176.80 0.04846
1176.90 0.04845
1177.00 0.04843
1177.10 0.04842
1177.20 0.0484
1177.30 0.04839
1177.40 0.04837
1177.50 0.04835
1177.60 0.04834
1177.70 0.04832
1177.80 0.04831
1177.90 0.04829
1178.00 0.04828
1178.10 0.04826
1178.20 0.04825
1178.30 0.04823
1178.40 0.04822
1178.50 0.0482
1178.60 0.04818
1178.70 0.04817
1178.80 0.04815
1178.90 0.04814
1179.00 0.04812
1179.10 0.04811
1179.20 0.04809
1179.30 0.04808
1179.40 0.04806
1179.50 0.04805
1179.60 0.04803
1179.70 0.04801
1179.80 0.048
1179.90 0.04798
1180.00 0.04797
1180.10 0.04795
1180.20 0.04794
1180.30 0.04792
1180.40 0.04791
1180.50 0.04789
1180.60 0.04788
1180.70 0.04786
1180.80 0.04785
1180.90 0.04783
1181.00 0.04782
1181.10 0.0478
1181.20 0.04778
1181.30 0.04777
1181.40 0.04775
1181.50 0.04774
1181.60 0.04772
1181.70 0.04771
1181.80 0.04769
1181.90 0.04768
1182.00 0.04766
1182.10 0.04765
1182.20 0.04763
1182.30 0.04762
1182.40 0.0476
1182.50 0.04759
1182.60 0.04757
1182.70 0.04756
1182.80 0.04754
1182.90 0.04753
1183.00 0.04751
1183.10 0.0475
1183.20 0.04748
1183.30 0.04747
1183.40 0.04745
1183.50 0.04743
1183.60 0.04742
1183.70 0.0474
1183.80 0.04739
1183.90 0.04737
1184.00 0.04736
1184.10 0.04734
1184.20 0.04733
1184.30 0.04731
1184.40 0.0473
1184.50 0.04728
1184.60 0.04727
1184.70 0.04725
1184.80 0.04724
1184.90 0.04722
1185.00 0.04721
1185.10 0.04719
1185.20 0.04718
1185.30 0.04716
1185.40 0.04715
1185.50 0.04713
1185.60 0.04712
1185.70 0.0471
1185.80 0.04709
1185.90 0.04707
1186.00 0.04706
1186.10 0.04704
1186.20 0.04703
1186.30 0.04701
1186.40 0.047
1186.50 0.04698
1186.60 0.04697
1186.70 0.04695
1186.80 0.04694
1186.90 0.04692
1187.00 0.04691
1187.10 0.04689
1187.20 0.04688
1187.30 0.04686
1187.40 0.04685
1187.50 0.04683
1187.60 0.04682
1187.70 0.0468
1187.80 0.04679
1187.90 0.04677
1188.00 0.04676
1188.10 0.04674
1188.20 0.04673
1188.30 0.04671
1188.40 0.0467
1188.50 0.04668
1188.60 0.04667
1188.70 0.04665
1188.80 0.04664
1188.90 0.04662
1189.00 0.04661
1189.10 0.0466
1189.20 0.04658
1189.30 0.04657
1189.40 0.04655
1189.50 0.04654
1189.60 0.04652
1189.70 0.04651
1189.80 0.04649
1189.90 0.04648
1190.00 0.04646
1190.10 0.04645
1190.20 0.04643
1190.30 0.04642
1190.40 0.0464
1190.50 0.04639
1190.60 0.04637
1190.70 0.04636
1190.80 0.04634
1190.90 0.04633
1191.00 0.04631
1191.10 0.0463
1191.20 0.04629
1191.30 0.04627
1191.40 0.04626
1191.50 0.04624
1191.60 0.04623
1191.70 0.04621
1191.80 0.0462
1191.90 0.04618
1192.00 0.04617
1192.10 0.04615
1192.20 0.04614
1192.30 0.04612
1192.40 0.04611
1192.50 0.04609
1192.60 0.04608
1192.70 0.04607
1192.80 0.04605
1192.90 0.04604
1193.00 0.04602
1193.10 0.04601
1193.20 0.04599
1193.30 0.04598
1193.40 0.04596
1193.50 0.04595
1193.60 0.04593
1193.70 0.04592
1193.80 0.0459
1193.90 0.04589
1194.00 0.04588
1194.10 0.04586
1194.20 0.04585
1194.30 0.04583
1194.40 0.04582
1194.50 0.0458
1194.60 0.04579
1194.70 0.04577
1194.80 0.04576
1194.90 0.04574
1195.00 0.04573
1195.10 0.04572
1195.20 0.0457
1195.30 0.04569
1195.40 0.04567
1195.50 0.04566
1195.60 0.04564
1195.70 0.04563
1195.80 0.04561
1195.90 0.0456
1196.00 0.04559
1196.10 0.04557
1196.20 0.04556
1196.30 0.04554
1196.40 0.04553
1196.50 0.04551
1196.60 0.0455
1196.70 0.04548
1196.80 0.04547
1196.90 0.04546
1197.00 0.04544
1197.10 0.04543
1197.20 0.04541
1197.30 0.0454
1197.40 0.04538
1197.50 0.04537
1197.60 0.04536
1197.70 0.04534
1197.80 0.04533
1197.90 0.04531
1198.00 0.0453
1198.10 0.04528
1198.20 0.04527
1198.30 0.04526
1198.40 0.04524
1198.50 0.04523
1198.60 0.04521
1198.70 0.0452
1198.80 0.04518
1198.90 0.04517
1199.00 0.04516
1199.10 0.04514
1199.20 0.04513
1199.30 0.04511
1199.40 0.0451
1199.50 0.04508
1199.60 0.04507
1199.70 0.04506
1199.80 0.04504
1199.90 0.04503
1200.00 0
