# Version 2.1 - nm, norm@500 to 1, cut digits, bergeron_6500_95.dat_6500
# Wavelength(nm)  Flambda(ergs/cm^s/s/nm)
300.00 0.8646
300.10 0.8651
300.20 0.8655
300.30 0.866
300.40 0.8664
300.50 0.8669
300.60 0.8673
300.70 0.8677
300.80 0.8682
300.90 0.8686
301.00 0.8691
301.10 0.8695
301.20 0.8699
301.30 0.8704
301.40 0.8708
301.50 0.8712
301.60 0.8717
301.70 0.8721
301.80 0.8725
301.90 0.873
302.00 0.8734
302.10 0.8738
302.20 0.8743
302.30 0.8747
302.40 0.8751
302.50 0.8755
302.60 0.876
302.70 0.8764
302.80 0.8768
302.90 0.8773
303.00 0.8777
303.10 0.8781
303.20 0.8785
303.30 0.879
303.40 0.8794
303.50 0.8798
303.60 0.8802
303.70 0.8807
303.80 0.8811
303.90 0.8815
304.00 0.8819
304.10 0.8823
304.20 0.8828
304.30 0.8832
304.40 0.8836
304.50 0.884
304.60 0.8844
304.70 0.8849
304.80 0.8853
304.90 0.8857
305.00 0.8861
305.10 0.8865
305.20 0.887
305.30 0.8874
305.40 0.8878
305.50 0.8882
305.60 0.8886
305.70 0.889
305.80 0.8894
305.90 0.8898
306.00 0.8903
306.10 0.8907
306.20 0.8911
306.30 0.8915
306.40 0.8919
306.50 0.8923
306.60 0.8927
306.70 0.8931
306.80 0.8935
306.90 0.894
307.00 0.8944
307.10 0.8948
307.20 0.8952
307.30 0.8956
307.40 0.896
307.50 0.8964
307.60 0.8968
307.70 0.8972
307.80 0.8976
307.90 0.898
308.00 0.8984
308.10 0.8988
308.20 0.8992
308.30 0.8996
308.40 0.9
308.50 0.9004
308.60 0.9008
308.70 0.9012
308.80 0.9016
308.90 0.902
309.00 0.9024
309.10 0.9028
309.20 0.9032
309.30 0.9036
309.40 0.904
309.50 0.9044
309.60 0.9048
309.70 0.9052
309.80 0.9056
309.90 0.906
310.00 0.9064
310.10 0.9068
310.20 0.9071
310.30 0.9075
310.40 0.9079
310.50 0.9083
310.60 0.9087
310.70 0.9091
310.80 0.9095
310.90 0.9099
311.00 0.9103
311.10 0.9107
311.20 0.9111
311.30 0.9114
311.40 0.9118
311.50 0.9122
311.60 0.9126
311.70 0.913
311.80 0.9134
311.90 0.9137
312.00 0.9141
312.10 0.9145
312.20 0.9149
312.30 0.9153
312.40 0.9157
312.50 0.916
312.60 0.9164
312.70 0.9168
312.80 0.9172
312.90 0.9176
313.00 0.9179
313.10 0.9183
313.20 0.9187
313.30 0.9191
313.40 0.9194
313.50 0.9198
313.60 0.9202
313.70 0.9206
313.80 0.9209
313.90 0.9213
314.00 0.9217
314.10 0.9221
314.20 0.9224
314.30 0.9228
314.40 0.9232
314.50 0.9236
314.60 0.9239
314.70 0.9243
314.80 0.9247
314.90 0.925
315.00 0.9254
315.10 0.9258
315.20 0.9261
315.30 0.9265
315.40 0.9269
315.50 0.9272
315.60 0.9276
315.70 0.928
315.80 0.9283
315.90 0.9287
316.00 0.9291
316.10 0.9294
316.20 0.9298
316.30 0.9301
316.40 0.9305
316.50 0.9309
316.60 0.9312
316.70 0.9316
316.80 0.932
316.90 0.9323
317.00 0.9327
317.10 0.933
317.20 0.9334
317.30 0.9338
317.40 0.9341
317.50 0.9345
317.60 0.9348
317.70 0.9352
317.80 0.9355
317.90 0.9359
318.00 0.9362
318.10 0.9366
318.20 0.937
318.30 0.9373
318.40 0.9377
318.50 0.938
318.60 0.9384
318.70 0.9387
318.80 0.9391
318.90 0.9394
319.00 0.9398
319.10 0.9401
319.20 0.9405
319.30 0.9408
319.40 0.9412
319.50 0.9415
319.60 0.9419
319.70 0.9422
319.80 0.9426
319.90 0.9429
320.00 0.9432
320.10 0.9436
320.20 0.9439
320.30 0.9443
320.40 0.9446
320.50 0.945
320.60 0.9453
320.70 0.9456
320.80 0.946
320.90 0.9463
321.00 0.9467
321.10 0.947
321.20 0.9473
321.30 0.9477
321.40 0.948
321.50 0.9484
321.60 0.9487
321.70 0.949
321.80 0.9494
321.90 0.9497
322.00 0.95
322.10 0.9504
322.20 0.9507
322.30 0.951
322.40 0.9514
322.50 0.9517
322.60 0.952
322.70 0.9524
322.80 0.9527
322.90 0.953
323.00 0.9534
323.10 0.9537
323.20 0.954
323.30 0.9544
323.40 0.9547
323.50 0.955
323.60 0.9553
323.70 0.9557
323.80 0.956
323.90 0.9563
324.00 0.9566
324.10 0.957
324.20 0.9573
324.30 0.9576
324.40 0.958
324.50 0.9583
324.60 0.9586
324.70 0.9589
324.80 0.9592
324.90 0.9596
325.00 0.9599
325.10 0.9602
325.20 0.9605
325.30 0.9608
325.40 0.9612
325.50 0.9615
325.60 0.9618
325.70 0.9621
325.80 0.9624
325.90 0.9628
326.00 0.9631
326.10 0.9634
326.20 0.9637
326.30 0.964
326.40 0.9643
326.50 0.9646
326.60 0.965
326.70 0.9653
326.80 0.9656
326.90 0.9659
327.00 0.9662
327.10 0.9665
327.20 0.9668
327.30 0.9671
327.40 0.9675
327.50 0.9678
327.60 0.9681
327.70 0.9684
327.80 0.9687
327.90 0.969
328.00 0.9693
328.10 0.9696
328.20 0.9699
328.30 0.9702
328.40 0.9705
328.50 0.9708
328.60 0.9711
328.70 0.9714
328.80 0.9717
328.90 0.972
329.00 0.9723
329.10 0.9726
329.20 0.9729
329.30 0.9732
329.40 0.9735
329.50 0.9738
329.60 0.9741
329.70 0.9744
329.80 0.9747
329.90 0.975
330.00 0.9753
330.10 0.9756
330.20 0.9759
330.30 0.9762
330.40 0.9765
330.50 0.9768
330.60 0.9771
330.70 0.9774
330.80 0.9777
330.90 0.978
331.00 0.9783
331.10 0.9786
331.20 0.9789
331.30 0.9792
331.40 0.9794
331.50 0.9797
331.60 0.98
331.70 0.9803
331.80 0.9806
331.90 0.9809
332.00 0.9812
332.10 0.9815
332.20 0.9818
332.30 0.982
332.40 0.9823
332.50 0.9826
332.60 0.9829
332.70 0.9832
332.80 0.9835
332.90 0.9838
333.00 0.984
333.10 0.9843
333.20 0.9846
333.30 0.9849
333.40 0.9852
333.50 0.9855
333.60 0.9857
333.70 0.986
333.80 0.9863
333.90 0.9866
334.00 0.9869
334.10 0.9871
334.20 0.9874
334.30 0.9877
334.40 0.988
334.50 0.9882
334.60 0.9885
334.70 0.9888
334.80 0.9891
334.90 0.9893
335.00 0.9896
335.10 0.9899
335.20 0.9902
335.30 0.9904
335.40 0.9907
335.50 0.991
335.60 0.9913
335.70 0.9915
335.80 0.9918
335.90 0.9921
336.00 0.9923
336.10 0.9926
336.20 0.9929
336.30 0.9931
336.40 0.9934
336.50 0.9937
336.60 0.9939
336.70 0.9942
336.80 0.9945
336.90 0.9947
337.00 0.995
337.10 0.9953
337.20 0.9955
337.30 0.9958
337.40 0.9961
337.50 0.9963
337.60 0.9966
337.70 0.9968
337.80 0.9971
337.90 0.9974
338.00 0.9976
338.10 0.9979
338.20 0.9981
338.30 0.9984
338.40 0.9987
338.50 0.9989
338.60 0.9992
338.70 0.9994
338.80 0.9997
338.90 1
339.00 1
339.10 1
339.20 1.001
339.30 1.001
339.40 1.001
339.50 1.001
339.60 1.002
339.70 1.002
339.80 1.002
339.90 1.002
340.00 1.003
340.10 1.003
340.20 1.003
340.30 1.003
340.40 1.004
340.50 1.004
340.60 1.004
340.70 1.004
340.80 1.005
340.90 1.005
341.00 1.005
341.10 1.005
341.20 1.006
341.30 1.006
341.40 1.006
341.50 1.006
341.60 1.007
341.70 1.007
341.80 1.007
341.90 1.007
342.00 1.008
342.10 1.008
342.20 1.008
342.30 1.008
342.40 1.009
342.50 1.009
342.60 1.009
342.70 1.009
342.80 1.01
342.90 1.01
343.00 1.01
343.10 1.01
343.20 1.011
343.30 1.011
343.40 1.011
343.50 1.011
343.60 1.011
343.70 1.012
343.80 1.012
343.90 1.012
344.00 1.012
344.10 1.013
344.20 1.013
344.30 1.013
344.40 1.013
344.50 1.014
344.60 1.014
344.70 1.014
344.80 1.014
344.90 1.015
345.00 1.015
345.10 1.015
345.20 1.015
345.30 1.015
345.40 1.016
345.50 1.016
345.60 1.016
345.70 1.016
345.80 1.017
345.90 1.017
346.00 1.017
346.10 1.017
346.20 1.017
346.30 1.018
346.40 1.018
346.50 1.018
346.60 1.018
346.70 1.019
346.80 1.019
346.90 1.019
347.00 1.019
347.10 1.019
347.20 1.02
347.30 1.02
347.40 1.02
347.50 1.02
347.60 1.021
347.70 1.021
347.80 1.021
347.90 1.021
348.00 1.021
348.10 1.022
348.20 1.022
348.30 1.022
348.40 1.022
348.50 1.022
348.60 1.023
348.70 1.023
348.80 1.023
348.90 1.023
349.00 1.024
349.10 1.024
349.20 1.024
349.30 1.024
349.40 1.024
349.50 1.025
349.60 1.025
349.70 1.025
349.80 1.025
349.90 1.025
350.00 1.026
350.10 1.026
350.20 1.026
350.30 1.026
350.40 1.026
350.50 1.027
350.60 1.027
350.70 1.027
350.80 1.027
350.90 1.027
351.00 1.028
351.10 1.028
351.20 1.028
351.30 1.028
351.40 1.028
351.50 1.029
351.60 1.029
351.70 1.029
351.80 1.029
351.90 1.029
352.00 1.03
352.10 1.03
352.20 1.03
352.30 1.03
352.40 1.03
352.50 1.031
352.60 1.031
352.70 1.031
352.80 1.031
352.90 1.031
353.00 1.032
353.10 1.032
353.20 1.032
353.30 1.032
353.40 1.032
353.50 1.033
353.60 1.033
353.70 1.033
353.80 1.033
353.90 1.033
354.00 1.034
354.10 1.034
354.20 1.034
354.30 1.034
354.40 1.034
354.50 1.035
354.60 1.035
354.70 1.035
354.80 1.035
354.90 1.035
355.00 1.035
355.10 1.036
355.20 1.036
355.30 1.036
355.40 1.036
355.50 1.036
355.60 1.037
355.70 1.037
355.80 1.037
355.90 1.037
356.00 1.037
356.10 1.037
356.20 1.038
356.30 1.038
356.40 1.038
356.50 1.038
356.60 1.038
356.70 1.039
356.80 1.039
356.90 1.039
357.00 1.039
357.10 1.039
357.20 1.039
357.30 1.04
357.40 1.04
357.50 1.04
357.60 1.04
357.70 1.04
357.80 1.04
357.90 1.041
358.00 1.041
358.10 1.041
358.20 1.041
358.30 1.041
358.40 1.041
358.50 1.042
358.60 1.042
358.70 1.042
358.80 1.042
358.90 1.042
359.00 1.043
359.10 1.043
359.20 1.043
359.30 1.043
359.40 1.043
359.50 1.043
359.60 1.044
359.70 1.044
359.80 1.044
359.90 1.044
360.00 1.044
360.10 1.044
360.20 1.045
360.30 1.045
360.40 1.045
360.50 1.045
360.60 1.045
360.70 1.045
360.80 1.045
360.90 1.046
361.00 1.046
361.10 1.046
361.20 1.046
361.30 1.046
361.40 1.046
361.50 1.047
361.60 1.047
361.70 1.047
361.80 1.047
361.90 1.047
362.00 1.047
362.10 1.048
362.20 1.048
362.30 1.048
362.40 1.048
362.50 1.048
362.60 1.048
362.70 1.048
362.80 1.049
362.90 1.049
363.00 1.049
363.10 1.049
363.20 1.049
363.30 1.049
363.40 1.05
363.50 1.05
363.60 1.05
363.70 1.05
363.80 1.05
363.90 1.05
364.00 1.05
364.10 1.051
364.20 1.051
364.30 1.051
364.40 1.051
364.50 1.051
364.60 1.051
364.70 1.051
364.80 1.052
364.90 1.052
365.00 1.052
365.10 1.052
365.20 1.052
365.30 1.052
365.40 1.052
365.50 1.053
365.60 1.053
365.70 1.053
365.80 1.053
365.90 1.053
366.00 1.053
366.10 1.053
366.20 1.054
366.30 1.054
366.40 1.054
366.50 1.054
366.60 1.054
366.70 1.054
366.80 1.054
366.90 1.055
367.00 1.055
367.10 1.055
367.20 1.055
367.30 1.055
367.40 1.055
367.50 1.055
367.60 1.056
367.70 1.056
367.80 1.056
367.90 1.056
368.00 1.056
368.10 1.056
368.20 1.056
368.30 1.056
368.40 1.057
368.50 1.057
368.60 1.057
368.70 1.057
368.80 1.057
368.90 1.057
369.00 1.057
369.10 1.057
369.20 1.058
369.30 1.058
369.40 1.058
369.50 1.058
369.60 1.058
369.70 1.058
369.80 1.058
369.90 1.059
370.00 1.059
370.10 1.059
370.20 1.059
370.30 1.059
370.40 1.059
370.50 1.059
370.60 1.059
370.70 1.059
370.80 1.06
370.90 1.06
371.00 1.06
371.10 1.06
371.20 1.06
371.30 1.06
371.40 1.06
371.50 1.06
371.60 1.061
371.70 1.061
371.80 1.061
371.90 1.061
372.00 1.061
372.10 1.061
372.20 1.061
372.30 1.061
372.40 1.062
372.50 1.062
372.60 1.062
372.70 1.062
372.80 1.062
372.90 1.062
373.00 1.062
373.10 1.062
373.20 1.062
373.30 1.063
373.40 1.063
373.50 1.063
373.60 1.063
373.70 1.063
373.80 1.063
373.90 1.063
374.00 1.063
374.10 1.063
374.20 1.064
374.30 1.064
374.40 1.064
374.50 1.064
374.60 1.064
374.70 1.064
374.80 1.064
374.90 1.064
375.00 1.064
375.10 1.065
375.20 1.065
375.30 1.065
375.40 1.065
375.50 1.065
375.60 1.065
375.70 1.065
375.80 1.065
375.90 1.065
376.00 1.065
376.10 1.066
376.20 1.066
376.30 1.066
376.40 1.066
376.50 1.066
376.60 1.066
376.70 1.066
376.80 1.066
376.90 1.066
377.00 1.066
377.10 1.067
377.20 1.067
377.30 1.067
377.40 1.067
377.50 1.067
377.60 1.067
377.70 1.067
377.80 1.067
377.90 1.067
378.00 1.067
378.10 1.068
378.20 1.068
378.30 1.068
378.40 1.068
378.50 1.068
378.60 1.068
378.70 1.068
378.80 1.068
378.90 1.068
379.00 1.068
379.10 1.069
379.20 1.069
379.30 1.069
379.40 1.069
379.50 1.069
379.60 1.069
379.70 1.069
379.80 1.069
379.90 1.069
380.00 1.069
380.10 1.069
380.20 1.069
380.30 1.07
380.40 1.07
380.50 1.07
380.60 1.07
380.70 1.07
380.80 1.07
380.90 1.07
381.00 1.07
381.10 1.07
381.20 1.07
381.30 1.07
381.40 1.071
381.50 1.071
381.60 1.071
381.70 1.071
381.80 1.071
381.90 1.071
382.00 1.071
382.10 1.071
382.20 1.071
382.30 1.071
382.40 1.071
382.50 1.071
382.60 1.071
382.70 1.072
382.80 1.072
382.90 1.072
383.00 1.072
383.10 1.072
383.20 1.072
383.30 1.072
383.40 1.072
383.50 1.072
383.60 1.072
383.70 1.072
383.80 1.072
383.90 1.072
384.00 1.073
384.10 1.073
384.20 1.073
384.30 1.073
384.40 1.073
384.50 1.073
384.60 1.073
384.70 1.073
384.80 1.073
384.90 1.073
385.00 1.073
385.10 1.073
385.20 1.073
385.30 1.074
385.40 1.074
385.50 1.074
385.60 1.074
385.70 1.074
385.80 1.074
385.90 1.074
386.00 1.074
386.10 1.074
386.20 1.074
386.30 1.074
386.40 1.074
386.50 1.074
386.60 1.074
386.70 1.074
386.80 1.075
386.90 1.075
387.00 1.075
387.10 1.075
387.20 1.075
387.30 1.075
387.40 1.075
387.50 1.075
387.60 1.075
387.70 1.075
387.80 1.075
387.90 1.075
388.00 1.075
388.10 1.075
388.20 1.075
388.30 1.075
388.40 1.075
388.50 1.075
388.60 1.075
388.70 1.075
388.80 1.075
388.90 1.074
389.00 1.075
389.10 1.076
389.20 1.076
389.30 1.076
389.40 1.076
389.50 1.076
389.60 1.076
389.70 1.076
389.80 1.076
389.90 1.076
390.00 1.077
390.10 1.077
390.20 1.077
390.30 1.077
390.40 1.077
390.50 1.077
390.60 1.077
390.70 1.077
390.80 1.077
390.90 1.077
391.00 1.077
391.10 1.077
391.20 1.077
391.30 1.077
391.40 1.077
391.50 1.077
391.60 1.078
391.70 1.078
391.80 1.078
391.90 1.078
392.00 1.078
392.10 1.078
392.20 1.078
392.30 1.078
392.40 1.078
392.50 1.078
392.60 1.078
392.70 1.078
392.80 1.078
392.90 1.078
393.00 1.078
393.10 1.078
393.20 1.078
393.30 1.078
393.40 1.078
393.50 1.078
393.60 1.079
393.70 1.079
393.80 1.079
393.90 1.079
394.00 1.079
394.10 1.079
394.20 1.079
394.30 1.079
394.40 1.079
394.50 1.079
394.60 1.079
394.70 1.079
394.80 1.079
394.90 1.079
395.00 1.079
395.10 1.079
395.20 1.079
395.30 1.079
395.40 1.079
395.50 1.079
395.60 1.079
395.70 1.079
395.80 1.079
395.90 1.079
396.00 1.079
396.10 1.079
396.20 1.078
396.30 1.078
396.40 1.078
396.50 1.078
396.60 1.078
396.70 1.078
396.80 1.077
396.90 1.076
397.00 1.075
397.10 1.076
397.20 1.077
397.30 1.078
397.40 1.078
397.50 1.078
397.60 1.079
397.70 1.079
397.80 1.079
397.90 1.079
398.00 1.079
398.10 1.08
398.20 1.08
398.30 1.08
398.40 1.08
398.50 1.08
398.60 1.08
398.70 1.08
398.80 1.08
398.90 1.081
399.00 1.081
399.10 1.081
399.20 1.081
399.30 1.081
399.40 1.081
399.50 1.081
399.60 1.081
399.70 1.081
399.80 1.081
399.90 1.081
400.00 1.081
400.10 1.081
400.20 1.081
400.30 1.081
400.40 1.081
400.50 1.081
400.60 1.081
400.70 1.082
400.80 1.082
400.90 1.082
401.00 1.082
401.10 1.082
401.20 1.082
401.30 1.082
401.40 1.082
401.50 1.082
401.60 1.082
401.70 1.082
401.80 1.082
401.90 1.082
402.00 1.082
402.10 1.082
402.20 1.082
402.30 1.082
402.40 1.082
402.50 1.082
402.60 1.082
402.70 1.082
402.80 1.082
402.90 1.082
403.00 1.082
403.10 1.082
403.20 1.082
403.30 1.082
403.40 1.082
403.50 1.082
403.60 1.082
403.70 1.082
403.80 1.082
403.90 1.082
404.00 1.082
404.10 1.082
404.20 1.082
404.30 1.082
404.40 1.082
404.50 1.082
404.60 1.082
404.70 1.082
404.80 1.082
404.90 1.083
405.00 1.083
405.10 1.082
405.20 1.083
405.30 1.083
405.40 1.083
405.50 1.083
405.60 1.082
405.70 1.082
405.80 1.082
405.90 1.082
406.00 1.082
406.10 1.082
406.20 1.082
406.30 1.082
406.40 1.082
406.50 1.082
406.60 1.082
406.70 1.082
406.80 1.082
406.90 1.082
407.00 1.082
407.10 1.082
407.20 1.082
407.30 1.082
407.40 1.082
407.50 1.082
407.60 1.082
407.70 1.082
407.80 1.082
407.90 1.081
408.00 1.081
408.10 1.081
408.20 1.081
408.30 1.081
408.40 1.081
408.50 1.08
408.60 1.08
408.70 1.08
408.80 1.079
408.90 1.079
409.00 1.079
409.10 1.078
409.20 1.078
409.30 1.077
409.40 1.076
409.50 1.075
409.60 1.075
409.70 1.074
409.80 1.072
409.90 1.071
410.00 1.07
410.10 1.068
410.20 1.066
410.30 1.068
410.40 1.071
410.50 1.072
410.60 1.073
410.70 1.074
410.80 1.075
410.90 1.076
411.00 1.077
411.10 1.077
411.20 1.078
411.30 1.078
411.40 1.079
411.50 1.079
411.60 1.08
411.70 1.08
411.80 1.08
411.90 1.081
412.00 1.081
412.10 1.081
412.20 1.081
412.30 1.081
412.40 1.082
412.50 1.082
412.60 1.082
412.70 1.082
412.80 1.082
412.90 1.082
413.00 1.082
413.10 1.082
413.20 1.082
413.30 1.082
413.40 1.082
413.50 1.082
413.60 1.083
413.70 1.083
413.80 1.083
413.90 1.083
414.00 1.083
414.10 1.083
414.20 1.083
414.30 1.083
414.40 1.083
414.50 1.083
414.60 1.083
414.70 1.083
414.80 1.083
414.90 1.083
415.00 1.083
415.10 1.083
415.20 1.083
415.30 1.083
415.40 1.083
415.50 1.083
415.60 1.083
415.70 1.083
415.80 1.083
415.90 1.083
416.00 1.083
416.10 1.083
416.20 1.083
416.30 1.083
416.40 1.083
416.50 1.083
416.60 1.083
416.70 1.083
416.80 1.083
416.90 1.083
417.00 1.083
417.10 1.083
417.20 1.083
417.30 1.083
417.40 1.083
417.50 1.083
417.60 1.083
417.70 1.083
417.80 1.083
417.90 1.083
418.00 1.083
418.10 1.083
418.20 1.083
418.30 1.083
418.40 1.083
418.50 1.083
418.60 1.083
418.70 1.083
418.80 1.082
418.90 1.082
419.00 1.082
419.10 1.082
419.20 1.082
419.30 1.082
419.40 1.082
419.50 1.082
419.60 1.082
419.70 1.082
419.80 1.082
419.90 1.082
420.00 1.082
420.10 1.082
420.20 1.082
420.30 1.082
420.40 1.082
420.50 1.082
420.60 1.082
420.70 1.082
420.80 1.082
420.90 1.082
421.00 1.082
421.10 1.082
421.20 1.082
421.30 1.082
421.40 1.082
421.50 1.082
421.60 1.082
421.70 1.082
421.80 1.082
421.90 1.082
422.00 1.082
422.10 1.082
422.20 1.082
422.30 1.082
422.40 1.082
422.50 1.081
422.60 1.081
422.70 1.081
422.80 1.081
422.90 1.081
423.00 1.081
423.10 1.081
423.20 1.081
423.30 1.081
423.40 1.081
423.50 1.081
423.60 1.081
423.70 1.081
423.80 1.081
423.90 1.081
424.00 1.081
424.10 1.081
424.20 1.081
424.30 1.081
424.40 1.081
424.50 1.081
424.60 1.081
424.70 1.081
424.80 1.081
424.90 1.081
425.00 1.08
425.10 1.08
425.20 1.08
425.30 1.08
425.40 1.08
425.50 1.08
425.60 1.08
425.70 1.08
425.80 1.08
425.90 1.08
426.00 1.08
426.10 1.08
426.20 1.08
426.30 1.08
426.40 1.08
426.50 1.08
426.60 1.08
426.70 1.08
426.80 1.079
426.90 1.079
427.00 1.079
427.10 1.079
427.20 1.079
427.30 1.079
427.40 1.079
427.50 1.079
427.60 1.079
427.70 1.079
427.80 1.079
427.90 1.079
428.00 1.079
428.10 1.079
428.20 1.079
428.30 1.078
428.40 1.078
428.50 1.078
428.60 1.078
428.70 1.078
428.80 1.078
428.90 1.078
429.00 1.078
429.10 1.078
429.20 1.078
429.30 1.078
429.40 1.077
429.50 1.077
429.60 1.077
429.70 1.077
429.80 1.077
429.90 1.077
430.00 1.077
430.10 1.077
430.20 1.076
430.30 1.076
430.40 1.076
430.50 1.076
430.60 1.076
430.70 1.076
430.80 1.075
430.90 1.075
431.00 1.075
431.10 1.075
431.20 1.074
431.30 1.074
431.40 1.074
431.50 1.073
431.60 1.073
431.70 1.073
431.80 1.072
431.90 1.072
432.00 1.071
432.10 1.071
432.20 1.07
432.30 1.069
432.40 1.069
432.50 1.068
432.60 1.067
432.70 1.066
432.80 1.064
432.90 1.063
433.00 1.061
433.10 1.059
433.20 1.057
433.30 1.055
433.40 1.052
433.50 1.049
433.60 1.045
433.70 1.041
433.80 1.036
433.90 1.031
434.00 1.021
434.10 1.022
434.20 1.031
434.30 1.036
434.40 1.041
434.50 1.045
434.60 1.048
434.70 1.051
434.80 1.054
434.90 1.056
435.00 1.058
435.10 1.06
435.20 1.062
435.30 1.063
435.40 1.064
435.50 1.065
435.60 1.066
435.70 1.067
435.80 1.067
435.90 1.068
436.00 1.069
436.10 1.069
436.20 1.069
436.30 1.07
436.40 1.07
436.50 1.07
436.60 1.071
436.70 1.071
436.80 1.071
436.90 1.071
437.00 1.071
437.10 1.071
437.20 1.072
437.30 1.072
437.40 1.072
437.50 1.072
437.60 1.072
437.70 1.072
437.80 1.072
437.90 1.072
438.00 1.072
438.10 1.072
438.20 1.072
438.30 1.072
438.40 1.072
438.50 1.072
438.60 1.072
438.70 1.072
438.80 1.072
438.90 1.072
439.00 1.072
439.10 1.072
439.20 1.072
439.30 1.072
439.40 1.072
439.50 1.072
439.60 1.072
439.70 1.072
439.80 1.072
439.90 1.072
440.00 1.072
440.10 1.072
440.20 1.072
440.30 1.071
440.40 1.071
440.50 1.071
440.60 1.071
440.70 1.071
440.80 1.071
440.90 1.071
441.00 1.071
441.10 1.071
441.20 1.071
441.30 1.071
441.40 1.071
441.50 1.071
441.60 1.071
441.70 1.071
441.80 1.071
441.90 1.071
442.00 1.07
442.10 1.07
442.20 1.07
442.30 1.07
442.40 1.07
442.50 1.07
442.60 1.07
442.70 1.07
442.80 1.07
442.90 1.07
443.00 1.07
443.10 1.07
443.20 1.07
443.30 1.07
443.40 1.07
443.50 1.069
443.60 1.069
443.70 1.069
443.80 1.069
443.90 1.069
444.00 1.069
444.10 1.069
444.20 1.069
444.30 1.069
444.40 1.069
444.50 1.069
444.60 1.069
444.70 1.069
444.80 1.068
444.90 1.068
445.00 1.068
445.10 1.068
445.20 1.068
445.30 1.068
445.40 1.068
445.50 1.068
445.60 1.068
445.70 1.068
445.80 1.068
445.90 1.068
446.00 1.067
446.10 1.067
446.20 1.067
446.30 1.067
446.40 1.067
446.50 1.067
446.60 1.067
446.70 1.067
446.80 1.067
446.90 1.067
447.00 1.067
447.10 1.067
447.20 1.066
447.30 1.066
447.40 1.066
447.50 1.066
447.60 1.066
447.70 1.066
447.80 1.066
447.90 1.066
448.00 1.066
448.10 1.066
448.20 1.066
448.30 1.066
448.40 1.065
448.50 1.065
448.60 1.065
448.70 1.065
448.80 1.065
448.90 1.065
449.00 1.065
449.10 1.065
449.20 1.065
449.30 1.065
449.40 1.065
449.50 1.064
449.60 1.064
449.70 1.064
449.80 1.064
449.90 1.064
450.00 1.064
450.10 1.064
450.20 1.064
450.30 1.064
450.40 1.064
450.50 1.064
450.60 1.063
450.70 1.063
450.80 1.063
450.90 1.063
451.00 1.063
451.10 1.063
451.20 1.063
451.30 1.063
451.40 1.063
451.50 1.063
451.60 1.063
451.70 1.062
451.80 1.062
451.90 1.062
452.00 1.062
452.10 1.062
452.20 1.062
452.30 1.062
452.40 1.062
452.50 1.062
452.60 1.062
452.70 1.062
452.80 1.061
452.90 1.061
453.00 1.061
453.10 1.061
453.20 1.061
453.30 1.061
453.40 1.061
453.50 1.061
453.60 1.061
453.70 1.061
453.80 1.06
453.90 1.06
454.00 1.06
454.10 1.06
454.20 1.06
454.30 1.06
454.40 1.06
454.50 1.06
454.60 1.06
454.70 1.06
454.80 1.059
454.90 1.059
455.00 1.059
455.10 1.059
455.20 1.059
455.30 1.059
455.40 1.059
455.50 1.059
455.60 1.059
455.70 1.059
455.80 1.058
455.90 1.058
456.00 1.058
456.10 1.058
456.20 1.058
456.30 1.058
456.40 1.058
456.50 1.058
456.60 1.058
456.70 1.058
456.80 1.057
456.90 1.057
457.00 1.057
457.10 1.057
457.20 1.057
457.30 1.057
457.40 1.057
457.50 1.057
457.60 1.057
457.70 1.056
457.80 1.056
457.90 1.056
458.00 1.056
458.10 1.056
458.20 1.056
458.30 1.056
458.40 1.056
458.50 1.056
458.60 1.056
458.70 1.055
458.80 1.055
458.90 1.055
459.00 1.055
459.10 1.055
459.20 1.055
459.30 1.055
459.40 1.055
459.50 1.055
459.60 1.054
459.70 1.054
459.80 1.054
459.90 1.054
460.00 1.054
460.10 1.054
460.20 1.054
460.30 1.054
460.40 1.054
460.50 1.053
460.60 1.053
460.70 1.053
460.80 1.053
460.90 1.053
461.00 1.053
461.10 1.053
461.20 1.053
461.30 1.053
461.40 1.052
461.50 1.052
461.60 1.052
461.70 1.052
461.80 1.052
461.90 1.052
462.00 1.052
462.10 1.052
462.20 1.052
462.30 1.051
462.40 1.051
462.50 1.051
462.60 1.051
462.70 1.051
462.80 1.051
462.90 1.051
463.00 1.051
463.10 1.051
463.20 1.05
463.30 1.05
463.40 1.05
463.50 1.05
463.60 1.05
463.70 1.05
463.80 1.05
463.90 1.05
464.00 1.049
464.10 1.049
464.20 1.049
464.30 1.049
464.40 1.049
464.50 1.049
464.60 1.049
464.70 1.049
464.80 1.049
464.90 1.048
465.00 1.048
465.10 1.048
465.20 1.048
465.30 1.048
465.40 1.048
465.50 1.048
465.60 1.048
465.70 1.047
465.80 1.047
465.90 1.047
466.00 1.047
466.10 1.047
466.20 1.047
466.30 1.047
466.40 1.047
466.50 1.047
466.60 1.046
466.70 1.046
466.80 1.046
466.90 1.046
467.00 1.046
467.10 1.046
467.20 1.046
467.30 1.046
467.40 1.045
467.50 1.045
467.60 1.045
467.70 1.045
467.80 1.045
467.90 1.045
468.00 1.045
468.10 1.045
468.20 1.044
468.30 1.044
468.40 1.044
468.50 1.044
468.60 1.044
468.70 1.044
468.80 1.044
468.90 1.044
469.00 1.043
469.10 1.043
469.20 1.043
469.30 1.043
469.40 1.043
469.50 1.043
469.60 1.043
469.70 1.043
469.80 1.042
469.90 1.042
470.00 1.042
470.10 1.042
470.20 1.042
470.30 1.042
470.40 1.042
470.50 1.042
470.60 1.041
470.70 1.041
470.80 1.041
470.90 1.041
471.00 1.041
471.10 1.041
471.20 1.041
471.30 1.041
471.40 1.04
471.50 1.04
471.60 1.04
471.70 1.04
471.80 1.04
471.90 1.04
472.00 1.04
472.10 1.04
472.20 1.039
472.30 1.039
472.40 1.039
472.50 1.039
472.60 1.039
472.70 1.039
472.80 1.039
472.90 1.038
473.00 1.038
473.10 1.038
473.20 1.038
473.30 1.038
473.40 1.038
473.50 1.038
473.60 1.037
473.70 1.037
473.80 1.037
473.90 1.037
474.00 1.037
474.10 1.037
474.20 1.037
474.30 1.037
474.40 1.036
474.50 1.036
474.60 1.036
474.70 1.036
474.80 1.036
474.90 1.036
475.00 1.036
475.10 1.035
475.20 1.035
475.30 1.035
475.40 1.035
475.50 1.035
475.60 1.035
475.70 1.035
475.80 1.034
475.90 1.034
476.00 1.034
476.10 1.034
476.20 1.034
476.30 1.034
476.40 1.034
476.50 1.033
476.60 1.033
476.70 1.033
476.80 1.033
476.90 1.033
477.00 1.033
477.10 1.032
477.20 1.032
477.30 1.032
477.40 1.032
477.50 1.032
477.60 1.032
477.70 1.032
477.80 1.031
477.90 1.031
478.00 1.031
478.10 1.031
478.20 1.031
478.30 1.031
478.40 1.03
478.50 1.03
478.60 1.03
478.70 1.03
478.80 1.03
478.90 1.03
479.00 1.029
479.10 1.029
479.20 1.029
479.30 1.029
479.40 1.029
479.50 1.028
479.60 1.028
479.70 1.028
479.80 1.028
479.90 1.028
480.00 1.027
480.10 1.027
480.20 1.027
480.30 1.027
480.40 1.027
480.50 1.026
480.60 1.026
480.70 1.026
480.80 1.026
480.90 1.025
481.00 1.025
481.10 1.025
481.20 1.025
481.30 1.024
481.40 1.024
481.50 1.024
481.60 1.024
481.70 1.023
481.80 1.023
481.90 1.023
482.00 1.022
482.10 1.022
482.20 1.022
482.30 1.021
482.40 1.021
482.50 1.02
482.60 1.02
482.70 1.019
482.80 1.019
482.90 1.018
483.00 1.018
483.10 1.017
483.20 1.017
483.30 1.016
483.40 1.015
483.50 1.014
483.60 1.013
483.70 1.012
483.80 1.011
483.90 1.01
484.00 1.009
484.10 1.008
484.20 1.007
484.30 1.005
484.40 1.003
484.50 1.001
484.60 0.9993
484.70 0.9964
484.80 0.993
484.90 0.9896
485.00 0.9862
485.10 0.9828
485.20 0.9781
485.30 0.9728
485.40 0.9662
485.50 0.9591
485.60 0.9503
485.70 0.9408
485.80 0.9293
485.90 0.9169
486.00 0.9026
486.10 0.8782
486.20 0.8896
486.30 0.9077
486.40 0.9206
486.50 0.9328
486.60 0.9431
486.70 0.9524
486.80 0.96
486.90 0.9669
487.00 0.9726
487.10 0.9777
487.20 0.9814
487.30 0.9845
487.40 0.9876
487.50 0.9908
487.60 0.9939
487.70 0.9959
487.80 0.9975
487.90 0.9991
488.00 1.001
488.10 1.002
488.20 1.003
488.30 1.004
488.40 1.004
488.50 1.005
488.60 1.006
488.70 1.006
488.80 1.007
488.90 1.008
489.00 1.008
489.10 1.009
489.20 1.009
489.30 1.009
489.40 1.01
489.50 1.01
489.60 1.01
489.70 1.01
489.80 1.01
489.90 1.01
490.00 1.011
490.10 1.011
490.20 1.011
490.30 1.011
490.40 1.011
490.50 1.011
490.60 1.011
490.70 1.011
490.80 1.011
490.90 1.011
491.00 1.011
491.10 1.011
491.20 1.011
491.30 1.011
491.40 1.011
491.50 1.011
491.60 1.011
491.70 1.011
491.80 1.011
491.90 1.01
492.00 1.01
492.10 1.01
492.20 1.01
492.30 1.01
492.40 1.01
492.50 1.01
492.60 1.01
492.70 1.01
492.80 1.01
492.90 1.01
493.00 1.009
493.10 1.009
493.20 1.009
493.30 1.009
493.40 1.009
493.50 1.009
493.60 1.009
493.70 1.009
493.80 1.009
493.90 1.008
494.00 1.008
494.10 1.008
494.20 1.008
494.30 1.008
494.40 1.008
494.50 1.008
494.60 1.008
494.70 1.008
494.80 1.007
494.90 1.007
495.00 1.007
495.10 1.007
495.20 1.007
495.30 1.007
495.40 1.007
495.50 1.006
495.60 1.006
495.70 1.006
495.80 1.006
495.90 1.006
496.00 1.006
496.10 1.006
496.20 1.006
496.30 1.005
496.40 1.005
496.50 1.005
496.60 1.005
496.70 1.005
496.80 1.005
496.90 1.005
497.00 1.004
497.10 1.004
497.20 1.004
497.30 1.004
497.40 1.004
497.50 1.004
497.60 1.004
497.70 1.003
497.80 1.003
497.90 1.003
498.00 1.003
498.10 1.003
498.20 1.003
498.30 1.003
498.40 1.002
498.50 1.002
498.60 1.002
498.70 1.002
498.80 1.002
498.90 1.002
499.00 1.001
499.10 1.001
499.20 1.001
499.30 1.001
499.40 1.001
499.50 1.001
499.60 1.001
499.70 1
499.80 1
499.90 1
500.00 1
500.10 0.9999
500.20 0.9997
500.30 0.9995
500.40 0.9994
500.50 0.9992
500.60 0.9991
500.70 0.9989
500.80 0.9988
500.90 0.9986
501.00 0.9985
501.10 0.9983
501.20 0.9982
501.30 0.998
501.40 0.9979
501.50 0.9977
501.60 0.9976
501.70 0.9974
501.80 0.9973
501.90 0.9971
502.00 0.997
502.10 0.9968
502.20 0.9967
502.30 0.9965
502.40 0.9963
502.50 0.9962
502.60 0.996
502.70 0.9959
502.80 0.9957
502.90 0.9956
503.00 0.9954
503.10 0.9953
503.20 0.9951
503.30 0.9949
503.40 0.9948
503.50 0.9946
503.60 0.9945
503.70 0.9943
503.80 0.9942
503.90 0.994
504.00 0.9939
504.10 0.9937
504.20 0.9936
504.30 0.9934
504.40 0.9932
504.50 0.9931
504.60 0.9929
504.70 0.9928
504.80 0.9926
504.90 0.9924
505.00 0.9923
505.10 0.9921
505.20 0.992
505.30 0.9918
505.40 0.9917
505.50 0.9915
505.60 0.9913
505.70 0.9912
505.80 0.991
505.90 0.9909
506.00 0.9907
506.10 0.9906
506.20 0.9904
506.30 0.9902
506.40 0.9901
506.50 0.9899
506.60 0.9898
506.70 0.9896
506.80 0.9894
506.90 0.9893
507.00 0.9891
507.10 0.989
507.20 0.9888
507.30 0.9886
507.40 0.9885
507.50 0.9883
507.60 0.9882
507.70 0.988
507.80 0.9878
507.90 0.9877
508.00 0.9875
508.10 0.9874
508.20 0.9872
508.30 0.987
508.40 0.9869
508.50 0.9867
508.60 0.9866
508.70 0.9864
508.80 0.9862
508.90 0.9861
509.00 0.9859
509.10 0.9857
509.20 0.9856
509.30 0.9854
509.40 0.9853
509.50 0.9851
509.60 0.9849
509.70 0.9848
509.80 0.9846
509.90 0.9845
510.00 0.9843
510.10 0.9841
510.20 0.984
510.30 0.9838
510.40 0.9836
510.50 0.9835
510.60 0.9833
510.70 0.9832
510.80 0.983
510.90 0.9828
511.00 0.9827
511.10 0.9825
511.20 0.9823
511.30 0.9822
511.40 0.982
511.50 0.9819
511.60 0.9817
511.70 0.9815
511.80 0.9814
511.90 0.9812
512.00 0.981
512.10 0.9809
512.20 0.9807
512.30 0.9805
512.40 0.9804
512.50 0.9802
512.60 0.98
512.70 0.9799
512.80 0.9797
512.90 0.9796
513.00 0.9794
513.10 0.9792
513.20 0.9791
513.30 0.9789
513.40 0.9787
513.50 0.9786
513.60 0.9784
513.70 0.9782
513.80 0.9781
513.90 0.9779
514.00 0.9777
514.10 0.9776
514.20 0.9774
514.30 0.9773
514.40 0.9771
514.50 0.9769
514.60 0.9768
514.70 0.9766
514.80 0.9764
514.90 0.9763
515.00 0.9761
515.10 0.9759
515.20 0.9758
515.30 0.9756
515.40 0.9754
515.50 0.9753
515.60 0.9751
515.70 0.9749
515.80 0.9748
515.90 0.9746
516.00 0.9744
516.10 0.9743
516.20 0.9741
516.30 0.9739
516.40 0.9738
516.50 0.9736
516.60 0.9734
516.70 0.9733
516.80 0.9731
516.90 0.9729
517.00 0.9728
517.10 0.9726
517.20 0.9724
517.30 0.9723
517.40 0.9721
517.50 0.9719
517.60 0.9718
517.70 0.9716
517.80 0.9714
517.90 0.9713
518.00 0.9711
518.10 0.9709
518.20 0.9708
518.30 0.9706
518.40 0.9704
518.50 0.9702
518.60 0.9701
518.70 0.9699
518.80 0.9697
518.90 0.9696
519.00 0.9694
519.10 0.9692
519.20 0.9691
519.30 0.9689
519.40 0.9687
519.50 0.9686
519.60 0.9684
519.70 0.9682
519.80 0.9681
519.90 0.9679
520.00 0.9677
520.10 0.9676
520.20 0.9674
520.30 0.9672
520.40 0.967
520.50 0.9669
520.60 0.9667
520.70 0.9665
520.80 0.9664
520.90 0.9662
521.00 0.966
521.10 0.9659
521.20 0.9657
521.30 0.9655
521.40 0.9653
521.50 0.9652
521.60 0.965
521.70 0.9648
521.80 0.9647
521.90 0.9645
522.00 0.9643
522.10 0.9642
522.20 0.964
522.30 0.9638
522.40 0.9636
522.50 0.9635
522.60 0.9633
522.70 0.9631
522.80 0.963
522.90 0.9628
523.00 0.9626
523.10 0.9624
523.20 0.9623
523.30 0.9621
523.40 0.9619
523.50 0.9618
523.60 0.9616
523.70 0.9614
523.80 0.9612
523.90 0.9611
524.00 0.9609
524.10 0.9607
524.20 0.9606
524.30 0.9604
524.40 0.9602
524.50 0.96
524.60 0.9599
524.70 0.9597
524.80 0.9595
524.90 0.9594
525.00 0.9592
525.10 0.959
525.20 0.9588
525.30 0.9587
525.40 0.9585
525.50 0.9583
525.60 0.9582
525.70 0.958
525.80 0.9578
525.90 0.9576
526.00 0.9575
526.10 0.9573
526.20 0.9571
526.30 0.9569
526.40 0.9568
526.50 0.9566
526.60 0.9564
526.70 0.9563
526.80 0.9561
526.90 0.9559
527.00 0.9557
527.10 0.9556
527.20 0.9554
527.30 0.9552
527.40 0.955
527.50 0.9549
527.60 0.9547
527.70 0.9545
527.80 0.9544
527.90 0.9542
528.00 0.954
528.10 0.9538
528.20 0.9537
528.30 0.9535
528.40 0.9533
528.50 0.9531
528.60 0.953
528.70 0.9528
528.80 0.9526
528.90 0.9524
529.00 0.9523
529.10 0.9521
529.20 0.9519
529.30 0.9517
529.40 0.9516
529.50 0.9514
529.60 0.9512
529.70 0.951
529.80 0.9508
529.90 0.9507
530.00 0.9505
530.10 0.9503
530.20 0.9501
530.30 0.95
530.40 0.9498
530.50 0.9496
530.60 0.9495
530.70 0.9493
530.80 0.9491
530.90 0.949
531.00 0.9488
531.10 0.9486
531.20 0.9485
531.30 0.9483
531.40 0.9481
531.50 0.9479
531.60 0.9477
531.70 0.9476
531.80 0.9474
531.90 0.9472
532.00 0.947
532.10 0.9469
532.20 0.9467
532.30 0.9465
532.40 0.9463
532.50 0.9462
532.60 0.946
532.70 0.9458
532.80 0.9456
532.90 0.9454
533.00 0.9453
533.10 0.9451
533.20 0.9449
533.30 0.9447
533.40 0.9446
533.50 0.9444
533.60 0.9442
533.70 0.944
533.80 0.9439
533.90 0.9437
534.00 0.9435
534.10 0.9433
534.20 0.9432
534.30 0.943
534.40 0.9428
534.50 0.9426
534.60 0.9425
534.70 0.9423
534.80 0.9421
534.90 0.9419
535.00 0.9418
535.10 0.9416
535.20 0.9414
535.30 0.9412
535.40 0.9411
535.50 0.9409
535.60 0.9407
535.70 0.9405
535.80 0.9404
535.90 0.9402
536.00 0.94
536.10 0.9398
536.20 0.9397
536.30 0.9395
536.40 0.9393
536.50 0.9391
536.60 0.9389
536.70 0.9387
536.80 0.9386
536.90 0.9384
537.00 0.9382
537.10 0.938
537.20 0.9378
537.30 0.9377
537.40 0.9375
537.50 0.9373
537.60 0.9371
537.70 0.937
537.80 0.9368
537.90 0.9366
538.00 0.9364
538.10 0.9363
538.20 0.9361
538.30 0.9359
538.40 0.9357
538.50 0.9355
538.60 0.9354
538.70 0.9352
538.80 0.935
538.90 0.9348
539.00 0.9346
539.10 0.9345
539.20 0.9343
539.30 0.9341
539.40 0.9339
539.50 0.9338
539.60 0.9336
539.70 0.9334
539.80 0.9333
539.90 0.9331
540.00 0.9329
540.10 0.9327
540.20 0.9326
540.30 0.9324
540.40 0.9322
540.50 0.932
540.60 0.9318
540.70 0.9317
540.80 0.9315
540.90 0.9313
541.00 0.9311
541.10 0.9309
541.20 0.9308
541.30 0.9306
541.40 0.9304
541.50 0.9302
541.60 0.93
541.70 0.9299
541.80 0.9297
541.90 0.9295
542.00 0.9293
542.10 0.9291
542.20 0.929
542.30 0.9288
542.40 0.9286
542.50 0.9284
542.60 0.9282
542.70 0.9281
542.80 0.9279
542.90 0.9277
543.00 0.9275
543.10 0.9273
543.20 0.9272
543.30 0.927
543.40 0.9268
543.50 0.9266
543.60 0.9265
543.70 0.9263
543.80 0.9261
543.90 0.9259
544.00 0.9257
544.10 0.9256
544.20 0.9254
544.30 0.9252
544.40 0.925
544.50 0.9249
544.60 0.9247
544.70 0.9245
544.80 0.9243
544.90 0.9241
545.00 0.924
545.10 0.9238
545.20 0.9236
545.30 0.9234
545.40 0.9232
545.50 0.923
545.60 0.9229
545.70 0.9227
545.80 0.9225
545.90 0.9223
546.00 0.9221
546.10 0.9219
546.20 0.9218
546.30 0.9216
546.40 0.9214
546.50 0.9212
546.60 0.921
546.70 0.9209
546.80 0.9207
546.90 0.9205
547.00 0.9203
547.10 0.9202
547.20 0.92
547.30 0.9198
547.40 0.9196
547.50 0.9194
547.60 0.9192
547.70 0.9191
547.80 0.9189
547.90 0.9187
548.00 0.9185
548.10 0.9183
548.20 0.9181
548.30 0.918
548.40 0.9178
548.50 0.9176
548.60 0.9174
548.70 0.9173
548.80 0.9171
548.90 0.9169
549.00 0.9167
549.10 0.9166
549.20 0.9164
549.30 0.9162
549.40 0.916
549.50 0.9158
549.60 0.9157
549.70 0.9155
549.80 0.9153
549.90 0.9151
550.00 0.9149
550.10 0.9147
550.20 0.9146
550.30 0.9144
550.40 0.9142
550.50 0.914
550.60 0.9138
550.70 0.9137
550.80 0.9135
550.90 0.9133
551.00 0.9131
551.10 0.9129
551.20 0.9127
551.30 0.9126
551.40 0.9124
551.50 0.9122
551.60 0.912
551.70 0.9118
551.80 0.9117
551.90 0.9115
552.00 0.9113
552.10 0.9111
552.20 0.9109
552.30 0.9107
552.40 0.9106
552.50 0.9104
552.60 0.9102
552.70 0.91
552.80 0.9098
552.90 0.9097
553.00 0.9095
553.10 0.9093
553.20 0.9091
553.30 0.9089
553.40 0.9087
553.50 0.9085
553.60 0.9084
553.70 0.9082
553.80 0.908
553.90 0.9078
554.00 0.9076
554.10 0.9074
554.20 0.9072
554.30 0.9071
554.40 0.9069
554.50 0.9067
554.60 0.9065
554.70 0.9063
554.80 0.9062
554.90 0.906
555.00 0.9058
555.10 0.9056
555.20 0.9054
555.30 0.9053
555.40 0.9051
555.50 0.9049
555.60 0.9047
555.70 0.9045
555.80 0.9044
555.90 0.9042
556.00 0.904
556.10 0.9038
556.20 0.9036
556.30 0.9035
556.40 0.9033
556.50 0.9031
556.60 0.9029
556.70 0.9027
556.80 0.9025
556.90 0.9023
557.00 0.9022
557.10 0.902
557.20 0.9018
557.30 0.9016
557.40 0.9014
557.50 0.9012
557.60 0.901
557.70 0.9008
557.80 0.9007
557.90 0.9005
558.00 0.9003
558.10 0.9001
558.20 0.8999
558.30 0.8997
558.40 0.8996
558.50 0.8994
558.60 0.8992
558.70 0.899
558.80 0.8988
558.90 0.8986
559.00 0.8984
559.10 0.8983
559.20 0.8981
559.30 0.8979
559.40 0.8977
559.50 0.8975
559.60 0.8974
559.70 0.8972
559.80 0.897
559.90 0.8968
560.00 0.8967
560.10 0.8965
560.20 0.8963
560.30 0.8961
560.40 0.8959
560.50 0.8958
560.60 0.8956
560.70 0.8954
560.80 0.8952
560.90 0.895
561.00 0.8948
561.10 0.8947
561.20 0.8945
561.30 0.8943
561.40 0.8941
561.50 0.8939
561.60 0.8937
561.70 0.8935
561.80 0.8933
561.90 0.8931
562.00 0.8929
562.10 0.8928
562.20 0.8926
562.30 0.8924
562.40 0.8922
562.50 0.892
562.60 0.8918
562.70 0.8917
562.80 0.8915
562.90 0.8913
563.00 0.8911
563.10 0.8909
563.20 0.8907
563.30 0.8906
563.40 0.8904
563.50 0.8902
563.60 0.89
563.70 0.8898
563.80 0.8897
563.90 0.8895
564.00 0.8893
564.10 0.8891
564.20 0.8889
564.30 0.8887
564.40 0.8886
564.50 0.8884
564.60 0.8882
564.70 0.888
564.80 0.8878
564.90 0.8877
565.00 0.8875
565.10 0.8873
565.20 0.8871
565.30 0.8869
565.40 0.8867
565.50 0.8866
565.60 0.8864
565.70 0.8862
565.80 0.886
565.90 0.8858
566.00 0.8856
566.10 0.8854
566.20 0.8852
566.30 0.885
566.40 0.8849
566.50 0.8847
566.60 0.8845
566.70 0.8843
566.80 0.8841
566.90 0.8839
567.00 0.8837
567.10 0.8835
567.20 0.8834
567.30 0.8832
567.40 0.883
567.50 0.8828
567.60 0.8827
567.70 0.8825
567.80 0.8823
567.90 0.8821
568.00 0.8819
568.10 0.8818
568.20 0.8816
568.30 0.8814
568.40 0.8812
568.50 0.881
568.60 0.8808
568.70 0.8806
568.80 0.8805
568.90 0.8803
569.00 0.8801
569.10 0.8799
569.20 0.8797
569.30 0.8795
569.40 0.8793
569.50 0.8792
569.60 0.879
569.70 0.8788
569.80 0.8786
569.90 0.8784
570.00 0.8782
570.10 0.8781
570.20 0.8779
570.30 0.8777
570.40 0.8775
570.50 0.8773
570.60 0.8771
570.70 0.8769
570.80 0.8768
570.90 0.8766
571.00 0.8764
571.10 0.8762
571.20 0.876
571.30 0.8758
571.40 0.8757
571.50 0.8755
571.60 0.8753
571.70 0.8751
571.80 0.8749
571.90 0.8747
572.00 0.8746
572.10 0.8744
572.20 0.8742
572.30 0.874
572.40 0.8738
572.50 0.8736
572.60 0.8734
572.70 0.8732
572.80 0.873
572.90 0.8728
573.00 0.8727
573.10 0.8725
573.20 0.8723
573.30 0.8721
573.40 0.8719
573.50 0.8717
573.60 0.8715
573.70 0.8714
573.80 0.8712
573.90 0.871
574.00 0.8708
574.10 0.8706
574.20 0.8705
574.30 0.8703
574.40 0.8701
574.50 0.8699
574.60 0.8697
574.70 0.8695
574.80 0.8694
574.90 0.8692
575.00 0.869
575.10 0.8688
575.20 0.8686
575.30 0.8684
575.40 0.8683
575.50 0.8681
575.60 0.8679
575.70 0.8677
575.80 0.8675
575.90 0.8673
576.00 0.8671
576.10 0.8669
576.20 0.8667
576.30 0.8666
576.40 0.8664
576.50 0.8662
576.60 0.866
576.70 0.8658
576.80 0.8656
576.90 0.8654
577.00 0.8652
577.10 0.8651
577.20 0.8649
577.30 0.8647
577.40 0.8645
577.50 0.8643
577.60 0.8642
577.70 0.864
577.80 0.8638
577.90 0.8636
578.00 0.8634
578.10 0.8633
578.20 0.8631
578.30 0.8629
578.40 0.8627
578.50 0.8625
578.60 0.8623
578.70 0.8621
578.80 0.862
578.90 0.8618
579.00 0.8616
579.10 0.8614
579.20 0.8612
579.30 0.861
579.40 0.8608
579.50 0.8607
579.60 0.8605
579.70 0.8603
579.80 0.8601
579.90 0.8599
580.00 0.8597
580.10 0.8595
580.20 0.8594
580.30 0.8592
580.40 0.859
580.50 0.8588
580.60 0.8586
580.70 0.8584
580.80 0.8582
580.90 0.8581
581.00 0.8579
581.10 0.8577
581.20 0.8575
581.30 0.8573
581.40 0.8571
581.50 0.8569
581.60 0.8567
581.70 0.8565
581.80 0.8563
581.90 0.8562
582.00 0.856
582.10 0.8558
582.20 0.8556
582.30 0.8554
582.40 0.8552
582.50 0.855
582.60 0.8549
582.70 0.8547
582.80 0.8545
582.90 0.8543
583.00 0.8541
583.10 0.8539
583.20 0.8538
583.30 0.8536
583.40 0.8534
583.50 0.8532
583.60 0.853
583.70 0.8528
583.80 0.8527
583.90 0.8525
584.00 0.8523
584.10 0.8521
584.20 0.8519
584.30 0.8517
584.40 0.8515
584.50 0.8514
584.60 0.8512
584.70 0.851
584.80 0.8508
584.90 0.8506
585.00 0.8504
585.10 0.8502
585.20 0.85
585.30 0.8499
585.40 0.8497
585.50 0.8495
585.60 0.8493
585.70 0.8491
585.80 0.8489
585.90 0.8488
586.00 0.8486
586.10 0.8484
586.20 0.8482
586.30 0.848
586.40 0.8478
586.50 0.8477
586.60 0.8475
586.70 0.8473
586.80 0.8471
586.90 0.8469
587.00 0.8467
587.10 0.8465
587.20 0.8463
587.30 0.8461
587.40 0.846
587.50 0.8458
587.60 0.8456
587.70 0.8454
587.80 0.8452
587.90 0.845
588.00 0.8448
588.10 0.8446
588.20 0.8445
588.30 0.8443
588.40 0.8441
588.50 0.8439
588.60 0.8437
588.70 0.8435
588.80 0.8433
588.90 0.8432
589.00 0.843
589.10 0.8428
589.20 0.8426
589.30 0.8424
589.40 0.8422
589.50 0.842
589.60 0.8419
589.70 0.8417
589.80 0.8415
589.90 0.8413
590.00 0.8411
590.10 0.8409
590.20 0.8407
590.30 0.8406
590.40 0.8404
590.50 0.8402
590.60 0.84
590.70 0.8398
590.80 0.8396
590.90 0.8394
591.00 0.8393
591.10 0.8391
591.20 0.8389
591.30 0.8387
591.40 0.8385
591.50 0.8383
591.60 0.8382
591.70 0.838
591.80 0.8378
591.90 0.8376
592.00 0.8374
592.10 0.8372
592.20 0.8371
592.30 0.8369
592.40 0.8367
592.50 0.8365
592.60 0.8363
592.70 0.8361
592.80 0.8359
592.90 0.8358
593.00 0.8356
593.10 0.8354
593.20 0.8352
593.30 0.835
593.40 0.8349
593.50 0.8347
593.60 0.8345
593.70 0.8343
593.80 0.8341
593.90 0.8339
594.00 0.8338
594.10 0.8336
594.20 0.8334
594.30 0.8332
594.40 0.833
594.50 0.8328
594.60 0.8326
594.70 0.8324
594.80 0.8322
594.90 0.8321
595.00 0.8319
595.10 0.8317
595.20 0.8315
595.30 0.8313
595.40 0.8311
595.50 0.831
595.60 0.8308
595.70 0.8306
595.80 0.8304
595.90 0.8302
596.00 0.83
596.10 0.8299
596.20 0.8297
596.30 0.8295
596.40 0.8293
596.50 0.8291
596.60 0.8289
596.70 0.8287
596.80 0.8285
596.90 0.8282
597.00 0.828
597.10 0.8278
597.20 0.8277
597.30 0.8275
597.40 0.8273
597.50 0.8271
597.60 0.8269
597.70 0.8267
597.80 0.8265
597.90 0.8263
598.00 0.8262
598.10 0.826
598.20 0.8258
598.30 0.8256
598.40 0.8254
598.50 0.8252
598.60 0.825
598.70 0.8248
598.80 0.8247
598.90 0.8245
599.00 0.8243
599.10 0.8241
599.20 0.8239
599.30 0.8237
599.40 0.8235
599.50 0.8234
599.60 0.8232
599.70 0.823
599.80 0.8228
599.90 0.8226
600.00 0.8224
600.10 0.8223
600.20 0.8221
600.30 0.8219
600.40 0.8217
600.50 0.8215
600.60 0.8213
600.70 0.8211
600.80 0.821
600.90 0.8208
601.00 0.8206
601.10 0.8204
601.20 0.8202
601.30 0.82
601.40 0.8199
601.50 0.8197
601.60 0.8195
601.70 0.8193
601.80 0.8191
601.90 0.8189
602.00 0.8187
602.10 0.8186
602.20 0.8184
602.30 0.8182
602.40 0.818
602.50 0.8178
602.60 0.8176
602.70 0.8174
602.80 0.8172
602.90 0.817
603.00 0.8169
603.10 0.8167
603.20 0.8165
603.30 0.8163
603.40 0.8161
603.50 0.8159
603.60 0.8157
603.70 0.8156
603.80 0.8154
603.90 0.8152
604.00 0.815
604.10 0.8148
604.20 0.8147
604.30 0.8145
604.40 0.8143
604.50 0.8141
604.60 0.8139
604.70 0.8137
604.80 0.8136
604.90 0.8134
605.00 0.8132
605.10 0.813
605.20 0.8128
605.30 0.8126
605.40 0.8125
605.50 0.8123
605.60 0.8121
605.70 0.8119
605.80 0.8117
605.90 0.8115
606.00 0.8113
606.10 0.8111
606.20 0.811
606.30 0.8108
606.40 0.8106
606.50 0.8104
606.60 0.8102
606.70 0.81
606.80 0.8098
606.90 0.8096
607.00 0.8095
607.10 0.8093
607.20 0.8091
607.30 0.8089
607.40 0.8087
607.50 0.8085
607.60 0.8084
607.70 0.8082
607.80 0.808
607.90 0.8078
608.00 0.8076
608.10 0.8075
608.20 0.8073
608.30 0.8071
608.40 0.8069
608.50 0.8067
608.60 0.8065
608.70 0.8064
608.80 0.8062
608.90 0.806
609.00 0.8058
609.10 0.8056
609.20 0.8054
609.30 0.8052
609.40 0.8051
609.50 0.8049
609.60 0.8047
609.70 0.8045
609.80 0.8043
609.90 0.8041
610.00 0.8039
610.10 0.8038
610.20 0.8036
610.30 0.8034
610.40 0.8032
610.50 0.803
610.60 0.8028
610.70 0.8027
610.80 0.8025
610.90 0.8023
611.00 0.8021
611.10 0.8019
611.20 0.8017
611.30 0.8015
611.40 0.8014
611.50 0.8012
611.60 0.801
611.70 0.8008
611.80 0.8006
611.90 0.8004
612.00 0.8002
612.10 0.8
612.20 0.7998
612.30 0.7997
612.40 0.7995
612.50 0.7993
612.60 0.7991
612.70 0.7989
612.80 0.7987
612.90 0.7986
613.00 0.7984
613.10 0.7982
613.20 0.798
613.30 0.7978
613.40 0.7976
613.50 0.7975
613.60 0.7973
613.70 0.7971
613.80 0.7969
613.90 0.7967
614.00 0.7966
614.10 0.7964
614.20 0.7962
614.30 0.796
614.40 0.7958
614.50 0.7956
614.60 0.7954
614.70 0.7952
614.80 0.7951
614.90 0.7949
615.00 0.7947
615.10 0.7945
615.20 0.7943
615.30 0.7941
615.40 0.7939
615.50 0.7938
615.60 0.7936
615.70 0.7934
615.80 0.7932
615.90 0.793
616.00 0.7929
616.10 0.7927
616.20 0.7925
616.30 0.7923
616.40 0.7921
616.50 0.7919
616.60 0.7918
616.70 0.7916
616.80 0.7914
616.90 0.7912
617.00 0.791
617.10 0.7908
617.20 0.7906
617.30 0.7904
617.40 0.7903
617.50 0.7901
617.60 0.7899
617.70 0.7897
617.80 0.7895
617.90 0.7893
618.00 0.7891
618.10 0.789
618.20 0.7888
618.30 0.7886
618.40 0.7884
618.50 0.7882
618.60 0.788
618.70 0.7879
618.80 0.7877
618.90 0.7875
619.00 0.7873
619.10 0.7871
619.20 0.7869
619.30 0.7867
619.40 0.7866
619.50 0.7864
619.60 0.7862
619.70 0.786
619.80 0.7858
619.90 0.7856
620.00 0.7855
620.10 0.7853
620.20 0.7851
620.30 0.7849
620.40 0.7847
620.50 0.7845
620.60 0.7843
620.70 0.7842
620.80 0.784
620.90 0.7838
621.00 0.7836
621.10 0.7834
621.20 0.7833
621.30 0.7831
621.40 0.7829
621.50 0.7827
621.60 0.7825
621.70 0.7823
621.80 0.7822
621.90 0.782
622.00 0.7818
622.10 0.7816
622.20 0.7814
622.30 0.7812
622.40 0.7811
622.50 0.7809
622.60 0.7807
622.70 0.7805
622.80 0.7803
622.90 0.7802
623.00 0.78
623.10 0.7798
623.20 0.7796
623.30 0.7794
623.40 0.7792
623.50 0.779
623.60 0.7788
623.70 0.7787
623.80 0.7785
623.90 0.7783
624.00 0.7781
624.10 0.7779
624.20 0.7777
624.30 0.7775
624.40 0.7774
624.50 0.7772
624.60 0.777
624.70 0.7768
624.80 0.7766
624.90 0.7765
625.00 0.7763
625.10 0.7761
625.20 0.7759
625.30 0.7757
625.40 0.7755
625.50 0.7754
625.60 0.7752
625.70 0.775
625.80 0.7748
625.90 0.7746
626.00 0.7744
626.10 0.7742
626.20 0.7741
626.30 0.7739
626.40 0.7737
626.50 0.7735
626.60 0.7733
626.70 0.7731
626.80 0.7729
626.90 0.7728
627.00 0.7726
627.10 0.7724
627.20 0.7722
627.30 0.772
627.40 0.7718
627.50 0.7716
627.60 0.7715
627.70 0.7713
627.80 0.7711
627.90 0.7709
628.00 0.7707
628.10 0.7705
628.20 0.7704
628.30 0.7702
628.40 0.77
628.50 0.7698
628.60 0.7696
628.70 0.7694
628.80 0.7692
628.90 0.7691
629.00 0.7689
629.10 0.7687
629.20 0.7685
629.30 0.7683
629.40 0.7681
629.50 0.768
629.60 0.7678
629.70 0.7676
629.80 0.7674
629.90 0.7672
630.00 0.767
630.10 0.7669
630.20 0.7667
630.30 0.7665
630.40 0.7663
630.50 0.7661
630.60 0.7659
630.70 0.7658
630.80 0.7656
630.90 0.7654
631.00 0.7652
631.10 0.765
631.20 0.7648
631.30 0.7646
631.40 0.7645
631.50 0.7643
631.60 0.7641
631.70 0.7639
631.80 0.7637
631.90 0.7635
632.00 0.7633
632.10 0.7631
632.20 0.763
632.30 0.7628
632.40 0.7626
632.50 0.7624
632.60 0.7622
632.70 0.762
632.80 0.7618
632.90 0.7616
633.00 0.7615
633.10 0.7613
633.20 0.7611
633.30 0.7609
633.40 0.7607
633.50 0.7605
633.60 0.7603
633.70 0.7601
633.80 0.76
633.90 0.7598
634.00 0.7596
634.10 0.7594
634.20 0.7592
634.30 0.759
634.40 0.7588
634.50 0.7587
634.60 0.7585
634.70 0.7583
634.80 0.7581
634.90 0.7579
635.00 0.7577
635.10 0.7575
635.20 0.7574
635.30 0.7572
635.40 0.757
635.50 0.7568
635.60 0.7566
635.70 0.7564
635.80 0.7562
635.90 0.7561
636.00 0.7559
636.10 0.7557
636.20 0.7555
636.30 0.7553
636.40 0.7551
636.50 0.7549
636.60 0.7547
636.70 0.7545
636.80 0.7544
636.90 0.7542
637.00 0.754
637.10 0.7538
637.20 0.7536
637.30 0.7534
637.40 0.7532
637.50 0.753
637.60 0.7528
637.70 0.7526
637.80 0.7525
637.90 0.7523
638.00 0.7521
638.10 0.7519
638.20 0.7517
638.30 0.7515
638.40 0.7513
638.50 0.7511
638.60 0.7509
638.70 0.7507
638.80 0.7505
638.90 0.7503
639.00 0.7501
639.10 0.7499
639.20 0.7497
639.30 0.7495
639.40 0.7493
639.50 0.7492
639.60 0.749
639.70 0.7488
639.80 0.7486
639.90 0.7484
640.00 0.7482
640.10 0.748
640.20 0.7478
640.30 0.7476
640.40 0.7474
640.50 0.7472
640.60 0.747
640.70 0.7468
640.80 0.7466
640.90 0.7464
641.00 0.7462
641.10 0.746
641.20 0.7458
641.30 0.7456
641.40 0.7454
641.50 0.7452
641.60 0.745
641.70 0.7448
641.80 0.7446
641.90 0.7444
642.00 0.7442
642.10 0.744
642.20 0.7438
642.30 0.7436
642.40 0.7434
642.50 0.7432
642.60 0.743
642.70 0.7428
642.80 0.7426
642.90 0.7424
643.00 0.7422
643.10 0.7419
643.20 0.7417
643.30 0.7415
643.40 0.7413
643.50 0.7411
643.60 0.7409
643.70 0.7407
643.80 0.7405
643.90 0.7402
644.00 0.74
644.10 0.7398
644.20 0.7396
644.30 0.7394
644.40 0.7391
644.50 0.7389
644.60 0.7387
644.70 0.7385
644.80 0.7383
644.90 0.738
645.00 0.7378
645.10 0.7376
645.20 0.7374
645.30 0.7371
645.40 0.7369
645.50 0.7367
645.60 0.7364
645.70 0.7362
645.80 0.7359
645.90 0.7357
646.00 0.7354
646.10 0.7352
646.20 0.735
646.30 0.7347
646.40 0.7345
646.50 0.7342
646.60 0.734
646.70 0.7337
646.80 0.7335
646.90 0.7332
647.00 0.733
647.10 0.7327
647.20 0.7325
647.30 0.7322
647.40 0.7319
647.50 0.7316
647.60 0.7313
647.70 0.7311
647.80 0.7308
647.90 0.7305
648.00 0.7302
648.10 0.7299
648.20 0.7296
648.30 0.7294
648.40 0.729
648.50 0.7287
648.60 0.7284
648.70 0.728
648.80 0.7277
648.90 0.7274
649.00 0.727
649.10 0.7267
649.20 0.7264
649.30 0.726
649.40 0.7256
649.50 0.7252
649.60 0.7248
649.70 0.7244
649.80 0.7241
649.90 0.7237
650.00 0.7233
650.10 0.7229
650.20 0.7225
650.30 0.7221
650.40 0.7216
650.50 0.7211
650.60 0.7205
650.70 0.72
650.80 0.7195
650.90 0.719
651.00 0.7185
651.10 0.718
651.20 0.7175
651.30 0.717
651.40 0.7163
651.50 0.7155
651.60 0.7148
651.70 0.7141
651.80 0.7134
651.90 0.7126
652.00 0.7119
652.10 0.7112
652.20 0.7105
652.30 0.7097
652.40 0.7086
652.50 0.7074
652.60 0.7063
652.70 0.7052
652.80 0.7041
652.90 0.7029
653.00 0.7018
653.10 0.7007
653.20 0.6996
653.30 0.6983
653.40 0.6962
653.50 0.6942
653.60 0.6922
653.70 0.6902
653.80 0.6881
653.90 0.6861
654.00 0.6841
654.10 0.6821
654.20 0.6801
654.30 0.6778
654.40 0.6743
654.50 0.6709
654.60 0.6675
654.70 0.664
654.80 0.6602
654.90 0.6549
655.00 0.6496
655.10 0.6443
655.20 0.639
655.30 0.6333
655.40 0.6258
655.50 0.618
655.60 0.6087
655.70 0.5989
655.80 0.587
655.90 0.5742
656.00 0.5581
656.10 0.541
656.20 0.514
656.30 0.4793
656.40 0.5259
656.50 0.5475
656.60 0.5635
656.70 0.5786
656.80 0.5903
656.90 0.6014
657.00 0.6104
657.10 0.6191
657.20 0.6262
657.30 0.6329
657.40 0.6379
657.50 0.6429
657.60 0.6479
657.70 0.6529
657.80 0.6575
657.90 0.6606
658.00 0.6637
658.10 0.6668
658.20 0.6699
658.30 0.6727
658.40 0.6743
658.50 0.676
658.60 0.6777
658.70 0.6794
658.80 0.681
658.90 0.6827
659.00 0.6844
659.10 0.686
659.20 0.6877
659.30 0.6892
659.40 0.6899
659.50 0.6907
659.60 0.6915
659.70 0.6923
659.80 0.693
659.90 0.6938
660.00 0.6946
660.10 0.6953
660.20 0.6961
660.30 0.6968
660.40 0.6972
660.50 0.6975
660.60 0.6979
660.70 0.6982
660.80 0.6986
660.90 0.6989
661.00 0.6993
661.10 0.6997
661.20 0.7
661.30 0.7003
661.40 0.7005
661.50 0.7006
661.60 0.7008
661.70 0.7009
661.80 0.7011
661.90 0.7012
662.00 0.7014
662.10 0.7016
662.20 0.7017
662.30 0.7018
662.40 0.7019
662.50 0.7019
662.60 0.702
662.70 0.702
662.80 0.702
662.90 0.7021
663.00 0.7021
663.10 0.7021
663.20 0.7022
663.30 0.7022
663.40 0.7022
663.50 0.7022
663.60 0.7021
663.70 0.7021
663.80 0.7021
663.90 0.7021
664.00 0.702
664.10 0.702
664.20 0.702
664.30 0.702
664.40 0.7019
664.50 0.7018
664.60 0.7017
664.70 0.7017
664.80 0.7016
664.90 0.7015
665.00 0.7014
665.10 0.7014
665.20 0.7013
665.30 0.7012
665.40 0.7011
665.50 0.701
665.60 0.7009
665.70 0.7008
665.80 0.7007
665.90 0.7006
666.00 0.7006
666.10 0.7005
666.20 0.7004
666.30 0.7003
666.40 0.7001
666.50 0.7
666.60 0.6999
666.70 0.6998
666.80 0.6997
666.90 0.6996
667.00 0.6995
667.10 0.6993
667.20 0.6992
667.30 0.6991
667.40 0.699
667.50 0.6989
667.60 0.6987
667.70 0.6986
667.80 0.6985
667.90 0.6984
668.00 0.6982
668.10 0.6981
668.20 0.698
668.30 0.6979
668.40 0.6977
668.50 0.6976
668.60 0.6975
668.70 0.6973
668.80 0.6972
668.90 0.697
669.00 0.6969
669.10 0.6968
669.20 0.6966
669.30 0.6965
669.40 0.6963
669.50 0.6962
669.60 0.6961
669.70 0.6959
669.80 0.6958
669.90 0.6956
670.00 0.6955
670.10 0.6954
670.20 0.6952
670.30 0.6951
670.40 0.6949
670.50 0.6948
670.60 0.6946
670.70 0.6945
670.80 0.6943
670.90 0.6942
671.00 0.694
671.10 0.6939
671.20 0.6937
671.30 0.6936
671.40 0.6934
671.50 0.6933
671.60 0.6931
671.70 0.693
671.80 0.6928
671.90 0.6927
672.00 0.6925
672.10 0.6924
672.20 0.6922
672.30 0.6921
672.40 0.6919
672.50 0.6917
672.60 0.6916
672.70 0.6914
672.80 0.6913
672.90 0.6911
673.00 0.6909
673.10 0.6908
673.20 0.6906
673.30 0.6905
673.40 0.6903
673.50 0.6902
673.60 0.69
673.70 0.6899
673.80 0.6897
673.90 0.6896
674.00 0.6894
674.10 0.6893
674.20 0.6891
674.30 0.689
674.40 0.6888
674.50 0.6886
674.60 0.6885
674.70 0.6883
674.80 0.6881
674.90 0.688
675.00 0.6878
675.10 0.6877
675.20 0.6875
675.30 0.6873
675.40 0.6872
675.50 0.687
675.60 0.6869
675.70 0.6867
675.80 0.6865
675.90 0.6864
676.00 0.6862
676.10 0.6861
676.20 0.6859
676.30 0.6858
676.40 0.6856
676.50 0.6854
676.60 0.6853
676.70 0.6851
676.80 0.685
676.90 0.6848
677.00 0.6846
677.10 0.6845
677.20 0.6843
677.30 0.6841
677.40 0.684
677.50 0.6838
677.60 0.6837
677.70 0.6835
677.80 0.6833
677.90 0.6832
678.00 0.683
678.10 0.6829
678.20 0.6827
678.30 0.6825
678.40 0.6824
678.50 0.6822
678.60 0.6821
678.70 0.6819
678.80 0.6817
678.90 0.6816
679.00 0.6814
679.10 0.6813
679.20 0.6811
679.30 0.6809
679.40 0.6808
679.50 0.6806
679.60 0.6804
679.70 0.6803
679.80 0.6801
679.90 0.6799
680.00 0.6798
680.10 0.6796
680.20 0.6794
680.30 0.6793
680.40 0.6791
680.50 0.6789
680.60 0.6788
680.70 0.6786
680.80 0.6785
680.90 0.6783
681.00 0.6781
681.10 0.678
681.20 0.6778
681.30 0.6776
681.40 0.6775
681.50 0.6773
681.60 0.6772
681.70 0.677
681.80 0.6768
681.90 0.6767
682.00 0.6765
682.10 0.6764
682.20 0.6762
682.30 0.676
682.40 0.6759
682.50 0.6757
682.60 0.6756
682.70 0.6754
682.80 0.6752
682.90 0.6751
683.00 0.6749
683.10 0.6747
683.20 0.6746
683.30 0.6744
683.40 0.6742
683.50 0.6741
683.60 0.6739
683.70 0.6737
683.80 0.6736
683.90 0.6734
684.00 0.6732
684.10 0.6731
684.20 0.6729
684.30 0.6727
684.40 0.6726
684.50 0.6724
684.60 0.6722
684.70 0.6721
684.80 0.6719
684.90 0.6718
685.00 0.6716
685.10 0.6714
685.20 0.6713
685.30 0.6711
685.40 0.6709
685.50 0.6708
685.60 0.6706
685.70 0.6705
685.80 0.6703
685.90 0.6701
686.00 0.67
686.10 0.6698
686.20 0.6697
686.30 0.6695
686.40 0.6693
686.50 0.6692
686.60 0.669
686.70 0.6688
686.80 0.6687
686.90 0.6685
687.00 0.6684
687.10 0.6682
687.20 0.668
687.30 0.6679
687.40 0.6677
687.50 0.6675
687.60 0.6674
687.70 0.6672
687.80 0.6671
687.90 0.6669
688.00 0.6667
688.10 0.6666
688.20 0.6664
688.30 0.6662
688.40 0.6661
688.50 0.6659
688.60 0.6657
688.70 0.6656
688.80 0.6654
688.90 0.6652
689.00 0.6651
689.10 0.6649
689.20 0.6647
689.30 0.6646
689.40 0.6644
689.50 0.6642
689.60 0.6641
689.70 0.6639
689.80 0.6638
689.90 0.6636
690.00 0.6634
690.10 0.6633
690.20 0.6631
690.30 0.6629
690.40 0.6628
690.50 0.6626
690.60 0.6624
690.70 0.6623
690.80 0.6621
690.90 0.662
691.00 0.6618
691.10 0.6616
691.20 0.6615
691.30 0.6613
691.40 0.6611
691.50 0.661
691.60 0.6608
691.70 0.6606
691.80 0.6605
691.90 0.6603
692.00 0.6602
692.10 0.66
692.20 0.6598
692.30 0.6597
692.40 0.6595
692.50 0.6593
692.60 0.6592
692.70 0.659
692.80 0.6589
692.90 0.6587
693.00 0.6585
693.10 0.6584
693.20 0.6582
693.30 0.6581
693.40 0.6579
693.50 0.6577
693.60 0.6576
693.70 0.6574
693.80 0.6572
693.90 0.6571
694.00 0.6569
694.10 0.6568
694.20 0.6566
694.30 0.6564
694.40 0.6563
694.50 0.6561
694.60 0.656
694.70 0.6558
694.80 0.6556
694.90 0.6555
695.00 0.6553
695.10 0.6552
695.20 0.655
695.30 0.6548
695.40 0.6547
695.50 0.6545
695.60 0.6543
695.70 0.6542
695.80 0.654
695.90 0.6538
696.00 0.6537
696.10 0.6535
696.20 0.6534
696.30 0.6532
696.40 0.653
696.50 0.6529
696.60 0.6527
696.70 0.6525
696.80 0.6524
696.90 0.6522
697.00 0.6521
697.10 0.6519
697.20 0.6517
697.30 0.6516
697.40 0.6514
697.50 0.6513
697.60 0.6511
697.70 0.6509
697.80 0.6508
697.90 0.6506
698.00 0.6504
698.10 0.6503
698.20 0.6501
698.30 0.65
698.40 0.6498
698.50 0.6496
698.60 0.6495
698.70 0.6493
698.80 0.6492
698.90 0.649
699.00 0.6488
699.10 0.6487
699.20 0.6485
699.30 0.6484
699.40 0.6482
699.50 0.648
699.60 0.6479
699.70 0.6477
699.80 0.6476
699.90 0.6474
700.00 0.6472
700.10 0.6471
700.20 0.6469
700.30 0.6468
700.40 0.6466
700.50 0.6464
700.60 0.6463
700.70 0.6461
700.80 0.646
700.90 0.6458
701.00 0.6456
701.10 0.6455
701.20 0.6453
701.30 0.6452
701.40 0.645
701.50 0.6448
701.60 0.6447
701.70 0.6445
701.80 0.6444
701.90 0.6442
702.00 0.644
702.10 0.6439
702.20 0.6437
702.30 0.6436
702.40 0.6434
702.50 0.6432
702.60 0.6431
702.70 0.6429
702.80 0.6428
702.90 0.6426
703.00 0.6424
703.10 0.6423
703.20 0.6421
703.30 0.642
703.40 0.6418
703.50 0.6416
703.60 0.6415
703.70 0.6413
703.80 0.6412
703.90 0.641
704.00 0.6409
704.10 0.6407
704.20 0.6405
704.30 0.6404
704.40 0.6402
704.50 0.6401
704.60 0.6399
704.70 0.6397
704.80 0.6396
704.90 0.6394
705.00 0.6393
705.10 0.6391
705.20 0.639
705.30 0.6388
705.40 0.6386
705.50 0.6385
705.60 0.6383
705.70 0.6382
705.80 0.638
705.90 0.6378
706.00 0.6377
706.10 0.6375
706.20 0.6374
706.30 0.6372
706.40 0.637
706.50 0.6369
706.60 0.6367
706.70 0.6366
706.80 0.6364
706.90 0.6362
707.00 0.6361
707.10 0.6359
707.20 0.6358
707.30 0.6356
707.40 0.6355
707.50 0.6353
707.60 0.6351
707.70 0.635
707.80 0.6348
707.90 0.6347
708.00 0.6345
708.10 0.6343
708.20 0.6342
708.30 0.634
708.40 0.6339
708.50 0.6337
708.60 0.6336
708.70 0.6334
708.80 0.6332
708.90 0.6331
709.00 0.6329
709.10 0.6328
709.20 0.6326
709.30 0.6325
709.40 0.6323
709.50 0.6321
709.60 0.632
709.70 0.6318
709.80 0.6317
709.90 0.6315
710.00 0.6314
710.10 0.6312
710.20 0.631
710.30 0.6309
710.40 0.6307
710.50 0.6306
710.60 0.6304
710.70 0.6302
710.80 0.6301
710.90 0.6299
711.00 0.6298
711.10 0.6296
711.20 0.6295
711.30 0.6293
711.40 0.6291
711.50 0.629
711.60 0.6288
711.70 0.6287
711.80 0.6285
711.90 0.6284
712.00 0.6282
712.10 0.628
712.20 0.6279
712.30 0.6277
712.40 0.6276
712.50 0.6274
712.60 0.6273
712.70 0.6271
712.80 0.6269
712.90 0.6268
713.00 0.6266
713.10 0.6265
713.20 0.6263
713.30 0.6262
713.40 0.626
713.50 0.6258
713.60 0.6257
713.70 0.6255
713.80 0.6254
713.90 0.6252
714.00 0.6251
714.10 0.6249
714.20 0.6247
714.30 0.6246
714.40 0.6244
714.50 0.6243
714.60 0.6241
714.70 0.624
714.80 0.6238
714.90 0.6237
715.00 0.6235
715.10 0.6233
715.20 0.6232
715.30 0.623
715.40 0.6229
715.50 0.6227
715.60 0.6226
715.70 0.6224
715.80 0.6223
715.90 0.6221
716.00 0.6219
716.10 0.6218
716.20 0.6216
716.30 0.6215
716.40 0.6213
716.50 0.6212
716.60 0.621
716.70 0.6209
716.80 0.6207
716.90 0.6206
717.00 0.6204
717.10 0.6202
717.20 0.6201
717.30 0.6199
717.40 0.6198
717.50 0.6196
717.60 0.6195
717.70 0.6193
717.80 0.6192
717.90 0.619
718.00 0.6189
718.10 0.6187
718.20 0.6185
718.30 0.6184
718.40 0.6182
718.50 0.6181
718.60 0.6179
718.70 0.6178
718.80 0.6176
718.90 0.6175
719.00 0.6173
719.10 0.6172
719.20 0.617
719.30 0.6169
719.40 0.6167
719.50 0.6166
719.60 0.6164
719.70 0.6163
719.80 0.6161
719.90 0.6159
720.00 0.6158
720.10 0.6156
720.20 0.6155
720.30 0.6153
720.40 0.6152
720.50 0.615
720.60 0.6149
720.70 0.6147
720.80 0.6146
720.90 0.6144
721.00 0.6142
721.10 0.6141
721.20 0.6139
721.30 0.6138
721.40 0.6136
721.50 0.6135
721.60 0.6133
721.70 0.6132
721.80 0.613
721.90 0.6128
722.00 0.6127
722.10 0.6125
722.20 0.6124
722.30 0.6122
722.40 0.6121
722.50 0.6119
722.60 0.6118
722.70 0.6116
722.80 0.6115
722.90 0.6113
723.00 0.6112
723.10 0.611
723.20 0.6108
723.30 0.6107
723.40 0.6105
723.50 0.6104
723.60 0.6102
723.70 0.6101
723.80 0.6099
723.90 0.6098
724.00 0.6096
724.10 0.6095
724.20 0.6093
724.30 0.6092
724.40 0.609
724.50 0.6089
724.60 0.6087
724.70 0.6085
724.80 0.6084
724.90 0.6082
725.00 0.6081
725.10 0.6079
725.20 0.6078
725.30 0.6076
725.40 0.6075
725.50 0.6073
725.60 0.6072
725.70 0.607
725.80 0.6069
725.90 0.6067
726.00 0.6066
726.10 0.6064
726.20 0.6063
726.30 0.6061
726.40 0.6059
726.50 0.6058
726.60 0.6056
726.70 0.6055
726.80 0.6053
726.90 0.6052
727.00 0.605
727.10 0.6049
727.20 0.6047
727.30 0.6046
727.40 0.6044
727.50 0.6043
727.60 0.6041
727.70 0.604
727.80 0.6038
727.90 0.6037
728.00 0.6035
728.10 0.6034
728.20 0.6032
728.30 0.6031
728.40 0.6029
728.50 0.6028
728.60 0.6026
728.70 0.6025
728.80 0.6023
728.90 0.6022
729.00 0.602
729.10 0.6018
729.20 0.6017
729.30 0.6015
729.40 0.6014
729.50 0.6012
729.60 0.6011
729.70 0.6009
729.80 0.6008
729.90 0.6006
730.00 0.6005
730.10 0.6003
730.20 0.6002
730.30 0.6
730.40 0.5999
730.50 0.5997
730.60 0.5996
730.70 0.5994
730.80 0.5993
730.90 0.5991
731.00 0.599
731.10 0.5988
731.20 0.5987
731.30 0.5985
731.40 0.5984
731.50 0.5982
731.60 0.5981
731.70 0.5979
731.80 0.5977
731.90 0.5976
732.00 0.5974
732.10 0.5973
732.20 0.5971
732.30 0.597
732.40 0.5968
732.50 0.5967
732.60 0.5965
732.70 0.5964
732.80 0.5962
732.90 0.5961
733.00 0.5959
733.10 0.5958
733.20 0.5956
733.30 0.5955
733.40 0.5953
733.50 0.5952
733.60 0.595
733.70 0.5949
733.80 0.5947
733.90 0.5946
734.00 0.5944
734.10 0.5943
734.20 0.5941
734.30 0.594
734.40 0.5938
734.50 0.5937
734.60 0.5935
734.70 0.5934
734.80 0.5932
734.90 0.5931
735.00 0.5929
735.10 0.5928
735.20 0.5926
735.30 0.5925
735.40 0.5923
735.50 0.5922
735.60 0.592
735.70 0.5919
735.80 0.5917
735.90 0.5916
736.00 0.5914
736.10 0.5913
736.20 0.5911
736.30 0.591
736.40 0.5908
736.50 0.5907
736.60 0.5905
736.70 0.5904
736.80 0.5902
736.90 0.5901
737.00 0.5899
737.10 0.5898
737.20 0.5896
737.30 0.5895
737.40 0.5893
737.50 0.5892
737.60 0.589
737.70 0.5889
737.80 0.5887
737.90 0.5886
738.00 0.5884
738.10 0.5883
738.20 0.5881
738.30 0.588
738.40 0.5879
738.50 0.5877
738.60 0.5876
738.70 0.5874
738.80 0.5873
738.90 0.5871
739.00 0.587
739.10 0.5868
739.20 0.5867
739.30 0.5865
739.40 0.5864
739.50 0.5862
739.60 0.5861
739.70 0.5859
739.80 0.5858
739.90 0.5856
740.00 0.5855
740.10 0.5853
740.20 0.5852
740.30 0.585
740.40 0.5849
740.50 0.5847
740.60 0.5846
740.70 0.5844
740.80 0.5843
740.90 0.5841
741.00 0.584
741.10 0.5839
741.20 0.5837
741.30 0.5836
741.40 0.5834
741.50 0.5833
741.60 0.5831
741.70 0.583
741.80 0.5828
741.90 0.5827
742.00 0.5825
742.10 0.5824
742.20 0.5822
742.30 0.5821
742.40 0.5819
742.50 0.5818
742.60 0.5816
742.70 0.5815
742.80 0.5813
742.90 0.5812
743.00 0.581
743.10 0.5809
743.20 0.5807
743.30 0.5806
743.40 0.5804
743.50 0.5803
743.60 0.5801
743.70 0.58
743.80 0.5799
743.90 0.5797
744.00 0.5796
744.10 0.5794
744.20 0.5793
744.30 0.5791
744.40 0.579
744.50 0.5788
744.60 0.5787
744.70 0.5785
744.80 0.5784
744.90 0.5782
745.00 0.5781
745.10 0.5779
745.20 0.5778
745.30 0.5777
745.40 0.5775
745.50 0.5774
745.60 0.5772
745.70 0.5771
745.80 0.5769
745.90 0.5768
746.00 0.5766
746.10 0.5765
746.20 0.5763
746.30 0.5762
746.40 0.576
746.50 0.5759
746.60 0.5758
746.70 0.5756
746.80 0.5755
746.90 0.5753
747.00 0.5752
747.10 0.575
747.20 0.5749
747.30 0.5747
747.40 0.5746
747.50 0.5744
747.60 0.5743
747.70 0.5742
747.80 0.574
747.90 0.5739
748.00 0.5737
748.10 0.5736
748.20 0.5734
748.30 0.5733
748.40 0.5731
748.50 0.573
748.60 0.5729
748.70 0.5727
748.80 0.5726
748.90 0.5724
749.00 0.5723
749.10 0.5721
749.20 0.572
749.30 0.5718
749.40 0.5717
749.50 0.5716
749.60 0.5714
749.70 0.5713
749.80 0.5711
749.90 0.571
750.00 0.5708
750.10 0.5707
750.20 0.5705
750.30 0.5704
750.40 0.5703
750.50 0.5701
750.60 0.57
750.70 0.5698
750.80 0.5697
750.90 0.5695
751.00 0.5694
751.10 0.5692
751.20 0.5691
751.30 0.5689
751.40 0.5688
751.50 0.5687
751.60 0.5685
751.70 0.5684
751.80 0.5682
751.90 0.5681
752.00 0.5679
752.10 0.5678
752.20 0.5676
752.30 0.5675
752.40 0.5674
752.50 0.5672
752.60 0.5671
752.70 0.5669
752.80 0.5668
752.90 0.5666
753.00 0.5665
753.10 0.5664
753.20 0.5662
753.30 0.5661
753.40 0.5659
753.50 0.5658
753.60 0.5656
753.70 0.5655
753.80 0.5653
753.90 0.5652
754.00 0.5651
754.10 0.5649
754.20 0.5648
754.30 0.5646
754.40 0.5645
754.50 0.5643
754.60 0.5642
754.70 0.5641
754.80 0.5639
754.90 0.5638
755.00 0.5636
755.10 0.5635
755.20 0.5633
755.30 0.5632
755.40 0.5631
755.50 0.5629
755.60 0.5628
755.70 0.5626
755.80 0.5625
755.90 0.5623
756.00 0.5622
756.10 0.5621
756.20 0.5619
756.30 0.5618
756.40 0.5616
756.50 0.5615
756.60 0.5614
756.70 0.5612
756.80 0.5611
756.90 0.5609
757.00 0.5608
757.10 0.5606
757.20 0.5605
757.30 0.5604
757.40 0.5602
757.50 0.5601
757.60 0.5599
757.70 0.5598
757.80 0.5597
757.90 0.5595
758.00 0.5594
758.10 0.5592
758.20 0.5591
758.30 0.5589
758.40 0.5588
758.50 0.5587
758.60 0.5585
758.70 0.5584
758.80 0.5582
758.90 0.5581
759.00 0.558
759.10 0.5578
759.20 0.5577
759.30 0.5575
759.40 0.5574
759.50 0.5573
759.60 0.5571
759.70 0.557
759.80 0.5568
759.90 0.5567
760.00 0.5566
760.10 0.5564
760.20 0.5563
760.30 0.5561
760.40 0.556
760.50 0.5558
760.60 0.5557
760.70 0.5556
760.80 0.5554
760.90 0.5553
761.00 0.5551
761.10 0.555
761.20 0.5549
761.30 0.5547
761.40 0.5546
761.50 0.5544
761.60 0.5543
761.70 0.5541
761.80 0.554
761.90 0.5539
762.00 0.5537
762.10 0.5536
762.20 0.5534
762.30 0.5533
762.40 0.5532
762.50 0.553
762.60 0.5529
762.70 0.5527
762.80 0.5526
762.90 0.5525
763.00 0.5523
763.10 0.5522
763.20 0.552
763.30 0.5519
763.40 0.5518
763.50 0.5516
763.60 0.5515
763.70 0.5513
763.80 0.5512
763.90 0.5511
764.00 0.5509
764.10 0.5508
764.20 0.5506
764.30 0.5505
764.40 0.5504
764.50 0.5502
764.60 0.5501
764.70 0.5499
764.80 0.5498
764.90 0.5497
765.00 0.5495
765.10 0.5494
765.20 0.5492
765.30 0.5491
765.40 0.549
765.50 0.5488
765.60 0.5487
765.70 0.5485
765.80 0.5484
765.90 0.5483
766.00 0.5481
766.10 0.548
766.20 0.5478
766.30 0.5477
766.40 0.5476
766.50 0.5474
766.60 0.5473
766.70 0.5471
766.80 0.547
766.90 0.5469
767.00 0.5467
767.10 0.5466
767.20 0.5465
767.30 0.5463
767.40 0.5462
767.50 0.546
767.60 0.5459
767.70 0.5458
767.80 0.5456
767.90 0.5455
768.00 0.5454
768.10 0.5452
768.20 0.5451
768.30 0.5449
768.40 0.5448
768.50 0.5447
768.60 0.5445
768.70 0.5444
768.80 0.5442
768.90 0.5441
769.00 0.544
769.10 0.5438
769.20 0.5437
769.30 0.5436
769.40 0.5434
769.50 0.5433
769.60 0.5432
769.70 0.543
769.80 0.5429
769.90 0.5427
770.00 0.5426
770.10 0.5425
770.20 0.5423
770.30 0.5422
770.40 0.542
770.50 0.5419
770.60 0.5418
770.70 0.5416
770.80 0.5415
770.90 0.5414
771.00 0.5412
771.10 0.5411
771.20 0.5409
771.30 0.5408
771.40 0.5407
771.50 0.5405
771.60 0.5404
771.70 0.5403
771.80 0.5401
771.90 0.54
772.00 0.5398
772.10 0.5397
772.20 0.5396
772.30 0.5394
772.40 0.5393
772.50 0.5392
772.60 0.539
772.70 0.5389
772.80 0.5387
772.90 0.5386
773.00 0.5385
773.10 0.5383
773.20 0.5382
773.30 0.5381
773.40 0.5379
773.50 0.5378
773.60 0.5376
773.70 0.5375
773.80 0.5374
773.90 0.5372
774.00 0.5371
774.10 0.537
774.20 0.5368
774.30 0.5367
774.40 0.5366
774.50 0.5364
774.60 0.5363
774.70 0.5361
774.80 0.536
774.90 0.5359
775.00 0.5357
775.10 0.5356
775.20 0.5355
775.30 0.5353
775.40 0.5352
775.50 0.5351
775.60 0.5349
775.70 0.5348
775.80 0.5346
775.90 0.5345
776.00 0.5344
776.10 0.5342
776.20 0.5341
776.30 0.534
776.40 0.5338
776.50 0.5337
776.60 0.5336
776.70 0.5334
776.80 0.5333
776.90 0.5332
777.00 0.533
777.10 0.5329
777.20 0.5328
777.30 0.5326
777.40 0.5325
777.50 0.5324
777.60 0.5322
777.70 0.5321
777.80 0.5319
777.90 0.5318
778.00 0.5317
778.10 0.5315
778.20 0.5314
778.30 0.5313
778.40 0.5311
778.50 0.531
778.60 0.5309
778.70 0.5307
778.80 0.5306
778.90 0.5305
779.00 0.5303
779.10 0.5302
779.20 0.5301
779.30 0.5299
779.40 0.5298
779.50 0.5297
779.60 0.5295
779.70 0.5294
779.80 0.5293
779.90 0.5291
780.00 0.529
780.10 0.5289
780.20 0.5287
780.30 0.5286
780.40 0.5285
780.50 0.5283
780.60 0.5282
780.70 0.5281
780.80 0.5279
780.90 0.5278
781.00 0.5276
781.10 0.5275
781.20 0.5274
781.30 0.5272
781.40 0.5271
781.50 0.527
781.60 0.5268
781.70 0.5267
781.80 0.5266
781.90 0.5264
782.00 0.5263
782.10 0.5262
782.20 0.526
782.30 0.5259
782.40 0.5258
782.50 0.5256
782.60 0.5255
782.70 0.5254
782.80 0.5252
782.90 0.5251
783.00 0.525
783.10 0.5248
783.20 0.5247
783.30 0.5246
783.40 0.5244
783.50 0.5243
783.60 0.5241
783.70 0.524
783.80 0.5239
783.90 0.5237
784.00 0.5236
784.10 0.5235
784.20 0.5233
784.30 0.5232
784.40 0.5231
784.50 0.5229
784.60 0.5228
784.70 0.5227
784.80 0.5225
784.90 0.5224
785.00 0.5223
785.10 0.5221
785.20 0.522
785.30 0.5219
785.40 0.5217
785.50 0.5216
785.60 0.5215
785.70 0.5214
785.80 0.5212
785.90 0.5211
786.00 0.521
786.10 0.5208
786.20 0.5207
786.30 0.5206
786.40 0.5204
786.50 0.5203
786.60 0.5202
786.70 0.52
786.80 0.5199
786.90 0.5198
787.00 0.5196
787.10 0.5195
787.20 0.5194
787.30 0.5192
787.40 0.5191
787.50 0.519
787.60 0.5188
787.70 0.5187
787.80 0.5186
787.90 0.5184
788.00 0.5183
788.10 0.5182
788.20 0.518
788.30 0.5179
788.40 0.5178
788.50 0.5177
788.60 0.5175
788.70 0.5174
788.80 0.5173
788.90 0.5171
789.00 0.517
789.10 0.5169
789.20 0.5167
789.30 0.5166
789.40 0.5165
789.50 0.5163
789.60 0.5162
789.70 0.5161
789.80 0.516
789.90 0.5158
790.00 0.5157
790.10 0.5156
790.20 0.5154
790.30 0.5153
790.40 0.5152
790.50 0.515
790.60 0.5149
790.70 0.5148
790.80 0.5146
790.90 0.5145
791.00 0.5144
791.10 0.5142
791.20 0.5141
791.30 0.514
791.40 0.5139
791.50 0.5137
791.60 0.5136
791.70 0.5135
791.80 0.5133
791.90 0.5132
792.00 0.5131
792.10 0.5129
792.20 0.5128
792.30 0.5127
792.40 0.5125
792.50 0.5124
792.60 0.5123
792.70 0.5122
792.80 0.512
792.90 0.5119
793.00 0.5118
793.10 0.5116
793.20 0.5115
793.30 0.5114
793.40 0.5112
793.50 0.5111
793.60 0.511
793.70 0.5108
793.80 0.5107
793.90 0.5106
794.00 0.5105
794.10 0.5103
794.20 0.5102
794.30 0.5101
794.40 0.5099
794.50 0.5098
794.60 0.5097
794.70 0.5096
794.80 0.5094
794.90 0.5093
795.00 0.5092
795.10 0.509
795.20 0.5089
795.30 0.5088
795.40 0.5086
795.50 0.5085
795.60 0.5084
795.70 0.5083
795.80 0.5081
795.90 0.508
796.00 0.5079
796.10 0.5077
796.20 0.5076
796.30 0.5075
796.40 0.5074
796.50 0.5072
796.60 0.5071
796.70 0.507
796.80 0.5068
796.90 0.5067
797.00 0.5066
797.10 0.5065
797.20 0.5063
797.30 0.5062
797.40 0.5061
797.50 0.5059
797.60 0.5058
797.70 0.5057
797.80 0.5056
797.90 0.5054
798.00 0.5053
798.10 0.5052
798.20 0.505
798.30 0.5049
798.40 0.5048
798.50 0.5047
798.60 0.5045
798.70 0.5044
798.80 0.5043
798.90 0.5042
799.00 0.504
799.10 0.5039
799.20 0.5038
799.30 0.5036
799.40 0.5035
799.50 0.5034
799.60 0.5033
799.70 0.5031
799.80 0.503
799.90 0.5029
800.00 0.5028
800.10 0.5026
800.20 0.5025
800.30 0.5024
800.40 0.5022
800.50 0.5021
800.60 0.502
800.70 0.5019
800.80 0.5017
800.90 0.5016
801.00 0.5015
801.10 0.5013
801.20 0.5012
801.30 0.5011
801.40 0.501
801.50 0.5008
801.60 0.5007
801.70 0.5006
801.80 0.5004
801.90 0.5003
802.00 0.5002
802.10 0.5001
802.20 0.4999
802.30 0.4998
802.40 0.4997
802.50 0.4996
802.60 0.4994
802.70 0.4993
802.80 0.4992
802.90 0.499
803.00 0.4989
803.10 0.4988
803.20 0.4987
803.30 0.4985
803.40 0.4984
803.50 0.4983
803.60 0.4982
803.70 0.498
803.80 0.4979
803.90 0.4978
804.00 0.4976
804.10 0.4975
804.20 0.4974
804.30 0.4973
804.40 0.4971
804.50 0.497
804.60 0.4969
804.70 0.4968
804.80 0.4966
804.90 0.4965
805.00 0.4964
805.10 0.4963
805.20 0.4961
805.30 0.496
805.40 0.4959
805.50 0.4958
805.60 0.4956
805.70 0.4955
805.80 0.4954
805.90 0.4953
806.00 0.4951
806.10 0.495
806.20 0.4949
806.30 0.4947
806.40 0.4946
806.50 0.4945
806.60 0.4944
806.70 0.4942
806.80 0.4941
806.90 0.494
807.00 0.4939
807.10 0.4937
807.20 0.4936
807.30 0.4935
807.40 0.4934
807.50 0.4932
807.60 0.4931
807.70 0.493
807.80 0.4929
807.90 0.4927
808.00 0.4926
808.10 0.4925
808.20 0.4924
808.30 0.4922
808.40 0.4921
808.50 0.492
808.60 0.4919
808.70 0.4917
808.80 0.4916
808.90 0.4915
809.00 0.4914
809.10 0.4912
809.20 0.4911
809.30 0.491
809.40 0.4909
809.50 0.4908
809.60 0.4906
809.70 0.4905
809.80 0.4904
809.90 0.4903
810.00 0.4901
810.10 0.49
810.20 0.4899
810.30 0.4898
810.40 0.4896
810.50 0.4895
810.60 0.4894
810.70 0.4893
810.80 0.4891
810.90 0.489
811.00 0.4889
811.10 0.4888
811.20 0.4886
811.30 0.4885
811.40 0.4884
811.50 0.4883
811.60 0.4881
811.70 0.488
811.80 0.4879
811.90 0.4878
812.00 0.4876
812.10 0.4875
812.20 0.4874
812.30 0.4873
812.40 0.4871
812.50 0.487
812.60 0.4869
812.70 0.4868
812.80 0.4866
812.90 0.4865
813.00 0.4864
813.10 0.4863
813.20 0.4862
813.30 0.486
813.40 0.4859
813.50 0.4858
813.60 0.4857
813.70 0.4855
813.80 0.4854
813.90 0.4853
814.00 0.4852
814.10 0.485
814.20 0.4849
814.30 0.4848
814.40 0.4847
814.50 0.4846
814.60 0.4844
814.70 0.4843
814.80 0.4842
814.90 0.4841
815.00 0.4839
815.10 0.4838
815.20 0.4837
815.30 0.4836
815.40 0.4834
815.50 0.4833
815.60 0.4832
815.70 0.4831
815.80 0.483
815.90 0.4828
816.00 0.4827
816.10 0.4826
816.20 0.4825
816.30 0.4823
816.40 0.4822
816.50 0.4821
816.60 0.482
816.70 0.4819
816.80 0.4817
816.90 0.4816
817.00 0.4815
817.10 0.4814
817.20 0.4812
817.30 0.4811
817.40 0.481
817.50 0.4809
817.60 0.4808
817.70 0.4806
817.80 0.4805
817.90 0.4804
818.00 0.4803
818.10 0.4802
818.20 0.48
818.30 0.4799
818.40 0.4798
818.50 0.4797
818.60 0.4795
818.70 0.4794
818.80 0.4793
818.90 0.4792
819.00 0.4791
819.10 0.4789
819.20 0.4788
819.30 0.4787
819.40 0.4786
819.50 0.4785
819.60 0.4783
819.70 0.4782
819.80 0.4781
819.90 0.478
820.00 0.4779
820.10 0.4777
820.20 0.4776
820.30 0.4775
820.40 0.4774
820.50 0.4773
820.60 0.4771
820.70 0.477
820.80 0.4769
820.90 0.4768
821.00 0.4767
821.10 0.4765
821.20 0.4764
821.30 0.4763
821.40 0.4762
821.50 0.4761
821.60 0.4759
821.70 0.4758
821.80 0.4757
821.90 0.4756
822.00 0.4755
822.10 0.4753
822.20 0.4752
822.30 0.4751
822.40 0.475
822.50 0.4748
822.60 0.4747
822.70 0.4746
822.80 0.4745
822.90 0.4744
823.00 0.4742
823.10 0.4741
823.20 0.474
823.30 0.4739
823.40 0.4738
823.50 0.4736
823.60 0.4735
823.70 0.4734
823.80 0.4733
823.90 0.4732
824.00 0.473
824.10 0.4729
824.20 0.4728
824.30 0.4727
824.40 0.4726
824.50 0.4724
824.60 0.4723
824.70 0.4722
824.80 0.4721
824.90 0.472
825.00 0.4718
825.10 0.4717
825.20 0.4716
825.30 0.4715
825.40 0.4714
825.50 0.4712
825.60 0.4711
825.70 0.471
825.80 0.4709
825.90 0.4708
826.00 0.4706
826.10 0.4705
826.20 0.4704
826.30 0.4703
826.40 0.4702
826.50 0.47
826.60 0.4699
826.70 0.4698
826.80 0.4697
826.90 0.4696
827.00 0.4694
827.10 0.4693
827.20 0.4692
827.30 0.4691
827.40 0.469
827.50 0.4689
827.60 0.4687
827.70 0.4686
827.80 0.4685
827.90 0.4684
828.00 0.4683
828.10 0.4681
828.20 0.468
828.30 0.4679
828.40 0.4678
828.50 0.4677
828.60 0.4675
828.70 0.4674
828.80 0.4673
828.90 0.4672
829.00 0.4671
829.10 0.467
829.20 0.4668
829.30 0.4667
829.40 0.4666
829.50 0.4665
829.60 0.4664
829.70 0.4663
829.80 0.4661
829.90 0.466
830.00 0.4659
830.10 0.4658
830.20 0.4657
830.30 0.4655
830.40 0.4654
830.50 0.4653
830.60 0.4652
830.70 0.4651
830.80 0.465
830.90 0.4648
831.00 0.4647
831.10 0.4646
831.20 0.4645
831.30 0.4644
831.40 0.4643
831.50 0.4641
831.60 0.464
831.70 0.4639
831.80 0.4638
831.90 0.4637
832.00 0.4636
832.10 0.4634
832.20 0.4633
832.30 0.4632
832.40 0.4631
832.50 0.463
832.60 0.4628
832.70 0.4627
832.80 0.4626
832.90 0.4625
833.00 0.4624
833.10 0.4623
833.20 0.4621
833.30 0.462
833.40 0.4619
833.50 0.4618
833.60 0.4617
833.70 0.4615
833.80 0.4614
833.90 0.4613
834.00 0.4612
834.10 0.4611
834.20 0.461
834.30 0.4608
834.40 0.4607
834.50 0.4606
834.60 0.4605
834.70 0.4604
834.80 0.4603
834.90 0.4601
835.00 0.46
835.10 0.4599
835.20 0.4598
835.30 0.4597
835.40 0.4596
835.50 0.4594
835.60 0.4593
835.70 0.4592
835.80 0.4591
835.90 0.459
836.00 0.4589
836.10 0.4587
836.20 0.4586
836.30 0.4585
836.40 0.4584
836.50 0.4583
836.60 0.4582
836.70 0.458
836.80 0.4579
836.90 0.4578
837.00 0.4577
837.10 0.4576
837.20 0.4575
837.30 0.4573
837.40 0.4572
837.50 0.4571
837.60 0.457
837.70 0.4569
837.80 0.4568
837.90 0.4567
838.00 0.4565
838.10 0.4564
838.20 0.4563
838.30 0.4562
838.40 0.4561
838.50 0.456
838.60 0.4558
838.70 0.4557
838.80 0.4556
838.90 0.4555
839.00 0.4554
839.10 0.4553
839.20 0.4552
839.30 0.455
839.40 0.4549
839.50 0.4548
839.60 0.4547
839.70 0.4546
839.80 0.4545
839.90 0.4544
840.00 0.4542
840.10 0.4541
840.20 0.454
840.30 0.4539
840.40 0.4538
840.50 0.4537
840.60 0.4536
840.70 0.4534
840.80 0.4533
840.90 0.4532
841.00 0.4531
841.10 0.453
841.20 0.4529
841.30 0.4528
841.40 0.4526
841.50 0.4525
841.60 0.4524
841.70 0.4523
841.80 0.4522
841.90 0.4521
842.00 0.452
842.10 0.4519
842.20 0.4517
842.30 0.4516
842.40 0.4515
842.50 0.4514
842.60 0.4513
842.70 0.4512
842.80 0.451
842.90 0.4509
843.00 0.4508
843.10 0.4507
843.20 0.4506
843.30 0.4505
843.40 0.4504
843.50 0.4502
843.60 0.4501
843.70 0.45
843.80 0.4499
843.90 0.4498
844.00 0.4497
844.10 0.4496
844.20 0.4495
844.30 0.4493
844.40 0.4492
844.50 0.4491
844.60 0.449
844.70 0.4489
844.80 0.4488
844.90 0.4487
845.00 0.4485
845.10 0.4484
845.20 0.4483
845.30 0.4482
845.40 0.4481
845.50 0.448
845.60 0.4479
845.70 0.4477
845.80 0.4476
845.90 0.4475
846.00 0.4474
846.10 0.4473
846.20 0.4472
846.30 0.4471
846.40 0.447
846.50 0.4468
846.60 0.4467
846.70 0.4466
846.80 0.4465
846.90 0.4464
847.00 0.4463
847.10 0.4462
847.20 0.446
847.30 0.4459
847.40 0.4458
847.50 0.4457
847.60 0.4456
847.70 0.4455
847.80 0.4454
847.90 0.4453
848.00 0.4451
848.10 0.445
848.20 0.4449
848.30 0.4448
848.40 0.4447
848.50 0.4446
848.60 0.4445
848.70 0.4444
848.80 0.4443
848.90 0.4441
849.00 0.444
849.10 0.4439
849.20 0.4438
849.30 0.4437
849.40 0.4436
849.50 0.4435
849.60 0.4434
849.70 0.4432
849.80 0.4431
849.90 0.443
850.00 0.4429
850.10 0.4428
850.20 0.4427
850.30 0.4426
850.40 0.4425
850.50 0.4424
850.60 0.4422
850.70 0.4421
850.80 0.442
850.90 0.4419
851.00 0.4418
851.10 0.4417
851.20 0.4416
851.30 0.4415
851.40 0.4414
851.50 0.4412
851.60 0.4411
851.70 0.441
851.80 0.4409
851.90 0.4408
852.00 0.4407
852.10 0.4406
852.20 0.4405
852.30 0.4404
852.40 0.4402
852.50 0.4401
852.60 0.44
852.70 0.4399
852.80 0.4398
852.90 0.4397
853.00 0.4396
853.10 0.4395
853.20 0.4393
853.30 0.4392
853.40 0.4391
853.50 0.439
853.60 0.4389
853.70 0.4388
853.80 0.4387
853.90 0.4386
854.00 0.4385
854.10 0.4384
854.20 0.4382
854.30 0.4381
854.40 0.438
854.50 0.4379
854.60 0.4378
854.70 0.4377
854.80 0.4376
854.90 0.4375
855.00 0.4374
855.10 0.4372
855.20 0.4371
855.30 0.437
855.40 0.4369
855.50 0.4368
855.60 0.4367
855.70 0.4366
855.80 0.4365
855.90 0.4364
856.00 0.4363
856.10 0.4361
856.20 0.436
856.30 0.4359
856.40 0.4358
856.50 0.4357
856.60 0.4356
856.70 0.4355
856.80 0.4354
856.90 0.4353
857.00 0.4352
857.10 0.435
857.20 0.4349
857.30 0.4348
857.40 0.4347
857.50 0.4346
857.60 0.4345
857.70 0.4344
857.80 0.4343
857.90 0.4342
858.00 0.4341
858.10 0.4339
858.20 0.4338
858.30 0.4337
858.40 0.4336
858.50 0.4335
858.60 0.4334
858.70 0.4333
858.80 0.4332
858.90 0.4331
859.00 0.433
859.10 0.4329
859.20 0.4327
859.30 0.4326
859.40 0.4325
859.50 0.4324
859.60 0.4323
859.70 0.4322
859.80 0.4321
859.90 0.432
860.00 0.4319
860.10 0.4318
860.20 0.4316
860.30 0.4315
860.40 0.4314
860.50 0.4313
860.60 0.4312
860.70 0.4311
860.80 0.431
860.90 0.4309
861.00 0.4308
861.10 0.4307
861.20 0.4306
861.30 0.4305
861.40 0.4303
861.50 0.4302
861.60 0.4301
861.70 0.43
861.80 0.4299
861.90 0.4298
862.00 0.4297
862.10 0.4296
862.20 0.4295
862.30 0.4294
862.40 0.4293
862.50 0.4292
862.60 0.429
862.70 0.4289
862.80 0.4288
862.90 0.4287
863.00 0.4286
863.10 0.4285
863.20 0.4284
863.30 0.4283
863.40 0.4282
863.50 0.4281
863.60 0.428
863.70 0.4279
863.80 0.4278
863.90 0.4276
864.00 0.4275
864.10 0.4274
864.20 0.4273
864.30 0.4272
864.40 0.4271
864.50 0.427
864.60 0.4269
864.70 0.4268
864.80 0.4267
864.90 0.4266
865.00 0.4265
865.10 0.4264
865.20 0.4262
865.30 0.4261
865.40 0.426
865.50 0.4259
865.60 0.4258
865.70 0.4257
865.80 0.4256
865.90 0.4255
866.00 0.4254
866.10 0.4253
866.20 0.4252
866.30 0.4251
866.40 0.425
866.50 0.4249
866.60 0.4248
866.70 0.4246
866.80 0.4245
866.90 0.4244
867.00 0.4243
867.10 0.4242
867.20 0.4241
867.30 0.424
867.40 0.4239
867.50 0.4238
867.60 0.4237
867.70 0.4236
867.80 0.4235
867.90 0.4234
868.00 0.4233
868.10 0.4231
868.20 0.423
868.30 0.4229
868.40 0.4228
868.50 0.4227
868.60 0.4226
868.70 0.4225
868.80 0.4224
868.90 0.4223
869.00 0.4222
869.10 0.4221
869.20 0.422
869.30 0.4219
869.40 0.4218
869.50 0.4217
869.60 0.4216
869.70 0.4214
869.80 0.4213
869.90 0.4212
870.00 0.4211
870.10 0.421
870.20 0.4209
870.30 0.4208
870.40 0.4207
870.50 0.4206
870.60 0.4205
870.70 0.4204
870.80 0.4203
870.90 0.4202
871.00 0.4201
871.10 0.42
871.20 0.4199
871.30 0.4198
871.40 0.4196
871.50 0.4195
871.60 0.4194
871.70 0.4193
871.80 0.4192
871.90 0.4191
872.00 0.419
872.10 0.4189
872.20 0.4188
872.30 0.4187
872.40 0.4186
872.50 0.4185
872.60 0.4184
872.70 0.4183
872.80 0.4182
872.90 0.4181
873.00 0.418
873.10 0.4179
873.20 0.4177
873.30 0.4176
873.40 0.4175
873.50 0.4174
873.60 0.4173
873.70 0.4172
873.80 0.4171
873.90 0.417
874.00 0.4169
874.10 0.4168
874.20 0.4167
874.30 0.4166
874.40 0.4165
874.50 0.4164
874.60 0.4163
874.70 0.4162
874.80 0.4161
874.90 0.416
875.00 0.4159
875.10 0.4158
875.20 0.4156
875.30 0.4155
875.40 0.4154
875.50 0.4153
875.60 0.4152
875.70 0.4151
875.80 0.415
875.90 0.4149
876.00 0.4148
876.10 0.4147
876.20 0.4146
876.30 0.4145
876.40 0.4144
876.50 0.4143
876.60 0.4142
876.70 0.4141
876.80 0.414
876.90 0.4139
877.00 0.4138
877.10 0.4137
877.20 0.4136
877.30 0.4135
877.40 0.4134
877.50 0.4132
877.60 0.4131
877.70 0.413
877.80 0.4129
877.90 0.4128
878.00 0.4127
878.10 0.4126
878.20 0.4125
878.30 0.4124
878.40 0.4123
878.50 0.4122
878.60 0.4121
878.70 0.412
878.80 0.4119
878.90 0.4118
879.00 0.4117
879.10 0.4116
879.20 0.4115
879.30 0.4114
879.40 0.4113
879.50 0.4112
879.60 0.4111
879.70 0.411
879.80 0.4109
879.90 0.4108
880.00 0.4107
880.10 0.4106
880.20 0.4105
880.30 0.4104
880.40 0.4103
880.50 0.4101
880.60 0.41
880.70 0.4099
880.80 0.4098
880.90 0.4097
881.00 0.4096
881.10 0.4095
881.20 0.4094
881.30 0.4093
881.40 0.4092
881.50 0.4091
881.60 0.409
881.70 0.4089
881.80 0.4088
881.90 0.4087
882.00 0.4086
882.10 0.4085
882.20 0.4084
882.30 0.4083
882.40 0.4082
882.50 0.4081
882.60 0.408
882.70 0.4079
882.80 0.4078
882.90 0.4077
883.00 0.4076
883.10 0.4075
883.20 0.4074
883.30 0.4073
883.40 0.4072
883.50 0.4071
883.60 0.407
883.70 0.4069
883.80 0.4068
883.90 0.4067
884.00 0.4066
884.10 0.4065
884.20 0.4064
884.30 0.4063
884.40 0.4062
884.50 0.4061
884.60 0.406
884.70 0.4059
884.80 0.4058
884.90 0.4057
885.00 0.4056
885.10 0.4055
885.20 0.4054
885.30 0.4053
885.40 0.4052
885.50 0.4051
885.60 0.405
885.70 0.4049
885.80 0.4047
885.90 0.4046
886.00 0.4045
886.10 0.4044
886.20 0.4043
886.30 0.4042
886.40 0.4041
886.50 0.404
886.60 0.4039
886.70 0.4038
886.80 0.4037
886.90 0.4036
887.00 0.4035
887.10 0.4034
887.20 0.4033
887.30 0.4032
887.40 0.4031
887.50 0.403
887.60 0.4029
887.70 0.4028
887.80 0.4027
887.90 0.4026
888.00 0.4025
888.10 0.4024
888.20 0.4023
888.30 0.4022
888.40 0.4021
888.50 0.402
888.60 0.4019
888.70 0.4018
888.80 0.4017
888.90 0.4016
889.00 0.4015
889.10 0.4014
889.20 0.4013
889.30 0.4012
889.40 0.4011
889.50 0.401
889.60 0.4009
889.70 0.4008
889.80 0.4007
889.90 0.4006
890.00 0.4005
890.10 0.4004
890.20 0.4003
890.30 0.4002
890.40 0.4001
890.50 0.4
890.60 0.3999
890.70 0.3998
890.80 0.3997
890.90 0.3996
891.00 0.3995
891.10 0.3994
891.20 0.3993
891.30 0.3992
891.40 0.3991
891.50 0.399
891.60 0.3989
891.70 0.3988
891.80 0.3987
891.90 0.3986
892.00 0.3985
892.10 0.3984
892.20 0.3983
892.30 0.3982
892.40 0.3981
892.50 0.398
892.60 0.3979
892.70 0.3978
892.80 0.3977
892.90 0.3976
893.00 0.3975
893.10 0.3974
893.20 0.3973
893.30 0.3972
893.40 0.3971
893.50 0.397
893.60 0.3969
893.70 0.3968
893.80 0.3967
893.90 0.3966
894.00 0.3965
894.10 0.3964
894.20 0.3963
894.30 0.3962
894.40 0.3961
894.50 0.396
894.60 0.3959
894.70 0.3958
894.80 0.3957
894.90 0.3956
895.00 0.3955
895.10 0.3954
895.20 0.3953
895.30 0.3952
895.40 0.3951
895.50 0.395
895.60 0.3949
895.70 0.3948
895.80 0.3947
895.90 0.3946
896.00 0.3946
896.10 0.3945
896.20 0.3944
896.30 0.3943
896.40 0.3942
896.50 0.3941
896.60 0.394
896.70 0.3939
896.80 0.3938
896.90 0.3937
897.00 0.3936
897.10 0.3935
897.20 0.3934
897.30 0.3933
897.40 0.3932
897.50 0.3931
897.60 0.393
897.70 0.3929
897.80 0.3928
897.90 0.3927
898.00 0.3926
898.10 0.3925
898.20 0.3924
898.30 0.3923
898.40 0.3922
898.50 0.3921
898.60 0.392
898.70 0.3919
898.80 0.3918
898.90 0.3917
899.00 0.3916
899.10 0.3915
899.20 0.3914
899.30 0.3913
899.40 0.3912
899.50 0.3911
899.60 0.391
899.70 0.3909
899.80 0.3908
899.90 0.3907
900.00 0.3906
900.10 0.3905
900.20 0.3904
900.30 0.3903
900.40 0.3902
900.50 0.3901
900.60 0.39
900.70 0.3899
900.80 0.3899
900.90 0.3898
901.00 0.3897
901.10 0.3896
901.20 0.3895
901.30 0.3894
901.40 0.3893
901.50 0.3892
901.60 0.3891
901.70 0.389
901.80 0.3889
901.90 0.3888
902.00 0.3887
902.10 0.3886
902.20 0.3885
902.30 0.3884
902.40 0.3883
902.50 0.3882
902.60 0.3881
902.70 0.388
902.80 0.3879
902.90 0.3878
903.00 0.3877
903.10 0.3876
903.20 0.3875
903.30 0.3874
903.40 0.3873
903.50 0.3872
903.60 0.3871
903.70 0.387
903.80 0.3869
903.90 0.3868
904.00 0.3867
904.10 0.3867
904.20 0.3866
904.30 0.3865
904.40 0.3864
904.50 0.3863
904.60 0.3862
904.70 0.3861
904.80 0.386
904.90 0.3859
905.00 0.3858
905.10 0.3857
905.20 0.3856
905.30 0.3855
905.40 0.3854
905.50 0.3853
905.60 0.3852
905.70 0.3851
905.80 0.385
905.90 0.3849
906.00 0.3848
906.10 0.3847
906.20 0.3846
906.30 0.3845
906.40 0.3844
906.50 0.3843
906.60 0.3842
906.70 0.3842
906.80 0.3841
906.90 0.384
907.00 0.3839
907.10 0.3838
907.20 0.3837
907.30 0.3836
907.40 0.3835
907.50 0.3834
907.60 0.3833
907.70 0.3832
907.80 0.3831
907.90 0.383
908.00 0.3829
908.10 0.3828
908.20 0.3827
908.30 0.3826
908.40 0.3825
908.50 0.3824
908.60 0.3823
908.70 0.3822
908.80 0.3821
908.90 0.3821
909.00 0.382
909.10 0.3819
909.20 0.3818
909.30 0.3817
909.40 0.3816
909.50 0.3815
909.60 0.3814
909.70 0.3813
909.80 0.3812
909.90 0.3811
910.00 0.381
910.10 0.3809
910.20 0.3808
910.30 0.3807
910.40 0.3806
910.50 0.3805
910.60 0.3804
910.70 0.3803
910.80 0.3803
910.90 0.3802
911.00 0.3801
911.10 0.38
911.20 0.3799
911.30 0.3798
911.40 0.3797
911.50 0.3796
911.60 0.3795
911.70 0.3794
911.80 0.3793
911.90 0.3792
912.00 0.3791
912.10 0.379
912.20 0.3789
912.30 0.3788
912.40 0.3787
912.50 0.3787
912.60 0.3786
912.70 0.3785
912.80 0.3784
912.90 0.3783
913.00 0.3782
913.10 0.3781
913.20 0.378
913.30 0.3779
913.40 0.3778
913.50 0.3777
913.60 0.3776
913.70 0.3775
913.80 0.3774
913.90 0.3773
914.00 0.3772
914.10 0.3772
914.20 0.3771
914.30 0.377
914.40 0.3769
914.50 0.3768
914.60 0.3767
914.70 0.3766
914.80 0.3765
914.90 0.3764
915.00 0.3763
915.10 0.3762
915.20 0.3761
915.30 0.376
915.40 0.3759
915.50 0.3758
915.60 0.3758
915.70 0.3757
915.80 0.3756
915.90 0.3755
916.00 0.3754
916.10 0.3753
916.20 0.3752
916.30 0.3751
916.40 0.375
916.50 0.3749
916.60 0.3748
916.70 0.3747
916.80 0.3746
916.90 0.3746
917.00 0.3745
917.10 0.3744
917.20 0.3743
917.30 0.3742
917.40 0.3741
917.50 0.374
917.60 0.3739
917.70 0.3738
917.80 0.3737
917.90 0.3736
918.00 0.3735
918.10 0.3734
918.20 0.3733
918.30 0.3733
918.40 0.3732
918.50 0.3731
918.60 0.373
918.70 0.3729
918.80 0.3728
918.90 0.3727
919.00 0.3726
919.10 0.3725
919.20 0.3724
919.30 0.3723
919.40 0.3722
919.50 0.3721
919.60 0.372
919.70 0.372
919.80 0.3719
919.90 0.3718
920.00 0.3717
920.10 0.3716
920.20 0.3715
920.30 0.3714
920.40 0.3713
920.50 0.3712
920.60 0.3711
920.70 0.371
920.80 0.3709
920.90 0.3709
921.00 0.3708
921.10 0.3707
921.20 0.3706
921.30 0.3705
921.40 0.3704
921.50 0.3703
921.60 0.3702
921.70 0.3701
921.80 0.37
921.90 0.3699
922.00 0.3698
922.10 0.3698
922.20 0.3697
922.30 0.3696
922.40 0.3695
922.50 0.3694
922.60 0.3693
922.70 0.3692
922.80 0.3691
922.90 0.369
923.00 0.3689
923.10 0.3688
923.20 0.3687
923.30 0.3687
923.40 0.3686
923.50 0.3685
923.60 0.3684
923.70 0.3683
923.80 0.3682
923.90 0.3681
924.00 0.368
924.10 0.3679
924.20 0.3678
924.30 0.3677
924.40 0.3677
924.50 0.3676
924.60 0.3675
924.70 0.3674
924.80 0.3673
924.90 0.3672
925.00 0.3671
925.10 0.367
925.20 0.3669
925.30 0.3668
925.40 0.3667
925.50 0.3667
925.60 0.3666
925.70 0.3665
925.80 0.3664
925.90 0.3663
926.00 0.3662
926.10 0.3661
926.20 0.366
926.30 0.3659
926.40 0.3658
926.50 0.3658
926.60 0.3657
926.70 0.3656
926.80 0.3655
926.90 0.3654
927.00 0.3653
927.10 0.3652
927.20 0.3651
927.30 0.365
927.40 0.3649
927.50 0.3649
927.60 0.3648
927.70 0.3647
927.80 0.3646
927.90 0.3645
928.00 0.3644
928.10 0.3643
928.20 0.3642
928.30 0.3641
928.40 0.364
928.50 0.3639
928.60 0.3639
928.70 0.3638
928.80 0.3637
928.90 0.3636
929.00 0.3635
929.10 0.3634
929.20 0.3633
929.30 0.3632
929.40 0.3631
929.50 0.363
929.60 0.363
929.70 0.3629
929.80 0.3628
929.90 0.3627
930.00 0.3626
930.10 0.3625
930.20 0.3624
930.30 0.3623
930.40 0.3622
930.50 0.3622
930.60 0.3621
930.70 0.362
930.80 0.3619
930.90 0.3618
931.00 0.3617
931.10 0.3616
931.20 0.3615
931.30 0.3614
931.40 0.3613
931.50 0.3613
931.60 0.3612
931.70 0.3611
931.80 0.361
931.90 0.3609
932.00 0.3608
932.10 0.3607
932.20 0.3606
932.30 0.3605
932.40 0.3605
932.50 0.3604
932.60 0.3603
932.70 0.3602
932.80 0.3601
932.90 0.36
933.00 0.3599
933.10 0.3598
933.20 0.3597
933.30 0.3597
933.40 0.3596
933.50 0.3595
933.60 0.3594
933.70 0.3593
933.80 0.3592
933.90 0.3591
934.00 0.359
934.10 0.3589
934.20 0.3589
934.30 0.3588
934.40 0.3587
934.50 0.3586
934.60 0.3585
934.70 0.3584
934.80 0.3583
934.90 0.3582
935.00 0.3581
935.10 0.3581
935.20 0.358
935.30 0.3579
935.40 0.3578
935.50 0.3577
935.60 0.3576
935.70 0.3575
935.80 0.3574
935.90 0.3574
936.00 0.3573
936.10 0.3572
936.20 0.3571
936.30 0.357
936.40 0.3569
936.50 0.3568
936.60 0.3567
936.70 0.3567
936.80 0.3566
936.90 0.3565
937.00 0.3564
937.10 0.3563
937.20 0.3562
937.30 0.3561
937.40 0.356
937.50 0.356
937.60 0.3559
937.70 0.3558
937.80 0.3557
937.90 0.3556
938.00 0.3555
938.10 0.3554
938.20 0.3553
938.30 0.3553
938.40 0.3552
938.50 0.3551
938.60 0.355
938.70 0.3549
938.80 0.3548
938.90 0.3547
939.00 0.3546
939.10 0.3546
939.20 0.3545
939.30 0.3544
939.40 0.3543
939.50 0.3542
939.60 0.3541
939.70 0.354
939.80 0.3539
939.90 0.3539
940.00 0.3538
940.10 0.3537
940.20 0.3536
940.30 0.3535
940.40 0.3534
940.50 0.3533
940.60 0.3532
940.70 0.3532
940.80 0.3531
940.90 0.353
941.00 0.3529
941.10 0.3528
941.20 0.3527
941.30 0.3526
941.40 0.3525
941.50 0.3525
941.60 0.3524
941.70 0.3523
941.80 0.3522
941.90 0.3521
942.00 0.352
942.10 0.3519
942.20 0.3519
942.30 0.3518
942.40 0.3517
942.50 0.3516
942.60 0.3515
942.70 0.3514
942.80 0.3513
942.90 0.3512
943.00 0.3512
943.10 0.3511
943.20 0.351
943.30 0.3509
943.40 0.3508
943.50 0.3507
943.60 0.3506
943.70 0.3506
943.80 0.3505
943.90 0.3504
944.00 0.3503
944.10 0.3502
944.20 0.3501
944.30 0.35
944.40 0.35
944.50 0.3499
944.60 0.3498
944.70 0.3497
944.80 0.3496
944.90 0.3495
945.00 0.3494
945.10 0.3494
945.20 0.3493
945.30 0.3492
945.40 0.3491
945.50 0.349
945.60 0.3489
945.70 0.3488
945.80 0.3487
945.90 0.3487
946.00 0.3486
946.10 0.3485
946.20 0.3484
946.30 0.3483
946.40 0.3482
946.50 0.3481
946.60 0.3481
946.70 0.348
946.80 0.3479
946.90 0.3478
947.00 0.3477
947.10 0.3476
947.20 0.3476
947.30 0.3475
947.40 0.3474
947.50 0.3473
947.60 0.3472
947.70 0.3471
947.80 0.347
947.90 0.347
948.00 0.3469
948.10 0.3468
948.20 0.3467
948.30 0.3466
948.40 0.3465
948.50 0.3464
948.60 0.3464
948.70 0.3463
948.80 0.3462
948.90 0.3461
949.00 0.346
949.10 0.3459
949.20 0.3459
949.30 0.3458
949.40 0.3457
949.50 0.3456
949.60 0.3455
949.70 0.3454
949.80 0.3453
949.90 0.3453
950.00 0.3452
950.10 0.3451
950.20 0.345
950.30 0.3449
950.40 0.3448
950.50 0.3448
950.60 0.3447
950.70 0.3446
950.80 0.3445
950.90 0.3444
951.00 0.3443
951.10 0.3442
951.20 0.3442
951.30 0.3441
951.40 0.344
951.50 0.3439
951.60 0.3438
951.70 0.3437
951.80 0.3437
951.90 0.3436
952.00 0.3435
952.10 0.3434
952.20 0.3433
952.30 0.3432
952.40 0.3431
952.50 0.3431
952.60 0.343
952.70 0.3429
952.80 0.3428
952.90 0.3427
953.00 0.3426
953.10 0.3425
953.20 0.3425
953.30 0.3424
953.40 0.3423
953.50 0.3422
953.60 0.3421
953.70 0.342
953.80 0.3419
953.90 0.3419
954.00 0.3418
954.10 0.3417
954.20 0.3416
954.30 0.3415
954.40 0.3414
954.50 0.3413
954.60 0.3413
954.70 0.3412
954.80 0.3411
954.90 0.341
955.00 0.3409
955.10 0.3409
955.20 0.3408
955.30 0.3407
955.40 0.3406
955.50 0.3405
955.60 0.3405
955.70 0.3404
955.80 0.3403
955.90 0.3402
956.00 0.3401
956.10 0.34
956.20 0.34
956.30 0.3399
956.40 0.3398
956.50 0.3397
956.60 0.3396
956.70 0.3395
956.80 0.3395
956.90 0.3394
957.00 0.3393
957.10 0.3392
957.20 0.3391
957.30 0.3391
957.40 0.339
957.50 0.3389
957.60 0.3388
957.70 0.3387
957.80 0.3386
957.90 0.3386
958.00 0.3385
958.10 0.3384
958.20 0.3383
958.30 0.3382
958.40 0.3381
958.50 0.3381
958.60 0.338
958.70 0.3379
958.80 0.3378
958.90 0.3377
959.00 0.3377
959.10 0.3376
959.20 0.3375
959.30 0.3374
959.40 0.3373
959.50 0.3372
959.60 0.3372
959.70 0.3371
959.80 0.337
959.90 0.3369
960.00 0.3368
960.10 0.3367
960.20 0.3367
960.30 0.3366
960.40 0.3365
960.50 0.3364
960.60 0.3363
960.70 0.3362
960.80 0.3362
960.90 0.3361
961.00 0.336
961.10 0.3359
961.20 0.3358
961.30 0.3357
961.40 0.3357
961.50 0.3356
961.60 0.3355
961.70 0.3354
961.80 0.3353
961.90 0.3353
962.00 0.3352
962.10 0.3351
962.20 0.335
962.30 0.3349
962.40 0.3348
962.50 0.3348
962.60 0.3347
962.70 0.3346
962.80 0.3345
962.90 0.3344
963.00 0.3344
963.10 0.3343
963.20 0.3342
963.30 0.3341
963.40 0.334
963.50 0.334
963.60 0.3339
963.70 0.3338
963.80 0.3337
963.90 0.3336
964.00 0.3336
964.10 0.3335
964.20 0.3334
964.30 0.3333
964.40 0.3332
964.50 0.3332
964.60 0.3331
964.70 0.333
964.80 0.3329
964.90 0.3328
965.00 0.3327
965.10 0.3327
965.20 0.3326
965.30 0.3325
965.40 0.3324
965.50 0.3323
965.60 0.3323
965.70 0.3322
965.80 0.3321
965.90 0.332
966.00 0.3319
966.10 0.3318
966.20 0.3318
966.30 0.3317
966.40 0.3316
966.50 0.3315
966.60 0.3314
966.70 0.3314
966.80 0.3313
966.90 0.3312
967.00 0.3311
967.10 0.331
967.20 0.331
967.30 0.3309
967.40 0.3308
967.50 0.3307
967.60 0.3306
967.70 0.3306
967.80 0.3305
967.90 0.3304
968.00 0.3303
968.10 0.3302
968.20 0.3302
968.30 0.3301
968.40 0.33
968.50 0.3299
968.60 0.3298
968.70 0.3298
968.80 0.3297
968.90 0.3296
969.00 0.3295
969.10 0.3294
969.20 0.3294
969.30 0.3293
969.40 0.3292
969.50 0.3291
969.60 0.329
969.70 0.329
969.80 0.3289
969.90 0.3288
970.00 0.3287
970.10 0.3286
970.20 0.3285
970.30 0.3285
970.40 0.3284
970.50 0.3283
970.60 0.3282
970.70 0.3282
970.80 0.3281
970.90 0.328
971.00 0.3279
971.10 0.3278
971.20 0.3278
971.30 0.3277
971.40 0.3276
971.50 0.3275
971.60 0.3274
971.70 0.3274
971.80 0.3273
971.90 0.3272
972.00 0.3271
972.10 0.327
972.20 0.327
972.30 0.3269
972.40 0.3268
972.50 0.3267
972.60 0.3266
972.70 0.3266
972.80 0.3265
972.90 0.3264
973.00 0.3263
973.10 0.3262
973.20 0.3262
973.30 0.3261
973.40 0.326
973.50 0.3259
973.60 0.3259
973.70 0.3258
973.80 0.3257
973.90 0.3256
974.00 0.3255
974.10 0.3255
974.20 0.3254
974.30 0.3253
974.40 0.3252
974.50 0.3251
974.60 0.3251
974.70 0.325
974.80 0.3249
974.90 0.3248
975.00 0.3247
975.10 0.3247
975.20 0.3246
975.30 0.3245
975.40 0.3244
975.50 0.3244
975.60 0.3243
975.70 0.3242
975.80 0.3241
975.90 0.324
976.00 0.324
976.10 0.3239
976.20 0.3238
976.30 0.3237
976.40 0.3236
976.50 0.3236
976.60 0.3235
976.70 0.3234
976.80 0.3233
976.90 0.3232
977.00 0.3232
977.10 0.3231
977.20 0.323
977.30 0.3229
977.40 0.3229
977.50 0.3228
977.60 0.3227
977.70 0.3226
977.80 0.3225
977.90 0.3225
978.00 0.3224
978.10 0.3223
978.20 0.3222
978.30 0.3222
978.40 0.3221
978.50 0.322
978.60 0.3219
978.70 0.3218
978.80 0.3218
978.90 0.3217
979.00 0.3216
979.10 0.3215
979.20 0.3214
979.30 0.3214
979.40 0.3213
979.50 0.3212
979.60 0.3211
979.70 0.3211
979.80 0.321
979.90 0.3209
980.00 0.3208
980.10 0.3207
980.20 0.3207
980.30 0.3206
980.40 0.3205
980.50 0.3204
980.60 0.3204
980.70 0.3203
980.80 0.3202
980.90 0.3201
981.00 0.3201
981.10 0.32
981.20 0.3199
981.30 0.3198
981.40 0.3197
981.50 0.3197
981.60 0.3196
981.70 0.3195
981.80 0.3194
981.90 0.3194
982.00 0.3193
982.10 0.3192
982.20 0.3191
982.30 0.319
982.40 0.319
982.50 0.3189
982.60 0.3188
982.70 0.3187
982.80 0.3187
982.90 0.3186
983.00 0.3185
983.10 0.3184
983.20 0.3183
983.30 0.3183
983.40 0.3182
983.50 0.3181
983.60 0.318
983.70 0.318
983.80 0.3179
983.90 0.3178
984.00 0.3177
984.10 0.3177
984.20 0.3176
984.30 0.3175
984.40 0.3174
984.50 0.3173
984.60 0.3173
984.70 0.3172
984.80 0.3171
984.90 0.317
985.00 0.317
985.10 0.3169
985.20 0.3168
985.30 0.3167
985.40 0.3167
985.50 0.3166
985.60 0.3165
985.70 0.3164
985.80 0.3164
985.90 0.3163
986.00 0.3162
986.10 0.3161
986.20 0.3161
986.30 0.316
986.40 0.3159
986.50 0.3158
986.60 0.3158
986.70 0.3157
986.80 0.3156
986.90 0.3155
987.00 0.3154
987.10 0.3154
987.20 0.3153
987.30 0.3152
987.40 0.3151
987.50 0.3151
987.60 0.315
987.70 0.3149
987.80 0.3148
987.90 0.3148
988.00 0.3147
988.10 0.3146
988.20 0.3145
988.30 0.3144
988.40 0.3144
988.50 0.3143
988.60 0.3142
988.70 0.3141
988.80 0.3141
988.90 0.314
989.00 0.3139
989.10 0.3138
989.20 0.3138
989.30 0.3137
989.40 0.3136
989.50 0.3135
989.60 0.3135
989.70 0.3134
989.80 0.3133
989.90 0.3132
990.00 0.3132
990.10 0.3131
990.20 0.313
990.30 0.3129
990.40 0.3129
990.50 0.3128
990.60 0.3127
990.70 0.3126
990.80 0.3126
990.90 0.3125
991.00 0.3124
991.10 0.3123
991.20 0.3123
991.30 0.3122
991.40 0.3121
991.50 0.312
991.60 0.312
991.70 0.3119
991.80 0.3118
991.90 0.3117
992.00 0.3117
992.10 0.3116
992.20 0.3115
992.30 0.3114
992.40 0.3113
992.50 0.3113
992.60 0.3112
992.70 0.3111
992.80 0.311
992.90 0.311
993.00 0.3109
993.10 0.3108
993.20 0.3107
993.30 0.3107
993.40 0.3106
993.50 0.3105
993.60 0.3104
993.70 0.3104
993.80 0.3103
993.90 0.3102
994.00 0.3102
994.10 0.3101
994.20 0.31
994.30 0.3099
994.40 0.3099
994.50 0.3098
994.60 0.3097
994.70 0.3096
994.80 0.3096
994.90 0.3095
995.00 0.3094
995.10 0.3093
995.20 0.3093
995.30 0.3092
995.40 0.3091
995.50 0.309
995.60 0.3089
995.70 0.3089
995.80 0.3088
995.90 0.3087
996.00 0.3087
996.10 0.3086
996.20 0.3085
996.30 0.3084
996.40 0.3084
996.50 0.3083
996.60 0.3082
996.70 0.3081
996.80 0.3081
996.90 0.308
997.00 0.3079
997.10 0.3078
997.20 0.3078
997.30 0.3077
997.40 0.3076
997.50 0.3075
997.60 0.3075
997.70 0.3074
997.80 0.3073
997.90 0.3072
998.00 0.3072
998.10 0.3071
998.20 0.307
998.30 0.307
998.40 0.3069
998.50 0.3068
998.60 0.3067
998.70 0.3067
998.80 0.3066
998.90 0.3065
999.00 0.3064
999.10 0.3064
999.20 0.3063
999.30 0.3062
999.40 0.3061
999.50 0.3061
999.60 0.306
999.70 0.3059
999.80 0.3058
999.90 0.3058
1000.00 0.3057
1000.10 0.3056
1000.20 0.3055
1000.30 0.3055
1000.40 0.3054
1000.50 0.3053
1000.60 0.3052
1000.70 0.3052
1000.80 0.3051
1000.90 0.305
1001.00 0.3049
1001.10 0.3049
1001.20 0.3048
1001.30 0.3047
1001.40 0.3046
1001.50 0.3046
1001.60 0.3045
1001.70 0.3044
1001.80 0.3043
1001.90 0.3043
1002.00 0.3042
1002.10 0.3041
1002.20 0.304
1002.30 0.304
1002.40 0.3039
1002.50 0.3038
1002.60 0.3037
1002.70 0.3036
1002.80 0.3036
1002.90 0.3035
1003.00 0.3034
1003.10 0.3033
1003.20 0.3033
1003.30 0.3032
1003.40 0.3031
1003.50 0.303
1003.60 0.3029
1003.70 0.3028
1003.80 0.3028
1003.90 0.3027
1004.00 0.3026
1004.10 0.3025
1004.20 0.3024
1004.30 0.3023
1004.40 0.3022
1004.50 0.3021
1004.60 0.3021
1004.70 0.302
1004.80 0.302
1004.90 0.3019
1005.00 0.3018
1005.10 0.3018
1005.20 0.3017
1005.30 0.3017
1005.40 0.3016
1005.50 0.3015
1005.60 0.3015
1005.70 0.3014
1005.80 0.3014
1005.90 0.3013
1006.00 0.3012
1006.10 0.3012
1006.20 0.3011
1006.30 0.301
1006.40 0.301
1006.50 0.3009
1006.60 0.3008
1006.70 0.3007
1006.80 0.3007
1006.90 0.3006
1007.00 0.3005
1007.10 0.3005
1007.20 0.3004
1007.30 0.3003
1007.40 0.3003
1007.50 0.3002
1007.60 0.3001
1007.70 0.3001
1007.80 0.3
1007.90 0.2999
1008.00 0.2999
1008.10 0.2998
1008.20 0.2997
1008.30 0.2996
1008.40 0.2996
1008.50 0.2995
1008.60 0.2994
1008.70 0.2994
1008.80 0.2993
1008.90 0.2992
1009.00 0.2992
1009.10 0.2991
1009.20 0.299
1009.30 0.2989
1009.40 0.2989
1009.50 0.2988
1009.60 0.2987
1009.70 0.2987
1009.80 0.2986
1009.90 0.2985
1010.00 0.2985
1010.10 0.2984
1010.20 0.2983
1010.30 0.2982
1010.40 0.2982
1010.50 0.2981
1010.60 0.298
1010.70 0.298
1010.80 0.2979
1010.90 0.2978
1011.00 0.2977
1011.10 0.2977
1011.20 0.2976
1011.30 0.2975
1011.40 0.2975
1011.50 0.2974
1011.60 0.2973
1011.70 0.2973
1011.80 0.2972
1011.90 0.2971
1012.00 0.297
1012.10 0.297
1012.20 0.2969
1012.30 0.2968
1012.40 0.2968
1012.50 0.2967
1012.60 0.2966
1012.70 0.2965
1012.80 0.2965
1012.90 0.2964
1013.00 0.2963
1013.10 0.2963
1013.20 0.2962
1013.30 0.2961
1013.40 0.2961
1013.50 0.296
1013.60 0.2959
1013.70 0.2958
1013.80 0.2958
1013.90 0.2957
1014.00 0.2956
1014.10 0.2956
1014.20 0.2955
1014.30 0.2954
1014.40 0.2953
1014.50 0.2953
1014.60 0.2952
1014.70 0.2951
1014.80 0.2951
1014.90 0.295
1015.00 0.2949
1015.10 0.2948
1015.20 0.2948
1015.30 0.2947
1015.40 0.2946
1015.50 0.2946
1015.60 0.2945
1015.70 0.2944
1015.80 0.2944
1015.90 0.2943
1016.00 0.2942
1016.10 0.2941
1016.20 0.2941
1016.30 0.294
1016.40 0.2939
1016.50 0.2939
1016.60 0.2938
1016.70 0.2937
1016.80 0.2937
1016.90 0.2936
1017.00 0.2935
1017.10 0.2935
1017.20 0.2934
1017.30 0.2933
1017.40 0.2932
1017.50 0.2932
1017.60 0.2931
1017.70 0.293
1017.80 0.293
1017.90 0.2929
1018.00 0.2928
1018.10 0.2928
1018.20 0.2927
1018.30 0.2926
1018.40 0.2925
1018.50 0.2925
1018.60 0.2924
1018.70 0.2923
1018.80 0.2923
1018.90 0.2922
1019.00 0.2921
1019.10 0.2921
1019.20 0.292
1019.30 0.2919
1019.40 0.2918
1019.50 0.2918
1019.60 0.2917
1019.70 0.2916
1019.80 0.2916
1019.90 0.2915
1020.00 0.2914
1020.10 0.2914
1020.20 0.2913
1020.30 0.2912
1020.40 0.2911
1020.50 0.2911
1020.60 0.291
1020.70 0.2909
1020.80 0.2909
1020.90 0.2908
1021.00 0.2907
1021.10 0.2907
1021.20 0.2906
1021.30 0.2905
1021.40 0.2905
1021.50 0.2904
1021.60 0.2903
1021.70 0.2903
1021.80 0.2902
1021.90 0.2901
1022.00 0.29
1022.10 0.29
1022.20 0.2899
1022.30 0.2898
1022.40 0.2898
1022.50 0.2897
1022.60 0.2896
1022.70 0.2896
1022.80 0.2895
1022.90 0.2894
1023.00 0.2894
1023.10 0.2893
1023.20 0.2892
1023.30 0.2891
1023.40 0.2891
1023.50 0.289
1023.60 0.2889
1023.70 0.2889
1023.80 0.2888
1023.90 0.2887
1024.00 0.2887
1024.10 0.2886
1024.20 0.2885
1024.30 0.2885
1024.40 0.2884
1024.50 0.2883
1024.60 0.2883
1024.70 0.2882
1024.80 0.2881
1024.90 0.288
1025.00 0.288
1025.10 0.2879
1025.20 0.2878
1025.30 0.2878
1025.40 0.2877
1025.50 0.2876
1025.60 0.2876
1025.70 0.2875
1025.80 0.2874
1025.90 0.2874
1026.00 0.2873
1026.10 0.2872
1026.20 0.2872
1026.30 0.2871
1026.40 0.287
1026.50 0.287
1026.60 0.2869
1026.70 0.2868
1026.80 0.2868
1026.90 0.2867
1027.00 0.2866
1027.10 0.2866
1027.20 0.2865
1027.30 0.2864
1027.40 0.2864
1027.50 0.2863
1027.60 0.2862
1027.70 0.2861
1027.80 0.2861
1027.90 0.286
1028.00 0.2859
1028.10 0.2859
1028.20 0.2858
1028.30 0.2857
1028.40 0.2857
1028.50 0.2856
1028.60 0.2855
1028.70 0.2855
1028.80 0.2854
1028.90 0.2853
1029.00 0.2853
1029.10 0.2852
1029.20 0.2851
1029.30 0.2851
1029.40 0.285
1029.50 0.2849
1029.60 0.2849
1029.70 0.2848
1029.80 0.2847
1029.90 0.2847
1030.00 0.2846
1030.10 0.2845
1030.20 0.2845
1030.30 0.2844
1030.40 0.2843
1030.50 0.2843
1030.60 0.2842
1030.70 0.2841
1030.80 0.2841
1030.90 0.284
1031.00 0.2839
1031.10 0.2839
1031.20 0.2838
1031.30 0.2837
1031.40 0.2837
1031.50 0.2836
1031.60 0.2835
1031.70 0.2835
1031.80 0.2834
1031.90 0.2833
1032.00 0.2833
1032.10 0.2832
1032.20 0.2831
1032.30 0.283
1032.40 0.283
1032.50 0.2829
1032.60 0.2828
1032.70 0.2828
1032.80 0.2827
1032.90 0.2826
1033.00 0.2826
1033.10 0.2825
1033.20 0.2824
1033.30 0.2824
1033.40 0.2823
1033.50 0.2822
1033.60 0.2822
1033.70 0.2821
1033.80 0.282
1033.90 0.282
1034.00 0.2819
1034.10 0.2818
1034.20 0.2818
1034.30 0.2817
1034.40 0.2816
1034.50 0.2816
1034.60 0.2815
1034.70 0.2814
1034.80 0.2814
1034.90 0.2813
1035.00 0.2812
1035.10 0.2812
1035.20 0.2811
1035.30 0.281
1035.40 0.281
1035.50 0.2809
1035.60 0.2808
1035.70 0.2808
1035.80 0.2807
1035.90 0.2806
1036.00 0.2806
1036.10 0.2805
1036.20 0.2804
1036.30 0.2804
1036.40 0.2803
1036.50 0.2802
1036.60 0.2802
1036.70 0.2801
1036.80 0.28
1036.90 0.28
1037.00 0.2799
1037.10 0.2798
1037.20 0.2798
1037.30 0.2797
1037.40 0.2796
1037.50 0.2796
1037.60 0.2795
1037.70 0.2794
1037.80 0.2794
1037.90 0.2793
1038.00 0.2792
1038.10 0.2792
1038.20 0.2791
1038.30 0.2791
1038.40 0.279
1038.50 0.2789
1038.60 0.2789
1038.70 0.2788
1038.80 0.2787
1038.90 0.2787
1039.00 0.2786
1039.10 0.2785
1039.20 0.2785
1039.30 0.2784
1039.40 0.2783
1039.50 0.2783
1039.60 0.2782
1039.70 0.2781
1039.80 0.2781
1039.90 0.278
1040.00 0.2779
1040.10 0.2779
1040.20 0.2778
1040.30 0.2777
1040.40 0.2777
1040.50 0.2776
1040.60 0.2775
1040.70 0.2775
1040.80 0.2774
1040.90 0.2774
1041.00 0.2773
1041.10 0.2772
1041.20 0.2772
1041.30 0.2771
1041.40 0.277
1041.50 0.277
1041.60 0.2769
1041.70 0.2768
1041.80 0.2768
1041.90 0.2767
1042.00 0.2766
1042.10 0.2766
1042.20 0.2765
1042.30 0.2764
1042.40 0.2764
1042.50 0.2763
1042.60 0.2762
1042.70 0.2762
1042.80 0.2761
1042.90 0.276
1043.00 0.276
1043.10 0.2759
1043.20 0.2759
1043.30 0.2758
1043.40 0.2757
1043.50 0.2757
1043.60 0.2756
1043.70 0.2755
1043.80 0.2755
1043.90 0.2754
1044.00 0.2753
1044.10 0.2753
1044.20 0.2752
1044.30 0.2751
1044.40 0.2751
1044.50 0.275
1044.60 0.2749
1044.70 0.2749
1044.80 0.2748
1044.90 0.2747
1045.00 0.2747
1045.10 0.2746
1045.20 0.2746
1045.30 0.2745
1045.40 0.2744
1045.50 0.2744
1045.60 0.2743
1045.70 0.2742
1045.80 0.2742
1045.90 0.2741
1046.00 0.274
1046.10 0.274
1046.20 0.2739
1046.30 0.2738
1046.40 0.2738
1046.50 0.2737
1046.60 0.2736
1046.70 0.2736
1046.80 0.2735
1046.90 0.2735
1047.00 0.2734
1047.10 0.2733
1047.20 0.2733
1047.30 0.2732
1047.40 0.2731
1047.50 0.2731
1047.60 0.273
1047.70 0.2729
1047.80 0.2729
1047.90 0.2728
1048.00 0.2727
1048.10 0.2727
1048.20 0.2726
1048.30 0.2726
1048.40 0.2725
1048.50 0.2724
1048.60 0.2724
1048.70 0.2723
1048.80 0.2722
1048.90 0.2722
1049.00 0.2721
1049.10 0.272
1049.20 0.272
1049.30 0.2719
1049.40 0.2719
1049.50 0.2718
1049.60 0.2717
1049.70 0.2717
1049.80 0.2716
1049.90 0.2715
1050.00 0.2715
1050.10 0.2714
1050.20 0.2713
1050.30 0.2713
1050.40 0.2712
1050.50 0.2712
1050.60 0.2711
1050.70 0.271
1050.80 0.271
1050.90 0.2709
1051.00 0.2708
1051.10 0.2708
1051.20 0.2707
1051.30 0.2706
1051.40 0.2706
1051.50 0.2705
1051.60 0.2705
1051.70 0.2704
1051.80 0.2703
1051.90 0.2703
1052.00 0.2702
1052.10 0.2701
1052.20 0.2701
1052.30 0.27
1052.40 0.2699
1052.50 0.2699
1052.60 0.2698
1052.70 0.2698
1052.80 0.2697
1052.90 0.2696
1053.00 0.2696
1053.10 0.2695
1053.20 0.2694
1053.30 0.2694
1053.40 0.2693
1053.50 0.2692
1053.60 0.2692
1053.70 0.2691
1053.80 0.2691
1053.90 0.269
1054.00 0.2689
1054.10 0.2689
1054.20 0.2688
1054.30 0.2687
1054.40 0.2687
1054.50 0.2686
1054.60 0.2686
1054.70 0.2685
1054.80 0.2684
1054.90 0.2684
1055.00 0.2683
1055.10 0.2682
1055.20 0.2682
1055.30 0.2681
1055.40 0.2681
1055.50 0.268
1055.60 0.2679
1055.70 0.2679
1055.80 0.2678
1055.90 0.2677
1056.00 0.2677
1056.10 0.2676
1056.20 0.2675
1056.30 0.2675
1056.40 0.2674
1056.50 0.2674
1056.60 0.2673
1056.70 0.2672
1056.80 0.2672
1056.90 0.2671
1057.00 0.267
1057.10 0.267
1057.20 0.2669
1057.30 0.2669
1057.40 0.2668
1057.50 0.2667
1057.60 0.2667
1057.70 0.2666
1057.80 0.2666
1057.90 0.2665
1058.00 0.2664
1058.10 0.2664
1058.20 0.2663
1058.30 0.2662
1058.40 0.2662
1058.50 0.2661
1058.60 0.2661
1058.70 0.266
1058.80 0.2659
1058.90 0.2659
1059.00 0.2658
1059.10 0.2657
1059.20 0.2657
1059.30 0.2656
1059.40 0.2656
1059.50 0.2655
1059.60 0.2654
1059.70 0.2654
1059.80 0.2653
1059.90 0.2652
1060.00 0.2652
1060.10 0.2651
1060.20 0.2651
1060.30 0.265
1060.40 0.2649
1060.50 0.2649
1060.60 0.2648
1060.70 0.2648
1060.80 0.2647
1060.90 0.2646
1061.00 0.2646
1061.10 0.2645
1061.20 0.2644
1061.30 0.2644
1061.40 0.2643
1061.50 0.2643
1061.60 0.2642
1061.70 0.2641
1061.80 0.2641
1061.90 0.264
1062.00 0.2639
1062.10 0.2639
1062.20 0.2638
1062.30 0.2638
1062.40 0.2637
1062.50 0.2636
1062.60 0.2636
1062.70 0.2635
1062.80 0.2635
1062.90 0.2634
1063.00 0.2633
1063.10 0.2633
1063.20 0.2632
1063.30 0.2632
1063.40 0.2631
1063.50 0.263
1063.60 0.263
1063.70 0.2629
1063.80 0.2628
1063.90 0.2628
1064.00 0.2627
1064.10 0.2627
1064.20 0.2626
1064.30 0.2625
1064.40 0.2625
1064.50 0.2624
1064.60 0.2624
1064.70 0.2623
1064.80 0.2622
1064.90 0.2622
1065.00 0.2621
1065.10 0.2621
1065.20 0.262
1065.30 0.2619
1065.40 0.2619
1065.50 0.2618
1065.60 0.2617
1065.70 0.2617
1065.80 0.2616
1065.90 0.2616
1066.00 0.2615
1066.10 0.2614
1066.20 0.2614
1066.30 0.2613
1066.40 0.2613
1066.50 0.2612
1066.60 0.2611
1066.70 0.2611
1066.80 0.261
1066.90 0.261
1067.00 0.2609
1067.10 0.2608
1067.20 0.2608
1067.30 0.2607
1067.40 0.2607
1067.50 0.2606
1067.60 0.2605
1067.70 0.2605
1067.80 0.2604
1067.90 0.2603
1068.00 0.2603
1068.10 0.2602
1068.20 0.2602
1068.30 0.2601
1068.40 0.26
1068.50 0.26
1068.60 0.2599
1068.70 0.2599
1068.80 0.2598
1068.90 0.2597
1069.00 0.2597
1069.10 0.2596
1069.20 0.2596
1069.30 0.2595
1069.40 0.2594
1069.50 0.2594
1069.60 0.2593
1069.70 0.2593
1069.80 0.2592
1069.90 0.2591
1070.00 0.2591
1070.10 0.259
1070.20 0.2589
1070.30 0.2589
1070.40 0.2588
1070.50 0.2588
1070.60 0.2587
1070.70 0.2586
1070.80 0.2586
1070.90 0.2585
1071.00 0.2585
1071.10 0.2584
1071.20 0.2583
1071.30 0.2583
1071.40 0.2582
1071.50 0.2582
1071.60 0.2581
1071.70 0.258
1071.80 0.258
1071.90 0.2579
1072.00 0.2579
1072.10 0.2578
1072.20 0.2577
1072.30 0.2577
1072.40 0.2576
1072.50 0.2576
1072.60 0.2575
1072.70 0.2574
1072.80 0.2574
1072.90 0.2573
1073.00 0.2573
1073.10 0.2572
1073.20 0.2572
1073.30 0.2571
1073.40 0.257
1073.50 0.257
1073.60 0.2569
1073.70 0.2569
1073.80 0.2568
1073.90 0.2567
1074.00 0.2567
1074.10 0.2566
1074.20 0.2566
1074.30 0.2565
1074.40 0.2564
1074.50 0.2564
1074.60 0.2563
1074.70 0.2563
1074.80 0.2562
1074.90 0.2561
1075.00 0.2561
1075.10 0.256
1075.20 0.256
1075.30 0.2559
1075.40 0.2558
1075.50 0.2558
1075.60 0.2557
1075.70 0.2557
1075.80 0.2556
1075.90 0.2556
1076.00 0.2555
1076.10 0.2554
1076.20 0.2554
1076.30 0.2553
1076.40 0.2553
1076.50 0.2552
1076.60 0.2551
1076.70 0.2551
1076.80 0.255
1076.90 0.255
1077.00 0.2549
1077.10 0.2548
1077.20 0.2548
1077.30 0.2547
1077.40 0.2547
1077.50 0.2546
1077.60 0.2545
1077.70 0.2545
1077.80 0.2544
1077.90 0.2544
1078.00 0.2543
1078.10 0.2542
1078.20 0.2542
1078.30 0.2541
1078.40 0.2541
1078.50 0.254
1078.60 0.2539
1078.70 0.2539
1078.80 0.2538
1078.90 0.2538
1079.00 0.2537
1079.10 0.2537
1079.20 0.2536
1079.30 0.2535
1079.40 0.2535
1079.50 0.2534
1079.60 0.2534
1079.70 0.2533
1079.80 0.2532
1079.90 0.2532
1080.00 0.2531
1080.10 0.2531
1080.20 0.253
1080.30 0.253
1080.40 0.2529
1080.50 0.2528
1080.60 0.2528
1080.70 0.2527
1080.80 0.2527
1080.90 0.2526
1081.00 0.2525
1081.10 0.2525
1081.20 0.2524
1081.30 0.2524
1081.40 0.2523
1081.50 0.2523
1081.60 0.2522
1081.70 0.2521
1081.80 0.2521
1081.90 0.252
1082.00 0.252
1082.10 0.2519
1082.20 0.2518
1082.30 0.2518
1082.40 0.2517
1082.50 0.2517
1082.60 0.2516
1082.70 0.2515
1082.80 0.2515
1082.90 0.2514
1083.00 0.2514
1083.10 0.2513
1083.20 0.2512
1083.30 0.2512
1083.40 0.2511
1083.50 0.2511
1083.60 0.251
1083.70 0.251
1083.80 0.2509
1083.90 0.2508
1084.00 0.2508
1084.10 0.2507
1084.20 0.2507
1084.30 0.2506
1084.40 0.2506
1084.50 0.2505
1084.60 0.2504
1084.70 0.2504
1084.80 0.2503
1084.90 0.2503
1085.00 0.2502
1085.10 0.2501
1085.20 0.2501
1085.30 0.25
1085.40 0.25
1085.50 0.2499
1085.60 0.2499
1085.70 0.2498
1085.80 0.2497
1085.90 0.2497
1086.00 0.2496
1086.10 0.2496
1086.20 0.2495
1086.30 0.2494
1086.40 0.2494
1086.50 0.2493
1086.60 0.2493
1086.70 0.2492
1086.80 0.2492
1086.90 0.2491
1087.00 0.249
1087.10 0.249
1087.20 0.2489
1087.30 0.2489
1087.40 0.2488
1087.50 0.2487
1087.60 0.2487
1087.70 0.2486
1087.80 0.2486
1087.90 0.2485
1088.00 0.2484
1088.10 0.2484
1088.20 0.2483
1088.30 0.2483
1088.40 0.2482
1088.50 0.2481
1088.60 0.2481
1088.70 0.248
1088.80 0.248
1088.90 0.2479
1089.00 0.2478
1089.10 0.2478
1089.20 0.2477
1089.30 0.2476
1089.40 0.2476
1089.50 0.2475
1089.60 0.2475
1089.70 0.2474
1089.80 0.2473
1089.90 0.2473
1090.00 0.2472
1090.10 0.2471
1090.20 0.2471
1090.30 0.247
1090.40 0.247
1090.50 0.2469
1090.60 0.2468
1090.70 0.2467
1090.80 0.2467
1090.90 0.2466
1091.00 0.2465
1091.10 0.2465
1091.20 0.2464
1091.30 0.2463
1091.40 0.2462
1091.50 0.2462
1091.60 0.2461
1091.70 0.246
1091.80 0.246
1091.90 0.2459
1092.00 0.2458
1092.10 0.2457
1092.20 0.2456
1092.30 0.2455
1092.40 0.2455
1092.50 0.2454
1092.60 0.2453
1092.70 0.2452
1092.80 0.2451
1092.90 0.245
1093.00 0.2449
1093.10 0.2449
1093.20 0.2448
1093.30 0.2447
1093.40 0.2445
1093.50 0.2445
1093.60 0.2445
1093.70 0.2445
1093.80 0.2445
1093.90 0.2444
1094.00 0.2444
1094.10 0.2444
1094.20 0.2444
1094.30 0.2443
1094.40 0.2443
1094.50 0.2443
1094.60 0.2442
1094.70 0.2442
1094.80 0.2442
1094.90 0.2442
1095.00 0.2441
1095.10 0.2441
1095.20 0.244
1095.30 0.244
1095.40 0.244
1095.50 0.2439
1095.60 0.2439
1095.70 0.2438
1095.80 0.2438
1095.90 0.2438
1096.00 0.2437
1096.10 0.2437
1096.20 0.2436
1096.30 0.2436
1096.40 0.2436
1096.50 0.2435
1096.60 0.2435
1096.70 0.2434
1096.80 0.2434
1096.90 0.2433
1097.00 0.2433
1097.10 0.2432
1097.20 0.2432
1097.30 0.2431
1097.40 0.2431
1097.50 0.243
1097.60 0.243
1097.70 0.2429
1097.80 0.2429
1097.90 0.2428
1098.00 0.2428
1098.10 0.2427
1098.20 0.2427
1098.30 0.2426
1098.40 0.2426
1098.50 0.2425
1098.60 0.2425
1098.70 0.2424
1098.80 0.2424
1098.90 0.2423
1099.00 0.2422
1099.10 0.2422
1099.20 0.2421
1099.30 0.2421
1099.40 0.242
1099.50 0.242
1099.60 0.2419
1099.70 0.2419
1099.80 0.2418
1099.90 0.2418
1100.00 0.2417
1100.10 0.2417
1100.20 0.2416
1100.30 0.2415
1100.40 0.2415
1100.50 0.2414
1100.60 0.2414
1100.70 0.2413
1100.80 0.2413
1100.90 0.2412
1101.00 0.2412
1101.10 0.2411
1101.20 0.2411
1101.30 0.241
1101.40 0.2409
1101.50 0.2409
1101.60 0.2408
1101.70 0.2408
1101.80 0.2407
1101.90 0.2407
1102.00 0.2406
1102.10 0.2406
1102.20 0.2405
1102.30 0.2404
1102.40 0.2404
1102.50 0.2403
1102.60 0.2403
1102.70 0.2402
1102.80 0.2402
1102.90 0.2401
1103.00 0.2401
1103.10 0.24
1103.20 0.24
1103.30 0.2399
1103.40 0.2399
1103.50 0.2398
1103.60 0.2397
1103.70 0.2397
1103.80 0.2396
1103.90 0.2396
1104.00 0.2395
1104.10 0.2395
1104.20 0.2394
1104.30 0.2394
1104.40 0.2393
1104.50 0.2393
1104.60 0.2392
1104.70 0.2391
1104.80 0.2391
1104.90 0.239
1105.00 0.239
1105.10 0.2389
1105.20 0.2389
1105.30 0.2388
1105.40 0.2388
1105.50 0.2387
1105.60 0.2387
1105.70 0.2386
1105.80 0.2385
1105.90 0.2385
1106.00 0.2384
1106.10 0.2384
1106.20 0.2383
1106.30 0.2383
1106.40 0.2382
1106.50 0.2382
1106.60 0.2381
1106.70 0.2381
1106.80 0.238
1106.90 0.238
1107.00 0.2379
1107.10 0.2378
1107.20 0.2378
1107.30 0.2377
1107.40 0.2377
1107.50 0.2376
1107.60 0.2376
1107.70 0.2375
1107.80 0.2375
1107.90 0.2374
1108.00 0.2374
1108.10 0.2373
1108.20 0.2373
1108.30 0.2372
1108.40 0.2371
1108.50 0.2371
1108.60 0.237
1108.70 0.237
1108.80 0.2369
1108.90 0.2369
1109.00 0.2368
1109.10 0.2368
1109.20 0.2367
1109.30 0.2366
1109.40 0.2366
1109.50 0.2365
1109.60 0.2365
1109.70 0.2364
1109.80 0.2364
1109.90 0.2363
1110.00 0.2363
1110.10 0.2362
1110.20 0.2362
1110.30 0.2361
1110.40 0.2361
1110.50 0.236
1110.60 0.2359
1110.70 0.2359
1110.80 0.2358
1110.90 0.2358
1111.00 0.2357
1111.10 0.2357
1111.20 0.2356
1111.30 0.2356
1111.40 0.2355
1111.50 0.2355
1111.60 0.2354
1111.70 0.2354
1111.80 0.2353
1111.90 0.2353
1112.00 0.2352
1112.10 0.2351
1112.20 0.2351
1112.30 0.235
1112.40 0.235
1112.50 0.2349
1112.60 0.2349
1112.70 0.2348
1112.80 0.2348
1112.90 0.2347
1113.00 0.2347
1113.10 0.2346
1113.20 0.2346
1113.30 0.2345
1113.40 0.2344
1113.50 0.2344
1113.60 0.2343
1113.70 0.2343
1113.80 0.2342
1113.90 0.2342
1114.00 0.2341
1114.10 0.2341
1114.20 0.234
1114.30 0.234
1114.40 0.2339
1114.50 0.2339
1114.60 0.2338
1114.70 0.2338
1114.80 0.2337
1114.90 0.2336
1115.00 0.2336
1115.10 0.2335
1115.20 0.2335
1115.30 0.2334
1115.40 0.2334
1115.50 0.2333
1115.60 0.2333
1115.70 0.2332
1115.80 0.2332
1115.90 0.2331
1116.00 0.2331
1116.10 0.233
1116.20 0.233
1116.30 0.2329
1116.40 0.2329
1116.50 0.2328
1116.60 0.2328
1116.70 0.2327
1116.80 0.2326
1116.90 0.2326
1117.00 0.2325
1117.10 0.2325
1117.20 0.2324
1117.30 0.2324
1117.40 0.2323
1117.50 0.2323
1117.60 0.2322
1117.70 0.2322
1117.80 0.2321
1117.90 0.2321
1118.00 0.232
1118.10 0.232
1118.20 0.2319
1118.30 0.2319
1118.40 0.2318
1118.50 0.2318
1118.60 0.2317
1118.70 0.2316
1118.80 0.2316
1118.90 0.2315
1119.00 0.2315
1119.10 0.2314
1119.20 0.2314
1119.30 0.2313
1119.40 0.2313
1119.50 0.2312
1119.60 0.2312
1119.70 0.2311
1119.80 0.2311
1119.90 0.231
1120.00 0.231
1120.10 0.2309
1120.20 0.2309
1120.30 0.2308
1120.40 0.2308
1120.50 0.2307
1120.60 0.2307
1120.70 0.2306
1120.80 0.2305
1120.90 0.2305
1121.00 0.2304
1121.10 0.2304
1121.20 0.2303
1121.30 0.2303
1121.40 0.2302
1121.50 0.2302
1121.60 0.2301
1121.70 0.2301
1121.80 0.23
1121.90 0.23
1122.00 0.2299
1122.10 0.2299
1122.20 0.2298
1122.30 0.2298
1122.40 0.2297
1122.50 0.2297
1122.60 0.2296
1122.70 0.2296
1122.80 0.2295
1122.90 0.2295
1123.00 0.2294
1123.10 0.2294
1123.20 0.2293
1123.30 0.2292
1123.40 0.2292
1123.50 0.2291
1123.60 0.2291
1123.70 0.229
1123.80 0.229
1123.90 0.2289
1124.00 0.2289
1124.10 0.2288
1124.20 0.2288
1124.30 0.2287
1124.40 0.2287
1124.50 0.2286
1124.60 0.2286
1124.70 0.2285
1124.80 0.2285
1124.90 0.2284
1125.00 0.2284
1125.10 0.2283
1125.20 0.2283
1125.30 0.2282
1125.40 0.2282
1125.50 0.2281
1125.60 0.2281
1125.70 0.228
1125.80 0.228
1125.90 0.2279
1126.00 0.2279
1126.10 0.2278
1126.20 0.2278
1126.30 0.2277
1126.40 0.2277
1126.50 0.2276
1126.60 0.2275
1126.70 0.2275
1126.80 0.2274
1126.90 0.2274
1127.00 0.2273
1127.10 0.2273
1127.20 0.2272
1127.30 0.2272
1127.40 0.2271
1127.50 0.2271
1127.60 0.227
1127.70 0.227
1127.80 0.2269
1127.90 0.2269
1128.00 0.2268
1128.10 0.2268
1128.20 0.2267
1128.30 0.2267
1128.40 0.2266
1128.50 0.2266
1128.60 0.2265
1128.70 0.2265
1128.80 0.2264
1128.90 0.2264
1129.00 0.2263
1129.10 0.2263
1129.20 0.2262
1129.30 0.2262
1129.40 0.2261
1129.50 0.2261
1129.60 0.226
1129.70 0.226
1129.80 0.2259
1129.90 0.2259
1130.00 0.2258
1130.10 0.2258
1130.20 0.2257
1130.30 0.2257
1130.40 0.2256
1130.50 0.2256
1130.60 0.2255
1130.70 0.2255
1130.80 0.2254
1130.90 0.2254
1131.00 0.2253
1131.10 0.2253
1131.20 0.2252
1131.30 0.2252
1131.40 0.2251
1131.50 0.225
1131.60 0.225
1131.70 0.2249
1131.80 0.2249
1131.90 0.2248
1132.00 0.2248
1132.10 0.2247
1132.20 0.2247
1132.30 0.2246
1132.40 0.2246
1132.50 0.2245
1132.60 0.2245
1132.70 0.2244
1132.80 0.2244
1132.90 0.2243
1133.00 0.2243
1133.10 0.2242
1133.20 0.2242
1133.30 0.2241
1133.40 0.2241
1133.50 0.224
1133.60 0.224
1133.70 0.2239
1133.80 0.2239
1133.90 0.2238
1134.00 0.2238
1134.10 0.2237
1134.20 0.2237
1134.30 0.2236
1134.40 0.2236
1134.50 0.2235
1134.60 0.2235
1134.70 0.2234
1134.80 0.2234
1134.90 0.2233
1135.00 0.2233
1135.10 0.2232
1135.20 0.2232
1135.30 0.2231
1135.40 0.2231
1135.50 0.223
1135.60 0.223
1135.70 0.2229
1135.80 0.2229
1135.90 0.2228
1136.00 0.2228
1136.10 0.2227
1136.20 0.2227
1136.30 0.2226
1136.40 0.2226
1136.50 0.2225
1136.60 0.2225
1136.70 0.2224
1136.80 0.2224
1136.90 0.2223
1137.00 0.2223
1137.10 0.2222
1137.20 0.2222
1137.30 0.2221
1137.40 0.2221
1137.50 0.222
1137.60 0.222
1137.70 0.2219
1137.80 0.2219
1137.90 0.2218
1138.00 0.2218
1138.10 0.2217
1138.20 0.2217
1138.30 0.2216
1138.40 0.2216
1138.50 0.2215
1138.60 0.2215
1138.70 0.2214
1138.80 0.2214
1138.90 0.2213
1139.00 0.2213
1139.10 0.2212
1139.20 0.2212
1139.30 0.2211
1139.40 0.2211
1139.50 0.221
1139.60 0.221
1139.70 0.2209
1139.80 0.2209
1139.90 0.2208
1140.00 0.2208
1140.10 0.2207
1140.20 0.2207
1140.30 0.2206
1140.40 0.2206
1140.50 0.2205
1140.60 0.2205
1140.70 0.2204
1140.80 0.2204
1140.90 0.2203
1141.00 0.2203
1141.10 0.2202
1141.20 0.2202
1141.30 0.2201
1141.40 0.2201
1141.50 0.22
1141.60 0.22
1141.70 0.2199
1141.80 0.2199
1141.90 0.2198
1142.00 0.2198
1142.10 0.2197
1142.20 0.2197
1142.30 0.2196
1142.40 0.2196
1142.50 0.2195
1142.60 0.2195
1142.70 0.2194
1142.80 0.2194
1142.90 0.2194
1143.00 0.2193
1143.10 0.2193
1143.20 0.2192
1143.30 0.2192
1143.40 0.2191
1143.50 0.2191
1143.60 0.219
1143.70 0.219
1143.80 0.2189
1143.90 0.2189
1144.00 0.2188
1144.10 0.2188
1144.20 0.2187
1144.30 0.2187
1144.40 0.2186
1144.50 0.2186
1144.60 0.2185
1144.70 0.2185
1144.80 0.2184
1144.90 0.2184
1145.00 0.2183
1145.10 0.2183
1145.20 0.2182
1145.30 0.2182
1145.40 0.2181
1145.50 0.2181
1145.60 0.218
1145.70 0.218
1145.80 0.2179
1145.90 0.2179
1146.00 0.2178
1146.10 0.2178
1146.20 0.2177
1146.30 0.2177
1146.40 0.2176
1146.50 0.2176
1146.60 0.2175
1146.70 0.2175
1146.80 0.2175
1146.90 0.2174
1147.00 0.2174
1147.10 0.2173
1147.20 0.2173
1147.30 0.2172
1147.40 0.2172
1147.50 0.2171
1147.60 0.2171
1147.70 0.217
1147.80 0.217
1147.90 0.2169
1148.00 0.2169
1148.10 0.2168
1148.20 0.2168
1148.30 0.2167
1148.40 0.2167
1148.50 0.2166
1148.60 0.2166
1148.70 0.2165
1148.80 0.2165
1148.90 0.2164
1149.00 0.2164
1149.10 0.2163
1149.20 0.2163
1149.30 0.2162
1149.40 0.2162
1149.50 0.2161
1149.60 0.2161
1149.70 0.216
1149.80 0.216
1149.90 0.2159
1150.00 0.2159
1150.10 0.2158
1150.20 0.2158
1150.30 0.2157
1150.40 0.2157
1150.50 0.2157
1150.60 0.2156
1150.70 0.2156
1150.80 0.2155
1150.90 0.2155
1151.00 0.2154
1151.10 0.2154
1151.20 0.2153
1151.30 0.2153
1151.40 0.2152
1151.50 0.2152
1151.60 0.2151
1151.70 0.2151
1151.80 0.215
1151.90 0.215
1152.00 0.2149
1152.10 0.2149
1152.20 0.2148
1152.30 0.2148
1152.40 0.2147
1152.50 0.2147
1152.60 0.2146
1152.70 0.2146
1152.80 0.2145
1152.90 0.2145
1153.00 0.2145
1153.10 0.2144
1153.20 0.2144
1153.30 0.2143
1153.40 0.2143
1153.50 0.2142
1153.60 0.2142
1153.70 0.2141
1153.80 0.2141
1153.90 0.214
1154.00 0.214
1154.10 0.2139
1154.20 0.2139
1154.30 0.2138
1154.40 0.2138
1154.50 0.2137
1154.60 0.2137
1154.70 0.2136
1154.80 0.2136
1154.90 0.2135
1155.00 0.2135
1155.10 0.2135
1155.20 0.2134
1155.30 0.2134
1155.40 0.2133
1155.50 0.2133
1155.60 0.2132
1155.70 0.2132
1155.80 0.2131
1155.90 0.2131
1156.00 0.213
1156.10 0.213
1156.20 0.2129
1156.30 0.2129
1156.40 0.2128
1156.50 0.2128
1156.60 0.2127
1156.70 0.2127
1156.80 0.2127
1156.90 0.2126
1157.00 0.2126
1157.10 0.2125
1157.20 0.2125
1157.30 0.2124
1157.40 0.2124
1157.50 0.2123
1157.60 0.2123
1157.70 0.2122
1157.80 0.2122
1157.90 0.2121
1158.00 0.2121
1158.10 0.212
1158.20 0.212
1158.30 0.2119
1158.40 0.2119
1158.50 0.2119
1158.60 0.2118
1158.70 0.2118
1158.80 0.2117
1158.90 0.2117
1159.00 0.2116
1159.10 0.2116
1159.20 0.2115
1159.30 0.2115
1159.40 0.2114
1159.50 0.2114
1159.60 0.2113
1159.70 0.2113
1159.80 0.2112
1159.90 0.2112
1160.00 0.2111
1160.10 0.2111
1160.20 0.2111
1160.30 0.211
1160.40 0.211
1160.50 0.2109
1160.60 0.2109
1160.70 0.2108
1160.80 0.2108
1160.90 0.2107
1161.00 0.2107
1161.10 0.2106
1161.20 0.2106
1161.30 0.2105
1161.40 0.2105
1161.50 0.2104
1161.60 0.2104
1161.70 0.2104
1161.80 0.2103
1161.90 0.2103
1162.00 0.2102
1162.10 0.2102
1162.20 0.2101
1162.30 0.2101
1162.40 0.21
1162.50 0.21
1162.60 0.2099
1162.70 0.2099
1162.80 0.2098
1162.90 0.2098
1163.00 0.2097
1163.10 0.2097
1163.20 0.2097
1163.30 0.2096
1163.40 0.2096
1163.50 0.2095
1163.60 0.2095
1163.70 0.2094
1163.80 0.2094
1163.90 0.2093
1164.00 0.2093
1164.10 0.2092
1164.20 0.2092
1164.30 0.2091
1164.40 0.2091
1164.50 0.209
1164.60 0.209
1164.70 0.209
1164.80 0.2089
1164.90 0.2089
1165.00 0.2088
1165.10 0.2088
1165.20 0.2087
1165.30 0.2087
1165.40 0.2086
1165.50 0.2086
1165.60 0.2085
1165.70 0.2085
1165.80 0.2084
1165.90 0.2084
1166.00 0.2084
1166.10 0.2083
1166.20 0.2083
1166.30 0.2082
1166.40 0.2082
1166.50 0.2081
1166.60 0.2081
1166.70 0.208
1166.80 0.208
1166.90 0.2079
1167.00 0.2079
1167.10 0.2078
1167.20 0.2078
1167.30 0.2078
1167.40 0.2077
1167.50 0.2077
1167.60 0.2076
1167.70 0.2076
1167.80 0.2075
1167.90 0.2075
1168.00 0.2074
1168.10 0.2074
1168.20 0.2073
1168.30 0.2073
1168.40 0.2073
1168.50 0.2072
1168.60 0.2072
1168.70 0.2071
1168.80 0.2071
1168.90 0.207
1169.00 0.207
1169.10 0.2069
1169.20 0.2069
1169.30 0.2068
1169.40 0.2068
1169.50 0.2067
1169.60 0.2067
1169.70 0.2067
1169.80 0.2066
1169.90 0.2066
1170.00 0.2065
1170.10 0.2065
1170.20 0.2064
1170.30 0.2064
1170.40 0.2063
1170.50 0.2063
1170.60 0.2062
1170.70 0.2062
1170.80 0.2062
1170.90 0.2061
1171.00 0.2061
1171.10 0.206
1171.20 0.206
1171.30 0.2059
1171.40 0.2059
1171.50 0.2058
1171.60 0.2058
1171.70 0.2058
1171.80 0.2057
1171.90 0.2057
1172.00 0.2056
1172.10 0.2056
1172.20 0.2055
1172.30 0.2055
1172.40 0.2054
1172.50 0.2054
1172.60 0.2053
1172.70 0.2053
1172.80 0.2053
1172.90 0.2052
1173.00 0.2052
1173.10 0.2051
1173.20 0.2051
1173.30 0.205
1173.40 0.205
1173.50 0.2049
1173.60 0.2049
1173.70 0.2048
1173.80 0.2048
1173.90 0.2048
1174.00 0.2047
1174.10 0.2047
1174.20 0.2046
1174.30 0.2046
1174.40 0.2045
1174.50 0.2045
1174.60 0.2044
1174.70 0.2044
1174.80 0.2043
1174.90 0.2043
1175.00 0.2043
1175.10 0.2042
1175.20 0.2042
1175.30 0.2041
1175.40 0.2041
1175.50 0.204
1175.60 0.204
1175.70 0.2039
1175.80 0.2039
1175.90 0.2038
1176.00 0.2038
1176.10 0.2038
1176.20 0.2037
1176.30 0.2037
1176.40 0.2036
1176.50 0.2036
1176.60 0.2035
1176.70 0.2035
1176.80 0.2034
1176.90 0.2034
1177.00 0.2034
1177.10 0.2033
1177.20 0.2033
1177.30 0.2032
1177.40 0.2032
1177.50 0.2031
1177.60 0.2031
1177.70 0.203
1177.80 0.203
1177.90 0.203
1178.00 0.2029
1178.10 0.2029
1178.20 0.2028
1178.30 0.2028
1178.40 0.2027
1178.50 0.2027
1178.60 0.2026
1178.70 0.2026
1178.80 0.2026
1178.90 0.2025
1179.00 0.2025
1179.10 0.2024
1179.20 0.2024
1179.30 0.2023
1179.40 0.2023
1179.50 0.2022
1179.60 0.2022
1179.70 0.2022
1179.80 0.2021
1179.90 0.2021
1180.00 0.202
1180.10 0.202
1180.20 0.2019
1180.30 0.2019
1180.40 0.2018
1180.50 0.2018
1180.60 0.2018
1180.70 0.2017
1180.80 0.2017
1180.90 0.2016
1181.00 0.2016
1181.10 0.2015
1181.20 0.2015
1181.30 0.2014
1181.40 0.2014
1181.50 0.2014
1181.60 0.2013
1181.70 0.2013
1181.80 0.2012
1181.90 0.2012
1182.00 0.2011
1182.10 0.2011
1182.20 0.2011
1182.30 0.201
1182.40 0.201
1182.50 0.2009
1182.60 0.2009
1182.70 0.2008
1182.80 0.2008
1182.90 0.2007
1183.00 0.2007
1183.10 0.2007
1183.20 0.2006
1183.30 0.2006
1183.40 0.2005
1183.50 0.2005
1183.60 0.2004
1183.70 0.2004
1183.80 0.2003
1183.90 0.2003
1184.00 0.2003
1184.10 0.2002
1184.20 0.2002
1184.30 0.2001
1184.40 0.2001
1184.50 0.2
1184.60 0.2
1184.70 0.2
1184.80 0.1999
1184.90 0.1999
1185.00 0.1998
1185.10 0.1998
1185.20 0.1997
1185.30 0.1997
1185.40 0.1997
1185.50 0.1996
1185.60 0.1996
1185.70 0.1995
1185.80 0.1995
1185.90 0.1994
1186.00 0.1994
1186.10 0.1993
1186.20 0.1993
1186.30 0.1993
1186.40 0.1992
1186.50 0.1992
1186.60 0.1991
1186.70 0.1991
1186.80 0.199
1186.90 0.199
1187.00 0.199
1187.10 0.1989
1187.20 0.1989
1187.30 0.1988
1187.40 0.1988
1187.50 0.1987
1187.60 0.1987
1187.70 0.1986
1187.80 0.1986
1187.90 0.1986
1188.00 0.1985
1188.10 0.1985
1188.20 0.1984
1188.30 0.1984
1188.40 0.1983
1188.50 0.1983
1188.60 0.1983
1188.70 0.1982
1188.80 0.1982
1188.90 0.1981
1189.00 0.1981
1189.10 0.198
1189.20 0.198
1189.30 0.198
1189.40 0.1979
1189.50 0.1979
1189.60 0.1978
1189.70 0.1978
1189.80 0.1977
1189.90 0.1977
1190.00 0.1976
1190.10 0.1976
1190.20 0.1976
1190.30 0.1975
1190.40 0.1975
1190.50 0.1974
1190.60 0.1974
1190.70 0.1973
1190.80 0.1973
1190.90 0.1973
1191.00 0.1972
1191.10 0.1972
1191.20 0.1971
1191.30 0.1971
1191.40 0.197
1191.50 0.197
1191.60 0.197
1191.70 0.1969
1191.80 0.1969
1191.90 0.1968
1192.00 0.1968
1192.10 0.1967
1192.20 0.1967
1192.30 0.1967
1192.40 0.1966
1192.50 0.1966
1192.60 0.1965
1192.70 0.1965
1192.80 0.1964
1192.90 0.1964
1193.00 0.1964
1193.10 0.1963
1193.20 0.1963
1193.30 0.1962
1193.40 0.1962
1193.50 0.1961
1193.60 0.1961
1193.70 0.1961
1193.80 0.196
1193.90 0.196
1194.00 0.1959
1194.10 0.1959
1194.20 0.1958
1194.30 0.1958
1194.40 0.1958
1194.50 0.1957
1194.60 0.1957
1194.70 0.1956
1194.80 0.1956
1194.90 0.1955
1195.00 0.1955
1195.10 0.1955
1195.20 0.1954
1195.30 0.1954
1195.40 0.1953
1195.50 0.1953
1195.60 0.1952
1195.70 0.1952
1195.80 0.1952
1195.90 0.1951
1196.00 0.1951
1196.10 0.195
1196.20 0.195
1196.30 0.195
1196.40 0.1949
1196.50 0.1949
1196.60 0.1948
1196.70 0.1948
1196.80 0.1947
1196.90 0.1947
1197.00 0.1947
1197.10 0.1946
1197.20 0.1946
1197.30 0.1945
1197.40 0.1945
1197.50 0.1944
1197.60 0.1944
1197.70 0.1944
1197.80 0.1943
1197.90 0.1943
1198.00 0.1942
1198.10 0.1942
1198.20 0.1942
1198.30 0.1941
1198.40 0.1941
1198.50 0.194
1198.60 0.194
1198.70 0.1939
1198.80 0.1939
1198.90 0.1939
1199.00 0.1938
1199.10 0.1938
1199.20 0.1937
1199.30 0.1937
1199.40 0.1936
1199.50 0.1936
1199.60 0.1936
1199.70 0.1935
1199.80 0.1935
1199.90 0.1934
1200.00 0
