# Version 2.1 - nm, norm@500 to 1, cut digits, bergeron_75000_70.dat_75000
# Wavelength(nm)  Flambda(ergs/cm^s/s/nm)
300.00 6.603
300.10 6.595
300.20 6.587
300.30 6.579
300.40 6.571
300.50 6.562
300.60 6.554
300.70 6.546
300.80 6.538
300.90 6.53
301.00 6.522
301.10 6.514
301.20 6.506
301.30 6.498
301.40 6.49
301.50 6.482
301.60 6.474
301.70 6.466
301.80 6.458
301.90 6.45
302.00 6.442
302.10 6.434
302.20 6.426
302.30 6.419
302.40 6.411
302.50 6.403
302.60 6.395
302.70 6.387
302.80 6.379
302.90 6.371
303.00 6.364
303.10 6.356
303.20 6.348
303.30 6.34
303.40 6.333
303.50 6.325
303.60 6.317
303.70 6.309
303.80 6.302
303.90 6.294
304.00 6.286
304.10 6.279
304.20 6.271
304.30 6.263
304.40 6.256
304.50 6.248
304.60 6.24
304.70 6.233
304.80 6.225
304.90 6.218
305.00 6.21
305.10 6.203
305.20 6.195
305.30 6.187
305.40 6.18
305.50 6.172
305.60 6.165
305.70 6.157
305.80 6.15
305.90 6.143
306.00 6.135
306.10 6.128
306.20 6.12
306.30 6.113
306.40 6.105
306.50 6.098
306.60 6.091
306.70 6.083
306.80 6.076
306.90 6.068
307.00 6.061
307.10 6.054
307.20 6.047
307.30 6.039
307.40 6.032
307.50 6.025
307.60 6.017
307.70 6.01
307.80 6.003
307.90 5.996
308.00 5.988
308.10 5.981
308.20 5.974
308.30 5.967
308.40 5.96
308.50 5.952
308.60 5.945
308.70 5.938
308.80 5.931
308.90 5.924
309.00 5.917
309.10 5.91
309.20 5.902
309.30 5.895
309.40 5.888
309.50 5.881
309.60 5.874
309.70 5.867
309.80 5.86
309.90 5.853
310.00 5.846
310.10 5.839
310.20 5.832
310.30 5.825
310.40 5.818
310.50 5.811
310.60 5.804
310.70 5.797
310.80 5.79
310.90 5.783
311.00 5.776
311.10 5.77
311.20 5.763
311.30 5.756
311.40 5.749
311.50 5.742
311.60 5.735
311.70 5.728
311.80 5.721
311.90 5.715
312.00 5.708
312.10 5.701
312.20 5.694
312.30 5.687
312.40 5.681
312.50 5.674
312.60 5.667
312.70 5.66
312.80 5.654
312.90 5.647
313.00 5.64
313.10 5.634
313.20 5.627
313.30 5.62
313.40 5.614
313.50 5.607
313.60 5.6
313.70 5.594
313.80 5.587
313.90 5.58
314.00 5.574
314.10 5.567
314.20 5.561
314.30 5.554
314.40 5.547
314.50 5.541
314.60 5.534
314.70 5.528
314.80 5.521
314.90 5.515
315.00 5.508
315.10 5.502
315.20 5.495
315.30 5.489
315.40 5.482
315.50 5.476
315.60 5.469
315.70 5.463
315.80 5.456
315.90 5.45
316.00 5.444
316.10 5.437
316.20 5.431
316.30 5.424
316.40 5.418
316.50 5.412
316.60 5.405
316.70 5.399
316.80 5.393
316.90 5.386
317.00 5.38
317.10 5.374
317.20 5.367
317.30 5.361
317.40 5.355
317.50 5.349
317.60 5.342
317.70 5.336
317.80 5.33
317.90 5.324
318.00 5.317
318.10 5.311
318.20 5.305
318.30 5.299
318.40 5.292
318.50 5.286
318.60 5.28
318.70 5.274
318.80 5.268
318.90 5.262
319.00 5.255
319.10 5.249
319.20 5.243
319.30 5.237
319.40 5.231
319.50 5.225
319.60 5.219
319.70 5.213
319.80 5.207
319.90 5.201
320.00 5.195
320.10 5.189
320.20 5.183
320.30 5.176
320.40 5.17
320.50 5.164
320.60 5.158
320.70 5.152
320.80 5.147
320.90 5.141
321.00 5.135
321.10 5.129
321.20 5.123
321.30 5.117
321.40 5.111
321.50 5.105
321.60 5.099
321.70 5.093
321.80 5.087
321.90 5.081
322.00 5.075
322.10 5.07
322.20 5.064
322.30 5.058
322.40 5.052
322.50 5.046
322.60 5.04
322.70 5.035
322.80 5.029
322.90 5.023
323.00 5.017
323.10 5.011
323.20 5.006
323.30 5
323.40 4.994
323.50 4.988
323.60 4.983
323.70 4.977
323.80 4.971
323.90 4.965
324.00 4.96
324.10 4.954
324.20 4.948
324.30 4.943
324.40 4.937
324.50 4.931
324.60 4.926
324.70 4.92
324.80 4.914
324.90 4.909
325.00 4.903
325.10 4.897
325.20 4.892
325.30 4.886
325.40 4.881
325.50 4.875
325.60 4.869
325.70 4.864
325.80 4.858
325.90 4.853
326.00 4.847
326.10 4.842
326.20 4.836
326.30 4.831
326.40 4.825
326.50 4.82
326.60 4.814
326.70 4.809
326.80 4.803
326.90 4.798
327.00 4.792
327.10 4.787
327.20 4.781
327.30 4.776
327.40 4.77
327.50 4.765
327.60 4.759
327.70 4.754
327.80 4.749
327.90 4.743
328.00 4.738
328.10 4.733
328.20 4.727
328.30 4.722
328.40 4.716
328.50 4.711
328.60 4.706
328.70 4.7
328.80 4.695
328.90 4.69
329.00 4.684
329.10 4.679
329.20 4.674
329.30 4.668
329.40 4.663
329.50 4.658
329.60 4.653
329.70 4.647
329.80 4.642
329.90 4.637
330.00 4.632
330.10 4.626
330.20 4.621
330.30 4.616
330.40 4.611
330.50 4.606
330.60 4.6
330.70 4.595
330.80 4.59
330.90 4.585
331.00 4.58
331.10 4.575
331.20 4.569
331.30 4.564
331.40 4.559
331.50 4.554
331.60 4.549
331.70 4.544
331.80 4.539
331.90 4.534
332.00 4.528
332.10 4.523
332.20 4.518
332.30 4.513
332.40 4.508
332.50 4.503
332.60 4.498
332.70 4.493
332.80 4.488
332.90 4.483
333.00 4.478
333.10 4.473
333.20 4.468
333.30 4.463
333.40 4.458
333.50 4.453
333.60 4.448
333.70 4.443
333.80 4.438
333.90 4.433
334.00 4.428
334.10 4.423
334.20 4.418
334.30 4.413
334.40 4.408
334.50 4.403
334.60 4.399
334.70 4.394
334.80 4.389
334.90 4.384
335.00 4.379
335.10 4.374
335.20 4.369
335.30 4.364
335.40 4.36
335.50 4.355
335.60 4.35
335.70 4.345
335.80 4.34
335.90 4.335
336.00 4.33
336.10 4.326
336.20 4.321
336.30 4.316
336.40 4.311
336.50 4.307
336.60 4.302
336.70 4.297
336.80 4.292
336.90 4.287
337.00 4.283
337.10 4.278
337.20 4.273
337.30 4.269
337.40 4.264
337.50 4.259
337.60 4.254
337.70 4.25
337.80 4.245
337.90 4.24
338.00 4.236
338.10 4.231
338.20 4.226
338.30 4.222
338.40 4.217
338.50 4.212
338.60 4.208
338.70 4.203
338.80 4.198
338.90 4.194
339.00 4.189
339.10 4.184
339.20 4.18
339.30 4.175
339.40 4.171
339.50 4.166
339.60 4.161
339.70 4.157
339.80 4.152
339.90 4.148
340.00 4.143
340.10 4.139
340.20 4.134
340.30 4.13
340.40 4.125
340.50 4.121
340.60 4.116
340.70 4.112
340.80 4.107
340.90 4.103
341.00 4.098
341.10 4.094
341.20 4.089
341.30 4.085
341.40 4.08
341.50 4.076
341.60 4.071
341.70 4.067
341.80 4.062
341.90 4.058
342.00 4.053
342.10 4.049
342.20 4.045
342.30 4.04
342.40 4.036
342.50 4.031
342.60 4.027
342.70 4.023
342.80 4.018
342.90 4.014
343.00 4.009
343.10 4.005
343.20 4.001
343.30 3.996
343.40 3.992
343.50 3.988
343.60 3.983
343.70 3.979
343.80 3.975
343.90 3.97
344.00 3.966
344.10 3.962
344.20 3.957
344.30 3.953
344.40 3.949
344.50 3.945
344.60 3.94
344.70 3.936
344.80 3.932
344.90 3.927
345.00 3.923
345.10 3.919
345.20 3.915
345.30 3.91
345.40 3.906
345.50 3.902
345.60 3.898
345.70 3.894
345.80 3.889
345.90 3.885
346.00 3.881
346.10 3.877
346.20 3.873
346.30 3.868
346.40 3.864
346.50 3.86
346.60 3.856
346.70 3.852
346.80 3.848
346.90 3.843
347.00 3.839
347.10 3.835
347.20 3.831
347.30 3.827
347.40 3.823
347.50 3.819
347.60 3.815
347.70 3.81
347.80 3.806
347.90 3.802
348.00 3.798
348.10 3.794
348.20 3.79
348.30 3.786
348.40 3.782
348.50 3.778
348.60 3.774
348.70 3.77
348.80 3.766
348.90 3.762
349.00 3.758
349.10 3.754
349.20 3.75
349.30 3.746
349.40 3.742
349.50 3.738
349.60 3.734
349.70 3.73
349.80 3.726
349.90 3.722
350.00 3.718
350.10 3.714
350.20 3.71
350.30 3.706
350.40 3.702
350.50 3.698
350.60 3.694
350.70 3.69
350.80 3.686
350.90 3.682
351.00 3.678
351.10 3.674
351.20 3.67
351.30 3.666
351.40 3.662
351.50 3.659
351.60 3.655
351.70 3.651
351.80 3.647
351.90 3.643
352.00 3.639
352.10 3.635
352.20 3.631
352.30 3.628
352.40 3.624
352.50 3.62
352.60 3.616
352.70 3.612
352.80 3.608
352.90 3.605
353.00 3.601
353.10 3.597
353.20 3.593
353.30 3.589
353.40 3.585
353.50 3.582
353.60 3.578
353.70 3.574
353.80 3.57
353.90 3.567
354.00 3.563
354.10 3.559
354.20 3.555
354.30 3.551
354.40 3.548
354.50 3.544
354.60 3.54
354.70 3.537
354.80 3.533
354.90 3.529
355.00 3.525
355.10 3.522
355.20 3.518
355.30 3.514
355.40 3.511
355.50 3.507
355.60 3.503
355.70 3.499
355.80 3.496
355.90 3.492
356.00 3.488
356.10 3.485
356.20 3.481
356.30 3.477
356.40 3.474
356.50 3.47
356.60 3.466
356.70 3.463
356.80 3.459
356.90 3.456
357.00 3.452
357.10 3.448
357.20 3.445
357.30 3.441
357.40 3.438
357.50 3.434
357.60 3.43
357.70 3.427
357.80 3.423
357.90 3.42
358.00 3.416
358.10 3.412
358.20 3.409
358.30 3.405
358.40 3.402
358.50 3.398
358.60 3.395
358.70 3.391
358.80 3.388
358.90 3.384
359.00 3.38
359.10 3.377
359.20 3.373
359.30 3.37
359.40 3.366
359.50 3.363
359.60 3.359
359.70 3.356
359.80 3.352
359.90 3.349
360.00 3.345
360.10 3.342
360.20 3.338
360.30 3.335
360.40 3.331
360.50 3.328
360.60 3.325
360.70 3.321
360.80 3.318
360.90 3.314
361.00 3.311
361.10 3.307
361.20 3.304
361.30 3.301
361.40 3.297
361.50 3.294
361.60 3.29
361.70 3.287
361.80 3.283
361.90 3.28
362.00 3.277
362.10 3.273
362.20 3.27
362.30 3.266
362.40 3.263
362.50 3.26
362.60 3.256
362.70 3.253
362.80 3.25
362.90 3.246
363.00 3.243
363.10 3.24
363.20 3.236
363.30 3.233
363.40 3.23
363.50 3.226
363.60 3.223
363.70 3.22
363.80 3.216
363.90 3.213
364.00 3.21
364.10 3.206
364.20 3.203
364.30 3.2
364.40 3.196
364.50 3.193
364.60 3.19
364.70 3.187
364.80 3.183
364.90 3.18
365.00 3.177
365.10 3.174
365.20 3.17
365.30 3.167
365.40 3.164
365.50 3.161
365.60 3.157
365.70 3.154
365.80 3.151
365.90 3.148
366.00 3.144
366.10 3.141
366.20 3.138
366.30 3.134
366.40 3.131
366.50 3.128
366.60 3.125
366.70 3.121
366.80 3.118
366.90 3.115
367.00 3.112
367.10 3.108
367.20 3.105
367.30 3.102
367.40 3.099
367.50 3.095
367.60 3.092
367.70 3.089
367.80 3.086
367.90 3.082
368.00 3.079
368.10 3.076
368.20 3.073
368.30 3.07
368.40 3.066
368.50 3.063
368.60 3.06
368.70 3.057
368.80 3.054
368.90 3.05
369.00 3.047
369.10 3.044
369.20 3.041
369.30 3.038
369.40 3.035
369.50 3.031
369.60 3.028
369.70 3.025
369.80 3.022
369.90 3.019
370.00 3.016
370.10 3.013
370.20 3.009
370.30 3.006
370.40 3.003
370.50 3
370.60 2.997
370.70 2.994
370.80 2.991
370.90 2.988
371.00 2.985
371.10 2.982
371.20 2.978
371.30 2.975
371.40 2.972
371.50 2.969
371.60 2.966
371.70 2.963
371.80 2.96
371.90 2.957
372.00 2.954
372.10 2.951
372.20 2.948
372.30 2.945
372.40 2.942
372.50 2.939
372.60 2.936
372.70 2.933
372.80 2.93
372.90 2.927
373.00 2.924
373.10 2.921
373.20 2.918
373.30 2.915
373.40 2.912
373.50 2.909
373.60 2.906
373.70 2.904
373.80 2.901
373.90 2.898
374.00 2.895
374.10 2.892
374.20 2.889
374.30 2.886
374.40 2.883
374.50 2.881
374.60 2.878
374.70 2.875
374.80 2.872
374.90 2.869
375.00 2.867
375.10 2.864
375.20 2.861
375.30 2.858
375.40 2.855
375.50 2.853
375.60 2.85
375.70 2.847
375.80 2.844
375.90 2.841
376.00 2.839
376.10 2.836
376.20 2.833
376.30 2.83
376.40 2.827
376.50 2.824
376.60 2.822
376.70 2.819
376.80 2.816
376.90 2.813
377.00 2.811
377.10 2.808
377.20 2.806
377.30 2.803
377.40 2.801
377.50 2.798
377.60 2.796
377.70 2.793
377.80 2.791
377.90 2.788
378.00 2.786
378.10 2.783
378.20 2.78
378.30 2.777
378.40 2.775
378.50 2.772
378.60 2.769
378.70 2.766
378.80 2.764
378.90 2.761
379.00 2.758
379.10 2.755
379.20 2.753
379.30 2.75
379.40 2.747
379.50 2.744
379.60 2.742
379.70 2.739
379.80 2.736
379.90 2.733
380.00 2.73
380.10 2.729
380.20 2.727
380.30 2.725
380.40 2.723
380.50 2.721
380.60 2.719
380.70 2.717
380.80 2.715
380.90 2.713
381.00 2.711
381.10 2.709
381.20 2.706
381.30 2.704
381.40 2.701
381.50 2.699
381.60 2.696
381.70 2.693
381.80 2.69
381.90 2.687
382.00 2.684
382.10 2.681
382.20 2.677
382.30 2.673
382.40 2.669
382.50 2.665
382.60 2.661
382.70 2.657
382.80 2.653
382.90 2.65
383.00 2.646
383.10 2.642
383.20 2.638
383.30 2.634
383.40 2.63
383.50 2.627
383.60 2.625
383.70 2.624
383.80 2.623
383.90 2.623
384.00 2.623
384.10 2.622
384.20 2.622
384.30 2.622
384.40 2.621
384.50 2.621
384.60 2.62
384.70 2.62
384.80 2.619
384.90 2.618
385.00 2.617
385.10 2.615
385.20 2.614
385.30 2.612
385.40 2.611
385.50 2.609
385.60 2.607
385.70 2.605
385.80 2.603
385.90 2.6
386.00 2.598
386.10 2.595
386.20 2.592
386.30 2.589
386.40 2.586
386.50 2.582
386.60 2.579
386.70 2.575
386.80 2.571
386.90 2.567
387.00 2.563
387.10 2.558
387.20 2.553
387.30 2.549
387.40 2.544
387.50 2.538
387.60 2.533
387.70 2.527
387.80 2.521
387.90 2.515
388.00 2.509
388.10 2.502
388.20 2.496
388.30 2.489
388.40 2.482
388.50 2.475
388.60 2.469
388.70 2.463
388.80 2.459
388.90 2.456
389.00 2.454
389.10 2.454
389.20 2.456
389.30 2.458
389.40 2.46
389.50 2.463
389.60 2.465
389.70 2.468
389.80 2.47
389.90 2.472
390.00 2.474
390.10 2.476
390.20 2.477
390.30 2.479
390.40 2.48
390.50 2.481
390.60 2.482
390.70 2.482
390.80 2.483
390.90 2.483
391.00 2.483
391.10 2.483
391.20 2.483
391.30 2.483
391.40 2.482
391.50 2.481
391.60 2.481
391.70 2.48
391.80 2.479
391.90 2.477
392.00 2.476
392.10 2.475
392.20 2.473
392.30 2.471
392.40 2.469
392.50 2.468
392.60 2.465
392.70 2.463
392.80 2.461
392.90 2.459
393.00 2.456
393.10 2.453
393.20 2.451
393.30 2.448
393.40 2.445
393.50 2.442
393.60 2.438
393.70 2.435
393.80 2.431
393.90 2.427
394.00 2.424
394.10 2.419
394.20 2.415
394.30 2.411
394.40 2.406
394.50 2.401
394.60 2.396
394.70 2.391
394.80 2.385
394.90 2.38
395.00 2.373
395.10 2.367
395.20 2.361
395.30 2.354
395.40 2.346
395.50 2.339
395.60 2.331
395.70 2.323
395.80 2.314
395.90 2.306
396.00 2.296
396.10 2.287
396.20 2.277
396.30 2.267
396.40 2.256
396.50 2.246
396.60 2.235
396.70 2.224
396.80 2.212
396.90 2.202
397.00 2.191
397.10 2.197
397.20 2.203
397.30 2.21
397.40 2.218
397.50 2.224
397.60 2.231
397.70 2.237
397.80 2.243
397.90 2.249
398.00 2.255
398.10 2.26
398.20 2.264
398.30 2.269
398.40 2.273
398.50 2.276
398.60 2.28
398.70 2.283
398.80 2.285
398.90 2.288
399.00 2.29
399.10 2.292
399.20 2.293
399.30 2.295
399.40 2.296
399.50 2.297
399.60 2.298
399.70 2.298
399.80 2.299
399.90 2.299
400.00 2.299
400.10 2.299
400.20 2.299
400.30 2.298
400.40 2.298
400.50 2.297
400.60 2.297
400.70 2.296
400.80 2.295
400.90 2.294
401.00 2.293
401.10 2.292
401.20 2.291
401.30 2.289
401.40 2.288
401.50 2.287
401.60 2.285
401.70 2.284
401.80 2.282
401.90 2.281
402.00 2.279
402.10 2.278
402.20 2.276
402.30 2.274
402.40 2.272
402.50 2.271
402.60 2.269
402.70 2.267
402.80 2.265
402.90 2.263
403.00 2.261
403.10 2.259
403.20 2.257
403.30 2.255
403.40 2.253
403.50 2.251
403.60 2.249
403.70 2.247
403.80 2.245
403.90 2.242
404.00 2.24
404.10 2.238
404.20 2.236
404.30 2.233
404.40 2.231
404.50 2.229
404.60 2.226
404.70 2.224
404.80 2.221
404.90 2.219
405.00 2.216
405.10 2.214
405.20 2.211
405.30 2.209
405.40 2.206
405.50 2.203
405.60 2.2
405.70 2.197
405.80 2.194
405.90 2.191
406.00 2.188
406.10 2.185
406.20 2.182
406.30 2.179
406.40 2.175
406.50 2.172
406.60 2.168
406.70 2.164
406.80 2.161
406.90 2.157
407.00 2.153
407.10 2.148
407.20 2.144
407.30 2.139
407.40 2.134
407.50 2.129
407.60 2.124
407.70 2.119
407.80 2.113
407.90 2.107
408.00 2.101
408.10 2.094
408.20 2.087
408.30 2.08
408.40 2.072
408.50 2.064
408.60 2.056
408.70 2.047
408.80 2.037
408.90 2.028
409.00 2.017
409.10 2.007
409.20 1.995
409.30 1.983
409.40 1.971
409.50 1.958
409.60 1.944
409.70 1.93
409.80 1.915
409.90 1.9
410.00 1.886
410.10 1.879
410.20 1.878
410.30 1.879
410.40 1.885
410.50 1.897
410.60 1.909
410.70 1.92
410.80 1.93
410.90 1.94
411.00 1.949
411.10 1.958
411.20 1.965
411.30 1.973
411.40 1.98
411.50 1.986
411.60 1.991
411.70 1.997
411.80 2.002
411.90 2.006
412.00 2.01
412.10 2.013
412.20 2.017
412.30 2.019
412.40 2.022
412.50 2.024
412.60 2.026
412.70 2.028
412.80 2.029
412.90 2.03
413.00 2.031
413.10 2.032
413.20 2.033
413.30 2.033
413.40 2.033
413.50 2.033
413.60 2.033
413.70 2.033
413.80 2.033
413.90 2.032
414.00 2.032
414.10 2.031
414.20 2.031
414.30 2.03
414.40 2.029
414.50 2.028
414.60 2.027
414.70 2.026
414.80 2.025
414.90 2.024
415.00 2.023
415.10 2.022
415.20 2.021
415.30 2.02
415.40 2.018
415.50 2.017
415.60 2.016
415.70 2.014
415.80 2.013
415.90 2.011
416.00 2.01
416.10 2.008
416.20 2.007
416.30 2.006
416.40 2.004
416.50 2.002
416.60 2.001
416.70 1.999
416.80 1.998
416.90 1.996
417.00 1.995
417.10 1.993
417.20 1.991
417.30 1.99
417.40 1.988
417.50 1.987
417.60 1.985
417.70 1.983
417.80 1.982
417.90 1.98
418.00 1.978
418.10 1.977
418.20 1.975
418.30 1.973
418.40 1.972
418.50 1.97
418.60 1.968
418.70 1.967
418.80 1.965
418.90 1.963
419.00 1.961
419.10 1.96
419.20 1.958
419.30 1.956
419.40 1.955
419.50 1.953
419.60 1.951
419.70 1.95
419.80 1.948
419.90 1.946
420.00 1.944
420.10 1.943
420.20 1.941
420.30 1.939
420.40 1.938
420.50 1.936
420.60 1.934
420.70 1.932
420.80 1.931
420.90 1.929
421.00 1.927
421.10 1.925
421.20 1.924
421.30 1.922
421.40 1.92
421.50 1.919
421.60 1.917
421.70 1.915
421.80 1.913
421.90 1.912
422.00 1.91
422.10 1.908
422.20 1.907
422.30 1.905
422.40 1.903
422.50 1.901
422.60 1.9
422.70 1.898
422.80 1.896
422.90 1.894
423.00 1.893
423.10 1.891
423.20 1.889
423.30 1.888
423.40 1.886
423.50 1.884
423.60 1.882
423.70 1.881
423.80 1.879
423.90 1.877
424.00 1.876
424.10 1.874
424.20 1.872
424.30 1.87
424.40 1.869
424.50 1.867
424.60 1.865
424.70 1.863
424.80 1.862
424.90 1.86
425.00 1.858
425.10 1.856
425.20 1.855
425.30 1.853
425.40 1.851
425.50 1.849
425.60 1.848
425.70 1.846
425.80 1.844
425.90 1.842
426.00 1.841
426.10 1.839
426.20 1.837
426.30 1.835
426.40 1.834
426.50 1.832
426.60 1.83
426.70 1.828
426.80 1.826
426.90 1.825
427.00 1.823
427.10 1.821
427.20 1.819
427.30 1.817
427.40 1.816
427.50 1.814
427.60 1.812
427.70 1.81
427.80 1.808
427.90 1.806
428.00 1.804
428.10 1.802
428.20 1.8
428.30 1.798
428.40 1.797
428.50 1.795
428.60 1.793
428.70 1.79
428.80 1.788
428.90 1.786
429.00 1.784
429.10 1.782
429.20 1.78
429.30 1.778
429.40 1.776
429.50 1.773
429.60 1.771
429.70 1.769
429.80 1.766
429.90 1.764
430.00 1.761
430.10 1.759
430.20 1.756
430.30 1.753
430.40 1.75
430.50 1.747
430.60 1.744
430.70 1.741
430.80 1.738
430.90 1.735
431.00 1.731
431.10 1.727
431.20 1.724
431.30 1.72
431.40 1.716
431.50 1.711
431.60 1.707
431.70 1.702
431.80 1.697
431.90 1.691
432.00 1.686
432.10 1.68
432.20 1.673
432.30 1.666
432.40 1.659
432.50 1.652
432.60 1.644
432.70 1.635
432.80 1.626
432.90 1.616
433.00 1.606
433.10 1.596
433.20 1.584
433.30 1.573
433.40 1.56
433.50 1.547
433.60 1.533
433.70 1.518
433.80 1.502
433.90 1.485
434.00 1.47
434.10 1.47
434.20 1.483
434.30 1.497
434.40 1.511
434.50 1.523
434.60 1.534
434.70 1.544
434.80 1.554
434.90 1.563
435.00 1.571
435.10 1.579
435.20 1.586
435.30 1.593
435.40 1.599
435.50 1.604
435.60 1.609
435.70 1.614
435.80 1.618
435.90 1.622
436.00 1.625
436.10 1.628
436.20 1.631
436.30 1.633
436.40 1.635
436.50 1.637
436.60 1.638
436.70 1.64
436.80 1.641
436.90 1.642
437.00 1.642
437.10 1.643
437.20 1.643
437.30 1.644
437.40 1.644
437.50 1.644
437.60 1.644
437.70 1.643
437.80 1.643
437.90 1.643
438.00 1.642
438.10 1.642
438.20 1.641
438.30 1.641
438.40 1.64
438.50 1.639
438.60 1.639
438.70 1.638
438.80 1.637
438.90 1.636
439.00 1.635
439.10 1.634
439.20 1.633
439.30 1.632
439.40 1.631
439.50 1.63
439.60 1.629
439.70 1.628
439.80 1.627
439.90 1.626
440.00 1.625
440.10 1.624
440.20 1.623
440.30 1.621
440.40 1.62
440.50 1.619
440.60 1.618
440.70 1.617
440.80 1.615
440.90 1.614
441.00 1.613
441.10 1.612
441.20 1.611
441.30 1.609
441.40 1.608
441.50 1.607
441.60 1.606
441.70 1.604
441.80 1.603
441.90 1.602
442.00 1.6
442.10 1.599
442.20 1.598
442.30 1.597
442.40 1.595
442.50 1.594
442.60 1.593
442.70 1.591
442.80 1.59
442.90 1.589
443.00 1.588
443.10 1.586
443.20 1.585
443.30 1.584
443.40 1.582
443.50 1.581
443.60 1.58
443.70 1.578
443.80 1.577
443.90 1.576
444.00 1.575
444.10 1.573
444.20 1.572
444.30 1.571
444.40 1.569
444.50 1.568
444.60 1.567
444.70 1.565
444.80 1.564
444.90 1.563
445.00 1.561
445.10 1.56
445.20 1.559
445.30 1.558
445.40 1.556
445.50 1.555
445.60 1.554
445.70 1.552
445.80 1.551
445.90 1.55
446.00 1.548
446.10 1.547
446.20 1.546
446.30 1.545
446.40 1.543
446.50 1.542
446.60 1.541
446.70 1.539
446.80 1.538
446.90 1.537
447.00 1.535
447.10 1.534
447.20 1.533
447.30 1.532
447.40 1.53
447.50 1.529
447.60 1.528
447.70 1.526
447.80 1.525
447.90 1.524
448.00 1.523
448.10 1.521
448.20 1.52
448.30 1.519
448.40 1.517
448.50 1.516
448.60 1.515
448.70 1.514
448.80 1.512
448.90 1.511
449.00 1.51
449.10 1.508
449.20 1.507
449.30 1.506
449.40 1.505
449.50 1.503
449.60 1.502
449.70 1.501
449.80 1.5
449.90 1.498
450.00 1.497
450.10 1.496
450.20 1.495
450.30 1.493
450.40 1.492
450.50 1.491
450.60 1.489
450.70 1.488
450.80 1.487
450.90 1.486
451.00 1.484
451.10 1.483
451.20 1.482
451.30 1.481
451.40 1.479
451.50 1.478
451.60 1.477
451.70 1.476
451.80 1.474
451.90 1.473
452.00 1.472
452.10 1.471
452.20 1.47
452.30 1.468
452.40 1.467
452.50 1.466
452.60 1.465
452.70 1.463
452.80 1.462
452.90 1.461
453.00 1.46
453.10 1.458
453.20 1.457
453.30 1.456
453.40 1.455
453.50 1.454
453.60 1.452
453.70 1.451
453.80 1.45
453.90 1.449
454.00 1.447
454.10 1.446
454.20 1.445
454.30 1.444
454.40 1.443
454.50 1.441
454.60 1.44
454.70 1.439
454.80 1.438
454.90 1.437
455.00 1.435
455.10 1.434
455.20 1.433
455.30 1.432
455.40 1.431
455.50 1.429
455.60 1.428
455.70 1.427
455.80 1.426
455.90 1.425
456.00 1.423
456.10 1.422
456.20 1.421
456.30 1.42
456.40 1.419
456.50 1.417
456.60 1.416
456.70 1.415
456.80 1.414
456.90 1.413
457.00 1.411
457.10 1.41
457.20 1.409
457.30 1.408
457.40 1.407
457.50 1.406
457.60 1.404
457.70 1.403
457.80 1.402
457.90 1.401
458.00 1.4
458.10 1.399
458.20 1.397
458.30 1.396
458.40 1.395
458.50 1.394
458.60 1.393
458.70 1.392
458.80 1.39
458.90 1.389
459.00 1.388
459.10 1.387
459.20 1.386
459.30 1.385
459.40 1.384
459.50 1.382
459.60 1.381
459.70 1.38
459.80 1.379
459.90 1.378
460.00 1.377
460.10 1.375
460.20 1.374
460.30 1.373
460.40 1.372
460.50 1.371
460.60 1.37
460.70 1.369
460.80 1.367
460.90 1.366
461.00 1.365
461.10 1.364
461.20 1.363
461.30 1.362
461.40 1.361
461.50 1.36
461.60 1.358
461.70 1.357
461.80 1.356
461.90 1.355
462.00 1.354
462.10 1.353
462.20 1.352
462.30 1.351
462.40 1.349
462.50 1.348
462.60 1.347
462.70 1.346
462.80 1.345
462.90 1.344
463.00 1.343
463.10 1.342
463.20 1.341
463.30 1.339
463.40 1.338
463.50 1.337
463.60 1.336
463.70 1.335
463.80 1.334
463.90 1.333
464.00 1.332
464.10 1.331
464.20 1.33
464.30 1.328
464.40 1.327
464.50 1.326
464.60 1.325
464.70 1.324
464.80 1.323
464.90 1.322
465.00 1.321
465.10 1.32
465.20 1.319
465.30 1.317
465.40 1.316
465.50 1.315
465.60 1.314
465.70 1.313
465.80 1.312
465.90 1.311
466.00 1.31
466.10 1.309
466.20 1.308
466.30 1.307
466.40 1.306
466.50 1.305
466.60 1.303
466.70 1.302
466.80 1.301
466.90 1.3
467.00 1.299
467.10 1.298
467.20 1.297
467.30 1.296
467.40 1.295
467.50 1.294
467.60 1.293
467.70 1.292
467.80 1.291
467.90 1.29
468.00 1.289
468.10 1.287
468.20 1.286
468.30 1.285
468.40 1.284
468.50 1.283
468.60 1.282
468.70 1.281
468.80 1.28
468.90 1.279
469.00 1.278
469.10 1.277
469.20 1.276
469.30 1.275
469.40 1.274
469.50 1.273
469.60 1.272
469.70 1.271
469.80 1.27
469.90 1.269
470.00 1.268
470.10 1.266
470.20 1.265
470.30 1.264
470.40 1.263
470.50 1.262
470.60 1.261
470.70 1.26
470.80 1.259
470.90 1.258
471.00 1.257
471.10 1.256
471.20 1.255
471.30 1.254
471.40 1.253
471.50 1.252
471.60 1.251
471.70 1.25
471.80 1.249
471.90 1.248
472.00 1.247
472.10 1.246
472.20 1.245
472.30 1.244
472.40 1.243
472.50 1.242
472.60 1.241
472.70 1.24
472.80 1.239
472.90 1.238
473.00 1.237
473.10 1.236
473.20 1.235
473.30 1.234
473.40 1.233
473.50 1.232
473.60 1.231
473.70 1.23
473.80 1.229
473.90 1.227
474.00 1.226
474.10 1.225
474.20 1.224
474.30 1.223
474.40 1.222
474.50 1.221
474.60 1.22
474.70 1.219
474.80 1.218
474.90 1.217
475.00 1.216
475.10 1.215
475.20 1.214
475.30 1.213
475.40 1.212
475.50 1.211
475.60 1.21
475.70 1.209
475.80 1.208
475.90 1.207
476.00 1.206
476.10 1.205
476.20 1.204
476.30 1.203
476.40 1.202
476.50 1.201
476.60 1.2
476.70 1.199
476.80 1.198
476.90 1.197
477.00 1.196
477.10 1.195
477.20 1.194
477.30 1.193
477.40 1.192
477.50 1.191
477.60 1.19
477.70 1.189
477.80 1.188
477.90 1.187
478.00 1.186
478.10 1.185
478.20 1.184
478.30 1.183
478.40 1.182
478.50 1.181
478.60 1.18
478.70 1.179
478.80 1.178
478.90 1.176
479.00 1.175
479.10 1.174
479.20 1.173
479.30 1.172
479.40 1.171
479.50 1.17
479.60 1.169
479.70 1.168
479.80 1.167
479.90 1.166
480.00 1.165
480.10 1.163
480.20 1.162
480.30 1.161
480.40 1.16
480.50 1.159
480.60 1.157
480.70 1.156
480.80 1.155
480.90 1.154
481.00 1.153
481.10 1.152
481.20 1.15
481.30 1.149
481.40 1.147
481.50 1.146
481.60 1.145
481.70 1.143
481.80 1.142
481.90 1.14
482.00 1.139
482.10 1.138
482.20 1.136
482.30 1.134
482.40 1.132
482.50 1.131
482.60 1.129
482.70 1.127
482.80 1.125
482.90 1.123
483.00 1.121
483.10 1.12
483.20 1.117
483.30 1.114
483.40 1.112
483.50 1.109
483.60 1.106
483.70 1.103
483.80 1.1
483.90 1.098
484.00 1.095
484.10 1.092
484.20 1.088
484.30 1.084
484.40 1.08
484.50 1.076
484.60 1.072
484.70 1.067
484.80 1.061
484.90 1.055
485.00 1.05
485.10 1.044
485.20 1.037
485.30 1.031
485.40 1.023
485.50 1.015
485.60 1.006
485.70 0.9972
485.80 0.9854
485.90 0.9723
486.00 0.9549
486.10 0.9488
486.20 0.9447
486.30 0.9594
486.40 0.9727
486.50 0.9843
486.60 0.9933
486.70 1.001
486.80 1.008
486.90 1.014
487.00 1.019
487.10 1.025
487.20 1.029
487.30 1.033
487.40 1.037
487.50 1.041
487.60 1.045
487.70 1.048
487.80 1.05
487.90 1.053
488.00 1.055
488.10 1.058
488.20 1.059
488.30 1.06
488.40 1.061
488.50 1.062
488.60 1.063
488.70 1.064
488.80 1.065
488.90 1.066
489.00 1.067
489.10 1.068
489.20 1.068
489.30 1.068
489.40 1.068
489.50 1.068
489.60 1.068
489.70 1.068
489.80 1.068
489.90 1.069
490.00 1.069
490.10 1.069
490.20 1.068
490.30 1.068
490.40 1.067
490.50 1.067
490.60 1.067
490.70 1.066
490.80 1.066
490.90 1.065
491.00 1.065
491.10 1.065
491.20 1.064
491.30 1.064
491.40 1.063
491.50 1.062
491.60 1.062
491.70 1.061
491.80 1.061
491.90 1.06
492.00 1.059
492.10 1.059
492.20 1.058
492.30 1.058
492.40 1.057
492.50 1.056
492.60 1.055
492.70 1.055
492.80 1.054
492.90 1.053
493.00 1.053
493.10 1.052
493.20 1.051
493.30 1.051
493.40 1.05
493.50 1.049
493.60 1.048
493.70 1.048
493.80 1.047
493.90 1.046
494.00 1.046
494.10 1.045
494.20 1.044
494.30 1.043
494.40 1.043
494.50 1.042
494.60 1.041
494.70 1.04
494.80 1.04
494.90 1.039
495.00 1.038
495.10 1.037
495.20 1.037
495.30 1.036
495.40 1.035
495.50 1.034
495.60 1.034
495.70 1.033
495.80 1.032
495.90 1.031
496.00 1.03
496.10 1.03
496.20 1.029
496.30 1.028
496.40 1.027
496.50 1.027
496.60 1.026
496.70 1.025
496.80 1.024
496.90 1.024
497.00 1.023
497.10 1.022
497.20 1.021
497.30 1.021
497.40 1.02
497.50 1.019
497.60 1.018
497.70 1.017
497.80 1.017
497.90 1.016
498.00 1.015
498.10 1.014
498.20 1.014
498.30 1.013
498.40 1.012
498.50 1.011
498.60 1.011
498.70 1.01
498.80 1.009
498.90 1.008
499.00 1.008
499.10 1.007
499.20 1.006
499.30 1.005
499.40 1.005
499.50 1.004
499.60 1.003
499.70 1.002
499.80 1.002
499.90 1.001
500.00 1
500.10 0.9992
500.20 0.9985
500.30 0.9977
500.40 0.997
500.50 0.9962
500.60 0.9955
500.70 0.9947
500.80 0.994
500.90 0.9932
501.00 0.9925
501.10 0.9917
501.20 0.991
501.30 0.9902
501.40 0.9895
501.50 0.9887
501.60 0.988
501.70 0.9872
501.80 0.9865
501.90 0.9857
502.00 0.985
502.10 0.9842
502.20 0.9835
502.30 0.9827
502.40 0.982
502.50 0.9812
502.60 0.9805
502.70 0.9798
502.80 0.979
502.90 0.9783
503.00 0.9775
503.10 0.9768
503.20 0.9761
503.30 0.9753
503.40 0.9746
503.50 0.9738
503.60 0.9731
503.70 0.9724
503.80 0.9716
503.90 0.9709
504.00 0.9702
504.10 0.9694
504.20 0.9687
504.30 0.968
504.40 0.9672
504.50 0.9665
504.60 0.9658
504.70 0.965
504.80 0.9643
504.90 0.9636
505.00 0.9629
505.10 0.9621
505.20 0.9614
505.30 0.9607
505.40 0.96
505.50 0.9592
505.60 0.9585
505.70 0.9578
505.80 0.9571
505.90 0.9563
506.00 0.9556
506.10 0.9549
506.20 0.9542
506.30 0.9534
506.40 0.9527
506.50 0.952
506.60 0.9513
506.70 0.9506
506.80 0.9499
506.90 0.9491
507.00 0.9484
507.10 0.9477
507.20 0.947
507.30 0.9463
507.40 0.9456
507.50 0.9449
507.60 0.9441
507.70 0.9434
507.80 0.9427
507.90 0.942
508.00 0.9413
508.10 0.9406
508.20 0.9399
508.30 0.9392
508.40 0.9385
508.50 0.9378
508.60 0.9371
508.70 0.9364
508.80 0.9357
508.90 0.9349
509.00 0.9342
509.10 0.9335
509.20 0.9328
509.30 0.9321
509.40 0.9314
509.50 0.9307
509.60 0.93
509.70 0.9293
509.80 0.9286
509.90 0.9279
510.00 0.9272
510.10 0.9266
510.20 0.9259
510.30 0.9252
510.40 0.9245
510.50 0.9238
510.60 0.9231
510.70 0.9224
510.80 0.9217
510.90 0.921
511.00 0.9203
511.10 0.9196
511.20 0.9189
511.30 0.9183
511.40 0.9176
511.50 0.9169
511.60 0.9162
511.70 0.9155
511.80 0.9148
511.90 0.9141
512.00 0.9135
512.10 0.9128
512.20 0.9121
512.30 0.9114
512.40 0.9107
512.50 0.91
512.60 0.9094
512.70 0.9087
512.80 0.908
512.90 0.9073
513.00 0.9066
513.10 0.906
513.20 0.9053
513.30 0.9046
513.40 0.9039
513.50 0.9033
513.60 0.9026
513.70 0.9019
513.80 0.9013
513.90 0.9006
514.00 0.8999
514.10 0.8992
514.20 0.8986
514.30 0.8979
514.40 0.8972
514.50 0.8966
514.60 0.8959
514.70 0.8952
514.80 0.8946
514.90 0.8939
515.00 0.8932
515.10 0.8926
515.20 0.8919
515.30 0.8912
515.40 0.8906
515.50 0.8899
515.60 0.8893
515.70 0.8886
515.80 0.8879
515.90 0.8873
516.00 0.8866
516.10 0.886
516.20 0.8853
516.30 0.8846
516.40 0.884
516.50 0.8833
516.60 0.8827
516.70 0.882
516.80 0.8814
516.90 0.8807
517.00 0.88
517.10 0.8794
517.20 0.8787
517.30 0.8781
517.40 0.8774
517.50 0.8768
517.60 0.8761
517.70 0.8755
517.80 0.8748
517.90 0.8742
518.00 0.8735
518.10 0.8729
518.20 0.8723
518.30 0.8716
518.40 0.871
518.50 0.8703
518.60 0.8697
518.70 0.869
518.80 0.8684
518.90 0.8678
519.00 0.8671
519.10 0.8665
519.20 0.8658
519.30 0.8652
519.40 0.8646
519.50 0.8639
519.60 0.8633
519.70 0.8626
519.80 0.862
519.90 0.8614
520.00 0.8607
520.10 0.8601
520.20 0.8595
520.30 0.8588
520.40 0.8582
520.50 0.8576
520.60 0.8569
520.70 0.8563
520.80 0.8557
520.90 0.855
521.00 0.8544
521.10 0.8538
521.20 0.8532
521.30 0.8525
521.40 0.8519
521.50 0.8513
521.60 0.8507
521.70 0.85
521.80 0.8494
521.90 0.8488
522.00 0.8481
522.10 0.8475
522.20 0.8469
522.30 0.8463
522.40 0.8457
522.50 0.845
522.60 0.8444
522.70 0.8438
522.80 0.8432
522.90 0.8426
523.00 0.8419
523.10 0.8413
523.20 0.8407
523.30 0.8401
523.40 0.8395
523.50 0.8389
523.60 0.8382
523.70 0.8376
523.80 0.837
523.90 0.8364
524.00 0.8358
524.10 0.8352
524.20 0.8346
524.30 0.834
524.40 0.8333
524.50 0.8327
524.60 0.8321
524.70 0.8315
524.80 0.8309
524.90 0.8303
525.00 0.8297
525.10 0.8291
525.20 0.8285
525.30 0.8279
525.40 0.8273
525.50 0.8267
525.60 0.8261
525.70 0.8255
525.80 0.8249
525.90 0.8243
526.00 0.8237
526.10 0.8231
526.20 0.8225
526.30 0.8219
526.40 0.8213
526.50 0.8207
526.60 0.8201
526.70 0.8195
526.80 0.8189
526.90 0.8183
527.00 0.8177
527.10 0.8171
527.20 0.8165
527.30 0.8159
527.40 0.8153
527.50 0.8147
527.60 0.8141
527.70 0.8135
527.80 0.8129
527.90 0.8123
528.00 0.8117
528.10 0.8112
528.20 0.8106
528.30 0.81
528.40 0.8094
528.50 0.8088
528.60 0.8082
528.70 0.8076
528.80 0.807
528.90 0.8065
529.00 0.8059
529.10 0.8053
529.20 0.8047
529.30 0.8041
529.40 0.8035
529.50 0.803
529.60 0.8024
529.70 0.8018
529.80 0.8012
529.90 0.8006
530.00 0.8
530.10 0.7995
530.20 0.7989
530.30 0.7983
530.40 0.7977
530.50 0.7972
530.60 0.7966
530.70 0.796
530.80 0.7954
530.90 0.7949
531.00 0.7943
531.10 0.7937
531.20 0.7931
531.30 0.7926
531.40 0.792
531.50 0.7914
531.60 0.7908
531.70 0.7903
531.80 0.7897
531.90 0.7891
532.00 0.7886
532.10 0.788
532.20 0.7874
532.30 0.7869
532.40 0.7863
532.50 0.7857
532.60 0.7852
532.70 0.7846
532.80 0.784
532.90 0.7835
533.00 0.7829
533.10 0.7823
533.20 0.7818
533.30 0.7812
533.40 0.7806
533.50 0.7801
533.60 0.7795
533.70 0.779
533.80 0.7784
533.90 0.7778
534.00 0.7773
534.10 0.7767
534.20 0.7762
534.30 0.7756
534.40 0.775
534.50 0.7745
534.60 0.7739
534.70 0.7734
534.80 0.7728
534.90 0.7723
535.00 0.7717
535.10 0.7712
535.20 0.7706
535.30 0.7701
535.40 0.7695
535.50 0.7689
535.60 0.7684
535.70 0.7678
535.80 0.7673
535.90 0.7667
536.00 0.7662
536.10 0.7656
536.20 0.7651
536.30 0.7646
536.40 0.764
536.50 0.7635
536.60 0.7629
536.70 0.7624
536.80 0.7618
536.90 0.7613
537.00 0.7607
537.10 0.7602
537.20 0.7596
537.30 0.7591
537.40 0.7586
537.50 0.758
537.60 0.7575
537.70 0.7569
537.80 0.7564
537.90 0.7559
538.00 0.7553
538.10 0.7548
538.20 0.7542
538.30 0.7537
538.40 0.7532
538.50 0.7526
538.60 0.7521
538.70 0.7515
538.80 0.751
538.90 0.7505
539.00 0.7499
539.10 0.7494
539.20 0.7489
539.30 0.7483
539.40 0.7478
539.50 0.7473
539.60 0.7467
539.70 0.7462
539.80 0.7457
539.90 0.7452
540.00 0.7446
540.10 0.7441
540.20 0.7436
540.30 0.743
540.40 0.7425
540.50 0.742
540.60 0.7415
540.70 0.7409
540.80 0.7404
540.90 0.7399
541.00 0.7393
541.10 0.7388
541.20 0.7383
541.30 0.7378
541.40 0.7372
541.50 0.7367
541.60 0.7362
541.70 0.7357
541.80 0.7352
541.90 0.7346
542.00 0.7341
542.10 0.7336
542.20 0.7331
542.30 0.7326
542.40 0.732
542.50 0.7315
542.60 0.731
542.70 0.7305
542.80 0.73
542.90 0.7295
543.00 0.7289
543.10 0.7284
543.20 0.7279
543.30 0.7274
543.40 0.7269
543.50 0.7264
543.60 0.7259
543.70 0.7253
543.80 0.7248
543.90 0.7243
544.00 0.7238
544.10 0.7233
544.20 0.7228
544.30 0.7223
544.40 0.7218
544.50 0.7213
544.60 0.7207
544.70 0.7202
544.80 0.7197
544.90 0.7192
545.00 0.7187
545.10 0.7182
545.20 0.7177
545.30 0.7172
545.40 0.7167
545.50 0.7162
545.60 0.7157
545.70 0.7152
545.80 0.7147
545.90 0.7142
546.00 0.7137
546.10 0.7132
546.20 0.7127
546.30 0.7122
546.40 0.7117
546.50 0.7112
546.60 0.7107
546.70 0.7102
546.80 0.7097
546.90 0.7092
547.00 0.7087
547.10 0.7082
547.20 0.7077
547.30 0.7072
547.40 0.7067
547.50 0.7062
547.60 0.7057
547.70 0.7052
547.80 0.7047
547.90 0.7042
548.00 0.7037
548.10 0.7032
548.20 0.7027
548.30 0.7022
548.40 0.7017
548.50 0.7012
548.60 0.7008
548.70 0.7003
548.80 0.6998
548.90 0.6993
549.00 0.6988
549.10 0.6983
549.20 0.6978
549.30 0.6973
549.40 0.6968
549.50 0.6963
549.60 0.6959
549.70 0.6954
549.80 0.6949
549.90 0.6944
550.00 0.6939
550.10 0.6934
550.20 0.6929
550.30 0.6925
550.40 0.692
550.50 0.6915
550.60 0.691
550.70 0.6905
550.80 0.6901
550.90 0.6896
551.00 0.6891
551.10 0.6886
551.20 0.6881
551.30 0.6877
551.40 0.6872
551.50 0.6867
551.60 0.6862
551.70 0.6857
551.80 0.6853
551.90 0.6848
552.00 0.6843
552.10 0.6838
552.20 0.6834
552.30 0.6829
552.40 0.6824
552.50 0.6819
552.60 0.6815
552.70 0.681
552.80 0.6805
552.90 0.68
553.00 0.6796
553.10 0.6791
553.20 0.6786
553.30 0.6781
553.40 0.6777
553.50 0.6772
553.60 0.6767
553.70 0.6763
553.80 0.6758
553.90 0.6753
554.00 0.6749
554.10 0.6744
554.20 0.6739
554.30 0.6734
554.40 0.673
554.50 0.6725
554.60 0.672
554.70 0.6716
554.80 0.6711
554.90 0.6707
555.00 0.6702
555.10 0.6697
555.20 0.6693
555.30 0.6688
555.40 0.6683
555.50 0.6679
555.60 0.6674
555.70 0.6669
555.80 0.6665
555.90 0.666
556.00 0.6656
556.10 0.6651
556.20 0.6646
556.30 0.6642
556.40 0.6637
556.50 0.6633
556.60 0.6628
556.70 0.6624
556.80 0.6619
556.90 0.6614
557.00 0.661
557.10 0.6605
557.20 0.6601
557.30 0.6596
557.40 0.6592
557.50 0.6587
557.60 0.6583
557.70 0.6578
557.80 0.6573
557.90 0.6569
558.00 0.6564
558.10 0.656
558.20 0.6555
558.30 0.6551
558.40 0.6546
558.50 0.6542
558.60 0.6537
558.70 0.6533
558.80 0.6528
558.90 0.6524
559.00 0.6519
559.10 0.6515
559.20 0.651
559.30 0.6506
559.40 0.6501
559.50 0.6497
559.60 0.6493
559.70 0.6488
559.80 0.6484
559.90 0.6479
560.00 0.6475
560.10 0.647
560.20 0.6466
560.30 0.6461
560.40 0.6457
560.50 0.6453
560.60 0.6448
560.70 0.6444
560.80 0.6439
560.90 0.6435
561.00 0.643
561.10 0.6426
561.20 0.6422
561.30 0.6417
561.40 0.6413
561.50 0.6408
561.60 0.6404
561.70 0.64
561.80 0.6395
561.90 0.6391
562.00 0.6387
562.10 0.6382
562.20 0.6378
562.30 0.6373
562.40 0.6369
562.50 0.6365
562.60 0.636
562.70 0.6356
562.80 0.6352
562.90 0.6347
563.00 0.6343
563.10 0.6339
563.20 0.6334
563.30 0.633
563.40 0.6326
563.50 0.6321
563.60 0.6317
563.70 0.6313
563.80 0.6308
563.90 0.6304
564.00 0.63
564.10 0.6296
564.20 0.6291
564.30 0.6287
564.40 0.6283
564.50 0.6278
564.60 0.6274
564.70 0.627
564.80 0.6266
564.90 0.6261
565.00 0.6257
565.10 0.6253
565.20 0.6249
565.30 0.6244
565.40 0.624
565.50 0.6236
565.60 0.6232
565.70 0.6227
565.80 0.6223
565.90 0.6219
566.00 0.6215
566.10 0.621
566.20 0.6206
566.30 0.6202
566.40 0.6198
566.50 0.6194
566.60 0.6189
566.70 0.6185
566.80 0.6181
566.90 0.6177
567.00 0.6173
567.10 0.6168
567.20 0.6164
567.30 0.616
567.40 0.6156
567.50 0.6152
567.60 0.6147
567.70 0.6143
567.80 0.6139
567.90 0.6135
568.00 0.6131
568.10 0.6127
568.20 0.6123
568.30 0.6118
568.40 0.6114
568.50 0.611
568.60 0.6106
568.70 0.6102
568.80 0.6098
568.90 0.6094
569.00 0.6089
569.10 0.6085
569.20 0.6081
569.30 0.6077
569.40 0.6073
569.50 0.6069
569.60 0.6065
569.70 0.6061
569.80 0.6057
569.90 0.6053
570.00 0.6048
570.10 0.6044
570.20 0.604
570.30 0.6036
570.40 0.6032
570.50 0.6028
570.60 0.6024
570.70 0.602
570.80 0.6016
570.90 0.6012
571.00 0.6008
571.10 0.6004
571.20 0.6
571.30 0.5996
571.40 0.5992
571.50 0.5988
571.60 0.5984
571.70 0.598
571.80 0.5976
571.90 0.5972
572.00 0.5968
572.10 0.5963
572.20 0.5959
572.30 0.5955
572.40 0.5951
572.50 0.5947
572.60 0.5943
572.70 0.5939
572.80 0.5936
572.90 0.5932
573.00 0.5928
573.10 0.5924
573.20 0.592
573.30 0.5916
573.40 0.5912
573.50 0.5908
573.60 0.5904
573.70 0.59
573.80 0.5896
573.90 0.5892
574.00 0.5888
574.10 0.5884
574.20 0.588
574.30 0.5876
574.40 0.5872
574.50 0.5868
574.60 0.5864
574.70 0.586
574.80 0.5856
574.90 0.5852
575.00 0.5849
575.10 0.5845
575.20 0.5841
575.30 0.5837
575.40 0.5833
575.50 0.5829
575.60 0.5825
575.70 0.5821
575.80 0.5817
575.90 0.5813
576.00 0.581
576.10 0.5806
576.20 0.5802
576.30 0.5798
576.40 0.5794
576.50 0.579
576.60 0.5786
576.70 0.5782
576.80 0.5779
576.90 0.5775
577.00 0.5771
577.10 0.5767
577.20 0.5763
577.30 0.5759
577.40 0.5756
577.50 0.5752
577.60 0.5748
577.70 0.5744
577.80 0.574
577.90 0.5736
578.00 0.5733
578.10 0.5729
578.20 0.5725
578.30 0.5721
578.40 0.5717
578.50 0.5714
578.60 0.571
578.70 0.5706
578.80 0.5702
578.90 0.5698
579.00 0.5695
579.10 0.5691
579.20 0.5687
579.30 0.5683
579.40 0.5679
579.50 0.5676
579.60 0.5672
579.70 0.5668
579.80 0.5664
579.90 0.5661
580.00 0.5657
580.10 0.5653
580.20 0.5649
580.30 0.5646
580.40 0.5642
580.50 0.5638
580.60 0.5634
580.70 0.5631
580.80 0.5627
580.90 0.5623
581.00 0.5619
581.10 0.5616
581.20 0.5612
581.30 0.5608
581.40 0.5605
581.50 0.5601
581.60 0.5597
581.70 0.5593
581.80 0.559
581.90 0.5586
582.00 0.5582
582.10 0.5579
582.20 0.5575
582.30 0.5571
582.40 0.5568
582.50 0.5564
582.60 0.556
582.70 0.5557
582.80 0.5553
582.90 0.5549
583.00 0.5546
583.10 0.5542
583.20 0.5538
583.30 0.5535
583.40 0.5531
583.50 0.5527
583.60 0.5524
583.70 0.552
583.80 0.5516
583.90 0.5513
584.00 0.5509
584.10 0.5505
584.20 0.5502
584.30 0.5498
584.40 0.5495
584.50 0.5491
584.60 0.5487
584.70 0.5484
584.80 0.548
584.90 0.5477
585.00 0.5473
585.10 0.5469
585.20 0.5466
585.30 0.5462
585.40 0.5459
585.50 0.5455
585.60 0.5451
585.70 0.5448
585.80 0.5444
585.90 0.5441
586.00 0.5437
586.10 0.5434
586.20 0.543
586.30 0.5426
586.40 0.5423
586.50 0.5419
586.60 0.5416
586.70 0.5412
586.80 0.5409
586.90 0.5405
587.00 0.5402
587.10 0.5398
587.20 0.5394
587.30 0.5391
587.40 0.5387
587.50 0.5384
587.60 0.538
587.70 0.5377
587.80 0.5373
587.90 0.537
588.00 0.5366
588.10 0.5363
588.20 0.5359
588.30 0.5356
588.40 0.5352
588.50 0.5349
588.60 0.5345
588.70 0.5342
588.80 0.5338
588.90 0.5335
589.00 0.5331
589.10 0.5328
589.20 0.5324
589.30 0.5321
589.40 0.5317
589.50 0.5314
589.60 0.531
589.70 0.5307
589.80 0.5303
589.90 0.53
590.00 0.5297
590.10 0.5293
590.20 0.529
590.30 0.5286
590.40 0.5283
590.50 0.5279
590.60 0.5276
590.70 0.5272
590.80 0.5269
590.90 0.5265
591.00 0.5262
591.10 0.5259
591.20 0.5255
591.30 0.5252
591.40 0.5248
591.50 0.5245
591.60 0.5242
591.70 0.5238
591.80 0.5235
591.90 0.5231
592.00 0.5228
592.10 0.5225
592.20 0.5221
592.30 0.5218
592.40 0.5214
592.50 0.5211
592.60 0.5208
592.70 0.5204
592.80 0.5201
592.90 0.5197
593.00 0.5194
593.10 0.5191
593.20 0.5187
593.30 0.5184
593.40 0.5181
593.50 0.5177
593.60 0.5174
593.70 0.517
593.80 0.5167
593.90 0.5164
594.00 0.516
594.10 0.5157
594.20 0.5154
594.30 0.515
594.40 0.5147
594.50 0.5144
594.60 0.514
594.70 0.5137
594.80 0.5134
594.90 0.513
595.00 0.5127
595.10 0.5124
595.20 0.512
595.30 0.5117
595.40 0.5114
595.50 0.5111
595.60 0.5107
595.70 0.5104
595.80 0.5101
595.90 0.5097
596.00 0.5094
596.10 0.5091
596.20 0.5087
596.30 0.5084
596.40 0.5081
596.50 0.5078
596.60 0.5074
596.70 0.5071
596.80 0.5068
596.90 0.5065
597.00 0.5061
597.10 0.5058
597.20 0.5055
597.30 0.5051
597.40 0.5048
597.50 0.5045
597.60 0.5042
597.70 0.5038
597.80 0.5035
597.90 0.5032
598.00 0.5029
598.10 0.5025
598.20 0.5022
598.30 0.5019
598.40 0.5016
598.50 0.5013
598.60 0.5009
598.70 0.5006
598.80 0.5003
598.90 0.5
599.00 0.4996
599.10 0.4993
599.20 0.499
599.30 0.4987
599.40 0.4984
599.50 0.498
599.60 0.4977
599.70 0.4974
599.80 0.4971
599.90 0.4968
600.00 0.4964
600.10 0.4961
600.20 0.4958
600.30 0.4955
600.40 0.4952
600.50 0.4949
600.60 0.4945
600.70 0.4942
600.80 0.4939
600.90 0.4936
601.00 0.4933
601.10 0.493
601.20 0.4926
601.30 0.4923
601.40 0.492
601.50 0.4917
601.60 0.4914
601.70 0.4911
601.80 0.4907
601.90 0.4904
602.00 0.4901
602.10 0.4898
602.20 0.4895
602.30 0.4892
602.40 0.4889
602.50 0.4886
602.60 0.4882
602.70 0.4879
602.80 0.4876
602.90 0.4873
603.00 0.487
603.10 0.4867
603.20 0.4864
603.30 0.4861
603.40 0.4857
603.50 0.4854
603.60 0.4851
603.70 0.4848
603.80 0.4845
603.90 0.4842
604.00 0.4839
604.10 0.4836
604.20 0.4833
604.30 0.483
604.40 0.4827
604.50 0.4824
604.60 0.482
604.70 0.4817
604.80 0.4814
604.90 0.4811
605.00 0.4808
605.10 0.4805
605.20 0.4802
605.30 0.4799
605.40 0.4796
605.50 0.4793
605.60 0.479
605.70 0.4787
605.80 0.4784
605.90 0.4781
606.00 0.4778
606.10 0.4775
606.20 0.4772
606.30 0.4769
606.40 0.4766
606.50 0.4763
606.60 0.4759
606.70 0.4756
606.80 0.4753
606.90 0.475
607.00 0.4747
607.10 0.4744
607.20 0.4741
607.30 0.4738
607.40 0.4735
607.50 0.4732
607.60 0.4729
607.70 0.4726
607.80 0.4723
607.90 0.472
608.00 0.4717
608.10 0.4714
608.20 0.4711
608.30 0.4708
608.40 0.4705
608.50 0.4702
608.60 0.4699
608.70 0.4696
608.80 0.4694
608.90 0.4691
609.00 0.4688
609.10 0.4685
609.20 0.4682
609.30 0.4679
609.40 0.4676
609.50 0.4673
609.60 0.467
609.70 0.4667
609.80 0.4664
609.90 0.4661
610.00 0.4658
610.10 0.4655
610.20 0.4652
610.30 0.4649
610.40 0.4646
610.50 0.4643
610.60 0.464
610.70 0.4637
610.80 0.4635
610.90 0.4632
611.00 0.4629
611.10 0.4626
611.20 0.4623
611.30 0.462
611.40 0.4617
611.50 0.4614
611.60 0.4611
611.70 0.4608
611.80 0.4605
611.90 0.4602
612.00 0.46
612.10 0.4597
612.20 0.4594
612.30 0.4591
612.40 0.4588
612.50 0.4585
612.60 0.4582
612.70 0.4579
612.80 0.4576
612.90 0.4574
613.00 0.4571
613.10 0.4568
613.20 0.4565
613.30 0.4562
613.40 0.4559
613.50 0.4556
613.60 0.4554
613.70 0.4551
613.80 0.4548
613.90 0.4545
614.00 0.4542
614.10 0.4539
614.20 0.4536
614.30 0.4534
614.40 0.4531
614.50 0.4528
614.60 0.4525
614.70 0.4522
614.80 0.4519
614.90 0.4517
615.00 0.4514
615.10 0.4511
615.20 0.4508
615.30 0.4505
615.40 0.4502
615.50 0.45
615.60 0.4497
615.70 0.4494
615.80 0.4491
615.90 0.4488
616.00 0.4485
616.10 0.4483
616.20 0.448
616.30 0.4477
616.40 0.4474
616.50 0.4471
616.60 0.4469
616.70 0.4466
616.80 0.4463
616.90 0.446
617.00 0.4458
617.10 0.4455
617.20 0.4452
617.30 0.4449
617.40 0.4446
617.50 0.4444
617.60 0.4441
617.70 0.4438
617.80 0.4435
617.90 0.4433
618.00 0.443
618.10 0.4427
618.20 0.4424
618.30 0.4421
618.40 0.4419
618.50 0.4416
618.60 0.4413
618.70 0.441
618.80 0.4408
618.90 0.4405
619.00 0.4402
619.10 0.4399
619.20 0.4397
619.30 0.4394
619.40 0.4391
619.50 0.4389
619.60 0.4386
619.70 0.4383
619.80 0.438
619.90 0.4378
620.00 0.4375
620.10 0.4372
620.20 0.4369
620.30 0.4367
620.40 0.4364
620.50 0.4361
620.60 0.4359
620.70 0.4356
620.80 0.4353
620.90 0.435
621.00 0.4348
621.10 0.4345
621.20 0.4342
621.30 0.434
621.40 0.4337
621.50 0.4334
621.60 0.4332
621.70 0.4329
621.80 0.4326
621.90 0.4324
622.00 0.4321
622.10 0.4318
622.20 0.4315
622.30 0.4313
622.40 0.431
622.50 0.4307
622.60 0.4305
622.70 0.4302
622.80 0.4299
622.90 0.4297
623.00 0.4294
623.10 0.4291
623.20 0.4289
623.30 0.4286
623.40 0.4284
623.50 0.4281
623.60 0.4278
623.70 0.4276
623.80 0.4273
623.90 0.427
624.00 0.4268
624.10 0.4265
624.20 0.4262
624.30 0.426
624.40 0.4257
624.50 0.4254
624.60 0.4252
624.70 0.4249
624.80 0.4247
624.90 0.4244
625.00 0.4241
625.10 0.4239
625.20 0.4236
625.30 0.4233
625.40 0.4231
625.50 0.4228
625.60 0.4226
625.70 0.4223
625.80 0.422
625.90 0.4218
626.00 0.4215
626.10 0.4213
626.20 0.421
626.30 0.4207
626.40 0.4205
626.50 0.4202
626.60 0.42
626.70 0.4197
626.80 0.4195
626.90 0.4192
627.00 0.4189
627.10 0.4187
627.20 0.4184
627.30 0.4182
627.40 0.4179
627.50 0.4176
627.60 0.4174
627.70 0.4171
627.80 0.4169
627.90 0.4166
628.00 0.4164
628.10 0.4161
628.20 0.4159
628.30 0.4156
628.40 0.4153
628.50 0.4151
628.60 0.4148
628.70 0.4146
628.80 0.4143
628.90 0.4141
629.00 0.4138
629.10 0.4136
629.20 0.4133
629.30 0.4131
629.40 0.4128
629.50 0.4125
629.60 0.4123
629.70 0.412
629.80 0.4118
629.90 0.4115
630.00 0.4113
630.10 0.411
630.20 0.4108
630.30 0.4105
630.40 0.4103
630.50 0.41
630.60 0.4098
630.70 0.4095
630.80 0.4093
630.90 0.409
631.00 0.4088
631.10 0.4085
631.20 0.4083
631.30 0.408
631.40 0.4078
631.50 0.4075
631.60 0.4073
631.70 0.407
631.80 0.4068
631.90 0.4065
632.00 0.4063
632.10 0.406
632.20 0.4058
632.30 0.4055
632.40 0.4053
632.50 0.405
632.60 0.4048
632.70 0.4045
632.80 0.4043
632.90 0.404
633.00 0.4038
633.10 0.4035
633.20 0.4033
633.30 0.4031
633.40 0.4028
633.50 0.4026
633.60 0.4023
633.70 0.4021
633.80 0.4018
633.90 0.4016
634.00 0.4013
634.10 0.4011
634.20 0.4008
634.30 0.4006
634.40 0.4004
634.50 0.4001
634.60 0.3999
634.70 0.3996
634.80 0.3994
634.90 0.3991
635.00 0.3989
635.10 0.3987
635.20 0.3984
635.30 0.3982
635.40 0.3979
635.50 0.3977
635.60 0.3974
635.70 0.3972
635.80 0.397
635.90 0.3967
636.00 0.3965
636.10 0.3962
636.20 0.396
636.30 0.3957
636.40 0.3955
636.50 0.3953
636.60 0.395
636.70 0.3948
636.80 0.3945
636.90 0.3943
637.00 0.3941
637.10 0.3938
637.20 0.3936
637.30 0.3933
637.40 0.3931
637.50 0.3929
637.60 0.3926
637.70 0.3924
637.80 0.3922
637.90 0.3919
638.00 0.3917
638.10 0.3914
638.20 0.3912
638.30 0.391
638.40 0.3907
638.50 0.3905
638.60 0.3902
638.70 0.39
638.80 0.3898
638.90 0.3895
639.00 0.3893
639.10 0.3891
639.20 0.3888
639.30 0.3886
639.40 0.3884
639.50 0.3881
639.60 0.3879
639.70 0.3876
639.80 0.3874
639.90 0.3872
640.00 0.3869
640.10 0.3867
640.20 0.3865
640.30 0.3862
640.40 0.386
640.50 0.3858
640.60 0.3855
640.70 0.3853
640.80 0.3851
640.90 0.3848
641.00 0.3846
641.10 0.3844
641.20 0.3841
641.30 0.3839
641.40 0.3837
641.50 0.3834
641.60 0.3832
641.70 0.383
641.80 0.3827
641.90 0.3825
642.00 0.3823
642.10 0.382
642.20 0.3818
642.30 0.3816
642.40 0.3813
642.50 0.3811
642.60 0.3809
642.70 0.3806
642.80 0.3804
642.90 0.3802
643.00 0.3799
643.10 0.3797
643.20 0.3795
643.30 0.3792
643.40 0.379
643.50 0.3788
643.60 0.3785
643.70 0.3783
643.80 0.3781
643.90 0.3778
644.00 0.3776
644.10 0.3774
644.20 0.3772
644.30 0.3769
644.40 0.3767
644.50 0.3765
644.60 0.3762
644.70 0.376
644.80 0.3758
644.90 0.3755
645.00 0.3753
645.10 0.3751
645.20 0.3748
645.30 0.3746
645.40 0.3744
645.50 0.3741
645.60 0.3739
645.70 0.3737
645.80 0.3734
645.90 0.3732
646.00 0.373
646.10 0.3728
646.20 0.3725
646.30 0.3723
646.40 0.3721
646.50 0.3718
646.60 0.3716
646.70 0.3714
646.80 0.3711
646.90 0.3709
647.00 0.3707
647.10 0.3704
647.20 0.3702
647.30 0.37
647.40 0.3697
647.50 0.3695
647.60 0.3693
647.70 0.369
647.80 0.3688
647.90 0.3685
648.00 0.3683
648.10 0.3681
648.20 0.3678
648.30 0.3676
648.40 0.3674
648.50 0.3671
648.60 0.3669
648.70 0.3666
648.80 0.3664
648.90 0.3661
649.00 0.3659
649.10 0.3657
649.20 0.3654
649.30 0.3652
649.40 0.3649
649.50 0.3647
649.60 0.3644
649.70 0.3642
649.80 0.3639
649.90 0.3637
650.00 0.3634
650.10 0.3631
650.20 0.3629
650.30 0.3626
650.40 0.3624
650.50 0.3621
650.60 0.3618
650.70 0.3615
650.80 0.3613
650.90 0.361
651.00 0.3607
651.10 0.3604
651.20 0.3602
651.30 0.3599
651.40 0.3595
651.50 0.3592
651.60 0.3589
651.70 0.3586
651.80 0.3583
651.90 0.3579
652.00 0.3576
652.10 0.3573
652.20 0.357
652.30 0.3566
652.40 0.3562
652.50 0.3558
652.60 0.3554
652.70 0.3549
652.80 0.3545
652.90 0.3541
653.00 0.3537
653.10 0.3532
653.20 0.3528
653.30 0.3524
653.40 0.3517
653.50 0.351
653.60 0.3504
653.70 0.3497
653.80 0.349
653.90 0.3484
654.00 0.3477
654.10 0.3471
654.20 0.3464
654.30 0.3457
654.40 0.3446
654.50 0.3436
654.60 0.3426
654.70 0.3416
654.80 0.3405
654.90 0.339
655.00 0.3375
655.10 0.3361
655.20 0.3346
655.30 0.3331
655.40 0.3312
655.50 0.3292
655.60 0.3268
655.70 0.3242
655.80 0.321
655.90 0.3171
656.00 0.3108
656.10 0.3038
656.20 0.2982
656.30 0.3114
656.40 0.2971
656.50 0.306
656.60 0.312
656.70 0.3174
656.80 0.3203
656.90 0.323
657.00 0.325
657.10 0.3269
657.20 0.3284
657.30 0.3298
657.40 0.3309
657.50 0.332
657.60 0.333
657.70 0.3341
657.80 0.335
657.90 0.3356
658.00 0.3363
658.10 0.3369
658.20 0.3375
658.30 0.338
658.40 0.3383
658.50 0.3385
658.60 0.3388
658.70 0.339
658.80 0.3392
658.90 0.3395
659.00 0.3397
659.10 0.34
659.20 0.3402
659.30 0.3404
659.40 0.3404
659.50 0.3404
659.60 0.3404
659.70 0.3404
659.80 0.3404
659.90 0.3404
660.00 0.3404
660.10 0.3404
660.20 0.3404
660.30 0.3404
660.40 0.3403
660.50 0.3402
660.60 0.3401
660.70 0.34
660.80 0.3399
660.90 0.3398
661.00 0.3397
661.10 0.3396
661.20 0.3395
661.30 0.3394
661.40 0.3393
661.50 0.3392
661.60 0.339
661.70 0.3389
661.80 0.3387
661.90 0.3386
662.00 0.3385
662.10 0.3383
662.20 0.3382
662.30 0.338
662.40 0.3379
662.50 0.3377
662.60 0.3375
662.70 0.3374
662.80 0.3372
662.90 0.337
663.00 0.3369
663.10 0.3367
663.20 0.3366
663.30 0.3364
663.40 0.3362
663.50 0.336
663.60 0.3359
663.70 0.3357
663.80 0.3355
663.90 0.3353
664.00 0.3352
664.10 0.335
664.20 0.3348
664.30 0.3346
664.40 0.3345
664.50 0.3343
664.60 0.3341
664.70 0.3339
664.80 0.3337
664.90 0.3336
665.00 0.3334
665.10 0.3332
665.20 0.333
665.30 0.3328
665.40 0.3327
665.50 0.3325
665.60 0.3323
665.70 0.3321
665.80 0.3319
665.90 0.3317
666.00 0.3316
666.10 0.3314
666.20 0.3312
666.30 0.331
666.40 0.3308
666.50 0.3306
666.60 0.3305
666.70 0.3303
666.80 0.3301
666.90 0.3299
667.00 0.3297
667.10 0.3295
667.20 0.3294
667.30 0.3292
667.40 0.329
667.50 0.3288
667.60 0.3286
667.70 0.3284
667.80 0.3282
667.90 0.3281
668.00 0.3279
668.10 0.3277
668.20 0.3275
668.30 0.3273
668.40 0.3271
668.50 0.327
668.60 0.3268
668.70 0.3266
668.80 0.3264
668.90 0.3262
669.00 0.326
669.10 0.3258
669.20 0.3257
669.30 0.3255
669.40 0.3253
669.50 0.3251
669.60 0.3249
669.70 0.3247
669.80 0.3246
669.90 0.3244
670.00 0.3242
670.10 0.324
670.20 0.3238
670.30 0.3236
670.40 0.3235
670.50 0.3233
670.60 0.3231
670.70 0.3229
670.80 0.3227
670.90 0.3225
671.00 0.3223
671.10 0.3222
671.20 0.322
671.30 0.3218
671.40 0.3216
671.50 0.3214
671.60 0.3212
671.70 0.3211
671.80 0.3209
671.90 0.3207
672.00 0.3205
672.10 0.3203
672.20 0.3202
672.30 0.32
672.40 0.3198
672.50 0.3196
672.60 0.3194
672.70 0.3192
672.80 0.3191
672.90 0.3189
673.00 0.3187
673.10 0.3185
673.20 0.3183
673.30 0.3182
673.40 0.318
673.50 0.3178
673.60 0.3176
673.70 0.3174
673.80 0.3172
673.90 0.3171
674.00 0.3169
674.10 0.3167
674.20 0.3165
674.30 0.3163
674.40 0.3162
674.50 0.316
674.60 0.3158
674.70 0.3156
674.80 0.3154
674.90 0.3153
675.00 0.3151
675.10 0.3149
675.20 0.3147
675.30 0.3146
675.40 0.3144
675.50 0.3142
675.60 0.314
675.70 0.3138
675.80 0.3137
675.90 0.3135
676.00 0.3133
676.10 0.3131
676.20 0.3129
676.30 0.3128
676.40 0.3126
676.50 0.3124
676.60 0.3122
676.70 0.3121
676.80 0.3119
676.90 0.3117
677.00 0.3115
677.10 0.3113
677.20 0.3112
677.30 0.311
677.40 0.3108
677.50 0.3106
677.60 0.3105
677.70 0.3103
677.80 0.3101
677.90 0.3099
678.00 0.3098
678.10 0.3096
678.20 0.3094
678.30 0.3092
678.40 0.3091
678.50 0.3089
678.60 0.3087
678.70 0.3085
678.80 0.3084
678.90 0.3082
679.00 0.308
679.10 0.3078
679.20 0.3077
679.30 0.3075
679.40 0.3073
679.50 0.3071
679.60 0.307
679.70 0.3068
679.80 0.3066
679.90 0.3064
680.00 0.3063
680.10 0.3061
680.20 0.3059
680.30 0.3057
680.40 0.3056
680.50 0.3054
680.60 0.3052
680.70 0.305
680.80 0.3049
680.90 0.3047
681.00 0.3045
681.10 0.3044
681.20 0.3042
681.30 0.304
681.40 0.3038
681.50 0.3037
681.60 0.3035
681.70 0.3033
681.80 0.3032
681.90 0.303
682.00 0.3028
682.10 0.3026
682.20 0.3025
682.30 0.3023
682.40 0.3021
682.50 0.302
682.60 0.3018
682.70 0.3016
682.80 0.3014
682.90 0.3013
683.00 0.3011
683.10 0.3009
683.20 0.3008
683.30 0.3006
683.40 0.3004
683.50 0.3003
683.60 0.3001
683.70 0.2999
683.80 0.2997
683.90 0.2996
684.00 0.2994
684.10 0.2992
684.20 0.2991
684.30 0.2989
684.40 0.2987
684.50 0.2986
684.60 0.2984
684.70 0.2982
684.80 0.2981
684.90 0.2979
685.00 0.2977
685.10 0.2976
685.20 0.2974
685.30 0.2972
685.40 0.2971
685.50 0.2969
685.60 0.2967
685.70 0.2966
685.80 0.2964
685.90 0.2962
686.00 0.2961
686.10 0.2959
686.20 0.2957
686.30 0.2956
686.40 0.2954
686.50 0.2952
686.60 0.2951
686.70 0.2949
686.80 0.2947
686.90 0.2946
687.00 0.2944
687.10 0.2942
687.20 0.2941
687.30 0.2939
687.40 0.2937
687.50 0.2936
687.60 0.2934
687.70 0.2932
687.80 0.2931
687.90 0.2929
688.00 0.2927
688.10 0.2926
688.20 0.2924
688.30 0.2923
688.40 0.2921
688.50 0.2919
688.60 0.2918
688.70 0.2916
688.80 0.2914
688.90 0.2913
689.00 0.2911
689.10 0.2909
689.20 0.2908
689.30 0.2906
689.40 0.2905
689.50 0.2903
689.60 0.2901
689.70 0.29
689.80 0.2898
689.90 0.2896
690.00 0.2895
690.10 0.2893
690.20 0.2892
690.30 0.289
690.40 0.2888
690.50 0.2887
690.60 0.2885
690.70 0.2884
690.80 0.2882
690.90 0.288
691.00 0.2879
691.10 0.2877
691.20 0.2876
691.30 0.2874
691.40 0.2872
691.50 0.2871
691.60 0.2869
691.70 0.2868
691.80 0.2866
691.90 0.2864
692.00 0.2863
692.10 0.2861
692.20 0.286
692.30 0.2858
692.40 0.2856
692.50 0.2855
692.60 0.2853
692.70 0.2852
692.80 0.285
692.90 0.2848
693.00 0.2847
693.10 0.2845
693.20 0.2844
693.30 0.2842
693.40 0.284
693.50 0.2839
693.60 0.2837
693.70 0.2836
693.80 0.2834
693.90 0.2833
694.00 0.2831
694.10 0.2829
694.20 0.2828
694.30 0.2826
694.40 0.2825
694.50 0.2823
694.60 0.2821
694.70 0.282
694.80 0.2818
694.90 0.2817
695.00 0.2815
695.10 0.2814
695.20 0.2812
695.30 0.2811
695.40 0.2809
695.50 0.2807
695.60 0.2806
695.70 0.2804
695.80 0.2803
695.90 0.2801
696.00 0.28
696.10 0.2798
696.20 0.2797
696.30 0.2795
696.40 0.2793
696.50 0.2792
696.60 0.279
696.70 0.2789
696.80 0.2787
696.90 0.2786
697.00 0.2784
697.10 0.2783
697.20 0.2781
697.30 0.278
697.40 0.2778
697.50 0.2776
697.60 0.2775
697.70 0.2773
697.80 0.2772
697.90 0.277
698.00 0.2769
698.10 0.2767
698.20 0.2766
698.30 0.2764
698.40 0.2763
698.50 0.2761
698.60 0.276
698.70 0.2758
698.80 0.2757
698.90 0.2755
699.00 0.2753
699.10 0.2752
699.20 0.275
699.30 0.2749
699.40 0.2747
699.50 0.2746
699.60 0.2744
699.70 0.2743
699.80 0.2741
699.90 0.274
700.00 0.2738
700.10 0.2737
700.20 0.2735
700.30 0.2734
700.40 0.2732
700.50 0.2731
700.60 0.2729
700.70 0.2728
700.80 0.2726
700.90 0.2725
701.00 0.2723
701.10 0.2722
701.20 0.272
701.30 0.2719
701.40 0.2717
701.50 0.2716
701.60 0.2714
701.70 0.2713
701.80 0.2711
701.90 0.271
702.00 0.2708
702.10 0.2707
702.20 0.2705
702.30 0.2704
702.40 0.2702
702.50 0.2701
702.60 0.2699
702.70 0.2698
702.80 0.2696
702.90 0.2695
703.00 0.2693
703.10 0.2692
703.20 0.269
703.30 0.2689
703.40 0.2688
703.50 0.2686
703.60 0.2685
703.70 0.2683
703.80 0.2682
703.90 0.268
704.00 0.2679
704.10 0.2677
704.20 0.2676
704.30 0.2674
704.40 0.2673
704.50 0.2671
704.60 0.267
704.70 0.2668
704.80 0.2667
704.90 0.2665
705.00 0.2664
705.10 0.2662
705.20 0.2661
705.30 0.266
705.40 0.2658
705.50 0.2657
705.60 0.2655
705.70 0.2654
705.80 0.2652
705.90 0.2651
706.00 0.2649
706.10 0.2648
706.20 0.2647
706.30 0.2645
706.40 0.2644
706.50 0.2642
706.60 0.2641
706.70 0.2639
706.80 0.2638
706.90 0.2636
707.00 0.2635
707.10 0.2634
707.20 0.2632
707.30 0.2631
707.40 0.2629
707.50 0.2628
707.60 0.2626
707.70 0.2625
707.80 0.2624
707.90 0.2622
708.00 0.2621
708.10 0.2619
708.20 0.2618
708.30 0.2616
708.40 0.2615
708.50 0.2613
708.60 0.2612
708.70 0.2611
708.80 0.2609
708.90 0.2608
709.00 0.2606
709.10 0.2605
709.20 0.2604
709.30 0.2602
709.40 0.2601
709.50 0.2599
709.60 0.2598
709.70 0.2596
709.80 0.2595
709.90 0.2594
710.00 0.2592
710.10 0.2591
710.20 0.2589
710.30 0.2588
710.40 0.2587
710.50 0.2585
710.60 0.2584
710.70 0.2582
710.80 0.2581
710.90 0.258
711.00 0.2578
711.10 0.2577
711.20 0.2575
711.30 0.2574
711.40 0.2573
711.50 0.2571
711.60 0.257
711.70 0.2568
711.80 0.2567
711.90 0.2566
712.00 0.2564
712.10 0.2563
712.20 0.2561
712.30 0.256
712.40 0.2559
712.50 0.2557
712.60 0.2556
712.70 0.2554
712.80 0.2553
712.90 0.2552
713.00 0.255
713.10 0.2549
713.20 0.2548
713.30 0.2546
713.40 0.2545
713.50 0.2543
713.60 0.2542
713.70 0.2541
713.80 0.2539
713.90 0.2538
714.00 0.2536
714.10 0.2535
714.20 0.2534
714.30 0.2532
714.40 0.2531
714.50 0.253
714.60 0.2528
714.70 0.2527
714.80 0.2525
714.90 0.2524
715.00 0.2523
715.10 0.2521
715.20 0.252
715.30 0.2519
715.40 0.2517
715.50 0.2516
715.60 0.2515
715.70 0.2513
715.80 0.2512
715.90 0.2511
716.00 0.2509
716.10 0.2508
716.20 0.2506
716.30 0.2505
716.40 0.2504
716.50 0.2502
716.60 0.2501
716.70 0.25
716.80 0.2498
716.90 0.2497
717.00 0.2496
717.10 0.2494
717.20 0.2493
717.30 0.2492
717.40 0.249
717.50 0.2489
717.60 0.2488
717.70 0.2486
717.80 0.2485
717.90 0.2484
718.00 0.2482
718.10 0.2481
718.20 0.248
718.30 0.2478
718.40 0.2477
718.50 0.2476
718.60 0.2474
718.70 0.2473
718.80 0.2472
718.90 0.247
719.00 0.2469
719.10 0.2468
719.20 0.2466
719.30 0.2465
719.40 0.2464
719.50 0.2462
719.60 0.2461
719.70 0.246
719.80 0.2458
719.90 0.2457
720.00 0.2456
720.10 0.2454
720.20 0.2453
720.30 0.2452
720.40 0.245
720.50 0.2449
720.60 0.2448
720.70 0.2446
720.80 0.2445
720.90 0.2444
721.00 0.2443
721.10 0.2441
721.20 0.244
721.30 0.2439
721.40 0.2437
721.50 0.2436
721.60 0.2435
721.70 0.2433
721.80 0.2432
721.90 0.2431
722.00 0.2429
722.10 0.2428
722.20 0.2427
722.30 0.2426
722.40 0.2424
722.50 0.2423
722.60 0.2422
722.70 0.242
722.80 0.2419
722.90 0.2418
723.00 0.2417
723.10 0.2415
723.20 0.2414
723.30 0.2413
723.40 0.2411
723.50 0.241
723.60 0.2409
723.70 0.2407
723.80 0.2406
723.90 0.2405
724.00 0.2404
724.10 0.2402
724.20 0.2401
724.30 0.24
724.40 0.2398
724.50 0.2397
724.60 0.2396
724.70 0.2395
724.80 0.2393
724.90 0.2392
725.00 0.2391
725.10 0.2389
725.20 0.2388
725.30 0.2387
725.40 0.2386
725.50 0.2384
725.60 0.2383
725.70 0.2382
725.80 0.2381
725.90 0.2379
726.00 0.2378
726.10 0.2377
726.20 0.2376
726.30 0.2374
726.40 0.2373
726.50 0.2372
726.60 0.2371
726.70 0.2369
726.80 0.2368
726.90 0.2367
727.00 0.2365
727.10 0.2364
727.20 0.2363
727.30 0.2362
727.40 0.236
727.50 0.2359
727.60 0.2358
727.70 0.2357
727.80 0.2355
727.90 0.2354
728.00 0.2353
728.10 0.2352
728.20 0.235
728.30 0.2349
728.40 0.2348
728.50 0.2347
728.60 0.2345
728.70 0.2344
728.80 0.2343
728.90 0.2342
729.00 0.234
729.10 0.2339
729.20 0.2338
729.30 0.2337
729.40 0.2335
729.50 0.2334
729.60 0.2333
729.70 0.2332
729.80 0.233
729.90 0.2329
730.00 0.2328
730.10 0.2327
730.20 0.2326
730.30 0.2324
730.40 0.2323
730.50 0.2322
730.60 0.2321
730.70 0.2319
730.80 0.2318
730.90 0.2317
731.00 0.2316
731.10 0.2315
731.20 0.2313
731.30 0.2312
731.40 0.2311
731.50 0.231
731.60 0.2309
731.70 0.2307
731.80 0.2306
731.90 0.2305
732.00 0.2304
732.10 0.2302
732.20 0.2301
732.30 0.23
732.40 0.2299
732.50 0.2298
732.60 0.2296
732.70 0.2295
732.80 0.2294
732.90 0.2293
733.00 0.2292
733.10 0.229
733.20 0.2289
733.30 0.2288
733.40 0.2287
733.50 0.2286
733.60 0.2284
733.70 0.2283
733.80 0.2282
733.90 0.2281
734.00 0.228
734.10 0.2278
734.20 0.2277
734.30 0.2276
734.40 0.2275
734.50 0.2274
734.60 0.2272
734.70 0.2271
734.80 0.227
734.90 0.2269
735.00 0.2268
735.10 0.2266
735.20 0.2265
735.30 0.2264
735.40 0.2263
735.50 0.2262
735.60 0.226
735.70 0.2259
735.80 0.2258
735.90 0.2257
736.00 0.2256
736.10 0.2255
736.20 0.2253
736.30 0.2252
736.40 0.2251
736.50 0.225
736.60 0.2249
736.70 0.2247
736.80 0.2246
736.90 0.2245
737.00 0.2244
737.10 0.2243
737.20 0.2241
737.30 0.224
737.40 0.2239
737.50 0.2238
737.60 0.2237
737.70 0.2236
737.80 0.2234
737.90 0.2233
738.00 0.2232
738.10 0.2231
738.20 0.223
738.30 0.2229
738.40 0.2227
738.50 0.2226
738.60 0.2225
738.70 0.2224
738.80 0.2223
738.90 0.2221
739.00 0.222
739.10 0.2219
739.20 0.2218
739.30 0.2217
739.40 0.2216
739.50 0.2214
739.60 0.2213
739.70 0.2212
739.80 0.2211
739.90 0.221
740.00 0.2209
740.10 0.2207
740.20 0.2206
740.30 0.2205
740.40 0.2204
740.50 0.2203
740.60 0.2202
740.70 0.2201
740.80 0.2199
740.90 0.2198
741.00 0.2197
741.10 0.2196
741.20 0.2195
741.30 0.2194
741.40 0.2193
741.50 0.2191
741.60 0.219
741.70 0.2189
741.80 0.2188
741.90 0.2187
742.00 0.2186
742.10 0.2185
742.20 0.2184
742.30 0.2182
742.40 0.2181
742.50 0.218
742.60 0.2179
742.70 0.2178
742.80 0.2177
742.90 0.2176
743.00 0.2175
743.10 0.2173
743.20 0.2172
743.30 0.2171
743.40 0.217
743.50 0.2169
743.60 0.2168
743.70 0.2167
743.80 0.2165
743.90 0.2164
744.00 0.2163
744.10 0.2162
744.20 0.2161
744.30 0.216
744.40 0.2159
744.50 0.2158
744.60 0.2157
744.70 0.2155
744.80 0.2154
744.90 0.2153
745.00 0.2152
745.10 0.2151
745.20 0.215
745.30 0.2149
745.40 0.2148
745.50 0.2146
745.60 0.2145
745.70 0.2144
745.80 0.2143
745.90 0.2142
746.00 0.2141
746.10 0.214
746.20 0.2139
746.30 0.2138
746.40 0.2136
746.50 0.2135
746.60 0.2134
746.70 0.2133
746.80 0.2132
746.90 0.2131
747.00 0.213
747.10 0.2129
747.20 0.2128
747.30 0.2126
747.40 0.2125
747.50 0.2124
747.60 0.2123
747.70 0.2122
747.80 0.2121
747.90 0.212
748.00 0.2119
748.10 0.2118
748.20 0.2117
748.30 0.2115
748.40 0.2114
748.50 0.2113
748.60 0.2112
748.70 0.2111
748.80 0.211
748.90 0.2109
749.00 0.2108
749.10 0.2107
749.20 0.2106
749.30 0.2104
749.40 0.2103
749.50 0.2102
749.60 0.2101
749.70 0.21
749.80 0.2099
749.90 0.2098
750.00 0.2097
750.10 0.2096
750.20 0.2095
750.30 0.2094
750.40 0.2092
750.50 0.2091
750.60 0.209
750.70 0.2089
750.80 0.2088
750.90 0.2087
751.00 0.2086
751.10 0.2085
751.20 0.2084
751.30 0.2083
751.40 0.2082
751.50 0.2081
751.60 0.208
751.70 0.2079
751.80 0.2078
751.90 0.2076
752.00 0.2075
752.10 0.2074
752.20 0.2073
752.30 0.2072
752.40 0.2071
752.50 0.207
752.60 0.2069
752.70 0.2068
752.80 0.2067
752.90 0.2066
753.00 0.2065
753.10 0.2064
753.20 0.2063
753.30 0.2062
753.40 0.2061
753.50 0.206
753.60 0.2058
753.70 0.2057
753.80 0.2056
753.90 0.2055
754.00 0.2054
754.10 0.2053
754.20 0.2052
754.30 0.2051
754.40 0.205
754.50 0.2049
754.60 0.2048
754.70 0.2047
754.80 0.2046
754.90 0.2045
755.00 0.2044
755.10 0.2043
755.20 0.2042
755.30 0.2041
755.40 0.204
755.50 0.2039
755.60 0.2037
755.70 0.2036
755.80 0.2035
755.90 0.2034
756.00 0.2033
756.10 0.2032
756.20 0.2031
756.30 0.203
756.40 0.2029
756.50 0.2028
756.60 0.2027
756.70 0.2026
756.80 0.2025
756.90 0.2024
757.00 0.2023
757.10 0.2022
757.20 0.2021
757.30 0.202
757.40 0.2019
757.50 0.2018
757.60 0.2017
757.70 0.2016
757.80 0.2015
757.90 0.2014
758.00 0.2013
758.10 0.2011
758.20 0.201
758.30 0.2009
758.40 0.2008
758.50 0.2007
758.60 0.2006
758.70 0.2005
758.80 0.2004
758.90 0.2003
759.00 0.2002
759.10 0.2001
759.20 0.2
759.30 0.1999
759.40 0.1998
759.50 0.1997
759.60 0.1996
759.70 0.1995
759.80 0.1994
759.90 0.1993
760.00 0.1992
760.10 0.1991
760.20 0.199
760.30 0.1989
760.40 0.1988
760.50 0.1987
760.60 0.1986
760.70 0.1985
760.80 0.1984
760.90 0.1983
761.00 0.1982
761.10 0.1981
761.20 0.198
761.30 0.1979
761.40 0.1978
761.50 0.1977
761.60 0.1976
761.70 0.1975
761.80 0.1974
761.90 0.1973
762.00 0.1972
762.10 0.1971
762.20 0.197
762.30 0.1969
762.40 0.1968
762.50 0.1967
762.60 0.1966
762.70 0.1965
762.80 0.1964
762.90 0.1963
763.00 0.1962
763.10 0.1961
763.20 0.196
763.30 0.1959
763.40 0.1958
763.50 0.1957
763.60 0.1956
763.70 0.1955
763.80 0.1954
763.90 0.1953
764.00 0.1952
764.10 0.1951
764.20 0.195
764.30 0.1949
764.40 0.1948
764.50 0.1947
764.60 0.1946
764.70 0.1945
764.80 0.1944
764.90 0.1943
765.00 0.1942
765.10 0.1941
765.20 0.194
765.30 0.1939
765.40 0.1938
765.50 0.1937
765.60 0.1936
765.70 0.1935
765.80 0.1934
765.90 0.1933
766.00 0.1932
766.10 0.1931
766.20 0.193
766.30 0.1929
766.40 0.1928
766.50 0.1927
766.60 0.1927
766.70 0.1926
766.80 0.1925
766.90 0.1924
767.00 0.1923
767.10 0.1922
767.20 0.1921
767.30 0.192
767.40 0.1919
767.50 0.1918
767.60 0.1917
767.70 0.1916
767.80 0.1915
767.90 0.1914
768.00 0.1913
768.10 0.1912
768.20 0.1911
768.30 0.191
768.40 0.1909
768.50 0.1908
768.60 0.1907
768.70 0.1906
768.80 0.1905
768.90 0.1904
769.00 0.1903
769.10 0.1902
769.20 0.1901
769.30 0.19
769.40 0.1899
769.50 0.1898
769.60 0.1897
769.70 0.1896
769.80 0.1896
769.90 0.1895
770.00 0.1894
770.10 0.1893
770.20 0.1892
770.30 0.1891
770.40 0.189
770.50 0.1889
770.60 0.1888
770.70 0.1887
770.80 0.1886
770.90 0.1885
771.00 0.1884
771.10 0.1883
771.20 0.1882
771.30 0.1881
771.40 0.188
771.50 0.1879
771.60 0.1879
771.70 0.1878
771.80 0.1877
771.90 0.1876
772.00 0.1875
772.10 0.1874
772.20 0.1873
772.30 0.1872
772.40 0.1871
772.50 0.187
772.60 0.1869
772.70 0.1868
772.80 0.1867
772.90 0.1866
773.00 0.1865
773.10 0.1865
773.20 0.1864
773.30 0.1863
773.40 0.1862
773.50 0.1861
773.60 0.186
773.70 0.1859
773.80 0.1858
773.90 0.1857
774.00 0.1856
774.10 0.1855
774.20 0.1854
774.30 0.1853
774.40 0.1852
774.50 0.1852
774.60 0.1851
774.70 0.185
774.80 0.1849
774.90 0.1848
775.00 0.1847
775.10 0.1846
775.20 0.1845
775.30 0.1844
775.40 0.1843
775.50 0.1842
775.60 0.1841
775.70 0.184
775.80 0.184
775.90 0.1839
776.00 0.1838
776.10 0.1837
776.20 0.1836
776.30 0.1835
776.40 0.1834
776.50 0.1833
776.60 0.1832
776.70 0.1831
776.80 0.183
776.90 0.1829
777.00 0.1829
777.10 0.1828
777.20 0.1827
777.30 0.1826
777.40 0.1825
777.50 0.1824
777.60 0.1823
777.70 0.1822
777.80 0.1821
777.90 0.182
778.00 0.1819
778.10 0.1818
778.20 0.1818
778.30 0.1817
778.40 0.1816
778.50 0.1815
778.60 0.1814
778.70 0.1813
778.80 0.1812
778.90 0.1811
779.00 0.181
779.10 0.1809
779.20 0.1808
779.30 0.1808
779.40 0.1807
779.50 0.1806
779.60 0.1805
779.70 0.1804
779.80 0.1803
779.90 0.1802
780.00 0.1801
780.10 0.18
780.20 0.1799
780.30 0.1799
780.40 0.1798
780.50 0.1797
780.60 0.1796
780.70 0.1795
780.80 0.1794
780.90 0.1793
781.00 0.1792
781.10 0.1792
781.20 0.1791
781.30 0.179
781.40 0.1789
781.50 0.1788
781.60 0.1787
781.70 0.1786
781.80 0.1785
781.90 0.1784
782.00 0.1784
782.10 0.1783
782.20 0.1782
782.30 0.1781
782.40 0.178
782.50 0.1779
782.60 0.1778
782.70 0.1777
782.80 0.1777
782.90 0.1776
783.00 0.1775
783.10 0.1774
783.20 0.1773
783.30 0.1772
783.40 0.1771
783.50 0.177
783.60 0.177
783.70 0.1769
783.80 0.1768
783.90 0.1767
784.00 0.1766
784.10 0.1765
784.20 0.1764
784.30 0.1763
784.40 0.1763
784.50 0.1762
784.60 0.1761
784.70 0.176
784.80 0.1759
784.90 0.1758
785.00 0.1757
785.10 0.1757
785.20 0.1756
785.30 0.1755
785.40 0.1754
785.50 0.1753
785.60 0.1752
785.70 0.1751
785.80 0.175
785.90 0.175
786.00 0.1749
786.10 0.1748
786.20 0.1747
786.30 0.1746
786.40 0.1745
786.50 0.1744
786.60 0.1744
786.70 0.1743
786.80 0.1742
786.90 0.1741
787.00 0.174
787.10 0.1739
787.20 0.1738
787.30 0.1738
787.40 0.1737
787.50 0.1736
787.60 0.1735
787.70 0.1734
787.80 0.1733
787.90 0.1732
788.00 0.1732
788.10 0.1731
788.20 0.173
788.30 0.1729
788.40 0.1728
788.50 0.1727
788.60 0.1726
788.70 0.1726
788.80 0.1725
788.90 0.1724
789.00 0.1723
789.10 0.1722
789.20 0.1721
789.30 0.172
789.40 0.172
789.50 0.1719
789.60 0.1718
789.70 0.1717
789.80 0.1716
789.90 0.1715
790.00 0.1714
790.10 0.1714
790.20 0.1713
790.30 0.1712
790.40 0.1711
790.50 0.171
790.60 0.1709
790.70 0.1709
790.80 0.1708
790.90 0.1707
791.00 0.1706
791.10 0.1705
791.20 0.1704
791.30 0.1704
791.40 0.1703
791.50 0.1702
791.60 0.1701
791.70 0.17
791.80 0.17
791.90 0.1699
792.00 0.1698
792.10 0.1697
792.20 0.1696
792.30 0.1695
792.40 0.1695
792.50 0.1694
792.60 0.1693
792.70 0.1692
792.80 0.1691
792.90 0.169
793.00 0.169
793.10 0.1689
793.20 0.1688
793.30 0.1687
793.40 0.1686
793.50 0.1686
793.60 0.1685
793.70 0.1684
793.80 0.1683
793.90 0.1682
794.00 0.1681
794.10 0.1681
794.20 0.168
794.30 0.1679
794.40 0.1678
794.50 0.1677
794.60 0.1676
794.70 0.1676
794.80 0.1675
794.90 0.1674
795.00 0.1673
795.10 0.1672
795.20 0.1672
795.30 0.1671
795.40 0.167
795.50 0.1669
795.60 0.1668
795.70 0.1668
795.80 0.1667
795.90 0.1666
796.00 0.1665
796.10 0.1664
796.20 0.1663
796.30 0.1663
796.40 0.1662
796.50 0.1661
796.60 0.166
796.70 0.1659
796.80 0.1659
796.90 0.1658
797.00 0.1657
797.10 0.1656
797.20 0.1655
797.30 0.1655
797.40 0.1654
797.50 0.1653
797.60 0.1652
797.70 0.1651
797.80 0.1651
797.90 0.165
798.00 0.1649
798.10 0.1648
798.20 0.1647
798.30 0.1646
798.40 0.1646
798.50 0.1645
798.60 0.1644
798.70 0.1643
798.80 0.1642
798.90 0.1642
799.00 0.1641
799.10 0.164
799.20 0.1639
799.30 0.1638
799.40 0.1638
799.50 0.1637
799.60 0.1636
799.70 0.1635
799.80 0.1634
799.90 0.1634
800.00 0.1633
800.10 0.1632
800.20 0.1631
800.30 0.1631
800.40 0.163
800.50 0.1629
800.60 0.1628
800.70 0.1627
800.80 0.1627
800.90 0.1626
801.00 0.1625
801.10 0.1624
801.20 0.1623
801.30 0.1623
801.40 0.1622
801.50 0.1621
801.60 0.162
801.70 0.162
801.80 0.1619
801.90 0.1618
802.00 0.1617
802.10 0.1616
802.20 0.1616
802.30 0.1615
802.40 0.1614
802.50 0.1613
802.60 0.1613
802.70 0.1612
802.80 0.1611
802.90 0.161
803.00 0.1609
803.10 0.1609
803.20 0.1608
803.30 0.1607
803.40 0.1606
803.50 0.1606
803.60 0.1605
803.70 0.1604
803.80 0.1603
803.90 0.1603
804.00 0.1602
804.10 0.1601
804.20 0.16
804.30 0.1599
804.40 0.1599
804.50 0.1598
804.60 0.1597
804.70 0.1596
804.80 0.1596
804.90 0.1595
805.00 0.1594
805.10 0.1593
805.20 0.1593
805.30 0.1592
805.40 0.1591
805.50 0.159
805.60 0.1589
805.70 0.1589
805.80 0.1588
805.90 0.1587
806.00 0.1586
806.10 0.1586
806.20 0.1585
806.30 0.1584
806.40 0.1583
806.50 0.1583
806.60 0.1582
806.70 0.1581
806.80 0.158
806.90 0.158
807.00 0.1579
807.10 0.1578
807.20 0.1577
807.30 0.1576
807.40 0.1576
807.50 0.1575
807.60 0.1574
807.70 0.1573
807.80 0.1573
807.90 0.1572
808.00 0.1571
808.10 0.157
808.20 0.157
808.30 0.1569
808.40 0.1568
808.50 0.1567
808.60 0.1567
808.70 0.1566
808.80 0.1565
808.90 0.1564
809.00 0.1564
809.10 0.1563
809.20 0.1562
809.30 0.1561
809.40 0.1561
809.50 0.156
809.60 0.1559
809.70 0.1558
809.80 0.1558
809.90 0.1557
810.00 0.1556
810.10 0.1555
810.20 0.1555
810.30 0.1554
810.40 0.1553
810.50 0.1552
810.60 0.1552
810.70 0.1551
810.80 0.155
810.90 0.1549
811.00 0.1549
811.10 0.1548
811.20 0.1547
811.30 0.1547
811.40 0.1546
811.50 0.1545
811.60 0.1544
811.70 0.1544
811.80 0.1543
811.90 0.1542
812.00 0.1541
812.10 0.1541
812.20 0.154
812.30 0.1539
812.40 0.1538
812.50 0.1538
812.60 0.1537
812.70 0.1536
812.80 0.1536
812.90 0.1535
813.00 0.1534
813.10 0.1533
813.20 0.1533
813.30 0.1532
813.40 0.1531
813.50 0.153
813.60 0.153
813.70 0.1529
813.80 0.1528
813.90 0.1528
814.00 0.1527
814.10 0.1526
814.20 0.1525
814.30 0.1525
814.40 0.1524
814.50 0.1523
814.60 0.1522
814.70 0.1522
814.80 0.1521
814.90 0.152
815.00 0.152
815.10 0.1519
815.20 0.1518
815.30 0.1517
815.40 0.1517
815.50 0.1516
815.60 0.1515
815.70 0.1514
815.80 0.1514
815.90 0.1513
816.00 0.1512
816.10 0.1512
816.20 0.1511
816.30 0.151
816.40 0.1509
816.50 0.1509
816.60 0.1508
816.70 0.1507
816.80 0.1507
816.90 0.1506
817.00 0.1505
817.10 0.1504
817.20 0.1504
817.30 0.1503
817.40 0.1502
817.50 0.1502
817.60 0.1501
817.70 0.15
817.80 0.1499
817.90 0.1499
818.00 0.1498
818.10 0.1497
818.20 0.1497
818.30 0.1496
818.40 0.1495
818.50 0.1494
818.60 0.1494
818.70 0.1493
818.80 0.1492
818.90 0.1492
819.00 0.1491
819.10 0.149
819.20 0.1489
819.30 0.1489
819.40 0.1488
819.50 0.1487
819.60 0.1487
819.70 0.1486
819.80 0.1485
819.90 0.1484
820.00 0.1484
820.10 0.1483
820.20 0.1482
820.30 0.1482
820.40 0.1481
820.50 0.148
820.60 0.148
820.70 0.1479
820.80 0.1478
820.90 0.1477
821.00 0.1477
821.10 0.1476
821.20 0.1475
821.30 0.1475
821.40 0.1474
821.50 0.1473
821.60 0.1473
821.70 0.1472
821.80 0.1471
821.90 0.1471
822.00 0.147
822.10 0.1469
822.20 0.1468
822.30 0.1468
822.40 0.1467
822.50 0.1466
822.60 0.1466
822.70 0.1465
822.80 0.1464
822.90 0.1464
823.00 0.1463
823.10 0.1462
823.20 0.1462
823.30 0.1461
823.40 0.146
823.50 0.1459
823.60 0.1459
823.70 0.1458
823.80 0.1457
823.90 0.1457
824.00 0.1456
824.10 0.1455
824.20 0.1455
824.30 0.1454
824.40 0.1453
824.50 0.1453
824.60 0.1452
824.70 0.1451
824.80 0.1451
824.90 0.145
825.00 0.1449
825.10 0.1449
825.20 0.1448
825.30 0.1447
825.40 0.1447
825.50 0.1446
825.60 0.1445
825.70 0.1444
825.80 0.1444
825.90 0.1443
826.00 0.1442
826.10 0.1442
826.20 0.1441
826.30 0.144
826.40 0.144
826.50 0.1439
826.60 0.1438
826.70 0.1438
826.80 0.1437
826.90 0.1436
827.00 0.1436
827.10 0.1435
827.20 0.1434
827.30 0.1434
827.40 0.1433
827.50 0.1432
827.60 0.1432
827.70 0.1431
827.80 0.143
827.90 0.143
828.00 0.1429
828.10 0.1428
828.20 0.1428
828.30 0.1427
828.40 0.1426
828.50 0.1426
828.60 0.1425
828.70 0.1424
828.80 0.1424
828.90 0.1423
829.00 0.1422
829.10 0.1422
829.20 0.1421
829.30 0.142
829.40 0.142
829.50 0.1419
829.60 0.1418
829.70 0.1418
829.80 0.1417
829.90 0.1416
830.00 0.1416
830.10 0.1415
830.20 0.1414
830.30 0.1414
830.40 0.1413
830.50 0.1412
830.60 0.1412
830.70 0.1411
830.80 0.141
830.90 0.141
831.00 0.1409
831.10 0.1408
831.20 0.1408
831.30 0.1407
831.40 0.1406
831.50 0.1406
831.60 0.1405
831.70 0.1404
831.80 0.1404
831.90 0.1403
832.00 0.1402
832.10 0.1402
832.20 0.1401
832.30 0.14
832.40 0.14
832.50 0.1399
832.60 0.1399
832.70 0.1398
832.80 0.1397
832.90 0.1397
833.00 0.1396
833.10 0.1395
833.20 0.1395
833.30 0.1394
833.40 0.1393
833.50 0.1393
833.60 0.1392
833.70 0.1391
833.80 0.1391
833.90 0.139
834.00 0.1389
834.10 0.1389
834.20 0.1388
834.30 0.1387
834.40 0.1387
834.50 0.1386
834.60 0.1386
834.70 0.1385
834.80 0.1384
834.90 0.1384
835.00 0.1383
835.10 0.1382
835.20 0.1382
835.30 0.1381
835.40 0.138
835.50 0.138
835.60 0.1379
835.70 0.1378
835.80 0.1378
835.90 0.1377
836.00 0.1377
836.10 0.1376
836.20 0.1375
836.30 0.1375
836.40 0.1374
836.50 0.1373
836.60 0.1373
836.70 0.1372
836.80 0.1371
836.90 0.1371
837.00 0.137
837.10 0.1369
837.20 0.1369
837.30 0.1368
837.40 0.1368
837.50 0.1367
837.60 0.1366
837.70 0.1366
837.80 0.1365
837.90 0.1364
838.00 0.1364
838.10 0.1363
838.20 0.1363
838.30 0.1362
838.40 0.1361
838.50 0.1361
838.60 0.136
838.70 0.1359
838.80 0.1359
838.90 0.1358
839.00 0.1358
839.10 0.1357
839.20 0.1356
839.30 0.1356
839.40 0.1355
839.50 0.1354
839.60 0.1354
839.70 0.1353
839.80 0.1352
839.90 0.1352
840.00 0.1351
840.10 0.1351
840.20 0.135
840.30 0.1349
840.40 0.1349
840.50 0.1348
840.60 0.1347
840.70 0.1347
840.80 0.1346
840.90 0.1346
841.00 0.1345
841.10 0.1344
841.20 0.1344
841.30 0.1343
841.40 0.1343
841.50 0.1342
841.60 0.1341
841.70 0.1341
841.80 0.134
841.90 0.1339
842.00 0.1339
842.10 0.1338
842.20 0.1338
842.30 0.1337
842.40 0.1336
842.50 0.1336
842.60 0.1335
842.70 0.1334
842.80 0.1334
842.90 0.1333
843.00 0.1333
843.10 0.1332
843.20 0.1331
843.30 0.1331
843.40 0.133
843.50 0.133
843.60 0.1329
843.70 0.1328
843.80 0.1328
843.90 0.1327
844.00 0.1327
844.10 0.1326
844.20 0.1325
844.30 0.1325
844.40 0.1324
844.50 0.1323
844.60 0.1323
844.70 0.1322
844.80 0.1322
844.90 0.1321
845.00 0.132
845.10 0.132
845.20 0.1319
845.30 0.1319
845.40 0.1318
845.50 0.1317
845.60 0.1317
845.70 0.1316
845.80 0.1316
845.90 0.1315
846.00 0.1314
846.10 0.1314
846.20 0.1313
846.30 0.1313
846.40 0.1312
846.50 0.1311
846.60 0.1311
846.70 0.131
846.80 0.131
846.90 0.1309
847.00 0.1308
847.10 0.1308
847.20 0.1307
847.30 0.1307
847.40 0.1306
847.50 0.1305
847.60 0.1305
847.70 0.1304
847.80 0.1304
847.90 0.1303
848.00 0.1302
848.10 0.1302
848.20 0.1301
848.30 0.1301
848.40 0.13
848.50 0.1299
848.60 0.1299
848.70 0.1298
848.80 0.1298
848.90 0.1297
849.00 0.1296
849.10 0.1296
849.20 0.1295
849.30 0.1295
849.40 0.1294
849.50 0.1293
849.60 0.1293
849.70 0.1292
849.80 0.1292
849.90 0.1291
850.00 0.129
850.10 0.129
850.20 0.1289
850.30 0.1289
850.40 0.1288
850.50 0.1288
850.60 0.1287
850.70 0.1286
850.80 0.1286
850.90 0.1285
851.00 0.1285
851.10 0.1284
851.20 0.1283
851.30 0.1283
851.40 0.1282
851.50 0.1282
851.60 0.1281
851.70 0.128
851.80 0.128
851.90 0.1279
852.00 0.1279
852.10 0.1278
852.20 0.1278
852.30 0.1277
852.40 0.1276
852.50 0.1276
852.60 0.1275
852.70 0.1275
852.80 0.1274
852.90 0.1273
853.00 0.1273
853.10 0.1272
853.20 0.1272
853.30 0.1271
853.40 0.1271
853.50 0.127
853.60 0.1269
853.70 0.1269
853.80 0.1268
853.90 0.1268
854.00 0.1267
854.10 0.1267
854.20 0.1266
854.30 0.1265
854.40 0.1265
854.50 0.1264
854.60 0.1264
854.70 0.1263
854.80 0.1263
854.90 0.1262
855.00 0.1261
855.10 0.1261
855.20 0.126
855.30 0.126
855.40 0.1259
855.50 0.1258
855.60 0.1258
855.70 0.1257
855.80 0.1257
855.90 0.1256
856.00 0.1256
856.10 0.1255
856.20 0.1254
856.30 0.1254
856.40 0.1253
856.50 0.1253
856.60 0.1252
856.70 0.1252
856.80 0.1251
856.90 0.125
857.00 0.125
857.10 0.1249
857.20 0.1249
857.30 0.1248
857.40 0.1248
857.50 0.1247
857.60 0.1247
857.70 0.1246
857.80 0.1245
857.90 0.1245
858.00 0.1244
858.10 0.1244
858.20 0.1243
858.30 0.1243
858.40 0.1242
858.50 0.1241
858.60 0.1241
858.70 0.124
858.80 0.124
858.90 0.1239
859.00 0.1239
859.10 0.1238
859.20 0.1238
859.30 0.1237
859.40 0.1236
859.50 0.1236
859.60 0.1235
859.70 0.1235
859.80 0.1234
859.90 0.1234
860.00 0.1233
860.10 0.1233
860.20 0.1232
860.30 0.1231
860.40 0.1231
860.50 0.123
860.60 0.123
860.70 0.1229
860.80 0.1229
860.90 0.1228
861.00 0.1228
861.10 0.1227
861.20 0.1226
861.30 0.1226
861.40 0.1225
861.50 0.1225
861.60 0.1224
861.70 0.1224
861.80 0.1223
861.90 0.1223
862.00 0.1222
862.10 0.1221
862.20 0.1221
862.30 0.122
862.40 0.122
862.50 0.1219
862.60 0.1219
862.70 0.1218
862.80 0.1218
862.90 0.1217
863.00 0.1217
863.10 0.1216
863.20 0.1215
863.30 0.1215
863.40 0.1214
863.50 0.1214
863.60 0.1213
863.70 0.1213
863.80 0.1212
863.90 0.1212
864.00 0.1211
864.10 0.1211
864.20 0.121
864.30 0.1209
864.40 0.1209
864.50 0.1208
864.60 0.1208
864.70 0.1207
864.80 0.1207
864.90 0.1206
865.00 0.1206
865.10 0.1205
865.20 0.1205
865.30 0.1204
865.40 0.1204
865.50 0.1203
865.60 0.1202
865.70 0.1202
865.80 0.1201
865.90 0.1201
866.00 0.12
866.10 0.12
866.20 0.1199
866.30 0.1199
866.40 0.1198
866.50 0.1198
866.60 0.1197
866.70 0.1197
866.80 0.1196
866.90 0.1195
867.00 0.1195
867.10 0.1194
867.20 0.1194
867.30 0.1193
867.40 0.1193
867.50 0.1192
867.60 0.1192
867.70 0.1191
867.80 0.1191
867.90 0.119
868.00 0.119
868.10 0.1189
868.20 0.1189
868.30 0.1188
868.40 0.1187
868.50 0.1187
868.60 0.1186
868.70 0.1186
868.80 0.1185
868.90 0.1185
869.00 0.1184
869.10 0.1184
869.20 0.1183
869.30 0.1183
869.40 0.1182
869.50 0.1182
869.60 0.1181
869.70 0.1181
869.80 0.118
869.90 0.118
870.00 0.1179
870.10 0.1178
870.20 0.1178
870.30 0.1177
870.40 0.1177
870.50 0.1176
870.60 0.1176
870.70 0.1175
870.80 0.1175
870.90 0.1174
871.00 0.1174
871.10 0.1173
871.20 0.1173
871.30 0.1172
871.40 0.1172
871.50 0.1171
871.60 0.1171
871.70 0.117
871.80 0.117
871.90 0.1169
872.00 0.1169
872.10 0.1168
872.20 0.1168
872.30 0.1167
872.40 0.1166
872.50 0.1166
872.60 0.1165
872.70 0.1165
872.80 0.1164
872.90 0.1164
873.00 0.1163
873.10 0.1163
873.20 0.1162
873.30 0.1162
873.40 0.1161
873.50 0.1161
873.60 0.116
873.70 0.116
873.80 0.1159
873.90 0.1159
874.00 0.1158
874.10 0.1158
874.20 0.1157
874.30 0.1157
874.40 0.1156
874.50 0.1156
874.60 0.1155
874.70 0.1155
874.80 0.1154
874.90 0.1154
875.00 0.1153
875.10 0.1153
875.20 0.1152
875.30 0.1152
875.40 0.1151
875.50 0.1151
875.60 0.115
875.70 0.115
875.80 0.1149
875.90 0.1149
876.00 0.1148
876.10 0.1148
876.20 0.1147
876.30 0.1147
876.40 0.1146
876.50 0.1146
876.60 0.1145
876.70 0.1144
876.80 0.1144
876.90 0.1143
877.00 0.1143
877.10 0.1142
877.20 0.1142
877.30 0.1141
877.40 0.1141
877.50 0.114
877.60 0.114
877.70 0.1139
877.80 0.1139
877.90 0.1138
878.00 0.1138
878.10 0.1137
878.20 0.1137
878.30 0.1136
878.40 0.1136
878.50 0.1135
878.60 0.1135
878.70 0.1134
878.80 0.1134
878.90 0.1133
879.00 0.1133
879.10 0.1132
879.20 0.1132
879.30 0.1131
879.40 0.1131
879.50 0.113
879.60 0.113
879.70 0.1129
879.80 0.1129
879.90 0.1128
880.00 0.1128
880.10 0.1127
880.20 0.1127
880.30 0.1126
880.40 0.1126
880.50 0.1125
880.60 0.1125
880.70 0.1124
880.80 0.1124
880.90 0.1123
881.00 0.1123
881.10 0.1123
881.20 0.1122
881.30 0.1122
881.40 0.1121
881.50 0.1121
881.60 0.112
881.70 0.112
881.80 0.1119
881.90 0.1119
882.00 0.1118
882.10 0.1118
882.20 0.1117
882.30 0.1117
882.40 0.1116
882.50 0.1116
882.60 0.1115
882.70 0.1115
882.80 0.1114
882.90 0.1114
883.00 0.1113
883.10 0.1113
883.20 0.1112
883.30 0.1112
883.40 0.1111
883.50 0.1111
883.60 0.111
883.70 0.111
883.80 0.1109
883.90 0.1109
884.00 0.1108
884.10 0.1108
884.20 0.1107
884.30 0.1107
884.40 0.1106
884.50 0.1106
884.60 0.1105
884.70 0.1105
884.80 0.1105
884.90 0.1104
885.00 0.1104
885.10 0.1103
885.20 0.1103
885.30 0.1102
885.40 0.1102
885.50 0.1101
885.60 0.1101
885.70 0.11
885.80 0.11
885.90 0.1099
886.00 0.1099
886.10 0.1098
886.20 0.1098
886.30 0.1097
886.40 0.1097
886.50 0.1096
886.60 0.1096
886.70 0.1095
886.80 0.1095
886.90 0.1094
887.00 0.1094
887.10 0.1094
887.20 0.1093
887.30 0.1093
887.40 0.1092
887.50 0.1092
887.60 0.1091
887.70 0.1091
887.80 0.109
887.90 0.109
888.00 0.1089
888.10 0.1089
888.20 0.1088
888.30 0.1088
888.40 0.1087
888.50 0.1087
888.60 0.1086
888.70 0.1086
888.80 0.1085
888.90 0.1085
889.00 0.1085
889.10 0.1084
889.20 0.1084
889.30 0.1083
889.40 0.1083
889.50 0.1082
889.60 0.1082
889.70 0.1081
889.80 0.1081
889.90 0.108
890.00 0.108
890.10 0.1079
890.20 0.1079
890.30 0.1078
890.40 0.1078
890.50 0.1077
890.60 0.1077
890.70 0.1076
890.80 0.1076
890.90 0.1076
891.00 0.1075
891.10 0.1075
891.20 0.1074
891.30 0.1074
891.40 0.1073
891.50 0.1073
891.60 0.1072
891.70 0.1072
891.80 0.1071
891.90 0.1071
892.00 0.107
892.10 0.107
892.20 0.1069
892.30 0.1069
892.40 0.1069
892.50 0.1068
892.60 0.1068
892.70 0.1067
892.80 0.1067
892.90 0.1066
893.00 0.1066
893.10 0.1065
893.20 0.1065
893.30 0.1064
893.40 0.1064
893.50 0.1063
893.60 0.1063
893.70 0.1062
893.80 0.1062
893.90 0.1062
894.00 0.1061
894.10 0.1061
894.20 0.106
894.30 0.106
894.40 0.1059
894.50 0.1059
894.60 0.1058
894.70 0.1058
894.80 0.1057
894.90 0.1057
895.00 0.1056
895.10 0.1056
895.20 0.1056
895.30 0.1055
895.40 0.1055
895.50 0.1054
895.60 0.1054
895.70 0.1053
895.80 0.1053
895.90 0.1052
896.00 0.1052
896.10 0.1051
896.20 0.1051
896.30 0.105
896.40 0.105
896.50 0.105
896.60 0.1049
896.70 0.1049
896.80 0.1048
896.90 0.1048
897.00 0.1047
897.10 0.1047
897.20 0.1046
897.30 0.1046
897.40 0.1045
897.50 0.1045
897.60 0.1045
897.70 0.1044
897.80 0.1044
897.90 0.1043
898.00 0.1043
898.10 0.1042
898.20 0.1042
898.30 0.1041
898.40 0.1041
898.50 0.1041
898.60 0.104
898.70 0.104
898.80 0.1039
898.90 0.1039
899.00 0.1038
899.10 0.1038
899.20 0.1037
899.30 0.1037
899.40 0.1037
899.50 0.1036
899.60 0.1036
899.70 0.1035
899.80 0.1035
899.90 0.1034
900.00 0.1034
900.10 0.1033
900.20 0.1033
900.30 0.1033
900.40 0.1032
900.50 0.1032
900.60 0.1031
900.70 0.1031
900.80 0.103
900.90 0.103
901.00 0.1029
901.10 0.1029
901.20 0.1029
901.30 0.1028
901.40 0.1028
901.50 0.1027
901.60 0.1027
901.70 0.1026
901.80 0.1026
901.90 0.1025
902.00 0.1025
902.10 0.1025
902.20 0.1024
902.30 0.1024
902.40 0.1023
902.50 0.1023
902.60 0.1022
902.70 0.1022
902.80 0.1022
902.90 0.1021
903.00 0.1021
903.10 0.102
903.20 0.102
903.30 0.1019
903.40 0.1019
903.50 0.1019
903.60 0.1018
903.70 0.1018
903.80 0.1017
903.90 0.1017
904.00 0.1016
904.10 0.1016
904.20 0.1016
904.30 0.1015
904.40 0.1015
904.50 0.1014
904.60 0.1014
904.70 0.1013
904.80 0.1013
904.90 0.1013
905.00 0.1012
905.10 0.1012
905.20 0.1011
905.30 0.1011
905.40 0.101
905.50 0.101
905.60 0.101
905.70 0.1009
905.80 0.1009
905.90 0.1008
906.00 0.1008
906.10 0.1007
906.20 0.1007
906.30 0.1007
906.40 0.1006
906.50 0.1006
906.60 0.1005
906.70 0.1005
906.80 0.1004
906.90 0.1004
907.00 0.1004
907.10 0.1003
907.20 0.1003
907.30 0.1002
907.40 0.1002
907.50 0.1001
907.60 0.1001
907.70 0.1001
907.80 0.1
907.90 0.09997
908.00 0.09993
908.10 0.09989
908.20 0.09985
908.30 0.0998
908.40 0.09976
908.50 0.09972
908.60 0.09968
908.70 0.09963
908.80 0.09959
908.90 0.09955
909.00 0.09951
909.10 0.09947
909.20 0.09942
909.30 0.09938
909.40 0.09934
909.50 0.0993
909.60 0.09926
909.70 0.09921
909.80 0.09917
909.90 0.09913
910.00 0.09909
910.10 0.09905
910.20 0.099
910.30 0.09896
910.40 0.09892
910.50 0.09888
910.60 0.09884
910.70 0.09879
910.80 0.09875
910.90 0.09871
911.00 0.09867
911.10 0.09863
911.20 0.09859
911.30 0.09854
911.40 0.0985
911.50 0.09846
911.60 0.09842
911.70 0.09838
911.80 0.09834
911.90 0.09829
912.00 0.09825
912.10 0.09821
912.20 0.09817
912.30 0.09812
912.40 0.09808
912.50 0.09804
912.60 0.09799
912.70 0.09795
912.80 0.09791
912.90 0.09786
913.00 0.09782
913.10 0.09778
913.20 0.09773
913.30 0.09769
913.40 0.09765
913.50 0.09761
913.60 0.09756
913.70 0.09752
913.80 0.09748
913.90 0.09743
914.00 0.09739
914.10 0.09735
914.20 0.09731
914.30 0.09726
914.40 0.09722
914.50 0.09718
914.60 0.09713
914.70 0.09709
914.80 0.09705
914.90 0.09701
915.00 0.09696
915.10 0.09692
915.20 0.09688
915.30 0.09684
915.40 0.09679
915.50 0.09675
915.60 0.09671
915.70 0.09667
915.80 0.09662
915.90 0.09658
916.00 0.09654
916.10 0.0965
916.20 0.09645
916.30 0.09641
916.40 0.09637
916.50 0.09633
916.60 0.09628
916.70 0.09624
916.80 0.0962
916.90 0.09616
917.00 0.09611
917.10 0.09607
917.20 0.09603
917.30 0.09599
917.40 0.09594
917.50 0.0959
917.60 0.09586
917.70 0.09582
917.80 0.09578
917.90 0.09573
918.00 0.09569
918.10 0.09565
918.20 0.09561
918.30 0.09556
918.40 0.09552
918.50 0.09548
918.60 0.09544
918.70 0.0954
918.80 0.09535
918.90 0.09531
919.00 0.09527
919.10 0.09523
919.20 0.09519
919.30 0.09514
919.40 0.0951
919.50 0.09506
919.60 0.09502
919.70 0.09498
919.80 0.09493
919.90 0.09489
920.00 0.09485
920.10 0.09481
920.20 0.09477
920.30 0.09472
920.40 0.09468
920.50 0.09464
920.60 0.0946
920.70 0.09456
920.80 0.09451
920.90 0.09447
921.00 0.09443
921.10 0.09439
921.20 0.09435
921.30 0.09431
921.40 0.09426
921.50 0.09422
921.60 0.09418
921.70 0.09414
921.80 0.0941
921.90 0.09406
922.00 0.09401
922.10 0.09398
922.20 0.09394
922.30 0.0939
922.40 0.09386
922.50 0.09383
922.60 0.09379
922.70 0.09375
922.80 0.09371
922.90 0.09367
923.00 0.09364
923.10 0.0936
923.20 0.09356
923.30 0.09352
923.40 0.09348
923.50 0.09345
923.60 0.09341
923.70 0.09337
923.80 0.09333
923.90 0.0933
924.00 0.09326
924.10 0.09322
924.20 0.09318
924.30 0.09314
924.40 0.09311
924.50 0.09307
924.60 0.09303
924.70 0.09299
924.80 0.09296
924.90 0.09292
925.00 0.09288
925.10 0.09284
925.20 0.09281
925.30 0.09277
925.40 0.09273
925.50 0.09269
925.60 0.09266
925.70 0.09262
925.80 0.09258
925.90 0.09254
926.00 0.09251
926.10 0.09247
926.20 0.09243
926.30 0.09239
926.40 0.09236
926.50 0.09232
926.60 0.09228
926.70 0.09225
926.80 0.09221
926.90 0.09217
927.00 0.09213
927.10 0.0921
927.20 0.09206
927.30 0.09203
927.40 0.09199
927.50 0.09195
927.60 0.09192
927.70 0.09188
927.80 0.09185
927.90 0.09181
928.00 0.09178
928.10 0.09174
928.20 0.09171
928.30 0.09167
928.40 0.09163
928.50 0.0916
928.60 0.09156
928.70 0.09153
928.80 0.09149
928.90 0.09146
929.00 0.09142
929.10 0.09139
929.20 0.09135
929.30 0.09131
929.40 0.09128
929.50 0.09124
929.60 0.09121
929.70 0.09117
929.80 0.09114
929.90 0.0911
930.00 0.09107
930.10 0.09103
930.20 0.091
930.30 0.09096
930.40 0.09093
930.50 0.09089
930.60 0.09085
930.70 0.09082
930.80 0.09078
930.90 0.09075
931.00 0.09071
931.10 0.09068
931.20 0.09064
931.30 0.09061
931.40 0.09057
931.50 0.09054
931.60 0.0905
931.70 0.09047
931.80 0.09043
931.90 0.0904
932.00 0.09036
932.10 0.09033
932.20 0.09029
932.30 0.09025
932.40 0.09022
932.50 0.09018
932.60 0.09015
932.70 0.09011
932.80 0.09007
932.90 0.09004
933.00 0.09
933.10 0.08997
933.20 0.08993
933.30 0.08989
933.40 0.08986
933.50 0.08982
933.60 0.08979
933.70 0.08975
933.80 0.08971
933.90 0.08968
934.00 0.08964
934.10 0.08961
934.20 0.08957
934.30 0.08953
934.40 0.0895
934.50 0.08946
934.60 0.08942
934.70 0.08939
934.80 0.08935
934.90 0.08932
935.00 0.08928
935.10 0.08924
935.20 0.08921
935.30 0.08917
935.40 0.08913
935.50 0.0891
935.60 0.08906
935.70 0.08902
935.80 0.08899
935.90 0.08895
936.00 0.08892
936.10 0.08888
936.20 0.08884
936.30 0.08881
936.40 0.08877
936.50 0.08873
936.60 0.0887
936.70 0.08866
936.80 0.08863
936.90 0.08859
937.00 0.08855
937.10 0.08852
937.20 0.08848
937.30 0.08844
937.40 0.08841
937.50 0.08837
937.60 0.08833
937.70 0.0883
937.80 0.08826
937.90 0.08822
938.00 0.08819
938.10 0.08815
938.20 0.08811
938.30 0.08808
938.40 0.08804
938.50 0.088
938.60 0.08797
938.70 0.08793
938.80 0.08789
938.90 0.08786
939.00 0.08782
939.10 0.08778
939.20 0.08774
939.30 0.08771
939.40 0.08767
939.50 0.08763
939.60 0.0876
939.70 0.08756
939.80 0.08752
939.90 0.08749
940.00 0.08745
940.10 0.08741
940.20 0.08738
940.30 0.08734
940.40 0.0873
940.50 0.08727
940.60 0.08723
940.70 0.08719
940.80 0.08715
940.90 0.08712
941.00 0.08708
941.10 0.08704
941.20 0.08701
941.30 0.08697
941.40 0.08693
941.50 0.08689
941.60 0.08686
941.70 0.08682
941.80 0.08678
941.90 0.08675
942.00 0.08671
942.10 0.08667
942.20 0.08663
942.30 0.0866
942.40 0.08656
942.50 0.08652
942.60 0.08648
942.70 0.08645
942.80 0.08641
942.90 0.08637
943.00 0.08633
943.10 0.0863
943.20 0.08626
943.30 0.08622
943.40 0.08618
943.50 0.08614
943.60 0.08611
943.70 0.08607
943.80 0.08603
943.90 0.08599
944.00 0.08596
944.10 0.08592
944.20 0.08588
944.30 0.08584
944.40 0.08581
944.50 0.08577
944.60 0.08573
944.70 0.08569
944.80 0.08565
944.90 0.08562
945.00 0.08558
945.10 0.08554
945.20 0.0855
945.30 0.08546
945.40 0.08542
945.50 0.08539
945.60 0.08535
945.70 0.08531
945.80 0.08527
945.90 0.08523
946.00 0.08519
946.10 0.08515
946.20 0.08511
946.30 0.08508
946.40 0.08504
946.50 0.085
946.60 0.08496
946.70 0.08492
946.80 0.08488
946.90 0.08484
947.00 0.08481
947.10 0.08477
947.20 0.08473
947.30 0.08469
947.40 0.08465
947.50 0.08461
947.60 0.08457
947.70 0.08453
947.80 0.08449
947.90 0.08445
948.00 0.08441
948.10 0.08437
948.20 0.08433
948.30 0.08429
948.40 0.08425
948.50 0.08421
948.60 0.08417
948.70 0.08413
948.80 0.08409
948.90 0.08405
949.00 0.08401
949.10 0.08397
949.20 0.08393
949.30 0.08389
949.40 0.08385
949.50 0.08381
949.60 0.08377
949.70 0.08373
949.80 0.08369
949.90 0.08365
950.00 0.08361
950.10 0.08357
950.20 0.08353
950.30 0.08349
950.40 0.08345
950.50 0.08341
950.60 0.08337
950.70 0.08333
950.80 0.08329
950.90 0.08325
951.00 0.08321
951.10 0.08317
951.20 0.08313
951.30 0.08309
951.40 0.08305
951.50 0.083
951.60 0.08296
951.70 0.08292
951.80 0.08288
951.90 0.08284
952.00 0.0828
952.10 0.08277
952.20 0.08273
952.30 0.08269
952.40 0.08265
952.50 0.08261
952.60 0.08257
952.70 0.08253
952.80 0.08249
952.90 0.08246
953.00 0.08242
953.10 0.08238
953.20 0.08235
953.30 0.08231
953.40 0.08228
953.50 0.08224
953.60 0.08221
953.70 0.08218
953.80 0.08215
953.90 0.08211
954.00 0.08209
954.10 0.08206
954.20 0.08203
954.30 0.08201
954.40 0.08199
954.50 0.08196
954.60 0.08193
954.70 0.0819
954.80 0.08186
954.90 0.08181
955.00 0.08177
955.10 0.08173
955.20 0.08169
955.30 0.08166
955.40 0.08162
955.50 0.08159
955.60 0.08155
955.70 0.08152
955.80 0.08148
955.90 0.08145
956.00 0.08142
956.10 0.08139
956.20 0.08137
956.30 0.08134
956.40 0.08131
956.50 0.08128
956.60 0.08125
956.70 0.08122
956.80 0.08119
956.90 0.08116
957.00 0.08114
957.10 0.08111
957.20 0.08108
957.30 0.08106
957.40 0.08103
957.50 0.081
957.60 0.08098
957.70 0.08095
957.80 0.08092
957.90 0.0809
958.00 0.08087
958.10 0.08085
958.20 0.08082
958.30 0.08079
958.40 0.08077
958.50 0.08074
958.60 0.08072
958.70 0.08069
958.80 0.08066
958.90 0.08064
959.00 0.08061
959.10 0.08058
959.20 0.08056
959.30 0.08053
959.40 0.08051
959.50 0.08048
959.60 0.08045
959.70 0.08042
959.80 0.0804
959.90 0.08037
960.00 0.08034
960.10 0.08032
960.20 0.08029
960.30 0.08026
960.40 0.08024
960.50 0.08021
960.60 0.08018
960.70 0.08016
960.80 0.08013
960.90 0.0801
961.00 0.08008
961.10 0.08005
961.20 0.08002
961.30 0.07999
961.40 0.07997
961.50 0.07994
961.60 0.07991
961.70 0.07988
961.80 0.07986
961.90 0.07983
962.00 0.0798
962.10 0.07977
962.20 0.07974
962.30 0.07972
962.40 0.07969
962.50 0.07966
962.60 0.07963
962.70 0.0796
962.80 0.07958
962.90 0.07955
963.00 0.07952
963.10 0.07949
963.20 0.07946
963.30 0.07943
963.40 0.07941
963.50 0.07938
963.60 0.07935
963.70 0.07932
963.80 0.07929
963.90 0.07926
964.00 0.07923
964.10 0.0792
964.20 0.07918
964.30 0.07915
964.40 0.07912
964.50 0.07909
964.60 0.07906
964.70 0.07903
964.80 0.079
964.90 0.07897
965.00 0.07894
965.10 0.07891
965.20 0.07888
965.30 0.07885
965.40 0.07882
965.50 0.0788
965.60 0.07877
965.70 0.07874
965.80 0.07871
965.90 0.07868
966.00 0.07865
966.10 0.07862
966.20 0.07859
966.30 0.07856
966.40 0.07853
966.50 0.0785
966.60 0.07847
966.70 0.07844
966.80 0.07841
966.90 0.07838
967.00 0.07835
967.10 0.07833
967.20 0.0783
967.30 0.07827
967.40 0.07824
967.50 0.07821
967.60 0.07818
967.70 0.07815
967.80 0.07812
967.90 0.07809
968.00 0.07806
968.10 0.07803
968.20 0.078
968.30 0.07797
968.40 0.07794
968.50 0.07791
968.60 0.07788
968.70 0.07785
968.80 0.07782
968.90 0.07779
969.00 0.07776
969.10 0.07773
969.20 0.0777
969.30 0.07767
969.40 0.07764
969.50 0.07761
969.60 0.07758
969.70 0.07755
969.80 0.07752
969.90 0.07749
970.00 0.07746
970.10 0.07743
970.20 0.0774
970.30 0.07737
970.40 0.07734
970.50 0.07731
970.60 0.07728
970.70 0.07725
970.80 0.07722
970.90 0.07719
971.00 0.07716
971.10 0.07713
971.20 0.0771
971.30 0.07707
971.40 0.07704
971.50 0.07701
971.60 0.07698
971.70 0.07695
971.80 0.07692
971.90 0.07689
972.00 0.07686
972.10 0.07683
972.20 0.0768
972.30 0.07677
972.40 0.07674
972.50 0.07671
972.60 0.07668
972.70 0.07665
972.80 0.07662
972.90 0.07659
973.00 0.07656
973.10 0.07653
973.20 0.0765
973.30 0.07647
973.40 0.07644
973.50 0.07641
973.60 0.07638
973.70 0.07635
973.80 0.07632
973.90 0.07629
974.00 0.07626
974.10 0.07623
974.20 0.0762
974.30 0.07617
974.40 0.07614
974.50 0.07611
974.60 0.07608
974.70 0.07605
974.80 0.07602
974.90 0.07599
975.00 0.07596
975.10 0.07593
975.20 0.0759
975.30 0.07587
975.40 0.07584
975.50 0.07581
975.60 0.07578
975.70 0.07575
975.80 0.07572
975.90 0.07569
976.00 0.07566
976.10 0.07563
976.20 0.0756
976.30 0.07557
976.40 0.07554
976.50 0.07551
976.60 0.07548
976.70 0.07545
976.80 0.07542
976.90 0.07539
977.00 0.07536
977.10 0.07533
977.20 0.0753
977.30 0.07527
977.40 0.07524
977.50 0.07521
977.60 0.07518
977.70 0.07515
977.80 0.07512
977.90 0.07509
978.00 0.07506
978.10 0.07503
978.20 0.075
978.30 0.07497
978.40 0.07494
978.50 0.07491
978.60 0.07488
978.70 0.07485
978.80 0.07482
978.90 0.07479
979.00 0.07476
979.10 0.07473
979.20 0.0747
979.30 0.07467
979.40 0.07464
979.50 0.07461
979.60 0.07458
979.70 0.07455
979.80 0.07453
979.90 0.0745
980.00 0.07447
980.10 0.07444
980.20 0.07441
980.30 0.07438
980.40 0.07435
980.50 0.07432
980.60 0.07429
980.70 0.07426
980.80 0.07423
980.90 0.0742
981.00 0.07417
981.10 0.07414
981.20 0.07411
981.30 0.07408
981.40 0.07405
981.50 0.07402
981.60 0.07399
981.70 0.07396
981.80 0.07393
981.90 0.0739
982.00 0.07388
982.10 0.07385
982.20 0.07382
982.30 0.07379
982.40 0.07376
982.50 0.07373
982.60 0.0737
982.70 0.07367
982.80 0.07364
982.90 0.07361
983.00 0.07358
983.10 0.07355
983.20 0.07352
983.30 0.07349
983.40 0.07346
983.50 0.07343
983.60 0.0734
983.70 0.07337
983.80 0.07335
983.90 0.07332
984.00 0.07329
984.10 0.07326
984.20 0.07323
984.30 0.0732
984.40 0.07317
984.50 0.07314
984.60 0.07311
984.70 0.07308
984.80 0.07305
984.90 0.07302
985.00 0.07299
985.10 0.07296
985.20 0.07293
985.30 0.0729
985.40 0.07288
985.50 0.07285
985.60 0.07282
985.70 0.07279
985.80 0.07276
985.90 0.07273
986.00 0.0727
986.10 0.07267
986.20 0.07264
986.30 0.07261
986.40 0.07258
986.50 0.07255
986.60 0.07252
986.70 0.07249
986.80 0.07246
986.90 0.07244
987.00 0.07241
987.10 0.07238
987.20 0.07235
987.30 0.07232
987.40 0.07229
987.50 0.07226
987.60 0.07223
987.70 0.0722
987.80 0.07217
987.90 0.07214
988.00 0.07211
988.10 0.07208
988.20 0.07205
988.30 0.07202
988.40 0.072
988.50 0.07197
988.60 0.07194
988.70 0.07191
988.80 0.07188
988.90 0.07185
989.00 0.07182
989.10 0.07179
989.20 0.07176
989.30 0.07173
989.40 0.0717
989.50 0.07167
989.60 0.07164
989.70 0.07161
989.80 0.07158
989.90 0.07155
990.00 0.07152
990.10 0.07149
990.20 0.07146
990.30 0.07144
990.40 0.07141
990.50 0.07138
990.60 0.07135
990.70 0.07132
990.80 0.07129
990.90 0.07126
991.00 0.07123
991.10 0.0712
991.20 0.07117
991.30 0.07114
991.40 0.07111
991.50 0.07108
991.60 0.07105
991.70 0.07102
991.80 0.07099
991.90 0.07096
992.00 0.07093
992.10 0.0709
992.20 0.07087
992.30 0.07084
992.40 0.07081
992.50 0.07078
992.60 0.07075
992.70 0.07072
992.80 0.07069
992.90 0.07066
993.00 0.07063
993.10 0.0706
993.20 0.07057
993.30 0.07054
993.40 0.07051
993.50 0.07048
993.60 0.07045
993.70 0.07041
993.80 0.07038
993.90 0.07035
994.00 0.07032
994.10 0.07029
994.20 0.07026
994.30 0.07023
994.40 0.0702
994.50 0.07017
994.60 0.07014
994.70 0.07011
994.80 0.07008
994.90 0.07005
995.00 0.07002
995.10 0.06998
995.20 0.06995
995.30 0.06992
995.40 0.06989
995.50 0.06986
995.60 0.06983
995.70 0.0698
995.80 0.06976
995.90 0.06973
996.00 0.0697
996.10 0.06967
996.20 0.06964
996.30 0.0696
996.40 0.06957
996.50 0.06954
996.60 0.06951
996.70 0.06947
996.80 0.06944
996.90 0.06941
997.00 0.06938
997.10 0.06934
997.20 0.06931
997.30 0.06928
997.40 0.06925
997.50 0.06921
997.60 0.06918
997.70 0.06914
997.80 0.06911
997.90 0.06907
998.00 0.06904
998.10 0.069
998.20 0.06897
998.30 0.06894
998.40 0.0689
998.50 0.06887
998.60 0.06883
998.70 0.0688
998.80 0.06876
998.90 0.06873
999.00 0.06869
999.10 0.06866
999.20 0.06862
999.30 0.06859
999.40 0.06855
999.50 0.06852
999.60 0.06848
999.70 0.06845
999.80 0.06841
999.90 0.06837
1000.00 0.06833
1000.10 0.06829
1000.20 0.06825
1000.30 0.06822
1000.40 0.06818
1000.50 0.06814
1000.60 0.0681
1000.70 0.06806
1000.80 0.06802
1000.90 0.06799
1001.00 0.06795
1001.10 0.06791
1001.20 0.06787
1001.30 0.06783
1001.40 0.06779
1001.50 0.06776
1001.60 0.06772
1001.70 0.06768
1001.80 0.06764
1001.90 0.0676
1002.00 0.06756
1002.10 0.06753
1002.20 0.06749
1002.30 0.06745
1002.40 0.06741
1002.50 0.06737
1002.60 0.06733
1002.70 0.0673
1002.80 0.06726
1002.90 0.06722
1003.00 0.06718
1003.10 0.06714
1003.20 0.06711
1003.30 0.06708
1003.40 0.06705
1003.50 0.06701
1003.60 0.06698
1003.70 0.06695
1003.80 0.06692
1003.90 0.0669
1004.00 0.06688
1004.10 0.06686
1004.20 0.06684
1004.30 0.06684
1004.40 0.06684
1004.50 0.06684
1004.60 0.06686
1004.70 0.06688
1004.80 0.0669
1004.90 0.06688
1005.00 0.06686
1005.10 0.0668
1005.20 0.06673
1005.30 0.06667
1005.40 0.0666
1005.50 0.06656
1005.60 0.06652
1005.70 0.06648
1005.80 0.06644
1005.90 0.06641
1006.00 0.06637
1006.10 0.06633
1006.20 0.06631
1006.30 0.06629
1006.40 0.06628
1006.50 0.06626
1006.60 0.06624
1006.70 0.06622
1006.80 0.06621
1006.90 0.06619
1007.00 0.06617
1007.10 0.06616
1007.20 0.06615
1007.30 0.06613
1007.40 0.06612
1007.50 0.06611
1007.60 0.06609
1007.70 0.06608
1007.80 0.06606
1007.90 0.06605
1008.00 0.06604
1008.10 0.06602
1008.20 0.06601
1008.30 0.066
1008.40 0.06598
1008.50 0.06597
1008.60 0.06595
1008.70 0.06594
1008.80 0.06593
1008.90 0.06591
1009.00 0.0659
1009.10 0.06589
1009.20 0.06587
1009.30 0.06586
1009.40 0.06584
1009.50 0.06583
1009.60 0.06582
1009.70 0.0658
1009.80 0.06578
1009.90 0.06577
1010.00 0.06575
1010.10 0.06573
1010.20 0.06572
1010.30 0.0657
1010.40 0.06568
1010.50 0.06567
1010.60 0.06565
1010.70 0.06563
1010.80 0.06561
1010.90 0.0656
1011.00 0.06558
1011.10 0.06556
1011.20 0.06555
1011.30 0.06553
1011.40 0.06551
1011.50 0.0655
1011.60 0.06548
1011.70 0.06546
1011.80 0.06544
1011.90 0.06542
1012.00 0.06541
1012.10 0.06539
1012.20 0.06537
1012.30 0.06535
1012.40 0.06533
1012.50 0.06531
1012.60 0.06529
1012.70 0.06527
1012.80 0.06525
1012.90 0.06523
1013.00 0.06521
1013.10 0.06519
1013.20 0.06517
1013.30 0.06515
1013.40 0.06513
1013.50 0.06511
1013.60 0.06509
1013.70 0.06507
1013.80 0.06505
1013.90 0.06503
1014.00 0.06501
1014.10 0.06498
1014.20 0.06496
1014.30 0.06494
1014.40 0.06492
1014.50 0.0649
1014.60 0.06488
1014.70 0.06486
1014.80 0.06484
1014.90 0.06481
1015.00 0.06479
1015.10 0.06477
1015.20 0.06475
1015.30 0.06473
1015.40 0.0647
1015.50 0.06468
1015.60 0.06466
1015.70 0.06464
1015.80 0.06462
1015.90 0.06459
1016.00 0.06457
1016.10 0.06455
1016.20 0.06453
1016.30 0.06451
1016.40 0.06448
1016.50 0.06446
1016.60 0.06444
1016.70 0.06442
1016.80 0.0644
1016.90 0.06437
1017.00 0.06435
1017.10 0.06433
1017.20 0.06431
1017.30 0.06428
1017.40 0.06426
1017.50 0.06424
1017.60 0.06421
1017.70 0.06419
1017.80 0.06417
1017.90 0.06415
1018.00 0.06412
1018.10 0.0641
1018.20 0.06408
1018.30 0.06406
1018.40 0.06403
1018.50 0.06401
1018.60 0.06399
1018.70 0.06396
1018.80 0.06394
1018.90 0.06392
1019.00 0.06389
1019.10 0.06387
1019.20 0.06385
1019.30 0.06383
1019.40 0.0638
1019.50 0.06378
1019.60 0.06376
1019.70 0.06373
1019.80 0.06371
1019.90 0.06369
1020.00 0.06366
1020.10 0.06364
1020.20 0.06362
1020.30 0.06359
1020.40 0.06357
1020.50 0.06355
1020.60 0.06353
1020.70 0.0635
1020.80 0.06348
1020.90 0.06346
1021.00 0.06343
1021.10 0.06341
1021.20 0.06339
1021.30 0.06336
1021.40 0.06334
1021.50 0.06332
1021.60 0.06329
1021.70 0.06327
1021.80 0.06325
1021.90 0.06322
1022.00 0.0632
1022.10 0.06318
1022.20 0.06315
1022.30 0.06313
1022.40 0.06311
1022.50 0.06308
1022.60 0.06306
1022.70 0.06304
1022.80 0.06301
1022.90 0.06299
1023.00 0.06297
1023.10 0.06294
1023.20 0.06292
1023.30 0.0629
1023.40 0.06287
1023.50 0.06285
1023.60 0.06283
1023.70 0.0628
1023.80 0.06278
1023.90 0.06276
1024.00 0.06273
1024.10 0.06271
1024.20 0.06269
1024.30 0.06266
1024.40 0.06264
1024.50 0.06262
1024.60 0.06259
1024.70 0.06257
1024.80 0.06255
1024.90 0.06252
1025.00 0.0625
1025.10 0.06248
1025.20 0.06245
1025.30 0.06243
1025.40 0.06241
1025.50 0.06238
1025.60 0.06236
1025.70 0.06234
1025.80 0.06231
1025.90 0.06229
1026.00 0.06227
1026.10 0.06224
1026.20 0.06222
1026.30 0.0622
1026.40 0.06217
1026.50 0.06215
1026.60 0.06213
1026.70 0.0621
1026.80 0.06208
1026.90 0.06206
1027.00 0.06203
1027.10 0.06201
1027.20 0.06199
1027.30 0.06196
1027.40 0.06194
1027.50 0.06192
1027.60 0.0619
1027.70 0.06187
1027.80 0.06185
1027.90 0.06183
1028.00 0.0618
1028.10 0.06178
1028.20 0.06176
1028.30 0.06173
1028.40 0.06171
1028.50 0.06169
1028.60 0.06166
1028.70 0.06164
1028.80 0.06162
1028.90 0.06159
1029.00 0.06157
1029.10 0.06155
1029.20 0.06153
1029.30 0.0615
1029.40 0.06148
1029.50 0.06146
1029.60 0.06143
1029.70 0.06141
1029.80 0.06139
1029.90 0.06136
1030.00 0.06134
1030.10 0.06132
1030.20 0.0613
1030.30 0.06127
1030.40 0.06125
1030.50 0.06123
1030.60 0.0612
1030.70 0.06118
1030.80 0.06116
1030.90 0.06113
1031.00 0.06111
1031.10 0.06109
1031.20 0.06107
1031.30 0.06104
1031.40 0.06102
1031.50 0.061
1031.60 0.06097
1031.70 0.06095
1031.80 0.06093
1031.90 0.06091
1032.00 0.06088
1032.10 0.06086
1032.20 0.06084
1032.30 0.06081
1032.40 0.06079
1032.50 0.06077
1032.60 0.06075
1032.70 0.06072
1032.80 0.0607
1032.90 0.06068
1033.00 0.06066
1033.10 0.06063
1033.20 0.06061
1033.30 0.06059
1033.40 0.06056
1033.50 0.06054
1033.60 0.06052
1033.70 0.0605
1033.80 0.06047
1033.90 0.06045
1034.00 0.06043
1034.10 0.06041
1034.20 0.06038
1034.30 0.06036
1034.40 0.06034
1034.50 0.06032
1034.60 0.06029
1034.70 0.06027
1034.80 0.06025
1034.90 0.06023
1035.00 0.0602
1035.10 0.06018
1035.20 0.06016
1035.30 0.06014
1035.40 0.06011
1035.50 0.06009
1035.60 0.06007
1035.70 0.06004
1035.80 0.06002
1035.90 0.06
1036.00 0.05998
1036.10 0.05995
1036.20 0.05993
1036.30 0.05991
1036.40 0.05989
1036.50 0.05986
1036.60 0.05984
1036.70 0.05982
1036.80 0.0598
1036.90 0.05978
1037.00 0.05975
1037.10 0.05973
1037.20 0.05971
1037.30 0.05969
1037.40 0.05966
1037.50 0.05964
1037.60 0.05962
1037.70 0.0596
1037.80 0.05957
1037.90 0.05955
1038.00 0.05953
1038.10 0.05951
1038.20 0.05949
1038.30 0.05946
1038.40 0.05944
1038.50 0.05942
1038.60 0.0594
1038.70 0.05937
1038.80 0.05935
1038.90 0.05933
1039.00 0.05931
1039.10 0.05929
1039.20 0.05926
1039.30 0.05924
1039.40 0.05922
1039.50 0.0592
1039.60 0.05918
1039.70 0.05915
1039.80 0.05913
1039.90 0.05911
1040.00 0.05909
1040.10 0.05906
1040.20 0.05904
1040.30 0.05902
1040.40 0.059
1040.50 0.05898
1040.60 0.05895
1040.70 0.05893
1040.80 0.05891
1040.90 0.05889
1041.00 0.05887
1041.10 0.05884
1041.20 0.05882
1041.30 0.0588
1041.40 0.05878
1041.50 0.05876
1041.60 0.05873
1041.70 0.05871
1041.80 0.05869
1041.90 0.05867
1042.00 0.05865
1042.10 0.05862
1042.20 0.0586
1042.30 0.05858
1042.40 0.05856
1042.50 0.05854
1042.60 0.05852
1042.70 0.05849
1042.80 0.05847
1042.90 0.05845
1043.00 0.05843
1043.10 0.05841
1043.20 0.05838
1043.30 0.05836
1043.40 0.05834
1043.50 0.05832
1043.60 0.0583
1043.70 0.05828
1043.80 0.05825
1043.90 0.05823
1044.00 0.05821
1044.10 0.05819
1044.20 0.05817
1044.30 0.05815
1044.40 0.05812
1044.50 0.0581
1044.60 0.05808
1044.70 0.05806
1044.80 0.05804
1044.90 0.05802
1045.00 0.05799
1045.10 0.05797
1045.20 0.05795
1045.30 0.05793
1045.40 0.05791
1045.50 0.05789
1045.60 0.05786
1045.70 0.05784
1045.80 0.05782
1045.90 0.0578
1046.00 0.05778
1046.10 0.05776
1046.20 0.05774
1046.30 0.05771
1046.40 0.05769
1046.50 0.05767
1046.60 0.05765
1046.70 0.05763
1046.80 0.05761
1046.90 0.05758
1047.00 0.05756
1047.10 0.05754
1047.20 0.05752
1047.30 0.0575
1047.40 0.05748
1047.50 0.05746
1047.60 0.05744
1047.70 0.05741
1047.80 0.05739
1047.90 0.05737
1048.00 0.05735
1048.10 0.05733
1048.20 0.05731
1048.30 0.05729
1048.40 0.05726
1048.50 0.05724
1048.60 0.05722
1048.70 0.0572
1048.80 0.05718
1048.90 0.05716
1049.00 0.05714
1049.10 0.05712
1049.20 0.0571
1049.30 0.05707
1049.40 0.05705
1049.50 0.05703
1049.60 0.05701
1049.70 0.05699
1049.80 0.05697
1049.90 0.05695
1050.00 0.05693
1050.10 0.0569
1050.20 0.05688
1050.30 0.05686
1050.40 0.05684
1050.50 0.05682
1050.60 0.0568
1050.70 0.05678
1050.80 0.05676
1050.90 0.05674
1051.00 0.05671
1051.10 0.05669
1051.20 0.05667
1051.30 0.05665
1051.40 0.05663
1051.50 0.05661
1051.60 0.05659
1051.70 0.05657
1051.80 0.05655
1051.90 0.05653
1052.00 0.0565
1052.10 0.05648
1052.20 0.05646
1052.30 0.05644
1052.40 0.05642
1052.50 0.0564
1052.60 0.05638
1052.70 0.05636
1052.80 0.05634
1052.90 0.05632
1053.00 0.0563
1053.10 0.05627
1053.20 0.05625
1053.30 0.05623
1053.40 0.05621
1053.50 0.05619
1053.60 0.05617
1053.70 0.05615
1053.80 0.05613
1053.90 0.05611
1054.00 0.05609
1054.10 0.05607
1054.20 0.05605
1054.30 0.05603
1054.40 0.056
1054.50 0.05598
1054.60 0.05596
1054.70 0.05594
1054.80 0.05592
1054.90 0.0559
1055.00 0.05588
1055.10 0.05586
1055.20 0.05584
1055.30 0.05582
1055.40 0.0558
1055.50 0.05578
1055.60 0.05576
1055.70 0.05574
1055.80 0.05572
1055.90 0.05569
1056.00 0.05567
1056.10 0.05565
1056.20 0.05563
1056.30 0.05561
1056.40 0.05559
1056.50 0.05557
1056.60 0.05555
1056.70 0.05553
1056.80 0.05551
1056.90 0.05549
1057.00 0.05547
1057.10 0.05545
1057.20 0.05543
1057.30 0.05541
1057.40 0.05539
1057.50 0.05537
1057.60 0.05535
1057.70 0.05533
1057.80 0.0553
1057.90 0.05528
1058.00 0.05526
1058.10 0.05524
1058.20 0.05522
1058.30 0.0552
1058.40 0.05518
1058.50 0.05516
1058.60 0.05514
1058.70 0.05512
1058.80 0.0551
1058.90 0.05508
1059.00 0.05506
1059.10 0.05504
1059.20 0.05502
1059.30 0.055
1059.40 0.05498
1059.50 0.05496
1059.60 0.05494
1059.70 0.05492
1059.80 0.0549
1059.90 0.05488
1060.00 0.05486
1060.10 0.05484
1060.20 0.05482
1060.30 0.0548
1060.40 0.05478
1060.50 0.05476
1060.60 0.05474
1060.70 0.05472
1060.80 0.0547
1060.90 0.05468
1061.00 0.05466
1061.10 0.05464
1061.20 0.05462
1061.30 0.05459
1061.40 0.05457
1061.50 0.05455
1061.60 0.05453
1061.70 0.05451
1061.80 0.05449
1061.90 0.05447
1062.00 0.05445
1062.10 0.05443
1062.20 0.05441
1062.30 0.05439
1062.40 0.05437
1062.50 0.05435
1062.60 0.05433
1062.70 0.05431
1062.80 0.05429
1062.90 0.05427
1063.00 0.05425
1063.10 0.05423
1063.20 0.05421
1063.30 0.05419
1063.40 0.05417
1063.50 0.05415
1063.60 0.05413
1063.70 0.05411
1063.80 0.05409
1063.90 0.05407
1064.00 0.05405
1064.10 0.05403
1064.20 0.05401
1064.30 0.05399
1064.40 0.05397
1064.50 0.05396
1064.60 0.05394
1064.70 0.05392
1064.80 0.0539
1064.90 0.05388
1065.00 0.05386
1065.10 0.05384
1065.20 0.05382
1065.30 0.0538
1065.40 0.05378
1065.50 0.05376
1065.60 0.05374
1065.70 0.05372
1065.80 0.0537
1065.90 0.05368
1066.00 0.05366
1066.10 0.05364
1066.20 0.05362
1066.30 0.0536
1066.40 0.05358
1066.50 0.05356
1066.60 0.05354
1066.70 0.05352
1066.80 0.0535
1066.90 0.05348
1067.00 0.05346
1067.10 0.05344
1067.20 0.05342
1067.30 0.0534
1067.40 0.05338
1067.50 0.05336
1067.60 0.05334
1067.70 0.05332
1067.80 0.0533
1067.90 0.05328
1068.00 0.05326
1068.10 0.05324
1068.20 0.05322
1068.30 0.0532
1068.40 0.05319
1068.50 0.05317
1068.60 0.05315
1068.70 0.05313
1068.80 0.05311
1068.90 0.05309
1069.00 0.05307
1069.10 0.05305
1069.20 0.05303
1069.30 0.05301
1069.40 0.05299
1069.50 0.05297
1069.60 0.05295
1069.70 0.05293
1069.80 0.05291
1069.90 0.05289
1070.00 0.05287
1070.10 0.05285
1070.20 0.05283
1070.30 0.05281
1070.40 0.05279
1070.50 0.05277
1070.60 0.05276
1070.70 0.05274
1070.80 0.05272
1070.90 0.0527
1071.00 0.05268
1071.10 0.05266
1071.20 0.05264
1071.30 0.05262
1071.40 0.0526
1071.50 0.05258
1071.60 0.05256
1071.70 0.05254
1071.80 0.05252
1071.90 0.0525
1072.00 0.05248
1072.10 0.05246
1072.20 0.05244
1072.30 0.05242
1072.40 0.05241
1072.50 0.05239
1072.60 0.05237
1072.70 0.05235
1072.80 0.05233
1072.90 0.05231
1073.00 0.05229
1073.10 0.05227
1073.20 0.05225
1073.30 0.05223
1073.40 0.05221
1073.50 0.05219
1073.60 0.05217
1073.70 0.05215
1073.80 0.05213
1073.90 0.05211
1074.00 0.0521
1074.10 0.05208
1074.20 0.05206
1074.30 0.05204
1074.40 0.05202
1074.50 0.052
1074.60 0.05198
1074.70 0.05196
1074.80 0.05194
1074.90 0.05192
1075.00 0.0519
1075.10 0.05188
1075.20 0.05186
1075.30 0.05184
1075.40 0.05182
1075.50 0.0518
1075.60 0.05178
1075.70 0.05177
1075.80 0.05175
1075.90 0.05173
1076.00 0.05171
1076.10 0.05169
1076.20 0.05167
1076.30 0.05165
1076.40 0.05163
1076.50 0.05161
1076.60 0.05159
1076.70 0.05157
1076.80 0.05155
1076.90 0.05153
1077.00 0.05151
1077.10 0.0515
1077.20 0.05148
1077.30 0.05146
1077.40 0.05144
1077.50 0.05142
1077.60 0.0514
1077.70 0.05138
1077.80 0.05136
1077.90 0.05134
1078.00 0.05132
1078.10 0.0513
1078.20 0.05128
1078.30 0.05126
1078.40 0.05124
1078.50 0.05122
1078.60 0.0512
1078.70 0.05118
1078.80 0.05116
1078.90 0.05114
1079.00 0.05112
1079.10 0.05111
1079.20 0.05109
1079.30 0.05107
1079.40 0.05105
1079.50 0.05103
1079.60 0.05101
1079.70 0.05099
1079.80 0.05097
1079.90 0.05095
1080.00 0.05093
1080.10 0.05091
1080.20 0.05089
1080.30 0.05087
1080.40 0.05085
1080.50 0.05083
1080.60 0.05081
1080.70 0.05079
1080.80 0.05077
1080.90 0.05075
1081.00 0.05073
1081.10 0.05071
1081.20 0.05069
1081.30 0.05067
1081.40 0.05065
1081.50 0.05063
1081.60 0.05061
1081.70 0.05059
1081.80 0.05057
1081.90 0.05055
1082.00 0.05053
1082.10 0.05051
1082.20 0.05049
1082.30 0.05047
1082.40 0.05045
1082.50 0.05043
1082.60 0.05041
1082.70 0.05039
1082.80 0.05036
1082.90 0.05034
1083.00 0.05032
1083.10 0.0503
1083.20 0.05028
1083.30 0.05026
1083.40 0.05024
1083.50 0.05022
1083.60 0.0502
1083.70 0.05018
1083.80 0.05016
1083.90 0.05013
1084.00 0.05011
1084.10 0.05009
1084.20 0.05007
1084.30 0.05005
1084.40 0.05003
1084.50 0.05001
1084.60 0.04998
1084.70 0.04996
1084.80 0.04994
1084.90 0.04992
1085.00 0.04989
1085.10 0.04987
1085.20 0.04985
1085.30 0.04982
1085.40 0.0498
1085.50 0.04978
1085.60 0.04976
1085.70 0.04973
1085.80 0.04971
1085.90 0.04969
1086.00 0.04967
1086.10 0.04964
1086.20 0.04962
1086.30 0.0496
1086.40 0.04958
1086.50 0.04955
1086.60 0.04953
1086.70 0.0495
1086.80 0.04948
1086.90 0.04946
1087.00 0.04943
1087.10 0.04941
1087.20 0.04938
1087.30 0.04935
1087.40 0.04933
1087.50 0.0493
1087.60 0.04928
1087.70 0.04925
1087.80 0.04922
1087.90 0.0492
1088.00 0.04917
1088.10 0.04915
1088.20 0.04912
1088.30 0.04909
1088.40 0.04907
1088.50 0.04904
1088.60 0.04901
1088.70 0.04898
1088.80 0.04895
1088.90 0.04892
1089.00 0.04889
1089.10 0.04886
1089.20 0.04884
1089.30 0.04881
1089.40 0.04878
1089.50 0.04875
1089.60 0.04872
1089.70 0.04869
1089.80 0.04866
1089.90 0.04863
1090.00 0.0486
1090.10 0.04857
1090.20 0.04854
1090.30 0.04851
1090.40 0.04848
1090.50 0.04845
1090.60 0.04842
1090.70 0.04839
1090.80 0.04836
1090.90 0.04833
1091.00 0.0483
1091.10 0.04827
1091.20 0.04824
1091.30 0.04821
1091.40 0.04818
1091.50 0.04815
1091.60 0.04812
1091.70 0.04809
1091.80 0.04806
1091.90 0.04803
1092.00 0.048
1092.10 0.04797
1092.20 0.04795
1092.30 0.04793
1092.40 0.04791
1092.50 0.04789
1092.60 0.04786
1092.70 0.04785
1092.80 0.04784
1092.90 0.04783
1093.00 0.04782
1093.10 0.04782
1093.20 0.04783
1093.30 0.04784
1093.40 0.04786
1093.50 0.04789
1093.60 0.04795
1093.70 0.048
1093.80 0.04803
1093.90 0.04802
1094.00 0.04793
1094.10 0.04784
1094.20 0.04775
1094.30 0.04768
1094.40 0.04765
1094.50 0.04761
1094.60 0.04758
1094.70 0.04755
1094.80 0.04752
1094.90 0.04748
1095.00 0.04746
1095.10 0.04745
1095.20 0.04744
1095.30 0.04744
1095.40 0.04743
1095.50 0.04742
1095.60 0.04742
1095.70 0.04741
1095.80 0.0474
1095.90 0.04739
1096.00 0.04739
1096.10 0.04738
1096.20 0.04737
1096.30 0.04737
1096.40 0.04736
1096.50 0.04735
1096.60 0.04735
1096.70 0.04735
1096.80 0.04734
1096.90 0.04734
1097.00 0.04734
1097.10 0.04733
1097.20 0.04733
1097.30 0.04733
1097.40 0.04732
1097.50 0.04732
1097.60 0.04731
1097.70 0.04731
1097.80 0.04731
1097.90 0.0473
1098.00 0.0473
1098.10 0.04729
1098.20 0.04729
1098.30 0.04728
1098.40 0.04728
1098.50 0.04728
1098.60 0.04727
1098.70 0.04726
1098.80 0.04725
1098.90 0.04724
1099.00 0.04724
1099.10 0.04723
1099.20 0.04722
1099.30 0.04721
1099.40 0.0472
1099.50 0.0472
1099.60 0.04719
1099.70 0.04718
1099.80 0.04717
1099.90 0.04716
1100.00 0.04716
1100.10 0.04715
1100.20 0.04714
1100.30 0.04713
1100.40 0.04712
1100.50 0.04712
1100.60 0.0471
1100.70 0.04709
1100.80 0.04708
1100.90 0.04707
1101.00 0.04706
1101.10 0.04705
1101.20 0.04704
1101.30 0.04703
1101.40 0.04702
1101.50 0.047
1101.60 0.04699
1101.70 0.04698
1101.80 0.04697
1101.90 0.04696
1102.00 0.04695
1102.10 0.04694
1102.20 0.04693
1102.30 0.04691
1102.40 0.0469
1102.50 0.04689
1102.60 0.04688
1102.70 0.04686
1102.80 0.04685
1102.90 0.04684
1103.00 0.04682
1103.10 0.04681
1103.20 0.0468
1103.30 0.04678
1103.40 0.04677
1103.50 0.04676
1103.60 0.04674
1103.70 0.04673
1103.80 0.04672
1103.90 0.0467
1104.00 0.04669
1104.10 0.04667
1104.20 0.04666
1104.30 0.04665
1104.40 0.04663
1104.50 0.04662
1104.60 0.0466
1104.70 0.04659
1104.80 0.04658
1104.90 0.04656
1105.00 0.04655
1105.10 0.04653
1105.20 0.04652
1105.30 0.04651
1105.40 0.04649
1105.50 0.04648
1105.60 0.04646
1105.70 0.04645
1105.80 0.04643
1105.90 0.04642
1106.00 0.0464
1106.10 0.04639
1106.20 0.04637
1106.30 0.04636
1106.40 0.04634
1106.50 0.04633
1106.60 0.04632
1106.70 0.0463
1106.80 0.04629
1106.90 0.04627
1107.00 0.04626
1107.10 0.04624
1107.20 0.04623
1107.30 0.04621
1107.40 0.0462
1107.50 0.04618
1107.60 0.04617
1107.70 0.04615
1107.80 0.04614
1107.90 0.04612
1108.00 0.0461
1108.10 0.04609
1108.20 0.04607
1108.30 0.04606
1108.40 0.04604
1108.50 0.04603
1108.60 0.04601
1108.70 0.046
1108.80 0.04598
1108.90 0.04597
1109.00 0.04595
1109.10 0.04594
1109.20 0.04592
1109.30 0.04591
1109.40 0.04589
1109.50 0.04588
1109.60 0.04586
1109.70 0.04585
1109.80 0.04583
1109.90 0.04581
1110.00 0.0458
1110.10 0.04578
1110.20 0.04577
1110.30 0.04575
1110.40 0.04574
1110.50 0.04572
1110.60 0.04571
1110.70 0.04569
1110.80 0.04568
1110.90 0.04566
1111.00 0.04565
1111.10 0.04563
1111.20 0.04561
1111.30 0.0456
1111.40 0.04558
1111.50 0.04557
1111.60 0.04555
1111.70 0.04554
1111.80 0.04552
1111.90 0.04551
1112.00 0.04549
1112.10 0.04548
1112.20 0.04546
1112.30 0.04544
1112.40 0.04543
1112.50 0.04541
1112.60 0.0454
1112.70 0.04538
1112.80 0.04537
1112.90 0.04535
1113.00 0.04534
1113.10 0.04532
1113.20 0.04531
1113.30 0.04529
1113.40 0.04527
1113.50 0.04526
1113.60 0.04524
1113.70 0.04523
1113.80 0.04521
1113.90 0.0452
1114.00 0.04518
1114.10 0.04517
1114.20 0.04515
1114.30 0.04513
1114.40 0.04512
1114.50 0.0451
1114.60 0.04509
1114.70 0.04507
1114.80 0.04506
1114.90 0.04504
1115.00 0.04503
1115.10 0.04501
1115.20 0.045
1115.30 0.04498
1115.40 0.04496
1115.50 0.04495
1115.60 0.04493
1115.70 0.04492
1115.80 0.0449
1115.90 0.04489
1116.00 0.04487
1116.10 0.04486
1116.20 0.04484
1116.30 0.04483
1116.40 0.04481
1116.50 0.04479
1116.60 0.04478
1116.70 0.04476
1116.80 0.04475
1116.90 0.04473
1117.00 0.04472
1117.10 0.0447
1117.20 0.04469
1117.30 0.04467
1117.40 0.04466
1117.50 0.04464
1117.60 0.04463
1117.70 0.04461
1117.80 0.04459
1117.90 0.04458
1118.00 0.04456
1118.10 0.04455
1118.20 0.04453
1118.30 0.04452
1118.40 0.0445
1118.50 0.04449
1118.60 0.04447
1118.70 0.04446
1118.80 0.04444
1118.90 0.04443
1119.00 0.04441
1119.10 0.0444
1119.20 0.04438
1119.30 0.04436
1119.40 0.04435
1119.50 0.04433
1119.60 0.04432
1119.70 0.0443
1119.80 0.04429
1119.90 0.04427
1120.00 0.04426
1120.10 0.04424
1120.20 0.04423
1120.30 0.04421
1120.40 0.0442
1120.50 0.04418
1120.60 0.04417
1120.70 0.04415
1120.80 0.04414
1120.90 0.04412
1121.00 0.0441
1121.10 0.04409
1121.20 0.04407
1121.30 0.04406
1121.40 0.04404
1121.50 0.04403
1121.60 0.04401
1121.70 0.044
1121.80 0.04398
1121.90 0.04397
1122.00 0.04395
1122.10 0.04394
1122.20 0.04392
1122.30 0.04391
1122.40 0.04389
1122.50 0.04388
1122.60 0.04386
1122.70 0.04385
1122.80 0.04383
1122.90 0.04382
1123.00 0.0438
1123.10 0.04379
1123.20 0.04377
1123.30 0.04376
1123.40 0.04374
1123.50 0.04373
1123.60 0.04371
1123.70 0.0437
1123.80 0.04368
1123.90 0.04367
1124.00 0.04365
1124.10 0.04364
1124.20 0.04362
1124.30 0.04361
1124.40 0.04359
1124.50 0.04358
1124.60 0.04356
1124.70 0.04355
1124.80 0.04353
1124.90 0.04352
1125.00 0.0435
1125.10 0.04349
1125.20 0.04347
1125.30 0.04346
1125.40 0.04344
1125.50 0.04343
1125.60 0.04341
1125.70 0.0434
1125.80 0.04338
1125.90 0.04337
1126.00 0.04335
1126.10 0.04334
1126.20 0.04332
1126.30 0.04331
1126.40 0.04329
1126.50 0.04328
1126.60 0.04326
1126.70 0.04325
1126.80 0.04323
1126.90 0.04322
1127.00 0.0432
1127.10 0.04319
1127.20 0.04317
1127.30 0.04316
1127.40 0.04314
1127.50 0.04313
1127.60 0.04311
1127.70 0.0431
1127.80 0.04308
1127.90 0.04307
1128.00 0.04305
1128.10 0.04304
1128.20 0.04302
1128.30 0.04301
1128.40 0.04299
1128.50 0.04298
1128.60 0.04296
1128.70 0.04295
1128.80 0.04293
1128.90 0.04292
1129.00 0.0429
1129.10 0.04289
1129.20 0.04287
1129.30 0.04286
1129.40 0.04285
1129.50 0.04283
1129.60 0.04282
1129.70 0.0428
1129.80 0.04279
1129.90 0.04277
1130.00 0.04276
1130.10 0.04274
1130.20 0.04273
1130.30 0.04271
1130.40 0.0427
1130.50 0.04268
1130.60 0.04267
1130.70 0.04265
1130.80 0.04264
1130.90 0.04262
1131.00 0.04261
1131.10 0.0426
1131.20 0.04258
1131.30 0.04257
1131.40 0.04255
1131.50 0.04254
1131.60 0.04252
1131.70 0.04251
1131.80 0.04249
1131.90 0.04248
1132.00 0.04246
1132.10 0.04245
1132.20 0.04243
1132.30 0.04242
1132.40 0.04241
1132.50 0.04239
1132.60 0.04238
1132.70 0.04236
1132.80 0.04235
1132.90 0.04233
1133.00 0.04232
1133.10 0.0423
1133.20 0.04229
1133.30 0.04227
1133.40 0.04226
1133.50 0.04225
1133.60 0.04223
1133.70 0.04222
1133.80 0.0422
1133.90 0.04219
1134.00 0.04217
1134.10 0.04216
1134.20 0.04214
1134.30 0.04213
1134.40 0.04212
1134.50 0.0421
1134.60 0.04209
1134.70 0.04207
1134.80 0.04206
1134.90 0.04204
1135.00 0.04203
1135.10 0.04201
1135.20 0.042
1135.30 0.04199
1135.40 0.04197
1135.50 0.04196
1135.60 0.04194
1135.70 0.04193
1135.80 0.04191
1135.90 0.0419
1136.00 0.04188
1136.10 0.04187
1136.20 0.04186
1136.30 0.04184
1136.40 0.04183
1136.50 0.04181
1136.60 0.0418
1136.70 0.04178
1136.80 0.04177
1136.90 0.04176
1137.00 0.04174
1137.10 0.04173
1137.20 0.04171
1137.30 0.0417
1137.40 0.04168
1137.50 0.04167
1137.60 0.04166
1137.70 0.04164
1137.80 0.04163
1137.90 0.04161
1138.00 0.0416
1138.10 0.04158
1138.20 0.04157
1138.30 0.04156
1138.40 0.04154
1138.50 0.04153
1138.60 0.04151
1138.70 0.0415
1138.80 0.04148
1138.90 0.04147
1139.00 0.04146
1139.10 0.04144
1139.20 0.04143
1139.30 0.04141
1139.40 0.0414
1139.50 0.04139
1139.60 0.04137
1139.70 0.04136
1139.80 0.04134
1139.90 0.04133
1140.00 0.04131
1140.10 0.0413
1140.20 0.04129
1140.30 0.04127
1140.40 0.04126
1140.50 0.04124
1140.60 0.04123
1140.70 0.04122
1140.80 0.0412
1140.90 0.04119
1141.00 0.04117
1141.10 0.04116
1141.20 0.04115
1141.30 0.04113
1141.40 0.04112
1141.50 0.0411
1141.60 0.04109
1141.70 0.04108
1141.80 0.04106
1141.90 0.04105
1142.00 0.04103
1142.10 0.04102
1142.20 0.04101
1142.30 0.04099
1142.40 0.04098
1142.50 0.04096
1142.60 0.04095
1142.70 0.04094
1142.80 0.04092
1142.90 0.04091
1143.00 0.04089
1143.10 0.04088
1143.20 0.04087
1143.30 0.04085
1143.40 0.04084
1143.50 0.04082
1143.60 0.04081
1143.70 0.0408
1143.80 0.04078
1143.90 0.04077
1144.00 0.04075
1144.10 0.04074
1144.20 0.04073
1144.30 0.04071
1144.40 0.0407
1144.50 0.04069
1144.60 0.04067
1144.70 0.04066
1144.80 0.04064
1144.90 0.04063
1145.00 0.04062
1145.10 0.0406
1145.20 0.04059
1145.30 0.04057
1145.40 0.04056
1145.50 0.04055
1145.60 0.04053
1145.70 0.04052
1145.80 0.04051
1145.90 0.04049
1146.00 0.04048
1146.10 0.04046
1146.20 0.04045
1146.30 0.04044
1146.40 0.04042
1146.50 0.04041
1146.60 0.0404
1146.70 0.04038
1146.80 0.04037
1146.90 0.04035
1147.00 0.04034
1147.10 0.04033
1147.20 0.04031
1147.30 0.0403
1147.40 0.04029
1147.50 0.04027
1147.60 0.04026
1147.70 0.04024
1147.80 0.04023
1147.90 0.04022
1148.00 0.0402
1148.10 0.04019
1148.20 0.04018
1148.30 0.04016
1148.40 0.04015
1148.50 0.04014
1148.60 0.04012
1148.70 0.04011
1148.80 0.04009
1148.90 0.04008
1149.00 0.04007
1149.10 0.04005
1149.20 0.04004
1149.30 0.04003
1149.40 0.04001
1149.50 0.04
1149.60 0.03999
1149.70 0.03997
1149.80 0.03996
1149.90 0.03995
1150.00 0.03993
1150.10 0.03992
1150.20 0.0399
1150.30 0.03989
1150.40 0.03988
1150.50 0.03986
1150.60 0.03985
1150.70 0.03984
1150.80 0.03982
1150.90 0.03981
1151.00 0.0398
1151.10 0.03978
1151.20 0.03977
1151.30 0.03976
1151.40 0.03974
1151.50 0.03973
1151.60 0.03972
1151.70 0.0397
1151.80 0.03969
1151.90 0.03967
1152.00 0.03966
1152.10 0.03965
1152.20 0.03963
1152.30 0.03962
1152.40 0.03961
1152.50 0.03959
1152.60 0.03958
1152.70 0.03957
1152.80 0.03955
1152.90 0.03954
1153.00 0.03953
1153.10 0.03951
1153.20 0.0395
1153.30 0.03949
1153.40 0.03947
1153.50 0.03946
1153.60 0.03945
1153.70 0.03943
1153.80 0.03942
1153.90 0.03941
1154.00 0.03939
1154.10 0.03938
1154.20 0.03937
1154.30 0.03935
1154.40 0.03934
1154.50 0.03933
1154.60 0.03931
1154.70 0.0393
1154.80 0.03929
1154.90 0.03927
1155.00 0.03926
1155.10 0.03925
1155.20 0.03924
1155.30 0.03922
1155.40 0.03921
1155.50 0.0392
1155.60 0.03918
1155.70 0.03917
1155.80 0.03916
1155.90 0.03914
1156.00 0.03913
1156.10 0.03912
1156.20 0.0391
1156.30 0.03909
1156.40 0.03908
1156.50 0.03906
1156.60 0.03905
1156.70 0.03904
1156.80 0.03902
1156.90 0.03901
1157.00 0.039
1157.10 0.03898
1157.20 0.03897
1157.30 0.03896
1157.40 0.03894
1157.50 0.03893
1157.60 0.03892
1157.70 0.03891
1157.80 0.03889
1157.90 0.03888
1158.00 0.03887
1158.10 0.03885
1158.20 0.03884
1158.30 0.03883
1158.40 0.03881
1158.50 0.0388
1158.60 0.03879
1158.70 0.03877
1158.80 0.03876
1158.90 0.03875
1159.00 0.03874
1159.10 0.03872
1159.20 0.03871
1159.30 0.0387
1159.40 0.03868
1159.50 0.03867
1159.60 0.03866
1159.70 0.03864
1159.80 0.03863
1159.90 0.03862
1160.00 0.03861
1160.10 0.03859
1160.20 0.03858
1160.30 0.03857
1160.40 0.03855
1160.50 0.03854
1160.60 0.03853
1160.70 0.03851
1160.80 0.0385
1160.90 0.03849
1161.00 0.03848
1161.10 0.03846
1161.20 0.03845
1161.30 0.03844
1161.40 0.03842
1161.50 0.03841
1161.60 0.0384
1161.70 0.03839
1161.80 0.03837
1161.90 0.03836
1162.00 0.03835
1162.10 0.03833
1162.20 0.03832
1162.30 0.03831
1162.40 0.0383
1162.50 0.03828
1162.60 0.03827
1162.70 0.03826
1162.80 0.03824
1162.90 0.03823
1163.00 0.03822
1163.10 0.03821
1163.20 0.03819
1163.30 0.03818
1163.40 0.03817
1163.50 0.03815
1163.60 0.03814
1163.70 0.03813
1163.80 0.03812
1163.90 0.0381
1164.00 0.03809
1164.10 0.03808
1164.20 0.03807
1164.30 0.03805
1164.40 0.03804
1164.50 0.03803
1164.60 0.03801
1164.70 0.038
1164.80 0.03799
1164.90 0.03798
1165.00 0.03796
1165.10 0.03795
1165.20 0.03794
1165.30 0.03793
1165.40 0.03791
1165.50 0.0379
1165.60 0.03789
1165.70 0.03787
1165.80 0.03786
1165.90 0.03785
1166.00 0.03784
1166.10 0.03782
1166.20 0.03781
1166.30 0.0378
1166.40 0.03779
1166.50 0.03777
1166.60 0.03776
1166.70 0.03775
1166.80 0.03773
1166.90 0.03772
1167.00 0.03771
1167.10 0.0377
1167.20 0.03768
1167.30 0.03767
1167.40 0.03766
1167.50 0.03765
1167.60 0.03763
1167.70 0.03762
1167.80 0.03761
1167.90 0.0376
1168.00 0.03758
1168.10 0.03757
1168.20 0.03756
1168.30 0.03755
1168.40 0.03753
1168.50 0.03752
1168.60 0.03751
1168.70 0.0375
1168.80 0.03748
1168.90 0.03747
1169.00 0.03746
1169.10 0.03745
1169.20 0.03743
1169.30 0.03742
1169.40 0.03741
1169.50 0.0374
1169.60 0.03738
1169.70 0.03737
1169.80 0.03736
1169.90 0.03735
1170.00 0.03733
1170.10 0.03732
1170.20 0.03731
1170.30 0.0373
1170.40 0.03728
1170.50 0.03727
1170.60 0.03726
1170.70 0.03725
1170.80 0.03723
1170.90 0.03722
1171.00 0.03721
1171.10 0.0372
1171.20 0.03718
1171.30 0.03717
1171.40 0.03716
1171.50 0.03715
1171.60 0.03714
1171.70 0.03712
1171.80 0.03711
1171.90 0.0371
1172.00 0.03709
1172.10 0.03707
1172.20 0.03706
1172.30 0.03705
1172.40 0.03704
1172.50 0.03702
1172.60 0.03701
1172.70 0.037
1172.80 0.03699
1172.90 0.03698
1173.00 0.03696
1173.10 0.03695
1173.20 0.03694
1173.30 0.03693
1173.40 0.03691
1173.50 0.0369
1173.60 0.03689
1173.70 0.03688
1173.80 0.03686
1173.90 0.03685
1174.00 0.03684
1174.10 0.03683
1174.20 0.03682
1174.30 0.0368
1174.40 0.03679
1174.50 0.03678
1174.60 0.03677
1174.70 0.03675
1174.80 0.03674
1174.90 0.03673
1175.00 0.03672
1175.10 0.03671
1175.20 0.03669
1175.30 0.03668
1175.40 0.03667
1175.50 0.03666
1175.60 0.03664
1175.70 0.03663
1175.80 0.03662
1175.90 0.03661
1176.00 0.0366
1176.10 0.03658
1176.20 0.03657
1176.30 0.03656
1176.40 0.03655
1176.50 0.03654
1176.60 0.03652
1176.70 0.03651
1176.80 0.0365
1176.90 0.03649
1177.00 0.03647
1177.10 0.03646
1177.20 0.03645
1177.30 0.03644
1177.40 0.03643
1177.50 0.03641
1177.60 0.0364
1177.70 0.03639
1177.80 0.03638
1177.90 0.03637
1178.00 0.03635
1178.10 0.03634
1178.20 0.03633
1178.30 0.03632
1178.40 0.03631
1178.50 0.03629
1178.60 0.03628
1178.70 0.03627
1178.80 0.03626
1178.90 0.03625
1179.00 0.03623
1179.10 0.03622
1179.20 0.03621
1179.30 0.0362
1179.40 0.03619
1179.50 0.03617
1179.60 0.03616
1179.70 0.03615
1179.80 0.03614
1179.90 0.03613
1180.00 0.03611
1180.10 0.0361
1180.20 0.03609
1180.30 0.03608
1180.40 0.03607
1180.50 0.03605
1180.60 0.03604
1180.70 0.03603
1180.80 0.03602
1180.90 0.03601
1181.00 0.036
1181.10 0.03598
1181.20 0.03597
1181.30 0.03596
1181.40 0.03595
1181.50 0.03594
1181.60 0.03592
1181.70 0.03591
1181.80 0.0359
1181.90 0.03589
1182.00 0.03588
1182.10 0.03586
1182.20 0.03585
1182.30 0.03584
1182.40 0.03583
1182.50 0.03582
1182.60 0.03581
1182.70 0.03579
1182.80 0.03578
1182.90 0.03577
1183.00 0.03576
1183.10 0.03575
1183.20 0.03573
1183.30 0.03572
1183.40 0.03571
1183.50 0.0357
1183.60 0.03569
1183.70 0.03568
1183.80 0.03566
1183.90 0.03565
1184.00 0.03564
1184.10 0.03563
1184.20 0.03562
1184.30 0.03561
1184.40 0.03559
1184.50 0.03558
1184.60 0.03557
1184.70 0.03556
1184.80 0.03555
1184.90 0.03554
1185.00 0.03552
1185.10 0.03551
1185.20 0.0355
1185.30 0.03549
1185.40 0.03548
1185.50 0.03546
1185.60 0.03545
1185.70 0.03544
1185.80 0.03543
1185.90 0.03542
1186.00 0.03541
1186.10 0.03539
1186.20 0.03538
1186.30 0.03537
1186.40 0.03536
1186.50 0.03535
1186.60 0.03534
1186.70 0.03532
1186.80 0.03531
1186.90 0.0353
1187.00 0.03529
1187.10 0.03528
1187.20 0.03527
1187.30 0.03526
1187.40 0.03524
1187.50 0.03523
1187.60 0.03522
1187.70 0.03521
1187.80 0.0352
1187.90 0.03519
1188.00 0.03517
1188.10 0.03516
1188.20 0.03515
1188.30 0.03514
1188.40 0.03513
1188.50 0.03512
1188.60 0.03511
1188.70 0.03509
1188.80 0.03508
1188.90 0.03507
1189.00 0.03506
1189.10 0.03505
1189.20 0.03504
1189.30 0.03502
1189.40 0.03501
1189.50 0.035
1189.60 0.03499
1189.70 0.03498
1189.80 0.03497
1189.90 0.03496
1190.00 0.03494
1190.10 0.03493
1190.20 0.03492
1190.30 0.03491
1190.40 0.0349
1190.50 0.03489
1190.60 0.03488
1190.70 0.03486
1190.80 0.03485
1190.90 0.03484
1191.00 0.03483
1191.10 0.03482
1191.20 0.03481
1191.30 0.0348
1191.40 0.03478
1191.50 0.03477
1191.60 0.03476
1191.70 0.03475
1191.80 0.03474
1191.90 0.03473
1192.00 0.03472
1192.10 0.0347
1192.20 0.03469
1192.30 0.03468
1192.40 0.03467
1192.50 0.03466
1192.60 0.03465
1192.70 0.03464
1192.80 0.03462
1192.90 0.03461
1193.00 0.0346
1193.10 0.03459
1193.20 0.03458
1193.30 0.03457
1193.40 0.03456
1193.50 0.03455
1193.60 0.03453
1193.70 0.03452
1193.80 0.03451
1193.90 0.0345
1194.00 0.03449
1194.10 0.03448
1194.20 0.03447
1194.30 0.03446
1194.40 0.03444
1194.50 0.03443
1194.60 0.03442
1194.70 0.03441
1194.80 0.0344
1194.90 0.03439
1195.00 0.03438
1195.10 0.03437
1195.20 0.03435
1195.30 0.03434
1195.40 0.03433
1195.50 0.03432
1195.60 0.03431
1195.70 0.0343
1195.80 0.03429
1195.90 0.03428
1196.00 0.03426
1196.10 0.03425
1196.20 0.03424
1196.30 0.03423
1196.40 0.03422
1196.50 0.03421
1196.60 0.0342
1196.70 0.03419
1196.80 0.03418
1196.90 0.03416
1197.00 0.03415
1197.10 0.03414
1197.20 0.03413
1197.30 0.03412
1197.40 0.03411
1197.50 0.0341
1197.60 0.03409
1197.70 0.03408
1197.80 0.03406
1197.90 0.03405
1198.00 0.03404
1198.10 0.03403
1198.20 0.03402
1198.30 0.03401
1198.40 0.034
1198.50 0.03399
1198.60 0.03398
1198.70 0.03396
1198.80 0.03395
1198.90 0.03394
1199.00 0.03393
1199.10 0.03392
1199.20 0.03391
1199.30 0.0339
1199.40 0.03389
1199.50 0.03388
1199.60 0.03387
1199.70 0.03385
1199.80 0.03384
1199.90 0.03383
1200.00 0
