# Version 2.1 - nm, norm@500 to 1, cut digits, bergeron_2250_85.dat_2250
# Wavelength(nm)  Flambda(ergs/cm^s/s/nm)
300.00 0.06189
300.10 0.06207
300.20 0.06225
300.30 0.06244
300.40 0.06262
300.50 0.06281
300.60 0.06299
300.70 0.06317
300.80 0.06336
300.90 0.06354
301.00 0.06373
301.10 0.06391
301.20 0.06409
301.30 0.06427
301.40 0.06446
301.50 0.06464
301.60 0.06482
301.70 0.065
301.80 0.06518
301.90 0.06537
302.00 0.06555
302.10 0.06574
302.20 0.06593
302.30 0.06612
302.40 0.06632
302.50 0.06651
302.60 0.0667
302.70 0.06689
302.80 0.06708
302.90 0.06727
303.00 0.06746
303.10 0.06765
303.20 0.06785
303.30 0.06803
303.40 0.06822
303.50 0.06841
303.60 0.0686
303.70 0.06879
303.80 0.06898
303.90 0.06917
304.00 0.06936
304.10 0.06956
304.20 0.06976
304.30 0.06996
304.40 0.07016
304.50 0.07035
304.60 0.07055
304.70 0.07075
304.80 0.07095
304.90 0.07115
305.00 0.07135
305.10 0.07154
305.20 0.07174
305.30 0.07194
305.40 0.07213
305.50 0.07233
305.60 0.07253
305.70 0.07272
305.80 0.07292
305.90 0.07311
306.00 0.07332
306.10 0.07352
306.20 0.07372
306.30 0.07393
306.40 0.07414
306.50 0.07434
306.60 0.07455
306.70 0.07476
306.80 0.07496
306.90 0.07517
307.00 0.07537
307.10 0.07558
307.20 0.07578
307.30 0.07599
307.40 0.07619
307.50 0.07639
307.60 0.0766
307.70 0.0768
307.80 0.077
307.90 0.07721
308.00 0.07742
308.10 0.07763
308.20 0.07784
308.30 0.07805
308.40 0.07827
308.50 0.07848
308.60 0.07869
308.70 0.07891
308.80 0.07912
308.90 0.07933
309.00 0.07954
309.10 0.07976
309.20 0.07997
309.30 0.08018
309.40 0.08039
309.50 0.0806
309.60 0.08081
309.70 0.08102
309.80 0.08123
309.90 0.08144
310.00 0.08166
310.10 0.08188
310.20 0.0821
310.30 0.08232
310.40 0.08254
310.50 0.08276
310.60 0.08298
310.70 0.08321
310.80 0.08343
310.90 0.08365
311.00 0.08387
311.10 0.08409
311.20 0.08431
311.30 0.08453
311.40 0.08475
311.50 0.08496
311.60 0.08518
311.70 0.0854
311.80 0.08562
311.90 0.08584
312.00 0.08605
312.10 0.08627
312.20 0.08649
312.30 0.08672
312.40 0.08695
312.50 0.08718
312.60 0.08741
312.70 0.08763
312.80 0.08786
312.90 0.08809
313.00 0.08832
313.10 0.08855
313.20 0.08877
313.30 0.089
313.40 0.08923
313.50 0.08945
313.60 0.08968
313.70 0.08991
313.80 0.09013
313.90 0.09036
314.00 0.09059
314.10 0.09082
314.20 0.09106
314.30 0.09129
314.40 0.09153
314.50 0.09177
314.60 0.092
314.70 0.09224
314.80 0.09247
314.90 0.09271
315.00 0.09294
315.10 0.09318
315.20 0.09341
315.30 0.09364
315.40 0.09388
315.50 0.09411
315.60 0.09434
315.70 0.09457
315.80 0.09481
315.90 0.09504
316.00 0.09528
316.10 0.09552
316.20 0.09576
316.30 0.096
316.40 0.09625
316.50 0.09649
316.60 0.09674
316.70 0.09698
316.80 0.09722
316.90 0.09746
317.00 0.09771
317.10 0.09795
317.20 0.09819
317.30 0.09843
317.40 0.09867
317.50 0.09891
317.60 0.09915
317.70 0.09939
317.80 0.09963
317.90 0.09988
318.00 0.1001
318.10 0.1004
318.20 0.1006
318.30 0.1009
318.40 0.1011
318.50 0.1014
318.60 0.1016
318.70 0.1019
318.80 0.1021
318.90 0.1024
319.00 0.1026
319.10 0.1029
319.20 0.1031
319.30 0.1034
319.40 0.1036
319.50 0.1039
319.60 0.1041
319.70 0.1044
319.80 0.1046
319.90 0.1049
320.00 0.1051
320.10 0.1054
320.20 0.1056
320.30 0.1059
320.40 0.1061
320.50 0.1064
320.60 0.1067
320.70 0.1069
320.80 0.1072
320.90 0.1074
321.00 0.1077
321.10 0.1079
321.20 0.1082
321.30 0.1085
321.40 0.1087
321.50 0.109
321.60 0.1092
321.70 0.1095
321.80 0.1097
321.90 0.11
322.00 0.1102
322.10 0.1105
322.20 0.1108
322.30 0.111
322.40 0.1113
322.50 0.1116
322.60 0.1118
322.70 0.1121
322.80 0.1124
322.90 0.1126
323.00 0.1129
323.10 0.1132
323.20 0.1134
323.30 0.1137
323.40 0.114
323.50 0.1142
323.60 0.1145
323.70 0.1148
323.80 0.115
323.90 0.1153
324.00 0.1155
324.10 0.1158
324.20 0.1161
324.30 0.1164
324.40 0.1166
324.50 0.1169
324.60 0.1172
324.70 0.1175
324.80 0.1177
324.90 0.118
325.00 0.1183
325.10 0.1186
325.20 0.1188
325.30 0.1191
325.40 0.1194
325.50 0.1196
325.60 0.1199
325.70 0.1202
325.80 0.1204
325.90 0.1207
326.00 0.121
326.10 0.1213
326.20 0.1216
326.30 0.1218
326.40 0.1221
326.50 0.1224
326.60 0.1227
326.70 0.123
326.80 0.1232
326.90 0.1235
327.00 0.1238
327.10 0.1241
327.20 0.1244
327.30 0.1246
327.40 0.1249
327.50 0.1252
327.60 0.1255
327.70 0.1257
327.80 0.126
327.90 0.1263
328.00 0.1266
328.10 0.1269
328.20 0.1272
328.30 0.1275
328.40 0.1277
328.50 0.128
328.60 0.1283
328.70 0.1286
328.80 0.1289
328.90 0.1292
329.00 0.1295
329.10 0.1298
329.20 0.13
329.30 0.1303
329.40 0.1306
329.50 0.1309
329.60 0.1312
329.70 0.1315
329.80 0.1318
329.90 0.132
330.00 0.1323
330.10 0.1326
330.20 0.1329
330.30 0.1332
330.40 0.1335
330.50 0.1338
330.60 0.1341
330.70 0.1344
330.80 0.1347
330.90 0.135
331.00 0.1353
331.10 0.1356
331.20 0.1359
331.30 0.1362
331.40 0.1365
331.50 0.1368
331.60 0.1371
331.70 0.1374
331.80 0.1376
331.90 0.1379
332.00 0.1382
332.10 0.1385
332.20 0.1388
332.30 0.1392
332.40 0.1395
332.50 0.1398
332.60 0.1401
332.70 0.1404
332.80 0.1407
332.90 0.141
333.00 0.1413
333.10 0.1416
333.20 0.1419
333.30 0.1422
333.40 0.1425
333.50 0.1428
333.60 0.1431
333.70 0.1434
333.80 0.1437
333.90 0.144
334.00 0.1443
334.10 0.1446
334.20 0.1449
334.30 0.1452
334.40 0.1455
334.50 0.1459
334.60 0.1462
334.70 0.1465
334.80 0.1468
334.90 0.1471
335.00 0.1474
335.10 0.1477
335.20 0.148
335.30 0.1483
335.40 0.1487
335.50 0.149
335.60 0.1493
335.70 0.1496
335.80 0.1499
335.90 0.1502
336.00 0.1505
336.10 0.1508
336.20 0.1511
336.30 0.1515
336.40 0.1518
336.50 0.1521
336.60 0.1524
336.70 0.1527
336.80 0.1531
336.90 0.1534
337.00 0.1537
337.10 0.154
337.20 0.1543
337.30 0.1547
337.40 0.155
337.50 0.1553
337.60 0.1556
337.70 0.1559
337.80 0.1562
337.90 0.1565
338.00 0.1569
338.10 0.1572
338.20 0.1575
338.30 0.1578
338.40 0.1582
338.50 0.1585
338.60 0.1588
338.70 0.1592
338.80 0.1595
338.90 0.1598
339.00 0.1601
339.10 0.1605
339.20 0.1608
339.30 0.1611
339.40 0.1614
339.50 0.1618
339.60 0.1621
339.70 0.1624
339.80 0.1627
339.90 0.163
340.00 0.1634
340.10 0.1637
340.20 0.164
340.30 0.1644
340.40 0.1647
340.50 0.165
340.60 0.1654
340.70 0.1657
340.80 0.166
340.90 0.1664
341.00 0.1667
341.10 0.167
341.20 0.1674
341.30 0.1677
341.40 0.168
341.50 0.1684
341.60 0.1687
341.70 0.169
341.80 0.1694
341.90 0.1697
342.00 0.17
342.10 0.1704
342.20 0.1707
342.30 0.1711
342.40 0.1714
342.50 0.1717
342.60 0.1721
342.70 0.1724
342.80 0.1728
342.90 0.1731
343.00 0.1735
343.10 0.1738
343.20 0.1741
343.30 0.1745
343.40 0.1748
343.50 0.1752
343.60 0.1755
343.70 0.1758
343.80 0.1762
343.90 0.1765
344.00 0.1768
344.10 0.1772
344.20 0.1775
344.30 0.1779
344.40 0.1782
344.50 0.1786
344.60 0.1789
344.70 0.1793
344.80 0.1796
344.90 0.18
345.00 0.1803
345.10 0.1807
345.20 0.181
345.30 0.1814
345.40 0.1817
345.50 0.1821
345.60 0.1824
345.70 0.1828
345.80 0.1831
345.90 0.1834
346.00 0.1838
346.10 0.1842
346.20 0.1845
346.30 0.1849
346.40 0.1852
346.50 0.1856
346.60 0.1859
346.70 0.1863
346.80 0.1867
346.90 0.187
347.00 0.1874
347.10 0.1877
347.20 0.1881
347.30 0.1884
347.40 0.1888
347.50 0.1891
347.60 0.1895
347.70 0.1899
347.80 0.1902
347.90 0.1906
348.00 0.1909
348.10 0.1913
348.20 0.1916
348.30 0.192
348.40 0.1924
348.50 0.1927
348.60 0.1931
348.70 0.1935
348.80 0.1938
348.90 0.1942
349.00 0.1946
349.10 0.1949
349.20 0.1953
349.30 0.1956
349.40 0.196
349.50 0.1964
349.60 0.1967
349.70 0.1971
349.80 0.1974
349.90 0.1978
350.00 0.1982
350.10 0.1985
350.20 0.1989
350.30 0.1993
350.40 0.1997
350.50 0.2
350.60 0.2004
350.70 0.2008
350.80 0.2011
350.90 0.2015
351.00 0.2019
351.10 0.2022
351.20 0.2026
351.30 0.203
351.40 0.2034
351.50 0.2037
351.60 0.2041
351.70 0.2045
351.80 0.2048
351.90 0.2052
352.00 0.2056
352.10 0.2059
352.20 0.2063
352.30 0.2067
352.40 0.2071
352.50 0.2075
352.60 0.2078
352.70 0.2082
352.80 0.2086
352.90 0.209
353.00 0.2093
353.10 0.2097
353.20 0.2101
353.30 0.2105
353.40 0.2109
353.50 0.2112
353.60 0.2116
353.70 0.212
353.80 0.2124
353.90 0.2127
354.00 0.2131
354.10 0.2135
354.20 0.2139
354.30 0.2143
354.40 0.2147
354.50 0.215
354.60 0.2154
354.70 0.2158
354.80 0.2162
354.90 0.2166
355.00 0.217
355.10 0.2173
355.20 0.2177
355.30 0.2181
355.40 0.2185
355.50 0.2189
355.60 0.2193
355.70 0.2196
355.80 0.22
355.90 0.2204
356.00 0.2208
356.10 0.2212
356.20 0.2216
356.30 0.222
356.40 0.2224
356.50 0.2228
356.60 0.2232
356.70 0.2235
356.80 0.2239
356.90 0.2243
357.00 0.2247
357.10 0.2251
357.20 0.2255
357.30 0.2259
357.40 0.2263
357.50 0.2267
357.60 0.2271
357.70 0.2275
357.80 0.2278
357.90 0.2282
358.00 0.2286
358.10 0.229
358.20 0.2294
358.30 0.2298
358.40 0.2302
358.50 0.2306
358.60 0.231
358.70 0.2314
358.80 0.2318
358.90 0.2322
359.00 0.2326
359.10 0.233
359.20 0.2334
359.30 0.2338
359.40 0.2342
359.50 0.2346
359.60 0.235
359.70 0.2354
359.80 0.2358
359.90 0.2362
360.00 0.2366
360.10 0.237
360.20 0.2374
360.30 0.2378
360.40 0.2382
360.50 0.2386
360.60 0.239
360.70 0.2394
360.80 0.2399
360.90 0.2403
361.00 0.2407
361.10 0.2411
361.20 0.2415
361.30 0.2419
361.40 0.2423
361.50 0.2427
361.60 0.2431
361.70 0.2435
361.80 0.2439
361.90 0.2443
362.00 0.2447
362.10 0.2451
362.20 0.2455
362.30 0.2459
362.40 0.2463
362.50 0.2467
362.60 0.2472
362.70 0.2476
362.80 0.248
362.90 0.2484
363.00 0.2488
363.10 0.2492
363.20 0.2496
363.30 0.25
363.40 0.2505
363.50 0.2509
363.60 0.2513
363.70 0.2517
363.80 0.2521
363.90 0.2525
364.00 0.2529
364.10 0.2534
364.20 0.2538
364.30 0.2542
364.40 0.2546
364.50 0.255
364.60 0.2554
364.70 0.2559
364.80 0.2563
364.90 0.2567
365.00 0.2571
365.10 0.2575
365.20 0.258
365.30 0.2584
365.40 0.2588
365.50 0.2592
365.60 0.2596
365.70 0.2601
365.80 0.2605
365.90 0.2609
366.00 0.2613
366.10 0.2617
366.20 0.2622
366.30 0.2626
366.40 0.263
366.50 0.2634
366.60 0.2639
366.70 0.2643
366.80 0.2647
366.90 0.2652
367.00 0.2656
367.10 0.266
367.20 0.2664
367.30 0.2669
367.40 0.2673
367.50 0.2677
367.60 0.2681
367.70 0.2685
367.80 0.269
367.90 0.2694
368.00 0.2698
368.10 0.2702
368.20 0.2707
368.30 0.2711
368.40 0.2716
368.50 0.272
368.60 0.2724
368.70 0.2729
368.80 0.2733
368.90 0.2737
369.00 0.2742
369.10 0.2746
369.20 0.275
369.30 0.2755
369.40 0.2759
369.50 0.2763
369.60 0.2767
369.70 0.2772
369.80 0.2776
369.90 0.278
370.00 0.2785
370.10 0.2789
370.20 0.2793
370.30 0.2798
370.40 0.2802
370.50 0.2807
370.60 0.2811
370.70 0.2815
370.80 0.282
370.90 0.2824
371.00 0.2829
371.10 0.2833
371.20 0.2837
371.30 0.2842
371.40 0.2846
371.50 0.2851
371.60 0.2855
371.70 0.2859
371.80 0.2864
371.90 0.2868
372.00 0.2872
372.10 0.2877
372.20 0.2881
372.30 0.2886
372.40 0.289
372.50 0.2895
372.60 0.2899
372.70 0.2904
372.80 0.2908
372.90 0.2913
373.00 0.2917
373.10 0.2921
373.20 0.2926
373.30 0.293
373.40 0.2935
373.50 0.2939
373.60 0.2944
373.70 0.2948
373.80 0.2952
373.90 0.2957
374.00 0.2961
374.10 0.2966
374.20 0.297
374.30 0.2975
374.40 0.2979
374.50 0.2984
374.60 0.2988
374.70 0.2993
374.80 0.2998
374.90 0.3002
375.00 0.3007
375.10 0.3011
375.20 0.3016
375.30 0.302
375.40 0.3025
375.50 0.3029
375.60 0.3033
375.70 0.3038
375.80 0.3042
375.90 0.3047
376.00 0.3051
376.10 0.3056
376.20 0.3061
376.30 0.3065
376.40 0.307
376.50 0.3074
376.60 0.3079
376.70 0.3083
376.80 0.3088
376.90 0.3092
377.00 0.3097
377.10 0.3102
377.20 0.3106
377.30 0.3111
377.40 0.3115
377.50 0.312
377.60 0.3125
377.70 0.3129
377.80 0.3134
377.90 0.3138
378.00 0.3143
378.10 0.3147
378.20 0.3152
378.30 0.3157
378.40 0.3161
378.50 0.3166
378.60 0.3171
378.70 0.3175
378.80 0.318
378.90 0.3184
379.00 0.3189
379.10 0.3194
379.20 0.3198
379.30 0.3203
379.40 0.3208
379.50 0.3212
379.60 0.3217
379.70 0.3222
379.80 0.3226
379.90 0.3231
380.00 0.3235
380.10 0.324
380.20 0.3245
380.30 0.325
380.40 0.3254
380.50 0.3259
380.60 0.3264
380.70 0.3268
380.80 0.3273
380.90 0.3278
381.00 0.3282
381.10 0.3287
381.20 0.3292
381.30 0.3296
381.40 0.3301
381.50 0.3306
381.60 0.331
381.70 0.3315
381.80 0.332
381.90 0.3325
382.00 0.3329
382.10 0.3334
382.20 0.3339
382.30 0.3343
382.40 0.3348
382.50 0.3353
382.60 0.3358
382.70 0.3362
382.80 0.3367
382.90 0.3372
383.00 0.3377
383.10 0.3381
383.20 0.3386
383.30 0.3391
383.40 0.3396
383.50 0.34
383.60 0.3405
383.70 0.341
383.80 0.3415
383.90 0.3419
384.00 0.3424
384.10 0.3429
384.20 0.3434
384.30 0.3439
384.40 0.3443
384.50 0.3448
384.60 0.3453
384.70 0.3458
384.80 0.3463
384.90 0.3467
385.00 0.3472
385.10 0.3477
385.20 0.3482
385.30 0.3487
385.40 0.3491
385.50 0.3496
385.60 0.3501
385.70 0.3506
385.80 0.3511
385.90 0.3516
386.00 0.352
386.10 0.3525
386.20 0.353
386.30 0.3535
386.40 0.354
386.50 0.3545
386.60 0.3549
386.70 0.3554
386.80 0.3559
386.90 0.3564
387.00 0.3569
387.10 0.3574
387.20 0.3578
387.30 0.3583
387.40 0.3588
387.50 0.3593
387.60 0.3598
387.70 0.3603
387.80 0.3608
387.90 0.3613
388.00 0.3617
388.10 0.3622
388.20 0.3627
388.30 0.3632
388.40 0.3637
388.50 0.3642
388.60 0.3647
388.70 0.3652
388.80 0.3657
388.90 0.3662
389.00 0.3667
389.10 0.3671
389.20 0.3676
389.30 0.3681
389.40 0.3686
389.50 0.3691
389.60 0.3696
389.70 0.3701
389.80 0.3706
389.90 0.3711
390.00 0.3716
390.10 0.3721
390.20 0.3726
390.30 0.3731
390.40 0.3736
390.50 0.3741
390.60 0.3745
390.70 0.375
390.80 0.3755
390.90 0.376
391.00 0.3765
391.10 0.377
391.20 0.3775
391.30 0.378
391.40 0.3785
391.50 0.379
391.60 0.3795
391.70 0.38
391.80 0.3805
391.90 0.381
392.00 0.3815
392.10 0.382
392.20 0.3825
392.30 0.383
392.40 0.3835
392.50 0.384
392.60 0.3845
392.70 0.385
392.80 0.3855
392.90 0.386
393.00 0.3865
393.10 0.387
393.20 0.3875
393.30 0.388
393.40 0.3885
393.50 0.389
393.60 0.3895
393.70 0.39
393.80 0.3905
393.90 0.391
394.00 0.3916
394.10 0.3921
394.20 0.3926
394.30 0.3931
394.40 0.3936
394.50 0.3941
394.60 0.3946
394.70 0.3951
394.80 0.3956
394.90 0.3961
395.00 0.3966
395.10 0.3971
395.20 0.3976
395.30 0.3981
395.40 0.3986
395.50 0.3991
395.60 0.3997
395.70 0.4002
395.80 0.4007
395.90 0.4012
396.00 0.4017
396.10 0.4022
396.20 0.4027
396.30 0.4032
396.40 0.4037
396.50 0.4042
396.60 0.4047
396.70 0.4053
396.80 0.4058
396.90 0.4063
397.00 0.4068
397.10 0.4073
397.20 0.4078
397.30 0.4083
397.40 0.4088
397.50 0.4094
397.60 0.4099
397.70 0.4104
397.80 0.4109
397.90 0.4114
398.00 0.4119
398.10 0.4124
398.20 0.413
398.30 0.4135
398.40 0.414
398.50 0.4145
398.60 0.415
398.70 0.4155
398.80 0.416
398.90 0.4166
399.00 0.4171
399.10 0.4176
399.20 0.4181
399.30 0.4186
399.40 0.4191
399.50 0.4197
399.60 0.4202
399.70 0.4207
399.80 0.4212
399.90 0.4217
400.00 0.4223
400.10 0.4228
400.20 0.4233
400.30 0.4238
400.40 0.4243
400.50 0.4248
400.60 0.4254
400.70 0.4259
400.80 0.4264
400.90 0.4269
401.00 0.4275
401.10 0.428
401.20 0.4285
401.30 0.429
401.40 0.4295
401.50 0.4301
401.60 0.4306
401.70 0.4311
401.80 0.4316
401.90 0.4321
402.00 0.4327
402.10 0.4332
402.20 0.4337
402.30 0.4342
402.40 0.4348
402.50 0.4353
402.60 0.4358
402.70 0.4363
402.80 0.4369
402.90 0.4374
403.00 0.4379
403.10 0.4384
403.20 0.439
403.30 0.4395
403.40 0.44
403.50 0.4406
403.60 0.4411
403.70 0.4416
403.80 0.4421
403.90 0.4427
404.00 0.4432
404.10 0.4437
404.20 0.4442
404.30 0.4448
404.40 0.4453
404.50 0.4458
404.60 0.4464
404.70 0.4469
404.80 0.4474
404.90 0.4479
405.00 0.4485
405.10 0.449
405.20 0.4495
405.30 0.4501
405.40 0.4506
405.50 0.4511
405.60 0.4517
405.70 0.4522
405.80 0.4527
405.90 0.4533
406.00 0.4538
406.10 0.4543
406.20 0.4549
406.30 0.4554
406.40 0.4559
406.50 0.4564
406.60 0.457
406.70 0.4575
406.80 0.4581
406.90 0.4586
407.00 0.4591
407.10 0.4597
407.20 0.4602
407.30 0.4607
407.40 0.4613
407.50 0.4618
407.60 0.4623
407.70 0.4629
407.80 0.4634
407.90 0.4639
408.00 0.4645
408.10 0.465
408.20 0.4655
408.30 0.4661
408.40 0.4666
408.50 0.4672
408.60 0.4677
408.70 0.4682
408.80 0.4688
408.90 0.4693
409.00 0.4698
409.10 0.4704
409.20 0.4709
409.30 0.4715
409.40 0.472
409.50 0.4725
409.60 0.4731
409.70 0.4736
409.80 0.4742
409.90 0.4747
410.00 0.4752
410.10 0.4758
410.20 0.4763
410.30 0.4769
410.40 0.4774
410.50 0.4779
410.60 0.4785
410.70 0.479
410.80 0.4796
410.90 0.4801
411.00 0.4807
411.10 0.4812
411.20 0.4817
411.30 0.4823
411.40 0.4828
411.50 0.4834
411.60 0.4839
411.70 0.4845
411.80 0.485
411.90 0.4855
412.00 0.4861
412.10 0.4866
412.20 0.4872
412.30 0.4877
412.40 0.4883
412.50 0.4888
412.60 0.4894
412.70 0.4899
412.80 0.4904
412.90 0.491
413.00 0.4915
413.10 0.4921
413.20 0.4926
413.30 0.4932
413.40 0.4937
413.50 0.4943
413.60 0.4948
413.70 0.4954
413.80 0.4959
413.90 0.4965
414.00 0.497
414.10 0.4976
414.20 0.4981
414.30 0.4986
414.40 0.4992
414.50 0.4997
414.60 0.5003
414.70 0.5008
414.80 0.5014
414.90 0.5019
415.00 0.5025
415.10 0.503
415.20 0.5036
415.30 0.5041
415.40 0.5047
415.50 0.5052
415.60 0.5058
415.70 0.5063
415.80 0.5069
415.90 0.5074
416.00 0.508
416.10 0.5085
416.20 0.5091
416.30 0.5097
416.40 0.5102
416.50 0.5108
416.60 0.5113
416.70 0.5119
416.80 0.5124
416.90 0.513
417.00 0.5135
417.10 0.5141
417.20 0.5146
417.30 0.5152
417.40 0.5157
417.50 0.5163
417.60 0.5168
417.70 0.5174
417.80 0.518
417.90 0.5185
418.00 0.5191
418.10 0.5196
418.20 0.5202
418.30 0.5207
418.40 0.5213
418.50 0.5218
418.60 0.5224
418.70 0.523
418.80 0.5235
418.90 0.5241
419.00 0.5246
419.10 0.5252
419.20 0.5257
419.30 0.5263
419.40 0.5269
419.50 0.5274
419.60 0.528
419.70 0.5285
419.80 0.5291
419.90 0.5296
420.00 0.5302
420.10 0.5308
420.20 0.5313
420.30 0.5319
420.40 0.5324
420.50 0.533
420.60 0.5336
420.70 0.5341
420.80 0.5347
420.90 0.5352
421.00 0.5358
421.10 0.5363
421.20 0.5369
421.30 0.5375
421.40 0.538
421.50 0.5386
421.60 0.5392
421.70 0.5397
421.80 0.5403
421.90 0.5408
422.00 0.5414
422.10 0.542
422.20 0.5425
422.30 0.5431
422.40 0.5436
422.50 0.5442
422.60 0.5448
422.70 0.5453
422.80 0.5459
422.90 0.5465
423.00 0.547
423.10 0.5476
423.20 0.5481
423.30 0.5487
423.40 0.5493
423.50 0.5498
423.60 0.5504
423.70 0.551
423.80 0.5515
423.90 0.5521
424.00 0.5527
424.10 0.5532
424.20 0.5538
424.30 0.5544
424.40 0.5549
424.50 0.5555
424.60 0.556
424.70 0.5566
424.80 0.5572
424.90 0.5577
425.00 0.5583
425.10 0.5589
425.20 0.5594
425.30 0.56
425.40 0.5606
425.50 0.5611
425.60 0.5617
425.70 0.5623
425.80 0.5628
425.90 0.5634
426.00 0.564
426.10 0.5645
426.20 0.5651
426.30 0.5657
426.40 0.5662
426.50 0.5668
426.60 0.5674
426.70 0.568
426.80 0.5685
426.90 0.5691
427.00 0.5697
427.10 0.5702
427.20 0.5708
427.30 0.5714
427.40 0.5719
427.50 0.5725
427.60 0.5731
427.70 0.5736
427.80 0.5742
427.90 0.5748
428.00 0.5754
428.10 0.5759
428.20 0.5765
428.30 0.5771
428.40 0.5776
428.50 0.5782
428.60 0.5788
428.70 0.5794
428.80 0.5799
428.90 0.5805
429.00 0.5811
429.10 0.5816
429.20 0.5822
429.30 0.5828
429.40 0.5834
429.50 0.5839
429.60 0.5845
429.70 0.5851
429.80 0.5856
429.90 0.5862
430.00 0.5868
430.10 0.5874
430.20 0.5879
430.30 0.5885
430.40 0.5891
430.50 0.5897
430.60 0.5902
430.70 0.5908
430.80 0.5914
430.90 0.5919
431.00 0.5925
431.10 0.5931
431.20 0.5937
431.30 0.5942
431.40 0.5948
431.50 0.5954
431.60 0.596
431.70 0.5965
431.80 0.5971
431.90 0.5977
432.00 0.5983
432.10 0.5988
432.20 0.5994
432.30 0.6
432.40 0.6006
432.50 0.6011
432.60 0.6017
432.70 0.6023
432.80 0.6029
432.90 0.6035
433.00 0.604
433.10 0.6046
433.20 0.6052
433.30 0.6058
433.40 0.6063
433.50 0.6069
433.60 0.6075
433.70 0.6081
433.80 0.6086
433.90 0.6092
434.00 0.6098
434.10 0.6104
434.20 0.611
434.30 0.6115
434.40 0.6121
434.50 0.6127
434.60 0.6133
434.70 0.6138
434.80 0.6144
434.90 0.615
435.00 0.6156
435.10 0.6162
435.20 0.6167
435.30 0.6173
435.40 0.6179
435.50 0.6185
435.60 0.6191
435.70 0.6196
435.80 0.6202
435.90 0.6208
436.00 0.6214
436.10 0.622
436.20 0.6225
436.30 0.6231
436.40 0.6237
436.50 0.6243
436.60 0.6249
436.70 0.6254
436.80 0.626
436.90 0.6266
437.00 0.6272
437.10 0.6278
437.20 0.6283
437.30 0.6289
437.40 0.6295
437.50 0.6301
437.60 0.6307
437.70 0.6313
437.80 0.6318
437.90 0.6324
438.00 0.633
438.10 0.6336
438.20 0.6342
438.30 0.6347
438.40 0.6353
438.50 0.6359
438.60 0.6365
438.70 0.6371
438.80 0.6377
438.90 0.6383
439.00 0.6389
439.10 0.6394
439.20 0.64
439.30 0.6406
439.40 0.6411
439.50 0.6417
439.60 0.6423
439.70 0.6429
439.80 0.6435
439.90 0.6441
440.00 0.6447
440.10 0.6452
440.20 0.6458
440.30 0.6464
440.40 0.647
440.50 0.6476
440.60 0.6482
440.70 0.6488
440.80 0.6494
440.90 0.6499
441.00 0.6505
441.10 0.6511
441.20 0.6516
441.30 0.6522
441.40 0.6528
441.50 0.6534
441.60 0.654
441.70 0.6546
441.80 0.6552
441.90 0.6558
442.00 0.6564
442.10 0.657
442.20 0.6575
442.30 0.6581
442.40 0.6587
442.50 0.6593
442.60 0.6599
442.70 0.6604
442.80 0.661
442.90 0.6617
443.00 0.6622
443.10 0.6628
443.20 0.6634
443.30 0.664
443.40 0.6646
443.50 0.6652
443.60 0.6657
443.70 0.6663
443.80 0.6669
443.90 0.6675
444.00 0.6681
444.10 0.6687
444.20 0.6693
444.30 0.6699
444.40 0.6704
444.50 0.671
444.60 0.6716
444.70 0.6722
444.80 0.6728
444.90 0.6734
445.00 0.674
445.10 0.6746
445.20 0.6751
445.30 0.6758
445.40 0.6763
445.50 0.6769
445.60 0.6775
445.70 0.6781
445.80 0.6787
445.90 0.6793
446.00 0.6799
446.10 0.6804
446.20 0.681
446.30 0.6816
446.40 0.6822
446.50 0.6828
446.60 0.6834
446.70 0.684
446.80 0.6845
446.90 0.6851
447.00 0.6857
447.10 0.6863
447.20 0.6869
447.30 0.6875
447.40 0.6881
447.50 0.6887
447.60 0.6893
447.70 0.6899
447.80 0.6905
447.90 0.6911
448.00 0.6916
448.10 0.6922
448.20 0.6928
448.30 0.6934
448.40 0.694
448.50 0.6946
448.60 0.6952
448.70 0.6958
448.80 0.6964
448.90 0.697
449.00 0.6975
449.10 0.6981
449.20 0.6988
449.30 0.6993
449.40 0.6999
449.50 0.7005
449.60 0.7011
449.70 0.7017
449.80 0.7023
449.90 0.7029
450.00 0.7035
450.10 0.7041
450.20 0.7047
450.30 0.7052
450.40 0.7059
450.50 0.7064
450.60 0.707
450.70 0.7076
450.80 0.7082
450.90 0.7088
451.00 0.7094
451.10 0.71
451.20 0.7106
451.30 0.7112
451.40 0.7117
451.50 0.7123
451.60 0.7129
451.70 0.7135
451.80 0.7141
451.90 0.7148
452.00 0.7153
452.10 0.7159
452.20 0.7165
452.30 0.7171
452.40 0.7177
452.50 0.7183
452.60 0.7189
452.70 0.7195
452.80 0.7201
452.90 0.7207
453.00 0.7213
453.10 0.7218
453.20 0.7224
453.30 0.723
453.40 0.7236
453.50 0.7242
453.60 0.7248
453.70 0.7254
453.80 0.726
453.90 0.7266
454.00 0.7272
454.10 0.7278
454.20 0.7284
454.30 0.7289
454.40 0.7295
454.50 0.7301
454.60 0.7307
454.70 0.7313
454.80 0.7319
454.90 0.7325
455.00 0.7331
455.10 0.7337
455.20 0.7343
455.30 0.7349
455.40 0.7355
455.50 0.7361
455.60 0.7367
455.70 0.7373
455.80 0.7379
455.90 0.7385
456.00 0.7391
456.10 0.7397
456.20 0.7403
456.30 0.7409
456.40 0.7415
456.50 0.7421
456.60 0.7427
456.70 0.7433
456.80 0.7439
456.90 0.7444
457.00 0.745
457.10 0.7456
457.20 0.7462
457.30 0.7468
457.40 0.7474
457.50 0.748
457.60 0.7486
457.70 0.7492
457.80 0.7498
457.90 0.7504
458.00 0.751
458.10 0.7516
458.20 0.7521
458.30 0.7527
458.40 0.7533
458.50 0.7539
458.60 0.7545
458.70 0.7551
458.80 0.7557
458.90 0.7563
459.00 0.7569
459.10 0.7575
459.20 0.7581
459.30 0.7587
459.40 0.7593
459.50 0.7599
459.60 0.7605
459.70 0.7611
459.80 0.7617
459.90 0.7623
460.00 0.7629
460.10 0.7635
460.20 0.7641
460.30 0.7647
460.40 0.7652
460.50 0.7658
460.60 0.7664
460.70 0.767
460.80 0.7676
460.90 0.7682
461.00 0.7688
461.10 0.7694
461.20 0.77
461.30 0.7706
461.40 0.7712
461.50 0.7718
461.60 0.7724
461.70 0.773
461.80 0.7736
461.90 0.7742
462.00 0.7748
462.10 0.7754
462.20 0.776
462.30 0.7766
462.40 0.7772
462.50 0.7778
462.60 0.7784
462.70 0.779
462.80 0.7796
462.90 0.7802
463.00 0.7808
463.10 0.7814
463.20 0.782
463.30 0.7826
463.40 0.7832
463.50 0.7838
463.60 0.7844
463.70 0.785
463.80 0.7856
463.90 0.7862
464.00 0.7868
464.10 0.7873
464.20 0.7879
464.30 0.7885
464.40 0.7891
464.50 0.7897
464.60 0.7903
464.70 0.7909
464.80 0.7915
464.90 0.7921
465.00 0.7927
465.10 0.7933
465.20 0.7939
465.30 0.7945
465.40 0.7951
465.50 0.7957
465.60 0.7963
465.70 0.7969
465.80 0.7975
465.90 0.7981
466.00 0.7987
466.10 0.7993
466.20 0.7999
466.30 0.8005
466.40 0.8011
466.50 0.8017
466.60 0.8023
466.70 0.8029
466.80 0.8035
466.90 0.8041
467.00 0.8046
467.10 0.8052
467.20 0.8058
467.30 0.8064
467.40 0.807
467.50 0.8076
467.60 0.8082
467.70 0.8088
467.80 0.8094
467.90 0.81
468.00 0.8106
468.10 0.8112
468.20 0.8118
468.30 0.8124
468.40 0.813
468.50 0.8136
468.60 0.8142
468.70 0.8148
468.80 0.8154
468.90 0.816
469.00 0.8166
469.10 0.8172
469.20 0.8178
469.30 0.8184
469.40 0.819
469.50 0.8196
469.60 0.8202
469.70 0.8208
469.80 0.8214
469.90 0.822
470.00 0.8226
470.10 0.8231
470.20 0.8237
470.30 0.8243
470.40 0.8249
470.50 0.8255
470.60 0.8261
470.70 0.8267
470.80 0.8273
470.90 0.8279
471.00 0.8285
471.10 0.8291
471.20 0.8297
471.30 0.8303
471.40 0.8309
471.50 0.8315
471.60 0.8321
471.70 0.8327
471.80 0.8333
471.90 0.8339
472.00 0.8345
472.10 0.8351
472.20 0.8357
472.30 0.8363
472.40 0.8369
472.50 0.8375
472.60 0.8381
472.70 0.8387
472.80 0.8393
472.90 0.8399
473.00 0.8405
473.10 0.8411
473.20 0.8417
473.30 0.8423
473.40 0.8429
473.50 0.8435
473.60 0.8441
473.70 0.8447
473.80 0.8453
473.90 0.8458
474.00 0.8464
474.10 0.847
474.20 0.8476
474.30 0.8482
474.40 0.8488
474.50 0.8494
474.60 0.85
474.70 0.8506
474.80 0.8512
474.90 0.8518
475.00 0.8524
475.10 0.853
475.20 0.8536
475.30 0.8542
475.40 0.8548
475.50 0.8554
475.60 0.856
475.70 0.8566
475.80 0.8572
475.90 0.8578
476.00 0.8584
476.10 0.859
476.20 0.8596
476.30 0.8602
476.40 0.8607
476.50 0.8613
476.60 0.8619
476.70 0.8625
476.80 0.8631
476.90 0.8637
477.00 0.8643
477.10 0.8649
477.20 0.8655
477.30 0.8661
477.40 0.8667
477.50 0.8673
477.60 0.8679
477.70 0.8685
477.80 0.8691
477.90 0.8697
478.00 0.8703
478.10 0.8709
478.20 0.8715
478.30 0.8721
478.40 0.8727
478.50 0.8733
478.60 0.8739
478.70 0.8744
478.80 0.875
478.90 0.8756
479.00 0.8762
479.10 0.8768
479.20 0.8774
479.30 0.878
479.40 0.8786
479.50 0.8792
479.60 0.8798
479.70 0.8804
479.80 0.881
479.90 0.8816
480.00 0.8822
480.10 0.8828
480.20 0.8834
480.30 0.884
480.40 0.8846
480.50 0.8852
480.60 0.8858
480.70 0.8864
480.80 0.8869
480.90 0.8875
481.00 0.8881
481.10 0.8887
481.20 0.8893
481.30 0.8899
481.40 0.8905
481.50 0.8911
481.60 0.8917
481.70 0.8923
481.80 0.8929
481.90 0.8935
482.00 0.8941
482.10 0.8947
482.20 0.8953
482.30 0.8959
482.40 0.8965
482.50 0.897
482.60 0.8976
482.70 0.8982
482.80 0.8988
482.90 0.8994
483.00 0.9
483.10 0.9006
483.20 0.9012
483.30 0.9018
483.40 0.9024
483.50 0.903
483.60 0.9036
483.70 0.9042
483.80 0.9048
483.90 0.9054
484.00 0.906
484.10 0.9065
484.20 0.9071
484.30 0.9077
484.40 0.9083
484.50 0.9089
484.60 0.9095
484.70 0.9101
484.80 0.9107
484.90 0.9113
485.00 0.9119
485.10 0.9125
485.20 0.9131
485.30 0.9137
485.40 0.9143
485.50 0.9149
485.60 0.9154
485.70 0.916
485.80 0.9166
485.90 0.9172
486.00 0.9178
486.10 0.9184
486.20 0.919
486.30 0.9196
486.40 0.9202
486.50 0.9208
486.60 0.9214
486.70 0.9219
486.80 0.9225
486.90 0.9231
487.00 0.9237
487.10 0.9243
487.20 0.9249
487.30 0.9255
487.40 0.9261
487.50 0.9267
487.60 0.9272
487.70 0.9278
487.80 0.9284
487.90 0.929
488.00 0.9296
488.10 0.9302
488.20 0.9308
488.30 0.9314
488.40 0.932
488.50 0.9326
488.60 0.9332
488.70 0.9338
488.80 0.9344
488.90 0.935
489.00 0.9355
489.10 0.9361
489.20 0.9367
489.30 0.9373
489.40 0.9379
489.50 0.9385
489.60 0.9391
489.70 0.9397
489.80 0.9402
489.90 0.9408
490.00 0.9414
490.10 0.942
490.20 0.9426
490.30 0.9432
490.40 0.9438
490.50 0.9444
490.60 0.945
490.70 0.9456
490.80 0.9462
490.90 0.9467
491.00 0.9473
491.10 0.9479
491.20 0.9485
491.30 0.9491
491.40 0.9497
491.50 0.9503
491.60 0.9509
491.70 0.9515
491.80 0.9521
491.90 0.9526
492.00 0.9532
492.10 0.9538
492.20 0.9544
492.30 0.955
492.40 0.9556
492.50 0.9562
492.60 0.9568
492.70 0.9573
492.80 0.9579
492.90 0.9585
493.00 0.9591
493.10 0.9597
493.20 0.9603
493.30 0.9608
493.40 0.9614
493.50 0.962
493.60 0.9626
493.70 0.9632
493.80 0.9638
493.90 0.9644
494.00 0.9649
494.10 0.9655
494.20 0.9661
494.30 0.9667
494.40 0.9673
494.50 0.9679
494.60 0.9685
494.70 0.969
494.80 0.9696
494.90 0.9702
495.00 0.9708
495.10 0.9714
495.20 0.972
495.30 0.9726
495.40 0.9731
495.50 0.9737
495.60 0.9743
495.70 0.9749
495.80 0.9755
495.90 0.9761
496.00 0.9767
496.10 0.9772
496.20 0.9778
496.30 0.9784
496.40 0.979
496.50 0.9796
496.60 0.9802
496.70 0.9807
496.80 0.9813
496.90 0.9819
497.00 0.9825
497.10 0.9831
497.20 0.9837
497.30 0.9842
497.40 0.9848
497.50 0.9854
497.60 0.986
497.70 0.9866
497.80 0.9872
497.90 0.9878
498.00 0.9883
498.10 0.9889
498.20 0.9895
498.30 0.9901
498.40 0.9907
498.50 0.9913
498.60 0.9918
498.70 0.9924
498.80 0.993
498.90 0.9936
499.00 0.9942
499.10 0.9948
499.20 0.9953
499.30 0.9959
499.40 0.9965
499.50 0.9971
499.60 0.9977
499.70 0.9983
499.80 0.9988
499.90 0.9994
500.00 1
500.10 1.001
500.20 1.001
500.30 1.002
500.40 1.002
500.50 1.003
500.60 1.003
500.70 1.004
500.80 1.005
500.90 1.005
501.00 1.006
501.10 1.006
501.20 1.007
501.30 1.008
501.40 1.008
501.50 1.009
501.60 1.009
501.70 1.01
501.80 1.01
501.90 1.011
502.00 1.012
502.10 1.012
502.20 1.013
502.30 1.013
502.40 1.014
502.50 1.014
502.60 1.015
502.70 1.016
502.80 1.016
502.90 1.017
503.00 1.017
503.10 1.018
503.20 1.019
503.30 1.019
503.40 1.02
503.50 1.02
503.60 1.021
503.70 1.021
503.80 1.022
503.90 1.023
504.00 1.023
504.10 1.024
504.20 1.024
504.30 1.025
504.40 1.025
504.50 1.026
504.60 1.027
504.70 1.027
504.80 1.028
504.90 1.028
505.00 1.029
505.10 1.029
505.20 1.03
505.30 1.031
505.40 1.031
505.50 1.032
505.60 1.032
505.70 1.033
505.80 1.033
505.90 1.034
506.00 1.035
506.10 1.035
506.20 1.036
506.30 1.036
506.40 1.037
506.50 1.037
506.60 1.038
506.70 1.039
506.80 1.039
506.90 1.04
507.00 1.04
507.10 1.041
507.20 1.041
507.30 1.042
507.40 1.043
507.50 1.043
507.60 1.044
507.70 1.044
507.80 1.045
507.90 1.045
508.00 1.046
508.10 1.047
508.20 1.047
508.30 1.048
508.40 1.048
508.50 1.049
508.60 1.049
508.70 1.05
508.80 1.051
508.90 1.051
509.00 1.052
509.10 1.052
509.20 1.053
509.30 1.053
509.40 1.054
509.50 1.055
509.60 1.055
509.70 1.056
509.80 1.056
509.90 1.057
510.00 1.057
510.10 1.058
510.20 1.059
510.30 1.059
510.40 1.06
510.50 1.06
510.60 1.061
510.70 1.061
510.80 1.062
510.90 1.063
511.00 1.063
511.10 1.064
511.20 1.064
511.30 1.065
511.40 1.065
511.50 1.066
511.60 1.066
511.70 1.067
511.80 1.068
511.90 1.068
512.00 1.069
512.10 1.069
512.20 1.07
512.30 1.07
512.40 1.071
512.50 1.072
512.60 1.072
512.70 1.073
512.80 1.073
512.90 1.074
513.00 1.074
513.10 1.075
513.20 1.076
513.30 1.076
513.40 1.077
513.50 1.077
513.60 1.078
513.70 1.078
513.80 1.079
513.90 1.079
514.00 1.08
514.10 1.081
514.20 1.081
514.30 1.082
514.40 1.082
514.50 1.083
514.60 1.083
514.70 1.084
514.80 1.085
514.90 1.085
515.00 1.086
515.10 1.086
515.20 1.087
515.30 1.087
515.40 1.088
515.50 1.088
515.60 1.089
515.70 1.09
515.80 1.09
515.90 1.091
516.00 1.091
516.10 1.092
516.20 1.092
516.30 1.093
516.40 1.093
516.50 1.094
516.60 1.095
516.70 1.095
516.80 1.096
516.90 1.096
517.00 1.097
517.10 1.097
517.20 1.098
517.30 1.099
517.40 1.099
517.50 1.1
517.60 1.1
517.70 1.101
517.80 1.101
517.90 1.102
518.00 1.102
518.10 1.103
518.20 1.104
518.30 1.104
518.40 1.105
518.50 1.105
518.60 1.106
518.70 1.106
518.80 1.107
518.90 1.107
519.00 1.108
519.10 1.109
519.20 1.109
519.30 1.11
519.40 1.11
519.50 1.111
519.60 1.111
519.70 1.112
519.80 1.112
519.90 1.113
520.00 1.113
520.10 1.114
520.20 1.115
520.30 1.115
520.40 1.116
520.50 1.116
520.60 1.117
520.70 1.117
520.80 1.118
520.90 1.118
521.00 1.119
521.10 1.12
521.20 1.12
521.30 1.121
521.40 1.121
521.50 1.122
521.60 1.122
521.70 1.123
521.80 1.123
521.90 1.124
522.00 1.125
522.10 1.125
522.20 1.126
522.30 1.126
522.40 1.127
522.50 1.127
522.60 1.128
522.70 1.128
522.80 1.129
522.90 1.129
523.00 1.13
523.10 1.131
523.20 1.131
523.30 1.132
523.40 1.132
523.50 1.133
523.60 1.133
523.70 1.134
523.80 1.134
523.90 1.135
524.00 1.135
524.10 1.136
524.20 1.137
524.30 1.137
524.40 1.138
524.50 1.138
524.60 1.139
524.70 1.139
524.80 1.14
524.90 1.14
525.00 1.141
525.10 1.141
525.20 1.142
525.30 1.142
525.40 1.143
525.50 1.144
525.60 1.144
525.70 1.145
525.80 1.145
525.90 1.146
526.00 1.146
526.10 1.147
526.20 1.147
526.30 1.148
526.40 1.148
526.50 1.149
526.60 1.15
526.70 1.15
526.80 1.151
526.90 1.151
527.00 1.152
527.10 1.152
527.20 1.153
527.30 1.153
527.40 1.154
527.50 1.154
527.60 1.155
527.70 1.155
527.80 1.156
527.90 1.157
528.00 1.157
528.10 1.158
528.20 1.158
528.30 1.159
528.40 1.159
528.50 1.16
528.60 1.16
528.70 1.161
528.80 1.161
528.90 1.162
529.00 1.162
529.10 1.163
529.20 1.163
529.30 1.164
529.40 1.165
529.50 1.165
529.60 1.166
529.70 1.166
529.80 1.167
529.90 1.167
530.00 1.168
530.10 1.168
530.20 1.169
530.30 1.169
530.40 1.17
530.50 1.17
530.60 1.171
530.70 1.171
530.80 1.172
530.90 1.173
531.00 1.173
531.10 1.174
531.20 1.174
531.30 1.175
531.40 1.175
531.50 1.176
531.60 1.176
531.70 1.177
531.80 1.177
531.90 1.178
532.00 1.178
532.10 1.179
532.20 1.179
532.30 1.18
532.40 1.18
532.50 1.181
532.60 1.182
532.70 1.182
532.80 1.183
532.90 1.183
533.00 1.184
533.10 1.184
533.20 1.185
533.30 1.185
533.40 1.186
533.50 1.186
533.60 1.187
533.70 1.187
533.80 1.188
533.90 1.188
534.00 1.189
534.10 1.189
534.20 1.19
534.30 1.19
534.40 1.191
534.50 1.191
534.60 1.192
534.70 1.192
534.80 1.193
534.90 1.194
535.00 1.194
535.10 1.195
535.20 1.195
535.30 1.196
535.40 1.196
535.50 1.197
535.60 1.197
535.70 1.198
535.80 1.198
535.90 1.199
536.00 1.199
536.10 1.2
536.20 1.2
536.30 1.201
536.40 1.201
536.50 1.202
536.60 1.202
536.70 1.203
536.80 1.203
536.90 1.204
537.00 1.204
537.10 1.205
537.20 1.205
537.30 1.206
537.40 1.206
537.50 1.207
537.60 1.207
537.70 1.208
537.80 1.208
537.90 1.209
538.00 1.209
538.10 1.21
538.20 1.21
538.30 1.211
538.40 1.212
538.50 1.212
538.60 1.213
538.70 1.213
538.80 1.214
538.90 1.214
539.00 1.215
539.10 1.215
539.20 1.216
539.30 1.216
539.40 1.217
539.50 1.217
539.60 1.218
539.70 1.218
539.80 1.219
539.90 1.219
540.00 1.22
540.10 1.22
540.20 1.221
540.30 1.221
540.40 1.222
540.50 1.222
540.60 1.223
540.70 1.223
540.80 1.224
540.90 1.224
541.00 1.225
541.10 1.225
541.20 1.226
541.30 1.226
541.40 1.227
541.50 1.227
541.60 1.228
541.70 1.228
541.80 1.229
541.90 1.229
542.00 1.23
542.10 1.23
542.20 1.231
542.30 1.231
542.40 1.232
542.50 1.232
542.60 1.233
542.70 1.233
542.80 1.234
542.90 1.234
543.00 1.235
543.10 1.235
543.20 1.236
543.30 1.236
543.40 1.237
543.50 1.237
543.60 1.238
543.70 1.238
543.80 1.239
543.90 1.239
544.00 1.24
544.10 1.24
544.20 1.241
544.30 1.241
544.40 1.242
544.50 1.242
544.60 1.243
544.70 1.243
544.80 1.244
544.90 1.244
545.00 1.245
545.10 1.245
545.20 1.245
545.30 1.246
545.40 1.246
545.50 1.247
545.60 1.247
545.70 1.248
545.80 1.248
545.90 1.249
546.00 1.249
546.10 1.25
546.20 1.25
546.30 1.251
546.40 1.251
546.50 1.252
546.60 1.252
546.70 1.253
546.80 1.253
546.90 1.254
547.00 1.254
547.10 1.255
547.20 1.255
547.30 1.256
547.40 1.256
547.50 1.257
547.60 1.257
547.70 1.258
547.80 1.258
547.90 1.259
548.00 1.259
548.10 1.259
548.20 1.26
548.30 1.26
548.40 1.261
548.50 1.261
548.60 1.262
548.70 1.262
548.80 1.263
548.90 1.263
549.00 1.264
549.10 1.264
549.20 1.265
549.30 1.265
549.40 1.266
549.50 1.266
549.60 1.267
549.70 1.267
549.80 1.268
549.90 1.268
550.00 1.269
550.10 1.269
550.20 1.269
550.30 1.27
550.40 1.27
550.50 1.271
550.60 1.271
550.70 1.272
550.80 1.272
550.90 1.273
551.00 1.273
551.10 1.274
551.20 1.274
551.30 1.275
551.40 1.275
551.50 1.276
551.60 1.276
551.70 1.276
551.80 1.277
551.90 1.277
552.00 1.278
552.10 1.278
552.20 1.279
552.30 1.279
552.40 1.28
552.50 1.28
552.60 1.281
552.70 1.281
552.80 1.282
552.90 1.282
553.00 1.282
553.10 1.283
553.20 1.283
553.30 1.284
553.40 1.284
553.50 1.285
553.60 1.285
553.70 1.286
553.80 1.286
553.90 1.287
554.00 1.287
554.10 1.287
554.20 1.288
554.30 1.288
554.40 1.289
554.50 1.289
554.60 1.29
554.70 1.29
554.80 1.291
554.90 1.291
555.00 1.292
555.10 1.292
555.20 1.292
555.30 1.293
555.40 1.293
555.50 1.294
555.60 1.294
555.70 1.295
555.80 1.295
555.90 1.296
556.00 1.296
556.10 1.296
556.20 1.297
556.30 1.297
556.40 1.298
556.50 1.298
556.60 1.299
556.70 1.299
556.80 1.3
556.90 1.3
557.00 1.3
557.10 1.301
557.20 1.301
557.30 1.302
557.40 1.302
557.50 1.303
557.60 1.303
557.70 1.303
557.80 1.304
557.90 1.304
558.00 1.305
558.10 1.305
558.20 1.306
558.30 1.306
558.40 1.307
558.50 1.307
558.60 1.307
558.70 1.308
558.80 1.308
558.90 1.309
559.00 1.309
559.10 1.31
559.20 1.31
559.30 1.31
559.40 1.311
559.50 1.311
559.60 1.312
559.70 1.312
559.80 1.313
559.90 1.313
560.00 1.313
560.10 1.314
560.20 1.314
560.30 1.315
560.40 1.315
560.50 1.316
560.60 1.316
560.70 1.316
560.80 1.317
560.90 1.317
561.00 1.318
561.10 1.318
561.20 1.319
561.30 1.319
561.40 1.319
561.50 1.32
561.60 1.32
561.70 1.321
561.80 1.321
561.90 1.321
562.00 1.322
562.10 1.322
562.20 1.323
562.30 1.323
562.40 1.324
562.50 1.324
562.60 1.324
562.70 1.325
562.80 1.325
562.90 1.326
563.00 1.326
563.10 1.326
563.20 1.327
563.30 1.327
563.40 1.328
563.50 1.328
563.60 1.329
563.70 1.329
563.80 1.329
563.90 1.33
564.00 1.33
564.10 1.331
564.20 1.331
564.30 1.331
564.40 1.332
564.50 1.332
564.60 1.333
564.70 1.333
564.80 1.333
564.90 1.334
565.00 1.334
565.10 1.335
565.20 1.335
565.30 1.335
565.40 1.336
565.50 1.336
565.60 1.337
565.70 1.337
565.80 1.337
565.90 1.338
566.00 1.338
566.10 1.339
566.20 1.339
566.30 1.339
566.40 1.34
566.50 1.34
566.60 1.341
566.70 1.341
566.80 1.341
566.90 1.342
567.00 1.342
567.10 1.343
567.20 1.343
567.30 1.343
567.40 1.344
567.50 1.344
567.60 1.344
567.70 1.345
567.80 1.345
567.90 1.346
568.00 1.346
568.10 1.346
568.20 1.347
568.30 1.347
568.40 1.347
568.50 1.348
568.60 1.348
568.70 1.349
568.80 1.349
568.90 1.349
569.00 1.35
569.10 1.35
569.20 1.35
569.30 1.351
569.40 1.351
569.50 1.352
569.60 1.352
569.70 1.352
569.80 1.353
569.90 1.353
570.00 1.353
570.10 1.354
570.20 1.354
570.30 1.355
570.40 1.355
570.50 1.355
570.60 1.356
570.70 1.356
570.80 1.356
570.90 1.357
571.00 1.357
571.10 1.357
571.20 1.358
571.30 1.358
571.40 1.359
571.50 1.359
571.60 1.359
571.70 1.36
571.80 1.36
571.90 1.36
572.00 1.361
572.10 1.361
572.20 1.361
572.30 1.362
572.40 1.362
572.50 1.363
572.60 1.363
572.70 1.363
572.80 1.364
572.90 1.364
573.00 1.364
573.10 1.365
573.20 1.365
573.30 1.365
573.40 1.366
573.50 1.366
573.60 1.366
573.70 1.367
573.80 1.367
573.90 1.367
574.00 1.368
574.10 1.368
574.20 1.368
574.30 1.369
574.40 1.369
574.50 1.369
574.60 1.37
574.70 1.37
574.80 1.37
574.90 1.371
575.00 1.371
575.10 1.372
575.20 1.372
575.30 1.372
575.40 1.373
575.50 1.373
575.60 1.373
575.70 1.374
575.80 1.374
575.90 1.374
576.00 1.375
576.10 1.375
576.20 1.375
576.30 1.376
576.40 1.376
576.50 1.376
576.60 1.377
576.70 1.377
576.80 1.377
576.90 1.377
577.00 1.378
577.10 1.378
577.20 1.378
577.30 1.379
577.40 1.379
577.50 1.379
577.60 1.38
577.70 1.38
577.80 1.38
577.90 1.381
578.00 1.381
578.10 1.381
578.20 1.382
578.30 1.382
578.40 1.382
578.50 1.383
578.60 1.383
578.70 1.383
578.80 1.384
578.90 1.384
579.00 1.384
579.10 1.384
579.20 1.385
579.30 1.385
579.40 1.385
579.50 1.386
579.60 1.386
579.70 1.386
579.80 1.387
579.90 1.387
580.00 1.387
580.10 1.388
580.20 1.388
580.30 1.388
580.40 1.388
580.50 1.389
580.60 1.389
580.70 1.389
580.80 1.39
580.90 1.39
581.00 1.39
581.10 1.391
581.20 1.391
581.30 1.391
581.40 1.391
581.50 1.392
581.60 1.392
581.70 1.392
581.80 1.393
581.90 1.393
582.00 1.393
582.10 1.393
582.20 1.394
582.30 1.394
582.40 1.394
582.50 1.395
582.60 1.395
582.70 1.395
582.80 1.395
582.90 1.396
583.00 1.396
583.10 1.396
583.20 1.397
583.30 1.397
583.40 1.397
583.50 1.397
583.60 1.398
583.70 1.398
583.80 1.398
583.90 1.398
584.00 1.399
584.10 1.399
584.20 1.399
584.30 1.399
584.40 1.4
584.50 1.4
584.60 1.4
584.70 1.401
584.80 1.401
584.90 1.401
585.00 1.401
585.10 1.402
585.20 1.402
585.30 1.402
585.40 1.402
585.50 1.403
585.60 1.403
585.70 1.403
585.80 1.403
585.90 1.404
586.00 1.404
586.10 1.404
586.20 1.404
586.30 1.405
586.40 1.405
586.50 1.405
586.60 1.405
586.70 1.406
586.80 1.406
586.90 1.406
587.00 1.406
587.10 1.406
587.20 1.407
587.30 1.407
587.40 1.407
587.50 1.407
587.60 1.408
587.70 1.408
587.80 1.408
587.90 1.408
588.00 1.409
588.10 1.409
588.20 1.409
588.30 1.409
588.40 1.409
588.50 1.41
588.60 1.41
588.70 1.41
588.80 1.41
588.90 1.411
589.00 1.411
589.10 1.411
589.20 1.411
589.30 1.411
589.40 1.412
589.50 1.412
589.60 1.412
589.70 1.412
589.80 1.413
589.90 1.413
590.00 1.413
590.10 1.413
590.20 1.413
590.30 1.414
590.40 1.414
590.50 1.414
590.60 1.414
590.70 1.414
590.80 1.415
590.90 1.415
591.00 1.415
591.10 1.415
591.20 1.415
591.30 1.416
591.40 1.416
591.50 1.416
591.60 1.416
591.70 1.416
591.80 1.417
591.90 1.417
592.00 1.417
592.10 1.417
592.20 1.417
592.30 1.417
592.40 1.418
592.50 1.418
592.60 1.418
592.70 1.418
592.80 1.418
592.90 1.419
593.00 1.419
593.10 1.419
593.20 1.419
593.30 1.419
593.40 1.419
593.50 1.42
593.60 1.42
593.70 1.42
593.80 1.42
593.90 1.42
594.00 1.421
594.10 1.421
594.20 1.421
594.30 1.421
594.40 1.421
594.50 1.421
594.60 1.422
594.70 1.422
594.80 1.422
594.90 1.422
595.00 1.422
595.10 1.422
595.20 1.422
595.30 1.423
595.40 1.423
595.50 1.423
595.60 1.423
595.70 1.423
595.80 1.423
595.90 1.424
596.00 1.424
596.10 1.424
596.20 1.424
596.30 1.424
596.40 1.424
596.50 1.424
596.60 1.425
596.70 1.425
596.80 1.425
596.90 1.425
597.00 1.425
597.10 1.425
597.20 1.425
597.30 1.426
597.40 1.426
597.50 1.426
597.60 1.426
597.70 1.426
597.80 1.426
597.90 1.426
598.00 1.427
598.10 1.427
598.20 1.427
598.30 1.427
598.40 1.427
598.50 1.427
598.60 1.427
598.70 1.427
598.80 1.427
598.90 1.428
599.00 1.428
599.10 1.428
599.20 1.428
599.30 1.428
599.40 1.428
599.50 1.428
599.60 1.428
599.70 1.429
599.80 1.429
599.90 1.429
600.00 1.429
600.10 1.429
600.20 1.429
600.30 1.429
600.40 1.429
600.50 1.429
600.60 1.429
600.70 1.43
600.80 1.43
600.90 1.43
601.00 1.43
601.10 1.43
601.20 1.43
601.30 1.43
601.40 1.43
601.50 1.43
601.60 1.43
601.70 1.43
601.80 1.431
601.90 1.431
602.00 1.431
602.10 1.431
602.20 1.431
602.30 1.431
602.40 1.431
602.50 1.431
602.60 1.431
602.70 1.431
602.80 1.431
602.90 1.431
603.00 1.431
603.10 1.431
603.20 1.432
603.30 1.432
603.40 1.432
603.50 1.432
603.60 1.432
603.70 1.432
603.80 1.432
603.90 1.432
604.00 1.432
604.10 1.432
604.20 1.432
604.30 1.432
604.40 1.432
604.50 1.432
604.60 1.432
604.70 1.432
604.80 1.432
604.90 1.432
605.00 1.432
605.10 1.433
605.20 1.433
605.30 1.433
605.40 1.433
605.50 1.433
605.60 1.433
605.70 1.433
605.80 1.433
605.90 1.433
606.00 1.433
606.10 1.433
606.20 1.433
606.30 1.433
606.40 1.433
606.50 1.433
606.60 1.433
606.70 1.433
606.80 1.433
606.90 1.433
607.00 1.433
607.10 1.433
607.20 1.433
607.30 1.433
607.40 1.433
607.50 1.433
607.60 1.433
607.70 1.433
607.80 1.433
607.90 1.433
608.00 1.433
608.10 1.433
608.20 1.433
608.30 1.433
608.40 1.433
608.50 1.433
608.60 1.433
608.70 1.433
608.80 1.433
608.90 1.433
609.00 1.433
609.10 1.433
609.20 1.433
609.30 1.433
609.40 1.433
609.50 1.433
609.60 1.433
609.70 1.433
609.80 1.433
609.90 1.433
610.00 1.433
610.10 1.433
610.20 1.433
610.30 1.433
610.40 1.433
610.50 1.433
610.60 1.433
610.70 1.433
610.80 1.433
610.90 1.433
611.00 1.433
611.10 1.432
611.20 1.432
611.30 1.432
611.40 1.432
611.50 1.432
611.60 1.432
611.70 1.432
611.80 1.432
611.90 1.432
612.00 1.432
612.10 1.432
612.20 1.432
612.30 1.432
612.40 1.432
612.50 1.432
612.60 1.432
612.70 1.432
612.80 1.432
612.90 1.431
613.00 1.431
613.10 1.431
613.20 1.431
613.30 1.431
613.40 1.431
613.50 1.431
613.60 1.431
613.70 1.431
613.80 1.431
613.90 1.431
614.00 1.431
614.10 1.43
614.20 1.43
614.30 1.43
614.40 1.43
614.50 1.43
614.60 1.43
614.70 1.43
614.80 1.43
614.90 1.43
615.00 1.43
615.10 1.429
615.20 1.429
615.30 1.429
615.40 1.429
615.50 1.429
615.60 1.429
615.70 1.429
615.80 1.429
615.90 1.428
616.00 1.428
616.10 1.428
616.20 1.428
616.30 1.428
616.40 1.428
616.50 1.428
616.60 1.428
616.70 1.427
616.80 1.427
616.90 1.427
617.00 1.427
617.10 1.427
617.20 1.427
617.30 1.427
617.40 1.426
617.50 1.426
617.60 1.426
617.70 1.426
617.80 1.426
617.90 1.426
618.00 1.425
618.10 1.425
618.20 1.425
618.30 1.425
618.40 1.425
618.50 1.425
618.60 1.424
618.70 1.424
618.80 1.424
618.90 1.424
619.00 1.424
619.10 1.424
619.20 1.423
619.30 1.423
619.40 1.423
619.50 1.423
619.60 1.423
619.70 1.422
619.80 1.422
619.90 1.422
620.00 1.422
620.10 1.422
620.20 1.422
620.30 1.421
620.40 1.421
620.50 1.421
620.60 1.421
620.70 1.421
620.80 1.42
620.90 1.42
621.00 1.42
621.10 1.42
621.20 1.419
621.30 1.419
621.40 1.419
621.50 1.419
621.60 1.419
621.70 1.418
621.80 1.418
621.90 1.418
622.00 1.418
622.10 1.417
622.20 1.417
622.30 1.417
622.40 1.417
622.50 1.417
622.60 1.416
622.70 1.416
622.80 1.416
622.90 1.416
623.00 1.415
623.10 1.415
623.20 1.415
623.30 1.415
623.40 1.414
623.50 1.414
623.60 1.414
623.70 1.414
623.80 1.413
623.90 1.413
624.00 1.413
624.10 1.413
624.20 1.412
624.30 1.412
624.40 1.412
624.50 1.412
624.60 1.411
624.70 1.411
624.80 1.411
624.90 1.41
625.00 1.41
625.10 1.41
625.20 1.41
625.30 1.409
625.40 1.409
625.50 1.409
625.60 1.409
625.70 1.408
625.80 1.408
625.90 1.408
626.00 1.407
626.10 1.407
626.20 1.407
626.30 1.406
626.40 1.406
626.50 1.406
626.60 1.406
626.70 1.405
626.80 1.405
626.90 1.405
627.00 1.404
627.10 1.404
627.20 1.404
627.30 1.403
627.40 1.403
627.50 1.403
627.60 1.402
627.70 1.402
627.80 1.402
627.90 1.401
628.00 1.401
628.10 1.401
628.20 1.4
628.30 1.4
628.40 1.4
628.50 1.399
628.60 1.399
628.70 1.399
628.80 1.398
628.90 1.398
629.00 1.398
629.10 1.397
629.20 1.397
629.30 1.396
629.40 1.396
629.50 1.396
629.60 1.395
629.70 1.395
629.80 1.395
629.90 1.394
630.00 1.394
630.10 1.394
630.20 1.393
630.30 1.393
630.40 1.392
630.50 1.392
630.60 1.392
630.70 1.391
630.80 1.391
630.90 1.39
631.00 1.39
631.10 1.39
631.20 1.389
631.30 1.389
631.40 1.389
631.50 1.388
631.60 1.388
631.70 1.387
631.80 1.387
631.90 1.386
632.00 1.386
632.10 1.386
632.20 1.385
632.30 1.385
632.40 1.384
632.50 1.384
632.60 1.384
632.70 1.383
632.80 1.383
632.90 1.382
633.00 1.382
633.10 1.381
633.20 1.381
633.30 1.381
633.40 1.38
633.50 1.38
633.60 1.379
633.70 1.379
633.80 1.378
633.90 1.378
634.00 1.377
634.10 1.377
634.20 1.376
634.30 1.376
634.40 1.376
634.50 1.375
634.60 1.375
634.70 1.374
634.80 1.374
634.90 1.373
635.00 1.373
635.10 1.372
635.20 1.372
635.30 1.371
635.40 1.371
635.50 1.37
635.60 1.37
635.70 1.369
635.80 1.369
635.90 1.368
636.00 1.368
636.10 1.367
636.20 1.367
636.30 1.366
636.40 1.366
636.50 1.365
636.60 1.365
636.70 1.364
636.80 1.364
636.90 1.363
637.00 1.363
637.10 1.362
637.20 1.362
637.30 1.361
637.40 1.361
637.50 1.36
637.60 1.36
637.70 1.359
637.80 1.359
637.90 1.358
638.00 1.358
638.10 1.357
638.20 1.357
638.30 1.356
638.40 1.355
638.50 1.355
638.60 1.354
638.70 1.354
638.80 1.353
638.90 1.353
639.00 1.352
639.10 1.352
639.20 1.351
639.30 1.351
639.40 1.35
639.50 1.349
639.60 1.349
639.70 1.348
639.80 1.348
639.90 1.347
640.00 1.347
640.10 1.346
640.20 1.345
640.30 1.345
640.40 1.344
640.50 1.344
640.60 1.343
640.70 1.343
640.80 1.342
640.90 1.341
641.00 1.341
641.10 1.34
641.20 1.34
641.30 1.339
641.40 1.338
641.50 1.338
641.60 1.337
641.70 1.336
641.80 1.336
641.90 1.335
642.00 1.335
642.10 1.334
642.20 1.333
642.30 1.333
642.40 1.332
642.50 1.331
642.60 1.331
642.70 1.33
642.80 1.329
642.90 1.329
643.00 1.328
643.10 1.327
643.20 1.327
643.30 1.326
643.40 1.325
643.50 1.325
643.60 1.324
643.70 1.323
643.80 1.323
643.90 1.322
644.00 1.321
644.10 1.321
644.20 1.32
644.30 1.319
644.40 1.319
644.50 1.318
644.60 1.317
644.70 1.317
644.80 1.316
644.90 1.315
645.00 1.315
645.10 1.314
645.20 1.313
645.30 1.313
645.40 1.312
645.50 1.311
645.60 1.31
645.70 1.31
645.80 1.309
645.90 1.308
646.00 1.308
646.10 1.307
646.20 1.306
646.30 1.305
646.40 1.305
646.50 1.304
646.60 1.303
646.70 1.303
646.80 1.302
646.90 1.301
647.00 1.3
647.10 1.3
647.20 1.299
647.30 1.298
647.40 1.298
647.50 1.297
647.60 1.296
647.70 1.295
647.80 1.295
647.90 1.294
648.00 1.293
648.10 1.292
648.20 1.292
648.30 1.291
648.40 1.29
648.50 1.289
648.60 1.289
648.70 1.288
648.80 1.287
648.90 1.286
649.00 1.285
649.10 1.285
649.20 1.284
649.30 1.283
649.40 1.282
649.50 1.282
649.60 1.281
649.70 1.28
649.80 1.279
649.90 1.278
650.00 1.278
650.10 1.277
650.20 1.276
650.30 1.275
650.40 1.274
650.50 1.274
650.60 1.273
650.70 1.272
650.80 1.271
650.90 1.27
651.00 1.27
651.10 1.269
651.20 1.268
651.30 1.267
651.40 1.266
651.50 1.265
651.60 1.265
651.70 1.264
651.80 1.263
651.90 1.262
652.00 1.261
652.10 1.26
652.20 1.26
652.30 1.259
652.40 1.258
652.50 1.257
652.60 1.256
652.70 1.255
652.80 1.255
652.90 1.254
653.00 1.253
653.10 1.252
653.20 1.251
653.30 1.25
653.40 1.249
653.50 1.248
653.60 1.248
653.70 1.247
653.80 1.246
653.90 1.245
654.00 1.244
654.10 1.243
654.20 1.242
654.30 1.241
654.40 1.241
654.50 1.24
654.60 1.239
654.70 1.238
654.80 1.237
654.90 1.236
655.00 1.235
655.10 1.234
655.20 1.233
655.30 1.233
655.40 1.232
655.50 1.231
655.60 1.23
655.70 1.229
655.80 1.228
655.90 1.227
656.00 1.226
656.10 1.225
656.20 1.224
656.30 1.223
656.40 1.223
656.50 1.222
656.60 1.221
656.70 1.22
656.80 1.219
656.90 1.218
657.00 1.217
657.10 1.216
657.20 1.215
657.30 1.214
657.40 1.213
657.50 1.212
657.60 1.211
657.70 1.21
657.80 1.209
657.90 1.208
658.00 1.207
658.10 1.207
658.20 1.206
658.30 1.205
658.40 1.204
658.50 1.203
658.60 1.202
658.70 1.201
658.80 1.2
658.90 1.199
659.00 1.198
659.10 1.197
659.20 1.196
659.30 1.195
659.40 1.194
659.50 1.193
659.60 1.192
659.70 1.191
659.80 1.19
659.90 1.189
660.00 1.188
660.10 1.187
660.20 1.186
660.30 1.185
660.40 1.184
660.50 1.183
660.60 1.182
660.70 1.181
660.80 1.18
660.90 1.179
661.00 1.178
661.10 1.177
661.20 1.176
661.30 1.175
661.40 1.174
661.50 1.173
661.60 1.172
661.70 1.171
661.80 1.17
661.90 1.169
662.00 1.168
662.10 1.167
662.20 1.166
662.30 1.165
662.40 1.164
662.50 1.163
662.60 1.162
662.70 1.161
662.80 1.16
662.90 1.159
663.00 1.158
663.10 1.156
663.20 1.155
663.30 1.154
663.40 1.153
663.50 1.152
663.60 1.151
663.70 1.15
663.80 1.149
663.90 1.148
664.00 1.147
664.10 1.146
664.20 1.145
664.30 1.144
664.40 1.143
664.50 1.142
664.60 1.141
664.70 1.139
664.80 1.138
664.90 1.137
665.00 1.136
665.10 1.135
665.20 1.134
665.30 1.133
665.40 1.132
665.50 1.131
665.60 1.13
665.70 1.129
665.80 1.128
665.90 1.126
666.00 1.125
666.10 1.124
666.20 1.123
666.30 1.122
666.40 1.121
666.50 1.12
666.60 1.119
666.70 1.118
666.80 1.117
666.90 1.115
667.00 1.114
667.10 1.113
667.20 1.112
667.30 1.111
667.40 1.11
667.50 1.109
667.60 1.108
667.70 1.106
667.80 1.105
667.90 1.104
668.00 1.103
668.10 1.102
668.20 1.101
668.30 1.1
668.40 1.099
668.50 1.097
668.60 1.096
668.70 1.095
668.80 1.094
668.90 1.093
669.00 1.092
669.10 1.091
669.20 1.089
669.30 1.088
669.40 1.087
669.50 1.086
669.60 1.085
669.70 1.084
669.80 1.082
669.90 1.081
670.00 1.08
670.10 1.079
670.20 1.078
670.30 1.077
670.40 1.076
670.50 1.074
670.60 1.073
670.70 1.072
670.80 1.071
670.90 1.07
671.00 1.069
671.10 1.067
671.20 1.066
671.30 1.065
671.40 1.064
671.50 1.063
671.60 1.061
671.70 1.06
671.80 1.059
671.90 1.058
672.00 1.057
672.10 1.055
672.20 1.054
672.30 1.053
672.40 1.052
672.50 1.051
672.60 1.05
672.70 1.048
672.80 1.047
672.90 1.046
673.00 1.045
673.10 1.044
673.20 1.042
673.30 1.041
673.40 1.04
673.50 1.039
673.60 1.037
673.70 1.036
673.80 1.035
673.90 1.034
674.00 1.033
674.10 1.031
674.20 1.03
674.30 1.029
674.40 1.028
674.50 1.027
674.60 1.025
674.70 1.024
674.80 1.023
674.90 1.022
675.00 1.02
675.10 1.019
675.20 1.018
675.30 1.017
675.40 1.016
675.50 1.014
675.60 1.013
675.70 1.012
675.80 1.011
675.90 1.009
676.00 1.008
676.10 1.007
676.20 1.006
676.30 1.004
676.40 1.003
676.50 1.002
676.60 1.001
676.70 0.9994
676.80 0.9981
676.90 0.9969
677.00 0.9957
677.10 0.9944
677.20 0.9932
677.30 0.9919
677.40 0.9907
677.50 0.9894
677.60 0.9882
677.70 0.9869
677.80 0.9856
677.90 0.9844
678.00 0.9831
678.10 0.9819
678.20 0.9806
678.30 0.9794
678.40 0.9781
678.50 0.9768
678.60 0.9756
678.70 0.9743
678.80 0.973
678.90 0.9718
679.00 0.9705
679.10 0.9692
679.20 0.968
679.30 0.9667
679.40 0.9654
679.50 0.9642
679.60 0.9629
679.70 0.9616
679.80 0.9603
679.90 0.959
680.00 0.9578
680.10 0.9565
680.20 0.9552
680.30 0.9539
680.40 0.9526
680.50 0.9514
680.60 0.9501
680.70 0.9488
680.80 0.9475
680.90 0.9462
681.00 0.9449
681.10 0.9437
681.20 0.9424
681.30 0.9411
681.40 0.9398
681.50 0.9385
681.60 0.9372
681.70 0.9359
681.80 0.9346
681.90 0.9333
682.00 0.932
682.10 0.9307
682.20 0.9294
682.30 0.9281
682.40 0.9268
682.50 0.9255
682.60 0.9242
682.70 0.9229
682.80 0.9216
682.90 0.9203
683.00 0.919
683.10 0.9177
683.20 0.9164
683.30 0.9151
683.40 0.9138
683.50 0.9125
683.60 0.9112
683.70 0.9099
683.80 0.9086
683.90 0.9072
684.00 0.9059
684.10 0.9046
684.20 0.9033
684.30 0.902
684.40 0.9007
684.50 0.8994
684.60 0.8981
684.70 0.8968
684.80 0.8954
684.90 0.8941
685.00 0.8928
685.10 0.8915
685.20 0.8902
685.30 0.8889
685.40 0.8876
685.50 0.8862
685.60 0.8849
685.70 0.8836
685.80 0.8823
685.90 0.881
686.00 0.8796
686.10 0.8783
686.20 0.877
686.30 0.8757
686.40 0.8744
686.50 0.873
686.60 0.8717
686.70 0.8704
686.80 0.8691
686.90 0.8677
687.00 0.8664
687.10 0.8651
687.20 0.8638
687.30 0.8625
687.40 0.8611
687.50 0.8598
687.60 0.8585
687.70 0.8571
687.80 0.8558
687.90 0.8545
688.00 0.8532
688.10 0.8518
688.20 0.8505
688.30 0.8492
688.40 0.8479
688.50 0.8465
688.60 0.8452
688.70 0.8439
688.80 0.8425
688.90 0.8412
689.00 0.8399
689.10 0.8386
689.20 0.8372
689.30 0.8359
689.40 0.8346
689.50 0.8332
689.60 0.8319
689.70 0.8305
689.80 0.8292
689.90 0.8278
690.00 0.8265
690.10 0.8251
690.20 0.8238
690.30 0.8224
690.40 0.8211
690.50 0.8198
690.60 0.8184
690.70 0.8171
690.80 0.8157
690.90 0.8144
691.00 0.8131
691.10 0.8117
691.20 0.8104
691.30 0.8091
691.40 0.8077
691.50 0.8064
691.60 0.8051
691.70 0.8037
691.80 0.8024
691.90 0.8011
692.00 0.7997
692.10 0.7984
692.20 0.7971
692.30 0.7958
692.40 0.7944
692.50 0.7931
692.60 0.7918
692.70 0.7904
692.80 0.7891
692.90 0.7878
693.00 0.7865
693.10 0.7852
693.20 0.7838
693.30 0.7825
693.40 0.7812
693.50 0.7799
693.60 0.7786
693.70 0.7772
693.80 0.7759
693.90 0.7746
694.00 0.7733
694.10 0.772
694.20 0.7707
694.30 0.7694
694.40 0.768
694.50 0.7667
694.60 0.7654
694.70 0.7641
694.80 0.7628
694.90 0.7615
695.00 0.7602
695.10 0.7589
695.20 0.7576
695.30 0.7562
695.40 0.7549
695.50 0.7536
695.60 0.7523
695.70 0.751
695.80 0.7497
695.90 0.7484
696.00 0.7471
696.10 0.7458
696.20 0.7445
696.30 0.7431
696.40 0.7418
696.50 0.7405
696.60 0.7392
696.70 0.7379
696.80 0.7366
696.90 0.7353
697.00 0.734
697.10 0.7327
697.20 0.7314
697.30 0.7301
697.40 0.7288
697.50 0.7275
697.60 0.7262
697.70 0.7249
697.80 0.7236
697.90 0.7224
698.00 0.7211
698.10 0.7198
698.20 0.7185
698.30 0.7172
698.40 0.7159
698.50 0.7146
698.60 0.7133
698.70 0.712
698.80 0.7107
698.90 0.7095
699.00 0.7082
699.10 0.7069
699.20 0.7056
699.30 0.7043
699.40 0.703
699.50 0.7017
699.60 0.7005
699.70 0.6992
699.80 0.6979
699.90 0.6966
700.00 0.6953
700.10 0.6941
700.20 0.6928
700.30 0.6915
700.40 0.6903
700.50 0.689
700.60 0.6878
700.70 0.6865
700.80 0.6852
700.90 0.684
701.00 0.6827
701.10 0.6815
701.20 0.6802
701.30 0.679
701.40 0.6777
701.50 0.6764
701.60 0.6752
701.70 0.6739
701.80 0.6727
701.90 0.6714
702.00 0.6702
702.10 0.6689
702.20 0.6677
702.30 0.6664
702.40 0.6652
702.50 0.6639
702.60 0.6627
702.70 0.6614
702.80 0.6602
702.90 0.6589
703.00 0.6577
703.10 0.6565
703.20 0.6552
703.30 0.654
703.40 0.6527
703.50 0.6515
703.60 0.6502
703.70 0.649
703.80 0.6478
703.90 0.6465
704.00 0.6453
704.10 0.644
704.20 0.6428
704.30 0.6416
704.40 0.6403
704.50 0.6391
704.60 0.6379
704.70 0.6366
704.80 0.6354
704.90 0.6342
705.00 0.6329
705.10 0.6318
705.20 0.6306
705.30 0.6294
705.40 0.6282
705.50 0.627
705.60 0.6259
705.70 0.6247
705.80 0.6235
705.90 0.6223
706.00 0.6211
706.10 0.62
706.20 0.6188
706.30 0.6176
706.40 0.6164
706.50 0.6153
706.60 0.6141
706.70 0.6129
706.80 0.6118
706.90 0.6106
707.00 0.6094
707.10 0.6082
707.20 0.6071
707.30 0.6059
707.40 0.6047
707.50 0.6036
707.60 0.6024
707.70 0.6012
707.80 0.6001
707.90 0.5989
708.00 0.5977
708.10 0.5966
708.20 0.5954
708.30 0.5943
708.40 0.5931
708.50 0.5919
708.60 0.5908
708.70 0.5896
708.80 0.5885
708.90 0.5873
709.00 0.5861
709.10 0.585
709.20 0.5838
709.30 0.5827
709.40 0.5815
709.50 0.5804
709.60 0.5792
709.70 0.578
709.80 0.5769
709.90 0.5757
710.00 0.5746
710.10 0.5735
710.20 0.5724
710.30 0.5713
710.40 0.5702
710.50 0.5692
710.60 0.5681
710.70 0.567
710.80 0.5659
710.90 0.5648
711.00 0.5637
711.10 0.5627
711.20 0.5616
711.30 0.5605
711.40 0.5594
711.50 0.5583
711.60 0.5573
711.70 0.5562
711.80 0.5551
711.90 0.554
712.00 0.553
712.10 0.5519
712.20 0.5508
712.30 0.5497
712.40 0.5487
712.50 0.5476
712.60 0.5465
712.70 0.5454
712.80 0.5444
712.90 0.5433
713.00 0.5422
713.10 0.5412
713.20 0.5401
713.30 0.539
713.40 0.538
713.50 0.5369
713.60 0.5358
713.70 0.5348
713.80 0.5337
713.90 0.5326
714.00 0.5316
714.10 0.5305
714.20 0.5294
714.30 0.5284
714.40 0.5273
714.50 0.5262
714.60 0.5252
714.70 0.5241
714.80 0.5231
714.90 0.522
715.00 0.5209
715.10 0.52
715.20 0.519
715.30 0.518
715.40 0.517
715.50 0.516
715.60 0.5151
715.70 0.5141
715.80 0.5131
715.90 0.5121
716.00 0.5112
716.10 0.5102
716.20 0.5092
716.30 0.5082
716.40 0.5073
716.50 0.5063
716.60 0.5053
716.70 0.5044
716.80 0.5034
716.90 0.5024
717.00 0.5014
717.10 0.5005
717.20 0.4995
717.30 0.4985
717.40 0.4976
717.50 0.4966
717.60 0.4956
717.70 0.4947
717.80 0.4937
717.90 0.4927
718.00 0.4918
718.10 0.4908
718.20 0.4898
718.30 0.4889
718.40 0.4879
718.50 0.487
718.60 0.486
718.70 0.485
718.80 0.4841
718.90 0.4831
719.00 0.4822
719.10 0.4812
719.20 0.4802
719.30 0.4793
719.40 0.4783
719.50 0.4774
719.60 0.4764
719.70 0.4754
719.80 0.4745
719.90 0.4735
720.00 0.4726
720.10 0.4717
720.20 0.4709
720.30 0.47
720.40 0.4692
720.50 0.4683
720.60 0.4675
720.70 0.4666
720.80 0.4657
720.90 0.4649
721.00 0.464
721.10 0.4632
721.20 0.4623
721.30 0.4615
721.40 0.4606
721.50 0.4598
721.60 0.4589
721.70 0.4581
721.80 0.4572
721.90 0.4564
722.00 0.4556
722.10 0.4547
722.20 0.4539
722.30 0.453
722.40 0.4522
722.50 0.4513
722.60 0.4505
722.70 0.4496
722.80 0.4488
722.90 0.448
723.00 0.4471
723.10 0.4463
723.20 0.4454
723.30 0.4446
723.40 0.4437
723.50 0.4429
723.60 0.4421
723.70 0.4412
723.80 0.4404
723.90 0.4395
724.00 0.4387
724.10 0.4379
724.20 0.437
724.30 0.4362
724.40 0.4354
724.50 0.4345
724.60 0.4337
724.70 0.4329
724.80 0.432
724.90 0.4312
725.00 0.4304
725.10 0.4296
725.20 0.4289
725.30 0.4282
725.40 0.4274
725.50 0.4267
725.60 0.426
725.70 0.4252
725.80 0.4245
725.90 0.4238
726.00 0.423
726.10 0.4223
726.20 0.4216
726.30 0.4209
726.40 0.4201
726.50 0.4194
726.60 0.4187
726.70 0.4179
726.80 0.4172
726.90 0.4165
727.00 0.4158
727.10 0.415
727.20 0.4143
727.30 0.4136
727.40 0.4129
727.50 0.4122
727.60 0.4114
727.70 0.4107
727.80 0.41
727.90 0.4093
728.00 0.4085
728.10 0.4078
728.20 0.4071
728.30 0.4064
728.40 0.4057
728.50 0.4049
728.60 0.4042
728.70 0.4035
728.80 0.4028
728.90 0.4021
729.00 0.4013
729.10 0.4006
729.20 0.3999
729.30 0.3992
729.40 0.3985
729.50 0.3978
729.60 0.397
729.70 0.3963
729.80 0.3956
729.90 0.3949
730.00 0.3942
730.10 0.3936
730.20 0.3931
730.30 0.3926
730.40 0.392
730.50 0.3915
730.60 0.3909
730.70 0.3904
730.80 0.3899
730.90 0.3893
731.00 0.3888
731.10 0.3882
731.20 0.3877
731.30 0.3872
731.40 0.3866
731.50 0.3861
731.60 0.3855
731.70 0.385
731.80 0.3845
731.90 0.3839
732.00 0.3834
732.10 0.3829
732.20 0.3823
732.30 0.3818
732.40 0.3813
732.50 0.3807
732.60 0.3802
732.70 0.3796
732.80 0.3791
732.90 0.3786
733.00 0.378
733.10 0.3775
733.20 0.377
733.30 0.3764
733.40 0.3759
733.50 0.3754
733.60 0.3748
733.70 0.3743
733.80 0.3738
733.90 0.3733
734.00 0.3727
734.10 0.3722
734.20 0.3717
734.30 0.3711
734.40 0.3706
734.50 0.3701
734.60 0.3695
734.70 0.369
734.80 0.3685
734.90 0.368
735.00 0.3674
735.10 0.3669
735.20 0.3664
735.30 0.3658
735.40 0.3653
735.50 0.3648
735.60 0.3643
735.70 0.3637
735.80 0.3632
735.90 0.3627
736.00 0.3622
736.10 0.3616
736.20 0.3611
736.30 0.3606
736.40 0.3601
736.50 0.3595
736.60 0.359
736.70 0.3585
736.80 0.358
736.90 0.3574
737.00 0.3569
737.10 0.3564
737.20 0.3559
737.30 0.3553
737.40 0.3548
737.50 0.3543
737.60 0.3538
737.70 0.3533
737.80 0.3527
737.90 0.3522
738.00 0.3517
738.10 0.3512
738.20 0.3507
738.30 0.3501
738.40 0.3496
738.50 0.3491
738.60 0.3486
738.70 0.3481
738.80 0.3475
738.90 0.347
739.00 0.3465
739.10 0.346
739.20 0.3455
739.30 0.345
739.40 0.3444
739.50 0.3439
739.60 0.3434
739.70 0.3429
739.80 0.3424
739.90 0.3419
740.00 0.3413
740.10 0.341
740.20 0.3407
740.30 0.3404
740.40 0.34
740.50 0.3397
740.60 0.3394
740.70 0.3391
740.80 0.3387
740.90 0.3384
741.00 0.3381
741.10 0.3377
741.20 0.3374
741.30 0.3371
741.40 0.3368
741.50 0.3364
741.60 0.3361
741.70 0.3358
741.80 0.3355
741.90 0.3351
742.00 0.3348
742.10 0.3345
742.20 0.3342
742.30 0.3338
742.40 0.3335
742.50 0.3332
742.60 0.3329
742.70 0.3325
742.80 0.3322
742.90 0.3319
743.00 0.3316
743.10 0.3312
743.20 0.3309
743.30 0.3306
743.40 0.3303
743.50 0.33
743.60 0.3296
743.70 0.3293
743.80 0.329
743.90 0.3287
744.00 0.3283
744.10 0.328
744.20 0.3277
744.30 0.3274
744.40 0.3271
744.50 0.3267
744.60 0.3264
744.70 0.3261
744.80 0.3258
744.90 0.3254
745.00 0.3251
745.10 0.3248
745.20 0.3245
745.30 0.3242
745.40 0.3238
745.50 0.3235
745.60 0.3232
745.70 0.3229
745.80 0.3226
745.90 0.3223
746.00 0.3219
746.10 0.3216
746.20 0.3213
746.30 0.321
746.40 0.3207
746.50 0.3203
746.60 0.32
746.70 0.3197
746.80 0.3194
746.90 0.3191
747.00 0.3188
747.10 0.3184
747.20 0.3181
747.30 0.3178
747.40 0.3175
747.50 0.3172
747.60 0.3169
747.70 0.3165
747.80 0.3162
747.90 0.3159
748.00 0.3156
748.10 0.3153
748.20 0.315
748.30 0.3146
748.40 0.3143
748.50 0.314
748.60 0.3137
748.70 0.3134
748.80 0.3131
748.90 0.3128
749.00 0.3124
749.10 0.3121
749.20 0.3118
749.30 0.3115
749.40 0.3112
749.50 0.3109
749.60 0.3106
749.70 0.3102
749.80 0.3099
749.90 0.3096
750.00 0.3093
750.10 0.3091
750.20 0.3089
750.30 0.3087
750.40 0.3085
750.50 0.3083
750.60 0.3081
750.70 0.3079
750.80 0.3076
750.90 0.3074
751.00 0.3072
751.10 0.307
751.20 0.3068
751.30 0.3066
751.40 0.3064
751.50 0.3062
751.60 0.306
751.70 0.3058
751.80 0.3056
751.90 0.3054
752.00 0.3052
752.10 0.305
752.20 0.3048
752.30 0.3045
752.40 0.3043
752.50 0.3041
752.60 0.3039
752.70 0.3037
752.80 0.3035
752.90 0.3033
753.00 0.3031
753.10 0.3029
753.20 0.3027
753.30 0.3025
753.40 0.3023
753.50 0.3021
753.60 0.3019
753.70 0.3017
753.80 0.3015
753.90 0.3013
754.00 0.3011
754.10 0.3009
754.20 0.3007
754.30 0.3004
754.40 0.3002
754.50 0.3
754.60 0.2998
754.70 0.2996
754.80 0.2994
754.90 0.2992
755.00 0.299
755.10 0.2988
755.20 0.2986
755.30 0.2984
755.40 0.2982
755.50 0.298
755.60 0.2978
755.70 0.2976
755.80 0.2974
755.90 0.2972
756.00 0.297
756.10 0.2968
756.20 0.2966
756.30 0.2964
756.40 0.2962
756.50 0.296
756.60 0.2958
756.70 0.2956
756.80 0.2954
756.90 0.2952
757.00 0.295
757.10 0.2948
757.20 0.2946
757.30 0.2944
757.40 0.2942
757.50 0.294
757.60 0.2938
757.70 0.2936
757.80 0.2934
757.90 0.2932
758.00 0.293
758.10 0.2928
758.20 0.2926
758.30 0.2924
758.40 0.2922
758.50 0.292
758.60 0.2918
758.70 0.2916
758.80 0.2914
758.90 0.2912
759.00 0.291
759.10 0.2908
759.20 0.2906
759.30 0.2904
759.40 0.2902
759.50 0.29
759.60 0.2898
759.70 0.2896
759.80 0.2894
759.90 0.2892
760.00 0.289
760.10 0.2888
760.20 0.2887
760.30 0.2886
760.40 0.2884
760.50 0.2883
760.60 0.2881
760.70 0.288
760.80 0.2878
760.90 0.2877
761.00 0.2876
761.10 0.2874
761.20 0.2873
761.30 0.2871
761.40 0.287
761.50 0.2869
761.60 0.2867
761.70 0.2866
761.80 0.2864
761.90 0.2863
762.00 0.2862
762.10 0.286
762.20 0.2859
762.30 0.2857
762.40 0.2856
762.50 0.2855
762.60 0.2853
762.70 0.2852
762.80 0.285
762.90 0.2849
763.00 0.2848
763.10 0.2846
763.20 0.2845
763.30 0.2843
763.40 0.2842
763.50 0.2841
763.60 0.2839
763.70 0.2838
763.80 0.2836
763.90 0.2835
764.00 0.2834
764.10 0.2832
764.20 0.2831
764.30 0.2829
764.40 0.2828
764.50 0.2827
764.60 0.2825
764.70 0.2824
764.80 0.2822
764.90 0.2821
765.00 0.282
765.10 0.2818
765.20 0.2817
765.30 0.2815
765.40 0.2814
765.50 0.2813
765.60 0.2811
765.70 0.281
765.80 0.2809
765.90 0.2807
766.00 0.2806
766.10 0.2804
766.20 0.2803
766.30 0.2802
766.40 0.28
766.50 0.2799
766.60 0.2798
766.70 0.2796
766.80 0.2795
766.90 0.2793
767.00 0.2792
767.10 0.2791
767.20 0.2789
767.30 0.2788
767.40 0.2787
767.50 0.2785
767.60 0.2784
767.70 0.2782
767.80 0.2781
767.90 0.278
768.00 0.2778
768.10 0.2777
768.20 0.2776
768.30 0.2774
768.40 0.2773
768.50 0.2771
768.60 0.277
768.70 0.2769
768.80 0.2767
768.90 0.2766
769.00 0.2765
769.10 0.2763
769.20 0.2762
769.30 0.2761
769.40 0.2759
769.50 0.2758
769.60 0.2757
769.70 0.2755
769.80 0.2754
769.90 0.2752
770.00 0.2751
770.10 0.275
770.20 0.275
770.30 0.2749
770.40 0.2748
770.50 0.2748
770.60 0.2747
770.70 0.2746
770.80 0.2746
770.90 0.2745
771.00 0.2744
771.10 0.2744
771.20 0.2743
771.30 0.2742
771.40 0.2742
771.50 0.2741
771.60 0.274
771.70 0.274
771.80 0.2739
771.90 0.2738
772.00 0.2738
772.10 0.2737
772.20 0.2736
772.30 0.2736
772.40 0.2735
772.50 0.2734
772.60 0.2734
772.70 0.2733
772.80 0.2732
772.90 0.2731
773.00 0.2731
773.10 0.273
773.20 0.2729
773.30 0.2729
773.40 0.2728
773.50 0.2727
773.60 0.2727
773.70 0.2726
773.80 0.2725
773.90 0.2725
774.00 0.2724
774.10 0.2723
774.20 0.2723
774.30 0.2722
774.40 0.2721
774.50 0.2721
774.60 0.272
774.70 0.2719
774.80 0.2719
774.90 0.2718
775.00 0.2717
775.10 0.2717
775.20 0.2716
775.30 0.2715
775.40 0.2715
775.50 0.2714
775.60 0.2713
775.70 0.2713
775.80 0.2712
775.90 0.2711
776.00 0.2711
776.10 0.271
776.20 0.2709
776.30 0.2709
776.40 0.2708
776.50 0.2707
776.60 0.2707
776.70 0.2706
776.80 0.2705
776.90 0.2705
777.00 0.2704
777.10 0.2704
777.20 0.2703
777.30 0.2702
777.40 0.2702
777.50 0.2701
777.60 0.27
777.70 0.27
777.80 0.2699
777.90 0.2698
778.00 0.2698
778.10 0.2697
778.20 0.2696
778.30 0.2696
778.40 0.2695
778.50 0.2694
778.60 0.2694
778.70 0.2693
778.80 0.2692
778.90 0.2692
779.00 0.2691
779.10 0.269
779.20 0.269
779.30 0.2689
779.40 0.2688
779.50 0.2688
779.60 0.2687
779.70 0.2686
779.80 0.2686
779.90 0.2685
780.00 0.2684
780.10 0.2685
780.20 0.2685
780.30 0.2685
780.40 0.2685
780.50 0.2686
780.60 0.2686
780.70 0.2686
780.80 0.2686
780.90 0.2687
781.00 0.2687
781.10 0.2687
781.20 0.2687
781.30 0.2688
781.40 0.2688
781.50 0.2688
781.60 0.2688
781.70 0.2689
781.80 0.2689
781.90 0.2689
782.00 0.2689
782.10 0.2689
782.20 0.269
782.30 0.269
782.40 0.269
782.50 0.269
782.60 0.2691
782.70 0.2691
782.80 0.2691
782.90 0.2691
783.00 0.2692
783.10 0.2692
783.20 0.2692
783.30 0.2692
783.40 0.2693
783.50 0.2693
783.60 0.2693
783.70 0.2693
783.80 0.2694
783.90 0.2694
784.00 0.2694
784.10 0.2694
784.20 0.2694
784.30 0.2695
784.40 0.2695
784.50 0.2695
784.60 0.2695
784.70 0.2696
784.80 0.2696
784.90 0.2696
785.00 0.2696
785.10 0.2697
785.20 0.2697
785.30 0.2697
785.40 0.2697
785.50 0.2697
785.60 0.2698
785.70 0.2698
785.80 0.2698
785.90 0.2698
786.00 0.2699
786.10 0.2699
786.20 0.2699
786.30 0.2699
786.40 0.27
786.50 0.27
786.60 0.27
786.70 0.27
786.80 0.27
786.90 0.2701
787.00 0.2701
787.10 0.2701
787.20 0.2701
787.30 0.2702
787.40 0.2702
787.50 0.2702
787.60 0.2702
787.70 0.2702
787.80 0.2703
787.90 0.2703
788.00 0.2703
788.10 0.2703
788.20 0.2704
788.30 0.2704
788.40 0.2704
788.50 0.2704
788.60 0.2705
788.70 0.2705
788.80 0.2705
788.90 0.2705
789.00 0.2705
789.10 0.2706
789.20 0.2706
789.30 0.2706
789.40 0.2706
789.50 0.2707
789.60 0.2707
789.70 0.2707
789.80 0.2707
789.90 0.2707
790.00 0.2708
790.10 0.2708
790.20 0.2709
790.30 0.271
790.40 0.271
790.50 0.2711
790.60 0.2712
790.70 0.2712
790.80 0.2713
790.90 0.2714
791.00 0.2714
791.10 0.2715
791.20 0.2716
791.30 0.2716
791.40 0.2717
791.50 0.2718
791.60 0.2718
791.70 0.2719
791.80 0.272
791.90 0.272
792.00 0.2721
792.10 0.2721
792.20 0.2722
792.30 0.2723
792.40 0.2723
792.50 0.2724
792.60 0.2725
792.70 0.2725
792.80 0.2726
792.90 0.2727
793.00 0.2727
793.10 0.2728
793.20 0.2729
793.30 0.2729
793.40 0.273
793.50 0.2731
793.60 0.2731
793.70 0.2732
793.80 0.2733
793.90 0.2733
794.00 0.2734
794.10 0.2734
794.20 0.2735
794.30 0.2736
794.40 0.2736
794.50 0.2737
794.60 0.2738
794.70 0.2738
794.80 0.2739
794.90 0.274
795.00 0.274
795.10 0.2741
795.20 0.2742
795.30 0.2742
795.40 0.2743
795.50 0.2743
795.60 0.2744
795.70 0.2745
795.80 0.2745
795.90 0.2746
796.00 0.2747
796.10 0.2747
796.20 0.2748
796.30 0.2749
796.40 0.2749
796.50 0.275
796.60 0.275
796.70 0.2751
796.80 0.2752
796.90 0.2752
797.00 0.2753
797.10 0.2754
797.20 0.2754
797.30 0.2755
797.40 0.2756
797.50 0.2756
797.60 0.2757
797.70 0.2757
797.80 0.2758
797.90 0.2759
798.00 0.2759
798.10 0.276
798.20 0.2761
798.30 0.2761
798.40 0.2762
798.50 0.2762
798.60 0.2763
798.70 0.2764
798.80 0.2764
798.90 0.2765
799.00 0.2766
799.10 0.2766
799.20 0.2767
799.30 0.2767
799.40 0.2768
799.50 0.2769
799.60 0.2769
799.70 0.277
799.80 0.2771
799.90 0.2771
800.00 0.2772
800.10 0.2772
800.20 0.2772
800.30 0.2773
800.40 0.2773
800.50 0.2773
800.60 0.2774
800.70 0.2774
800.80 0.2774
800.90 0.2774
801.00 0.2775
801.10 0.2775
801.20 0.2775
801.30 0.2775
801.40 0.2776
801.50 0.2776
801.60 0.2776
801.70 0.2777
801.80 0.2777
801.90 0.2777
802.00 0.2777
802.10 0.2778
802.20 0.2778
802.30 0.2778
802.40 0.2779
802.50 0.2779
802.60 0.2779
802.70 0.2779
802.80 0.278
802.90 0.278
803.00 0.278
803.10 0.2781
803.20 0.2781
803.30 0.2781
803.40 0.2781
803.50 0.2782
803.60 0.2782
803.70 0.2782
803.80 0.2782
803.90 0.2783
804.00 0.2783
804.10 0.2783
804.20 0.2784
804.30 0.2784
804.40 0.2784
804.50 0.2784
804.60 0.2785
804.70 0.2785
804.80 0.2785
804.90 0.2785
805.00 0.2786
805.10 0.2786
805.20 0.2786
805.30 0.2787
805.40 0.2787
805.50 0.2787
805.60 0.2787
805.70 0.2788
805.80 0.2788
805.90 0.2788
806.00 0.2788
806.10 0.2789
806.20 0.2789
806.30 0.2789
806.40 0.279
806.50 0.279
806.60 0.279
806.70 0.279
806.80 0.2791
806.90 0.2791
807.00 0.2791
807.10 0.2791
807.20 0.2792
807.30 0.2792
807.40 0.2792
807.50 0.2792
807.60 0.2793
807.70 0.2793
807.80 0.2793
807.90 0.2794
808.00 0.2794
808.10 0.2794
808.20 0.2794
808.30 0.2795
808.40 0.2795
808.50 0.2795
808.60 0.2795
808.70 0.2796
808.80 0.2796
808.90 0.2796
809.00 0.2796
809.10 0.2797
809.20 0.2797
809.30 0.2797
809.40 0.2798
809.50 0.2798
809.60 0.2798
809.70 0.2798
809.80 0.2799
809.90 0.2799
810.00 0.2799
810.10 0.2799
810.20 0.2799
810.30 0.2799
810.40 0.2798
810.50 0.2798
810.60 0.2798
810.70 0.2798
810.80 0.2798
810.90 0.2797
811.00 0.2797
811.10 0.2797
811.20 0.2797
811.30 0.2797
811.40 0.2797
811.50 0.2796
811.60 0.2796
811.70 0.2796
811.80 0.2796
811.90 0.2796
812.00 0.2795
812.10 0.2795
812.20 0.2795
812.30 0.2795
812.40 0.2795
812.50 0.2795
812.60 0.2794
812.70 0.2794
812.80 0.2794
812.90 0.2794
813.00 0.2794
813.10 0.2793
813.20 0.2793
813.30 0.2793
813.40 0.2793
813.50 0.2793
813.60 0.2792
813.70 0.2792
813.80 0.2792
813.90 0.2792
814.00 0.2792
814.10 0.2792
814.20 0.2791
814.30 0.2791
814.40 0.2791
814.50 0.2791
814.60 0.2791
814.70 0.279
814.80 0.279
814.90 0.279
815.00 0.279
815.10 0.279
815.20 0.279
815.30 0.2789
815.40 0.2789
815.50 0.2789
815.60 0.2789
815.70 0.2789
815.80 0.2788
815.90 0.2788
816.00 0.2788
816.10 0.2788
816.20 0.2788
816.30 0.2788
816.40 0.2787
816.50 0.2787
816.60 0.2787
816.70 0.2787
816.80 0.2787
816.90 0.2786
817.00 0.2786
817.10 0.2786
817.20 0.2786
817.30 0.2786
817.40 0.2786
817.50 0.2785
817.60 0.2785
817.70 0.2785
817.80 0.2785
817.90 0.2785
818.00 0.2784
818.10 0.2784
818.20 0.2784
818.30 0.2784
818.40 0.2784
818.50 0.2783
818.60 0.2783
818.70 0.2783
818.80 0.2783
818.90 0.2783
819.00 0.2783
819.10 0.2782
819.20 0.2782
819.30 0.2782
819.40 0.2782
819.50 0.2782
819.60 0.2781
819.70 0.2781
819.80 0.2781
819.90 0.2781
820.00 0.2781
820.10 0.2781
820.20 0.278
820.30 0.278
820.40 0.278
820.50 0.278
820.60 0.2779
820.70 0.2779
820.80 0.2779
820.90 0.2779
821.00 0.2779
821.10 0.2778
821.20 0.2778
821.30 0.2778
821.40 0.2778
821.50 0.2777
821.60 0.2777
821.70 0.2777
821.80 0.2777
821.90 0.2776
822.00 0.2776
822.10 0.2776
822.20 0.2776
822.30 0.2775
822.40 0.2775
822.50 0.2775
822.60 0.2775
822.70 0.2775
822.80 0.2774
822.90 0.2774
823.00 0.2774
823.10 0.2774
823.20 0.2773
823.30 0.2773
823.40 0.2773
823.50 0.2773
823.60 0.2772
823.70 0.2772
823.80 0.2772
823.90 0.2772
824.00 0.2771
824.10 0.2771
824.20 0.2771
824.30 0.2771
824.40 0.277
824.50 0.277
824.60 0.277
824.70 0.277
824.80 0.277
824.90 0.2769
825.00 0.2769
825.10 0.2769
825.20 0.2769
825.30 0.2768
825.40 0.2768
825.50 0.2768
825.60 0.2768
825.70 0.2767
825.80 0.2767
825.90 0.2767
826.00 0.2767
826.10 0.2766
826.20 0.2766
826.30 0.2766
826.40 0.2766
826.50 0.2765
826.60 0.2765
826.70 0.2765
826.80 0.2765
826.90 0.2764
827.00 0.2764
827.10 0.2764
827.20 0.2764
827.30 0.2764
827.40 0.2763
827.50 0.2763
827.60 0.2763
827.70 0.2763
827.80 0.2762
827.90 0.2762
828.00 0.2762
828.10 0.2762
828.20 0.2762
828.30 0.2761
828.40 0.2761
828.50 0.2761
828.60 0.2761
828.70 0.276
828.80 0.276
828.90 0.276
829.00 0.276
829.10 0.2759
829.20 0.2759
829.30 0.2759
829.40 0.2759
829.50 0.2759
829.60 0.2758
829.70 0.2758
829.80 0.2758
829.90 0.2758
830.00 0.2757
830.10 0.2757
830.20 0.2757
830.30 0.2757
830.40 0.2757
830.50 0.2756
830.60 0.2756
830.70 0.2756
830.80 0.2756
830.90 0.2755
831.00 0.2755
831.10 0.2755
831.20 0.2755
831.30 0.2755
831.40 0.2754
831.50 0.2754
831.60 0.2754
831.70 0.2754
831.80 0.2753
831.90 0.2753
832.00 0.2753
832.10 0.2753
832.20 0.2752
832.30 0.2752
832.40 0.2752
832.50 0.2752
832.60 0.2752
832.70 0.2751
832.80 0.2751
832.90 0.2751
833.00 0.2751
833.10 0.275
833.20 0.275
833.30 0.275
833.40 0.275
833.50 0.275
833.60 0.2749
833.70 0.2749
833.80 0.2749
833.90 0.2749
834.00 0.2748
834.10 0.2748
834.20 0.2748
834.30 0.2748
834.40 0.2748
834.50 0.2747
834.60 0.2747
834.70 0.2747
834.80 0.2747
834.90 0.2746
835.00 0.2746
835.10 0.2746
835.20 0.2746
835.30 0.2745
835.40 0.2745
835.50 0.2745
835.60 0.2745
835.70 0.2745
835.80 0.2744
835.90 0.2744
836.00 0.2744
836.10 0.2744
836.20 0.2743
836.30 0.2743
836.40 0.2743
836.50 0.2743
836.60 0.2743
836.70 0.2742
836.80 0.2742
836.90 0.2742
837.00 0.2742
837.10 0.2741
837.20 0.2741
837.30 0.2741
837.40 0.2741
837.50 0.274
837.60 0.274
837.70 0.274
837.80 0.274
837.90 0.2739
838.00 0.2739
838.10 0.2739
838.20 0.2739
838.30 0.2739
838.40 0.2738
838.50 0.2738
838.60 0.2738
838.70 0.2738
838.80 0.2737
838.90 0.2737
839.00 0.2737
839.10 0.2737
839.20 0.2736
839.30 0.2736
839.40 0.2736
839.50 0.2736
839.60 0.2735
839.70 0.2735
839.80 0.2735
839.90 0.2735
840.00 0.2734
840.10 0.2734
840.20 0.2734
840.30 0.2734
840.40 0.2733
840.50 0.2733
840.60 0.2733
840.70 0.2733
840.80 0.2732
840.90 0.2732
841.00 0.2732
841.10 0.2732
841.20 0.2732
841.30 0.2731
841.40 0.2731
841.50 0.2731
841.60 0.2731
841.70 0.273
841.80 0.273
841.90 0.273
842.00 0.273
842.10 0.2729
842.20 0.2729
842.30 0.2729
842.40 0.2729
842.50 0.2728
842.60 0.2728
842.70 0.2728
842.80 0.2728
842.90 0.2727
843.00 0.2727
843.10 0.2727
843.20 0.2727
843.30 0.2726
843.40 0.2726
843.50 0.2726
843.60 0.2725
843.70 0.2725
843.80 0.2725
843.90 0.2725
844.00 0.2724
844.10 0.2724
844.20 0.2724
844.30 0.2724
844.40 0.2723
844.50 0.2723
844.60 0.2723
844.70 0.2723
844.80 0.2722
844.90 0.2722
845.00 0.2722
845.10 0.2722
845.20 0.2721
845.30 0.2721
845.40 0.2721
845.50 0.2721
845.60 0.272
845.70 0.272
845.80 0.272
845.90 0.272
846.00 0.2719
846.10 0.2719
846.20 0.2719
846.30 0.2719
846.40 0.2718
846.50 0.2718
846.60 0.2718
846.70 0.2718
846.80 0.2717
846.90 0.2717
847.00 0.2717
847.10 0.2716
847.20 0.2716
847.30 0.2716
847.40 0.2716
847.50 0.2715
847.60 0.2715
847.70 0.2715
847.80 0.2714
847.90 0.2714
848.00 0.2714
848.10 0.2713
848.20 0.2713
848.30 0.2713
848.40 0.2713
848.50 0.2712
848.60 0.2712
848.70 0.2712
848.80 0.2711
848.90 0.2711
849.00 0.2711
849.10 0.271
849.20 0.271
849.30 0.271
849.40 0.271
849.50 0.2709
849.60 0.2709
849.70 0.2709
849.80 0.2708
849.90 0.2708
850.00 0.2708
850.10 0.2707
850.20 0.2707
850.30 0.2707
850.40 0.2707
850.50 0.2706
850.60 0.2706
850.70 0.2706
850.80 0.2705
850.90 0.2705
851.00 0.2705
851.10 0.2704
851.20 0.2704
851.30 0.2704
851.40 0.2704
851.50 0.2703
851.60 0.2703
851.70 0.2703
851.80 0.2702
851.90 0.2702
852.00 0.2702
852.10 0.2701
852.20 0.2701
852.30 0.2701
852.40 0.27
852.50 0.27
852.60 0.27
852.70 0.2699
852.80 0.2699
852.90 0.2699
853.00 0.2698
853.10 0.2698
853.20 0.2698
853.30 0.2697
853.40 0.2697
853.50 0.2697
853.60 0.2696
853.70 0.2696
853.80 0.2696
853.90 0.2695
854.00 0.2695
854.10 0.2695
854.20 0.2694
854.30 0.2694
854.40 0.2694
854.50 0.2693
854.60 0.2693
854.70 0.2693
854.80 0.2692
854.90 0.2692
855.00 0.2692
855.10 0.2691
855.20 0.2691
855.30 0.2691
855.40 0.269
855.50 0.269
855.60 0.269
855.70 0.2689
855.80 0.2689
855.90 0.2688
856.00 0.2688
856.10 0.2688
856.20 0.2687
856.30 0.2687
856.40 0.2687
856.50 0.2686
856.60 0.2686
856.70 0.2686
856.80 0.2685
856.90 0.2685
857.00 0.2685
857.10 0.2684
857.20 0.2684
857.30 0.2684
857.40 0.2683
857.50 0.2683
857.60 0.2683
857.70 0.2682
857.80 0.2682
857.90 0.2681
858.00 0.2681
858.10 0.2681
858.20 0.268
858.30 0.268
858.40 0.268
858.50 0.2679
858.60 0.2679
858.70 0.2678
858.80 0.2678
858.90 0.2678
859.00 0.2677
859.10 0.2677
859.20 0.2677
859.30 0.2676
859.40 0.2676
859.50 0.2675
859.60 0.2675
859.70 0.2675
859.80 0.2674
859.90 0.2674
860.00 0.2674
860.10 0.2673
860.20 0.2673
860.30 0.2672
860.40 0.2672
860.50 0.2672
860.60 0.2671
860.70 0.2671
860.80 0.2671
860.90 0.267
861.00 0.267
861.10 0.2669
861.20 0.2669
861.30 0.2669
861.40 0.2668
861.50 0.2668
861.60 0.2668
861.70 0.2667
861.80 0.2667
861.90 0.2666
862.00 0.2666
862.10 0.2666
862.20 0.2665
862.30 0.2665
862.40 0.2664
862.50 0.2664
862.60 0.2664
862.70 0.2663
862.80 0.2663
862.90 0.2662
863.00 0.2662
863.10 0.2662
863.20 0.2661
863.30 0.2661
863.40 0.266
863.50 0.266
863.60 0.266
863.70 0.2659
863.80 0.2659
863.90 0.2658
864.00 0.2658
864.10 0.2658
864.20 0.2657
864.30 0.2657
864.40 0.2656
864.50 0.2656
864.60 0.2656
864.70 0.2655
864.80 0.2655
864.90 0.2654
865.00 0.2654
865.10 0.2654
865.20 0.2653
865.30 0.2653
865.40 0.2652
865.50 0.2652
865.60 0.2652
865.70 0.2651
865.80 0.2651
865.90 0.265
866.00 0.265
866.10 0.265
866.20 0.2649
866.30 0.2649
866.40 0.2648
866.50 0.2648
866.60 0.2648
866.70 0.2647
866.80 0.2647
866.90 0.2646
867.00 0.2646
867.10 0.2646
867.20 0.2645
867.30 0.2644
867.40 0.2644
867.50 0.2643
867.60 0.2643
867.70 0.2642
867.80 0.2642
867.90 0.2641
868.00 0.2641
868.10 0.264
868.20 0.264
868.30 0.2639
868.40 0.2639
868.50 0.2638
868.60 0.2638
868.70 0.2637
868.80 0.2636
868.90 0.2636
869.00 0.2635
869.10 0.2635
869.20 0.2634
869.30 0.2634
869.40 0.2633
869.50 0.2633
869.60 0.2632
869.70 0.2632
869.80 0.2631
869.90 0.2631
870.00 0.263
870.10 0.263
870.20 0.2629
870.30 0.2628
870.40 0.2628
870.50 0.2627
870.60 0.2627
870.70 0.2626
870.80 0.2626
870.90 0.2625
871.00 0.2625
871.10 0.2624
871.20 0.2624
871.30 0.2623
871.40 0.2623
871.50 0.2622
871.60 0.2622
871.70 0.2621
871.80 0.2621
871.90 0.262
872.00 0.262
872.10 0.2619
872.20 0.2618
872.30 0.2618
872.40 0.2617
872.50 0.2616
872.60 0.2616
872.70 0.2615
872.80 0.2614
872.90 0.2614
873.00 0.2613
873.10 0.2612
873.20 0.2612
873.30 0.2611
873.40 0.261
873.50 0.261
873.60 0.2609
873.70 0.2608
873.80 0.2608
873.90 0.2607
874.00 0.2606
874.10 0.2606
874.20 0.2605
874.30 0.2605
874.40 0.2604
874.50 0.2603
874.60 0.2603
874.70 0.2602
874.80 0.2601
874.90 0.2601
875.00 0.26
875.10 0.2599
875.20 0.2599
875.30 0.2598
875.40 0.2597
875.50 0.2597
875.60 0.2596
875.70 0.2596
875.80 0.2595
875.90 0.2594
876.00 0.2594
876.10 0.2593
876.20 0.2592
876.30 0.2592
876.40 0.2591
876.50 0.259
876.60 0.259
876.70 0.2589
876.80 0.2588
876.90 0.2588
877.00 0.2587
877.10 0.2586
877.20 0.2585
877.30 0.2585
877.40 0.2584
877.50 0.2583
877.60 0.2582
877.70 0.2581
877.80 0.258
877.90 0.258
878.00 0.2579
878.10 0.2578
878.20 0.2577
878.30 0.2576
878.40 0.2575
878.50 0.2575
878.60 0.2574
878.70 0.2573
878.80 0.2572
878.90 0.2571
879.00 0.257
879.10 0.257
879.20 0.2569
879.30 0.2568
879.40 0.2567
879.50 0.2566
879.60 0.2565
879.70 0.2565
879.80 0.2564
879.90 0.2563
880.00 0.2562
880.10 0.2561
880.20 0.256
880.30 0.256
880.40 0.2559
880.50 0.2558
880.60 0.2557
880.70 0.2556
880.80 0.2556
880.90 0.2555
881.00 0.2554
881.10 0.2553
881.20 0.2552
881.30 0.2551
881.40 0.2551
881.50 0.255
881.60 0.2549
881.70 0.2548
881.80 0.2547
881.90 0.2546
882.00 0.2546
882.10 0.2545
882.20 0.2544
882.30 0.2543
882.40 0.2542
882.50 0.2541
882.60 0.254
882.70 0.2539
882.80 0.2538
882.90 0.2537
883.00 0.2536
883.10 0.2535
883.20 0.2534
883.30 0.2533
883.40 0.2532
883.50 0.2531
883.60 0.253
883.70 0.2529
883.80 0.2528
883.90 0.2527
884.00 0.2526
884.10 0.2525
884.20 0.2524
884.30 0.2523
884.40 0.2522
884.50 0.2521
884.60 0.252
884.70 0.2519
884.80 0.2518
884.90 0.2517
885.00 0.2516
885.10 0.2515
885.20 0.2514
885.30 0.2513
885.40 0.2512
885.50 0.2511
885.60 0.251
885.70 0.2509
885.80 0.2508
885.90 0.2507
886.00 0.2506
886.10 0.2505
886.20 0.2504
886.30 0.2503
886.40 0.2502
886.50 0.2501
886.60 0.25
886.70 0.2499
886.80 0.2498
886.90 0.2497
887.00 0.2496
887.10 0.2494
887.20 0.2493
887.30 0.2492
887.40 0.2491
887.50 0.249
887.60 0.2489
887.70 0.2488
887.80 0.2486
887.90 0.2485
888.00 0.2484
888.10 0.2483
888.20 0.2482
888.30 0.2481
888.40 0.2479
888.50 0.2478
888.60 0.2477
888.70 0.2476
888.80 0.2475
888.90 0.2474
889.00 0.2473
889.10 0.2471
889.20 0.247
889.30 0.2469
889.40 0.2468
889.50 0.2467
889.60 0.2466
889.70 0.2465
889.80 0.2463
889.90 0.2462
890.00 0.2461
890.10 0.246
890.20 0.2459
890.30 0.2458
890.40 0.2457
890.50 0.2455
890.60 0.2454
890.70 0.2453
890.80 0.2452
890.90 0.2451
891.00 0.245
891.10 0.2449
891.20 0.2447
891.30 0.2446
891.40 0.2445
891.50 0.2444
891.60 0.2443
891.70 0.2442
891.80 0.2441
891.90 0.2439
892.00 0.2438
892.10 0.2437
892.20 0.2436
892.30 0.2434
892.40 0.2433
892.50 0.2432
892.60 0.243
892.70 0.2429
892.80 0.2428
892.90 0.2426
893.00 0.2425
893.10 0.2424
893.20 0.2422
893.30 0.2421
893.40 0.242
893.50 0.2418
893.60 0.2417
893.70 0.2416
893.80 0.2414
893.90 0.2413
894.00 0.2412
894.10 0.241
894.20 0.2409
894.30 0.2408
894.40 0.2406
894.50 0.2405
894.60 0.2404
894.70 0.2402
894.80 0.2401
894.90 0.24
895.00 0.2398
895.10 0.2397
895.20 0.2396
895.30 0.2395
895.40 0.2393
895.50 0.2392
895.60 0.2391
895.70 0.2389
895.80 0.2388
895.90 0.2387
896.00 0.2385
896.10 0.2384
896.20 0.2383
896.30 0.2381
896.40 0.238
896.50 0.2379
896.60 0.2377
896.70 0.2376
896.80 0.2375
896.90 0.2374
897.00 0.2372
897.10 0.2371
897.20 0.2369
897.30 0.2368
897.40 0.2367
897.50 0.2365
897.60 0.2364
897.70 0.2362
897.80 0.2361
897.90 0.236
898.00 0.2358
898.10 0.2357
898.20 0.2355
898.30 0.2354
898.40 0.2352
898.50 0.2351
898.60 0.235
898.70 0.2348
898.80 0.2347
898.90 0.2345
899.00 0.2344
899.10 0.2343
899.20 0.2341
899.30 0.234
899.40 0.2338
899.50 0.2337
899.60 0.2336
899.70 0.2334
899.80 0.2333
899.90 0.2331
900.00 0.233
900.10 0.2329
900.20 0.2327
900.30 0.2326
900.40 0.2325
900.50 0.2323
900.60 0.2322
900.70 0.232
900.80 0.2319
900.90 0.2318
901.00 0.2316
901.10 0.2315
901.20 0.2313
901.30 0.2312
901.40 0.2311
901.50 0.2309
901.60 0.2308
901.70 0.2306
901.80 0.2305
901.90 0.2304
902.00 0.2302
902.10 0.2301
902.20 0.2299
902.30 0.2298
902.40 0.2296
902.50 0.2295
902.60 0.2294
902.70 0.2292
902.80 0.2291
902.90 0.2289
903.00 0.2288
903.10 0.2286
903.20 0.2285
903.30 0.2283
903.40 0.2282
903.50 0.228
903.60 0.2279
903.70 0.2278
903.80 0.2276
903.90 0.2275
904.00 0.2273
904.10 0.2272
904.20 0.227
904.30 0.2269
904.40 0.2267
904.50 0.2266
904.60 0.2265
904.70 0.2263
904.80 0.2262
904.90 0.226
905.00 0.2259
905.10 0.2257
905.20 0.2256
905.30 0.2255
905.40 0.2253
905.50 0.2252
905.60 0.225
905.70 0.2249
905.80 0.2247
905.90 0.2246
906.00 0.2244
906.10 0.2243
906.20 0.2242
906.30 0.224
906.40 0.2239
906.50 0.2237
906.60 0.2236
906.70 0.2234
906.80 0.2233
906.90 0.2232
907.00 0.223
907.10 0.2229
907.20 0.2227
907.30 0.2225
907.40 0.2224
907.50 0.2222
907.60 0.222
907.70 0.2219
907.80 0.2217
907.90 0.2216
908.00 0.2214
908.10 0.2212
908.20 0.2211
908.30 0.2209
908.40 0.2207
908.50 0.2206
908.60 0.2204
908.70 0.2203
908.80 0.2201
908.90 0.2199
909.00 0.2198
909.10 0.2196
909.20 0.2195
909.30 0.2193
909.40 0.2191
909.50 0.219
909.60 0.2188
909.70 0.2186
909.80 0.2185
909.90 0.2183
910.00 0.2182
910.10 0.218
910.20 0.2178
910.30 0.2177
910.40 0.2175
910.50 0.2174
910.60 0.2172
910.70 0.217
910.80 0.2169
910.90 0.2167
911.00 0.2166
911.10 0.2164
911.20 0.2162
911.30 0.2161
911.40 0.2159
911.50 0.2158
911.60 0.2156
911.70 0.2154
911.80 0.2153
911.90 0.2151
912.00 0.215
912.10 0.2148
912.20 0.2146
912.30 0.2144
912.40 0.2143
912.50 0.2141
912.60 0.2139
912.70 0.2137
912.80 0.2136
912.90 0.2134
913.00 0.2132
913.10 0.213
913.20 0.2129
913.30 0.2127
913.40 0.2125
913.50 0.2123
913.60 0.2122
913.70 0.212
913.80 0.2118
913.90 0.2116
914.00 0.2115
914.10 0.2113
914.20 0.2111
914.30 0.2109
914.40 0.2108
914.50 0.2106
914.60 0.2104
914.70 0.2102
914.80 0.2101
914.90 0.2099
915.00 0.2097
915.10 0.2096
915.20 0.2094
915.30 0.2092
915.40 0.209
915.50 0.2089
915.60 0.2087
915.70 0.2085
915.80 0.2083
915.90 0.2082
916.00 0.208
916.10 0.2078
916.20 0.2076
916.30 0.2075
916.40 0.2073
916.50 0.2071
916.60 0.207
916.70 0.2068
916.80 0.2066
916.90 0.2064
917.00 0.2063
917.10 0.2061
917.20 0.2059
917.30 0.2057
917.40 0.2055
917.50 0.2054
917.60 0.2052
917.70 0.205
917.80 0.2048
917.90 0.2046
918.00 0.2045
918.10 0.2043
918.20 0.2041
918.30 0.2039
918.40 0.2037
918.50 0.2036
918.60 0.2034
918.70 0.2032
918.80 0.203
918.90 0.2028
919.00 0.2027
919.10 0.2025
919.20 0.2023
919.30 0.2021
919.40 0.2019
919.50 0.2018
919.60 0.2016
919.70 0.2014
919.80 0.2012
919.90 0.2011
920.00 0.2009
920.10 0.2007
920.20 0.2005
920.30 0.2003
920.40 0.2002
920.50 0.2
920.60 0.1998
920.70 0.1996
920.80 0.1994
920.90 0.1993
921.00 0.1991
921.10 0.1989
921.20 0.1987
921.30 0.1986
921.40 0.1984
921.50 0.1982
921.60 0.198
921.70 0.1978
921.80 0.1977
921.90 0.1975
922.00 0.1973
922.10 0.1971
922.20 0.1969
922.30 0.1968
922.40 0.1966
922.50 0.1964
922.60 0.1962
922.70 0.196
922.80 0.1958
922.90 0.1957
923.00 0.1955
923.10 0.1953
923.20 0.1951
923.30 0.1949
923.40 0.1947
923.50 0.1945
923.60 0.1944
923.70 0.1942
923.80 0.194
923.90 0.1938
924.00 0.1936
924.10 0.1934
924.20 0.1933
924.30 0.1931
924.40 0.1929
924.50 0.1927
924.60 0.1925
924.70 0.1923
924.80 0.1922
924.90 0.192
925.00 0.1918
925.10 0.1916
925.20 0.1914
925.30 0.1912
925.40 0.1911
925.50 0.1909
925.60 0.1907
925.70 0.1905
925.80 0.1903
925.90 0.1901
926.00 0.19
926.10 0.1898
926.20 0.1896
926.30 0.1894
926.40 0.1892
926.50 0.1891
926.60 0.1889
926.70 0.1887
926.80 0.1885
926.90 0.1883
927.00 0.1881
927.10 0.188
927.20 0.1878
927.30 0.1876
927.40 0.1874
927.50 0.1872
927.60 0.187
927.70 0.1868
927.80 0.1866
927.90 0.1864
928.00 0.1863
928.10 0.1861
928.20 0.1859
928.30 0.1857
928.40 0.1855
928.50 0.1853
928.60 0.1851
928.70 0.1849
928.80 0.1847
928.90 0.1846
929.00 0.1844
929.10 0.1842
929.20 0.184
929.30 0.1838
929.40 0.1836
929.50 0.1834
929.60 0.1832
929.70 0.1831
929.80 0.1829
929.90 0.1827
930.00 0.1825
930.10 0.1823
930.20 0.1821
930.30 0.1819
930.40 0.1817
930.50 0.1816
930.60 0.1814
930.70 0.1812
930.80 0.181
930.90 0.1808
931.00 0.1806
931.10 0.1804
931.20 0.1803
931.30 0.1801
931.40 0.1799
931.50 0.1797
931.60 0.1795
931.70 0.1793
931.80 0.1791
931.90 0.1789
932.00 0.1788
932.10 0.1786
932.20 0.1784
932.30 0.1782
932.40 0.178
932.50 0.1778
932.60 0.1776
932.70 0.1774
932.80 0.1773
932.90 0.1771
933.00 0.1769
933.10 0.1767
933.20 0.1765
933.30 0.1763
933.40 0.1761
933.50 0.1759
933.60 0.1758
933.70 0.1756
933.80 0.1754
933.90 0.1752
934.00 0.175
934.10 0.1748
934.20 0.1746
934.30 0.1745
934.40 0.1743
934.50 0.1741
934.60 0.1739
934.70 0.1737
934.80 0.1735
934.90 0.1733
935.00 0.1731
935.10 0.173
935.20 0.1728
935.30 0.1726
935.40 0.1724
935.50 0.1722
935.60 0.172
935.70 0.1718
935.80 0.1716
935.90 0.1715
936.00 0.1713
936.10 0.1711
936.20 0.1709
936.30 0.1707
936.40 0.1705
936.50 0.1703
936.60 0.1701
936.70 0.17
936.80 0.1698
936.90 0.1696
937.00 0.1694
937.10 0.1692
937.20 0.169
937.30 0.1688
937.40 0.1687
937.50 0.1685
937.60 0.1683
937.70 0.1681
937.80 0.1679
937.90 0.1677
938.00 0.1675
938.10 0.1673
938.20 0.1672
938.30 0.167
938.40 0.1668
938.50 0.1666
938.60 0.1664
938.70 0.1662
938.80 0.166
938.90 0.1658
939.00 0.1656
939.10 0.1655
939.20 0.1653
939.30 0.1651
939.40 0.1649
939.50 0.1647
939.60 0.1645
939.70 0.1643
939.80 0.1641
939.90 0.1639
940.00 0.1638
940.10 0.1636
940.20 0.1634
940.30 0.1632
940.40 0.163
940.50 0.1628
940.60 0.1626
940.70 0.1625
940.80 0.1623
940.90 0.1621
941.00 0.1619
941.10 0.1617
941.20 0.1615
941.30 0.1613
941.40 0.1611
941.50 0.161
941.60 0.1608
941.70 0.1606
941.80 0.1604
941.90 0.1602
942.00 0.16
942.10 0.1599
942.20 0.1597
942.30 0.1595
942.40 0.1593
942.50 0.1591
942.60 0.1589
942.70 0.1588
942.80 0.1586
942.90 0.1584
943.00 0.1582
943.10 0.158
943.20 0.1578
943.30 0.1576
943.40 0.1575
943.50 0.1573
943.60 0.1571
943.70 0.1569
943.80 0.1567
943.90 0.1565
944.00 0.1564
944.10 0.1562
944.20 0.156
944.30 0.1558
944.40 0.1556
944.50 0.1554
944.60 0.1553
944.70 0.1551
944.80 0.1549
944.90 0.1547
945.00 0.1545
945.10 0.1543
945.20 0.1542
945.30 0.154
945.40 0.1538
945.50 0.1536
945.60 0.1534
945.70 0.1533
945.80 0.1531
945.90 0.1529
946.00 0.1527
946.10 0.1525
946.20 0.1523
946.30 0.1522
946.40 0.152
946.50 0.1518
946.60 0.1516
946.70 0.1514
946.80 0.1513
946.90 0.1511
947.00 0.1509
947.10 0.1507
947.20 0.1505
947.30 0.1504
947.40 0.1502
947.50 0.15
947.60 0.1498
947.70 0.1496
947.80 0.1494
947.90 0.1493
948.00 0.1491
948.10 0.1489
948.20 0.1487
948.30 0.1485
948.40 0.1483
948.50 0.1482
948.60 0.148
948.70 0.1478
948.80 0.1476
948.90 0.1474
949.00 0.1473
949.10 0.1471
949.20 0.1469
949.30 0.1467
949.40 0.1465
949.50 0.1464
949.60 0.1462
949.70 0.146
949.80 0.1458
949.90 0.1456
950.00 0.1455
950.10 0.1453
950.20 0.1451
950.30 0.1449
950.40 0.1448
950.50 0.1446
950.60 0.1444
950.70 0.1442
950.80 0.144
950.90 0.1439
951.00 0.1437
951.10 0.1435
951.20 0.1433
951.30 0.1432
951.40 0.143
951.50 0.1428
951.60 0.1426
951.70 0.1425
951.80 0.1423
951.90 0.1421
952.00 0.1419
952.10 0.1417
952.20 0.1416
952.30 0.1414
952.40 0.1412
952.50 0.141
952.60 0.1409
952.70 0.1407
952.80 0.1405
952.90 0.1403
953.00 0.1402
953.10 0.14
953.20 0.1398
953.30 0.1396
953.40 0.1395
953.50 0.1393
953.60 0.1391
953.70 0.1389
953.80 0.1388
953.90 0.1386
954.00 0.1384
954.10 0.1383
954.20 0.1381
954.30 0.1379
954.40 0.1377
954.50 0.1376
954.60 0.1374
954.70 0.1372
954.80 0.137
954.90 0.1369
955.00 0.1367
955.10 0.1365
955.20 0.1363
955.30 0.1362
955.40 0.136
955.50 0.1358
955.60 0.1356
955.70 0.1355
955.80 0.1353
955.90 0.1351
956.00 0.135
956.10 0.1348
956.20 0.1346
956.30 0.1344
956.40 0.1342
956.50 0.1341
956.60 0.1339
956.70 0.1337
956.80 0.1335
956.90 0.1334
957.00 0.1332
957.10 0.133
957.20 0.1329
957.30 0.1327
957.40 0.1325
957.50 0.1323
957.60 0.1322
957.70 0.132
957.80 0.1318
957.90 0.1317
958.00 0.1315
958.10 0.1313
958.20 0.1312
958.30 0.131
958.40 0.1308
958.50 0.1306
958.60 0.1305
958.70 0.1303
958.80 0.1301
958.90 0.13
959.00 0.1298
959.10 0.1296
959.20 0.1295
959.30 0.1293
959.40 0.1291
959.50 0.129
959.60 0.1288
959.70 0.1286
959.80 0.1285
959.90 0.1283
960.00 0.1281
960.10 0.128
960.20 0.1278
960.30 0.1276
960.40 0.1275
960.50 0.1273
960.60 0.1271
960.70 0.127
960.80 0.1268
960.90 0.1266
961.00 0.1265
961.10 0.1263
961.20 0.1261
961.30 0.126
961.40 0.1258
961.50 0.1257
961.60 0.1255
961.70 0.1253
961.80 0.1252
961.90 0.125
962.00 0.1248
962.10 0.1247
962.20 0.1245
962.30 0.1243
962.40 0.1242
962.50 0.124
962.60 0.1239
962.70 0.1237
962.80 0.1235
962.90 0.1234
963.00 0.1232
963.10 0.123
963.20 0.1229
963.30 0.1227
963.40 0.1226
963.50 0.1224
963.60 0.1222
963.70 0.1221
963.80 0.1219
963.90 0.1217
964.00 0.1216
964.10 0.1214
964.20 0.1213
964.30 0.1211
964.40 0.1209
964.50 0.1208
964.60 0.1206
964.70 0.1204
964.80 0.1203
964.90 0.1201
965.00 0.12
965.10 0.1198
965.20 0.1196
965.30 0.1195
965.40 0.1193
965.50 0.1191
965.60 0.119
965.70 0.1188
965.80 0.1187
965.90 0.1185
966.00 0.1183
966.10 0.1182
966.20 0.118
966.30 0.1178
966.40 0.1177
966.50 0.1175
966.60 0.1174
966.70 0.1172
966.80 0.1171
966.90 0.1169
967.00 0.1167
967.10 0.1166
967.20 0.1164
967.30 0.1163
967.40 0.1161
967.50 0.116
967.60 0.1158
967.70 0.1157
967.80 0.1155
967.90 0.1154
968.00 0.1152
968.10 0.115
968.20 0.1149
968.30 0.1147
968.40 0.1146
968.50 0.1144
968.60 0.1143
968.70 0.1141
968.80 0.114
968.90 0.1138
969.00 0.1137
969.10 0.1135
969.20 0.1134
969.30 0.1132
969.40 0.1131
969.50 0.1129
969.60 0.1128
969.70 0.1126
969.80 0.1125
969.90 0.1123
970.00 0.1122
970.10 0.112
970.20 0.1118
970.30 0.1117
970.40 0.1115
970.50 0.1114
970.60 0.1113
970.70 0.1111
970.80 0.111
970.90 0.1108
971.00 0.1107
971.10 0.1105
971.20 0.1104
971.30 0.1102
971.40 0.1101
971.50 0.1099
971.60 0.1098
971.70 0.1096
971.80 0.1095
971.90 0.1093
972.00 0.1092
972.10 0.109
972.20 0.1089
972.30 0.1087
972.40 0.1086
972.50 0.1084
972.60 0.1083
972.70 0.1082
972.80 0.108
972.90 0.1079
973.00 0.1077
973.10 0.1076
973.20 0.1074
973.30 0.1073
973.40 0.1071
973.50 0.107
973.60 0.1069
973.70 0.1067
973.80 0.1066
973.90 0.1064
974.00 0.1063
974.10 0.1061
974.20 0.106
974.30 0.1058
974.40 0.1057
974.50 0.1056
974.60 0.1054
974.70 0.1053
974.80 0.1051
974.90 0.105
975.00 0.1048
975.10 0.1047
975.20 0.1046
975.30 0.1044
975.40 0.1043
975.50 0.1041
975.60 0.104
975.70 0.1038
975.80 0.1037
975.90 0.1036
976.00 0.1034
976.10 0.1033
976.20 0.1031
976.30 0.103
976.40 0.1029
976.50 0.1027
976.60 0.1026
976.70 0.1024
976.80 0.1023
976.90 0.1021
977.00 0.102
977.10 0.1019
977.20 0.1017
977.30 0.1016
977.40 0.1015
977.50 0.1013
977.60 0.1012
977.70 0.1011
977.80 0.1009
977.90 0.1008
978.00 0.1007
978.10 0.1005
978.20 0.1004
978.30 0.1003
978.40 0.1001
978.50 0.1
978.60 0.09986
978.70 0.09973
978.80 0.0996
978.90 0.09946
979.00 0.09933
979.10 0.0992
979.20 0.09906
979.30 0.09893
979.40 0.0988
979.50 0.09866
979.60 0.09853
979.70 0.0984
979.80 0.09826
979.90 0.09813
980.00 0.098
980.10 0.09787
980.20 0.09773
980.30 0.0976
980.40 0.09747
980.50 0.09734
980.60 0.0972
980.70 0.09707
980.80 0.09694
980.90 0.09681
981.00 0.09667
981.10 0.09654
981.20 0.09641
981.30 0.09628
981.40 0.09614
981.50 0.09601
981.60 0.09588
981.70 0.09575
981.80 0.09562
981.90 0.09548
982.00 0.09535
982.10 0.09523
982.20 0.0951
982.30 0.09497
982.40 0.09485
982.50 0.09472
982.60 0.09459
982.70 0.09447
982.80 0.09434
982.90 0.09421
983.00 0.09409
983.10 0.09396
983.20 0.09383
983.30 0.09371
983.40 0.09358
983.50 0.09345
983.60 0.09333
983.70 0.0932
983.80 0.09308
983.90 0.09295
984.00 0.09282
984.10 0.0927
984.20 0.09257
984.30 0.09245
984.40 0.09232
984.50 0.0922
984.60 0.09207
984.70 0.09195
984.80 0.09183
984.90 0.09171
985.00 0.0916
985.10 0.09148
985.20 0.09136
985.30 0.09124
985.40 0.09113
985.50 0.09101
985.60 0.09089
985.70 0.09077
985.80 0.09066
985.90 0.09054
986.00 0.09042
986.10 0.0903
986.20 0.09019
986.30 0.09007
986.40 0.08995
986.50 0.08984
986.60 0.08972
986.70 0.0896
986.80 0.08948
986.90 0.08937
987.00 0.08925
987.10 0.08913
987.20 0.08901
987.30 0.08888
987.40 0.08876
987.50 0.08864
987.60 0.08852
987.70 0.0884
987.80 0.08827
987.90 0.08815
988.00 0.08803
988.10 0.08791
988.20 0.08779
988.30 0.08767
988.40 0.08755
988.50 0.08742
988.60 0.0873
988.70 0.08718
988.80 0.08706
988.90 0.08694
989.00 0.08682
989.10 0.0867
989.20 0.08658
989.30 0.08646
989.40 0.08633
989.50 0.08621
989.60 0.08609
989.70 0.08597
989.80 0.08585
989.90 0.08573
990.00 0.08561
990.10 0.08549
990.20 0.08537
990.30 0.08525
990.40 0.08513
990.50 0.08501
990.60 0.08489
990.70 0.08477
990.80 0.08465
990.90 0.08453
991.00 0.08441
991.10 0.08429
991.20 0.08417
991.30 0.08405
991.40 0.08393
991.50 0.08381
991.60 0.08369
991.70 0.08357
991.80 0.08345
991.90 0.08333
992.00 0.08321
992.10 0.08309
992.20 0.08297
992.30 0.08285
992.40 0.08273
992.50 0.08261
992.60 0.08249
992.70 0.08238
992.80 0.08226
992.90 0.08214
993.00 0.08202
993.10 0.0819
993.20 0.08178
993.30 0.08166
993.40 0.08154
993.50 0.08143
993.60 0.08131
993.70 0.08119
993.80 0.08107
993.90 0.08095
994.00 0.08083
994.10 0.08071
994.20 0.0806
994.30 0.08048
994.40 0.08036
994.50 0.08024
994.60 0.08012
994.70 0.07999
994.80 0.07984
994.90 0.07969
995.00 0.07955
995.10 0.0794
995.20 0.07926
995.30 0.07911
995.40 0.07897
995.50 0.07882
995.60 0.07868
995.70 0.07856
995.80 0.07844
995.90 0.07833
996.00 0.07822
996.10 0.0781
996.20 0.07799
996.30 0.07787
996.40 0.07776
996.50 0.07765
996.60 0.07753
996.70 0.07742
996.80 0.0773
996.90 0.07719
997.00 0.07708
997.10 0.07697
997.20 0.07685
997.30 0.07674
997.40 0.07663
997.50 0.07652
997.60 0.07641
997.70 0.0763
997.80 0.07619
997.90 0.07608
998.00 0.07598
998.10 0.07587
998.20 0.07576
998.30 0.07565
998.40 0.07554
998.50 0.07544
998.60 0.07533
998.70 0.07522
998.80 0.07511
998.90 0.07501
999.00 0.0749
999.10 0.07479
999.20 0.07468
999.30 0.07458
999.40 0.07447
999.50 0.07436
999.60 0.07425
999.70 0.07415
999.80 0.07405
999.90 0.07394
1000.00 0.07384
1000.10 0.07374
1000.20 0.07363
1000.30 0.07353
1000.40 0.07343
1000.50 0.07333
1000.60 0.07322
1000.70 0.07312
1000.80 0.07302
1000.90 0.07291
1001.00 0.07281
1001.10 0.07271
1001.20 0.07261
1001.30 0.0725
1001.40 0.0724
1001.50 0.0723
1001.60 0.0722
1001.70 0.0721
1001.80 0.072
1001.90 0.0719
1002.00 0.0718
1002.10 0.0717
1002.20 0.0716
1002.30 0.0715
1002.40 0.0714
1002.50 0.07131
1002.60 0.07121
1002.70 0.07111
1002.80 0.07101
1002.90 0.07091
1003.00 0.07082
1003.10 0.07072
1003.20 0.07062
1003.30 0.07053
1003.40 0.07043
1003.50 0.07033
1003.60 0.07024
1003.70 0.07014
1003.80 0.07005
1003.90 0.06995
1004.00 0.06986
1004.10 0.06976
1004.20 0.06967
1004.30 0.06957
1004.40 0.06948
1004.50 0.06938
1004.60 0.06929
1004.70 0.0692
1004.80 0.0691
1004.90 0.06898
1005.00 0.06885
1005.10 0.06875
1005.20 0.06866
1005.30 0.06857
1005.40 0.06848
1005.50 0.06839
1005.60 0.0683
1005.70 0.06821
1005.80 0.06812
1005.90 0.06802
1006.00 0.06793
1006.10 0.06784
1006.20 0.06776
1006.30 0.06767
1006.40 0.06758
1006.50 0.06749
1006.60 0.0674
1006.70 0.06731
1006.80 0.06723
1006.90 0.06714
1007.00 0.06705
1007.10 0.06696
1007.20 0.06688
1007.30 0.06679
1007.40 0.06671
1007.50 0.06662
1007.60 0.06653
1007.70 0.06645
1007.80 0.06637
1007.90 0.06628
1008.00 0.0662
1008.10 0.06612
1008.20 0.06603
1008.30 0.06595
1008.40 0.06587
1008.50 0.06579
1008.60 0.0657
1008.70 0.06562
1008.80 0.06554
1008.90 0.06545
1009.00 0.06537
1009.10 0.06529
1009.20 0.06521
1009.30 0.06512
1009.40 0.06504
1009.50 0.06496
1009.60 0.06488
1009.70 0.0648
1009.80 0.06472
1009.90 0.06464
1010.00 0.06456
1010.10 0.06448
1010.20 0.06441
1010.30 0.06433
1010.40 0.06425
1010.50 0.06417
1010.60 0.0641
1010.70 0.06402
1010.80 0.06394
1010.90 0.06386
1011.00 0.06378
1011.10 0.06371
1011.20 0.06363
1011.30 0.06355
1011.40 0.06347
1011.50 0.0634
1011.60 0.06332
1011.70 0.06324
1011.80 0.06317
1011.90 0.06309
1012.00 0.06302
1012.10 0.06295
1012.20 0.06287
1012.30 0.0628
1012.40 0.06273
1012.50 0.06266
1012.60 0.06258
1012.70 0.06251
1012.80 0.06244
1012.90 0.06236
1013.00 0.06229
1013.10 0.06222
1013.20 0.06215
1013.30 0.06208
1013.40 0.062
1013.50 0.06193
1013.60 0.06186
1013.70 0.06179
1013.80 0.06172
1013.90 0.06165
1014.00 0.06158
1014.10 0.06151
1014.20 0.06144
1014.30 0.06137
1014.40 0.0613
1014.50 0.06123
1014.60 0.06116
1014.70 0.0611
1014.80 0.06104
1014.90 0.06098
1015.00 0.06092
1015.10 0.06086
1015.20 0.0608
1015.30 0.06074
1015.40 0.06068
1015.50 0.06062
1015.60 0.06056
1015.70 0.0605
1015.80 0.06044
1015.90 0.06038
1016.00 0.06032
1016.10 0.06026
1016.20 0.0602
1016.30 0.06014
1016.40 0.06008
1016.50 0.06002
1016.60 0.05996
1016.70 0.0599
1016.80 0.05983
1016.90 0.05977
1017.00 0.0597
1017.10 0.05964
1017.20 0.05957
1017.30 0.05951
1017.40 0.05944
1017.50 0.05938
1017.60 0.05932
1017.70 0.05925
1017.80 0.05919
1017.90 0.05912
1018.00 0.05906
1018.10 0.05899
1018.20 0.05893
1018.30 0.05887
1018.40 0.0588
1018.50 0.05874
1018.60 0.05867
1018.70 0.05861
1018.80 0.05855
1018.90 0.05849
1019.00 0.05842
1019.10 0.05836
1019.20 0.0583
1019.30 0.05824
1019.40 0.05817
1019.50 0.05811
1019.60 0.05805
1019.70 0.05799
1019.80 0.05792
1019.90 0.05786
1020.00 0.0578
1020.10 0.05774
1020.20 0.05767
1020.30 0.05761
1020.40 0.05755
1020.50 0.05749
1020.60 0.05743
1020.70 0.05736
1020.80 0.0573
1020.90 0.05724
1021.00 0.05718
1021.10 0.05712
1021.20 0.05706
1021.30 0.057
1021.40 0.05694
1021.50 0.05688
1021.60 0.05682
1021.70 0.05676
1021.80 0.0567
1021.90 0.05664
1022.00 0.05658
1022.10 0.05652
1022.20 0.05646
1022.30 0.0564
1022.40 0.05634
1022.50 0.05628
1022.60 0.05622
1022.70 0.05616
1022.80 0.05611
1022.90 0.05605
1023.00 0.05599
1023.10 0.05593
1023.20 0.05587
1023.30 0.05581
1023.40 0.05575
1023.50 0.05569
1023.60 0.05564
1023.70 0.05558
1023.80 0.05552
1023.90 0.05546
1024.00 0.0554
1024.10 0.05534
1024.20 0.05528
1024.30 0.05523
1024.40 0.05517
1024.50 0.05511
1024.60 0.05505
1024.70 0.05499
1024.80 0.05494
1024.90 0.05488
1025.00 0.05482
1025.10 0.05476
1025.20 0.05471
1025.30 0.05465
1025.40 0.05459
1025.50 0.05453
1025.60 0.05448
1025.70 0.05442
1025.80 0.05436
1025.90 0.0543
1026.00 0.05425
1026.10 0.05419
1026.20 0.05413
1026.30 0.05407
1026.40 0.05402
1026.50 0.05396
1026.60 0.0539
1026.70 0.05385
1026.80 0.05379
1026.90 0.05373
1027.00 0.05367
1027.10 0.05362
1027.20 0.05357
1027.30 0.05352
1027.40 0.05346
1027.50 0.05341
1027.60 0.05336
1027.70 0.05331
1027.80 0.05325
1027.90 0.0532
1028.00 0.05315
1028.10 0.0531
1028.20 0.05304
1028.30 0.05299
1028.40 0.05294
1028.50 0.05289
1028.60 0.05283
1028.70 0.05278
1028.80 0.05273
1028.90 0.05268
1029.00 0.05262
1029.10 0.05257
1029.20 0.05252
1029.30 0.05247
1029.40 0.05242
1029.50 0.05236
1029.60 0.05231
1029.70 0.05226
1029.80 0.05221
1029.90 0.05216
1030.00 0.0521
1030.10 0.05205
1030.20 0.052
1030.30 0.05195
1030.40 0.05189
1030.50 0.05184
1030.60 0.05179
1030.70 0.05174
1030.80 0.05169
1030.90 0.05164
1031.00 0.05158
1031.10 0.05153
1031.20 0.05148
1031.30 0.05143
1031.40 0.05138
1031.50 0.05132
1031.60 0.05127
1031.70 0.05122
1031.80 0.05117
1031.90 0.05112
1032.00 0.05107
1032.10 0.05102
1032.20 0.05097
1032.30 0.05092
1032.40 0.05087
1032.50 0.05083
1032.60 0.05078
1032.70 0.05073
1032.80 0.05068
1032.90 0.05063
1033.00 0.05059
1033.10 0.05054
1033.20 0.05049
1033.30 0.05044
1033.40 0.0504
1033.50 0.05035
1033.60 0.0503
1033.70 0.05025
1033.80 0.05021
1033.90 0.05016
1034.00 0.05011
1034.10 0.05006
1034.20 0.05002
1034.30 0.04997
1034.40 0.04992
1034.50 0.04987
1034.60 0.04983
1034.70 0.04978
1034.80 0.04973
1034.90 0.04968
1035.00 0.04964
1035.10 0.04959
1035.20 0.04954
1035.30 0.04949
1035.40 0.04945
1035.50 0.0494
1035.60 0.04935
1035.70 0.0493
1035.80 0.04926
1035.90 0.04921
1036.00 0.04916
1036.10 0.04911
1036.20 0.04907
1036.30 0.04902
1036.40 0.04897
1036.50 0.04893
1036.60 0.04888
1036.70 0.04883
1036.80 0.04878
1036.90 0.04874
1037.00 0.04869
1037.10 0.04865
1037.20 0.04861
1037.30 0.04856
1037.40 0.04852
1037.50 0.04848
1037.60 0.04844
1037.70 0.0484
1037.80 0.04835
1037.90 0.04831
1038.00 0.04827
1038.10 0.04823
1038.20 0.04819
1038.30 0.04814
1038.40 0.0481
1038.50 0.04806
1038.60 0.04802
1038.70 0.04798
1038.80 0.04793
1038.90 0.04789
1039.00 0.04785
1039.10 0.04781
1039.20 0.04777
1039.30 0.04773
1039.40 0.04768
1039.50 0.04764
1039.60 0.0476
1039.70 0.04756
1039.80 0.04752
1039.90 0.04748
1040.00 0.04743
1040.10 0.04739
1040.20 0.04735
1040.30 0.04731
1040.40 0.04727
1040.50 0.04723
1040.60 0.04718
1040.70 0.04714
1040.80 0.0471
1040.90 0.04706
1041.00 0.04702
1041.10 0.04698
1041.20 0.04693
1041.30 0.04689
1041.40 0.04685
1041.50 0.04681
1041.60 0.04677
1041.70 0.04673
1041.80 0.04669
1041.90 0.04664
1042.00 0.0466
1042.10 0.04657
1042.20 0.04653
1042.30 0.04649
1042.40 0.04646
1042.50 0.04642
1042.60 0.04638
1042.70 0.04635
1042.80 0.04631
1042.90 0.04627
1043.00 0.04623
1043.10 0.0462
1043.20 0.04616
1043.30 0.04612
1043.40 0.04609
1043.50 0.04605
1043.60 0.04601
1043.70 0.04598
1043.80 0.04594
1043.90 0.0459
1044.00 0.04587
1044.10 0.04583
1044.20 0.04579
1044.30 0.04576
1044.40 0.04572
1044.50 0.04569
1044.60 0.04565
1044.70 0.04561
1044.80 0.04558
1044.90 0.04554
1045.00 0.0455
1045.10 0.04547
1045.20 0.04543
1045.30 0.04539
1045.40 0.04536
1045.50 0.04532
1045.60 0.04528
1045.70 0.04525
1045.80 0.04521
1045.90 0.04517
1046.00 0.04514
1046.10 0.0451
1046.20 0.04507
1046.30 0.04503
1046.40 0.04499
1046.50 0.04496
1046.60 0.04492
1046.70 0.04488
1046.80 0.04485
1046.90 0.04481
1047.00 0.04478
1047.10 0.04474
1047.20 0.04471
1047.30 0.04468
1047.40 0.04465
1047.50 0.04462
1047.60 0.04458
1047.70 0.04455
1047.80 0.04452
1047.90 0.04449
1048.00 0.04446
1048.10 0.04442
1048.20 0.04439
1048.30 0.04436
1048.40 0.04433
1048.50 0.0443
1048.60 0.04427
1048.70 0.04423
1048.80 0.0442
1048.90 0.04417
1049.00 0.04414
1049.10 0.04411
1049.20 0.04407
1049.30 0.04404
1049.40 0.04401
1049.50 0.04398
1049.60 0.04395
1049.70 0.04392
1049.80 0.04388
1049.90 0.04385
1050.00 0.04382
1050.10 0.04379
1050.20 0.04376
1050.30 0.04373
1050.40 0.04369
1050.50 0.04366
1050.60 0.04363
1050.70 0.0436
1050.80 0.04357
1050.90 0.04354
1051.00 0.04351
1051.10 0.04347
1051.20 0.04344
1051.30 0.04341
1051.40 0.04338
1051.50 0.04335
1051.60 0.04332
1051.70 0.04329
1051.80 0.04325
1051.90 0.04322
1052.00 0.04319
1052.10 0.04316
1052.20 0.04313
1052.30 0.04311
1052.40 0.04308
1052.50 0.04305
1052.60 0.04302
1052.70 0.04299
1052.80 0.04296
1052.90 0.04294
1053.00 0.04291
1053.10 0.04288
1053.20 0.04285
1053.30 0.04282
1053.40 0.0428
1053.50 0.04277
1053.60 0.04274
1053.70 0.04271
1053.80 0.04268
1053.90 0.04265
1054.00 0.04263
1054.10 0.0426
1054.20 0.04257
1054.30 0.04254
1054.40 0.04251
1054.50 0.04249
1054.60 0.04246
1054.70 0.04243
1054.80 0.0424
1054.90 0.04237
1055.00 0.04235
1055.10 0.04232
1055.20 0.04229
1055.30 0.04226
1055.40 0.04223
1055.50 0.04221
1055.60 0.04218
1055.70 0.04215
1055.80 0.04212
1055.90 0.04209
1056.00 0.04207
1056.10 0.04204
1056.20 0.04201
1056.30 0.04198
1056.40 0.04195
1056.50 0.04193
1056.60 0.0419
1056.70 0.04187
1056.80 0.04184
1056.90 0.04181
1057.00 0.04179
1057.10 0.04176
1057.20 0.04174
1057.30 0.04171
1057.40 0.04169
1057.50 0.04166
1057.60 0.04164
1057.70 0.04161
1057.80 0.04159
1057.90 0.04157
1058.00 0.04154
1058.10 0.04152
1058.20 0.04149
1058.30 0.04147
1058.40 0.04144
1058.50 0.04142
1058.60 0.04139
1058.70 0.04137
1058.80 0.04134
1058.90 0.04132
1059.00 0.04129
1059.10 0.04127
1059.20 0.04125
1059.30 0.04122
1059.40 0.0412
1059.50 0.04117
1059.60 0.04115
1059.70 0.04112
1059.80 0.0411
1059.90 0.04107
1060.00 0.04105
1060.10 0.04103
1060.20 0.041
1060.30 0.04098
1060.40 0.04095
1060.50 0.04093
1060.60 0.0409
1060.70 0.04088
1060.80 0.04085
1060.90 0.04083
1061.00 0.04081
1061.10 0.04078
1061.20 0.04076
1061.30 0.04073
1061.40 0.04071
1061.50 0.04068
1061.60 0.04066
1061.70 0.04064
1061.80 0.04061
1061.90 0.04059
1062.00 0.04056
1062.10 0.04054
1062.20 0.04052
1062.30 0.0405
1062.40 0.04048
1062.50 0.04046
1062.60 0.04044
1062.70 0.04042
1062.80 0.04039
1062.90 0.04037
1063.00 0.04035
1063.10 0.04033
1063.20 0.04031
1063.30 0.04029
1063.40 0.04027
1063.50 0.04025
1063.60 0.04023
1063.70 0.0402
1063.80 0.04018
1063.90 0.04016
1064.00 0.04014
1064.10 0.04012
1064.20 0.0401
1064.30 0.04008
1064.40 0.04006
1064.50 0.04004
1064.60 0.04002
1064.70 0.03999
1064.80 0.03997
1064.90 0.03995
1065.00 0.03993
1065.10 0.03991
1065.20 0.03989
1065.30 0.03987
1065.40 0.03985
1065.50 0.03983
1065.60 0.03981
1065.70 0.03979
1065.80 0.03976
1065.90 0.03974
1066.00 0.03972
1066.10 0.0397
1066.20 0.03968
1066.30 0.03966
1066.40 0.03964
1066.50 0.03962
1066.60 0.0396
1066.70 0.03958
1066.80 0.03956
1066.90 0.03954
1067.00 0.03951
1067.10 0.0395
1067.20 0.03948
1067.30 0.03946
1067.40 0.03944
1067.50 0.03942
1067.60 0.0394
1067.70 0.03939
1067.80 0.03937
1067.90 0.03935
1068.00 0.03933
1068.10 0.03931
1068.20 0.03929
1068.30 0.03927
1068.40 0.03926
1068.50 0.03924
1068.60 0.03922
1068.70 0.0392
1068.80 0.03918
1068.90 0.03916
1069.00 0.03914
1069.10 0.03913
1069.20 0.03911
1069.30 0.03909
1069.40 0.03907
1069.50 0.03905
1069.60 0.03903
1069.70 0.03902
1069.80 0.039
1069.90 0.03898
1070.00 0.03896
1070.10 0.03894
1070.20 0.03892
1070.30 0.03891
1070.40 0.03889
1070.50 0.03887
1070.60 0.03885
1070.70 0.03883
1070.80 0.03881
1070.90 0.0388
1071.00 0.03878
1071.10 0.03876
1071.20 0.03874
1071.30 0.03872
1071.40 0.0387
1071.50 0.03869
1071.60 0.03867
1071.70 0.03865
1071.80 0.03863
1071.90 0.03861
1072.00 0.03859
1072.10 0.03858
1072.20 0.03856
1072.30 0.03855
1072.40 0.03853
1072.50 0.03852
1072.60 0.0385
1072.70 0.03849
1072.80 0.03847
1072.90 0.03846
1073.00 0.03844
1073.10 0.03843
1073.20 0.03842
1073.30 0.0384
1073.40 0.03839
1073.50 0.03837
1073.60 0.03836
1073.70 0.03835
1073.80 0.03833
1073.90 0.03832
1074.00 0.03831
1074.10 0.03829
1074.20 0.03828
1074.30 0.03827
1074.40 0.03826
1074.50 0.03824
1074.60 0.03823
1074.70 0.03822
1074.80 0.0382
1074.90 0.03819
1075.00 0.03818
1075.10 0.03817
1075.20 0.03815
1075.30 0.03814
1075.40 0.03813
1075.50 0.03811
1075.60 0.0381
1075.70 0.03809
1075.80 0.03808
1075.90 0.03806
1076.00 0.03805
1076.10 0.03804
1076.20 0.03802
1076.30 0.03801
1076.40 0.038
1076.50 0.03799
1076.60 0.03797
1076.70 0.03796
1076.80 0.03795
1076.90 0.03794
1077.00 0.03792
1077.10 0.03791
1077.20 0.0379
1077.30 0.03789
1077.40 0.03788
1077.50 0.03787
1077.60 0.03786
1077.70 0.03785
1077.80 0.03784
1077.90 0.03783
1078.00 0.03782
1078.10 0.03781
1078.20 0.0378
1078.30 0.03779
1078.40 0.03778
1078.50 0.03777
1078.60 0.03776
1078.70 0.03775
1078.80 0.03774
1078.90 0.03773
1079.00 0.03772
1079.10 0.03771
1079.20 0.0377
1079.30 0.03769
1079.40 0.03768
1079.50 0.03767
1079.60 0.03766
1079.70 0.03765
1079.80 0.03764
1079.90 0.03764
1080.00 0.03763
1080.10 0.03762
1080.20 0.03761
1080.30 0.03761
1080.40 0.0376
1080.50 0.03759
1080.60 0.03758
1080.70 0.03758
1080.80 0.03757
1080.90 0.03756
1081.00 0.03756
1081.10 0.03755
1081.20 0.03754
1081.30 0.03753
1081.40 0.03753
1081.50 0.03752
1081.60 0.03751
1081.70 0.0375
1081.80 0.0375
1081.90 0.03749
1082.00 0.03748
1082.10 0.03747
1082.20 0.03747
1082.30 0.03746
1082.40 0.03745
1082.50 0.03745
1082.60 0.03744
1082.70 0.03743
1082.80 0.03743
1082.90 0.03742
1083.00 0.03741
1083.10 0.03741
1083.20 0.0374
1083.30 0.03739
1083.40 0.03739
1083.50 0.03738
1083.60 0.03737
1083.70 0.03737
1083.80 0.03736
1083.90 0.03735
1084.00 0.03735
1084.10 0.03734
1084.20 0.03734
1084.30 0.03733
1084.40 0.03733
1084.50 0.03732
1084.60 0.03731
1084.70 0.03731
1084.80 0.0373
1084.90 0.0373
1085.00 0.03729
1085.10 0.03729
1085.20 0.03728
1085.30 0.03728
1085.40 0.03728
1085.50 0.03727
1085.60 0.03727
1085.70 0.03726
1085.80 0.03726
1085.90 0.03725
1086.00 0.03725
1086.10 0.03724
1086.20 0.03724
1086.30 0.03723
1086.40 0.03723
1086.50 0.03722
1086.60 0.03722
1086.70 0.03721
1086.80 0.03721
1086.90 0.0372
1087.00 0.0372
1087.10 0.0372
1087.20 0.03719
1087.30 0.03719
1087.40 0.03719
1087.50 0.03718
1087.60 0.03718
1087.70 0.03718
1087.80 0.03717
1087.90 0.03717
1088.00 0.03717
1088.10 0.03716
1088.20 0.03716
1088.30 0.03716
1088.40 0.03715
1088.50 0.03715
1088.60 0.03715
1088.70 0.03714
1088.80 0.03714
1088.90 0.03714
1089.00 0.03714
1089.10 0.03714
1089.20 0.03713
1089.30 0.03713
1089.40 0.03713
1089.50 0.03713
1089.60 0.03712
1089.70 0.03712
1089.80 0.03712
1089.90 0.03712
1090.00 0.03712
1090.10 0.03711
1090.20 0.03711
1090.30 0.03711
1090.40 0.03711
1090.50 0.0371
1090.60 0.0371
1090.70 0.0371
1090.80 0.0371
1090.90 0.0371
1091.00 0.0371
1091.10 0.0371
1091.20 0.0371
1091.30 0.0371
1091.40 0.03709
1091.50 0.03709
1091.60 0.03709
1091.70 0.03709
1091.80 0.03709
1091.90 0.03709
1092.00 0.03709
1092.10 0.03709
1092.20 0.03709
1092.30 0.03709
1092.40 0.03709
1092.50 0.03709
1092.60 0.03709
1092.70 0.03709
1092.80 0.0371
1092.90 0.03712
1093.00 0.03713
1093.10 0.03714
1093.20 0.03714
1093.30 0.03714
1093.40 0.03714
1093.50 0.03714
1093.60 0.03714
1093.70 0.03714
1093.80 0.03714
1093.90 0.03714
1094.00 0.03714
1094.10 0.03714
1094.20 0.03714
1094.30 0.03714
1094.40 0.03714
1094.50 0.03715
1094.60 0.03715
1094.70 0.03715
1094.80 0.03715
1094.90 0.03715
1095.00 0.03715
1095.10 0.03715
1095.20 0.03715
1095.30 0.03715
1095.40 0.03715
1095.50 0.03715
1095.60 0.03715
1095.70 0.03715
1095.80 0.03716
1095.90 0.03716
1096.00 0.03716
1096.10 0.03716
1096.20 0.03716
1096.30 0.03716
1096.40 0.03716
1096.50 0.03716
1096.60 0.03716
1096.70 0.03717
1096.80 0.03717
1096.90 0.03717
1097.00 0.03717
1097.10 0.03717
1097.20 0.03717
1097.30 0.03718
1097.40 0.03718
1097.50 0.03718
1097.60 0.03718
1097.70 0.03718
1097.80 0.03718
1097.90 0.03719
1098.00 0.03719
1098.10 0.03719
1098.20 0.03719
1098.30 0.03719
1098.40 0.03719
1098.50 0.0372
1098.60 0.0372
1098.70 0.0372
1098.80 0.0372
1098.90 0.0372
1099.00 0.03721
1099.10 0.03721
1099.20 0.03721
1099.30 0.03721
1099.40 0.03722
1099.50 0.03722
1099.60 0.03722
1099.70 0.03722
1099.80 0.03722
1099.90 0.03723
1100.00 0.03723
1100.10 0.03723
1100.20 0.03723
1100.30 0.03724
1100.40 0.03724
1100.50 0.03724
1100.60 0.03724
1100.70 0.03725
1100.80 0.03725
1100.90 0.03725
1101.00 0.03725
1101.10 0.03726
1101.20 0.03726
1101.30 0.03726
1101.40 0.03727
1101.50 0.03727
1101.60 0.03727
1101.70 0.03727
1101.80 0.03728
1101.90 0.03728
1102.00 0.03728
1102.10 0.03729
1102.20 0.03729
1102.30 0.03729
1102.40 0.0373
1102.50 0.0373
1102.60 0.0373
1102.70 0.03731
1102.80 0.03731
1102.90 0.03731
1103.00 0.03732
1103.10 0.03732
1103.20 0.03732
1103.30 0.03733
1103.40 0.03733
1103.50 0.03733
1103.60 0.03734
1103.70 0.03734
1103.80 0.03735
1103.90 0.03735
1104.00 0.03735
1104.10 0.03736
1104.20 0.03736
1104.30 0.03737
1104.40 0.03737
1104.50 0.03737
1104.60 0.03738
1104.70 0.03738
1104.80 0.03739
1104.90 0.03739
1105.00 0.03739
1105.10 0.0374
1105.20 0.0374
1105.30 0.0374
1105.40 0.03741
1105.50 0.03741
1105.60 0.03742
1105.70 0.03742
1105.80 0.03743
1105.90 0.03743
1106.00 0.03744
1106.10 0.03744
1106.20 0.03744
1106.30 0.03745
1106.40 0.03745
1106.50 0.03746
1106.60 0.03746
1106.70 0.03747
1106.80 0.03747
1106.90 0.03748
1107.00 0.03748
1107.10 0.03749
1107.20 0.03749
1107.30 0.0375
1107.40 0.0375
1107.50 0.03751
1107.60 0.03751
1107.70 0.03752
1107.80 0.03752
1107.90 0.03753
1108.00 0.03753
1108.10 0.03754
1108.20 0.03754
1108.30 0.03755
1108.40 0.03755
1108.50 0.03756
1108.60 0.03756
1108.70 0.03757
1108.80 0.03757
1108.90 0.03758
1109.00 0.03758
1109.10 0.03759
1109.20 0.03759
1109.30 0.0376
1109.40 0.0376
1109.50 0.03761
1109.60 0.03762
1109.70 0.03762
1109.80 0.03763
1109.90 0.03763
1110.00 0.03764
1110.10 0.03765
1110.20 0.03765
1110.30 0.03766
1110.40 0.03766
1110.50 0.03767
1110.60 0.03768
1110.70 0.03768
1110.80 0.03769
1110.90 0.03769
1111.00 0.0377
1111.10 0.03771
1111.20 0.03771
1111.30 0.03772
1111.40 0.03772
1111.50 0.03773
1111.60 0.03774
1111.70 0.03774
1111.80 0.03775
1111.90 0.03775
1112.00 0.03776
1112.10 0.03777
1112.20 0.03777
1112.30 0.03778
1112.40 0.03779
1112.50 0.03779
1112.60 0.0378
1112.70 0.03781
1112.80 0.03781
1112.90 0.03782
1113.00 0.03783
1113.10 0.03783
1113.20 0.03784
1113.30 0.03785
1113.40 0.03785
1113.50 0.03786
1113.60 0.03787
1113.70 0.03788
1113.80 0.03788
1113.90 0.03789
1114.00 0.0379
1114.10 0.03791
1114.20 0.03791
1114.30 0.03792
1114.40 0.03793
1114.50 0.03794
1114.60 0.03794
1114.70 0.03795
1114.80 0.03796
1114.90 0.03797
1115.00 0.03797
1115.10 0.03798
1115.20 0.03799
1115.30 0.03799
1115.40 0.038
1115.50 0.03801
1115.60 0.03802
1115.70 0.03802
1115.80 0.03803
1115.90 0.03804
1116.00 0.03805
1116.10 0.03805
1116.20 0.03806
1116.30 0.03807
1116.40 0.03808
1116.50 0.03808
1116.60 0.03809
1116.70 0.0381
1116.80 0.03811
1116.90 0.03811
1117.00 0.03812
1117.10 0.03813
1117.20 0.03814
1117.30 0.03815
1117.40 0.03816
1117.50 0.03816
1117.60 0.03817
1117.70 0.03818
1117.80 0.03819
1117.90 0.0382
1118.00 0.03821
1118.10 0.03822
1118.20 0.03823
1118.30 0.03823
1118.40 0.03824
1118.50 0.03825
1118.60 0.03826
1118.70 0.03827
1118.80 0.03828
1118.90 0.03829
1119.00 0.0383
1119.10 0.0383
1119.20 0.03831
1119.30 0.03832
1119.40 0.03833
1119.50 0.03834
1119.60 0.03835
1119.70 0.03836
1119.80 0.03836
1119.90 0.03837
1120.00 0.03838
1120.10 0.03839
1120.20 0.0384
1120.30 0.03841
1120.40 0.03842
1120.50 0.03843
1120.60 0.03843
1120.70 0.03844
1120.80 0.03845
1120.90 0.03846
1121.00 0.03847
1121.10 0.03848
1121.20 0.03849
1121.30 0.03849
1121.40 0.0385
1121.50 0.03851
1121.60 0.03852
1121.70 0.03853
1121.80 0.03854
1121.90 0.03855
1122.00 0.03855
1122.10 0.03857
1122.20 0.03858
1122.30 0.03859
1122.40 0.0386
1122.50 0.03861
1122.60 0.03862
1122.70 0.03863
1122.80 0.03864
1122.90 0.03866
1123.00 0.03867
1123.10 0.03868
1123.20 0.03869
1123.30 0.0387
1123.40 0.03871
1123.50 0.03872
1123.60 0.03874
1123.70 0.03875
1123.80 0.03876
1123.90 0.03877
1124.00 0.03878
1124.10 0.03879
1124.20 0.0388
1124.30 0.03881
1124.40 0.03883
1124.50 0.03884
1124.60 0.03885
1124.70 0.03886
1124.80 0.03887
1124.90 0.03888
1125.00 0.03889
1125.10 0.0389
1125.20 0.03892
1125.30 0.03893
1125.40 0.03894
1125.50 0.03895
1125.60 0.03896
1125.70 0.03897
1125.80 0.03898
1125.90 0.03899
1126.00 0.039
1126.10 0.03902
1126.20 0.03903
1126.30 0.03904
1126.40 0.03905
1126.50 0.03906
1126.60 0.03907
1126.70 0.03908
1126.80 0.03909
1126.90 0.03911
1127.00 0.03912
1127.10 0.03913
1127.20 0.03915
1127.30 0.03916
1127.40 0.03917
1127.50 0.03919
1127.60 0.0392
1127.70 0.03922
1127.80 0.03923
1127.90 0.03925
1128.00 0.03926
1128.10 0.03928
1128.20 0.03929
1128.30 0.03931
1128.40 0.03932
1128.50 0.03933
1128.60 0.03935
1128.70 0.03936
1128.80 0.03938
1128.90 0.03939
1129.00 0.03941
1129.10 0.03942
1129.20 0.03944
1129.30 0.03945
1129.40 0.03946
1129.50 0.03948
1129.60 0.03949
1129.70 0.03951
1129.80 0.03952
1129.90 0.03954
1130.00 0.03955
1130.10 0.03957
1130.20 0.03958
1130.30 0.03959
1130.40 0.03961
1130.50 0.03962
1130.60 0.03964
1130.70 0.03965
1130.80 0.03967
1130.90 0.03968
1131.00 0.03969
1131.10 0.03971
1131.20 0.03972
1131.30 0.03974
1131.40 0.03975
1131.50 0.03977
1131.60 0.03978
1131.70 0.03979
1131.80 0.03981
1131.90 0.03982
1132.00 0.03984
1132.10 0.03985
1132.20 0.03987
1132.30 0.03988
1132.40 0.0399
1132.50 0.03991
1132.60 0.03992
1132.70 0.03994
1132.80 0.03995
1132.90 0.03997
1133.00 0.03998
1133.10 0.04
1133.20 0.04001
1133.30 0.04002
1133.40 0.04004
1133.50 0.04005
1133.60 0.04007
1133.70 0.04008
1133.80 0.0401
1133.90 0.04011
1134.00 0.04012
1134.10 0.04014
1134.20 0.04015
1134.30 0.04017
1134.40 0.04018
1134.50 0.0402
1134.60 0.04021
1134.70 0.04023
1134.80 0.04024
1134.90 0.04025
1135.00 0.04027
1135.10 0.04028
1135.20 0.0403
1135.30 0.04031
1135.40 0.04032
1135.50 0.04034
1135.60 0.04035
1135.70 0.04037
1135.80 0.04038
1135.90 0.0404
1136.00 0.04041
1136.10 0.04042
1136.20 0.04044
1136.30 0.04045
1136.40 0.04047
1136.50 0.04048
1136.60 0.0405
1136.70 0.04051
1136.80 0.04052
1136.90 0.04054
1137.00 0.04055
1137.10 0.04057
1137.20 0.04058
1137.30 0.0406
1137.40 0.04061
1137.50 0.04063
1137.60 0.04064
1137.70 0.04066
1137.80 0.04067
1137.90 0.04069
1138.00 0.0407
1138.10 0.04072
1138.20 0.04073
1138.30 0.04075
1138.40 0.04076
1138.50 0.04078
1138.60 0.04079
1138.70 0.04081
1138.80 0.04082
1138.90 0.04084
1139.00 0.04085
1139.10 0.04087
1139.20 0.04088
1139.30 0.0409
1139.40 0.04091
1139.50 0.04093
1139.60 0.04094
1139.70 0.04096
1139.80 0.04097
1139.90 0.04099
1140.00 0.04101
1140.10 0.04102
1140.20 0.04104
1140.30 0.04105
1140.40 0.04107
1140.50 0.04108
1140.60 0.04109
1140.70 0.04111
1140.80 0.04112
1140.90 0.04114
1141.00 0.04115
1141.10 0.04117
1141.20 0.04118
1141.30 0.0412
1141.40 0.04121
1141.50 0.04123
1141.60 0.04124
1141.70 0.04126
1141.80 0.04127
1141.90 0.04129
1142.00 0.0413
1142.10 0.04132
1142.20 0.04134
1142.30 0.04135
1142.40 0.04137
1142.50 0.04139
1142.60 0.0414
1142.70 0.04142
1142.80 0.04144
1142.90 0.04146
1143.00 0.04147
1143.10 0.04149
1143.20 0.04151
1143.30 0.04152
1143.40 0.04154
1143.50 0.04156
1143.60 0.04157
1143.70 0.04159
1143.80 0.04161
1143.90 0.04162
1144.00 0.04164
1144.10 0.04166
1144.20 0.04167
1144.30 0.04169
1144.40 0.04171
1144.50 0.04172
1144.60 0.04174
1144.70 0.04176
1144.80 0.04177
1144.90 0.04179
1145.00 0.04181
1145.10 0.04182
1145.20 0.04184
1145.30 0.04186
1145.40 0.04187
1145.50 0.04189
1145.60 0.04191
1145.70 0.04192
1145.80 0.04194
1145.90 0.04196
1146.00 0.04197
1146.10 0.04199
1146.20 0.04201
1146.30 0.04202
1146.40 0.04204
1146.50 0.04206
1146.60 0.04207
1146.70 0.04209
1146.80 0.0421
1146.90 0.04212
1147.00 0.04214
1147.10 0.04215
1147.20 0.04217
1147.30 0.04218
1147.40 0.04219
1147.50 0.04221
1147.60 0.04222
1147.70 0.04224
1147.80 0.04225
1147.90 0.04227
1148.00 0.04228
1148.10 0.04229
1148.20 0.04231
1148.30 0.04232
1148.40 0.04234
1148.50 0.04235
1148.60 0.04236
1148.70 0.04238
1148.80 0.04239
1148.90 0.04241
1149.00 0.04242
1149.10 0.04244
1149.20 0.04245
1149.30 0.04246
1149.40 0.04248
1149.50 0.04249
1149.60 0.04251
1149.70 0.04252
1149.80 0.04253
1149.90 0.04255
1150.00 0.04256
1150.10 0.04258
1150.20 0.04259
1150.30 0.0426
1150.40 0.04262
1150.50 0.04263
1150.60 0.04265
1150.70 0.04266
1150.80 0.04267
1150.90 0.04269
1151.00 0.0427
1151.10 0.04272
1151.20 0.04273
1151.30 0.04274
1151.40 0.04276
1151.50 0.04277
1151.60 0.04279
1151.70 0.0428
1151.80 0.04281
1151.90 0.04283
1152.00 0.04284
1152.10 0.04286
1152.20 0.04287
1152.30 0.04289
1152.40 0.0429
1152.50 0.04291
1152.60 0.04293
1152.70 0.04294
1152.80 0.04296
1152.90 0.04297
1153.00 0.04299
1153.10 0.043
1153.20 0.04301
1153.30 0.04303
1153.40 0.04304
1153.50 0.04306
1153.60 0.04307
1153.70 0.04308
1153.80 0.0431
1153.90 0.04311
1154.00 0.04313
1154.10 0.04314
1154.20 0.04316
1154.30 0.04317
1154.40 0.04318
1154.50 0.0432
1154.60 0.04321
1154.70 0.04323
1154.80 0.04324
1154.90 0.04326
1155.00 0.04327
1155.10 0.04328
1155.20 0.0433
1155.30 0.04331
1155.40 0.04333
1155.50 0.04334
1155.60 0.04335
1155.70 0.04337
1155.80 0.04338
1155.90 0.0434
1156.00 0.04341
1156.10 0.04342
1156.20 0.04344
1156.30 0.04345
1156.40 0.04347
1156.50 0.04348
1156.60 0.04349
1156.70 0.04351
1156.80 0.04352
1156.90 0.04354
1157.00 0.04355
1157.10 0.04356
1157.20 0.04357
1157.30 0.04358
1157.40 0.0436
1157.50 0.04361
1157.60 0.04362
1157.70 0.04363
1157.80 0.04364
1157.90 0.04365
1158.00 0.04366
1158.10 0.04367
1158.20 0.04368
1158.30 0.0437
1158.40 0.04371
1158.50 0.04372
1158.60 0.04373
1158.70 0.04374
1158.80 0.04375
1158.90 0.04376
1159.00 0.04377
1159.10 0.04378
1159.20 0.04379
1159.30 0.04381
1159.40 0.04382
1159.50 0.04383
1159.60 0.04384
1159.70 0.04385
1159.80 0.04386
1159.90 0.04387
1160.00 0.04388
1160.10 0.04389
1160.20 0.04391
1160.30 0.04392
1160.40 0.04393
1160.50 0.04394
1160.60 0.04395
1160.70 0.04396
1160.80 0.04397
1160.90 0.04398
1161.00 0.04399
1161.10 0.044
1161.20 0.04401
1161.30 0.04403
1161.40 0.04404
1161.50 0.04405
1161.60 0.04406
1161.70 0.04407
1161.80 0.04408
1161.90 0.04409
1162.00 0.0441
1162.10 0.04411
1162.20 0.04412
1162.30 0.04413
1162.40 0.04414
1162.50 0.04415
1162.60 0.04415
1162.70 0.04416
1162.80 0.04417
1162.90 0.04418
1163.00 0.04419
1163.10 0.0442
1163.20 0.04421
1163.30 0.04422
1163.40 0.04422
1163.50 0.04423
1163.60 0.04424
1163.70 0.04425
1163.80 0.04426
1163.90 0.04427
1164.00 0.04428
1164.10 0.04428
1164.20 0.04429
1164.30 0.0443
1164.40 0.04431
1164.50 0.04432
1164.60 0.04433
1164.70 0.04434
1164.80 0.04435
1164.90 0.04435
1165.00 0.04436
1165.10 0.04437
1165.20 0.04438
1165.30 0.04439
1165.40 0.0444
1165.50 0.04441
1165.60 0.04441
1165.70 0.04442
1165.80 0.04443
1165.90 0.04444
1166.00 0.04445
1166.10 0.04446
1166.20 0.04447
1166.30 0.04447
1166.40 0.04448
1166.50 0.04449
1166.60 0.0445
1166.70 0.04451
1166.80 0.04452
1166.90 0.04453
1167.00 0.04453
1167.10 0.04454
1167.20 0.04455
1167.30 0.04456
1167.40 0.04457
1167.50 0.04457
1167.60 0.04458
1167.70 0.04459
1167.80 0.0446
1167.90 0.0446
1168.00 0.04461
1168.10 0.04462
1168.20 0.04463
1168.30 0.04463
1168.40 0.04464
1168.50 0.04465
1168.60 0.04466
1168.70 0.04466
1168.80 0.04467
1168.90 0.04468
1169.00 0.04469
1169.10 0.04469
1169.20 0.0447
1169.30 0.04471
1169.40 0.04472
1169.50 0.04473
1169.60 0.04473
1169.70 0.04474
1169.80 0.04475
1169.90 0.04476
1170.00 0.04476
1170.10 0.04477
1170.20 0.04478
1170.30 0.04479
1170.40 0.04479
1170.50 0.0448
1170.60 0.04481
1170.70 0.04482
1170.80 0.04482
1170.90 0.04483
1171.00 0.04484
1171.10 0.04485
1171.20 0.04485
1171.30 0.04486
1171.40 0.04487
1171.50 0.04488
1171.60 0.04488
1171.70 0.04489
1171.80 0.0449
1171.90 0.04491
1172.00 0.04491
1172.10 0.04492
1172.20 0.04492
1172.30 0.04492
1172.40 0.04492
1172.50 0.04493
1172.60 0.04493
1172.70 0.04493
1172.80 0.04493
1172.90 0.04494
1173.00 0.04494
1173.10 0.04494
1173.20 0.04494
1173.30 0.04495
1173.40 0.04495
1173.50 0.04495
1173.60 0.04496
1173.70 0.04496
1173.80 0.04496
1173.90 0.04496
1174.00 0.04497
1174.10 0.04497
1174.20 0.04497
1174.30 0.04497
1174.40 0.04498
1174.50 0.04498
1174.60 0.04498
1174.70 0.04498
1174.80 0.04499
1174.90 0.04499
1175.00 0.04499
1175.10 0.04499
1175.20 0.045
1175.30 0.045
1175.40 0.045
1175.50 0.045
1175.60 0.04501
1175.70 0.04501
1175.80 0.04501
1175.90 0.04501
1176.00 0.04502
1176.10 0.04502
1176.20 0.04502
1176.30 0.04502
1176.40 0.04503
1176.50 0.04503
1176.60 0.04503
1176.70 0.04503
1176.80 0.04504
1176.90 0.04504
1177.00 0.04504
1177.10 0.04504
1177.20 0.04504
1177.30 0.04504
1177.40 0.04504
1177.50 0.04504
1177.60 0.04503
1177.70 0.04503
1177.80 0.04503
1177.90 0.04503
1178.00 0.04503
1178.10 0.04503
1178.20 0.04503
1178.30 0.04503
1178.40 0.04502
1178.50 0.04502
1178.60 0.04502
1178.70 0.04502
1178.80 0.04502
1178.90 0.04502
1179.00 0.04502
1179.10 0.04502
1179.20 0.04502
1179.30 0.04501
1179.40 0.04501
1179.50 0.04501
1179.60 0.04501
1179.70 0.04501
1179.80 0.04501
1179.90 0.04501
1180.00 0.04501
1180.10 0.045
1180.20 0.045
1180.30 0.045
1180.40 0.045
1180.50 0.045
1180.60 0.045
1180.70 0.045
1180.80 0.045
1180.90 0.045
1181.00 0.04499
1181.10 0.04499
1181.20 0.04499
1181.30 0.04499
1181.40 0.04499
1181.50 0.04499
1181.60 0.04499
1181.70 0.04499
1181.80 0.04498
1181.90 0.04498
1182.00 0.04498
1182.10 0.04498
1182.20 0.04497
1182.30 0.04496
1182.40 0.04496
1182.50 0.04495
1182.60 0.04494
1182.70 0.04494
1182.80 0.04493
1182.90 0.04492
1183.00 0.04492
1183.10 0.04491
1183.20 0.0449
1183.30 0.0449
1183.40 0.04489
1183.50 0.04488
1183.60 0.04488
1183.70 0.04487
1183.80 0.04486
1183.90 0.04486
1184.00 0.04485
1184.10 0.04484
1184.20 0.04484
1184.30 0.04483
1184.40 0.04482
1184.50 0.04482
1184.60 0.04481
1184.70 0.0448
1184.80 0.0448
1184.90 0.04479
1185.00 0.04479
1185.10 0.04478
1185.20 0.04477
1185.30 0.04477
1185.40 0.04476
1185.50 0.04475
1185.60 0.04475
1185.70 0.04474
1185.80 0.04473
1185.90 0.04473
1186.00 0.04472
1186.10 0.04471
1186.20 0.04471
1186.30 0.0447
1186.40 0.04469
1186.50 0.04469
1186.60 0.04468
1186.70 0.04467
1186.80 0.04467
1186.90 0.04466
1187.00 0.04465
1187.10 0.04465
1187.20 0.04464
1187.30 0.04464
1187.40 0.04463
1187.50 0.04463
1187.60 0.04462
1187.70 0.04462
1187.80 0.04461
1187.90 0.04461
1188.00 0.0446
1188.10 0.0446
1188.20 0.04459
1188.30 0.04458
1188.40 0.04458
1188.50 0.04457
1188.60 0.04457
1188.70 0.04456
1188.80 0.04456
1188.90 0.04455
1189.00 0.04455
1189.10 0.04454
1189.20 0.04454
1189.30 0.04453
1189.40 0.04453
1189.50 0.04452
1189.60 0.04451
1189.70 0.04451
1189.80 0.0445
1189.90 0.0445
1190.00 0.04449
1190.10 0.04449
1190.20 0.04448
1190.30 0.04448
1190.40 0.04447
1190.50 0.04447
1190.60 0.04446
1190.70 0.04446
1190.80 0.04445
1190.90 0.04444
1191.00 0.04444
1191.10 0.04443
1191.20 0.04443
1191.30 0.04442
1191.40 0.04442
1191.50 0.04441
1191.60 0.04441
1191.70 0.0444
1191.80 0.0444
1191.90 0.04439
1192.00 0.04439
1192.10 0.04438
1192.20 0.04437
1192.30 0.04437
1192.40 0.04436
1192.50 0.04435
1192.60 0.04435
1192.70 0.04434
1192.80 0.04433
1192.90 0.04433
1193.00 0.04432
1193.10 0.04432
1193.20 0.04431
1193.30 0.0443
1193.40 0.0443
1193.50 0.04429
1193.60 0.04428
1193.70 0.04428
1193.80 0.04427
1193.90 0.04426
1194.00 0.04426
1194.10 0.04425
1194.20 0.04424
1194.30 0.04424
1194.40 0.04423
1194.50 0.04423
1194.60 0.04422
1194.70 0.04421
1194.80 0.04421
1194.90 0.0442
1195.00 0.04419
1195.10 0.04419
1195.20 0.04418
1195.30 0.04417
1195.40 0.04417
1195.50 0.04416
1195.60 0.04415
1195.70 0.04415
1195.80 0.04414
1195.90 0.04414
1196.00 0.04413
1196.10 0.04412
1196.20 0.04412
1196.30 0.04411
1196.40 0.0441
1196.50 0.0441
1196.60 0.04409
1196.70 0.04408
1196.80 0.04408
1196.90 0.04407
1197.00 0.04407
1197.10 0.04406
1197.20 0.04405
1197.30 0.04404
1197.40 0.04403
1197.50 0.04402
1197.60 0.04401
1197.70 0.044
1197.80 0.04399
1197.90 0.04398
1198.00 0.04397
1198.10 0.04396
1198.20 0.04395
1198.30 0.04394
1198.40 0.04393
1198.50 0.04392
1198.60 0.04391
1198.70 0.0439
1198.80 0.04389
1198.90 0.04388
1199.00 0.04387
1199.10 0.04386
1199.20 0.04385
1199.30 0.04384
1199.40 0.04383
1199.50 0.04382
1199.60 0.04381
1199.70 0.0438
1199.80 0.04379
1199.90 0.04378
1200.00 0
