# Version 2.1 - nm, norm@500 to 1, cut digits, bergeron_65000_65.dat_65000
# Wavelength(nm)  Flambda(ergs/cm^s/s/nm)
300.00 6.466
300.10 6.458
300.20 6.45
300.30 6.442
300.40 6.435
300.50 6.427
300.60 6.419
300.70 6.411
300.80 6.403
300.90 6.395
301.00 6.387
301.10 6.38
301.20 6.372
301.30 6.364
301.40 6.356
301.50 6.349
301.60 6.341
301.70 6.333
301.80 6.325
301.90 6.318
302.00 6.31
302.10 6.302
302.20 6.295
302.30 6.287
302.40 6.279
302.50 6.272
302.60 6.264
302.70 6.256
302.80 6.249
302.90 6.241
303.00 6.234
303.10 6.226
303.20 6.219
303.30 6.211
303.40 6.203
303.50 6.196
303.60 6.188
303.70 6.181
303.80 6.173
303.90 6.166
304.00 6.158
304.10 6.151
304.20 6.144
304.30 6.136
304.40 6.129
304.50 6.121
304.60 6.114
304.70 6.107
304.80 6.099
304.90 6.092
305.00 6.084
305.10 6.077
305.20 6.07
305.30 6.062
305.40 6.055
305.50 6.048
305.60 6.041
305.70 6.033
305.80 6.026
305.90 6.019
306.00 6.012
306.10 6.004
306.20 5.997
306.30 5.99
306.40 5.983
306.50 5.976
306.60 5.968
306.70 5.961
306.80 5.954
306.90 5.947
307.00 5.94
307.10 5.933
307.20 5.925
307.30 5.918
307.40 5.911
307.50 5.904
307.60 5.897
307.70 5.89
307.80 5.883
307.90 5.876
308.00 5.869
308.10 5.862
308.20 5.855
308.30 5.848
308.40 5.841
308.50 5.834
308.60 5.827
308.70 5.82
308.80 5.813
308.90 5.806
309.00 5.799
309.10 5.792
309.20 5.785
309.30 5.779
309.40 5.772
309.50 5.765
309.60 5.758
309.70 5.751
309.80 5.744
309.90 5.737
310.00 5.731
310.10 5.724
310.20 5.717
310.30 5.71
310.40 5.703
310.50 5.697
310.60 5.69
310.70 5.683
310.80 5.676
310.90 5.67
311.00 5.663
311.10 5.656
311.20 5.65
311.30 5.643
311.40 5.636
311.50 5.629
311.60 5.623
311.70 5.616
311.80 5.61
311.90 5.603
312.00 5.596
312.10 5.59
312.20 5.583
312.30 5.576
312.40 5.57
312.50 5.563
312.60 5.557
312.70 5.55
312.80 5.544
312.90 5.537
313.00 5.531
313.10 5.524
313.20 5.518
313.30 5.511
313.40 5.505
313.50 5.498
313.60 5.492
313.70 5.485
313.80 5.479
313.90 5.472
314.00 5.466
314.10 5.459
314.20 5.453
314.30 5.447
314.40 5.44
314.50 5.434
314.60 5.427
314.70 5.421
314.80 5.415
314.90 5.408
315.00 5.402
315.10 5.396
315.20 5.389
315.30 5.383
315.40 5.377
315.50 5.371
315.60 5.364
315.70 5.358
315.80 5.352
315.90 5.346
316.00 5.339
316.10 5.333
316.20 5.327
316.30 5.321
316.40 5.314
316.50 5.308
316.60 5.302
316.70 5.296
316.80 5.29
316.90 5.283
317.00 5.277
317.10 5.271
317.20 5.265
317.30 5.259
317.40 5.253
317.50 5.247
317.60 5.241
317.70 5.235
317.80 5.228
317.90 5.222
318.00 5.216
318.10 5.21
318.20 5.204
318.30 5.198
318.40 5.192
318.50 5.186
318.60 5.18
318.70 5.174
318.80 5.168
318.90 5.162
319.00 5.156
319.10 5.15
319.20 5.144
319.30 5.138
319.40 5.132
319.50 5.126
319.60 5.12
319.70 5.115
319.80 5.109
319.90 5.103
320.00 5.097
320.10 5.091
320.20 5.085
320.30 5.079
320.40 5.073
320.50 5.068
320.60 5.062
320.70 5.056
320.80 5.05
320.90 5.044
321.00 5.038
321.10 5.033
321.20 5.027
321.30 5.021
321.40 5.015
321.50 5.01
321.60 5.004
321.70 4.998
321.80 4.992
321.90 4.987
322.00 4.981
322.10 4.975
322.20 4.969
322.30 4.964
322.40 4.958
322.50 4.952
322.60 4.947
322.70 4.941
322.80 4.935
322.90 4.93
323.00 4.924
323.10 4.918
323.20 4.913
323.30 4.907
323.40 4.902
323.50 4.896
323.60 4.89
323.70 4.885
323.80 4.879
323.90 4.874
324.00 4.868
324.10 4.863
324.20 4.857
324.30 4.852
324.40 4.846
324.50 4.84
324.60 4.835
324.70 4.829
324.80 4.824
324.90 4.818
325.00 4.813
325.10 4.808
325.20 4.802
325.30 4.797
325.40 4.791
325.50 4.786
325.60 4.78
325.70 4.775
325.80 4.769
325.90 4.764
326.00 4.759
326.10 4.753
326.20 4.748
326.30 4.742
326.40 4.737
326.50 4.732
326.60 4.726
326.70 4.721
326.80 4.716
326.90 4.71
327.00 4.705
327.10 4.7
327.20 4.694
327.30 4.689
327.40 4.684
327.50 4.678
327.60 4.673
327.70 4.668
327.80 4.663
327.90 4.657
328.00 4.652
328.10 4.647
328.20 4.642
328.30 4.636
328.40 4.631
328.50 4.626
328.60 4.621
328.70 4.616
328.80 4.61
328.90 4.605
329.00 4.6
329.10 4.595
329.20 4.59
329.30 4.584
329.40 4.579
329.50 4.574
329.60 4.569
329.70 4.564
329.80 4.559
329.90 4.554
330.00 4.549
330.10 4.544
330.20 4.538
330.30 4.533
330.40 4.528
330.50 4.523
330.60 4.518
330.70 4.513
330.80 4.508
330.90 4.503
331.00 4.498
331.10 4.493
331.20 4.488
331.30 4.483
331.40 4.478
331.50 4.473
331.60 4.468
331.70 4.463
331.80 4.458
331.90 4.453
332.00 4.448
332.10 4.443
332.20 4.438
332.30 4.433
332.40 4.428
332.50 4.423
332.60 4.418
332.70 4.413
332.80 4.409
332.90 4.404
333.00 4.399
333.10 4.394
333.20 4.389
333.30 4.384
333.40 4.379
333.50 4.374
333.60 4.369
333.70 4.365
333.80 4.36
333.90 4.355
334.00 4.35
334.10 4.345
334.20 4.34
334.30 4.336
334.40 4.331
334.50 4.326
334.60 4.321
334.70 4.317
334.80 4.312
334.90 4.307
335.00 4.302
335.10 4.297
335.20 4.293
335.30 4.288
335.40 4.283
335.50 4.279
335.60 4.274
335.70 4.269
335.80 4.264
335.90 4.26
336.00 4.255
336.10 4.25
336.20 4.246
336.30 4.241
336.40 4.236
336.50 4.232
336.60 4.227
336.70 4.222
336.80 4.218
336.90 4.213
337.00 4.208
337.10 4.204
337.20 4.199
337.30 4.195
337.40 4.19
337.50 4.185
337.60 4.181
337.70 4.176
337.80 4.171
337.90 4.167
338.00 4.162
338.10 4.158
338.20 4.153
338.30 4.149
338.40 4.144
338.50 4.14
338.60 4.135
338.70 4.131
338.80 4.126
338.90 4.122
339.00 4.117
339.10 4.113
339.20 4.108
339.30 4.104
339.40 4.099
339.50 4.095
339.60 4.09
339.70 4.086
339.80 4.081
339.90 4.077
340.00 4.072
340.10 4.068
340.20 4.063
340.30 4.059
340.40 4.055
340.50 4.05
340.60 4.046
340.70 4.041
340.80 4.037
340.90 4.033
341.00 4.028
341.10 4.024
341.20 4.019
341.30 4.015
341.40 4.011
341.50 4.006
341.60 4.002
341.70 3.998
341.80 3.993
341.90 3.989
342.00 3.985
342.10 3.98
342.20 3.976
342.30 3.972
342.40 3.967
342.50 3.963
342.60 3.959
342.70 3.955
342.80 3.95
342.90 3.946
343.00 3.942
343.10 3.937
343.20 3.933
343.30 3.929
343.40 3.925
343.50 3.92
343.60 3.916
343.70 3.912
343.80 3.908
343.90 3.904
344.00 3.899
344.10 3.895
344.20 3.891
344.30 3.887
344.40 3.883
344.50 3.878
344.60 3.874
344.70 3.87
344.80 3.866
344.90 3.862
345.00 3.858
345.10 3.853
345.20 3.849
345.30 3.845
345.40 3.841
345.50 3.837
345.60 3.833
345.70 3.829
345.80 3.824
345.90 3.82
346.00 3.816
346.10 3.812
346.20 3.808
346.30 3.804
346.40 3.8
346.50 3.796
346.60 3.792
346.70 3.788
346.80 3.784
346.90 3.78
347.00 3.776
347.10 3.772
347.20 3.768
347.30 3.764
347.40 3.76
347.50 3.756
347.60 3.751
347.70 3.747
347.80 3.743
347.90 3.739
348.00 3.735
348.10 3.731
348.20 3.728
348.30 3.724
348.40 3.72
348.50 3.716
348.60 3.712
348.70 3.708
348.80 3.704
348.90 3.7
349.00 3.696
349.10 3.692
349.20 3.688
349.30 3.684
349.40 3.68
349.50 3.676
349.60 3.672
349.70 3.668
349.80 3.665
349.90 3.661
350.00 3.657
350.10 3.653
350.20 3.649
350.30 3.645
350.40 3.641
350.50 3.637
350.60 3.634
350.70 3.63
350.80 3.626
350.90 3.622
351.00 3.618
351.10 3.614
351.20 3.611
351.30 3.607
351.40 3.603
351.50 3.599
351.60 3.595
351.70 3.592
351.80 3.588
351.90 3.584
352.00 3.58
352.10 3.576
352.20 3.573
352.30 3.569
352.40 3.565
352.50 3.561
352.60 3.558
352.70 3.554
352.80 3.55
352.90 3.546
353.00 3.543
353.10 3.539
353.20 3.535
353.30 3.531
353.40 3.528
353.50 3.524
353.60 3.52
353.70 3.517
353.80 3.513
353.90 3.509
354.00 3.506
354.10 3.502
354.20 3.498
354.30 3.495
354.40 3.491
354.50 3.487
354.60 3.484
354.70 3.48
354.80 3.476
354.90 3.473
355.00 3.469
355.10 3.465
355.20 3.462
355.30 3.458
355.40 3.454
355.50 3.451
355.60 3.447
355.70 3.444
355.80 3.44
355.90 3.436
356.00 3.433
356.10 3.429
356.20 3.426
356.30 3.422
356.40 3.419
356.50 3.415
356.60 3.411
356.70 3.408
356.80 3.404
356.90 3.401
357.00 3.397
357.10 3.394
357.20 3.39
357.30 3.387
357.40 3.383
357.50 3.38
357.60 3.376
357.70 3.373
357.80 3.369
357.90 3.365
358.00 3.362
358.10 3.359
358.20 3.355
358.30 3.352
358.40 3.348
358.50 3.345
358.60 3.341
358.70 3.338
358.80 3.334
358.90 3.331
359.00 3.327
359.10 3.324
359.20 3.32
359.30 3.317
359.40 3.314
359.50 3.31
359.60 3.307
359.70 3.303
359.80 3.3
359.90 3.296
360.00 3.293
360.10 3.29
360.20 3.286
360.30 3.283
360.40 3.279
360.50 3.276
360.60 3.273
360.70 3.269
360.80 3.266
360.90 3.263
361.00 3.259
361.10 3.256
361.20 3.253
361.30 3.249
361.40 3.246
361.50 3.242
361.60 3.239
361.70 3.236
361.80 3.232
361.90 3.229
362.00 3.226
362.10 3.222
362.20 3.219
362.30 3.216
362.40 3.213
362.50 3.209
362.60 3.206
362.70 3.203
362.80 3.199
362.90 3.196
363.00 3.193
363.10 3.19
363.20 3.186
363.30 3.183
363.40 3.18
363.50 3.177
363.60 3.173
363.70 3.17
363.80 3.167
363.90 3.164
364.00 3.16
364.10 3.157
364.20 3.154
364.30 3.151
364.40 3.147
364.50 3.144
364.60 3.141
364.70 3.138
364.80 3.135
364.90 3.131
365.00 3.128
365.10 3.125
365.20 3.122
365.30 3.119
365.40 3.115
365.50 3.112
365.60 3.109
365.70 3.106
365.80 3.103
365.90 3.1
366.00 3.096
366.10 3.093
366.20 3.09
366.30 3.087
366.40 3.083
366.50 3.08
366.60 3.077
366.70 3.074
366.80 3.071
366.90 3.067
367.00 3.064
367.10 3.061
367.20 3.058
367.30 3.054
367.40 3.051
367.50 3.048
367.60 3.045
367.70 3.042
367.80 3.038
367.90 3.035
368.00 3.032
368.10 3.029
368.20 3.026
368.30 3.023
368.40 3.019
368.50 3.016
368.60 3.013
368.70 3.01
368.80 3.007
368.90 3.004
369.00 3.001
369.10 2.997
369.20 2.994
369.30 2.991
369.40 2.988
369.50 2.985
369.60 2.982
369.70 2.979
369.80 2.976
369.90 2.973
370.00 2.969
370.10 2.966
370.20 2.963
370.30 2.96
370.40 2.957
370.50 2.954
370.60 2.951
370.70 2.948
370.80 2.945
370.90 2.942
371.00 2.939
371.10 2.936
371.20 2.933
371.30 2.93
371.40 2.927
371.50 2.924
371.60 2.921
371.70 2.918
371.80 2.915
371.90 2.912
372.00 2.909
372.10 2.906
372.20 2.903
372.30 2.901
372.40 2.898
372.50 2.895
372.60 2.892
372.70 2.889
372.80 2.886
372.90 2.884
373.00 2.881
373.10 2.878
373.20 2.875
373.30 2.872
373.40 2.87
373.50 2.867
373.60 2.864
373.70 2.861
373.80 2.859
373.90 2.856
374.00 2.853
374.10 2.85
374.20 2.848
374.30 2.845
374.40 2.842
374.50 2.84
374.60 2.837
374.70 2.835
374.80 2.832
374.90 2.829
375.00 2.827
375.10 2.824
375.20 2.822
375.30 2.819
375.40 2.816
375.50 2.814
375.60 2.811
375.70 2.809
375.80 2.806
375.90 2.803
376.00 2.801
376.10 2.798
376.20 2.795
376.30 2.791
376.40 2.788
376.50 2.785
376.60 2.782
376.70 2.779
376.80 2.776
376.90 2.773
377.00 2.769
377.10 2.768
377.20 2.766
377.30 2.764
377.40 2.763
377.50 2.761
377.60 2.759
377.70 2.758
377.80 2.756
377.90 2.754
378.00 2.753
378.10 2.749
378.20 2.746
378.30 2.743
378.40 2.74
378.50 2.737
378.60 2.734
378.70 2.73
378.80 2.727
378.90 2.724
379.00 2.721
379.10 2.717
379.20 2.714
379.30 2.71
379.40 2.707
379.50 2.703
379.60 2.7
379.70 2.696
379.80 2.692
379.90 2.689
380.00 2.685
380.10 2.685
380.20 2.685
380.30 2.685
380.40 2.685
380.50 2.685
380.60 2.685
380.70 2.685
380.80 2.685
380.90 2.685
381.00 2.685
381.10 2.683
381.20 2.681
381.30 2.679
381.40 2.677
381.50 2.675
381.60 2.672
381.70 2.668
381.80 2.665
381.90 2.661
382.00 2.657
382.10 2.652
382.20 2.647
382.30 2.64
382.40 2.633
382.50 2.626
382.60 2.619
382.70 2.612
382.80 2.605
382.90 2.598
383.00 2.591
383.10 2.584
383.20 2.577
383.30 2.568
383.40 2.56
383.50 2.553
383.60 2.552
383.70 2.555
383.80 2.56
383.90 2.564
384.00 2.569
384.10 2.573
384.20 2.577
384.30 2.58
384.40 2.583
384.50 2.586
384.60 2.589
384.70 2.591
384.80 2.593
384.90 2.594
385.00 2.595
385.10 2.596
385.20 2.596
385.30 2.596
385.40 2.596
385.50 2.596
385.60 2.595
385.70 2.594
385.80 2.592
385.90 2.59
386.00 2.588
386.10 2.586
386.20 2.583
386.30 2.58
386.40 2.577
386.50 2.573
386.60 2.569
386.70 2.565
386.80 2.56
386.90 2.555
387.00 2.549
387.10 2.543
387.20 2.536
387.30 2.529
387.40 2.522
387.50 2.514
387.60 2.505
387.70 2.496
387.80 2.487
387.90 2.476
388.00 2.465
388.10 2.454
388.20 2.441
388.30 2.429
388.40 2.415
388.50 2.401
388.60 2.387
388.70 2.372
388.80 2.362
388.90 2.354
389.00 2.357
389.10 2.363
389.20 2.373
389.30 2.383
389.40 2.393
389.50 2.402
389.60 2.411
389.70 2.419
389.80 2.427
389.90 2.433
390.00 2.44
390.10 2.445
390.20 2.45
390.30 2.455
390.40 2.459
390.50 2.462
390.60 2.465
390.70 2.468
390.80 2.47
390.90 2.472
391.00 2.474
391.10 2.475
391.20 2.476
391.30 2.476
391.40 2.477
391.50 2.477
391.60 2.477
391.70 2.476
391.80 2.476
391.90 2.475
392.00 2.474
392.10 2.473
392.20 2.472
392.30 2.47
392.40 2.469
392.50 2.467
392.60 2.465
392.70 2.463
392.80 2.461
392.90 2.459
393.00 2.457
393.10 2.454
393.20 2.451
393.30 2.449
393.40 2.446
393.50 2.442
393.60 2.439
393.70 2.436
393.80 2.432
393.90 2.428
394.00 2.425
394.10 2.42
394.20 2.416
394.30 2.411
394.40 2.406
394.50 2.401
394.60 2.396
394.70 2.39
394.80 2.383
394.90 2.377
395.00 2.37
395.10 2.362
395.20 2.354
395.30 2.346
395.40 2.336
395.50 2.327
395.60 2.316
395.70 2.305
395.80 2.293
395.90 2.28
396.00 2.266
396.10 2.252
396.20 2.236
396.30 2.219
396.40 2.202
396.50 2.183
396.60 2.163
396.70 2.142
396.80 2.119
396.90 2.097
397.00 2.074
397.10 2.091
397.20 2.109
397.30 2.128
397.40 2.145
397.50 2.161
397.60 2.176
397.70 2.19
397.80 2.202
397.90 2.214
398.00 2.225
398.10 2.234
398.20 2.243
398.30 2.251
398.40 2.258
398.50 2.264
398.60 2.269
398.70 2.274
398.80 2.279
398.90 2.282
399.00 2.286
399.10 2.289
399.20 2.291
399.30 2.293
399.40 2.295
399.50 2.296
399.60 2.297
399.70 2.298
399.80 2.298
399.90 2.299
400.00 2.299
400.10 2.299
400.20 2.298
400.30 2.298
400.40 2.297
400.50 2.297
400.60 2.296
400.70 2.295
400.80 2.294
400.90 2.293
401.00 2.292
401.10 2.291
401.20 2.289
401.30 2.288
401.40 2.286
401.50 2.285
401.60 2.283
401.70 2.282
401.80 2.28
401.90 2.279
402.00 2.277
402.10 2.275
402.20 2.273
402.30 2.272
402.40 2.27
402.50 2.268
402.60 2.266
402.70 2.264
402.80 2.262
402.90 2.26
403.00 2.258
403.10 2.256
403.20 2.254
403.30 2.252
403.40 2.25
403.50 2.248
403.60 2.246
403.70 2.244
403.80 2.242
403.90 2.24
404.00 2.237
404.10 2.235
404.20 2.233
404.30 2.231
404.40 2.228
404.50 2.226
404.60 2.224
404.70 2.222
404.80 2.219
404.90 2.217
405.00 2.215
405.10 2.212
405.20 2.21
405.30 2.207
405.40 2.205
405.50 2.202
405.60 2.199
405.70 2.197
405.80 2.194
405.90 2.191
406.00 2.188
406.10 2.186
406.20 2.183
406.30 2.18
406.40 2.176
406.50 2.173
406.60 2.17
406.70 2.167
406.80 2.163
406.90 2.159
407.00 2.156
407.10 2.152
407.20 2.147
407.30 2.143
407.40 2.139
407.50 2.134
407.60 2.129
407.70 2.123
407.80 2.118
407.90 2.112
408.00 2.105
408.10 2.099
408.20 2.091
408.30 2.083
408.40 2.075
408.50 2.066
408.60 2.057
408.70 2.046
408.80 2.035
408.90 2.023
409.00 2.01
409.10 1.996
409.20 1.981
409.30 1.965
409.40 1.947
409.50 1.928
409.60 1.908
409.70 1.886
409.80 1.862
409.90 1.836
410.00 1.804
410.10 1.781
410.20 1.768
410.30 1.79
410.40 1.814
410.50 1.84
410.60 1.861
410.70 1.881
410.80 1.899
410.90 1.914
411.00 1.929
411.10 1.942
411.20 1.954
411.30 1.964
411.40 1.974
411.50 1.983
411.60 1.99
411.70 1.997
411.80 2.003
411.90 2.009
412.00 2.013
412.10 2.017
412.20 2.021
412.30 2.024
412.40 2.026
412.50 2.029
412.60 2.031
412.70 2.032
412.80 2.033
412.90 2.034
413.00 2.035
413.10 2.035
413.20 2.036
413.30 2.036
413.40 2.036
413.50 2.035
413.60 2.035
413.70 2.035
413.80 2.034
413.90 2.033
414.00 2.033
414.10 2.032
414.20 2.031
414.30 2.03
414.40 2.029
414.50 2.028
414.60 2.026
414.70 2.025
414.80 2.024
414.90 2.023
415.00 2.021
415.10 2.02
415.20 2.019
415.30 2.017
415.40 2.016
415.50 2.014
415.60 2.013
415.70 2.011
415.80 2.01
415.90 2.008
416.00 2.007
416.10 2.005
416.20 2.004
416.30 2.002
416.40 2
416.50 1.999
416.60 1.997
416.70 1.996
416.80 1.994
416.90 1.992
417.00 1.991
417.10 1.989
417.20 1.987
417.30 1.986
417.40 1.984
417.50 1.982
417.60 1.981
417.70 1.979
417.80 1.977
417.90 1.975
418.00 1.974
418.10 1.972
418.20 1.97
418.30 1.969
418.40 1.967
418.50 1.965
418.60 1.964
418.70 1.962
418.80 1.96
418.90 1.958
419.00 1.957
419.10 1.955
419.20 1.953
419.30 1.952
419.40 1.95
419.50 1.948
419.60 1.946
419.70 1.945
419.80 1.943
419.90 1.941
420.00 1.939
420.10 1.938
420.20 1.936
420.30 1.934
420.40 1.933
420.50 1.931
420.60 1.929
420.70 1.927
420.80 1.926
420.90 1.924
421.00 1.922
421.10 1.921
421.20 1.919
421.30 1.917
421.40 1.915
421.50 1.914
421.60 1.912
421.70 1.91
421.80 1.909
421.90 1.907
422.00 1.905
422.10 1.903
422.20 1.902
422.30 1.9
422.40 1.898
422.50 1.897
422.60 1.895
422.70 1.893
422.80 1.892
422.90 1.89
423.00 1.888
423.10 1.886
423.20 1.885
423.30 1.883
423.40 1.881
423.50 1.88
423.60 1.878
423.70 1.876
423.80 1.874
423.90 1.873
424.00 1.871
424.10 1.869
424.20 1.868
424.30 1.866
424.40 1.864
424.50 1.863
424.60 1.861
424.70 1.859
424.80 1.857
424.90 1.856
425.00 1.854
425.10 1.852
425.20 1.851
425.30 1.849
425.40 1.847
425.50 1.846
425.60 1.844
425.70 1.842
425.80 1.84
425.90 1.839
426.00 1.837
426.10 1.835
426.20 1.834
426.30 1.832
426.40 1.83
426.50 1.828
426.60 1.827
426.70 1.825
426.80 1.823
426.90 1.821
427.00 1.82
427.10 1.818
427.20 1.816
427.30 1.814
427.40 1.813
427.50 1.811
427.60 1.809
427.70 1.807
427.80 1.806
427.90 1.804
428.00 1.802
428.10 1.8
428.20 1.798
428.30 1.797
428.40 1.795
428.50 1.793
428.60 1.791
428.70 1.789
428.80 1.787
428.90 1.785
429.00 1.783
429.10 1.781
429.20 1.779
429.30 1.777
429.40 1.775
429.50 1.773
429.60 1.771
429.70 1.769
429.80 1.767
429.90 1.764
430.00 1.762
430.10 1.76
430.20 1.757
430.30 1.755
430.40 1.753
430.50 1.75
430.60 1.747
430.70 1.744
430.80 1.742
430.90 1.739
431.00 1.735
431.10 1.732
431.20 1.729
431.30 1.725
431.40 1.721
431.50 1.718
431.60 1.713
431.70 1.709
431.80 1.704
431.90 1.699
432.00 1.693
432.10 1.688
432.20 1.681
432.30 1.674
432.40 1.667
432.50 1.659
432.60 1.65
432.70 1.641
432.80 1.63
432.90 1.619
433.00 1.607
433.10 1.594
433.20 1.579
433.30 1.564
433.40 1.546
433.50 1.528
433.60 1.508
433.70 1.484
433.80 1.455
433.90 1.422
434.00 1.387
434.10 1.386
434.20 1.422
434.30 1.452
434.40 1.477
434.50 1.498
434.60 1.515
434.70 1.531
434.80 1.546
434.90 1.558
435.00 1.57
435.10 1.58
435.20 1.589
435.30 1.597
435.40 1.605
435.50 1.611
435.60 1.616
435.70 1.622
435.80 1.626
435.90 1.63
436.00 1.633
436.10 1.636
436.20 1.638
436.30 1.64
436.40 1.642
436.50 1.643
436.60 1.644
436.70 1.645
436.80 1.646
436.90 1.646
437.00 1.647
437.10 1.647
437.20 1.647
437.30 1.647
437.40 1.647
437.50 1.646
437.60 1.646
437.70 1.646
437.80 1.645
437.90 1.644
438.00 1.644
438.10 1.643
438.20 1.642
438.30 1.641
438.40 1.641
438.50 1.64
438.60 1.639
438.70 1.638
438.80 1.637
438.90 1.636
439.00 1.635
439.10 1.634
439.20 1.633
439.30 1.631
439.40 1.63
439.50 1.629
439.60 1.628
439.70 1.627
439.80 1.626
439.90 1.624
440.00 1.623
440.10 1.622
440.20 1.621
440.30 1.62
440.40 1.618
440.50 1.617
440.60 1.616
440.70 1.615
440.80 1.613
440.90 1.612
441.00 1.611
441.10 1.61
441.20 1.608
441.30 1.607
441.40 1.606
441.50 1.604
441.60 1.603
441.70 1.602
441.80 1.6
441.90 1.599
442.00 1.598
442.10 1.597
442.20 1.595
442.30 1.594
442.40 1.593
442.50 1.591
442.60 1.59
442.70 1.589
442.80 1.587
442.90 1.586
443.00 1.585
443.10 1.583
443.20 1.582
443.30 1.581
443.40 1.58
443.50 1.578
443.60 1.577
443.70 1.576
443.80 1.574
443.90 1.573
444.00 1.572
444.10 1.57
444.20 1.569
444.30 1.568
444.40 1.566
444.50 1.565
444.60 1.564
444.70 1.562
444.80 1.561
444.90 1.56
445.00 1.559
445.10 1.557
445.20 1.556
445.30 1.555
445.40 1.553
445.50 1.552
445.60 1.551
445.70 1.549
445.80 1.548
445.90 1.547
446.00 1.545
446.10 1.544
446.20 1.543
446.30 1.542
446.40 1.54
446.50 1.539
446.60 1.538
446.70 1.536
446.80 1.535
446.90 1.534
447.00 1.533
447.10 1.531
447.20 1.53
447.30 1.529
447.40 1.527
447.50 1.526
447.60 1.525
447.70 1.523
447.80 1.522
447.90 1.521
448.00 1.52
448.10 1.518
448.20 1.517
448.30 1.516
448.40 1.515
448.50 1.513
448.60 1.512
448.70 1.511
448.80 1.509
448.90 1.508
449.00 1.507
449.10 1.506
449.20 1.504
449.30 1.503
449.40 1.502
449.50 1.501
449.60 1.499
449.70 1.498
449.80 1.497
449.90 1.496
450.00 1.494
450.10 1.493
450.20 1.492
450.30 1.49
450.40 1.489
450.50 1.488
450.60 1.487
450.70 1.485
450.80 1.484
450.90 1.483
451.00 1.482
451.10 1.48
451.20 1.479
451.30 1.478
451.40 1.477
451.50 1.476
451.60 1.474
451.70 1.473
451.80 1.472
451.90 1.471
452.00 1.469
452.10 1.468
452.20 1.467
452.30 1.466
452.40 1.464
452.50 1.463
452.60 1.462
452.70 1.461
452.80 1.459
452.90 1.458
453.00 1.457
453.10 1.456
453.20 1.455
453.30 1.453
453.40 1.452
453.50 1.451
453.60 1.45
453.70 1.449
453.80 1.447
453.90 1.446
454.00 1.445
454.10 1.444
454.20 1.442
454.30 1.441
454.40 1.44
454.50 1.439
454.60 1.438
454.70 1.436
454.80 1.435
454.90 1.434
455.00 1.433
455.10 1.432
455.20 1.43
455.30 1.429
455.40 1.428
455.50 1.427
455.60 1.426
455.70 1.425
455.80 1.423
455.90 1.422
456.00 1.421
456.10 1.42
456.20 1.419
456.30 1.417
456.40 1.416
456.50 1.415
456.60 1.414
456.70 1.413
456.80 1.412
456.90 1.41
457.00 1.409
457.10 1.408
457.20 1.407
457.30 1.406
457.40 1.404
457.50 1.403
457.60 1.402
457.70 1.401
457.80 1.4
457.90 1.399
458.00 1.398
458.10 1.396
458.20 1.395
458.30 1.394
458.40 1.393
458.50 1.392
458.60 1.391
458.70 1.389
458.80 1.388
458.90 1.387
459.00 1.386
459.10 1.385
459.20 1.384
459.30 1.383
459.40 1.381
459.50 1.38
459.60 1.379
459.70 1.378
459.80 1.377
459.90 1.376
460.00 1.375
460.10 1.373
460.20 1.372
460.30 1.371
460.40 1.37
460.50 1.369
460.60 1.368
460.70 1.367
460.80 1.365
460.90 1.364
461.00 1.363
461.10 1.362
461.20 1.361
461.30 1.36
461.40 1.359
461.50 1.358
461.60 1.356
461.70 1.355
461.80 1.354
461.90 1.353
462.00 1.352
462.10 1.351
462.20 1.35
462.30 1.349
462.40 1.348
462.50 1.346
462.60 1.345
462.70 1.344
462.80 1.343
462.90 1.342
463.00 1.341
463.10 1.34
463.20 1.339
463.30 1.338
463.40 1.336
463.50 1.335
463.60 1.334
463.70 1.333
463.80 1.332
463.90 1.331
464.00 1.33
464.10 1.329
464.20 1.328
464.30 1.327
464.40 1.326
464.50 1.324
464.60 1.323
464.70 1.322
464.80 1.321
464.90 1.32
465.00 1.319
465.10 1.318
465.20 1.317
465.30 1.316
465.40 1.315
465.50 1.314
465.60 1.313
465.70 1.311
465.80 1.31
465.90 1.309
466.00 1.308
466.10 1.307
466.20 1.306
466.30 1.305
466.40 1.304
466.50 1.303
466.60 1.302
466.70 1.301
466.80 1.3
466.90 1.299
467.00 1.298
467.10 1.297
467.20 1.295
467.30 1.294
467.40 1.293
467.50 1.292
467.60 1.291
467.70 1.29
467.80 1.289
467.90 1.288
468.00 1.287
468.10 1.286
468.20 1.285
468.30 1.284
468.40 1.283
468.50 1.282
468.60 1.281
468.70 1.28
468.80 1.279
468.90 1.278
469.00 1.277
469.10 1.276
469.20 1.274
469.30 1.273
469.40 1.272
469.50 1.271
469.60 1.27
469.70 1.269
469.80 1.268
469.90 1.267
470.00 1.266
470.10 1.265
470.20 1.264
470.30 1.263
470.40 1.262
470.50 1.261
470.60 1.26
470.70 1.259
470.80 1.258
470.90 1.257
471.00 1.256
471.10 1.255
471.20 1.254
471.30 1.253
471.40 1.252
471.50 1.251
471.60 1.25
471.70 1.249
471.80 1.248
471.90 1.247
472.00 1.246
472.10 1.245
472.20 1.244
472.30 1.243
472.40 1.242
472.50 1.241
472.60 1.24
472.70 1.239
472.80 1.238
472.90 1.237
473.00 1.236
473.10 1.235
473.20 1.234
473.30 1.233
473.40 1.232
473.50 1.231
473.60 1.23
473.70 1.229
473.80 1.228
473.90 1.227
474.00 1.226
474.10 1.225
474.20 1.224
474.30 1.223
474.40 1.222
474.50 1.221
474.60 1.22
474.70 1.219
474.80 1.218
474.90 1.217
475.00 1.216
475.10 1.215
475.20 1.214
475.30 1.213
475.40 1.212
475.50 1.211
475.60 1.21
475.70 1.209
475.80 1.208
475.90 1.207
476.00 1.206
476.10 1.205
476.20 1.204
476.30 1.203
476.40 1.202
476.50 1.201
476.60 1.2
476.70 1.199
476.80 1.198
476.90 1.197
477.00 1.196
477.10 1.195
477.20 1.194
477.30 1.193
477.40 1.192
477.50 1.191
477.60 1.19
477.70 1.189
477.80 1.188
477.90 1.187
478.00 1.186
478.10 1.185
478.20 1.184
478.30 1.183
478.40 1.182
478.50 1.181
478.60 1.18
478.70 1.179
478.80 1.178
478.90 1.177
479.00 1.176
479.10 1.175
479.20 1.174
479.30 1.173
479.40 1.171
479.50 1.17
479.60 1.169
479.70 1.168
479.80 1.167
479.90 1.166
480.00 1.165
480.10 1.164
480.20 1.163
480.30 1.162
480.40 1.161
480.50 1.16
480.60 1.159
480.70 1.157
480.80 1.156
480.90 1.155
481.00 1.154
481.10 1.153
481.20 1.152
481.30 1.151
481.40 1.149
481.50 1.148
481.60 1.147
481.70 1.145
481.80 1.144
481.90 1.143
482.00 1.142
482.10 1.14
482.20 1.139
482.30 1.137
482.40 1.136
482.50 1.134
482.60 1.132
482.70 1.131
482.80 1.129
482.90 1.127
483.00 1.126
483.10 1.124
483.20 1.122
483.30 1.119
483.40 1.117
483.50 1.114
483.60 1.111
483.70 1.109
483.80 1.106
483.90 1.104
484.00 1.101
484.10 1.098
484.20 1.095
484.30 1.09
484.40 1.086
484.50 1.082
484.60 1.078
484.70 1.072
484.80 1.065
484.90 1.059
485.00 1.053
485.10 1.046
485.20 1.038
485.30 1.03
485.40 1.02
485.50 1.009
485.60 0.9973
485.70 0.9843
485.80 0.9665
485.90 0.9465
486.00 0.9155
486.10 0.8796
486.20 0.885
486.30 0.9267
486.40 0.9492
486.50 0.9679
486.60 0.9818
486.70 0.9933
486.80 1.003
486.90 1.012
487.00 1.019
487.10 1.026
487.20 1.032
487.30 1.036
487.40 1.041
487.50 1.046
487.60 1.05
487.70 1.054
487.80 1.056
487.90 1.059
488.00 1.061
488.10 1.064
488.20 1.065
488.30 1.066
488.40 1.067
488.50 1.067
488.60 1.068
488.70 1.069
488.80 1.07
488.90 1.071
489.00 1.072
489.10 1.072
489.20 1.073
489.30 1.072
489.40 1.072
489.50 1.072
489.60 1.072
489.70 1.072
489.80 1.072
489.90 1.072
490.00 1.071
490.10 1.071
490.20 1.071
490.30 1.07
490.40 1.07
490.50 1.069
490.60 1.069
490.70 1.068
490.80 1.068
490.90 1.067
491.00 1.067
491.10 1.066
491.20 1.066
491.30 1.065
491.40 1.064
491.50 1.064
491.60 1.063
491.70 1.062
491.80 1.062
491.90 1.061
492.00 1.06
492.10 1.06
492.20 1.059
492.30 1.058
492.40 1.058
492.50 1.057
492.60 1.056
492.70 1.056
492.80 1.055
492.90 1.054
493.00 1.053
493.10 1.053
493.20 1.052
493.30 1.051
493.40 1.05
493.50 1.05
493.60 1.049
493.70 1.048
493.80 1.047
493.90 1.047
494.00 1.046
494.10 1.045
494.20 1.044
494.30 1.044
494.40 1.043
494.50 1.042
494.60 1.041
494.70 1.041
494.80 1.04
494.90 1.039
495.00 1.038
495.10 1.038
495.20 1.037
495.30 1.036
495.40 1.035
495.50 1.034
495.60 1.034
495.70 1.033
495.80 1.032
495.90 1.031
496.00 1.031
496.10 1.03
496.20 1.029
496.30 1.028
496.40 1.028
496.50 1.027
496.60 1.026
496.70 1.025
496.80 1.024
496.90 1.024
497.00 1.023
497.10 1.022
497.20 1.021
497.30 1.021
497.40 1.02
497.50 1.019
497.60 1.018
497.70 1.018
497.80 1.017
497.90 1.016
498.00 1.015
498.10 1.014
498.20 1.014
498.30 1.013
498.40 1.012
498.50 1.011
498.60 1.011
498.70 1.01
498.80 1.009
498.90 1.008
499.00 1.008
499.10 1.007
499.20 1.006
499.30 1.005
499.40 1.005
499.50 1.004
499.60 1.003
499.70 1.002
499.80 1.002
499.90 1.001
500.00 1
500.10 0.9992
500.20 0.9985
500.30 0.9977
500.40 0.997
500.50 0.9962
500.60 0.9955
500.70 0.9947
500.80 0.994
500.90 0.9932
501.00 0.9925
501.10 0.9917
501.20 0.991
501.30 0.9902
501.40 0.9895
501.50 0.9887
501.60 0.988
501.70 0.9872
501.80 0.9865
501.90 0.9857
502.00 0.985
502.10 0.9842
502.20 0.9835
502.30 0.9827
502.40 0.982
502.50 0.9813
502.60 0.9805
502.70 0.9798
502.80 0.979
502.90 0.9783
503.00 0.9776
503.10 0.9768
503.20 0.9761
503.30 0.9754
503.40 0.9746
503.50 0.9739
503.60 0.9731
503.70 0.9724
503.80 0.9717
503.90 0.9709
504.00 0.9702
504.10 0.9695
504.20 0.9687
504.30 0.968
504.40 0.9673
504.50 0.9666
504.60 0.9658
504.70 0.9651
504.80 0.9644
504.90 0.9636
505.00 0.9629
505.10 0.9622
505.20 0.9615
505.30 0.9607
505.40 0.96
505.50 0.9593
505.60 0.9586
505.70 0.9578
505.80 0.9571
505.90 0.9564
506.00 0.9557
506.10 0.955
506.20 0.9542
506.30 0.9535
506.40 0.9528
506.50 0.9521
506.60 0.9514
506.70 0.9507
506.80 0.95
506.90 0.9492
507.00 0.9485
507.10 0.9478
507.20 0.9471
507.30 0.9464
507.40 0.9457
507.50 0.945
507.60 0.9443
507.70 0.9435
507.80 0.9428
507.90 0.9421
508.00 0.9414
508.10 0.9407
508.20 0.94
508.30 0.9393
508.40 0.9386
508.50 0.9379
508.60 0.9372
508.70 0.9365
508.80 0.9358
508.90 0.9351
509.00 0.9344
509.10 0.9337
509.20 0.933
509.30 0.9323
509.40 0.9316
509.50 0.9309
509.60 0.9302
509.70 0.9295
509.80 0.9288
509.90 0.9281
510.00 0.9274
510.10 0.9267
510.20 0.926
510.30 0.9253
510.40 0.9247
510.50 0.924
510.60 0.9233
510.70 0.9226
510.80 0.9219
510.90 0.9212
511.00 0.9205
511.10 0.9198
511.20 0.9191
511.30 0.9185
511.40 0.9178
511.50 0.9171
511.60 0.9164
511.70 0.9157
511.80 0.915
511.90 0.9144
512.00 0.9137
512.10 0.913
512.20 0.9123
512.30 0.9116
512.40 0.911
512.50 0.9103
512.60 0.9096
512.70 0.9089
512.80 0.9082
512.90 0.9076
513.00 0.9069
513.10 0.9062
513.20 0.9055
513.30 0.9049
513.40 0.9042
513.50 0.9035
513.60 0.9029
513.70 0.9022
513.80 0.9015
513.90 0.9008
514.00 0.9002
514.10 0.8995
514.20 0.8988
514.30 0.8982
514.40 0.8975
514.50 0.8968
514.60 0.8962
514.70 0.8955
514.80 0.8948
514.90 0.8942
515.00 0.8935
515.10 0.8929
515.20 0.8922
515.30 0.8915
515.40 0.8909
515.50 0.8902
515.60 0.8896
515.70 0.8889
515.80 0.8882
515.90 0.8876
516.00 0.8869
516.10 0.8863
516.20 0.8856
516.30 0.885
516.40 0.8843
516.50 0.8836
516.60 0.883
516.70 0.8823
516.80 0.8817
516.90 0.881
517.00 0.8804
517.10 0.8797
517.20 0.8791
517.30 0.8784
517.40 0.8778
517.50 0.8771
517.60 0.8765
517.70 0.8758
517.80 0.8752
517.90 0.8746
518.00 0.8739
518.10 0.8733
518.20 0.8726
518.30 0.872
518.40 0.8713
518.50 0.8707
518.60 0.8701
518.70 0.8694
518.80 0.8688
518.90 0.8681
519.00 0.8675
519.10 0.8669
519.20 0.8662
519.30 0.8656
519.40 0.8649
519.50 0.8643
519.60 0.8637
519.70 0.863
519.80 0.8624
519.90 0.8618
520.00 0.8611
520.10 0.8605
520.20 0.8599
520.30 0.8592
520.40 0.8586
520.50 0.858
520.60 0.8573
520.70 0.8567
520.80 0.8561
520.90 0.8555
521.00 0.8548
521.10 0.8542
521.20 0.8536
521.30 0.853
521.40 0.8523
521.50 0.8517
521.60 0.8511
521.70 0.8505
521.80 0.8498
521.90 0.8492
522.00 0.8486
522.10 0.848
522.20 0.8474
522.30 0.8467
522.40 0.8461
522.50 0.8455
522.60 0.8449
522.70 0.8443
522.80 0.8436
522.90 0.843
523.00 0.8424
523.10 0.8418
523.20 0.8412
523.30 0.8406
523.40 0.84
523.50 0.8393
523.60 0.8387
523.70 0.8381
523.80 0.8375
523.90 0.8369
524.00 0.8363
524.10 0.8357
524.20 0.8351
524.30 0.8345
524.40 0.8338
524.50 0.8332
524.60 0.8326
524.70 0.832
524.80 0.8314
524.90 0.8308
525.00 0.8302
525.10 0.8296
525.20 0.829
525.30 0.8284
525.40 0.8278
525.50 0.8272
525.60 0.8266
525.70 0.826
525.80 0.8254
525.90 0.8248
526.00 0.8242
526.10 0.8236
526.20 0.823
526.30 0.8224
526.40 0.8218
526.50 0.8212
526.60 0.8206
526.70 0.82
526.80 0.8194
526.90 0.8188
527.00 0.8182
527.10 0.8176
527.20 0.817
527.30 0.8164
527.40 0.8159
527.50 0.8153
527.60 0.8147
527.70 0.8141
527.80 0.8135
527.90 0.8129
528.00 0.8123
528.10 0.8117
528.20 0.8111
528.30 0.8106
528.40 0.81
528.50 0.8094
528.60 0.8088
528.70 0.8082
528.80 0.8076
528.90 0.807
529.00 0.8065
529.10 0.8059
529.20 0.8053
529.30 0.8047
529.40 0.8041
529.50 0.8035
529.60 0.803
529.70 0.8024
529.80 0.8018
529.90 0.8012
530.00 0.8007
530.10 0.8001
530.20 0.7995
530.30 0.7989
530.40 0.7983
530.50 0.7978
530.60 0.7972
530.70 0.7966
530.80 0.796
530.90 0.7955
531.00 0.7949
531.10 0.7943
531.20 0.7938
531.30 0.7932
531.40 0.7926
531.50 0.792
531.60 0.7915
531.70 0.7909
531.80 0.7903
531.90 0.7898
532.00 0.7892
532.10 0.7886
532.20 0.7881
532.30 0.7875
532.40 0.7869
532.50 0.7864
532.60 0.7858
532.70 0.7852
532.80 0.7847
532.90 0.7841
533.00 0.7836
533.10 0.783
533.20 0.7824
533.30 0.7819
533.40 0.7813
533.50 0.7807
533.60 0.7802
533.70 0.7796
533.80 0.7791
533.90 0.7785
534.00 0.778
534.10 0.7774
534.20 0.7768
534.30 0.7763
534.40 0.7757
534.50 0.7752
534.60 0.7746
534.70 0.7741
534.80 0.7735
534.90 0.773
535.00 0.7724
535.10 0.7719
535.20 0.7713
535.30 0.7707
535.40 0.7702
535.50 0.7696
535.60 0.7691
535.70 0.7686
535.80 0.768
535.90 0.7675
536.00 0.7669
536.10 0.7664
536.20 0.7658
536.30 0.7653
536.40 0.7647
536.50 0.7642
536.60 0.7636
536.70 0.7631
536.80 0.7625
536.90 0.762
537.00 0.7615
537.10 0.7609
537.20 0.7604
537.30 0.7598
537.40 0.7593
537.50 0.7587
537.60 0.7582
537.70 0.7577
537.80 0.7571
537.90 0.7566
538.00 0.7561
538.10 0.7555
538.20 0.755
538.30 0.7544
538.40 0.7539
538.50 0.7534
538.60 0.7528
538.70 0.7523
538.80 0.7518
538.90 0.7512
539.00 0.7507
539.10 0.7502
539.20 0.7496
539.30 0.7491
539.40 0.7486
539.50 0.748
539.60 0.7475
539.70 0.747
539.80 0.7465
539.90 0.7459
540.00 0.7454
540.10 0.7449
540.20 0.7443
540.30 0.7438
540.40 0.7433
540.50 0.7428
540.60 0.7422
540.70 0.7417
540.80 0.7412
540.90 0.7407
541.00 0.7401
541.10 0.7396
541.20 0.7391
541.30 0.7386
541.40 0.738
541.50 0.7375
541.60 0.737
541.70 0.7365
541.80 0.736
541.90 0.7354
542.00 0.7349
542.10 0.7344
542.20 0.7339
542.30 0.7334
542.40 0.7328
542.50 0.7323
542.60 0.7318
542.70 0.7313
542.80 0.7308
542.90 0.7303
543.00 0.7298
543.10 0.7292
543.20 0.7287
543.30 0.7282
543.40 0.7277
543.50 0.7272
543.60 0.7267
543.70 0.7262
543.80 0.7257
543.90 0.7251
544.00 0.7246
544.10 0.7241
544.20 0.7236
544.30 0.7231
544.40 0.7226
544.50 0.7221
544.60 0.7216
544.70 0.7211
544.80 0.7206
544.90 0.7201
545.00 0.7196
545.10 0.719
545.20 0.7185
545.30 0.718
545.40 0.7175
545.50 0.717
545.60 0.7165
545.70 0.716
545.80 0.7155
545.90 0.715
546.00 0.7145
546.10 0.714
546.20 0.7135
546.30 0.713
546.40 0.7125
546.50 0.712
546.60 0.7115
546.70 0.711
546.80 0.7105
546.90 0.71
547.00 0.7095
547.10 0.709
547.20 0.7085
547.30 0.708
547.40 0.7076
547.50 0.7071
547.60 0.7066
547.70 0.7061
547.80 0.7056
547.90 0.7051
548.00 0.7046
548.10 0.7041
548.20 0.7036
548.30 0.7031
548.40 0.7026
548.50 0.7021
548.60 0.7016
548.70 0.7012
548.80 0.7007
548.90 0.7002
549.00 0.6997
549.10 0.6992
549.20 0.6987
549.30 0.6982
549.40 0.6977
549.50 0.6973
549.60 0.6968
549.70 0.6963
549.80 0.6958
549.90 0.6953
550.00 0.6948
550.10 0.6943
550.20 0.6939
550.30 0.6934
550.40 0.6929
550.50 0.6924
550.60 0.6919
550.70 0.6915
550.80 0.691
550.90 0.6905
551.00 0.69
551.10 0.6895
551.20 0.6891
551.30 0.6886
551.40 0.6881
551.50 0.6876
551.60 0.6871
551.70 0.6867
551.80 0.6862
551.90 0.6857
552.00 0.6852
552.10 0.6848
552.20 0.6843
552.30 0.6838
552.40 0.6833
552.50 0.6829
552.60 0.6824
552.70 0.6819
552.80 0.6814
552.90 0.681
553.00 0.6805
553.10 0.68
553.20 0.6796
553.30 0.6791
553.40 0.6786
553.50 0.6782
553.60 0.6777
553.70 0.6772
553.80 0.6767
553.90 0.6763
554.00 0.6758
554.10 0.6753
554.20 0.6749
554.30 0.6744
554.40 0.6739
554.50 0.6735
554.60 0.673
554.70 0.6725
554.80 0.6721
554.90 0.6716
555.00 0.6712
555.10 0.6707
555.20 0.6702
555.30 0.6698
555.40 0.6693
555.50 0.6688
555.60 0.6684
555.70 0.6679
555.80 0.6675
555.90 0.667
556.00 0.6665
556.10 0.6661
556.20 0.6656
556.30 0.6652
556.40 0.6647
556.50 0.6643
556.60 0.6638
556.70 0.6633
556.80 0.6629
556.90 0.6624
557.00 0.662
557.10 0.6615
557.20 0.6611
557.30 0.6606
557.40 0.6602
557.50 0.6597
557.60 0.6592
557.70 0.6588
557.80 0.6583
557.90 0.6579
558.00 0.6574
558.10 0.657
558.20 0.6565
558.30 0.6561
558.40 0.6556
558.50 0.6552
558.60 0.6547
558.70 0.6543
558.80 0.6538
558.90 0.6534
559.00 0.6529
559.10 0.6525
559.20 0.652
559.30 0.6516
559.40 0.6512
559.50 0.6507
559.60 0.6503
559.70 0.6498
559.80 0.6494
559.90 0.6489
560.00 0.6485
560.10 0.648
560.20 0.6476
560.30 0.6472
560.40 0.6467
560.50 0.6463
560.60 0.6458
560.70 0.6454
560.80 0.6449
560.90 0.6445
561.00 0.6441
561.10 0.6436
561.20 0.6432
561.30 0.6427
561.40 0.6423
561.50 0.6419
561.60 0.6414
561.70 0.641
561.80 0.6406
561.90 0.6401
562.00 0.6397
562.10 0.6393
562.20 0.6388
562.30 0.6384
562.40 0.6379
562.50 0.6375
562.60 0.6371
562.70 0.6366
562.80 0.6362
562.90 0.6358
563.00 0.6353
563.10 0.6349
563.20 0.6345
563.30 0.634
563.40 0.6336
563.50 0.6332
563.60 0.6328
563.70 0.6323
563.80 0.6319
563.90 0.6315
564.00 0.631
564.10 0.6306
564.20 0.6302
564.30 0.6298
564.40 0.6293
564.50 0.6289
564.60 0.6285
564.70 0.628
564.80 0.6276
564.90 0.6272
565.00 0.6268
565.10 0.6263
565.20 0.6259
565.30 0.6255
565.40 0.6251
565.50 0.6246
565.60 0.6242
565.70 0.6238
565.80 0.6234
565.90 0.623
566.00 0.6225
566.10 0.6221
566.20 0.6217
566.30 0.6213
566.40 0.6209
566.50 0.6204
566.60 0.62
566.70 0.6196
566.80 0.6192
566.90 0.6188
567.00 0.6183
567.10 0.6179
567.20 0.6175
567.30 0.6171
567.40 0.6167
567.50 0.6163
567.60 0.6158
567.70 0.6154
567.80 0.615
567.90 0.6146
568.00 0.6142
568.10 0.6138
568.20 0.6133
568.30 0.6129
568.40 0.6125
568.50 0.6121
568.60 0.6117
568.70 0.6113
568.80 0.6109
568.90 0.6105
569.00 0.61
569.10 0.6096
569.20 0.6092
569.30 0.6088
569.40 0.6084
569.50 0.608
569.60 0.6076
569.70 0.6072
569.80 0.6068
569.90 0.6064
570.00 0.606
570.10 0.6055
570.20 0.6051
570.30 0.6047
570.40 0.6043
570.50 0.6039
570.60 0.6035
570.70 0.6031
570.80 0.6027
570.90 0.6023
571.00 0.6019
571.10 0.6015
571.20 0.6011
571.30 0.6007
571.40 0.6003
571.50 0.5999
571.60 0.5995
571.70 0.5991
571.80 0.5987
571.90 0.5983
572.00 0.5979
572.10 0.5975
572.20 0.5971
572.30 0.5967
572.40 0.5963
572.50 0.5959
572.60 0.5955
572.70 0.5951
572.80 0.5947
572.90 0.5943
573.00 0.5939
573.10 0.5935
573.20 0.5931
573.30 0.5927
573.40 0.5923
573.50 0.5919
573.60 0.5915
573.70 0.5911
573.80 0.5907
573.90 0.5903
574.00 0.5899
574.10 0.5895
574.20 0.5891
574.30 0.5887
574.40 0.5883
574.50 0.588
574.60 0.5876
574.70 0.5872
574.80 0.5868
574.90 0.5864
575.00 0.586
575.10 0.5856
575.20 0.5852
575.30 0.5848
575.40 0.5844
575.50 0.584
575.60 0.5837
575.70 0.5833
575.80 0.5829
575.90 0.5825
576.00 0.5821
576.10 0.5817
576.20 0.5813
576.30 0.5809
576.40 0.5806
576.50 0.5802
576.60 0.5798
576.70 0.5794
576.80 0.579
576.90 0.5786
577.00 0.5782
577.10 0.5779
577.20 0.5775
577.30 0.5771
577.40 0.5767
577.50 0.5763
577.60 0.5759
577.70 0.5756
577.80 0.5752
577.90 0.5748
578.00 0.5744
578.10 0.574
578.20 0.5737
578.30 0.5733
578.40 0.5729
578.50 0.5725
578.60 0.5721
578.70 0.5718
578.80 0.5714
578.90 0.571
579.00 0.5706
579.10 0.5702
579.20 0.5699
579.30 0.5695
579.40 0.5691
579.50 0.5687
579.60 0.5684
579.70 0.568
579.80 0.5676
579.90 0.5672
580.00 0.5669
580.10 0.5665
580.20 0.5661
580.30 0.5657
580.40 0.5654
580.50 0.565
580.60 0.5646
580.70 0.5642
580.80 0.5639
580.90 0.5635
581.00 0.5631
581.10 0.5628
581.20 0.5624
581.30 0.562
581.40 0.5616
581.50 0.5613
581.60 0.5609
581.70 0.5605
581.80 0.5602
581.90 0.5598
582.00 0.5594
582.10 0.5591
582.20 0.5587
582.30 0.5583
582.40 0.5579
582.50 0.5576
582.60 0.5572
582.70 0.5568
582.80 0.5565
582.90 0.5561
583.00 0.5557
583.10 0.5554
583.20 0.555
583.30 0.5547
583.40 0.5543
583.50 0.5539
583.60 0.5536
583.70 0.5532
583.80 0.5528
583.90 0.5525
584.00 0.5521
584.10 0.5517
584.20 0.5514
584.30 0.551
584.40 0.5507
584.50 0.5503
584.60 0.5499
584.70 0.5496
584.80 0.5492
584.90 0.5489
585.00 0.5485
585.10 0.5481
585.20 0.5478
585.30 0.5474
585.40 0.5471
585.50 0.5467
585.60 0.5463
585.70 0.546
585.80 0.5456
585.90 0.5453
586.00 0.5449
586.10 0.5446
586.20 0.5442
586.30 0.5438
586.40 0.5435
586.50 0.5431
586.60 0.5428
586.70 0.5424
586.80 0.5421
586.90 0.5417
587.00 0.5414
587.10 0.541
587.20 0.5407
587.30 0.5403
587.40 0.5399
587.50 0.5396
587.60 0.5392
587.70 0.5389
587.80 0.5385
587.90 0.5382
588.00 0.5378
588.10 0.5375
588.20 0.5371
588.30 0.5368
588.40 0.5364
588.50 0.5361
588.60 0.5357
588.70 0.5354
588.80 0.535
588.90 0.5347
589.00 0.5343
589.10 0.534
589.20 0.5336
589.30 0.5333
589.40 0.5329
589.50 0.5326
589.60 0.5323
589.70 0.5319
589.80 0.5316
589.90 0.5312
590.00 0.5309
590.10 0.5305
590.20 0.5302
590.30 0.5298
590.40 0.5295
590.50 0.5291
590.60 0.5288
590.70 0.5285
590.80 0.5281
590.90 0.5278
591.00 0.5274
591.10 0.5271
591.20 0.5267
591.30 0.5264
591.40 0.5261
591.50 0.5257
591.60 0.5254
591.70 0.525
591.80 0.5247
591.90 0.5244
592.00 0.524
592.10 0.5237
592.20 0.5233
592.30 0.523
592.40 0.5227
592.50 0.5223
592.60 0.522
592.70 0.5217
592.80 0.5213
592.90 0.521
593.00 0.5206
593.10 0.5203
593.20 0.52
593.30 0.5196
593.40 0.5193
593.50 0.519
593.60 0.5186
593.70 0.5183
593.80 0.518
593.90 0.5176
594.00 0.5173
594.10 0.5169
594.20 0.5166
594.30 0.5163
594.40 0.5159
594.50 0.5156
594.60 0.5153
594.70 0.5149
594.80 0.5146
594.90 0.5143
595.00 0.514
595.10 0.5136
595.20 0.5133
595.30 0.513
595.40 0.5126
595.50 0.5123
595.60 0.512
595.70 0.5116
595.80 0.5113
595.90 0.511
596.00 0.5107
596.10 0.5103
596.20 0.51
596.30 0.5097
596.40 0.5093
596.50 0.509
596.60 0.5087
596.70 0.5084
596.80 0.508
596.90 0.5077
597.00 0.5074
597.10 0.507
597.20 0.5067
597.30 0.5064
597.40 0.5061
597.50 0.5057
597.60 0.5054
597.70 0.5051
597.80 0.5048
597.90 0.5044
598.00 0.5041
598.10 0.5038
598.20 0.5035
598.30 0.5032
598.40 0.5028
598.50 0.5025
598.60 0.5022
598.70 0.5019
598.80 0.5015
598.90 0.5012
599.00 0.5009
599.10 0.5006
599.20 0.5003
599.30 0.4999
599.40 0.4996
599.50 0.4993
599.60 0.499
599.70 0.4987
599.80 0.4983
599.90 0.498
600.00 0.4977
600.10 0.4974
600.20 0.4971
600.30 0.4967
600.40 0.4964
600.50 0.4961
600.60 0.4958
600.70 0.4955
600.80 0.4952
600.90 0.4948
601.00 0.4945
601.10 0.4942
601.20 0.4939
601.30 0.4936
601.40 0.4933
601.50 0.493
601.60 0.4926
601.70 0.4923
601.80 0.492
601.90 0.4917
602.00 0.4914
602.10 0.4911
602.20 0.4908
602.30 0.4904
602.40 0.4901
602.50 0.4898
602.60 0.4895
602.70 0.4892
602.80 0.4889
602.90 0.4886
603.00 0.4883
603.10 0.488
603.20 0.4876
603.30 0.4873
603.40 0.487
603.50 0.4867
603.60 0.4864
603.70 0.4861
603.80 0.4858
603.90 0.4855
604.00 0.4852
604.10 0.4849
604.20 0.4845
604.30 0.4842
604.40 0.4839
604.50 0.4836
604.60 0.4833
604.70 0.483
604.80 0.4827
604.90 0.4824
605.00 0.4821
605.10 0.4818
605.20 0.4815
605.30 0.4812
605.40 0.4809
605.50 0.4806
605.60 0.4803
605.70 0.48
605.80 0.4797
605.90 0.4793
606.00 0.479
606.10 0.4787
606.20 0.4784
606.30 0.4781
606.40 0.4778
606.50 0.4775
606.60 0.4772
606.70 0.4769
606.80 0.4766
606.90 0.4763
607.00 0.476
607.10 0.4757
607.20 0.4754
607.30 0.4751
607.40 0.4748
607.50 0.4745
607.60 0.4742
607.70 0.4739
607.80 0.4736
607.90 0.4733
608.00 0.473
608.10 0.4727
608.20 0.4724
608.30 0.4721
608.40 0.4718
608.50 0.4715
608.60 0.4712
608.70 0.4709
608.80 0.4706
608.90 0.4703
609.00 0.47
609.10 0.4697
609.20 0.4694
609.30 0.4692
609.40 0.4689
609.50 0.4686
609.60 0.4683
609.70 0.468
609.80 0.4677
609.90 0.4674
610.00 0.4671
610.10 0.4668
610.20 0.4665
610.30 0.4662
610.40 0.4659
610.50 0.4656
610.60 0.4653
610.70 0.465
610.80 0.4647
610.90 0.4644
611.00 0.4642
611.10 0.4639
611.20 0.4636
611.30 0.4633
611.40 0.463
611.50 0.4627
611.60 0.4624
611.70 0.4621
611.80 0.4618
611.90 0.4615
612.00 0.4612
612.10 0.461
612.20 0.4607
612.30 0.4604
612.40 0.4601
612.50 0.4598
612.60 0.4595
612.70 0.4592
612.80 0.4589
612.90 0.4587
613.00 0.4584
613.10 0.4581
613.20 0.4578
613.30 0.4575
613.40 0.4572
613.50 0.4569
613.60 0.4566
613.70 0.4564
613.80 0.4561
613.90 0.4558
614.00 0.4555
614.10 0.4552
614.20 0.4549
614.30 0.4546
614.40 0.4544
614.50 0.4541
614.60 0.4538
614.70 0.4535
614.80 0.4532
614.90 0.4529
615.00 0.4527
615.10 0.4524
615.20 0.4521
615.30 0.4518
615.40 0.4515
615.50 0.4513
615.60 0.451
615.70 0.4507
615.80 0.4504
615.90 0.4501
616.00 0.4498
616.10 0.4496
616.20 0.4493
616.30 0.449
616.40 0.4487
616.50 0.4484
616.60 0.4482
616.70 0.4479
616.80 0.4476
616.90 0.4473
617.00 0.447
617.10 0.4468
617.20 0.4465
617.30 0.4462
617.40 0.4459
617.50 0.4457
617.60 0.4454
617.70 0.4451
617.80 0.4448
617.90 0.4446
618.00 0.4443
618.10 0.444
618.20 0.4437
618.30 0.4434
618.40 0.4432
618.50 0.4429
618.60 0.4426
618.70 0.4423
618.80 0.4421
618.90 0.4418
619.00 0.4415
619.10 0.4412
619.20 0.441
619.30 0.4407
619.40 0.4404
619.50 0.4402
619.60 0.4399
619.70 0.4396
619.80 0.4393
619.90 0.4391
620.00 0.4388
620.10 0.4385
620.20 0.4382
620.30 0.438
620.40 0.4377
620.50 0.4374
620.60 0.4372
620.70 0.4369
620.80 0.4366
620.90 0.4364
621.00 0.4361
621.10 0.4358
621.20 0.4355
621.30 0.4353
621.40 0.435
621.50 0.4347
621.60 0.4345
621.70 0.4342
621.80 0.4339
621.90 0.4337
622.00 0.4334
622.10 0.4331
622.20 0.4329
622.30 0.4326
622.40 0.4323
622.50 0.4321
622.60 0.4318
622.70 0.4315
622.80 0.4313
622.90 0.431
623.00 0.4307
623.10 0.4305
623.20 0.4302
623.30 0.4299
623.40 0.4297
623.50 0.4294
623.60 0.4291
623.70 0.4289
623.80 0.4286
623.90 0.4283
624.00 0.4281
624.10 0.4278
624.20 0.4275
624.30 0.4273
624.40 0.427
624.50 0.4268
624.60 0.4265
624.70 0.4262
624.80 0.426
624.90 0.4257
625.00 0.4254
625.10 0.4252
625.20 0.4249
625.30 0.4247
625.40 0.4244
625.50 0.4241
625.60 0.4239
625.70 0.4236
625.80 0.4234
625.90 0.4231
626.00 0.4228
626.10 0.4226
626.20 0.4223
626.30 0.4221
626.40 0.4218
626.50 0.4215
626.60 0.4213
626.70 0.421
626.80 0.4208
626.90 0.4205
627.00 0.4202
627.10 0.42
627.20 0.4197
627.30 0.4195
627.40 0.4192
627.50 0.419
627.60 0.4187
627.70 0.4184
627.80 0.4182
627.90 0.4179
628.00 0.4177
628.10 0.4174
628.20 0.4172
628.30 0.4169
628.40 0.4167
628.50 0.4164
628.60 0.4161
628.70 0.4159
628.80 0.4156
628.90 0.4154
629.00 0.4151
629.10 0.4149
629.20 0.4146
629.30 0.4144
629.40 0.4141
629.50 0.4139
629.60 0.4136
629.70 0.4134
629.80 0.4131
629.90 0.4129
630.00 0.4126
630.10 0.4123
630.20 0.4121
630.30 0.4118
630.40 0.4116
630.50 0.4113
630.60 0.4111
630.70 0.4108
630.80 0.4106
630.90 0.4103
631.00 0.4101
631.10 0.4098
631.20 0.4096
631.30 0.4093
631.40 0.4091
631.50 0.4088
631.60 0.4086
631.70 0.4083
631.80 0.4081
631.90 0.4078
632.00 0.4076
632.10 0.4073
632.20 0.4071
632.30 0.4068
632.40 0.4066
632.50 0.4064
632.60 0.4061
632.70 0.4059
632.80 0.4056
632.90 0.4054
633.00 0.4051
633.10 0.4049
633.20 0.4046
633.30 0.4044
633.40 0.4041
633.50 0.4039
633.60 0.4036
633.70 0.4034
633.80 0.4032
633.90 0.4029
634.00 0.4027
634.10 0.4024
634.20 0.4022
634.30 0.4019
634.40 0.4017
634.50 0.4014
634.60 0.4012
634.70 0.401
634.80 0.4007
634.90 0.4005
635.00 0.4002
635.10 0.4
635.20 0.3997
635.30 0.3995
635.40 0.3993
635.50 0.399
635.60 0.3988
635.70 0.3985
635.80 0.3983
635.90 0.398
636.00 0.3978
636.10 0.3976
636.20 0.3973
636.30 0.3971
636.40 0.3968
636.50 0.3966
636.60 0.3964
636.70 0.3961
636.80 0.3959
636.90 0.3956
637.00 0.3954
637.10 0.3952
637.20 0.3949
637.30 0.3947
637.40 0.3944
637.50 0.3942
637.60 0.394
637.70 0.3937
637.80 0.3935
637.90 0.3932
638.00 0.393
638.10 0.3928
638.20 0.3925
638.30 0.3923
638.40 0.3921
638.50 0.3918
638.60 0.3916
638.70 0.3913
638.80 0.3911
638.90 0.3909
639.00 0.3906
639.10 0.3904
639.20 0.3902
639.30 0.3899
639.40 0.3897
639.50 0.3895
639.60 0.3892
639.70 0.389
639.80 0.3888
639.90 0.3885
640.00 0.3883
640.10 0.388
640.20 0.3878
640.30 0.3876
640.40 0.3873
640.50 0.3871
640.60 0.3869
640.70 0.3866
640.80 0.3864
640.90 0.3862
641.00 0.3859
641.10 0.3857
641.20 0.3855
641.30 0.3852
641.40 0.385
641.50 0.3848
641.60 0.3845
641.70 0.3843
641.80 0.3841
641.90 0.3838
642.00 0.3836
642.10 0.3834
642.20 0.3831
642.30 0.3829
642.40 0.3827
642.50 0.3825
642.60 0.3822
642.70 0.382
642.80 0.3818
642.90 0.3815
643.00 0.3813
643.10 0.3811
643.20 0.3808
643.30 0.3806
643.40 0.3804
643.50 0.3801
643.60 0.3799
643.70 0.3797
643.80 0.3795
643.90 0.3792
644.00 0.379
644.10 0.3788
644.20 0.3785
644.30 0.3783
644.40 0.3781
644.50 0.3778
644.60 0.3776
644.70 0.3774
644.80 0.3772
644.90 0.3769
645.00 0.3767
645.10 0.3765
645.20 0.3762
645.30 0.376
645.40 0.3758
645.50 0.3755
645.60 0.3753
645.70 0.3751
645.80 0.3749
645.90 0.3746
646.00 0.3744
646.10 0.3742
646.20 0.3739
646.30 0.3737
646.40 0.3735
646.50 0.3732
646.60 0.373
646.70 0.3728
646.80 0.3726
646.90 0.3723
647.00 0.3721
647.10 0.3719
647.20 0.3716
647.30 0.3714
647.40 0.3712
647.50 0.3709
647.60 0.3707
647.70 0.3705
647.80 0.3702
647.90 0.37
648.00 0.3698
648.10 0.3695
648.20 0.3693
648.30 0.3691
648.40 0.3688
648.50 0.3686
648.60 0.3684
648.70 0.3681
648.80 0.3679
648.90 0.3677
649.00 0.3674
649.10 0.3672
649.20 0.367
649.30 0.3667
649.40 0.3665
649.50 0.3662
649.60 0.366
649.70 0.3657
649.80 0.3655
649.90 0.3652
650.00 0.365
650.10 0.3648
650.20 0.3645
650.30 0.3643
650.40 0.364
650.50 0.3637
650.60 0.3635
650.70 0.3632
650.80 0.363
650.90 0.3627
651.00 0.3624
651.10 0.3622
651.20 0.3619
651.30 0.3616
651.40 0.3613
651.50 0.361
651.60 0.3607
651.70 0.3604
651.80 0.3601
651.90 0.3598
652.00 0.3595
652.10 0.3592
652.20 0.3589
652.30 0.3586
652.40 0.3582
652.50 0.3578
652.60 0.3574
652.70 0.357
652.80 0.3567
652.90 0.3563
653.00 0.3559
653.10 0.3555
653.20 0.3551
653.30 0.3546
653.40 0.354
653.50 0.3534
653.60 0.3527
653.70 0.3521
653.80 0.3515
653.90 0.3508
654.00 0.3502
654.10 0.3495
654.20 0.3489
654.30 0.3482
654.40 0.3471
654.50 0.346
654.60 0.3449
654.70 0.3439
654.80 0.3427
654.90 0.341
655.00 0.3393
655.10 0.3376
655.20 0.3359
655.30 0.334
655.40 0.3316
655.50 0.329
655.60 0.3259
655.70 0.3225
655.80 0.318
655.90 0.3127
656.00 0.3035
656.10 0.2928
656.20 0.2742
656.30 0.2857
656.40 0.2788
656.50 0.2967
656.60 0.3057
656.70 0.3138
656.80 0.3178
656.90 0.3217
657.00 0.3244
657.10 0.327
657.20 0.329
657.30 0.3309
657.40 0.3322
657.50 0.3335
657.60 0.3348
657.70 0.3361
657.80 0.3373
657.90 0.3379
658.00 0.3386
658.10 0.3393
658.20 0.3399
658.30 0.3405
658.40 0.3407
658.50 0.3409
658.60 0.3411
658.70 0.3414
658.80 0.3416
658.90 0.3418
659.00 0.342
659.10 0.3422
659.20 0.3425
659.30 0.3426
659.40 0.3426
659.50 0.3426
659.60 0.3425
659.70 0.3425
659.80 0.3425
659.90 0.3425
660.00 0.3424
660.10 0.3424
660.20 0.3424
660.30 0.3423
660.40 0.3422
660.50 0.3421
660.60 0.342
660.70 0.3419
660.80 0.3417
660.90 0.3416
661.00 0.3415
661.10 0.3414
661.20 0.3413
661.30 0.3411
661.40 0.341
661.50 0.3408
661.60 0.3407
661.70 0.3405
661.80 0.3404
661.90 0.3402
662.00 0.3401
662.10 0.3399
662.20 0.3397
662.30 0.3396
662.40 0.3394
662.50 0.3392
662.60 0.3391
662.70 0.3389
662.80 0.3387
662.90 0.3386
663.00 0.3384
663.10 0.3382
663.20 0.338
663.30 0.3379
663.40 0.3377
663.50 0.3375
663.60 0.3373
663.70 0.3372
663.80 0.337
663.90 0.3368
664.00 0.3366
664.10 0.3364
664.20 0.3363
664.30 0.3361
664.40 0.3359
664.50 0.3357
664.60 0.3355
664.70 0.3353
664.80 0.3352
664.90 0.335
665.00 0.3348
665.10 0.3346
665.20 0.3344
665.30 0.3342
665.40 0.3341
665.50 0.3339
665.60 0.3337
665.70 0.3335
665.80 0.3333
665.90 0.3331
666.00 0.3329
666.10 0.3328
666.20 0.3326
666.30 0.3324
666.40 0.3322
666.50 0.332
666.60 0.3318
666.70 0.3316
666.80 0.3314
666.90 0.3313
667.00 0.3311
667.10 0.3309
667.20 0.3307
667.30 0.3305
667.40 0.3303
667.50 0.3301
667.60 0.33
667.70 0.3298
667.80 0.3296
667.90 0.3294
668.00 0.3292
668.10 0.329
668.20 0.3288
668.30 0.3287
668.40 0.3285
668.50 0.3283
668.60 0.3281
668.70 0.3279
668.80 0.3277
668.90 0.3275
669.00 0.3274
669.10 0.3272
669.20 0.327
669.30 0.3268
669.40 0.3266
669.50 0.3264
669.60 0.3262
669.70 0.3261
669.80 0.3259
669.90 0.3257
670.00 0.3255
670.10 0.3253
670.20 0.3251
670.30 0.3249
670.40 0.3248
670.50 0.3246
670.60 0.3244
670.70 0.3242
670.80 0.324
670.90 0.3238
671.00 0.3237
671.10 0.3235
671.20 0.3233
671.30 0.3231
671.40 0.3229
671.50 0.3227
671.60 0.3225
671.70 0.3224
671.80 0.3222
671.90 0.322
672.00 0.3218
672.10 0.3216
672.20 0.3214
672.30 0.3213
672.40 0.3211
672.50 0.3209
672.60 0.3207
672.70 0.3205
672.80 0.3204
672.90 0.3202
673.00 0.32
673.10 0.3198
673.20 0.3196
673.30 0.3194
673.40 0.3193
673.50 0.3191
673.60 0.3189
673.70 0.3187
673.80 0.3185
673.90 0.3184
674.00 0.3182
674.10 0.318
674.20 0.3178
674.30 0.3176
674.40 0.3175
674.50 0.3173
674.60 0.3171
674.70 0.3169
674.80 0.3167
674.90 0.3165
675.00 0.3164
675.10 0.3162
675.20 0.316
675.30 0.3158
675.40 0.3157
675.50 0.3155
675.60 0.3153
675.70 0.3151
675.80 0.3149
675.90 0.3148
676.00 0.3146
676.10 0.3144
676.20 0.3142
676.30 0.314
676.40 0.3139
676.50 0.3137
676.60 0.3135
676.70 0.3133
676.80 0.3132
676.90 0.313
677.00 0.3128
677.10 0.3126
677.20 0.3124
677.30 0.3123
677.40 0.3121
677.50 0.3119
677.60 0.3117
677.70 0.3116
677.80 0.3114
677.90 0.3112
678.00 0.311
678.10 0.3109
678.20 0.3107
678.30 0.3105
678.40 0.3103
678.50 0.3101
678.60 0.31
678.70 0.3098
678.80 0.3096
678.90 0.3094
679.00 0.3093
679.10 0.3091
679.20 0.3089
679.30 0.3087
679.40 0.3086
679.50 0.3084
679.60 0.3082
679.70 0.308
679.80 0.3079
679.90 0.3077
680.00 0.3075
680.10 0.3074
680.20 0.3072
680.30 0.307
680.40 0.3068
680.50 0.3067
680.60 0.3065
680.70 0.3063
680.80 0.3061
680.90 0.306
681.00 0.3058
681.10 0.3056
681.20 0.3054
681.30 0.3053
681.40 0.3051
681.50 0.3049
681.60 0.3048
681.70 0.3046
681.80 0.3044
681.90 0.3042
682.00 0.3041
682.10 0.3039
682.20 0.3037
682.30 0.3036
682.40 0.3034
682.50 0.3032
682.60 0.303
682.70 0.3029
682.80 0.3027
682.90 0.3025
683.00 0.3024
683.10 0.3022
683.20 0.302
683.30 0.3018
683.40 0.3017
683.50 0.3015
683.60 0.3013
683.70 0.3012
683.80 0.301
683.90 0.3008
684.00 0.3007
684.10 0.3005
684.20 0.3003
684.30 0.3002
684.40 0.3
684.50 0.2998
684.60 0.2996
684.70 0.2995
684.80 0.2993
684.90 0.2991
685.00 0.299
685.10 0.2988
685.20 0.2986
685.30 0.2985
685.40 0.2983
685.50 0.2981
685.60 0.298
685.70 0.2978
685.80 0.2976
685.90 0.2975
686.00 0.2973
686.10 0.2971
686.20 0.297
686.30 0.2968
686.40 0.2966
686.50 0.2965
686.60 0.2963
686.70 0.2961
686.80 0.296
686.90 0.2958
687.00 0.2956
687.10 0.2955
687.20 0.2953
687.30 0.2951
687.40 0.295
687.50 0.2948
687.60 0.2946
687.70 0.2945
687.80 0.2943
687.90 0.2942
688.00 0.294
688.10 0.2938
688.20 0.2937
688.30 0.2935
688.40 0.2933
688.50 0.2932
688.60 0.293
688.70 0.2928
688.80 0.2927
688.90 0.2925
689.00 0.2923
689.10 0.2922
689.20 0.292
689.30 0.2919
689.40 0.2917
689.50 0.2915
689.60 0.2914
689.70 0.2912
689.80 0.291
689.90 0.2909
690.00 0.2907
690.10 0.2906
690.20 0.2904
690.30 0.2902
690.40 0.2901
690.50 0.2899
690.60 0.2898
690.70 0.2896
690.80 0.2894
690.90 0.2893
691.00 0.2891
691.10 0.289
691.20 0.2888
691.30 0.2886
691.40 0.2885
691.50 0.2883
691.60 0.2881
691.70 0.288
691.80 0.2878
691.90 0.2877
692.00 0.2875
692.10 0.2873
692.20 0.2872
692.30 0.287
692.40 0.2869
692.50 0.2867
692.60 0.2865
692.70 0.2864
692.80 0.2862
692.90 0.2861
693.00 0.2859
693.10 0.2858
693.20 0.2856
693.30 0.2854
693.40 0.2853
693.50 0.2851
693.60 0.285
693.70 0.2848
693.80 0.2846
693.90 0.2845
694.00 0.2843
694.10 0.2842
694.20 0.284
694.30 0.2838
694.40 0.2837
694.50 0.2835
694.60 0.2834
694.70 0.2832
694.80 0.2831
694.90 0.2829
695.00 0.2827
695.10 0.2826
695.20 0.2824
695.30 0.2823
695.40 0.2821
695.50 0.282
695.60 0.2818
695.70 0.2817
695.80 0.2815
695.90 0.2813
696.00 0.2812
696.10 0.281
696.20 0.2809
696.30 0.2807
696.40 0.2806
696.50 0.2804
696.60 0.2803
696.70 0.2801
696.80 0.2799
696.90 0.2798
697.00 0.2796
697.10 0.2795
697.20 0.2793
697.30 0.2792
697.40 0.279
697.50 0.2789
697.60 0.2787
697.70 0.2786
697.80 0.2784
697.90 0.2783
698.00 0.2781
698.10 0.2779
698.20 0.2778
698.30 0.2776
698.40 0.2775
698.50 0.2773
698.60 0.2772
698.70 0.277
698.80 0.2769
698.90 0.2767
699.00 0.2766
699.10 0.2764
699.20 0.2763
699.30 0.2761
699.40 0.276
699.50 0.2758
699.60 0.2756
699.70 0.2755
699.80 0.2753
699.90 0.2752
700.00 0.275
700.10 0.2749
700.20 0.2747
700.30 0.2746
700.40 0.2744
700.50 0.2743
700.60 0.2741
700.70 0.274
700.80 0.2738
700.90 0.2737
701.00 0.2735
701.10 0.2734
701.20 0.2732
701.30 0.2731
701.40 0.2729
701.50 0.2728
701.60 0.2726
701.70 0.2725
701.80 0.2723
701.90 0.2722
702.00 0.272
702.10 0.2719
702.20 0.2717
702.30 0.2716
702.40 0.2714
702.50 0.2713
702.60 0.2711
702.70 0.271
702.80 0.2708
702.90 0.2707
703.00 0.2706
703.10 0.2704
703.20 0.2703
703.30 0.2701
703.40 0.27
703.50 0.2698
703.60 0.2697
703.70 0.2695
703.80 0.2694
703.90 0.2692
704.00 0.2691
704.10 0.2689
704.20 0.2688
704.30 0.2686
704.40 0.2685
704.50 0.2683
704.60 0.2682
704.70 0.268
704.80 0.2679
704.90 0.2677
705.00 0.2676
705.10 0.2674
705.20 0.2673
705.30 0.2672
705.40 0.267
705.50 0.2669
705.60 0.2667
705.70 0.2666
705.80 0.2664
705.90 0.2663
706.00 0.2661
706.10 0.266
706.20 0.2659
706.30 0.2657
706.40 0.2656
706.50 0.2654
706.60 0.2653
706.70 0.2651
706.80 0.265
706.90 0.2648
707.00 0.2647
707.10 0.2646
707.20 0.2644
707.30 0.2643
707.40 0.2641
707.50 0.264
707.60 0.2638
707.70 0.2637
707.80 0.2635
707.90 0.2634
708.00 0.2633
708.10 0.2631
708.20 0.263
708.30 0.2628
708.40 0.2627
708.50 0.2625
708.60 0.2624
708.70 0.2623
708.80 0.2621
708.90 0.262
709.00 0.2618
709.10 0.2617
709.20 0.2615
709.30 0.2614
709.40 0.2613
709.50 0.2611
709.60 0.261
709.70 0.2608
709.80 0.2607
709.90 0.2605
710.00 0.2604
710.10 0.2603
710.20 0.2601
710.30 0.26
710.40 0.2598
710.50 0.2597
710.60 0.2596
710.70 0.2594
710.80 0.2593
710.90 0.2591
711.00 0.259
711.10 0.2589
711.20 0.2587
711.30 0.2586
711.40 0.2584
711.50 0.2583
711.60 0.2582
711.70 0.258
711.80 0.2579
711.90 0.2577
712.00 0.2576
712.10 0.2575
712.20 0.2573
712.30 0.2572
712.40 0.257
712.50 0.2569
712.60 0.2568
712.70 0.2566
712.80 0.2565
712.90 0.2563
713.00 0.2562
713.10 0.2561
713.20 0.2559
713.30 0.2558
713.40 0.2557
713.50 0.2555
713.60 0.2554
713.70 0.2552
713.80 0.2551
713.90 0.255
714.00 0.2548
714.10 0.2547
714.20 0.2545
714.30 0.2544
714.40 0.2543
714.50 0.2541
714.60 0.254
714.70 0.2539
714.80 0.2537
714.90 0.2536
715.00 0.2534
715.10 0.2533
715.20 0.2532
715.30 0.253
715.40 0.2529
715.50 0.2528
715.60 0.2526
715.70 0.2525
715.80 0.2524
715.90 0.2522
716.00 0.2521
716.10 0.252
716.20 0.2518
716.30 0.2517
716.40 0.2515
716.50 0.2514
716.60 0.2513
716.70 0.2511
716.80 0.251
716.90 0.2509
717.00 0.2507
717.10 0.2506
717.20 0.2505
717.30 0.2503
717.40 0.2502
717.50 0.2501
717.60 0.2499
717.70 0.2498
717.80 0.2497
717.90 0.2495
718.00 0.2494
718.10 0.2493
718.20 0.2491
718.30 0.249
718.40 0.2489
718.50 0.2487
718.60 0.2486
718.70 0.2485
718.80 0.2483
718.90 0.2482
719.00 0.2481
719.10 0.2479
719.20 0.2478
719.30 0.2477
719.40 0.2475
719.50 0.2474
719.60 0.2473
719.70 0.2471
719.80 0.247
719.90 0.2469
720.00 0.2467
720.10 0.2466
720.20 0.2465
720.30 0.2463
720.40 0.2462
720.50 0.2461
720.60 0.2459
720.70 0.2458
720.80 0.2457
720.90 0.2455
721.00 0.2454
721.10 0.2453
721.20 0.2452
721.30 0.245
721.40 0.2449
721.50 0.2448
721.60 0.2446
721.70 0.2445
721.80 0.2444
721.90 0.2442
722.00 0.2441
722.10 0.244
722.20 0.2438
722.30 0.2437
722.40 0.2436
722.50 0.2435
722.60 0.2433
722.70 0.2432
722.80 0.2431
722.90 0.2429
723.00 0.2428
723.10 0.2427
723.20 0.2425
723.30 0.2424
723.40 0.2423
723.50 0.2422
723.60 0.242
723.70 0.2419
723.80 0.2418
723.90 0.2416
724.00 0.2415
724.10 0.2414
724.20 0.2413
724.30 0.2411
724.40 0.241
724.50 0.2409
724.60 0.2407
724.70 0.2406
724.80 0.2405
724.90 0.2404
725.00 0.2402
725.10 0.2401
725.20 0.24
725.30 0.2398
725.40 0.2397
725.50 0.2396
725.60 0.2395
725.70 0.2393
725.80 0.2392
725.90 0.2391
726.00 0.239
726.10 0.2388
726.20 0.2387
726.30 0.2386
726.40 0.2384
726.50 0.2383
726.60 0.2382
726.70 0.2381
726.80 0.2379
726.90 0.2378
727.00 0.2377
727.10 0.2376
727.20 0.2374
727.30 0.2373
727.40 0.2372
727.50 0.2371
727.60 0.2369
727.70 0.2368
727.80 0.2367
727.90 0.2366
728.00 0.2364
728.10 0.2363
728.20 0.2362
728.30 0.2361
728.40 0.2359
728.50 0.2358
728.60 0.2357
728.70 0.2356
728.80 0.2354
728.90 0.2353
729.00 0.2352
729.10 0.2351
729.20 0.2349
729.30 0.2348
729.40 0.2347
729.50 0.2346
729.60 0.2344
729.70 0.2343
729.80 0.2342
729.90 0.2341
730.00 0.2339
730.10 0.2338
730.20 0.2337
730.30 0.2336
730.40 0.2334
730.50 0.2333
730.60 0.2332
730.70 0.2331
730.80 0.233
730.90 0.2328
731.00 0.2327
731.10 0.2326
731.20 0.2325
731.30 0.2324
731.40 0.2322
731.50 0.2321
731.60 0.232
731.70 0.2319
731.80 0.2317
731.90 0.2316
732.00 0.2315
732.10 0.2314
732.20 0.2313
732.30 0.2311
732.40 0.231
732.50 0.2309
732.60 0.2308
732.70 0.2307
732.80 0.2305
732.90 0.2304
733.00 0.2303
733.10 0.2302
733.20 0.23
733.30 0.2299
733.40 0.2298
733.50 0.2297
733.60 0.2296
733.70 0.2294
733.80 0.2293
733.90 0.2292
734.00 0.2291
734.10 0.229
734.20 0.2288
734.30 0.2287
734.40 0.2286
734.50 0.2285
734.60 0.2284
734.70 0.2282
734.80 0.2281
734.90 0.228
735.00 0.2279
735.10 0.2278
735.20 0.2276
735.30 0.2275
735.40 0.2274
735.50 0.2273
735.60 0.2272
735.70 0.227
735.80 0.2269
735.90 0.2268
736.00 0.2267
736.10 0.2266
736.20 0.2265
736.30 0.2263
736.40 0.2262
736.50 0.2261
736.60 0.226
736.70 0.2259
736.80 0.2257
736.90 0.2256
737.00 0.2255
737.10 0.2254
737.20 0.2253
737.30 0.2251
737.40 0.225
737.50 0.2249
737.60 0.2248
737.70 0.2247
737.80 0.2246
737.90 0.2244
738.00 0.2243
738.10 0.2242
738.20 0.2241
738.30 0.224
738.40 0.2238
738.50 0.2237
738.60 0.2236
738.70 0.2235
738.80 0.2234
738.90 0.2233
739.00 0.2231
739.10 0.223
739.20 0.2229
739.30 0.2228
739.40 0.2227
739.50 0.2226
739.60 0.2224
739.70 0.2223
739.80 0.2222
739.90 0.2221
740.00 0.222
740.10 0.2219
740.20 0.2217
740.30 0.2216
740.40 0.2215
740.50 0.2214
740.60 0.2213
740.70 0.2212
740.80 0.2211
740.90 0.2209
741.00 0.2208
741.10 0.2207
741.20 0.2206
741.30 0.2205
741.40 0.2204
741.50 0.2203
741.60 0.2201
741.70 0.22
741.80 0.2199
741.90 0.2198
742.00 0.2197
742.10 0.2196
742.20 0.2195
742.30 0.2193
742.40 0.2192
742.50 0.2191
742.60 0.219
742.70 0.2189
742.80 0.2188
742.90 0.2187
743.00 0.2186
743.10 0.2184
743.20 0.2183
743.30 0.2182
743.40 0.2181
743.50 0.218
743.60 0.2179
743.70 0.2178
743.80 0.2176
743.90 0.2175
744.00 0.2174
744.10 0.2173
744.20 0.2172
744.30 0.2171
744.40 0.217
744.50 0.2169
744.60 0.2167
744.70 0.2166
744.80 0.2165
744.90 0.2164
745.00 0.2163
745.10 0.2162
745.20 0.2161
745.30 0.216
745.40 0.2159
745.50 0.2157
745.60 0.2156
745.70 0.2155
745.80 0.2154
745.90 0.2153
746.00 0.2152
746.10 0.2151
746.20 0.215
746.30 0.2148
746.40 0.2147
746.50 0.2146
746.60 0.2145
746.70 0.2144
746.80 0.2143
746.90 0.2142
747.00 0.2141
747.10 0.214
747.20 0.2138
747.30 0.2137
747.40 0.2136
747.50 0.2135
747.60 0.2134
747.70 0.2133
747.80 0.2132
747.90 0.2131
748.00 0.213
748.10 0.2128
748.20 0.2127
748.30 0.2126
748.40 0.2125
748.50 0.2124
748.60 0.2123
748.70 0.2122
748.80 0.2121
748.90 0.212
749.00 0.2119
749.10 0.2117
749.20 0.2116
749.30 0.2115
749.40 0.2114
749.50 0.2113
749.60 0.2112
749.70 0.2111
749.80 0.211
749.90 0.2109
750.00 0.2108
750.10 0.2107
750.20 0.2105
750.30 0.2104
750.40 0.2103
750.50 0.2102
750.60 0.2101
750.70 0.21
750.80 0.2099
750.90 0.2098
751.00 0.2097
751.10 0.2096
751.20 0.2095
751.30 0.2094
751.40 0.2093
751.50 0.2092
751.60 0.209
751.70 0.2089
751.80 0.2088
751.90 0.2087
752.00 0.2086
752.10 0.2085
752.20 0.2084
752.30 0.2083
752.40 0.2082
752.50 0.2081
752.60 0.208
752.70 0.2079
752.80 0.2078
752.90 0.2077
753.00 0.2076
753.10 0.2074
753.20 0.2073
753.30 0.2072
753.40 0.2071
753.50 0.207
753.60 0.2069
753.70 0.2068
753.80 0.2067
753.90 0.2066
754.00 0.2065
754.10 0.2064
754.20 0.2063
754.30 0.2062
754.40 0.2061
754.50 0.206
754.60 0.2059
754.70 0.2058
754.80 0.2057
754.90 0.2055
755.00 0.2054
755.10 0.2053
755.20 0.2052
755.30 0.2051
755.40 0.205
755.50 0.2049
755.60 0.2048
755.70 0.2047
755.80 0.2046
755.90 0.2045
756.00 0.2044
756.10 0.2043
756.20 0.2042
756.30 0.2041
756.40 0.204
756.50 0.2039
756.60 0.2038
756.70 0.2037
756.80 0.2036
756.90 0.2035
757.00 0.2034
757.10 0.2032
757.20 0.2031
757.30 0.203
757.40 0.2029
757.50 0.2028
757.60 0.2027
757.70 0.2026
757.80 0.2025
757.90 0.2024
758.00 0.2023
758.10 0.2022
758.20 0.2021
758.30 0.202
758.40 0.2019
758.50 0.2018
758.60 0.2017
758.70 0.2016
758.80 0.2015
758.90 0.2014
759.00 0.2013
759.10 0.2012
759.20 0.2011
759.30 0.201
759.40 0.2009
759.50 0.2008
759.60 0.2007
759.70 0.2006
759.80 0.2005
759.90 0.2004
760.00 0.2002
760.10 0.2001
760.20 0.2
760.30 0.1999
760.40 0.1998
760.50 0.1997
760.60 0.1996
760.70 0.1995
760.80 0.1994
760.90 0.1993
761.00 0.1992
761.10 0.1991
761.20 0.199
761.30 0.1989
761.40 0.1988
761.50 0.1987
761.60 0.1986
761.70 0.1985
761.80 0.1984
761.90 0.1983
762.00 0.1982
762.10 0.1981
762.20 0.198
762.30 0.1979
762.40 0.1978
762.50 0.1977
762.60 0.1976
762.70 0.1975
762.80 0.1974
762.90 0.1973
763.00 0.1972
763.10 0.1971
763.20 0.197
763.30 0.1969
763.40 0.1968
763.50 0.1967
763.60 0.1966
763.70 0.1965
763.80 0.1964
763.90 0.1963
764.00 0.1962
764.10 0.1961
764.20 0.1961
764.30 0.196
764.40 0.1959
764.50 0.1958
764.60 0.1957
764.70 0.1956
764.80 0.1955
764.90 0.1954
765.00 0.1953
765.10 0.1952
765.20 0.1951
765.30 0.195
765.40 0.1949
765.50 0.1948
765.60 0.1947
765.70 0.1946
765.80 0.1945
765.90 0.1944
766.00 0.1943
766.10 0.1942
766.20 0.1941
766.30 0.194
766.40 0.1939
766.50 0.1938
766.60 0.1937
766.70 0.1936
766.80 0.1935
766.90 0.1934
767.00 0.1933
767.10 0.1932
767.20 0.1931
767.30 0.193
767.40 0.1929
767.50 0.1928
767.60 0.1927
767.70 0.1926
767.80 0.1925
767.90 0.1924
768.00 0.1923
768.10 0.1922
768.20 0.1921
768.30 0.192
768.40 0.1919
768.50 0.1918
768.60 0.1917
768.70 0.1916
768.80 0.1915
768.90 0.1914
769.00 0.1914
769.10 0.1913
769.20 0.1912
769.30 0.1911
769.40 0.191
769.50 0.1909
769.60 0.1908
769.70 0.1907
769.80 0.1906
769.90 0.1905
770.00 0.1904
770.10 0.1903
770.20 0.1902
770.30 0.1901
770.40 0.19
770.50 0.1899
770.60 0.1898
770.70 0.1897
770.80 0.1896
770.90 0.1895
771.00 0.1894
771.10 0.1893
771.20 0.1893
771.30 0.1892
771.40 0.1891
771.50 0.189
771.60 0.1889
771.70 0.1888
771.80 0.1887
771.90 0.1886
772.00 0.1885
772.10 0.1884
772.20 0.1883
772.30 0.1882
772.40 0.1881
772.50 0.188
772.60 0.1879
772.70 0.1878
772.80 0.1878
772.90 0.1877
773.00 0.1876
773.10 0.1875
773.20 0.1874
773.30 0.1873
773.40 0.1872
773.50 0.1871
773.60 0.187
773.70 0.1869
773.80 0.1868
773.90 0.1867
774.00 0.1866
774.10 0.1865
774.20 0.1864
774.30 0.1864
774.40 0.1863
774.50 0.1862
774.60 0.1861
774.70 0.186
774.80 0.1859
774.90 0.1858
775.00 0.1857
775.10 0.1856
775.20 0.1855
775.30 0.1854
775.40 0.1853
775.50 0.1852
775.60 0.1851
775.70 0.1851
775.80 0.185
775.90 0.1849
776.00 0.1848
776.10 0.1847
776.20 0.1846
776.30 0.1845
776.40 0.1844
776.50 0.1843
776.60 0.1842
776.70 0.1841
776.80 0.184
776.90 0.184
777.00 0.1839
777.10 0.1838
777.20 0.1837
777.30 0.1836
777.40 0.1835
777.50 0.1834
777.60 0.1833
777.70 0.1832
777.80 0.1831
777.90 0.183
778.00 0.1829
778.10 0.1829
778.20 0.1828
778.30 0.1827
778.40 0.1826
778.50 0.1825
778.60 0.1824
778.70 0.1823
778.80 0.1822
778.90 0.1821
779.00 0.182
779.10 0.1819
779.20 0.1818
779.30 0.1818
779.40 0.1817
779.50 0.1816
779.60 0.1815
779.70 0.1814
779.80 0.1813
779.90 0.1812
780.00 0.1811
780.10 0.181
780.20 0.1809
780.30 0.1809
780.40 0.1808
780.50 0.1807
780.60 0.1806
780.70 0.1805
780.80 0.1804
780.90 0.1803
781.00 0.1802
781.10 0.1801
781.20 0.1801
781.30 0.18
781.40 0.1799
781.50 0.1798
781.60 0.1797
781.70 0.1796
781.80 0.1795
781.90 0.1794
782.00 0.1794
782.10 0.1793
782.20 0.1792
782.30 0.1791
782.40 0.179
782.50 0.1789
782.60 0.1788
782.70 0.1787
782.80 0.1786
782.90 0.1786
783.00 0.1785
783.10 0.1784
783.20 0.1783
783.30 0.1782
783.40 0.1781
783.50 0.178
783.60 0.1779
783.70 0.1779
783.80 0.1778
783.90 0.1777
784.00 0.1776
784.10 0.1775
784.20 0.1774
784.30 0.1773
784.40 0.1772
784.50 0.1772
784.60 0.1771
784.70 0.177
784.80 0.1769
784.90 0.1768
785.00 0.1767
785.10 0.1766
785.20 0.1765
785.30 0.1765
785.40 0.1764
785.50 0.1763
785.60 0.1762
785.70 0.1761
785.80 0.176
785.90 0.1759
786.00 0.1759
786.10 0.1758
786.20 0.1757
786.30 0.1756
786.40 0.1755
786.50 0.1754
786.60 0.1753
786.70 0.1752
786.80 0.1752
786.90 0.1751
787.00 0.175
787.10 0.1749
787.20 0.1748
787.30 0.1747
787.40 0.1746
787.50 0.1746
787.60 0.1745
787.70 0.1744
787.80 0.1743
787.90 0.1742
788.00 0.1741
788.10 0.174
788.20 0.174
788.30 0.1739
788.40 0.1738
788.50 0.1737
788.60 0.1736
788.70 0.1735
788.80 0.1734
788.90 0.1734
789.00 0.1733
789.10 0.1732
789.20 0.1731
789.30 0.173
789.40 0.1729
789.50 0.1728
789.60 0.1728
789.70 0.1727
789.80 0.1726
789.90 0.1725
790.00 0.1724
790.10 0.1723
790.20 0.1723
790.30 0.1722
790.40 0.1721
790.50 0.172
790.60 0.1719
790.70 0.1718
790.80 0.1718
790.90 0.1717
791.00 0.1716
791.10 0.1715
791.20 0.1714
791.30 0.1713
791.40 0.1713
791.50 0.1712
791.60 0.1711
791.70 0.171
791.80 0.1709
791.90 0.1708
792.00 0.1708
792.10 0.1707
792.20 0.1706
792.30 0.1705
792.40 0.1704
792.50 0.1703
792.60 0.1703
792.70 0.1702
792.80 0.1701
792.90 0.17
793.00 0.1699
793.10 0.1698
793.20 0.1698
793.30 0.1697
793.40 0.1696
793.50 0.1695
793.60 0.1694
793.70 0.1693
793.80 0.1693
793.90 0.1692
794.00 0.1691
794.10 0.169
794.20 0.1689
794.30 0.1689
794.40 0.1688
794.50 0.1687
794.60 0.1686
794.70 0.1685
794.80 0.1684
794.90 0.1684
795.00 0.1683
795.10 0.1682
795.20 0.1681
795.30 0.168
795.40 0.168
795.50 0.1679
795.60 0.1678
795.70 0.1677
795.80 0.1676
795.90 0.1675
796.00 0.1675
796.10 0.1674
796.20 0.1673
796.30 0.1672
796.40 0.1671
796.50 0.1671
796.60 0.167
796.70 0.1669
796.80 0.1668
796.90 0.1667
797.00 0.1667
797.10 0.1666
797.20 0.1665
797.30 0.1664
797.40 0.1663
797.50 0.1662
797.60 0.1662
797.70 0.1661
797.80 0.166
797.90 0.1659
798.00 0.1658
798.10 0.1658
798.20 0.1657
798.30 0.1656
798.40 0.1655
798.50 0.1654
798.60 0.1654
798.70 0.1653
798.80 0.1652
798.90 0.1651
799.00 0.165
799.10 0.165
799.20 0.1649
799.30 0.1648
799.40 0.1647
799.50 0.1646
799.60 0.1646
799.70 0.1645
799.80 0.1644
799.90 0.1643
800.00 0.1642
800.10 0.1642
800.20 0.1641
800.30 0.164
800.40 0.1639
800.50 0.1638
800.60 0.1638
800.70 0.1637
800.80 0.1636
800.90 0.1635
801.00 0.1634
801.10 0.1634
801.20 0.1633
801.30 0.1632
801.40 0.1631
801.50 0.1631
801.60 0.163
801.70 0.1629
801.80 0.1628
801.90 0.1627
802.00 0.1627
802.10 0.1626
802.20 0.1625
802.30 0.1624
802.40 0.1624
802.50 0.1623
802.60 0.1622
802.70 0.1621
802.80 0.162
802.90 0.162
803.00 0.1619
803.10 0.1618
803.20 0.1617
803.30 0.1617
803.40 0.1616
803.50 0.1615
803.60 0.1614
803.70 0.1613
803.80 0.1613
803.90 0.1612
804.00 0.1611
804.10 0.161
804.20 0.161
804.30 0.1609
804.40 0.1608
804.50 0.1607
804.60 0.1606
804.70 0.1606
804.80 0.1605
804.90 0.1604
805.00 0.1603
805.10 0.1603
805.20 0.1602
805.30 0.1601
805.40 0.16
805.50 0.16
805.60 0.1599
805.70 0.1598
805.80 0.1597
805.90 0.1596
806.00 0.1596
806.10 0.1595
806.20 0.1594
806.30 0.1593
806.40 0.1593
806.50 0.1592
806.60 0.1591
806.70 0.159
806.80 0.159
806.90 0.1589
807.00 0.1588
807.10 0.1587
807.20 0.1587
807.30 0.1586
807.40 0.1585
807.50 0.1584
807.60 0.1583
807.70 0.1583
807.80 0.1582
807.90 0.1581
808.00 0.158
808.10 0.158
808.20 0.1579
808.30 0.1578
808.40 0.1577
808.50 0.1577
808.60 0.1576
808.70 0.1575
808.80 0.1574
808.90 0.1574
809.00 0.1573
809.10 0.1572
809.20 0.1571
809.30 0.1571
809.40 0.157
809.50 0.1569
809.60 0.1568
809.70 0.1568
809.80 0.1567
809.90 0.1566
810.00 0.1565
810.10 0.1565
810.20 0.1564
810.30 0.1563
810.40 0.1562
810.50 0.1562
810.60 0.1561
810.70 0.156
810.80 0.1559
810.90 0.1559
811.00 0.1558
811.10 0.1557
811.20 0.1556
811.30 0.1556
811.40 0.1555
811.50 0.1554
811.60 0.1553
811.70 0.1553
811.80 0.1552
811.90 0.1551
812.00 0.1551
812.10 0.155
812.20 0.1549
812.30 0.1548
812.40 0.1548
812.50 0.1547
812.60 0.1546
812.70 0.1545
812.80 0.1545
812.90 0.1544
813.00 0.1543
813.10 0.1542
813.20 0.1542
813.30 0.1541
813.40 0.154
813.50 0.154
813.60 0.1539
813.70 0.1538
813.80 0.1537
813.90 0.1537
814.00 0.1536
814.10 0.1535
814.20 0.1534
814.30 0.1534
814.40 0.1533
814.50 0.1532
814.60 0.1532
814.70 0.1531
814.80 0.153
814.90 0.1529
815.00 0.1529
815.10 0.1528
815.20 0.1527
815.30 0.1526
815.40 0.1526
815.50 0.1525
815.60 0.1524
815.70 0.1524
815.80 0.1523
815.90 0.1522
816.00 0.1521
816.10 0.1521
816.20 0.152
816.30 0.1519
816.40 0.1518
816.50 0.1518
816.60 0.1517
816.70 0.1516
816.80 0.1516
816.90 0.1515
817.00 0.1514
817.10 0.1513
817.20 0.1513
817.30 0.1512
817.40 0.1511
817.50 0.1511
817.60 0.151
817.70 0.1509
817.80 0.1508
817.90 0.1508
818.00 0.1507
818.10 0.1506
818.20 0.1506
818.30 0.1505
818.40 0.1504
818.50 0.1503
818.60 0.1503
818.70 0.1502
818.80 0.1501
818.90 0.1501
819.00 0.15
819.10 0.1499
819.20 0.1498
819.30 0.1498
819.40 0.1497
819.50 0.1496
819.60 0.1496
819.70 0.1495
819.80 0.1494
819.90 0.1493
820.00 0.1493
820.10 0.1492
820.20 0.1491
820.30 0.1491
820.40 0.149
820.50 0.1489
820.60 0.1488
820.70 0.1488
820.80 0.1487
820.90 0.1486
821.00 0.1486
821.10 0.1485
821.20 0.1484
821.30 0.1484
821.40 0.1483
821.50 0.1482
821.60 0.1482
821.70 0.1481
821.80 0.148
821.90 0.1479
822.00 0.1479
822.10 0.1478
822.20 0.1477
822.30 0.1477
822.40 0.1476
822.50 0.1475
822.60 0.1475
822.70 0.1474
822.80 0.1473
822.90 0.1472
823.00 0.1472
823.10 0.1471
823.20 0.147
823.30 0.147
823.40 0.1469
823.50 0.1468
823.60 0.1468
823.70 0.1467
823.80 0.1466
823.90 0.1466
824.00 0.1465
824.10 0.1464
824.20 0.1464
824.30 0.1463
824.40 0.1462
824.50 0.1461
824.60 0.1461
824.70 0.146
824.80 0.1459
824.90 0.1459
825.00 0.1458
825.10 0.1457
825.20 0.1457
825.30 0.1456
825.40 0.1455
825.50 0.1455
825.60 0.1454
825.70 0.1453
825.80 0.1453
825.90 0.1452
826.00 0.1451
826.10 0.1451
826.20 0.145
826.30 0.1449
826.40 0.1448
826.50 0.1448
826.60 0.1447
826.70 0.1446
826.80 0.1446
826.90 0.1445
827.00 0.1444
827.10 0.1444
827.20 0.1443
827.30 0.1442
827.40 0.1442
827.50 0.1441
827.60 0.144
827.70 0.144
827.80 0.1439
827.90 0.1438
828.00 0.1438
828.10 0.1437
828.20 0.1436
828.30 0.1436
828.40 0.1435
828.50 0.1434
828.60 0.1434
828.70 0.1433
828.80 0.1432
828.90 0.1432
829.00 0.1431
829.10 0.143
829.20 0.143
829.30 0.1429
829.40 0.1428
829.50 0.1428
829.60 0.1427
829.70 0.1426
829.80 0.1426
829.90 0.1425
830.00 0.1424
830.10 0.1424
830.20 0.1423
830.30 0.1422
830.40 0.1422
830.50 0.1421
830.60 0.142
830.70 0.142
830.80 0.1419
830.90 0.1418
831.00 0.1418
831.10 0.1417
831.20 0.1416
831.30 0.1416
831.40 0.1415
831.50 0.1414
831.60 0.1414
831.70 0.1413
831.80 0.1412
831.90 0.1412
832.00 0.1411
832.10 0.141
832.20 0.141
832.30 0.1409
832.40 0.1408
832.50 0.1408
832.60 0.1407
832.70 0.1406
832.80 0.1406
832.90 0.1405
833.00 0.1405
833.10 0.1404
833.20 0.1403
833.30 0.1403
833.40 0.1402
833.50 0.1401
833.60 0.1401
833.70 0.14
833.80 0.1399
833.90 0.1399
834.00 0.1398
834.10 0.1397
834.20 0.1397
834.30 0.1396
834.40 0.1395
834.50 0.1395
834.60 0.1394
834.70 0.1393
834.80 0.1393
834.90 0.1392
835.00 0.1391
835.10 0.1391
835.20 0.139
835.30 0.139
835.40 0.1389
835.50 0.1388
835.60 0.1388
835.70 0.1387
835.80 0.1386
835.90 0.1386
836.00 0.1385
836.10 0.1384
836.20 0.1384
836.30 0.1383
836.40 0.1382
836.50 0.1382
836.60 0.1381
836.70 0.1381
836.80 0.138
836.90 0.1379
837.00 0.1379
837.10 0.1378
837.20 0.1377
837.30 0.1377
837.40 0.1376
837.50 0.1375
837.60 0.1375
837.70 0.1374
837.80 0.1373
837.90 0.1373
838.00 0.1372
838.10 0.1372
838.20 0.1371
838.30 0.137
838.40 0.137
838.50 0.1369
838.60 0.1368
838.70 0.1368
838.80 0.1367
838.90 0.1367
839.00 0.1366
839.10 0.1365
839.20 0.1365
839.30 0.1364
839.40 0.1363
839.50 0.1363
839.60 0.1362
839.70 0.1361
839.80 0.1361
839.90 0.136
840.00 0.136
840.10 0.1359
840.20 0.1358
840.30 0.1358
840.40 0.1357
840.50 0.1356
840.60 0.1356
840.70 0.1355
840.80 0.1355
840.90 0.1354
841.00 0.1353
841.10 0.1353
841.20 0.1352
841.30 0.1351
841.40 0.1351
841.50 0.135
841.60 0.135
841.70 0.1349
841.80 0.1348
841.90 0.1348
842.00 0.1347
842.10 0.1346
842.20 0.1346
842.30 0.1345
842.40 0.1345
842.50 0.1344
842.60 0.1343
842.70 0.1343
842.80 0.1342
842.90 0.1342
843.00 0.1341
843.10 0.134
843.20 0.134
843.30 0.1339
843.40 0.1338
843.50 0.1338
843.60 0.1337
843.70 0.1337
843.80 0.1336
843.90 0.1335
844.00 0.1335
844.10 0.1334
844.20 0.1334
844.30 0.1333
844.40 0.1332
844.50 0.1332
844.60 0.1331
844.70 0.133
844.80 0.133
844.90 0.1329
845.00 0.1329
845.10 0.1328
845.20 0.1327
845.30 0.1327
845.40 0.1326
845.50 0.1326
845.60 0.1325
845.70 0.1324
845.80 0.1324
845.90 0.1323
846.00 0.1323
846.10 0.1322
846.20 0.1321
846.30 0.1321
846.40 0.132
846.50 0.1319
846.60 0.1319
846.70 0.1318
846.80 0.1318
846.90 0.1317
847.00 0.1316
847.10 0.1316
847.20 0.1315
847.30 0.1315
847.40 0.1314
847.50 0.1313
847.60 0.1313
847.70 0.1312
847.80 0.1312
847.90 0.1311
848.00 0.131
848.10 0.131
848.20 0.1309
848.30 0.1309
848.40 0.1308
848.50 0.1307
848.60 0.1307
848.70 0.1306
848.80 0.1306
848.90 0.1305
849.00 0.1304
849.10 0.1304
849.20 0.1303
849.30 0.1303
849.40 0.1302
849.50 0.1302
849.60 0.1301
849.70 0.13
849.80 0.13
849.90 0.1299
850.00 0.1299
850.10 0.1298
850.20 0.1297
850.30 0.1297
850.40 0.1296
850.50 0.1296
850.60 0.1295
850.70 0.1294
850.80 0.1294
850.90 0.1293
851.00 0.1293
851.10 0.1292
851.20 0.1291
851.30 0.1291
851.40 0.129
851.50 0.129
851.60 0.1289
851.70 0.1288
851.80 0.1288
851.90 0.1287
852.00 0.1287
852.10 0.1286
852.20 0.1286
852.30 0.1285
852.40 0.1284
852.50 0.1284
852.60 0.1283
852.70 0.1283
852.80 0.1282
852.90 0.1281
853.00 0.1281
853.10 0.128
853.20 0.128
853.30 0.1279
853.40 0.1279
853.50 0.1278
853.60 0.1277
853.70 0.1277
853.80 0.1276
853.90 0.1276
854.00 0.1275
854.10 0.1275
854.20 0.1274
854.30 0.1273
854.40 0.1273
854.50 0.1272
854.60 0.1272
854.70 0.1271
854.80 0.127
854.90 0.127
855.00 0.1269
855.10 0.1269
855.20 0.1268
855.30 0.1268
855.40 0.1267
855.50 0.1266
855.60 0.1266
855.70 0.1265
855.80 0.1265
855.90 0.1264
856.00 0.1264
856.10 0.1263
856.20 0.1262
856.30 0.1262
856.40 0.1261
856.50 0.1261
856.60 0.126
856.70 0.126
856.80 0.1259
856.90 0.1258
857.00 0.1258
857.10 0.1257
857.20 0.1257
857.30 0.1256
857.40 0.1256
857.50 0.1255
857.60 0.1254
857.70 0.1254
857.80 0.1253
857.90 0.1253
858.00 0.1252
858.10 0.1252
858.20 0.1251
858.30 0.1251
858.40 0.125
858.50 0.1249
858.60 0.1249
858.70 0.1248
858.80 0.1248
858.90 0.1247
859.00 0.1247
859.10 0.1246
859.20 0.1245
859.30 0.1245
859.40 0.1244
859.50 0.1244
859.60 0.1243
859.70 0.1243
859.80 0.1242
859.90 0.1242
860.00 0.1241
860.10 0.124
860.20 0.124
860.30 0.1239
860.40 0.1239
860.50 0.1238
860.60 0.1238
860.70 0.1237
860.80 0.1237
860.90 0.1236
861.00 0.1235
861.10 0.1235
861.20 0.1234
861.30 0.1234
861.40 0.1233
861.50 0.1233
861.60 0.1232
861.70 0.1232
861.80 0.1231
861.90 0.123
862.00 0.123
862.10 0.1229
862.20 0.1229
862.30 0.1228
862.40 0.1228
862.50 0.1227
862.60 0.1227
862.70 0.1226
862.80 0.1226
862.90 0.1225
863.00 0.1224
863.10 0.1224
863.20 0.1223
863.30 0.1223
863.40 0.1222
863.50 0.1222
863.60 0.1221
863.70 0.1221
863.80 0.122
863.90 0.122
864.00 0.1219
864.10 0.1218
864.20 0.1218
864.30 0.1217
864.40 0.1217
864.50 0.1216
864.60 0.1216
864.70 0.1215
864.80 0.1215
864.90 0.1214
865.00 0.1214
865.10 0.1213
865.20 0.1212
865.30 0.1212
865.40 0.1211
865.50 0.1211
865.60 0.121
865.70 0.121
865.80 0.1209
865.90 0.1209
866.00 0.1208
866.10 0.1208
866.20 0.1207
866.30 0.1207
866.40 0.1206
866.50 0.1205
866.60 0.1205
866.70 0.1204
866.80 0.1204
866.90 0.1203
867.00 0.1203
867.10 0.1202
867.20 0.1202
867.30 0.1201
867.40 0.1201
867.50 0.12
867.60 0.12
867.70 0.1199
867.80 0.1199
867.90 0.1198
868.00 0.1197
868.10 0.1197
868.20 0.1196
868.30 0.1196
868.40 0.1195
868.50 0.1195
868.60 0.1194
868.70 0.1194
868.80 0.1193
868.90 0.1193
869.00 0.1192
869.10 0.1192
869.20 0.1191
869.30 0.1191
869.40 0.119
869.50 0.1189
869.60 0.1189
869.70 0.1188
869.80 0.1188
869.90 0.1187
870.00 0.1187
870.10 0.1186
870.20 0.1186
870.30 0.1185
870.40 0.1185
870.50 0.1184
870.60 0.1184
870.70 0.1183
870.80 0.1183
870.90 0.1182
871.00 0.1182
871.10 0.1181
871.20 0.1181
871.30 0.118
871.40 0.1179
871.50 0.1179
871.60 0.1178
871.70 0.1178
871.80 0.1177
871.90 0.1177
872.00 0.1176
872.10 0.1176
872.20 0.1175
872.30 0.1175
872.40 0.1174
872.50 0.1174
872.60 0.1173
872.70 0.1173
872.80 0.1172
872.90 0.1172
873.00 0.1171
873.10 0.1171
873.20 0.117
873.30 0.117
873.40 0.1169
873.50 0.1169
873.60 0.1168
873.70 0.1168
873.80 0.1167
873.90 0.1167
874.00 0.1166
874.10 0.1166
874.20 0.1165
874.30 0.1164
874.40 0.1164
874.50 0.1163
874.60 0.1163
874.70 0.1162
874.80 0.1162
874.90 0.1161
875.00 0.1161
875.10 0.116
875.20 0.116
875.30 0.1159
875.40 0.1159
875.50 0.1158
875.60 0.1158
875.70 0.1157
875.80 0.1157
875.90 0.1156
876.00 0.1156
876.10 0.1155
876.20 0.1155
876.30 0.1154
876.40 0.1154
876.50 0.1153
876.60 0.1153
876.70 0.1152
876.80 0.1152
876.90 0.1151
877.00 0.1151
877.10 0.115
877.20 0.115
877.30 0.1149
877.40 0.1149
877.50 0.1148
877.60 0.1148
877.70 0.1147
877.80 0.1147
877.90 0.1146
878.00 0.1146
878.10 0.1145
878.20 0.1145
878.30 0.1144
878.40 0.1144
878.50 0.1143
878.60 0.1143
878.70 0.1142
878.80 0.1142
878.90 0.1141
879.00 0.1141
879.10 0.114
879.20 0.114
879.30 0.1139
879.40 0.1139
879.50 0.1138
879.60 0.1138
879.70 0.1137
879.80 0.1137
879.90 0.1136
880.00 0.1136
880.10 0.1135
880.20 0.1135
880.30 0.1134
880.40 0.1134
880.50 0.1133
880.60 0.1133
880.70 0.1132
880.80 0.1132
880.90 0.1131
881.00 0.1131
881.10 0.113
881.20 0.113
881.30 0.1129
881.40 0.1129
881.50 0.1128
881.60 0.1128
881.70 0.1127
881.80 0.1127
881.90 0.1126
882.00 0.1126
882.10 0.1125
882.20 0.1125
882.30 0.1124
882.40 0.1124
882.50 0.1123
882.60 0.1123
882.70 0.1122
882.80 0.1122
882.90 0.1121
883.00 0.1121
883.10 0.112
883.20 0.112
883.30 0.1119
883.40 0.1119
883.50 0.1118
883.60 0.1118
883.70 0.1117
883.80 0.1117
883.90 0.1116
884.00 0.1116
884.10 0.1115
884.20 0.1115
884.30 0.1114
884.40 0.1114
884.50 0.1113
884.60 0.1113
884.70 0.1112
884.80 0.1112
884.90 0.1112
885.00 0.1111
885.10 0.1111
885.20 0.111
885.30 0.111
885.40 0.1109
885.50 0.1109
885.60 0.1108
885.70 0.1108
885.80 0.1107
885.90 0.1107
886.00 0.1106
886.10 0.1106
886.20 0.1105
886.30 0.1105
886.40 0.1104
886.50 0.1104
886.60 0.1103
886.70 0.1103
886.80 0.1102
886.90 0.1102
887.00 0.1101
887.10 0.1101
887.20 0.11
887.30 0.11
887.40 0.1099
887.50 0.1099
887.60 0.1099
887.70 0.1098
887.80 0.1098
887.90 0.1097
888.00 0.1097
888.10 0.1096
888.20 0.1096
888.30 0.1095
888.40 0.1095
888.50 0.1094
888.60 0.1094
888.70 0.1093
888.80 0.1093
888.90 0.1092
889.00 0.1092
889.10 0.1092
889.20 0.1091
889.30 0.1091
889.40 0.109
889.50 0.109
889.60 0.1089
889.70 0.1089
889.80 0.1088
889.90 0.1088
890.00 0.1087
890.10 0.1087
890.20 0.1087
890.30 0.1086
890.40 0.1086
890.50 0.1085
890.60 0.1085
890.70 0.1084
890.80 0.1084
890.90 0.1083
891.00 0.1083
891.10 0.1082
891.20 0.1082
891.30 0.1081
891.40 0.1081
891.50 0.1081
891.60 0.108
891.70 0.108
891.80 0.1079
891.90 0.1079
892.00 0.1078
892.10 0.1078
892.20 0.1077
892.30 0.1077
892.40 0.1076
892.50 0.1076
892.60 0.1075
892.70 0.1075
892.80 0.1074
892.90 0.1074
893.00 0.1073
893.10 0.1073
893.20 0.1072
893.30 0.1072
893.40 0.1072
893.50 0.1071
893.60 0.1071
893.70 0.107
893.80 0.107
893.90 0.1069
894.00 0.1069
894.10 0.1068
894.20 0.1068
894.30 0.1067
894.40 0.1067
894.50 0.1066
894.60 0.1066
894.70 0.1065
894.80 0.1065
894.90 0.1064
895.00 0.1064
895.10 0.1063
895.20 0.1063
895.30 0.1062
895.40 0.1062
895.50 0.1062
895.60 0.1061
895.70 0.1061
895.80 0.106
895.90 0.106
896.00 0.1059
896.10 0.1059
896.20 0.1058
896.30 0.1058
896.40 0.1057
896.50 0.1057
896.60 0.1056
896.70 0.1056
896.80 0.1055
896.90 0.1055
897.00 0.1054
897.10 0.1054
897.20 0.1053
897.30 0.1053
897.40 0.1052
897.50 0.1052
897.60 0.1052
897.70 0.1051
897.80 0.1051
897.90 0.105
898.00 0.105
898.10 0.1049
898.20 0.1049
898.30 0.1048
898.40 0.1048
898.50 0.1047
898.60 0.1047
898.70 0.1046
898.80 0.1046
898.90 0.1045
899.00 0.1045
899.10 0.1044
899.20 0.1044
899.30 0.1043
899.40 0.1043
899.50 0.1042
899.60 0.1042
899.70 0.1042
899.80 0.1041
899.90 0.1041
900.00 0.104
900.10 0.104
900.20 0.1039
900.30 0.1039
900.40 0.1038
900.50 0.1038
900.60 0.1037
900.70 0.1037
900.80 0.1036
900.90 0.1036
901.00 0.1035
901.10 0.1035
901.20 0.1034
901.30 0.1034
901.40 0.1034
901.50 0.1033
901.60 0.1033
901.70 0.1032
901.80 0.1032
901.90 0.1031
902.00 0.1031
902.10 0.103
902.20 0.103
902.30 0.103
902.40 0.1029
902.50 0.1029
902.60 0.1028
902.70 0.1028
902.80 0.1028
902.90 0.1027
903.00 0.1027
903.10 0.1026
903.20 0.1026
903.30 0.1026
903.40 0.1025
903.50 0.1025
903.60 0.1024
903.70 0.1024
903.80 0.1024
903.90 0.1023
904.00 0.1023
904.10 0.1022
904.20 0.1022
904.30 0.1022
904.40 0.1021
904.50 0.1021
904.60 0.102
904.70 0.102
904.80 0.102
904.90 0.1019
905.00 0.1019
905.10 0.1019
905.20 0.1018
905.30 0.1018
905.40 0.1017
905.50 0.1017
905.60 0.1017
905.70 0.1016
905.80 0.1016
905.90 0.1015
906.00 0.1015
906.10 0.1015
906.20 0.1014
906.30 0.1014
906.40 0.1013
906.50 0.1013
906.60 0.1013
906.70 0.1012
906.80 0.1012
906.90 0.1012
907.00 0.1011
907.10 0.1011
907.20 0.101
907.30 0.101
907.40 0.1009
907.50 0.1009
907.60 0.1009
907.70 0.1008
907.80 0.1008
907.90 0.1007
908.00 0.1007
908.10 0.1007
908.20 0.1006
908.30 0.1006
908.40 0.1005
908.50 0.1005
908.60 0.1005
908.70 0.1004
908.80 0.1004
908.90 0.1003
909.00 0.1003
909.10 0.1002
909.20 0.1002
909.30 0.1002
909.40 0.1001
909.50 0.1001
909.60 0.1
909.70 0.1
909.80 0.09996
909.90 0.09992
910.00 0.09988
910.10 0.09984
910.20 0.0998
910.30 0.09976
910.40 0.09972
910.50 0.09968
910.60 0.09964
910.70 0.0996
910.80 0.09955
910.90 0.09951
911.00 0.09947
911.10 0.09943
911.20 0.09939
911.30 0.09935
911.40 0.09931
911.50 0.09927
911.60 0.09923
911.70 0.09919
911.80 0.09915
911.90 0.09911
912.00 0.09907
912.10 0.09902
912.20 0.09898
912.30 0.09893
912.40 0.09889
912.50 0.09884
912.60 0.0988
912.70 0.09875
912.80 0.09871
912.90 0.09866
913.00 0.09862
913.10 0.09857
913.20 0.09853
913.30 0.09848
913.40 0.09844
913.50 0.09839
913.60 0.09835
913.70 0.0983
913.80 0.09826
913.90 0.09821
914.00 0.09817
914.10 0.09812
914.20 0.09808
914.30 0.09803
914.40 0.09799
914.50 0.09794
914.60 0.0979
914.70 0.09785
914.80 0.09781
914.90 0.09776
915.00 0.09772
915.10 0.09767
915.20 0.09763
915.30 0.09758
915.40 0.09754
915.50 0.09749
915.60 0.09745
915.70 0.0974
915.80 0.09736
915.90 0.09731
916.00 0.09727
916.10 0.09723
916.20 0.09718
916.30 0.09714
916.40 0.09709
916.50 0.09705
916.60 0.097
916.70 0.09696
916.80 0.09691
916.90 0.09687
917.00 0.09682
917.10 0.09677
917.20 0.09672
917.30 0.09667
917.40 0.09662
917.50 0.09657
917.60 0.09652
917.70 0.09647
917.80 0.09642
917.90 0.09638
918.00 0.09633
918.10 0.09628
918.20 0.09623
918.30 0.09618
918.40 0.09613
918.50 0.09608
918.60 0.09603
918.70 0.09598
918.80 0.09593
918.90 0.09588
919.00 0.09583
919.10 0.09578
919.20 0.09573
919.30 0.09568
919.40 0.09563
919.50 0.09558
919.60 0.09553
919.70 0.09548
919.80 0.09543
919.90 0.09538
920.00 0.09533
920.10 0.09528
920.20 0.09523
920.30 0.09518
920.40 0.09513
920.50 0.09508
920.60 0.09504
920.70 0.09499
920.80 0.09494
920.90 0.09489
921.00 0.09484
921.10 0.09479
921.20 0.09474
921.30 0.09469
921.40 0.09464
921.50 0.09459
921.60 0.09454
921.70 0.09449
921.80 0.09444
921.90 0.0944
922.00 0.09435
922.10 0.09431
922.20 0.09428
922.30 0.09425
922.40 0.09422
922.50 0.09418
922.60 0.09415
922.70 0.09412
922.80 0.09409
922.90 0.09405
923.00 0.09402
923.10 0.09399
923.20 0.09396
923.30 0.09392
923.40 0.09389
923.50 0.09386
923.60 0.09383
923.70 0.0938
923.80 0.09376
923.90 0.09373
924.00 0.0937
924.10 0.09367
924.20 0.09363
924.30 0.0936
924.40 0.09357
924.50 0.09354
924.60 0.0935
924.70 0.09347
924.80 0.09344
924.90 0.09341
925.00 0.09338
925.10 0.09334
925.20 0.09331
925.30 0.09328
925.40 0.09325
925.50 0.09322
925.60 0.09318
925.70 0.09315
925.80 0.09312
925.90 0.09309
926.00 0.09306
926.10 0.09302
926.20 0.09299
926.30 0.09296
926.40 0.09293
926.50 0.0929
926.60 0.09286
926.70 0.09283
926.80 0.0928
926.90 0.09277
927.00 0.09274
927.10 0.0927
927.20 0.09267
927.30 0.09264
927.40 0.09261
927.50 0.09257
927.60 0.09254
927.70 0.09251
927.80 0.09248
927.90 0.09245
928.00 0.09241
928.10 0.09238
928.20 0.09235
928.30 0.09232
928.40 0.09229
928.50 0.09225
928.60 0.09222
928.70 0.09219
928.80 0.09216
928.90 0.09212
929.00 0.09209
929.10 0.09206
929.20 0.09203
929.30 0.092
929.40 0.09196
929.50 0.09193
929.60 0.0919
929.70 0.09187
929.80 0.09184
929.90 0.09181
930.00 0.09177
930.10 0.09174
930.20 0.09171
930.30 0.09168
930.40 0.09165
930.50 0.09161
930.60 0.09158
930.70 0.09155
930.80 0.09152
930.90 0.09149
931.00 0.09145
931.10 0.09142
931.20 0.09139
931.30 0.09136
931.40 0.09133
931.50 0.0913
931.60 0.09126
931.70 0.09123
931.80 0.0912
931.90 0.09117
932.00 0.09114
932.10 0.0911
932.20 0.09107
932.30 0.09103
932.40 0.091
932.50 0.09096
932.60 0.09093
932.70 0.09089
932.80 0.09086
932.90 0.09082
933.00 0.09079
933.10 0.09075
933.20 0.09072
933.30 0.09068
933.40 0.09065
933.50 0.09061
933.60 0.09058
933.70 0.09054
933.80 0.09051
933.90 0.09047
934.00 0.09044
934.10 0.0904
934.20 0.09037
934.30 0.09033
934.40 0.09029
934.50 0.09026
934.60 0.09022
934.70 0.09019
934.80 0.09015
934.90 0.09011
935.00 0.09008
935.10 0.09004
935.20 0.09
935.30 0.08997
935.40 0.08993
935.50 0.0899
935.60 0.08986
935.70 0.08982
935.80 0.08979
935.90 0.08975
936.00 0.08972
936.10 0.08968
936.20 0.08964
936.30 0.08961
936.40 0.08957
936.50 0.08954
936.60 0.0895
936.70 0.08946
936.80 0.08943
936.90 0.08939
937.00 0.08936
937.10 0.08932
937.20 0.08928
937.30 0.08925
937.40 0.08921
937.50 0.08917
937.60 0.08914
937.70 0.0891
937.80 0.08906
937.90 0.08903
938.00 0.08899
938.10 0.08895
938.20 0.08892
938.30 0.08888
938.40 0.08884
938.50 0.08881
938.60 0.08877
938.70 0.08873
938.80 0.08869
938.90 0.08866
939.00 0.08862
939.10 0.08858
939.20 0.08855
939.30 0.08851
939.40 0.08847
939.50 0.08843
939.60 0.0884
939.70 0.08836
939.80 0.08832
939.90 0.08829
940.00 0.08825
940.10 0.08821
940.20 0.08818
940.30 0.08814
940.40 0.0881
940.50 0.08806
940.60 0.08803
940.70 0.08799
940.80 0.08795
940.90 0.08791
941.00 0.08788
941.10 0.08784
941.20 0.0878
941.30 0.08776
941.40 0.08773
941.50 0.08769
941.60 0.08765
941.70 0.08761
941.80 0.08758
941.90 0.08754
942.00 0.0875
942.10 0.08746
942.20 0.08743
942.30 0.08739
942.40 0.08735
942.50 0.08731
942.60 0.08727
942.70 0.08723
942.80 0.0872
942.90 0.08716
943.00 0.08712
943.10 0.08708
943.20 0.08704
943.30 0.087
943.40 0.08696
943.50 0.08693
943.60 0.08689
943.70 0.08685
943.80 0.08681
943.90 0.08677
944.00 0.08673
944.10 0.0867
944.20 0.08666
944.30 0.08662
944.40 0.08658
944.50 0.08654
944.60 0.0865
944.70 0.08646
944.80 0.08642
944.90 0.08638
945.00 0.08634
945.10 0.0863
945.20 0.08626
945.30 0.08622
945.40 0.08618
945.50 0.08614
945.60 0.0861
945.70 0.08606
945.80 0.08602
945.90 0.08598
946.00 0.08594
946.10 0.0859
946.20 0.08585
946.30 0.08581
946.40 0.08577
946.50 0.08573
946.60 0.08569
946.70 0.08565
946.80 0.08561
946.90 0.08557
947.00 0.08553
947.10 0.08549
947.20 0.08544
947.30 0.0854
947.40 0.08536
947.50 0.08531
947.60 0.08527
947.70 0.08522
947.80 0.08518
947.90 0.08513
948.00 0.08509
948.10 0.08504
948.20 0.085
948.30 0.08495
948.40 0.08491
948.50 0.08487
948.60 0.08482
948.70 0.08478
948.80 0.08473
948.90 0.08469
949.00 0.08464
949.10 0.0846
949.20 0.08456
949.30 0.08451
949.40 0.08446
949.50 0.08441
949.60 0.08436
949.70 0.08431
949.80 0.08426
949.90 0.08421
950.00 0.08416
950.10 0.08411
950.20 0.08406
950.30 0.08401
950.40 0.08396
950.50 0.08391
950.60 0.08386
950.70 0.08381
950.80 0.08376
950.90 0.08372
951.00 0.08367
951.10 0.08362
951.20 0.08357
951.30 0.08352
951.40 0.08346
951.50 0.08341
951.60 0.08336
951.70 0.0833
951.80 0.08325
951.90 0.0832
952.00 0.08314
952.10 0.08309
952.20 0.08303
952.30 0.08298
952.40 0.08292
952.50 0.08287
952.60 0.08281
952.70 0.08276
952.80 0.0827
952.90 0.08265
953.00 0.0826
953.10 0.08255
953.20 0.08249
953.30 0.08244
953.40 0.08239
953.50 0.08233
953.60 0.08229
953.70 0.08224
953.80 0.0822
953.90 0.08215
954.00 0.08212
954.10 0.08208
954.20 0.08205
954.30 0.08203
954.40 0.08201
954.50 0.082
954.60 0.08196
954.70 0.08193
954.80 0.08189
954.90 0.08184
955.00 0.0818
955.10 0.08175
955.20 0.08173
955.30 0.08171
955.40 0.08169
955.50 0.08166
955.60 0.08164
955.70 0.08162
955.80 0.0816
955.90 0.08158
956.00 0.08157
956.10 0.08156
956.20 0.08155
956.30 0.08153
956.40 0.08152
956.50 0.08151
956.60 0.0815
956.70 0.08148
956.80 0.08147
956.90 0.08146
957.00 0.08145
957.10 0.08143
957.20 0.08142
957.30 0.08141
957.40 0.08139
957.50 0.08138
957.60 0.08136
957.70 0.08135
957.80 0.08133
957.90 0.08131
958.00 0.0813
958.10 0.08128
958.20 0.08127
958.30 0.08125
958.40 0.08123
958.50 0.08122
958.60 0.0812
958.70 0.08119
958.80 0.08117
958.90 0.08116
959.00 0.08114
959.10 0.08112
959.20 0.08111
959.30 0.08109
959.40 0.08107
959.50 0.08105
959.60 0.08103
959.70 0.081
959.80 0.08098
959.90 0.08096
960.00 0.08094
960.10 0.08092
960.20 0.0809
960.30 0.08087
960.40 0.08085
960.50 0.08083
960.60 0.08081
960.70 0.08079
960.80 0.08076
960.90 0.08074
961.00 0.08072
961.10 0.0807
961.20 0.08068
961.30 0.08066
961.40 0.08063
961.50 0.08061
961.60 0.08058
961.70 0.08056
961.80 0.08053
961.90 0.08051
962.00 0.08048
962.10 0.08046
962.20 0.08043
962.30 0.0804
962.40 0.08038
962.50 0.08035
962.60 0.08032
962.70 0.0803
962.80 0.08027
962.90 0.08024
963.00 0.08022
963.10 0.08019
963.20 0.08017
963.30 0.08014
963.40 0.08011
963.50 0.08008
963.60 0.08006
963.70 0.08003
963.80 0.08
963.90 0.07997
964.00 0.07994
964.10 0.07992
964.20 0.07989
964.30 0.07986
964.40 0.07983
964.50 0.0798
964.60 0.07977
964.70 0.07975
964.80 0.07972
964.90 0.07969
965.00 0.07966
965.10 0.07963
965.20 0.0796
965.30 0.07957
965.40 0.07954
965.50 0.07951
965.60 0.07949
965.70 0.07946
965.80 0.07943
965.90 0.0794
966.00 0.07937
966.10 0.07934
966.20 0.07931
966.30 0.07928
966.40 0.07925
966.50 0.07922
966.60 0.0792
966.70 0.07917
966.80 0.07914
966.90 0.07911
967.00 0.07908
967.10 0.07905
967.20 0.07902
967.30 0.07899
967.40 0.07896
967.50 0.07893
967.60 0.0789
967.70 0.07887
967.80 0.07884
967.90 0.07881
968.00 0.07878
968.10 0.07875
968.20 0.07872
968.30 0.07869
968.40 0.07866
968.50 0.07863
968.60 0.0786
968.70 0.07857
968.80 0.07854
968.90 0.07851
969.00 0.07848
969.10 0.07845
969.20 0.07842
969.30 0.07839
969.40 0.07836
969.50 0.07833
969.60 0.0783
969.70 0.07827
969.80 0.07823
969.90 0.0782
970.00 0.07817
970.10 0.07814
970.20 0.07811
970.30 0.07808
970.40 0.07805
970.50 0.07802
970.60 0.07799
970.70 0.07796
970.80 0.07793
970.90 0.0779
971.00 0.07787
971.10 0.07784
971.20 0.07781
971.30 0.07778
971.40 0.07775
971.50 0.07772
971.60 0.07769
971.70 0.07766
971.80 0.07763
971.90 0.0776
972.00 0.07757
972.10 0.07754
972.20 0.07751
972.30 0.07748
972.40 0.07745
972.50 0.07742
972.60 0.07739
972.70 0.07736
972.80 0.07733
972.90 0.07729
973.00 0.07726
973.10 0.07723
973.20 0.0772
973.30 0.07717
973.40 0.07714
973.50 0.07711
973.60 0.07708
973.70 0.07705
973.80 0.07702
973.90 0.07699
974.00 0.07696
974.10 0.07693
974.20 0.0769
974.30 0.07687
974.40 0.07684
974.50 0.07681
974.60 0.07678
974.70 0.07675
974.80 0.07672
974.90 0.07669
975.00 0.07666
975.10 0.07663
975.20 0.0766
975.30 0.07657
975.40 0.07654
975.50 0.07651
975.60 0.07648
975.70 0.07645
975.80 0.07642
975.90 0.07639
976.00 0.07636
976.10 0.07633
976.20 0.0763
976.30 0.07627
976.40 0.07624
976.50 0.07621
976.60 0.07618
976.70 0.07615
976.80 0.07612
976.90 0.07609
977.00 0.07606
977.10 0.07603
977.20 0.07599
977.30 0.07596
977.40 0.07593
977.50 0.0759
977.60 0.07587
977.70 0.07584
977.80 0.07581
977.90 0.07578
978.00 0.07575
978.10 0.07572
978.20 0.07569
978.30 0.07566
978.40 0.07563
978.50 0.0756
978.60 0.07557
978.70 0.07554
978.80 0.07551
978.90 0.07548
979.00 0.07545
979.10 0.07542
979.20 0.07539
979.30 0.07536
979.40 0.07533
979.50 0.0753
979.60 0.07527
979.70 0.07524
979.80 0.07522
979.90 0.07519
980.00 0.07516
980.10 0.07513
980.20 0.0751
980.30 0.07507
980.40 0.07504
980.50 0.07501
980.60 0.07498
980.70 0.07495
980.80 0.07492
980.90 0.07489
981.00 0.07486
981.10 0.07483
981.20 0.0748
981.30 0.07477
981.40 0.07474
981.50 0.07471
981.60 0.07468
981.70 0.07465
981.80 0.07462
981.90 0.07459
982.00 0.07456
982.10 0.07453
982.20 0.0745
982.30 0.07447
982.40 0.07444
982.50 0.07441
982.60 0.07438
982.70 0.07435
982.80 0.07432
982.90 0.07429
983.00 0.07426
983.10 0.07423
983.20 0.07421
983.30 0.07418
983.40 0.07415
983.50 0.07412
983.60 0.07409
983.70 0.07406
983.80 0.07403
983.90 0.074
984.00 0.07397
984.10 0.07394
984.20 0.07391
984.30 0.07388
984.40 0.07385
984.50 0.07382
984.60 0.07379
984.70 0.07376
984.80 0.07373
984.90 0.0737
985.00 0.07367
985.10 0.07364
985.20 0.07361
985.30 0.07359
985.40 0.07356
985.50 0.07353
985.60 0.0735
985.70 0.07347
985.80 0.07344
985.90 0.07341
986.00 0.07338
986.10 0.07335
986.20 0.07332
986.30 0.07329
986.40 0.07326
986.50 0.07323
986.60 0.0732
986.70 0.07317
986.80 0.07314
986.90 0.07312
987.00 0.07309
987.10 0.07306
987.20 0.07303
987.30 0.073
987.40 0.07297
987.50 0.07294
987.60 0.07291
987.70 0.07288
987.80 0.07285
987.90 0.07282
988.00 0.07279
988.10 0.07276
988.20 0.07273
988.30 0.0727
988.40 0.07267
988.50 0.07265
988.60 0.07262
988.70 0.07259
988.80 0.07256
988.90 0.07253
989.00 0.0725
989.10 0.07247
989.20 0.07244
989.30 0.07241
989.40 0.07238
989.50 0.07235
989.60 0.07232
989.70 0.07229
989.80 0.07226
989.90 0.07223
990.00 0.0722
990.10 0.07217
990.20 0.07214
990.30 0.07211
990.40 0.07208
990.50 0.07206
990.60 0.07203
990.70 0.072
990.80 0.07197
990.90 0.07194
991.00 0.07191
991.10 0.07188
991.20 0.07185
991.30 0.07182
991.40 0.07179
991.50 0.07176
991.60 0.07173
991.70 0.0717
991.80 0.07167
991.90 0.07164
992.00 0.07161
992.10 0.07158
992.20 0.07155
992.30 0.07152
992.40 0.07149
992.50 0.07146
992.60 0.07143
992.70 0.0714
992.80 0.07137
992.90 0.07134
993.00 0.07131
993.10 0.07128
993.20 0.07125
993.30 0.07121
993.40 0.07118
993.50 0.07115
993.60 0.07112
993.70 0.07109
993.80 0.07106
993.90 0.07103
994.00 0.071
994.10 0.07097
994.20 0.07094
994.30 0.07091
994.40 0.07088
994.50 0.07085
994.60 0.07082
994.70 0.07079
994.80 0.07075
994.90 0.07072
995.00 0.07069
995.10 0.07066
995.20 0.07063
995.30 0.0706
995.40 0.07056
995.50 0.07053
995.60 0.0705
995.70 0.07047
995.80 0.07043
995.90 0.0704
996.00 0.07037
996.10 0.07033
996.20 0.0703
996.30 0.07027
996.40 0.07024
996.50 0.0702
996.60 0.07017
996.70 0.07014
996.80 0.0701
996.90 0.07007
997.00 0.07004
997.10 0.07
997.20 0.06997
997.30 0.06993
997.40 0.0699
997.50 0.06986
997.60 0.06983
997.70 0.06979
997.80 0.06975
997.90 0.06971
998.00 0.06967
998.10 0.06964
998.20 0.0696
998.30 0.06956
998.40 0.06952
998.50 0.06948
998.60 0.06944
998.70 0.06941
998.80 0.06937
998.90 0.06933
999.00 0.06929
999.10 0.06925
999.20 0.06921
999.30 0.06917
999.40 0.06914
999.50 0.0691
999.60 0.06906
999.70 0.06901
999.80 0.06897
999.90 0.06892
1000.00 0.06887
1000.10 0.06882
1000.20 0.06878
1000.30 0.06873
1000.40 0.06868
1000.50 0.06863
1000.60 0.06859
1000.70 0.06854
1000.80 0.06849
1000.90 0.06844
1001.00 0.0684
1001.10 0.06835
1001.20 0.0683
1001.30 0.06825
1001.40 0.06821
1001.50 0.06816
1001.60 0.06811
1001.70 0.06806
1001.80 0.06801
1001.90 0.06795
1002.00 0.0679
1002.10 0.06784
1002.20 0.06778
1002.30 0.06772
1002.40 0.06766
1002.50 0.0676
1002.60 0.06754
1002.70 0.06749
1002.80 0.06743
1002.90 0.06737
1003.00 0.06731
1003.10 0.06725
1003.20 0.06719
1003.30 0.06713
1003.40 0.06707
1003.50 0.06701
1003.60 0.06695
1003.70 0.06689
1003.80 0.06682
1003.90 0.06677
1004.00 0.06673
1004.10 0.06668
1004.20 0.06663
1004.30 0.0666
1004.40 0.06658
1004.50 0.06658
1004.60 0.06661
1004.70 0.06668
1004.80 0.06676
1004.90 0.06676
1005.00 0.06676
1005.10 0.06667
1005.20 0.06657
1005.30 0.06646
1005.40 0.06635
1005.50 0.06632
1005.60 0.06631
1005.70 0.0663
1005.80 0.06629
1005.90 0.06628
1006.00 0.06626
1006.10 0.06625
1006.20 0.06626
1006.30 0.06627
1006.40 0.06628
1006.50 0.06629
1006.60 0.0663
1006.70 0.06631
1006.80 0.06632
1006.90 0.06633
1007.00 0.06634
1007.10 0.06635
1007.20 0.06635
1007.30 0.06636
1007.40 0.06637
1007.50 0.06637
1007.60 0.06638
1007.70 0.06638
1007.80 0.06638
1007.90 0.06638
1008.00 0.06637
1008.10 0.06637
1008.20 0.06637
1008.30 0.06637
1008.40 0.06636
1008.50 0.06636
1008.60 0.06636
1008.70 0.06636
1008.80 0.06636
1008.90 0.06635
1009.00 0.06635
1009.10 0.06635
1009.20 0.06635
1009.30 0.06634
1009.40 0.06634
1009.50 0.06634
1009.60 0.06634
1009.70 0.06633
1009.80 0.06631
1009.90 0.0663
1010.00 0.06629
1010.10 0.06628
1010.20 0.06626
1010.30 0.06625
1010.40 0.06624
1010.50 0.06623
1010.60 0.06621
1010.70 0.0662
1010.80 0.06619
1010.90 0.06617
1011.00 0.06616
1011.10 0.06615
1011.20 0.06614
1011.30 0.06612
1011.40 0.06611
1011.50 0.0661
1011.60 0.06609
1011.70 0.06607
1011.80 0.06605
1011.90 0.06604
1012.00 0.06602
1012.10 0.066
1012.20 0.06598
1012.30 0.06596
1012.40 0.06594
1012.50 0.06593
1012.60 0.06591
1012.70 0.06589
1012.80 0.06587
1012.90 0.06585
1013.00 0.06583
1013.10 0.06581
1013.20 0.06579
1013.30 0.06577
1013.40 0.06576
1013.50 0.06574
1013.60 0.06572
1013.70 0.0657
1013.80 0.06568
1013.90 0.06566
1014.00 0.06563
1014.10 0.06561
1014.20 0.06559
1014.30 0.06557
1014.40 0.06555
1014.50 0.06553
1014.60 0.06551
1014.70 0.06549
1014.80 0.06547
1014.90 0.06544
1015.00 0.06542
1015.10 0.0654
1015.20 0.06538
1015.30 0.06535
1015.40 0.06533
1015.50 0.06531
1015.60 0.06529
1015.70 0.06527
1015.80 0.06524
1015.90 0.06522
1016.00 0.0652
1016.10 0.06518
1016.20 0.06516
1016.30 0.06513
1016.40 0.06511
1016.50 0.06509
1016.60 0.06507
1016.70 0.06504
1016.80 0.06502
1016.90 0.065
1017.00 0.06498
1017.10 0.06495
1017.20 0.06493
1017.30 0.06491
1017.40 0.06488
1017.50 0.06486
1017.60 0.06484
1017.70 0.06481
1017.80 0.06479
1017.90 0.06477
1018.00 0.06474
1018.10 0.06472
1018.20 0.0647
1018.30 0.06467
1018.40 0.06465
1018.50 0.06463
1018.60 0.06461
1018.70 0.06458
1018.80 0.06456
1018.90 0.06453
1019.00 0.06451
1019.10 0.06449
1019.20 0.06446
1019.30 0.06444
1019.40 0.06442
1019.50 0.06439
1019.60 0.06437
1019.70 0.06435
1019.80 0.06432
1019.90 0.0643
1020.00 0.06428
1020.10 0.06425
1020.20 0.06423
1020.30 0.06421
1020.40 0.06418
1020.50 0.06416
1020.60 0.06413
1020.70 0.06411
1020.80 0.06409
1020.90 0.06406
1021.00 0.06404
1021.10 0.06402
1021.20 0.06399
1021.30 0.06397
1021.40 0.06395
1021.50 0.06392
1021.60 0.0639
1021.70 0.06387
1021.80 0.06385
1021.90 0.06383
1022.00 0.0638
1022.10 0.06378
1022.20 0.06376
1022.30 0.06373
1022.40 0.06371
1022.50 0.06369
1022.60 0.06366
1022.70 0.06364
1022.80 0.06361
1022.90 0.06359
1023.00 0.06357
1023.10 0.06354
1023.20 0.06352
1023.30 0.0635
1023.40 0.06347
1023.50 0.06345
1023.60 0.06342
1023.70 0.0634
1023.80 0.06338
1023.90 0.06335
1024.00 0.06333
1024.10 0.06331
1024.20 0.06328
1024.30 0.06326
1024.40 0.06324
1024.50 0.06321
1024.60 0.06319
1024.70 0.06317
1024.80 0.06314
1024.90 0.06312
1025.00 0.06309
1025.10 0.06307
1025.20 0.06305
1025.30 0.06302
1025.40 0.063
1025.50 0.06298
1025.60 0.06295
1025.70 0.06293
1025.80 0.06291
1025.90 0.06288
1026.00 0.06286
1026.10 0.06283
1026.20 0.06281
1026.30 0.06279
1026.40 0.06276
1026.50 0.06274
1026.60 0.06272
1026.70 0.06269
1026.80 0.06267
1026.90 0.06265
1027.00 0.06262
1027.10 0.0626
1027.20 0.06258
1027.30 0.06255
1027.40 0.06253
1027.50 0.06251
1027.60 0.06248
1027.70 0.06246
1027.80 0.06244
1027.90 0.06241
1028.00 0.06239
1028.10 0.06237
1028.20 0.06234
1028.30 0.06232
1028.40 0.0623
1028.50 0.06227
1028.60 0.06225
1028.70 0.06223
1028.80 0.0622
1028.90 0.06218
1029.00 0.06216
1029.10 0.06213
1029.20 0.06211
1029.30 0.06209
1029.40 0.06206
1029.50 0.06204
1029.60 0.06202
1029.70 0.06199
1029.80 0.06197
1029.90 0.06195
1030.00 0.06192
1030.10 0.0619
1030.20 0.06188
1030.30 0.06185
1030.40 0.06183
1030.50 0.06181
1030.60 0.06178
1030.70 0.06176
1030.80 0.06174
1030.90 0.06171
1031.00 0.06169
1031.10 0.06167
1031.20 0.06164
1031.30 0.06162
1031.40 0.0616
1031.50 0.06158
1031.60 0.06155
1031.70 0.06153
1031.80 0.06151
1031.90 0.06148
1032.00 0.06146
1032.10 0.06144
1032.20 0.06141
1032.30 0.06139
1032.40 0.06137
1032.50 0.06134
1032.60 0.06132
1032.70 0.0613
1032.80 0.06128
1032.90 0.06125
1033.00 0.06123
1033.10 0.06121
1033.20 0.06118
1033.30 0.06116
1033.40 0.06114
1033.50 0.06112
1033.60 0.06109
1033.70 0.06107
1033.80 0.06105
1033.90 0.06102
1034.00 0.061
1034.10 0.06098
1034.20 0.06096
1034.30 0.06093
1034.40 0.06091
1034.50 0.06089
1034.60 0.06086
1034.70 0.06084
1034.80 0.06082
1034.90 0.0608
1035.00 0.06077
1035.10 0.06075
1035.20 0.06073
1035.30 0.0607
1035.40 0.06068
1035.50 0.06066
1035.60 0.06064
1035.70 0.06061
1035.80 0.06059
1035.90 0.06057
1036.00 0.06055
1036.10 0.06052
1036.20 0.0605
1036.30 0.06048
1036.40 0.06046
1036.50 0.06043
1036.60 0.06041
1036.70 0.06039
1036.80 0.06036
1036.90 0.06034
1037.00 0.06032
1037.10 0.0603
1037.20 0.06027
1037.30 0.06025
1037.40 0.06023
1037.50 0.06021
1037.60 0.06018
1037.70 0.06016
1037.80 0.06014
1037.90 0.06012
1038.00 0.06009
1038.10 0.06007
1038.20 0.06005
1038.30 0.06003
1038.40 0.06
1038.50 0.05998
1038.60 0.05996
1038.70 0.05994
1038.80 0.05992
1038.90 0.05989
1039.00 0.05987
1039.10 0.05985
1039.20 0.05983
1039.30 0.0598
1039.40 0.05978
1039.50 0.05976
1039.60 0.05974
1039.70 0.05971
1039.80 0.05969
1039.90 0.05967
1040.00 0.05965
1040.10 0.05963
1040.20 0.0596
1040.30 0.05958
1040.40 0.05956
1040.50 0.05954
1040.60 0.05951
1040.70 0.05949
1040.80 0.05947
1040.90 0.05945
1041.00 0.05942
1041.10 0.0594
1041.20 0.05938
1041.30 0.05936
1041.40 0.05934
1041.50 0.05931
1041.60 0.05929
1041.70 0.05927
1041.80 0.05925
1041.90 0.05923
1042.00 0.0592
1042.10 0.05918
1042.20 0.05916
1042.30 0.05914
1042.40 0.05912
1042.50 0.05909
1042.60 0.05907
1042.70 0.05905
1042.80 0.05903
1042.90 0.05901
1043.00 0.05898
1043.10 0.05896
1043.20 0.05894
1043.30 0.05892
1043.40 0.0589
1043.50 0.05887
1043.60 0.05885
1043.70 0.05883
1043.80 0.05881
1043.90 0.05879
1044.00 0.05876
1044.10 0.05874
1044.20 0.05872
1044.30 0.0587
1044.40 0.05868
1044.50 0.05865
1044.60 0.05863
1044.70 0.05861
1044.80 0.05859
1044.90 0.05857
1045.00 0.05855
1045.10 0.05852
1045.20 0.0585
1045.30 0.05848
1045.40 0.05846
1045.50 0.05844
1045.60 0.05842
1045.70 0.05839
1045.80 0.05837
1045.90 0.05835
1046.00 0.05833
1046.10 0.05831
1046.20 0.05828
1046.30 0.05826
1046.40 0.05824
1046.50 0.05822
1046.60 0.0582
1046.70 0.05818
1046.80 0.05815
1046.90 0.05813
1047.00 0.05811
1047.10 0.05809
1047.20 0.05807
1047.30 0.05805
1047.40 0.05803
1047.50 0.058
1047.60 0.05798
1047.70 0.05796
1047.80 0.05794
1047.90 0.05792
1048.00 0.0579
1048.10 0.05788
1048.20 0.05785
1048.30 0.05783
1048.40 0.05781
1048.50 0.05779
1048.60 0.05777
1048.70 0.05775
1048.80 0.05773
1048.90 0.0577
1049.00 0.05768
1049.10 0.05766
1049.20 0.05764
1049.30 0.05762
1049.40 0.0576
1049.50 0.05758
1049.60 0.05755
1049.70 0.05753
1049.80 0.05751
1049.90 0.05749
1050.00 0.05747
1050.10 0.05745
1050.20 0.05743
1050.30 0.05741
1050.40 0.05738
1050.50 0.05736
1050.60 0.05734
1050.70 0.05732
1050.80 0.0573
1050.90 0.05728
1051.00 0.05726
1051.10 0.05723
1051.20 0.05721
1051.30 0.05719
1051.40 0.05717
1051.50 0.05715
1051.60 0.05713
1051.70 0.05711
1051.80 0.05709
1051.90 0.05707
1052.00 0.05704
1052.10 0.05702
1052.20 0.057
1052.30 0.05698
1052.40 0.05696
1052.50 0.05694
1052.60 0.05692
1052.70 0.0569
1052.80 0.05688
1052.90 0.05685
1053.00 0.05683
1053.10 0.05681
1053.20 0.05679
1053.30 0.05677
1053.40 0.05675
1053.50 0.05673
1053.60 0.05671
1053.70 0.05669
1053.80 0.05667
1053.90 0.05665
1054.00 0.05662
1054.10 0.0566
1054.20 0.05658
1054.30 0.05656
1054.40 0.05654
1054.50 0.05652
1054.60 0.0565
1054.70 0.05648
1054.80 0.05646
1054.90 0.05644
1055.00 0.05642
1055.10 0.05639
1055.20 0.05637
1055.30 0.05635
1055.40 0.05633
1055.50 0.05631
1055.60 0.05629
1055.70 0.05627
1055.80 0.05625
1055.90 0.05623
1056.00 0.05621
1056.10 0.05619
1056.20 0.05617
1056.30 0.05615
1056.40 0.05612
1056.50 0.0561
1056.60 0.05608
1056.70 0.05606
1056.80 0.05604
1056.90 0.05602
1057.00 0.056
1057.10 0.05598
1057.20 0.05596
1057.30 0.05594
1057.40 0.05592
1057.50 0.0559
1057.60 0.05588
1057.70 0.05586
1057.80 0.05584
1057.90 0.05581
1058.00 0.05579
1058.10 0.05577
1058.20 0.05575
1058.30 0.05573
1058.40 0.05571
1058.50 0.05569
1058.60 0.05567
1058.70 0.05565
1058.80 0.05563
1058.90 0.05561
1059.00 0.05559
1059.10 0.05557
1059.20 0.05555
1059.30 0.05553
1059.40 0.05551
1059.50 0.05549
1059.60 0.05547
1059.70 0.05545
1059.80 0.05543
1059.90 0.05541
1060.00 0.05539
1060.10 0.05536
1060.20 0.05534
1060.30 0.05532
1060.40 0.0553
1060.50 0.05528
1060.60 0.05526
1060.70 0.05524
1060.80 0.05522
1060.90 0.0552
1061.00 0.05518
1061.10 0.05516
1061.20 0.05514
1061.30 0.05512
1061.40 0.0551
1061.50 0.05508
1061.60 0.05506
1061.70 0.05504
1061.80 0.05502
1061.90 0.055
1062.00 0.05498
1062.10 0.05496
1062.20 0.05494
1062.30 0.05492
1062.40 0.0549
1062.50 0.05488
1062.60 0.05486
1062.70 0.05484
1062.80 0.05482
1062.90 0.0548
1063.00 0.05478
1063.10 0.05476
1063.20 0.05474
1063.30 0.05472
1063.40 0.0547
1063.50 0.05468
1063.60 0.05466
1063.70 0.05464
1063.80 0.05462
1063.90 0.0546
1064.00 0.05458
1064.10 0.05456
1064.20 0.05454
1064.30 0.05452
1064.40 0.0545
1064.50 0.05448
1064.60 0.05446
1064.70 0.05444
1064.80 0.05442
1064.90 0.0544
1065.00 0.05438
1065.10 0.05436
1065.20 0.05434
1065.30 0.05432
1065.40 0.0543
1065.50 0.05428
1065.60 0.05426
1065.70 0.05424
1065.80 0.05422
1065.90 0.0542
1066.00 0.05418
1066.10 0.05416
1066.20 0.05414
1066.30 0.05412
1066.40 0.0541
1066.50 0.05408
1066.60 0.05406
1066.70 0.05404
1066.80 0.05402
1066.90 0.054
1067.00 0.05398
1067.10 0.05396
1067.20 0.05394
1067.30 0.05392
1067.40 0.0539
1067.50 0.05388
1067.60 0.05386
1067.70 0.05384
1067.80 0.05382
1067.90 0.0538
1068.00 0.05378
1068.10 0.05376
1068.20 0.05374
1068.30 0.05372
1068.40 0.0537
1068.50 0.05368
1068.60 0.05366
1068.70 0.05364
1068.80 0.05362
1068.90 0.0536
1069.00 0.05358
1069.10 0.05356
1069.20 0.05354
1069.30 0.05352
1069.40 0.05351
1069.50 0.05349
1069.60 0.05347
1069.70 0.05345
1069.80 0.05343
1069.90 0.05341
1070.00 0.05339
1070.10 0.05337
1070.20 0.05335
1070.30 0.05333
1070.40 0.05331
1070.50 0.05329
1070.60 0.05327
1070.70 0.05325
1070.80 0.05323
1070.90 0.05321
1071.00 0.05319
1071.10 0.05317
1071.20 0.05315
1071.30 0.05313
1071.40 0.05311
1071.50 0.05309
1071.60 0.05307
1071.70 0.05306
1071.80 0.05304
1071.90 0.05302
1072.00 0.053
1072.10 0.05298
1072.20 0.05296
1072.30 0.05294
1072.40 0.05292
1072.50 0.0529
1072.60 0.05288
1072.70 0.05286
1072.80 0.05284
1072.90 0.05282
1073.00 0.0528
1073.10 0.05278
1073.20 0.05276
1073.30 0.05274
1073.40 0.05272
1073.50 0.0527
1073.60 0.05269
1073.70 0.05267
1073.80 0.05265
1073.90 0.05263
1074.00 0.05261
1074.10 0.05259
1074.20 0.05257
1074.30 0.05255
1074.40 0.05253
1074.50 0.05251
1074.60 0.05249
1074.70 0.05247
1074.80 0.05245
1074.90 0.05243
1075.00 0.05241
1075.10 0.05239
1075.20 0.05237
1075.30 0.05236
1075.40 0.05234
1075.50 0.05232
1075.60 0.0523
1075.70 0.05228
1075.80 0.05226
1075.90 0.05224
1076.00 0.05222
1076.10 0.0522
1076.20 0.05218
1076.30 0.05216
1076.40 0.05214
1076.50 0.05212
1076.60 0.0521
1076.70 0.05208
1076.80 0.05207
1076.90 0.05205
1077.00 0.05203
1077.10 0.05201
1077.20 0.05199
1077.30 0.05197
1077.40 0.05195
1077.50 0.05193
1077.60 0.05191
1077.70 0.05189
1077.80 0.05187
1077.90 0.05185
1078.00 0.05183
1078.10 0.05181
1078.20 0.05179
1078.30 0.05177
1078.40 0.05175
1078.50 0.05173
1078.60 0.05172
1078.70 0.0517
1078.80 0.05168
1078.90 0.05166
1079.00 0.05164
1079.10 0.05162
1079.20 0.0516
1079.30 0.05158
1079.40 0.05156
1079.50 0.05154
1079.60 0.05152
1079.70 0.0515
1079.80 0.05148
1079.90 0.05146
1080.00 0.05144
1080.10 0.05142
1080.20 0.0514
1080.30 0.05138
1080.40 0.05136
1080.50 0.05134
1080.60 0.05132
1080.70 0.0513
1080.80 0.05128
1080.90 0.05126
1081.00 0.05124
1081.10 0.05122
1081.20 0.0512
1081.30 0.05119
1081.40 0.05117
1081.50 0.05115
1081.60 0.05113
1081.70 0.05111
1081.80 0.05109
1081.90 0.05107
1082.00 0.05105
1082.10 0.05102
1082.20 0.051
1082.30 0.05098
1082.40 0.05096
1082.50 0.05094
1082.60 0.05092
1082.70 0.0509
1082.80 0.05088
1082.90 0.05086
1083.00 0.05084
1083.10 0.05082
1083.20 0.0508
1083.30 0.05078
1083.40 0.05076
1083.50 0.05074
1083.60 0.05072
1083.70 0.0507
1083.80 0.05067
1083.90 0.05065
1084.00 0.05063
1084.10 0.05061
1084.20 0.05059
1084.30 0.05057
1084.40 0.05055
1084.50 0.05053
1084.60 0.0505
1084.70 0.05048
1084.80 0.05046
1084.90 0.05043
1085.00 0.05041
1085.10 0.05039
1085.20 0.05036
1085.30 0.05034
1085.40 0.05032
1085.50 0.0503
1085.60 0.05027
1085.70 0.05025
1085.80 0.05023
1085.90 0.0502
1086.00 0.05018
1086.10 0.05016
1086.20 0.05014
1086.30 0.05011
1086.40 0.05009
1086.50 0.05007
1086.60 0.05004
1086.70 0.05002
1086.80 0.04999
1086.90 0.04997
1087.00 0.04994
1087.10 0.04991
1087.20 0.04989
1087.30 0.04986
1087.40 0.04983
1087.50 0.0498
1087.60 0.04977
1087.70 0.04975
1087.80 0.04972
1087.90 0.04969
1088.00 0.04966
1088.10 0.04963
1088.20 0.04961
1088.30 0.04958
1088.40 0.04955
1088.50 0.04952
1088.60 0.04948
1088.70 0.04945
1088.80 0.04941
1088.90 0.04937
1089.00 0.04934
1089.10 0.0493
1089.20 0.04927
1089.30 0.04923
1089.40 0.04919
1089.50 0.04916
1089.60 0.04912
1089.70 0.04908
1089.80 0.04905
1089.90 0.04901
1090.00 0.04898
1090.10 0.04894
1090.20 0.0489
1090.30 0.04887
1090.40 0.04883
1090.50 0.04879
1090.60 0.04874
1090.70 0.04869
1090.80 0.04865
1090.90 0.0486
1091.00 0.04855
1091.10 0.0485
1091.20 0.04845
1091.30 0.0484
1091.40 0.04835
1091.50 0.0483
1091.60 0.04826
1091.70 0.04821
1091.80 0.04816
1091.90 0.04811
1092.00 0.04806
1092.10 0.04801
1092.20 0.04796
1092.30 0.0479
1092.40 0.04785
1092.50 0.0478
1092.60 0.04775
1092.70 0.0477
1092.80 0.04766
1092.90 0.04763
1093.00 0.04759
1093.10 0.04756
1093.20 0.04756
1093.30 0.04756
1093.40 0.04758
1093.50 0.04764
1093.60 0.04775
1093.70 0.04783
1093.80 0.04789
1093.90 0.04788
1094.00 0.04775
1094.10 0.04763
1094.20 0.0475
1094.30 0.04741
1094.40 0.0474
1094.50 0.04739
1094.60 0.04737
1094.70 0.04736
1094.80 0.04735
1094.90 0.04734
1095.00 0.04734
1095.10 0.04736
1095.20 0.04738
1095.30 0.04739
1095.40 0.04741
1095.50 0.04743
1095.60 0.04745
1095.70 0.04746
1095.80 0.04748
1095.90 0.0475
1096.00 0.04752
1096.10 0.04754
1096.20 0.04755
1096.30 0.04757
1096.40 0.04759
1096.50 0.0476
1096.60 0.04762
1096.70 0.04763
1096.80 0.04764
1096.90 0.04765
1097.00 0.04766
1097.10 0.04767
1097.20 0.04767
1097.30 0.04767
1097.40 0.04768
1097.50 0.04768
1097.60 0.04768
1097.70 0.04769
1097.80 0.04769
1097.90 0.0477
1098.00 0.0477
1098.10 0.0477
1098.20 0.04771
1098.30 0.04771
1098.40 0.04771
1098.50 0.04772
1098.60 0.04771
1098.70 0.0477
1098.80 0.0477
1098.90 0.04769
1099.00 0.04769
1099.10 0.04768
1099.20 0.04768
1099.30 0.04767
1099.40 0.04767
1099.50 0.04766
1099.60 0.04765
1099.70 0.04765
1099.80 0.04764
1099.90 0.04764
1100.00 0.04763
1100.10 0.04763
1100.20 0.04762
1100.30 0.04762
1100.40 0.04761
1100.50 0.0476
1100.60 0.04759
1100.70 0.04758
1100.80 0.04757
1100.90 0.04756
1101.00 0.04755
1101.10 0.04754
1101.20 0.04753
1101.30 0.04752
1101.40 0.04751
1101.50 0.0475
1101.60 0.04748
1101.70 0.04747
1101.80 0.04746
1101.90 0.04745
1102.00 0.04744
1102.10 0.04743
1102.20 0.04742
1102.30 0.0474
1102.40 0.04739
1102.50 0.04738
1102.60 0.04737
1102.70 0.04735
1102.80 0.04734
1102.90 0.04733
1103.00 0.04731
1103.10 0.0473
1103.20 0.04729
1103.30 0.04727
1103.40 0.04726
1103.50 0.04724
1103.60 0.04723
1103.70 0.04722
1103.80 0.0472
1103.90 0.04719
1104.00 0.04717
1104.10 0.04716
1104.20 0.04714
1104.30 0.04713
1104.40 0.04711
1104.50 0.0471
1104.60 0.04709
1104.70 0.04707
1104.80 0.04706
1104.90 0.04704
1105.00 0.04703
1105.10 0.04701
1105.20 0.047
1105.30 0.04699
1105.40 0.04697
1105.50 0.04696
1105.60 0.04694
1105.70 0.04693
1105.80 0.04691
1105.90 0.0469
1106.00 0.04688
1106.10 0.04686
1106.20 0.04685
1106.30 0.04683
1106.40 0.04682
1106.50 0.0468
1106.60 0.04679
1106.70 0.04677
1106.80 0.04676
1106.90 0.04674
1107.00 0.04673
1107.10 0.04671
1107.20 0.0467
1107.30 0.04668
1107.40 0.04667
1107.50 0.04665
1107.60 0.04664
1107.70 0.04662
1107.80 0.0466
1107.90 0.04659
1108.00 0.04657
1108.10 0.04656
1108.20 0.04654
1108.30 0.04653
1108.40 0.04651
1108.50 0.0465
1108.60 0.04648
1108.70 0.04646
1108.80 0.04645
1108.90 0.04643
1109.00 0.04642
1109.10 0.0464
1109.20 0.04639
1109.30 0.04637
1109.40 0.04636
1109.50 0.04634
1109.60 0.04632
1109.70 0.04631
1109.80 0.04629
1109.90 0.04628
1110.00 0.04626
1110.10 0.04625
1110.20 0.04623
1110.30 0.04621
1110.40 0.0462
1110.50 0.04618
1110.60 0.04617
1110.70 0.04615
1110.80 0.04614
1110.90 0.04612
1111.00 0.0461
1111.10 0.04609
1111.20 0.04607
1111.30 0.04606
1111.40 0.04604
1111.50 0.04603
1111.60 0.04601
1111.70 0.04599
1111.80 0.04598
1111.90 0.04596
1112.00 0.04595
1112.10 0.04593
1112.20 0.04592
1112.30 0.0459
1112.40 0.04588
1112.50 0.04587
1112.60 0.04585
1112.70 0.04584
1112.80 0.04582
1112.90 0.04581
1113.00 0.04579
1113.10 0.04577
1113.20 0.04576
1113.30 0.04574
1113.40 0.04573
1113.50 0.04571
1113.60 0.0457
1113.70 0.04568
1113.80 0.04566
1113.90 0.04565
1114.00 0.04563
1114.10 0.04562
1114.20 0.0456
1114.30 0.04559
1114.40 0.04557
1114.50 0.04555
1114.60 0.04554
1114.70 0.04552
1114.80 0.04551
1114.90 0.04549
1115.00 0.04548
1115.10 0.04546
1115.20 0.04544
1115.30 0.04543
1115.40 0.04541
1115.50 0.0454
1115.60 0.04538
1115.70 0.04537
1115.80 0.04535
1115.90 0.04534
1116.00 0.04532
1116.10 0.0453
1116.20 0.04529
1116.30 0.04527
1116.40 0.04526
1116.50 0.04524
1116.60 0.04523
1116.70 0.04521
1116.80 0.04519
1116.90 0.04518
1117.00 0.04516
1117.10 0.04515
1117.20 0.04513
1117.30 0.04512
1117.40 0.0451
1117.50 0.04509
1117.60 0.04507
1117.70 0.04505
1117.80 0.04504
1117.90 0.04502
1118.00 0.04501
1118.10 0.04499
1118.20 0.04498
1118.30 0.04496
1118.40 0.04495
1118.50 0.04493
1118.60 0.04491
1118.70 0.0449
1118.80 0.04488
1118.90 0.04487
1119.00 0.04485
1119.10 0.04484
1119.20 0.04482
1119.30 0.04481
1119.40 0.04479
1119.50 0.04478
1119.60 0.04476
1119.70 0.04474
1119.80 0.04473
1119.90 0.04471
1120.00 0.0447
1120.10 0.04468
1120.20 0.04467
1120.30 0.04465
1120.40 0.04464
1120.50 0.04462
1120.60 0.04461
1120.70 0.04459
1120.80 0.04457
1120.90 0.04456
1121.00 0.04454
1121.10 0.04453
1121.20 0.04451
1121.30 0.0445
1121.40 0.04448
1121.50 0.04447
1121.60 0.04445
1121.70 0.04444
1121.80 0.04442
1121.90 0.04441
1122.00 0.04439
1122.10 0.04437
1122.20 0.04436
1122.30 0.04434
1122.40 0.04433
1122.50 0.04431
1122.60 0.0443
1122.70 0.04428
1122.80 0.04427
1122.90 0.04425
1123.00 0.04424
1123.10 0.04422
1123.20 0.04421
1123.30 0.04419
1123.40 0.04418
1123.50 0.04416
1123.60 0.04415
1123.70 0.04413
1123.80 0.04412
1123.90 0.0441
1124.00 0.04408
1124.10 0.04407
1124.20 0.04405
1124.30 0.04404
1124.40 0.04402
1124.50 0.04401
1124.60 0.04399
1124.70 0.04398
1124.80 0.04396
1124.90 0.04395
1125.00 0.04393
1125.10 0.04392
1125.20 0.0439
1125.30 0.04389
1125.40 0.04387
1125.50 0.04386
1125.60 0.04384
1125.70 0.04383
1125.80 0.04381
1125.90 0.0438
1126.00 0.04378
1126.10 0.04377
1126.20 0.04375
1126.30 0.04374
1126.40 0.04372
1126.50 0.04371
1126.60 0.04369
1126.70 0.04368
1126.80 0.04366
1126.90 0.04365
1127.00 0.04363
1127.10 0.04362
1127.20 0.0436
1127.30 0.04359
1127.40 0.04357
1127.50 0.04356
1127.60 0.04354
1127.70 0.04353
1127.80 0.04351
1127.90 0.0435
1128.00 0.04348
1128.10 0.04347
1128.20 0.04345
1128.30 0.04344
1128.40 0.04342
1128.50 0.04341
1128.60 0.04339
1128.70 0.04338
1128.80 0.04336
1128.90 0.04335
1129.00 0.04333
1129.10 0.04332
1129.20 0.0433
1129.30 0.04329
1129.40 0.04327
1129.50 0.04326
1129.60 0.04324
1129.70 0.04323
1129.80 0.04321
1129.90 0.0432
1130.00 0.04318
1130.10 0.04317
1130.20 0.04315
1130.30 0.04314
1130.40 0.04312
1130.50 0.04311
1130.60 0.04309
1130.70 0.04308
1130.80 0.04306
1130.90 0.04305
1131.00 0.04303
1131.10 0.04302
1131.20 0.043
1131.30 0.04299
1131.40 0.04298
1131.50 0.04296
1131.60 0.04295
1131.70 0.04293
1131.80 0.04292
1131.90 0.0429
1132.00 0.04289
1132.10 0.04287
1132.20 0.04286
1132.30 0.04284
1132.40 0.04283
1132.50 0.04281
1132.60 0.0428
1132.70 0.04278
1132.80 0.04277
1132.90 0.04275
1133.00 0.04274
1133.10 0.04272
1133.20 0.04271
1133.30 0.0427
1133.40 0.04268
1133.50 0.04267
1133.60 0.04265
1133.70 0.04264
1133.80 0.04262
1133.90 0.04261
1134.00 0.04259
1134.10 0.04258
1134.20 0.04256
1134.30 0.04255
1134.40 0.04253
1134.50 0.04252
1134.60 0.04251
1134.70 0.04249
1134.80 0.04248
1134.90 0.04246
1135.00 0.04245
1135.10 0.04243
1135.20 0.04242
1135.30 0.0424
1135.40 0.04239
1135.50 0.04237
1135.60 0.04236
1135.70 0.04235
1135.80 0.04233
1135.90 0.04232
1136.00 0.0423
1136.10 0.04229
1136.20 0.04227
1136.30 0.04226
1136.40 0.04224
1136.50 0.04223
1136.60 0.04222
1136.70 0.0422
1136.80 0.04219
1136.90 0.04217
1137.00 0.04216
1137.10 0.04214
1137.20 0.04213
1137.30 0.04211
1137.40 0.0421
1137.50 0.04209
1137.60 0.04207
1137.70 0.04206
1137.80 0.04204
1137.90 0.04203
1138.00 0.04201
1138.10 0.042
1138.20 0.04198
1138.30 0.04197
1138.40 0.04196
1138.50 0.04194
1138.60 0.04193
1138.70 0.04191
1138.80 0.0419
1138.90 0.04188
1139.00 0.04187
1139.10 0.04186
1139.20 0.04184
1139.30 0.04183
1139.40 0.04181
1139.50 0.0418
1139.60 0.04178
1139.70 0.04177
1139.80 0.04176
1139.90 0.04174
1140.00 0.04173
1140.10 0.04171
1140.20 0.0417
1140.30 0.04168
1140.40 0.04167
1140.50 0.04166
1140.60 0.04164
1140.70 0.04163
1140.80 0.04161
1140.90 0.0416
1141.00 0.04159
1141.10 0.04157
1141.20 0.04156
1141.30 0.04154
1141.40 0.04153
1141.50 0.04151
1141.60 0.0415
1141.70 0.04149
1141.80 0.04147
1141.90 0.04146
1142.00 0.04144
1142.10 0.04143
1142.20 0.04142
1142.30 0.0414
1142.40 0.04139
1142.50 0.04137
1142.60 0.04136
1142.70 0.04134
1142.80 0.04133
1142.90 0.04132
1143.00 0.0413
1143.10 0.04129
1143.20 0.04127
1143.30 0.04126
1143.40 0.04125
1143.50 0.04123
1143.60 0.04122
1143.70 0.0412
1143.80 0.04119
1143.90 0.04118
1144.00 0.04116
1144.10 0.04115
1144.20 0.04113
1144.30 0.04112
1144.40 0.04111
1144.50 0.04109
1144.60 0.04108
1144.70 0.04106
1144.80 0.04105
1144.90 0.04104
1145.00 0.04102
1145.10 0.04101
1145.20 0.04099
1145.30 0.04098
1145.40 0.04097
1145.50 0.04095
1145.60 0.04094
1145.70 0.04093
1145.80 0.04091
1145.90 0.0409
1146.00 0.04088
1146.10 0.04087
1146.20 0.04086
1146.30 0.04084
1146.40 0.04083
1146.50 0.04081
1146.60 0.0408
1146.70 0.04079
1146.80 0.04077
1146.90 0.04076
1147.00 0.04074
1147.10 0.04073
1147.20 0.04072
1147.30 0.0407
1147.40 0.04069
1147.50 0.04068
1147.60 0.04066
1147.70 0.04065
1147.80 0.04063
1147.90 0.04062
1148.00 0.04061
1148.10 0.04059
1148.20 0.04058
1148.30 0.04057
1148.40 0.04055
1148.50 0.04054
1148.60 0.04052
1148.70 0.04051
1148.80 0.0405
1148.90 0.04048
1149.00 0.04047
1149.10 0.04046
1149.20 0.04044
1149.30 0.04043
1149.40 0.04041
1149.50 0.0404
1149.60 0.04039
1149.70 0.04037
1149.80 0.04036
1149.90 0.04035
1150.00 0.04033
1150.10 0.04032
1150.20 0.04031
1150.30 0.04029
1150.40 0.04028
1150.50 0.04026
1150.60 0.04025
1150.70 0.04024
1150.80 0.04022
1150.90 0.04021
1151.00 0.0402
1151.10 0.04018
1151.20 0.04017
1151.30 0.04016
1151.40 0.04014
1151.50 0.04013
1151.60 0.04011
1151.70 0.0401
1151.80 0.04009
1151.90 0.04007
1152.00 0.04006
1152.10 0.04005
1152.20 0.04003
1152.30 0.04002
1152.40 0.04001
1152.50 0.03999
1152.60 0.03998
1152.70 0.03997
1152.80 0.03995
1152.90 0.03994
1153.00 0.03993
1153.10 0.03991
1153.20 0.0399
1153.30 0.03988
1153.40 0.03987
1153.50 0.03986
1153.60 0.03984
1153.70 0.03983
1153.80 0.03982
1153.90 0.0398
1154.00 0.03979
1154.10 0.03978
1154.20 0.03976
1154.30 0.03975
1154.40 0.03974
1154.50 0.03972
1154.60 0.03971
1154.70 0.0397
1154.80 0.03968
1154.90 0.03967
1155.00 0.03966
1155.10 0.03964
1155.20 0.03963
1155.30 0.03962
1155.40 0.0396
1155.50 0.03959
1155.60 0.03958
1155.70 0.03956
1155.80 0.03955
1155.90 0.03954
1156.00 0.03952
1156.10 0.03951
1156.20 0.0395
1156.30 0.03948
1156.40 0.03947
1156.50 0.03946
1156.60 0.03944
1156.70 0.03943
1156.80 0.03942
1156.90 0.0394
1157.00 0.03939
1157.10 0.03938
1157.20 0.03936
1157.30 0.03935
1157.40 0.03934
1157.50 0.03932
1157.60 0.03931
1157.70 0.0393
1157.80 0.03928
1157.90 0.03927
1158.00 0.03926
1158.10 0.03924
1158.20 0.03923
1158.30 0.03922
1158.40 0.03921
1158.50 0.03919
1158.60 0.03918
1158.70 0.03917
1158.80 0.03915
1158.90 0.03914
1159.00 0.03913
1159.10 0.03911
1159.20 0.0391
1159.30 0.03909
1159.40 0.03907
1159.50 0.03906
1159.60 0.03905
1159.70 0.03903
1159.80 0.03902
1159.90 0.03901
1160.00 0.03899
1160.10 0.03898
1160.20 0.03897
1160.30 0.03896
1160.40 0.03894
1160.50 0.03893
1160.60 0.03892
1160.70 0.0389
1160.80 0.03889
1160.90 0.03888
1161.00 0.03886
1161.10 0.03885
1161.20 0.03884
1161.30 0.03882
1161.40 0.03881
1161.50 0.0388
1161.60 0.03879
1161.70 0.03877
1161.80 0.03876
1161.90 0.03875
1162.00 0.03873
1162.10 0.03872
1162.20 0.03871
1162.30 0.03869
1162.40 0.03868
1162.50 0.03867
1162.60 0.03866
1162.70 0.03864
1162.80 0.03863
1162.90 0.03862
1163.00 0.0386
1163.10 0.03859
1163.20 0.03858
1163.30 0.03857
1163.40 0.03855
1163.50 0.03854
1163.60 0.03853
1163.70 0.03851
1163.80 0.0385
1163.90 0.03849
1164.00 0.03848
1164.10 0.03846
1164.20 0.03845
1164.30 0.03844
1164.40 0.03842
1164.50 0.03841
1164.60 0.0384
1164.70 0.03839
1164.80 0.03837
1164.90 0.03836
1165.00 0.03835
1165.10 0.03833
1165.20 0.03832
1165.30 0.03831
1165.40 0.0383
1165.50 0.03828
1165.60 0.03827
1165.70 0.03826
1165.80 0.03824
1165.90 0.03823
1166.00 0.03822
1166.10 0.03821
1166.20 0.03819
1166.30 0.03818
1166.40 0.03817
1166.50 0.03815
1166.60 0.03814
1166.70 0.03813
1166.80 0.03812
1166.90 0.0381
1167.00 0.03809
1167.10 0.03808
1167.20 0.03807
1167.30 0.03805
1167.40 0.03804
1167.50 0.03803
1167.60 0.03801
1167.70 0.038
1167.80 0.03799
1167.90 0.03798
1168.00 0.03796
1168.10 0.03795
1168.20 0.03794
1168.30 0.03793
1168.40 0.03791
1168.50 0.0379
1168.60 0.03789
1168.70 0.03788
1168.80 0.03786
1168.90 0.03785
1169.00 0.03784
1169.10 0.03783
1169.20 0.03781
1169.30 0.0378
1169.40 0.03779
1169.50 0.03778
1169.60 0.03776
1169.70 0.03775
1169.80 0.03774
1169.90 0.03772
1170.00 0.03771
1170.10 0.0377
1170.20 0.03769
1170.30 0.03767
1170.40 0.03766
1170.50 0.03765
1170.60 0.03764
1170.70 0.03762
1170.80 0.03761
1170.90 0.0376
1171.00 0.03759
1171.10 0.03757
1171.20 0.03756
1171.30 0.03755
1171.40 0.03754
1171.50 0.03752
1171.60 0.03751
1171.70 0.0375
1171.80 0.03749
1171.90 0.03747
1172.00 0.03746
1172.10 0.03745
1172.20 0.03744
1172.30 0.03742
1172.40 0.03741
1172.50 0.0374
1172.60 0.03739
1172.70 0.03737
1172.80 0.03736
1172.90 0.03735
1173.00 0.03734
1173.10 0.03733
1173.20 0.03731
1173.30 0.0373
1173.40 0.03729
1173.50 0.03728
1173.60 0.03726
1173.70 0.03725
1173.80 0.03724
1173.90 0.03723
1174.00 0.03721
1174.10 0.0372
1174.20 0.03719
1174.30 0.03718
1174.40 0.03716
1174.50 0.03715
1174.60 0.03714
1174.70 0.03713
1174.80 0.03712
1174.90 0.0371
1175.00 0.03709
1175.10 0.03708
1175.20 0.03707
1175.30 0.03705
1175.40 0.03704
1175.50 0.03703
1175.60 0.03702
1175.70 0.037
1175.80 0.03699
1175.90 0.03698
1176.00 0.03697
1176.10 0.03696
1176.20 0.03694
1176.30 0.03693
1176.40 0.03692
1176.50 0.03691
1176.60 0.03689
1176.70 0.03688
1176.80 0.03687
1176.90 0.03686
1177.00 0.03685
1177.10 0.03683
1177.20 0.03682
1177.30 0.03681
1177.40 0.0368
1177.50 0.03678
1177.60 0.03677
1177.70 0.03676
1177.80 0.03675
1177.90 0.03674
1178.00 0.03672
1178.10 0.03671
1178.20 0.0367
1178.30 0.03669
1178.40 0.03668
1178.50 0.03666
1178.60 0.03665
1178.70 0.03664
1178.80 0.03663
1178.90 0.03661
1179.00 0.0366
1179.10 0.03659
1179.20 0.03658
1179.30 0.03657
1179.40 0.03655
1179.50 0.03654
1179.60 0.03653
1179.70 0.03652
1179.80 0.03651
1179.90 0.03649
1180.00 0.03648
1180.10 0.03647
1180.20 0.03646
1180.30 0.03645
1180.40 0.03643
1180.50 0.03642
1180.60 0.03641
1180.70 0.0364
1180.80 0.03639
1180.90 0.03637
1181.00 0.03636
1181.10 0.03635
1181.20 0.03634
1181.30 0.03633
1181.40 0.03631
1181.50 0.0363
1181.60 0.03629
1181.70 0.03628
1181.80 0.03627
1181.90 0.03625
1182.00 0.03624
1182.10 0.03623
1182.20 0.03622
1182.30 0.03621
1182.40 0.03619
1182.50 0.03618
1182.60 0.03617
1182.70 0.03616
1182.80 0.03615
1182.90 0.03613
1183.00 0.03612
1183.10 0.03611
1183.20 0.0361
1183.30 0.03609
1183.40 0.03608
1183.50 0.03606
1183.60 0.03605
1183.70 0.03604
1183.80 0.03603
1183.90 0.03602
1184.00 0.036
1184.10 0.03599
1184.20 0.03598
1184.30 0.03597
1184.40 0.03596
1184.50 0.03594
1184.60 0.03593
1184.70 0.03592
1184.80 0.03591
1184.90 0.0359
1185.00 0.03589
1185.10 0.03587
1185.20 0.03586
1185.30 0.03585
1185.40 0.03584
1185.50 0.03583
1185.60 0.03581
1185.70 0.0358
1185.80 0.03579
1185.90 0.03578
1186.00 0.03577
1186.10 0.03576
1186.20 0.03574
1186.30 0.03573
1186.40 0.03572
1186.50 0.03571
1186.60 0.0357
1186.70 0.03569
1186.80 0.03567
1186.90 0.03566
1187.00 0.03565
1187.10 0.03564
1187.20 0.03563
1187.30 0.03562
1187.40 0.0356
1187.50 0.03559
1187.60 0.03558
1187.70 0.03557
1187.80 0.03556
1187.90 0.03555
1188.00 0.03553
1188.10 0.03552
1188.20 0.03551
1188.30 0.0355
1188.40 0.03549
1188.50 0.03548
1188.60 0.03546
1188.70 0.03545
1188.80 0.03544
1188.90 0.03543
1189.00 0.03542
1189.10 0.03541
1189.20 0.03539
1189.30 0.03538
1189.40 0.03537
1189.50 0.03536
1189.60 0.03535
1189.70 0.03534
1189.80 0.03532
1189.90 0.03531
1190.00 0.0353
1190.10 0.03529
1190.20 0.03528
1190.30 0.03527
1190.40 0.03526
1190.50 0.03524
1190.60 0.03523
1190.70 0.03522
1190.80 0.03521
1190.90 0.0352
1191.00 0.03519
1191.10 0.03517
1191.20 0.03516
1191.30 0.03515
1191.40 0.03514
1191.50 0.03513
1191.60 0.03512
1191.70 0.0351
1191.80 0.03509
1191.90 0.03508
1192.00 0.03507
1192.10 0.03506
1192.20 0.03505
1192.30 0.03504
1192.40 0.03502
1192.50 0.03501
1192.60 0.035
1192.70 0.03499
1192.80 0.03498
1192.90 0.03497
1193.00 0.03496
1193.10 0.03494
1193.20 0.03493
1193.30 0.03492
1193.40 0.03491
1193.50 0.0349
1193.60 0.03489
1193.70 0.03488
1193.80 0.03487
1193.90 0.03485
1194.00 0.03484
1194.10 0.03483
1194.20 0.03482
1194.30 0.03481
1194.40 0.0348
1194.50 0.03479
1194.60 0.03477
1194.70 0.03476
1194.80 0.03475
1194.90 0.03474
1195.00 0.03473
1195.10 0.03472
1195.20 0.03471
1195.30 0.03469
1195.40 0.03468
1195.50 0.03467
1195.60 0.03466
1195.70 0.03465
1195.80 0.03464
1195.90 0.03463
1196.00 0.03462
1196.10 0.0346
1196.20 0.03459
1196.30 0.03458
1196.40 0.03457
1196.50 0.03456
1196.60 0.03455
1196.70 0.03454
1196.80 0.03453
1196.90 0.03451
1197.00 0.0345
1197.10 0.03449
1197.20 0.03448
1197.30 0.03447
1197.40 0.03446
1197.50 0.03445
1197.60 0.03444
1197.70 0.03442
1197.80 0.03441
1197.90 0.0344
1198.00 0.03439
1198.10 0.03438
1198.20 0.03437
1198.30 0.03436
1198.40 0.03435
1198.50 0.03434
1198.60 0.03432
1198.70 0.03431
1198.80 0.0343
1198.90 0.03429
1199.00 0.03428
1199.10 0.03427
1199.20 0.03426
1199.30 0.03425
1199.40 0.03423
1199.50 0.03422
1199.60 0.03421
1199.70 0.0342
1199.80 0.03419
1199.90 0.03418
1200.00 0
