# Version 2.1 - nm, norm@500 to 1, cut digits, bergeron_65000_95.dat_65000
# Wavelength(nm)  Flambda(ergs/cm^s/s/nm)
300.00 6.551
300.10 6.543
300.20 6.535
300.30 6.527
300.40 6.519
300.50 6.511
300.60 6.503
300.70 6.495
300.80 6.487
300.90 6.479
301.00 6.471
301.10 6.463
301.20 6.456
301.30 6.448
301.40 6.44
301.50 6.432
301.60 6.424
301.70 6.416
301.80 6.408
301.90 6.4
302.00 6.393
302.10 6.385
302.20 6.377
302.30 6.369
302.40 6.361
302.50 6.354
302.60 6.346
302.70 6.338
302.80 6.33
302.90 6.323
303.00 6.315
303.10 6.307
303.20 6.299
303.30 6.292
303.40 6.284
303.50 6.276
303.60 6.269
303.70 6.261
303.80 6.254
303.90 6.246
304.00 6.238
304.10 6.231
304.20 6.223
304.30 6.216
304.40 6.208
304.50 6.201
304.60 6.193
304.70 6.186
304.80 6.178
304.90 6.171
305.00 6.163
305.10 6.156
305.20 6.148
305.30 6.141
305.40 6.133
305.50 6.126
305.60 6.118
305.70 6.111
305.80 6.104
305.90 6.096
306.00 6.089
306.10 6.082
306.20 6.074
306.30 6.067
306.40 6.06
306.50 6.052
306.60 6.045
306.70 6.038
306.80 6.03
306.90 6.023
307.00 6.016
307.10 6.009
307.20 6.001
307.30 5.994
307.40 5.987
307.50 5.98
307.60 5.973
307.70 5.965
307.80 5.958
307.90 5.951
308.00 5.944
308.10 5.937
308.20 5.93
308.30 5.923
308.40 5.915
308.50 5.908
308.60 5.901
308.70 5.894
308.80 5.887
308.90 5.88
309.00 5.873
309.10 5.866
309.20 5.859
309.30 5.852
309.40 5.845
309.50 5.838
309.60 5.831
309.70 5.824
309.80 5.817
309.90 5.81
310.00 5.803
310.10 5.796
310.20 5.789
310.30 5.782
310.40 5.776
310.50 5.769
310.60 5.762
310.70 5.755
310.80 5.748
310.90 5.741
311.00 5.734
311.10 5.728
311.20 5.721
311.30 5.714
311.40 5.707
311.50 5.7
311.60 5.694
311.70 5.687
311.80 5.68
311.90 5.673
312.00 5.667
312.10 5.66
312.20 5.653
312.30 5.646
312.40 5.64
312.50 5.633
312.60 5.626
312.70 5.62
312.80 5.613
312.90 5.606
313.00 5.6
313.10 5.593
313.20 5.587
313.30 5.58
313.40 5.573
313.50 5.567
313.60 5.56
313.70 5.554
313.80 5.547
313.90 5.541
314.00 5.534
314.10 5.528
314.20 5.521
314.30 5.514
314.40 5.508
314.50 5.502
314.60 5.495
314.70 5.489
314.80 5.482
314.90 5.476
315.00 5.469
315.10 5.463
315.20 5.456
315.30 5.45
315.40 5.444
315.50 5.437
315.60 5.431
315.70 5.424
315.80 5.418
315.90 5.412
316.00 5.405
316.10 5.399
316.20 5.393
316.30 5.386
316.40 5.38
316.50 5.374
316.60 5.367
316.70 5.361
316.80 5.355
316.90 5.349
317.00 5.342
317.10 5.336
317.20 5.33
317.30 5.324
317.40 5.318
317.50 5.311
317.60 5.305
317.70 5.299
317.80 5.293
317.90 5.287
318.00 5.28
318.10 5.274
318.20 5.268
318.30 5.262
318.40 5.256
318.50 5.25
318.60 5.244
318.70 5.238
318.80 5.231
318.90 5.225
319.00 5.219
319.10 5.213
319.20 5.207
319.30 5.201
319.40 5.195
319.50 5.189
319.60 5.183
319.70 5.177
319.80 5.171
319.90 5.165
320.00 5.159
320.10 5.153
320.20 5.147
320.30 5.141
320.40 5.135
320.50 5.129
320.60 5.123
320.70 5.117
320.80 5.111
320.90 5.106
321.00 5.1
321.10 5.094
321.20 5.088
321.30 5.082
321.40 5.076
321.50 5.07
321.60 5.064
321.70 5.059
321.80 5.053
321.90 5.047
322.00 5.041
322.10 5.035
322.20 5.03
322.30 5.024
322.40 5.018
322.50 5.012
322.60 5.006
322.70 5.001
322.80 4.995
322.90 4.989
323.00 4.984
323.10 4.978
323.20 4.972
323.30 4.966
323.40 4.961
323.50 4.955
323.60 4.949
323.70 4.944
323.80 4.938
323.90 4.932
324.00 4.927
324.10 4.921
324.20 4.915
324.30 4.91
324.40 4.904
324.50 4.899
324.60 4.893
324.70 4.887
324.80 4.882
324.90 4.876
325.00 4.871
325.10 4.865
325.20 4.86
325.30 4.854
325.40 4.848
325.50 4.843
325.60 4.837
325.70 4.832
325.80 4.826
325.90 4.821
326.00 4.815
326.10 4.81
326.20 4.804
326.30 4.799
326.40 4.793
326.50 4.788
326.60 4.783
326.70 4.777
326.80 4.772
326.90 4.766
327.00 4.761
327.10 4.756
327.20 4.75
327.30 4.745
327.40 4.739
327.50 4.734
327.60 4.729
327.70 4.723
327.80 4.718
327.90 4.713
328.00 4.707
328.10 4.702
328.20 4.697
328.30 4.691
328.40 4.686
328.50 4.681
328.60 4.675
328.70 4.67
328.80 4.665
328.90 4.66
329.00 4.654
329.10 4.649
329.20 4.644
329.30 4.639
329.40 4.633
329.50 4.628
329.60 4.623
329.70 4.618
329.80 4.612
329.90 4.607
330.00 4.602
330.10 4.597
330.20 4.592
330.30 4.587
330.40 4.581
330.50 4.576
330.60 4.571
330.70 4.566
330.80 4.561
330.90 4.556
331.00 4.551
331.10 4.546
331.20 4.541
331.30 4.535
331.40 4.53
331.50 4.525
331.60 4.52
331.70 4.515
331.80 4.51
331.90 4.505
332.00 4.5
332.10 4.495
332.20 4.49
332.30 4.485
332.40 4.48
332.50 4.475
332.60 4.47
332.70 4.465
332.80 4.46
332.90 4.455
333.00 4.45
333.10 4.445
333.20 4.44
333.30 4.435
333.40 4.43
333.50 4.425
333.60 4.42
333.70 4.415
333.80 4.41
333.90 4.405
334.00 4.401
334.10 4.396
334.20 4.391
334.30 4.386
334.40 4.381
334.50 4.376
334.60 4.371
334.70 4.367
334.80 4.362
334.90 4.357
335.00 4.352
335.10 4.347
335.20 4.342
335.30 4.338
335.40 4.333
335.50 4.328
335.60 4.323
335.70 4.318
335.80 4.314
335.90 4.309
336.00 4.304
336.10 4.299
336.20 4.294
336.30 4.29
336.40 4.285
336.50 4.28
336.60 4.276
336.70 4.271
336.80 4.266
336.90 4.261
337.00 4.257
337.10 4.252
337.20 4.247
337.30 4.243
337.40 4.238
337.50 4.233
337.60 4.229
337.70 4.224
337.80 4.219
337.90 4.215
338.00 4.21
338.10 4.205
338.20 4.201
338.30 4.196
338.40 4.192
338.50 4.187
338.60 4.182
338.70 4.178
338.80 4.173
338.90 4.169
339.00 4.164
339.10 4.159
339.20 4.155
339.30 4.15
339.40 4.146
339.50 4.141
339.60 4.137
339.70 4.132
339.80 4.128
339.90 4.123
340.00 4.119
340.10 4.114
340.20 4.11
340.30 4.105
340.40 4.101
340.50 4.096
340.60 4.092
340.70 4.087
340.80 4.083
340.90 4.078
341.00 4.074
341.10 4.069
341.20 4.065
341.30 4.061
341.40 4.056
341.50 4.052
341.60 4.047
341.70 4.043
341.80 4.038
341.90 4.034
342.00 4.03
342.10 4.025
342.20 4.021
342.30 4.017
342.40 4.012
342.50 4.008
342.60 4.003
342.70 3.999
342.80 3.995
342.90 3.99
343.00 3.986
343.10 3.982
343.20 3.977
343.30 3.973
343.40 3.969
343.50 3.965
343.60 3.96
343.70 3.956
343.80 3.952
343.90 3.947
344.00 3.943
344.10 3.939
344.20 3.935
344.30 3.93
344.40 3.926
344.50 3.922
344.60 3.918
344.70 3.913
344.80 3.909
344.90 3.905
345.00 3.901
345.10 3.897
345.20 3.892
345.30 3.888
345.40 3.884
345.50 3.88
345.60 3.876
345.70 3.871
345.80 3.867
345.90 3.863
346.00 3.859
346.10 3.855
346.20 3.851
346.30 3.846
346.40 3.842
346.50 3.838
346.60 3.834
346.70 3.83
346.80 3.826
346.90 3.822
347.00 3.818
347.10 3.814
347.20 3.809
347.30 3.805
347.40 3.801
347.50 3.797
347.60 3.793
347.70 3.789
347.80 3.785
347.90 3.781
348.00 3.777
348.10 3.773
348.20 3.769
348.30 3.765
348.40 3.761
348.50 3.757
348.60 3.753
348.70 3.749
348.80 3.745
348.90 3.741
349.00 3.737
349.10 3.733
349.20 3.729
349.30 3.725
349.40 3.721
349.50 3.717
349.60 3.713
349.70 3.709
349.80 3.705
349.90 3.701
350.00 3.697
350.10 3.693
350.20 3.689
350.30 3.685
350.40 3.681
350.50 3.677
350.60 3.674
350.70 3.67
350.80 3.666
350.90 3.662
351.00 3.658
351.10 3.654
351.20 3.65
351.30 3.646
351.40 3.642
351.50 3.639
351.60 3.635
351.70 3.631
351.80 3.627
351.90 3.623
352.00 3.619
352.10 3.616
352.20 3.612
352.30 3.608
352.40 3.604
352.50 3.6
352.60 3.596
352.70 3.593
352.80 3.589
352.90 3.585
353.00 3.581
353.10 3.578
353.20 3.574
353.30 3.57
353.40 3.566
353.50 3.562
353.60 3.559
353.70 3.555
353.80 3.551
353.90 3.547
354.00 3.544
354.10 3.54
354.20 3.536
354.30 3.533
354.40 3.529
354.50 3.525
354.60 3.521
354.70 3.518
354.80 3.514
354.90 3.51
355.00 3.507
355.10 3.503
355.20 3.499
355.30 3.496
355.40 3.492
355.50 3.488
355.60 3.485
355.70 3.481
355.80 3.477
355.90 3.474
356.00 3.47
356.10 3.466
356.20 3.463
356.30 3.459
356.40 3.455
356.50 3.452
356.60 3.448
356.70 3.445
356.80 3.441
356.90 3.437
357.00 3.434
357.10 3.43
357.20 3.427
357.30 3.423
357.40 3.42
357.50 3.416
357.60 3.412
357.70 3.409
357.80 3.405
357.90 3.402
358.00 3.398
358.10 3.395
358.20 3.391
358.30 3.388
358.40 3.384
358.50 3.381
358.60 3.377
358.70 3.374
358.80 3.37
358.90 3.367
359.00 3.363
359.10 3.36
359.20 3.356
359.30 3.353
359.40 3.349
359.50 3.346
359.60 3.342
359.70 3.339
359.80 3.335
359.90 3.332
360.00 3.328
360.10 3.325
360.20 3.321
360.30 3.318
360.40 3.314
360.50 3.311
360.60 3.308
360.70 3.304
360.80 3.301
360.90 3.297
361.00 3.294
361.10 3.291
361.20 3.287
361.30 3.284
361.40 3.28
361.50 3.277
361.60 3.274
361.70 3.27
361.80 3.267
361.90 3.263
362.00 3.26
362.10 3.257
362.20 3.253
362.30 3.25
362.40 3.247
362.50 3.243
362.60 3.24
362.70 3.237
362.80 3.233
362.90 3.23
363.00 3.227
363.10 3.223
363.20 3.22
363.30 3.217
363.40 3.213
363.50 3.21
363.60 3.207
363.70 3.204
363.80 3.2
363.90 3.197
364.00 3.194
364.10 3.19
364.20 3.187
364.30 3.184
364.40 3.181
364.50 3.177
364.60 3.174
364.70 3.171
364.80 3.168
364.90 3.164
365.00 3.161
365.10 3.158
365.20 3.155
365.30 3.151
365.40 3.148
365.50 3.145
365.60 3.142
365.70 3.139
365.80 3.135
365.90 3.132
366.00 3.129
366.10 3.126
366.20 3.123
366.30 3.119
366.40 3.116
366.50 3.113
366.60 3.11
366.70 3.107
366.80 3.103
366.90 3.1
367.00 3.097
367.10 3.094
367.20 3.091
367.30 3.088
367.40 3.084
367.50 3.081
367.60 3.078
367.70 3.075
367.80 3.072
367.90 3.069
368.00 3.066
368.10 3.062
368.20 3.059
368.30 3.056
368.40 3.053
368.50 3.05
368.60 3.046
368.70 3.043
368.80 3.04
368.90 3.037
369.00 3.034
369.10 3.03
369.20 3.027
369.30 3.024
369.40 3.021
369.50 3.018
369.60 3.015
369.70 3.011
369.80 3.008
369.90 3.005
370.00 3.002
370.10 2.999
370.20 2.996
370.30 2.993
370.40 2.989
370.50 2.986
370.60 2.983
370.70 2.98
370.80 2.977
370.90 2.974
371.00 2.971
371.10 2.968
371.20 2.964
371.30 2.961
371.40 2.958
371.50 2.955
371.60 2.952
371.70 2.949
371.80 2.946
371.90 2.943
372.00 2.94
372.10 2.937
372.20 2.934
372.30 2.931
372.40 2.928
372.50 2.925
372.60 2.922
372.70 2.92
372.80 2.917
372.90 2.914
373.00 2.911
373.10 2.908
373.20 2.905
373.30 2.902
373.40 2.9
373.50 2.897
373.60 2.894
373.70 2.891
373.80 2.888
373.90 2.885
374.00 2.883
374.10 2.88
374.20 2.877
374.30 2.874
374.40 2.871
374.50 2.868
374.60 2.865
374.70 2.862
374.80 2.859
374.90 2.856
375.00 2.853
375.10 2.85
375.20 2.847
375.30 2.844
375.40 2.841
375.50 2.838
375.60 2.835
375.70 2.832
375.80 2.829
375.90 2.826
376.00 2.823
376.10 2.82
376.20 2.817
376.30 2.815
376.40 2.812
376.50 2.809
376.60 2.806
376.70 2.803
376.80 2.8
376.90 2.797
377.00 2.794
377.10 2.791
377.20 2.789
377.30 2.786
377.40 2.783
377.50 2.78
377.60 2.777
377.70 2.775
377.80 2.772
377.90 2.769
378.00 2.766
378.10 2.764
378.20 2.761
378.30 2.758
378.40 2.755
378.50 2.752
378.60 2.75
378.70 2.747
378.80 2.744
378.90 2.741
379.00 2.739
379.10 2.736
379.20 2.733
379.30 2.73
379.40 2.728
379.50 2.725
379.60 2.722
379.70 2.719
379.80 2.717
379.90 2.714
380.00 2.711
380.10 2.708
380.20 2.706
380.30 2.703
380.40 2.7
380.50 2.698
380.60 2.695
380.70 2.692
380.80 2.69
380.90 2.687
381.00 2.684
381.10 2.682
381.20 2.679
381.30 2.676
381.40 2.674
381.50 2.671
381.60 2.669
381.70 2.666
381.80 2.663
381.90 2.661
382.00 2.658
382.10 2.655
382.20 2.653
382.30 2.65
382.40 2.648
382.50 2.645
382.60 2.642
382.70 2.64
382.80 2.637
382.90 2.635
383.00 2.632
383.10 2.629
383.20 2.627
383.30 2.624
383.40 2.622
383.50 2.619
383.60 2.617
383.70 2.614
383.80 2.612
383.90 2.609
384.00 2.607
384.10 2.604
384.20 2.602
384.30 2.599
384.40 2.597
384.50 2.594
384.60 2.592
384.70 2.589
384.80 2.587
384.90 2.584
385.00 2.582
385.10 2.579
385.20 2.577
385.30 2.574
385.40 2.572
385.50 2.569
385.60 2.567
385.70 2.564
385.80 2.562
385.90 2.559
386.00 2.557
386.10 2.555
386.20 2.552
386.30 2.55
386.40 2.547
386.50 2.545
386.60 2.542
386.70 2.54
386.80 2.538
386.90 2.535
387.00 2.533
387.10 2.53
387.20 2.528
387.30 2.525
387.40 2.523
387.50 2.521
387.60 2.518
387.70 2.516
387.80 2.514
387.90 2.511
388.00 2.509
388.10 2.506
388.20 2.504
388.30 2.502
388.40 2.499
388.50 2.497
388.60 2.495
388.70 2.492
388.80 2.49
388.90 2.488
389.00 2.485
389.10 2.483
389.20 2.481
389.30 2.479
389.40 2.476
389.50 2.474
389.60 2.472
389.70 2.47
389.80 2.467
389.90 2.465
390.00 2.463
390.10 2.461
390.20 2.458
390.30 2.456
390.40 2.454
390.50 2.452
390.60 2.45
390.70 2.447
390.80 2.445
390.90 2.443
391.00 2.441
391.10 2.438
391.20 2.436
391.30 2.434
391.40 2.432
391.50 2.43
391.60 2.427
391.70 2.425
391.80 2.423
391.90 2.421
392.00 2.419
392.10 2.416
392.20 2.414
392.30 2.412
392.40 2.41
392.50 2.407
392.60 2.405
392.70 2.403
392.80 2.401
392.90 2.398
393.00 2.396
393.10 2.394
393.20 2.392
393.30 2.389
393.40 2.387
393.50 2.385
393.60 2.383
393.70 2.38
393.80 2.378
393.90 2.376
394.00 2.373
394.10 2.371
394.20 2.369
394.30 2.367
394.40 2.364
394.50 2.362
394.60 2.36
394.70 2.357
394.80 2.355
394.90 2.353
395.00 2.35
395.10 2.348
395.20 2.346
395.30 2.344
395.40 2.341
395.50 2.339
395.60 2.337
395.70 2.334
395.80 2.332
395.90 2.33
396.00 2.328
396.10 2.325
396.20 2.323
396.30 2.321
396.40 2.318
396.50 2.316
396.60 2.314
396.70 2.312
396.80 2.31
396.90 2.308
397.00 2.305
397.10 2.304
397.20 2.302
397.30 2.3
397.40 2.298
397.50 2.296
397.60 2.295
397.70 2.293
397.80 2.291
397.90 2.289
398.00 2.288
398.10 2.286
398.20 2.284
398.30 2.282
398.40 2.281
398.50 2.279
398.60 2.277
398.70 2.276
398.80 2.274
398.90 2.272
399.00 2.27
399.10 2.269
399.20 2.267
399.30 2.265
399.40 2.264
399.50 2.262
399.60 2.26
399.70 2.258
399.80 2.256
399.90 2.255
400.00 2.253
400.10 2.251
400.20 2.249
400.30 2.247
400.40 2.246
400.50 2.244
400.60 2.242
400.70 2.24
400.80 2.238
400.90 2.236
401.00 2.234
401.10 2.233
401.20 2.231
401.30 2.229
401.40 2.227
401.50 2.225
401.60 2.223
401.70 2.221
401.80 2.219
401.90 2.217
402.00 2.215
402.10 2.213
402.20 2.211
402.30 2.209
402.40 2.207
402.50 2.205
402.60 2.203
402.70 2.201
402.80 2.199
402.90 2.196
403.00 2.194
403.10 2.192
403.20 2.19
403.30 2.188
403.40 2.186
403.50 2.183
403.60 2.181
403.70 2.179
403.80 2.177
403.90 2.175
404.00 2.172
404.10 2.17
404.20 2.168
404.30 2.165
404.40 2.163
404.50 2.161
404.60 2.158
404.70 2.156
404.80 2.154
404.90 2.151
405.00 2.149
405.10 2.146
405.20 2.144
405.30 2.142
405.40 2.139
405.50 2.137
405.60 2.134
405.70 2.132
405.80 2.129
405.90 2.127
406.00 2.124
406.10 2.121
406.20 2.119
406.30 2.116
406.40 2.114
406.50 2.111
406.60 2.108
406.70 2.106
406.80 2.103
406.90 2.1
407.00 2.098
407.10 2.095
407.20 2.092
407.30 2.09
407.40 2.087
407.50 2.084
407.60 2.081
407.70 2.079
407.80 2.076
407.90 2.073
408.00 2.07
408.10 2.068
408.20 2.065
408.30 2.062
408.40 2.06
408.50 2.057
408.60 2.054
408.70 2.051
408.80 2.049
408.90 2.046
409.00 2.044
409.10 2.041
409.20 2.039
409.30 2.036
409.40 2.034
409.50 2.032
409.60 2.03
409.70 2.028
409.80 2.026
409.90 2.025
410.00 2.023
410.10 2.022
410.20 2.02
410.30 2.018
410.40 2.016
410.50 2.014
410.60 2.013
410.70 2.011
410.80 2.01
410.90 2.009
411.00 2.008
411.10 2.007
411.20 2.006
411.30 2.005
411.40 2.004
411.50 2.003
411.60 2.002
411.70 2.002
411.80 2.001
411.90 2
412.00 2
412.10 1.999
412.20 1.998
412.30 1.998
412.40 1.997
412.50 1.996
412.60 1.996
412.70 1.995
412.80 1.994
412.90 1.994
413.00 1.993
413.10 1.992
413.20 1.991
413.30 1.991
413.40 1.99
413.50 1.989
413.60 1.988
413.70 1.988
413.80 1.987
413.90 1.986
414.00 1.985
414.10 1.985
414.20 1.984
414.30 1.983
414.40 1.982
414.50 1.981
414.60 1.98
414.70 1.979
414.80 1.978
414.90 1.977
415.00 1.976
415.10 1.975
415.20 1.974
415.30 1.974
415.40 1.972
415.50 1.971
415.60 1.97
415.70 1.969
415.80 1.968
415.90 1.967
416.00 1.966
416.10 1.965
416.20 1.964
416.30 1.963
416.40 1.962
416.50 1.96
416.60 1.959
416.70 1.958
416.80 1.957
416.90 1.956
417.00 1.954
417.10 1.953
417.20 1.952
417.30 1.951
417.40 1.949
417.50 1.948
417.60 1.947
417.70 1.945
417.80 1.944
417.90 1.943
418.00 1.941
418.10 1.94
418.20 1.939
418.30 1.937
418.40 1.936
418.50 1.934
418.60 1.933
418.70 1.932
418.80 1.93
418.90 1.929
419.00 1.927
419.10 1.926
419.20 1.924
419.30 1.923
419.40 1.921
419.50 1.92
419.60 1.918
419.70 1.917
419.80 1.915
419.90 1.913
420.00 1.912
420.10 1.91
420.20 1.909
420.30 1.907
420.40 1.906
420.50 1.904
420.60 1.902
420.70 1.901
420.80 1.899
420.90 1.897
421.00 1.896
421.10 1.894
421.20 1.892
421.30 1.89
421.40 1.889
421.50 1.887
421.60 1.885
421.70 1.884
421.80 1.882
421.90 1.88
422.00 1.878
422.10 1.876
422.20 1.875
422.30 1.873
422.40 1.871
422.50 1.869
422.60 1.867
422.70 1.865
422.80 1.864
422.90 1.862
423.00 1.86
423.10 1.858
423.20 1.856
423.30 1.854
423.40 1.852
423.50 1.85
423.60 1.848
423.70 1.846
423.80 1.844
423.90 1.842
424.00 1.84
424.10 1.838
424.20 1.836
424.30 1.834
424.40 1.832
424.50 1.83
424.60 1.828
424.70 1.826
424.80 1.823
424.90 1.821
425.00 1.819
425.10 1.817
425.20 1.815
425.30 1.813
425.40 1.81
425.50 1.808
425.60 1.806
425.70 1.804
425.80 1.801
425.90 1.799
426.00 1.797
426.10 1.794
426.20 1.792
426.30 1.79
426.40 1.787
426.50 1.785
426.60 1.782
426.70 1.78
426.80 1.778
426.90 1.775
427.00 1.773
427.10 1.77
427.20 1.767
427.30 1.765
427.40 1.762
427.50 1.76
427.60 1.757
427.70 1.754
427.80 1.752
427.90 1.749
428.00 1.746
428.10 1.744
428.20 1.741
428.30 1.738
428.40 1.735
428.50 1.732
428.60 1.73
428.70 1.727
428.80 1.724
428.90 1.721
429.00 1.718
429.10 1.715
429.20 1.712
429.30 1.709
429.40 1.706
429.50 1.703
429.60 1.7
429.70 1.696
429.80 1.693
429.90 1.69
430.00 1.687
430.10 1.684
430.20 1.68
430.30 1.677
430.40 1.674
430.50 1.67
430.60 1.667
430.70 1.664
430.80 1.66
430.90 1.657
431.00 1.653
431.10 1.65
431.20 1.646
431.30 1.643
431.40 1.639
431.50 1.636
431.60 1.632
431.70 1.629
431.80 1.625
431.90 1.621
432.00 1.618
432.10 1.614
432.20 1.61
432.30 1.606
432.40 1.603
432.50 1.599
432.60 1.595
432.70 1.591
432.80 1.587
432.90 1.584
433.00 1.58
433.10 1.576
433.20 1.571
433.30 1.567
433.40 1.563
433.50 1.558
433.60 1.553
433.70 1.548
433.80 1.543
433.90 1.537
434.00 1.533
434.10 1.533
434.20 1.535
434.30 1.538
434.40 1.541
434.50 1.543
434.60 1.545
434.70 1.547
434.80 1.549
434.90 1.551
435.00 1.553
435.10 1.554
435.20 1.555
435.30 1.557
435.40 1.558
435.50 1.559
435.60 1.56
435.70 1.561
435.80 1.563
435.90 1.564
436.00 1.565
436.10 1.566
436.20 1.567
436.30 1.568
436.40 1.569
436.50 1.57
436.60 1.57
436.70 1.571
436.80 1.572
436.90 1.573
437.00 1.574
437.10 1.574
437.20 1.575
437.30 1.576
437.40 1.576
437.50 1.577
437.60 1.578
437.70 1.578
437.80 1.579
437.90 1.579
438.00 1.58
438.10 1.58
438.20 1.58
438.30 1.581
438.40 1.581
438.50 1.582
438.60 1.582
438.70 1.582
438.80 1.582
438.90 1.582
439.00 1.583
439.10 1.583
439.20 1.583
439.30 1.583
439.40 1.583
439.50 1.583
439.60 1.583
439.70 1.583
439.80 1.583
439.90 1.583
440.00 1.583
440.10 1.583
440.20 1.583
440.30 1.582
440.40 1.582
440.50 1.582
440.60 1.582
440.70 1.581
440.80 1.581
440.90 1.581
441.00 1.581
441.10 1.58
441.20 1.58
441.30 1.579
441.40 1.579
441.50 1.579
441.60 1.578
441.70 1.578
441.80 1.577
441.90 1.577
442.00 1.576
442.10 1.576
442.20 1.575
442.30 1.574
442.40 1.574
442.50 1.573
442.60 1.573
442.70 1.572
442.80 1.571
442.90 1.571
443.00 1.57
443.10 1.569
443.20 1.569
443.30 1.568
443.40 1.567
443.50 1.566
443.60 1.566
443.70 1.565
443.80 1.564
443.90 1.563
444.00 1.563
444.10 1.562
444.20 1.561
444.30 1.56
444.40 1.559
444.50 1.558
444.60 1.558
444.70 1.557
444.80 1.556
444.90 1.555
445.00 1.554
445.10 1.553
445.20 1.552
445.30 1.551
445.40 1.55
445.50 1.55
445.60 1.549
445.70 1.548
445.80 1.547
445.90 1.546
446.00 1.545
446.10 1.544
446.20 1.543
446.30 1.542
446.40 1.541
446.50 1.54
446.60 1.539
446.70 1.538
446.80 1.537
446.90 1.536
447.00 1.535
447.10 1.534
447.20 1.533
447.30 1.532
447.40 1.531
447.50 1.529
447.60 1.528
447.70 1.527
447.80 1.526
447.90 1.525
448.00 1.524
448.10 1.523
448.20 1.522
448.30 1.521
448.40 1.52
448.50 1.519
448.60 1.518
448.70 1.517
448.80 1.515
448.90 1.514
449.00 1.513
449.10 1.512
449.20 1.511
449.30 1.51
449.40 1.509
449.50 1.508
449.60 1.507
449.70 1.505
449.80 1.504
449.90 1.503
450.00 1.502
450.10 1.501
450.20 1.5
450.30 1.499
450.40 1.498
450.50 1.496
450.60 1.495
450.70 1.494
450.80 1.493
450.90 1.492
451.00 1.491
451.10 1.49
451.20 1.488
451.30 1.487
451.40 1.486
451.50 1.485
451.60 1.484
451.70 1.483
451.80 1.481
451.90 1.48
452.00 1.479
452.10 1.478
452.20 1.477
452.30 1.476
452.40 1.475
452.50 1.473
452.60 1.472
452.70 1.471
452.80 1.47
452.90 1.469
453.00 1.468
453.10 1.466
453.20 1.465
453.30 1.464
453.40 1.463
453.50 1.462
453.60 1.461
453.70 1.459
453.80 1.458
453.90 1.457
454.00 1.456
454.10 1.455
454.20 1.453
454.30 1.452
454.40 1.451
454.50 1.45
454.60 1.449
454.70 1.448
454.80 1.446
454.90 1.445
455.00 1.444
455.10 1.443
455.20 1.442
455.30 1.441
455.40 1.439
455.50 1.438
455.60 1.437
455.70 1.436
455.80 1.435
455.90 1.434
456.00 1.432
456.10 1.431
456.20 1.43
456.30 1.429
456.40 1.428
456.50 1.426
456.60 1.425
456.70 1.424
456.80 1.423
456.90 1.422
457.00 1.421
457.10 1.419
457.20 1.418
457.30 1.417
457.40 1.416
457.50 1.415
457.60 1.414
457.70 1.412
457.80 1.411
457.90 1.41
458.00 1.409
458.10 1.408
458.20 1.407
458.30 1.405
458.40 1.404
458.50 1.403
458.60 1.402
458.70 1.401
458.80 1.399
458.90 1.398
459.00 1.397
459.10 1.396
459.20 1.395
459.30 1.394
459.40 1.392
459.50 1.391
459.60 1.39
459.70 1.389
459.80 1.388
459.90 1.387
460.00 1.385
460.10 1.384
460.20 1.383
460.30 1.382
460.40 1.381
460.50 1.38
460.60 1.378
460.70 1.377
460.80 1.376
460.90 1.375
461.00 1.374
461.10 1.373
461.20 1.371
461.30 1.37
461.40 1.369
461.50 1.368
461.60 1.367
461.70 1.366
461.80 1.364
461.90 1.363
462.00 1.362
462.10 1.361
462.20 1.36
462.30 1.359
462.40 1.357
462.50 1.356
462.60 1.355
462.70 1.354
462.80 1.353
462.90 1.352
463.00 1.35
463.10 1.349
463.20 1.348
463.30 1.347
463.40 1.346
463.50 1.345
463.60 1.343
463.70 1.342
463.80 1.341
463.90 1.34
464.00 1.339
464.10 1.338
464.20 1.336
464.30 1.335
464.40 1.334
464.50 1.333
464.60 1.332
464.70 1.331
464.80 1.329
464.90 1.328
465.00 1.327
465.10 1.326
465.20 1.325
465.30 1.324
465.40 1.323
465.50 1.321
465.60 1.32
465.70 1.319
465.80 1.318
465.90 1.317
466.00 1.316
466.10 1.314
466.20 1.313
466.30 1.312
466.40 1.311
466.50 1.31
466.60 1.309
466.70 1.307
466.80 1.306
466.90 1.305
467.00 1.304
467.10 1.303
467.20 1.301
467.30 1.3
467.40 1.299
467.50 1.298
467.60 1.297
467.70 1.296
467.80 1.294
467.90 1.293
468.00 1.292
468.10 1.291
468.20 1.29
468.30 1.289
468.40 1.287
468.50 1.286
468.60 1.285
468.70 1.284
468.80 1.283
468.90 1.281
469.00 1.28
469.10 1.279
469.20 1.278
469.30 1.277
469.40 1.275
469.50 1.274
469.60 1.273
469.70 1.272
469.80 1.271
469.90 1.269
470.00 1.268
470.10 1.267
470.20 1.266
470.30 1.265
470.40 1.263
470.50 1.262
470.60 1.261
470.70 1.26
470.80 1.259
470.90 1.257
471.00 1.256
471.10 1.255
471.20 1.254
471.30 1.252
471.40 1.251
471.50 1.25
471.60 1.249
471.70 1.247
471.80 1.246
471.90 1.245
472.00 1.244
472.10 1.243
472.20 1.241
472.30 1.24
472.40 1.239
472.50 1.237
472.60 1.236
472.70 1.235
472.80 1.234
472.90 1.232
473.00 1.231
473.10 1.23
473.20 1.229
473.30 1.227
473.40 1.226
473.50 1.225
473.60 1.223
473.70 1.222
473.80 1.221
473.90 1.219
474.00 1.218
474.10 1.217
474.20 1.215
474.30 1.214
474.40 1.213
474.50 1.211
474.60 1.21
474.70 1.208
474.80 1.207
474.90 1.206
475.00 1.204
475.10 1.203
475.20 1.202
475.30 1.2
475.40 1.199
475.50 1.197
475.60 1.196
475.70 1.194
475.80 1.193
475.90 1.192
476.00 1.19
476.10 1.189
476.20 1.187
476.30 1.186
476.40 1.184
476.50 1.183
476.60 1.181
476.70 1.18
476.80 1.178
476.90 1.176
477.00 1.175
477.10 1.173
477.20 1.172
477.30 1.17
477.40 1.169
477.50 1.167
477.60 1.165
477.70 1.164
477.80 1.162
477.90 1.16
478.00 1.159
478.10 1.157
478.20 1.155
478.30 1.154
478.40 1.152
478.50 1.15
478.60 1.148
478.70 1.146
478.80 1.145
478.90 1.143
479.00 1.141
479.10 1.139
479.20 1.138
479.30 1.136
479.40 1.134
479.50 1.132
479.60 1.13
479.70 1.128
479.80 1.126
479.90 1.124
480.00 1.122
480.10 1.12
480.20 1.118
480.30 1.116
480.40 1.114
480.50 1.111
480.60 1.109
480.70 1.107
480.80 1.105
480.90 1.103
481.00 1.101
481.10 1.098
481.20 1.096
481.30 1.094
481.40 1.091
481.50 1.089
481.60 1.086
481.70 1.084
481.80 1.082
481.90 1.079
482.00 1.077
482.10 1.074
482.20 1.072
482.30 1.069
482.40 1.066
482.50 1.064
482.60 1.061
482.70 1.058
482.80 1.056
482.90 1.053
483.00 1.05
483.10 1.048
483.20 1.045
483.30 1.042
483.40 1.039
483.50 1.036
483.60 1.033
483.70 1.03
483.80 1.027
483.90 1.024
484.00 1.021
484.10 1.018
484.20 1.015
484.30 1.011
484.40 1.008
484.50 1.005
484.60 1.002
484.70 0.9987
484.80 0.9956
484.90 0.9924
485.00 0.9892
485.10 0.986
485.20 0.983
485.30 0.98
485.40 0.9773
485.50 0.9747
485.60 0.9729
485.70 0.9714
485.80 0.9722
485.90 0.9741
486.00 0.9795
486.10 0.9876
486.20 0.9846
486.30 0.9744
486.40 0.9697
486.50 0.9663
486.60 0.9653
486.70 0.9653
486.80 0.966
486.90 0.9672
487.00 0.9685
487.10 0.97
487.20 0.9717
487.30 0.9733
487.40 0.975
487.50 0.9767
487.60 0.9784
487.70 0.98
487.80 0.9816
487.90 0.9833
488.00 0.9849
488.10 0.9865
488.20 0.988
488.30 0.9894
488.40 0.9908
488.50 0.9922
488.60 0.9936
488.70 0.995
488.80 0.9963
488.90 0.9977
489.00 0.9991
489.10 1.001
489.20 1.002
489.30 1.003
489.40 1.004
489.50 1.005
489.60 1.006
489.70 1.007
489.80 1.008
489.90 1.009
490.00 1.01
490.10 1.011
490.20 1.012
490.30 1.012
490.40 1.013
490.50 1.014
490.60 1.014
490.70 1.015
490.80 1.016
490.90 1.017
491.00 1.017
491.10 1.018
491.20 1.018
491.30 1.019
491.40 1.019
491.50 1.02
491.60 1.02
491.70 1.02
491.80 1.021
491.90 1.021
492.00 1.022
492.10 1.022
492.20 1.022
492.30 1.022
492.40 1.023
492.50 1.023
492.60 1.023
492.70 1.023
492.80 1.023
492.90 1.023
493.00 1.024
493.10 1.024
493.20 1.024
493.30 1.024
493.40 1.024
493.50 1.024
493.60 1.024
493.70 1.024
493.80 1.024
493.90 1.024
494.00 1.024
494.10 1.024
494.20 1.023
494.30 1.023
494.40 1.023
494.50 1.023
494.60 1.023
494.70 1.023
494.80 1.022
494.90 1.022
495.00 1.022
495.10 1.022
495.20 1.022
495.30 1.021
495.40 1.021
495.50 1.021
495.60 1.02
495.70 1.02
495.80 1.02
495.90 1.019
496.00 1.019
496.10 1.019
496.20 1.018
496.30 1.018
496.40 1.018
496.50 1.017
496.60 1.017
496.70 1.016
496.80 1.016
496.90 1.016
497.00 1.015
497.10 1.015
497.20 1.014
497.30 1.014
497.40 1.014
497.50 1.013
497.60 1.013
497.70 1.012
497.80 1.012
497.90 1.011
498.00 1.011
498.10 1.01
498.20 1.01
498.30 1.009
498.40 1.009
498.50 1.008
498.60 1.008
498.70 1.007
498.80 1.007
498.90 1.006
499.00 1.006
499.10 1.005
499.20 1.005
499.30 1.004
499.40 1.003
499.50 1.003
499.60 1.002
499.70 1.002
499.80 1.001
499.90 1.001
500.00 1
500.10 0.9994
500.20 0.9989
500.30 0.9983
500.40 0.9977
500.50 0.9971
500.60 0.9965
500.70 0.9959
500.80 0.9953
500.90 0.9947
501.00 0.9941
501.10 0.9935
501.20 0.9929
501.30 0.9923
501.40 0.9916
501.50 0.991
501.60 0.9904
501.70 0.9898
501.80 0.9892
501.90 0.9885
502.00 0.9879
502.10 0.9873
502.20 0.9867
502.30 0.986
502.40 0.9854
502.50 0.9848
502.60 0.9841
502.70 0.9835
502.80 0.9828
502.90 0.9822
503.00 0.9816
503.10 0.9809
503.20 0.9803
503.30 0.9796
503.40 0.979
503.50 0.9783
503.60 0.9777
503.70 0.977
503.80 0.9764
503.90 0.9757
504.00 0.9751
504.10 0.9744
504.20 0.9738
504.30 0.9731
504.40 0.9724
504.50 0.9718
504.60 0.9711
504.70 0.9705
504.80 0.9698
504.90 0.9691
505.00 0.9685
505.10 0.9678
505.20 0.9672
505.30 0.9665
505.40 0.9658
505.50 0.9652
505.60 0.9645
505.70 0.9638
505.80 0.9632
505.90 0.9625
506.00 0.9618
506.10 0.9612
506.20 0.9605
506.30 0.9598
506.40 0.9592
506.50 0.9585
506.60 0.9578
506.70 0.9571
506.80 0.9565
506.90 0.9558
507.00 0.9551
507.10 0.9545
507.20 0.9538
507.30 0.9531
507.40 0.9525
507.50 0.9518
507.60 0.9511
507.70 0.9504
507.80 0.9498
507.90 0.9491
508.00 0.9484
508.10 0.9477
508.20 0.9471
508.30 0.9464
508.40 0.9457
508.50 0.9451
508.60 0.9444
508.70 0.9437
508.80 0.943
508.90 0.9424
509.00 0.9417
509.10 0.941
509.20 0.9403
509.30 0.9397
509.40 0.939
509.50 0.9383
509.60 0.9377
509.70 0.937
509.80 0.9363
509.90 0.9356
510.00 0.935
510.10 0.9343
510.20 0.9336
510.30 0.933
510.40 0.9323
510.50 0.9316
510.60 0.9309
510.70 0.9303
510.80 0.9296
510.90 0.9289
511.00 0.9283
511.10 0.9276
511.20 0.9269
511.30 0.9263
511.40 0.9256
511.50 0.9249
511.60 0.9242
511.70 0.9236
511.80 0.9229
511.90 0.9222
512.00 0.9216
512.10 0.9209
512.20 0.9202
512.30 0.9196
512.40 0.9189
512.50 0.9182
512.60 0.9176
512.70 0.9169
512.80 0.9162
512.90 0.9156
513.00 0.9149
513.10 0.9143
513.20 0.9136
513.30 0.9129
513.40 0.9123
513.50 0.9116
513.60 0.9109
513.70 0.9103
513.80 0.9096
513.90 0.9089
514.00 0.9083
514.10 0.9076
514.20 0.907
514.30 0.9063
514.40 0.9056
514.50 0.905
514.60 0.9043
514.70 0.9037
514.80 0.903
514.90 0.9024
515.00 0.9017
515.10 0.901
515.20 0.9004
515.30 0.8997
515.40 0.8991
515.50 0.8984
515.60 0.8978
515.70 0.8971
515.80 0.8965
515.90 0.8958
516.00 0.8952
516.10 0.8945
516.20 0.8938
516.30 0.8932
516.40 0.8925
516.50 0.8919
516.60 0.8912
516.70 0.8906
516.80 0.8899
516.90 0.8893
517.00 0.8886
517.10 0.888
517.20 0.8873
517.30 0.8867
517.40 0.8861
517.50 0.8854
517.60 0.8848
517.70 0.8841
517.80 0.8835
517.90 0.8828
518.00 0.8822
518.10 0.8815
518.20 0.8809
518.30 0.8803
518.40 0.8796
518.50 0.879
518.60 0.8783
518.70 0.8777
518.80 0.877
518.90 0.8764
519.00 0.8758
519.10 0.8751
519.20 0.8745
519.30 0.8739
519.40 0.8732
519.50 0.8726
519.60 0.8719
519.70 0.8713
519.80 0.8707
519.90 0.87
520.00 0.8694
520.10 0.8688
520.20 0.8681
520.30 0.8675
520.40 0.8669
520.50 0.8662
520.60 0.8656
520.70 0.865
520.80 0.8643
520.90 0.8637
521.00 0.8631
521.10 0.8624
521.20 0.8618
521.30 0.8612
521.40 0.8606
521.50 0.8599
521.60 0.8593
521.70 0.8587
521.80 0.8581
521.90 0.8574
522.00 0.8568
522.10 0.8562
522.20 0.8556
522.30 0.8549
522.40 0.8543
522.50 0.8537
522.60 0.8531
522.70 0.8525
522.80 0.8518
522.90 0.8512
523.00 0.8506
523.10 0.85
523.20 0.8494
523.30 0.8487
523.40 0.8481
523.50 0.8475
523.60 0.8469
523.70 0.8463
523.80 0.8456
523.90 0.845
524.00 0.8444
524.10 0.8438
524.20 0.8432
524.30 0.8426
524.40 0.842
524.50 0.8414
524.60 0.8407
524.70 0.8401
524.80 0.8395
524.90 0.8389
525.00 0.8383
525.10 0.8377
525.20 0.8371
525.30 0.8365
525.40 0.8359
525.50 0.8353
525.60 0.8347
525.70 0.834
525.80 0.8334
525.90 0.8328
526.00 0.8322
526.10 0.8316
526.20 0.831
526.30 0.8304
526.40 0.8298
526.50 0.8292
526.60 0.8286
526.70 0.828
526.80 0.8274
526.90 0.8268
527.00 0.8262
527.10 0.8256
527.20 0.825
527.30 0.8244
527.40 0.8238
527.50 0.8232
527.60 0.8226
527.70 0.822
527.80 0.8214
527.90 0.8208
528.00 0.8202
528.10 0.8196
528.20 0.8191
528.30 0.8185
528.40 0.8179
528.50 0.8173
528.60 0.8167
528.70 0.8161
528.80 0.8155
528.90 0.8149
529.00 0.8143
529.10 0.8137
529.20 0.8131
529.30 0.8126
529.40 0.812
529.50 0.8114
529.60 0.8108
529.70 0.8102
529.80 0.8096
529.90 0.809
530.00 0.8085
530.10 0.8079
530.20 0.8073
530.30 0.8067
530.40 0.8061
530.50 0.8055
530.60 0.805
530.70 0.8044
530.80 0.8038
530.90 0.8032
531.00 0.8026
531.10 0.8021
531.20 0.8015
531.30 0.8009
531.40 0.8003
531.50 0.7997
531.60 0.7992
531.70 0.7986
531.80 0.798
531.90 0.7974
532.00 0.7969
532.10 0.7963
532.20 0.7957
532.30 0.7951
532.40 0.7946
532.50 0.794
532.60 0.7934
532.70 0.7929
532.80 0.7923
532.90 0.7917
533.00 0.7912
533.10 0.7906
533.20 0.79
533.30 0.7894
533.40 0.7889
533.50 0.7883
533.60 0.7877
533.70 0.7872
533.80 0.7866
533.90 0.786
534.00 0.7855
534.10 0.7849
534.20 0.7844
534.30 0.7838
534.40 0.7832
534.50 0.7827
534.60 0.7821
534.70 0.7815
534.80 0.781
534.90 0.7804
535.00 0.7799
535.10 0.7793
535.20 0.7787
535.30 0.7782
535.40 0.7776
535.50 0.7771
535.60 0.7765
535.70 0.776
535.80 0.7754
535.90 0.7748
536.00 0.7743
536.10 0.7737
536.20 0.7732
536.30 0.7726
536.40 0.7721
536.50 0.7715
536.60 0.771
536.70 0.7704
536.80 0.7699
536.90 0.7693
537.00 0.7688
537.10 0.7682
537.20 0.7677
537.30 0.7671
537.40 0.7666
537.50 0.766
537.60 0.7655
537.70 0.7649
537.80 0.7644
537.90 0.7638
538.00 0.7633
538.10 0.7627
538.20 0.7622
538.30 0.7617
538.40 0.7611
538.50 0.7606
538.60 0.76
538.70 0.7595
538.80 0.7589
538.90 0.7584
539.00 0.7579
539.10 0.7573
539.20 0.7568
539.30 0.7562
539.40 0.7557
539.50 0.7552
539.60 0.7546
539.70 0.7541
539.80 0.7536
539.90 0.753
540.00 0.7525
540.10 0.752
540.20 0.7514
540.30 0.7509
540.40 0.7503
540.50 0.7498
540.60 0.7493
540.70 0.7487
540.80 0.7482
540.90 0.7477
541.00 0.7472
541.10 0.7466
541.20 0.7461
541.30 0.7456
541.40 0.745
541.50 0.7445
541.60 0.744
541.70 0.7434
541.80 0.7429
541.90 0.7424
542.00 0.7419
542.10 0.7413
542.20 0.7408
542.30 0.7403
542.40 0.7398
542.50 0.7392
542.60 0.7387
542.70 0.7382
542.80 0.7377
542.90 0.7371
543.00 0.7366
543.10 0.7361
543.20 0.7356
543.30 0.7351
543.40 0.7345
543.50 0.734
543.60 0.7335
543.70 0.733
543.80 0.7325
543.90 0.7319
544.00 0.7314
544.10 0.7309
544.20 0.7304
544.30 0.7299
544.40 0.7294
544.50 0.7288
544.60 0.7283
544.70 0.7278
544.80 0.7273
544.90 0.7268
545.00 0.7263
545.10 0.7258
545.20 0.7253
545.30 0.7247
545.40 0.7242
545.50 0.7237
545.60 0.7232
545.70 0.7227
545.80 0.7222
545.90 0.7217
546.00 0.7212
546.10 0.7207
546.20 0.7202
546.30 0.7196
546.40 0.7191
546.50 0.7186
546.60 0.7181
546.70 0.7176
546.80 0.7171
546.90 0.7166
547.00 0.7161
547.10 0.7156
547.20 0.7151
547.30 0.7146
547.40 0.7141
547.50 0.7136
547.60 0.7131
547.70 0.7126
547.80 0.7121
547.90 0.7116
548.00 0.7111
548.10 0.7106
548.20 0.7101
548.30 0.7096
548.40 0.7091
548.50 0.7086
548.60 0.7081
548.70 0.7076
548.80 0.7071
548.90 0.7066
549.00 0.7061
549.10 0.7056
549.20 0.7051
549.30 0.7046
549.40 0.7041
549.50 0.7036
549.60 0.7032
549.70 0.7027
549.80 0.7022
549.90 0.7017
550.00 0.7012
550.10 0.7007
550.20 0.7002
550.30 0.6997
550.40 0.6992
550.50 0.6987
550.60 0.6982
550.70 0.6978
550.80 0.6973
550.90 0.6968
551.00 0.6963
551.10 0.6958
551.20 0.6953
551.30 0.6948
551.40 0.6944
551.50 0.6939
551.60 0.6934
551.70 0.6929
551.80 0.6924
551.90 0.6919
552.00 0.6914
552.10 0.691
552.20 0.6905
552.30 0.69
552.40 0.6895
552.50 0.689
552.60 0.6886
552.70 0.6881
552.80 0.6876
552.90 0.6871
553.00 0.6866
553.10 0.6862
553.20 0.6857
553.30 0.6852
553.40 0.6847
553.50 0.6843
553.60 0.6838
553.70 0.6833
553.80 0.6828
553.90 0.6824
554.00 0.6819
554.10 0.6814
554.20 0.6809
554.30 0.6805
554.40 0.68
554.50 0.6795
554.60 0.679
554.70 0.6786
554.80 0.6781
554.90 0.6776
555.00 0.6772
555.10 0.6767
555.20 0.6762
555.30 0.6757
555.40 0.6753
555.50 0.6748
555.60 0.6743
555.70 0.6739
555.80 0.6734
555.90 0.6729
556.00 0.6725
556.10 0.672
556.20 0.6715
556.30 0.6711
556.40 0.6706
556.50 0.6701
556.60 0.6697
556.70 0.6692
556.80 0.6688
556.90 0.6683
557.00 0.6678
557.10 0.6674
557.20 0.6669
557.30 0.6664
557.40 0.666
557.50 0.6655
557.60 0.6651
557.70 0.6646
557.80 0.6641
557.90 0.6637
558.00 0.6632
558.10 0.6628
558.20 0.6623
558.30 0.6619
558.40 0.6614
558.50 0.6609
558.60 0.6605
558.70 0.66
558.80 0.6596
558.90 0.6591
559.00 0.6587
559.10 0.6582
559.20 0.6578
559.30 0.6573
559.40 0.6569
559.50 0.6564
559.60 0.6559
559.70 0.6555
559.80 0.655
559.90 0.6546
560.00 0.6541
560.10 0.6537
560.20 0.6532
560.30 0.6528
560.40 0.6523
560.50 0.6519
560.60 0.6514
560.70 0.651
560.80 0.6506
560.90 0.6501
561.00 0.6497
561.10 0.6492
561.20 0.6488
561.30 0.6483
561.40 0.6479
561.50 0.6474
561.60 0.647
561.70 0.6465
561.80 0.6461
561.90 0.6457
562.00 0.6452
562.10 0.6448
562.20 0.6443
562.30 0.6439
562.40 0.6434
562.50 0.643
562.60 0.6426
562.70 0.6421
562.80 0.6417
562.90 0.6412
563.00 0.6408
563.10 0.6404
563.20 0.6399
563.30 0.6395
563.40 0.639
563.50 0.6386
563.60 0.6382
563.70 0.6377
563.80 0.6373
563.90 0.6369
564.00 0.6364
564.10 0.636
564.20 0.6356
564.30 0.6351
564.40 0.6347
564.50 0.6343
564.60 0.6338
564.70 0.6334
564.80 0.633
564.90 0.6325
565.00 0.6321
565.10 0.6317
565.20 0.6312
565.30 0.6308
565.40 0.6304
565.50 0.6299
565.60 0.6295
565.70 0.6291
565.80 0.6287
565.90 0.6282
566.00 0.6278
566.10 0.6274
566.20 0.6269
566.30 0.6265
566.40 0.6261
566.50 0.6257
566.60 0.6252
566.70 0.6248
566.80 0.6244
566.90 0.624
567.00 0.6235
567.10 0.6231
567.20 0.6227
567.30 0.6223
567.40 0.6218
567.50 0.6214
567.60 0.621
567.70 0.6206
567.80 0.6201
567.90 0.6197
568.00 0.6193
568.10 0.6189
568.20 0.6185
568.30 0.618
568.40 0.6176
568.50 0.6172
568.60 0.6168
568.70 0.6164
568.80 0.616
568.90 0.6155
569.00 0.6151
569.10 0.6147
569.20 0.6143
569.30 0.6139
569.40 0.6134
569.50 0.613
569.60 0.6126
569.70 0.6122
569.80 0.6118
569.90 0.6114
570.00 0.611
570.10 0.6105
570.20 0.6101
570.30 0.6097
570.40 0.6093
570.50 0.6089
570.60 0.6085
570.70 0.6081
570.80 0.6077
570.90 0.6073
571.00 0.6068
571.10 0.6064
571.20 0.606
571.30 0.6056
571.40 0.6052
571.50 0.6048
571.60 0.6044
571.70 0.604
571.80 0.6036
571.90 0.6032
572.00 0.6028
572.10 0.6023
572.20 0.6019
572.30 0.6015
572.40 0.6011
572.50 0.6007
572.60 0.6003
572.70 0.5999
572.80 0.5995
572.90 0.5991
573.00 0.5987
573.10 0.5983
573.20 0.5979
573.30 0.5975
573.40 0.5971
573.50 0.5967
573.60 0.5963
573.70 0.5959
573.80 0.5955
573.90 0.5951
574.00 0.5947
574.10 0.5943
574.20 0.5939
574.30 0.5935
574.40 0.5931
574.50 0.5927
574.60 0.5923
574.70 0.5919
574.80 0.5915
574.90 0.5911
575.00 0.5907
575.10 0.5903
575.20 0.5899
575.30 0.5895
575.40 0.5891
575.50 0.5887
575.60 0.5883
575.70 0.5879
575.80 0.5875
575.90 0.5871
576.00 0.5867
576.10 0.5864
576.20 0.586
576.30 0.5856
576.40 0.5852
576.50 0.5848
576.60 0.5844
576.70 0.584
576.80 0.5836
576.90 0.5832
577.00 0.5828
577.10 0.5824
577.20 0.582
577.30 0.5817
577.40 0.5813
577.50 0.5809
577.60 0.5805
577.70 0.5801
577.80 0.5797
577.90 0.5793
578.00 0.5789
578.10 0.5786
578.20 0.5782
578.30 0.5778
578.40 0.5774
578.50 0.577
578.60 0.5766
578.70 0.5762
578.80 0.5759
578.90 0.5755
579.00 0.5751
579.10 0.5747
579.20 0.5743
579.30 0.5739
579.40 0.5736
579.50 0.5732
579.60 0.5728
579.70 0.5724
579.80 0.572
579.90 0.5716
580.00 0.5713
580.10 0.5709
580.20 0.5705
580.30 0.5701
580.40 0.5697
580.50 0.5694
580.60 0.569
580.70 0.5686
580.80 0.5682
580.90 0.5679
581.00 0.5675
581.10 0.5671
581.20 0.5667
581.30 0.5663
581.40 0.566
581.50 0.5656
581.60 0.5652
581.70 0.5648
581.80 0.5645
581.90 0.5641
582.00 0.5637
582.10 0.5633
582.20 0.563
582.30 0.5626
582.40 0.5622
582.50 0.5618
582.60 0.5615
582.70 0.5611
582.80 0.5607
582.90 0.5604
583.00 0.56
583.10 0.5596
583.20 0.5592
583.30 0.5589
583.40 0.5585
583.50 0.5581
583.60 0.5578
583.70 0.5574
583.80 0.557
583.90 0.5567
584.00 0.5563
584.10 0.5559
584.20 0.5556
584.30 0.5552
584.40 0.5548
584.50 0.5545
584.60 0.5541
584.70 0.5537
584.80 0.5534
584.90 0.553
585.00 0.5526
585.10 0.5523
585.20 0.5519
585.30 0.5515
585.40 0.5512
585.50 0.5508
585.60 0.5504
585.70 0.5501
585.80 0.5497
585.90 0.5493
586.00 0.549
586.10 0.5486
586.20 0.5483
586.30 0.5479
586.40 0.5475
586.50 0.5472
586.60 0.5468
586.70 0.5465
586.80 0.5461
586.90 0.5457
587.00 0.5454
587.10 0.545
587.20 0.5447
587.30 0.5443
587.40 0.5439
587.50 0.5436
587.60 0.5432
587.70 0.5429
587.80 0.5425
587.90 0.5422
588.00 0.5418
588.10 0.5414
588.20 0.5411
588.30 0.5407
588.40 0.5404
588.50 0.54
588.60 0.5397
588.70 0.5393
588.80 0.539
588.90 0.5386
589.00 0.5382
589.10 0.5379
589.20 0.5375
589.30 0.5372
589.40 0.5368
589.50 0.5365
589.60 0.5361
589.70 0.5358
589.80 0.5354
589.90 0.5351
590.00 0.5347
590.10 0.5344
590.20 0.534
590.30 0.5337
590.40 0.5333
590.50 0.533
590.60 0.5326
590.70 0.5323
590.80 0.5319
590.90 0.5316
591.00 0.5312
591.10 0.5309
591.20 0.5305
591.30 0.5302
591.40 0.5298
591.50 0.5295
591.60 0.5291
591.70 0.5288
591.80 0.5285
591.90 0.5281
592.00 0.5278
592.10 0.5274
592.20 0.5271
592.30 0.5267
592.40 0.5264
592.50 0.526
592.60 0.5257
592.70 0.5254
592.80 0.525
592.90 0.5247
593.00 0.5243
593.10 0.524
593.20 0.5236
593.30 0.5233
593.40 0.523
593.50 0.5226
593.60 0.5223
593.70 0.5219
593.80 0.5216
593.90 0.5213
594.00 0.5209
594.10 0.5206
594.20 0.5202
594.30 0.5199
594.40 0.5196
594.50 0.5192
594.60 0.5189
594.70 0.5185
594.80 0.5182
594.90 0.5179
595.00 0.5175
595.10 0.5172
595.20 0.5169
595.30 0.5165
595.40 0.5162
595.50 0.5159
595.60 0.5155
595.70 0.5152
595.80 0.5149
595.90 0.5145
596.00 0.5142
596.10 0.5138
596.20 0.5135
596.30 0.5132
596.40 0.5128
596.50 0.5125
596.60 0.5122
596.70 0.5118
596.80 0.5115
596.90 0.5112
597.00 0.5109
597.10 0.5105
597.20 0.5102
597.30 0.5099
597.40 0.5095
597.50 0.5092
597.60 0.5089
597.70 0.5085
597.80 0.5082
597.90 0.5079
598.00 0.5076
598.10 0.5072
598.20 0.5069
598.30 0.5066
598.40 0.5062
598.50 0.5059
598.60 0.5056
598.70 0.5053
598.80 0.5049
598.90 0.5046
599.00 0.5043
599.10 0.5039
599.20 0.5036
599.30 0.5033
599.40 0.503
599.50 0.5026
599.60 0.5023
599.70 0.502
599.80 0.5017
599.90 0.5013
600.00 0.501
600.10 0.5007
600.20 0.5004
600.30 0.5001
600.40 0.4997
600.50 0.4994
600.60 0.4991
600.70 0.4988
600.80 0.4984
600.90 0.4981
601.00 0.4978
601.10 0.4975
601.20 0.4972
601.30 0.4968
601.40 0.4965
601.50 0.4962
601.60 0.4959
601.70 0.4956
601.80 0.4952
601.90 0.4949
602.00 0.4946
602.10 0.4943
602.20 0.494
602.30 0.4936
602.40 0.4933
602.50 0.493
602.60 0.4927
602.70 0.4924
602.80 0.4921
602.90 0.4917
603.00 0.4914
603.10 0.4911
603.20 0.4908
603.30 0.4905
603.40 0.4902
603.50 0.4898
603.60 0.4895
603.70 0.4892
603.80 0.4889
603.90 0.4886
604.00 0.4883
604.10 0.488
604.20 0.4876
604.30 0.4873
604.40 0.487
604.50 0.4867
604.60 0.4864
604.70 0.4861
604.80 0.4858
604.90 0.4855
605.00 0.4852
605.10 0.4848
605.20 0.4845
605.30 0.4842
605.40 0.4839
605.50 0.4836
605.60 0.4833
605.70 0.483
605.80 0.4827
605.90 0.4824
606.00 0.4821
606.10 0.4817
606.20 0.4814
606.30 0.4811
606.40 0.4808
606.50 0.4805
606.60 0.4802
606.70 0.4799
606.80 0.4796
606.90 0.4793
607.00 0.479
607.10 0.4787
607.20 0.4784
607.30 0.4781
607.40 0.4777
607.50 0.4774
607.60 0.4771
607.70 0.4768
607.80 0.4765
607.90 0.4762
608.00 0.4759
608.10 0.4756
608.20 0.4753
608.30 0.475
608.40 0.4747
608.50 0.4744
608.60 0.4741
608.70 0.4738
608.80 0.4735
608.90 0.4732
609.00 0.4729
609.10 0.4726
609.20 0.4723
609.30 0.472
609.40 0.4717
609.50 0.4714
609.60 0.4711
609.70 0.4708
609.80 0.4705
609.90 0.4702
610.00 0.4699
610.10 0.4696
610.20 0.4693
610.30 0.469
610.40 0.4687
610.50 0.4684
610.60 0.4681
610.70 0.4678
610.80 0.4675
610.90 0.4672
611.00 0.4669
611.10 0.4666
611.20 0.4663
611.30 0.466
611.40 0.4657
611.50 0.4654
611.60 0.4651
611.70 0.4648
611.80 0.4645
611.90 0.4642
612.00 0.4639
612.10 0.4636
612.20 0.4633
612.30 0.463
612.40 0.4628
612.50 0.4625
612.60 0.4622
612.70 0.4619
612.80 0.4616
612.90 0.4613
613.00 0.461
613.10 0.4607
613.20 0.4604
613.30 0.4601
613.40 0.4598
613.50 0.4595
613.60 0.4592
613.70 0.4589
613.80 0.4587
613.90 0.4584
614.00 0.4581
614.10 0.4578
614.20 0.4575
614.30 0.4572
614.40 0.4569
614.50 0.4566
614.60 0.4563
614.70 0.456
614.80 0.4557
614.90 0.4555
615.00 0.4552
615.10 0.4549
615.20 0.4546
615.30 0.4543
615.40 0.454
615.50 0.4537
615.60 0.4534
615.70 0.4532
615.80 0.4529
615.90 0.4526
616.00 0.4523
616.10 0.452
616.20 0.4517
616.30 0.4514
616.40 0.4512
616.50 0.4509
616.60 0.4506
616.70 0.4503
616.80 0.45
616.90 0.4497
617.00 0.4494
617.10 0.4492
617.20 0.4489
617.30 0.4486
617.40 0.4483
617.50 0.448
617.60 0.4477
617.70 0.4475
617.80 0.4472
617.90 0.4469
618.00 0.4466
618.10 0.4463
618.20 0.446
618.30 0.4458
618.40 0.4455
618.50 0.4452
618.60 0.4449
618.70 0.4446
618.80 0.4443
618.90 0.4441
619.00 0.4438
619.10 0.4435
619.20 0.4432
619.30 0.4429
619.40 0.4427
619.50 0.4424
619.60 0.4421
619.70 0.4418
619.80 0.4415
619.90 0.4413
620.00 0.441
620.10 0.4407
620.20 0.4404
620.30 0.4402
620.40 0.4399
620.50 0.4396
620.60 0.4393
620.70 0.439
620.80 0.4388
620.90 0.4385
621.00 0.4382
621.10 0.4379
621.20 0.4377
621.30 0.4374
621.40 0.4371
621.50 0.4368
621.60 0.4365
621.70 0.4363
621.80 0.436
621.90 0.4357
622.00 0.4354
622.10 0.4352
622.20 0.4349
622.30 0.4346
622.40 0.4343
622.50 0.4341
622.60 0.4338
622.70 0.4335
622.80 0.4332
622.90 0.433
623.00 0.4327
623.10 0.4324
623.20 0.4322
623.30 0.4319
623.40 0.4316
623.50 0.4313
623.60 0.4311
623.70 0.4308
623.80 0.4305
623.90 0.4302
624.00 0.43
624.10 0.4297
624.20 0.4294
624.30 0.4292
624.40 0.4289
624.50 0.4286
624.60 0.4283
624.70 0.4281
624.80 0.4278
624.90 0.4275
625.00 0.4273
625.10 0.427
625.20 0.4267
625.30 0.4265
625.40 0.4262
625.50 0.4259
625.60 0.4256
625.70 0.4254
625.80 0.4251
625.90 0.4248
626.00 0.4246
626.10 0.4243
626.20 0.424
626.30 0.4238
626.40 0.4235
626.50 0.4232
626.60 0.423
626.70 0.4227
626.80 0.4224
626.90 0.4222
627.00 0.4219
627.10 0.4216
627.20 0.4214
627.30 0.4211
627.40 0.4208
627.50 0.4206
627.60 0.4203
627.70 0.42
627.80 0.4198
627.90 0.4195
628.00 0.4192
628.10 0.419
628.20 0.4187
628.30 0.4184
628.40 0.4182
628.50 0.4179
628.60 0.4176
628.70 0.4174
628.80 0.4171
628.90 0.4168
629.00 0.4166
629.10 0.4163
629.20 0.416
629.30 0.4158
629.40 0.4155
629.50 0.4152
629.60 0.415
629.70 0.4147
629.80 0.4145
629.90 0.4142
630.00 0.4139
630.10 0.4137
630.20 0.4134
630.30 0.4131
630.40 0.4129
630.50 0.4126
630.60 0.4123
630.70 0.4121
630.80 0.4118
630.90 0.4116
631.00 0.4113
631.10 0.411
631.20 0.4108
631.30 0.4105
631.40 0.4102
631.50 0.41
631.60 0.4097
631.70 0.4094
631.80 0.4092
631.90 0.4089
632.00 0.4087
632.10 0.4084
632.20 0.4081
632.30 0.4079
632.40 0.4076
632.50 0.4074
632.60 0.4071
632.70 0.4068
632.80 0.4066
632.90 0.4063
633.00 0.406
633.10 0.4058
633.20 0.4055
633.30 0.4053
633.40 0.405
633.50 0.4047
633.60 0.4045
633.70 0.4042
633.80 0.4039
633.90 0.4037
634.00 0.4034
634.10 0.4032
634.20 0.4029
634.30 0.4026
634.40 0.4024
634.50 0.4021
634.60 0.4019
634.70 0.4016
634.80 0.4013
634.90 0.4011
635.00 0.4008
635.10 0.4005
635.20 0.4003
635.30 0.4
635.40 0.3998
635.50 0.3995
635.60 0.3992
635.70 0.399
635.80 0.3987
635.90 0.3984
636.00 0.3982
636.10 0.3979
636.20 0.3977
636.30 0.3974
636.40 0.3971
636.50 0.3969
636.60 0.3966
636.70 0.3963
636.80 0.3961
636.90 0.3958
637.00 0.3956
637.10 0.3953
637.20 0.395
637.30 0.3948
637.40 0.3945
637.50 0.3942
637.60 0.394
637.70 0.3937
637.80 0.3934
637.90 0.3932
638.00 0.3929
638.10 0.3926
638.20 0.3924
638.30 0.3921
638.40 0.3918
638.50 0.3916
638.60 0.3913
638.70 0.391
638.80 0.3908
638.90 0.3905
639.00 0.3902
639.10 0.39
639.20 0.3897
639.30 0.3894
639.40 0.3892
639.50 0.3889
639.60 0.3886
639.70 0.3884
639.80 0.3881
639.90 0.3878
640.00 0.3875
640.10 0.3873
640.20 0.387
640.30 0.3867
640.40 0.3865
640.50 0.3862
640.60 0.3859
640.70 0.3856
640.80 0.3854
640.90 0.3851
641.00 0.3848
641.10 0.3845
641.20 0.3843
641.30 0.384
641.40 0.3837
641.50 0.3834
641.60 0.3831
641.70 0.3829
641.80 0.3826
641.90 0.3823
642.00 0.382
642.10 0.3817
642.20 0.3815
642.30 0.3812
642.40 0.3809
642.50 0.3806
642.60 0.3803
642.70 0.38
642.80 0.3797
642.90 0.3795
643.00 0.3792
643.10 0.3789
643.20 0.3786
643.30 0.3783
643.40 0.378
643.50 0.3777
643.60 0.3774
643.70 0.3771
643.80 0.3768
643.90 0.3765
644.00 0.3762
644.10 0.3759
644.20 0.3756
644.30 0.3753
644.40 0.375
644.50 0.3747
644.60 0.3744
644.70 0.3741
644.80 0.3738
644.90 0.3735
645.00 0.3731
645.10 0.3728
645.20 0.3725
645.30 0.3722
645.40 0.3719
645.50 0.3716
645.60 0.3712
645.70 0.3709
645.80 0.3706
645.90 0.3702
646.00 0.3699
646.10 0.3696
646.20 0.3693
646.30 0.3689
646.40 0.3686
646.50 0.3682
646.60 0.3679
646.70 0.3675
646.80 0.3672
646.90 0.3668
647.00 0.3665
647.10 0.3661
647.20 0.3658
647.30 0.3654
647.40 0.3651
647.50 0.3647
647.60 0.3643
647.70 0.3639
647.80 0.3636
647.90 0.3632
648.00 0.3628
648.10 0.3624
648.20 0.3621
648.30 0.3617
648.40 0.3613
648.50 0.3608
648.60 0.3604
648.70 0.36
648.80 0.3596
648.90 0.3592
649.00 0.3588
649.10 0.3584
649.20 0.358
649.30 0.3575
649.40 0.3571
649.50 0.3566
649.60 0.3562
649.70 0.3557
649.80 0.3553
649.90 0.3548
650.00 0.3544
650.10 0.3539
650.20 0.3534
650.30 0.353
650.40 0.3525
650.50 0.3519
650.60 0.3514
650.70 0.3509
650.80 0.3504
650.90 0.3499
651.00 0.3494
651.10 0.3489
651.20 0.3484
651.30 0.3478
651.40 0.3473
651.50 0.3467
651.60 0.3461
651.70 0.3455
651.80 0.345
651.90 0.3444
652.00 0.3438
652.10 0.3432
652.20 0.3426
652.30 0.3421
652.40 0.3414
652.50 0.3407
652.60 0.3401
652.70 0.3394
652.80 0.3388
652.90 0.3381
653.00 0.3375
653.10 0.3368
653.20 0.3362
653.30 0.3355
653.40 0.3348
653.50 0.334
653.60 0.3333
653.70 0.3326
653.80 0.3318
653.90 0.3311
654.00 0.3304
654.10 0.3296
654.20 0.3289
654.30 0.3282
654.40 0.3274
654.50 0.3266
654.60 0.3258
654.70 0.325
654.80 0.3242
654.90 0.3235
655.00 0.3227
655.10 0.3219
655.20 0.3211
655.30 0.3203
655.40 0.3195
655.50 0.3188
655.60 0.3181
655.70 0.3175
655.80 0.3171
655.90 0.3168
656.00 0.3175
656.10 0.3185
656.20 0.3257
656.30 0.336
656.40 0.3212
656.50 0.3172
656.60 0.3161
656.70 0.3153
656.80 0.3154
656.90 0.3155
657.00 0.3158
657.10 0.3161
657.20 0.3165
657.30 0.3169
657.40 0.3173
657.50 0.3178
657.60 0.3182
657.70 0.3186
657.80 0.319
657.90 0.3194
658.00 0.3198
658.10 0.3202
658.20 0.3206
658.30 0.321
658.40 0.3214
658.50 0.3217
658.60 0.3221
658.70 0.3224
658.80 0.3228
658.90 0.3231
659.00 0.3234
659.10 0.3238
659.20 0.3241
659.30 0.3245
659.40 0.3247
659.50 0.325
659.60 0.3252
659.70 0.3255
659.80 0.3257
659.90 0.326
660.00 0.3262
660.10 0.3265
660.20 0.3268
660.30 0.327
660.40 0.3272
660.50 0.3273
660.60 0.3275
660.70 0.3277
660.80 0.3278
660.90 0.328
661.00 0.3282
661.10 0.3284
661.20 0.3285
661.30 0.3287
661.40 0.3288
661.50 0.3289
661.60 0.329
661.70 0.3291
661.80 0.3292
661.90 0.3293
662.00 0.3294
662.10 0.3295
662.20 0.3295
662.30 0.3296
662.40 0.3297
662.50 0.3297
662.60 0.3297
662.70 0.3298
662.80 0.3298
662.90 0.3299
663.00 0.3299
663.10 0.3299
663.20 0.33
663.30 0.33
663.40 0.33
663.50 0.33
663.60 0.33
663.70 0.3299
663.80 0.3299
663.90 0.3299
664.00 0.3299
664.10 0.3299
664.20 0.3299
664.30 0.3299
664.40 0.3298
664.50 0.3298
664.60 0.3297
664.70 0.3297
664.80 0.3296
664.90 0.3296
665.00 0.3295
665.10 0.3295
665.20 0.3294
665.30 0.3294
665.40 0.3293
665.50 0.3292
665.60 0.3291
665.70 0.3291
665.80 0.329
665.90 0.3289
666.00 0.3288
666.10 0.3287
666.20 0.3287
666.30 0.3286
666.40 0.3285
666.50 0.3284
666.60 0.3283
666.70 0.3282
666.80 0.3281
666.90 0.328
667.00 0.3279
667.10 0.3278
667.20 0.3277
667.30 0.3276
667.40 0.3275
667.50 0.3273
667.60 0.3272
667.70 0.3271
667.80 0.327
667.90 0.3269
668.00 0.3268
668.10 0.3266
668.20 0.3265
668.30 0.3264
668.40 0.3263
668.50 0.3261
668.60 0.326
668.70 0.3259
668.80 0.3257
668.90 0.3256
669.00 0.3255
669.10 0.3254
669.20 0.3252
669.30 0.3251
669.40 0.325
669.50 0.3248
669.60 0.3247
669.70 0.3245
669.80 0.3244
669.90 0.3243
670.00 0.3241
670.10 0.324
670.20 0.3238
670.30 0.3237
670.40 0.3235
670.50 0.3234
670.60 0.3232
670.70 0.3231
670.80 0.3229
670.90 0.3228
671.00 0.3227
671.10 0.3225
671.20 0.3224
671.30 0.3222
671.40 0.3221
671.50 0.3219
671.60 0.3217
671.70 0.3216
671.80 0.3214
671.90 0.3213
672.00 0.3211
672.10 0.321
672.20 0.3208
672.30 0.3207
672.40 0.3205
672.50 0.3204
672.60 0.3202
672.70 0.32
672.80 0.3199
672.90 0.3197
673.00 0.3196
673.10 0.3194
673.20 0.3193
673.30 0.3191
673.40 0.3189
673.50 0.3188
673.60 0.3186
673.70 0.3184
673.80 0.3183
673.90 0.3181
674.00 0.318
674.10 0.3178
674.20 0.3176
674.30 0.3175
674.40 0.3173
674.50 0.3172
674.60 0.317
674.70 0.3168
674.80 0.3167
674.90 0.3165
675.00 0.3163
675.10 0.3162
675.20 0.316
675.30 0.3159
675.40 0.3157
675.50 0.3155
675.60 0.3154
675.70 0.3152
675.80 0.315
675.90 0.3149
676.00 0.3147
676.10 0.3145
676.20 0.3144
676.30 0.3142
676.40 0.314
676.50 0.3139
676.60 0.3137
676.70 0.3135
676.80 0.3134
676.90 0.3132
677.00 0.313
677.10 0.3129
677.20 0.3127
677.30 0.3125
677.40 0.3124
677.50 0.3122
677.60 0.312
677.70 0.3119
677.80 0.3117
677.90 0.3115
678.00 0.3114
678.10 0.3112
678.20 0.311
678.30 0.3109
678.40 0.3107
678.50 0.3105
678.60 0.3104
678.70 0.3102
678.80 0.31
678.90 0.3099
679.00 0.3097
679.10 0.3095
679.20 0.3094
679.30 0.3092
679.40 0.309
679.50 0.3089
679.60 0.3087
679.70 0.3085
679.80 0.3084
679.90 0.3082
680.00 0.308
680.10 0.3079
680.20 0.3077
680.30 0.3075
680.40 0.3074
680.50 0.3072
680.60 0.307
680.70 0.3069
680.80 0.3067
680.90 0.3065
681.00 0.3063
681.10 0.3062
681.20 0.306
681.30 0.3058
681.40 0.3057
681.50 0.3055
681.60 0.3053
681.70 0.3052
681.80 0.305
681.90 0.3048
682.00 0.3047
682.10 0.3045
682.20 0.3043
682.30 0.3042
682.40 0.304
682.50 0.3038
682.60 0.3037
682.70 0.3035
682.80 0.3033
682.90 0.3032
683.00 0.303
683.10 0.3028
683.20 0.3027
683.30 0.3025
683.40 0.3023
683.50 0.3022
683.60 0.302
683.70 0.3018
683.80 0.3017
683.90 0.3015
684.00 0.3013
684.10 0.3012
684.20 0.301
684.30 0.3008
684.40 0.3007
684.50 0.3005
684.60 0.3004
684.70 0.3002
684.80 0.3
684.90 0.2999
685.00 0.2997
685.10 0.2995
685.20 0.2994
685.30 0.2992
685.40 0.299
685.50 0.2989
685.60 0.2987
685.70 0.2985
685.80 0.2984
685.90 0.2982
686.00 0.298
686.10 0.2979
686.20 0.2977
686.30 0.2975
686.40 0.2974
686.50 0.2972
686.60 0.2971
686.70 0.2969
686.80 0.2967
686.90 0.2966
687.00 0.2964
687.10 0.2962
687.20 0.2961
687.30 0.2959
687.40 0.2957
687.50 0.2956
687.60 0.2954
687.70 0.2952
687.80 0.2951
687.90 0.2949
688.00 0.2948
688.10 0.2946
688.20 0.2944
688.30 0.2943
688.40 0.2941
688.50 0.2939
688.60 0.2938
688.70 0.2936
688.80 0.2935
688.90 0.2933
689.00 0.2931
689.10 0.293
689.20 0.2928
689.30 0.2926
689.40 0.2925
689.50 0.2923
689.60 0.2922
689.70 0.292
689.80 0.2918
689.90 0.2917
690.00 0.2915
690.10 0.2914
690.20 0.2912
690.30 0.291
690.40 0.2909
690.50 0.2907
690.60 0.2905
690.70 0.2904
690.80 0.2902
690.90 0.2901
691.00 0.2899
691.10 0.2897
691.20 0.2896
691.30 0.2894
691.40 0.2893
691.50 0.2891
691.60 0.2889
691.70 0.2888
691.80 0.2886
691.90 0.2885
692.00 0.2883
692.10 0.2881
692.20 0.288
692.30 0.2878
692.40 0.2877
692.50 0.2875
692.60 0.2873
692.70 0.2872
692.80 0.287
692.90 0.2869
693.00 0.2867
693.10 0.2866
693.20 0.2864
693.30 0.2862
693.40 0.2861
693.50 0.2859
693.60 0.2858
693.70 0.2856
693.80 0.2854
693.90 0.2853
694.00 0.2851
694.10 0.285
694.20 0.2848
694.30 0.2847
694.40 0.2845
694.50 0.2843
694.60 0.2842
694.70 0.284
694.80 0.2839
694.90 0.2837
695.00 0.2835
695.10 0.2834
695.20 0.2832
695.30 0.2831
695.40 0.2829
695.50 0.2828
695.60 0.2826
695.70 0.2825
695.80 0.2823
695.90 0.2821
696.00 0.282
696.10 0.2818
696.20 0.2817
696.30 0.2815
696.40 0.2814
696.50 0.2812
696.60 0.2811
696.70 0.2809
696.80 0.2807
696.90 0.2806
697.00 0.2804
697.10 0.2803
697.20 0.2801
697.30 0.28
697.40 0.2798
697.50 0.2797
697.60 0.2795
697.70 0.2794
697.80 0.2792
697.90 0.279
698.00 0.2789
698.10 0.2787
698.20 0.2786
698.30 0.2784
698.40 0.2783
698.50 0.2781
698.60 0.278
698.70 0.2778
698.80 0.2777
698.90 0.2775
699.00 0.2774
699.10 0.2772
699.20 0.2771
699.30 0.2769
699.40 0.2767
699.50 0.2766
699.60 0.2764
699.70 0.2763
699.80 0.2761
699.90 0.276
700.00 0.2758
700.10 0.2757
700.20 0.2755
700.30 0.2754
700.40 0.2752
700.50 0.2751
700.60 0.2749
700.70 0.2748
700.80 0.2746
700.90 0.2745
701.00 0.2743
701.10 0.2742
701.20 0.274
701.30 0.2739
701.40 0.2737
701.50 0.2736
701.60 0.2734
701.70 0.2733
701.80 0.2731
701.90 0.273
702.00 0.2728
702.10 0.2727
702.20 0.2725
702.30 0.2724
702.40 0.2722
702.50 0.2721
702.60 0.2719
702.70 0.2718
702.80 0.2716
702.90 0.2715
703.00 0.2713
703.10 0.2712
703.20 0.271
703.30 0.2709
703.40 0.2707
703.50 0.2706
703.60 0.2704
703.70 0.2703
703.80 0.2701
703.90 0.27
704.00 0.2698
704.10 0.2697
704.20 0.2695
704.30 0.2694
704.40 0.2692
704.50 0.2691
704.60 0.2689
704.70 0.2688
704.80 0.2686
704.90 0.2685
705.00 0.2683
705.10 0.2682
705.20 0.2681
705.30 0.2679
705.40 0.2678
705.50 0.2676
705.60 0.2675
705.70 0.2673
705.80 0.2672
705.90 0.267
706.00 0.2669
706.10 0.2667
706.20 0.2666
706.30 0.2665
706.40 0.2663
706.50 0.2662
706.60 0.266
706.70 0.2659
706.80 0.2657
706.90 0.2656
707.00 0.2654
707.10 0.2653
707.20 0.2651
707.30 0.265
707.40 0.2649
707.50 0.2647
707.60 0.2646
707.70 0.2644
707.80 0.2643
707.90 0.2641
708.00 0.264
708.10 0.2638
708.20 0.2637
708.30 0.2636
708.40 0.2634
708.50 0.2633
708.60 0.2631
708.70 0.263
708.80 0.2628
708.90 0.2627
709.00 0.2625
709.10 0.2624
709.20 0.2623
709.30 0.2621
709.40 0.262
709.50 0.2618
709.60 0.2617
709.70 0.2615
709.80 0.2614
709.90 0.2613
710.00 0.2611
710.10 0.261
710.20 0.2608
710.30 0.2607
710.40 0.2605
710.50 0.2604
710.60 0.2603
710.70 0.2601
710.80 0.26
710.90 0.2598
711.00 0.2597
711.10 0.2596
711.20 0.2594
711.30 0.2593
711.40 0.2591
711.50 0.259
711.60 0.2589
711.70 0.2587
711.80 0.2586
711.90 0.2584
712.00 0.2583
712.10 0.2582
712.20 0.258
712.30 0.2579
712.40 0.2577
712.50 0.2576
712.60 0.2575
712.70 0.2573
712.80 0.2572
712.90 0.257
713.00 0.2569
713.10 0.2568
713.20 0.2566
713.30 0.2565
713.40 0.2563
713.50 0.2562
713.60 0.2561
713.70 0.2559
713.80 0.2558
713.90 0.2556
714.00 0.2555
714.10 0.2554
714.20 0.2552
714.30 0.2551
714.40 0.2549
714.50 0.2548
714.60 0.2547
714.70 0.2545
714.80 0.2544
714.90 0.2543
715.00 0.2541
715.10 0.254
715.20 0.2538
715.30 0.2537
715.40 0.2536
715.50 0.2534
715.60 0.2533
715.70 0.2532
715.80 0.253
715.90 0.2529
716.00 0.2527
716.10 0.2526
716.20 0.2525
716.30 0.2523
716.40 0.2522
716.50 0.2521
716.60 0.2519
716.70 0.2518
716.80 0.2517
716.90 0.2515
717.00 0.2514
717.10 0.2512
717.20 0.2511
717.30 0.251
717.40 0.2508
717.50 0.2507
717.60 0.2506
717.70 0.2504
717.80 0.2503
717.90 0.2502
718.00 0.25
718.10 0.2499
718.20 0.2498
718.30 0.2496
718.40 0.2495
718.50 0.2494
718.60 0.2492
718.70 0.2491
718.80 0.249
718.90 0.2488
719.00 0.2487
719.10 0.2485
719.20 0.2484
719.30 0.2483
719.40 0.2481
719.50 0.248
719.60 0.2479
719.70 0.2477
719.80 0.2476
719.90 0.2475
720.00 0.2473
720.10 0.2472
720.20 0.2471
720.30 0.2469
720.40 0.2468
720.50 0.2467
720.60 0.2465
720.70 0.2464
720.80 0.2463
720.90 0.2462
721.00 0.246
721.10 0.2459
721.20 0.2458
721.30 0.2456
721.40 0.2455
721.50 0.2454
721.60 0.2452
721.70 0.2451
721.80 0.245
721.90 0.2448
722.00 0.2447
722.10 0.2446
722.20 0.2444
722.30 0.2443
722.40 0.2442
722.50 0.244
722.60 0.2439
722.70 0.2438
722.80 0.2437
722.90 0.2435
723.00 0.2434
723.10 0.2433
723.20 0.2431
723.30 0.243
723.40 0.2429
723.50 0.2427
723.60 0.2426
723.70 0.2425
723.80 0.2423
723.90 0.2422
724.00 0.2421
724.10 0.242
724.20 0.2418
724.30 0.2417
724.40 0.2416
724.50 0.2414
724.60 0.2413
724.70 0.2412
724.80 0.2411
724.90 0.2409
725.00 0.2408
725.10 0.2407
725.20 0.2405
725.30 0.2404
725.40 0.2403
725.50 0.2402
725.60 0.24
725.70 0.2399
725.80 0.2398
725.90 0.2396
726.00 0.2395
726.10 0.2394
726.20 0.2393
726.30 0.2391
726.40 0.239
726.50 0.2389
726.60 0.2387
726.70 0.2386
726.80 0.2385
726.90 0.2384
727.00 0.2382
727.10 0.2381
727.20 0.238
727.30 0.2379
727.40 0.2377
727.50 0.2376
727.60 0.2375
727.70 0.2374
727.80 0.2372
727.90 0.2371
728.00 0.237
728.10 0.2368
728.20 0.2367
728.30 0.2366
728.40 0.2365
728.50 0.2363
728.60 0.2362
728.70 0.2361
728.80 0.236
728.90 0.2358
729.00 0.2357
729.10 0.2356
729.20 0.2355
729.30 0.2353
729.40 0.2352
729.50 0.2351
729.60 0.235
729.70 0.2348
729.80 0.2347
729.90 0.2346
730.00 0.2345
730.10 0.2343
730.20 0.2342
730.30 0.2341
730.40 0.234
730.50 0.2338
730.60 0.2337
730.70 0.2336
730.80 0.2335
730.90 0.2333
731.00 0.2332
731.10 0.2331
731.20 0.233
731.30 0.2329
731.40 0.2327
731.50 0.2326
731.60 0.2325
731.70 0.2324
731.80 0.2322
731.90 0.2321
732.00 0.232
732.10 0.2319
732.20 0.2318
732.30 0.2316
732.40 0.2315
732.50 0.2314
732.60 0.2313
732.70 0.2311
732.80 0.231
732.90 0.2309
733.00 0.2308
733.10 0.2307
733.20 0.2305
733.30 0.2304
733.40 0.2303
733.50 0.2302
733.60 0.23
733.70 0.2299
733.80 0.2298
733.90 0.2297
734.00 0.2296
734.10 0.2294
734.20 0.2293
734.30 0.2292
734.40 0.2291
734.50 0.229
734.60 0.2288
734.70 0.2287
734.80 0.2286
734.90 0.2285
735.00 0.2284
735.10 0.2282
735.20 0.2281
735.30 0.228
735.40 0.2279
735.50 0.2278
735.60 0.2276
735.70 0.2275
735.80 0.2274
735.90 0.2273
736.00 0.2272
736.10 0.227
736.20 0.2269
736.30 0.2268
736.40 0.2267
736.50 0.2266
736.60 0.2264
736.70 0.2263
736.80 0.2262
736.90 0.2261
737.00 0.226
737.10 0.2258
737.20 0.2257
737.30 0.2256
737.40 0.2255
737.50 0.2254
737.60 0.2252
737.70 0.2251
737.80 0.225
737.90 0.2249
738.00 0.2248
738.10 0.2246
738.20 0.2245
738.30 0.2244
738.40 0.2243
738.50 0.2242
738.60 0.224
738.70 0.2239
738.80 0.2238
738.90 0.2237
739.00 0.2236
739.10 0.2235
739.20 0.2233
739.30 0.2232
739.40 0.2231
739.50 0.223
739.60 0.2229
739.70 0.2227
739.80 0.2226
739.90 0.2225
740.00 0.2224
740.10 0.2223
740.20 0.2222
740.30 0.222
740.40 0.2219
740.50 0.2218
740.60 0.2217
740.70 0.2216
740.80 0.2215
740.90 0.2214
741.00 0.2212
741.10 0.2211
741.20 0.221
741.30 0.2209
741.40 0.2208
741.50 0.2207
741.60 0.2206
741.70 0.2204
741.80 0.2203
741.90 0.2202
742.00 0.2201
742.10 0.22
742.20 0.2199
742.30 0.2197
742.40 0.2196
742.50 0.2195
742.60 0.2194
742.70 0.2193
742.80 0.2192
742.90 0.2191
743.00 0.2189
743.10 0.2188
743.20 0.2187
743.30 0.2186
743.40 0.2185
743.50 0.2184
743.60 0.2183
743.70 0.2182
743.80 0.218
743.90 0.2179
744.00 0.2178
744.10 0.2177
744.20 0.2176
744.30 0.2175
744.40 0.2174
744.50 0.2172
744.60 0.2171
744.70 0.217
744.80 0.2169
744.90 0.2168
745.00 0.2167
745.10 0.2166
745.20 0.2165
745.30 0.2163
745.40 0.2162
745.50 0.2161
745.60 0.216
745.70 0.2159
745.80 0.2158
745.90 0.2157
746.00 0.2156
746.10 0.2154
746.20 0.2153
746.30 0.2152
746.40 0.2151
746.50 0.215
746.60 0.2149
746.70 0.2148
746.80 0.2147
746.90 0.2145
747.00 0.2144
747.10 0.2143
747.20 0.2142
747.30 0.2141
747.40 0.214
747.50 0.2139
747.60 0.2138
747.70 0.2136
747.80 0.2135
747.90 0.2134
748.00 0.2133
748.10 0.2132
748.20 0.2131
748.30 0.213
748.40 0.2129
748.50 0.2128
748.60 0.2126
748.70 0.2125
748.80 0.2124
748.90 0.2123
749.00 0.2122
749.10 0.2121
749.20 0.212
749.30 0.2119
749.40 0.2118
749.50 0.2116
749.60 0.2115
749.70 0.2114
749.80 0.2113
749.90 0.2112
750.00 0.2111
750.10 0.211
750.20 0.2109
750.30 0.2108
750.40 0.2107
750.50 0.2106
750.60 0.2104
750.70 0.2103
750.80 0.2102
750.90 0.2101
751.00 0.21
751.10 0.2099
751.20 0.2098
751.30 0.2097
751.40 0.2096
751.50 0.2095
751.60 0.2094
751.70 0.2093
751.80 0.2092
751.90 0.209
752.00 0.2089
752.10 0.2088
752.20 0.2087
752.30 0.2086
752.40 0.2085
752.50 0.2084
752.60 0.2083
752.70 0.2082
752.80 0.2081
752.90 0.208
753.00 0.2079
753.10 0.2078
753.20 0.2077
753.30 0.2075
753.40 0.2074
753.50 0.2073
753.60 0.2072
753.70 0.2071
753.80 0.207
753.90 0.2069
754.00 0.2068
754.10 0.2067
754.20 0.2066
754.30 0.2065
754.40 0.2064
754.50 0.2063
754.60 0.2062
754.70 0.2061
754.80 0.206
754.90 0.2058
755.00 0.2057
755.10 0.2056
755.20 0.2055
755.30 0.2054
755.40 0.2053
755.50 0.2052
755.60 0.2051
755.70 0.205
755.80 0.2049
755.90 0.2048
756.00 0.2047
756.10 0.2046
756.20 0.2045
756.30 0.2044
756.40 0.2043
756.50 0.2042
756.60 0.2041
756.70 0.2039
756.80 0.2038
756.90 0.2037
757.00 0.2036
757.10 0.2035
757.20 0.2034
757.30 0.2033
757.40 0.2032
757.50 0.2031
757.60 0.203
757.70 0.2029
757.80 0.2028
757.90 0.2027
758.00 0.2026
758.10 0.2025
758.20 0.2024
758.30 0.2023
758.40 0.2022
758.50 0.2021
758.60 0.202
758.70 0.2019
758.80 0.2018
758.90 0.2016
759.00 0.2015
759.10 0.2014
759.20 0.2013
759.30 0.2012
759.40 0.2011
759.50 0.201
759.60 0.2009
759.70 0.2008
759.80 0.2007
759.90 0.2006
760.00 0.2005
760.10 0.2004
760.20 0.2003
760.30 0.2002
760.40 0.2001
760.50 0.2
760.60 0.1999
760.70 0.1998
760.80 0.1997
760.90 0.1996
761.00 0.1995
761.10 0.1994
761.20 0.1993
761.30 0.1992
761.40 0.1991
761.50 0.199
761.60 0.1989
761.70 0.1988
761.80 0.1987
761.90 0.1986
762.00 0.1985
762.10 0.1984
762.20 0.1983
762.30 0.1982
762.40 0.1981
762.50 0.198
762.60 0.1979
762.70 0.1978
762.80 0.1977
762.90 0.1976
763.00 0.1975
763.10 0.1974
763.20 0.1973
763.30 0.1972
763.40 0.1971
763.50 0.197
763.60 0.1969
763.70 0.1968
763.80 0.1967
763.90 0.1966
764.00 0.1965
764.10 0.1964
764.20 0.1963
764.30 0.1962
764.40 0.1961
764.50 0.196
764.60 0.1959
764.70 0.1958
764.80 0.1957
764.90 0.1956
765.00 0.1955
765.10 0.1954
765.20 0.1953
765.30 0.1952
765.40 0.1951
765.50 0.195
765.60 0.1949
765.70 0.1948
765.80 0.1947
765.90 0.1946
766.00 0.1945
766.10 0.1944
766.20 0.1943
766.30 0.1942
766.40 0.1941
766.50 0.194
766.60 0.1939
766.70 0.1938
766.80 0.1937
766.90 0.1936
767.00 0.1935
767.10 0.1934
767.20 0.1933
767.30 0.1932
767.40 0.1931
767.50 0.193
767.60 0.1929
767.70 0.1928
767.80 0.1927
767.90 0.1926
768.00 0.1925
768.10 0.1924
768.20 0.1923
768.30 0.1922
768.40 0.1921
768.50 0.192
768.60 0.1919
768.70 0.1918
768.80 0.1917
768.90 0.1916
769.00 0.1915
769.10 0.1914
769.20 0.1913
769.30 0.1913
769.40 0.1912
769.50 0.1911
769.60 0.191
769.70 0.1909
769.80 0.1908
769.90 0.1907
770.00 0.1906
770.10 0.1905
770.20 0.1904
770.30 0.1903
770.40 0.1902
770.50 0.1901
770.60 0.19
770.70 0.1899
770.80 0.1898
770.90 0.1897
771.00 0.1896
771.10 0.1895
771.20 0.1894
771.30 0.1893
771.40 0.1892
771.50 0.1891
771.60 0.1891
771.70 0.189
771.80 0.1889
771.90 0.1888
772.00 0.1887
772.10 0.1886
772.20 0.1885
772.30 0.1884
772.40 0.1883
772.50 0.1882
772.60 0.1881
772.70 0.188
772.80 0.1879
772.90 0.1878
773.00 0.1877
773.10 0.1876
773.20 0.1875
773.30 0.1874
773.40 0.1874
773.50 0.1873
773.60 0.1872
773.70 0.1871
773.80 0.187
773.90 0.1869
774.00 0.1868
774.10 0.1867
774.20 0.1866
774.30 0.1865
774.40 0.1864
774.50 0.1863
774.60 0.1862
774.70 0.1861
774.80 0.186
774.90 0.1859
775.00 0.1859
775.10 0.1858
775.20 0.1857
775.30 0.1856
775.40 0.1855
775.50 0.1854
775.60 0.1853
775.70 0.1852
775.80 0.1851
775.90 0.185
776.00 0.1849
776.10 0.1848
776.20 0.1847
776.30 0.1846
776.40 0.1846
776.50 0.1845
776.60 0.1844
776.70 0.1843
776.80 0.1842
776.90 0.1841
777.00 0.184
777.10 0.1839
777.20 0.1838
777.30 0.1837
777.40 0.1836
777.50 0.1835
777.60 0.1834
777.70 0.1834
777.80 0.1833
777.90 0.1832
778.00 0.1831
778.10 0.183
778.20 0.1829
778.30 0.1828
778.40 0.1827
778.50 0.1826
778.60 0.1825
778.70 0.1824
778.80 0.1823
778.90 0.1822
779.00 0.1822
779.10 0.1821
779.20 0.182
779.30 0.1819
779.40 0.1818
779.50 0.1817
779.60 0.1816
779.70 0.1815
779.80 0.1814
779.90 0.1813
780.00 0.1812
780.10 0.1812
780.20 0.1811
780.30 0.181
780.40 0.1809
780.50 0.1808
780.60 0.1807
780.70 0.1806
780.80 0.1805
780.90 0.1804
781.00 0.1803
781.10 0.1803
781.20 0.1802
781.30 0.1801
781.40 0.18
781.50 0.1799
781.60 0.1798
781.70 0.1797
781.80 0.1796
781.90 0.1795
782.00 0.1795
782.10 0.1794
782.20 0.1793
782.30 0.1792
782.40 0.1791
782.50 0.179
782.60 0.1789
782.70 0.1788
782.80 0.1788
782.90 0.1787
783.00 0.1786
783.10 0.1785
783.20 0.1784
783.30 0.1783
783.40 0.1782
783.50 0.1781
783.60 0.178
783.70 0.178
783.80 0.1779
783.90 0.1778
784.00 0.1777
784.10 0.1776
784.20 0.1775
784.30 0.1774
784.40 0.1773
784.50 0.1773
784.60 0.1772
784.70 0.1771
784.80 0.177
784.90 0.1769
785.00 0.1768
785.10 0.1767
785.20 0.1766
785.30 0.1766
785.40 0.1765
785.50 0.1764
785.60 0.1763
785.70 0.1762
785.80 0.1761
785.90 0.176
786.00 0.1759
786.10 0.1759
786.20 0.1758
786.30 0.1757
786.40 0.1756
786.50 0.1755
786.60 0.1754
786.70 0.1753
786.80 0.1752
786.90 0.1752
787.00 0.1751
787.10 0.175
787.20 0.1749
787.30 0.1748
787.40 0.1747
787.50 0.1746
787.60 0.1745
787.70 0.1745
787.80 0.1744
787.90 0.1743
788.00 0.1742
788.10 0.1741
788.20 0.174
788.30 0.1739
788.40 0.1739
788.50 0.1738
788.60 0.1737
788.70 0.1736
788.80 0.1735
788.90 0.1734
789.00 0.1733
789.10 0.1733
789.20 0.1732
789.30 0.1731
789.40 0.173
789.50 0.1729
789.60 0.1728
789.70 0.1727
789.80 0.1727
789.90 0.1726
790.00 0.1725
790.10 0.1724
790.20 0.1723
790.30 0.1722
790.40 0.1721
790.50 0.1721
790.60 0.172
790.70 0.1719
790.80 0.1718
790.90 0.1717
791.00 0.1716
791.10 0.1716
791.20 0.1715
791.30 0.1714
791.40 0.1713
791.50 0.1712
791.60 0.1711
791.70 0.1711
791.80 0.171
791.90 0.1709
792.00 0.1708
792.10 0.1707
792.20 0.1706
792.30 0.1706
792.40 0.1705
792.50 0.1704
792.60 0.1703
792.70 0.1702
792.80 0.1701
792.90 0.1701
793.00 0.17
793.10 0.1699
793.20 0.1698
793.30 0.1697
793.40 0.1696
793.50 0.1696
793.60 0.1695
793.70 0.1694
793.80 0.1693
793.90 0.1692
794.00 0.1691
794.10 0.1691
794.20 0.169
794.30 0.1689
794.40 0.1688
794.50 0.1687
794.60 0.1686
794.70 0.1686
794.80 0.1685
794.90 0.1684
795.00 0.1683
795.10 0.1682
795.20 0.1682
795.30 0.1681
795.40 0.168
795.50 0.1679
795.60 0.1678
795.70 0.1677
795.80 0.1677
795.90 0.1676
796.00 0.1675
796.10 0.1674
796.20 0.1673
796.30 0.1672
796.40 0.1672
796.50 0.1671
796.60 0.167
796.70 0.1669
796.80 0.1668
796.90 0.1668
797.00 0.1667
797.10 0.1666
797.20 0.1665
797.30 0.1664
797.40 0.1663
797.50 0.1663
797.60 0.1662
797.70 0.1661
797.80 0.166
797.90 0.1659
798.00 0.1659
798.10 0.1658
798.20 0.1657
798.30 0.1656
798.40 0.1655
798.50 0.1655
798.60 0.1654
798.70 0.1653
798.80 0.1652
798.90 0.1651
799.00 0.165
799.10 0.165
799.20 0.1649
799.30 0.1648
799.40 0.1647
799.50 0.1646
799.60 0.1646
799.70 0.1645
799.80 0.1644
799.90 0.1643
800.00 0.1642
800.10 0.1642
800.20 0.1641
800.30 0.164
800.40 0.1639
800.50 0.1638
800.60 0.1638
800.70 0.1637
800.80 0.1636
800.90 0.1635
801.00 0.1635
801.10 0.1634
801.20 0.1633
801.30 0.1632
801.40 0.1631
801.50 0.1631
801.60 0.163
801.70 0.1629
801.80 0.1628
801.90 0.1627
802.00 0.1627
802.10 0.1626
802.20 0.1625
802.30 0.1624
802.40 0.1624
802.50 0.1623
802.60 0.1622
802.70 0.1621
802.80 0.162
802.90 0.162
803.00 0.1619
803.10 0.1618
803.20 0.1617
803.30 0.1616
803.40 0.1616
803.50 0.1615
803.60 0.1614
803.70 0.1613
803.80 0.1613
803.90 0.1612
804.00 0.1611
804.10 0.161
804.20 0.1609
804.30 0.1609
804.40 0.1608
804.50 0.1607
804.60 0.1606
804.70 0.1606
804.80 0.1605
804.90 0.1604
805.00 0.1603
805.10 0.1602
805.20 0.1602
805.30 0.1601
805.40 0.16
805.50 0.1599
805.60 0.1599
805.70 0.1598
805.80 0.1597
805.90 0.1596
806.00 0.1595
806.10 0.1595
806.20 0.1594
806.30 0.1593
806.40 0.1592
806.50 0.1592
806.60 0.1591
806.70 0.159
806.80 0.1589
806.90 0.1589
807.00 0.1588
807.10 0.1587
807.20 0.1586
807.30 0.1585
807.40 0.1585
807.50 0.1584
807.60 0.1583
807.70 0.1582
807.80 0.1582
807.90 0.1581
808.00 0.158
808.10 0.1579
808.20 0.1579
808.30 0.1578
808.40 0.1577
808.50 0.1576
808.60 0.1576
808.70 0.1575
808.80 0.1574
808.90 0.1573
809.00 0.1572
809.10 0.1572
809.20 0.1571
809.30 0.157
809.40 0.1569
809.50 0.1569
809.60 0.1568
809.70 0.1567
809.80 0.1566
809.90 0.1566
810.00 0.1565
810.10 0.1564
810.20 0.1563
810.30 0.1563
810.40 0.1562
810.50 0.1561
810.60 0.156
810.70 0.156
810.80 0.1559
810.90 0.1558
811.00 0.1557
811.10 0.1557
811.20 0.1556
811.30 0.1555
811.40 0.1554
811.50 0.1554
811.60 0.1553
811.70 0.1552
811.80 0.1552
811.90 0.1551
812.00 0.155
812.10 0.1549
812.20 0.1549
812.30 0.1548
812.40 0.1547
812.50 0.1546
812.60 0.1546
812.70 0.1545
812.80 0.1544
812.90 0.1543
813.00 0.1543
813.10 0.1542
813.20 0.1541
813.30 0.154
813.40 0.154
813.50 0.1539
813.60 0.1538
813.70 0.1538
813.80 0.1537
813.90 0.1536
814.00 0.1535
814.10 0.1535
814.20 0.1534
814.30 0.1533
814.40 0.1532
814.50 0.1532
814.60 0.1531
814.70 0.153
814.80 0.1529
814.90 0.1529
815.00 0.1528
815.10 0.1527
815.20 0.1527
815.30 0.1526
815.40 0.1525
815.50 0.1524
815.60 0.1524
815.70 0.1523
815.80 0.1522
815.90 0.1521
816.00 0.1521
816.10 0.152
816.20 0.1519
816.30 0.1519
816.40 0.1518
816.50 0.1517
816.60 0.1516
816.70 0.1516
816.80 0.1515
816.90 0.1514
817.00 0.1513
817.10 0.1513
817.20 0.1512
817.30 0.1511
817.40 0.1511
817.50 0.151
817.60 0.1509
817.70 0.1508
817.80 0.1508
817.90 0.1507
818.00 0.1506
818.10 0.1506
818.20 0.1505
818.30 0.1504
818.40 0.1503
818.50 0.1503
818.60 0.1502
818.70 0.1501
818.80 0.15
818.90 0.15
819.00 0.1499
819.10 0.1498
819.20 0.1498
819.30 0.1497
819.40 0.1496
819.50 0.1495
819.60 0.1495
819.70 0.1494
819.80 0.1493
819.90 0.1493
820.00 0.1492
820.10 0.1491
820.20 0.149
820.30 0.149
820.40 0.1489
820.50 0.1488
820.60 0.1488
820.70 0.1487
820.80 0.1486
820.90 0.1486
821.00 0.1485
821.10 0.1484
821.20 0.1483
821.30 0.1483
821.40 0.1482
821.50 0.1481
821.60 0.1481
821.70 0.148
821.80 0.1479
821.90 0.1479
822.00 0.1478
822.10 0.1477
822.20 0.1476
822.30 0.1476
822.40 0.1475
822.50 0.1474
822.60 0.1474
822.70 0.1473
822.80 0.1472
822.90 0.1472
823.00 0.1471
823.10 0.147
823.20 0.1469
823.30 0.1469
823.40 0.1468
823.50 0.1467
823.60 0.1467
823.70 0.1466
823.80 0.1465
823.90 0.1465
824.00 0.1464
824.10 0.1463
824.20 0.1463
824.30 0.1462
824.40 0.1461
824.50 0.146
824.60 0.146
824.70 0.1459
824.80 0.1458
824.90 0.1458
825.00 0.1457
825.10 0.1456
825.20 0.1456
825.30 0.1455
825.40 0.1454
825.50 0.1454
825.60 0.1453
825.70 0.1452
825.80 0.1452
825.90 0.1451
826.00 0.145
826.10 0.1449
826.20 0.1449
826.30 0.1448
826.40 0.1447
826.50 0.1447
826.60 0.1446
826.70 0.1445
826.80 0.1445
826.90 0.1444
827.00 0.1443
827.10 0.1443
827.20 0.1442
827.30 0.1441
827.40 0.1441
827.50 0.144
827.60 0.1439
827.70 0.1439
827.80 0.1438
827.90 0.1437
828.00 0.1437
828.10 0.1436
828.20 0.1435
828.30 0.1435
828.40 0.1434
828.50 0.1433
828.60 0.1433
828.70 0.1432
828.80 0.1431
828.90 0.143
829.00 0.143
829.10 0.1429
829.20 0.1428
829.30 0.1428
829.40 0.1427
829.50 0.1426
829.60 0.1426
829.70 0.1425
829.80 0.1424
829.90 0.1424
830.00 0.1423
830.10 0.1422
830.20 0.1422
830.30 0.1421
830.40 0.142
830.50 0.142
830.60 0.1419
830.70 0.1418
830.80 0.1418
830.90 0.1417
831.00 0.1416
831.10 0.1416
831.20 0.1415
831.30 0.1414
831.40 0.1414
831.50 0.1413
831.60 0.1412
831.70 0.1412
831.80 0.1411
831.90 0.141
832.00 0.141
832.10 0.1409
832.20 0.1408
832.30 0.1408
832.40 0.1407
832.50 0.1407
832.60 0.1406
832.70 0.1405
832.80 0.1405
832.90 0.1404
833.00 0.1403
833.10 0.1403
833.20 0.1402
833.30 0.1401
833.40 0.1401
833.50 0.14
833.60 0.1399
833.70 0.1399
833.80 0.1398
833.90 0.1397
834.00 0.1397
834.10 0.1396
834.20 0.1395
834.30 0.1395
834.40 0.1394
834.50 0.1393
834.60 0.1393
834.70 0.1392
834.80 0.1392
834.90 0.1391
835.00 0.139
835.10 0.139
835.20 0.1389
835.30 0.1388
835.40 0.1388
835.50 0.1387
835.60 0.1386
835.70 0.1386
835.80 0.1385
835.90 0.1384
836.00 0.1384
836.10 0.1383
836.20 0.1382
836.30 0.1382
836.40 0.1381
836.50 0.138
836.60 0.138
836.70 0.1379
836.80 0.1379
836.90 0.1378
837.00 0.1377
837.10 0.1377
837.20 0.1376
837.30 0.1375
837.40 0.1375
837.50 0.1374
837.60 0.1373
837.70 0.1373
837.80 0.1372
837.90 0.1372
838.00 0.1371
838.10 0.137
838.20 0.137
838.30 0.1369
838.40 0.1368
838.50 0.1368
838.60 0.1367
838.70 0.1366
838.80 0.1366
838.90 0.1365
839.00 0.1365
839.10 0.1364
839.20 0.1363
839.30 0.1363
839.40 0.1362
839.50 0.1361
839.60 0.1361
839.70 0.136
839.80 0.1359
839.90 0.1359
840.00 0.1358
840.10 0.1358
840.20 0.1357
840.30 0.1356
840.40 0.1356
840.50 0.1355
840.60 0.1354
840.70 0.1354
840.80 0.1353
840.90 0.1353
841.00 0.1352
841.10 0.1351
841.20 0.1351
841.30 0.135
841.40 0.1349
841.50 0.1349
841.60 0.1348
841.70 0.1348
841.80 0.1347
841.90 0.1346
842.00 0.1346
842.10 0.1345
842.20 0.1344
842.30 0.1344
842.40 0.1343
842.50 0.1343
842.60 0.1342
842.70 0.1341
842.80 0.1341
842.90 0.134
843.00 0.1339
843.10 0.1339
843.20 0.1338
843.30 0.1338
843.40 0.1337
843.50 0.1336
843.60 0.1336
843.70 0.1335
843.80 0.1334
843.90 0.1334
844.00 0.1333
844.10 0.1333
844.20 0.1332
844.30 0.1331
844.40 0.1331
844.50 0.133
844.60 0.133
844.70 0.1329
844.80 0.1328
844.90 0.1328
845.00 0.1327
845.10 0.1326
845.20 0.1326
845.30 0.1325
845.40 0.1325
845.50 0.1324
845.60 0.1323
845.70 0.1323
845.80 0.1322
845.90 0.1322
846.00 0.1321
846.10 0.132
846.20 0.132
846.30 0.1319
846.40 0.1318
846.50 0.1318
846.60 0.1317
846.70 0.1317
846.80 0.1316
846.90 0.1315
847.00 0.1315
847.10 0.1314
847.20 0.1314
847.30 0.1313
847.40 0.1312
847.50 0.1312
847.60 0.1311
847.70 0.1311
847.80 0.131
847.90 0.1309
848.00 0.1309
848.10 0.1308
848.20 0.1308
848.30 0.1307
848.40 0.1306
848.50 0.1306
848.60 0.1305
848.70 0.1305
848.80 0.1304
848.90 0.1303
849.00 0.1303
849.10 0.1302
849.20 0.1302
849.30 0.1301
849.40 0.13
849.50 0.13
849.60 0.1299
849.70 0.1299
849.80 0.1298
849.90 0.1297
850.00 0.1297
850.10 0.1296
850.20 0.1296
850.30 0.1295
850.40 0.1294
850.50 0.1294
850.60 0.1293
850.70 0.1293
850.80 0.1292
850.90 0.1291
851.00 0.1291
851.10 0.129
851.20 0.129
851.30 0.1289
851.40 0.1288
851.50 0.1288
851.60 0.1287
851.70 0.1287
851.80 0.1286
851.90 0.1285
852.00 0.1285
852.10 0.1284
852.20 0.1284
852.30 0.1283
852.40 0.1283
852.50 0.1282
852.60 0.1281
852.70 0.1281
852.80 0.128
852.90 0.128
853.00 0.1279
853.10 0.1278
853.20 0.1278
853.30 0.1277
853.40 0.1277
853.50 0.1276
853.60 0.1275
853.70 0.1275
853.80 0.1274
853.90 0.1274
854.00 0.1273
854.10 0.1273
854.20 0.1272
854.30 0.1271
854.40 0.1271
854.50 0.127
854.60 0.127
854.70 0.1269
854.80 0.1268
854.90 0.1268
855.00 0.1267
855.10 0.1267
855.20 0.1266
855.30 0.1266
855.40 0.1265
855.50 0.1264
855.60 0.1264
855.70 0.1263
855.80 0.1263
855.90 0.1262
856.00 0.1262
856.10 0.1261
856.20 0.126
856.30 0.126
856.40 0.1259
856.50 0.1259
856.60 0.1258
856.70 0.1257
856.80 0.1257
856.90 0.1256
857.00 0.1256
857.10 0.1255
857.20 0.1255
857.30 0.1254
857.40 0.1253
857.50 0.1253
857.60 0.1252
857.70 0.1252
857.80 0.1251
857.90 0.1251
858.00 0.125
858.10 0.125
858.20 0.1249
858.30 0.1248
858.40 0.1248
858.50 0.1247
858.60 0.1247
858.70 0.1246
858.80 0.1246
858.90 0.1245
859.00 0.1244
859.10 0.1244
859.20 0.1243
859.30 0.1243
859.40 0.1242
859.50 0.1242
859.60 0.1241
859.70 0.1241
859.80 0.124
859.90 0.1239
860.00 0.1239
860.10 0.1238
860.20 0.1238
860.30 0.1237
860.40 0.1237
860.50 0.1236
860.60 0.1236
860.70 0.1235
860.80 0.1234
860.90 0.1234
861.00 0.1233
861.10 0.1233
861.20 0.1232
861.30 0.1232
861.40 0.1231
861.50 0.1231
861.60 0.123
861.70 0.1229
861.80 0.1229
861.90 0.1228
862.00 0.1228
862.10 0.1227
862.20 0.1227
862.30 0.1226
862.40 0.1226
862.50 0.1225
862.60 0.1224
862.70 0.1224
862.80 0.1223
862.90 0.1223
863.00 0.1222
863.10 0.1222
863.20 0.1221
863.30 0.1221
863.40 0.122
863.50 0.1219
863.60 0.1219
863.70 0.1218
863.80 0.1218
863.90 0.1217
864.00 0.1217
864.10 0.1216
864.20 0.1216
864.30 0.1215
864.40 0.1215
864.50 0.1214
864.60 0.1213
864.70 0.1213
864.80 0.1212
864.90 0.1212
865.00 0.1211
865.10 0.1211
865.20 0.121
865.30 0.121
865.40 0.1209
865.50 0.1208
865.60 0.1208
865.70 0.1207
865.80 0.1207
865.90 0.1206
866.00 0.1206
866.10 0.1205
866.20 0.1205
866.30 0.1204
866.40 0.1204
866.50 0.1203
866.60 0.1202
866.70 0.1202
866.80 0.1201
866.90 0.1201
867.00 0.12
867.10 0.12
867.20 0.1199
867.30 0.1199
867.40 0.1198
867.50 0.1198
867.60 0.1197
867.70 0.1196
867.80 0.1196
867.90 0.1195
868.00 0.1195
868.10 0.1194
868.20 0.1194
868.30 0.1193
868.40 0.1193
868.50 0.1192
868.60 0.1192
868.70 0.1191
868.80 0.1191
868.90 0.119
869.00 0.119
869.10 0.1189
869.20 0.1188
869.30 0.1188
869.40 0.1187
869.50 0.1187
869.60 0.1186
869.70 0.1186
869.80 0.1185
869.90 0.1185
870.00 0.1184
870.10 0.1184
870.20 0.1183
870.30 0.1183
870.40 0.1182
870.50 0.1182
870.60 0.1181
870.70 0.118
870.80 0.118
870.90 0.1179
871.00 0.1179
871.10 0.1178
871.20 0.1178
871.30 0.1177
871.40 0.1177
871.50 0.1176
871.60 0.1176
871.70 0.1175
871.80 0.1175
871.90 0.1174
872.00 0.1174
872.10 0.1173
872.20 0.1173
872.30 0.1172
872.40 0.1172
872.50 0.1171
872.60 0.117
872.70 0.117
872.80 0.1169
872.90 0.1169
873.00 0.1168
873.10 0.1168
873.20 0.1167
873.30 0.1167
873.40 0.1166
873.50 0.1166
873.60 0.1165
873.70 0.1165
873.80 0.1164
873.90 0.1164
874.00 0.1163
874.10 0.1163
874.20 0.1162
874.30 0.1162
874.40 0.1161
874.50 0.1161
874.60 0.116
874.70 0.1159
874.80 0.1159
874.90 0.1158
875.00 0.1158
875.10 0.1157
875.20 0.1157
875.30 0.1156
875.40 0.1156
875.50 0.1155
875.60 0.1155
875.70 0.1154
875.80 0.1154
875.90 0.1153
876.00 0.1153
876.10 0.1152
876.20 0.1152
876.30 0.1151
876.40 0.1151
876.50 0.115
876.60 0.115
876.70 0.1149
876.80 0.1149
876.90 0.1148
877.00 0.1148
877.10 0.1147
877.20 0.1147
877.30 0.1146
877.40 0.1146
877.50 0.1145
877.60 0.1145
877.70 0.1144
877.80 0.1144
877.90 0.1143
878.00 0.1143
878.10 0.1142
878.20 0.1141
878.30 0.1141
878.40 0.114
878.50 0.114
878.60 0.1139
878.70 0.1139
878.80 0.1138
878.90 0.1138
879.00 0.1137
879.10 0.1137
879.20 0.1136
879.30 0.1136
879.40 0.1135
879.50 0.1135
879.60 0.1134
879.70 0.1134
879.80 0.1133
879.90 0.1133
880.00 0.1132
880.10 0.1132
880.20 0.1131
880.30 0.1131
880.40 0.113
880.50 0.113
880.60 0.1129
880.70 0.1129
880.80 0.1128
880.90 0.1128
881.00 0.1127
881.10 0.1127
881.20 0.1126
881.30 0.1126
881.40 0.1125
881.50 0.1125
881.60 0.1124
881.70 0.1124
881.80 0.1123
881.90 0.1123
882.00 0.1122
882.10 0.1122
882.20 0.1121
882.30 0.1121
882.40 0.112
882.50 0.112
882.60 0.1119
882.70 0.1119
882.80 0.1118
882.90 0.1118
883.00 0.1117
883.10 0.1117
883.20 0.1116
883.30 0.1116
883.40 0.1115
883.50 0.1115
883.60 0.1114
883.70 0.1114
883.80 0.1113
883.90 0.1113
884.00 0.1113
884.10 0.1112
884.20 0.1112
884.30 0.1111
884.40 0.1111
884.50 0.111
884.60 0.111
884.70 0.1109
884.80 0.1109
884.90 0.1108
885.00 0.1108
885.10 0.1107
885.20 0.1107
885.30 0.1106
885.40 0.1106
885.50 0.1105
885.60 0.1105
885.70 0.1104
885.80 0.1104
885.90 0.1103
886.00 0.1103
886.10 0.1102
886.20 0.1102
886.30 0.1101
886.40 0.1101
886.50 0.11
886.60 0.11
886.70 0.1099
886.80 0.1099
886.90 0.1098
887.00 0.1098
887.10 0.1097
887.20 0.1097
887.30 0.1096
887.40 0.1096
887.50 0.1095
887.60 0.1095
887.70 0.1094
887.80 0.1094
887.90 0.1093
888.00 0.1093
888.10 0.1093
888.20 0.1092
888.30 0.1092
888.40 0.1091
888.50 0.1091
888.60 0.109
888.70 0.109
888.80 0.1089
888.90 0.1089
889.00 0.1088
889.10 0.1088
889.20 0.1087
889.30 0.1087
889.40 0.1086
889.50 0.1086
889.60 0.1085
889.70 0.1085
889.80 0.1084
889.90 0.1084
890.00 0.1083
890.10 0.1083
890.20 0.1083
890.30 0.1082
890.40 0.1082
890.50 0.1081
890.60 0.1081
890.70 0.108
890.80 0.108
890.90 0.1079
891.00 0.1079
891.10 0.1078
891.20 0.1078
891.30 0.1077
891.40 0.1077
891.50 0.1076
891.60 0.1076
891.70 0.1075
891.80 0.1075
891.90 0.1074
892.00 0.1074
892.10 0.1074
892.20 0.1073
892.30 0.1073
892.40 0.1072
892.50 0.1072
892.60 0.1071
892.70 0.1071
892.80 0.107
892.90 0.107
893.00 0.1069
893.10 0.1069
893.20 0.1068
893.30 0.1068
893.40 0.1067
893.50 0.1067
893.60 0.1067
893.70 0.1066
893.80 0.1066
893.90 0.1065
894.00 0.1065
894.10 0.1064
894.20 0.1064
894.30 0.1063
894.40 0.1063
894.50 0.1062
894.60 0.1062
894.70 0.1061
894.80 0.1061
894.90 0.106
895.00 0.106
895.10 0.106
895.20 0.1059
895.30 0.1059
895.40 0.1058
895.50 0.1058
895.60 0.1057
895.70 0.1057
895.80 0.1056
895.90 0.1056
896.00 0.1055
896.10 0.1055
896.20 0.1054
896.30 0.1054
896.40 0.1054
896.50 0.1053
896.60 0.1053
896.70 0.1052
896.80 0.1052
896.90 0.1051
897.00 0.1051
897.10 0.105
897.20 0.105
897.30 0.1049
897.40 0.1049
897.50 0.1049
897.60 0.1048
897.70 0.1048
897.80 0.1047
897.90 0.1047
898.00 0.1046
898.10 0.1046
898.20 0.1045
898.30 0.1045
898.40 0.1044
898.50 0.1044
898.60 0.1044
898.70 0.1043
898.80 0.1043
898.90 0.1042
899.00 0.1042
899.10 0.1041
899.20 0.1041
899.30 0.104
899.40 0.104
899.50 0.1039
899.60 0.1039
899.70 0.1039
899.80 0.1038
899.90 0.1038
900.00 0.1037
900.10 0.1037
900.20 0.1036
900.30 0.1036
900.40 0.1035
900.50 0.1035
900.60 0.1035
900.70 0.1034
900.80 0.1034
900.90 0.1033
901.00 0.1033
901.10 0.1032
901.20 0.1032
901.30 0.1031
901.40 0.1031
901.50 0.103
901.60 0.103
901.70 0.103
901.80 0.1029
901.90 0.1029
902.00 0.1028
902.10 0.1028
902.20 0.1027
902.30 0.1027
902.40 0.1026
902.50 0.1026
902.60 0.1026
902.70 0.1025
902.80 0.1025
902.90 0.1024
903.00 0.1024
903.10 0.1023
903.20 0.1023
903.30 0.1022
903.40 0.1022
903.50 0.1022
903.60 0.1021
903.70 0.1021
903.80 0.102
903.90 0.102
904.00 0.1019
904.10 0.1019
904.20 0.1019
904.30 0.1018
904.40 0.1018
904.50 0.1017
904.60 0.1017
904.70 0.1016
904.80 0.1016
904.90 0.1015
905.00 0.1015
905.10 0.1015
905.20 0.1014
905.30 0.1014
905.40 0.1013
905.50 0.1013
905.60 0.1012
905.70 0.1012
905.80 0.1012
905.90 0.1011
906.00 0.1011
906.10 0.101
906.20 0.101
906.30 0.1009
906.40 0.1009
906.50 0.1008
906.60 0.1008
906.70 0.1008
906.80 0.1007
906.90 0.1007
907.00 0.1006
907.10 0.1006
907.20 0.1005
907.30 0.1005
907.40 0.1005
907.50 0.1004
907.60 0.1004
907.70 0.1003
907.80 0.1003
907.90 0.1002
908.00 0.1002
908.10 0.1002
908.20 0.1001
908.30 0.1001
908.40 0.1
908.50 0.09998
908.60 0.09994
908.70 0.0999
908.80 0.09985
908.90 0.09981
909.00 0.09977
909.10 0.09973
909.20 0.09968
909.30 0.09964
909.40 0.0996
909.50 0.09955
909.60 0.09951
909.70 0.09947
909.80 0.09943
909.90 0.09938
910.00 0.09934
910.10 0.0993
910.20 0.09926
910.30 0.09921
910.40 0.09917
910.50 0.09913
910.60 0.09909
910.70 0.09904
910.80 0.099
910.90 0.09896
911.00 0.09892
911.10 0.09887
911.20 0.09883
911.30 0.09879
911.40 0.09875
911.50 0.0987
911.60 0.09866
911.70 0.09862
911.80 0.09858
911.90 0.09853
912.00 0.09849
912.10 0.09845
912.20 0.09841
912.30 0.09837
912.40 0.09832
912.50 0.09828
912.60 0.09824
912.70 0.0982
912.80 0.09816
912.90 0.09812
913.00 0.09807
913.10 0.09803
913.20 0.09799
913.30 0.09795
913.40 0.09791
913.50 0.09787
913.60 0.09782
913.70 0.09778
913.80 0.09774
913.90 0.0977
914.00 0.09766
914.10 0.09762
914.20 0.09757
914.30 0.09753
914.40 0.09749
914.50 0.09745
914.60 0.09741
914.70 0.09737
914.80 0.09732
914.90 0.09728
915.00 0.09724
915.10 0.0972
915.20 0.09716
915.30 0.09712
915.40 0.09708
915.50 0.09703
915.60 0.09699
915.70 0.09695
915.80 0.09691
915.90 0.09687
916.00 0.09683
916.10 0.09679
916.20 0.09675
916.30 0.0967
916.40 0.09666
916.50 0.09662
916.60 0.09658
916.70 0.09654
916.80 0.0965
916.90 0.09646
917.00 0.09642
917.10 0.09637
917.20 0.09633
917.30 0.09629
917.40 0.09625
917.50 0.09621
917.60 0.09617
917.70 0.09613
917.80 0.09609
917.90 0.09605
918.00 0.09601
918.10 0.09597
918.20 0.09593
918.30 0.09589
918.40 0.09585
918.50 0.09581
918.60 0.09576
918.70 0.09572
918.80 0.09568
918.90 0.09564
919.00 0.0956
919.10 0.09556
919.20 0.09552
919.30 0.09548
919.40 0.09544
919.50 0.0954
919.60 0.09536
919.70 0.09532
919.80 0.09528
919.90 0.09524
920.00 0.0952
920.10 0.09516
920.20 0.09512
920.30 0.09508
920.40 0.09504
920.50 0.095
920.60 0.09496
920.70 0.09492
920.80 0.09488
920.90 0.09484
921.00 0.0948
921.10 0.09476
921.20 0.09472
921.30 0.09468
921.40 0.09464
921.50 0.0946
921.60 0.09456
921.70 0.09452
921.80 0.09448
921.90 0.09444
922.00 0.0944
922.10 0.09436
922.20 0.09432
922.30 0.09428
922.40 0.09424
922.50 0.0942
922.60 0.09416
922.70 0.09412
922.80 0.09408
922.90 0.09404
923.00 0.094
923.10 0.09396
923.20 0.09392
923.30 0.09388
923.40 0.09384
923.50 0.0938
923.60 0.09376
923.70 0.09372
923.80 0.09368
923.90 0.09364
924.00 0.0936
924.10 0.09356
924.20 0.09352
924.30 0.09349
924.40 0.09345
924.50 0.09341
924.60 0.09337
924.70 0.09333
924.80 0.09329
924.90 0.09325
925.00 0.09321
925.10 0.09317
925.20 0.09313
925.30 0.09309
925.40 0.09305
925.50 0.09301
925.60 0.09297
925.70 0.09294
925.80 0.0929
925.90 0.09286
926.00 0.09282
926.10 0.09278
926.20 0.09274
926.30 0.0927
926.40 0.09266
926.50 0.09262
926.60 0.09258
926.70 0.09254
926.80 0.0925
926.90 0.09247
927.00 0.09243
927.10 0.09239
927.20 0.09235
927.30 0.09231
927.40 0.09227
927.50 0.09223
927.60 0.09219
927.70 0.09216
927.80 0.09212
927.90 0.09208
928.00 0.09204
928.10 0.092
928.20 0.09196
928.30 0.09193
928.40 0.09189
928.50 0.09185
928.60 0.09181
928.70 0.09177
928.80 0.09173
928.90 0.09169
929.00 0.09166
929.10 0.09162
929.20 0.09158
929.30 0.09154
929.40 0.0915
929.50 0.09146
929.60 0.09143
929.70 0.09139
929.80 0.09135
929.90 0.09131
930.00 0.09127
930.10 0.09123
930.20 0.0912
930.30 0.09116
930.40 0.09112
930.50 0.09108
930.60 0.09104
930.70 0.09101
930.80 0.09097
930.90 0.09093
931.00 0.09089
931.10 0.09085
931.20 0.09081
931.30 0.09078
931.40 0.09074
931.50 0.0907
931.60 0.09066
931.70 0.09062
931.80 0.09059
931.90 0.09055
932.00 0.09051
932.10 0.09047
932.20 0.09044
932.30 0.0904
932.40 0.09036
932.50 0.09032
932.60 0.09028
932.70 0.09025
932.80 0.09021
932.90 0.09017
933.00 0.09013
933.10 0.0901
933.20 0.09006
933.30 0.09002
933.40 0.08998
933.50 0.08995
933.60 0.08991
933.70 0.08987
933.80 0.08983
933.90 0.0898
934.00 0.08976
934.10 0.08972
934.20 0.08968
934.30 0.08965
934.40 0.08961
934.50 0.08957
934.60 0.08953
934.70 0.0895
934.80 0.08946
934.90 0.08942
935.00 0.08939
935.10 0.08935
935.20 0.08931
935.30 0.08927
935.40 0.08924
935.50 0.0892
935.60 0.08916
935.70 0.08913
935.80 0.08909
935.90 0.08905
936.00 0.08901
936.10 0.08898
936.20 0.08894
936.30 0.0889
936.40 0.08887
936.50 0.08883
936.60 0.08879
936.70 0.08875
936.80 0.08872
936.90 0.08868
937.00 0.08864
937.10 0.08861
937.20 0.08857
937.30 0.08853
937.40 0.0885
937.50 0.08846
937.60 0.08842
937.70 0.08839
937.80 0.08835
937.90 0.08831
938.00 0.08828
938.10 0.08824
938.20 0.0882
938.30 0.08817
938.40 0.08813
938.50 0.08809
938.60 0.08806
938.70 0.08802
938.80 0.08798
938.90 0.08795
939.00 0.08791
939.10 0.08787
939.20 0.08784
939.30 0.0878
939.40 0.08776
939.50 0.08773
939.60 0.08769
939.70 0.08766
939.80 0.08762
939.90 0.08758
940.00 0.08755
940.10 0.08751
940.20 0.08747
940.30 0.08744
940.40 0.0874
940.50 0.08737
940.60 0.08733
940.70 0.08729
940.80 0.08726
940.90 0.08722
941.00 0.08718
941.10 0.08715
941.20 0.08711
941.30 0.08708
941.40 0.08704
941.50 0.087
941.60 0.08697
941.70 0.08693
941.80 0.0869
941.90 0.08686
942.00 0.08682
942.10 0.08679
942.20 0.08675
942.30 0.08672
942.40 0.08668
942.50 0.08664
942.60 0.08661
942.70 0.08657
942.80 0.08654
942.90 0.0865
943.00 0.08647
943.10 0.08643
943.20 0.08639
943.30 0.08636
943.40 0.08632
943.50 0.08629
943.60 0.08625
943.70 0.08622
943.80 0.08618
943.90 0.08614
944.00 0.08611
944.10 0.08607
944.20 0.08604
944.30 0.086
944.40 0.08597
944.50 0.08593
944.60 0.0859
944.70 0.08586
944.80 0.08583
944.90 0.08579
945.00 0.08575
945.10 0.08572
945.20 0.08568
945.30 0.08565
945.40 0.08561
945.50 0.08558
945.60 0.08554
945.70 0.08551
945.80 0.08547
945.90 0.08544
946.00 0.0854
946.10 0.08537
946.20 0.08533
946.30 0.0853
946.40 0.08526
946.50 0.08523
946.60 0.08519
946.70 0.08516
946.80 0.08512
946.90 0.08509
947.00 0.08505
947.10 0.08502
947.20 0.08498
947.30 0.08495
947.40 0.08491
947.50 0.08488
947.60 0.08484
947.70 0.08481
947.80 0.08477
947.90 0.08474
948.00 0.0847
948.10 0.08467
948.20 0.08463
948.30 0.0846
948.40 0.08456
948.50 0.08453
948.60 0.08449
948.70 0.08446
948.80 0.08442
948.90 0.08439
949.00 0.08435
949.10 0.08432
949.20 0.08428
949.30 0.08425
949.40 0.08422
949.50 0.08418
949.60 0.08415
949.70 0.08411
949.80 0.08408
949.90 0.08404
950.00 0.08401
950.10 0.08397
950.20 0.08394
950.30 0.08391
950.40 0.08387
950.50 0.08384
950.60 0.0838
950.70 0.08377
950.80 0.08373
950.90 0.0837
951.00 0.08367
951.10 0.08363
951.20 0.0836
951.30 0.08356
951.40 0.08353
951.50 0.0835
951.60 0.08346
951.70 0.08343
951.80 0.08339
951.90 0.08336
952.00 0.08332
952.10 0.08329
952.20 0.08326
952.30 0.08322
952.40 0.08319
952.50 0.08316
952.60 0.08312
952.70 0.08309
952.80 0.08305
952.90 0.08302
953.00 0.08299
953.10 0.08295
953.20 0.08292
953.30 0.08289
953.40 0.08285
953.50 0.08282
953.60 0.08278
953.70 0.08275
953.80 0.08272
953.90 0.08268
954.00 0.08265
954.10 0.08262
954.20 0.08258
954.30 0.08255
954.40 0.08252
954.50 0.08248
954.60 0.08245
954.70 0.08242
954.80 0.08238
954.90 0.08235
955.00 0.08231
955.10 0.08228
955.20 0.08225
955.30 0.08221
955.40 0.08218
955.50 0.08215
955.60 0.08211
955.70 0.08208
955.80 0.08205
955.90 0.08201
956.00 0.08198
956.10 0.08195
956.20 0.08191
956.30 0.08188
956.40 0.08185
956.50 0.08181
956.60 0.08178
956.70 0.08175
956.80 0.08171
956.90 0.08168
957.00 0.08165
957.10 0.08161
957.20 0.08158
957.30 0.08155
957.40 0.08151
957.50 0.08148
957.60 0.08145
957.70 0.08142
957.80 0.08138
957.90 0.08135
958.00 0.08132
958.10 0.08128
958.20 0.08125
958.30 0.08122
958.40 0.08118
958.50 0.08115
958.60 0.08112
958.70 0.08109
958.80 0.08105
958.90 0.08102
959.00 0.08099
959.10 0.08095
959.20 0.08092
959.30 0.08089
959.40 0.08086
959.50 0.08082
959.60 0.08079
959.70 0.08076
959.80 0.08073
959.90 0.08069
960.00 0.08066
960.10 0.08063
960.20 0.0806
960.30 0.08056
960.40 0.08053
960.50 0.0805
960.60 0.08047
960.70 0.08043
960.80 0.0804
960.90 0.08037
961.00 0.08034
961.10 0.0803
961.20 0.08027
961.30 0.08024
961.40 0.08021
961.50 0.08017
961.60 0.08014
961.70 0.08011
961.80 0.08008
961.90 0.08005
962.00 0.08001
962.10 0.07998
962.20 0.07995
962.30 0.07992
962.40 0.07988
962.50 0.07985
962.60 0.07982
962.70 0.07979
962.80 0.07976
962.90 0.07972
963.00 0.07969
963.10 0.07966
963.20 0.07963
963.30 0.0796
963.40 0.07956
963.50 0.07953
963.60 0.0795
963.70 0.07947
963.80 0.07944
963.90 0.0794
964.00 0.07937
964.10 0.07934
964.20 0.07931
964.30 0.07928
964.40 0.07924
964.50 0.07921
964.60 0.07918
964.70 0.07915
964.80 0.07912
964.90 0.07908
965.00 0.07905
965.10 0.07902
965.20 0.07899
965.30 0.07896
965.40 0.07893
965.50 0.07889
965.60 0.07886
965.70 0.07883
965.80 0.0788
965.90 0.07877
966.00 0.07874
966.10 0.0787
966.20 0.07867
966.30 0.07864
966.40 0.07861
966.50 0.07858
966.60 0.07855
966.70 0.07851
966.80 0.07848
966.90 0.07845
967.00 0.07842
967.10 0.07839
967.20 0.07836
967.30 0.07833
967.40 0.07829
967.50 0.07826
967.60 0.07823
967.70 0.0782
967.80 0.07817
967.90 0.07814
968.00 0.07811
968.10 0.07807
968.20 0.07804
968.30 0.07801
968.40 0.07798
968.50 0.07795
968.60 0.07792
968.70 0.07789
968.80 0.07786
968.90 0.07782
969.00 0.07779
969.10 0.07776
969.20 0.07773
969.30 0.0777
969.40 0.07767
969.50 0.07764
969.60 0.07761
969.70 0.07758
969.80 0.07754
969.90 0.07751
970.00 0.07748
970.10 0.07745
970.20 0.07742
970.30 0.07739
970.40 0.07736
970.50 0.07733
970.60 0.0773
970.70 0.07726
970.80 0.07723
970.90 0.0772
971.00 0.07717
971.10 0.07714
971.20 0.07711
971.30 0.07708
971.40 0.07705
971.50 0.07702
971.60 0.07699
971.70 0.07696
971.80 0.07692
971.90 0.07689
972.00 0.07686
972.10 0.07683
972.20 0.0768
972.30 0.07677
972.40 0.07674
972.50 0.07671
972.60 0.07668
972.70 0.07665
972.80 0.07662
972.90 0.07659
973.00 0.07656
973.10 0.07652
973.20 0.07649
973.30 0.07646
973.40 0.07643
973.50 0.0764
973.60 0.07637
973.70 0.07634
973.80 0.07631
973.90 0.07628
974.00 0.07625
974.10 0.07622
974.20 0.07619
974.30 0.07616
974.40 0.07613
974.50 0.0761
974.60 0.07607
974.70 0.07604
974.80 0.076
974.90 0.07597
975.00 0.07594
975.10 0.07591
975.20 0.07588
975.30 0.07585
975.40 0.07582
975.50 0.07579
975.60 0.07576
975.70 0.07573
975.80 0.0757
975.90 0.07567
976.00 0.07564
976.10 0.07561
976.20 0.07558
976.30 0.07555
976.40 0.07552
976.50 0.07549
976.60 0.07546
976.70 0.07543
976.80 0.0754
976.90 0.07537
977.00 0.07534
977.10 0.07531
977.20 0.07528
977.30 0.07525
977.40 0.07522
977.50 0.07519
977.60 0.07516
977.70 0.07513
977.80 0.0751
977.90 0.07507
978.00 0.07504
978.10 0.07501
978.20 0.07498
978.30 0.07495
978.40 0.07492
978.50 0.07489
978.60 0.07486
978.70 0.07483
978.80 0.0748
978.90 0.07477
979.00 0.07474
979.10 0.07471
979.20 0.07468
979.30 0.07465
979.40 0.07462
979.50 0.07459
979.60 0.07456
979.70 0.07453
979.80 0.0745
979.90 0.07447
980.00 0.07444
980.10 0.07441
980.20 0.07438
980.30 0.07435
980.40 0.07432
980.50 0.07429
980.60 0.07426
980.70 0.07423
980.80 0.0742
980.90 0.07417
981.00 0.07414
981.10 0.07411
981.20 0.07408
981.30 0.07405
981.40 0.07402
981.50 0.07399
981.60 0.07396
981.70 0.07393
981.80 0.0739
981.90 0.07387
982.00 0.07384
982.10 0.07381
982.20 0.07378
982.30 0.07375
982.40 0.07372
982.50 0.07369
982.60 0.07367
982.70 0.07364
982.80 0.07361
982.90 0.07358
983.00 0.07355
983.10 0.07352
983.20 0.07349
983.30 0.07346
983.40 0.07343
983.50 0.0734
983.60 0.07337
983.70 0.07334
983.80 0.07331
983.90 0.07328
984.00 0.07325
984.10 0.07322
984.20 0.07319
984.30 0.07316
984.40 0.07314
984.50 0.07311
984.60 0.07308
984.70 0.07305
984.80 0.07302
984.90 0.07299
985.00 0.07296
985.10 0.07293
985.20 0.0729
985.30 0.07287
985.40 0.07284
985.50 0.07281
985.60 0.07278
985.70 0.07276
985.80 0.07273
985.90 0.0727
986.00 0.07267
986.10 0.07264
986.20 0.07261
986.30 0.07258
986.40 0.07255
986.50 0.07252
986.60 0.07249
986.70 0.07246
986.80 0.07243
986.90 0.07241
987.00 0.07238
987.10 0.07235
987.20 0.07232
987.30 0.07229
987.40 0.07226
987.50 0.07223
987.60 0.0722
987.70 0.07217
987.80 0.07214
987.90 0.07212
988.00 0.07209
988.10 0.07206
988.20 0.07203
988.30 0.072
988.40 0.07197
988.50 0.07194
988.60 0.07191
988.70 0.07188
988.80 0.07186
988.90 0.07183
989.00 0.0718
989.10 0.07177
989.20 0.07174
989.30 0.07171
989.40 0.07168
989.50 0.07165
989.60 0.07163
989.70 0.0716
989.80 0.07157
989.90 0.07154
990.00 0.07151
990.10 0.07148
990.20 0.07145
990.30 0.07143
990.40 0.0714
990.50 0.07137
990.60 0.07134
990.70 0.07131
990.80 0.07128
990.90 0.07125
991.00 0.07122
991.10 0.0712
991.20 0.07117
991.30 0.07114
991.40 0.07111
991.50 0.07108
991.60 0.07105
991.70 0.07103
991.80 0.071
991.90 0.07097
992.00 0.07094
992.10 0.07091
992.20 0.07088
992.30 0.07085
992.40 0.07083
992.50 0.0708
992.60 0.07077
992.70 0.07074
992.80 0.07071
992.90 0.07068
993.00 0.07066
993.10 0.07063
993.20 0.0706
993.30 0.07057
993.40 0.07054
993.50 0.07051
993.60 0.07049
993.70 0.07046
993.80 0.07043
993.90 0.0704
994.00 0.07037
994.10 0.07035
994.20 0.07032
994.30 0.07029
994.40 0.07026
994.50 0.07023
994.60 0.07021
994.70 0.07018
994.80 0.07015
994.90 0.07012
995.00 0.07009
995.10 0.07006
995.20 0.07004
995.30 0.07001
995.40 0.06998
995.50 0.06995
995.60 0.06992
995.70 0.0699
995.80 0.06987
995.90 0.06984
996.00 0.06981
996.10 0.06979
996.20 0.06976
996.30 0.06973
996.40 0.0697
996.50 0.06967
996.60 0.06965
996.70 0.06962
996.80 0.06959
996.90 0.06956
997.00 0.06954
997.10 0.06951
997.20 0.06948
997.30 0.06945
997.40 0.06943
997.50 0.0694
997.60 0.06937
997.70 0.06934
997.80 0.06931
997.90 0.06929
998.00 0.06926
998.10 0.06923
998.20 0.06921
998.30 0.06918
998.40 0.06915
998.50 0.06912
998.60 0.0691
998.70 0.06907
998.80 0.06904
998.90 0.06901
999.00 0.06899
999.10 0.06896
999.20 0.06893
999.30 0.0689
999.40 0.06888
999.50 0.06885
999.60 0.06882
999.70 0.06879
999.80 0.06877
999.90 0.06874
1000.00 0.06871
1000.10 0.06868
1000.20 0.06865
1000.30 0.06862
1000.40 0.06859
1000.50 0.06856
1000.60 0.06854
1000.70 0.06851
1000.80 0.06848
1000.90 0.06845
1001.00 0.06842
1001.10 0.06839
1001.20 0.06836
1001.30 0.06834
1001.40 0.06831
1001.50 0.06828
1001.60 0.06825
1001.70 0.06822
1001.80 0.0682
1001.90 0.06817
1002.00 0.06814
1002.10 0.06812
1002.20 0.06809
1002.30 0.06807
1002.40 0.06804
1002.50 0.06801
1002.60 0.06799
1002.70 0.06796
1002.80 0.06794
1002.90 0.06791
1003.00 0.06788
1003.10 0.06786
1003.20 0.06783
1003.30 0.06781
1003.40 0.06778
1003.50 0.06775
1003.60 0.06773
1003.70 0.0677
1003.80 0.06768
1003.90 0.06765
1004.00 0.06763
1004.10 0.0676
1004.20 0.06758
1004.30 0.06755
1004.40 0.06753
1004.50 0.0675
1004.60 0.06747
1004.70 0.06745
1004.80 0.06742
1004.90 0.0674
1005.00 0.06737
1005.10 0.06734
1005.20 0.06732
1005.30 0.06729
1005.40 0.06727
1005.50 0.06724
1005.60 0.06721
1005.70 0.06719
1005.80 0.06716
1005.90 0.06713
1006.00 0.06711
1006.10 0.06708
1006.20 0.06705
1006.30 0.06703
1006.40 0.067
1006.50 0.06698
1006.60 0.06695
1006.70 0.06692
1006.80 0.0669
1006.90 0.06687
1007.00 0.06684
1007.10 0.06682
1007.20 0.06679
1007.30 0.06677
1007.40 0.06674
1007.50 0.06672
1007.60 0.06669
1007.70 0.06666
1007.80 0.06664
1007.90 0.06661
1008.00 0.06659
1008.10 0.06656
1008.20 0.06654
1008.30 0.06651
1008.40 0.06649
1008.50 0.06646
1008.60 0.06644
1008.70 0.06641
1008.80 0.06638
1008.90 0.06636
1009.00 0.06633
1009.10 0.06631
1009.20 0.06628
1009.30 0.06626
1009.40 0.06623
1009.50 0.06621
1009.60 0.06618
1009.70 0.06616
1009.80 0.06613
1009.90 0.06611
1010.00 0.06608
1010.10 0.06606
1010.20 0.06603
1010.30 0.06601
1010.40 0.06598
1010.50 0.06596
1010.60 0.06593
1010.70 0.06591
1010.80 0.06588
1010.90 0.06586
1011.00 0.06583
1011.10 0.06581
1011.20 0.06578
1011.30 0.06576
1011.40 0.06574
1011.50 0.06571
1011.60 0.06569
1011.70 0.06566
1011.80 0.06564
1011.90 0.06561
1012.00 0.06559
1012.10 0.06556
1012.20 0.06554
1012.30 0.06551
1012.40 0.06549
1012.50 0.06547
1012.60 0.06544
1012.70 0.06542
1012.80 0.06539
1012.90 0.06537
1013.00 0.06534
1013.10 0.06532
1013.20 0.06529
1013.30 0.06527
1013.40 0.06525
1013.50 0.06522
1013.60 0.0652
1013.70 0.06517
1013.80 0.06515
1013.90 0.06512
1014.00 0.0651
1014.10 0.06508
1014.20 0.06505
1014.30 0.06503
1014.40 0.065
1014.50 0.06498
1014.60 0.06495
1014.70 0.06493
1014.80 0.06491
1014.90 0.06488
1015.00 0.06486
1015.10 0.06483
1015.20 0.06481
1015.30 0.06479
1015.40 0.06476
1015.50 0.06474
1015.60 0.06471
1015.70 0.06469
1015.80 0.06467
1015.90 0.06464
1016.00 0.06462
1016.10 0.06459
1016.20 0.06457
1016.30 0.06455
1016.40 0.06452
1016.50 0.0645
1016.60 0.06447
1016.70 0.06445
1016.80 0.06443
1016.90 0.0644
1017.00 0.06438
1017.10 0.06435
1017.20 0.06433
1017.30 0.06431
1017.40 0.06428
1017.50 0.06426
1017.60 0.06424
1017.70 0.06421
1017.80 0.06419
1017.90 0.06416
1018.00 0.06414
1018.10 0.06412
1018.20 0.06409
1018.30 0.06407
1018.40 0.06404
1018.50 0.06402
1018.60 0.064
1018.70 0.06397
1018.80 0.06395
1018.90 0.06393
1019.00 0.0639
1019.10 0.06388
1019.20 0.06385
1019.30 0.06383
1019.40 0.06381
1019.50 0.06378
1019.60 0.06376
1019.70 0.06374
1019.80 0.06371
1019.90 0.06369
1020.00 0.06367
1020.10 0.06364
1020.20 0.06362
1020.30 0.06359
1020.40 0.06357
1020.50 0.06355
1020.60 0.06352
1020.70 0.0635
1020.80 0.06348
1020.90 0.06345
1021.00 0.06343
1021.10 0.06341
1021.20 0.06338
1021.30 0.06336
1021.40 0.06334
1021.50 0.06331
1021.60 0.06329
1021.70 0.06326
1021.80 0.06324
1021.90 0.06322
1022.00 0.06319
1022.10 0.06317
1022.20 0.06315
1022.30 0.06312
1022.40 0.0631
1022.50 0.06308
1022.60 0.06305
1022.70 0.06303
1022.80 0.06301
1022.90 0.06298
1023.00 0.06296
1023.10 0.06294
1023.20 0.06291
1023.30 0.06289
1023.40 0.06287
1023.50 0.06284
1023.60 0.06282
1023.70 0.0628
1023.80 0.06277
1023.90 0.06275
1024.00 0.06273
1024.10 0.0627
1024.20 0.06268
1024.30 0.06266
1024.40 0.06263
1024.50 0.06261
1024.60 0.06259
1024.70 0.06256
1024.80 0.06254
1024.90 0.06252
1025.00 0.06249
1025.10 0.06247
1025.20 0.06245
1025.30 0.06242
1025.40 0.0624
1025.50 0.06238
1025.60 0.06235
1025.70 0.06233
1025.80 0.06231
1025.90 0.06229
1026.00 0.06226
1026.10 0.06224
1026.20 0.06222
1026.30 0.06219
1026.40 0.06217
1026.50 0.06215
1026.60 0.06212
1026.70 0.0621
1026.80 0.06208
1026.90 0.06205
1027.00 0.06203
1027.10 0.06201
1027.20 0.06198
1027.30 0.06196
1027.40 0.06194
1027.50 0.06192
1027.60 0.06189
1027.70 0.06187
1027.80 0.06185
1027.90 0.06182
1028.00 0.0618
1028.10 0.06178
1028.20 0.06175
1028.30 0.06173
1028.40 0.06171
1028.50 0.06169
1028.60 0.06166
1028.70 0.06164
1028.80 0.06162
1028.90 0.06159
1029.00 0.06157
1029.10 0.06155
1029.20 0.06152
1029.30 0.0615
1029.40 0.06148
1029.50 0.06146
1029.60 0.06143
1029.70 0.06141
1029.80 0.06139
1029.90 0.06136
1030.00 0.06134
1030.10 0.06132
1030.20 0.0613
1030.30 0.06127
1030.40 0.06125
1030.50 0.06123
1030.60 0.0612
1030.70 0.06118
1030.80 0.06116
1030.90 0.06114
1031.00 0.06111
1031.10 0.06109
1031.20 0.06107
1031.30 0.06105
1031.40 0.06102
1031.50 0.061
1031.60 0.06098
1031.70 0.06095
1031.80 0.06093
1031.90 0.06091
1032.00 0.06089
1032.10 0.06086
1032.20 0.06084
1032.30 0.06082
1032.40 0.0608
1032.50 0.06077
1032.60 0.06075
1032.70 0.06073
1032.80 0.0607
1032.90 0.06068
1033.00 0.06066
1033.10 0.06064
1033.20 0.06061
1033.30 0.06059
1033.40 0.06057
1033.50 0.06055
1033.60 0.06052
1033.70 0.0605
1033.80 0.06048
1033.90 0.06046
1034.00 0.06043
1034.10 0.06041
1034.20 0.06039
1034.30 0.06037
1034.40 0.06034
1034.50 0.06032
1034.60 0.0603
1034.70 0.06028
1034.80 0.06025
1034.90 0.06023
1035.00 0.06021
1035.10 0.06019
1035.20 0.06016
1035.30 0.06014
1035.40 0.06012
1035.50 0.0601
1035.60 0.06007
1035.70 0.06005
1035.80 0.06003
1035.90 0.06001
1036.00 0.05998
1036.10 0.05996
1036.20 0.05994
1036.30 0.05992
1036.40 0.05989
1036.50 0.05987
1036.60 0.05985
1036.70 0.05983
1036.80 0.0598
1036.90 0.05978
1037.00 0.05976
1037.10 0.05974
1037.20 0.05972
1037.30 0.05969
1037.40 0.05967
1037.50 0.05965
1037.60 0.05963
1037.70 0.0596
1037.80 0.05958
1037.90 0.05956
1038.00 0.05954
1038.10 0.05951
1038.20 0.05949
1038.30 0.05947
1038.40 0.05945
1038.50 0.05943
1038.60 0.0594
1038.70 0.05938
1038.80 0.05936
1038.90 0.05934
1039.00 0.05931
1039.10 0.05929
1039.20 0.05927
1039.30 0.05925
1039.40 0.05923
1039.50 0.0592
1039.60 0.05918
1039.70 0.05916
1039.80 0.05914
1039.90 0.05912
1040.00 0.05909
1040.10 0.05907
1040.20 0.05905
1040.30 0.05903
1040.40 0.059
1040.50 0.05898
1040.60 0.05896
1040.70 0.05894
1040.80 0.05892
1040.90 0.05889
1041.00 0.05887
1041.10 0.05885
1041.20 0.05883
1041.30 0.05881
1041.40 0.05878
1041.50 0.05876
1041.60 0.05874
1041.70 0.05872
1041.80 0.0587
1041.90 0.05867
1042.00 0.05865
1042.10 0.05863
1042.20 0.05861
1042.30 0.05859
1042.40 0.05856
1042.50 0.05854
1042.60 0.05852
1042.70 0.0585
1042.80 0.05848
1042.90 0.05845
1043.00 0.05843
1043.10 0.05841
1043.20 0.05839
1043.30 0.05837
1043.40 0.05835
1043.50 0.05832
1043.60 0.0583
1043.70 0.05828
1043.80 0.05826
1043.90 0.05824
1044.00 0.05821
1044.10 0.05819
1044.20 0.05817
1044.30 0.05815
1044.40 0.05813
1044.50 0.05811
1044.60 0.05808
1044.70 0.05806
1044.80 0.05804
1044.90 0.05802
1045.00 0.058
1045.10 0.05797
1045.20 0.05795
1045.30 0.05793
1045.40 0.05791
1045.50 0.05789
1045.60 0.05787
1045.70 0.05784
1045.80 0.05782
1045.90 0.0578
1046.00 0.05778
1046.10 0.05776
1046.20 0.05774
1046.30 0.05771
1046.40 0.05769
1046.50 0.05767
1046.60 0.05765
1046.70 0.05763
1046.80 0.05761
1046.90 0.05758
1047.00 0.05756
1047.10 0.05754
1047.20 0.05752
1047.30 0.0575
1047.40 0.05748
1047.50 0.05745
1047.60 0.05743
1047.70 0.05741
1047.80 0.05739
1047.90 0.05737
1048.00 0.05735
1048.10 0.05732
1048.20 0.0573
1048.30 0.05728
1048.40 0.05726
1048.50 0.05724
1048.60 0.05722
1048.70 0.0572
1048.80 0.05717
1048.90 0.05715
1049.00 0.05713
1049.10 0.05711
1049.20 0.05709
1049.30 0.05707
1049.40 0.05705
1049.50 0.05702
1049.60 0.057
1049.70 0.05698
1049.80 0.05696
1049.90 0.05694
1050.00 0.05692
1050.10 0.0569
1050.20 0.05687
1050.30 0.05685
1050.40 0.05683
1050.50 0.05681
1050.60 0.05679
1050.70 0.05677
1050.80 0.05675
1050.90 0.05672
1051.00 0.0567
1051.10 0.05668
1051.20 0.05666
1051.30 0.05664
1051.40 0.05662
1051.50 0.0566
1051.60 0.05657
1051.70 0.05655
1051.80 0.05653
1051.90 0.05651
1052.00 0.05649
1052.10 0.05647
1052.20 0.05645
1052.30 0.05643
1052.40 0.0564
1052.50 0.05638
1052.60 0.05636
1052.70 0.05634
1052.80 0.05632
1052.90 0.0563
1053.00 0.05628
1053.10 0.05626
1053.20 0.05623
1053.30 0.05621
1053.40 0.05619
1053.50 0.05617
1053.60 0.05615
1053.70 0.05613
1053.80 0.05611
1053.90 0.05609
1054.00 0.05606
1054.10 0.05604
1054.20 0.05602
1054.30 0.056
1054.40 0.05598
1054.50 0.05596
1054.60 0.05594
1054.70 0.05592
1054.80 0.0559
1054.90 0.05587
1055.00 0.05585
1055.10 0.05583
1055.20 0.05581
1055.30 0.05579
1055.40 0.05577
1055.50 0.05575
1055.60 0.05573
1055.70 0.05571
1055.80 0.05569
1055.90 0.05566
1056.00 0.05564
1056.10 0.05562
1056.20 0.0556
1056.30 0.05558
1056.40 0.05556
1056.50 0.05554
1056.60 0.05552
1056.70 0.0555
1056.80 0.05548
1056.90 0.05545
1057.00 0.05543
1057.10 0.05541
1057.20 0.05539
1057.30 0.05537
1057.40 0.05535
1057.50 0.05533
1057.60 0.05531
1057.70 0.05529
1057.80 0.05527
1057.90 0.05524
1058.00 0.05522
1058.10 0.0552
1058.20 0.05518
1058.30 0.05516
1058.40 0.05514
1058.50 0.05512
1058.60 0.0551
1058.70 0.05508
1058.80 0.05506
1058.90 0.05504
1059.00 0.05501
1059.10 0.05499
1059.20 0.05497
1059.30 0.05495
1059.40 0.05493
1059.50 0.05491
1059.60 0.05489
1059.70 0.05487
1059.80 0.05485
1059.90 0.05483
1060.00 0.05481
1060.10 0.05478
1060.20 0.05476
1060.30 0.05474
1060.40 0.05472
1060.50 0.0547
1060.60 0.05468
1060.70 0.05466
1060.80 0.05464
1060.90 0.05462
1061.00 0.0546
1061.10 0.05458
1061.20 0.05456
1061.30 0.05454
1061.40 0.05452
1061.50 0.05449
1061.60 0.05447
1061.70 0.05445
1061.80 0.05443
1061.90 0.05441
1062.00 0.05439
1062.10 0.05437
1062.20 0.05435
1062.30 0.05433
1062.40 0.05431
1062.50 0.05429
1062.60 0.05427
1062.70 0.05425
1062.80 0.05423
1062.90 0.0542
1063.00 0.05418
1063.10 0.05416
1063.20 0.05414
1063.30 0.05412
1063.40 0.0541
1063.50 0.05408
1063.60 0.05406
1063.70 0.05404
1063.80 0.05402
1063.90 0.054
1064.00 0.05398
1064.10 0.05396
1064.20 0.05394
1064.30 0.05392
1064.40 0.05389
1064.50 0.05387
1064.60 0.05385
1064.70 0.05383
1064.80 0.05381
1064.90 0.05379
1065.00 0.05377
1065.10 0.05375
1065.20 0.05373
1065.30 0.05371
1065.40 0.05369
1065.50 0.05367
1065.60 0.05365
1065.70 0.05363
1065.80 0.05361
1065.90 0.05359
1066.00 0.05357
1066.10 0.05355
1066.20 0.05353
1066.30 0.0535
1066.40 0.05348
1066.50 0.05346
1066.60 0.05344
1066.70 0.05342
1066.80 0.0534
1066.90 0.05338
1067.00 0.05336
1067.10 0.05334
1067.20 0.05332
1067.30 0.0533
1067.40 0.05328
1067.50 0.05326
1067.60 0.05324
1067.70 0.05322
1067.80 0.0532
1067.90 0.05318
1068.00 0.05316
1068.10 0.05314
1068.20 0.05312
1068.30 0.0531
1068.40 0.05307
1068.50 0.05305
1068.60 0.05303
1068.70 0.05301
1068.80 0.05299
1068.90 0.05297
1069.00 0.05295
1069.10 0.05293
1069.20 0.05291
1069.30 0.05289
1069.40 0.05287
1069.50 0.05285
1069.60 0.05283
1069.70 0.05281
1069.80 0.05279
1069.90 0.05277
1070.00 0.05275
1070.10 0.05273
1070.20 0.05271
1070.30 0.05269
1070.40 0.05267
1070.50 0.05265
1070.60 0.05263
1070.70 0.05261
1070.80 0.05259
1070.90 0.05257
1071.00 0.05255
1071.10 0.05253
1071.20 0.0525
1071.30 0.05248
1071.40 0.05246
1071.50 0.05244
1071.60 0.05242
1071.70 0.0524
1071.80 0.05238
1071.90 0.05236
1072.00 0.05234
1072.10 0.05232
1072.20 0.0523
1072.30 0.05228
1072.40 0.05226
1072.50 0.05224
1072.60 0.05222
1072.70 0.0522
1072.80 0.05218
1072.90 0.05216
1073.00 0.05214
1073.10 0.05212
1073.20 0.0521
1073.30 0.05208
1073.40 0.05206
1073.50 0.05204
1073.60 0.05202
1073.70 0.052
1073.80 0.05198
1073.90 0.05196
1074.00 0.05194
1074.10 0.05192
1074.20 0.0519
1074.30 0.05188
1074.40 0.05186
1074.50 0.05184
1074.60 0.05182
1074.70 0.0518
1074.80 0.05178
1074.90 0.05176
1075.00 0.05174
1075.10 0.05172
1075.20 0.0517
1075.30 0.05168
1075.40 0.05166
1075.50 0.05164
1075.60 0.05161
1075.70 0.05159
1075.80 0.05157
1075.90 0.05155
1076.00 0.05153
1076.10 0.05151
1076.20 0.05149
1076.30 0.05147
1076.40 0.05145
1076.50 0.05143
1076.60 0.05141
1076.70 0.05139
1076.80 0.05137
1076.90 0.05135
1077.00 0.05133
1077.10 0.05131
1077.20 0.05129
1077.30 0.05127
1077.40 0.05125
1077.50 0.05123
1077.60 0.05121
1077.70 0.05119
1077.80 0.05117
1077.90 0.05115
1078.00 0.05113
1078.10 0.05111
1078.20 0.05109
1078.30 0.05107
1078.40 0.05105
1078.50 0.05103
1078.60 0.05101
1078.70 0.05099
1078.80 0.05097
1078.90 0.05095
1079.00 0.05093
1079.10 0.05091
1079.20 0.05089
1079.30 0.05087
1079.40 0.05085
1079.50 0.05083
1079.60 0.05081
1079.70 0.05079
1079.80 0.05077
1079.90 0.05075
1080.00 0.05073
1080.10 0.05071
1080.20 0.05069
1080.30 0.05067
1080.40 0.05065
1080.50 0.05063
1080.60 0.05061
1080.70 0.05059
1080.80 0.05057
1080.90 0.05055
1081.00 0.05053
1081.10 0.05051
1081.20 0.05049
1081.30 0.05047
1081.40 0.05045
1081.50 0.05043
1081.60 0.05041
1081.70 0.05039
1081.80 0.05037
1081.90 0.05035
1082.00 0.05033
1082.10 0.05031
1082.20 0.05029
1082.30 0.05027
1082.40 0.05025
1082.50 0.05023
1082.60 0.05021
1082.70 0.05019
1082.80 0.05017
1082.90 0.05015
1083.00 0.05013
1083.10 0.05011
1083.20 0.05009
1083.30 0.05007
1083.40 0.05006
1083.50 0.05004
1083.60 0.05002
1083.70 0.05
1083.80 0.04998
1083.90 0.04996
1084.00 0.04994
1084.10 0.04992
1084.20 0.0499
1084.30 0.04988
1084.40 0.04986
1084.50 0.04984
1084.60 0.04982
1084.70 0.0498
1084.80 0.04978
1084.90 0.04976
1085.00 0.04974
1085.10 0.04972
1085.20 0.0497
1085.30 0.04968
1085.40 0.04966
1085.50 0.04964
1085.60 0.04962
1085.70 0.0496
1085.80 0.04958
1085.90 0.04956
1086.00 0.04954
1086.10 0.04952
1086.20 0.0495
1086.30 0.04948
1086.40 0.04946
1086.50 0.04944
1086.60 0.04942
1086.70 0.0494
1086.80 0.04938
1086.90 0.04936
1087.00 0.04934
1087.10 0.04932
1087.20 0.0493
1087.30 0.04928
1087.40 0.04926
1087.50 0.04925
1087.60 0.04923
1087.70 0.04921
1087.80 0.04919
1087.90 0.04917
1088.00 0.04915
1088.10 0.04913
1088.20 0.04911
1088.30 0.04909
1088.40 0.04907
1088.50 0.04905
1088.60 0.04903
1088.70 0.04901
1088.80 0.04899
1088.90 0.04897
1089.00 0.04895
1089.10 0.04893
1089.20 0.04891
1089.30 0.04889
1089.40 0.04887
1089.50 0.04885
1089.60 0.04883
1089.70 0.04881
1089.80 0.04879
1089.90 0.04877
1090.00 0.04875
1090.10 0.04874
1090.20 0.04872
1090.30 0.0487
1090.40 0.04868
1090.50 0.04866
1090.60 0.04864
1090.70 0.04862
1090.80 0.0486
1090.90 0.04858
1091.00 0.04856
1091.10 0.04854
1091.20 0.04852
1091.30 0.0485
1091.40 0.04848
1091.50 0.04846
1091.60 0.04844
1091.70 0.04842
1091.80 0.0484
1091.90 0.04838
1092.00 0.04836
1092.10 0.04834
1092.20 0.04832
1092.30 0.0483
1092.40 0.04829
1092.50 0.04827
1092.60 0.04825
1092.70 0.04823
1092.80 0.04821
1092.90 0.04819
1093.00 0.04817
1093.10 0.04815
1093.20 0.04813
1093.30 0.04812
1093.40 0.0481
1093.50 0.04808
1093.60 0.04807
1093.70 0.04805
1093.80 0.04804
1093.90 0.04802
1094.00 0.04801
1094.10 0.048
1094.20 0.04798
1094.30 0.04797
1094.40 0.04795
1094.50 0.04794
1094.60 0.04792
1094.70 0.04791
1094.80 0.04789
1094.90 0.04788
1095.00 0.04786
1095.10 0.04785
1095.20 0.04783
1095.30 0.04782
1095.40 0.0478
1095.50 0.04779
1095.60 0.04777
1095.70 0.04776
1095.80 0.04775
1095.90 0.04773
1096.00 0.04772
1096.10 0.0477
1096.20 0.04769
1096.30 0.04767
1096.40 0.04766
1096.50 0.04764
1096.60 0.04763
1096.70 0.04762
1096.80 0.0476
1096.90 0.04759
1097.00 0.04757
1097.10 0.04756
1097.20 0.04754
1097.30 0.04753
1097.40 0.04751
1097.50 0.0475
1097.60 0.04748
1097.70 0.04747
1097.80 0.04746
1097.90 0.04744
1098.00 0.04743
1098.10 0.04741
1098.20 0.0474
1098.30 0.04738
1098.40 0.04737
1098.50 0.04735
1098.60 0.04734
1098.70 0.04732
1098.80 0.04731
1098.90 0.0473
1099.00 0.04728
1099.10 0.04727
1099.20 0.04725
1099.30 0.04724
1099.40 0.04722
1099.50 0.04721
1099.60 0.04719
1099.70 0.04718
1099.80 0.04716
1099.90 0.04715
1100.00 0.04713
1100.10 0.04712
1100.20 0.0471
1100.30 0.04709
1100.40 0.04708
1100.50 0.04706
1100.60 0.04705
1100.70 0.04703
1100.80 0.04702
1100.90 0.047
1101.00 0.04699
1101.10 0.04697
1101.20 0.04696
1101.30 0.04694
1101.40 0.04693
1101.50 0.04691
1101.60 0.0469
1101.70 0.04689
1101.80 0.04687
1101.90 0.04686
1102.00 0.04684
1102.10 0.04683
1102.20 0.04681
1102.30 0.0468
1102.40 0.04678
1102.50 0.04677
1102.60 0.04675
1102.70 0.04674
1102.80 0.04672
1102.90 0.04671
1103.00 0.0467
1103.10 0.04668
1103.20 0.04667
1103.30 0.04665
1103.40 0.04664
1103.50 0.04662
1103.60 0.04661
1103.70 0.04659
1103.80 0.04658
1103.90 0.04656
1104.00 0.04655
1104.10 0.04653
1104.20 0.04652
1104.30 0.04651
1104.40 0.04649
1104.50 0.04648
1104.60 0.04646
1104.70 0.04645
1104.80 0.04643
1104.90 0.04642
1105.00 0.0464
1105.10 0.04639
1105.20 0.04637
1105.30 0.04636
1105.40 0.04634
1105.50 0.04633
1105.60 0.04632
1105.70 0.0463
1105.80 0.04629
1105.90 0.04627
1106.00 0.04626
1106.10 0.04624
1106.20 0.04623
1106.30 0.04621
1106.40 0.0462
1106.50 0.04618
1106.60 0.04617
1106.70 0.04615
1106.80 0.04614
1106.90 0.04612
1107.00 0.04611
1107.10 0.0461
1107.20 0.04608
1107.30 0.04607
1107.40 0.04605
1107.50 0.04604
1107.60 0.04602
1107.70 0.04601
1107.80 0.04599
1107.90 0.04598
1108.00 0.04596
1108.10 0.04595
1108.20 0.04593
1108.30 0.04592
1108.40 0.04591
1108.50 0.04589
1108.60 0.04588
1108.70 0.04586
1108.80 0.04585
1108.90 0.04583
1109.00 0.04582
1109.10 0.0458
1109.20 0.04579
1109.30 0.04577
1109.40 0.04576
1109.50 0.04574
1109.60 0.04573
1109.70 0.04572
1109.80 0.0457
1109.90 0.04569
1110.00 0.04567
1110.10 0.04566
1110.20 0.04564
1110.30 0.04563
1110.40 0.04561
1110.50 0.0456
1110.60 0.04558
1110.70 0.04557
1110.80 0.04555
1110.90 0.04554
1111.00 0.04552
1111.10 0.04551
1111.20 0.0455
1111.30 0.04548
1111.40 0.04547
1111.50 0.04545
1111.60 0.04544
1111.70 0.04542
1111.80 0.04541
1111.90 0.04539
1112.00 0.04538
1112.10 0.04536
1112.20 0.04535
1112.30 0.04534
1112.40 0.04532
1112.50 0.04531
1112.60 0.04529
1112.70 0.04528
1112.80 0.04526
1112.90 0.04525
1113.00 0.04523
1113.10 0.04522
1113.20 0.0452
1113.30 0.04519
1113.40 0.04517
1113.50 0.04516
1113.60 0.04514
1113.70 0.04513
1113.80 0.04512
1113.90 0.0451
1114.00 0.04509
1114.10 0.04507
1114.20 0.04506
1114.30 0.04504
1114.40 0.04503
1114.50 0.04501
1114.60 0.045
1114.70 0.04498
1114.80 0.04497
1114.90 0.04495
1115.00 0.04494
1115.10 0.04492
1115.20 0.04491
1115.30 0.0449
1115.40 0.04488
1115.50 0.04487
1115.60 0.04485
1115.70 0.04484
1115.80 0.04482
1115.90 0.04481
1116.00 0.04479
1116.10 0.04478
1116.20 0.04476
1116.30 0.04475
1116.40 0.04473
1116.50 0.04472
1116.60 0.04471
1116.70 0.04469
1116.80 0.04468
1116.90 0.04466
1117.00 0.04465
1117.10 0.04463
1117.20 0.04462
1117.30 0.0446
1117.40 0.04459
1117.50 0.04457
1117.60 0.04456
1117.70 0.04454
1117.80 0.04453
1117.90 0.04452
1118.00 0.0445
1118.10 0.04449
1118.20 0.04447
1118.30 0.04446
1118.40 0.04444
1118.50 0.04443
1118.60 0.04441
1118.70 0.0444
1118.80 0.04438
1118.90 0.04437
1119.00 0.04435
1119.10 0.04434
1119.20 0.04433
1119.30 0.04431
1119.40 0.0443
1119.50 0.04428
1119.60 0.04427
1119.70 0.04425
1119.80 0.04424
1119.90 0.04422
1120.00 0.04421
1120.10 0.04419
1120.20 0.04418
1120.30 0.04417
1120.40 0.04415
1120.50 0.04414
1120.60 0.04412
1120.70 0.04411
1120.80 0.04409
1120.90 0.04408
1121.00 0.04406
1121.10 0.04405
1121.20 0.04403
1121.30 0.04402
1121.40 0.04401
1121.50 0.04399
1121.60 0.04398
1121.70 0.04396
1121.80 0.04395
1121.90 0.04393
1122.00 0.04392
1122.10 0.0439
1122.20 0.04389
1122.30 0.04387
1122.40 0.04386
1122.50 0.04385
1122.60 0.04383
1122.70 0.04382
1122.80 0.0438
1122.90 0.04379
1123.00 0.04377
1123.10 0.04376
1123.20 0.04374
1123.30 0.04373
1123.40 0.04371
1123.50 0.0437
1123.60 0.04369
1123.70 0.04367
1123.80 0.04366
1123.90 0.04364
1124.00 0.04363
1124.10 0.04361
1124.20 0.0436
1124.30 0.04358
1124.40 0.04357
1124.50 0.04355
1124.60 0.04354
1124.70 0.04353
1124.80 0.04351
1124.90 0.0435
1125.00 0.04348
1125.10 0.04347
1125.20 0.04345
1125.30 0.04344
1125.40 0.04342
1125.50 0.04341
1125.60 0.0434
1125.70 0.04338
1125.80 0.04337
1125.90 0.04335
1126.00 0.04334
1126.10 0.04332
1126.20 0.04331
1126.30 0.04329
1126.40 0.04328
1126.50 0.04327
1126.60 0.04325
1126.70 0.04324
1126.80 0.04322
1126.90 0.04321
1127.00 0.04319
1127.10 0.04318
1127.20 0.04316
1127.30 0.04315
1127.40 0.04314
1127.50 0.04312
1127.60 0.04311
1127.70 0.04309
1127.80 0.04308
1127.90 0.04306
1128.00 0.04305
1128.10 0.04303
1128.20 0.04302
1128.30 0.04301
1128.40 0.04299
1128.50 0.04298
1128.60 0.04296
1128.70 0.04295
1128.80 0.04293
1128.90 0.04292
1129.00 0.04291
1129.10 0.04289
1129.20 0.04288
1129.30 0.04286
1129.40 0.04285
1129.50 0.04283
1129.60 0.04282
1129.70 0.0428
1129.80 0.04279
1129.90 0.04278
1130.00 0.04276
1130.10 0.04275
1130.20 0.04273
1130.30 0.04272
1130.40 0.0427
1130.50 0.04269
1130.60 0.04268
1130.70 0.04266
1130.80 0.04265
1130.90 0.04263
1131.00 0.04262
1131.10 0.0426
1131.20 0.04259
1131.30 0.04258
1131.40 0.04256
1131.50 0.04255
1131.60 0.04253
1131.70 0.04252
1131.80 0.0425
1131.90 0.04249
1132.00 0.04248
1132.10 0.04246
1132.20 0.04245
1132.30 0.04243
1132.40 0.04242
1132.50 0.0424
1132.60 0.04239
1132.70 0.04238
1132.80 0.04236
1132.90 0.04235
1133.00 0.04233
1133.10 0.04232
1133.20 0.0423
1133.30 0.04229
1133.40 0.04228
1133.50 0.04226
1133.60 0.04225
1133.70 0.04223
1133.80 0.04222
1133.90 0.04221
1134.00 0.04219
1134.10 0.04218
1134.20 0.04216
1134.30 0.04215
1134.40 0.04213
1134.50 0.04212
1134.60 0.04211
1134.70 0.04209
1134.80 0.04208
1134.90 0.04206
1135.00 0.04205
1135.10 0.04204
1135.20 0.04202
1135.30 0.04201
1135.40 0.04199
1135.50 0.04198
1135.60 0.04196
1135.70 0.04195
1135.80 0.04194
1135.90 0.04192
1136.00 0.04191
1136.10 0.04189
1136.20 0.04188
1136.30 0.04187
1136.40 0.04185
1136.50 0.04184
1136.60 0.04182
1136.70 0.04181
1136.80 0.0418
1136.90 0.04178
1137.00 0.04177
1137.10 0.04175
1137.20 0.04174
1137.30 0.04172
1137.40 0.04171
1137.50 0.0417
1137.60 0.04168
1137.70 0.04167
1137.80 0.04165
1137.90 0.04164
1138.00 0.04163
1138.10 0.04161
1138.20 0.0416
1138.30 0.04158
1138.40 0.04157
1138.50 0.04156
1138.60 0.04154
1138.70 0.04153
1138.80 0.04151
1138.90 0.0415
1139.00 0.04149
1139.10 0.04147
1139.20 0.04146
1139.30 0.04144
1139.40 0.04143
1139.50 0.04142
1139.60 0.0414
1139.70 0.04139
1139.80 0.04137
1139.90 0.04136
1140.00 0.04135
1140.10 0.04133
1140.20 0.04132
1140.30 0.0413
1140.40 0.04129
1140.50 0.04128
1140.60 0.04126
1140.70 0.04125
1140.80 0.04124
1140.90 0.04122
1141.00 0.04121
1141.10 0.04119
1141.20 0.04118
1141.30 0.04117
1141.40 0.04115
1141.50 0.04114
1141.60 0.04112
1141.70 0.04111
1141.80 0.0411
1141.90 0.04108
1142.00 0.04107
1142.10 0.04105
1142.20 0.04104
1142.30 0.04103
1142.40 0.04101
1142.50 0.041
1142.60 0.04099
1142.70 0.04097
1142.80 0.04096
1142.90 0.04094
1143.00 0.04093
1143.10 0.04092
1143.20 0.0409
1143.30 0.04089
1143.40 0.04087
1143.50 0.04086
1143.60 0.04085
1143.70 0.04083
1143.80 0.04082
1143.90 0.04081
1144.00 0.04079
1144.10 0.04078
1144.20 0.04076
1144.30 0.04075
1144.40 0.04074
1144.50 0.04072
1144.60 0.04071
1144.70 0.0407
1144.80 0.04068
1144.90 0.04067
1145.00 0.04065
1145.10 0.04064
1145.20 0.04063
1145.30 0.04061
1145.40 0.0406
1145.50 0.04059
1145.60 0.04057
1145.70 0.04056
1145.80 0.04054
1145.90 0.04053
1146.00 0.04052
1146.10 0.0405
1146.20 0.04049
1146.30 0.04048
1146.40 0.04046
1146.50 0.04045
1146.60 0.04044
1146.70 0.04042
1146.80 0.04041
1146.90 0.04039
1147.00 0.04038
1147.10 0.04037
1147.20 0.04035
1147.30 0.04034
1147.40 0.04033
1147.50 0.04031
1147.60 0.0403
1147.70 0.04029
1147.80 0.04027
1147.90 0.04026
1148.00 0.04024
1148.10 0.04023
1148.20 0.04022
1148.30 0.0402
1148.40 0.04019
1148.50 0.04018
1148.60 0.04016
1148.70 0.04015
1148.80 0.04014
1148.90 0.04012
1149.00 0.04011
1149.10 0.0401
1149.20 0.04008
1149.30 0.04007
1149.40 0.04006
1149.50 0.04004
1149.60 0.04003
1149.70 0.04001
1149.80 0.04
1149.90 0.03999
1150.00 0.03997
1150.10 0.03996
1150.20 0.03995
1150.30 0.03993
1150.40 0.03992
1150.50 0.03991
1150.60 0.03989
1150.70 0.03988
1150.80 0.03987
1150.90 0.03985
1151.00 0.03984
1151.10 0.03983
1151.20 0.03981
1151.30 0.0398
1151.40 0.03979
1151.50 0.03977
1151.60 0.03976
1151.70 0.03975
1151.80 0.03973
1151.90 0.03972
1152.00 0.03971
1152.10 0.03969
1152.20 0.03968
1152.30 0.03967
1152.40 0.03965
1152.50 0.03964
1152.60 0.03962
1152.70 0.03961
1152.80 0.0396
1152.90 0.03958
1153.00 0.03957
1153.10 0.03956
1153.20 0.03954
1153.30 0.03953
1153.40 0.03952
1153.50 0.0395
1153.60 0.03949
1153.70 0.03948
1153.80 0.03947
1153.90 0.03945
1154.00 0.03944
1154.10 0.03943
1154.20 0.03941
1154.30 0.0394
1154.40 0.03939
1154.50 0.03937
1154.60 0.03936
1154.70 0.03935
1154.80 0.03933
1154.90 0.03932
1155.00 0.03931
1155.10 0.03929
1155.20 0.03928
1155.30 0.03927
1155.40 0.03925
1155.50 0.03924
1155.60 0.03923
1155.70 0.03921
1155.80 0.0392
1155.90 0.03919
1156.00 0.03917
1156.10 0.03916
1156.20 0.03915
1156.30 0.03913
1156.40 0.03912
1156.50 0.03911
1156.60 0.03909
1156.70 0.03908
1156.80 0.03907
1156.90 0.03905
1157.00 0.03904
1157.10 0.03903
1157.20 0.03902
1157.30 0.039
1157.40 0.03899
1157.50 0.03898
1157.60 0.03896
1157.70 0.03895
1157.80 0.03894
1157.90 0.03892
1158.00 0.03891
1158.10 0.0389
1158.20 0.03888
1158.30 0.03887
1158.40 0.03886
1158.50 0.03885
1158.60 0.03883
1158.70 0.03882
1158.80 0.03881
1158.90 0.03879
1159.00 0.03878
1159.10 0.03877
1159.20 0.03875
1159.30 0.03874
1159.40 0.03873
1159.50 0.03871
1159.60 0.0387
1159.70 0.03869
1159.80 0.03868
1159.90 0.03866
1160.00 0.03865
1160.10 0.03864
1160.20 0.03862
1160.30 0.03861
1160.40 0.0386
1160.50 0.03858
1160.60 0.03857
1160.70 0.03856
1160.80 0.03855
1160.90 0.03853
1161.00 0.03852
1161.10 0.03851
1161.20 0.03849
1161.30 0.03848
1161.40 0.03847
1161.50 0.03845
1161.60 0.03844
1161.70 0.03843
1161.80 0.03842
1161.90 0.0384
1162.00 0.03839
1162.10 0.03838
1162.20 0.03836
1162.30 0.03835
1162.40 0.03834
1162.50 0.03833
1162.60 0.03831
1162.70 0.0383
1162.80 0.03829
1162.90 0.03827
1163.00 0.03826
1163.10 0.03825
1163.20 0.03824
1163.30 0.03822
1163.40 0.03821
1163.50 0.0382
1163.60 0.03818
1163.70 0.03817
1163.80 0.03816
1163.90 0.03815
1164.00 0.03813
1164.10 0.03812
1164.20 0.03811
1164.30 0.0381
1164.40 0.03808
1164.50 0.03807
1164.60 0.03806
1164.70 0.03804
1164.80 0.03803
1164.90 0.03802
1165.00 0.03801
1165.10 0.03799
1165.20 0.03798
1165.30 0.03797
1165.40 0.03795
1165.50 0.03794
1165.60 0.03793
1165.70 0.03792
1165.80 0.0379
1165.90 0.03789
1166.00 0.03788
1166.10 0.03787
1166.20 0.03785
1166.30 0.03784
1166.40 0.03783
1166.50 0.03781
1166.60 0.0378
1166.70 0.03779
1166.80 0.03778
1166.90 0.03776
1167.00 0.03775
1167.10 0.03774
1167.20 0.03773
1167.30 0.03771
1167.40 0.0377
1167.50 0.03769
1167.60 0.03768
1167.70 0.03766
1167.80 0.03765
1167.90 0.03764
1168.00 0.03763
1168.10 0.03761
1168.20 0.0376
1168.30 0.03759
1168.40 0.03757
1168.50 0.03756
1168.60 0.03755
1168.70 0.03754
1168.80 0.03752
1168.90 0.03751
1169.00 0.0375
1169.10 0.03749
1169.20 0.03747
1169.30 0.03746
1169.40 0.03745
1169.50 0.03744
1169.60 0.03742
1169.70 0.03741
1169.80 0.0374
1169.90 0.03739
1170.00 0.03737
1170.10 0.03736
1170.20 0.03735
1170.30 0.03734
1170.40 0.03732
1170.50 0.03731
1170.60 0.0373
1170.70 0.03729
1170.80 0.03727
1170.90 0.03726
1171.00 0.03725
1171.10 0.03724
1171.20 0.03722
1171.30 0.03721
1171.40 0.0372
1171.50 0.03719
1171.60 0.03717
1171.70 0.03716
1171.80 0.03715
1171.90 0.03714
1172.00 0.03712
1172.10 0.03711
1172.20 0.0371
1172.30 0.03709
1172.40 0.03707
1172.50 0.03706
1172.60 0.03705
1172.70 0.03704
1172.80 0.03703
1172.90 0.03701
1173.00 0.037
1173.10 0.03699
1173.20 0.03698
1173.30 0.03696
1173.40 0.03695
1173.50 0.03694
1173.60 0.03693
1173.70 0.03691
1173.80 0.0369
1173.90 0.03689
1174.00 0.03688
1174.10 0.03687
1174.20 0.03685
1174.30 0.03684
1174.40 0.03683
1174.50 0.03682
1174.60 0.0368
1174.70 0.03679
1174.80 0.03678
1174.90 0.03677
1175.00 0.03675
1175.10 0.03674
1175.20 0.03673
1175.30 0.03672
1175.40 0.03671
1175.50 0.03669
1175.60 0.03668
1175.70 0.03667
1175.80 0.03666
1175.90 0.03664
1176.00 0.03663
1176.10 0.03662
1176.20 0.03661
1176.30 0.0366
1176.40 0.03658
1176.50 0.03657
1176.60 0.03656
1176.70 0.03655
1176.80 0.03653
1176.90 0.03652
1177.00 0.03651
1177.10 0.0365
1177.20 0.03649
1177.30 0.03647
1177.40 0.03646
1177.50 0.03645
1177.60 0.03644
1177.70 0.03643
1177.80 0.03641
1177.90 0.0364
1178.00 0.03639
1178.10 0.03638
1178.20 0.03636
1178.30 0.03635
1178.40 0.03634
1178.50 0.03633
1178.60 0.03632
1178.70 0.0363
1178.80 0.03629
1178.90 0.03628
1179.00 0.03627
1179.10 0.03626
1179.20 0.03624
1179.30 0.03623
1179.40 0.03622
1179.50 0.03621
1179.60 0.0362
1179.70 0.03618
1179.80 0.03617
1179.90 0.03616
1180.00 0.03615
1180.10 0.03614
1180.20 0.03612
1180.30 0.03611
1180.40 0.0361
1180.50 0.03609
1180.60 0.03608
1180.70 0.03606
1180.80 0.03605
1180.90 0.03604
1181.00 0.03603
1181.10 0.03602
1181.20 0.036
1181.30 0.03599
1181.40 0.03598
1181.50 0.03597
1181.60 0.03596
1181.70 0.03594
1181.80 0.03593
1181.90 0.03592
1182.00 0.03591
1182.10 0.0359
1182.20 0.03588
1182.30 0.03587
1182.40 0.03586
1182.50 0.03585
1182.60 0.03584
1182.70 0.03582
1182.80 0.03581
1182.90 0.0358
1183.00 0.03579
1183.10 0.03578
1183.20 0.03576
1183.30 0.03575
1183.40 0.03574
1183.50 0.03573
1183.60 0.03572
1183.70 0.03571
1183.80 0.03569
1183.90 0.03568
1184.00 0.03567
1184.10 0.03566
1184.20 0.03565
1184.30 0.03563
1184.40 0.03562
1184.50 0.03561
1184.60 0.0356
1184.70 0.03559
1184.80 0.03558
1184.90 0.03556
1185.00 0.03555
1185.10 0.03554
1185.20 0.03553
1185.30 0.03552
1185.40 0.0355
1185.50 0.03549
1185.60 0.03548
1185.70 0.03547
1185.80 0.03546
1185.90 0.03545
1186.00 0.03543
1186.10 0.03542
1186.20 0.03541
1186.30 0.0354
1186.40 0.03539
1186.50 0.03538
1186.60 0.03536
1186.70 0.03535
1186.80 0.03534
1186.90 0.03533
1187.00 0.03532
1187.10 0.0353
1187.20 0.03529
1187.30 0.03528
1187.40 0.03527
1187.50 0.03526
1187.60 0.03525
1187.70 0.03523
1187.80 0.03522
1187.90 0.03521
1188.00 0.0352
1188.10 0.03519
1188.20 0.03518
1188.30 0.03516
1188.40 0.03515
1188.50 0.03514
1188.60 0.03513
1188.70 0.03512
1188.80 0.03511
1188.90 0.0351
1189.00 0.03508
1189.10 0.03507
1189.20 0.03506
1189.30 0.03505
1189.40 0.03504
1189.50 0.03503
1189.60 0.03501
1189.70 0.035
1189.80 0.03499
1189.90 0.03498
1190.00 0.03497
1190.10 0.03496
1190.20 0.03494
1190.30 0.03493
1190.40 0.03492
1190.50 0.03491
1190.60 0.0349
1190.70 0.03489
1190.80 0.03488
1190.90 0.03486
1191.00 0.03485
1191.10 0.03484
1191.20 0.03483
1191.30 0.03482
1191.40 0.03481
1191.50 0.03479
1191.60 0.03478
1191.70 0.03477
1191.80 0.03476
1191.90 0.03475
1192.00 0.03474
1192.10 0.03473
1192.20 0.03471
1192.30 0.0347
1192.40 0.03469
1192.50 0.03468
1192.60 0.03467
1192.70 0.03466
1192.80 0.03465
1192.90 0.03463
1193.00 0.03462
1193.10 0.03461
1193.20 0.0346
1193.30 0.03459
1193.40 0.03458
1193.50 0.03457
1193.60 0.03455
1193.70 0.03454
1193.80 0.03453
1193.90 0.03452
1194.00 0.03451
1194.10 0.0345
1194.20 0.03449
1194.30 0.03447
1194.40 0.03446
1194.50 0.03445
1194.60 0.03444
1194.70 0.03443
1194.80 0.03442
1194.90 0.03441
1195.00 0.03439
1195.10 0.03438
1195.20 0.03437
1195.30 0.03436
1195.40 0.03435
1195.50 0.03434
1195.60 0.03433
1195.70 0.03432
1195.80 0.0343
1195.90 0.03429
1196.00 0.03428
1196.10 0.03427
1196.20 0.03426
1196.30 0.03425
1196.40 0.03424
1196.50 0.03422
1196.60 0.03421
1196.70 0.0342
1196.80 0.03419
1196.90 0.03418
1197.00 0.03417
1197.10 0.03416
1197.20 0.03415
1197.30 0.03413
1197.40 0.03412
1197.50 0.03411
1197.60 0.0341
1197.70 0.03409
1197.80 0.03408
1197.90 0.03407
1198.00 0.03406
1198.10 0.03405
1198.20 0.03403
1198.30 0.03402
1198.40 0.03401
1198.50 0.034
1198.60 0.03399
1198.70 0.03398
1198.80 0.03397
1198.90 0.03396
1199.00 0.03394
1199.10 0.03393
1199.20 0.03392
1199.30 0.03391
1199.40 0.0339
1199.50 0.03389
1199.60 0.03388
1199.70 0.03387
1199.80 0.03386
1199.90 0.03384
1200.00 0
