# Version 2.1 - nm, norm@500 to 1, cut digits, bergeron_15500_70.dat_15500
# Wavelength(nm)  Flambda(ergs/cm^s/s/nm)
300.00 2.25
300.10 2.249
300.20 2.247
300.30 2.245
300.40 2.243
300.50 2.242
300.60 2.24
300.70 2.238
300.80 2.236
300.90 2.235
301.00 2.233
301.10 2.231
301.20 2.229
301.30 2.228
301.40 2.226
301.50 2.224
301.60 2.222
301.70 2.221
301.80 2.219
301.90 2.217
302.00 2.215
302.10 2.214
302.20 2.212
302.30 2.21
302.40 2.208
302.50 2.207
302.60 2.205
302.70 2.203
302.80 2.202
302.90 2.2
303.00 2.198
303.10 2.196
303.20 2.195
303.30 2.193
303.40 2.191
303.50 2.19
303.60 2.188
303.70 2.186
303.80 2.184
303.90 2.183
304.00 2.181
304.10 2.179
304.20 2.178
304.30 2.176
304.40 2.174
304.50 2.173
304.60 2.171
304.70 2.169
304.80 2.167
304.90 2.166
305.00 2.164
305.10 2.162
305.20 2.161
305.30 2.159
305.40 2.157
305.50 2.156
305.60 2.154
305.70 2.152
305.80 2.151
305.90 2.149
306.00 2.147
306.10 2.146
306.20 2.144
306.30 2.142
306.40 2.141
306.50 2.139
306.60 2.137
306.70 2.136
306.80 2.134
306.90 2.133
307.00 2.131
307.10 2.129
307.20 2.128
307.30 2.126
307.40 2.124
307.50 2.123
307.60 2.121
307.70 2.119
307.80 2.118
307.90 2.116
308.00 2.115
308.10 2.113
308.20 2.111
308.30 2.11
308.40 2.108
308.50 2.106
308.60 2.105
308.70 2.103
308.80 2.102
308.90 2.1
309.00 2.098
309.10 2.097
309.20 2.095
309.30 2.094
309.40 2.092
309.50 2.09
309.60 2.089
309.70 2.087
309.80 2.086
309.90 2.084
310.00 2.082
310.10 2.081
310.20 2.079
310.30 2.078
310.40 2.076
310.50 2.074
310.60 2.073
310.70 2.071
310.80 2.07
310.90 2.068
311.00 2.066
311.10 2.065
311.20 2.063
311.30 2.062
311.40 2.06
311.50 2.059
311.60 2.057
311.70 2.055
311.80 2.054
311.90 2.052
312.00 2.051
312.10 2.049
312.20 2.048
312.30 2.046
312.40 2.045
312.50 2.043
312.60 2.041
312.70 2.04
312.80 2.038
312.90 2.037
313.00 2.035
313.10 2.034
313.20 2.032
313.30 2.031
313.40 2.029
313.50 2.028
313.60 2.026
313.70 2.024
313.80 2.023
313.90 2.021
314.00 2.02
314.10 2.018
314.20 2.017
314.30 2.015
314.40 2.014
314.50 2.012
314.60 2.011
314.70 2.009
314.80 2.008
314.90 2.006
315.00 2.005
315.10 2.003
315.20 2.002
315.30 2
315.40 1.999
315.50 1.997
315.60 1.996
315.70 1.994
315.80 1.993
315.90 1.991
316.00 1.99
316.10 1.988
316.20 1.987
316.30 1.985
316.40 1.984
316.50 1.982
316.60 1.981
316.70 1.979
316.80 1.978
316.90 1.976
317.00 1.975
317.10 1.973
317.20 1.972
317.30 1.97
317.40 1.969
317.50 1.967
317.60 1.966
317.70 1.964
317.80 1.963
317.90 1.961
318.00 1.96
318.10 1.958
318.20 1.957
318.30 1.955
318.40 1.954
318.50 1.953
318.60 1.951
318.70 1.95
318.80 1.948
318.90 1.947
319.00 1.945
319.10 1.944
319.20 1.942
319.30 1.941
319.40 1.939
319.50 1.938
319.60 1.937
319.70 1.935
319.80 1.934
319.90 1.932
320.00 1.931
320.10 1.929
320.20 1.928
320.30 1.926
320.40 1.925
320.50 1.924
320.60 1.922
320.70 1.921
320.80 1.919
320.90 1.918
321.00 1.916
321.10 1.915
321.20 1.914
321.30 1.912
321.40 1.911
321.50 1.909
321.60 1.908
321.70 1.907
321.80 1.905
321.90 1.904
322.00 1.902
322.10 1.901
322.20 1.899
322.30 1.898
322.40 1.897
322.50 1.895
322.60 1.894
322.70 1.892
322.80 1.891
322.90 1.89
323.00 1.888
323.10 1.887
323.20 1.885
323.30 1.884
323.40 1.883
323.50 1.881
323.60 1.88
323.70 1.878
323.80 1.877
323.90 1.876
324.00 1.874
324.10 1.873
324.20 1.872
324.30 1.87
324.40 1.869
324.50 1.867
324.60 1.866
324.70 1.865
324.80 1.863
324.90 1.862
325.00 1.861
325.10 1.859
325.20 1.858
325.30 1.856
325.40 1.855
325.50 1.854
325.60 1.852
325.70 1.851
325.80 1.85
325.90 1.848
326.00 1.847
326.10 1.846
326.20 1.844
326.30 1.843
326.40 1.841
326.50 1.84
326.60 1.839
326.70 1.837
326.80 1.836
326.90 1.835
327.00 1.833
327.10 1.832
327.20 1.831
327.30 1.829
327.40 1.828
327.50 1.827
327.60 1.825
327.70 1.824
327.80 1.823
327.90 1.821
328.00 1.82
328.10 1.819
328.20 1.817
328.30 1.816
328.40 1.815
328.50 1.813
328.60 1.812
328.70 1.811
328.80 1.809
328.90 1.808
329.00 1.807
329.10 1.805
329.20 1.804
329.30 1.803
329.40 1.802
329.50 1.8
329.60 1.799
329.70 1.798
329.80 1.796
329.90 1.795
330.00 1.794
330.10 1.792
330.20 1.791
330.30 1.79
330.40 1.788
330.50 1.787
330.60 1.786
330.70 1.785
330.80 1.783
330.90 1.782
331.00 1.781
331.10 1.779
331.20 1.778
331.30 1.777
331.40 1.776
331.50 1.774
331.60 1.773
331.70 1.772
331.80 1.77
331.90 1.769
332.00 1.768
332.10 1.767
332.20 1.765
332.30 1.764
332.40 1.763
332.50 1.761
332.60 1.76
332.70 1.759
332.80 1.758
332.90 1.756
333.00 1.755
333.10 1.754
333.20 1.753
333.30 1.751
333.40 1.75
333.50 1.749
333.60 1.748
333.70 1.746
333.80 1.745
333.90 1.744
334.00 1.742
334.10 1.741
334.20 1.74
334.30 1.739
334.40 1.737
334.50 1.736
334.60 1.735
334.70 1.734
334.80 1.732
334.90 1.731
335.00 1.73
335.10 1.729
335.20 1.728
335.30 1.726
335.40 1.725
335.50 1.724
335.60 1.723
335.70 1.721
335.80 1.72
335.90 1.719
336.00 1.718
336.10 1.716
336.20 1.715
336.30 1.714
336.40 1.713
336.50 1.711
336.60 1.71
336.70 1.709
336.80 1.708
336.90 1.707
337.00 1.705
337.10 1.704
337.20 1.703
337.30 1.702
337.40 1.7
337.50 1.699
337.60 1.698
337.70 1.697
337.80 1.696
337.90 1.694
338.00 1.693
338.10 1.692
338.20 1.691
338.30 1.69
338.40 1.688
338.50 1.687
338.60 1.686
338.70 1.685
338.80 1.684
338.90 1.682
339.00 1.681
339.10 1.68
339.20 1.679
339.30 1.678
339.40 1.676
339.50 1.675
339.60 1.674
339.70 1.673
339.80 1.672
339.90 1.67
340.00 1.669
340.10 1.668
340.20 1.667
340.30 1.666
340.40 1.665
340.50 1.663
340.60 1.662
340.70 1.661
340.80 1.66
340.90 1.659
341.00 1.657
341.10 1.656
341.20 1.655
341.30 1.654
341.40 1.653
341.50 1.652
341.60 1.65
341.70 1.649
341.80 1.648
341.90 1.647
342.00 1.646
342.10 1.645
342.20 1.643
342.30 1.642
342.40 1.641
342.50 1.64
342.60 1.639
342.70 1.638
342.80 1.636
342.90 1.635
343.00 1.634
343.10 1.633
343.20 1.632
343.30 1.631
343.40 1.63
343.50 1.628
343.60 1.627
343.70 1.626
343.80 1.625
343.90 1.624
344.00 1.623
344.10 1.622
344.20 1.62
344.30 1.619
344.40 1.618
344.50 1.617
344.60 1.616
344.70 1.615
344.80 1.614
344.90 1.612
345.00 1.611
345.10 1.61
345.20 1.609
345.30 1.608
345.40 1.607
345.50 1.606
345.60 1.605
345.70 1.603
345.80 1.602
345.90 1.601
346.00 1.6
346.10 1.599
346.20 1.598
346.30 1.597
346.40 1.596
346.50 1.594
346.60 1.593
346.70 1.592
346.80 1.591
346.90 1.59
347.00 1.589
347.10 1.588
347.20 1.587
347.30 1.586
347.40 1.584
347.50 1.583
347.60 1.582
347.70 1.581
347.80 1.58
347.90 1.579
348.00 1.578
348.10 1.577
348.20 1.576
348.30 1.575
348.40 1.573
348.50 1.572
348.60 1.571
348.70 1.57
348.80 1.569
348.90 1.568
349.00 1.567
349.10 1.566
349.20 1.565
349.30 1.564
349.40 1.563
349.50 1.561
349.60 1.56
349.70 1.559
349.80 1.558
349.90 1.557
350.00 1.556
350.10 1.555
350.20 1.554
350.30 1.553
350.40 1.552
350.50 1.551
350.60 1.55
350.70 1.548
350.80 1.547
350.90 1.546
351.00 1.545
351.10 1.544
351.20 1.543
351.30 1.542
351.40 1.541
351.50 1.54
351.60 1.539
351.70 1.538
351.80 1.537
351.90 1.536
352.00 1.535
352.10 1.534
352.20 1.532
352.30 1.531
352.40 1.53
352.50 1.529
352.60 1.528
352.70 1.527
352.80 1.526
352.90 1.525
353.00 1.524
353.10 1.523
353.20 1.522
353.30 1.521
353.40 1.52
353.50 1.519
353.60 1.518
353.70 1.517
353.80 1.516
353.90 1.515
354.00 1.514
354.10 1.513
354.20 1.511
354.30 1.51
354.40 1.509
354.50 1.508
354.60 1.507
354.70 1.506
354.80 1.505
354.90 1.504
355.00 1.503
355.10 1.502
355.20 1.501
355.30 1.5
355.40 1.499
355.50 1.498
355.60 1.497
355.70 1.496
355.80 1.495
355.90 1.494
356.00 1.493
356.10 1.492
356.20 1.491
356.30 1.49
356.40 1.489
356.50 1.488
356.60 1.487
356.70 1.486
356.80 1.485
356.90 1.484
357.00 1.483
357.10 1.482
357.20 1.481
357.30 1.48
357.40 1.479
357.50 1.478
357.60 1.477
357.70 1.476
357.80 1.475
357.90 1.474
358.00 1.473
358.10 1.472
358.20 1.471
358.30 1.47
358.40 1.469
358.50 1.468
358.60 1.467
358.70 1.466
358.80 1.465
358.90 1.464
359.00 1.463
359.10 1.462
359.20 1.461
359.30 1.46
359.40 1.459
359.50 1.458
359.60 1.457
359.70 1.456
359.80 1.455
359.90 1.454
360.00 1.453
360.10 1.452
360.20 1.451
360.30 1.45
360.40 1.449
360.50 1.448
360.60 1.447
360.70 1.446
360.80 1.445
360.90 1.444
361.00 1.443
361.10 1.442
361.20 1.441
361.30 1.44
361.40 1.439
361.50 1.438
361.60 1.437
361.70 1.436
361.80 1.435
361.90 1.434
362.00 1.433
362.10 1.432
362.20 1.431
362.30 1.43
362.40 1.429
362.50 1.428
362.60 1.427
362.70 1.426
362.80 1.425
362.90 1.424
363.00 1.423
363.10 1.422
363.20 1.421
363.30 1.42
363.40 1.419
363.50 1.418
363.60 1.417
363.70 1.416
363.80 1.415
363.90 1.414
364.00 1.413
364.10 1.413
364.20 1.412
364.30 1.411
364.40 1.41
364.50 1.409
364.60 1.408
364.70 1.407
364.80 1.406
364.90 1.405
365.00 1.404
365.10 1.403
365.20 1.402
365.30 1.401
365.40 1.4
365.50 1.399
365.60 1.398
365.70 1.397
365.80 1.396
365.90 1.395
366.00 1.394
366.10 1.393
366.20 1.392
366.30 1.392
366.40 1.391
366.50 1.39
366.60 1.389
366.70 1.388
366.80 1.387
366.90 1.386
367.00 1.385
367.10 1.384
367.20 1.384
367.30 1.383
367.40 1.382
367.50 1.381
367.60 1.38
367.70 1.379
367.80 1.378
367.90 1.377
368.00 1.376
368.10 1.376
368.20 1.376
368.30 1.376
368.40 1.376
368.50 1.376
368.60 1.375
368.70 1.375
368.80 1.375
368.90 1.375
369.00 1.375
369.10 1.375
369.20 1.374
369.30 1.374
369.40 1.374
369.50 1.374
369.60 1.374
369.70 1.374
369.80 1.373
369.90 1.373
370.00 1.373
370.10 1.375
370.20 1.376
370.30 1.378
370.40 1.379
370.50 1.381
370.60 1.382
370.70 1.384
370.80 1.386
370.90 1.387
371.00 1.389
371.10 1.39
371.20 1.392
371.30 1.393
371.40 1.395
371.50 1.396
371.60 1.398
371.70 1.399
371.80 1.401
371.90 1.403
372.00 1.404
372.10 1.407
372.20 1.411
372.30 1.414
372.40 1.418
372.50 1.421
372.60 1.425
372.70 1.428
372.80 1.431
372.90 1.435
373.00 1.438
373.10 1.441
373.20 1.445
373.30 1.448
373.40 1.452
373.50 1.455
373.60 1.458
373.70 1.462
373.80 1.465
373.90 1.468
374.00 1.472
374.10 1.476
374.20 1.48
374.30 1.483
374.40 1.487
374.50 1.491
374.60 1.495
374.70 1.499
374.80 1.503
374.90 1.507
375.00 1.511
375.10 1.515
375.20 1.519
375.30 1.522
375.40 1.526
375.50 1.53
375.60 1.534
375.70 1.538
375.80 1.542
375.90 1.546
376.00 1.549
376.10 1.551
376.20 1.553
376.30 1.555
376.40 1.557
376.50 1.559
376.60 1.561
376.70 1.563
376.80 1.565
376.90 1.567
377.00 1.569
377.10 1.565
377.20 1.562
377.30 1.558
377.40 1.555
377.50 1.551
377.60 1.548
377.70 1.544
377.80 1.541
377.90 1.537
378.00 1.534
378.10 1.514
378.20 1.495
378.30 1.476
378.40 1.457
378.50 1.438
378.60 1.419
378.70 1.4
378.80 1.381
378.90 1.362
379.00 1.342
379.10 1.328
379.20 1.313
379.30 1.299
379.40 1.284
379.50 1.269
379.60 1.255
379.70 1.24
379.80 1.226
379.90 1.211
380.00 1.196
380.10 1.22
380.20 1.243
380.30 1.266
380.40 1.289
380.50 1.312
380.60 1.335
380.70 1.358
380.80 1.381
380.90 1.404
381.00 1.427
381.10 1.437
381.20 1.447
381.30 1.457
381.40 1.467
381.50 1.476
381.60 1.477
381.70 1.474
381.80 1.469
381.90 1.46
382.00 1.448
382.10 1.432
382.20 1.413
382.30 1.38
382.40 1.347
382.50 1.314
382.60 1.281
382.70 1.248
382.80 1.216
382.90 1.183
383.00 1.15
383.10 1.117
383.20 1.085
383.30 1.053
383.40 1.019
383.50 0.9823
383.60 0.9897
383.70 1.026
383.80 1.059
383.90 1.09
384.00 1.123
384.10 1.159
384.20 1.197
384.30 1.236
384.40 1.275
384.50 1.313
384.60 1.348
384.70 1.381
384.80 1.411
384.90 1.439
385.00 1.463
385.10 1.483
385.20 1.502
385.30 1.518
385.40 1.531
385.50 1.543
385.60 1.553
385.70 1.56
385.80 1.566
385.90 1.57
386.00 1.572
386.10 1.572
386.20 1.571
386.30 1.568
386.40 1.563
386.50 1.557
386.60 1.548
386.70 1.538
386.80 1.527
386.90 1.512
387.00 1.497
387.10 1.48
387.20 1.46
387.30 1.438
387.40 1.415
387.50 1.388
387.60 1.358
387.70 1.327
387.80 1.291
387.90 1.253
388.00 1.213
388.10 1.169
388.20 1.125
388.30 1.08
388.40 1.037
388.50 0.9952
388.60 0.9555
388.70 0.9153
388.80 0.8744
388.90 0.8328
389.00 0.8709
389.10 0.9097
389.20 0.9494
389.30 0.9881
389.40 1.029
389.50 1.071
389.60 1.115
389.70 1.159
389.80 1.202
389.90 1.243
390.00 1.281
390.10 1.318
390.20 1.351
390.30 1.382
390.40 1.411
390.50 1.437
390.60 1.462
390.70 1.485
390.80 1.506
390.90 1.526
391.00 1.546
391.10 1.563
391.20 1.58
391.30 1.596
391.40 1.61
391.50 1.623
391.60 1.636
391.70 1.647
391.80 1.658
391.90 1.668
392.00 1.676
392.10 1.684
392.20 1.69
392.30 1.696
392.40 1.7
392.50 1.704
392.60 1.707
392.70 1.708
392.80 1.709
392.90 1.708
393.00 1.707
393.10 1.705
393.20 1.701
393.30 1.697
393.40 1.691
393.50 1.684
393.60 1.677
393.70 1.668
393.80 1.658
393.90 1.648
394.00 1.636
394.10 1.623
394.20 1.609
394.30 1.594
394.40 1.577
394.50 1.56
394.60 1.542
394.70 1.523
394.80 1.502
394.90 1.481
395.00 1.459
395.10 1.436
395.20 1.411
395.30 1.385
395.40 1.359
395.50 1.331
395.60 1.3
395.70 1.269
395.80 1.236
395.90 1.201
396.00 1.164
396.10 1.126
396.20 1.086
396.30 1.043
396.40 1
396.50 0.9567
396.60 0.9141
396.70 0.8726
396.80 0.8295
396.90 0.7771
397.00 0.7154
397.10 0.7719
397.20 0.8218
397.30 0.8648
397.40 0.9053
397.50 0.9466
397.60 0.9889
397.70 1.031
397.80 1.072
397.90 1.112
398.00 1.149
398.10 1.184
398.20 1.219
398.30 1.25
398.40 1.281
398.50 1.31
398.60 1.337
398.70 1.363
398.80 1.388
398.90 1.412
399.00 1.435
399.10 1.457
399.20 1.478
399.30 1.498
399.40 1.518
399.50 1.536
399.60 1.554
399.70 1.572
399.80 1.588
399.90 1.604
400.00 1.619
400.10 1.633
400.20 1.647
400.30 1.66
400.40 1.672
400.50 1.683
400.60 1.694
400.70 1.704
400.80 1.714
400.90 1.723
401.00 1.731
401.10 1.739
401.20 1.747
401.30 1.754
401.40 1.76
401.50 1.766
401.60 1.771
401.70 1.777
401.80 1.781
401.90 1.785
402.00 1.789
402.10 1.793
402.20 1.796
402.30 1.798
402.40 1.801
402.50 1.803
402.60 1.804
402.70 1.806
402.80 1.807
402.90 1.808
403.00 1.808
403.10 1.808
403.20 1.808
403.30 1.808
403.40 1.807
403.50 1.806
403.60 1.805
403.70 1.803
403.80 1.801
403.90 1.799
404.00 1.797
404.10 1.794
404.20 1.791
404.30 1.788
404.40 1.785
404.50 1.781
404.60 1.777
404.70 1.772
404.80 1.768
404.90 1.762
405.00 1.757
405.10 1.751
405.20 1.745
405.30 1.738
405.40 1.732
405.50 1.724
405.60 1.716
405.70 1.708
405.80 1.7
405.90 1.691
406.00 1.681
406.10 1.671
406.20 1.661
406.30 1.65
406.40 1.638
406.50 1.626
406.60 1.613
406.70 1.6
406.80 1.586
406.90 1.572
407.00 1.556
407.10 1.54
407.20 1.524
407.30 1.506
407.40 1.488
407.50 1.469
407.60 1.449
407.70 1.429
407.80 1.408
407.90 1.386
408.00 1.363
408.10 1.34
408.20 1.316
408.30 1.292
408.40 1.267
408.50 1.241
408.60 1.215
408.70 1.188
408.80 1.161
408.90 1.132
409.00 1.103
409.10 1.073
409.20 1.041
409.30 1.009
409.40 0.9742
409.50 0.9382
409.60 0.901
409.70 0.8629
409.80 0.8248
409.90 0.7868
410.00 0.7409
410.10 0.6905
410.20 0.6356
410.30 0.7085
410.40 0.765
410.50 0.8052
410.60 0.8423
410.70 0.8793
410.80 0.9163
410.90 0.9515
411.00 0.9854
411.10 1.018
411.20 1.048
411.30 1.077
411.40 1.106
411.50 1.133
411.60 1.159
411.70 1.185
411.80 1.209
411.90 1.233
412.00 1.257
412.10 1.279
412.20 1.302
412.30 1.323
412.40 1.344
412.50 1.364
412.60 1.383
412.70 1.402
412.80 1.42
412.90 1.437
413.00 1.454
413.10 1.469
413.20 1.485
413.30 1.499
413.40 1.512
413.50 1.525
413.60 1.537
413.70 1.549
413.80 1.56
413.90 1.57
414.00 1.58
414.10 1.59
414.20 1.599
414.30 1.607
414.40 1.615
414.50 1.623
414.60 1.63
414.70 1.637
414.80 1.643
414.90 1.649
415.00 1.655
415.10 1.661
415.20 1.666
415.30 1.671
415.40 1.675
415.50 1.679
415.60 1.684
415.70 1.687
415.80 1.691
415.90 1.694
416.00 1.697
416.10 1.7
416.20 1.703
416.30 1.705
416.40 1.708
416.50 1.71
416.60 1.712
416.70 1.714
416.80 1.716
416.90 1.718
417.00 1.719
417.10 1.721
417.20 1.722
417.30 1.723
417.40 1.724
417.50 1.725
417.60 1.726
417.70 1.727
417.80 1.728
417.90 1.728
418.00 1.729
418.10 1.729
418.20 1.729
418.30 1.73
418.40 1.73
418.50 1.73
418.60 1.73
418.70 1.73
418.80 1.73
418.90 1.73
419.00 1.73
419.10 1.73
419.20 1.73
419.30 1.729
419.40 1.729
419.50 1.729
419.60 1.728
419.70 1.728
419.80 1.727
419.90 1.727
420.00 1.726
420.10 1.726
420.20 1.725
420.30 1.724
420.40 1.724
420.50 1.723
420.60 1.722
420.70 1.721
420.80 1.72
420.90 1.719
421.00 1.719
421.10 1.718
421.20 1.717
421.30 1.716
421.40 1.715
421.50 1.714
421.60 1.713
421.70 1.711
421.80 1.71
421.90 1.709
422.00 1.708
422.10 1.707
422.20 1.705
422.30 1.704
422.40 1.703
422.50 1.701
422.60 1.7
422.70 1.699
422.80 1.697
422.90 1.696
423.00 1.694
423.10 1.693
423.20 1.691
423.30 1.69
423.40 1.688
423.50 1.687
423.60 1.685
423.70 1.683
423.80 1.681
423.90 1.68
424.00 1.678
424.10 1.676
424.20 1.674
424.30 1.672
424.40 1.67
424.50 1.668
424.60 1.666
424.70 1.664
424.80 1.662
424.90 1.66
425.00 1.657
425.10 1.655
425.20 1.653
425.30 1.65
425.40 1.648
425.50 1.645
425.60 1.643
425.70 1.64
425.80 1.638
425.90 1.635
426.00 1.632
426.10 1.629
426.20 1.626
426.30 1.622
426.40 1.619
426.50 1.616
426.60 1.613
426.70 1.609
426.80 1.606
426.90 1.602
427.00 1.599
427.10 1.595
427.20 1.591
427.30 1.587
427.40 1.583
427.50 1.579
427.60 1.574
427.70 1.57
427.80 1.565
427.90 1.561
428.00 1.556
428.10 1.551
428.20 1.546
428.30 1.54
428.40 1.535
428.50 1.529
428.60 1.523
428.70 1.517
428.80 1.511
428.90 1.504
429.00 1.497
429.10 1.491
429.20 1.483
429.30 1.476
429.40 1.468
429.50 1.46
429.60 1.452
429.70 1.443
429.80 1.435
429.90 1.425
430.00 1.416
430.10 1.406
430.20 1.396
430.30 1.386
430.40 1.375
430.50 1.364
430.60 1.352
430.70 1.34
430.80 1.328
430.90 1.316
431.00 1.302
431.10 1.289
431.20 1.275
431.30 1.261
431.40 1.246
431.50 1.231
431.60 1.215
431.70 1.198
431.80 1.181
431.90 1.163
432.00 1.145
432.10 1.125
432.20 1.105
432.30 1.084
432.40 1.062
432.50 1.038
432.60 1.014
432.70 0.9888
432.80 0.963
432.90 0.9375
433.00 0.9123
433.10 0.888
433.20 0.8632
433.30 0.8381
433.40 0.8107
433.50 0.7821
433.60 0.7525
433.70 0.7208
433.80 0.6861
433.90 0.6484
434.00 0.5582
434.10 0.5593
434.20 0.6514
434.30 0.6877
434.40 0.7212
434.50 0.7519
434.60 0.7806
434.70 0.8081
434.80 0.8344
434.90 0.8584
435.00 0.8819
435.10 0.9051
435.20 0.9291
435.30 0.9533
435.40 0.9775
435.50 1.001
435.60 1.024
435.70 1.046
435.80 1.066
435.90 1.085
436.00 1.104
436.10 1.121
436.20 1.138
436.30 1.154
436.40 1.169
436.50 1.183
436.60 1.197
436.70 1.21
436.80 1.223
436.90 1.235
437.00 1.247
437.10 1.258
437.20 1.269
437.30 1.279
437.40 1.289
437.50 1.299
437.60 1.308
437.70 1.316
437.80 1.325
437.90 1.333
438.00 1.34
438.10 1.348
438.20 1.355
438.30 1.361
438.40 1.368
438.50 1.374
438.60 1.379
438.70 1.385
438.80 1.39
438.90 1.395
439.00 1.399
439.10 1.404
439.20 1.408
439.30 1.412
439.40 1.416
439.50 1.419
439.60 1.423
439.70 1.426
439.80 1.429
439.90 1.432
440.00 1.434
440.10 1.437
440.20 1.439
440.30 1.441
440.40 1.443
440.50 1.446
440.60 1.447
440.70 1.449
440.80 1.451
440.90 1.452
441.00 1.454
441.10 1.455
441.20 1.456
441.30 1.457
441.40 1.458
441.50 1.459
441.60 1.46
441.70 1.461
441.80 1.462
441.90 1.462
442.00 1.463
442.10 1.463
442.20 1.464
442.30 1.464
442.40 1.464
442.50 1.465
442.60 1.465
442.70 1.465
442.80 1.465
442.90 1.465
443.00 1.465
443.10 1.465
443.20 1.465
443.30 1.465
443.40 1.465
443.50 1.465
443.60 1.465
443.70 1.465
443.80 1.464
443.90 1.464
444.00 1.464
444.10 1.463
444.20 1.463
444.30 1.463
444.40 1.462
444.50 1.462
444.60 1.461
444.70 1.461
444.80 1.46
444.90 1.46
445.00 1.459
445.10 1.459
445.20 1.458
445.30 1.458
445.40 1.457
445.50 1.456
445.60 1.456
445.70 1.455
445.80 1.454
445.90 1.454
446.00 1.453
446.10 1.452
446.20 1.452
446.30 1.451
446.40 1.45
446.50 1.449
446.60 1.449
446.70 1.448
446.80 1.447
446.90 1.446
447.00 1.446
447.10 1.445
447.20 1.444
447.30 1.443
447.40 1.442
447.50 1.442
447.60 1.441
447.70 1.44
447.80 1.439
447.90 1.438
448.00 1.437
448.10 1.437
448.20 1.436
448.30 1.435
448.40 1.434
448.50 1.433
448.60 1.432
448.70 1.431
448.80 1.431
448.90 1.43
449.00 1.429
449.10 1.428
449.20 1.427
449.30 1.426
449.40 1.425
449.50 1.425
449.60 1.424
449.70 1.423
449.80 1.422
449.90 1.421
450.00 1.42
450.10 1.419
450.20 1.418
450.30 1.417
450.40 1.416
450.50 1.416
450.60 1.415
450.70 1.414
450.80 1.413
450.90 1.412
451.00 1.411
451.10 1.41
451.20 1.409
451.30 1.408
451.40 1.407
451.50 1.406
451.60 1.405
451.70 1.404
451.80 1.404
451.90 1.403
452.00 1.402
452.10 1.401
452.20 1.4
452.30 1.399
452.40 1.398
452.50 1.397
452.60 1.396
452.70 1.395
452.80 1.394
452.90 1.393
453.00 1.392
453.10 1.391
453.20 1.39
453.30 1.389
453.40 1.388
453.50 1.388
453.60 1.387
453.70 1.386
453.80 1.385
453.90 1.384
454.00 1.383
454.10 1.382
454.20 1.381
454.30 1.38
454.40 1.379
454.50 1.378
454.60 1.377
454.70 1.376
454.80 1.375
454.90 1.374
455.00 1.373
455.10 1.372
455.20 1.371
455.30 1.37
455.40 1.369
455.50 1.369
455.60 1.368
455.70 1.367
455.80 1.366
455.90 1.365
456.00 1.364
456.10 1.363
456.20 1.362
456.30 1.361
456.40 1.36
456.50 1.359
456.60 1.358
456.70 1.357
456.80 1.356
456.90 1.355
457.00 1.354
457.10 1.353
457.20 1.352
457.30 1.352
457.40 1.351
457.50 1.35
457.60 1.349
457.70 1.348
457.80 1.347
457.90 1.346
458.00 1.345
458.10 1.344
458.20 1.343
458.30 1.342
458.40 1.341
458.50 1.34
458.60 1.339
458.70 1.338
458.80 1.337
458.90 1.336
459.00 1.335
459.10 1.334
459.20 1.333
459.30 1.332
459.40 1.331
459.50 1.33
459.60 1.329
459.70 1.328
459.80 1.328
459.90 1.327
460.00 1.326
460.10 1.325
460.20 1.324
460.30 1.323
460.40 1.322
460.50 1.321
460.60 1.32
460.70 1.319
460.80 1.318
460.90 1.317
461.00 1.316
461.10 1.315
461.20 1.314
461.30 1.313
461.40 1.312
461.50 1.311
461.60 1.31
461.70 1.309
461.80 1.308
461.90 1.307
462.00 1.306
462.10 1.305
462.20 1.305
462.30 1.304
462.40 1.303
462.50 1.302
462.60 1.301
462.70 1.3
462.80 1.299
462.90 1.298
463.00 1.297
463.10 1.296
463.20 1.295
463.30 1.294
463.40 1.293
463.50 1.292
463.60 1.291
463.70 1.29
463.80 1.289
463.90 1.288
464.00 1.287
464.10 1.286
464.20 1.285
464.30 1.284
464.40 1.283
464.50 1.282
464.60 1.281
464.70 1.281
464.80 1.28
464.90 1.279
465.00 1.278
465.10 1.277
465.20 1.276
465.30 1.275
465.40 1.274
465.50 1.273
465.60 1.272
465.70 1.271
465.80 1.27
465.90 1.269
466.00 1.268
466.10 1.267
466.20 1.266
466.30 1.265
466.40 1.264
466.50 1.263
466.60 1.262
466.70 1.261
466.80 1.26
466.90 1.259
467.00 1.258
467.10 1.257
467.20 1.256
467.30 1.255
467.40 1.254
467.50 1.253
467.60 1.252
467.70 1.251
467.80 1.25
467.90 1.249
468.00 1.248
468.10 1.247
468.20 1.246
468.30 1.245
468.40 1.244
468.50 1.243
468.60 1.242
468.70 1.241
468.80 1.24
468.90 1.239
469.00 1.238
469.10 1.237
469.20 1.236
469.30 1.235
469.40 1.234
469.50 1.233
469.60 1.232
469.70 1.231
469.80 1.23
469.90 1.229
470.00 1.228
470.10 1.227
470.20 1.226
470.30 1.225
470.40 1.224
470.50 1.223
470.60 1.222
470.70 1.221
470.80 1.22
470.90 1.219
471.00 1.218
471.10 1.217
471.20 1.216
471.30 1.215
471.40 1.214
471.50 1.213
471.60 1.211
471.70 1.21
471.80 1.209
471.90 1.208
472.00 1.207
472.10 1.206
472.20 1.205
472.30 1.204
472.40 1.203
472.50 1.202
472.60 1.2
472.70 1.199
472.80 1.198
472.90 1.197
473.00 1.196
473.10 1.195
473.20 1.194
473.30 1.192
473.40 1.191
473.50 1.19
473.60 1.189
473.70 1.188
473.80 1.186
473.90 1.185
474.00 1.184
474.10 1.183
474.20 1.181
474.30 1.18
474.40 1.179
474.50 1.177
474.60 1.176
474.70 1.175
474.80 1.174
474.90 1.172
475.00 1.171
475.10 1.17
475.20 1.168
475.30 1.167
475.40 1.165
475.50 1.164
475.60 1.162
475.70 1.161
475.80 1.16
475.90 1.158
476.00 1.157
476.10 1.155
476.20 1.154
476.30 1.152
476.40 1.15
476.50 1.149
476.60 1.147
476.70 1.145
476.80 1.144
476.90 1.142
477.00 1.14
477.10 1.139
477.20 1.137
477.30 1.135
477.40 1.133
477.50 1.131
477.60 1.129
477.70 1.127
477.80 1.125
477.90 1.123
478.00 1.121
478.10 1.119
478.20 1.117
478.30 1.115
478.40 1.112
478.50 1.11
478.60 1.108
478.70 1.105
478.80 1.103
478.90 1.1
479.00 1.098
479.10 1.096
479.20 1.093
479.30 1.09
479.40 1.087
479.50 1.084
479.60 1.081
479.70 1.078
479.80 1.075
479.90 1.072
480.00 1.069
480.10 1.066
480.20 1.062
480.30 1.058
480.40 1.054
480.50 1.05
480.60 1.046
480.70 1.042
480.80 1.038
480.90 1.034
481.00 1.03
481.10 1.026
481.20 1.021
481.30 1.015
481.40 1.01
481.50 1.004
481.60 0.9989
481.70 0.9934
481.80 0.9879
481.90 0.9824
482.00 0.977
482.10 0.9715
482.20 0.9646
482.30 0.957
482.40 0.9495
482.50 0.9419
482.60 0.9344
482.70 0.9268
482.80 0.9193
482.90 0.9118
483.00 0.9043
483.10 0.8967
483.20 0.8873
483.30 0.877
483.40 0.8667
483.50 0.8565
483.60 0.8462
483.70 0.8359
483.80 0.8257
483.90 0.8154
484.00 0.8052
484.10 0.795
484.20 0.7833
484.30 0.771
484.40 0.7587
484.50 0.7463
484.60 0.734
484.70 0.7209
484.80 0.7073
484.90 0.6937
485.00 0.6801
485.10 0.6666
485.20 0.6526
485.30 0.6384
485.40 0.6234
485.50 0.608
485.60 0.5915
485.70 0.5744
485.80 0.5544
485.90 0.533
486.00 0.504
486.10 0.4099
486.20 0.4589
486.30 0.5154
486.40 0.5388
486.50 0.5599
486.60 0.5778
486.70 0.5943
486.80 0.6095
486.90 0.6242
487.00 0.6381
487.10 0.6515
487.20 0.6645
487.30 0.6772
487.40 0.6899
487.50 0.7026
487.60 0.7152
487.70 0.727
487.80 0.7383
487.90 0.7495
488.00 0.7608
488.10 0.772
488.20 0.7817
488.30 0.7908
488.40 0.7998
488.50 0.8087
488.60 0.8177
488.70 0.8267
488.80 0.8357
488.90 0.8446
489.00 0.8536
489.10 0.8625
489.20 0.8695
489.30 0.8756
489.40 0.8817
489.50 0.8878
489.60 0.8938
489.70 0.8999
489.80 0.9059
489.90 0.912
490.00 0.918
490.10 0.924
490.20 0.9286
490.30 0.9325
490.40 0.9364
490.50 0.9403
490.60 0.9441
490.70 0.948
490.80 0.9519
490.90 0.9558
491.00 0.9596
491.10 0.9635
491.20 0.9663
491.30 0.9687
491.40 0.971
491.50 0.9734
491.60 0.9757
491.70 0.9781
491.80 0.9804
491.90 0.9827
492.00 0.9851
492.10 0.9874
492.20 0.9891
492.30 0.9905
492.40 0.9918
492.50 0.9932
492.60 0.9946
492.70 0.9959
492.80 0.9973
492.90 0.9987
493.00 1
493.10 1.001
493.20 1.002
493.30 1.003
493.40 1.004
493.50 1.005
493.60 1.005
493.70 1.006
493.80 1.007
493.90 1.008
494.00 1.008
494.10 1.009
494.20 1.009
494.30 1.01
494.40 1.01
494.50 1.01
494.60 1.011
494.70 1.011
494.80 1.011
494.90 1.011
495.00 1.012
495.10 1.012
495.20 1.012
495.30 1.012
495.40 1.012
495.50 1.012
495.60 1.012
495.70 1.012
495.80 1.012
495.90 1.012
496.00 1.012
496.10 1.012
496.20 1.012
496.30 1.012
496.40 1.012
496.50 1.012
496.60 1.012
496.70 1.011
496.80 1.011
496.90 1.011
497.00 1.011
497.10 1.011
497.20 1.01
497.30 1.01
497.40 1.01
497.50 1.01
497.60 1.009
497.70 1.009
497.80 1.009
497.90 1.008
498.00 1.008
498.10 1.008
498.20 1.007
498.30 1.007
498.40 1.007
498.50 1.006
498.60 1.006
498.70 1.006
498.80 1.005
498.90 1.005
499.00 1.004
499.10 1.004
499.20 1.004
499.30 1.003
499.40 1.003
499.50 1.002
499.60 1.002
499.70 1.001
499.80 1.001
499.90 1
500.00 1
500.10 0.9996
500.20 0.9991
500.30 0.9986
500.40 0.9981
500.50 0.9976
500.60 0.9971
500.70 0.9966
500.80 0.9961
500.90 0.9956
501.00 0.9951
501.10 0.9946
501.20 0.9941
501.30 0.9936
501.40 0.993
501.50 0.9925
501.60 0.992
501.70 0.9915
501.80 0.9909
501.90 0.9904
502.00 0.9899
502.10 0.9894
502.20 0.9888
502.30 0.9883
502.40 0.9877
502.50 0.9872
502.60 0.9866
502.70 0.9861
502.80 0.9855
502.90 0.985
503.00 0.9844
503.10 0.9839
503.20 0.9833
503.30 0.9828
503.40 0.9822
503.50 0.9817
503.60 0.9811
503.70 0.9805
503.80 0.98
503.90 0.9794
504.00 0.9789
504.10 0.9783
504.20 0.9777
504.30 0.9772
504.40 0.9766
504.50 0.976
504.60 0.9754
504.70 0.9749
504.80 0.9743
504.90 0.9737
505.00 0.9732
505.10 0.9726
505.20 0.972
505.30 0.9714
505.40 0.9708
505.50 0.9703
505.60 0.9697
505.70 0.9691
505.80 0.9685
505.90 0.9679
506.00 0.9673
506.10 0.9668
506.20 0.9662
506.30 0.9656
506.40 0.965
506.50 0.9644
506.60 0.9638
506.70 0.9632
506.80 0.9626
506.90 0.962
507.00 0.9615
507.10 0.9609
507.20 0.9603
507.30 0.9597
507.40 0.9591
507.50 0.9585
507.60 0.9579
507.70 0.9574
507.80 0.9568
507.90 0.9562
508.00 0.9556
508.10 0.955
508.20 0.9544
508.30 0.9538
508.40 0.9532
508.50 0.9526
508.60 0.952
508.70 0.9514
508.80 0.9509
508.90 0.9503
509.00 0.9497
509.10 0.9491
509.20 0.9485
509.30 0.9479
509.40 0.9473
509.50 0.9467
509.60 0.9461
509.70 0.9456
509.80 0.945
509.90 0.9444
510.00 0.9438
510.10 0.9432
510.20 0.9426
510.30 0.942
510.40 0.9414
510.50 0.9408
510.60 0.9402
510.70 0.9396
510.80 0.939
510.90 0.9384
511.00 0.9379
511.10 0.9373
511.20 0.9367
511.30 0.9361
511.40 0.9355
511.50 0.9349
511.60 0.9343
511.70 0.9337
511.80 0.9332
511.90 0.9326
512.00 0.932
512.10 0.9314
512.20 0.9308
512.30 0.9302
512.40 0.9296
512.50 0.929
512.60 0.9285
512.70 0.9279
512.80 0.9273
512.90 0.9267
513.00 0.9261
513.10 0.9255
513.20 0.9249
513.30 0.9243
513.40 0.9238
513.50 0.9232
513.60 0.9226
513.70 0.922
513.80 0.9214
513.90 0.9208
514.00 0.9203
514.10 0.9197
514.20 0.9191
514.30 0.9185
514.40 0.9179
514.50 0.9173
514.60 0.9168
514.70 0.9162
514.80 0.9156
514.90 0.915
515.00 0.9144
515.10 0.9139
515.20 0.9133
515.30 0.9127
515.40 0.9121
515.50 0.9115
515.60 0.9109
515.70 0.9103
515.80 0.9098
515.90 0.9092
516.00 0.9086
516.10 0.908
516.20 0.9074
516.30 0.9069
516.40 0.9063
516.50 0.9057
516.60 0.9051
516.70 0.9046
516.80 0.904
516.90 0.9034
517.00 0.9028
517.10 0.9023
517.20 0.9017
517.30 0.9011
517.40 0.9006
517.50 0.9
517.60 0.8994
517.70 0.8989
517.80 0.8983
517.90 0.8977
518.00 0.8971
518.10 0.8966
518.20 0.896
518.30 0.8954
518.40 0.8949
518.50 0.8943
518.60 0.8937
518.70 0.8931
518.80 0.8926
518.90 0.892
519.00 0.8914
519.10 0.8908
519.20 0.8903
519.30 0.8897
519.40 0.8892
519.50 0.8886
519.60 0.888
519.70 0.8875
519.80 0.8869
519.90 0.8863
520.00 0.8858
520.10 0.8852
520.20 0.8847
520.30 0.8841
520.40 0.8835
520.50 0.883
520.60 0.8824
520.70 0.8818
520.80 0.8813
520.90 0.8807
521.00 0.8801
521.10 0.8796
521.20 0.879
521.30 0.8784
521.40 0.8779
521.50 0.8773
521.60 0.8768
521.70 0.8762
521.80 0.8757
521.90 0.8751
522.00 0.8746
522.10 0.874
522.20 0.8735
522.30 0.8729
522.40 0.8723
522.50 0.8718
522.60 0.8712
522.70 0.8707
522.80 0.8701
522.90 0.8696
523.00 0.869
523.10 0.8685
523.20 0.8679
523.30 0.8674
523.40 0.8668
523.50 0.8663
523.60 0.8657
523.70 0.8652
523.80 0.8646
523.90 0.8641
524.00 0.8635
524.10 0.8629
524.20 0.8624
524.30 0.8619
524.40 0.8613
524.50 0.8608
524.60 0.8602
524.70 0.8597
524.80 0.8591
524.90 0.8586
525.00 0.858
525.10 0.8575
525.20 0.857
525.30 0.8564
525.40 0.8559
525.50 0.8553
525.60 0.8548
525.70 0.8543
525.80 0.8537
525.90 0.8532
526.00 0.8526
526.10 0.8521
526.20 0.8516
526.30 0.851
526.40 0.8505
526.50 0.8499
526.60 0.8494
526.70 0.8489
526.80 0.8483
526.90 0.8478
527.00 0.8473
527.10 0.8467
527.20 0.8462
527.30 0.8457
527.40 0.8451
527.50 0.8446
527.60 0.844
527.70 0.8435
527.80 0.843
527.90 0.8424
528.00 0.8419
528.10 0.8414
528.20 0.8409
528.30 0.8403
528.40 0.8398
528.50 0.8393
528.60 0.8387
528.70 0.8382
528.80 0.8377
528.90 0.8371
529.00 0.8366
529.10 0.8361
529.20 0.8356
529.30 0.835
529.40 0.8345
529.50 0.834
529.60 0.8334
529.70 0.8329
529.80 0.8324
529.90 0.8319
530.00 0.8313
530.10 0.8308
530.20 0.8303
530.30 0.8298
530.40 0.8292
530.50 0.8287
530.60 0.8282
530.70 0.8277
530.80 0.8271
530.90 0.8266
531.00 0.8261
531.10 0.8256
531.20 0.8251
531.30 0.8245
531.40 0.824
531.50 0.8235
531.60 0.823
531.70 0.8225
531.80 0.822
531.90 0.8215
532.00 0.821
532.10 0.8204
532.20 0.8199
532.30 0.8194
532.40 0.8189
532.50 0.8184
532.60 0.8179
532.70 0.8173
532.80 0.8168
532.90 0.8163
533.00 0.8158
533.10 0.8153
533.20 0.8148
533.30 0.8142
533.40 0.8137
533.50 0.8132
533.60 0.8127
533.70 0.8122
533.80 0.8117
533.90 0.8112
534.00 0.8107
534.10 0.8101
534.20 0.8096
534.30 0.8091
534.40 0.8086
534.50 0.8081
534.60 0.8076
534.70 0.8071
534.80 0.8066
534.90 0.8061
535.00 0.8056
535.10 0.8051
535.20 0.8046
535.30 0.8041
535.40 0.8036
535.50 0.8031
535.60 0.8026
535.70 0.8021
535.80 0.8016
535.90 0.801
536.00 0.8005
536.10 0.8
536.20 0.7995
536.30 0.799
536.40 0.7985
536.50 0.798
536.60 0.7975
536.70 0.797
536.80 0.7966
536.90 0.7961
537.00 0.7956
537.10 0.7951
537.20 0.7946
537.30 0.7941
537.40 0.7936
537.50 0.7931
537.60 0.7926
537.70 0.7921
537.80 0.7916
537.90 0.7911
538.00 0.7906
538.10 0.7901
538.20 0.7896
538.30 0.7891
538.40 0.7887
538.50 0.7882
538.60 0.7877
538.70 0.7872
538.80 0.7867
538.90 0.7862
539.00 0.7857
539.10 0.7852
539.20 0.7847
539.30 0.7842
539.40 0.7838
539.50 0.7833
539.60 0.7828
539.70 0.7823
539.80 0.7818
539.90 0.7813
540.00 0.7808
540.10 0.7803
540.20 0.7799
540.30 0.7794
540.40 0.7789
540.50 0.7784
540.60 0.7779
540.70 0.7774
540.80 0.777
540.90 0.7765
541.00 0.776
541.10 0.7755
541.20 0.775
541.30 0.7745
541.40 0.7741
541.50 0.7736
541.60 0.7731
541.70 0.7726
541.80 0.7721
541.90 0.7716
542.00 0.7712
542.10 0.7707
542.20 0.7702
542.30 0.7697
542.40 0.7692
542.50 0.7688
542.60 0.7683
542.70 0.7678
542.80 0.7673
542.90 0.7669
543.00 0.7664
543.10 0.7659
543.20 0.7654
543.30 0.765
543.40 0.7645
543.50 0.764
543.60 0.7636
543.70 0.7631
543.80 0.7626
543.90 0.7622
544.00 0.7617
544.10 0.7612
544.20 0.7607
544.30 0.7603
544.40 0.7598
544.50 0.7593
544.60 0.7589
544.70 0.7584
544.80 0.7579
544.90 0.7574
545.00 0.757
545.10 0.7565
545.20 0.756
545.30 0.7556
545.40 0.7551
545.50 0.7546
545.60 0.7542
545.70 0.7537
545.80 0.7533
545.90 0.7528
546.00 0.7523
546.10 0.7519
546.20 0.7514
546.30 0.751
546.40 0.7505
546.50 0.7501
546.60 0.7496
546.70 0.7492
546.80 0.7487
546.90 0.7483
547.00 0.7478
547.10 0.7474
547.20 0.7469
547.30 0.7465
547.40 0.746
547.50 0.7456
547.60 0.7451
547.70 0.7446
547.80 0.7442
547.90 0.7437
548.00 0.7432
548.10 0.7428
548.20 0.7423
548.30 0.7419
548.40 0.7414
548.50 0.7409
548.60 0.7405
548.70 0.74
548.80 0.7396
548.90 0.7391
549.00 0.7387
549.10 0.7382
549.20 0.7378
549.30 0.7373
549.40 0.7369
549.50 0.7364
549.60 0.736
549.70 0.7355
549.80 0.7351
549.90 0.7346
550.00 0.7342
550.10 0.7337
550.20 0.7333
550.30 0.7328
550.40 0.7324
550.50 0.7319
550.60 0.7315
550.70 0.731
550.80 0.7306
550.90 0.7301
551.00 0.7297
551.10 0.7292
551.20 0.7288
551.30 0.7283
551.40 0.7279
551.50 0.7274
551.60 0.727
551.70 0.7266
551.80 0.7261
551.90 0.7257
552.00 0.7252
552.10 0.7248
552.20 0.7243
552.30 0.7239
552.40 0.7234
552.50 0.723
552.60 0.7226
552.70 0.7221
552.80 0.7217
552.90 0.7212
553.00 0.7208
553.10 0.7203
553.20 0.7199
553.30 0.7195
553.40 0.719
553.50 0.7186
553.60 0.7181
553.70 0.7177
553.80 0.7173
553.90 0.7168
554.00 0.7164
554.10 0.7159
554.20 0.7155
554.30 0.7151
554.40 0.7146
554.50 0.7142
554.60 0.7138
554.70 0.7133
554.80 0.7129
554.90 0.7125
555.00 0.7121
555.10 0.7116
555.20 0.7112
555.30 0.7108
555.40 0.7103
555.50 0.7099
555.60 0.7095
555.70 0.709
555.80 0.7086
555.90 0.7082
556.00 0.7077
556.10 0.7073
556.20 0.7069
556.30 0.7064
556.40 0.706
556.50 0.7056
556.60 0.7051
556.70 0.7047
556.80 0.7043
556.90 0.7039
557.00 0.7034
557.10 0.703
557.20 0.7026
557.30 0.7022
557.40 0.7018
557.50 0.7013
557.60 0.7009
557.70 0.7005
557.80 0.7001
557.90 0.6996
558.00 0.6992
558.10 0.6988
558.20 0.6984
558.30 0.6979
558.40 0.6975
558.50 0.6971
558.60 0.6967
558.70 0.6962
558.80 0.6958
558.90 0.6954
559.00 0.695
559.10 0.6945
559.20 0.6941
559.30 0.6937
559.40 0.6933
559.50 0.6928
559.60 0.6924
559.70 0.692
559.80 0.6916
559.90 0.6912
560.00 0.6908
560.10 0.6903
560.20 0.6899
560.30 0.6895
560.40 0.6891
560.50 0.6887
560.60 0.6883
560.70 0.6878
560.80 0.6874
560.90 0.687
561.00 0.6866
561.10 0.6862
561.20 0.6858
561.30 0.6854
561.40 0.685
561.50 0.6846
561.60 0.6842
561.70 0.6837
561.80 0.6833
561.90 0.6829
562.00 0.6825
562.10 0.6821
562.20 0.6817
562.30 0.6813
562.40 0.6809
562.50 0.6805
562.60 0.6801
562.70 0.6797
562.80 0.6793
562.90 0.6788
563.00 0.6784
563.10 0.678
563.20 0.6776
563.30 0.6772
563.40 0.6768
563.50 0.6764
563.60 0.676
563.70 0.6756
563.80 0.6752
563.90 0.6748
564.00 0.6744
564.10 0.6739
564.20 0.6735
564.30 0.6731
564.40 0.6727
564.50 0.6723
564.60 0.6719
564.70 0.6715
564.80 0.6711
564.90 0.6707
565.00 0.6703
565.10 0.6699
565.20 0.6695
565.30 0.6691
565.40 0.6687
565.50 0.6683
565.60 0.6679
565.70 0.6675
565.80 0.6671
565.90 0.6667
566.00 0.6663
566.10 0.6659
566.20 0.6655
566.30 0.6651
566.40 0.6647
566.50 0.6643
566.60 0.6639
566.70 0.6635
566.80 0.6631
566.90 0.6627
567.00 0.6623
567.10 0.6619
567.20 0.6615
567.30 0.6611
567.40 0.6607
567.50 0.6603
567.60 0.66
567.70 0.6596
567.80 0.6592
567.90 0.6588
568.00 0.6584
568.10 0.658
568.20 0.6576
568.30 0.6572
568.40 0.6568
568.50 0.6564
568.60 0.656
568.70 0.6557
568.80 0.6553
568.90 0.6549
569.00 0.6545
569.10 0.6541
569.20 0.6537
569.30 0.6533
569.40 0.6529
569.50 0.6526
569.60 0.6522
569.70 0.6518
569.80 0.6514
569.90 0.651
570.00 0.6506
570.10 0.6502
570.20 0.6498
570.30 0.6495
570.40 0.6491
570.50 0.6487
570.60 0.6483
570.70 0.6479
570.80 0.6475
570.90 0.6472
571.00 0.6468
571.10 0.6464
571.20 0.646
571.30 0.6456
571.40 0.6452
571.50 0.6449
571.60 0.6445
571.70 0.6441
571.80 0.6437
571.90 0.6433
572.00 0.6429
572.10 0.6426
572.20 0.6422
572.30 0.6418
572.40 0.6414
572.50 0.641
572.60 0.6407
572.70 0.6403
572.80 0.6399
572.90 0.6395
573.00 0.6391
573.10 0.6388
573.20 0.6384
573.30 0.638
573.40 0.6376
573.50 0.6372
573.60 0.6369
573.70 0.6365
573.80 0.6361
573.90 0.6357
574.00 0.6354
574.10 0.635
574.20 0.6346
574.30 0.6342
574.40 0.6338
574.50 0.6335
574.60 0.6331
574.70 0.6327
574.80 0.6323
574.90 0.632
575.00 0.6316
575.10 0.6312
575.20 0.6308
575.30 0.6305
575.40 0.6301
575.50 0.6297
575.60 0.6294
575.70 0.629
575.80 0.6286
575.90 0.6283
576.00 0.6279
576.10 0.6275
576.20 0.6272
576.30 0.6268
576.40 0.6264
576.50 0.6261
576.60 0.6257
576.70 0.6253
576.80 0.6249
576.90 0.6246
577.00 0.6242
577.10 0.6238
577.20 0.6235
577.30 0.6231
577.40 0.6227
577.50 0.6224
577.60 0.622
577.70 0.6216
577.80 0.6213
577.90 0.6209
578.00 0.6206
578.10 0.6202
578.20 0.6198
578.30 0.6195
578.40 0.6191
578.50 0.6188
578.60 0.6184
578.70 0.618
578.80 0.6177
578.90 0.6173
579.00 0.617
579.10 0.6166
579.20 0.6162
579.30 0.6159
579.40 0.6155
579.50 0.6151
579.60 0.6148
579.70 0.6144
579.80 0.614
579.90 0.6137
580.00 0.6133
580.10 0.6129
580.20 0.6126
580.30 0.6122
580.40 0.6119
580.50 0.6115
580.60 0.6112
580.70 0.6108
580.80 0.6104
580.90 0.6101
581.00 0.6097
581.10 0.6094
581.20 0.609
581.30 0.6087
581.40 0.6083
581.50 0.608
581.60 0.6076
581.70 0.6072
581.80 0.6069
581.90 0.6065
582.00 0.6062
582.10 0.6058
582.20 0.6055
582.30 0.6051
582.40 0.6048
582.50 0.6044
582.60 0.6041
582.70 0.6037
582.80 0.6034
582.90 0.603
583.00 0.6027
583.10 0.6023
583.20 0.602
583.30 0.6016
583.40 0.6013
583.50 0.6009
583.60 0.6006
583.70 0.6002
583.80 0.5999
583.90 0.5995
584.00 0.5992
584.10 0.5988
584.20 0.5985
584.30 0.5981
584.40 0.5978
584.50 0.5974
584.60 0.5971
584.70 0.5967
584.80 0.5964
584.90 0.596
585.00 0.5957
585.10 0.5953
585.20 0.595
585.30 0.5947
585.40 0.5943
585.50 0.594
585.60 0.5936
585.70 0.5933
585.80 0.5929
585.90 0.5926
586.00 0.5922
586.10 0.5919
586.20 0.5916
586.30 0.5912
586.40 0.5909
586.50 0.5905
586.60 0.5902
586.70 0.5898
586.80 0.5895
586.90 0.5892
587.00 0.5888
587.10 0.5885
587.20 0.5881
587.30 0.5878
587.40 0.5875
587.50 0.5871
587.60 0.5868
587.70 0.5864
587.80 0.5861
587.90 0.5858
588.00 0.5854
588.10 0.5851
588.20 0.5847
588.30 0.5844
588.40 0.5841
588.50 0.5837
588.60 0.5834
588.70 0.5831
588.80 0.5827
588.90 0.5824
589.00 0.582
589.10 0.5817
589.20 0.5814
589.30 0.581
589.40 0.5807
589.50 0.5804
589.60 0.58
589.70 0.5797
589.80 0.5794
589.90 0.579
590.00 0.5787
590.10 0.5784
590.20 0.578
590.30 0.5777
590.40 0.5774
590.50 0.577
590.60 0.5767
590.70 0.5764
590.80 0.576
590.90 0.5757
591.00 0.5754
591.10 0.575
591.20 0.5747
591.30 0.5744
591.40 0.5741
591.50 0.5737
591.60 0.5734
591.70 0.5731
591.80 0.5727
591.90 0.5724
592.00 0.5721
592.10 0.5717
592.20 0.5714
592.30 0.5711
592.40 0.5708
592.50 0.5704
592.60 0.5701
592.70 0.5698
592.80 0.5694
592.90 0.5691
593.00 0.5688
593.10 0.5685
593.20 0.5681
593.30 0.5678
593.40 0.5675
593.50 0.5672
593.60 0.5668
593.70 0.5665
593.80 0.5662
593.90 0.5659
594.00 0.5655
594.10 0.5652
594.20 0.5649
594.30 0.5646
594.40 0.5642
594.50 0.5639
594.60 0.5636
594.70 0.5633
594.80 0.563
594.90 0.5626
595.00 0.5623
595.10 0.562
595.20 0.5617
595.30 0.5613
595.40 0.561
595.50 0.5607
595.60 0.5604
595.70 0.5601
595.80 0.5597
595.90 0.5594
596.00 0.5591
596.10 0.5588
596.20 0.5585
596.30 0.5581
596.40 0.5578
596.50 0.5574
596.60 0.5571
596.70 0.5567
596.80 0.5564
596.90 0.556
597.00 0.5557
597.10 0.5554
597.20 0.555
597.30 0.5547
597.40 0.5544
597.50 0.5541
597.60 0.5538
597.70 0.5534
597.80 0.5531
597.90 0.5528
598.00 0.5525
598.10 0.5522
598.20 0.5519
598.30 0.5516
598.40 0.5512
598.50 0.5509
598.60 0.5506
598.70 0.5503
598.80 0.55
598.90 0.5497
599.00 0.5494
599.10 0.549
599.20 0.5487
599.30 0.5484
599.40 0.5481
599.50 0.5478
599.60 0.5475
599.70 0.5472
599.80 0.5468
599.90 0.5465
600.00 0.5462
600.10 0.5459
600.20 0.5456
600.30 0.5453
600.40 0.545
600.50 0.5447
600.60 0.5444
600.70 0.5441
600.80 0.5437
600.90 0.5434
601.00 0.5431
601.10 0.5428
601.20 0.5425
601.30 0.5422
601.40 0.5419
601.50 0.5416
601.60 0.5413
601.70 0.541
601.80 0.5407
601.90 0.5404
602.00 0.54
602.10 0.5397
602.20 0.5394
602.30 0.5391
602.40 0.5388
602.50 0.5385
602.60 0.5382
602.70 0.5379
602.80 0.5376
602.90 0.5373
603.00 0.537
603.10 0.5367
603.20 0.5364
603.30 0.5361
603.40 0.5358
603.50 0.5355
603.60 0.5352
603.70 0.5349
603.80 0.5346
603.90 0.5343
604.00 0.534
604.10 0.5336
604.20 0.5333
604.30 0.533
604.40 0.5327
604.50 0.5324
604.60 0.5321
604.70 0.5318
604.80 0.5315
604.90 0.5312
605.00 0.5309
605.10 0.5306
605.20 0.5303
605.30 0.53
605.40 0.5297
605.50 0.5294
605.60 0.5291
605.70 0.5288
605.80 0.5285
605.90 0.5282
606.00 0.5279
606.10 0.5276
606.20 0.5273
606.30 0.527
606.40 0.5267
606.50 0.5264
606.60 0.5261
606.70 0.5258
606.80 0.5256
606.90 0.5253
607.00 0.525
607.10 0.5247
607.20 0.5244
607.30 0.5241
607.40 0.5238
607.50 0.5235
607.60 0.5232
607.70 0.5229
607.80 0.5226
607.90 0.5223
608.00 0.522
608.10 0.5217
608.20 0.5214
608.30 0.5211
608.40 0.5208
608.50 0.5205
608.60 0.5202
608.70 0.5199
608.80 0.5197
608.90 0.5194
609.00 0.5191
609.10 0.5188
609.20 0.5185
609.30 0.5182
609.40 0.5179
609.50 0.5176
609.60 0.5173
609.70 0.517
609.80 0.5167
609.90 0.5164
610.00 0.5161
610.10 0.5159
610.20 0.5156
610.30 0.5153
610.40 0.515
610.50 0.5147
610.60 0.5144
610.70 0.5141
610.80 0.5138
610.90 0.5135
611.00 0.5133
611.10 0.513
611.20 0.5127
611.30 0.5124
611.40 0.5121
611.50 0.5118
611.60 0.5115
611.70 0.5112
611.80 0.511
611.90 0.5107
612.00 0.5104
612.10 0.5101
612.20 0.5098
612.30 0.5095
612.40 0.5092
612.50 0.5089
612.60 0.5087
612.70 0.5084
612.80 0.5081
612.90 0.5078
613.00 0.5075
613.10 0.5072
613.20 0.5069
613.30 0.5067
613.40 0.5064
613.50 0.5061
613.60 0.5058
613.70 0.5055
613.80 0.5052
613.90 0.505
614.00 0.5047
614.10 0.5044
614.20 0.5041
614.30 0.5038
614.40 0.5035
614.50 0.5033
614.60 0.503
614.70 0.5027
614.80 0.5024
614.90 0.5021
615.00 0.5019
615.10 0.5016
615.20 0.5013
615.30 0.501
615.40 0.5007
615.50 0.5004
615.60 0.5002
615.70 0.4999
615.80 0.4996
615.90 0.4993
616.00 0.499
616.10 0.4988
616.20 0.4985
616.30 0.4982
616.40 0.4979
616.50 0.4976
616.60 0.4974
616.70 0.4971
616.80 0.4968
616.90 0.4965
617.00 0.4963
617.10 0.496
617.20 0.4957
617.30 0.4954
617.40 0.4951
617.50 0.4949
617.60 0.4946
617.70 0.4943
617.80 0.494
617.90 0.4938
618.00 0.4935
618.10 0.4932
618.20 0.4929
618.30 0.4927
618.40 0.4924
618.50 0.4921
618.60 0.4918
618.70 0.4916
618.80 0.4913
618.90 0.491
619.00 0.4907
619.10 0.4905
619.20 0.4902
619.30 0.4899
619.40 0.4896
619.50 0.4894
619.60 0.4891
619.70 0.4888
619.80 0.4885
619.90 0.4883
620.00 0.488
620.10 0.4877
620.20 0.4874
620.30 0.4872
620.40 0.4869
620.50 0.4866
620.60 0.4864
620.70 0.4861
620.80 0.4858
620.90 0.4855
621.00 0.4853
621.10 0.485
621.20 0.4847
621.30 0.4845
621.40 0.4842
621.50 0.4839
621.60 0.4836
621.70 0.4834
621.80 0.4831
621.90 0.4828
622.00 0.4826
622.10 0.4823
622.20 0.482
622.30 0.4817
622.40 0.4815
622.50 0.4812
622.60 0.4809
622.70 0.4807
622.80 0.4804
622.90 0.4801
623.00 0.4799
623.10 0.4796
623.20 0.4793
623.30 0.4791
623.40 0.4788
623.50 0.4785
623.60 0.4782
623.70 0.478
623.80 0.4777
623.90 0.4774
624.00 0.4772
624.10 0.4769
624.20 0.4766
624.30 0.4764
624.40 0.4761
624.50 0.4758
624.60 0.4756
624.70 0.4753
624.80 0.475
624.90 0.4748
625.00 0.4745
625.10 0.4742
625.20 0.474
625.30 0.4737
625.40 0.4734
625.50 0.4732
625.60 0.4729
625.70 0.4727
625.80 0.4724
625.90 0.4721
626.00 0.4719
626.10 0.4716
626.20 0.4713
626.30 0.4711
626.40 0.4708
626.50 0.4705
626.60 0.4703
626.70 0.47
626.80 0.4697
626.90 0.4695
627.00 0.4692
627.10 0.4689
627.20 0.4687
627.30 0.4684
627.40 0.4682
627.50 0.4679
627.60 0.4676
627.70 0.4674
627.80 0.4671
627.90 0.4668
628.00 0.4666
628.10 0.4663
628.20 0.4661
628.30 0.4658
628.40 0.4655
628.50 0.4653
628.60 0.465
628.70 0.4647
628.80 0.4645
628.90 0.4642
629.00 0.464
629.10 0.4637
629.20 0.4634
629.30 0.4632
629.40 0.4629
629.50 0.4626
629.60 0.4624
629.70 0.4621
629.80 0.4619
629.90 0.4616
630.00 0.4613
630.10 0.4611
630.20 0.4608
630.30 0.4606
630.40 0.4603
630.50 0.46
630.60 0.4598
630.70 0.4595
630.80 0.4592
630.90 0.459
631.00 0.4587
631.10 0.4585
631.20 0.4582
631.30 0.4579
631.40 0.4577
631.50 0.4574
631.60 0.4572
631.70 0.4569
631.80 0.4566
631.90 0.4564
632.00 0.4561
632.10 0.4559
632.20 0.4556
632.30 0.4553
632.40 0.4551
632.50 0.4548
632.60 0.4545
632.70 0.4543
632.80 0.454
632.90 0.4538
633.00 0.4535
633.10 0.4532
633.20 0.453
633.30 0.4527
633.40 0.4525
633.50 0.4522
633.60 0.4519
633.70 0.4517
633.80 0.4514
633.90 0.4512
634.00 0.4509
634.10 0.4506
634.20 0.4504
634.30 0.4501
634.40 0.4498
634.50 0.4496
634.60 0.4493
634.70 0.4491
634.80 0.4488
634.90 0.4485
635.00 0.4483
635.10 0.448
635.20 0.4477
635.30 0.4475
635.40 0.4472
635.50 0.447
635.60 0.4467
635.70 0.4464
635.80 0.4462
635.90 0.4459
636.00 0.4456
636.10 0.4454
636.20 0.4451
636.30 0.4448
636.40 0.4446
636.50 0.4443
636.60 0.444
636.70 0.4438
636.80 0.4435
636.90 0.4432
637.00 0.443
637.10 0.4427
637.20 0.4424
637.30 0.4422
637.40 0.4419
637.50 0.4416
637.60 0.4414
637.70 0.4411
637.80 0.4408
637.90 0.4406
638.00 0.4403
638.10 0.44
638.20 0.4398
638.30 0.4395
638.40 0.4392
638.50 0.4389
638.60 0.4387
638.70 0.4384
638.80 0.4381
638.90 0.4378
639.00 0.4376
639.10 0.4373
639.20 0.437
639.30 0.4367
639.40 0.4365
639.50 0.4362
639.60 0.4359
639.70 0.4356
639.80 0.4353
639.90 0.4351
640.00 0.4348
640.10 0.4345
640.20 0.4342
640.30 0.4339
640.40 0.4337
640.50 0.4334
640.60 0.4331
640.70 0.4328
640.80 0.4325
640.90 0.4322
641.00 0.4319
641.10 0.4316
641.20 0.4313
641.30 0.4311
641.40 0.4308
641.50 0.4305
641.60 0.4302
641.70 0.4299
641.80 0.4296
641.90 0.4293
642.00 0.429
642.10 0.4287
642.20 0.4284
642.30 0.4281
642.40 0.4278
642.50 0.4274
642.60 0.4271
642.70 0.4268
642.80 0.4265
642.90 0.4262
643.00 0.4259
643.10 0.4256
643.20 0.4253
643.30 0.4249
643.40 0.4246
643.50 0.4243
643.60 0.4239
643.70 0.4236
643.80 0.4233
643.90 0.4229
644.00 0.4226
644.10 0.4223
644.20 0.4219
644.30 0.4216
644.40 0.4212
644.50 0.4209
644.60 0.4205
644.70 0.4202
644.80 0.4198
644.90 0.4194
645.00 0.4191
645.10 0.4187
645.20 0.4184
645.30 0.418
645.40 0.4176
645.50 0.4172
645.60 0.4168
645.70 0.4164
645.80 0.416
645.90 0.4156
646.00 0.4152
646.10 0.4148
646.20 0.4144
646.30 0.414
646.40 0.4135
646.50 0.4131
646.60 0.4126
646.70 0.4122
646.80 0.4117
646.90 0.4113
647.00 0.4108
647.10 0.4104
647.20 0.4099
647.30 0.4095
647.40 0.4089
647.50 0.4084
647.60 0.4079
647.70 0.4074
647.80 0.4068
647.90 0.4063
648.00 0.4058
648.10 0.4052
648.20 0.4047
648.30 0.4042
648.40 0.4035
648.50 0.4029
648.60 0.4023
648.70 0.4016
648.80 0.401
648.90 0.4003
649.00 0.3997
649.10 0.3991
649.20 0.3984
649.30 0.3977
649.40 0.3969
649.50 0.3962
649.60 0.3954
649.70 0.3946
649.80 0.3938
649.90 0.393
650.00 0.3922
650.10 0.3914
650.20 0.3906
650.30 0.3898
650.40 0.3887
650.50 0.3877
650.60 0.3866
650.70 0.3856
650.80 0.3846
650.90 0.3835
651.00 0.3825
651.10 0.3815
651.20 0.3804
651.30 0.3793
651.40 0.3779
651.50 0.3766
651.60 0.3752
651.70 0.3738
651.80 0.3724
651.90 0.371
652.00 0.3696
652.10 0.3683
652.20 0.3669
652.30 0.3654
652.40 0.3635
652.50 0.3617
652.60 0.3598
652.70 0.3579
652.80 0.3561
652.90 0.3542
653.00 0.3523
653.10 0.3505
653.20 0.3486
653.30 0.3466
653.40 0.3441
653.50 0.3417
653.60 0.3392
653.70 0.3367
653.80 0.3342
653.90 0.3317
654.00 0.3292
654.10 0.3267
654.20 0.3243
654.30 0.3217
654.40 0.3186
654.50 0.3156
654.60 0.3126
654.70 0.3096
654.80 0.3065
654.90 0.3029
655.00 0.2993
655.10 0.2958
655.20 0.2922
655.30 0.2886
655.40 0.2847
655.50 0.2807
655.60 0.2763
655.70 0.2718
655.80 0.2668
655.90 0.2613
656.00 0.2539
656.10 0.2459
656.20 0.2165
656.30 0.1859
656.40 0.2351
656.50 0.2489
656.60 0.256
656.70 0.2627
656.80 0.2676
656.90 0.2722
657.00 0.2763
657.10 0.2803
657.20 0.284
657.30 0.2875
657.40 0.2908
657.50 0.2941
657.60 0.2973
657.70 0.3006
657.80 0.3037
657.90 0.3064
658.00 0.3091
658.10 0.3118
658.20 0.3145
658.30 0.3171
658.40 0.3192
658.50 0.3213
658.60 0.3235
658.70 0.3256
658.80 0.3277
658.90 0.3298
659.00 0.3319
659.10 0.334
659.20 0.3361
659.30 0.3381
659.40 0.3396
659.50 0.341
659.60 0.3425
659.70 0.3439
659.80 0.3454
659.90 0.3469
660.00 0.3483
660.10 0.3498
660.20 0.3512
660.30 0.3526
660.40 0.3535
660.50 0.3545
660.60 0.3554
660.70 0.3564
660.80 0.3573
660.90 0.3583
661.00 0.3592
661.10 0.3601
661.20 0.3611
661.30 0.362
661.40 0.3626
661.50 0.3632
661.60 0.3637
661.70 0.3643
661.80 0.3649
661.90 0.3655
662.00 0.3661
662.10 0.3667
662.20 0.3673
662.30 0.3678
662.40 0.3682
662.50 0.3685
662.60 0.3689
662.70 0.3692
662.80 0.3696
662.90 0.3699
663.00 0.3702
663.10 0.3706
663.20 0.3709
663.30 0.3712
663.40 0.3714
663.50 0.3716
663.60 0.3718
663.70 0.372
663.80 0.3722
663.90 0.3724
664.00 0.3726
664.10 0.3728
664.20 0.373
664.30 0.3731
664.40 0.3732
664.50 0.3733
664.60 0.3734
664.70 0.3734
664.80 0.3735
664.90 0.3736
665.00 0.3737
665.10 0.3738
665.20 0.3738
665.30 0.3739
665.40 0.3739
665.50 0.3739
665.60 0.3739
665.70 0.3739
665.80 0.3739
665.90 0.3739
666.00 0.374
666.10 0.374
666.20 0.374
666.30 0.374
666.40 0.3739
666.50 0.3739
666.60 0.3738
666.70 0.3738
666.80 0.3737
666.90 0.3737
667.00 0.3737
667.10 0.3736
667.20 0.3736
667.30 0.3735
667.40 0.3734
667.50 0.3734
667.60 0.3733
667.70 0.3732
667.80 0.3731
667.90 0.373
668.00 0.373
668.10 0.3729
668.20 0.3728
668.30 0.3727
668.40 0.3726
668.50 0.3725
668.60 0.3724
668.70 0.3723
668.80 0.3722
668.90 0.3721
669.00 0.372
669.10 0.3719
669.20 0.3718
669.30 0.3717
669.40 0.3715
669.50 0.3714
669.60 0.3713
669.70 0.3712
669.80 0.371
669.90 0.3709
670.00 0.3708
670.10 0.3707
670.20 0.3705
670.30 0.3704
670.40 0.3703
670.50 0.3701
670.60 0.37
670.70 0.3699
670.80 0.3697
670.90 0.3696
671.00 0.3694
671.10 0.3693
671.20 0.3692
671.30 0.369
671.40 0.3689
671.50 0.3687
671.60 0.3686
671.70 0.3684
671.80 0.3683
671.90 0.3682
672.00 0.368
672.10 0.3679
672.20 0.3677
672.30 0.3676
672.40 0.3674
672.50 0.3673
672.60 0.3671
672.70 0.367
672.80 0.3668
672.90 0.3666
673.00 0.3665
673.10 0.3663
673.20 0.3662
673.30 0.366
673.40 0.3659
673.50 0.3657
673.60 0.3656
673.70 0.3654
673.80 0.3652
673.90 0.3651
674.00 0.3649
674.10 0.3648
674.20 0.3646
674.30 0.3644
674.40 0.3643
674.50 0.3641
674.60 0.364
674.70 0.3638
674.80 0.3636
674.90 0.3635
675.00 0.3633
675.10 0.3631
675.20 0.363
675.30 0.3628
675.40 0.3626
675.50 0.3625
675.60 0.3623
675.70 0.3621
675.80 0.362
675.90 0.3618
676.00 0.3617
676.10 0.3615
676.20 0.3613
676.30 0.3612
676.40 0.361
676.50 0.3608
676.60 0.3607
676.70 0.3605
676.80 0.3603
676.90 0.3602
677.00 0.36
677.10 0.3598
677.20 0.3596
677.30 0.3595
677.40 0.3593
677.50 0.3591
677.60 0.359
677.70 0.3588
677.80 0.3586
677.90 0.3585
678.00 0.3583
678.10 0.3581
678.20 0.358
678.30 0.3578
678.40 0.3576
678.50 0.3574
678.60 0.3573
678.70 0.3571
678.80 0.3569
678.90 0.3568
679.00 0.3566
679.10 0.3564
679.20 0.3563
679.30 0.3561
679.40 0.3559
679.50 0.3557
679.60 0.3556
679.70 0.3554
679.80 0.3552
679.90 0.3551
680.00 0.3549
680.10 0.3547
680.20 0.3546
680.30 0.3544
680.40 0.3542
680.50 0.354
680.60 0.3539
680.70 0.3537
680.80 0.3535
680.90 0.3534
681.00 0.3532
681.10 0.353
681.20 0.3528
681.30 0.3527
681.40 0.3525
681.50 0.3523
681.60 0.3522
681.70 0.352
681.80 0.3518
681.90 0.3516
682.00 0.3515
682.10 0.3513
682.20 0.3511
682.30 0.351
682.40 0.3508
682.50 0.3506
682.60 0.3504
682.70 0.3503
682.80 0.3501
682.90 0.3499
683.00 0.3498
683.10 0.3496
683.20 0.3494
683.30 0.3493
683.40 0.3491
683.50 0.3489
683.60 0.3487
683.70 0.3486
683.80 0.3484
683.90 0.3482
684.00 0.3481
684.10 0.3479
684.20 0.3477
684.30 0.3475
684.40 0.3474
684.50 0.3472
684.60 0.347
684.70 0.3469
684.80 0.3467
684.90 0.3465
685.00 0.3464
685.10 0.3462
685.20 0.346
685.30 0.3458
685.40 0.3457
685.50 0.3455
685.60 0.3453
685.70 0.3452
685.80 0.345
685.90 0.3448
686.00 0.3447
686.10 0.3445
686.20 0.3443
686.30 0.3442
686.40 0.344
686.50 0.3438
686.60 0.3436
686.70 0.3435
686.80 0.3433
686.90 0.3431
687.00 0.343
687.10 0.3428
687.20 0.3426
687.30 0.3425
687.40 0.3423
687.50 0.3421
687.60 0.342
687.70 0.3418
687.80 0.3416
687.90 0.3415
688.00 0.3413
688.10 0.3411
688.20 0.341
688.30 0.3408
688.40 0.3406
688.50 0.3404
688.60 0.3403
688.70 0.3401
688.80 0.3399
688.90 0.3398
689.00 0.3396
689.10 0.3394
689.20 0.3393
689.30 0.3391
689.40 0.3389
689.50 0.3388
689.60 0.3386
689.70 0.3384
689.80 0.3383
689.90 0.3381
690.00 0.3379
690.10 0.3378
690.20 0.3376
690.30 0.3374
690.40 0.3373
690.50 0.3371
690.60 0.3369
690.70 0.3368
690.80 0.3366
690.90 0.3364
691.00 0.3363
691.10 0.3361
691.20 0.3359
691.30 0.3358
691.40 0.3356
691.50 0.3355
691.60 0.3353
691.70 0.3351
691.80 0.335
691.90 0.3348
692.00 0.3346
692.10 0.3345
692.20 0.3343
692.30 0.3341
692.40 0.334
692.50 0.3338
692.60 0.3336
692.70 0.3335
692.80 0.3333
692.90 0.3331
693.00 0.333
693.10 0.3328
693.20 0.3327
693.30 0.3325
693.40 0.3323
693.50 0.3322
693.60 0.332
693.70 0.3318
693.80 0.3317
693.90 0.3315
694.00 0.3313
694.10 0.3312
694.20 0.331
694.30 0.3309
694.40 0.3307
694.50 0.3305
694.60 0.3304
694.70 0.3302
694.80 0.33
694.90 0.3299
695.00 0.3297
695.10 0.3296
695.20 0.3294
695.30 0.3292
695.40 0.3291
695.50 0.3289
695.60 0.3287
695.70 0.3286
695.80 0.3284
695.90 0.3283
696.00 0.3281
696.10 0.3279
696.20 0.3278
696.30 0.3276
696.40 0.3274
696.50 0.3273
696.60 0.3271
696.70 0.327
696.80 0.3268
696.90 0.3266
697.00 0.3265
697.10 0.3263
697.20 0.3262
697.30 0.326
697.40 0.3258
697.50 0.3257
697.60 0.3255
697.70 0.3254
697.80 0.3252
697.90 0.325
698.00 0.3249
698.10 0.3247
698.20 0.3246
698.30 0.3244
698.40 0.3242
698.50 0.3241
698.60 0.3239
698.70 0.3238
698.80 0.3236
698.90 0.3234
699.00 0.3233
699.10 0.3231
699.20 0.323
699.30 0.3228
699.40 0.3226
699.50 0.3225
699.60 0.3223
699.70 0.3222
699.80 0.322
699.90 0.3219
700.00 0.3217
700.10 0.3215
700.20 0.3214
700.30 0.3212
700.40 0.321
700.50 0.3208
700.60 0.3207
700.70 0.3205
700.80 0.3203
700.90 0.3202
701.00 0.32
701.10 0.3198
701.20 0.3197
701.30 0.3195
701.40 0.3193
701.50 0.3192
701.60 0.319
701.70 0.3188
701.80 0.3186
701.90 0.3185
702.00 0.3183
702.10 0.3181
702.20 0.318
702.30 0.3178
702.40 0.3176
702.50 0.3175
702.60 0.3173
702.70 0.3171
702.80 0.317
702.90 0.3168
703.00 0.3166
703.10 0.3165
703.20 0.3163
703.30 0.3161
703.40 0.316
703.50 0.3158
703.60 0.3156
703.70 0.3155
703.80 0.3153
703.90 0.3151
704.00 0.315
704.10 0.3148
704.20 0.3146
704.30 0.3145
704.40 0.3143
704.50 0.3141
704.60 0.314
704.70 0.3138
704.80 0.3136
704.90 0.3135
705.00 0.3133
705.10 0.3131
705.20 0.313
705.30 0.3128
705.40 0.3127
705.50 0.3125
705.60 0.3124
705.70 0.3122
705.80 0.3121
705.90 0.3119
706.00 0.3118
706.10 0.3116
706.20 0.3115
706.30 0.3113
706.40 0.3112
706.50 0.311
706.60 0.3109
706.70 0.3107
706.80 0.3106
706.90 0.3104
707.00 0.3103
707.10 0.3101
707.20 0.3099
707.30 0.3098
707.40 0.3096
707.50 0.3095
707.60 0.3093
707.70 0.3092
707.80 0.309
707.90 0.3089
708.00 0.3087
708.10 0.3086
708.20 0.3084
708.30 0.3083
708.40 0.3081
708.50 0.308
708.60 0.3078
708.70 0.3077
708.80 0.3075
708.90 0.3074
709.00 0.3072
709.10 0.3071
709.20 0.3069
709.30 0.3068
709.40 0.3066
709.50 0.3065
709.60 0.3063
709.70 0.3062
709.80 0.306
709.90 0.3059
710.00 0.3057
710.10 0.3056
710.20 0.3054
710.30 0.3053
710.40 0.3051
710.50 0.305
710.60 0.3048
710.70 0.3047
710.80 0.3045
710.90 0.3044
711.00 0.3043
711.10 0.3041
711.20 0.304
711.30 0.3038
711.40 0.3037
711.50 0.3035
711.60 0.3034
711.70 0.3032
711.80 0.3031
711.90 0.3029
712.00 0.3028
712.10 0.3026
712.20 0.3025
712.30 0.3023
712.40 0.3022
712.50 0.302
712.60 0.3019
712.70 0.3017
712.80 0.3016
712.90 0.3015
713.00 0.3013
713.10 0.3012
713.20 0.301
713.30 0.3009
713.40 0.3007
713.50 0.3006
713.60 0.3004
713.70 0.3003
713.80 0.3001
713.90 0.3
714.00 0.2998
714.10 0.2997
714.20 0.2996
714.30 0.2994
714.40 0.2993
714.50 0.2991
714.60 0.299
714.70 0.2988
714.80 0.2987
714.90 0.2985
715.00 0.2984
715.10 0.2982
715.20 0.2981
715.30 0.298
715.40 0.2978
715.50 0.2977
715.60 0.2975
715.70 0.2974
715.80 0.2972
715.90 0.2971
716.00 0.297
716.10 0.2968
716.20 0.2967
716.30 0.2965
716.40 0.2964
716.50 0.2962
716.60 0.2961
716.70 0.296
716.80 0.2958
716.90 0.2957
717.00 0.2955
717.10 0.2954
717.20 0.2953
717.30 0.2951
717.40 0.295
717.50 0.2948
717.60 0.2947
717.70 0.2945
717.80 0.2944
717.90 0.2943
718.00 0.2941
718.10 0.294
718.20 0.2938
718.30 0.2937
718.40 0.2936
718.50 0.2934
718.60 0.2933
718.70 0.2931
718.80 0.293
718.90 0.2929
719.00 0.2927
719.10 0.2926
719.20 0.2924
719.30 0.2923
719.40 0.2922
719.50 0.292
719.60 0.2919
719.70 0.2917
719.80 0.2916
719.90 0.2915
720.00 0.2913
720.10 0.2912
720.20 0.291
720.30 0.2909
720.40 0.2908
720.50 0.2906
720.60 0.2905
720.70 0.2903
720.80 0.2902
720.90 0.2901
721.00 0.2899
721.10 0.2898
721.20 0.2896
721.30 0.2895
721.40 0.2894
721.50 0.2892
721.60 0.2891
721.70 0.2889
721.80 0.2888
721.90 0.2887
722.00 0.2885
722.10 0.2884
722.20 0.2882
722.30 0.2881
722.40 0.288
722.50 0.2878
722.60 0.2877
722.70 0.2876
722.80 0.2874
722.90 0.2873
723.00 0.2871
723.10 0.287
723.20 0.2869
723.30 0.2867
723.40 0.2866
723.50 0.2864
723.60 0.2863
723.70 0.2862
723.80 0.286
723.90 0.2859
724.00 0.2858
724.10 0.2856
724.20 0.2855
724.30 0.2853
724.40 0.2852
724.50 0.2851
724.60 0.2849
724.70 0.2848
724.80 0.2847
724.90 0.2845
725.00 0.2844
725.10 0.2843
725.20 0.2841
725.30 0.284
725.40 0.2838
725.50 0.2837
725.60 0.2836
725.70 0.2834
725.80 0.2833
725.90 0.2832
726.00 0.283
726.10 0.2829
726.20 0.2828
726.30 0.2826
726.40 0.2825
726.50 0.2824
726.60 0.2822
726.70 0.2821
726.80 0.2819
726.90 0.2818
727.00 0.2817
727.10 0.2815
727.20 0.2814
727.30 0.2813
727.40 0.2811
727.50 0.281
727.60 0.2809
727.70 0.2807
727.80 0.2806
727.90 0.2805
728.00 0.2803
728.10 0.2802
728.20 0.2801
728.30 0.2799
728.40 0.2798
728.50 0.2797
728.60 0.2795
728.70 0.2794
728.80 0.2793
728.90 0.2791
729.00 0.279
729.10 0.2789
729.20 0.2787
729.30 0.2786
729.40 0.2785
729.50 0.2783
729.60 0.2782
729.70 0.2781
729.80 0.2779
729.90 0.2778
730.00 0.2777
730.10 0.2775
730.20 0.2774
730.30 0.2773
730.40 0.2771
730.50 0.277
730.60 0.2769
730.70 0.2767
730.80 0.2766
730.90 0.2765
731.00 0.2764
731.10 0.2762
731.20 0.2761
731.30 0.276
731.40 0.2758
731.50 0.2757
731.60 0.2756
731.70 0.2754
731.80 0.2753
731.90 0.2752
732.00 0.275
732.10 0.2749
732.20 0.2748
732.30 0.2747
732.40 0.2745
732.50 0.2744
732.60 0.2743
732.70 0.2741
732.80 0.274
732.90 0.2739
733.00 0.2737
733.10 0.2736
733.20 0.2735
733.30 0.2734
733.40 0.2732
733.50 0.2731
733.60 0.273
733.70 0.2728
733.80 0.2727
733.90 0.2726
734.00 0.2725
734.10 0.2723
734.20 0.2722
734.30 0.2721
734.40 0.2719
734.50 0.2718
734.60 0.2717
734.70 0.2716
734.80 0.2714
734.90 0.2713
735.00 0.2712
735.10 0.271
735.20 0.2709
735.30 0.2708
735.40 0.2707
735.50 0.2705
735.60 0.2704
735.70 0.2703
735.80 0.2701
735.90 0.27
736.00 0.2699
736.10 0.2698
736.20 0.2696
736.30 0.2695
736.40 0.2694
736.50 0.2692
736.60 0.2691
736.70 0.269
736.80 0.2689
736.90 0.2687
737.00 0.2686
737.10 0.2685
737.20 0.2684
737.30 0.2682
737.40 0.2681
737.50 0.268
737.60 0.2678
737.70 0.2677
737.80 0.2676
737.90 0.2675
738.00 0.2673
738.10 0.2672
738.20 0.2671
738.30 0.267
738.40 0.2668
738.50 0.2667
738.60 0.2666
738.70 0.2665
738.80 0.2663
738.90 0.2662
739.00 0.2661
739.10 0.2659
739.20 0.2658
739.30 0.2657
739.40 0.2656
739.50 0.2654
739.60 0.2653
739.70 0.2652
739.80 0.2651
739.90 0.2649
740.00 0.2648
740.10 0.2647
740.20 0.2646
740.30 0.2644
740.40 0.2643
740.50 0.2642
740.60 0.2641
740.70 0.2639
740.80 0.2638
740.90 0.2637
741.00 0.2636
741.10 0.2635
741.20 0.2633
741.30 0.2632
741.40 0.2631
741.50 0.263
741.60 0.2628
741.70 0.2627
741.80 0.2626
741.90 0.2625
742.00 0.2623
742.10 0.2622
742.20 0.2621
742.30 0.262
742.40 0.2619
742.50 0.2617
742.60 0.2616
742.70 0.2615
742.80 0.2614
742.90 0.2612
743.00 0.2611
743.10 0.261
743.20 0.2609
743.30 0.2608
743.40 0.2606
743.50 0.2605
743.60 0.2604
743.70 0.2603
743.80 0.2601
743.90 0.26
744.00 0.2599
744.10 0.2598
744.20 0.2597
744.30 0.2595
744.40 0.2594
744.50 0.2593
744.60 0.2592
744.70 0.2591
744.80 0.2589
744.90 0.2588
745.00 0.2587
745.10 0.2586
745.20 0.2584
745.30 0.2583
745.40 0.2582
745.50 0.2581
745.60 0.258
745.70 0.2578
745.80 0.2577
745.90 0.2576
746.00 0.2575
746.10 0.2574
746.20 0.2572
746.30 0.2571
746.40 0.257
746.50 0.2569
746.60 0.2568
746.70 0.2566
746.80 0.2565
746.90 0.2564
747.00 0.2563
747.10 0.2562
747.20 0.256
747.30 0.2559
747.40 0.2558
747.50 0.2557
747.60 0.2556
747.70 0.2554
747.80 0.2553
747.90 0.2552
748.00 0.2551
748.10 0.255
748.20 0.2548
748.30 0.2547
748.40 0.2546
748.50 0.2545
748.60 0.2544
748.70 0.2542
748.80 0.2541
748.90 0.254
749.00 0.2539
749.10 0.2538
749.20 0.2537
749.30 0.2535
749.40 0.2534
749.50 0.2533
749.60 0.2532
749.70 0.2531
749.80 0.2529
749.90 0.2528
750.00 0.2527
750.10 0.2526
750.20 0.2525
750.30 0.2524
750.40 0.2522
750.50 0.2521
750.60 0.252
750.70 0.2519
750.80 0.2518
750.90 0.2517
751.00 0.2515
751.10 0.2514
751.20 0.2513
751.30 0.2512
751.40 0.2511
751.50 0.251
751.60 0.2508
751.70 0.2507
751.80 0.2506
751.90 0.2505
752.00 0.2504
752.10 0.2503
752.20 0.2501
752.30 0.25
752.40 0.2499
752.50 0.2498
752.60 0.2497
752.70 0.2496
752.80 0.2495
752.90 0.2493
753.00 0.2492
753.10 0.2491
753.20 0.249
753.30 0.2489
753.40 0.2488
753.50 0.2487
753.60 0.2485
753.70 0.2484
753.80 0.2483
753.90 0.2482
754.00 0.2481
754.10 0.248
754.20 0.2478
754.30 0.2477
754.40 0.2476
754.50 0.2475
754.60 0.2474
754.70 0.2473
754.80 0.2472
754.90 0.247
755.00 0.2469
755.10 0.2468
755.20 0.2467
755.30 0.2466
755.40 0.2465
755.50 0.2464
755.60 0.2462
755.70 0.2461
755.80 0.246
755.90 0.2459
756.00 0.2458
756.10 0.2457
756.20 0.2456
756.30 0.2455
756.40 0.2453
756.50 0.2452
756.60 0.2451
756.70 0.245
756.80 0.2449
756.90 0.2448
757.00 0.2447
757.10 0.2445
757.20 0.2444
757.30 0.2443
757.40 0.2442
757.50 0.2441
757.60 0.244
757.70 0.2439
757.80 0.2438
757.90 0.2436
758.00 0.2435
758.10 0.2434
758.20 0.2433
758.30 0.2432
758.40 0.2431
758.50 0.243
758.60 0.2429
758.70 0.2427
758.80 0.2426
758.90 0.2425
759.00 0.2424
759.10 0.2423
759.20 0.2422
759.30 0.2421
759.40 0.242
759.50 0.2418
759.60 0.2417
759.70 0.2416
759.80 0.2415
759.90 0.2414
760.00 0.2413
760.10 0.2412
760.20 0.2411
760.30 0.241
760.40 0.2408
760.50 0.2407
760.60 0.2406
760.70 0.2405
760.80 0.2404
760.90 0.2403
761.00 0.2402
761.10 0.2401
761.20 0.24
761.30 0.2399
761.40 0.2397
761.50 0.2396
761.60 0.2395
761.70 0.2394
761.80 0.2393
761.90 0.2392
762.00 0.2391
762.10 0.239
762.20 0.2389
762.30 0.2388
762.40 0.2387
762.50 0.2385
762.60 0.2384
762.70 0.2383
762.80 0.2382
762.90 0.2381
763.00 0.238
763.10 0.2379
763.20 0.2378
763.30 0.2377
763.40 0.2376
763.50 0.2375
763.60 0.2374
763.70 0.2372
763.80 0.2371
763.90 0.237
764.00 0.2369
764.10 0.2368
764.20 0.2367
764.30 0.2366
764.40 0.2365
764.50 0.2364
764.60 0.2363
764.70 0.2362
764.80 0.2361
764.90 0.2359
765.00 0.2358
765.10 0.2357
765.20 0.2356
765.30 0.2355
765.40 0.2354
765.50 0.2353
765.60 0.2352
765.70 0.2351
765.80 0.235
765.90 0.2349
766.00 0.2348
766.10 0.2347
766.20 0.2345
766.30 0.2344
766.40 0.2343
766.50 0.2342
766.60 0.2341
766.70 0.234
766.80 0.2339
766.90 0.2338
767.00 0.2337
767.10 0.2336
767.20 0.2335
767.30 0.2334
767.40 0.2333
767.50 0.2332
767.60 0.2331
767.70 0.2329
767.80 0.2328
767.90 0.2327
768.00 0.2326
768.10 0.2325
768.20 0.2324
768.30 0.2323
768.40 0.2322
768.50 0.2321
768.60 0.232
768.70 0.2319
768.80 0.2318
768.90 0.2317
769.00 0.2316
769.10 0.2315
769.20 0.2314
769.30 0.2312
769.40 0.2311
769.50 0.231
769.60 0.2309
769.70 0.2308
769.80 0.2307
769.90 0.2306
770.00 0.2305
770.10 0.2304
770.20 0.2303
770.30 0.2302
770.40 0.2301
770.50 0.23
770.60 0.2299
770.70 0.2298
770.80 0.2297
770.90 0.2296
771.00 0.2295
771.10 0.2294
771.20 0.2293
771.30 0.2292
771.40 0.2291
771.50 0.229
771.60 0.2289
771.70 0.2287
771.80 0.2286
771.90 0.2285
772.00 0.2284
772.10 0.2283
772.20 0.2282
772.30 0.2281
772.40 0.228
772.50 0.2279
772.60 0.2278
772.70 0.2277
772.80 0.2276
772.90 0.2275
773.00 0.2274
773.10 0.2273
773.20 0.2272
773.30 0.2271
773.40 0.227
773.50 0.2269
773.60 0.2268
773.70 0.2267
773.80 0.2266
773.90 0.2265
774.00 0.2264
774.10 0.2263
774.20 0.2262
774.30 0.2261
774.40 0.226
774.50 0.2259
774.60 0.2258
774.70 0.2257
774.80 0.2256
774.90 0.2255
775.00 0.2254
775.10 0.2253
775.20 0.2252
775.30 0.2251
775.40 0.225
775.50 0.2249
775.60 0.2248
775.70 0.2247
775.80 0.2246
775.90 0.2245
776.00 0.2243
776.10 0.2242
776.20 0.2241
776.30 0.224
776.40 0.2239
776.50 0.2238
776.60 0.2237
776.70 0.2236
776.80 0.2235
776.90 0.2234
777.00 0.2233
777.10 0.2232
777.20 0.2231
777.30 0.223
777.40 0.2229
777.50 0.2228
777.60 0.2227
777.70 0.2226
777.80 0.2225
777.90 0.2224
778.00 0.2223
778.10 0.2222
778.20 0.2221
778.30 0.222
778.40 0.2219
778.50 0.2218
778.60 0.2217
778.70 0.2216
778.80 0.2215
778.90 0.2214
779.00 0.2213
779.10 0.2212
779.20 0.2211
779.30 0.221
779.40 0.2209
779.50 0.2208
779.60 0.2207
779.70 0.2206
779.80 0.2205
779.90 0.2204
780.00 0.2203
780.10 0.2202
780.20 0.2201
780.30 0.22
780.40 0.2199
780.50 0.2198
780.60 0.2197
780.70 0.2196
780.80 0.2195
780.90 0.2195
781.00 0.2194
781.10 0.2193
781.20 0.2192
781.30 0.2191
781.40 0.219
781.50 0.2189
781.60 0.2188
781.70 0.2187
781.80 0.2186
781.90 0.2185
782.00 0.2184
782.10 0.2183
782.20 0.2182
782.30 0.2181
782.40 0.218
782.50 0.2179
782.60 0.2178
782.70 0.2177
782.80 0.2176
782.90 0.2175
783.00 0.2174
783.10 0.2173
783.20 0.2172
783.30 0.2171
783.40 0.217
783.50 0.2169
783.60 0.2168
783.70 0.2167
783.80 0.2166
783.90 0.2165
784.00 0.2164
784.10 0.2163
784.20 0.2162
784.30 0.2161
784.40 0.216
784.50 0.216
784.60 0.2159
784.70 0.2158
784.80 0.2157
784.90 0.2156
785.00 0.2155
785.10 0.2154
785.20 0.2153
785.30 0.2152
785.40 0.2151
785.50 0.215
785.60 0.2149
785.70 0.2148
785.80 0.2147
785.90 0.2146
786.00 0.2145
786.10 0.2144
786.20 0.2143
786.30 0.2142
786.40 0.2141
786.50 0.214
786.60 0.2139
786.70 0.2138
786.80 0.2137
786.90 0.2137
787.00 0.2136
787.10 0.2135
787.20 0.2134
787.30 0.2133
787.40 0.2132
787.50 0.2131
787.60 0.213
787.70 0.2129
787.80 0.2128
787.90 0.2127
788.00 0.2126
788.10 0.2125
788.20 0.2124
788.30 0.2123
788.40 0.2122
788.50 0.2121
788.60 0.212
788.70 0.2119
788.80 0.2118
788.90 0.2118
789.00 0.2117
789.10 0.2116
789.20 0.2115
789.30 0.2114
789.40 0.2113
789.50 0.2112
789.60 0.2111
789.70 0.211
789.80 0.2109
789.90 0.2108
790.00 0.2107
790.10 0.2106
790.20 0.2105
790.30 0.2104
790.40 0.2103
790.50 0.2103
790.60 0.2102
790.70 0.2101
790.80 0.21
790.90 0.2099
791.00 0.2098
791.10 0.2097
791.20 0.2096
791.30 0.2095
791.40 0.2094
791.50 0.2093
791.60 0.2092
791.70 0.2091
791.80 0.209
791.90 0.209
792.00 0.2089
792.10 0.2088
792.20 0.2087
792.30 0.2086
792.40 0.2085
792.50 0.2084
792.60 0.2083
792.70 0.2082
792.80 0.2081
792.90 0.208
793.00 0.2079
793.10 0.2079
793.20 0.2078
793.30 0.2077
793.40 0.2076
793.50 0.2075
793.60 0.2074
793.70 0.2073
793.80 0.2072
793.90 0.2071
794.00 0.207
794.10 0.2069
794.20 0.2068
794.30 0.2068
794.40 0.2067
794.50 0.2066
794.60 0.2065
794.70 0.2064
794.80 0.2063
794.90 0.2062
795.00 0.2061
795.10 0.206
795.20 0.2059
795.30 0.2058
795.40 0.2058
795.50 0.2057
795.60 0.2056
795.70 0.2055
795.80 0.2054
795.90 0.2053
796.00 0.2052
796.10 0.2051
796.20 0.205
796.30 0.2049
796.40 0.2048
796.50 0.2048
796.60 0.2047
796.70 0.2046
796.80 0.2045
796.90 0.2044
797.00 0.2043
797.10 0.2042
797.20 0.2041
797.30 0.204
797.40 0.2039
797.50 0.2039
797.60 0.2038
797.70 0.2037
797.80 0.2036
797.90 0.2035
798.00 0.2034
798.10 0.2033
798.20 0.2032
798.30 0.2031
798.40 0.203
798.50 0.203
798.60 0.2029
798.70 0.2028
798.80 0.2027
798.90 0.2026
799.00 0.2025
799.10 0.2024
799.20 0.2023
799.30 0.2022
799.40 0.2022
799.50 0.2021
799.60 0.202
799.70 0.2019
799.80 0.2018
799.90 0.2017
800.00 0.2016
800.10 0.2015
800.20 0.2014
800.30 0.2014
800.40 0.2013
800.50 0.2012
800.60 0.2011
800.70 0.201
800.80 0.2009
800.90 0.2008
801.00 0.2007
801.10 0.2007
801.20 0.2006
801.30 0.2005
801.40 0.2004
801.50 0.2003
801.60 0.2002
801.70 0.2001
801.80 0.2
801.90 0.2
802.00 0.1999
802.10 0.1998
802.20 0.1997
802.30 0.1996
802.40 0.1995
802.50 0.1994
802.60 0.1993
802.70 0.1993
802.80 0.1992
802.90 0.1991
803.00 0.199
803.10 0.1989
803.20 0.1988
803.30 0.1987
803.40 0.1987
803.50 0.1986
803.60 0.1985
803.70 0.1984
803.80 0.1983
803.90 0.1982
804.00 0.1981
804.10 0.198
804.20 0.198
804.30 0.1979
804.40 0.1978
804.50 0.1977
804.60 0.1976
804.70 0.1975
804.80 0.1974
804.90 0.1974
805.00 0.1973
805.10 0.1972
805.20 0.1971
805.30 0.197
805.40 0.1969
805.50 0.1968
805.60 0.1968
805.70 0.1967
805.80 0.1966
805.90 0.1965
806.00 0.1964
806.10 0.1963
806.20 0.1962
806.30 0.1962
806.40 0.1961
806.50 0.196
806.60 0.1959
806.70 0.1958
806.80 0.1957
806.90 0.1956
807.00 0.1956
807.10 0.1955
807.20 0.1954
807.30 0.1953
807.40 0.1952
807.50 0.1951
807.60 0.195
807.70 0.195
807.80 0.1949
807.90 0.1948
808.00 0.1947
808.10 0.1946
808.20 0.1945
808.30 0.1944
808.40 0.1944
808.50 0.1943
808.60 0.1942
808.70 0.1941
808.80 0.194
808.90 0.1939
809.00 0.1939
809.10 0.1938
809.20 0.1937
809.30 0.1936
809.40 0.1935
809.50 0.1934
809.60 0.1933
809.70 0.1933
809.80 0.1932
809.90 0.1931
810.00 0.193
810.10 0.1929
810.20 0.1928
810.30 0.1928
810.40 0.1927
810.50 0.1926
810.60 0.1925
810.70 0.1924
810.80 0.1923
810.90 0.1923
811.00 0.1922
811.10 0.1921
811.20 0.192
811.30 0.1919
811.40 0.1919
811.50 0.1918
811.60 0.1917
811.70 0.1916
811.80 0.1915
811.90 0.1914
812.00 0.1914
812.10 0.1913
812.20 0.1912
812.30 0.1911
812.40 0.191
812.50 0.1909
812.60 0.1909
812.70 0.1908
812.80 0.1907
812.90 0.1906
813.00 0.1905
813.10 0.1904
813.20 0.1904
813.30 0.1903
813.40 0.1902
813.50 0.1901
813.60 0.19
813.70 0.19
813.80 0.1899
813.90 0.1898
814.00 0.1897
814.10 0.1896
814.20 0.1895
814.30 0.1895
814.40 0.1894
814.50 0.1893
814.60 0.1892
814.70 0.1891
814.80 0.1891
814.90 0.189
815.00 0.1889
815.10 0.1888
815.20 0.1887
815.30 0.1887
815.40 0.1886
815.50 0.1885
815.60 0.1884
815.70 0.1883
815.80 0.1882
815.90 0.1882
816.00 0.1881
816.10 0.188
816.20 0.1879
816.30 0.1878
816.40 0.1878
816.50 0.1877
816.60 0.1876
816.70 0.1875
816.80 0.1874
816.90 0.1874
817.00 0.1873
817.10 0.1872
817.20 0.1871
817.30 0.187
817.40 0.1869
817.50 0.1869
817.60 0.1868
817.70 0.1867
817.80 0.1866
817.90 0.1865
818.00 0.1865
818.10 0.1864
818.20 0.1863
818.30 0.1862
818.40 0.1861
818.50 0.1861
818.60 0.186
818.70 0.1859
818.80 0.1858
818.90 0.1857
819.00 0.1857
819.10 0.1856
819.20 0.1855
819.30 0.1854
819.40 0.1853
819.50 0.1853
819.60 0.1852
819.70 0.1851
819.80 0.185
819.90 0.1849
820.00 0.1849
820.10 0.1848
820.20 0.1847
820.30 0.1846
820.40 0.1846
820.50 0.1845
820.60 0.1844
820.70 0.1843
820.80 0.1842
820.90 0.1842
821.00 0.1841
821.10 0.184
821.20 0.1839
821.30 0.1838
821.40 0.1838
821.50 0.1837
821.60 0.1836
821.70 0.1835
821.80 0.1834
821.90 0.1834
822.00 0.1833
822.10 0.1832
822.20 0.1831
822.30 0.1831
822.40 0.183
822.50 0.1829
822.60 0.1828
822.70 0.1827
822.80 0.1827
822.90 0.1826
823.00 0.1825
823.10 0.1824
823.20 0.1824
823.30 0.1823
823.40 0.1822
823.50 0.1821
823.60 0.182
823.70 0.182
823.80 0.1819
823.90 0.1818
824.00 0.1817
824.10 0.1817
824.20 0.1816
824.30 0.1815
824.40 0.1814
824.50 0.1813
824.60 0.1813
824.70 0.1812
824.80 0.1811
824.90 0.181
825.00 0.181
825.10 0.1809
825.20 0.1808
825.30 0.1807
825.40 0.1806
825.50 0.1806
825.60 0.1805
825.70 0.1804
825.80 0.1803
825.90 0.1803
826.00 0.1802
826.10 0.1801
826.20 0.18
826.30 0.18
826.40 0.1799
826.50 0.1798
826.60 0.1797
826.70 0.1796
826.80 0.1796
826.90 0.1795
827.00 0.1794
827.10 0.1793
827.20 0.1793
827.30 0.1792
827.40 0.1791
827.50 0.179
827.60 0.179
827.70 0.1789
827.80 0.1788
827.90 0.1787
828.00 0.1787
828.10 0.1786
828.20 0.1785
828.30 0.1784
828.40 0.1784
828.50 0.1783
828.60 0.1782
828.70 0.1781
828.80 0.1781
828.90 0.178
829.00 0.1779
829.10 0.1778
829.20 0.1778
829.30 0.1777
829.40 0.1776
829.50 0.1775
829.60 0.1774
829.70 0.1774
829.80 0.1773
829.90 0.1772
830.00 0.1771
830.10 0.1771
830.20 0.177
830.30 0.1769
830.40 0.1768
830.50 0.1768
830.60 0.1767
830.70 0.1766
830.80 0.1765
830.90 0.1765
831.00 0.1764
831.10 0.1763
831.20 0.1762
831.30 0.1762
831.40 0.1761
831.50 0.176
831.60 0.176
831.70 0.1759
831.80 0.1758
831.90 0.1757
832.00 0.1757
832.10 0.1756
832.20 0.1755
832.30 0.1754
832.40 0.1754
832.50 0.1753
832.60 0.1752
832.70 0.1751
832.80 0.1751
832.90 0.175
833.00 0.1749
833.10 0.1748
833.20 0.1748
833.30 0.1747
833.40 0.1746
833.50 0.1745
833.60 0.1745
833.70 0.1744
833.80 0.1743
833.90 0.1742
834.00 0.1742
834.10 0.1741
834.20 0.174
834.30 0.174
834.40 0.1739
834.50 0.1738
834.60 0.1737
834.70 0.1737
834.80 0.1736
834.90 0.1735
835.00 0.1734
835.10 0.1734
835.20 0.1733
835.30 0.1732
835.40 0.1731
835.50 0.1731
835.60 0.173
835.70 0.1729
835.80 0.1729
835.90 0.1728
836.00 0.1727
836.10 0.1726
836.20 0.1726
836.30 0.1725
836.40 0.1724
836.50 0.1723
836.60 0.1723
836.70 0.1722
836.80 0.1721
836.90 0.1721
837.00 0.172
837.10 0.1719
837.20 0.1718
837.30 0.1718
837.40 0.1717
837.50 0.1716
837.60 0.1716
837.70 0.1715
837.80 0.1714
837.90 0.1713
838.00 0.1713
838.10 0.1712
838.20 0.1711
838.30 0.171
838.40 0.171
838.50 0.1709
838.60 0.1708
838.70 0.1708
838.80 0.1707
838.90 0.1706
839.00 0.1705
839.10 0.1705
839.20 0.1704
839.30 0.1703
839.40 0.1703
839.50 0.1702
839.60 0.1701
839.70 0.17
839.80 0.17
839.90 0.1699
840.00 0.1698
840.10 0.1698
840.20 0.1697
840.30 0.1696
840.40 0.1695
840.50 0.1695
840.60 0.1694
840.70 0.1693
840.80 0.1693
840.90 0.1692
841.00 0.1691
841.10 0.169
841.20 0.169
841.30 0.1689
841.40 0.1688
841.50 0.1688
841.60 0.1687
841.70 0.1686
841.80 0.1686
841.90 0.1685
842.00 0.1684
842.10 0.1683
842.20 0.1683
842.30 0.1682
842.40 0.1681
842.50 0.1681
842.60 0.168
842.70 0.1679
842.80 0.1678
842.90 0.1678
843.00 0.1677
843.10 0.1676
843.20 0.1676
843.30 0.1675
843.40 0.1674
843.50 0.1673
843.60 0.1673
843.70 0.1672
843.80 0.1671
843.90 0.1671
844.00 0.167
844.10 0.1669
844.20 0.1669
844.30 0.1668
844.40 0.1667
844.50 0.1666
844.60 0.1666
844.70 0.1665
844.80 0.1664
844.90 0.1664
845.00 0.1663
845.10 0.1662
845.20 0.1662
845.30 0.1661
845.40 0.166
845.50 0.1659
845.60 0.1659
845.70 0.1658
845.80 0.1657
845.90 0.1657
846.00 0.1656
846.10 0.1655
846.20 0.1655
846.30 0.1654
846.40 0.1653
846.50 0.1652
846.60 0.1652
846.70 0.1651
846.80 0.165
846.90 0.165
847.00 0.1649
847.10 0.1649
847.20 0.1648
847.30 0.1648
847.40 0.1647
847.50 0.1647
847.60 0.1646
847.70 0.1646
847.80 0.1645
847.90 0.1645
848.00 0.1644
848.10 0.1644
848.20 0.1643
848.30 0.1643
848.40 0.1642
848.50 0.1642
848.60 0.1641
848.70 0.1641
848.80 0.1641
848.90 0.164
849.00 0.164
849.10 0.1639
849.20 0.1639
849.30 0.1638
849.40 0.1638
849.50 0.1637
849.60 0.1637
849.70 0.1636
849.80 0.1636
849.90 0.1635
850.00 0.1635
850.10 0.1634
850.20 0.1634
850.30 0.1634
850.40 0.1633
850.50 0.1633
850.60 0.1632
850.70 0.1632
850.80 0.1631
850.90 0.1631
851.00 0.163
851.10 0.163
851.20 0.1629
851.30 0.1629
851.40 0.1628
851.50 0.1628
851.60 0.1627
851.70 0.1627
851.80 0.1627
851.90 0.1626
852.00 0.1626
852.10 0.1625
852.20 0.1625
852.30 0.1624
852.40 0.1624
852.50 0.1623
852.60 0.1623
852.70 0.1622
852.80 0.1622
852.90 0.1621
853.00 0.1621
853.10 0.162
853.20 0.162
853.30 0.1619
853.40 0.1619
853.50 0.1618
853.60 0.1618
853.70 0.1617
853.80 0.1617
853.90 0.1616
854.00 0.1616
854.10 0.1615
854.20 0.1615
854.30 0.1614
854.40 0.1614
854.50 0.1613
854.60 0.1613
854.70 0.1612
854.80 0.1612
854.90 0.1611
855.00 0.1611
855.10 0.161
855.20 0.161
855.30 0.1609
855.40 0.1609
855.50 0.1608
855.60 0.1608
855.70 0.1607
855.80 0.1607
855.90 0.1606
856.00 0.1606
856.10 0.1605
856.20 0.1605
856.30 0.1604
856.40 0.1604
856.50 0.1603
856.60 0.1603
856.70 0.1602
856.80 0.1602
856.90 0.1601
857.00 0.1601
857.10 0.16
857.20 0.16
857.30 0.1599
857.40 0.1599
857.50 0.1599
857.60 0.1598
857.70 0.1598
857.80 0.1597
857.90 0.1597
858.00 0.1596
858.10 0.1596
858.20 0.1596
858.30 0.1595
858.40 0.1595
858.50 0.1594
858.60 0.1594
858.70 0.1593
858.80 0.1593
858.90 0.1592
859.00 0.1592
859.10 0.1592
859.20 0.1591
859.30 0.1591
859.40 0.159
859.50 0.159
859.60 0.1589
859.70 0.1589
859.80 0.1589
859.90 0.1588
860.00 0.1588
860.10 0.1587
860.20 0.1587
860.30 0.1586
860.40 0.1586
860.50 0.1586
860.60 0.1585
860.70 0.1585
860.80 0.1584
860.90 0.1584
861.00 0.1583
861.10 0.1583
861.20 0.1583
861.30 0.1582
861.40 0.1582
861.50 0.1581
861.60 0.1581
861.70 0.158
861.80 0.158
861.90 0.1579
862.00 0.1579
862.10 0.1578
862.20 0.1578
862.30 0.1577
862.40 0.1576
862.50 0.1576
862.60 0.1575
862.70 0.1574
862.80 0.1574
862.90 0.1573
863.00 0.1572
863.10 0.1572
863.20 0.1571
863.30 0.157
863.40 0.157
863.50 0.1569
863.60 0.1568
863.70 0.1568
863.80 0.1567
863.90 0.1566
864.00 0.1566
864.10 0.1565
864.20 0.1564
864.30 0.1563
864.40 0.1563
864.50 0.1562
864.60 0.1561
864.70 0.1561
864.80 0.156
864.90 0.1559
865.00 0.1559
865.10 0.1558
865.20 0.1557
865.30 0.1557
865.40 0.1556
865.50 0.1555
865.60 0.1555
865.70 0.1554
865.80 0.1553
865.90 0.1553
866.00 0.1552
866.10 0.1551
866.20 0.1551
866.30 0.155
866.40 0.1549
866.50 0.1549
866.60 0.1548
866.70 0.1547
866.80 0.1547
866.90 0.1546
867.00 0.1545
867.10 0.1545
867.20 0.1545
867.30 0.1545
867.40 0.1545
867.50 0.1545
867.60 0.1545
867.70 0.1545
867.80 0.1545
867.90 0.1544
868.00 0.1544
868.10 0.1544
868.20 0.1544
868.30 0.1544
868.40 0.1544
868.50 0.1544
868.60 0.1544
868.70 0.1544
868.80 0.1543
868.90 0.1543
869.00 0.1543
869.10 0.1543
869.20 0.1543
869.30 0.1543
869.40 0.1543
869.50 0.1543
869.60 0.1543
869.70 0.1542
869.80 0.1542
869.90 0.1542
870.00 0.1542
870.10 0.1542
870.20 0.1542
870.30 0.1542
870.40 0.1542
870.50 0.1542
870.60 0.1542
870.70 0.1541
870.80 0.1541
870.90 0.1541
871.00 0.1541
871.10 0.1541
871.20 0.1541
871.30 0.1541
871.40 0.1541
871.50 0.1541
871.60 0.154
871.70 0.154
871.80 0.154
871.90 0.154
872.00 0.154
872.10 0.1539
872.20 0.1539
872.30 0.1538
872.40 0.1537
872.50 0.1536
872.60 0.1536
872.70 0.1535
872.80 0.1534
872.90 0.1533
873.00 0.1533
873.10 0.1532
873.20 0.1531
873.30 0.153
873.40 0.153
873.50 0.1529
873.60 0.1528
873.70 0.1527
873.80 0.1527
873.90 0.1526
874.00 0.1525
874.10 0.1524
874.20 0.1524
874.30 0.1523
874.40 0.1522
874.50 0.1521
874.60 0.1521
874.70 0.152
874.80 0.1519
874.90 0.1518
875.00 0.1518
875.10 0.1517
875.20 0.1516
875.30 0.1515
875.40 0.1515
875.50 0.1514
875.60 0.1513
875.70 0.1512
875.80 0.1512
875.90 0.1511
876.00 0.151
876.10 0.1509
876.20 0.1509
876.30 0.1508
876.40 0.1507
876.50 0.1506
876.60 0.1506
876.70 0.1505
876.80 0.1504
876.90 0.1503
877.00 0.1503
877.10 0.1503
877.20 0.1503
877.30 0.1503
877.40 0.1502
877.50 0.1502
877.60 0.1502
877.70 0.1502
877.80 0.1502
877.90 0.1502
878.00 0.1502
878.10 0.1502
878.20 0.1502
878.30 0.1502
878.40 0.1502
878.50 0.1502
878.60 0.1502
878.70 0.1501
878.80 0.1501
878.90 0.1501
879.00 0.1501
879.10 0.1501
879.20 0.1501
879.30 0.1501
879.40 0.1501
879.50 0.1501
879.60 0.1501
879.70 0.1501
879.80 0.1501
879.90 0.1501
880.00 0.1501
880.10 0.15
880.20 0.15
880.30 0.15
880.40 0.15
880.50 0.15
880.60 0.15
880.70 0.15
880.80 0.15
880.90 0.15
881.00 0.15
881.10 0.15
881.20 0.15
881.30 0.15
881.40 0.15
881.50 0.1499
881.60 0.1499
881.70 0.1499
881.80 0.1499
881.90 0.1499
882.00 0.1499
882.10 0.1496
882.20 0.1493
882.30 0.1491
882.40 0.1488
882.50 0.1485
882.60 0.1482
882.70 0.1479
882.80 0.1476
882.90 0.1474
883.00 0.1471
883.10 0.1468
883.20 0.1465
883.30 0.1462
883.40 0.146
883.50 0.1457
883.60 0.1454
883.70 0.1451
883.80 0.1448
883.90 0.1446
884.00 0.1443
884.10 0.144
884.20 0.1437
884.30 0.1434
884.40 0.1432
884.50 0.1429
884.60 0.1426
884.70 0.1423
884.80 0.142
884.90 0.1418
885.00 0.1415
885.10 0.1412
885.20 0.1409
885.30 0.1406
885.40 0.1404
885.50 0.1401
885.60 0.1398
885.70 0.1395
885.80 0.1392
885.90 0.139
886.00 0.1387
886.10 0.1384
886.20 0.1381
886.30 0.1378
886.40 0.1376
886.50 0.1373
886.60 0.137
886.70 0.1367
886.80 0.1365
886.90 0.1362
887.00 0.1359
887.10 0.1361
887.20 0.1362
887.30 0.1364
887.40 0.1366
887.50 0.1367
887.60 0.1369
887.70 0.137
887.80 0.1372
887.90 0.1374
888.00 0.1375
888.10 0.1377
888.20 0.1378
888.30 0.138
888.40 0.1382
888.50 0.1383
888.60 0.1385
888.70 0.1387
888.80 0.1388
888.90 0.139
889.00 0.1391
889.10 0.1393
889.20 0.1395
889.30 0.1396
889.40 0.1398
889.50 0.1399
889.60 0.1401
889.70 0.1403
889.80 0.1404
889.90 0.1406
890.00 0.1407
890.10 0.1409
890.20 0.1411
890.30 0.1412
890.40 0.1414
890.50 0.1415
890.60 0.1417
890.70 0.1419
890.80 0.142
890.90 0.1422
891.00 0.1423
891.10 0.1425
891.20 0.1426
891.30 0.1428
891.40 0.143
891.50 0.1431
891.60 0.1433
891.70 0.1434
891.80 0.1436
891.90 0.1438
892.00 0.1439
892.10 0.1438
892.20 0.1437
892.30 0.1436
892.40 0.1435
892.50 0.1434
892.60 0.1433
892.70 0.1432
892.80 0.1431
892.90 0.143
893.00 0.1429
893.10 0.1427
893.20 0.1426
893.30 0.1425
893.40 0.1424
893.50 0.1423
893.60 0.1422
893.70 0.1421
893.80 0.142
893.90 0.1419
894.00 0.1418
894.10 0.1417
894.20 0.1416
894.30 0.1415
894.40 0.1414
894.50 0.1413
894.60 0.1412
894.70 0.1411
894.80 0.141
894.90 0.1408
895.00 0.1407
895.10 0.1406
895.20 0.1405
895.30 0.1404
895.40 0.1403
895.50 0.1402
895.60 0.1401
895.70 0.14
895.80 0.1399
895.90 0.1398
896.00 0.1397
896.10 0.1396
896.20 0.1395
896.30 0.1394
896.40 0.1393
896.50 0.1392
896.60 0.1391
896.70 0.139
896.80 0.1389
896.90 0.1388
897.00 0.1387
897.10 0.1383
897.20 0.1379
897.30 0.1375
897.40 0.1371
897.50 0.1367
897.60 0.1363
897.70 0.1359
897.80 0.1355
897.90 0.1352
898.00 0.1348
898.10 0.1344
898.20 0.134
898.30 0.1336
898.40 0.1332
898.50 0.1328
898.60 0.1324
898.70 0.1321
898.80 0.1317
898.90 0.1313
899.00 0.1309
899.10 0.1305
899.20 0.1301
899.30 0.1297
899.40 0.1294
899.50 0.129
899.60 0.1286
899.70 0.1282
899.80 0.1278
899.90 0.1274
900.00 0.127
900.10 0.1267
900.20 0.1263
900.30 0.1259
900.40 0.1255
900.50 0.1251
900.60 0.1247
900.70 0.1244
900.80 0.124
900.90 0.1236
901.00 0.1232
901.10 0.1228
901.20 0.1224
901.30 0.1221
901.40 0.1217
901.50 0.1213
901.60 0.1209
901.70 0.1205
901.80 0.1201
901.90 0.1198
902.00 0.1194
902.10 0.1196
902.20 0.1199
902.30 0.1201
902.40 0.1204
902.50 0.1206
902.60 0.1208
902.70 0.1211
902.80 0.1213
902.90 0.1216
903.00 0.1218
903.10 0.122
903.20 0.1223
903.30 0.1225
903.40 0.1228
903.50 0.123
903.60 0.1232
903.70 0.1235
903.80 0.1237
903.90 0.124
904.00 0.1242
904.10 0.1244
904.20 0.1247
904.30 0.1249
904.40 0.1252
904.50 0.1254
904.60 0.1256
904.70 0.1259
904.80 0.1261
904.90 0.1264
905.00 0.1266
905.10 0.1268
905.20 0.1271
905.30 0.1273
905.40 0.1276
905.50 0.1278
905.60 0.128
905.70 0.1283
905.80 0.1285
905.90 0.1288
906.00 0.129
906.10 0.1292
906.20 0.1295
906.30 0.1297
906.40 0.1299
906.50 0.1302
906.60 0.1304
906.70 0.1307
906.80 0.1309
906.90 0.1311
907.00 0.1314
907.10 0.1314
907.20 0.1314
907.30 0.1315
907.40 0.1315
907.50 0.1316
907.60 0.1316
907.70 0.1316
907.80 0.1317
907.90 0.1317
908.00 0.1318
908.10 0.1318
908.20 0.1318
908.30 0.1319
908.40 0.1319
908.50 0.1319
908.60 0.132
908.70 0.132
908.80 0.1321
908.90 0.1321
909.00 0.1321
909.10 0.1322
909.20 0.1322
909.30 0.1323
909.40 0.1323
909.50 0.1323
909.60 0.1324
909.70 0.1324
909.80 0.1324
909.90 0.1325
910.00 0.1325
910.10 0.1326
910.20 0.1326
910.30 0.1326
910.40 0.1327
910.50 0.1327
910.60 0.1328
910.70 0.1328
910.80 0.1328
910.90 0.1329
911.00 0.1329
911.10 0.1329
911.20 0.133
911.30 0.133
911.40 0.1331
911.50 0.1331
911.60 0.1331
911.70 0.1332
911.80 0.1332
911.90 0.1332
912.00 0.1333
912.10 0.1331
912.20 0.1329
912.30 0.1327
912.40 0.1325
912.50 0.1324
912.60 0.1322
912.70 0.132
912.80 0.1318
912.90 0.1316
913.00 0.1314
913.10 0.1313
913.20 0.1311
913.30 0.1309
913.40 0.1307
913.50 0.1305
913.60 0.1304
913.70 0.1302
913.80 0.13
913.90 0.1298
914.00 0.1296
914.10 0.1294
914.20 0.1293
914.30 0.1291
914.40 0.1289
914.50 0.1287
914.60 0.1285
914.70 0.1284
914.80 0.1282
914.90 0.128
915.00 0.1278
915.10 0.1276
915.20 0.1274
915.30 0.1273
915.40 0.1271
915.50 0.1269
915.60 0.1267
915.70 0.1265
915.80 0.1264
915.90 0.1262
916.00 0.126
916.10 0.1258
916.20 0.1256
916.30 0.1255
916.40 0.1253
916.50 0.1251
916.60 0.1249
916.70 0.1247
916.80 0.1246
916.90 0.1244
917.00 0.1242
917.10 0.1238
917.20 0.1234
917.30 0.123
917.40 0.1226
917.50 0.1222
917.60 0.1218
917.70 0.1213
917.80 0.1209
917.90 0.1205
918.00 0.1201
918.10 0.1197
918.20 0.1193
918.30 0.1189
918.40 0.1185
918.50 0.1181
918.60 0.1177
918.70 0.1173
918.80 0.1169
918.90 0.1165
919.00 0.1161
919.10 0.1157
919.20 0.1153
919.30 0.1149
919.40 0.1145
919.50 0.1141
919.60 0.1136
919.70 0.1132
919.80 0.1128
919.90 0.1124
920.00 0.112
920.10 0.1116
920.20 0.1112
920.30 0.1108
920.40 0.1104
920.50 0.11
920.60 0.1096
920.70 0.1092
920.80 0.1088
920.90 0.1084
921.00 0.108
921.10 0.1076
921.20 0.1072
921.30 0.1068
921.40 0.1064
921.50 0.106
921.60 0.1056
921.70 0.1052
921.80 0.1048
921.90 0.1044
922.00 0.104
922.10 0.1042
922.20 0.1045
922.30 0.1047
922.40 0.1049
922.50 0.1051
922.60 0.1053
922.70 0.1056
922.80 0.1058
922.90 0.106
923.00 0.1062
923.10 0.1064
923.20 0.1066
923.30 0.1069
923.40 0.1071
923.50 0.1073
923.60 0.1075
923.70 0.1077
923.80 0.108
923.90 0.1082
924.00 0.1084
924.10 0.1086
924.20 0.1088
924.30 0.109
924.40 0.1093
924.50 0.1095
924.60 0.1097
924.70 0.1099
924.80 0.1101
924.90 0.1103
925.00 0.1106
925.10 0.1108
925.20 0.111
925.30 0.1112
925.40 0.1114
925.50 0.1116
925.60 0.1119
925.70 0.1121
925.80 0.1123
925.90 0.1125
926.00 0.1127
926.10 0.1129
926.20 0.1132
926.30 0.1134
926.40 0.1136
926.50 0.1138
926.60 0.114
926.70 0.1142
926.80 0.1144
926.90 0.1147
927.00 0.1149
927.10 0.115
927.20 0.1152
927.30 0.1153
927.40 0.1155
927.50 0.1157
927.60 0.1158
927.70 0.116
927.80 0.1161
927.90 0.1163
928.00 0.1164
928.10 0.1166
928.20 0.1168
928.30 0.1169
928.40 0.1171
928.50 0.1172
928.60 0.1174
928.70 0.1175
928.80 0.1177
928.90 0.1179
929.00 0.118
929.10 0.1182
929.20 0.1183
929.30 0.1185
929.40 0.1186
929.50 0.1188
929.60 0.1189
929.70 0.1191
929.80 0.1193
929.90 0.1194
930.00 0.1196
930.10 0.1197
930.20 0.1199
930.30 0.12
930.40 0.1202
930.50 0.1203
930.60 0.1205
930.70 0.1207
930.80 0.1208
930.90 0.121
931.00 0.1211
931.10 0.1213
931.20 0.1214
931.30 0.1216
931.40 0.1217
931.50 0.1219
931.60 0.1221
931.70 0.1222
931.80 0.1224
931.90 0.1225
932.00 0.1227
932.10 0.1227
932.20 0.1227
932.30 0.1228
932.40 0.1228
932.50 0.1229
932.60 0.1229
932.70 0.1229
932.80 0.123
932.90 0.123
933.00 0.123
933.10 0.1231
933.20 0.1231
933.30 0.1232
933.40 0.1232
933.50 0.1232
933.60 0.1233
933.70 0.1233
933.80 0.1234
933.90 0.1234
934.00 0.1234
934.10 0.1235
934.20 0.1235
934.30 0.1235
934.40 0.1235
934.50 0.1235
934.60 0.1235
934.70 0.1235
934.80 0.1235
934.90 0.1235
935.00 0.1235
935.10 0.1235
935.20 0.1235
935.30 0.1235
935.40 0.1235
935.50 0.1234
935.60 0.1234
935.70 0.1234
935.80 0.1234
935.90 0.1234
936.00 0.1234
936.10 0.1234
936.20 0.1234
936.30 0.1234
936.40 0.1234
936.50 0.1234
936.60 0.1234
936.70 0.1234
936.80 0.1233
936.90 0.1233
937.00 0.1233
937.10 0.1233
937.20 0.1233
937.30 0.1232
937.40 0.1232
937.50 0.1232
937.60 0.1231
937.70 0.1231
937.80 0.123
937.90 0.123
938.00 0.123
938.10 0.1229
938.20 0.1229
938.30 0.1229
938.40 0.1228
938.50 0.1228
938.60 0.1227
938.70 0.1226
938.80 0.1226
938.90 0.1225
939.00 0.1225
939.10 0.1224
939.20 0.1224
939.30 0.1223
939.40 0.1222
939.50 0.1222
939.60 0.1221
939.70 0.1221
939.80 0.122
939.90 0.122
940.00 0.1219
940.10 0.1218
940.20 0.1218
940.30 0.1217
940.40 0.1216
940.50 0.1216
940.60 0.1215
940.70 0.1214
940.80 0.1213
940.90 0.1212
941.00 0.1212
941.10 0.1211
941.20 0.121
941.30 0.1209
941.40 0.1208
941.50 0.1207
941.60 0.1207
941.70 0.1206
941.80 0.1205
941.90 0.1204
942.00 0.1203
942.10 0.1202
942.20 0.1201
942.30 0.12
942.40 0.1199
942.50 0.1198
942.60 0.1197
942.70 0.1196
942.80 0.1194
942.90 0.1193
943.00 0.1192
943.10 0.1191
943.20 0.119
943.30 0.1188
943.40 0.1187
943.50 0.1186
943.60 0.1185
943.70 0.1184
943.80 0.1182
943.90 0.1181
944.00 0.118
944.10 0.1179
944.20 0.1178
944.30 0.1176
944.40 0.1175
944.50 0.1173
944.60 0.1172
944.70 0.117
944.80 0.1169
944.90 0.1167
945.00 0.1166
945.10 0.1164
945.20 0.1162
945.30 0.1161
945.40 0.1159
945.50 0.1157
945.60 0.1155
945.70 0.1153
945.80 0.1151
945.90 0.1149
946.00 0.1147
946.10 0.1145
946.20 0.1143
946.30 0.1141
946.40 0.1139
946.50 0.1138
946.60 0.1136
946.70 0.1134
946.80 0.1132
946.90 0.113
947.00 0.1128
947.10 0.1126
947.20 0.1123
947.30 0.1121
947.40 0.1118
947.50 0.1115
947.60 0.1113
947.70 0.111
947.80 0.1107
947.90 0.1104
948.00 0.1102
948.10 0.1099
948.20 0.1096
948.30 0.1093
948.40 0.1091
948.50 0.1088
948.60 0.1085
948.70 0.1082
948.80 0.108
948.90 0.1077
949.00 0.1074
949.10 0.1071
949.20 0.1069
949.30 0.1066
949.40 0.1062
949.50 0.1059
949.60 0.1055
949.70 0.1051
949.80 0.1048
949.90 0.1044
950.00 0.104
950.10 0.1037
950.20 0.1033
950.30 0.103
950.40 0.1026
950.50 0.1022
950.60 0.1019
950.70 0.1015
950.80 0.1011
950.90 0.1008
951.00 0.1004
951.10 0.1
951.20 0.09969
951.30 0.09933
951.40 0.09891
951.50 0.09849
951.60 0.09807
951.70 0.09765
951.80 0.09723
951.90 0.09681
952.00 0.09639
952.10 0.09595
952.20 0.09551
952.30 0.09507
952.40 0.09463
952.50 0.09419
952.60 0.09375
952.70 0.09331
952.80 0.09287
952.90 0.09244
953.00 0.092
953.10 0.09157
953.20 0.09114
953.30 0.0907
953.40 0.09027
953.50 0.08984
953.60 0.08947
953.70 0.08911
953.80 0.08875
953.90 0.08839
954.00 0.08828
954.10 0.08817
954.20 0.08867
954.30 0.09007
954.40 0.0886
954.50 0.08806
954.60 0.08811
954.70 0.08816
954.80 0.08846
954.90 0.08876
955.00 0.08906
955.10 0.08936
955.20 0.08973
955.30 0.0901
955.40 0.09047
955.50 0.09083
955.60 0.0912
955.70 0.09157
955.80 0.09194
955.90 0.0923
956.00 0.09266
956.10 0.09302
956.20 0.09338
956.30 0.09375
956.40 0.09411
956.50 0.09447
956.60 0.09483
956.70 0.09519
956.80 0.09555
956.90 0.09591
957.00 0.09627
957.10 0.09661
957.20 0.09694
957.30 0.09728
957.40 0.09756
957.50 0.09784
957.60 0.09812
957.70 0.0984
957.80 0.09868
957.90 0.09896
958.00 0.09924
958.10 0.09952
958.20 0.0998
958.30 0.1001
958.40 0.1004
958.50 0.1006
958.60 0.1009
958.70 0.1012
958.80 0.1015
958.90 0.1018
959.00 0.102
959.10 0.1023
959.20 0.1026
959.30 0.1029
959.40 0.1031
959.50 0.1032
959.60 0.1034
959.70 0.1036
959.80 0.1038
959.90 0.104
960.00 0.1042
960.10 0.1044
960.20 0.1046
960.30 0.1048
960.40 0.1049
960.50 0.1051
960.60 0.1053
960.70 0.1055
960.80 0.1057
960.90 0.1059
961.00 0.1061
961.10 0.1063
961.20 0.1064
961.30 0.1066
961.40 0.1068
961.50 0.1069
961.60 0.107
961.70 0.1072
961.80 0.1073
961.90 0.1074
962.00 0.1076
962.10 0.1077
962.20 0.1078
962.30 0.1079
962.40 0.108
962.50 0.1081
962.60 0.1082
962.70 0.1083
962.80 0.1084
962.90 0.1085
963.00 0.1086
963.10 0.1087
963.20 0.1088
963.30 0.1089
963.40 0.1089
963.50 0.109
963.60 0.1091
963.70 0.1092
963.80 0.1092
963.90 0.1093
964.00 0.1094
964.10 0.1094
964.20 0.1095
964.30 0.1096
964.40 0.1096
964.50 0.1097
964.60 0.1097
964.70 0.1097
964.80 0.1098
964.90 0.1098
965.00 0.1099
965.10 0.1099
965.20 0.1099
965.30 0.11
965.40 0.11
965.50 0.1101
965.60 0.1101
965.70 0.1101
965.80 0.1102
965.90 0.1102
966.00 0.1103
966.10 0.1103
966.20 0.1103
966.30 0.1104
966.40 0.1104
966.50 0.1104
966.60 0.1104
966.70 0.1104
966.80 0.1105
966.90 0.1105
967.00 0.1105
967.10 0.1105
967.20 0.1105
967.30 0.1105
967.40 0.1105
967.50 0.1105
967.60 0.1105
967.70 0.1106
967.80 0.1106
967.90 0.1106
968.00 0.1106
968.10 0.1106
968.20 0.1106
968.30 0.1106
968.40 0.1106
968.50 0.1106
968.60 0.1106
968.70 0.1106
968.80 0.1106
968.90 0.1106
969.00 0.1105
969.10 0.1105
969.20 0.1105
969.30 0.1105
969.40 0.1105
969.50 0.1105
969.60 0.1105
969.70 0.1105
969.80 0.1105
969.90 0.1105
970.00 0.1105
970.10 0.1105
970.20 0.1105
970.30 0.1104
970.40 0.1104
970.50 0.1104
970.60 0.1104
970.70 0.1104
970.80 0.1104
970.90 0.1103
971.00 0.1103
971.10 0.1103
971.20 0.1103
971.30 0.1103
971.40 0.1102
971.50 0.1102
971.60 0.1102
971.70 0.1102
971.80 0.1102
971.90 0.1102
972.00 0.1101
972.10 0.1101
972.20 0.1101
972.30 0.1101
972.40 0.11
972.50 0.11
972.60 0.11
972.70 0.1099
972.80 0.1099
972.90 0.1099
973.00 0.1099
973.10 0.1098
973.20 0.1098
973.30 0.1098
973.40 0.1098
973.50 0.1097
973.60 0.1097
973.70 0.1097
973.80 0.1097
973.90 0.1096
974.00 0.1096
974.10 0.1096
974.20 0.1096
974.30 0.1095
974.40 0.1095
974.50 0.1095
974.60 0.1094
974.70 0.1094
974.80 0.1094
974.90 0.1093
975.00 0.1093
975.10 0.1093
975.20 0.1092
975.30 0.1092
975.40 0.1092
975.50 0.1091
975.60 0.1091
975.70 0.1091
975.80 0.109
975.90 0.109
976.00 0.109
976.10 0.1089
976.20 0.1089
976.30 0.1089
976.40 0.1088
976.50 0.1088
976.60 0.1088
976.70 0.1087
976.80 0.1087
976.90 0.1087
977.00 0.1086
977.10 0.1086
977.20 0.1085
977.30 0.1085
977.40 0.1085
977.50 0.1084
977.60 0.1084
977.70 0.1083
977.80 0.1083
977.90 0.1083
978.00 0.1082
978.10 0.1082
978.20 0.1081
978.30 0.1081
978.40 0.1081
978.50 0.108
978.60 0.108
978.70 0.1079
978.80 0.1079
978.90 0.1079
979.00 0.1078
979.10 0.1078
979.20 0.1077
979.30 0.1077
979.40 0.1077
979.50 0.1076
979.60 0.1076
979.70 0.1075
979.80 0.1075
979.90 0.1075
980.00 0.1074
980.10 0.1074
980.20 0.1073
980.30 0.1073
980.40 0.1073
980.50 0.1072
980.60 0.1072
980.70 0.1071
980.80 0.1071
980.90 0.1071
981.00 0.107
981.10 0.107
981.20 0.1069
981.30 0.1069
981.40 0.1069
981.50 0.1068
981.60 0.1068
981.70 0.1067
981.80 0.1067
981.90 0.1067
982.00 0.1066
982.10 0.1066
982.20 0.1065
982.30 0.1065
982.40 0.1064
982.50 0.1064
982.60 0.1063
982.70 0.1063
982.80 0.1062
982.90 0.1062
983.00 0.1061
983.10 0.1061
983.20 0.106
983.30 0.106
983.40 0.106
983.50 0.1059
983.60 0.1059
983.70 0.1058
983.80 0.1058
983.90 0.1057
984.00 0.1057
984.10 0.1056
984.20 0.1056
984.30 0.1055
984.40 0.1055
984.50 0.1054
984.60 0.1054
984.70 0.1053
984.80 0.1053
984.90 0.1052
985.00 0.1052
985.10 0.1051
985.20 0.1051
985.30 0.105
985.40 0.105
985.50 0.1049
985.60 0.1048
985.70 0.1048
985.80 0.1047
985.90 0.1047
986.00 0.1046
986.10 0.1046
986.20 0.1045
986.30 0.1045
986.40 0.1044
986.50 0.1044
986.60 0.1043
986.70 0.1043
986.80 0.1042
986.90 0.1041
987.00 0.1041
987.10 0.104
987.20 0.104
987.30 0.1039
987.40 0.1038
987.50 0.1038
987.60 0.1037
987.70 0.1037
987.80 0.1036
987.90 0.1035
988.00 0.1035
988.10 0.1034
988.20 0.1033
988.30 0.1033
988.40 0.1032
988.50 0.1032
988.60 0.1031
988.70 0.103
988.80 0.103
988.90 0.1029
989.00 0.1028
989.10 0.1027
989.20 0.1027
989.30 0.1026
989.40 0.1025
989.50 0.1024
989.60 0.1024
989.70 0.1023
989.80 0.1022
989.90 0.1022
990.00 0.1021
990.10 0.102
990.20 0.1019
990.30 0.1019
990.40 0.1018
990.50 0.1017
990.60 0.1017
990.70 0.1016
990.80 0.1015
990.90 0.1014
991.00 0.1013
991.10 0.1012
991.20 0.1011
991.30 0.1011
991.40 0.101
991.50 0.1009
991.60 0.1008
991.70 0.1007
991.80 0.1006
991.90 0.1005
992.00 0.1005
992.10 0.1004
992.20 0.1003
992.30 0.1002
992.40 0.1001
992.50 0.09998
992.60 0.09988
992.70 0.09977
992.80 0.09966
992.90 0.09954
993.00 0.09943
993.10 0.09931
993.20 0.0992
993.30 0.09908
993.40 0.09897
993.50 0.09885
993.60 0.09874
993.70 0.09862
993.80 0.09851
993.90 0.09839
994.00 0.09828
994.10 0.09816
994.20 0.09805
994.30 0.09793
994.40 0.09782
994.50 0.0977
994.60 0.09759
994.70 0.09745
994.80 0.09731
994.90 0.09717
995.00 0.09703
995.10 0.09689
995.20 0.09675
995.30 0.09661
995.40 0.09647
995.50 0.09633
995.60 0.09619
995.70 0.09603
995.80 0.09586
995.90 0.0957
996.00 0.09553
996.10 0.09537
996.20 0.0952
996.30 0.09503
996.40 0.09487
996.50 0.0947
996.60 0.09454
996.70 0.09437
996.80 0.09421
996.90 0.09404
997.00 0.09388
997.10 0.09368
997.20 0.09349
997.30 0.0933
997.40 0.09311
997.50 0.09291
997.60 0.09272
997.70 0.0925
997.80 0.09227
997.90 0.09204
998.00 0.0918
998.10 0.09157
998.20 0.09134
998.30 0.09111
998.40 0.09088
998.50 0.09064
998.60 0.09041
998.70 0.09018
998.80 0.08995
998.90 0.08972
999.00 0.08949
999.10 0.08926
999.20 0.08903
999.30 0.0888
999.40 0.08856
999.50 0.08833
999.60 0.0881
999.70 0.08782
999.80 0.08752
999.90 0.08722
1000.00 0.08692
1000.10 0.08662
1000.20 0.08631
1000.30 0.08601
1000.40 0.08571
1000.50 0.08541
1000.60 0.08511
1000.70 0.08481
1000.80 0.08451
1000.90 0.08421
1001.00 0.08391
1001.10 0.08361
1001.20 0.08331
1001.30 0.08302
1001.40 0.08272
1001.50 0.08242
1001.60 0.08212
1001.70 0.08179
1001.80 0.08144
1001.90 0.0811
1002.00 0.08076
1002.10 0.08038
1002.20 0.08001
1002.30 0.07964
1002.40 0.07927
1002.50 0.07889
1002.60 0.07852
1002.70 0.07815
1002.80 0.07778
1002.90 0.07741
1003.00 0.07704
1003.10 0.07666
1003.20 0.07625
1003.30 0.07583
1003.40 0.07541
1003.50 0.07499
1003.60 0.07457
1003.70 0.07415
1003.80 0.07373
1003.90 0.07326
1004.00 0.07277
1004.10 0.07228
1004.20 0.0718
1004.30 0.0713
1004.40 0.07079
1004.50 0.07042
1004.60 0.07093
1004.70 0.0704
1004.80 0.07048
1004.90 0.07093
1005.00 0.07139
1005.10 0.07184
1005.20 0.07227
1005.30 0.07271
1005.40 0.07315
1005.50 0.07353
1005.60 0.0739
1005.70 0.07427
1005.80 0.07464
1005.90 0.07501
1006.00 0.07537
1006.10 0.07574
1006.20 0.07607
1006.30 0.07639
1006.40 0.07671
1006.50 0.07703
1006.60 0.07735
1006.70 0.07767
1006.80 0.07799
1006.90 0.07831
1007.00 0.07863
1007.10 0.07892
1007.20 0.0792
1007.30 0.07949
1007.40 0.07977
1007.50 0.08006
1007.60 0.08035
1007.70 0.08059
1007.80 0.08083
1007.90 0.08106
1008.00 0.0813
1008.10 0.08153
1008.20 0.08176
1008.30 0.082
1008.40 0.08223
1008.50 0.08246
1008.60 0.0827
1008.70 0.08293
1008.80 0.08316
1008.90 0.0834
1009.00 0.08363
1009.10 0.08386
1009.20 0.0841
1009.30 0.08433
1009.40 0.08456
1009.50 0.08479
1009.60 0.08503
1009.70 0.0852
1009.80 0.08536
1009.90 0.08553
1010.00 0.08569
1010.10 0.08585
1010.20 0.08601
1010.30 0.08617
1010.40 0.08633
1010.50 0.08649
1010.60 0.08665
1010.70 0.08681
1010.80 0.08697
1010.90 0.08713
1011.00 0.08729
1011.10 0.08745
1011.20 0.08761
1011.30 0.08777
1011.40 0.08793
1011.50 0.08809
1011.60 0.08825
1011.70 0.08838
1011.80 0.0885
1011.90 0.08862
1012.00 0.08874
1012.10 0.08883
1012.20 0.08893
1012.30 0.08902
1012.40 0.08912
1012.50 0.08921
1012.60 0.08931
1012.70 0.0894
1012.80 0.0895
1012.90 0.0896
1013.00 0.08969
1013.10 0.08979
1013.20 0.08988
1013.30 0.08998
1013.40 0.09007
1013.50 0.09017
1013.60 0.09026
1013.70 0.09034
1013.80 0.0904
1013.90 0.09047
1014.00 0.09053
1014.10 0.0906
1014.20 0.09066
1014.30 0.09073
1014.40 0.0908
1014.50 0.09086
1014.60 0.09093
1014.70 0.09097
1014.80 0.09101
1014.90 0.09105
1015.00 0.09109
1015.10 0.09113
1015.20 0.09117
1015.30 0.09121
1015.40 0.09125
1015.50 0.09129
1015.60 0.09133
1015.70 0.09137
1015.80 0.09141
1015.90 0.09145
1016.00 0.09149
1016.10 0.09152
1016.20 0.09156
1016.30 0.0916
1016.40 0.09164
1016.50 0.09168
1016.60 0.09172
1016.70 0.09175
1016.80 0.09178
1016.90 0.09181
1017.00 0.09184
1017.10 0.09185
1017.20 0.09186
1017.30 0.09188
1017.40 0.09189
1017.50 0.0919
1017.60 0.09192
1017.70 0.09193
1017.80 0.09194
1017.90 0.09196
1018.00 0.09197
1018.10 0.09198
1018.20 0.092
1018.30 0.09201
1018.40 0.09203
1018.50 0.09204
1018.60 0.09205
1018.70 0.09205
1018.80 0.09205
1018.90 0.09205
1019.00 0.09205
1019.10 0.09205
1019.20 0.09205
1019.30 0.09205
1019.40 0.09205
1019.50 0.09205
1019.60 0.09205
1019.70 0.09205
1019.80 0.09205
1019.90 0.09204
1020.00 0.09204
1020.10 0.09204
1020.20 0.09204
1020.30 0.09204
1020.40 0.09204
1020.50 0.09204
1020.60 0.09204
1020.70 0.09203
1020.80 0.09202
1020.90 0.09201
1021.00 0.092
1021.10 0.09199
1021.20 0.09198
1021.30 0.09196
1021.40 0.09195
1021.50 0.09194
1021.60 0.09193
1021.70 0.09192
1021.80 0.09191
1021.90 0.0919
1022.00 0.09189
1022.10 0.09187
1022.20 0.09185
1022.30 0.09184
1022.40 0.09182
1022.50 0.0918
1022.60 0.09179
1022.70 0.09177
1022.80 0.09175
1022.90 0.09174
1023.00 0.09172
1023.10 0.0917
1023.20 0.09169
1023.30 0.09167
1023.40 0.09165
1023.50 0.09163
1023.60 0.09162
1023.70 0.0916
1023.80 0.09158
1023.90 0.09157
1024.00 0.09155
1024.10 0.09153
1024.20 0.09152
1024.30 0.0915
1024.40 0.09148
1024.50 0.09147
1024.60 0.09145
1024.70 0.09143
1024.80 0.09141
1024.90 0.09138
1025.00 0.09136
1025.10 0.09134
1025.20 0.09132
1025.30 0.09129
1025.40 0.09127
1025.50 0.09125
1025.60 0.09123
1025.70 0.0912
1025.80 0.09118
1025.90 0.09116
1026.00 0.09114
1026.10 0.09111
1026.20 0.09109
1026.30 0.09107
1026.40 0.09105
1026.50 0.09103
1026.60 0.091
1026.70 0.09098
1026.80 0.09096
1026.90 0.09094
1027.00 0.09091
1027.10 0.09089
1027.20 0.09086
1027.30 0.09083
1027.40 0.09081
1027.50 0.09078
1027.60 0.09075
1027.70 0.09073
1027.80 0.0907
1027.90 0.09067
1028.00 0.09065
1028.10 0.09062
1028.20 0.09059
1028.30 0.09057
1028.40 0.09054
1028.50 0.09051
1028.60 0.09049
1028.70 0.09046
1028.80 0.09043
1028.90 0.09041
1029.00 0.09038
1029.10 0.09035
1029.20 0.09033
1029.30 0.0903
1029.40 0.09027
1029.50 0.09025
1029.60 0.09022
1029.70 0.09019
1029.80 0.09017
1029.90 0.09014
1030.00 0.09011
1030.10 0.09009
1030.20 0.09006
1030.30 0.09004
1030.40 0.09001
1030.50 0.08998
1030.60 0.08996
1030.70 0.08993
1030.80 0.0899
1030.90 0.08988
1031.00 0.08985
1031.10 0.08982
1031.20 0.0898
1031.30 0.08977
1031.40 0.08974
1031.50 0.08972
1031.60 0.08969
1031.70 0.08967
1031.80 0.08964
1031.90 0.08961
1032.00 0.08959
1032.10 0.08956
1032.20 0.08953
1032.30 0.0895
1032.40 0.08947
1032.50 0.08944
1032.60 0.08941
1032.70 0.08938
1032.80 0.08935
1032.90 0.08932
1033.00 0.08929
1033.10 0.08927
1033.20 0.08924
1033.30 0.08921
1033.40 0.08918
1033.50 0.08915
1033.60 0.08912
1033.70 0.08909
1033.80 0.08906
1033.90 0.08903
1034.00 0.089
1034.10 0.08898
1034.20 0.08895
1034.30 0.08892
1034.40 0.08889
1034.50 0.08886
1034.60 0.08883
1034.70 0.0888
1034.80 0.08877
1034.90 0.08874
1035.00 0.08871
1035.10 0.08869
1035.20 0.08866
1035.30 0.08863
1035.40 0.0886
1035.50 0.08857
1035.60 0.08854
1035.70 0.08851
1035.80 0.08848
1035.90 0.08845
1036.00 0.08843
1036.10 0.0884
1036.20 0.08837
1036.30 0.08834
1036.40 0.08831
1036.50 0.08828
1036.60 0.08825
1036.70 0.08822
1036.80 0.0882
1036.90 0.08817
1037.00 0.08814
1037.10 0.08811
1037.20 0.08808
1037.30 0.08805
1037.40 0.08802
1037.50 0.08799
1037.60 0.08796
1037.70 0.08793
1037.80 0.0879
1037.90 0.08787
1038.00 0.08784
1038.10 0.08781
1038.20 0.08778
1038.30 0.08775
1038.40 0.08772
1038.50 0.08769
1038.60 0.08766
1038.70 0.08763
1038.80 0.0876
1038.90 0.08757
1039.00 0.08754
1039.10 0.08751
1039.20 0.08748
1039.30 0.08745
1039.40 0.08742
1039.50 0.08739
1039.60 0.08736
1039.70 0.08733
1039.80 0.0873
1039.90 0.08727
1040.00 0.08724
1040.10 0.08722
1040.20 0.08719
1040.30 0.08716
1040.40 0.08713
1040.50 0.0871
1040.60 0.08707
1040.70 0.08704
1040.80 0.08701
1040.90 0.08698
1041.00 0.08695
1041.10 0.08692
1041.20 0.08689
1041.30 0.08686
1041.40 0.08683
1041.50 0.0868
1041.60 0.08677
1041.70 0.08674
1041.80 0.08671
1041.90 0.08668
1042.00 0.08665
1042.10 0.08662
1042.20 0.08659
1042.30 0.08656
1042.40 0.08653
1042.50 0.0865
1042.60 0.08647
1042.70 0.08644
1042.80 0.08641
1042.90 0.08638
1043.00 0.08635
1043.10 0.08632
1043.20 0.08629
1043.30 0.08626
1043.40 0.08623
1043.50 0.0862
1043.60 0.08617
1043.70 0.08615
1043.80 0.08612
1043.90 0.08609
1044.00 0.08606
1044.10 0.08603
1044.20 0.086
1044.30 0.08597
1044.40 0.08594
1044.50 0.08591
1044.60 0.08588
1044.70 0.08585
1044.80 0.08582
1044.90 0.08579
1045.00 0.08576
1045.10 0.08573
1045.20 0.0857
1045.30 0.08567
1045.40 0.08564
1045.50 0.08561
1045.60 0.08558
1045.70 0.08555
1045.80 0.08552
1045.90 0.08549
1046.00 0.08546
1046.10 0.08543
1046.20 0.0854
1046.30 0.08537
1046.40 0.08534
1046.50 0.08531
1046.60 0.08528
1046.70 0.08525
1046.80 0.08522
1046.90 0.08519
1047.00 0.08517
1047.10 0.08514
1047.20 0.08511
1047.30 0.08508
1047.40 0.08505
1047.50 0.08502
1047.60 0.08499
1047.70 0.08496
1047.80 0.08493
1047.90 0.0849
1048.00 0.08487
1048.10 0.08484
1048.20 0.08481
1048.30 0.08478
1048.40 0.08475
1048.50 0.08472
1048.60 0.08469
1048.70 0.08466
1048.80 0.08463
1048.90 0.0846
1049.00 0.08457
1049.10 0.08454
1049.20 0.08451
1049.30 0.08448
1049.40 0.08445
1049.50 0.08442
1049.60 0.08439
1049.70 0.08436
1049.80 0.08433
1049.90 0.0843
1050.00 0.08427
1050.10 0.08424
1050.20 0.08421
1050.30 0.08418
1050.40 0.08415
1050.50 0.08412
1050.60 0.08409
1050.70 0.08406
1050.80 0.08403
1050.90 0.08401
1051.00 0.08398
1051.10 0.08395
1051.20 0.08392
1051.30 0.08389
1051.40 0.08386
1051.50 0.08383
1051.60 0.0838
1051.70 0.08377
1051.80 0.08374
1051.90 0.08371
1052.00 0.08368
1052.10 0.08365
1052.20 0.08362
1052.30 0.08359
1052.40 0.08356
1052.50 0.08353
1052.60 0.0835
1052.70 0.08347
1052.80 0.08344
1052.90 0.08341
1053.00 0.08338
1053.10 0.08335
1053.20 0.08332
1053.30 0.08329
1053.40 0.08326
1053.50 0.08323
1053.60 0.0832
1053.70 0.08317
1053.80 0.08314
1053.90 0.08311
1054.00 0.08308
1054.10 0.08306
1054.20 0.08303
1054.30 0.083
1054.40 0.08297
1054.50 0.08294
1054.60 0.08291
1054.70 0.08288
1054.80 0.08285
1054.90 0.08282
1055.00 0.08279
1055.10 0.08276
1055.20 0.08273
1055.30 0.0827
1055.40 0.08267
1055.50 0.08264
1055.60 0.08261
1055.70 0.08258
1055.80 0.08255
1055.90 0.08252
1056.00 0.08249
1056.10 0.08246
1056.20 0.08243
1056.30 0.0824
1056.40 0.08238
1056.50 0.08235
1056.60 0.08232
1056.70 0.08229
1056.80 0.08226
1056.90 0.08223
1057.00 0.0822
1057.10 0.08217
1057.20 0.08214
1057.30 0.08211
1057.40 0.08208
1057.50 0.08205
1057.60 0.08202
1057.70 0.08199
1057.80 0.08196
1057.90 0.08193
1058.00 0.0819
1058.10 0.08187
1058.20 0.08184
1058.30 0.08181
1058.40 0.08178
1058.50 0.08175
1058.60 0.08172
1058.70 0.08169
1058.80 0.08166
1058.90 0.08163
1059.00 0.0816
1059.10 0.08157
1059.20 0.08154
1059.30 0.08151
1059.40 0.08148
1059.50 0.08145
1059.60 0.08142
1059.70 0.08139
1059.80 0.08136
1059.90 0.08133
1060.00 0.0813
1060.10 0.08127
1060.20 0.08124
1060.30 0.08121
1060.40 0.08118
1060.50 0.08115
1060.60 0.08112
1060.70 0.08109
1060.80 0.08106
1060.90 0.08103
1061.00 0.08101
1061.10 0.08098
1061.20 0.08095
1061.30 0.08092
1061.40 0.08089
1061.50 0.08086
1061.60 0.08083
1061.70 0.0808
1061.80 0.08077
1061.90 0.08074
1062.00 0.08071
1062.10 0.08068
1062.20 0.08065
1062.30 0.08062
1062.40 0.08059
1062.50 0.08056
1062.60 0.08053
1062.70 0.08049
1062.80 0.08046
1062.90 0.08043
1063.00 0.0804
1063.10 0.08037
1063.20 0.08034
1063.30 0.08031
1063.40 0.08028
1063.50 0.08025
1063.60 0.08022
1063.70 0.08019
1063.80 0.08016
1063.90 0.08013
1064.00 0.0801
1064.10 0.08007
1064.20 0.08004
1064.30 0.08001
1064.40 0.07998
1064.50 0.07994
1064.60 0.07991
1064.70 0.07988
1064.80 0.07985
1064.90 0.07982
1065.00 0.07979
1065.10 0.07976
1065.20 0.07973
1065.30 0.0797
1065.40 0.07967
1065.50 0.07964
1065.60 0.07961
1065.70 0.07958
1065.80 0.07955
1065.90 0.07952
1066.00 0.07949
1066.10 0.07946
1066.20 0.07943
1066.30 0.0794
1066.40 0.07937
1066.50 0.07934
1066.60 0.07931
1066.70 0.07928
1066.80 0.07925
1066.90 0.07922
1067.00 0.07919
1067.10 0.07915
1067.20 0.07912
1067.30 0.07909
1067.40 0.07906
1067.50 0.07902
1067.60 0.07899
1067.70 0.07896
1067.80 0.07893
1067.90 0.07889
1068.00 0.07886
1068.10 0.07883
1068.20 0.07879
1068.30 0.07876
1068.40 0.07873
1068.50 0.0787
1068.60 0.07866
1068.70 0.07863
1068.80 0.0786
1068.90 0.07857
1069.00 0.07853
1069.10 0.0785
1069.20 0.07847
1069.30 0.07844
1069.40 0.0784
1069.50 0.07837
1069.60 0.07834
1069.70 0.07831
1069.80 0.07827
1069.90 0.07824
1070.00 0.07821
1070.10 0.07818
1070.20 0.07814
1070.30 0.07811
1070.40 0.07808
1070.50 0.07805
1070.60 0.07802
1070.70 0.07798
1070.80 0.07795
1070.90 0.07792
1071.00 0.07789
1071.10 0.07785
1071.20 0.07782
1071.30 0.07779
1071.40 0.07776
1071.50 0.07772
1071.60 0.07769
1071.70 0.07766
1071.80 0.07763
1071.90 0.0776
1072.00 0.07756
1072.10 0.07753
1072.20 0.07749
1072.30 0.07746
1072.40 0.07742
1072.50 0.07739
1072.60 0.07735
1072.70 0.07732
1072.80 0.07728
1072.90 0.07725
1073.00 0.07721
1073.10 0.07718
1073.20 0.07714
1073.30 0.0771
1073.40 0.07707
1073.50 0.07703
1073.60 0.07699
1073.70 0.07695
1073.80 0.07691
1073.90 0.07687
1074.00 0.07683
1074.10 0.0768
1074.20 0.07676
1074.30 0.07672
1074.40 0.07668
1074.50 0.07664
1074.60 0.0766
1074.70 0.07656
1074.80 0.07652
1074.90 0.07648
1075.00 0.07644
1075.10 0.0764
1075.20 0.07636
1075.30 0.07632
1075.40 0.07628
1075.50 0.07624
1075.60 0.0762
1075.70 0.07616
1075.80 0.07612
1075.90 0.07608
1076.00 0.07605
1076.10 0.07601
1076.20 0.07597
1076.30 0.07593
1076.40 0.07589
1076.50 0.07585
1076.60 0.07581
1076.70 0.07577
1076.80 0.07573
1076.90 0.07569
1077.00 0.07565
1077.10 0.07561
1077.20 0.07556
1077.30 0.07552
1077.40 0.07548
1077.50 0.07543
1077.60 0.07538
1077.70 0.07533
1077.80 0.07528
1077.90 0.07523
1078.00 0.07518
1078.10 0.07513
1078.20 0.07509
1078.30 0.07504
1078.40 0.07499
1078.50 0.07494
1078.60 0.07489
1078.70 0.07484
1078.80 0.07479
1078.90 0.07474
1079.00 0.07469
1079.10 0.07464
1079.20 0.07459
1079.30 0.07454
1079.40 0.07449
1079.50 0.07444
1079.60 0.07438
1079.70 0.07432
1079.80 0.07425
1079.90 0.07419
1080.00 0.07413
1080.10 0.07407
1080.20 0.07401
1080.30 0.07394
1080.40 0.07388
1080.50 0.07382
1080.60 0.07376
1080.70 0.0737
1080.80 0.07364
1080.90 0.07357
1081.00 0.07351
1081.10 0.07345
1081.20 0.07339
1081.30 0.07333
1081.40 0.07327
1081.50 0.0732
1081.60 0.07313
1081.70 0.07306
1081.80 0.073
1081.90 0.07293
1082.00 0.07286
1082.10 0.07278
1082.20 0.0727
1082.30 0.07262
1082.40 0.07254
1082.50 0.07246
1082.60 0.07238
1082.70 0.0723
1082.80 0.07222
1082.90 0.07214
1083.00 0.07206
1083.10 0.07198
1083.20 0.0719
1083.30 0.07182
1083.40 0.07174
1083.50 0.07166
1083.60 0.07156
1083.70 0.07147
1083.80 0.07137
1083.90 0.07128
1084.00 0.07118
1084.10 0.07109
1084.20 0.07099
1084.30 0.0709
1084.40 0.0708
1084.50 0.0707
1084.60 0.07058
1084.70 0.07047
1084.80 0.07035
1084.90 0.07023
1085.00 0.07011
1085.10 0.07
1085.20 0.06988
1085.30 0.06976
1085.40 0.06965
1085.50 0.06953
1085.60 0.06941
1085.70 0.06929
1085.80 0.06918
1085.90 0.06906
1086.00 0.06894
1086.10 0.06883
1086.20 0.06871
1086.30 0.06859
1086.40 0.06847
1086.50 0.06835
1086.60 0.06821
1086.70 0.06807
1086.80 0.06792
1086.90 0.06778
1087.00 0.06764
1087.10 0.06748
1087.20 0.06732
1087.30 0.06715
1087.40 0.06699
1087.50 0.06683
1087.60 0.06667
1087.70 0.06651
1087.80 0.06634
1087.90 0.06618
1088.00 0.06602
1088.10 0.06586
1088.20 0.0657
1088.30 0.06553
1088.40 0.06537
1088.50 0.0652
1088.60 0.06499
1088.70 0.06479
1088.80 0.06458
1088.90 0.06437
1089.00 0.06417
1089.10 0.06396
1089.20 0.06376
1089.30 0.06355
1089.40 0.06335
1089.50 0.06314
1089.60 0.06294
1089.70 0.06273
1089.80 0.06253
1089.90 0.06232
1090.00 0.06212
1090.10 0.06192
1090.20 0.06171
1090.30 0.06151
1090.40 0.0613
1090.50 0.06108
1090.60 0.06082
1090.70 0.06057
1090.80 0.06031
1090.90 0.06005
1091.00 0.0598
1091.10 0.05954
1091.20 0.05928
1091.30 0.05903
1091.40 0.05877
1091.50 0.05851
1091.60 0.05826
1091.70 0.058
1091.80 0.05775
1091.90 0.05749
1092.00 0.05722
1092.10 0.0569
1092.20 0.05658
1092.30 0.05625
1092.40 0.05593
1092.50 0.05561
1092.60 0.05528
1092.70 0.05492
1092.80 0.05447
1092.90 0.05403
1093.00 0.05358
1093.10 0.05306
1093.20 0.05239
1093.30 0.05171
1093.40 0.05113
1093.50 0.05116
1093.60 0.05141
1093.70 0.05208
1093.80 0.05271
1093.90 0.05328
1094.00 0.05369
1094.10 0.0541
1094.20 0.05452
1094.30 0.05489
1094.40 0.05517
1094.50 0.05546
1094.60 0.05574
1094.70 0.05603
1094.80 0.05631
1094.90 0.0566
1095.00 0.05686
1095.10 0.05708
1095.20 0.05729
1095.30 0.05751
1095.40 0.05773
1095.50 0.05794
1095.60 0.05816
1095.70 0.05837
1095.80 0.05859
1095.90 0.0588
1096.00 0.05902
1096.10 0.05923
1096.20 0.05945
1096.30 0.05966
1096.40 0.05988
1096.50 0.06008
1096.60 0.06026
1096.70 0.06044
1096.80 0.06062
1096.90 0.0608
1097.00 0.06098
1097.10 0.06113
1097.20 0.06129
1097.30 0.06144
1097.40 0.06159
1097.50 0.06174
1097.60 0.06189
1097.70 0.06205
1097.80 0.0622
1097.90 0.06235
1098.00 0.0625
1098.10 0.06265
1098.20 0.06281
1098.30 0.06296
1098.40 0.06311
1098.50 0.06325
1098.60 0.06336
1098.70 0.06346
1098.80 0.06357
1098.90 0.06368
1099.00 0.06379
1099.10 0.06389
1099.20 0.064
1099.30 0.06411
1099.40 0.06422
1099.50 0.06432
1099.60 0.06443
1099.70 0.06454
1099.80 0.06465
1099.90 0.06475
1100.00 0.06486
1100.10 0.06497
1100.20 0.06507
1100.30 0.06518
1100.40 0.06529
1100.50 0.06538
1100.60 0.06545
1100.70 0.06552
1100.80 0.06559
1100.90 0.06566
1101.00 0.06573
1101.10 0.0658
1101.20 0.06587
1101.30 0.06594
1101.40 0.06601
1101.50 0.06608
1101.60 0.06615
1101.70 0.06622
1101.80 0.06629
1101.90 0.06636
1102.00 0.06643
1102.10 0.06648
1102.20 0.06654
1102.30 0.06659
1102.40 0.06665
1102.50 0.0667
1102.60 0.06675
1102.70 0.06679
1102.80 0.06683
1102.90 0.06688
1103.00 0.06692
1103.10 0.06696
1103.20 0.06701
1103.30 0.06705
1103.40 0.06709
1103.50 0.06713
1103.60 0.06715
1103.70 0.06718
1103.80 0.06721
1103.90 0.06723
1104.00 0.06726
1104.10 0.06728
1104.20 0.06731
1104.30 0.06733
1104.40 0.06736
1104.50 0.06738
1104.60 0.06741
1104.70 0.06743
1104.80 0.06746
1104.90 0.06748
1105.00 0.06751
1105.10 0.06753
1105.20 0.06756
1105.30 0.06758
1105.40 0.06761
1105.50 0.06763
1105.60 0.06764
1105.70 0.06765
1105.80 0.06766
1105.90 0.06767
1106.00 0.06768
1106.10 0.0677
1106.20 0.06771
1106.30 0.06772
1106.40 0.06773
1106.50 0.06774
1106.60 0.06775
1106.70 0.06776
1106.80 0.06777
1106.90 0.06778
1107.00 0.06779
1107.10 0.0678
1107.20 0.0678
1107.30 0.0678
1107.40 0.06781
1107.50 0.06781
1107.60 0.06781
1107.70 0.06781
1107.80 0.06781
1107.90 0.06781
1108.00 0.0678
1108.10 0.0678
1108.20 0.0678
1108.30 0.0678
1108.40 0.0678
1108.50 0.0678
1108.60 0.0678
1108.70 0.0678
1108.80 0.06779
1108.90 0.06779
1109.00 0.06779
1109.10 0.06779
1109.20 0.06779
1109.30 0.06779
1109.40 0.06779
1109.50 0.06778
1109.60 0.06778
1109.70 0.06777
1109.80 0.06776
1109.90 0.06775
1110.00 0.06774
1110.10 0.06773
1110.20 0.06772
1110.30 0.06772
1110.40 0.06771
1110.50 0.0677
1110.60 0.06769
1110.70 0.06768
1110.80 0.06767
1110.90 0.06767
1111.00 0.06766
1111.10 0.06765
1111.20 0.06764
1111.30 0.06763
1111.40 0.06762
1111.50 0.06761
1111.60 0.06761
1111.70 0.0676
1111.80 0.06759
1111.90 0.06758
1112.00 0.06757
1112.10 0.06756
1112.20 0.06755
1112.30 0.06753
1112.40 0.06752
1112.50 0.06751
1112.60 0.06749
1112.70 0.06748
1112.80 0.06747
1112.90 0.06745
1113.00 0.06744
1113.10 0.06743
1113.20 0.06741
1113.30 0.0674
1113.40 0.06739
1113.50 0.06737
1113.60 0.06736
1113.70 0.06734
1113.80 0.06732
1113.90 0.06731
1114.00 0.06729
1114.10 0.06728
1114.20 0.06726
1114.30 0.06724
1114.40 0.06723
1114.50 0.06721
1114.60 0.0672
1114.70 0.06718
1114.80 0.06716
1114.90 0.06715
1115.00 0.06713
1115.10 0.06712
1115.20 0.0671
1115.30 0.06708
1115.40 0.06707
1115.50 0.06705
1115.60 0.06704
1115.70 0.06702
1115.80 0.067
1115.90 0.06699
1116.00 0.06697
1116.10 0.06696
1116.20 0.06694
1116.30 0.06692
1116.40 0.06691
1116.50 0.06689
1116.60 0.06688
1116.70 0.06686
1116.80 0.06684
1116.90 0.06683
1117.00 0.06681
1117.10 0.06679
1117.20 0.06678
1117.30 0.06676
1117.40 0.06674
1117.50 0.06672
1117.60 0.0667
1117.70 0.06668
1117.80 0.06666
1117.90 0.06665
1118.00 0.06663
1118.10 0.06661
1118.20 0.06659
1118.30 0.06657
1118.40 0.06655
1118.50 0.06653
1118.60 0.06651
1118.70 0.0665
1118.80 0.06648
1118.90 0.06646
1119.00 0.06644
1119.10 0.06642
1119.20 0.0664
1119.30 0.06638
1119.40 0.06637
1119.50 0.06635
1119.60 0.06633
1119.70 0.06631
1119.80 0.06629
1119.90 0.06627
1120.00 0.06626
1120.10 0.06624
1120.20 0.06622
1120.30 0.0662
1120.40 0.06618
1120.50 0.06616
1120.60 0.06614
1120.70 0.06613
1120.80 0.06611
1120.90 0.06609
1121.00 0.06607
1121.10 0.06605
1121.20 0.06603
1121.30 0.06602
1121.40 0.066
1121.50 0.06598
1121.60 0.06596
1121.70 0.06594
1121.80 0.06592
1121.90 0.0659
1122.00 0.06589
1122.10 0.06587
1122.20 0.06585
1122.30 0.06583
1122.40 0.06581
1122.50 0.06579
1122.60 0.06577
1122.70 0.06575
1122.80 0.06573
1122.90 0.06571
1123.00 0.06569
1123.10 0.06567
1123.20 0.06565
1123.30 0.06563
1123.40 0.06561
1123.50 0.06559
1123.60 0.06557
1123.70 0.06555
1123.80 0.06553
1123.90 0.06551
1124.00 0.06549
1124.10 0.06547
1124.20 0.06545
1124.30 0.06543
1124.40 0.06541
1124.50 0.06539
1124.60 0.06537
1124.70 0.06535
1124.80 0.06533
1124.90 0.06531
1125.00 0.06529
1125.10 0.06527
1125.20 0.06525
1125.30 0.06523
1125.40 0.06521
1125.50 0.06519
1125.60 0.06517
1125.70 0.06515
1125.80 0.06513
1125.90 0.06511
1126.00 0.0651
1126.10 0.06508
1126.20 0.06506
1126.30 0.06504
1126.40 0.06502
1126.50 0.065
1126.60 0.06498
1126.70 0.06496
1126.80 0.06494
1126.90 0.06492
1127.00 0.0649
1127.10 0.06488
1127.20 0.06486
1127.30 0.06484
1127.40 0.06482
1127.50 0.0648
1127.60 0.06478
1127.70 0.06476
1127.80 0.06474
1127.90 0.06472
1128.00 0.0647
1128.10 0.06468
1128.20 0.06466
1128.30 0.06464
1128.40 0.06462
1128.50 0.0646
1128.60 0.06458
1128.70 0.06456
1128.80 0.06454
1128.90 0.06452
1129.00 0.0645
1129.10 0.06448
1129.20 0.06446
1129.30 0.06444
1129.40 0.06442
1129.50 0.0644
1129.60 0.06438
1129.70 0.06436
1129.80 0.06434
1129.90 0.06432
1130.00 0.0643
1130.10 0.06428
1130.20 0.06426
1130.30 0.06424
1130.40 0.06422
1130.50 0.0642
1130.60 0.06418
1130.70 0.06416
1130.80 0.06414
1130.90 0.06412
1131.00 0.0641
1131.10 0.06408
1131.20 0.06406
1131.30 0.06404
1131.40 0.06402
1131.50 0.064
1131.60 0.06398
1131.70 0.06396
1131.80 0.06394
1131.90 0.06392
1132.00 0.0639
1132.10 0.06388
1132.20 0.06386
1132.30 0.06384
1132.40 0.06382
1132.50 0.06379
1132.60 0.06377
1132.70 0.06375
1132.80 0.06373
1132.90 0.06371
1133.00 0.06369
1133.10 0.06367
1133.20 0.06365
1133.30 0.06363
1133.40 0.06361
1133.50 0.06359
1133.60 0.06357
1133.70 0.06355
1133.80 0.06353
1133.90 0.06351
1134.00 0.06349
1134.10 0.06347
1134.20 0.06345
1134.30 0.06343
1134.40 0.06341
1134.50 0.06339
1134.60 0.06337
1134.70 0.06335
1134.80 0.06333
1134.90 0.06331
1135.00 0.06329
1135.10 0.06327
1135.20 0.06325
1135.30 0.06323
1135.40 0.06321
1135.50 0.06319
1135.60 0.06317
1135.70 0.06315
1135.80 0.06313
1135.90 0.06311
1136.00 0.06309
1136.10 0.06307
1136.20 0.06305
1136.30 0.06303
1136.40 0.06301
1136.50 0.06299
1136.60 0.06297
1136.70 0.06295
1136.80 0.06293
1136.90 0.06291
1137.00 0.06289
1137.10 0.06287
1137.20 0.06285
1137.30 0.06283
1137.40 0.06281
1137.50 0.06279
1137.60 0.06277
1137.70 0.06275
1137.80 0.06273
1137.90 0.06271
1138.00 0.06269
1138.10 0.06267
1138.20 0.06265
1138.30 0.06263
1138.40 0.06261
1138.50 0.06259
1138.60 0.06257
1138.70 0.06255
1138.80 0.06253
1138.90 0.06251
1139.00 0.06249
1139.10 0.06247
1139.20 0.06245
1139.30 0.06243
1139.40 0.06241
1139.50 0.06239
1139.60 0.06237
1139.70 0.06235
1139.80 0.06233
1139.90 0.06231
1140.00 0.06229
1140.10 0.06227
1140.20 0.06225
1140.30 0.06223
1140.40 0.06221
1140.50 0.06219
1140.60 0.06217
1140.70 0.06215
1140.80 0.06213
1140.90 0.06211
1141.00 0.0621
1141.10 0.06208
1141.20 0.06206
1141.30 0.06204
1141.40 0.06202
1141.50 0.062
1141.60 0.06198
1141.70 0.06196
1141.80 0.06194
1141.90 0.06192
1142.00 0.0619
1142.10 0.06188
1142.20 0.06186
1142.30 0.06184
1142.40 0.06182
1142.50 0.0618
1142.60 0.06178
1142.70 0.06176
1142.80 0.06174
1142.90 0.06172
1143.00 0.0617
1143.10 0.06168
1143.20 0.06166
1143.30 0.06164
1143.40 0.06162
1143.50 0.0616
1143.60 0.06158
1143.70 0.06156
1143.80 0.06154
1143.90 0.06152
1144.00 0.0615
1144.10 0.06148
1144.20 0.06146
1144.30 0.06144
1144.40 0.06143
1144.50 0.06141
1144.60 0.06139
1144.70 0.06137
1144.80 0.06135
1144.90 0.06133
1145.00 0.06131
1145.10 0.06129
1145.20 0.06127
1145.30 0.06125
1145.40 0.06123
1145.50 0.06121
1145.60 0.06119
1145.70 0.06117
1145.80 0.06115
1145.90 0.06113
1146.00 0.06111
1146.10 0.06109
1146.20 0.06107
1146.30 0.06105
1146.40 0.06103
1146.50 0.06101
1146.60 0.061
1146.70 0.06098
1146.80 0.06096
1146.90 0.06094
1147.00 0.06092
1147.10 0.0609
1147.20 0.06088
1147.30 0.06086
1147.40 0.06084
1147.50 0.06082
1147.60 0.0608
1147.70 0.06078
1147.80 0.06076
1147.90 0.06074
1148.00 0.06072
1148.10 0.0607
1148.20 0.06068
1148.30 0.06066
1148.40 0.06065
1148.50 0.06063
1148.60 0.06061
1148.70 0.06059
1148.80 0.06057
1148.90 0.06055
1149.00 0.06053
1149.10 0.06051
1149.20 0.06049
1149.30 0.06047
1149.40 0.06045
1149.50 0.06043
1149.60 0.06041
1149.70 0.06039
1149.80 0.06037
1149.90 0.06035
1150.00 0.06034
1150.10 0.06032
1150.20 0.0603
1150.30 0.06028
1150.40 0.06026
1150.50 0.06024
1150.60 0.06022
1150.70 0.0602
1150.80 0.06018
1150.90 0.06016
1151.00 0.06014
1151.10 0.06012
1151.20 0.0601
1151.30 0.06008
1151.40 0.06007
1151.50 0.06005
1151.60 0.06003
1151.70 0.06001
1151.80 0.05999
1151.90 0.05997
1152.00 0.05995
1152.10 0.05993
1152.20 0.05991
1152.30 0.05989
1152.40 0.05987
1152.50 0.05986
1152.60 0.05984
1152.70 0.05982
1152.80 0.0598
1152.90 0.05978
1153.00 0.05976
1153.10 0.05974
1153.20 0.05972
1153.30 0.0597
1153.40 0.05968
1153.50 0.05966
1153.60 0.05965
1153.70 0.05963
1153.80 0.05961
1153.90 0.05959
1154.00 0.05957
1154.10 0.05955
1154.20 0.05953
1154.30 0.05951
1154.40 0.05949
1154.50 0.05947
1154.60 0.05946
1154.70 0.05944
1154.80 0.05942
1154.90 0.0594
1155.00 0.05938
1155.10 0.05936
1155.20 0.05934
1155.30 0.05932
1155.40 0.0593
1155.50 0.05929
1155.60 0.05927
1155.70 0.05925
1155.80 0.05923
1155.90 0.05921
1156.00 0.05919
1156.10 0.05917
1156.20 0.05915
1156.30 0.05913
1156.40 0.05912
1156.50 0.0591
1156.60 0.05908
1156.70 0.05906
1156.80 0.05904
1156.90 0.05902
1157.00 0.059
1157.10 0.05898
1157.20 0.05897
1157.30 0.05895
1157.40 0.05893
1157.50 0.05891
1157.60 0.05889
1157.70 0.05887
1157.80 0.05885
1157.90 0.05883
1158.00 0.05881
1158.10 0.0588
1158.20 0.05878
1158.30 0.05876
1158.40 0.05874
1158.50 0.05872
1158.60 0.0587
1158.70 0.05868
1158.80 0.05866
1158.90 0.05865
1159.00 0.05863
1159.10 0.05861
1159.20 0.05859
1159.30 0.05857
1159.40 0.05855
1159.50 0.05853
1159.60 0.05852
1159.70 0.0585
1159.80 0.05848
1159.90 0.05846
1160.00 0.05844
1160.10 0.05842
1160.20 0.0584
1160.30 0.05838
1160.40 0.05837
1160.50 0.05835
1160.60 0.05833
1160.70 0.05831
1160.80 0.05829
1160.90 0.05827
1161.00 0.05825
1161.10 0.05824
1161.20 0.05822
1161.30 0.0582
1161.40 0.05818
1161.50 0.05816
1161.60 0.05814
1161.70 0.05812
1161.80 0.05811
1161.90 0.05809
1162.00 0.05807
1162.10 0.05805
1162.20 0.05803
1162.30 0.05801
1162.40 0.058
1162.50 0.05798
1162.60 0.05796
1162.70 0.05794
1162.80 0.05792
1162.90 0.0579
1163.00 0.05788
1163.10 0.05787
1163.20 0.05785
1163.30 0.05783
1163.40 0.05781
1163.50 0.05779
1163.60 0.05777
1163.70 0.05776
1163.80 0.05774
1163.90 0.05772
1164.00 0.0577
1164.10 0.05768
1164.20 0.05766
1164.30 0.05765
1164.40 0.05763
1164.50 0.05761
1164.60 0.05759
1164.70 0.05757
1164.80 0.05755
1164.90 0.05754
1165.00 0.05752
1165.10 0.0575
1165.20 0.05748
1165.30 0.05746
1165.40 0.05744
1165.50 0.05743
1165.60 0.05741
1165.70 0.05739
1165.80 0.05737
1165.90 0.05735
1166.00 0.05734
1166.10 0.05732
1166.20 0.0573
1166.30 0.05728
1166.40 0.05726
1166.50 0.05724
1166.60 0.05723
1166.70 0.05721
1166.80 0.05719
1166.90 0.05717
1167.00 0.05715
1167.10 0.05714
1167.20 0.05712
1167.30 0.0571
1167.40 0.05708
1167.50 0.05706
1167.60 0.05704
1167.70 0.05703
1167.80 0.05701
1167.90 0.05699
1168.00 0.05697
1168.10 0.05695
1168.20 0.05694
1168.30 0.05692
1168.40 0.0569
1168.50 0.05688
1168.60 0.05686
1168.70 0.05685
1168.80 0.05683
1168.90 0.05681
1169.00 0.05679
1169.10 0.05677
1169.20 0.05676
1169.30 0.05674
1169.40 0.05672
1169.50 0.0567
1169.60 0.05668
1169.70 0.05667
1169.80 0.05665
1169.90 0.05663
1170.00 0.05661
1170.10 0.0566
1170.20 0.05658
1170.30 0.05656
1170.40 0.05654
1170.50 0.05652
1170.60 0.05651
1170.70 0.05649
1170.80 0.05647
1170.90 0.05645
1171.00 0.05643
1171.10 0.05642
1171.20 0.0564
1171.30 0.05638
1171.40 0.05636
1171.50 0.05634
1171.60 0.05633
1171.70 0.05631
1171.80 0.05629
1171.90 0.05627
1172.00 0.05626
1172.10 0.05624
1172.20 0.05622
1172.30 0.0562
1172.40 0.05618
1172.50 0.05617
1172.60 0.05615
1172.70 0.05613
1172.80 0.05611
1172.90 0.0561
1173.00 0.05608
1173.10 0.05606
1173.20 0.05604
1173.30 0.05603
1173.40 0.05601
1173.50 0.05599
1173.60 0.05597
1173.70 0.05595
1173.80 0.05594
1173.90 0.05592
1174.00 0.0559
1174.10 0.05588
1174.20 0.05587
1174.30 0.05585
1174.40 0.05583
1174.50 0.05581
1174.60 0.0558
1174.70 0.05578
1174.80 0.05576
1174.90 0.05574
1175.00 0.05572
1175.10 0.05571
1175.20 0.05569
1175.30 0.05567
1175.40 0.05565
1175.50 0.05564
1175.60 0.05562
1175.70 0.0556
1175.80 0.05558
1175.90 0.05557
1176.00 0.05555
1176.10 0.05553
1176.20 0.05551
1176.30 0.0555
1176.40 0.05548
1176.50 0.05546
1176.60 0.05544
1176.70 0.05543
1176.80 0.05541
1176.90 0.05539
1177.00 0.05537
1177.10 0.05536
1177.20 0.05534
1177.30 0.05532
1177.40 0.0553
1177.50 0.05529
1177.60 0.05527
1177.70 0.05525
1177.80 0.05523
1177.90 0.05522
1178.00 0.0552
1178.10 0.05518
1178.20 0.05516
1178.30 0.05515
1178.40 0.05513
1178.50 0.05511
1178.60 0.0551
1178.70 0.05508
1178.80 0.05506
1178.90 0.05504
1179.00 0.05503
1179.10 0.05501
1179.20 0.05499
1179.30 0.05497
1179.40 0.05496
1179.50 0.05494
1179.60 0.05492
1179.70 0.0549
1179.80 0.05489
1179.90 0.05487
1180.00 0.05485
1180.10 0.05484
1180.20 0.05482
1180.30 0.0548
1180.40 0.05478
1180.50 0.05477
1180.60 0.05475
1180.70 0.05473
1180.80 0.05472
1180.90 0.0547
1181.00 0.05468
1181.10 0.05466
1181.20 0.05465
1181.30 0.05463
1181.40 0.05461
1181.50 0.05459
1181.60 0.05458
1181.70 0.05456
1181.80 0.05454
1181.90 0.05453
1182.00 0.05451
1182.10 0.05449
1182.20 0.05447
1182.30 0.05446
1182.40 0.05444
1182.50 0.05442
1182.60 0.05441
1182.70 0.05439
1182.80 0.05437
1182.90 0.05435
1183.00 0.05434
1183.10 0.05432
1183.20 0.0543
1183.30 0.05429
1183.40 0.05427
1183.50 0.05425
1183.60 0.05424
1183.70 0.05422
1183.80 0.0542
1183.90 0.05418
1184.00 0.05417
1184.10 0.05415
1184.20 0.05413
1184.30 0.05412
1184.40 0.0541
1184.50 0.05408
1184.60 0.05407
1184.70 0.05405
1184.80 0.05403
1184.90 0.05401
1185.00 0.054
1185.10 0.05398
1185.20 0.05396
1185.30 0.05395
1185.40 0.05393
1185.50 0.05391
1185.60 0.0539
1185.70 0.05388
1185.80 0.05386
1185.90 0.05384
1186.00 0.05383
1186.10 0.05381
1186.20 0.05379
1186.30 0.05378
1186.40 0.05376
1186.50 0.05374
1186.60 0.05373
1186.70 0.05371
1186.80 0.05369
1186.90 0.05368
1187.00 0.05366
1187.10 0.05364
1187.20 0.05363
1187.30 0.05361
1187.40 0.05359
1187.50 0.05357
1187.60 0.05356
1187.70 0.05354
1187.80 0.05352
1187.90 0.05351
1188.00 0.05349
1188.10 0.05347
1188.20 0.05346
1188.30 0.05344
1188.40 0.05342
1188.50 0.05341
1188.60 0.05339
1188.70 0.05337
1188.80 0.05336
1188.90 0.05334
1189.00 0.05332
1189.10 0.05331
1189.20 0.05329
1189.30 0.05327
1189.40 0.05326
1189.50 0.05324
1189.60 0.05322
1189.70 0.05321
1189.80 0.05319
1189.90 0.05317
1190.00 0.05316
1190.10 0.05314
1190.20 0.05312
1190.30 0.05311
1190.40 0.05309
1190.50 0.05307
1190.60 0.05306
1190.70 0.05304
1190.80 0.05302
1190.90 0.05301
1191.00 0.05299
1191.10 0.05297
1191.20 0.05296
1191.30 0.05294
1191.40 0.05292
1191.50 0.05291
1191.60 0.05289
1191.70 0.05287
1191.80 0.05286
1191.90 0.05284
1192.00 0.05283
1192.10 0.05281
1192.20 0.05279
1192.30 0.05278
1192.40 0.05276
1192.50 0.05274
1192.60 0.05273
1192.70 0.05271
1192.80 0.05269
1192.90 0.05268
1193.00 0.05266
1193.10 0.05264
1193.20 0.05263
1193.30 0.05261
1193.40 0.05259
1193.50 0.05258
1193.60 0.05256
1193.70 0.05255
1193.80 0.05253
1193.90 0.05251
1194.00 0.0525
1194.10 0.05248
1194.20 0.05246
1194.30 0.05245
1194.40 0.05243
1194.50 0.05241
1194.60 0.0524
1194.70 0.05238
1194.80 0.05237
1194.90 0.05235
1195.00 0.05233
1195.10 0.05232
1195.20 0.0523
1195.30 0.05228
1195.40 0.05227
1195.50 0.05225
1195.60 0.05223
1195.70 0.05222
1195.80 0.0522
1195.90 0.05219
1196.00 0.05217
1196.10 0.05215
1196.20 0.05214
1196.30 0.05212
1196.40 0.0521
1196.50 0.05209
1196.60 0.05207
1196.70 0.05206
1196.80 0.05204
1196.90 0.05202
1197.00 0.05201
1197.10 0.05199
1197.20 0.05197
1197.30 0.05196
1197.40 0.05194
1197.50 0.05193
1197.60 0.05191
1197.70 0.05189
1197.80 0.05188
1197.90 0.05186
1198.00 0.05185
1198.10 0.05183
1198.20 0.05181
1198.30 0.0518
1198.40 0.05178
1198.50 0.05176
1198.60 0.05175
1198.70 0.05173
1198.80 0.05172
1198.90 0.0517
1199.00 0.05168
1199.10 0.05167
1199.20 0.05165
1199.30 0.05164
1199.40 0.05162
1199.50 0.0516
1199.60 0.05159
1199.70 0.05157
1199.80 0.05156
1199.90 0.05154
1200.00 0
