# Version 2.1 - nm, norm@500 to 1, cut digits, bergeron_15500_75.dat_15500
# Wavelength(nm)  Flambda(ergs/cm^s/s/nm)
300.00 2.3
300.10 2.298
300.20 2.296
300.30 2.294
300.40 2.293
300.50 2.291
300.60 2.289
300.70 2.287
300.80 2.285
300.90 2.284
301.00 2.282
301.10 2.28
301.20 2.278
301.30 2.276
301.40 2.275
301.50 2.273
301.60 2.271
301.70 2.269
301.80 2.267
301.90 2.266
302.00 2.264
302.10 2.262
302.20 2.26
302.30 2.258
302.40 2.257
302.50 2.255
302.60 2.253
302.70 2.251
302.80 2.249
302.90 2.248
303.00 2.246
303.10 2.244
303.20 2.242
303.30 2.241
303.40 2.239
303.50 2.237
303.60 2.235
303.70 2.234
303.80 2.232
303.90 2.23
304.00 2.228
304.10 2.227
304.20 2.225
304.30 2.223
304.40 2.221
304.50 2.22
304.60 2.218
304.70 2.216
304.80 2.214
304.90 2.213
305.00 2.211
305.10 2.209
305.20 2.207
305.30 2.206
305.40 2.204
305.50 2.202
305.60 2.2
305.70 2.199
305.80 2.197
305.90 2.195
306.00 2.193
306.10 2.192
306.20 2.19
306.30 2.188
306.40 2.187
306.50 2.185
306.60 2.183
306.70 2.181
306.80 2.18
306.90 2.178
307.00 2.176
307.10 2.175
307.20 2.173
307.30 2.171
307.40 2.17
307.50 2.168
307.60 2.166
307.70 2.164
307.80 2.163
307.90 2.161
308.00 2.159
308.10 2.158
308.20 2.156
308.30 2.154
308.40 2.153
308.50 2.151
308.60 2.149
308.70 2.148
308.80 2.146
308.90 2.144
309.00 2.143
309.10 2.141
309.20 2.139
309.30 2.138
309.40 2.136
309.50 2.134
309.60 2.133
309.70 2.131
309.80 2.129
309.90 2.128
310.00 2.126
310.10 2.124
310.20 2.123
310.30 2.121
310.40 2.12
310.50 2.118
310.60 2.116
310.70 2.115
310.80 2.113
310.90 2.111
311.00 2.11
311.10 2.108
311.20 2.106
311.30 2.105
311.40 2.103
311.50 2.102
311.60 2.1
311.70 2.098
311.80 2.097
311.90 2.095
312.00 2.093
312.10 2.092
312.20 2.09
312.30 2.089
312.40 2.087
312.50 2.085
312.60 2.084
312.70 2.082
312.80 2.081
312.90 2.079
313.00 2.077
313.10 2.076
313.20 2.074
313.30 2.073
313.40 2.071
313.50 2.069
313.60 2.068
313.70 2.066
313.80 2.065
313.90 2.063
314.00 2.061
314.10 2.06
314.20 2.058
314.30 2.057
314.40 2.055
314.50 2.054
314.60 2.052
314.70 2.05
314.80 2.049
314.90 2.047
315.00 2.046
315.10 2.044
315.20 2.043
315.30 2.041
315.40 2.04
315.50 2.038
315.60 2.036
315.70 2.035
315.80 2.033
315.90 2.032
316.00 2.03
316.10 2.029
316.20 2.027
316.30 2.026
316.40 2.024
316.50 2.022
316.60 2.021
316.70 2.019
316.80 2.018
316.90 2.016
317.00 2.015
317.10 2.013
317.20 2.012
317.30 2.01
317.40 2.009
317.50 2.007
317.60 2.006
317.70 2.004
317.80 2.003
317.90 2.001
318.00 2
318.10 1.998
318.20 1.996
318.30 1.995
318.40 1.993
318.50 1.992
318.60 1.99
318.70 1.989
318.80 1.987
318.90 1.986
319.00 1.984
319.10 1.983
319.20 1.981
319.30 1.98
319.40 1.978
319.50 1.977
319.60 1.975
319.70 1.974
319.80 1.972
319.90 1.971
320.00 1.969
320.10 1.968
320.20 1.966
320.30 1.965
320.40 1.964
320.50 1.962
320.60 1.961
320.70 1.959
320.80 1.958
320.90 1.956
321.00 1.955
321.10 1.953
321.20 1.952
321.30 1.95
321.40 1.949
321.50 1.947
321.60 1.946
321.70 1.944
321.80 1.943
321.90 1.941
322.00 1.94
322.10 1.939
322.20 1.937
322.30 1.936
322.40 1.934
322.50 1.933
322.60 1.931
322.70 1.93
322.80 1.928
322.90 1.927
323.00 1.925
323.10 1.924
323.20 1.923
323.30 1.921
323.40 1.92
323.50 1.918
323.60 1.917
323.70 1.915
323.80 1.914
323.90 1.913
324.00 1.911
324.10 1.91
324.20 1.908
324.30 1.907
324.40 1.905
324.50 1.904
324.60 1.903
324.70 1.901
324.80 1.9
324.90 1.898
325.00 1.897
325.10 1.895
325.20 1.894
325.30 1.893
325.40 1.891
325.50 1.89
325.60 1.888
325.70 1.887
325.80 1.886
325.90 1.884
326.00 1.883
326.10 1.881
326.20 1.88
326.30 1.879
326.40 1.877
326.50 1.876
326.60 1.874
326.70 1.873
326.80 1.872
326.90 1.87
327.00 1.869
327.10 1.868
327.20 1.866
327.30 1.865
327.40 1.863
327.50 1.862
327.60 1.861
327.70 1.859
327.80 1.858
327.90 1.856
328.00 1.855
328.10 1.854
328.20 1.852
328.30 1.851
328.40 1.85
328.50 1.848
328.60 1.847
328.70 1.846
328.80 1.844
328.90 1.843
329.00 1.841
329.10 1.84
329.20 1.839
329.30 1.837
329.40 1.836
329.50 1.835
329.60 1.833
329.70 1.832
329.80 1.831
329.90 1.829
330.00 1.828
330.10 1.827
330.20 1.825
330.30 1.824
330.40 1.823
330.50 1.821
330.60 1.82
330.70 1.819
330.80 1.817
330.90 1.816
331.00 1.814
331.10 1.813
331.20 1.812
331.30 1.811
331.40 1.809
331.50 1.808
331.60 1.807
331.70 1.805
331.80 1.804
331.90 1.803
332.00 1.801
332.10 1.8
332.20 1.799
332.30 1.797
332.40 1.796
332.50 1.795
332.60 1.793
332.70 1.792
332.80 1.791
332.90 1.789
333.00 1.788
333.10 1.787
333.20 1.785
333.30 1.784
333.40 1.783
333.50 1.782
333.60 1.78
333.70 1.779
333.80 1.778
333.90 1.776
334.00 1.775
334.10 1.774
334.20 1.772
334.30 1.771
334.40 1.77
334.50 1.769
334.60 1.767
334.70 1.766
334.80 1.765
334.90 1.763
335.00 1.762
335.10 1.761
335.20 1.76
335.30 1.758
335.40 1.757
335.50 1.756
335.60 1.755
335.70 1.753
335.80 1.752
335.90 1.751
336.00 1.749
336.10 1.748
336.20 1.747
336.30 1.746
336.40 1.744
336.50 1.743
336.60 1.742
336.70 1.741
336.80 1.739
336.90 1.738
337.00 1.737
337.10 1.736
337.20 1.734
337.30 1.733
337.40 1.732
337.50 1.731
337.60 1.729
337.70 1.728
337.80 1.727
337.90 1.726
338.00 1.724
338.10 1.723
338.20 1.722
338.30 1.721
338.40 1.719
338.50 1.718
338.60 1.717
338.70 1.716
338.80 1.714
338.90 1.713
339.00 1.712
339.10 1.711
339.20 1.709
339.30 1.708
339.40 1.707
339.50 1.706
339.60 1.704
339.70 1.703
339.80 1.702
339.90 1.701
340.00 1.7
340.10 1.698
340.20 1.697
340.30 1.696
340.40 1.695
340.50 1.693
340.60 1.692
340.70 1.691
340.80 1.69
340.90 1.689
341.00 1.687
341.10 1.686
341.20 1.685
341.30 1.684
341.40 1.683
341.50 1.681
341.60 1.68
341.70 1.679
341.80 1.678
341.90 1.677
342.00 1.675
342.10 1.674
342.20 1.673
342.30 1.672
342.40 1.671
342.50 1.669
342.60 1.668
342.70 1.667
342.80 1.666
342.90 1.665
343.00 1.663
343.10 1.662
343.20 1.661
343.30 1.66
343.40 1.659
343.50 1.657
343.60 1.656
343.70 1.655
343.80 1.654
343.90 1.653
344.00 1.652
344.10 1.65
344.20 1.649
344.30 1.648
344.40 1.647
344.50 1.646
344.60 1.645
344.70 1.643
344.80 1.642
344.90 1.641
345.00 1.64
345.10 1.639
345.20 1.638
345.30 1.636
345.40 1.635
345.50 1.634
345.60 1.633
345.70 1.632
345.80 1.631
345.90 1.629
346.00 1.628
346.10 1.627
346.20 1.626
346.30 1.625
346.40 1.624
346.50 1.622
346.60 1.621
346.70 1.62
346.80 1.619
346.90 1.618
347.00 1.617
347.10 1.616
347.20 1.614
347.30 1.613
347.40 1.612
347.50 1.611
347.60 1.61
347.70 1.609
347.80 1.608
347.90 1.606
348.00 1.605
348.10 1.604
348.20 1.603
348.30 1.602
348.40 1.601
348.50 1.6
348.60 1.599
348.70 1.597
348.80 1.596
348.90 1.595
349.00 1.594
349.10 1.593
349.20 1.592
349.30 1.591
349.40 1.59
349.50 1.588
349.60 1.587
349.70 1.586
349.80 1.585
349.90 1.584
350.00 1.583
350.10 1.582
350.20 1.581
350.30 1.58
350.40 1.578
350.50 1.577
350.60 1.576
350.70 1.575
350.80 1.574
350.90 1.573
351.00 1.572
351.10 1.571
351.20 1.57
351.30 1.569
351.40 1.567
351.50 1.566
351.60 1.565
351.70 1.564
351.80 1.563
351.90 1.562
352.00 1.561
352.10 1.56
352.20 1.559
352.30 1.558
352.40 1.556
352.50 1.555
352.60 1.554
352.70 1.553
352.80 1.552
352.90 1.551
353.00 1.55
353.10 1.549
353.20 1.548
353.30 1.547
353.40 1.546
353.50 1.545
353.60 1.543
353.70 1.542
353.80 1.541
353.90 1.54
354.00 1.539
354.10 1.538
354.20 1.537
354.30 1.536
354.40 1.535
354.50 1.534
354.60 1.533
354.70 1.532
354.80 1.531
354.90 1.53
355.00 1.528
355.10 1.527
355.20 1.526
355.30 1.525
355.40 1.524
355.50 1.523
355.60 1.522
355.70 1.521
355.80 1.52
355.90 1.519
356.00 1.518
356.10 1.517
356.20 1.516
356.30 1.515
356.40 1.514
356.50 1.513
356.60 1.512
356.70 1.511
356.80 1.51
356.90 1.508
357.00 1.507
357.10 1.506
357.20 1.505
357.30 1.504
357.40 1.503
357.50 1.502
357.60 1.501
357.70 1.5
357.80 1.499
357.90 1.498
358.00 1.497
358.10 1.496
358.20 1.495
358.30 1.494
358.40 1.493
358.50 1.492
358.60 1.491
358.70 1.49
358.80 1.489
358.90 1.488
359.00 1.487
359.10 1.486
359.20 1.485
359.30 1.484
359.40 1.483
359.50 1.482
359.60 1.481
359.70 1.48
359.80 1.479
359.90 1.478
360.00 1.477
360.10 1.476
360.20 1.474
360.30 1.473
360.40 1.472
360.50 1.471
360.60 1.47
360.70 1.469
360.80 1.468
360.90 1.467
361.00 1.466
361.10 1.465
361.20 1.464
361.30 1.463
361.40 1.462
361.50 1.461
361.60 1.46
361.70 1.459
361.80 1.458
361.90 1.457
362.00 1.456
362.10 1.455
362.20 1.454
362.30 1.453
362.40 1.452
362.50 1.451
362.60 1.45
362.70 1.449
362.80 1.448
362.90 1.447
363.00 1.446
363.10 1.445
363.20 1.444
363.30 1.443
363.40 1.442
363.50 1.441
363.60 1.44
363.70 1.439
363.80 1.438
363.90 1.437
364.00 1.436
364.10 1.435
364.20 1.434
364.30 1.433
364.40 1.432
364.50 1.431
364.60 1.43
364.70 1.429
364.80 1.428
364.90 1.427
365.00 1.426
365.10 1.425
365.20 1.424
365.30 1.423
365.40 1.421
365.50 1.42
365.60 1.419
365.70 1.418
365.80 1.417
365.90 1.416
366.00 1.415
366.10 1.414
366.20 1.413
366.30 1.412
366.40 1.411
366.50 1.41
366.60 1.41
366.70 1.409
366.80 1.408
366.90 1.407
367.00 1.406
367.10 1.405
367.20 1.404
367.30 1.403
367.40 1.402
367.50 1.401
367.60 1.4
367.70 1.399
367.80 1.398
367.90 1.397
368.00 1.396
368.10 1.395
368.20 1.395
368.30 1.394
368.40 1.394
368.50 1.393
368.60 1.392
368.70 1.392
368.80 1.391
368.90 1.39
369.00 1.39
369.10 1.389
369.20 1.389
369.30 1.388
369.40 1.387
369.50 1.387
369.60 1.386
369.70 1.385
369.80 1.385
369.90 1.384
370.00 1.384
370.10 1.384
370.20 1.384
370.30 1.385
370.40 1.385
370.50 1.385
370.60 1.386
370.70 1.386
370.80 1.386
370.90 1.387
371.00 1.387
371.10 1.387
371.20 1.388
371.30 1.388
371.40 1.388
371.50 1.388
371.60 1.389
371.70 1.389
371.80 1.389
371.90 1.39
372.00 1.39
372.10 1.392
372.20 1.393
372.30 1.395
372.40 1.396
372.50 1.398
372.60 1.4
372.70 1.401
372.80 1.403
372.90 1.404
373.00 1.406
373.10 1.407
373.20 1.409
373.30 1.411
373.40 1.412
373.50 1.414
373.60 1.415
373.70 1.417
373.80 1.418
373.90 1.42
374.00 1.421
374.10 1.424
374.20 1.426
374.30 1.428
374.40 1.43
374.50 1.432
374.60 1.434
374.70 1.436
374.80 1.439
374.90 1.441
375.00 1.443
375.10 1.445
375.20 1.447
375.30 1.449
375.40 1.451
375.50 1.454
375.60 1.456
375.70 1.458
375.80 1.46
375.90 1.462
376.00 1.464
376.10 1.465
376.20 1.466
376.30 1.467
376.40 1.468
376.50 1.47
376.60 1.471
376.70 1.472
376.80 1.473
376.90 1.474
377.00 1.475
377.10 1.473
377.20 1.471
377.30 1.469
377.40 1.468
377.50 1.466
377.60 1.464
377.70 1.462
377.80 1.46
377.90 1.458
378.00 1.457
378.10 1.446
378.20 1.435
378.30 1.425
378.40 1.414
378.50 1.403
378.60 1.393
378.70 1.382
378.80 1.372
378.90 1.361
379.00 1.35
379.10 1.343
379.20 1.335
379.30 1.327
379.40 1.32
379.50 1.312
379.60 1.304
379.70 1.297
379.80 1.289
379.90 1.281
380.00 1.274
380.10 1.286
380.20 1.297
380.30 1.309
380.40 1.321
380.50 1.333
380.60 1.345
380.70 1.357
380.80 1.369
380.90 1.38
381.00 1.392
381.10 1.397
381.20 1.401
381.30 1.406
381.40 1.41
381.50 1.414
381.60 1.413
381.70 1.411
381.80 1.406
381.90 1.4
382.00 1.392
382.10 1.382
382.20 1.37
382.30 1.348
382.40 1.326
382.50 1.304
382.60 1.282
382.70 1.26
382.80 1.238
382.90 1.216
383.00 1.194
383.10 1.172
383.20 1.15
383.30 1.132
383.40 1.112
383.50 1.09
383.60 1.094
383.70 1.116
383.80 1.136
383.90 1.154
384.00 1.175
384.10 1.201
384.20 1.228
384.30 1.256
384.40 1.283
384.50 1.309
384.60 1.332
384.70 1.354
384.80 1.373
384.90 1.39
385.00 1.405
385.10 1.417
385.20 1.428
385.30 1.438
385.40 1.445
385.50 1.452
385.60 1.457
385.70 1.461
385.80 1.464
385.90 1.465
386.00 1.465
386.10 1.464
386.20 1.462
386.30 1.458
386.40 1.454
386.50 1.448
386.60 1.441
386.70 1.433
386.80 1.423
386.90 1.413
387.00 1.401
387.10 1.388
387.20 1.374
387.30 1.358
387.40 1.341
387.50 1.321
387.60 1.3
387.70 1.278
387.80 1.252
387.90 1.224
388.00 1.195
388.10 1.161
388.20 1.126
388.30 1.09
388.40 1.054
388.50 1.02
388.60 0.989
388.70 0.9614
388.80 0.9353
388.90 0.9107
389.00 0.9327
389.10 0.9572
389.20 0.9843
389.30 1.014
389.40 1.047
389.50 1.083
389.60 1.119
389.70 1.154
389.80 1.188
389.90 1.218
390.00 1.247
390.10 1.274
390.20 1.298
390.30 1.32
390.40 1.342
390.50 1.361
390.60 1.38
390.70 1.398
390.80 1.414
390.90 1.43
391.00 1.445
391.10 1.459
391.20 1.472
391.30 1.485
391.40 1.497
391.50 1.508
391.60 1.519
391.70 1.529
391.80 1.537
391.90 1.546
392.00 1.553
392.10 1.559
392.20 1.565
392.30 1.57
392.40 1.574
392.50 1.577
392.60 1.579
392.70 1.58
392.80 1.58
392.90 1.579
393.00 1.577
393.10 1.575
393.20 1.571
393.30 1.567
393.40 1.561
393.50 1.555
393.60 1.547
393.70 1.539
393.80 1.53
393.90 1.519
394.00 1.508
394.10 1.496
394.20 1.483
394.30 1.469
394.40 1.454
394.50 1.439
394.60 1.423
394.70 1.406
394.80 1.388
394.90 1.37
395.00 1.351
395.10 1.331
395.20 1.311
395.30 1.29
395.40 1.268
395.50 1.246
395.60 1.222
395.70 1.198
395.80 1.172
395.90 1.145
396.00 1.117
396.10 1.088
396.20 1.055
396.30 1.021
396.40 0.9846
396.50 0.946
396.60 0.9082
396.70 0.8714
396.80 0.8371
396.90 0.7981
397.00 0.7542
397.10 0.7941
397.20 0.8309
397.30 0.8644
397.40 0.9001
397.50 0.9367
397.60 0.9743
397.70 1.01
397.80 1.043
397.90 1.075
398.00 1.104
398.10 1.131
398.20 1.157
398.30 1.182
398.40 1.205
398.50 1.228
398.60 1.25
398.70 1.271
398.80 1.292
398.90 1.312
399.00 1.331
399.10 1.35
399.20 1.369
399.30 1.387
399.40 1.404
399.50 1.422
399.60 1.438
399.70 1.455
399.80 1.47
399.90 1.486
400.00 1.501
400.10 1.515
400.20 1.528
400.30 1.541
400.40 1.554
400.50 1.566
400.60 1.577
400.70 1.588
400.80 1.598
400.90 1.608
401.00 1.617
401.10 1.626
401.20 1.634
401.30 1.642
401.40 1.65
401.50 1.657
401.60 1.663
401.70 1.669
401.80 1.675
401.90 1.68
402.00 1.684
402.10 1.689
402.20 1.693
402.30 1.696
402.40 1.699
402.50 1.702
402.60 1.704
402.70 1.706
402.80 1.708
402.90 1.709
403.00 1.71
403.10 1.711
403.20 1.711
403.30 1.711
403.40 1.71
403.50 1.71
403.60 1.709
403.70 1.707
403.80 1.705
403.90 1.703
404.00 1.7
404.10 1.698
404.20 1.694
404.30 1.691
404.40 1.687
404.50 1.683
404.60 1.678
404.70 1.673
404.80 1.668
404.90 1.662
405.00 1.655
405.10 1.649
405.20 1.642
405.30 1.635
405.40 1.627
405.50 1.618
405.60 1.61
405.70 1.601
405.80 1.591
405.90 1.581
406.00 1.571
406.10 1.56
406.20 1.548
406.30 1.537
406.40 1.524
406.50 1.511
406.60 1.498
406.70 1.484
406.80 1.47
406.90 1.455
407.00 1.44
407.10 1.424
407.20 1.408
407.30 1.39
407.40 1.373
407.50 1.355
407.60 1.336
407.70 1.317
407.80 1.298
407.90 1.278
408.00 1.258
408.10 1.238
408.20 1.217
408.30 1.196
408.40 1.174
408.50 1.153
408.60 1.131
408.70 1.108
408.80 1.086
408.90 1.062
409.00 1.039
409.10 1.015
409.20 0.9898
409.30 0.9642
409.40 0.9361
409.50 0.9064
409.60 0.8751
409.70 0.8413
409.80 0.807
409.90 0.7723
410.00 0.7325
410.10 0.6925
410.20 0.6523
410.30 0.7079
410.40 0.7534
410.50 0.7888
410.60 0.8226
410.70 0.8555
410.80 0.8877
410.90 0.9167
411.00 0.9442
411.10 0.9701
411.20 0.9939
411.30 1.017
411.40 1.04
411.50 1.062
411.60 1.083
411.70 1.104
411.80 1.125
411.90 1.145
412.00 1.165
412.10 1.184
412.20 1.204
412.30 1.223
412.40 1.241
412.50 1.26
412.60 1.278
412.70 1.295
412.80 1.312
412.90 1.329
413.00 1.345
413.10 1.36
413.20 1.375
413.30 1.39
413.40 1.404
413.50 1.418
413.60 1.431
413.70 1.443
413.80 1.455
413.90 1.467
414.00 1.478
414.10 1.489
414.20 1.499
414.30 1.509
414.40 1.519
414.50 1.528
414.60 1.537
414.70 1.546
414.80 1.554
414.90 1.562
415.00 1.569
415.10 1.576
415.20 1.583
415.30 1.59
415.40 1.596
415.50 1.602
415.60 1.608
415.70 1.613
415.80 1.618
415.90 1.623
416.00 1.628
416.10 1.632
416.20 1.637
416.30 1.641
416.40 1.644
416.50 1.648
416.60 1.652
416.70 1.655
416.80 1.658
416.90 1.661
417.00 1.664
417.10 1.666
417.20 1.669
417.30 1.671
417.40 1.674
417.50 1.676
417.60 1.678
417.70 1.679
417.80 1.681
417.90 1.683
418.00 1.684
418.10 1.685
418.20 1.687
418.30 1.688
418.40 1.689
418.50 1.69
418.60 1.691
418.70 1.692
418.80 1.692
418.90 1.693
419.00 1.693
419.10 1.694
419.20 1.694
419.30 1.694
419.40 1.695
419.50 1.695
419.60 1.695
419.70 1.695
419.80 1.695
419.90 1.695
420.00 1.695
420.10 1.695
420.20 1.694
420.30 1.694
420.40 1.694
420.50 1.693
420.60 1.693
420.70 1.692
420.80 1.691
420.90 1.691
421.00 1.69
421.10 1.689
421.20 1.689
421.30 1.688
421.40 1.687
421.50 1.686
421.60 1.685
421.70 1.684
421.80 1.683
421.90 1.682
422.00 1.681
422.10 1.68
422.20 1.678
422.30 1.677
422.40 1.676
422.50 1.674
422.60 1.673
422.70 1.671
422.80 1.67
422.90 1.668
423.00 1.667
423.10 1.665
423.20 1.663
423.30 1.661
423.40 1.66
423.50 1.658
423.60 1.656
423.70 1.654
423.80 1.652
423.90 1.65
424.00 1.648
424.10 1.646
424.20 1.643
424.30 1.641
424.40 1.639
424.50 1.636
424.60 1.634
424.70 1.631
424.80 1.629
424.90 1.626
425.00 1.623
425.10 1.62
425.20 1.617
425.30 1.614
425.40 1.611
425.50 1.608
425.60 1.605
425.70 1.602
425.80 1.598
425.90 1.595
426.00 1.591
426.10 1.588
426.20 1.583
426.30 1.579
426.40 1.575
426.50 1.571
426.60 1.567
426.70 1.563
426.80 1.558
426.90 1.554
427.00 1.549
427.10 1.544
427.20 1.54
427.30 1.535
427.40 1.529
427.50 1.524
427.60 1.519
427.70 1.513
427.80 1.507
427.90 1.502
428.00 1.496
428.10 1.489
428.20 1.483
428.30 1.476
428.40 1.47
428.50 1.463
428.60 1.456
428.70 1.448
428.80 1.441
428.90 1.433
429.00 1.425
429.10 1.417
429.20 1.409
429.30 1.4
429.40 1.391
429.50 1.382
429.60 1.372
429.70 1.363
429.80 1.353
429.90 1.342
430.00 1.332
430.10 1.321
430.20 1.31
430.30 1.299
430.40 1.287
430.50 1.275
430.60 1.263
430.70 1.25
430.80 1.237
430.90 1.224
431.00 1.211
431.10 1.197
431.20 1.183
431.30 1.169
431.40 1.154
431.50 1.139
431.60 1.124
431.70 1.108
431.80 1.093
431.90 1.076
432.00 1.059
432.10 1.042
432.20 1.025
432.30 1.006
432.40 0.9875
432.50 0.9677
432.60 0.9474
432.70 0.9265
432.80 0.9052
432.90 0.8842
433.00 0.8634
433.10 0.8434
433.20 0.8232
433.30 0.8028
433.40 0.7801
433.50 0.7561
433.60 0.7306
433.70 0.7013
433.80 0.669
433.90 0.6338
434.00 0.5604
434.10 0.5613
434.20 0.6365
434.30 0.6704
434.40 0.7015
434.50 0.7299
434.60 0.7544
434.70 0.7774
434.80 0.799
434.90 0.8184
435.00 0.8376
435.10 0.8565
435.20 0.8763
435.30 0.8961
435.40 0.9161
435.50 0.9356
435.60 0.9546
435.70 0.9729
435.80 0.9902
435.90 1.007
436.00 1.023
436.10 1.039
436.20 1.054
436.30 1.068
436.40 1.083
436.50 1.096
436.60 1.11
436.70 1.123
436.80 1.136
436.90 1.148
437.00 1.16
437.10 1.172
437.20 1.183
437.30 1.194
437.40 1.205
437.50 1.216
437.60 1.226
437.70 1.235
437.80 1.245
437.90 1.254
438.00 1.263
438.10 1.272
438.20 1.28
438.30 1.288
438.40 1.295
438.50 1.303
438.60 1.31
438.70 1.317
438.80 1.323
438.90 1.33
439.00 1.336
439.10 1.342
439.20 1.347
439.30 1.353
439.40 1.358
439.50 1.363
439.60 1.368
439.70 1.372
439.80 1.376
439.90 1.381
440.00 1.385
440.10 1.388
440.20 1.392
440.30 1.396
440.40 1.399
440.50 1.402
440.60 1.405
440.70 1.408
440.80 1.411
440.90 1.413
441.00 1.416
441.10 1.418
441.20 1.421
441.30 1.423
441.40 1.425
441.50 1.427
441.60 1.429
441.70 1.431
441.80 1.432
441.90 1.434
442.00 1.435
442.10 1.437
442.20 1.438
442.30 1.439
442.40 1.44
442.50 1.441
442.60 1.442
442.70 1.443
442.80 1.444
442.90 1.445
443.00 1.446
443.10 1.446
443.20 1.447
443.30 1.448
443.40 1.448
443.50 1.449
443.60 1.449
443.70 1.45
443.80 1.45
443.90 1.45
444.00 1.45
444.10 1.451
444.20 1.451
444.30 1.451
444.40 1.451
444.50 1.451
444.60 1.451
444.70 1.451
444.80 1.451
444.90 1.451
445.00 1.451
445.10 1.45
445.20 1.45
445.30 1.45
445.40 1.45
445.50 1.45
445.60 1.449
445.70 1.449
445.80 1.449
445.90 1.448
446.00 1.448
446.10 1.448
446.20 1.447
446.30 1.447
446.40 1.446
446.50 1.446
446.60 1.445
446.70 1.445
446.80 1.444
446.90 1.444
447.00 1.443
447.10 1.443
447.20 1.442
447.30 1.442
447.40 1.441
447.50 1.44
447.60 1.44
447.70 1.439
447.80 1.439
447.90 1.438
448.00 1.437
448.10 1.437
448.20 1.436
448.30 1.435
448.40 1.435
448.50 1.434
448.60 1.433
448.70 1.432
448.80 1.432
448.90 1.431
449.00 1.43
449.10 1.43
449.20 1.429
449.30 1.428
449.40 1.428
449.50 1.427
449.60 1.426
449.70 1.425
449.80 1.424
449.90 1.424
450.00 1.423
450.10 1.422
450.20 1.421
450.30 1.42
450.40 1.42
450.50 1.419
450.60 1.418
450.70 1.417
450.80 1.416
450.90 1.415
451.00 1.415
451.10 1.414
451.20 1.413
451.30 1.412
451.40 1.411
451.50 1.41
451.60 1.409
451.70 1.409
451.80 1.408
451.90 1.407
452.00 1.406
452.10 1.405
452.20 1.404
452.30 1.403
452.40 1.403
452.50 1.402
452.60 1.401
452.70 1.4
452.80 1.399
452.90 1.398
453.00 1.397
453.10 1.396
453.20 1.395
453.30 1.394
453.40 1.394
453.50 1.393
453.60 1.392
453.70 1.391
453.80 1.39
453.90 1.389
454.00 1.388
454.10 1.387
454.20 1.386
454.30 1.385
454.40 1.384
454.50 1.383
454.60 1.383
454.70 1.382
454.80 1.381
454.90 1.38
455.00 1.379
455.10 1.378
455.20 1.377
455.30 1.376
455.40 1.375
455.50 1.374
455.60 1.373
455.70 1.372
455.80 1.371
455.90 1.37
456.00 1.369
456.10 1.368
456.20 1.367
456.30 1.367
456.40 1.366
456.50 1.365
456.60 1.364
456.70 1.363
456.80 1.362
456.90 1.361
457.00 1.36
457.10 1.359
457.20 1.358
457.30 1.357
457.40 1.356
457.50 1.355
457.60 1.355
457.70 1.354
457.80 1.353
457.90 1.352
458.00 1.351
458.10 1.35
458.20 1.349
458.30 1.348
458.40 1.347
458.50 1.346
458.60 1.345
458.70 1.344
458.80 1.343
458.90 1.342
459.00 1.341
459.10 1.34
459.20 1.339
459.30 1.338
459.40 1.337
459.50 1.336
459.60 1.335
459.70 1.334
459.80 1.333
459.90 1.332
460.00 1.331
460.10 1.33
460.20 1.329
460.30 1.328
460.40 1.327
460.50 1.326
460.60 1.326
460.70 1.325
460.80 1.324
460.90 1.323
461.00 1.322
461.10 1.321
461.20 1.32
461.30 1.319
461.40 1.318
461.50 1.317
461.60 1.316
461.70 1.315
461.80 1.314
461.90 1.313
462.00 1.312
462.10 1.311
462.20 1.31
462.30 1.309
462.40 1.308
462.50 1.307
462.60 1.306
462.70 1.305
462.80 1.304
462.90 1.303
463.00 1.302
463.10 1.301
463.20 1.3
463.30 1.299
463.40 1.298
463.50 1.297
463.60 1.296
463.70 1.295
463.80 1.294
463.90 1.293
464.00 1.292
464.10 1.291
464.20 1.29
464.30 1.289
464.40 1.288
464.50 1.287
464.60 1.286
464.70 1.285
464.80 1.284
464.90 1.283
465.00 1.282
465.10 1.281
465.20 1.28
465.30 1.279
465.40 1.278
465.50 1.277
465.60 1.276
465.70 1.275
465.80 1.274
465.90 1.273
466.00 1.272
466.10 1.271
466.20 1.27
466.30 1.269
466.40 1.268
466.50 1.266
466.60 1.265
466.70 1.264
466.80 1.263
466.90 1.262
467.00 1.261
467.10 1.26
467.20 1.259
467.30 1.258
467.40 1.257
467.50 1.256
467.60 1.255
467.70 1.254
467.80 1.253
467.90 1.252
468.00 1.251
468.10 1.25
468.20 1.249
468.30 1.247
468.40 1.246
468.50 1.245
468.60 1.244
468.70 1.243
468.80 1.242
468.90 1.241
469.00 1.24
469.10 1.239
469.20 1.238
469.30 1.236
469.40 1.235
469.50 1.234
469.60 1.233
469.70 1.232
469.80 1.231
469.90 1.23
470.00 1.229
470.10 1.227
470.20 1.226
470.30 1.225
470.40 1.224
470.50 1.223
470.60 1.222
470.70 1.22
470.80 1.219
470.90 1.218
471.00 1.217
471.10 1.216
471.20 1.215
471.30 1.213
471.40 1.212
471.50 1.211
471.60 1.21
471.70 1.208
471.80 1.207
471.90 1.206
472.00 1.205
472.10 1.203
472.20 1.202
472.30 1.201
472.40 1.199
472.50 1.198
472.60 1.197
472.70 1.195
472.80 1.194
472.90 1.193
473.00 1.191
473.10 1.19
473.20 1.189
473.30 1.187
473.40 1.186
473.50 1.184
473.60 1.183
473.70 1.181
473.80 1.18
473.90 1.178
474.00 1.177
474.10 1.175
474.20 1.174
474.30 1.172
474.40 1.171
474.50 1.169
474.60 1.167
474.70 1.166
474.80 1.164
474.90 1.163
475.00 1.161
475.10 1.159
475.20 1.158
475.30 1.156
475.40 1.154
475.50 1.152
475.60 1.15
475.70 1.148
475.80 1.147
475.90 1.145
476.00 1.143
476.10 1.141
476.20 1.139
476.30 1.137
476.40 1.135
476.50 1.133
476.60 1.131
476.70 1.129
476.80 1.127
476.90 1.124
477.00 1.122
477.10 1.12
477.20 1.118
477.30 1.115
477.40 1.113
477.50 1.11
477.60 1.108
477.70 1.105
477.80 1.103
477.90 1.1
478.00 1.098
478.10 1.095
478.20 1.093
478.30 1.089
478.40 1.086
478.50 1.083
478.60 1.08
478.70 1.077
478.80 1.074
478.90 1.071
479.00 1.068
479.10 1.065
479.20 1.062
479.30 1.058
479.40 1.054
479.50 1.05
479.60 1.047
479.70 1.043
479.80 1.039
479.90 1.035
480.00 1.031
480.10 1.028
480.20 1.023
480.30 1.018
480.40 1.014
480.50 1.009
480.60 1.004
480.70 0.9994
480.80 0.9947
480.90 0.99
481.00 0.9852
481.10 0.9805
481.20 0.9749
481.30 0.9688
481.40 0.9627
481.50 0.9566
481.60 0.9505
481.70 0.9445
481.80 0.9384
481.90 0.9323
482.00 0.9263
482.10 0.9202
482.20 0.913
482.30 0.9053
482.40 0.8977
482.50 0.89
482.60 0.8823
482.70 0.8746
482.80 0.867
482.90 0.8593
483.00 0.8517
483.10 0.844
483.20 0.835
483.30 0.8254
483.40 0.8159
483.50 0.8063
483.60 0.7967
483.70 0.7872
483.80 0.7776
483.90 0.7681
484.00 0.7585
484.10 0.749
484.20 0.7385
484.30 0.7276
484.40 0.7167
484.50 0.7058
484.60 0.6949
484.70 0.6834
484.80 0.6717
484.90 0.66
485.00 0.6483
485.10 0.6366
485.20 0.6246
485.30 0.6125
485.40 0.5998
485.50 0.5868
485.60 0.5726
485.70 0.5578
485.80 0.5393
485.90 0.5192
486.00 0.4908
486.10 0.4098
486.20 0.4489
486.30 0.5021
486.40 0.5246
486.50 0.5444
486.60 0.5605
486.70 0.5747
486.80 0.5877
486.90 0.6
487.00 0.6118
487.10 0.6232
487.20 0.6342
487.30 0.6452
487.40 0.6561
487.50 0.667
487.60 0.6779
487.70 0.6882
487.80 0.6982
487.90 0.7081
488.00 0.7181
488.10 0.7281
488.20 0.737
488.30 0.7454
488.40 0.7539
488.50 0.7623
488.60 0.7707
488.70 0.7792
488.80 0.7876
488.90 0.796
489.00 0.8044
489.10 0.8128
489.20 0.8198
489.30 0.8261
489.40 0.8324
489.50 0.8388
489.60 0.8451
489.70 0.8514
489.80 0.8577
489.90 0.864
490.00 0.8703
490.10 0.8766
490.20 0.8817
490.30 0.8863
490.40 0.8909
490.50 0.8955
490.60 0.9
490.70 0.9046
490.80 0.9091
490.90 0.9137
491.00 0.9182
491.10 0.9228
491.20 0.9264
491.30 0.9295
491.40 0.9327
491.50 0.9358
491.60 0.939
491.70 0.9421
491.80 0.9453
491.90 0.9484
492.00 0.9515
492.10 0.9547
492.20 0.9571
492.30 0.9592
492.40 0.9613
492.50 0.9635
492.60 0.9656
492.70 0.9677
492.80 0.9698
492.90 0.9719
493.00 0.974
493.10 0.9761
493.20 0.9777
493.30 0.9791
493.40 0.9805
493.50 0.9819
493.60 0.9833
493.70 0.9847
493.80 0.9861
493.90 0.9874
494.00 0.9888
494.10 0.9902
494.20 0.9912
494.30 0.992
494.40 0.9928
494.50 0.9936
494.60 0.9945
494.70 0.9953
494.80 0.9961
494.90 0.9969
495.00 0.9977
495.10 0.9985
495.20 0.9991
495.30 0.9995
495.40 1
495.50 1
495.60 1.001
495.70 1.001
495.80 1.002
495.90 1.002
496.00 1.003
496.10 1.003
496.20 1.003
496.30 1.003
496.40 1.004
496.50 1.004
496.60 1.004
496.70 1.004
496.80 1.004
496.90 1.004
497.00 1.005
497.10 1.005
497.20 1.005
497.30 1.005
497.40 1.005
497.50 1.005
497.60 1.005
497.70 1.005
497.80 1.004
497.90 1.004
498.00 1.004
498.10 1.004
498.20 1.004
498.30 1.004
498.40 1.004
498.50 1.004
498.60 1.003
498.70 1.003
498.80 1.003
498.90 1.003
499.00 1.003
499.10 1.003
499.20 1.002
499.30 1.002
499.40 1.002
499.50 1.001
499.60 1.001
499.70 1.001
499.80 1.001
499.90 1
500.00 1
500.10 0.9997
500.20 0.9994
500.30 0.999
500.40 0.9986
500.50 0.9983
500.60 0.9979
500.70 0.9975
500.80 0.9972
500.90 0.9968
501.00 0.9964
501.10 0.9961
501.20 0.9957
501.30 0.9953
501.40 0.9948
501.50 0.9944
501.60 0.994
501.70 0.9936
501.80 0.9931
501.90 0.9927
502.00 0.9923
502.10 0.9919
502.20 0.9914
502.30 0.991
502.40 0.9905
502.50 0.99
502.60 0.9896
502.70 0.9891
502.80 0.9886
502.90 0.9882
503.00 0.9877
503.10 0.9872
503.20 0.9868
503.30 0.9863
503.40 0.9858
503.50 0.9853
503.60 0.9848
503.70 0.9843
503.80 0.9838
503.90 0.9833
504.00 0.9828
504.10 0.9823
504.20 0.9818
504.30 0.9813
504.40 0.9808
504.50 0.9802
504.60 0.9797
504.70 0.9792
504.80 0.9787
504.90 0.9782
505.00 0.9777
505.10 0.9771
505.20 0.9766
505.30 0.9761
505.40 0.9755
505.50 0.975
505.60 0.9745
505.70 0.9739
505.80 0.9734
505.90 0.9728
506.00 0.9723
506.10 0.9718
506.20 0.9712
506.30 0.9707
506.40 0.9701
506.50 0.9696
506.60 0.969
506.70 0.9685
506.80 0.9679
506.90 0.9674
507.00 0.9668
507.10 0.9663
507.20 0.9657
507.30 0.9652
507.40 0.9646
507.50 0.964
507.60 0.9635
507.70 0.9629
507.80 0.9624
507.90 0.9618
508.00 0.9612
508.10 0.9607
508.20 0.9601
508.30 0.9595
508.40 0.959
508.50 0.9584
508.60 0.9578
508.70 0.9573
508.80 0.9567
508.90 0.9561
509.00 0.9556
509.10 0.955
509.20 0.9545
509.30 0.9539
509.40 0.9533
509.50 0.9527
509.60 0.9522
509.70 0.9516
509.80 0.951
509.90 0.9505
510.00 0.9499
510.10 0.9493
510.20 0.9487
510.30 0.9482
510.40 0.9476
510.50 0.947
510.60 0.9465
510.70 0.9459
510.80 0.9453
510.90 0.9447
511.00 0.9442
511.10 0.9436
511.20 0.943
511.30 0.9424
511.40 0.9418
511.50 0.9413
511.60 0.9407
511.70 0.9401
511.80 0.9395
511.90 0.939
512.00 0.9384
512.10 0.9378
512.20 0.9372
512.30 0.9366
512.40 0.9361
512.50 0.9355
512.60 0.9349
512.70 0.9343
512.80 0.9337
512.90 0.9331
513.00 0.9326
513.10 0.932
513.20 0.9314
513.30 0.9308
513.40 0.9303
513.50 0.9297
513.60 0.9291
513.70 0.9286
513.80 0.928
513.90 0.9274
514.00 0.9268
514.10 0.9263
514.20 0.9257
514.30 0.9251
514.40 0.9245
514.50 0.924
514.60 0.9234
514.70 0.9228
514.80 0.9222
514.90 0.9216
515.00 0.921
515.10 0.9205
515.20 0.9199
515.30 0.9193
515.40 0.9187
515.50 0.9182
515.60 0.9176
515.70 0.917
515.80 0.9165
515.90 0.9159
516.00 0.9153
516.10 0.9148
516.20 0.9142
516.30 0.9136
516.40 0.913
516.50 0.9125
516.60 0.9119
516.70 0.9113
516.80 0.9107
516.90 0.9102
517.00 0.9096
517.10 0.909
517.20 0.9084
517.30 0.9079
517.40 0.9073
517.50 0.9068
517.60 0.9062
517.70 0.9056
517.80 0.9051
517.90 0.9045
518.00 0.9039
518.10 0.9034
518.20 0.9028
518.30 0.9022
518.40 0.9017
518.50 0.9011
518.60 0.9005
518.70 0.9
518.80 0.8994
518.90 0.8988
519.00 0.8983
519.10 0.8977
519.20 0.8971
519.30 0.8966
519.40 0.896
519.50 0.8954
519.60 0.8949
519.70 0.8943
519.80 0.8938
519.90 0.8932
520.00 0.8926
520.10 0.8921
520.20 0.8915
520.30 0.8909
520.40 0.8904
520.50 0.8898
520.60 0.8892
520.70 0.8887
520.80 0.8881
520.90 0.8875
521.00 0.887
521.10 0.8864
521.20 0.8858
521.30 0.8853
521.40 0.8847
521.50 0.8842
521.60 0.8836
521.70 0.8831
521.80 0.8825
521.90 0.8819
522.00 0.8814
522.10 0.8808
522.20 0.8803
522.30 0.8797
522.40 0.8792
522.50 0.8786
522.60 0.8781
522.70 0.8775
522.80 0.877
522.90 0.8764
523.00 0.8759
523.10 0.8753
523.20 0.8748
523.30 0.8742
523.40 0.8737
523.50 0.8731
523.60 0.8726
523.70 0.872
523.80 0.8715
523.90 0.8709
524.00 0.8704
524.10 0.8698
524.20 0.8693
524.30 0.8687
524.40 0.8682
524.50 0.8676
524.60 0.8671
524.70 0.8665
524.80 0.866
524.90 0.8655
525.00 0.8649
525.10 0.8644
525.20 0.8638
525.30 0.8633
525.40 0.8627
525.50 0.8622
525.60 0.8616
525.70 0.8611
525.80 0.8605
525.90 0.86
526.00 0.8594
526.10 0.8589
526.20 0.8583
526.30 0.8578
526.40 0.8573
526.50 0.8567
526.60 0.8562
526.70 0.8556
526.80 0.8551
526.90 0.8546
527.00 0.854
527.10 0.8535
527.20 0.853
527.30 0.8524
527.40 0.8519
527.50 0.8513
527.60 0.8508
527.70 0.8503
527.80 0.8497
527.90 0.8492
528.00 0.8487
528.10 0.8481
528.20 0.8476
528.30 0.8471
528.40 0.8465
528.50 0.846
528.60 0.8455
528.70 0.8449
528.80 0.8444
528.90 0.8439
529.00 0.8434
529.10 0.8428
529.20 0.8423
529.30 0.8418
529.40 0.8412
529.50 0.8407
529.60 0.8401
529.70 0.8396
529.80 0.8391
529.90 0.8385
530.00 0.838
530.10 0.8375
530.20 0.8369
530.30 0.8364
530.40 0.8359
530.50 0.8354
530.60 0.8348
530.70 0.8343
530.80 0.8338
530.90 0.8333
531.00 0.8327
531.10 0.8322
531.20 0.8317
531.30 0.8312
531.40 0.8307
531.50 0.8301
531.60 0.8296
531.70 0.8291
531.80 0.8286
531.90 0.828
532.00 0.8275
532.10 0.827
532.20 0.8265
532.30 0.826
532.40 0.8254
532.50 0.8249
532.60 0.8244
532.70 0.8239
532.80 0.8234
532.90 0.8229
533.00 0.8223
533.10 0.8218
533.20 0.8213
533.30 0.8208
533.40 0.8203
533.50 0.8198
533.60 0.8193
533.70 0.8188
533.80 0.8183
533.90 0.8178
534.00 0.8173
534.10 0.8168
534.20 0.8162
534.30 0.8157
534.40 0.8152
534.50 0.8147
534.60 0.8142
534.70 0.8137
534.80 0.8132
534.90 0.8127
535.00 0.8121
535.10 0.8116
535.20 0.8111
535.30 0.8106
535.40 0.8101
535.50 0.8096
535.60 0.8091
535.70 0.8086
535.80 0.8081
535.90 0.8076
536.00 0.8071
536.10 0.8066
536.20 0.806
536.30 0.8055
536.40 0.805
536.50 0.8045
536.60 0.804
536.70 0.8035
536.80 0.803
536.90 0.8025
537.00 0.802
537.10 0.8015
537.20 0.801
537.30 0.8005
537.40 0.8
537.50 0.7995
537.60 0.799
537.70 0.7985
537.80 0.798
537.90 0.7975
538.00 0.797
538.10 0.7966
538.20 0.7961
538.30 0.7956
538.40 0.7951
538.50 0.7946
538.60 0.7941
538.70 0.7936
538.80 0.7931
538.90 0.7926
539.00 0.7921
539.10 0.7916
539.20 0.7911
539.30 0.7906
539.40 0.7901
539.50 0.7896
539.60 0.7891
539.70 0.7886
539.80 0.7881
539.90 0.7877
540.00 0.7872
540.10 0.7867
540.20 0.7862
540.30 0.7857
540.40 0.7852
540.50 0.7847
540.60 0.7842
540.70 0.7838
540.80 0.7833
540.90 0.7828
541.00 0.7823
541.10 0.7818
541.20 0.7813
541.30 0.7808
541.40 0.7804
541.50 0.7799
541.60 0.7794
541.70 0.7789
541.80 0.7784
541.90 0.7779
542.00 0.7774
542.10 0.7769
542.20 0.7764
542.30 0.776
542.40 0.7755
542.50 0.775
542.60 0.7745
542.70 0.7741
542.80 0.7736
542.90 0.7731
543.00 0.7726
543.10 0.7721
543.20 0.7717
543.30 0.7712
543.40 0.7707
543.50 0.7702
543.60 0.7698
543.70 0.7693
543.80 0.7688
543.90 0.7683
544.00 0.7678
544.10 0.7674
544.20 0.7669
544.30 0.7664
544.40 0.766
544.50 0.7655
544.60 0.765
544.70 0.7645
544.80 0.7641
544.90 0.7636
545.00 0.7631
545.10 0.7626
545.20 0.7622
545.30 0.7617
545.40 0.7612
545.50 0.7608
545.60 0.7603
545.70 0.7598
545.80 0.7593
545.90 0.7589
546.00 0.7584
546.10 0.7579
546.20 0.7575
546.30 0.757
546.40 0.7566
546.50 0.7562
546.60 0.7557
546.70 0.7553
546.80 0.7548
546.90 0.7544
547.00 0.754
547.10 0.7535
547.20 0.7531
547.30 0.7526
547.40 0.7522
547.50 0.7517
547.60 0.7512
547.70 0.7508
547.80 0.7503
547.90 0.7499
548.00 0.7494
548.10 0.7489
548.20 0.7485
548.30 0.748
548.40 0.7476
548.50 0.7471
548.60 0.7466
548.70 0.7462
548.80 0.7457
548.90 0.7453
549.00 0.7448
549.10 0.7443
549.20 0.7439
549.30 0.7434
549.40 0.743
549.50 0.7425
549.60 0.742
549.70 0.7416
549.80 0.7411
549.90 0.7407
550.00 0.7402
550.10 0.7397
550.20 0.7393
550.30 0.7388
550.40 0.7384
550.50 0.7379
550.60 0.7375
550.70 0.737
550.80 0.7366
550.90 0.7361
551.00 0.7357
551.10 0.7352
551.20 0.7348
551.30 0.7343
551.40 0.7339
551.50 0.7334
551.60 0.733
551.70 0.7325
551.80 0.7321
551.90 0.7316
552.00 0.7312
552.10 0.7307
552.20 0.7303
552.30 0.7298
552.40 0.7294
552.50 0.7289
552.60 0.7285
552.70 0.728
552.80 0.7276
552.90 0.7272
553.00 0.7267
553.10 0.7263
553.20 0.7258
553.30 0.7254
553.40 0.7249
553.50 0.7245
553.60 0.7241
553.70 0.7236
553.80 0.7232
553.90 0.7227
554.00 0.7223
554.10 0.7219
554.20 0.7214
554.30 0.721
554.40 0.7205
554.50 0.7201
554.60 0.7197
554.70 0.7192
554.80 0.7188
554.90 0.7183
555.00 0.7179
555.10 0.7175
555.20 0.717
555.30 0.7166
555.40 0.7162
555.50 0.7157
555.60 0.7153
555.70 0.7149
555.80 0.7144
555.90 0.714
556.00 0.7135
556.10 0.7131
556.20 0.7127
556.30 0.7122
556.40 0.7118
556.50 0.7114
556.60 0.7109
556.70 0.7105
556.80 0.7101
556.90 0.7096
557.00 0.7092
557.10 0.7088
557.20 0.7084
557.30 0.7079
557.40 0.7075
557.50 0.7071
557.60 0.7066
557.70 0.7062
557.80 0.7058
557.90 0.7053
558.00 0.7049
558.10 0.7045
558.20 0.704
558.30 0.7036
558.40 0.7032
558.50 0.7028
558.60 0.7023
558.70 0.7019
558.80 0.7015
558.90 0.7011
559.00 0.7006
559.10 0.7002
559.20 0.6998
559.30 0.6993
559.40 0.6989
559.50 0.6985
559.60 0.6981
559.70 0.6976
559.80 0.6972
559.90 0.6968
560.00 0.6964
560.10 0.6959
560.20 0.6955
560.30 0.6951
560.40 0.6947
560.50 0.6943
560.60 0.6939
560.70 0.6934
560.80 0.693
560.90 0.6926
561.00 0.6922
561.10 0.6918
561.20 0.6914
561.30 0.691
561.40 0.6905
561.50 0.6901
561.60 0.6897
561.70 0.6893
561.80 0.6889
561.90 0.6885
562.00 0.6881
562.10 0.6876
562.20 0.6872
562.30 0.6868
562.40 0.6864
562.50 0.686
562.60 0.6856
562.70 0.6851
562.80 0.6847
562.90 0.6843
563.00 0.6839
563.10 0.6835
563.20 0.6831
563.30 0.6826
563.40 0.6822
563.50 0.6818
563.60 0.6814
563.70 0.681
563.80 0.6806
563.90 0.6802
564.00 0.6798
564.10 0.6794
564.20 0.679
564.30 0.6786
564.40 0.6782
564.50 0.6778
564.60 0.6773
564.70 0.6769
564.80 0.6765
564.90 0.6761
565.00 0.6757
565.10 0.6753
565.20 0.6749
565.30 0.6745
565.40 0.6741
565.50 0.6737
565.60 0.6733
565.70 0.6729
565.80 0.6725
565.90 0.6721
566.00 0.6717
566.10 0.6713
566.20 0.6709
566.30 0.6705
566.40 0.6701
566.50 0.6697
566.60 0.6693
566.70 0.6689
566.80 0.6685
566.90 0.6681
567.00 0.6677
567.10 0.6673
567.20 0.6669
567.30 0.6665
567.40 0.6661
567.50 0.6657
567.60 0.6653
567.70 0.6649
567.80 0.6645
567.90 0.6641
568.00 0.6637
568.10 0.6633
568.20 0.6629
568.30 0.6625
568.40 0.6621
568.50 0.6617
568.60 0.6613
568.70 0.6609
568.80 0.6605
568.90 0.6601
569.00 0.6597
569.10 0.6593
569.20 0.6589
569.30 0.6585
569.40 0.6581
569.50 0.6578
569.60 0.6574
569.70 0.657
569.80 0.6566
569.90 0.6562
570.00 0.6558
570.10 0.6554
570.20 0.655
570.30 0.6546
570.40 0.6543
570.50 0.6539
570.60 0.6535
570.70 0.6531
570.80 0.6527
570.90 0.6523
571.00 0.6519
571.10 0.6515
571.20 0.6511
571.30 0.6507
571.40 0.6504
571.50 0.65
571.60 0.6496
571.70 0.6492
571.80 0.6488
571.90 0.6484
572.00 0.6481
572.10 0.6477
572.20 0.6473
572.30 0.6469
572.40 0.6465
572.50 0.6461
572.60 0.6457
572.70 0.6454
572.80 0.645
572.90 0.6446
573.00 0.6442
573.10 0.6438
573.20 0.6434
573.30 0.643
573.40 0.6427
573.50 0.6423
573.60 0.6419
573.70 0.6415
573.80 0.6412
573.90 0.6408
574.00 0.6404
574.10 0.64
574.20 0.6396
574.30 0.6393
574.40 0.6389
574.50 0.6385
574.60 0.6381
574.70 0.6378
574.80 0.6374
574.90 0.637
575.00 0.6366
575.10 0.6363
575.20 0.6359
575.30 0.6355
575.40 0.6351
575.50 0.6348
575.60 0.6344
575.70 0.634
575.80 0.6336
575.90 0.6333
576.00 0.6329
576.10 0.6325
576.20 0.6321
576.30 0.6318
576.40 0.6314
576.50 0.631
576.60 0.6306
576.70 0.6303
576.80 0.6299
576.90 0.6295
577.00 0.6292
577.10 0.6288
577.20 0.6284
577.30 0.628
577.40 0.6277
577.50 0.6273
577.60 0.6269
577.70 0.6266
577.80 0.6262
577.90 0.6258
578.00 0.6255
578.10 0.6251
578.20 0.6247
578.30 0.6244
578.40 0.624
578.50 0.6236
578.60 0.6232
578.70 0.6229
578.80 0.6225
578.90 0.6221
579.00 0.6218
579.10 0.6214
579.20 0.621
579.30 0.6207
579.40 0.6203
579.50 0.62
579.60 0.6196
579.70 0.6193
579.80 0.6189
579.90 0.6185
580.00 0.6182
580.10 0.6178
580.20 0.6175
580.30 0.6171
580.40 0.6167
580.50 0.6164
580.60 0.616
580.70 0.6156
580.80 0.6153
580.90 0.6149
581.00 0.6145
581.10 0.6142
581.20 0.6138
581.30 0.6135
581.40 0.6131
581.50 0.6128
581.60 0.6124
581.70 0.612
581.80 0.6117
581.90 0.6113
582.00 0.611
582.10 0.6106
582.20 0.6103
582.30 0.6099
582.40 0.6095
582.50 0.6092
582.60 0.6088
582.70 0.6085
582.80 0.6081
582.90 0.6078
583.00 0.6074
583.10 0.607
583.20 0.6067
583.30 0.6063
583.40 0.606
583.50 0.6056
583.60 0.6053
583.70 0.6049
583.80 0.6046
583.90 0.6042
584.00 0.6039
584.10 0.6035
584.20 0.6032
584.30 0.6028
584.40 0.6025
584.50 0.6021
584.60 0.6017
584.70 0.6014
584.80 0.601
584.90 0.6007
585.00 0.6003
585.10 0.6
585.20 0.5996
585.30 0.5993
585.40 0.5989
585.50 0.5986
585.60 0.5982
585.70 0.5979
585.80 0.5975
585.90 0.5972
586.00 0.5969
586.10 0.5965
586.20 0.5962
586.30 0.5958
586.40 0.5955
586.50 0.5951
586.60 0.5948
586.70 0.5944
586.80 0.5941
586.90 0.5937
587.00 0.5934
587.10 0.5931
587.20 0.5927
587.30 0.5924
587.40 0.592
587.50 0.5917
587.60 0.5913
587.70 0.591
587.80 0.5907
587.90 0.5903
588.00 0.59
588.10 0.5896
588.20 0.5893
588.30 0.5889
588.40 0.5886
588.50 0.5883
588.60 0.5879
588.70 0.5876
588.80 0.5873
588.90 0.5869
589.00 0.5866
589.10 0.5862
589.20 0.5859
589.30 0.5856
589.40 0.5852
589.50 0.5849
589.60 0.5845
589.70 0.5842
589.80 0.5839
589.90 0.5835
590.00 0.5832
590.10 0.5829
590.20 0.5825
590.30 0.5822
590.40 0.5818
590.50 0.5815
590.60 0.5812
590.70 0.5808
590.80 0.5805
590.90 0.5802
591.00 0.5798
591.10 0.5795
591.20 0.5792
591.30 0.5788
591.40 0.5785
591.50 0.5782
591.60 0.5778
591.70 0.5775
591.80 0.5772
591.90 0.5768
592.00 0.5765
592.10 0.5762
592.20 0.5758
592.30 0.5755
592.40 0.5752
592.50 0.5748
592.60 0.5745
592.70 0.5742
592.80 0.5739
592.90 0.5735
593.00 0.5732
593.10 0.5729
593.20 0.5725
593.30 0.5722
593.40 0.5719
593.50 0.5715
593.60 0.5712
593.70 0.5709
593.80 0.5706
593.90 0.5702
594.00 0.5699
594.10 0.5696
594.20 0.5693
594.30 0.5689
594.40 0.5686
594.50 0.5683
594.60 0.568
594.70 0.5676
594.80 0.5673
594.90 0.567
595.00 0.5666
595.10 0.5663
595.20 0.566
595.30 0.5657
595.40 0.5653
595.50 0.565
595.60 0.5647
595.70 0.5644
595.80 0.5641
595.90 0.5637
596.00 0.5634
596.10 0.5631
596.20 0.5627
596.30 0.5624
596.40 0.562
596.50 0.5616
596.60 0.5613
596.70 0.5609
596.80 0.5605
596.90 0.5601
597.00 0.5598
597.10 0.5594
597.20 0.5591
597.30 0.5588
597.40 0.5584
597.50 0.5581
597.60 0.5578
597.70 0.5575
597.80 0.5572
597.90 0.5568
598.00 0.5565
598.10 0.5562
598.20 0.5559
598.30 0.5556
598.40 0.5552
598.50 0.5549
598.60 0.5546
598.70 0.5543
598.80 0.554
598.90 0.5536
599.00 0.5533
599.10 0.553
599.20 0.5527
599.30 0.5524
599.40 0.5521
599.50 0.5517
599.60 0.5514
599.70 0.5511
599.80 0.5508
599.90 0.5505
600.00 0.5502
600.10 0.5499
600.20 0.5495
600.30 0.5492
600.40 0.5489
600.50 0.5486
600.60 0.5483
600.70 0.548
600.80 0.5477
600.90 0.5473
601.00 0.547
601.10 0.5467
601.20 0.5464
601.30 0.5461
601.40 0.5458
601.50 0.5455
601.60 0.5452
601.70 0.5448
601.80 0.5445
601.90 0.5442
602.00 0.5439
602.10 0.5436
602.20 0.5433
602.30 0.543
602.40 0.5427
602.50 0.5424
602.60 0.542
602.70 0.5417
602.80 0.5414
602.90 0.5411
603.00 0.5408
603.10 0.5405
603.20 0.5402
603.30 0.5399
603.40 0.5396
603.50 0.5393
603.60 0.539
603.70 0.5387
603.80 0.5383
603.90 0.538
604.00 0.5377
604.10 0.5374
604.20 0.5371
604.30 0.5368
604.40 0.5365
604.50 0.5362
604.60 0.5359
604.70 0.5356
604.80 0.5353
604.90 0.535
605.00 0.5347
605.10 0.5344
605.20 0.5341
605.30 0.5338
605.40 0.5335
605.50 0.5332
605.60 0.5329
605.70 0.5326
605.80 0.5323
605.90 0.5319
606.00 0.5316
606.10 0.5313
606.20 0.531
606.30 0.5307
606.40 0.5304
606.50 0.5301
606.60 0.5298
606.70 0.5295
606.80 0.5292
606.90 0.5289
607.00 0.5286
607.10 0.5283
607.20 0.528
607.30 0.5277
607.40 0.5274
607.50 0.5271
607.60 0.5268
607.70 0.5265
607.80 0.5262
607.90 0.5259
608.00 0.5256
608.10 0.5253
608.20 0.525
608.30 0.5247
608.40 0.5244
608.50 0.5241
608.60 0.5238
608.70 0.5235
608.80 0.5233
608.90 0.523
609.00 0.5227
609.10 0.5224
609.20 0.5221
609.30 0.5218
609.40 0.5215
609.50 0.5212
609.60 0.5209
609.70 0.5206
609.80 0.5203
609.90 0.52
610.00 0.5197
610.10 0.5194
610.20 0.5191
610.30 0.5188
610.40 0.5185
610.50 0.5182
610.60 0.5179
610.70 0.5176
610.80 0.5173
610.90 0.5171
611.00 0.5168
611.10 0.5165
611.20 0.5162
611.30 0.5159
611.40 0.5156
611.50 0.5153
611.60 0.515
611.70 0.5147
611.80 0.5144
611.90 0.5141
612.00 0.5138
612.10 0.5135
612.20 0.5133
612.30 0.513
612.40 0.5127
612.50 0.5124
612.60 0.5121
612.70 0.5118
612.80 0.5115
612.90 0.5112
613.00 0.5109
613.10 0.5106
613.20 0.5104
613.30 0.5101
613.40 0.5098
613.50 0.5095
613.60 0.5092
613.70 0.5089
613.80 0.5086
613.90 0.5083
614.00 0.5081
614.10 0.5078
614.20 0.5075
614.30 0.5072
614.40 0.5069
614.50 0.5066
614.60 0.5063
614.70 0.506
614.80 0.5058
614.90 0.5055
615.00 0.5052
615.10 0.5049
615.20 0.5046
615.30 0.5043
615.40 0.504
615.50 0.5038
615.60 0.5035
615.70 0.5032
615.80 0.5029
615.90 0.5026
616.00 0.5023
616.10 0.502
616.20 0.5018
616.30 0.5015
616.40 0.5012
616.50 0.5009
616.60 0.5006
616.70 0.5003
616.80 0.5001
616.90 0.4998
617.00 0.4995
617.10 0.4992
617.20 0.4989
617.30 0.4986
617.40 0.4984
617.50 0.4981
617.60 0.4978
617.70 0.4975
617.80 0.4972
617.90 0.497
618.00 0.4967
618.10 0.4964
618.20 0.4961
618.30 0.4958
618.40 0.4955
618.50 0.4953
618.60 0.495
618.70 0.4947
618.80 0.4944
618.90 0.4941
619.00 0.4939
619.10 0.4936
619.20 0.4933
619.30 0.493
619.40 0.4927
619.50 0.4925
619.60 0.4922
619.70 0.4919
619.80 0.4916
619.90 0.4913
620.00 0.4911
620.10 0.4908
620.20 0.4905
620.30 0.4902
620.40 0.4899
620.50 0.4897
620.60 0.4894
620.70 0.4891
620.80 0.4888
620.90 0.4886
621.00 0.4883
621.10 0.488
621.20 0.4877
621.30 0.4874
621.40 0.4872
621.50 0.4869
621.60 0.4866
621.70 0.4863
621.80 0.4861
621.90 0.4858
622.00 0.4855
622.10 0.4852
622.20 0.485
622.30 0.4847
622.40 0.4844
622.50 0.4841
622.60 0.4839
622.70 0.4836
622.80 0.4833
622.90 0.483
623.00 0.4828
623.10 0.4825
623.20 0.4822
623.30 0.4819
623.40 0.4817
623.50 0.4814
623.60 0.4811
623.70 0.4808
623.80 0.4806
623.90 0.4803
624.00 0.48
624.10 0.4797
624.20 0.4795
624.30 0.4792
624.40 0.4789
624.50 0.4786
624.60 0.4784
624.70 0.4781
624.80 0.4778
624.90 0.4775
625.00 0.4773
625.10 0.477
625.20 0.4767
625.30 0.4764
625.40 0.4762
625.50 0.4759
625.60 0.4756
625.70 0.4753
625.80 0.4751
625.90 0.4748
626.00 0.4745
626.10 0.4743
626.20 0.474
626.30 0.4737
626.40 0.4734
626.50 0.4732
626.60 0.4729
626.70 0.4726
626.80 0.4724
626.90 0.4721
627.00 0.4718
627.10 0.4715
627.20 0.4713
627.30 0.471
627.40 0.4707
627.50 0.4704
627.60 0.4702
627.70 0.4699
627.80 0.4696
627.90 0.4694
628.00 0.4691
628.10 0.4688
628.20 0.4685
628.30 0.4683
628.40 0.468
628.50 0.4677
628.60 0.4675
628.70 0.4672
628.80 0.4669
628.90 0.4666
629.00 0.4664
629.10 0.4661
629.20 0.4658
629.30 0.4656
629.40 0.4653
629.50 0.465
629.60 0.4647
629.70 0.4645
629.80 0.4642
629.90 0.4639
630.00 0.4637
630.10 0.4634
630.20 0.4631
630.30 0.4628
630.40 0.4626
630.50 0.4623
630.60 0.462
630.70 0.4618
630.80 0.4615
630.90 0.4612
631.00 0.4609
631.10 0.4607
631.20 0.4604
631.30 0.4601
631.40 0.4598
631.50 0.4596
631.60 0.4593
631.70 0.459
631.80 0.4588
631.90 0.4585
632.00 0.4582
632.10 0.4579
632.20 0.4577
632.30 0.4574
632.40 0.4571
632.50 0.4568
632.60 0.4566
632.70 0.4563
632.80 0.456
632.90 0.4557
633.00 0.4555
633.10 0.4552
633.20 0.4549
633.30 0.4546
633.40 0.4544
633.50 0.4541
633.60 0.4538
633.70 0.4535
633.80 0.4533
633.90 0.453
634.00 0.4527
634.10 0.4524
634.20 0.4521
634.30 0.4519
634.40 0.4516
634.50 0.4513
634.60 0.451
634.70 0.4507
634.80 0.4505
634.90 0.4502
635.00 0.4499
635.10 0.4496
635.20 0.4494
635.30 0.4491
635.40 0.4488
635.50 0.4485
635.60 0.4482
635.70 0.4479
635.80 0.4477
635.90 0.4474
636.00 0.4471
636.10 0.4468
636.20 0.4465
636.30 0.4462
636.40 0.4459
636.50 0.4457
636.60 0.4454
636.70 0.4451
636.80 0.4448
636.90 0.4445
637.00 0.4442
637.10 0.4439
637.20 0.4436
637.30 0.4433
637.40 0.443
637.50 0.4428
637.60 0.4425
637.70 0.4422
637.80 0.4419
637.90 0.4416
638.00 0.4413
638.10 0.441
638.20 0.4407
638.30 0.4404
638.40 0.4401
638.50 0.4398
638.60 0.4395
638.70 0.4392
638.80 0.4389
638.90 0.4386
639.00 0.4383
639.10 0.438
639.20 0.4377
639.30 0.4373
639.40 0.437
639.50 0.4367
639.60 0.4364
639.70 0.4361
639.80 0.4358
639.90 0.4355
640.00 0.4351
640.10 0.4348
640.20 0.4345
640.30 0.4342
640.40 0.4339
640.50 0.4335
640.60 0.4332
640.70 0.4329
640.80 0.4326
640.90 0.4322
641.00 0.4319
641.10 0.4316
641.20 0.4312
641.30 0.4309
641.40 0.4306
641.50 0.4302
641.60 0.4299
641.70 0.4295
641.80 0.4292
641.90 0.4288
642.00 0.4285
642.10 0.4281
642.20 0.4278
642.30 0.4274
642.40 0.4271
642.50 0.4267
642.60 0.4263
642.70 0.426
642.80 0.4256
642.90 0.4252
643.00 0.4249
643.10 0.4245
643.20 0.4241
643.30 0.4237
643.40 0.4233
643.50 0.4229
643.60 0.4225
643.70 0.4221
643.80 0.4217
643.90 0.4213
644.00 0.4209
644.10 0.4205
644.20 0.4201
644.30 0.4197
644.40 0.4193
644.50 0.4188
644.60 0.4184
644.70 0.418
644.80 0.4175
644.90 0.4171
645.00 0.4166
645.10 0.4162
645.20 0.4157
645.30 0.4153
645.40 0.4148
645.50 0.4143
645.60 0.4138
645.70 0.4133
645.80 0.4128
645.90 0.4123
646.00 0.4118
646.10 0.4113
646.20 0.4108
646.30 0.4103
646.40 0.4098
646.50 0.4092
646.60 0.4086
646.70 0.4081
646.80 0.4075
646.90 0.4069
647.00 0.4064
647.10 0.4058
647.20 0.4052
647.30 0.4046
647.40 0.404
647.50 0.4033
647.60 0.4026
647.70 0.402
647.80 0.4013
647.90 0.4006
648.00 0.4
648.10 0.3993
648.20 0.3987
648.30 0.398
648.40 0.3972
648.50 0.3964
648.60 0.3956
648.70 0.3948
648.80 0.394
648.90 0.3932
649.00 0.3924
649.10 0.3916
649.20 0.3908
649.30 0.3899
649.40 0.389
649.50 0.388
649.60 0.387
649.70 0.3861
649.80 0.3851
649.90 0.3841
650.00 0.3832
650.10 0.3822
650.20 0.3812
650.30 0.3802
650.40 0.379
650.50 0.3778
650.60 0.3766
650.70 0.3754
650.80 0.3741
650.90 0.3729
651.00 0.3717
651.10 0.3705
651.20 0.3693
651.30 0.368
651.40 0.3665
651.50 0.365
651.60 0.3635
651.70 0.362
651.80 0.3605
651.90 0.3589
652.00 0.3574
652.10 0.3559
652.20 0.3544
652.30 0.3528
652.40 0.3509
652.50 0.349
652.60 0.3471
652.70 0.3452
652.80 0.3433
652.90 0.3414
653.00 0.3395
653.10 0.3376
653.20 0.3358
653.30 0.3338
653.40 0.3314
653.50 0.3291
653.60 0.3267
653.70 0.3243
653.80 0.322
653.90 0.3196
654.00 0.3173
654.10 0.3149
654.20 0.3126
654.30 0.3102
654.40 0.3074
654.50 0.3047
654.60 0.3019
654.70 0.2992
654.80 0.2964
654.90 0.2932
655.00 0.2901
655.10 0.2869
655.20 0.2838
655.30 0.2805
655.40 0.2771
655.50 0.2735
655.60 0.2696
655.70 0.2655
655.80 0.2608
655.90 0.2556
656.00 0.2483
656.10 0.2403
656.20 0.2141
656.30 0.1865
656.40 0.2297
656.50 0.2433
656.60 0.2505
656.70 0.257
656.80 0.2615
656.90 0.2658
657.00 0.2695
657.10 0.273
657.20 0.2763
657.30 0.2794
657.40 0.2823
657.50 0.2852
657.60 0.2881
657.70 0.2909
657.80 0.2937
657.90 0.2961
658.00 0.2986
658.10 0.301
658.20 0.3034
658.30 0.3058
658.40 0.3078
658.50 0.3098
658.60 0.3118
658.70 0.3138
658.80 0.3158
658.90 0.3178
659.00 0.3199
659.10 0.3219
659.20 0.3239
659.30 0.3258
659.40 0.3273
659.50 0.3288
659.60 0.3303
659.70 0.3318
659.80 0.3333
659.90 0.3348
660.00 0.3363
660.10 0.3379
660.20 0.3394
660.30 0.3408
660.40 0.3419
660.50 0.343
660.60 0.3441
660.70 0.3452
660.80 0.3463
660.90 0.3474
661.00 0.3485
661.10 0.3496
661.20 0.3507
661.30 0.3517
661.40 0.3525
661.50 0.3533
661.60 0.354
661.70 0.3548
661.80 0.3556
661.90 0.3564
662.00 0.3571
662.10 0.3579
662.20 0.3587
662.30 0.3594
662.40 0.3599
662.50 0.3605
662.60 0.361
662.70 0.3615
662.80 0.362
662.90 0.3626
663.00 0.3631
663.10 0.3636
663.20 0.3641
663.30 0.3646
663.40 0.365
663.50 0.3653
663.60 0.3657
663.70 0.366
663.80 0.3663
663.90 0.3667
664.00 0.367
664.10 0.3674
664.20 0.3677
664.30 0.368
664.40 0.3683
664.50 0.3685
664.60 0.3687
664.70 0.3689
664.80 0.3691
664.90 0.3693
665.00 0.3695
665.10 0.3697
665.20 0.3699
665.30 0.3701
665.40 0.3703
665.50 0.3704
665.60 0.3705
665.70 0.3706
665.80 0.3707
665.90 0.3708
666.00 0.3709
666.10 0.371
666.20 0.3712
666.30 0.3712
666.40 0.3713
666.50 0.3713
666.60 0.3714
666.70 0.3714
666.80 0.3715
666.90 0.3715
667.00 0.3716
667.10 0.3716
667.20 0.3716
667.30 0.3717
667.40 0.3717
667.50 0.3717
667.60 0.3716
667.70 0.3716
667.80 0.3716
667.90 0.3716
668.00 0.3716
668.10 0.3716
668.20 0.3716
668.30 0.3716
668.40 0.3715
668.50 0.3715
668.60 0.3714
668.70 0.3714
668.80 0.3713
668.90 0.3713
669.00 0.3712
669.10 0.3712
669.20 0.3711
669.30 0.3711
669.40 0.371
669.50 0.3709
669.60 0.3708
669.70 0.3708
669.80 0.3707
669.90 0.3706
670.00 0.3705
670.10 0.3705
670.20 0.3704
670.30 0.3703
670.40 0.3702
670.50 0.3701
670.60 0.37
670.70 0.3699
670.80 0.3698
670.90 0.3697
671.00 0.3696
671.10 0.3695
671.20 0.3694
671.30 0.3693
671.40 0.3692
671.50 0.3691
671.60 0.3689
671.70 0.3688
671.80 0.3687
671.90 0.3686
672.00 0.3685
672.10 0.3684
672.20 0.3682
672.30 0.3681
672.40 0.368
672.50 0.3679
672.60 0.3677
672.70 0.3676
672.80 0.3675
672.90 0.3674
673.00 0.3672
673.10 0.3671
673.20 0.367
673.30 0.3668
673.40 0.3667
673.50 0.3666
673.60 0.3664
673.70 0.3663
673.80 0.3661
673.90 0.366
674.00 0.3659
674.10 0.3657
674.20 0.3656
674.30 0.3655
674.40 0.3653
674.50 0.3652
674.60 0.365
674.70 0.3649
674.80 0.3647
674.90 0.3646
675.00 0.3644
675.10 0.3643
675.20 0.3641
675.30 0.364
675.40 0.3638
675.50 0.3637
675.60 0.3635
675.70 0.3634
675.80 0.3632
675.90 0.3631
676.00 0.3629
676.10 0.3628
676.20 0.3626
676.30 0.3625
676.40 0.3623
676.50 0.3622
676.60 0.362
676.70 0.3619
676.80 0.3617
676.90 0.3615
677.00 0.3614
677.10 0.3612
677.20 0.3611
677.30 0.3609
677.40 0.3608
677.50 0.3606
677.60 0.3604
677.70 0.3603
677.80 0.3601
677.90 0.36
678.00 0.3598
678.10 0.3596
678.20 0.3595
678.30 0.3593
678.40 0.3592
678.50 0.359
678.60 0.3588
678.70 0.3587
678.80 0.3585
678.90 0.3583
679.00 0.3582
679.10 0.358
679.20 0.3579
679.30 0.3577
679.40 0.3575
679.50 0.3574
679.60 0.3572
679.70 0.357
679.80 0.3569
679.90 0.3567
680.00 0.3566
680.10 0.3564
680.20 0.3562
680.30 0.3561
680.40 0.3559
680.50 0.3557
680.60 0.3556
680.70 0.3554
680.80 0.3552
680.90 0.3551
681.00 0.3549
681.10 0.3547
681.20 0.3546
681.30 0.3544
681.40 0.3542
681.50 0.3541
681.60 0.3539
681.70 0.3537
681.80 0.3536
681.90 0.3534
682.00 0.3532
682.10 0.3531
682.20 0.3529
682.30 0.3527
682.40 0.3526
682.50 0.3524
682.60 0.3522
682.70 0.3521
682.80 0.3519
682.90 0.3517
683.00 0.3516
683.10 0.3514
683.20 0.3512
683.30 0.3511
683.40 0.3509
683.50 0.3507
683.60 0.3506
683.70 0.3504
683.80 0.3502
683.90 0.3501
684.00 0.3499
684.10 0.3497
684.20 0.3496
684.30 0.3494
684.40 0.3492
684.50 0.3491
684.60 0.3489
684.70 0.3487
684.80 0.3486
684.90 0.3484
685.00 0.3482
685.10 0.3481
685.20 0.3479
685.30 0.3477
685.40 0.3476
685.50 0.3474
685.60 0.3472
685.70 0.3471
685.80 0.3469
685.90 0.3467
686.00 0.3466
686.10 0.3464
686.20 0.3462
686.30 0.3461
686.40 0.3459
686.50 0.3457
686.60 0.3456
686.70 0.3454
686.80 0.3452
686.90 0.3451
687.00 0.3449
687.10 0.3447
687.20 0.3446
687.30 0.3444
687.40 0.3442
687.50 0.3441
687.60 0.3439
687.70 0.3437
687.80 0.3435
687.90 0.3434
688.00 0.3432
688.10 0.343
688.20 0.3429
688.30 0.3427
688.40 0.3425
688.50 0.3424
688.60 0.3422
688.70 0.342
688.80 0.3419
688.90 0.3417
689.00 0.3415
689.10 0.3414
689.20 0.3412
689.30 0.3411
689.40 0.3409
689.50 0.3407
689.60 0.3406
689.70 0.3404
689.80 0.3402
689.90 0.3401
690.00 0.3399
690.10 0.3397
690.20 0.3396
690.30 0.3394
690.40 0.3392
690.50 0.3391
690.60 0.3389
690.70 0.3387
690.80 0.3386
690.90 0.3384
691.00 0.3382
691.10 0.3381
691.20 0.3379
691.30 0.3377
691.40 0.3376
691.50 0.3374
691.60 0.3372
691.70 0.3371
691.80 0.3369
691.90 0.3367
692.00 0.3366
692.10 0.3364
692.20 0.3362
692.30 0.3361
692.40 0.3359
692.50 0.3358
692.60 0.3356
692.70 0.3354
692.80 0.3353
692.90 0.3351
693.00 0.3349
693.10 0.3348
693.20 0.3346
693.30 0.3344
693.40 0.3343
693.50 0.3341
693.60 0.3339
693.70 0.3338
693.80 0.3336
693.90 0.3335
694.00 0.3333
694.10 0.3331
694.20 0.333
694.30 0.3328
694.40 0.3326
694.50 0.3325
694.60 0.3323
694.70 0.3322
694.80 0.332
694.90 0.3318
695.00 0.3317
695.10 0.3315
695.20 0.3313
695.30 0.3312
695.40 0.331
695.50 0.3309
695.60 0.3307
695.70 0.3305
695.80 0.3304
695.90 0.3302
696.00 0.33
696.10 0.3299
696.20 0.3297
696.30 0.3296
696.40 0.3294
696.50 0.3292
696.60 0.3291
696.70 0.3289
696.80 0.3288
696.90 0.3286
697.00 0.3284
697.10 0.3283
697.20 0.3281
697.30 0.328
697.40 0.3278
697.50 0.3276
697.60 0.3275
697.70 0.3273
697.80 0.3272
697.90 0.327
698.00 0.3268
698.10 0.3267
698.20 0.3265
698.30 0.3264
698.40 0.3262
698.50 0.326
698.60 0.3259
698.70 0.3257
698.80 0.3256
698.90 0.3254
699.00 0.3252
699.10 0.3251
699.20 0.3249
699.30 0.3248
699.40 0.3246
699.50 0.3244
699.60 0.3243
699.70 0.3241
699.80 0.324
699.90 0.3238
700.00 0.3236
700.10 0.3235
700.20 0.3233
700.30 0.3232
700.40 0.323
700.50 0.3229
700.60 0.3227
700.70 0.3226
700.80 0.3224
700.90 0.3223
701.00 0.3221
701.10 0.322
701.20 0.3218
701.30 0.3217
701.40 0.3215
701.50 0.3214
701.60 0.3212
701.70 0.321
701.80 0.3209
701.90 0.3207
702.00 0.3206
702.10 0.3204
702.20 0.3203
702.30 0.3201
702.40 0.32
702.50 0.3198
702.60 0.3197
702.70 0.3195
702.80 0.3194
702.90 0.3192
703.00 0.3191
703.10 0.3189
703.20 0.3188
703.30 0.3186
703.40 0.3185
703.50 0.3183
703.60 0.3182
703.70 0.318
703.80 0.3179
703.90 0.3177
704.00 0.3176
704.10 0.3174
704.20 0.3173
704.30 0.3171
704.40 0.317
704.50 0.3168
704.60 0.3167
704.70 0.3165
704.80 0.3164
704.90 0.3162
705.00 0.3161
705.10 0.3159
705.20 0.3158
705.30 0.3156
705.40 0.3154
705.50 0.3153
705.60 0.3151
705.70 0.315
705.80 0.3148
705.90 0.3147
706.00 0.3145
706.10 0.3144
706.20 0.3142
706.30 0.3141
706.40 0.3139
706.50 0.3138
706.60 0.3136
706.70 0.3134
706.80 0.3133
706.90 0.3131
707.00 0.313
707.10 0.3128
707.20 0.3127
707.30 0.3125
707.40 0.3124
707.50 0.3122
707.60 0.3121
707.70 0.3119
707.80 0.3118
707.90 0.3116
708.00 0.3115
708.10 0.3113
708.20 0.3112
708.30 0.311
708.40 0.3109
708.50 0.3107
708.60 0.3106
708.70 0.3104
708.80 0.3102
708.90 0.3101
709.00 0.3099
709.10 0.3098
709.20 0.3096
709.30 0.3095
709.40 0.3093
709.50 0.3092
709.60 0.309
709.70 0.3089
709.80 0.3087
709.90 0.3086
710.00 0.3084
710.10 0.3083
710.20 0.3081
710.30 0.308
710.40 0.3078
710.50 0.3077
710.60 0.3075
710.70 0.3074
710.80 0.3072
710.90 0.3071
711.00 0.3069
711.10 0.3068
711.20 0.3066
711.30 0.3065
711.40 0.3063
711.50 0.3062
711.60 0.306
711.70 0.3059
711.80 0.3057
711.90 0.3056
712.00 0.3054
712.10 0.3053
712.20 0.3052
712.30 0.305
712.40 0.3049
712.50 0.3047
712.60 0.3046
712.70 0.3044
712.80 0.3043
712.90 0.3041
713.00 0.304
713.10 0.3038
713.20 0.3037
713.30 0.3035
713.40 0.3034
713.50 0.3032
713.60 0.3031
713.70 0.3029
713.80 0.3028
713.90 0.3026
714.00 0.3025
714.10 0.3023
714.20 0.3022
714.30 0.3021
714.40 0.3019
714.50 0.3018
714.60 0.3016
714.70 0.3015
714.80 0.3013
714.90 0.3012
715.00 0.301
715.10 0.3009
715.20 0.3007
715.30 0.3006
715.40 0.3004
715.50 0.3003
715.60 0.3002
715.70 0.3
715.80 0.2999
715.90 0.2997
716.00 0.2996
716.10 0.2994
716.20 0.2993
716.30 0.2992
716.40 0.299
716.50 0.2989
716.60 0.2987
716.70 0.2986
716.80 0.2984
716.90 0.2983
717.00 0.2982
717.10 0.298
717.20 0.2979
717.30 0.2977
717.40 0.2976
717.50 0.2974
717.60 0.2973
717.70 0.2972
717.80 0.297
717.90 0.2969
718.00 0.2967
718.10 0.2966
718.20 0.2965
718.30 0.2963
718.40 0.2962
718.50 0.296
718.60 0.2959
718.70 0.2957
718.80 0.2956
718.90 0.2955
719.00 0.2953
719.10 0.2952
719.20 0.295
719.30 0.2949
719.40 0.2948
719.50 0.2946
719.60 0.2945
719.70 0.2943
719.80 0.2942
719.90 0.2941
720.00 0.2939
720.10 0.2938
720.20 0.2936
720.30 0.2935
720.40 0.2933
720.50 0.2932
720.60 0.2931
720.70 0.2929
720.80 0.2928
720.90 0.2926
721.00 0.2925
721.10 0.2924
721.20 0.2922
721.30 0.2921
721.40 0.2919
721.50 0.2918
721.60 0.2917
721.70 0.2915
721.80 0.2914
721.90 0.2912
722.00 0.2911
722.10 0.291
722.20 0.2908
722.30 0.2907
722.40 0.2905
722.50 0.2904
722.60 0.2903
722.70 0.2901
722.80 0.29
722.90 0.2898
723.00 0.2897
723.10 0.2896
723.20 0.2894
723.30 0.2893
723.40 0.2891
723.50 0.289
723.60 0.2889
723.70 0.2887
723.80 0.2886
723.90 0.2884
724.00 0.2883
724.10 0.2882
724.20 0.288
724.30 0.2879
724.40 0.2877
724.50 0.2876
724.60 0.2875
724.70 0.2873
724.80 0.2872
724.90 0.287
725.00 0.2869
725.10 0.2868
725.20 0.2866
725.30 0.2865
725.40 0.2864
725.50 0.2862
725.60 0.2861
725.70 0.286
725.80 0.2858
725.90 0.2857
726.00 0.2855
726.10 0.2854
726.20 0.2853
726.30 0.2851
726.40 0.285
726.50 0.2849
726.60 0.2847
726.70 0.2846
726.80 0.2844
726.90 0.2843
727.00 0.2842
727.10 0.284
727.20 0.2839
727.30 0.2838
727.40 0.2836
727.50 0.2835
727.60 0.2834
727.70 0.2832
727.80 0.2831
727.90 0.2829
728.00 0.2828
728.10 0.2827
728.20 0.2825
728.30 0.2824
728.40 0.2823
728.50 0.2821
728.60 0.282
728.70 0.2819
728.80 0.2817
728.90 0.2816
729.00 0.2815
729.10 0.2813
729.20 0.2812
729.30 0.2811
729.40 0.2809
729.50 0.2808
729.60 0.2807
729.70 0.2805
729.80 0.2804
729.90 0.2802
730.00 0.2801
730.10 0.28
730.20 0.2798
730.30 0.2797
730.40 0.2796
730.50 0.2795
730.60 0.2793
730.70 0.2792
730.80 0.2791
730.90 0.2789
731.00 0.2788
731.10 0.2787
731.20 0.2785
731.30 0.2784
731.40 0.2783
731.50 0.2781
731.60 0.278
731.70 0.2779
731.80 0.2777
731.90 0.2776
732.00 0.2775
732.10 0.2773
732.20 0.2772
732.30 0.2771
732.40 0.2769
732.50 0.2768
732.60 0.2767
732.70 0.2765
732.80 0.2764
732.90 0.2763
733.00 0.2762
733.10 0.276
733.20 0.2759
733.30 0.2758
733.40 0.2756
733.50 0.2755
733.60 0.2754
733.70 0.2752
733.80 0.2751
733.90 0.275
734.00 0.2748
734.10 0.2747
734.20 0.2746
734.30 0.2745
734.40 0.2743
734.50 0.2742
734.60 0.2741
734.70 0.2739
734.80 0.2738
734.90 0.2737
735.00 0.2735
735.10 0.2734
735.20 0.2733
735.30 0.2732
735.40 0.273
735.50 0.2729
735.60 0.2728
735.70 0.2726
735.80 0.2725
735.90 0.2724
736.00 0.2722
736.10 0.2721
736.20 0.272
736.30 0.2719
736.40 0.2717
736.50 0.2716
736.60 0.2715
736.70 0.2713
736.80 0.2712
736.90 0.2711
737.00 0.271
737.10 0.2708
737.20 0.2707
737.30 0.2706
737.40 0.2704
737.50 0.2703
737.60 0.2702
737.70 0.2701
737.80 0.2699
737.90 0.2698
738.00 0.2697
738.10 0.2695
738.20 0.2694
738.30 0.2693
738.40 0.2692
738.50 0.269
738.60 0.2689
738.70 0.2688
738.80 0.2686
738.90 0.2685
739.00 0.2684
739.10 0.2683
739.20 0.2681
739.30 0.268
739.40 0.2679
739.50 0.2678
739.60 0.2676
739.70 0.2675
739.80 0.2674
739.90 0.2672
740.00 0.2671
740.10 0.267
740.20 0.2669
740.30 0.2667
740.40 0.2666
740.50 0.2665
740.60 0.2664
740.70 0.2662
740.80 0.2661
740.90 0.266
741.00 0.2659
741.10 0.2657
741.20 0.2656
741.30 0.2655
741.40 0.2654
741.50 0.2652
741.60 0.2651
741.70 0.265
741.80 0.2649
741.90 0.2648
742.00 0.2646
742.10 0.2645
742.20 0.2644
742.30 0.2643
742.40 0.2641
742.50 0.264
742.60 0.2639
742.70 0.2638
742.80 0.2636
742.90 0.2635
743.00 0.2634
743.10 0.2633
743.20 0.2631
743.30 0.263
743.40 0.2629
743.50 0.2628
743.60 0.2626
743.70 0.2625
743.80 0.2624
743.90 0.2623
744.00 0.2622
744.10 0.262
744.20 0.2619
744.30 0.2618
744.40 0.2617
744.50 0.2615
744.60 0.2614
744.70 0.2613
744.80 0.2612
744.90 0.2611
745.00 0.2609
745.10 0.2608
745.20 0.2607
745.30 0.2606
745.40 0.2604
745.50 0.2603
745.60 0.2602
745.70 0.2601
745.80 0.26
745.90 0.2598
746.00 0.2597
746.10 0.2596
746.20 0.2595
746.30 0.2593
746.40 0.2592
746.50 0.2591
746.60 0.259
746.70 0.2589
746.80 0.2587
746.90 0.2586
747.00 0.2585
747.10 0.2584
747.20 0.2582
747.30 0.2581
747.40 0.258
747.50 0.2579
747.60 0.2578
747.70 0.2576
747.80 0.2575
747.90 0.2574
748.00 0.2573
748.10 0.2572
748.20 0.257
748.30 0.2569
748.40 0.2568
748.50 0.2567
748.60 0.2566
748.70 0.2564
748.80 0.2563
748.90 0.2562
749.00 0.2561
749.10 0.256
749.20 0.2558
749.30 0.2557
749.40 0.2556
749.50 0.2555
749.60 0.2554
749.70 0.2552
749.80 0.2551
749.90 0.255
750.00 0.2549
750.10 0.2548
750.20 0.2546
750.30 0.2545
750.40 0.2544
750.50 0.2543
750.60 0.2542
750.70 0.2541
750.80 0.2539
750.90 0.2538
751.00 0.2537
751.10 0.2536
751.20 0.2535
751.30 0.2533
751.40 0.2532
751.50 0.2531
751.60 0.253
751.70 0.2529
751.80 0.2528
751.90 0.2526
752.00 0.2525
752.10 0.2524
752.20 0.2523
752.30 0.2522
752.40 0.2521
752.50 0.2519
752.60 0.2518
752.70 0.2517
752.80 0.2516
752.90 0.2515
753.00 0.2514
753.10 0.2512
753.20 0.2511
753.30 0.251
753.40 0.2509
753.50 0.2508
753.60 0.2507
753.70 0.2505
753.80 0.2504
753.90 0.2503
754.00 0.2502
754.10 0.2501
754.20 0.25
754.30 0.2498
754.40 0.2497
754.50 0.2496
754.60 0.2495
754.70 0.2494
754.80 0.2493
754.90 0.2492
755.00 0.249
755.10 0.2489
755.20 0.2488
755.30 0.2487
755.40 0.2486
755.50 0.2485
755.60 0.2483
755.70 0.2482
755.80 0.2481
755.90 0.248
756.00 0.2479
756.10 0.2478
756.20 0.2477
756.30 0.2475
756.40 0.2474
756.50 0.2473
756.60 0.2472
756.70 0.2471
756.80 0.247
756.90 0.2469
757.00 0.2467
757.10 0.2466
757.20 0.2465
757.30 0.2464
757.40 0.2463
757.50 0.2462
757.60 0.2461
757.70 0.2459
757.80 0.2458
757.90 0.2457
758.00 0.2456
758.10 0.2455
758.20 0.2454
758.30 0.2453
758.40 0.2451
758.50 0.245
758.60 0.2449
758.70 0.2448
758.80 0.2447
758.90 0.2446
759.00 0.2445
759.10 0.2444
759.20 0.2442
759.30 0.2441
759.40 0.244
759.50 0.2439
759.60 0.2438
759.70 0.2437
759.80 0.2436
759.90 0.2434
760.00 0.2433
760.10 0.2432
760.20 0.2431
760.30 0.243
760.40 0.2429
760.50 0.2428
760.60 0.2427
760.70 0.2426
760.80 0.2424
760.90 0.2423
761.00 0.2422
761.10 0.2421
761.20 0.242
761.30 0.2419
761.40 0.2418
761.50 0.2417
761.60 0.2416
761.70 0.2414
761.80 0.2413
761.90 0.2412
762.00 0.2411
762.10 0.241
762.20 0.2409
762.30 0.2408
762.40 0.2407
762.50 0.2406
762.60 0.2405
762.70 0.2403
762.80 0.2402
762.90 0.2401
763.00 0.24
763.10 0.2399
763.20 0.2398
763.30 0.2397
763.40 0.2396
763.50 0.2395
763.60 0.2394
763.70 0.2392
763.80 0.2391
763.90 0.239
764.00 0.2389
764.10 0.2388
764.20 0.2387
764.30 0.2386
764.40 0.2385
764.50 0.2384
764.60 0.2383
764.70 0.2382
764.80 0.238
764.90 0.2379
765.00 0.2378
765.10 0.2377
765.20 0.2376
765.30 0.2375
765.40 0.2374
765.50 0.2373
765.60 0.2372
765.70 0.2371
765.80 0.237
765.90 0.2368
766.00 0.2367
766.10 0.2366
766.20 0.2365
766.30 0.2364
766.40 0.2363
766.50 0.2362
766.60 0.2361
766.70 0.236
766.80 0.2359
766.90 0.2358
767.00 0.2357
767.10 0.2355
767.20 0.2354
767.30 0.2353
767.40 0.2352
767.50 0.2351
767.60 0.235
767.70 0.2349
767.80 0.2348
767.90 0.2347
768.00 0.2346
768.10 0.2345
768.20 0.2344
768.30 0.2343
768.40 0.2341
768.50 0.234
768.60 0.2339
768.70 0.2338
768.80 0.2337
768.90 0.2336
769.00 0.2335
769.10 0.2334
769.20 0.2333
769.30 0.2332
769.40 0.2331
769.50 0.233
769.60 0.2329
769.70 0.2328
769.80 0.2327
769.90 0.2325
770.00 0.2324
770.10 0.2323
770.20 0.2322
770.30 0.2321
770.40 0.232
770.50 0.2319
770.60 0.2318
770.70 0.2317
770.80 0.2316
770.90 0.2315
771.00 0.2314
771.10 0.2313
771.20 0.2312
771.30 0.2311
771.40 0.231
771.50 0.2309
771.60 0.2308
771.70 0.2307
771.80 0.2306
771.90 0.2304
772.00 0.2303
772.10 0.2302
772.20 0.2301
772.30 0.23
772.40 0.2299
772.50 0.2298
772.60 0.2297
772.70 0.2296
772.80 0.2295
772.90 0.2294
773.00 0.2293
773.10 0.2292
773.20 0.2291
773.30 0.229
773.40 0.2289
773.50 0.2288
773.60 0.2287
773.70 0.2286
773.80 0.2285
773.90 0.2284
774.00 0.2283
774.10 0.2282
774.20 0.2281
774.30 0.228
774.40 0.2279
774.50 0.2278
774.60 0.2276
774.70 0.2275
774.80 0.2274
774.90 0.2273
775.00 0.2272
775.10 0.2271
775.20 0.227
775.30 0.2269
775.40 0.2268
775.50 0.2267
775.60 0.2266
775.70 0.2265
775.80 0.2264
775.90 0.2263
776.00 0.2262
776.10 0.2261
776.20 0.226
776.30 0.2259
776.40 0.2258
776.50 0.2257
776.60 0.2256
776.70 0.2255
776.80 0.2254
776.90 0.2253
777.00 0.2252
777.10 0.2251
777.20 0.225
777.30 0.2249
777.40 0.2248
777.50 0.2247
777.60 0.2246
777.70 0.2245
777.80 0.2244
777.90 0.2243
778.00 0.2242
778.10 0.2241
778.20 0.224
778.30 0.2239
778.40 0.2238
778.50 0.2237
778.60 0.2236
778.70 0.2235
778.80 0.2234
778.90 0.2233
779.00 0.2232
779.10 0.2231
779.20 0.223
779.30 0.2229
779.40 0.2228
779.50 0.2227
779.60 0.2226
779.70 0.2225
779.80 0.2224
779.90 0.2222
780.00 0.2221
780.10 0.222
780.20 0.222
780.30 0.2219
780.40 0.2218
780.50 0.2217
780.60 0.2216
780.70 0.2215
780.80 0.2214
780.90 0.2213
781.00 0.2212
781.10 0.2211
781.20 0.221
781.30 0.2209
781.40 0.2208
781.50 0.2207
781.60 0.2206
781.70 0.2205
781.80 0.2204
781.90 0.2203
782.00 0.2202
782.10 0.2201
782.20 0.22
782.30 0.2199
782.40 0.2198
782.50 0.2197
782.60 0.2196
782.70 0.2195
782.80 0.2194
782.90 0.2193
783.00 0.2192
783.10 0.2191
783.20 0.219
783.30 0.2189
783.40 0.2188
783.50 0.2187
783.60 0.2186
783.70 0.2185
783.80 0.2184
783.90 0.2183
784.00 0.2182
784.10 0.2181
784.20 0.218
784.30 0.2179
784.40 0.2178
784.50 0.2177
784.60 0.2176
784.70 0.2175
784.80 0.2174
784.90 0.2173
785.00 0.2172
785.10 0.2171
785.20 0.217
785.30 0.2169
785.40 0.2168
785.50 0.2167
785.60 0.2167
785.70 0.2166
785.80 0.2165
785.90 0.2164
786.00 0.2163
786.10 0.2162
786.20 0.2161
786.30 0.216
786.40 0.2159
786.50 0.2158
786.60 0.2157
786.70 0.2156
786.80 0.2155
786.90 0.2154
787.00 0.2153
787.10 0.2152
787.20 0.2151
787.30 0.215
787.40 0.2149
787.50 0.2148
787.60 0.2147
787.70 0.2146
787.80 0.2145
787.90 0.2144
788.00 0.2143
788.10 0.2142
788.20 0.2141
788.30 0.2141
788.40 0.214
788.50 0.2139
788.60 0.2138
788.70 0.2137
788.80 0.2136
788.90 0.2135
789.00 0.2134
789.10 0.2133
789.20 0.2132
789.30 0.2131
789.40 0.213
789.50 0.2129
789.60 0.2128
789.70 0.2127
789.80 0.2126
789.90 0.2125
790.00 0.2124
790.10 0.2123
790.20 0.2122
790.30 0.2121
790.40 0.2121
790.50 0.212
790.60 0.2119
790.70 0.2118
790.80 0.2117
790.90 0.2116
791.00 0.2115
791.10 0.2114
791.20 0.2113
791.30 0.2112
791.40 0.2111
791.50 0.211
791.60 0.2109
791.70 0.2108
791.80 0.2107
791.90 0.2107
792.00 0.2106
792.10 0.2105
792.20 0.2104
792.30 0.2103
792.40 0.2102
792.50 0.2101
792.60 0.21
792.70 0.2099
792.80 0.2098
792.90 0.2097
793.00 0.2096
793.10 0.2095
793.20 0.2094
793.30 0.2094
793.40 0.2093
793.50 0.2092
793.60 0.2091
793.70 0.209
793.80 0.2089
793.90 0.2088
794.00 0.2087
794.10 0.2086
794.20 0.2085
794.30 0.2084
794.40 0.2083
794.50 0.2082
794.60 0.2082
794.70 0.2081
794.80 0.208
794.90 0.2079
795.00 0.2078
795.10 0.2077
795.20 0.2076
795.30 0.2075
795.40 0.2074
795.50 0.2073
795.60 0.2072
795.70 0.2071
795.80 0.207
795.90 0.207
796.00 0.2069
796.10 0.2068
796.20 0.2067
796.30 0.2066
796.40 0.2065
796.50 0.2064
796.60 0.2063
796.70 0.2062
796.80 0.2061
796.90 0.206
797.00 0.206
797.10 0.2059
797.20 0.2058
797.30 0.2057
797.40 0.2056
797.50 0.2055
797.60 0.2054
797.70 0.2053
797.80 0.2052
797.90 0.2051
798.00 0.205
798.10 0.205
798.20 0.2049
798.30 0.2048
798.40 0.2047
798.50 0.2046
798.60 0.2045
798.70 0.2044
798.80 0.2043
798.90 0.2042
799.00 0.2041
799.10 0.204
799.20 0.204
799.30 0.2039
799.40 0.2038
799.50 0.2037
799.60 0.2036
799.70 0.2035
799.80 0.2034
799.90 0.2033
800.00 0.2032
800.10 0.2031
800.20 0.2031
800.30 0.203
800.40 0.2029
800.50 0.2028
800.60 0.2027
800.70 0.2026
800.80 0.2025
800.90 0.2024
801.00 0.2024
801.10 0.2023
801.20 0.2022
801.30 0.2021
801.40 0.202
801.50 0.2019
801.60 0.2018
801.70 0.2017
801.80 0.2016
801.90 0.2016
802.00 0.2015
802.10 0.2014
802.20 0.2013
802.30 0.2012
802.40 0.2011
802.50 0.201
802.60 0.2009
802.70 0.2009
802.80 0.2008
802.90 0.2007
803.00 0.2006
803.10 0.2005
803.20 0.2004
803.30 0.2003
803.40 0.2002
803.50 0.2002
803.60 0.2001
803.70 0.2
803.80 0.1999
803.90 0.1998
804.00 0.1997
804.10 0.1996
804.20 0.1995
804.30 0.1995
804.40 0.1994
804.50 0.1993
804.60 0.1992
804.70 0.1991
804.80 0.199
804.90 0.1989
805.00 0.1988
805.10 0.1988
805.20 0.1987
805.30 0.1986
805.40 0.1985
805.50 0.1984
805.60 0.1983
805.70 0.1982
805.80 0.1981
805.90 0.1981
806.00 0.198
806.10 0.1979
806.20 0.1978
806.30 0.1977
806.40 0.1976
806.50 0.1975
806.60 0.1975
806.70 0.1974
806.80 0.1973
806.90 0.1972
807.00 0.1971
807.10 0.197
807.20 0.1969
807.30 0.1969
807.40 0.1968
807.50 0.1967
807.60 0.1966
807.70 0.1965
807.80 0.1964
807.90 0.1963
808.00 0.1962
808.10 0.1962
808.20 0.1961
808.30 0.196
808.40 0.1959
808.50 0.1958
808.60 0.1957
808.70 0.1956
808.80 0.1956
808.90 0.1955
809.00 0.1954
809.10 0.1953
809.20 0.1952
809.30 0.1951
809.40 0.1951
809.50 0.195
809.60 0.1949
809.70 0.1948
809.80 0.1947
809.90 0.1946
810.00 0.1945
810.10 0.1945
810.20 0.1944
810.30 0.1943
810.40 0.1942
810.50 0.1941
810.60 0.194
810.70 0.194
810.80 0.1939
810.90 0.1938
811.00 0.1937
811.10 0.1936
811.20 0.1935
811.30 0.1934
811.40 0.1934
811.50 0.1933
811.60 0.1932
811.70 0.1931
811.80 0.193
811.90 0.1929
812.00 0.1929
812.10 0.1928
812.20 0.1927
812.30 0.1926
812.40 0.1925
812.50 0.1924
812.60 0.1924
812.70 0.1923
812.80 0.1922
812.90 0.1921
813.00 0.192
813.10 0.192
813.20 0.1919
813.30 0.1918
813.40 0.1917
813.50 0.1916
813.60 0.1915
813.70 0.1915
813.80 0.1914
813.90 0.1913
814.00 0.1912
814.10 0.1911
814.20 0.191
814.30 0.191
814.40 0.1909
814.50 0.1908
814.60 0.1907
814.70 0.1906
814.80 0.1905
814.90 0.1905
815.00 0.1904
815.10 0.1903
815.20 0.1902
815.30 0.1901
815.40 0.1901
815.50 0.19
815.60 0.1899
815.70 0.1898
815.80 0.1897
815.90 0.1896
816.00 0.1896
816.10 0.1895
816.20 0.1894
816.30 0.1893
816.40 0.1892
816.50 0.1891
816.60 0.1891
816.70 0.189
816.80 0.1889
816.90 0.1888
817.00 0.1887
817.10 0.1887
817.20 0.1886
817.30 0.1885
817.40 0.1884
817.50 0.1883
817.60 0.1883
817.70 0.1882
817.80 0.1881
817.90 0.188
818.00 0.1879
818.10 0.1878
818.20 0.1878
818.30 0.1877
818.40 0.1876
818.50 0.1875
818.60 0.1874
818.70 0.1874
818.80 0.1873
818.90 0.1872
819.00 0.1871
819.10 0.187
819.20 0.187
819.30 0.1869
819.40 0.1868
819.50 0.1867
819.60 0.1866
819.70 0.1865
819.80 0.1865
819.90 0.1864
820.00 0.1863
820.10 0.1862
820.20 0.1862
820.30 0.1861
820.40 0.186
820.50 0.1859
820.60 0.1858
820.70 0.1858
820.80 0.1857
820.90 0.1856
821.00 0.1855
821.10 0.1854
821.20 0.1854
821.30 0.1853
821.40 0.1852
821.50 0.1851
821.60 0.185
821.70 0.185
821.80 0.1849
821.90 0.1848
822.00 0.1847
822.10 0.1846
822.20 0.1846
822.30 0.1845
822.40 0.1844
822.50 0.1843
822.60 0.1842
822.70 0.1842
822.80 0.1841
822.90 0.184
823.00 0.1839
823.10 0.1839
823.20 0.1838
823.30 0.1837
823.40 0.1836
823.50 0.1835
823.60 0.1835
823.70 0.1834
823.80 0.1833
823.90 0.1832
824.00 0.1831
824.10 0.1831
824.20 0.183
824.30 0.1829
824.40 0.1828
824.50 0.1828
824.60 0.1827
824.70 0.1826
824.80 0.1825
824.90 0.1824
825.00 0.1824
825.10 0.1823
825.20 0.1822
825.30 0.1821
825.40 0.182
825.50 0.182
825.60 0.1819
825.70 0.1818
825.80 0.1817
825.90 0.1817
826.00 0.1816
826.10 0.1815
826.20 0.1814
826.30 0.1813
826.40 0.1813
826.50 0.1812
826.60 0.1811
826.70 0.181
826.80 0.181
826.90 0.1809
827.00 0.1808
827.10 0.1807
827.20 0.1807
827.30 0.1806
827.40 0.1805
827.50 0.1804
827.60 0.1803
827.70 0.1803
827.80 0.1802
827.90 0.1801
828.00 0.18
828.10 0.18
828.20 0.1799
828.30 0.1798
828.40 0.1797
828.50 0.1797
828.60 0.1796
828.70 0.1795
828.80 0.1794
828.90 0.1794
829.00 0.1793
829.10 0.1792
829.20 0.1791
829.30 0.179
829.40 0.179
829.50 0.1789
829.60 0.1788
829.70 0.1787
829.80 0.1787
829.90 0.1786
830.00 0.1785
830.10 0.1784
830.20 0.1784
830.30 0.1783
830.40 0.1782
830.50 0.1781
830.60 0.1781
830.70 0.178
830.80 0.1779
830.90 0.1778
831.00 0.1778
831.10 0.1777
831.20 0.1776
831.30 0.1775
831.40 0.1775
831.50 0.1774
831.60 0.1773
831.70 0.1772
831.80 0.1772
831.90 0.1771
832.00 0.177
832.10 0.1769
832.20 0.1768
832.30 0.1768
832.40 0.1767
832.50 0.1766
832.60 0.1766
832.70 0.1765
832.80 0.1764
832.90 0.1763
833.00 0.1763
833.10 0.1762
833.20 0.1761
833.30 0.176
833.40 0.176
833.50 0.1759
833.60 0.1758
833.70 0.1757
833.80 0.1757
833.90 0.1756
834.00 0.1755
834.10 0.1754
834.20 0.1754
834.30 0.1753
834.40 0.1752
834.50 0.1751
834.60 0.1751
834.70 0.175
834.80 0.1749
834.90 0.1748
835.00 0.1748
835.10 0.1747
835.20 0.1746
835.30 0.1745
835.40 0.1745
835.50 0.1744
835.60 0.1743
835.70 0.1742
835.80 0.1742
835.90 0.1741
836.00 0.174
836.10 0.174
836.20 0.1739
836.30 0.1738
836.40 0.1737
836.50 0.1737
836.60 0.1736
836.70 0.1735
836.80 0.1734
836.90 0.1734
837.00 0.1733
837.10 0.1732
837.20 0.1731
837.30 0.1731
837.40 0.173
837.50 0.1729
837.60 0.1729
837.70 0.1728
837.80 0.1727
837.90 0.1726
838.00 0.1726
838.10 0.1725
838.20 0.1724
838.30 0.1723
838.40 0.1723
838.50 0.1722
838.60 0.1721
838.70 0.1721
838.80 0.172
838.90 0.1719
839.00 0.1718
839.10 0.1718
839.20 0.1717
839.30 0.1716
839.40 0.1716
839.50 0.1715
839.60 0.1714
839.70 0.1713
839.80 0.1713
839.90 0.1712
840.00 0.1711
840.10 0.171
840.20 0.171
840.30 0.1709
840.40 0.1708
840.50 0.1708
840.60 0.1707
840.70 0.1706
840.80 0.1705
840.90 0.1705
841.00 0.1704
841.10 0.1703
841.20 0.1703
841.30 0.1702
841.40 0.1701
841.50 0.17
841.60 0.17
841.70 0.1699
841.80 0.1698
841.90 0.1698
842.00 0.1697
842.10 0.1696
842.20 0.1695
842.30 0.1695
842.40 0.1694
842.50 0.1693
842.60 0.1693
842.70 0.1692
842.80 0.1691
842.90 0.169
843.00 0.169
843.10 0.1689
843.20 0.1688
843.30 0.1688
843.40 0.1687
843.50 0.1686
843.60 0.1685
843.70 0.1685
843.80 0.1684
843.90 0.1683
844.00 0.1683
844.10 0.1682
844.20 0.1681
844.30 0.1681
844.40 0.168
844.50 0.1679
844.60 0.1678
844.70 0.1678
844.80 0.1677
844.90 0.1676
845.00 0.1676
845.10 0.1675
845.20 0.1674
845.30 0.1674
845.40 0.1673
845.50 0.1672
845.60 0.1671
845.70 0.1671
845.80 0.167
845.90 0.1669
846.00 0.1669
846.10 0.1668
846.20 0.1667
846.30 0.1667
846.40 0.1666
846.50 0.1665
846.60 0.1664
846.70 0.1664
846.80 0.1663
846.90 0.1662
847.00 0.1662
847.10 0.1661
847.20 0.166
847.30 0.166
847.40 0.1659
847.50 0.1659
847.60 0.1658
847.70 0.1657
847.80 0.1657
847.90 0.1656
848.00 0.1656
848.10 0.1655
848.20 0.1655
848.30 0.1654
848.40 0.1653
848.50 0.1653
848.60 0.1652
848.70 0.1652
848.80 0.1651
848.90 0.165
849.00 0.165
849.10 0.1649
849.20 0.1649
849.30 0.1648
849.40 0.1647
849.50 0.1647
849.60 0.1646
849.70 0.1646
849.80 0.1645
849.90 0.1645
850.00 0.1644
850.10 0.1643
850.20 0.1643
850.30 0.1642
850.40 0.1642
850.50 0.1641
850.60 0.164
850.70 0.164
850.80 0.1639
850.90 0.1639
851.00 0.1638
851.10 0.1638
851.20 0.1637
851.30 0.1636
851.40 0.1636
851.50 0.1635
851.60 0.1635
851.70 0.1634
851.80 0.1633
851.90 0.1633
852.00 0.1632
852.10 0.1632
852.20 0.1631
852.30 0.1631
852.40 0.163
852.50 0.1629
852.60 0.1629
852.70 0.1628
852.80 0.1628
852.90 0.1627
853.00 0.1626
853.10 0.1626
853.20 0.1625
853.30 0.1625
853.40 0.1624
853.50 0.1624
853.60 0.1623
853.70 0.1622
853.80 0.1622
853.90 0.1621
854.00 0.1621
854.10 0.162
854.20 0.162
854.30 0.1619
854.40 0.1618
854.50 0.1618
854.60 0.1617
854.70 0.1617
854.80 0.1616
854.90 0.1615
855.00 0.1615
855.10 0.1614
855.20 0.1614
855.30 0.1613
855.40 0.1613
855.50 0.1612
855.60 0.1611
855.70 0.1611
855.80 0.161
855.90 0.161
856.00 0.1609
856.10 0.1609
856.20 0.1608
856.30 0.1607
856.40 0.1607
856.50 0.1606
856.60 0.1606
856.70 0.1605
856.80 0.1605
856.90 0.1604
857.00 0.1603
857.10 0.1603
857.20 0.1602
857.30 0.1602
857.40 0.1601
857.50 0.1601
857.60 0.16
857.70 0.16
857.80 0.1599
857.90 0.1599
858.00 0.1598
858.10 0.1598
858.20 0.1597
858.30 0.1597
858.40 0.1596
858.50 0.1595
858.60 0.1595
858.70 0.1594
858.80 0.1594
858.90 0.1593
859.00 0.1593
859.10 0.1592
859.20 0.1592
859.30 0.1591
859.40 0.1591
859.50 0.159
859.60 0.159
859.70 0.1589
859.80 0.1589
859.90 0.1588
860.00 0.1588
860.10 0.1587
860.20 0.1587
860.30 0.1586
860.40 0.1586
860.50 0.1585
860.60 0.1585
860.70 0.1584
860.80 0.1583
860.90 0.1583
861.00 0.1582
861.10 0.1582
861.20 0.1581
861.30 0.1581
861.40 0.158
861.50 0.158
861.60 0.1579
861.70 0.1579
861.80 0.1578
861.90 0.1578
862.00 0.1577
862.10 0.1577
862.20 0.1576
862.30 0.1575
862.40 0.1575
862.50 0.1574
862.60 0.1574
862.70 0.1573
862.80 0.1573
862.90 0.1572
863.00 0.1571
863.10 0.1571
863.20 0.157
863.30 0.157
863.40 0.1569
863.50 0.1568
863.60 0.1568
863.70 0.1567
863.80 0.1567
863.90 0.1566
864.00 0.1566
864.10 0.1565
864.20 0.1564
864.30 0.1564
864.40 0.1563
864.50 0.1563
864.60 0.1562
864.70 0.1561
864.80 0.1561
864.90 0.156
865.00 0.156
865.10 0.1559
865.20 0.1559
865.30 0.1558
865.40 0.1557
865.50 0.1557
865.60 0.1556
865.70 0.1556
865.80 0.1555
865.90 0.1555
866.00 0.1554
866.10 0.1553
866.20 0.1553
866.30 0.1552
866.40 0.1552
866.50 0.1551
866.60 0.1551
866.70 0.155
866.80 0.1549
866.90 0.1549
867.00 0.1548
867.10 0.1548
867.20 0.1548
867.30 0.1547
867.40 0.1547
867.50 0.1547
867.60 0.1546
867.70 0.1546
867.80 0.1546
867.90 0.1545
868.00 0.1545
868.10 0.1545
868.20 0.1544
868.30 0.1544
868.40 0.1544
868.50 0.1543
868.60 0.1543
868.70 0.1543
868.80 0.1542
868.90 0.1542
869.00 0.1542
869.10 0.1541
869.20 0.1541
869.30 0.1541
869.40 0.154
869.50 0.154
869.60 0.154
869.70 0.1539
869.80 0.1539
869.90 0.1539
870.00 0.1538
870.10 0.1538
870.20 0.1538
870.30 0.1537
870.40 0.1537
870.50 0.1537
870.60 0.1536
870.70 0.1536
870.80 0.1536
870.90 0.1535
871.00 0.1535
871.10 0.1535
871.20 0.1534
871.30 0.1534
871.40 0.1534
871.50 0.1533
871.60 0.1533
871.70 0.1533
871.80 0.1532
871.90 0.1532
872.00 0.1532
872.10 0.1531
872.20 0.153
872.30 0.153
872.40 0.1529
872.50 0.1529
872.60 0.1528
872.70 0.1528
872.80 0.1527
872.90 0.1527
873.00 0.1526
873.10 0.1525
873.20 0.1525
873.30 0.1524
873.40 0.1524
873.50 0.1523
873.60 0.1523
873.70 0.1522
873.80 0.1522
873.90 0.1521
874.00 0.1521
874.10 0.152
874.20 0.1519
874.30 0.1519
874.40 0.1518
874.50 0.1518
874.60 0.1517
874.70 0.1517
874.80 0.1516
874.90 0.1516
875.00 0.1515
875.10 0.1515
875.20 0.1514
875.30 0.1513
875.40 0.1513
875.50 0.1512
875.60 0.1512
875.70 0.1511
875.80 0.1511
875.90 0.151
876.00 0.151
876.10 0.1509
876.20 0.1509
876.30 0.1508
876.40 0.1507
876.50 0.1507
876.60 0.1506
876.70 0.1506
876.80 0.1505
876.90 0.1505
877.00 0.1504
877.10 0.1504
877.20 0.1504
877.30 0.1503
877.40 0.1503
877.50 0.1503
877.60 0.1503
877.70 0.1502
877.80 0.1502
877.90 0.1502
878.00 0.1501
878.10 0.1501
878.20 0.1501
878.30 0.1501
878.40 0.15
878.50 0.15
878.60 0.15
878.70 0.15
878.80 0.1499
878.90 0.1499
879.00 0.1499
879.10 0.1499
879.20 0.1498
879.30 0.1498
879.40 0.1498
879.50 0.1497
879.60 0.1497
879.70 0.1497
879.80 0.1497
879.90 0.1496
880.00 0.1496
880.10 0.1496
880.20 0.1496
880.30 0.1495
880.40 0.1495
880.50 0.1495
880.60 0.1494
880.70 0.1494
880.80 0.1494
880.90 0.1494
881.00 0.1493
881.10 0.1493
881.20 0.1493
881.30 0.1493
881.40 0.1492
881.50 0.1492
881.60 0.1492
881.70 0.1492
881.80 0.1491
881.90 0.1491
882.00 0.1491
882.10 0.1489
882.20 0.1488
882.30 0.1486
882.40 0.1485
882.50 0.1483
882.60 0.1482
882.70 0.1481
882.80 0.1479
882.90 0.1478
883.00 0.1476
883.10 0.1475
883.20 0.1473
883.30 0.1472
883.40 0.147
883.50 0.1469
883.60 0.1467
883.70 0.1466
883.80 0.1465
883.90 0.1463
884.00 0.1462
884.10 0.146
884.20 0.1459
884.30 0.1457
884.40 0.1456
884.50 0.1454
884.60 0.1453
884.70 0.1451
884.80 0.145
884.90 0.1449
885.00 0.1447
885.10 0.1446
885.20 0.1444
885.30 0.1443
885.40 0.1441
885.50 0.144
885.60 0.1438
885.70 0.1437
885.80 0.1436
885.90 0.1434
886.00 0.1433
886.10 0.1431
886.20 0.143
886.30 0.1428
886.40 0.1427
886.50 0.1426
886.60 0.1424
886.70 0.1423
886.80 0.1421
886.90 0.142
887.00 0.1418
887.10 0.1419
887.20 0.1419
887.30 0.142
887.40 0.1421
887.50 0.1421
887.60 0.1422
887.70 0.1422
887.80 0.1423
887.90 0.1423
888.00 0.1424
888.10 0.1424
888.20 0.1425
888.30 0.1425
888.40 0.1426
888.50 0.1426
888.60 0.1427
888.70 0.1427
888.80 0.1428
888.90 0.1429
889.00 0.1429
889.10 0.143
889.20 0.143
889.30 0.1431
889.40 0.1431
889.50 0.1432
889.60 0.1432
889.70 0.1433
889.80 0.1433
889.90 0.1434
890.00 0.1434
890.10 0.1435
890.20 0.1435
890.30 0.1436
890.40 0.1437
890.50 0.1437
890.60 0.1438
890.70 0.1438
890.80 0.1439
890.90 0.1439
891.00 0.144
891.10 0.144
891.20 0.1441
891.30 0.1441
891.40 0.1442
891.50 0.1442
891.60 0.1443
891.70 0.1443
891.80 0.1444
891.90 0.1444
892.00 0.1445
892.10 0.1444
892.20 0.1444
892.30 0.1443
892.40 0.1442
892.50 0.1442
892.60 0.1441
892.70 0.144
892.80 0.144
892.90 0.1439
893.00 0.1438
893.10 0.1438
893.20 0.1437
893.30 0.1436
893.40 0.1436
893.50 0.1435
893.60 0.1434
893.70 0.1434
893.80 0.1433
893.90 0.1432
894.00 0.1432
894.10 0.1431
894.20 0.143
894.30 0.143
894.40 0.1429
894.50 0.1428
894.60 0.1428
894.70 0.1427
894.80 0.1427
894.90 0.1426
895.00 0.1425
895.10 0.1425
895.20 0.1424
895.30 0.1423
895.40 0.1423
895.50 0.1422
895.60 0.1421
895.70 0.1421
895.80 0.142
895.90 0.1419
896.00 0.1419
896.10 0.1418
896.20 0.1417
896.30 0.1417
896.40 0.1416
896.50 0.1415
896.60 0.1415
896.70 0.1414
896.80 0.1413
896.90 0.1413
897.00 0.1412
897.10 0.141
897.20 0.1407
897.30 0.1404
897.40 0.1402
897.50 0.1399
897.60 0.1396
897.70 0.1394
897.80 0.1391
897.90 0.1388
898.00 0.1386
898.10 0.1383
898.20 0.138
898.30 0.1378
898.40 0.1375
898.50 0.1372
898.60 0.137
898.70 0.1367
898.80 0.1364
898.90 0.1362
899.00 0.1359
899.10 0.1356
899.20 0.1354
899.30 0.1351
899.40 0.1348
899.50 0.1346
899.60 0.1343
899.70 0.134
899.80 0.1338
899.90 0.1335
900.00 0.1332
900.10 0.133
900.20 0.1327
900.30 0.1325
900.40 0.1322
900.50 0.1319
900.60 0.1317
900.70 0.1314
900.80 0.1311
900.90 0.1309
901.00 0.1306
901.10 0.1304
901.20 0.1301
901.30 0.1298
901.40 0.1296
901.50 0.1293
901.60 0.129
901.70 0.1288
901.80 0.1285
901.90 0.1283
902.00 0.128
902.10 0.1281
902.20 0.1283
902.30 0.1284
902.40 0.1285
902.50 0.1287
902.60 0.1288
902.70 0.1289
902.80 0.1291
902.90 0.1292
903.00 0.1293
903.10 0.1295
903.20 0.1296
903.30 0.1297
903.40 0.1299
903.50 0.13
903.60 0.1301
903.70 0.1303
903.80 0.1304
903.90 0.1306
904.00 0.1307
904.10 0.1308
904.20 0.131
904.30 0.1311
904.40 0.1312
904.50 0.1314
904.60 0.1315
904.70 0.1316
904.80 0.1318
904.90 0.1319
905.00 0.132
905.10 0.1322
905.20 0.1323
905.30 0.1324
905.40 0.1326
905.50 0.1327
905.60 0.1328
905.70 0.133
905.80 0.1331
905.90 0.1332
906.00 0.1334
906.10 0.1335
906.20 0.1336
906.30 0.1338
906.40 0.1339
906.50 0.134
906.60 0.1342
906.70 0.1343
906.80 0.1344
906.90 0.1345
907.00 0.1347
907.10 0.1347
907.20 0.1347
907.30 0.1347
907.40 0.1347
907.50 0.1347
907.60 0.1347
907.70 0.1347
907.80 0.1348
907.90 0.1348
908.00 0.1348
908.10 0.1348
908.20 0.1348
908.30 0.1348
908.40 0.1348
908.50 0.1348
908.60 0.1348
908.70 0.1348
908.80 0.1349
908.90 0.1349
909.00 0.1349
909.10 0.1349
909.20 0.1349
909.30 0.1349
909.40 0.1349
909.50 0.1349
909.60 0.1349
909.70 0.1349
909.80 0.1349
909.90 0.135
910.00 0.135
910.10 0.135
910.20 0.135
910.30 0.135
910.40 0.135
910.50 0.135
910.60 0.135
910.70 0.135
910.80 0.135
910.90 0.135
911.00 0.1351
911.10 0.1351
911.20 0.1351
911.30 0.1351
911.40 0.1351
911.50 0.1351
911.60 0.1351
911.70 0.1351
911.80 0.1351
911.90 0.1351
912.00 0.1352
912.10 0.135
912.20 0.1349
912.30 0.1347
912.40 0.1346
912.50 0.1345
912.60 0.1343
912.70 0.1342
912.80 0.1341
912.90 0.1339
913.00 0.1338
913.10 0.1337
913.20 0.1335
913.30 0.1334
913.40 0.1333
913.50 0.1331
913.60 0.133
913.70 0.1329
913.80 0.1327
913.90 0.1326
914.00 0.1325
914.10 0.1323
914.20 0.1322
914.30 0.1321
914.40 0.1319
914.50 0.1318
914.60 0.1317
914.70 0.1315
914.80 0.1314
914.90 0.1313
915.00 0.1311
915.10 0.131
915.20 0.1309
915.30 0.1307
915.40 0.1306
915.50 0.1305
915.60 0.1303
915.70 0.1302
915.80 0.1301
915.90 0.1299
916.00 0.1298
916.10 0.1297
916.20 0.1295
916.30 0.1294
916.40 0.1293
916.50 0.1292
916.60 0.129
916.70 0.1289
916.80 0.1288
916.90 0.1286
917.00 0.1285
917.10 0.1282
917.20 0.1278
917.30 0.1275
917.40 0.1272
917.50 0.1269
917.60 0.1266
917.70 0.1262
917.80 0.1259
917.90 0.1256
918.00 0.1253
918.10 0.1249
918.20 0.1246
918.30 0.1243
918.40 0.124
918.50 0.1237
918.60 0.1233
918.70 0.123
918.80 0.1227
918.90 0.1224
919.00 0.122
919.10 0.1217
919.20 0.1214
919.30 0.1211
919.40 0.1208
919.50 0.1204
919.60 0.1201
919.70 0.1198
919.80 0.1195
919.90 0.1192
920.00 0.1188
920.10 0.1185
920.20 0.1182
920.30 0.1179
920.40 0.1176
920.50 0.1172
920.60 0.1169
920.70 0.1166
920.80 0.1163
920.90 0.116
921.00 0.1156
921.10 0.1153
921.20 0.115
921.30 0.1147
921.40 0.1144
921.50 0.1141
921.60 0.1137
921.70 0.1134
921.80 0.1131
921.90 0.1128
922.00 0.1125
922.10 0.1125
922.20 0.1126
922.30 0.1126
922.40 0.1127
922.50 0.1127
922.60 0.1127
922.70 0.1128
922.80 0.1128
922.90 0.1129
923.00 0.1129
923.10 0.113
923.20 0.113
923.30 0.1131
923.40 0.1131
923.50 0.1132
923.60 0.1132
923.70 0.1133
923.80 0.1133
923.90 0.1133
924.00 0.1134
924.10 0.1134
924.20 0.1135
924.30 0.1135
924.40 0.1136
924.50 0.1136
924.60 0.1137
924.70 0.1137
924.80 0.1138
924.90 0.1138
925.00 0.1138
925.10 0.1139
925.20 0.1139
925.30 0.114
925.40 0.114
925.50 0.1141
925.60 0.1141
925.70 0.1142
925.80 0.1142
925.90 0.1142
926.00 0.1143
926.10 0.1143
926.20 0.1144
926.30 0.1144
926.40 0.1145
926.50 0.1145
926.60 0.1146
926.70 0.1146
926.80 0.1147
926.90 0.1147
927.00 0.1147
927.10 0.1149
927.20 0.115
927.30 0.1152
927.40 0.1153
927.50 0.1154
927.60 0.1156
927.70 0.1157
927.80 0.1159
927.90 0.116
928.00 0.1161
928.10 0.1163
928.20 0.1164
928.30 0.1166
928.40 0.1167
928.50 0.1168
928.60 0.117
928.70 0.1171
928.80 0.1172
928.90 0.1174
929.00 0.1175
929.10 0.1177
929.20 0.1178
929.30 0.1179
929.40 0.1181
929.50 0.1182
929.60 0.1183
929.70 0.1185
929.80 0.1186
929.90 0.1188
930.00 0.1189
930.10 0.119
930.20 0.1192
930.30 0.1193
930.40 0.1194
930.50 0.1196
930.60 0.1197
930.70 0.1199
930.80 0.12
930.90 0.1201
931.00 0.1203
931.10 0.1204
931.20 0.1205
931.30 0.1207
931.40 0.1208
931.50 0.121
931.60 0.1211
931.70 0.1212
931.80 0.1214
931.90 0.1215
932.00 0.1216
932.10 0.1217
932.20 0.1217
932.30 0.1218
932.40 0.1218
932.50 0.1219
932.60 0.1219
932.70 0.1219
932.80 0.122
932.90 0.122
933.00 0.1221
933.10 0.1221
933.20 0.1222
933.30 0.1222
933.40 0.1222
933.50 0.1223
933.60 0.1223
933.70 0.1224
933.80 0.1224
933.90 0.1225
934.00 0.1225
934.10 0.1225
934.20 0.1226
934.30 0.1226
934.40 0.1226
934.50 0.1226
934.60 0.1226
934.70 0.1226
934.80 0.1226
934.90 0.1226
935.00 0.1226
935.10 0.1226
935.20 0.1226
935.30 0.1226
935.40 0.1226
935.50 0.1226
935.60 0.1226
935.70 0.1226
935.80 0.1226
935.90 0.1226
936.00 0.1226
936.10 0.1226
936.20 0.1226
936.30 0.1225
936.40 0.1225
936.50 0.1225
936.60 0.1225
936.70 0.1225
936.80 0.1225
936.90 0.1225
937.00 0.1225
937.10 0.1225
937.20 0.1224
937.30 0.1224
937.40 0.1224
937.50 0.1223
937.60 0.1223
937.70 0.1223
937.80 0.1222
937.90 0.1222
938.00 0.1222
938.10 0.1221
938.20 0.1221
938.30 0.1221
938.40 0.122
938.50 0.1219
938.60 0.1219
938.70 0.1218
938.80 0.1218
938.90 0.1217
939.00 0.1216
939.10 0.1216
939.20 0.1215
939.30 0.1215
939.40 0.1214
939.50 0.1213
939.60 0.1213
939.70 0.1212
939.80 0.1212
939.90 0.1211
940.00 0.121
940.10 0.121
940.20 0.1209
940.30 0.1209
940.40 0.1208
940.50 0.1207
940.60 0.1206
940.70 0.1205
940.80 0.1204
940.90 0.1203
941.00 0.1202
941.10 0.1201
941.20 0.1201
941.30 0.12
941.40 0.1199
941.50 0.1198
941.60 0.1197
941.70 0.1196
941.80 0.1195
941.90 0.1194
942.00 0.1193
942.10 0.1192
942.20 0.1191
942.30 0.119
942.40 0.1189
942.50 0.1187
942.60 0.1186
942.70 0.1185
942.80 0.1183
942.90 0.1182
943.00 0.1181
943.10 0.1179
943.20 0.1178
943.30 0.1177
943.40 0.1175
943.50 0.1174
943.60 0.1173
943.70 0.1171
943.80 0.117
943.90 0.1168
944.00 0.1167
944.10 0.1166
944.20 0.1164
944.30 0.1163
944.40 0.1161
944.50 0.116
944.60 0.1158
944.70 0.1156
944.80 0.1154
944.90 0.1153
945.00 0.1151
945.10 0.1149
945.20 0.1148
945.30 0.1146
945.40 0.1144
945.50 0.1142
945.60 0.1139
945.70 0.1137
945.80 0.1135
945.90 0.1133
946.00 0.1131
946.10 0.1129
946.20 0.1127
946.30 0.1125
946.40 0.1123
946.50 0.112
946.60 0.1118
946.70 0.1116
946.80 0.1114
946.90 0.1112
947.00 0.111
947.10 0.1108
947.20 0.1105
947.30 0.1103
947.40 0.11
947.50 0.1097
947.60 0.1095
947.70 0.1092
947.80 0.1089
947.90 0.1086
948.00 0.1084
948.10 0.1081
948.20 0.1078
948.30 0.1076
948.40 0.1073
948.50 0.107
948.60 0.1067
948.70 0.1065
948.80 0.1062
948.90 0.1059
949.00 0.1057
949.10 0.1054
949.20 0.1051
949.30 0.1049
949.40 0.1045
949.50 0.1042
949.60 0.1039
949.70 0.1036
949.80 0.1033
949.90 0.1029
950.00 0.1026
950.10 0.1023
950.20 0.102
950.30 0.1017
950.40 0.1014
950.50 0.1011
950.60 0.1007
950.70 0.1004
950.80 0.1001
950.90 0.09979
951.00 0.09948
951.10 0.09916
951.20 0.09885
951.30 0.09853
951.40 0.0982
951.50 0.09787
951.60 0.09754
951.70 0.09721
951.80 0.09688
951.90 0.09654
952.00 0.09621
952.10 0.09589
952.20 0.09558
952.30 0.09526
952.40 0.09494
952.50 0.09462
952.60 0.0943
952.70 0.09398
952.80 0.09366
952.90 0.0934
953.00 0.09314
953.10 0.09288
953.20 0.09262
953.30 0.09236
953.40 0.0921
953.50 0.09184
953.60 0.09177
953.70 0.0917
953.80 0.09162
953.90 0.09155
954.00 0.09198
954.10 0.09241
954.20 0.09346
954.30 0.09442
954.40 0.09312
954.50 0.09206
954.60 0.0916
954.70 0.09115
954.80 0.09118
954.90 0.0912
955.00 0.09122
955.10 0.09125
955.20 0.09145
955.30 0.09164
955.40 0.09184
955.50 0.09203
955.60 0.09223
955.70 0.09242
955.80 0.09262
955.90 0.09287
956.00 0.09312
956.10 0.09337
956.20 0.09362
956.30 0.09387
956.40 0.09412
956.50 0.09436
956.60 0.09461
956.70 0.09486
956.80 0.09511
956.90 0.09536
957.00 0.09561
957.10 0.09586
957.20 0.09611
957.30 0.09636
957.40 0.09658
957.50 0.09681
957.60 0.09704
957.70 0.09726
957.80 0.09749
957.90 0.09771
958.00 0.09794
958.10 0.09817
958.20 0.09839
958.30 0.09862
958.40 0.09884
958.50 0.09907
958.60 0.09929
958.70 0.09952
958.80 0.09974
958.90 0.09997
959.00 0.1002
959.10 0.1004
959.20 0.1006
959.30 0.1009
959.40 0.101
959.50 0.1012
959.60 0.1014
959.70 0.1015
959.80 0.1017
959.90 0.1019
960.00 0.1021
960.10 0.1022
960.20 0.1024
960.30 0.1026
960.40 0.1027
960.50 0.1029
960.60 0.1031
960.70 0.1033
960.80 0.1034
960.90 0.1036
961.00 0.1038
961.10 0.1039
961.20 0.1041
961.30 0.1043
961.40 0.1044
961.50 0.1045
961.60 0.1047
961.70 0.1048
961.80 0.1049
961.90 0.1051
962.00 0.1052
962.10 0.1053
962.20 0.1054
962.30 0.1055
962.40 0.1056
962.50 0.1057
962.60 0.1059
962.70 0.106
962.80 0.1061
962.90 0.1062
963.00 0.1063
963.10 0.1064
963.20 0.1065
963.30 0.1066
963.40 0.1067
963.50 0.1068
963.60 0.1069
963.70 0.107
963.80 0.107
963.90 0.1071
964.00 0.1072
964.10 0.1073
964.20 0.1074
964.30 0.1075
964.40 0.1075
964.50 0.1076
964.60 0.1076
964.70 0.1077
964.80 0.1077
964.90 0.1078
965.00 0.1078
965.10 0.1079
965.20 0.108
965.30 0.108
965.40 0.1081
965.50 0.1081
965.60 0.1082
965.70 0.1082
965.80 0.1083
965.90 0.1084
966.00 0.1084
966.10 0.1085
966.20 0.1085
966.30 0.1086
966.40 0.1086
966.50 0.1087
966.60 0.1087
966.70 0.1087
966.80 0.1088
966.90 0.1088
967.00 0.1088
967.10 0.1089
967.20 0.1089
967.30 0.1089
967.40 0.1089
967.50 0.109
967.60 0.109
967.70 0.109
967.80 0.109
967.90 0.109
968.00 0.1091
968.10 0.1091
968.20 0.1091
968.30 0.1091
968.40 0.1091
968.50 0.1092
968.60 0.1092
968.70 0.1092
968.80 0.1092
968.90 0.1092
969.00 0.1092
969.10 0.1092
969.20 0.1092
969.30 0.1092
969.40 0.1092
969.50 0.1092
969.60 0.1092
969.70 0.1092
969.80 0.1093
969.90 0.1093
970.00 0.1093
970.10 0.1093
970.20 0.1093
970.30 0.1093
970.40 0.1093
970.50 0.1093
970.60 0.1093
970.70 0.1093
970.80 0.1093
970.90 0.1092
971.00 0.1092
971.10 0.1092
971.20 0.1092
971.30 0.1092
971.40 0.1092
971.50 0.1092
971.60 0.1092
971.70 0.1092
971.80 0.1092
971.90 0.1092
972.00 0.1092
972.10 0.1092
972.20 0.1091
972.30 0.1091
972.40 0.1091
972.50 0.1091
972.60 0.1091
972.70 0.109
972.80 0.109
972.90 0.109
973.00 0.109
973.10 0.109
973.20 0.109
973.30 0.1089
973.40 0.1089
973.50 0.1089
973.60 0.1089
973.70 0.1089
973.80 0.1088
973.90 0.1088
974.00 0.1088
974.10 0.1088
974.20 0.1088
974.30 0.1088
974.40 0.1087
974.50 0.1087
974.60 0.1087
974.70 0.1086
974.80 0.1086
974.90 0.1086
975.00 0.1086
975.10 0.1085
975.20 0.1085
975.30 0.1085
975.40 0.1084
975.50 0.1084
975.60 0.1084
975.70 0.1084
975.80 0.1083
975.90 0.1083
976.00 0.1083
976.10 0.1082
976.20 0.1082
976.30 0.1082
976.40 0.1082
976.50 0.1081
976.60 0.1081
976.70 0.1081
976.80 0.108
976.90 0.108
977.00 0.108
977.10 0.1079
977.20 0.1079
977.30 0.1079
977.40 0.1078
977.50 0.1078
977.60 0.1077
977.70 0.1077
977.80 0.1077
977.90 0.1076
978.00 0.1076
978.10 0.1075
978.20 0.1075
978.30 0.1075
978.40 0.1074
978.50 0.1074
978.60 0.1073
978.70 0.1073
978.80 0.1073
978.90 0.1072
979.00 0.1072
979.10 0.1071
979.20 0.1071
979.30 0.107
979.40 0.107
979.50 0.107
979.60 0.1069
979.70 0.1069
979.80 0.1068
979.90 0.1068
980.00 0.1068
980.10 0.1067
980.20 0.1067
980.30 0.1066
980.40 0.1066
980.50 0.1066
980.60 0.1065
980.70 0.1065
980.80 0.1064
980.90 0.1064
981.00 0.1064
981.10 0.1063
981.20 0.1063
981.30 0.1062
981.40 0.1062
981.50 0.1062
981.60 0.1061
981.70 0.1061
981.80 0.106
981.90 0.106
982.00 0.106
982.10 0.1059
982.20 0.1058
982.30 0.1058
982.40 0.1057
982.50 0.1057
982.60 0.1056
982.70 0.1056
982.80 0.1055
982.90 0.1055
983.00 0.1054
983.10 0.1054
983.20 0.1053
983.30 0.1053
983.40 0.1052
983.50 0.1052
983.60 0.1051
983.70 0.1051
983.80 0.105
983.90 0.1049
984.00 0.1049
984.10 0.1048
984.20 0.1048
984.30 0.1047
984.40 0.1047
984.50 0.1046
984.60 0.1046
984.70 0.1045
984.80 0.1044
984.90 0.1044
985.00 0.1043
985.10 0.1043
985.20 0.1042
985.30 0.1041
985.40 0.1041
985.50 0.104
985.60 0.1039
985.70 0.1039
985.80 0.1038
985.90 0.1037
986.00 0.1037
986.10 0.1036
986.20 0.1036
986.30 0.1035
986.40 0.1034
986.50 0.1034
986.60 0.1033
986.70 0.1032
986.80 0.1032
986.90 0.1031
987.00 0.1031
987.10 0.103
987.20 0.1029
987.30 0.1028
987.40 0.1028
987.50 0.1027
987.60 0.1026
987.70 0.1025
987.80 0.1025
987.90 0.1024
988.00 0.1023
988.10 0.1022
988.20 0.1022
988.30 0.1021
988.40 0.102
988.50 0.1019
988.60 0.1019
988.70 0.1018
988.80 0.1017
988.90 0.1016
989.00 0.1015
989.10 0.1014
989.20 0.1013
989.30 0.1012
989.40 0.1012
989.50 0.1011
989.60 0.101
989.70 0.1009
989.80 0.1008
989.90 0.1007
990.00 0.1006
990.10 0.1005
990.20 0.1004
990.30 0.1004
990.40 0.1003
990.50 0.1002
990.60 0.1001
990.70 0.1
990.80 0.09989
990.90 0.09979
991.00 0.09969
991.10 0.09958
991.20 0.09948
991.30 0.09938
991.40 0.09927
991.50 0.09917
991.60 0.09907
991.70 0.09896
991.80 0.09886
991.90 0.09876
992.00 0.09865
992.10 0.09854
992.20 0.09843
992.30 0.09831
992.40 0.0982
992.50 0.09808
992.60 0.09797
992.70 0.09784
992.80 0.09771
992.90 0.09758
993.00 0.09745
993.10 0.09731
993.20 0.09718
993.30 0.09705
993.40 0.09692
993.50 0.09678
993.60 0.09665
993.70 0.09652
993.80 0.09639
993.90 0.09626
994.00 0.09613
994.10 0.09599
994.20 0.09586
994.30 0.09573
994.40 0.0956
994.50 0.09547
994.60 0.09534
994.70 0.09519
994.80 0.09503
994.90 0.09488
995.00 0.09472
995.10 0.09457
995.20 0.09442
995.30 0.09426
995.40 0.09411
995.50 0.09395
995.60 0.0938
995.70 0.09363
995.80 0.09346
995.90 0.09328
996.00 0.09311
996.10 0.09293
996.20 0.09276
996.30 0.09258
996.40 0.09241
996.50 0.09223
996.60 0.09206
996.70 0.09188
996.80 0.09171
996.90 0.09153
997.00 0.09136
997.10 0.09116
997.20 0.09097
997.30 0.09078
997.40 0.09058
997.50 0.09039
997.60 0.09019
997.70 0.08998
997.80 0.08975
997.90 0.08953
998.00 0.08931
998.10 0.08909
998.20 0.08886
998.30 0.08864
998.40 0.08842
998.50 0.0882
998.60 0.08798
998.70 0.08775
998.80 0.08753
998.90 0.08731
999.00 0.08709
999.10 0.08687
999.20 0.08665
999.30 0.08643
999.40 0.0862
999.50 0.08598
999.60 0.08576
999.70 0.08551
999.80 0.08524
999.90 0.08497
1000.00 0.08471
1000.10 0.08444
1000.20 0.08418
1000.30 0.08391
1000.40 0.08364
1000.50 0.08338
1000.60 0.08311
1000.70 0.08285
1000.80 0.08258
1000.90 0.08231
1001.00 0.08205
1001.10 0.08178
1001.20 0.08152
1001.30 0.08125
1001.40 0.08099
1001.50 0.08072
1001.60 0.08046
1001.70 0.08018
1001.80 0.07988
1001.90 0.07959
1002.00 0.0793
1002.10 0.079
1002.20 0.07869
1002.30 0.07839
1002.40 0.07808
1002.50 0.07778
1002.60 0.07747
1002.70 0.07717
1002.80 0.07686
1002.90 0.07656
1003.00 0.07625
1003.10 0.07595
1003.20 0.07563
1003.30 0.07531
1003.40 0.07499
1003.50 0.07468
1003.60 0.07436
1003.70 0.07404
1003.80 0.07372
1003.90 0.07341
1004.00 0.07311
1004.10 0.07281
1004.20 0.0725
1004.30 0.07232
1004.40 0.07218
1004.50 0.07229
1004.60 0.07317
1004.70 0.07258
1004.80 0.07205
1004.90 0.07213
1005.00 0.07223
1005.10 0.07244
1005.20 0.0727
1005.30 0.07295
1005.40 0.07321
1005.50 0.07347
1005.60 0.07374
1005.70 0.07401
1005.80 0.07428
1005.90 0.07454
1006.00 0.07481
1006.10 0.07508
1006.20 0.07534
1006.30 0.07559
1006.40 0.07584
1006.50 0.07609
1006.60 0.07635
1006.70 0.0766
1006.80 0.07685
1006.90 0.0771
1007.00 0.07735
1007.10 0.07759
1007.20 0.07782
1007.30 0.07806
1007.40 0.07829
1007.50 0.07853
1007.60 0.07876
1007.70 0.07897
1007.80 0.07917
1007.90 0.07938
1008.00 0.07958
1008.10 0.07978
1008.20 0.07999
1008.30 0.08019
1008.40 0.08039
1008.50 0.08059
1008.60 0.0808
1008.70 0.081
1008.80 0.0812
1008.90 0.0814
1009.00 0.0816
1009.10 0.08181
1009.20 0.08201
1009.30 0.08221
1009.40 0.08241
1009.50 0.08261
1009.60 0.08281
1009.70 0.08298
1009.80 0.08313
1009.90 0.08329
1010.00 0.08344
1010.10 0.08359
1010.20 0.08375
1010.30 0.0839
1010.40 0.08405
1010.50 0.08421
1010.60 0.08436
1010.70 0.08451
1010.80 0.08467
1010.90 0.08482
1011.00 0.08497
1011.10 0.08513
1011.20 0.08528
1011.30 0.08543
1011.40 0.08558
1011.50 0.08574
1011.60 0.08589
1011.70 0.08602
1011.80 0.08615
1011.90 0.08627
1012.00 0.0864
1012.10 0.0865
1012.20 0.08661
1012.30 0.08671
1012.40 0.08682
1012.50 0.08692
1012.60 0.08703
1012.70 0.08714
1012.80 0.08724
1012.90 0.08735
1013.00 0.08745
1013.10 0.08756
1013.20 0.08766
1013.30 0.08777
1013.40 0.08787
1013.50 0.08798
1013.60 0.08808
1013.70 0.08817
1013.80 0.08825
1013.90 0.08833
1014.00 0.08842
1014.10 0.0885
1014.20 0.08858
1014.30 0.08866
1014.40 0.08874
1014.50 0.08882
1014.60 0.0889
1014.70 0.08897
1014.80 0.08903
1014.90 0.08909
1015.00 0.08914
1015.10 0.0892
1015.20 0.08926
1015.30 0.08932
1015.40 0.08938
1015.50 0.08944
1015.60 0.0895
1015.70 0.08956
1015.80 0.08961
1015.90 0.08967
1016.00 0.08973
1016.10 0.08979
1016.20 0.08985
1016.30 0.08991
1016.40 0.08997
1016.50 0.09002
1016.60 0.09008
1016.70 0.09013
1016.80 0.09017
1016.90 0.09021
1017.00 0.09025
1017.10 0.09029
1017.20 0.09032
1017.30 0.09035
1017.40 0.09038
1017.50 0.09041
1017.60 0.09045
1017.70 0.09048
1017.80 0.09051
1017.90 0.09054
1018.00 0.09057
1018.10 0.09061
1018.20 0.09064
1018.30 0.09067
1018.40 0.0907
1018.50 0.09073
1018.60 0.09076
1018.70 0.09078
1018.80 0.0908
1018.90 0.09082
1019.00 0.09083
1019.10 0.09085
1019.20 0.09086
1019.30 0.09088
1019.40 0.0909
1019.50 0.09091
1019.60 0.09093
1019.70 0.09094
1019.80 0.09096
1019.90 0.09097
1020.00 0.09099
1020.10 0.09101
1020.20 0.09102
1020.30 0.09104
1020.40 0.09105
1020.50 0.09107
1020.60 0.09108
1020.70 0.09109
1020.80 0.0911
1020.90 0.0911
1021.00 0.09111
1021.10 0.09111
1021.20 0.09112
1021.30 0.09112
1021.40 0.09113
1021.50 0.09113
1021.60 0.09114
1021.70 0.09114
1021.80 0.09114
1021.90 0.09115
1022.00 0.09115
1022.10 0.09115
1022.20 0.09114
1022.30 0.09114
1022.40 0.09113
1022.50 0.09113
1022.60 0.09112
1022.70 0.09112
1022.80 0.09111
1022.90 0.0911
1023.00 0.0911
1023.10 0.09109
1023.20 0.09109
1023.30 0.09108
1023.40 0.09108
1023.50 0.09107
1023.60 0.09107
1023.70 0.09106
1023.80 0.09106
1023.90 0.09105
1024.00 0.09104
1024.10 0.09104
1024.20 0.09103
1024.30 0.09103
1024.40 0.09102
1024.50 0.09102
1024.60 0.09101
1024.70 0.091
1024.80 0.09099
1024.90 0.09097
1025.00 0.09096
1025.10 0.09094
1025.20 0.09093
1025.30 0.09092
1025.40 0.0909
1025.50 0.09089
1025.60 0.09087
1025.70 0.09086
1025.80 0.09085
1025.90 0.09083
1026.00 0.09082
1026.10 0.09081
1026.20 0.09079
1026.30 0.09078
1026.40 0.09076
1026.50 0.09075
1026.60 0.09074
1026.70 0.09072
1026.80 0.09071
1026.90 0.09069
1027.00 0.09068
1027.10 0.09066
1027.20 0.09064
1027.30 0.09062
1027.40 0.09059
1027.50 0.09057
1027.60 0.09055
1027.70 0.09053
1027.80 0.09051
1027.90 0.09049
1028.00 0.09047
1028.10 0.09044
1028.20 0.09042
1028.30 0.0904
1028.40 0.09038
1028.50 0.09036
1028.60 0.09034
1028.70 0.09032
1028.80 0.09029
1028.90 0.09027
1029.00 0.09025
1029.10 0.09023
1029.20 0.09021
1029.30 0.09019
1029.40 0.09017
1029.50 0.09014
1029.60 0.09012
1029.70 0.0901
1029.80 0.09008
1029.90 0.09006
1030.00 0.09004
1030.10 0.09002
1030.20 0.08999
1030.30 0.08997
1030.40 0.08995
1030.50 0.08993
1030.60 0.08991
1030.70 0.08989
1030.80 0.08987
1030.90 0.08985
1031.00 0.08982
1031.10 0.0898
1031.20 0.08978
1031.30 0.08976
1031.40 0.08974
1031.50 0.08972
1031.60 0.0897
1031.70 0.08968
1031.80 0.08965
1031.90 0.08963
1032.00 0.08961
1032.10 0.08959
1032.20 0.08956
1032.30 0.08953
1032.40 0.08951
1032.50 0.08948
1032.60 0.08945
1032.70 0.08943
1032.80 0.0894
1032.90 0.08937
1033.00 0.08935
1033.10 0.08932
1033.20 0.08929
1033.30 0.08927
1033.40 0.08924
1033.50 0.08922
1033.60 0.08919
1033.70 0.08916
1033.80 0.08914
1033.90 0.08911
1034.00 0.08908
1034.10 0.08906
1034.20 0.08903
1034.30 0.089
1034.40 0.08898
1034.50 0.08895
1034.60 0.08893
1034.70 0.0889
1034.80 0.08887
1034.90 0.08885
1035.00 0.08882
1035.10 0.08879
1035.20 0.08877
1035.30 0.08874
1035.40 0.08872
1035.50 0.08869
1035.60 0.08866
1035.70 0.08864
1035.80 0.08861
1035.90 0.08858
1036.00 0.08856
1036.10 0.08853
1036.20 0.08851
1036.30 0.08848
1036.40 0.08845
1036.50 0.08843
1036.60 0.0884
1036.70 0.08838
1036.80 0.08835
1036.90 0.08832
1037.00 0.0883
1037.10 0.08827
1037.20 0.08824
1037.30 0.08821
1037.40 0.08818
1037.50 0.08815
1037.60 0.08813
1037.70 0.0881
1037.80 0.08807
1037.90 0.08804
1038.00 0.08801
1038.10 0.08798
1038.20 0.08795
1038.30 0.08793
1038.40 0.0879
1038.50 0.08787
1038.60 0.08784
1038.70 0.08781
1038.80 0.08778
1038.90 0.08775
1039.00 0.08773
1039.10 0.0877
1039.20 0.08767
1039.30 0.08764
1039.40 0.08761
1039.50 0.08758
1039.60 0.08756
1039.70 0.08753
1039.80 0.0875
1039.90 0.08747
1040.00 0.08744
1040.10 0.08741
1040.20 0.08739
1040.30 0.08736
1040.40 0.08733
1040.50 0.0873
1040.60 0.08727
1040.70 0.08724
1040.80 0.08722
1040.90 0.08719
1041.00 0.08716
1041.10 0.08713
1041.20 0.0871
1041.30 0.08707
1041.40 0.08705
1041.50 0.08702
1041.60 0.08699
1041.70 0.08696
1041.80 0.08693
1041.90 0.08691
1042.00 0.08688
1042.10 0.08685
1042.20 0.08682
1042.30 0.08679
1042.40 0.08676
1042.50 0.08673
1042.60 0.0867
1042.70 0.08667
1042.80 0.08664
1042.90 0.08661
1043.00 0.08658
1043.10 0.08655
1043.20 0.08652
1043.30 0.08649
1043.40 0.08646
1043.50 0.08643
1043.60 0.0864
1043.70 0.08638
1043.80 0.08635
1043.90 0.08632
1044.00 0.08629
1044.10 0.08626
1044.20 0.08623
1044.30 0.0862
1044.40 0.08617
1044.50 0.08614
1044.60 0.08611
1044.70 0.08608
1044.80 0.08605
1044.90 0.08602
1045.00 0.08599
1045.10 0.08596
1045.20 0.08593
1045.30 0.08591
1045.40 0.08588
1045.50 0.08585
1045.60 0.08582
1045.70 0.08579
1045.80 0.08576
1045.90 0.08573
1046.00 0.0857
1046.10 0.08567
1046.20 0.08564
1046.30 0.08561
1046.40 0.08558
1046.50 0.08556
1046.60 0.08553
1046.70 0.0855
1046.80 0.08547
1046.90 0.08544
1047.00 0.08541
1047.10 0.08538
1047.20 0.08535
1047.30 0.08532
1047.40 0.08529
1047.50 0.08526
1047.60 0.08523
1047.70 0.0852
1047.80 0.08517
1047.90 0.08514
1048.00 0.08511
1048.10 0.08508
1048.20 0.08505
1048.30 0.08502
1048.40 0.08499
1048.50 0.08496
1048.60 0.08493
1048.70 0.0849
1048.80 0.08487
1048.90 0.08484
1049.00 0.08481
1049.10 0.08478
1049.20 0.08475
1049.30 0.08472
1049.40 0.08469
1049.50 0.08466
1049.60 0.08463
1049.70 0.0846
1049.80 0.08457
1049.90 0.08454
1050.00 0.08451
1050.10 0.08448
1050.20 0.08445
1050.30 0.08442
1050.40 0.08439
1050.50 0.08436
1050.60 0.08433
1050.70 0.0843
1050.80 0.08427
1050.90 0.08425
1051.00 0.08422
1051.10 0.08419
1051.20 0.08416
1051.30 0.08413
1051.40 0.0841
1051.50 0.08407
1051.60 0.08404
1051.70 0.08401
1051.80 0.08398
1051.90 0.08395
1052.00 0.08392
1052.10 0.08389
1052.20 0.08386
1052.30 0.08383
1052.40 0.0838
1052.50 0.08377
1052.60 0.08374
1052.70 0.08371
1052.80 0.08368
1052.90 0.08365
1053.00 0.08362
1053.10 0.08358
1053.20 0.08355
1053.30 0.08352
1053.40 0.08349
1053.50 0.08346
1053.60 0.08343
1053.70 0.0834
1053.80 0.08337
1053.90 0.08334
1054.00 0.08331
1054.10 0.08328
1054.20 0.08325
1054.30 0.08322
1054.40 0.08319
1054.50 0.08316
1054.60 0.08313
1054.70 0.0831
1054.80 0.08307
1054.90 0.08304
1055.00 0.08301
1055.10 0.08298
1055.20 0.08295
1055.30 0.08292
1055.40 0.08289
1055.50 0.08286
1055.60 0.08283
1055.70 0.0828
1055.80 0.08277
1055.90 0.08274
1056.00 0.08271
1056.10 0.08268
1056.20 0.08265
1056.30 0.08262
1056.40 0.08259
1056.50 0.08256
1056.60 0.08253
1056.70 0.0825
1056.80 0.08247
1056.90 0.08244
1057.00 0.08241
1057.10 0.08238
1057.20 0.08235
1057.30 0.08231
1057.40 0.08228
1057.50 0.08225
1057.60 0.08222
1057.70 0.08219
1057.80 0.08216
1057.90 0.08213
1058.00 0.0821
1058.10 0.08206
1058.20 0.08203
1058.30 0.082
1058.40 0.08197
1058.50 0.08194
1058.60 0.08191
1058.70 0.08188
1058.80 0.08185
1058.90 0.08182
1059.00 0.08178
1059.10 0.08175
1059.20 0.08172
1059.30 0.08169
1059.40 0.08166
1059.50 0.08163
1059.60 0.0816
1059.70 0.08157
1059.80 0.08154
1059.90 0.08151
1060.00 0.08147
1060.10 0.08144
1060.20 0.08141
1060.30 0.08138
1060.40 0.08135
1060.50 0.08132
1060.60 0.08129
1060.70 0.08126
1060.80 0.08123
1060.90 0.0812
1061.00 0.08117
1061.10 0.08113
1061.20 0.0811
1061.30 0.08107
1061.40 0.08104
1061.50 0.08101
1061.60 0.08098
1061.70 0.08095
1061.80 0.08092
1061.90 0.08089
1062.00 0.08086
1062.10 0.08082
1062.20 0.08079
1062.30 0.08076
1062.40 0.08072
1062.50 0.08069
1062.60 0.08066
1062.70 0.08063
1062.80 0.08059
1062.90 0.08056
1063.00 0.08053
1063.10 0.08049
1063.20 0.08046
1063.30 0.08043
1063.40 0.08039
1063.50 0.08036
1063.60 0.08033
1063.70 0.0803
1063.80 0.08026
1063.90 0.08023
1064.00 0.0802
1064.10 0.08016
1064.20 0.08013
1064.30 0.0801
1064.40 0.08007
1064.50 0.08003
1064.60 0.08
1064.70 0.07997
1064.80 0.07993
1064.90 0.0799
1065.00 0.07987
1065.10 0.07984
1065.20 0.0798
1065.30 0.07977
1065.40 0.07974
1065.50 0.07971
1065.60 0.07967
1065.70 0.07964
1065.80 0.07961
1065.90 0.07957
1066.00 0.07954
1066.10 0.07951
1066.20 0.07948
1066.30 0.07944
1066.40 0.07941
1066.50 0.07938
1066.60 0.07935
1066.70 0.07931
1066.80 0.07928
1066.90 0.07925
1067.00 0.07922
1067.10 0.07918
1067.20 0.07914
1067.30 0.0791
1067.40 0.07907
1067.50 0.07903
1067.60 0.07899
1067.70 0.07895
1067.80 0.07891
1067.90 0.07888
1068.00 0.07884
1068.10 0.0788
1068.20 0.07876
1068.30 0.07873
1068.40 0.07869
1068.50 0.07865
1068.60 0.07861
1068.70 0.07858
1068.80 0.07854
1068.90 0.0785
1069.00 0.07846
1069.10 0.07843
1069.20 0.07839
1069.30 0.07835
1069.40 0.07831
1069.50 0.07828
1069.60 0.07824
1069.70 0.0782
1069.80 0.07817
1069.90 0.07813
1070.00 0.07809
1070.10 0.07805
1070.20 0.07802
1070.30 0.07798
1070.40 0.07794
1070.50 0.0779
1070.60 0.07787
1070.70 0.07783
1070.80 0.07779
1070.90 0.07776
1071.00 0.07772
1071.10 0.07768
1071.20 0.07764
1071.30 0.07761
1071.40 0.07757
1071.50 0.07753
1071.60 0.0775
1071.70 0.07746
1071.80 0.07742
1071.90 0.07738
1072.00 0.07735
1072.10 0.07731
1072.20 0.07726
1072.30 0.07722
1072.40 0.07718
1072.50 0.07714
1072.60 0.0771
1072.70 0.07706
1072.80 0.07701
1072.90 0.07697
1073.00 0.07693
1073.10 0.07689
1073.20 0.07685
1073.30 0.07681
1073.40 0.07677
1073.50 0.07672
1073.60 0.07667
1073.70 0.07662
1073.80 0.07657
1073.90 0.07652
1074.00 0.07647
1074.10 0.07642
1074.20 0.07637
1074.30 0.07632
1074.40 0.07627
1074.50 0.07622
1074.60 0.07617
1074.70 0.07612
1074.80 0.07607
1074.90 0.07602
1075.00 0.07597
1075.10 0.07592
1075.20 0.07587
1075.30 0.07582
1075.40 0.07577
1075.50 0.07572
1075.60 0.07567
1075.70 0.07562
1075.80 0.07558
1075.90 0.07553
1076.00 0.07548
1076.10 0.07543
1076.20 0.07538
1076.30 0.07533
1076.40 0.07528
1076.50 0.07523
1076.60 0.07518
1076.70 0.07513
1076.80 0.07508
1076.90 0.07503
1077.00 0.07498
1077.10 0.07493
1077.20 0.07487
1077.30 0.07481
1077.40 0.07476
1077.50 0.0747
1077.60 0.07464
1077.70 0.07458
1077.80 0.07451
1077.90 0.07445
1078.00 0.07439
1078.10 0.07432
1078.20 0.07426
1078.30 0.0742
1078.40 0.07414
1078.50 0.07407
1078.60 0.07401
1078.70 0.07395
1078.80 0.07389
1078.90 0.07382
1079.00 0.07376
1079.10 0.0737
1079.20 0.07364
1079.30 0.07357
1079.40 0.07351
1079.50 0.07344
1079.60 0.07337
1079.70 0.07329
1079.80 0.07322
1079.90 0.07314
1080.00 0.07307
1080.10 0.07299
1080.20 0.07292
1080.30 0.07284
1080.40 0.07277
1080.50 0.07269
1080.60 0.07262
1080.70 0.07254
1080.80 0.07247
1080.90 0.07239
1081.00 0.07232
1081.10 0.07224
1081.20 0.07217
1081.30 0.07209
1081.40 0.07202
1081.50 0.07194
1081.60 0.07185
1081.70 0.07177
1081.80 0.07168
1081.90 0.07159
1082.00 0.07151
1082.10 0.07141
1082.20 0.07132
1082.30 0.07122
1082.40 0.07113
1082.50 0.07104
1082.60 0.07094
1082.70 0.07085
1082.80 0.07076
1082.90 0.07066
1083.00 0.07057
1083.10 0.07047
1083.20 0.07038
1083.30 0.07029
1083.40 0.07019
1083.50 0.0701
1083.60 0.06999
1083.70 0.06988
1083.80 0.06977
1083.90 0.06967
1084.00 0.06956
1084.10 0.06945
1084.20 0.06935
1084.30 0.06924
1084.40 0.06913
1084.50 0.06902
1084.60 0.0689
1084.70 0.06877
1084.80 0.06865
1084.90 0.06852
1085.00 0.0684
1085.10 0.06827
1085.20 0.06815
1085.30 0.06802
1085.40 0.0679
1085.50 0.06777
1085.60 0.06765
1085.70 0.06752
1085.80 0.0674
1085.90 0.06727
1086.00 0.06715
1086.10 0.06702
1086.20 0.0669
1086.30 0.06677
1086.40 0.06665
1086.50 0.06652
1086.60 0.06638
1086.70 0.06623
1086.80 0.06609
1086.90 0.06595
1087.00 0.06581
1087.10 0.06565
1087.20 0.06549
1087.30 0.06533
1087.40 0.06517
1087.50 0.06502
1087.60 0.06486
1087.70 0.0647
1087.80 0.06454
1087.90 0.06439
1088.00 0.06423
1088.10 0.06407
1088.20 0.06392
1088.30 0.06376
1088.40 0.0636
1088.50 0.06343
1088.60 0.06325
1088.70 0.06306
1088.80 0.06287
1088.90 0.06268
1089.00 0.0625
1089.10 0.06231
1089.20 0.06212
1089.30 0.06194
1089.40 0.06175
1089.50 0.06156
1089.60 0.06138
1089.70 0.06119
1089.80 0.061
1089.90 0.06082
1090.00 0.06063
1090.10 0.06044
1090.20 0.06026
1090.30 0.06007
1090.40 0.05988
1090.50 0.05968
1090.60 0.05946
1090.70 0.05924
1090.80 0.05901
1090.90 0.05879
1091.00 0.05857
1091.10 0.05834
1091.20 0.05812
1091.30 0.0579
1091.40 0.05767
1091.50 0.05745
1091.60 0.05723
1091.70 0.05701
1091.80 0.05678
1091.90 0.05656
1092.00 0.05633
1092.10 0.05605
1092.20 0.05578
1092.30 0.0555
1092.40 0.05522
1092.50 0.05494
1092.60 0.05467
1092.70 0.05437
1092.80 0.05401
1092.90 0.05366
1093.00 0.0533
1093.10 0.05293
1093.20 0.05254
1093.30 0.05216
1093.40 0.05208
1093.50 0.05223
1093.60 0.05203
1093.70 0.05232
1093.80 0.05269
1093.90 0.05304
1094.00 0.05336
1094.10 0.05368
1094.20 0.054
1094.30 0.05429
1094.40 0.05453
1094.50 0.05477
1094.60 0.05501
1094.70 0.05525
1094.80 0.05549
1094.90 0.05573
1095.00 0.05596
1095.10 0.05614
1095.20 0.05632
1095.30 0.05651
1095.40 0.05669
1095.50 0.05688
1095.60 0.05706
1095.70 0.05724
1095.80 0.05743
1095.90 0.05761
1096.00 0.05779
1096.10 0.05798
1096.20 0.05816
1096.30 0.05835
1096.40 0.05853
1096.50 0.0587
1096.60 0.05886
1096.70 0.05902
1096.80 0.05918
1096.90 0.05933
1097.00 0.05949
1097.10 0.05963
1097.20 0.05977
1097.30 0.05991
1097.40 0.06004
1097.50 0.06018
1097.60 0.06032
1097.70 0.06046
1097.80 0.06059
1097.90 0.06073
1098.00 0.06087
1098.10 0.06101
1098.20 0.06114
1098.30 0.06128
1098.40 0.06142
1098.50 0.06155
1098.60 0.06165
1098.70 0.06176
1098.80 0.06187
1098.90 0.06197
1099.00 0.06208
1099.10 0.06219
1099.20 0.06229
1099.30 0.0624
1099.40 0.06251
1099.50 0.06261
1099.60 0.06272
1099.70 0.06282
1099.80 0.06293
1099.90 0.06304
1100.00 0.06314
1100.10 0.06325
1100.20 0.06336
1100.30 0.06346
1100.40 0.06357
1100.50 0.06367
1100.60 0.06374
1100.70 0.06382
1100.80 0.0639
1100.90 0.06398
1101.00 0.06406
1101.10 0.06414
1101.20 0.06422
1101.30 0.0643
1101.40 0.06437
1101.50 0.06445
1101.60 0.06453
1101.70 0.06461
1101.80 0.06469
1101.90 0.06477
1102.00 0.06485
1102.10 0.06491
1102.20 0.06497
1102.30 0.06504
1102.40 0.0651
1102.50 0.06516
1102.60 0.06522
1102.70 0.06527
1102.80 0.06533
1102.90 0.06539
1103.00 0.06544
1103.10 0.0655
1103.20 0.06555
1103.30 0.06561
1103.40 0.06567
1103.50 0.06572
1103.60 0.06576
1103.70 0.0658
1103.80 0.06584
1103.90 0.06588
1104.00 0.06592
1104.10 0.06596
1104.20 0.066
1104.30 0.06604
1104.40 0.06608
1104.50 0.06612
1104.60 0.06616
1104.70 0.06621
1104.80 0.06625
1104.90 0.06629
1105.00 0.06633
1105.10 0.06637
1105.20 0.06641
1105.30 0.06645
1105.40 0.06649
1105.50 0.06653
1105.60 0.06655
1105.70 0.06658
1105.80 0.0666
1105.90 0.06663
1106.00 0.06665
1106.10 0.06668
1106.20 0.0667
1106.30 0.06673
1106.40 0.06675
1106.50 0.06678
1106.60 0.0668
1106.70 0.06683
1106.80 0.06685
1106.90 0.06688
1107.00 0.0669
1107.10 0.06692
1107.20 0.06694
1107.30 0.06695
1107.40 0.06697
1107.50 0.06698
1107.60 0.06699
1107.70 0.06701
1107.80 0.06702
1107.90 0.06703
1108.00 0.06704
1108.10 0.06705
1108.20 0.06706
1108.30 0.06707
1108.40 0.06708
1108.50 0.06709
1108.60 0.06711
1108.70 0.06712
1108.80 0.06713
1108.90 0.06714
1109.00 0.06715
1109.10 0.06716
1109.20 0.06717
1109.30 0.06718
1109.40 0.06719
1109.50 0.0672
1109.60 0.0672
1109.70 0.0672
1109.80 0.0672
1109.90 0.06721
1110.00 0.06721
1110.10 0.06721
1110.20 0.06721
1110.30 0.06721
1110.40 0.06721
1110.50 0.06721
1110.60 0.06721
1110.70 0.06721
1110.80 0.06721
1110.90 0.06721
1111.00 0.06722
1111.10 0.06722
1111.20 0.06722
1111.30 0.06722
1111.40 0.06722
1111.50 0.06722
1111.60 0.06722
1111.70 0.06722
1111.80 0.06722
1111.90 0.06722
1112.00 0.06723
1112.10 0.06722
1112.20 0.06721
1112.30 0.06721
1112.40 0.0672
1112.50 0.0672
1112.60 0.06719
1112.70 0.06718
1112.80 0.06718
1112.90 0.06717
1113.00 0.06717
1113.10 0.06716
1113.20 0.06715
1113.30 0.06715
1113.40 0.06714
1113.50 0.06714
1113.60 0.06713
1113.70 0.06712
1113.80 0.06711
1113.90 0.06709
1114.00 0.06708
1114.10 0.06707
1114.20 0.06706
1114.30 0.06705
1114.40 0.06704
1114.50 0.06703
1114.60 0.06702
1114.70 0.06701
1114.80 0.067
1114.90 0.06699
1115.00 0.06698
1115.10 0.06697
1115.20 0.06696
1115.30 0.06695
1115.40 0.06694
1115.50 0.06693
1115.60 0.06692
1115.70 0.06691
1115.80 0.0669
1115.90 0.06689
1116.00 0.06688
1116.10 0.06687
1116.20 0.06686
1116.30 0.06685
1116.40 0.06684
1116.50 0.06683
1116.60 0.06682
1116.70 0.06681
1116.80 0.0668
1116.90 0.06679
1117.00 0.06678
1117.10 0.06677
1117.20 0.06675
1117.30 0.06674
1117.40 0.06672
1117.50 0.0667
1117.60 0.06669
1117.70 0.06667
1117.80 0.06666
1117.90 0.06664
1118.00 0.06663
1118.10 0.06661
1118.20 0.0666
1118.30 0.06658
1118.40 0.06656
1118.50 0.06655
1118.60 0.06653
1118.70 0.06652
1118.80 0.0665
1118.90 0.06649
1119.00 0.06647
1119.10 0.06645
1119.20 0.06644
1119.30 0.06642
1119.40 0.06641
1119.50 0.06639
1119.60 0.06638
1119.70 0.06636
1119.80 0.06635
1119.90 0.06633
1120.00 0.06631
1120.10 0.0663
1120.20 0.06628
1120.30 0.06627
1120.40 0.06625
1120.50 0.06624
1120.60 0.06622
1120.70 0.0662
1120.80 0.06619
1120.90 0.06617
1121.00 0.06616
1121.10 0.06614
1121.20 0.06613
1121.30 0.06611
1121.40 0.0661
1121.50 0.06608
1121.60 0.06607
1121.70 0.06605
1121.80 0.06603
1121.90 0.06602
1122.00 0.066
1122.10 0.06598
1122.20 0.06597
1122.30 0.06595
1122.40 0.06593
1122.50 0.06591
1122.60 0.06589
1122.70 0.06587
1122.80 0.06586
1122.90 0.06584
1123.00 0.06582
1123.10 0.0658
1123.20 0.06578
1123.30 0.06576
1123.40 0.06575
1123.50 0.06573
1123.60 0.06571
1123.70 0.06569
1123.80 0.06567
1123.90 0.06566
1124.00 0.06564
1124.10 0.06562
1124.20 0.0656
1124.30 0.06558
1124.40 0.06556
1124.50 0.06555
1124.60 0.06553
1124.70 0.06551
1124.80 0.06549
1124.90 0.06547
1125.00 0.06545
1125.10 0.06544
1125.20 0.06542
1125.30 0.0654
1125.40 0.06538
1125.50 0.06536
1125.60 0.06535
1125.70 0.06533
1125.80 0.06531
1125.90 0.06529
1126.00 0.06527
1126.10 0.06525
1126.20 0.06524
1126.30 0.06522
1126.40 0.0652
1126.50 0.06518
1126.60 0.06516
1126.70 0.06515
1126.80 0.06513
1126.90 0.06511
1127.00 0.06509
1127.10 0.06507
1127.20 0.06505
1127.30 0.06503
1127.40 0.06501
1127.50 0.06499
1127.60 0.06497
1127.70 0.06496
1127.80 0.06494
1127.90 0.06492
1128.00 0.0649
1128.10 0.06488
1128.20 0.06486
1128.30 0.06484
1128.40 0.06482
1128.50 0.0648
1128.60 0.06478
1128.70 0.06476
1128.80 0.06474
1128.90 0.06472
1129.00 0.0647
1129.10 0.06468
1129.20 0.06467
1129.30 0.06465
1129.40 0.06463
1129.50 0.06461
1129.60 0.06459
1129.70 0.06457
1129.80 0.06455
1129.90 0.06453
1130.00 0.06451
1130.10 0.06449
1130.20 0.06447
1130.30 0.06445
1130.40 0.06443
1130.50 0.06442
1130.60 0.0644
1130.70 0.06438
1130.80 0.06436
1130.90 0.06434
1131.00 0.06432
1131.10 0.0643
1131.20 0.06428
1131.30 0.06426
1131.40 0.06424
1131.50 0.06422
1131.60 0.0642
1131.70 0.06419
1131.80 0.06417
1131.90 0.06415
1132.00 0.06413
1132.10 0.06411
1132.20 0.06409
1132.30 0.06407
1132.40 0.06405
1132.50 0.06403
1132.60 0.06401
1132.70 0.06399
1132.80 0.06397
1132.90 0.06395
1133.00 0.06393
1133.10 0.06391
1133.20 0.06389
1133.30 0.06387
1133.40 0.06385
1133.50 0.06383
1133.60 0.06381
1133.70 0.06379
1133.80 0.06377
1133.90 0.06375
1134.00 0.06373
1134.10 0.06371
1134.20 0.06369
1134.30 0.06367
1134.40 0.06366
1134.50 0.06364
1134.60 0.06362
1134.70 0.0636
1134.80 0.06358
1134.90 0.06356
1135.00 0.06354
1135.10 0.06352
1135.20 0.0635
1135.30 0.06348
1135.40 0.06346
1135.50 0.06344
1135.60 0.06342
1135.70 0.0634
1135.80 0.06338
1135.90 0.06336
1136.00 0.06334
1136.10 0.06332
1136.20 0.0633
1136.30 0.06328
1136.40 0.06326
1136.50 0.06324
1136.60 0.06322
1136.70 0.06321
1136.80 0.06319
1136.90 0.06317
1137.00 0.06315
1137.10 0.06313
1137.20 0.06311
1137.30 0.06309
1137.40 0.06307
1137.50 0.06305
1137.60 0.06303
1137.70 0.06301
1137.80 0.06299
1137.90 0.06297
1138.00 0.06295
1138.10 0.06293
1138.20 0.06291
1138.30 0.06289
1138.40 0.06287
1138.50 0.06285
1138.60 0.06283
1138.70 0.06281
1138.80 0.06279
1138.90 0.06277
1139.00 0.06275
1139.10 0.06273
1139.20 0.06271
1139.30 0.06269
1139.40 0.06267
1139.50 0.06265
1139.60 0.06263
1139.70 0.06261
1139.80 0.0626
1139.90 0.06258
1140.00 0.06256
1140.10 0.06254
1140.20 0.06252
1140.30 0.0625
1140.40 0.06248
1140.50 0.06246
1140.60 0.06244
1140.70 0.06242
1140.80 0.0624
1140.90 0.06238
1141.00 0.06236
1141.10 0.06234
1141.20 0.06232
1141.30 0.0623
1141.40 0.06228
1141.50 0.06226
1141.60 0.06224
1141.70 0.06222
1141.80 0.0622
1141.90 0.06218
1142.00 0.06217
1142.10 0.06215
1142.20 0.06213
1142.30 0.06211
1142.40 0.06209
1142.50 0.06207
1142.60 0.06205
1142.70 0.06203
1142.80 0.06201
1142.90 0.06199
1143.00 0.06197
1143.10 0.06195
1143.20 0.06193
1143.30 0.06191
1143.40 0.06189
1143.50 0.06187
1143.60 0.06185
1143.70 0.06183
1143.80 0.06181
1143.90 0.06179
1144.00 0.06177
1144.10 0.06175
1144.20 0.06174
1144.30 0.06172
1144.40 0.0617
1144.50 0.06168
1144.60 0.06166
1144.70 0.06164
1144.80 0.06162
1144.90 0.0616
1145.00 0.06158
1145.10 0.06156
1145.20 0.06154
1145.30 0.06152
1145.40 0.0615
1145.50 0.06148
1145.60 0.06146
1145.70 0.06144
1145.80 0.06142
1145.90 0.0614
1146.00 0.06139
1146.10 0.06137
1146.20 0.06135
1146.30 0.06133
1146.40 0.06131
1146.50 0.06129
1146.60 0.06127
1146.70 0.06125
1146.80 0.06123
1146.90 0.06121
1147.00 0.06119
1147.10 0.06117
1147.20 0.06115
1147.30 0.06113
1147.40 0.06111
1147.50 0.06109
1147.60 0.06108
1147.70 0.06106
1147.80 0.06104
1147.90 0.06102
1148.00 0.061
1148.10 0.06098
1148.20 0.06096
1148.30 0.06094
1148.40 0.06092
1148.50 0.0609
1148.60 0.06088
1148.70 0.06086
1148.80 0.06084
1148.90 0.06082
1149.00 0.0608
1149.10 0.06079
1149.20 0.06077
1149.30 0.06075
1149.40 0.06073
1149.50 0.06071
1149.60 0.06069
1149.70 0.06067
1149.80 0.06065
1149.90 0.06063
1150.00 0.06061
1150.10 0.06059
1150.20 0.06057
1150.30 0.06055
1150.40 0.06054
1150.50 0.06052
1150.60 0.0605
1150.70 0.06048
1150.80 0.06046
1150.90 0.06044
1151.00 0.06042
1151.10 0.0604
1151.20 0.06038
1151.30 0.06036
1151.40 0.06034
1151.50 0.06032
1151.60 0.06031
1151.70 0.06029
1151.80 0.06027
1151.90 0.06025
1152.00 0.06023
1152.10 0.06021
1152.20 0.06019
1152.30 0.06017
1152.40 0.06015
1152.50 0.06013
1152.60 0.06011
1152.70 0.06009
1152.80 0.06008
1152.90 0.06006
1153.00 0.06004
1153.10 0.06002
1153.20 0.06
1153.30 0.05998
1153.40 0.05996
1153.50 0.05994
1153.60 0.05992
1153.70 0.0599
1153.80 0.05989
1153.90 0.05987
1154.00 0.05985
1154.10 0.05983
1154.20 0.05981
1154.30 0.05979
1154.40 0.05977
1154.50 0.05975
1154.60 0.05973
1154.70 0.05971
1154.80 0.0597
1154.90 0.05968
1155.00 0.05966
1155.10 0.05964
1155.20 0.05962
1155.30 0.0596
1155.40 0.05958
1155.50 0.05956
1155.60 0.05954
1155.70 0.05953
1155.80 0.05951
1155.90 0.05949
1156.00 0.05947
1156.10 0.05945
1156.20 0.05943
1156.30 0.05941
1156.40 0.05939
1156.50 0.05937
1156.60 0.05936
1156.70 0.05934
1156.80 0.05932
1156.90 0.0593
1157.00 0.05928
1157.10 0.05926
1157.20 0.05924
1157.30 0.05922
1157.40 0.0592
1157.50 0.05919
1157.60 0.05917
1157.70 0.05915
1157.80 0.05913
1157.90 0.05911
1158.00 0.05909
1158.10 0.05907
1158.20 0.05905
1158.30 0.05904
1158.40 0.05902
1158.50 0.059
1158.60 0.05898
1158.70 0.05896
1158.80 0.05894
1158.90 0.05892
1159.00 0.0589
1159.10 0.05889
1159.20 0.05887
1159.30 0.05885
1159.40 0.05883
1159.50 0.05881
1159.60 0.05879
1159.70 0.05877
1159.80 0.05875
1159.90 0.05874
1160.00 0.05872
1160.10 0.0587
1160.20 0.05868
1160.30 0.05866
1160.40 0.05864
1160.50 0.05862
1160.60 0.05861
1160.70 0.05859
1160.80 0.05857
1160.90 0.05855
1161.00 0.05853
1161.10 0.05851
1161.20 0.05849
1161.30 0.05847
1161.40 0.05846
1161.50 0.05844
1161.60 0.05842
1161.70 0.0584
1161.80 0.05838
1161.90 0.05836
1162.00 0.05834
1162.10 0.05833
1162.20 0.05831
1162.30 0.05829
1162.40 0.05827
1162.50 0.05825
1162.60 0.05823
1162.70 0.05822
1162.80 0.0582
1162.90 0.05818
1163.00 0.05816
1163.10 0.05814
1163.20 0.05812
1163.30 0.0581
1163.40 0.05809
1163.50 0.05807
1163.60 0.05805
1163.70 0.05803
1163.80 0.05801
1163.90 0.05799
1164.00 0.05798
1164.10 0.05796
1164.20 0.05794
1164.30 0.05792
1164.40 0.0579
1164.50 0.05788
1164.60 0.05787
1164.70 0.05785
1164.80 0.05783
1164.90 0.05781
1165.00 0.05779
1165.10 0.05777
1165.20 0.05776
1165.30 0.05774
1165.40 0.05772
1165.50 0.0577
1165.60 0.05768
1165.70 0.05766
1165.80 0.05765
1165.90 0.05763
1166.00 0.05761
1166.10 0.05759
1166.20 0.05757
1166.30 0.05755
1166.40 0.05754
1166.50 0.05752
1166.60 0.0575
1166.70 0.05748
1166.80 0.05746
1166.90 0.05744
1167.00 0.05743
1167.10 0.05741
1167.20 0.05739
1167.30 0.05737
1167.40 0.05735
1167.50 0.05734
1167.60 0.05732
1167.70 0.0573
1167.80 0.05728
1167.90 0.05726
1168.00 0.05725
1168.10 0.05723
1168.20 0.05721
1168.30 0.05719
1168.40 0.05717
1168.50 0.05715
1168.60 0.05714
1168.70 0.05712
1168.80 0.0571
1168.90 0.05708
1169.00 0.05706
1169.10 0.05705
1169.20 0.05703
1169.30 0.05701
1169.40 0.05699
1169.50 0.05697
1169.60 0.05696
1169.70 0.05694
1169.80 0.05692
1169.90 0.0569
1170.00 0.05688
1170.10 0.05687
1170.20 0.05685
1170.30 0.05683
1170.40 0.05681
1170.50 0.05679
1170.60 0.05678
1170.70 0.05676
1170.80 0.05674
1170.90 0.05672
1171.00 0.0567
1171.10 0.05669
1171.20 0.05667
1171.30 0.05665
1171.40 0.05663
1171.50 0.05661
1171.60 0.0566
1171.70 0.05658
1171.80 0.05656
1171.90 0.05654
1172.00 0.05652
1172.10 0.05651
1172.20 0.05649
1172.30 0.05647
1172.40 0.05645
1172.50 0.05644
1172.60 0.05642
1172.70 0.0564
1172.80 0.05638
1172.90 0.05636
1173.00 0.05635
1173.10 0.05633
1173.20 0.05631
1173.30 0.05629
1173.40 0.05628
1173.50 0.05626
1173.60 0.05624
1173.70 0.05622
1173.80 0.0562
1173.90 0.05619
1174.00 0.05617
1174.10 0.05615
1174.20 0.05613
1174.30 0.05612
1174.40 0.0561
1174.50 0.05608
1174.60 0.05606
1174.70 0.05604
1174.80 0.05603
1174.90 0.05601
1175.00 0.05599
1175.10 0.05597
1175.20 0.05596
1175.30 0.05594
1175.40 0.05592
1175.50 0.0559
1175.60 0.05589
1175.70 0.05587
1175.80 0.05585
1175.90 0.05583
1176.00 0.05581
1176.10 0.0558
1176.20 0.05578
1176.30 0.05576
1176.40 0.05574
1176.50 0.05573
1176.60 0.05571
1176.70 0.05569
1176.80 0.05567
1176.90 0.05566
1177.00 0.05564
1177.10 0.05562
1177.20 0.0556
1177.30 0.05559
1177.40 0.05557
1177.50 0.05555
1177.60 0.05553
1177.70 0.05552
1177.80 0.0555
1177.90 0.05548
1178.00 0.05546
1178.10 0.05545
1178.20 0.05543
1178.30 0.05541
1178.40 0.05539
1178.50 0.05538
1178.60 0.05536
1178.70 0.05534
1178.80 0.05532
1178.90 0.05531
1179.00 0.05529
1179.10 0.05527
1179.20 0.05525
1179.30 0.05524
1179.40 0.05522
1179.50 0.0552
1179.60 0.05518
1179.70 0.05517
1179.80 0.05515
1179.90 0.05513
1180.00 0.05511
1180.10 0.0551
1180.20 0.05508
1180.30 0.05506
1180.40 0.05505
1180.50 0.05503
1180.60 0.05501
1180.70 0.05499
1180.80 0.05498
1180.90 0.05496
1181.00 0.05494
1181.10 0.05492
1181.20 0.05491
1181.30 0.05489
1181.40 0.05487
1181.50 0.05485
1181.60 0.05484
1181.70 0.05482
1181.80 0.0548
1181.90 0.05479
1182.00 0.05477
1182.10 0.05475
1182.20 0.05473
1182.30 0.05472
1182.40 0.0547
1182.50 0.05468
1182.60 0.05467
1182.70 0.05465
1182.80 0.05463
1182.90 0.05461
1183.00 0.0546
1183.10 0.05458
1183.20 0.05456
1183.30 0.05454
1183.40 0.05453
1183.50 0.05451
1183.60 0.05449
1183.70 0.05448
1183.80 0.05446
1183.90 0.05444
1184.00 0.05442
1184.10 0.05441
1184.20 0.05439
1184.30 0.05437
1184.40 0.05436
1184.50 0.05434
1184.60 0.05432
1184.70 0.0543
1184.80 0.05429
1184.90 0.05427
1185.00 0.05425
1185.10 0.05424
1185.20 0.05422
1185.30 0.0542
1185.40 0.05419
1185.50 0.05417
1185.60 0.05415
1185.70 0.05413
1185.80 0.05412
1185.90 0.0541
1186.00 0.05408
1186.10 0.05407
1186.20 0.05405
1186.30 0.05403
1186.40 0.05401
1186.50 0.054
1186.60 0.05398
1186.70 0.05396
1186.80 0.05395
1186.90 0.05393
1187.00 0.05391
1187.10 0.0539
1187.20 0.05388
1187.30 0.05386
1187.40 0.05385
1187.50 0.05383
1187.60 0.05381
1187.70 0.05379
1187.80 0.05378
1187.90 0.05376
1188.00 0.05374
1188.10 0.05373
1188.20 0.05371
1188.30 0.05369
1188.40 0.05368
1188.50 0.05366
1188.60 0.05364
1188.70 0.05363
1188.80 0.05361
1188.90 0.05359
1189.00 0.05358
1189.10 0.05356
1189.20 0.05354
1189.30 0.05353
1189.40 0.05351
1189.50 0.05349
1189.60 0.05348
1189.70 0.05346
1189.80 0.05344
1189.90 0.05342
1190.00 0.05341
1190.10 0.05339
1190.20 0.05337
1190.30 0.05336
1190.40 0.05334
1190.50 0.05332
1190.60 0.05331
1190.70 0.05329
1190.80 0.05327
1190.90 0.05326
1191.00 0.05324
1191.10 0.05322
1191.20 0.05321
1191.30 0.05319
1191.40 0.05317
1191.50 0.05316
1191.60 0.05314
1191.70 0.05312
1191.80 0.05311
1191.90 0.05309
1192.00 0.05307
1192.10 0.05306
1192.20 0.05304
1192.30 0.05302
1192.40 0.05301
1192.50 0.05299
1192.60 0.05297
1192.70 0.05296
1192.80 0.05294
1192.90 0.05292
1193.00 0.05291
1193.10 0.05289
1193.20 0.05287
1193.30 0.05286
1193.40 0.05284
1193.50 0.05283
1193.60 0.05281
1193.70 0.05279
1193.80 0.05278
1193.90 0.05276
1194.00 0.05274
1194.10 0.05273
1194.20 0.05271
1194.30 0.05269
1194.40 0.05268
1194.50 0.05266
1194.60 0.05264
1194.70 0.05263
1194.80 0.05261
1194.90 0.05259
1195.00 0.05258
1195.10 0.05256
1195.20 0.05254
1195.30 0.05253
1195.40 0.05251
1195.50 0.0525
1195.60 0.05248
1195.70 0.05246
1195.80 0.05245
1195.90 0.05243
1196.00 0.05241
1196.10 0.0524
1196.20 0.05238
1196.30 0.05236
1196.40 0.05235
1196.50 0.05233
1196.60 0.05231
1196.70 0.0523
1196.80 0.05228
1196.90 0.05227
1197.00 0.05225
1197.10 0.05223
1197.20 0.05222
1197.30 0.0522
1197.40 0.05218
1197.50 0.05217
1197.60 0.05215
1197.70 0.05213
1197.80 0.05212
1197.90 0.0521
1198.00 0.05209
1198.10 0.05207
1198.20 0.05205
1198.30 0.05204
1198.40 0.05202
1198.50 0.052
1198.60 0.05199
1198.70 0.05197
1198.80 0.05196
1198.90 0.05194
1199.00 0.05192
1199.10 0.05191
1199.20 0.05189
1199.30 0.05188
1199.40 0.05186
1199.50 0.05184
1199.60 0.05183
1199.70 0.05181
1199.80 0.05179
1199.90 0.05178
1200.00 0
