# Version 2.1 - nm, norm@500 to 1, cut digits, bergeron_16500_80.dat_16500
# Wavelength(nm)  Flambda(ergs/cm^s/s/nm)
300.00 2.587
300.10 2.585
300.20 2.583
300.30 2.58
300.40 2.578
300.50 2.576
300.60 2.574
300.70 2.572
300.80 2.57
300.90 2.567
301.00 2.565
301.10 2.563
301.20 2.561
301.30 2.559
301.40 2.557
301.50 2.554
301.60 2.552
301.70 2.55
301.80 2.548
301.90 2.546
302.00 2.544
302.10 2.542
302.20 2.539
302.30 2.537
302.40 2.535
302.50 2.533
302.60 2.531
302.70 2.529
302.80 2.527
302.90 2.524
303.00 2.522
303.10 2.52
303.20 2.518
303.30 2.516
303.40 2.514
303.50 2.512
303.60 2.51
303.70 2.508
303.80 2.505
303.90 2.503
304.00 2.501
304.10 2.499
304.20 2.497
304.30 2.495
304.40 2.493
304.50 2.491
304.60 2.489
304.70 2.487
304.80 2.485
304.90 2.483
305.00 2.48
305.10 2.478
305.20 2.476
305.30 2.474
305.40 2.472
305.50 2.47
305.60 2.468
305.70 2.466
305.80 2.464
305.90 2.462
306.00 2.46
306.10 2.458
306.20 2.456
306.30 2.454
306.40 2.452
306.50 2.45
306.60 2.448
306.70 2.446
306.80 2.443
306.90 2.441
307.00 2.439
307.10 2.437
307.20 2.435
307.30 2.433
307.40 2.431
307.50 2.429
307.60 2.427
307.70 2.425
307.80 2.423
307.90 2.421
308.00 2.419
308.10 2.417
308.20 2.415
308.30 2.413
308.40 2.411
308.50 2.409
308.60 2.407
308.70 2.405
308.80 2.403
308.90 2.401
309.00 2.399
309.10 2.397
309.20 2.395
309.30 2.393
309.40 2.391
309.50 2.389
309.60 2.387
309.70 2.385
309.80 2.383
309.90 2.382
310.00 2.38
310.10 2.378
310.20 2.376
310.30 2.374
310.40 2.372
310.50 2.37
310.60 2.368
310.70 2.366
310.80 2.364
310.90 2.362
311.00 2.36
311.10 2.358
311.20 2.356
311.30 2.354
311.40 2.352
311.50 2.35
311.60 2.348
311.70 2.347
311.80 2.345
311.90 2.343
312.00 2.341
312.10 2.339
312.20 2.337
312.30 2.335
312.40 2.333
312.50 2.331
312.60 2.329
312.70 2.327
312.80 2.326
312.90 2.324
313.00 2.322
313.10 2.32
313.20 2.318
313.30 2.316
313.40 2.314
313.50 2.312
313.60 2.31
313.70 2.308
313.80 2.307
313.90 2.305
314.00 2.303
314.10 2.301
314.20 2.299
314.30 2.297
314.40 2.295
314.50 2.293
314.60 2.292
314.70 2.29
314.80 2.288
314.90 2.286
315.00 2.284
315.10 2.282
315.20 2.28
315.30 2.279
315.40 2.277
315.50 2.275
315.60 2.273
315.70 2.271
315.80 2.269
315.90 2.268
316.00 2.266
316.10 2.264
316.20 2.262
316.30 2.26
316.40 2.258
316.50 2.257
316.60 2.255
316.70 2.253
316.80 2.251
316.90 2.249
317.00 2.247
317.10 2.246
317.20 2.244
317.30 2.242
317.40 2.24
317.50 2.238
317.60 2.237
317.70 2.235
317.80 2.233
317.90 2.231
318.00 2.229
318.10 2.228
318.20 2.226
318.30 2.224
318.40 2.222
318.50 2.22
318.60 2.219
318.70 2.217
318.80 2.215
318.90 2.213
319.00 2.212
319.10 2.21
319.20 2.208
319.30 2.206
319.40 2.204
319.50 2.203
319.60 2.201
319.70 2.199
319.80 2.197
319.90 2.196
320.00 2.194
320.10 2.192
320.20 2.19
320.30 2.189
320.40 2.187
320.50 2.185
320.60 2.183
320.70 2.181
320.80 2.18
320.90 2.178
321.00 2.176
321.10 2.174
321.20 2.173
321.30 2.171
321.40 2.169
321.50 2.168
321.60 2.166
321.70 2.164
321.80 2.162
321.90 2.161
322.00 2.159
322.10 2.157
322.20 2.155
322.30 2.154
322.40 2.152
322.50 2.15
322.60 2.149
322.70 2.147
322.80 2.145
322.90 2.143
323.00 2.142
323.10 2.14
323.20 2.138
323.30 2.137
323.40 2.135
323.50 2.133
323.60 2.132
323.70 2.13
323.80 2.128
323.90 2.127
324.00 2.125
324.10 2.123
324.20 2.121
324.30 2.12
324.40 2.118
324.50 2.116
324.60 2.115
324.70 2.113
324.80 2.111
324.90 2.11
325.00 2.108
325.10 2.106
325.20 2.105
325.30 2.103
325.40 2.101
325.50 2.1
325.60 2.098
325.70 2.096
325.80 2.095
325.90 2.093
326.00 2.091
326.10 2.09
326.20 2.088
326.30 2.087
326.40 2.085
326.50 2.083
326.60 2.082
326.70 2.08
326.80 2.078
326.90 2.077
327.00 2.075
327.10 2.073
327.20 2.072
327.30 2.07
327.40 2.068
327.50 2.067
327.60 2.065
327.70 2.064
327.80 2.062
327.90 2.06
328.00 2.059
328.10 2.057
328.20 2.055
328.30 2.054
328.40 2.052
328.50 2.051
328.60 2.049
328.70 2.047
328.80 2.046
328.90 2.044
329.00 2.043
329.10 2.041
329.20 2.039
329.30 2.038
329.40 2.036
329.50 2.035
329.60 2.033
329.70 2.031
329.80 2.03
329.90 2.028
330.00 2.027
330.10 2.025
330.20 2.023
330.30 2.022
330.40 2.02
330.50 2.019
330.60 2.017
330.70 2.016
330.80 2.014
330.90 2.012
331.00 2.011
331.10 2.009
331.20 2.008
331.30 2.006
331.40 2.005
331.50 2.003
331.60 2.001
331.70 2
331.80 1.998
331.90 1.997
332.00 1.995
332.10 1.994
332.20 1.992
332.30 1.991
332.40 1.989
332.50 1.987
332.60 1.986
332.70 1.984
332.80 1.983
332.90 1.981
333.00 1.98
333.10 1.978
333.20 1.977
333.30 1.975
333.40 1.974
333.50 1.972
333.60 1.971
333.70 1.969
333.80 1.968
333.90 1.966
334.00 1.964
334.10 1.963
334.20 1.961
334.30 1.96
334.40 1.958
334.50 1.957
334.60 1.955
334.70 1.954
334.80 1.952
334.90 1.951
335.00 1.949
335.10 1.948
335.20 1.946
335.30 1.945
335.40 1.943
335.50 1.942
335.60 1.94
335.70 1.939
335.80 1.937
335.90 1.936
336.00 1.934
336.10 1.933
336.20 1.931
336.30 1.93
336.40 1.928
336.50 1.927
336.60 1.925
336.70 1.924
336.80 1.923
336.90 1.921
337.00 1.92
337.10 1.918
337.20 1.917
337.30 1.915
337.40 1.914
337.50 1.912
337.60 1.911
337.70 1.909
337.80 1.908
337.90 1.906
338.00 1.905
338.10 1.903
338.20 1.902
338.30 1.9
338.40 1.899
338.50 1.898
338.60 1.896
338.70 1.895
338.80 1.893
338.90 1.892
339.00 1.89
339.10 1.889
339.20 1.887
339.30 1.886
339.40 1.885
339.50 1.883
339.60 1.882
339.70 1.88
339.80 1.879
339.90 1.877
340.00 1.876
340.10 1.874
340.20 1.873
340.30 1.872
340.40 1.87
340.50 1.869
340.60 1.867
340.70 1.866
340.80 1.865
340.90 1.863
341.00 1.862
341.10 1.86
341.20 1.859
341.30 1.857
341.40 1.856
341.50 1.855
341.60 1.853
341.70 1.852
341.80 1.85
341.90 1.849
342.00 1.848
342.10 1.846
342.20 1.845
342.30 1.843
342.40 1.842
342.50 1.841
342.60 1.839
342.70 1.838
342.80 1.836
342.90 1.835
343.00 1.834
343.10 1.832
343.20 1.831
343.30 1.829
343.40 1.828
343.50 1.827
343.60 1.825
343.70 1.824
343.80 1.822
343.90 1.821
344.00 1.82
344.10 1.818
344.20 1.817
344.30 1.816
344.40 1.814
344.50 1.813
344.60 1.812
344.70 1.81
344.80 1.809
344.90 1.807
345.00 1.806
345.10 1.805
345.20 1.803
345.30 1.802
345.40 1.801
345.50 1.799
345.60 1.798
345.70 1.797
345.80 1.795
345.90 1.794
346.00 1.793
346.10 1.791
346.20 1.79
346.30 1.788
346.40 1.787
346.50 1.786
346.60 1.784
346.70 1.783
346.80 1.782
346.90 1.78
347.00 1.779
347.10 1.778
347.20 1.776
347.30 1.775
347.40 1.774
347.50 1.772
347.60 1.771
347.70 1.77
347.80 1.768
347.90 1.767
348.00 1.766
348.10 1.764
348.20 1.763
348.30 1.762
348.40 1.76
348.50 1.759
348.60 1.758
348.70 1.757
348.80 1.755
348.90 1.754
349.00 1.753
349.10 1.751
349.20 1.75
349.30 1.749
349.40 1.747
349.50 1.746
349.60 1.745
349.70 1.743
349.80 1.742
349.90 1.741
350.00 1.74
350.10 1.738
350.20 1.737
350.30 1.736
350.40 1.734
350.50 1.733
350.60 1.732
350.70 1.731
350.80 1.729
350.90 1.728
351.00 1.727
351.10 1.725
351.20 1.724
351.30 1.723
351.40 1.722
351.50 1.72
351.60 1.719
351.70 1.718
351.80 1.716
351.90 1.715
352.00 1.714
352.10 1.713
352.20 1.711
352.30 1.71
352.40 1.709
352.50 1.708
352.60 1.706
352.70 1.705
352.80 1.704
352.90 1.703
353.00 1.701
353.10 1.7
353.20 1.699
353.30 1.697
353.40 1.696
353.50 1.695
353.60 1.694
353.70 1.692
353.80 1.691
353.90 1.69
354.00 1.689
354.10 1.687
354.20 1.686
354.30 1.685
354.40 1.684
354.50 1.682
354.60 1.681
354.70 1.68
354.80 1.679
354.90 1.678
355.00 1.676
355.10 1.675
355.20 1.674
355.30 1.673
355.40 1.671
355.50 1.67
355.60 1.669
355.70 1.668
355.80 1.666
355.90 1.665
356.00 1.664
356.10 1.663
356.20 1.662
356.30 1.66
356.40 1.659
356.50 1.658
356.60 1.657
356.70 1.655
356.80 1.654
356.90 1.653
357.00 1.652
357.10 1.651
357.20 1.649
357.30 1.648
357.40 1.647
357.50 1.646
357.60 1.645
357.70 1.643
357.80 1.642
357.90 1.641
358.00 1.64
358.10 1.639
358.20 1.637
358.30 1.636
358.40 1.635
358.50 1.634
358.60 1.633
358.70 1.631
358.80 1.63
358.90 1.629
359.00 1.628
359.10 1.627
359.20 1.625
359.30 1.624
359.40 1.623
359.50 1.622
359.60 1.621
359.70 1.62
359.80 1.618
359.90 1.617
360.00 1.616
360.10 1.615
360.20 1.614
360.30 1.612
360.40 1.611
360.50 1.61
360.60 1.609
360.70 1.608
360.80 1.607
360.90 1.605
361.00 1.604
361.10 1.603
361.20 1.602
361.30 1.601
361.40 1.6
361.50 1.598
361.60 1.597
361.70 1.596
361.80 1.595
361.90 1.594
362.00 1.593
362.10 1.591
362.20 1.59
362.30 1.589
362.40 1.588
362.50 1.587
362.60 1.586
362.70 1.585
362.80 1.583
362.90 1.582
363.00 1.581
363.10 1.58
363.20 1.579
363.30 1.577
363.40 1.576
363.50 1.575
363.60 1.574
363.70 1.572
363.80 1.571
363.90 1.57
364.00 1.569
364.10 1.568
364.20 1.566
364.30 1.565
364.40 1.564
364.50 1.563
364.60 1.561
364.70 1.56
364.80 1.559
364.90 1.558
365.00 1.556
365.10 1.555
365.20 1.554
365.30 1.553
365.40 1.551
365.50 1.55
365.60 1.549
365.70 1.548
365.80 1.546
365.90 1.545
366.00 1.544
366.10 1.543
366.20 1.542
366.30 1.54
366.40 1.539
366.50 1.538
366.60 1.537
366.70 1.536
366.80 1.535
366.90 1.534
367.00 1.532
367.10 1.531
367.20 1.53
367.30 1.529
367.40 1.528
367.50 1.527
367.60 1.526
367.70 1.525
367.80 1.523
367.90 1.522
368.00 1.521
368.10 1.52
368.20 1.519
368.30 1.518
368.40 1.517
368.50 1.516
368.60 1.515
368.70 1.514
368.80 1.513
368.90 1.512
369.00 1.511
369.10 1.51
369.20 1.509
369.30 1.508
369.40 1.507
369.50 1.506
369.60 1.505
369.70 1.504
369.80 1.503
369.90 1.502
370.00 1.501
370.10 1.5
370.20 1.5
370.30 1.499
370.40 1.499
370.50 1.498
370.60 1.498
370.70 1.497
370.80 1.497
370.90 1.496
371.00 1.495
371.10 1.495
371.20 1.494
371.30 1.494
371.40 1.493
371.50 1.493
371.60 1.492
371.70 1.491
371.80 1.491
371.90 1.49
372.00 1.49
372.10 1.49
372.20 1.49
372.30 1.49
372.40 1.49
372.50 1.491
372.60 1.491
372.70 1.491
372.80 1.491
372.90 1.491
373.00 1.491
373.10 1.492
373.20 1.492
373.30 1.492
373.40 1.492
373.50 1.492
373.60 1.492
373.70 1.493
373.80 1.493
373.90 1.493
374.00 1.493
374.10 1.494
374.20 1.494
374.30 1.495
374.40 1.496
374.50 1.496
374.60 1.497
374.70 1.498
374.80 1.498
374.90 1.499
375.00 1.499
375.10 1.5
375.20 1.501
375.30 1.501
375.40 1.502
375.50 1.503
375.60 1.503
375.70 1.504
375.80 1.504
375.90 1.505
376.00 1.506
376.10 1.506
376.20 1.506
376.30 1.506
376.40 1.507
376.50 1.507
376.60 1.507
376.70 1.507
376.80 1.508
376.90 1.508
377.00 1.508
377.10 1.507
377.20 1.506
377.30 1.505
377.40 1.504
377.50 1.503
377.60 1.502
377.70 1.501
377.80 1.5
377.90 1.499
378.00 1.498
378.10 1.492
378.20 1.487
378.30 1.482
378.40 1.477
378.50 1.472
378.60 1.467
378.70 1.462
378.80 1.457
378.90 1.452
379.00 1.447
379.10 1.443
379.20 1.44
379.30 1.436
379.40 1.433
379.50 1.429
379.60 1.426
379.70 1.422
379.80 1.419
379.90 1.415
380.00 1.412
380.10 1.416
380.20 1.421
380.30 1.426
380.40 1.431
380.50 1.435
380.60 1.44
380.70 1.445
380.80 1.449
380.90 1.454
381.00 1.459
381.10 1.46
381.20 1.461
381.30 1.462
381.40 1.464
381.50 1.465
381.60 1.464
381.70 1.462
381.80 1.459
381.90 1.455
382.00 1.45
382.10 1.444
382.20 1.438
382.30 1.425
382.40 1.413
382.50 1.401
382.60 1.388
382.70 1.376
382.80 1.364
382.90 1.352
383.00 1.34
383.10 1.327
383.20 1.315
383.30 1.307
383.40 1.298
383.50 1.287
383.60 1.289
383.70 1.3
383.80 1.309
383.90 1.318
384.00 1.329
384.10 1.344
384.20 1.359
384.30 1.375
384.40 1.39
384.50 1.404
384.60 1.417
384.70 1.428
384.80 1.438
384.90 1.446
385.00 1.454
385.10 1.459
385.20 1.465
385.30 1.469
385.40 1.472
385.50 1.475
385.60 1.477
385.70 1.477
385.80 1.478
385.90 1.477
386.00 1.476
386.10 1.474
386.20 1.471
386.30 1.467
386.40 1.463
386.50 1.459
386.60 1.453
386.70 1.446
386.80 1.439
386.90 1.431
387.00 1.423
387.10 1.414
387.20 1.404
387.30 1.393
387.40 1.381
387.50 1.368
387.60 1.354
387.70 1.339
387.80 1.322
387.90 1.304
388.00 1.284
388.10 1.262
388.20 1.238
388.30 1.212
388.40 1.186
388.50 1.162
388.60 1.14
388.70 1.124
388.80 1.11
388.90 1.098
389.00 1.109
389.10 1.122
389.20 1.137
389.30 1.158
389.40 1.182
389.50 1.208
389.60 1.234
389.70 1.258
389.80 1.281
389.90 1.302
390.00 1.321
390.10 1.339
390.20 1.355
390.30 1.371
390.40 1.385
390.50 1.399
390.60 1.412
390.70 1.424
390.80 1.435
390.90 1.446
391.00 1.457
391.10 1.467
391.20 1.476
391.30 1.486
391.40 1.494
391.50 1.502
391.60 1.509
391.70 1.516
391.80 1.522
391.90 1.528
392.00 1.533
392.10 1.537
392.20 1.54
392.30 1.543
392.40 1.545
392.50 1.547
392.60 1.547
392.70 1.547
392.80 1.547
392.90 1.545
393.00 1.543
393.10 1.54
393.20 1.536
393.30 1.532
393.40 1.526
393.50 1.52
393.60 1.514
393.70 1.506
393.80 1.498
393.90 1.489
394.00 1.479
394.10 1.469
394.20 1.458
394.30 1.446
394.40 1.433
394.50 1.42
394.60 1.407
394.70 1.392
394.80 1.377
394.90 1.362
395.00 1.346
395.10 1.33
395.20 1.313
395.30 1.296
395.40 1.279
395.50 1.261
395.60 1.242
395.70 1.222
395.80 1.202
395.90 1.181
396.00 1.16
396.10 1.138
396.20 1.113
396.30 1.086
396.40 1.058
396.50 1.025
396.60 0.992
396.70 0.959
396.80 0.933
396.90 0.9052
397.00 0.8758
397.10 0.9023
397.20 0.9279
397.30 0.9523
397.40 0.9841
397.50 1.016
397.60 1.048
397.70 1.076
397.80 1.102
397.90 1.126
398.00 1.147
398.10 1.168
398.20 1.188
398.30 1.207
398.40 1.226
398.50 1.244
398.60 1.262
398.70 1.279
398.80 1.296
398.90 1.312
399.00 1.328
399.10 1.344
399.20 1.36
399.30 1.375
399.40 1.39
399.50 1.405
399.60 1.419
399.70 1.433
399.80 1.447
399.90 1.46
400.00 1.473
400.10 1.485
400.20 1.497
400.30 1.509
400.40 1.52
400.50 1.53
400.60 1.54
400.70 1.55
400.80 1.559
400.90 1.568
401.00 1.576
401.10 1.585
401.20 1.592
401.30 1.599
401.40 1.606
401.50 1.613
401.60 1.618
401.70 1.624
401.80 1.629
401.90 1.634
402.00 1.639
402.10 1.643
402.20 1.646
402.30 1.65
402.40 1.653
402.50 1.655
402.60 1.657
402.70 1.659
402.80 1.661
402.90 1.662
403.00 1.663
403.10 1.663
403.20 1.663
403.30 1.663
403.40 1.663
403.50 1.662
403.60 1.661
403.70 1.659
403.80 1.657
403.90 1.655
404.00 1.652
404.10 1.649
404.20 1.646
404.30 1.642
404.40 1.638
404.50 1.633
404.60 1.628
404.70 1.623
404.80 1.618
404.90 1.612
405.00 1.606
405.10 1.599
405.20 1.592
405.30 1.585
405.40 1.577
405.50 1.569
405.60 1.56
405.70 1.551
405.80 1.542
405.90 1.532
406.00 1.522
406.10 1.511
406.20 1.5
406.30 1.489
406.40 1.477
406.50 1.465
406.60 1.452
406.70 1.439
406.80 1.426
406.90 1.412
407.00 1.398
407.10 1.383
407.20 1.369
407.30 1.353
407.40 1.337
407.50 1.321
407.60 1.304
407.70 1.287
407.80 1.27
407.90 1.253
408.00 1.235
408.10 1.217
408.20 1.199
408.30 1.18
408.40 1.162
408.50 1.143
408.60 1.124
408.70 1.105
408.80 1.086
408.90 1.066
409.00 1.047
409.10 1.027
409.20 1.007
409.30 0.9859
409.40 0.9633
409.50 0.9389
409.60 0.9129
409.70 0.8828
409.80 0.8513
409.90 0.8185
410.00 0.7845
410.10 0.7547
410.20 0.729
410.30 0.7668
410.40 0.8017
410.50 0.8337
410.60 0.8651
410.70 0.8946
410.80 0.9222
410.90 0.9458
411.00 0.9678
411.10 0.9884
411.20 1.007
411.30 1.026
411.40 1.045
411.50 1.063
411.60 1.081
411.70 1.099
411.80 1.116
411.90 1.134
412.00 1.151
412.10 1.168
412.20 1.184
412.30 1.201
412.40 1.217
412.50 1.233
412.60 1.249
412.70 1.264
412.80 1.28
412.90 1.294
413.00 1.309
413.10 1.323
413.20 1.337
413.30 1.35
413.40 1.363
413.50 1.376
413.60 1.388
413.70 1.4
413.80 1.412
413.90 1.423
414.00 1.434
414.10 1.444
414.20 1.454
414.30 1.464
414.40 1.474
414.50 1.483
414.60 1.492
414.70 1.501
414.80 1.509
414.90 1.518
415.00 1.525
415.10 1.533
415.20 1.54
415.30 1.547
415.40 1.554
415.50 1.56
415.60 1.567
415.70 1.573
415.80 1.579
415.90 1.584
416.00 1.589
416.10 1.595
416.20 1.599
416.30 1.604
416.40 1.609
416.50 1.613
416.60 1.617
416.70 1.621
416.80 1.625
416.90 1.629
417.00 1.632
417.10 1.635
417.20 1.639
417.30 1.642
417.40 1.645
417.50 1.647
417.60 1.65
417.70 1.652
417.80 1.654
417.90 1.657
418.00 1.659
418.10 1.661
418.20 1.662
418.30 1.664
418.40 1.666
418.50 1.667
418.60 1.669
418.70 1.67
418.80 1.671
418.90 1.672
419.00 1.673
419.10 1.674
419.20 1.675
419.30 1.675
419.40 1.676
419.50 1.676
419.60 1.677
419.70 1.677
419.80 1.677
419.90 1.678
420.00 1.678
420.10 1.678
420.20 1.678
420.30 1.678
420.40 1.678
420.50 1.677
420.60 1.677
420.70 1.677
420.80 1.676
420.90 1.676
421.00 1.675
421.10 1.675
421.20 1.674
421.30 1.673
421.40 1.672
421.50 1.672
421.60 1.671
421.70 1.67
421.80 1.669
421.90 1.667
422.00 1.666
422.10 1.665
422.20 1.664
422.30 1.662
422.40 1.661
422.50 1.66
422.60 1.658
422.70 1.656
422.80 1.655
422.90 1.653
423.00 1.651
423.10 1.649
423.20 1.648
423.30 1.646
423.40 1.644
423.50 1.642
423.60 1.639
423.70 1.637
423.80 1.635
423.90 1.633
424.00 1.63
424.10 1.628
424.20 1.625
424.30 1.623
424.40 1.62
424.50 1.617
424.60 1.614
424.70 1.612
424.80 1.609
424.90 1.605
425.00 1.602
425.10 1.599
425.20 1.596
425.30 1.593
425.40 1.589
425.50 1.586
425.60 1.582
425.70 1.578
425.80 1.574
425.90 1.57
426.00 1.566
426.10 1.562
426.20 1.557
426.30 1.553
426.40 1.548
426.50 1.544
426.60 1.539
426.70 1.534
426.80 1.529
426.90 1.524
427.00 1.519
427.10 1.514
427.20 1.508
427.30 1.503
427.40 1.497
427.50 1.491
427.60 1.486
427.70 1.479
427.80 1.473
427.90 1.467
428.00 1.46
428.10 1.454
428.20 1.447
428.30 1.44
428.40 1.432
428.50 1.425
428.60 1.418
428.70 1.41
428.80 1.402
428.90 1.394
429.00 1.385
429.10 1.377
429.20 1.368
429.30 1.359
429.40 1.35
429.50 1.341
429.60 1.331
429.70 1.321
429.80 1.311
429.90 1.301
430.00 1.291
430.10 1.28
430.20 1.269
430.30 1.258
430.40 1.246
430.50 1.235
430.60 1.223
430.70 1.211
430.80 1.199
430.90 1.186
431.00 1.173
431.10 1.16
431.20 1.147
431.30 1.133
431.40 1.12
431.50 1.106
431.60 1.092
431.70 1.077
431.80 1.063
431.90 1.048
432.00 1.033
432.10 1.018
432.20 1.002
432.30 0.9863
432.40 0.9701
432.50 0.9533
432.60 0.9361
432.70 0.9186
432.80 0.9009
432.90 0.8832
433.00 0.8657
433.10 0.8488
433.20 0.8318
433.30 0.8145
433.40 0.7955
433.50 0.7748
433.60 0.7525
433.70 0.7247
433.80 0.6933
433.90 0.6583
434.00 0.5995
434.10 0.6003
434.20 0.6607
434.30 0.6944
434.40 0.7246
434.50 0.7513
434.60 0.7725
434.70 0.7921
434.80 0.8101
434.90 0.8263
435.00 0.8424
435.10 0.8583
435.20 0.8747
435.30 0.8912
435.40 0.9077
435.50 0.9239
435.60 0.9397
435.70 0.9552
435.80 0.97
435.90 0.9844
436.00 0.9985
436.10 1.012
436.20 1.026
436.30 1.039
436.40 1.052
436.50 1.065
436.60 1.077
436.70 1.089
436.80 1.101
436.90 1.113
437.00 1.124
437.10 1.135
437.20 1.146
437.30 1.157
437.40 1.167
437.50 1.177
437.60 1.187
437.70 1.197
437.80 1.206
437.90 1.215
438.00 1.224
438.10 1.233
438.20 1.241
438.30 1.249
438.40 1.257
438.50 1.265
438.60 1.272
438.70 1.279
438.80 1.286
438.90 1.293
439.00 1.3
439.10 1.306
439.20 1.312
439.30 1.318
439.40 1.323
439.50 1.329
439.60 1.334
439.70 1.339
439.80 1.344
439.90 1.349
440.00 1.354
440.10 1.358
440.20 1.363
440.30 1.367
440.40 1.371
440.50 1.374
440.60 1.378
440.70 1.382
440.80 1.385
440.90 1.389
441.00 1.392
441.10 1.395
441.20 1.398
441.30 1.401
441.40 1.403
441.50 1.406
441.60 1.408
441.70 1.411
441.80 1.413
441.90 1.415
442.00 1.417
442.10 1.419
442.20 1.421
442.30 1.423
442.40 1.425
442.50 1.426
442.60 1.428
442.70 1.429
442.80 1.431
442.90 1.432
443.00 1.433
443.10 1.435
443.20 1.436
443.30 1.437
443.40 1.438
443.50 1.439
443.60 1.44
443.70 1.441
443.80 1.442
443.90 1.442
444.00 1.443
444.10 1.444
444.20 1.444
444.30 1.445
444.40 1.445
444.50 1.446
444.60 1.446
444.70 1.447
444.80 1.447
444.90 1.447
445.00 1.448
445.10 1.448
445.20 1.448
445.30 1.448
445.40 1.448
445.50 1.448
445.60 1.448
445.70 1.448
445.80 1.448
445.90 1.448
446.00 1.448
446.10 1.448
446.20 1.448
446.30 1.448
446.40 1.448
446.50 1.448
446.60 1.448
446.70 1.447
446.80 1.447
446.90 1.447
447.00 1.447
447.10 1.446
447.20 1.446
447.30 1.446
447.40 1.445
447.50 1.445
447.60 1.445
447.70 1.444
447.80 1.444
447.90 1.443
448.00 1.443
448.10 1.442
448.20 1.442
448.30 1.441
448.40 1.441
448.50 1.44
448.60 1.44
448.70 1.439
448.80 1.439
448.90 1.438
449.00 1.438
449.10 1.437
449.20 1.437
449.30 1.436
449.40 1.435
449.50 1.435
449.60 1.434
449.70 1.434
449.80 1.433
449.90 1.432
450.00 1.432
450.10 1.431
450.20 1.43
450.30 1.429
450.40 1.429
450.50 1.428
450.60 1.427
450.70 1.427
450.80 1.426
450.90 1.425
451.00 1.424
451.10 1.424
451.20 1.423
451.30 1.422
451.40 1.421
451.50 1.42
451.60 1.42
451.70 1.419
451.80 1.418
451.90 1.417
452.00 1.416
452.10 1.416
452.20 1.415
452.30 1.414
452.40 1.413
452.50 1.412
452.60 1.411
452.70 1.411
452.80 1.41
452.90 1.409
453.00 1.408
453.10 1.407
453.20 1.406
453.30 1.406
453.40 1.405
453.50 1.404
453.60 1.403
453.70 1.402
453.80 1.401
453.90 1.4
454.00 1.399
454.10 1.398
454.20 1.398
454.30 1.397
454.40 1.396
454.50 1.395
454.60 1.394
454.70 1.393
454.80 1.392
454.90 1.391
455.00 1.39
455.10 1.389
455.20 1.388
455.30 1.388
455.40 1.387
455.50 1.386
455.60 1.385
455.70 1.384
455.80 1.383
455.90 1.382
456.00 1.381
456.10 1.38
456.20 1.379
456.30 1.378
456.40 1.377
456.50 1.376
456.60 1.375
456.70 1.374
456.80 1.374
456.90 1.373
457.00 1.372
457.10 1.371
457.20 1.37
457.30 1.369
457.40 1.368
457.50 1.367
457.60 1.366
457.70 1.365
457.80 1.364
457.90 1.363
458.00 1.362
458.10 1.361
458.20 1.36
458.30 1.359
458.40 1.358
458.50 1.357
458.60 1.356
458.70 1.355
458.80 1.354
458.90 1.353
459.00 1.352
459.10 1.351
459.20 1.35
459.30 1.349
459.40 1.348
459.50 1.347
459.60 1.346
459.70 1.345
459.80 1.344
459.90 1.343
460.00 1.342
460.10 1.341
460.20 1.34
460.30 1.339
460.40 1.338
460.50 1.337
460.60 1.336
460.70 1.335
460.80 1.334
460.90 1.333
461.00 1.332
461.10 1.331
461.20 1.33
461.30 1.329
461.40 1.328
461.50 1.327
461.60 1.326
461.70 1.325
461.80 1.324
461.90 1.323
462.00 1.322
462.10 1.321
462.20 1.32
462.30 1.319
462.40 1.318
462.50 1.317
462.60 1.316
462.70 1.315
462.80 1.314
462.90 1.313
463.00 1.312
463.10 1.311
463.20 1.31
463.30 1.309
463.40 1.308
463.50 1.306
463.60 1.305
463.70 1.304
463.80 1.303
463.90 1.302
464.00 1.301
464.10 1.3
464.20 1.299
464.30 1.298
464.40 1.297
464.50 1.296
464.60 1.295
464.70 1.294
464.80 1.293
464.90 1.292
465.00 1.29
465.10 1.289
465.20 1.288
465.30 1.287
465.40 1.286
465.50 1.285
465.60 1.284
465.70 1.283
465.80 1.282
465.90 1.281
466.00 1.279
466.10 1.278
466.20 1.277
466.30 1.276
466.40 1.275
466.50 1.274
466.60 1.273
466.70 1.272
466.80 1.27
466.90 1.269
467.00 1.268
467.10 1.267
467.20 1.266
467.30 1.265
467.40 1.264
467.50 1.262
467.60 1.261
467.70 1.26
467.80 1.259
467.90 1.258
468.00 1.257
468.10 1.255
468.20 1.254
468.30 1.253
468.40 1.252
468.50 1.25
468.60 1.249
468.70 1.248
468.80 1.247
468.90 1.246
469.00 1.244
469.10 1.243
469.20 1.242
469.30 1.241
469.40 1.239
469.50 1.238
469.60 1.237
469.70 1.236
469.80 1.234
469.90 1.233
470.00 1.232
470.10 1.231
470.20 1.229
470.30 1.228
470.40 1.227
470.50 1.225
470.60 1.224
470.70 1.223
470.80 1.221
470.90 1.22
471.00 1.219
471.10 1.218
471.20 1.216
471.30 1.215
471.40 1.213
471.50 1.212
471.60 1.21
471.70 1.209
471.80 1.208
471.90 1.206
472.00 1.205
472.10 1.203
472.20 1.202
472.30 1.2
472.40 1.199
472.50 1.197
472.60 1.196
472.70 1.194
472.80 1.192
472.90 1.191
473.00 1.189
473.10 1.188
473.20 1.186
473.30 1.184
473.40 1.183
473.50 1.181
473.60 1.179
473.70 1.178
473.80 1.176
473.90 1.174
474.00 1.173
474.10 1.171
474.20 1.169
474.30 1.167
474.40 1.165
474.50 1.163
474.60 1.161
474.70 1.16
474.80 1.158
474.90 1.156
475.00 1.154
475.10 1.152
475.20 1.15
475.30 1.148
475.40 1.146
475.50 1.144
475.60 1.141
475.70 1.139
475.80 1.137
475.90 1.135
476.00 1.133
476.10 1.131
476.20 1.128
476.30 1.126
476.40 1.123
476.50 1.121
476.60 1.118
476.70 1.116
476.80 1.114
476.90 1.111
477.00 1.109
477.10 1.106
477.20 1.103
477.30 1.101
477.40 1.098
477.50 1.095
477.60 1.092
477.70 1.089
477.80 1.086
477.90 1.083
478.00 1.08
478.10 1.077
478.20 1.074
478.30 1.071
478.40 1.067
478.50 1.064
478.60 1.06
478.70 1.057
478.80 1.054
478.90 1.05
479.00 1.047
479.10 1.043
479.20 1.039
479.30 1.035
479.40 1.031
479.50 1.027
479.60 1.023
479.70 1.019
479.80 1.015
479.90 1.011
480.00 1.007
480.10 1.002
480.20 0.9978
480.30 0.9928
480.40 0.9878
480.50 0.9829
480.60 0.9779
480.70 0.973
480.80 0.968
480.90 0.9631
481.00 0.9582
481.10 0.9532
481.20 0.9476
481.30 0.9416
481.40 0.9356
481.50 0.9295
481.60 0.9235
481.70 0.9175
481.80 0.9116
481.90 0.9056
482.00 0.8996
482.10 0.8936
482.20 0.8868
482.30 0.8795
482.40 0.8723
482.50 0.8651
482.60 0.8579
482.70 0.8506
482.80 0.8434
482.90 0.8362
483.00 0.829
483.10 0.8219
483.20 0.8136
483.30 0.8049
483.40 0.7963
483.50 0.7876
483.60 0.7789
483.70 0.7702
483.80 0.7616
483.90 0.7529
484.00 0.7443
484.10 0.7357
484.20 0.7262
484.30 0.7164
484.40 0.7066
484.50 0.6968
484.60 0.687
484.70 0.6767
484.80 0.6662
484.90 0.6557
485.00 0.6452
485.10 0.6346
485.20 0.6239
485.30 0.6131
485.40 0.6018
485.50 0.5902
485.60 0.5774
485.70 0.5641
485.80 0.5464
485.90 0.5267
486.00 0.4976
486.10 0.4271
486.20 0.4582
486.30 0.5094
486.40 0.5319
486.50 0.5513
486.60 0.5662
486.70 0.5789
486.80 0.5905
486.90 0.6014
487.00 0.6118
487.10 0.6219
487.20 0.6317
487.30 0.6415
487.40 0.6512
487.50 0.6609
487.60 0.6707
487.70 0.6798
487.80 0.6887
487.90 0.6976
488.00 0.7065
488.10 0.7153
488.20 0.7233
488.30 0.7309
488.40 0.7385
488.50 0.7461
488.60 0.7537
488.70 0.7613
488.80 0.7688
488.90 0.7764
489.00 0.784
489.10 0.7915
489.20 0.798
489.30 0.8039
489.40 0.8099
489.50 0.8158
489.60 0.8218
489.70 0.8277
489.80 0.8336
489.90 0.8395
490.00 0.8455
490.10 0.8514
490.20 0.8564
490.30 0.8609
490.40 0.8655
490.50 0.8701
490.60 0.8747
490.70 0.8792
490.80 0.8838
490.90 0.8883
491.00 0.8929
491.10 0.8974
491.20 0.9012
491.30 0.9046
491.40 0.908
491.50 0.9114
491.60 0.9148
491.70 0.9182
491.80 0.9216
491.90 0.925
492.00 0.9283
492.10 0.9317
492.20 0.9345
492.30 0.937
492.40 0.9395
492.50 0.9419
492.60 0.9444
492.70 0.9469
492.80 0.9494
492.90 0.9519
493.00 0.9543
493.10 0.9568
493.20 0.9588
493.30 0.9606
493.40 0.9624
493.50 0.9642
493.60 0.9659
493.70 0.9677
493.80 0.9695
493.90 0.9713
494.00 0.9731
494.10 0.9748
494.20 0.9762
494.30 0.9774
494.40 0.9786
494.50 0.9798
494.60 0.981
494.70 0.9821
494.80 0.9833
494.90 0.9845
495.00 0.9857
495.10 0.9869
495.20 0.9878
495.30 0.9885
495.40 0.9893
495.50 0.99
495.60 0.9908
495.70 0.9916
495.80 0.9923
495.90 0.9931
496.00 0.9938
496.10 0.9946
496.20 0.9951
496.30 0.9956
496.40 0.996
496.50 0.9964
496.60 0.9969
496.70 0.9973
496.80 0.9977
496.90 0.9982
497.00 0.9986
497.10 0.999
497.20 0.9993
497.30 0.9995
497.40 0.9997
497.50 0.9999
497.60 1
497.70 1
497.80 1
497.90 1.001
498.00 1.001
498.10 1.001
498.20 1.001
498.30 1.001
498.40 1.001
498.50 1.001
498.60 1.001
498.70 1.001
498.80 1.001
498.90 1.001
499.00 1.001
499.10 1.001
499.20 1.001
499.30 1.001
499.40 1.001
499.50 1.001
499.60 1.001
499.70 1
499.80 1
499.90 1
500.00 1
500.10 0.9999
500.20 0.9997
500.30 0.9994
500.40 0.9992
500.50 0.9989
500.60 0.9987
500.70 0.9984
500.80 0.9982
500.90 0.9979
501.00 0.9977
501.10 0.9974
501.20 0.9972
501.30 0.9968
501.40 0.9965
501.50 0.9962
501.60 0.9959
501.70 0.9956
501.80 0.9952
501.90 0.9949
502.00 0.9946
502.10 0.9943
502.20 0.9939
502.30 0.9936
502.40 0.9932
502.50 0.9928
502.60 0.9924
502.70 0.992
502.80 0.9917
502.90 0.9913
503.00 0.9909
503.10 0.9905
503.20 0.9901
503.30 0.9897
503.40 0.9892
503.50 0.9888
503.60 0.9884
503.70 0.988
503.80 0.9875
503.90 0.9871
504.00 0.9867
504.10 0.9862
504.20 0.9858
504.30 0.9853
504.40 0.9849
504.50 0.9844
504.60 0.9839
504.70 0.9835
504.80 0.983
504.90 0.9826
505.00 0.9821
505.10 0.9816
505.20 0.9812
505.30 0.9807
505.40 0.9802
505.50 0.9797
505.60 0.9792
505.70 0.9787
505.80 0.9782
505.90 0.9777
506.00 0.9772
506.10 0.9767
506.20 0.9762
506.30 0.9757
506.40 0.9752
506.50 0.9747
506.60 0.9741
506.70 0.9736
506.80 0.9731
506.90 0.9726
507.00 0.9721
507.10 0.9716
507.20 0.9711
507.30 0.9705
507.40 0.97
507.50 0.9695
507.60 0.9689
507.70 0.9684
507.80 0.9679
507.90 0.9673
508.00 0.9668
508.10 0.9663
508.20 0.9657
508.30 0.9652
508.40 0.9646
508.50 0.9641
508.60 0.9636
508.70 0.963
508.80 0.9625
508.90 0.9619
509.00 0.9614
509.10 0.9608
509.20 0.9603
509.30 0.9597
509.40 0.9592
509.50 0.9586
509.60 0.9581
509.70 0.9575
509.80 0.957
509.90 0.9564
510.00 0.9559
510.10 0.9553
510.20 0.9547
510.30 0.9542
510.40 0.9536
510.50 0.953
510.60 0.9525
510.70 0.9519
510.80 0.9513
510.90 0.9508
511.00 0.9502
511.10 0.9496
511.20 0.9491
511.30 0.9485
511.40 0.9479
511.50 0.9474
511.60 0.9468
511.70 0.9462
511.80 0.9457
511.90 0.9451
512.00 0.9445
512.10 0.944
512.20 0.9434
512.30 0.9428
512.40 0.9423
512.50 0.9417
512.60 0.9411
512.70 0.9406
512.80 0.94
512.90 0.9394
513.00 0.9388
513.10 0.9383
513.20 0.9377
513.30 0.9371
513.40 0.9366
513.50 0.936
513.60 0.9354
513.70 0.9349
513.80 0.9343
513.90 0.9337
514.00 0.9331
514.10 0.9326
514.20 0.932
514.30 0.9314
514.40 0.9308
514.50 0.9303
514.60 0.9297
514.70 0.9291
514.80 0.9285
514.90 0.928
515.00 0.9274
515.10 0.9268
515.20 0.9262
515.30 0.9257
515.40 0.9251
515.50 0.9245
515.60 0.924
515.70 0.9234
515.80 0.9228
515.90 0.9222
516.00 0.9217
516.10 0.9211
516.20 0.9205
516.30 0.92
516.40 0.9194
516.50 0.9188
516.60 0.9182
516.70 0.9177
516.80 0.9171
516.90 0.9165
517.00 0.9159
517.10 0.9154
517.20 0.9148
517.30 0.9142
517.40 0.9137
517.50 0.9131
517.60 0.9125
517.70 0.9119
517.80 0.9114
517.90 0.9108
518.00 0.9102
518.10 0.9097
518.20 0.9091
518.30 0.9085
518.40 0.9079
518.50 0.9074
518.60 0.9068
518.70 0.9062
518.80 0.9056
518.90 0.9051
519.00 0.9045
519.10 0.9039
519.20 0.9034
519.30 0.9028
519.40 0.9022
519.50 0.9017
519.60 0.9011
519.70 0.9005
519.80 0.9
519.90 0.8994
520.00 0.8989
520.10 0.8983
520.20 0.8977
520.30 0.8972
520.40 0.8966
520.50 0.896
520.60 0.8955
520.70 0.8949
520.80 0.8943
520.90 0.8938
521.00 0.8932
521.10 0.8926
521.20 0.8921
521.30 0.8915
521.40 0.8909
521.50 0.8904
521.60 0.8898
521.70 0.8893
521.80 0.8887
521.90 0.8881
522.00 0.8876
522.10 0.887
522.20 0.8864
522.30 0.8859
522.40 0.8853
522.50 0.8847
522.60 0.8842
522.70 0.8836
522.80 0.8831
522.90 0.8825
523.00 0.8819
523.10 0.8814
523.20 0.8808
523.30 0.8802
523.40 0.8797
523.50 0.8791
523.60 0.8786
523.70 0.878
523.80 0.8775
523.90 0.8769
524.00 0.8764
524.10 0.8758
524.20 0.8753
524.30 0.8747
524.40 0.8742
524.50 0.8736
524.60 0.873
524.70 0.8725
524.80 0.8719
524.90 0.8714
525.00 0.8708
525.10 0.8703
525.20 0.8697
525.30 0.8692
525.40 0.8686
525.50 0.8681
525.60 0.8675
525.70 0.867
525.80 0.8664
525.90 0.8659
526.00 0.8653
526.10 0.8647
526.20 0.8642
526.30 0.8637
526.40 0.8631
526.50 0.8626
526.60 0.862
526.70 0.8615
526.80 0.8609
526.90 0.8604
527.00 0.8598
527.10 0.8593
527.20 0.8588
527.30 0.8582
527.40 0.8577
527.50 0.8571
527.60 0.8566
527.70 0.856
527.80 0.8555
527.90 0.8549
528.00 0.8544
528.10 0.8538
528.20 0.8533
528.30 0.8528
528.40 0.8522
528.50 0.8517
528.60 0.8511
528.70 0.8506
528.80 0.8501
528.90 0.8495
529.00 0.849
529.10 0.8485
529.20 0.8479
529.30 0.8474
529.40 0.8468
529.50 0.8463
529.60 0.8457
529.70 0.8452
529.80 0.8447
529.90 0.8441
530.00 0.8436
530.10 0.8431
530.20 0.8425
530.30 0.842
530.40 0.8415
530.50 0.8409
530.60 0.8404
530.70 0.8399
530.80 0.8393
530.90 0.8388
531.00 0.8383
531.10 0.8377
531.20 0.8372
531.30 0.8367
531.40 0.8361
531.50 0.8356
531.60 0.8351
531.70 0.8345
531.80 0.834
531.90 0.8335
532.00 0.8329
532.10 0.8324
532.20 0.8319
532.30 0.8314
532.40 0.8308
532.50 0.8303
532.60 0.8298
532.70 0.8293
532.80 0.8287
532.90 0.8282
533.00 0.8277
533.10 0.8272
533.20 0.8266
533.30 0.8261
533.40 0.8256
533.50 0.8251
533.60 0.8246
533.70 0.824
533.80 0.8235
533.90 0.823
534.00 0.8225
534.10 0.822
534.20 0.8214
534.30 0.8209
534.40 0.8204
534.50 0.8199
534.60 0.8193
534.70 0.8188
534.80 0.8183
534.90 0.8178
535.00 0.8173
535.10 0.8167
535.20 0.8162
535.30 0.8157
535.40 0.8152
535.50 0.8147
535.60 0.8142
535.70 0.8136
535.80 0.8131
535.90 0.8126
536.00 0.8121
536.10 0.8116
536.20 0.8111
536.30 0.8106
536.40 0.8101
536.50 0.8095
536.60 0.809
536.70 0.8085
536.80 0.808
536.90 0.8075
537.00 0.807
537.10 0.8065
537.20 0.806
537.30 0.8055
537.40 0.805
537.50 0.8044
537.60 0.8039
537.70 0.8034
537.80 0.8029
537.90 0.8024
538.00 0.8019
538.10 0.8014
538.20 0.8009
538.30 0.8004
538.40 0.7999
538.50 0.7994
538.60 0.7989
538.70 0.7984
538.80 0.7979
538.90 0.7974
539.00 0.7969
539.10 0.7964
539.20 0.7959
539.30 0.7954
539.40 0.7949
539.50 0.7944
539.60 0.7939
539.70 0.7934
539.80 0.7929
539.90 0.7924
540.00 0.7919
540.10 0.7914
540.20 0.7909
540.30 0.7904
540.40 0.7899
540.50 0.7894
540.60 0.7889
540.70 0.7884
540.80 0.7879
540.90 0.7874
541.00 0.7869
541.10 0.7864
541.20 0.7859
541.30 0.7854
541.40 0.785
541.50 0.7845
541.60 0.784
541.70 0.7835
541.80 0.783
541.90 0.7825
542.00 0.782
542.10 0.7815
542.20 0.781
542.30 0.7805
542.40 0.78
542.50 0.7795
542.60 0.779
542.70 0.7785
542.80 0.778
542.90 0.7776
543.00 0.7771
543.10 0.7766
543.20 0.7761
543.30 0.7756
543.40 0.7751
543.50 0.7746
543.60 0.7742
543.70 0.7737
543.80 0.7732
543.90 0.7727
544.00 0.7722
544.10 0.7718
544.20 0.7713
544.30 0.7708
544.40 0.7703
544.50 0.7698
544.60 0.7694
544.70 0.7689
544.80 0.7684
544.90 0.7679
545.00 0.7674
545.10 0.767
545.20 0.7665
545.30 0.766
545.40 0.7655
545.50 0.765
545.60 0.7645
545.70 0.7641
545.80 0.7636
545.90 0.7631
546.00 0.7626
546.10 0.7621
546.20 0.7617
546.30 0.7613
546.40 0.7608
546.50 0.7604
546.60 0.76
546.70 0.7595
546.80 0.7591
546.90 0.7587
547.00 0.7582
547.10 0.7578
547.20 0.7574
547.30 0.7569
547.40 0.7564
547.50 0.7559
547.60 0.7554
547.70 0.755
547.80 0.7545
547.90 0.754
548.00 0.7535
548.10 0.7531
548.20 0.7526
548.30 0.7521
548.40 0.7517
548.50 0.7512
548.60 0.7507
548.70 0.7503
548.80 0.7498
548.90 0.7493
549.00 0.7489
549.10 0.7484
549.20 0.7479
549.30 0.7475
549.40 0.747
549.50 0.7465
549.60 0.7461
549.70 0.7456
549.80 0.7451
549.90 0.7447
550.00 0.7442
550.10 0.7437
550.20 0.7433
550.30 0.7428
550.40 0.7423
550.50 0.7419
550.60 0.7414
550.70 0.741
550.80 0.7405
550.90 0.74
551.00 0.7396
551.10 0.7391
551.20 0.7387
551.30 0.7382
551.40 0.7377
551.50 0.7373
551.60 0.7368
551.70 0.7364
551.80 0.7359
551.90 0.7354
552.00 0.735
552.10 0.7345
552.20 0.7341
552.30 0.7336
552.40 0.7332
552.50 0.7327
552.60 0.7322
552.70 0.7318
552.80 0.7313
552.90 0.7309
553.00 0.7304
553.10 0.73
553.20 0.7295
553.30 0.7291
553.40 0.7286
553.50 0.7282
553.60 0.7277
553.70 0.7273
553.80 0.7268
553.90 0.7264
554.00 0.7259
554.10 0.7255
554.20 0.725
554.30 0.7246
554.40 0.7241
554.50 0.7237
554.60 0.7232
554.70 0.7228
554.80 0.7223
554.90 0.7219
555.00 0.7214
555.10 0.721
555.20 0.7205
555.30 0.7201
555.40 0.7197
555.50 0.7192
555.60 0.7188
555.70 0.7183
555.80 0.7179
555.90 0.7174
556.00 0.717
556.10 0.7166
556.20 0.7161
556.30 0.7157
556.40 0.7152
556.50 0.7148
556.60 0.7144
556.70 0.7139
556.80 0.7135
556.90 0.713
557.00 0.7126
557.10 0.7122
557.20 0.7117
557.30 0.7113
557.40 0.7109
557.50 0.7104
557.60 0.71
557.70 0.7096
557.80 0.7091
557.90 0.7087
558.00 0.7082
558.10 0.7078
558.20 0.7074
558.30 0.7069
558.40 0.7065
558.50 0.7061
558.60 0.7056
558.70 0.7052
558.80 0.7048
558.90 0.7043
559.00 0.7039
559.10 0.7035
559.20 0.703
559.30 0.7026
559.40 0.7022
559.50 0.7017
559.60 0.7013
559.70 0.7009
559.80 0.7004
559.90 0.7
560.00 0.6996
560.10 0.6992
560.20 0.6987
560.30 0.6983
560.40 0.6979
560.50 0.6974
560.60 0.697
560.70 0.6966
560.80 0.6962
560.90 0.6957
561.00 0.6953
561.10 0.6949
561.20 0.6944
561.30 0.694
561.40 0.6936
561.50 0.6932
561.60 0.6927
561.70 0.6923
561.80 0.6919
561.90 0.6915
562.00 0.691
562.10 0.6906
562.20 0.6902
562.30 0.6898
562.40 0.6894
562.50 0.6889
562.60 0.6885
562.70 0.6881
562.80 0.6877
562.90 0.6873
563.00 0.6868
563.10 0.6864
563.20 0.686
563.30 0.6856
563.40 0.6852
563.50 0.6847
563.60 0.6843
563.70 0.6839
563.80 0.6835
563.90 0.6831
564.00 0.6826
564.10 0.6822
564.20 0.6818
564.30 0.6814
564.40 0.681
564.50 0.6806
564.60 0.6802
564.70 0.6797
564.80 0.6793
564.90 0.6789
565.00 0.6785
565.10 0.6781
565.20 0.6777
565.30 0.6773
565.40 0.6769
565.50 0.6765
565.60 0.676
565.70 0.6756
565.80 0.6752
565.90 0.6748
566.00 0.6744
566.10 0.674
566.20 0.6736
566.30 0.6732
566.40 0.6728
566.50 0.6724
566.60 0.672
566.70 0.6715
566.80 0.6711
566.90 0.6707
567.00 0.6703
567.10 0.6699
567.20 0.6695
567.30 0.6691
567.40 0.6687
567.50 0.6683
567.60 0.6679
567.70 0.6675
567.80 0.6671
567.90 0.6667
568.00 0.6663
568.10 0.6659
568.20 0.6655
568.30 0.6651
568.40 0.6647
568.50 0.6643
568.60 0.6639
568.70 0.6634
568.80 0.663
568.90 0.6626
569.00 0.6622
569.10 0.6618
569.20 0.6614
569.30 0.661
569.40 0.6606
569.50 0.6602
569.60 0.6598
569.70 0.6594
569.80 0.659
569.90 0.6586
570.00 0.6582
570.10 0.6578
570.20 0.6574
570.30 0.657
570.40 0.6567
570.50 0.6563
570.60 0.6559
570.70 0.6555
570.80 0.6551
570.90 0.6547
571.00 0.6543
571.10 0.6539
571.20 0.6535
571.30 0.6531
571.40 0.6527
571.50 0.6523
571.60 0.6519
571.70 0.6515
571.80 0.6511
571.90 0.6507
572.00 0.6503
572.10 0.65
572.20 0.6496
572.30 0.6492
572.40 0.6488
572.50 0.6484
572.60 0.648
572.70 0.6476
572.80 0.6472
572.90 0.6469
573.00 0.6465
573.10 0.6461
573.20 0.6457
573.30 0.6453
573.40 0.6449
573.50 0.6445
573.60 0.6441
573.70 0.6438
573.80 0.6434
573.90 0.643
574.00 0.6426
574.10 0.6422
574.20 0.6418
574.30 0.6414
574.40 0.6411
574.50 0.6407
574.60 0.6403
574.70 0.6399
574.80 0.6395
574.90 0.6391
575.00 0.6387
575.10 0.6383
575.20 0.638
575.30 0.6376
575.40 0.6372
575.50 0.6368
575.60 0.6364
575.70 0.6361
575.80 0.6357
575.90 0.6353
576.00 0.6349
576.10 0.6345
576.20 0.6342
576.30 0.6338
576.40 0.6334
576.50 0.633
576.60 0.6326
576.70 0.6323
576.80 0.6319
576.90 0.6315
577.00 0.6311
577.10 0.6307
577.20 0.6304
577.30 0.63
577.40 0.6296
577.50 0.6293
577.60 0.6289
577.70 0.6285
577.80 0.6281
577.90 0.6278
578.00 0.6274
578.10 0.627
578.20 0.6267
578.30 0.6263
578.40 0.6259
578.50 0.6255
578.60 0.6252
578.70 0.6248
578.80 0.6244
578.90 0.624
579.00 0.6237
579.10 0.6233
579.20 0.6229
579.30 0.6226
579.40 0.6222
579.50 0.6218
579.60 0.6214
579.70 0.6211
579.80 0.6207
579.90 0.6203
580.00 0.6199
580.10 0.6196
580.20 0.6192
580.30 0.6188
580.40 0.6185
580.50 0.6181
580.60 0.6178
580.70 0.6174
580.80 0.617
580.90 0.6167
581.00 0.6163
581.10 0.6159
581.20 0.6156
581.30 0.6152
581.40 0.6148
581.50 0.6145
581.60 0.6141
581.70 0.6137
581.80 0.6134
581.90 0.613
582.00 0.6126
582.10 0.6123
582.20 0.6119
582.30 0.6115
582.40 0.6112
582.50 0.6108
582.60 0.6105
582.70 0.6101
582.80 0.6097
582.90 0.6094
583.00 0.609
583.10 0.6087
583.20 0.6083
583.30 0.6079
583.40 0.6076
583.50 0.6072
583.60 0.6069
583.70 0.6065
583.80 0.6061
583.90 0.6058
584.00 0.6054
584.10 0.6051
584.20 0.6047
584.30 0.6044
584.40 0.604
584.50 0.6037
584.60 0.6033
584.70 0.6029
584.80 0.6026
584.90 0.6022
585.00 0.6019
585.10 0.6015
585.20 0.6012
585.30 0.6008
585.40 0.6005
585.50 0.6001
585.60 0.5997
585.70 0.5994
585.80 0.599
585.90 0.5987
586.00 0.5983
586.10 0.598
586.20 0.5976
586.30 0.5973
586.40 0.5969
586.50 0.5966
586.60 0.5962
586.70 0.5959
586.80 0.5955
586.90 0.5952
587.00 0.5948
587.10 0.5945
587.20 0.5941
587.30 0.5938
587.40 0.5934
587.50 0.5931
587.60 0.5927
587.70 0.5924
587.80 0.592
587.90 0.5917
588.00 0.5913
588.10 0.591
588.20 0.5906
588.30 0.5903
588.40 0.5899
588.50 0.5896
588.60 0.5893
588.70 0.5889
588.80 0.5886
588.90 0.5882
589.00 0.5879
589.10 0.5875
589.20 0.5872
589.30 0.5868
589.40 0.5865
589.50 0.5862
589.60 0.5858
589.70 0.5855
589.80 0.5851
589.90 0.5848
590.00 0.5844
590.10 0.5841
590.20 0.5837
590.30 0.5834
590.40 0.5831
590.50 0.5827
590.60 0.5824
590.70 0.5821
590.80 0.5817
590.90 0.5814
591.00 0.581
591.10 0.5807
591.20 0.5804
591.30 0.58
591.40 0.5797
591.50 0.5793
591.60 0.579
591.70 0.5786
591.80 0.5783
591.90 0.578
592.00 0.5776
592.10 0.5773
592.20 0.5769
592.30 0.5766
592.40 0.5763
592.50 0.5759
592.60 0.5756
592.70 0.5753
592.80 0.5749
592.90 0.5746
593.00 0.5743
593.10 0.5739
593.20 0.5736
593.30 0.5733
593.40 0.5729
593.50 0.5726
593.60 0.5723
593.70 0.5719
593.80 0.5716
593.90 0.5713
594.00 0.5709
594.10 0.5706
594.20 0.5703
594.30 0.5699
594.40 0.5696
594.50 0.5693
594.60 0.569
594.70 0.5686
594.80 0.5683
594.90 0.568
595.00 0.5676
595.10 0.5673
595.20 0.567
595.30 0.5666
595.40 0.5663
595.50 0.566
595.60 0.5657
595.70 0.5653
595.80 0.565
595.90 0.5647
596.00 0.5643
596.10 0.564
596.20 0.5636
596.30 0.5632
596.40 0.5628
596.50 0.5624
596.60 0.562
596.70 0.5616
596.80 0.5612
596.90 0.5608
597.00 0.5604
597.10 0.56
597.20 0.5597
597.30 0.5593
597.40 0.559
597.50 0.5587
597.60 0.5584
597.70 0.558
597.80 0.5577
597.90 0.5574
598.00 0.5571
598.10 0.5567
598.20 0.5564
598.30 0.5561
598.40 0.5558
598.50 0.5554
598.60 0.5551
598.70 0.5548
598.80 0.5545
598.90 0.5541
599.00 0.5538
599.10 0.5535
599.20 0.5532
599.30 0.5529
599.40 0.5525
599.50 0.5522
599.60 0.5519
599.70 0.5516
599.80 0.5513
599.90 0.5509
600.00 0.5506
600.10 0.5503
600.20 0.55
600.30 0.5497
600.40 0.5493
600.50 0.549
600.60 0.5487
600.70 0.5484
600.80 0.5481
600.90 0.5477
601.00 0.5474
601.10 0.5471
601.20 0.5468
601.30 0.5465
601.40 0.5461
601.50 0.5458
601.60 0.5455
601.70 0.5452
601.80 0.5449
601.90 0.5446
602.00 0.5442
602.10 0.5439
602.20 0.5436
602.30 0.5433
602.40 0.543
602.50 0.5427
602.60 0.5423
602.70 0.542
602.80 0.5417
602.90 0.5414
603.00 0.5411
603.10 0.5408
603.20 0.5405
603.30 0.5401
603.40 0.5398
603.50 0.5395
603.60 0.5392
603.70 0.5389
603.80 0.5386
603.90 0.5383
604.00 0.5379
604.10 0.5376
604.20 0.5373
604.30 0.537
604.40 0.5367
604.50 0.5364
604.60 0.5361
604.70 0.5358
604.80 0.5355
604.90 0.5352
605.00 0.5349
605.10 0.5346
605.20 0.5342
605.30 0.5339
605.40 0.5336
605.50 0.5333
605.60 0.533
605.70 0.5327
605.80 0.5324
605.90 0.5321
606.00 0.5318
606.10 0.5315
606.20 0.5311
606.30 0.5308
606.40 0.5305
606.50 0.5302
606.60 0.5299
606.70 0.5296
606.80 0.5293
606.90 0.529
607.00 0.5287
607.10 0.5284
607.20 0.5281
607.30 0.5278
607.40 0.5275
607.50 0.5272
607.60 0.5269
607.70 0.5266
607.80 0.5263
607.90 0.526
608.00 0.5257
608.10 0.5254
608.20 0.525
608.30 0.5247
608.40 0.5244
608.50 0.5241
608.60 0.5238
608.70 0.5235
608.80 0.5232
608.90 0.5229
609.00 0.5226
609.10 0.5223
609.20 0.522
609.30 0.5217
609.40 0.5214
609.50 0.5211
609.60 0.5208
609.70 0.5205
609.80 0.5202
609.90 0.5199
610.00 0.5196
610.10 0.5193
610.20 0.519
610.30 0.5187
610.40 0.5184
610.50 0.5181
610.60 0.5178
610.70 0.5175
610.80 0.5172
610.90 0.5169
611.00 0.5166
611.10 0.5163
611.20 0.516
611.30 0.5157
611.40 0.5154
611.50 0.5151
611.60 0.5148
611.70 0.5145
611.80 0.5142
611.90 0.5139
612.00 0.5136
612.10 0.5133
612.20 0.513
612.30 0.5127
612.40 0.5124
612.50 0.5122
612.60 0.5119
612.70 0.5116
612.80 0.5113
612.90 0.511
613.00 0.5107
613.10 0.5104
613.20 0.5101
613.30 0.5098
613.40 0.5095
613.50 0.5092
613.60 0.5089
613.70 0.5086
613.80 0.5083
613.90 0.508
614.00 0.5077
614.10 0.5074
614.20 0.5071
614.30 0.5068
614.40 0.5065
614.50 0.5062
614.60 0.5059
614.70 0.5057
614.80 0.5054
614.90 0.5051
615.00 0.5048
615.10 0.5045
615.20 0.5042
615.30 0.5039
615.40 0.5036
615.50 0.5033
615.60 0.503
615.70 0.5027
615.80 0.5024
615.90 0.5021
616.00 0.5019
616.10 0.5016
616.20 0.5013
616.30 0.501
616.40 0.5007
616.50 0.5004
616.60 0.5001
616.70 0.4998
616.80 0.4996
616.90 0.4993
617.00 0.499
617.10 0.4987
617.20 0.4984
617.30 0.4981
617.40 0.4978
617.50 0.4975
617.60 0.4972
617.70 0.4969
617.80 0.4967
617.90 0.4964
618.00 0.4961
618.10 0.4958
618.20 0.4955
618.30 0.4952
618.40 0.4949
618.50 0.4946
618.60 0.4943
618.70 0.4941
618.80 0.4938
618.90 0.4935
619.00 0.4932
619.10 0.4929
619.20 0.4926
619.30 0.4923
619.40 0.492
619.50 0.4918
619.60 0.4915
619.70 0.4912
619.80 0.4909
619.90 0.4906
620.00 0.4903
620.10 0.49
620.20 0.4898
620.30 0.4895
620.40 0.4892
620.50 0.4889
620.60 0.4886
620.70 0.4883
620.80 0.488
620.90 0.4878
621.00 0.4875
621.10 0.4872
621.20 0.4869
621.30 0.4866
621.40 0.4863
621.50 0.486
621.60 0.4858
621.70 0.4855
621.80 0.4852
621.90 0.4849
622.00 0.4846
622.10 0.4843
622.20 0.4841
622.30 0.4838
622.40 0.4835
622.50 0.4832
622.60 0.4829
622.70 0.4826
622.80 0.4824
622.90 0.4821
623.00 0.4818
623.10 0.4815
623.20 0.4812
623.30 0.481
623.40 0.4807
623.50 0.4804
623.60 0.4801
623.70 0.4798
623.80 0.4795
623.90 0.4792
624.00 0.479
624.10 0.4787
624.20 0.4784
624.30 0.4781
624.40 0.4778
624.50 0.4776
624.60 0.4773
624.70 0.477
624.80 0.4767
624.90 0.4764
625.00 0.4762
625.10 0.4759
625.20 0.4756
625.30 0.4753
625.40 0.475
625.50 0.4748
625.60 0.4745
625.70 0.4742
625.80 0.4739
625.90 0.4736
626.00 0.4733
626.10 0.4731
626.20 0.4728
626.30 0.4725
626.40 0.4722
626.50 0.4719
626.60 0.4716
626.70 0.4713
626.80 0.4711
626.90 0.4708
627.00 0.4705
627.10 0.4702
627.20 0.4699
627.30 0.4696
627.40 0.4694
627.50 0.4691
627.60 0.4688
627.70 0.4685
627.80 0.4683
627.90 0.468
628.00 0.4677
628.10 0.4674
628.20 0.4671
628.30 0.4669
628.40 0.4666
628.50 0.4663
628.60 0.466
628.70 0.4657
628.80 0.4654
628.90 0.4652
629.00 0.4649
629.10 0.4646
629.20 0.4643
629.30 0.464
629.40 0.4637
629.50 0.4635
629.60 0.4632
629.70 0.4629
629.80 0.4626
629.90 0.4623
630.00 0.462
630.10 0.4617
630.20 0.4615
630.30 0.4612
630.40 0.4609
630.50 0.4606
630.60 0.4603
630.70 0.46
630.80 0.4598
630.90 0.4595
631.00 0.4592
631.10 0.4589
631.20 0.4586
631.30 0.4583
631.40 0.458
631.50 0.4577
631.60 0.4575
631.70 0.4572
631.80 0.4569
631.90 0.4566
632.00 0.4563
632.10 0.456
632.20 0.4557
632.30 0.4555
632.40 0.4552
632.50 0.4549
632.60 0.4546
632.70 0.4543
632.80 0.454
632.90 0.4537
633.00 0.4534
633.10 0.4531
633.20 0.4528
633.30 0.4526
633.40 0.4523
633.50 0.452
633.60 0.4517
633.70 0.4514
633.80 0.4511
633.90 0.4508
634.00 0.4505
634.10 0.4502
634.20 0.4499
634.30 0.4496
634.40 0.4493
634.50 0.449
634.60 0.4487
634.70 0.4484
634.80 0.4481
634.90 0.4478
635.00 0.4475
635.10 0.4472
635.20 0.4469
635.30 0.4466
635.40 0.4463
635.50 0.446
635.60 0.4457
635.70 0.4454
635.80 0.4451
635.90 0.4448
636.00 0.4445
636.10 0.4442
636.20 0.4439
636.30 0.4436
636.40 0.4433
636.50 0.4429
636.60 0.4426
636.70 0.4423
636.80 0.442
636.90 0.4417
637.00 0.4414
637.10 0.4411
637.20 0.4408
637.30 0.4404
637.40 0.4401
637.50 0.4398
637.60 0.4395
637.70 0.4392
637.80 0.4388
637.90 0.4385
638.00 0.4382
638.10 0.4379
638.20 0.4375
638.30 0.4372
638.40 0.4369
638.50 0.4365
638.60 0.4362
638.70 0.4359
638.80 0.4355
638.90 0.4352
639.00 0.4349
639.10 0.4345
639.20 0.4342
639.30 0.4339
639.40 0.4335
639.50 0.4332
639.60 0.4328
639.70 0.4325
639.80 0.4321
639.90 0.4318
640.00 0.4314
640.10 0.4311
640.20 0.4307
640.30 0.4304
640.40 0.43
640.50 0.4296
640.60 0.4293
640.70 0.4289
640.80 0.4285
640.90 0.4282
641.00 0.4278
641.10 0.4274
641.20 0.4271
641.30 0.4267
641.40 0.4263
641.50 0.4259
641.60 0.4255
641.70 0.4251
641.80 0.4247
641.90 0.4243
642.00 0.424
642.10 0.4236
642.20 0.4232
642.30 0.4228
642.40 0.4224
642.50 0.4219
642.60 0.4215
642.70 0.4211
642.80 0.4207
642.90 0.4203
643.00 0.4198
643.10 0.4194
643.20 0.419
643.30 0.4186
643.40 0.4181
643.50 0.4176
643.60 0.4172
643.70 0.4167
643.80 0.4163
643.90 0.4158
644.00 0.4153
644.10 0.4149
644.20 0.4144
644.30 0.414
644.40 0.4135
644.50 0.4129
644.60 0.4124
644.70 0.4119
644.80 0.4114
644.90 0.4109
645.00 0.4104
645.10 0.4099
645.20 0.4094
645.30 0.4089
645.40 0.4083
645.50 0.4077
645.60 0.4072
645.70 0.4066
645.80 0.406
645.90 0.4055
646.00 0.4049
646.10 0.4043
646.20 0.4038
646.30 0.4032
646.40 0.4026
646.50 0.4019
646.60 0.4013
646.70 0.4006
646.80 0.4
646.90 0.3993
647.00 0.3987
647.10 0.3981
647.20 0.3974
647.30 0.3968
647.40 0.396
647.50 0.3953
647.60 0.3945
647.70 0.3938
647.80 0.393
647.90 0.3923
648.00 0.3915
648.10 0.3908
648.20 0.3901
648.30 0.3893
648.40 0.3884
648.50 0.3875
648.60 0.3866
648.70 0.3858
648.80 0.3849
648.90 0.384
649.00 0.3831
649.10 0.3822
649.20 0.3814
649.30 0.3805
649.40 0.3794
649.50 0.3784
649.60 0.3773
649.70 0.3763
649.80 0.3753
649.90 0.3742
650.00 0.3732
650.10 0.3721
650.20 0.3711
650.30 0.37
650.40 0.3688
650.50 0.3675
650.60 0.3663
650.70 0.365
650.80 0.3638
650.90 0.3625
651.00 0.3612
651.10 0.36
651.20 0.3587
651.30 0.3574
651.40 0.3559
651.50 0.3544
651.60 0.3529
651.70 0.3514
651.80 0.3499
651.90 0.3484
652.00 0.3469
652.10 0.3454
652.20 0.3439
652.30 0.3424
652.40 0.3406
652.50 0.3388
652.60 0.337
652.70 0.3352
652.80 0.3334
652.90 0.3316
653.00 0.3298
653.10 0.328
653.20 0.3262
653.30 0.3244
653.40 0.3222
653.50 0.32
653.60 0.3179
653.70 0.3157
653.80 0.3135
653.90 0.3114
654.00 0.3092
654.10 0.3071
654.20 0.3049
654.30 0.3027
654.40 0.3002
654.50 0.2977
654.60 0.2953
654.70 0.2928
654.80 0.2903
654.90 0.2874
655.00 0.2846
655.10 0.2818
655.20 0.2789
655.30 0.276
655.40 0.2729
655.50 0.2696
655.60 0.2661
655.70 0.2623
655.80 0.2579
655.90 0.2529
656.00 0.2454
656.10 0.2372
656.20 0.2129
656.30 0.188
656.40 0.2265
656.50 0.2403
656.60 0.2476
656.70 0.2542
656.80 0.2584
656.90 0.2625
657.00 0.2658
657.10 0.269
657.20 0.2719
657.30 0.2748
657.40 0.2773
657.50 0.2799
657.60 0.2825
657.70 0.285
657.80 0.2875
657.90 0.2897
658.00 0.2918
658.10 0.294
658.20 0.2962
658.30 0.2983
658.40 0.3001
658.50 0.3019
658.60 0.3038
658.70 0.3056
658.80 0.3074
658.90 0.3093
659.00 0.3111
659.10 0.3129
659.20 0.3147
659.30 0.3165
659.40 0.3179
659.50 0.3193
659.60 0.3208
659.70 0.3222
659.80 0.3236
659.90 0.325
660.00 0.3265
660.10 0.3279
660.20 0.3293
660.30 0.3307
660.40 0.3318
660.50 0.3329
660.60 0.334
660.70 0.3351
660.80 0.3362
660.90 0.3373
661.00 0.3384
661.10 0.3395
661.20 0.3406
661.30 0.3416
661.40 0.3424
661.50 0.3433
661.60 0.3441
661.70 0.3449
661.80 0.3458
661.90 0.3466
662.00 0.3474
662.10 0.3483
662.20 0.3491
662.30 0.3499
662.40 0.3505
662.50 0.3511
662.60 0.3517
662.70 0.3523
662.80 0.3529
662.90 0.3535
663.00 0.3541
663.10 0.3547
663.20 0.3553
663.30 0.3558
663.40 0.3563
663.50 0.3567
663.60 0.3571
663.70 0.3576
663.80 0.358
663.90 0.3584
664.00 0.3589
664.10 0.3593
664.20 0.3597
664.30 0.3601
664.40 0.3604
664.50 0.3607
664.60 0.361
664.70 0.3613
664.80 0.3616
664.90 0.3619
665.00 0.3622
665.10 0.3625
665.20 0.3628
665.30 0.363
665.40 0.3632
665.50 0.3634
665.60 0.3636
665.70 0.3638
665.80 0.364
665.90 0.3642
666.00 0.3643
666.10 0.3645
666.20 0.3647
666.30 0.3649
666.40 0.365
666.50 0.3651
666.60 0.3652
666.70 0.3653
666.80 0.3654
666.90 0.3655
667.00 0.3656
667.10 0.3658
667.20 0.3659
667.30 0.366
667.40 0.366
667.50 0.3661
667.60 0.3661
667.70 0.3662
667.80 0.3662
667.90 0.3663
668.00 0.3663
668.10 0.3664
668.20 0.3664
668.30 0.3664
668.40 0.3664
668.50 0.3664
668.60 0.3664
668.70 0.3664
668.80 0.3664
668.90 0.3664
669.00 0.3665
669.10 0.3665
669.20 0.3665
669.30 0.3664
669.40 0.3664
669.50 0.3664
669.60 0.3663
669.70 0.3663
669.80 0.3663
669.90 0.3662
670.00 0.3662
670.10 0.3662
670.20 0.3661
670.30 0.3661
670.40 0.366
670.50 0.366
670.60 0.3659
670.70 0.3658
670.80 0.3658
670.90 0.3657
671.00 0.3656
671.10 0.3656
671.20 0.3655
671.30 0.3654
671.40 0.3654
671.50 0.3653
671.60 0.3652
671.70 0.3651
671.80 0.365
671.90 0.3649
672.00 0.3648
672.10 0.3648
672.20 0.3647
672.30 0.3646
672.40 0.3645
672.50 0.3644
672.60 0.3643
672.70 0.3642
672.80 0.3641
672.90 0.364
673.00 0.3639
673.10 0.3638
673.20 0.3637
673.30 0.3635
673.40 0.3634
673.50 0.3633
673.60 0.3632
673.70 0.3631
673.80 0.363
673.90 0.3628
674.00 0.3627
674.10 0.3626
674.20 0.3625
674.30 0.3624
674.40 0.3623
674.50 0.3621
674.60 0.362
674.70 0.3619
674.80 0.3617
674.90 0.3616
675.00 0.3615
675.10 0.3614
675.20 0.3612
675.30 0.3611
675.40 0.361
675.50 0.3608
675.60 0.3607
675.70 0.3606
675.80 0.3604
675.90 0.3603
676.00 0.3601
676.10 0.36
676.20 0.3599
676.30 0.3597
676.40 0.3596
676.50 0.3594
676.60 0.3593
676.70 0.3592
676.80 0.359
676.90 0.3589
677.00 0.3587
677.10 0.3586
677.20 0.3584
677.30 0.3583
677.40 0.3582
677.50 0.358
677.60 0.3579
677.70 0.3577
677.80 0.3576
677.90 0.3574
678.00 0.3573
678.10 0.3571
678.20 0.357
678.30 0.3568
678.40 0.3567
678.50 0.3565
678.60 0.3564
678.70 0.3562
678.80 0.356
678.90 0.3559
679.00 0.3557
679.10 0.3556
679.20 0.3554
679.30 0.3553
679.40 0.3551
679.50 0.355
679.60 0.3548
679.70 0.3547
679.80 0.3545
679.90 0.3543
680.00 0.3542
680.10 0.354
680.20 0.3539
680.30 0.3537
680.40 0.3536
680.50 0.3534
680.60 0.3532
680.70 0.3531
680.80 0.3529
680.90 0.3528
681.00 0.3526
681.10 0.3524
681.20 0.3523
681.30 0.3521
681.40 0.352
681.50 0.3518
681.60 0.3516
681.70 0.3515
681.80 0.3513
681.90 0.3512
682.00 0.351
682.10 0.3508
682.20 0.3507
682.30 0.3505
682.40 0.3504
682.50 0.3502
682.60 0.35
682.70 0.3499
682.80 0.3497
682.90 0.3495
683.00 0.3494
683.10 0.3492
683.20 0.3491
683.30 0.3489
683.40 0.3487
683.50 0.3486
683.60 0.3484
683.70 0.3482
683.80 0.3481
683.90 0.3479
684.00 0.3478
684.10 0.3476
684.20 0.3474
684.30 0.3473
684.40 0.3471
684.50 0.3469
684.60 0.3468
684.70 0.3466
684.80 0.3464
684.90 0.3463
685.00 0.3461
685.10 0.346
685.20 0.3458
685.30 0.3456
685.40 0.3455
685.50 0.3453
685.60 0.3451
685.70 0.345
685.80 0.3448
685.90 0.3446
686.00 0.3445
686.10 0.3443
686.20 0.3441
686.30 0.344
686.40 0.3438
686.50 0.3437
686.60 0.3435
686.70 0.3433
686.80 0.3432
686.90 0.343
687.00 0.3428
687.10 0.3427
687.20 0.3425
687.30 0.3423
687.40 0.3422
687.50 0.342
687.60 0.3418
687.70 0.3417
687.80 0.3415
687.90 0.3413
688.00 0.3412
688.10 0.341
688.20 0.3409
688.30 0.3407
688.40 0.3405
688.50 0.3404
688.60 0.3402
688.70 0.34
688.80 0.3399
688.90 0.3397
689.00 0.3395
689.10 0.3394
689.20 0.3392
689.30 0.339
689.40 0.3389
689.50 0.3387
689.60 0.3385
689.70 0.3384
689.80 0.3382
689.90 0.338
690.00 0.3379
690.10 0.3377
690.20 0.3376
690.30 0.3374
690.40 0.3372
690.50 0.3371
690.60 0.3369
690.70 0.3367
690.80 0.3366
690.90 0.3364
691.00 0.3362
691.10 0.3361
691.20 0.3359
691.30 0.3357
691.40 0.3356
691.50 0.3354
691.60 0.3352
691.70 0.3351
691.80 0.3349
691.90 0.3347
692.00 0.3346
692.10 0.3344
692.20 0.3343
692.30 0.3341
692.40 0.3339
692.50 0.3338
692.60 0.3336
692.70 0.3334
692.80 0.3333
692.90 0.3331
693.00 0.3329
693.10 0.3328
693.20 0.3326
693.30 0.3325
693.40 0.3323
693.50 0.3321
693.60 0.332
693.70 0.3318
693.80 0.3316
693.90 0.3315
694.00 0.3313
694.10 0.3312
694.20 0.331
694.30 0.3308
694.40 0.3307
694.50 0.3305
694.60 0.3303
694.70 0.3302
694.80 0.33
694.90 0.3299
695.00 0.3297
695.10 0.3295
695.20 0.3294
695.30 0.3292
695.40 0.329
695.50 0.3289
695.60 0.3287
695.70 0.3286
695.80 0.3284
695.90 0.3282
696.00 0.3281
696.10 0.3279
696.20 0.3278
696.30 0.3276
696.40 0.3274
696.50 0.3273
696.60 0.3271
696.70 0.327
696.80 0.3268
696.90 0.3266
697.00 0.3265
697.10 0.3263
697.20 0.3262
697.30 0.326
697.40 0.3258
697.50 0.3257
697.60 0.3255
697.70 0.3254
697.80 0.3252
697.90 0.325
698.00 0.3249
698.10 0.3247
698.20 0.3246
698.30 0.3244
698.40 0.3242
698.50 0.3241
698.60 0.3239
698.70 0.3238
698.80 0.3236
698.90 0.3234
699.00 0.3233
699.10 0.3231
699.20 0.323
699.30 0.3228
699.40 0.3226
699.50 0.3225
699.60 0.3223
699.70 0.3222
699.80 0.322
699.90 0.3219
700.00 0.3217
700.10 0.3215
700.20 0.3213
700.30 0.3212
700.40 0.321
700.50 0.3208
700.60 0.3206
700.70 0.3205
700.80 0.3203
700.90 0.3201
701.00 0.3199
701.10 0.3198
701.20 0.3196
701.30 0.3194
701.40 0.3192
701.50 0.3191
701.60 0.3189
701.70 0.3187
701.80 0.3185
701.90 0.3184
702.00 0.3182
702.10 0.318
702.20 0.3178
702.30 0.3177
702.40 0.3175
702.50 0.3173
702.60 0.3172
702.70 0.317
702.80 0.3168
702.90 0.3166
703.00 0.3165
703.10 0.3163
703.20 0.3161
703.30 0.3159
703.40 0.3158
703.50 0.3156
703.60 0.3154
703.70 0.3152
703.80 0.3151
703.90 0.3149
704.00 0.3147
704.10 0.3146
704.20 0.3144
704.30 0.3142
704.40 0.314
704.50 0.3139
704.60 0.3137
704.70 0.3135
704.80 0.3134
704.90 0.3132
705.00 0.313
705.10 0.3129
705.20 0.3127
705.30 0.3125
705.40 0.3124
705.50 0.3122
705.60 0.3121
705.70 0.3119
705.80 0.3118
705.90 0.3116
706.00 0.3115
706.10 0.3113
706.20 0.3112
706.30 0.311
706.40 0.3109
706.50 0.3107
706.60 0.3106
706.70 0.3104
706.80 0.3102
706.90 0.3101
707.00 0.3099
707.10 0.3098
707.20 0.3096
707.30 0.3095
707.40 0.3093
707.50 0.3092
707.60 0.309
707.70 0.3089
707.80 0.3087
707.90 0.3086
708.00 0.3084
708.10 0.3083
708.20 0.3081
708.30 0.308
708.40 0.3078
708.50 0.3077
708.60 0.3075
708.70 0.3074
708.80 0.3072
708.90 0.3071
709.00 0.3069
709.10 0.3067
709.20 0.3066
709.30 0.3064
709.40 0.3063
709.50 0.3061
709.60 0.306
709.70 0.3058
709.80 0.3057
709.90 0.3055
710.00 0.3054
710.10 0.3052
710.20 0.3051
710.30 0.3049
710.40 0.3048
710.50 0.3046
710.60 0.3045
710.70 0.3043
710.80 0.3042
710.90 0.304
711.00 0.3039
711.10 0.3037
711.20 0.3036
711.30 0.3034
711.40 0.3033
711.50 0.3032
711.60 0.303
711.70 0.3029
711.80 0.3027
711.90 0.3026
712.00 0.3024
712.10 0.3023
712.20 0.3021
712.30 0.302
712.40 0.3018
712.50 0.3017
712.60 0.3015
712.70 0.3014
712.80 0.3012
712.90 0.3011
713.00 0.3009
713.10 0.3008
713.20 0.3006
713.30 0.3005
713.40 0.3003
713.50 0.3002
713.60 0.3
713.70 0.2999
713.80 0.2997
713.90 0.2996
714.00 0.2995
714.10 0.2993
714.20 0.2992
714.30 0.299
714.40 0.2989
714.50 0.2987
714.60 0.2986
714.70 0.2984
714.80 0.2983
714.90 0.2981
715.00 0.298
715.10 0.2978
715.20 0.2977
715.30 0.2976
715.40 0.2974
715.50 0.2973
715.60 0.2971
715.70 0.297
715.80 0.2968
715.90 0.2967
716.00 0.2966
716.10 0.2964
716.20 0.2963
716.30 0.2961
716.40 0.296
716.50 0.2959
716.60 0.2957
716.70 0.2956
716.80 0.2954
716.90 0.2953
717.00 0.2951
717.10 0.295
717.20 0.2949
717.30 0.2947
717.40 0.2946
717.50 0.2944
717.60 0.2943
717.70 0.2942
717.80 0.294
717.90 0.2939
718.00 0.2937
718.10 0.2936
718.20 0.2934
718.30 0.2933
718.40 0.2932
718.50 0.293
718.60 0.2929
718.70 0.2927
718.80 0.2926
718.90 0.2925
719.00 0.2923
719.10 0.2922
719.20 0.292
719.30 0.2919
719.40 0.2918
719.50 0.2916
719.60 0.2915
719.70 0.2913
719.80 0.2912
719.90 0.2911
720.00 0.2909
720.10 0.2908
720.20 0.2906
720.30 0.2905
720.40 0.2904
720.50 0.2902
720.60 0.2901
720.70 0.2899
720.80 0.2898
720.90 0.2897
721.00 0.2895
721.10 0.2894
721.20 0.2892
721.30 0.2891
721.40 0.2889
721.50 0.2888
721.60 0.2887
721.70 0.2885
721.80 0.2884
721.90 0.2882
722.00 0.2881
722.10 0.288
722.20 0.2878
722.30 0.2877
722.40 0.2875
722.50 0.2874
722.60 0.2873
722.70 0.2871
722.80 0.287
722.90 0.2868
723.00 0.2867
723.10 0.2866
723.20 0.2864
723.30 0.2863
723.40 0.2861
723.50 0.286
723.60 0.2859
723.70 0.2857
723.80 0.2856
723.90 0.2854
724.00 0.2853
724.10 0.2852
724.20 0.285
724.30 0.2849
724.40 0.2847
724.50 0.2846
724.60 0.2845
724.70 0.2843
724.80 0.2842
724.90 0.2841
725.00 0.2839
725.10 0.2838
725.20 0.2836
725.30 0.2835
725.40 0.2834
725.50 0.2832
725.60 0.2831
725.70 0.283
725.80 0.2828
725.90 0.2827
726.00 0.2825
726.10 0.2824
726.20 0.2823
726.30 0.2821
726.40 0.282
726.50 0.2819
726.60 0.2817
726.70 0.2816
726.80 0.2814
726.90 0.2813
727.00 0.2812
727.10 0.281
727.20 0.2809
727.30 0.2808
727.40 0.2806
727.50 0.2805
727.60 0.2804
727.70 0.2802
727.80 0.2801
727.90 0.28
728.00 0.2798
728.10 0.2797
728.20 0.2795
728.30 0.2794
728.40 0.2793
728.50 0.2791
728.60 0.279
728.70 0.2789
728.80 0.2787
728.90 0.2786
729.00 0.2785
729.10 0.2783
729.20 0.2782
729.30 0.2781
729.40 0.2779
729.50 0.2778
729.60 0.2777
729.70 0.2775
729.80 0.2774
729.90 0.2772
730.00 0.2771
730.10 0.277
730.20 0.2768
730.30 0.2767
730.40 0.2766
730.50 0.2764
730.60 0.2763
730.70 0.2762
730.80 0.2761
730.90 0.2759
731.00 0.2758
731.10 0.2757
731.20 0.2755
731.30 0.2754
731.40 0.2753
731.50 0.2751
731.60 0.275
731.70 0.2749
731.80 0.2747
731.90 0.2746
732.00 0.2745
732.10 0.2743
732.20 0.2742
732.30 0.2741
732.40 0.2739
732.50 0.2738
732.60 0.2737
732.70 0.2735
732.80 0.2734
732.90 0.2733
733.00 0.2731
733.10 0.273
733.20 0.2729
733.30 0.2728
733.40 0.2726
733.50 0.2725
733.60 0.2724
733.70 0.2722
733.80 0.2721
733.90 0.272
734.00 0.2718
734.10 0.2717
734.20 0.2716
734.30 0.2714
734.40 0.2713
734.50 0.2712
734.60 0.2711
734.70 0.2709
734.80 0.2708
734.90 0.2707
735.00 0.2705
735.10 0.2704
735.20 0.2703
735.30 0.2701
735.40 0.27
735.50 0.2699
735.60 0.2698
735.70 0.2696
735.80 0.2695
735.90 0.2694
736.00 0.2692
736.10 0.2691
736.20 0.269
736.30 0.2689
736.40 0.2687
736.50 0.2686
736.60 0.2685
736.70 0.2683
736.80 0.2682
736.90 0.2681
737.00 0.2679
737.10 0.2678
737.20 0.2677
737.30 0.2676
737.40 0.2674
737.50 0.2673
737.60 0.2672
737.70 0.267
737.80 0.2669
737.90 0.2668
738.00 0.2667
738.10 0.2665
738.20 0.2664
738.30 0.2663
738.40 0.2662
738.50 0.266
738.60 0.2659
738.70 0.2658
738.80 0.2656
738.90 0.2655
739.00 0.2654
739.10 0.2653
739.20 0.2651
739.30 0.265
739.40 0.2649
739.50 0.2647
739.60 0.2646
739.70 0.2645
739.80 0.2644
739.90 0.2642
740.00 0.2641
740.10 0.264
740.20 0.2639
740.30 0.2637
740.40 0.2636
740.50 0.2635
740.60 0.2634
740.70 0.2632
740.80 0.2631
740.90 0.263
741.00 0.2629
741.10 0.2627
741.20 0.2626
741.30 0.2625
741.40 0.2624
741.50 0.2622
741.60 0.2621
741.70 0.262
741.80 0.2619
741.90 0.2617
742.00 0.2616
742.10 0.2615
742.20 0.2614
742.30 0.2612
742.40 0.2611
742.50 0.261
742.60 0.2609
742.70 0.2608
742.80 0.2606
742.90 0.2605
743.00 0.2604
743.10 0.2603
743.20 0.2601
743.30 0.26
743.40 0.2599
743.50 0.2598
743.60 0.2596
743.70 0.2595
743.80 0.2594
743.90 0.2593
744.00 0.2591
744.10 0.259
744.20 0.2589
744.30 0.2588
744.40 0.2587
744.50 0.2585
744.60 0.2584
744.70 0.2583
744.80 0.2582
744.90 0.258
745.00 0.2579
745.10 0.2578
745.20 0.2577
745.30 0.2576
745.40 0.2574
745.50 0.2573
745.60 0.2572
745.70 0.2571
745.80 0.2569
745.90 0.2568
746.00 0.2567
746.10 0.2566
746.20 0.2565
746.30 0.2563
746.40 0.2562
746.50 0.2561
746.60 0.256
746.70 0.2558
746.80 0.2557
746.90 0.2556
747.00 0.2555
747.10 0.2554
747.20 0.2552
747.30 0.2551
747.40 0.255
747.50 0.2549
747.60 0.2548
747.70 0.2546
747.80 0.2545
747.90 0.2544
748.00 0.2543
748.10 0.2542
748.20 0.254
748.30 0.2539
748.40 0.2538
748.50 0.2537
748.60 0.2536
748.70 0.2534
748.80 0.2533
748.90 0.2532
749.00 0.2531
749.10 0.2529
749.20 0.2528
749.30 0.2527
749.40 0.2526
749.50 0.2525
749.60 0.2523
749.70 0.2522
749.80 0.2521
749.90 0.252
750.00 0.2519
750.10 0.2518
750.20 0.2516
750.30 0.2515
750.40 0.2514
750.50 0.2513
750.60 0.2512
750.70 0.251
750.80 0.2509
750.90 0.2508
751.00 0.2507
751.10 0.2506
751.20 0.2505
751.30 0.2503
751.40 0.2502
751.50 0.2501
751.60 0.25
751.70 0.2499
751.80 0.2498
751.90 0.2496
752.00 0.2495
752.10 0.2494
752.20 0.2493
752.30 0.2492
752.40 0.2491
752.50 0.2489
752.60 0.2488
752.70 0.2487
752.80 0.2486
752.90 0.2485
753.00 0.2484
753.10 0.2482
753.20 0.2481
753.30 0.248
753.40 0.2479
753.50 0.2478
753.60 0.2477
753.70 0.2475
753.80 0.2474
753.90 0.2473
754.00 0.2472
754.10 0.2471
754.20 0.247
754.30 0.2468
754.40 0.2467
754.50 0.2466
754.60 0.2465
754.70 0.2464
754.80 0.2463
754.90 0.2462
755.00 0.246
755.10 0.2459
755.20 0.2458
755.30 0.2457
755.40 0.2456
755.50 0.2455
755.60 0.2453
755.70 0.2452
755.80 0.2451
755.90 0.245
756.00 0.2449
756.10 0.2448
756.20 0.2447
756.30 0.2445
756.40 0.2444
756.50 0.2443
756.60 0.2442
756.70 0.2441
756.80 0.244
756.90 0.2439
757.00 0.2437
757.10 0.2436
757.20 0.2435
757.30 0.2434
757.40 0.2433
757.50 0.2432
757.60 0.2431
757.70 0.2429
757.80 0.2428
757.90 0.2427
758.00 0.2426
758.10 0.2425
758.20 0.2424
758.30 0.2423
758.40 0.2421
758.50 0.242
758.60 0.2419
758.70 0.2418
758.80 0.2417
758.90 0.2416
759.00 0.2415
759.10 0.2414
759.20 0.2412
759.30 0.2411
759.40 0.241
759.50 0.2409
759.60 0.2408
759.70 0.2407
759.80 0.2406
759.90 0.2404
760.00 0.2403
760.10 0.2402
760.20 0.2401
760.30 0.24
760.40 0.2399
760.50 0.2398
760.60 0.2397
760.70 0.2396
760.80 0.2394
760.90 0.2393
761.00 0.2392
761.10 0.2391
761.20 0.239
761.30 0.2389
761.40 0.2388
761.50 0.2387
761.60 0.2386
761.70 0.2384
761.80 0.2383
761.90 0.2382
762.00 0.2381
762.10 0.238
762.20 0.2379
762.30 0.2378
762.40 0.2377
762.50 0.2376
762.60 0.2375
762.70 0.2373
762.80 0.2372
762.90 0.2371
763.00 0.237
763.10 0.2369
763.20 0.2368
763.30 0.2367
763.40 0.2366
763.50 0.2365
763.60 0.2364
763.70 0.2363
763.80 0.2361
763.90 0.236
764.00 0.2359
764.10 0.2358
764.20 0.2357
764.30 0.2356
764.40 0.2355
764.50 0.2354
764.60 0.2353
764.70 0.2352
764.80 0.2351
764.90 0.2349
765.00 0.2348
765.10 0.2347
765.20 0.2346
765.30 0.2345
765.40 0.2344
765.50 0.2343
765.60 0.2342
765.70 0.2341
765.80 0.234
765.90 0.2339
766.00 0.2337
766.10 0.2336
766.20 0.2335
766.30 0.2334
766.40 0.2333
766.50 0.2332
766.60 0.2331
766.70 0.233
766.80 0.2329
766.90 0.2328
767.00 0.2327
767.10 0.2326
767.20 0.2325
767.30 0.2323
767.40 0.2322
767.50 0.2321
767.60 0.232
767.70 0.2319
767.80 0.2318
767.90 0.2317
768.00 0.2316
768.10 0.2315
768.20 0.2314
768.30 0.2313
768.40 0.2312
768.50 0.2311
768.60 0.2309
768.70 0.2308
768.80 0.2307
768.90 0.2306
769.00 0.2305
769.10 0.2304
769.20 0.2303
769.30 0.2302
769.40 0.2301
769.50 0.23
769.60 0.2299
769.70 0.2298
769.80 0.2297
769.90 0.2296
770.00 0.2295
770.10 0.2294
770.20 0.2292
770.30 0.2291
770.40 0.229
770.50 0.2289
770.60 0.2288
770.70 0.2287
770.80 0.2286
770.90 0.2285
771.00 0.2284
771.10 0.2283
771.20 0.2282
771.30 0.2281
771.40 0.228
771.50 0.2279
771.60 0.2278
771.70 0.2277
771.80 0.2276
771.90 0.2275
772.00 0.2274
772.10 0.2273
772.20 0.2272
772.30 0.2271
772.40 0.2269
772.50 0.2268
772.60 0.2267
772.70 0.2266
772.80 0.2265
772.90 0.2264
773.00 0.2263
773.10 0.2262
773.20 0.2261
773.30 0.226
773.40 0.2259
773.50 0.2258
773.60 0.2257
773.70 0.2256
773.80 0.2255
773.90 0.2254
774.00 0.2253
774.10 0.2252
774.20 0.2251
774.30 0.225
774.40 0.2249
774.50 0.2248
774.60 0.2247
774.70 0.2246
774.80 0.2245
774.90 0.2244
775.00 0.2243
775.10 0.2242
775.20 0.2241
775.30 0.224
775.40 0.2239
775.50 0.2238
775.60 0.2236
775.70 0.2235
775.80 0.2234
775.90 0.2233
776.00 0.2232
776.10 0.2231
776.20 0.223
776.30 0.2229
776.40 0.2228
776.50 0.2227
776.60 0.2226
776.70 0.2225
776.80 0.2224
776.90 0.2223
777.00 0.2222
777.10 0.2221
777.20 0.222
777.30 0.2219
777.40 0.2218
777.50 0.2217
777.60 0.2216
777.70 0.2215
777.80 0.2214
777.90 0.2213
778.00 0.2212
778.10 0.2211
778.20 0.221
778.30 0.2209
778.40 0.2208
778.50 0.2207
778.60 0.2206
778.70 0.2205
778.80 0.2204
778.90 0.2203
779.00 0.2202
779.10 0.2201
779.20 0.22
779.30 0.2199
779.40 0.2198
779.50 0.2197
779.60 0.2196
779.70 0.2195
779.80 0.2194
779.90 0.2193
780.00 0.2192
780.10 0.2191
780.20 0.219
780.30 0.2189
780.40 0.2188
780.50 0.2187
780.60 0.2186
780.70 0.2185
780.80 0.2184
780.90 0.2183
781.00 0.2182
781.10 0.2181
781.20 0.218
781.30 0.2179
781.40 0.2178
781.50 0.2177
781.60 0.2176
781.70 0.2175
781.80 0.2174
781.90 0.2173
782.00 0.2172
782.10 0.2171
782.20 0.217
782.30 0.2169
782.40 0.2168
782.50 0.2167
782.60 0.2166
782.70 0.2165
782.80 0.2164
782.90 0.2163
783.00 0.2162
783.10 0.2161
783.20 0.216
783.30 0.2159
783.40 0.2158
783.50 0.2157
783.60 0.2156
783.70 0.2155
783.80 0.2155
783.90 0.2154
784.00 0.2153
784.10 0.2152
784.20 0.2151
784.30 0.215
784.40 0.2149
784.50 0.2148
784.60 0.2147
784.70 0.2146
784.80 0.2145
784.90 0.2144
785.00 0.2143
785.10 0.2142
785.20 0.2141
785.30 0.214
785.40 0.2139
785.50 0.2138
785.60 0.2137
785.70 0.2136
785.80 0.2135
785.90 0.2134
786.00 0.2133
786.10 0.2132
786.20 0.2131
786.30 0.213
786.40 0.2129
786.50 0.2128
786.60 0.2127
786.70 0.2126
786.80 0.2125
786.90 0.2125
787.00 0.2124
787.10 0.2123
787.20 0.2122
787.30 0.2121
787.40 0.212
787.50 0.2119
787.60 0.2118
787.70 0.2117
787.80 0.2116
787.90 0.2115
788.00 0.2114
788.10 0.2113
788.20 0.2112
788.30 0.2111
788.40 0.211
788.50 0.2109
788.60 0.2108
788.70 0.2107
788.80 0.2106
788.90 0.2105
789.00 0.2104
789.10 0.2103
789.20 0.2103
789.30 0.2102
789.40 0.2101
789.50 0.21
789.60 0.2099
789.70 0.2098
789.80 0.2097
789.90 0.2096
790.00 0.2095
790.10 0.2094
790.20 0.2093
790.30 0.2092
790.40 0.2091
790.50 0.209
790.60 0.2089
790.70 0.2088
790.80 0.2087
790.90 0.2086
791.00 0.2086
791.10 0.2085
791.20 0.2084
791.30 0.2083
791.40 0.2082
791.50 0.2081
791.60 0.208
791.70 0.2079
791.80 0.2078
791.90 0.2077
792.00 0.2076
792.10 0.2075
792.20 0.2074
792.30 0.2073
792.40 0.2073
792.50 0.2072
792.60 0.2071
792.70 0.207
792.80 0.2069
792.90 0.2068
793.00 0.2067
793.10 0.2066
793.20 0.2065
793.30 0.2064
793.40 0.2063
793.50 0.2062
793.60 0.2061
793.70 0.2061
793.80 0.206
793.90 0.2059
794.00 0.2058
794.10 0.2057
794.20 0.2056
794.30 0.2055
794.40 0.2054
794.50 0.2053
794.60 0.2052
794.70 0.2051
794.80 0.205
794.90 0.205
795.00 0.2049
795.10 0.2048
795.20 0.2047
795.30 0.2046
795.40 0.2045
795.50 0.2044
795.60 0.2043
795.70 0.2042
795.80 0.2041
795.90 0.204
796.00 0.2039
796.10 0.2039
796.20 0.2038
796.30 0.2037
796.40 0.2036
796.50 0.2035
796.60 0.2034
796.70 0.2033
796.80 0.2032
796.90 0.2031
797.00 0.203
797.10 0.2029
797.20 0.2029
797.30 0.2028
797.40 0.2027
797.50 0.2026
797.60 0.2025
797.70 0.2024
797.80 0.2023
797.90 0.2022
798.00 0.2021
798.10 0.202
798.20 0.2019
798.30 0.2019
798.40 0.2018
798.50 0.2017
798.60 0.2016
798.70 0.2015
798.80 0.2014
798.90 0.2013
799.00 0.2012
799.10 0.2011
799.20 0.201
799.30 0.201
799.40 0.2009
799.50 0.2008
799.60 0.2007
799.70 0.2006
799.80 0.2005
799.90 0.2004
800.00 0.2003
800.10 0.2002
800.20 0.2002
800.30 0.2001
800.40 0.2
800.50 0.1999
800.60 0.1998
800.70 0.1997
800.80 0.1996
800.90 0.1995
801.00 0.1994
801.10 0.1994
801.20 0.1993
801.30 0.1992
801.40 0.1991
801.50 0.199
801.60 0.1989
801.70 0.1988
801.80 0.1987
801.90 0.1987
802.00 0.1986
802.10 0.1985
802.20 0.1984
802.30 0.1983
802.40 0.1982
802.50 0.1981
802.60 0.198
802.70 0.198
802.80 0.1979
802.90 0.1978
803.00 0.1977
803.10 0.1976
803.20 0.1975
803.30 0.1974
803.40 0.1973
803.50 0.1973
803.60 0.1972
803.70 0.1971
803.80 0.197
803.90 0.1969
804.00 0.1968
804.10 0.1967
804.20 0.1966
804.30 0.1966
804.40 0.1965
804.50 0.1964
804.60 0.1963
804.70 0.1962
804.80 0.1961
804.90 0.196
805.00 0.196
805.10 0.1959
805.20 0.1958
805.30 0.1957
805.40 0.1956
805.50 0.1955
805.60 0.1954
805.70 0.1953
805.80 0.1953
805.90 0.1952
806.00 0.1951
806.10 0.195
806.20 0.1949
806.30 0.1948
806.40 0.1947
806.50 0.1947
806.60 0.1946
806.70 0.1945
806.80 0.1944
806.90 0.1943
807.00 0.1942
807.10 0.1941
807.20 0.1941
807.30 0.194
807.40 0.1939
807.50 0.1938
807.60 0.1937
807.70 0.1936
807.80 0.1935
807.90 0.1935
808.00 0.1934
808.10 0.1933
808.20 0.1932
808.30 0.1931
808.40 0.193
808.50 0.1929
808.60 0.1929
808.70 0.1928
808.80 0.1927
808.90 0.1926
809.00 0.1925
809.10 0.1924
809.20 0.1923
809.30 0.1923
809.40 0.1922
809.50 0.1921
809.60 0.192
809.70 0.1919
809.80 0.1918
809.90 0.1917
810.00 0.1917
810.10 0.1916
810.20 0.1915
810.30 0.1914
810.40 0.1913
810.50 0.1912
810.60 0.1912
810.70 0.1911
810.80 0.191
810.90 0.1909
811.00 0.1908
811.10 0.1907
811.20 0.1907
811.30 0.1906
811.40 0.1905
811.50 0.1904
811.60 0.1903
811.70 0.1902
811.80 0.1902
811.90 0.1901
812.00 0.19
812.10 0.1899
812.20 0.1898
812.30 0.1897
812.40 0.1897
812.50 0.1896
812.60 0.1895
812.70 0.1894
812.80 0.1893
812.90 0.1893
813.00 0.1892
813.10 0.1891
813.20 0.189
813.30 0.1889
813.40 0.1888
813.50 0.1888
813.60 0.1887
813.70 0.1886
813.80 0.1885
813.90 0.1884
814.00 0.1883
814.10 0.1883
814.20 0.1882
814.30 0.1881
814.40 0.188
814.50 0.1879
814.60 0.1878
814.70 0.1878
814.80 0.1877
814.90 0.1876
815.00 0.1875
815.10 0.1874
815.20 0.1874
815.30 0.1873
815.40 0.1872
815.50 0.1871
815.60 0.187
815.70 0.1869
815.80 0.1869
815.90 0.1868
816.00 0.1867
816.10 0.1866
816.20 0.1865
816.30 0.1865
816.40 0.1864
816.50 0.1863
816.60 0.1862
816.70 0.1861
816.80 0.1861
816.90 0.186
817.00 0.1859
817.10 0.1858
817.20 0.1857
817.30 0.1856
817.40 0.1856
817.50 0.1855
817.60 0.1854
817.70 0.1853
817.80 0.1852
817.90 0.1852
818.00 0.1851
818.10 0.185
818.20 0.1849
818.30 0.1848
818.40 0.1848
818.50 0.1847
818.60 0.1846
818.70 0.1845
818.80 0.1844
818.90 0.1844
819.00 0.1843
819.10 0.1842
819.20 0.1841
819.30 0.184
819.40 0.1839
819.50 0.1839
819.60 0.1838
819.70 0.1837
819.80 0.1836
819.90 0.1835
820.00 0.1835
820.10 0.1834
820.20 0.1833
820.30 0.1832
820.40 0.1832
820.50 0.1831
820.60 0.183
820.70 0.1829
820.80 0.1828
820.90 0.1828
821.00 0.1827
821.10 0.1826
821.20 0.1825
821.30 0.1824
821.40 0.1824
821.50 0.1823
821.60 0.1822
821.70 0.1821
821.80 0.182
821.90 0.182
822.00 0.1819
822.10 0.1818
822.20 0.1817
822.30 0.1816
822.40 0.1816
822.50 0.1815
822.60 0.1814
822.70 0.1813
822.80 0.1813
822.90 0.1812
823.00 0.1811
823.10 0.181
823.20 0.1809
823.30 0.1809
823.40 0.1808
823.50 0.1807
823.60 0.1806
823.70 0.1806
823.80 0.1805
823.90 0.1804
824.00 0.1803
824.10 0.1802
824.20 0.1802
824.30 0.1801
824.40 0.18
824.50 0.1799
824.60 0.1798
824.70 0.1798
824.80 0.1797
824.90 0.1796
825.00 0.1795
825.10 0.1795
825.20 0.1794
825.30 0.1793
825.40 0.1792
825.50 0.1792
825.60 0.1791
825.70 0.179
825.80 0.1789
825.90 0.1788
826.00 0.1788
826.10 0.1787
826.20 0.1786
826.30 0.1785
826.40 0.1785
826.50 0.1784
826.60 0.1783
826.70 0.1782
826.80 0.1781
826.90 0.1781
827.00 0.178
827.10 0.1779
827.20 0.1778
827.30 0.1778
827.40 0.1777
827.50 0.1776
827.60 0.1775
827.70 0.1775
827.80 0.1774
827.90 0.1773
828.00 0.1772
828.10 0.1772
828.20 0.1771
828.30 0.177
828.40 0.1769
828.50 0.1768
828.60 0.1768
828.70 0.1767
828.80 0.1766
828.90 0.1765
829.00 0.1765
829.10 0.1764
829.20 0.1763
829.30 0.1762
829.40 0.1762
829.50 0.1761
829.60 0.176
829.70 0.1759
829.80 0.1759
829.90 0.1758
830.00 0.1757
830.10 0.1756
830.20 0.1756
830.30 0.1755
830.40 0.1754
830.50 0.1753
830.60 0.1753
830.70 0.1752
830.80 0.1751
830.90 0.175
831.00 0.175
831.10 0.1749
831.20 0.1748
831.30 0.1747
831.40 0.1747
831.50 0.1746
831.60 0.1745
831.70 0.1744
831.80 0.1744
831.90 0.1743
832.00 0.1742
832.10 0.1741
832.20 0.1741
832.30 0.174
832.40 0.1739
832.50 0.1738
832.60 0.1738
832.70 0.1737
832.80 0.1736
832.90 0.1735
833.00 0.1735
833.10 0.1734
833.20 0.1733
833.30 0.1732
833.40 0.1732
833.50 0.1731
833.60 0.173
833.70 0.1729
833.80 0.1729
833.90 0.1728
834.00 0.1727
834.10 0.1726
834.20 0.1726
834.30 0.1725
834.40 0.1724
834.50 0.1724
834.60 0.1723
834.70 0.1722
834.80 0.1721
834.90 0.1721
835.00 0.172
835.10 0.1719
835.20 0.1718
835.30 0.1718
835.40 0.1717
835.50 0.1716
835.60 0.1715
835.70 0.1715
835.80 0.1714
835.90 0.1713
836.00 0.1712
836.10 0.1712
836.20 0.1711
836.30 0.171
836.40 0.171
836.50 0.1709
836.60 0.1708
836.70 0.1707
836.80 0.1707
836.90 0.1706
837.00 0.1705
837.10 0.1704
837.20 0.1704
837.30 0.1703
837.40 0.1702
837.50 0.1702
837.60 0.1701
837.70 0.17
837.80 0.1699
837.90 0.1699
838.00 0.1698
838.10 0.1697
838.20 0.1696
838.30 0.1696
838.40 0.1695
838.50 0.1694
838.60 0.1694
838.70 0.1693
838.80 0.1692
838.90 0.1691
839.00 0.1691
839.10 0.169
839.20 0.1689
839.30 0.1689
839.40 0.1688
839.50 0.1687
839.60 0.1686
839.70 0.1686
839.80 0.1685
839.90 0.1684
840.00 0.1684
840.10 0.1683
840.20 0.1682
840.30 0.1681
840.40 0.1681
840.50 0.168
840.60 0.1679
840.70 0.1679
840.80 0.1678
840.90 0.1677
841.00 0.1676
841.10 0.1676
841.20 0.1675
841.30 0.1674
841.40 0.1674
841.50 0.1673
841.60 0.1672
841.70 0.1671
841.80 0.1671
841.90 0.167
842.00 0.1669
842.10 0.1669
842.20 0.1668
842.30 0.1667
842.40 0.1666
842.50 0.1666
842.60 0.1665
842.70 0.1664
842.80 0.1664
842.90 0.1663
843.00 0.1662
843.10 0.1662
843.20 0.1661
843.30 0.166
843.40 0.1659
843.50 0.1659
843.60 0.1658
843.70 0.1657
843.80 0.1657
843.90 0.1656
844.00 0.1655
844.10 0.1655
844.20 0.1654
844.30 0.1653
844.40 0.1652
844.50 0.1652
844.60 0.1651
844.70 0.165
844.80 0.165
844.90 0.1649
845.00 0.1648
845.10 0.1648
845.20 0.1647
845.30 0.1646
845.40 0.1645
845.50 0.1645
845.60 0.1644
845.70 0.1643
845.80 0.1643
845.90 0.1642
846.00 0.1641
846.10 0.1641
846.20 0.164
846.30 0.1639
846.40 0.1639
846.50 0.1638
846.60 0.1637
846.70 0.1636
846.80 0.1636
846.90 0.1635
847.00 0.1634
847.10 0.1634
847.20 0.1633
847.30 0.1632
847.40 0.1632
847.50 0.1631
847.60 0.163
847.70 0.163
847.80 0.1629
847.90 0.1629
848.00 0.1628
848.10 0.1627
848.20 0.1627
848.30 0.1626
848.40 0.1625
848.50 0.1625
848.60 0.1624
848.70 0.1623
848.80 0.1623
848.90 0.1622
849.00 0.1621
849.10 0.1621
849.20 0.162
849.30 0.162
849.40 0.1619
849.50 0.1618
849.60 0.1618
849.70 0.1617
849.80 0.1616
849.90 0.1616
850.00 0.1615
850.10 0.1614
850.20 0.1614
850.30 0.1613
850.40 0.1612
850.50 0.1612
850.60 0.1611
850.70 0.1611
850.80 0.161
850.90 0.1609
851.00 0.1609
851.10 0.1608
851.20 0.1607
851.30 0.1607
851.40 0.1606
851.50 0.1605
851.60 0.1605
851.70 0.1604
851.80 0.1604
851.90 0.1603
852.00 0.1602
852.10 0.1602
852.20 0.1601
852.30 0.16
852.40 0.16
852.50 0.1599
852.60 0.1599
852.70 0.1598
852.80 0.1597
852.90 0.1597
853.00 0.1596
853.10 0.1595
853.20 0.1595
853.30 0.1594
853.40 0.1594
853.50 0.1593
853.60 0.1592
853.70 0.1592
853.80 0.1591
853.90 0.159
854.00 0.159
854.10 0.1589
854.20 0.1589
854.30 0.1588
854.40 0.1587
854.50 0.1587
854.60 0.1586
854.70 0.1585
854.80 0.1585
854.90 0.1584
855.00 0.1584
855.10 0.1583
855.20 0.1582
855.30 0.1582
855.40 0.1581
855.50 0.158
855.60 0.158
855.70 0.1579
855.80 0.1579
855.90 0.1578
856.00 0.1577
856.10 0.1577
856.20 0.1576
856.30 0.1576
856.40 0.1575
856.50 0.1574
856.60 0.1574
856.70 0.1573
856.80 0.1572
856.90 0.1572
857.00 0.1571
857.10 0.1571
857.20 0.157
857.30 0.1569
857.40 0.1569
857.50 0.1568
857.60 0.1568
857.70 0.1567
857.80 0.1567
857.90 0.1566
858.00 0.1565
858.10 0.1565
858.20 0.1564
858.30 0.1564
858.40 0.1563
858.50 0.1562
858.60 0.1562
858.70 0.1561
858.80 0.1561
858.90 0.156
859.00 0.1559
859.10 0.1559
859.20 0.1558
859.30 0.1558
859.40 0.1557
859.50 0.1557
859.60 0.1556
859.70 0.1555
859.80 0.1555
859.90 0.1554
860.00 0.1554
860.10 0.1553
860.20 0.1552
860.30 0.1552
860.40 0.1551
860.50 0.1551
860.60 0.155
860.70 0.155
860.80 0.1549
860.90 0.1548
861.00 0.1548
861.10 0.1547
861.20 0.1547
861.30 0.1546
861.40 0.1546
861.50 0.1545
861.60 0.1544
861.70 0.1544
861.80 0.1543
861.90 0.1543
862.00 0.1542
862.10 0.1541
862.20 0.1541
862.30 0.154
862.40 0.154
862.50 0.1539
862.60 0.1539
862.70 0.1538
862.80 0.1537
862.90 0.1537
863.00 0.1536
863.10 0.1536
863.20 0.1535
863.30 0.1535
863.40 0.1534
863.50 0.1533
863.60 0.1533
863.70 0.1532
863.80 0.1532
863.90 0.1531
864.00 0.1531
864.10 0.153
864.20 0.1529
864.30 0.1529
864.40 0.1528
864.50 0.1528
864.60 0.1527
864.70 0.1526
864.80 0.1526
864.90 0.1525
865.00 0.1525
865.10 0.1524
865.20 0.1524
865.30 0.1523
865.40 0.1522
865.50 0.1522
865.60 0.1521
865.70 0.1521
865.80 0.152
865.90 0.152
866.00 0.1519
866.10 0.1518
866.20 0.1518
866.30 0.1517
866.40 0.1517
866.50 0.1516
866.60 0.1516
866.70 0.1515
866.80 0.1514
866.90 0.1514
867.00 0.1513
867.10 0.1513
867.20 0.1512
867.30 0.1512
867.40 0.1511
867.50 0.1511
867.60 0.151
867.70 0.151
867.80 0.151
867.90 0.1509
868.00 0.1509
868.10 0.1508
868.20 0.1508
868.30 0.1507
868.40 0.1507
868.50 0.1506
868.60 0.1506
868.70 0.1505
868.80 0.1505
868.90 0.1504
869.00 0.1504
869.10 0.1503
869.20 0.1503
869.30 0.1502
869.40 0.1502
869.50 0.1501
869.60 0.1501
869.70 0.1501
869.80 0.15
869.90 0.15
870.00 0.1499
870.10 0.1499
870.20 0.1498
870.30 0.1498
870.40 0.1497
870.50 0.1497
870.60 0.1496
870.70 0.1496
870.80 0.1495
870.90 0.1495
871.00 0.1494
871.10 0.1494
871.20 0.1493
871.30 0.1493
871.40 0.1493
871.50 0.1492
871.60 0.1492
871.70 0.1491
871.80 0.1491
871.90 0.149
872.00 0.149
872.10 0.1489
872.20 0.1489
872.30 0.1488
872.40 0.1488
872.50 0.1487
872.60 0.1487
872.70 0.1486
872.80 0.1486
872.90 0.1485
873.00 0.1484
873.10 0.1484
873.20 0.1483
873.30 0.1483
873.40 0.1482
873.50 0.1482
873.60 0.1481
873.70 0.1481
873.80 0.148
873.90 0.148
874.00 0.1479
874.10 0.1479
874.20 0.1478
874.30 0.1478
874.40 0.1477
874.50 0.1477
874.60 0.1476
874.70 0.1476
874.80 0.1475
874.90 0.1475
875.00 0.1474
875.10 0.1474
875.20 0.1473
875.30 0.1473
875.40 0.1472
875.50 0.1472
875.60 0.1471
875.70 0.1471
875.80 0.147
875.90 0.147
876.00 0.1469
876.10 0.1469
876.20 0.1468
876.30 0.1468
876.40 0.1467
876.50 0.1466
876.60 0.1466
876.70 0.1465
876.80 0.1465
876.90 0.1464
877.00 0.1464
877.10 0.1464
877.20 0.1463
877.30 0.1463
877.40 0.1462
877.50 0.1462
877.60 0.1462
877.70 0.1461
877.80 0.1461
877.90 0.146
878.00 0.146
878.10 0.1459
878.20 0.1459
878.30 0.1459
878.40 0.1458
878.50 0.1458
878.60 0.1457
878.70 0.1457
878.80 0.1457
878.90 0.1456
879.00 0.1456
879.10 0.1455
879.20 0.1455
879.30 0.1455
879.40 0.1454
879.50 0.1454
879.60 0.1453
879.70 0.1453
879.80 0.1453
879.90 0.1452
880.00 0.1452
880.10 0.1451
880.20 0.1451
880.30 0.1451
880.40 0.145
880.50 0.145
880.60 0.1449
880.70 0.1449
880.80 0.1449
880.90 0.1448
881.00 0.1448
881.10 0.1447
881.20 0.1447
881.30 0.1447
881.40 0.1446
881.50 0.1446
881.60 0.1445
881.70 0.1445
881.80 0.1445
881.90 0.1444
882.00 0.1444
882.10 0.1443
882.20 0.1442
882.30 0.1442
882.40 0.1441
882.50 0.144
882.60 0.1439
882.70 0.1438
882.80 0.1438
882.90 0.1437
883.00 0.1436
883.10 0.1435
883.20 0.1434
883.30 0.1434
883.40 0.1433
883.50 0.1432
883.60 0.1431
883.70 0.143
883.80 0.143
883.90 0.1429
884.00 0.1428
884.10 0.1427
884.20 0.1427
884.30 0.1426
884.40 0.1425
884.50 0.1424
884.60 0.1423
884.70 0.1423
884.80 0.1422
884.90 0.1421
885.00 0.142
885.10 0.1419
885.20 0.1419
885.30 0.1418
885.40 0.1417
885.50 0.1416
885.60 0.1416
885.70 0.1415
885.80 0.1414
885.90 0.1413
886.00 0.1412
886.10 0.1412
886.20 0.1411
886.30 0.141
886.40 0.1409
886.50 0.1409
886.60 0.1408
886.70 0.1407
886.80 0.1406
886.90 0.1405
887.00 0.1405
887.10 0.1405
887.20 0.1405
887.30 0.1404
887.40 0.1404
887.50 0.1404
887.60 0.1404
887.70 0.1404
887.80 0.1404
887.90 0.1404
888.00 0.1404
888.10 0.1404
888.20 0.1404
888.30 0.1404
888.40 0.1404
888.50 0.1403
888.60 0.1403
888.70 0.1403
888.80 0.1403
888.90 0.1403
889.00 0.1403
889.10 0.1403
889.20 0.1403
889.30 0.1403
889.40 0.1403
889.50 0.1403
889.60 0.1403
889.70 0.1402
889.80 0.1402
889.90 0.1402
890.00 0.1402
890.10 0.1402
890.20 0.1402
890.30 0.1402
890.40 0.1402
890.50 0.1402
890.60 0.1402
890.70 0.1402
890.80 0.1402
890.90 0.1401
891.00 0.1401
891.10 0.1401
891.20 0.1401
891.30 0.1401
891.40 0.1401
891.50 0.1401
891.60 0.1401
891.70 0.1401
891.80 0.1401
891.90 0.1401
892.00 0.1401
892.10 0.14
892.20 0.14
892.30 0.1399
892.40 0.1399
892.50 0.1398
892.60 0.1398
892.70 0.1397
892.80 0.1397
892.90 0.1396
893.00 0.1396
893.10 0.1395
893.20 0.1395
893.30 0.1394
893.40 0.1394
893.50 0.1393
893.60 0.1393
893.70 0.1392
893.80 0.1392
893.90 0.1391
894.00 0.1391
894.10 0.139
894.20 0.139
894.30 0.1389
894.40 0.1389
894.50 0.1388
894.60 0.1388
894.70 0.1387
894.80 0.1387
894.90 0.1386
895.00 0.1386
895.10 0.1385
895.20 0.1385
895.30 0.1385
895.40 0.1384
895.50 0.1384
895.60 0.1383
895.70 0.1383
895.80 0.1382
895.90 0.1382
896.00 0.1381
896.10 0.1381
896.20 0.138
896.30 0.138
896.40 0.1379
896.50 0.1379
896.60 0.1378
896.70 0.1378
896.80 0.1377
896.90 0.1377
897.00 0.1376
897.10 0.1375
897.20 0.1374
897.30 0.1372
897.40 0.1371
897.50 0.1369
897.60 0.1368
897.70 0.1366
897.80 0.1365
897.90 0.1363
898.00 0.1362
898.10 0.1361
898.20 0.1359
898.30 0.1358
898.40 0.1356
898.50 0.1355
898.60 0.1353
898.70 0.1352
898.80 0.1351
898.90 0.1349
899.00 0.1348
899.10 0.1346
899.20 0.1345
899.30 0.1343
899.40 0.1342
899.50 0.1341
899.60 0.1339
899.70 0.1338
899.80 0.1336
899.90 0.1335
900.00 0.1333
900.10 0.1332
900.20 0.1331
900.30 0.1329
900.40 0.1328
900.50 0.1326
900.60 0.1325
900.70 0.1324
900.80 0.1322
900.90 0.1321
901.00 0.1319
901.10 0.1318
901.20 0.1316
901.30 0.1315
901.40 0.1314
901.50 0.1312
901.60 0.1311
901.70 0.1309
901.80 0.1308
901.90 0.1307
902.00 0.1305
902.10 0.1305
902.20 0.1306
902.30 0.1306
902.40 0.1307
902.50 0.1307
902.60 0.1307
902.70 0.1308
902.80 0.1308
902.90 0.1308
903.00 0.1309
903.10 0.1309
903.20 0.1309
903.30 0.131
903.40 0.131
903.50 0.131
903.60 0.1311
903.70 0.1311
903.80 0.1312
903.90 0.1312
904.00 0.1312
904.10 0.1313
904.20 0.1313
904.30 0.1313
904.40 0.1314
904.50 0.1314
904.60 0.1314
904.70 0.1315
904.80 0.1315
904.90 0.1315
905.00 0.1316
905.10 0.1316
905.20 0.1316
905.30 0.1317
905.40 0.1317
905.50 0.1317
905.60 0.1318
905.70 0.1318
905.80 0.1319
905.90 0.1319
906.00 0.1319
906.10 0.132
906.20 0.132
906.30 0.132
906.40 0.1321
906.50 0.1321
906.60 0.1321
906.70 0.1322
906.80 0.1322
906.90 0.1322
907.00 0.1323
907.10 0.1323
907.20 0.1322
907.30 0.1322
907.40 0.1322
907.50 0.1322
907.60 0.1322
907.70 0.1322
907.80 0.1321
907.90 0.1321
908.00 0.1321
908.10 0.1321
908.20 0.1321
908.30 0.1321
908.40 0.132
908.50 0.132
908.60 0.132
908.70 0.132
908.80 0.132
908.90 0.132
909.00 0.1319
909.10 0.1319
909.20 0.1319
909.30 0.1319
909.40 0.1319
909.50 0.1319
909.60 0.1318
909.70 0.1318
909.80 0.1318
909.90 0.1318
910.00 0.1318
910.10 0.1318
910.20 0.1317
910.30 0.1317
910.40 0.1317
910.50 0.1317
910.60 0.1317
910.70 0.1317
910.80 0.1316
910.90 0.1316
911.00 0.1316
911.10 0.1316
911.20 0.1316
911.30 0.1316
911.40 0.1315
911.50 0.1315
911.60 0.1315
911.70 0.1315
911.80 0.1315
911.90 0.1315
912.00 0.1314
912.10 0.1314
912.20 0.1313
912.30 0.1312
912.40 0.1311
912.50 0.131
912.60 0.1309
912.70 0.1309
912.80 0.1308
912.90 0.1307
913.00 0.1306
913.10 0.1305
913.20 0.1304
913.30 0.1304
913.40 0.1303
913.50 0.1302
913.60 0.1301
913.70 0.13
913.80 0.1299
913.90 0.1299
914.00 0.1298
914.10 0.1297
914.20 0.1296
914.30 0.1295
914.40 0.1294
914.50 0.1294
914.60 0.1293
914.70 0.1292
914.80 0.1291
914.90 0.129
915.00 0.129
915.10 0.1289
915.20 0.1288
915.30 0.1287
915.40 0.1286
915.50 0.1285
915.60 0.1285
915.70 0.1284
915.80 0.1283
915.90 0.1282
916.00 0.1281
916.10 0.1281
916.20 0.128
916.30 0.1279
916.40 0.1278
916.50 0.1277
916.60 0.1276
916.70 0.1276
916.80 0.1275
916.90 0.1274
917.00 0.1273
917.10 0.1271
917.20 0.127
917.30 0.1268
917.40 0.1266
917.50 0.1264
917.60 0.1262
917.70 0.1261
917.80 0.1259
917.90 0.1257
918.00 0.1255
918.10 0.1254
918.20 0.1252
918.30 0.125
918.40 0.1248
918.50 0.1246
918.60 0.1245
918.70 0.1243
918.80 0.1241
918.90 0.1239
919.00 0.1238
919.10 0.1236
919.20 0.1234
919.30 0.1232
919.40 0.1231
919.50 0.1229
919.60 0.1227
919.70 0.1225
919.80 0.1223
919.90 0.1222
920.00 0.122
920.10 0.1218
920.20 0.1216
920.30 0.1215
920.40 0.1213
920.50 0.1211
920.60 0.1209
920.70 0.1208
920.80 0.1206
920.90 0.1204
921.00 0.1202
921.10 0.1201
921.20 0.1199
921.30 0.1197
921.40 0.1195
921.50 0.1194
921.60 0.1192
921.70 0.119
921.80 0.1188
921.90 0.1187
922.00 0.1185
922.10 0.1184
922.20 0.1183
922.30 0.1183
922.40 0.1182
922.50 0.1181
922.60 0.118
922.70 0.118
922.80 0.1179
922.90 0.1178
923.00 0.1178
923.10 0.1177
923.20 0.1176
923.30 0.1175
923.40 0.1175
923.50 0.1174
923.60 0.1173
923.70 0.1172
923.80 0.1172
923.90 0.1171
924.00 0.117
924.10 0.117
924.20 0.1169
924.30 0.1168
924.40 0.1167
924.50 0.1167
924.60 0.1166
924.70 0.1165
924.80 0.1164
924.90 0.1164
925.00 0.1163
925.10 0.1162
925.20 0.1162
925.30 0.1161
925.40 0.116
925.50 0.1159
925.60 0.1159
925.70 0.1158
925.80 0.1157
925.90 0.1157
926.00 0.1156
926.10 0.1155
926.20 0.1154
926.30 0.1154
926.40 0.1153
926.50 0.1152
926.60 0.1152
926.70 0.1151
926.80 0.115
926.90 0.1149
927.00 0.1149
927.10 0.1149
927.20 0.115
927.30 0.1151
927.40 0.1152
927.50 0.1153
927.60 0.1154
927.70 0.1155
927.80 0.1155
927.90 0.1156
928.00 0.1157
928.10 0.1158
928.20 0.1159
928.30 0.116
928.40 0.1161
928.50 0.1161
928.60 0.1162
928.70 0.1163
928.80 0.1164
928.90 0.1165
929.00 0.1166
929.10 0.1166
929.20 0.1167
929.30 0.1168
929.40 0.1169
929.50 0.117
929.60 0.1171
929.70 0.1172
929.80 0.1172
929.90 0.1173
930.00 0.1174
930.10 0.1175
930.20 0.1176
930.30 0.1177
930.40 0.1177
930.50 0.1178
930.60 0.1179
930.70 0.118
930.80 0.1181
930.90 0.1182
931.00 0.1182
931.10 0.1183
931.20 0.1184
931.30 0.1185
931.40 0.1186
931.50 0.1187
931.60 0.1187
931.70 0.1188
931.80 0.1189
931.90 0.119
932.00 0.1191
932.10 0.1191
932.20 0.1191
932.30 0.1191
932.40 0.1192
932.50 0.1192
932.60 0.1192
932.70 0.1192
932.80 0.1192
932.90 0.1193
933.00 0.1193
933.10 0.1193
933.20 0.1193
933.30 0.1194
933.40 0.1194
933.50 0.1194
933.60 0.1194
933.70 0.1194
933.80 0.1195
933.90 0.1195
934.00 0.1195
934.10 0.1195
934.20 0.1195
934.30 0.1196
934.40 0.1195
934.50 0.1195
934.60 0.1195
934.70 0.1195
934.80 0.1195
934.90 0.1195
935.00 0.1195
935.10 0.1195
935.20 0.1194
935.30 0.1194
935.40 0.1194
935.50 0.1194
935.60 0.1194
935.70 0.1194
935.80 0.1194
935.90 0.1193
936.00 0.1193
936.10 0.1193
936.20 0.1193
936.30 0.1193
936.40 0.1193
936.50 0.1193
936.60 0.1193
936.70 0.1192
936.80 0.1192
936.90 0.1192
937.00 0.1192
937.10 0.1192
937.20 0.1191
937.30 0.1191
937.40 0.1191
937.50 0.119
937.60 0.119
937.70 0.1189
937.80 0.1189
937.90 0.1189
938.00 0.1188
938.10 0.1188
938.20 0.1188
938.30 0.1187
938.40 0.1187
938.50 0.1186
938.60 0.1186
938.70 0.1185
938.80 0.1185
938.90 0.1184
939.00 0.1183
939.10 0.1183
939.20 0.1182
939.30 0.1182
939.40 0.1181
939.50 0.1181
939.60 0.118
939.70 0.118
939.80 0.1179
939.90 0.1179
940.00 0.1178
940.10 0.1177
940.20 0.1177
940.30 0.1176
940.40 0.1176
940.50 0.1175
940.60 0.1174
940.70 0.1173
940.80 0.1172
940.90 0.1172
941.00 0.1171
941.10 0.117
941.20 0.1169
941.30 0.1169
941.40 0.1168
941.50 0.1167
941.60 0.1166
941.70 0.1165
941.80 0.1165
941.90 0.1164
942.00 0.1163
942.10 0.1162
942.20 0.1161
942.30 0.116
942.40 0.1159
942.50 0.1158
942.60 0.1157
942.70 0.1156
942.80 0.1154
942.90 0.1153
943.00 0.1152
943.10 0.1151
943.20 0.115
943.30 0.1149
943.40 0.1147
943.50 0.1146
943.60 0.1145
943.70 0.1144
943.80 0.1143
943.90 0.1142
944.00 0.1141
944.10 0.1139
944.20 0.1138
944.30 0.1137
944.40 0.1136
944.50 0.1134
944.60 0.1133
944.70 0.1131
944.80 0.113
944.90 0.1128
945.00 0.1127
945.10 0.1125
945.20 0.1124
945.30 0.1122
945.40 0.112
945.50 0.1118
945.60 0.1117
945.70 0.1115
945.80 0.1113
945.90 0.1111
946.00 0.1109
946.10 0.1107
946.20 0.1106
946.30 0.1104
946.40 0.1102
946.50 0.11
946.60 0.1098
946.70 0.1096
946.80 0.1095
946.90 0.1093
947.00 0.1091
947.10 0.1089
947.20 0.1087
947.30 0.1085
947.40 0.1082
947.50 0.108
947.60 0.1077
947.70 0.1075
947.80 0.1073
947.90 0.107
948.00 0.1068
948.10 0.1066
948.20 0.1063
948.30 0.1061
948.40 0.1059
948.50 0.1056
948.60 0.1054
948.70 0.1052
948.80 0.1049
948.90 0.1047
949.00 0.1044
949.10 0.1042
949.20 0.104
949.30 0.1037
949.40 0.1035
949.50 0.1032
949.60 0.103
949.70 0.1027
949.80 0.1025
949.90 0.1022
950.00 0.102
950.10 0.1017
950.20 0.1014
950.30 0.1012
950.40 0.1009
950.50 0.1007
950.60 0.1004
950.70 0.1002
950.80 0.09992
950.90 0.09967
951.00 0.09941
951.10 0.09916
951.20 0.09891
951.30 0.09865
951.40 0.09842
951.50 0.09819
951.60 0.09795
951.70 0.09772
951.80 0.09748
951.90 0.09725
952.00 0.09702
952.10 0.09683
952.20 0.09663
952.30 0.09644
952.40 0.09625
952.50 0.09606
952.60 0.09587
952.70 0.09568
952.80 0.09549
952.90 0.0954
953.00 0.09531
953.10 0.09521
953.20 0.09512
953.30 0.09503
953.40 0.09494
953.50 0.09485
953.60 0.09512
953.70 0.09538
953.80 0.09565
953.90 0.09592
954.00 0.09664
954.10 0.09736
954.20 0.09822
954.30 0.0978
954.40 0.09625
954.50 0.09543
954.60 0.09477
954.70 0.0941
954.80 0.09383
954.90 0.09355
955.00 0.09328
955.10 0.09301
955.20 0.09301
955.30 0.09302
955.40 0.09303
955.50 0.09304
955.60 0.09305
955.70 0.09306
955.80 0.09307
955.90 0.09319
956.00 0.09331
956.10 0.09342
956.20 0.09354
956.30 0.09366
956.40 0.09378
956.50 0.09389
956.60 0.09401
956.70 0.09413
956.80 0.09425
956.90 0.09436
957.00 0.09448
957.10 0.09462
957.20 0.09476
957.30 0.0949
957.40 0.09505
957.50 0.09519
957.60 0.09533
957.70 0.09548
957.80 0.09562
957.90 0.09576
958.00 0.09591
958.10 0.09605
958.20 0.09619
958.30 0.09634
958.40 0.09648
958.50 0.09662
958.60 0.09677
958.70 0.09691
958.80 0.09705
958.90 0.09719
959.00 0.09734
959.10 0.09748
959.20 0.09762
959.30 0.09776
959.40 0.09789
959.50 0.09801
959.60 0.09813
959.70 0.09825
959.80 0.09838
959.90 0.0985
960.00 0.09862
960.10 0.09874
960.20 0.09886
960.30 0.09899
960.40 0.09911
960.50 0.09923
960.60 0.09935
960.70 0.09947
960.80 0.09959
960.90 0.09972
961.00 0.09984
961.10 0.09996
961.20 0.1001
961.30 0.1002
961.40 0.1003
961.50 0.1004
961.60 0.1005
961.70 0.1006
961.80 0.1007
961.90 0.1008
962.00 0.1009
962.10 0.101
962.20 0.1011
962.30 0.1012
962.40 0.1013
962.50 0.1013
962.60 0.1014
962.70 0.1015
962.80 0.1016
962.90 0.1017
963.00 0.1018
963.10 0.1019
963.20 0.102
963.30 0.102
963.40 0.1021
963.50 0.1022
963.60 0.1023
963.70 0.1023
963.80 0.1024
963.90 0.1025
964.00 0.1025
964.10 0.1026
964.20 0.1027
964.30 0.1027
964.40 0.1028
964.50 0.1028
964.60 0.1029
964.70 0.1029
964.80 0.103
964.90 0.1031
965.00 0.1031
965.10 0.1032
965.20 0.1032
965.30 0.1033
965.40 0.1033
965.50 0.1034
965.60 0.1034
965.70 0.1035
965.80 0.1035
965.90 0.1036
966.00 0.1036
966.10 0.1037
966.20 0.1037
966.30 0.1038
966.40 0.1038
966.50 0.1038
966.60 0.1039
966.70 0.1039
966.80 0.1039
966.90 0.104
967.00 0.104
967.10 0.104
967.20 0.1041
967.30 0.1041
967.40 0.1041
967.50 0.1041
967.60 0.1042
967.70 0.1042
967.80 0.1042
967.90 0.1042
968.00 0.1043
968.10 0.1043
968.20 0.1043
968.30 0.1043
968.40 0.1043
968.50 0.1044
968.60 0.1044
968.70 0.1044
968.80 0.1044
968.90 0.1044
969.00 0.1044
969.10 0.1044
969.20 0.1044
969.30 0.1044
969.40 0.1045
969.50 0.1045
969.60 0.1045
969.70 0.1045
969.80 0.1045
969.90 0.1045
970.00 0.1045
970.10 0.1045
970.20 0.1045
970.30 0.1046
970.40 0.1046
970.50 0.1046
970.60 0.1046
970.70 0.1045
970.80 0.1045
970.90 0.1045
971.00 0.1045
971.10 0.1045
971.20 0.1045
971.30 0.1045
971.40 0.1045
971.50 0.1045
971.60 0.1045
971.70 0.1045
971.80 0.1045
971.90 0.1045
972.00 0.1045
972.10 0.1045
972.20 0.1045
972.30 0.1045
972.40 0.1045
972.50 0.1044
972.60 0.1044
972.70 0.1044
972.80 0.1044
972.90 0.1044
973.00 0.1044
973.10 0.1044
973.20 0.1044
973.30 0.1043
973.40 0.1043
973.50 0.1043
973.60 0.1043
973.70 0.1043
973.80 0.1043
973.90 0.1043
974.00 0.1042
974.10 0.1042
974.20 0.1042
974.30 0.1042
974.40 0.1042
974.50 0.1041
974.60 0.1041
974.70 0.1041
974.80 0.1041
974.90 0.104
975.00 0.104
975.10 0.104
975.20 0.104
975.30 0.1039
975.40 0.1039
975.50 0.1039
975.60 0.1039
975.70 0.1038
975.80 0.1038
975.90 0.1038
976.00 0.1038
976.10 0.1037
976.20 0.1037
976.30 0.1037
976.40 0.1037
976.50 0.1036
976.60 0.1036
976.70 0.1036
976.80 0.1036
976.90 0.1035
977.00 0.1035
977.10 0.1035
977.20 0.1034
977.30 0.1034
977.40 0.1033
977.50 0.1033
977.60 0.1033
977.70 0.1032
977.80 0.1032
977.90 0.1031
978.00 0.1031
978.10 0.1031
978.20 0.103
978.30 0.103
978.40 0.1029
978.50 0.1029
978.60 0.1028
978.70 0.1028
978.80 0.1028
978.90 0.1027
979.00 0.1027
979.10 0.1026
979.20 0.1026
979.30 0.1026
979.40 0.1025
979.50 0.1025
979.60 0.1024
979.70 0.1024
979.80 0.1024
979.90 0.1023
980.00 0.1023
980.10 0.1022
980.20 0.1022
980.30 0.1022
980.40 0.1021
980.50 0.1021
980.60 0.102
980.70 0.102
980.80 0.102
980.90 0.1019
981.00 0.1019
981.10 0.1018
981.20 0.1018
981.30 0.1017
981.40 0.1017
981.50 0.1017
981.60 0.1016
981.70 0.1016
981.80 0.1015
981.90 0.1015
982.00 0.1015
982.10 0.1014
982.20 0.1014
982.30 0.1013
982.40 0.1012
982.50 0.1012
982.60 0.1011
982.70 0.1011
982.80 0.101
982.90 0.101
983.00 0.1009
983.10 0.1008
983.20 0.1008
983.30 0.1007
983.40 0.1007
983.50 0.1006
983.60 0.1006
983.70 0.1005
983.80 0.1005
983.90 0.1004
984.00 0.1003
984.10 0.1003
984.20 0.1002
984.30 0.1002
984.40 0.1001
984.50 0.1001
984.60 0.1
984.70 0.09994
984.80 0.09987
984.90 0.0998
985.00 0.09973
985.10 0.09966
985.20 0.09959
985.30 0.09953
985.40 0.09946
985.50 0.09939
985.60 0.09932
985.70 0.09925
985.80 0.09918
985.90 0.09912
986.00 0.09905
986.10 0.09898
986.20 0.09891
986.30 0.09884
986.40 0.09877
986.50 0.09871
986.60 0.09864
986.70 0.09857
986.80 0.0985
986.90 0.09843
987.00 0.09837
987.10 0.09829
987.20 0.09821
987.30 0.09813
987.40 0.09805
987.50 0.09797
987.60 0.09788
987.70 0.0978
987.80 0.09772
987.90 0.09764
988.00 0.09756
988.10 0.09748
988.20 0.0974
988.30 0.09732
988.40 0.09724
988.50 0.09716
988.60 0.09708
988.70 0.09699
988.80 0.0969
988.90 0.09681
989.00 0.09672
989.10 0.09662
989.20 0.09653
989.30 0.09644
989.40 0.09634
989.50 0.09625
989.60 0.09616
989.70 0.09607
989.80 0.09597
989.90 0.09588
990.00 0.09579
990.10 0.0957
990.20 0.0956
990.30 0.09551
990.40 0.09542
990.50 0.09533
990.60 0.09523
990.70 0.09513
990.80 0.09502
990.90 0.09492
991.00 0.09481
991.10 0.0947
991.20 0.0946
991.30 0.09449
991.40 0.09438
991.50 0.09428
991.60 0.09417
991.70 0.09406
991.80 0.09396
991.90 0.09385
992.00 0.09374
992.10 0.09363
992.20 0.09351
992.30 0.0934
992.40 0.09328
992.50 0.09316
992.60 0.09305
992.70 0.09292
992.80 0.09279
992.90 0.09266
993.00 0.09253
993.10 0.09241
993.20 0.09228
993.30 0.09215
993.40 0.09202
993.50 0.09189
993.60 0.09176
993.70 0.09163
993.80 0.0915
993.90 0.09137
994.00 0.09124
994.10 0.09112
994.20 0.09099
994.30 0.09086
994.40 0.09073
994.50 0.0906
994.60 0.09047
994.70 0.09033
994.80 0.09019
994.90 0.09004
995.00 0.08989
995.10 0.08975
995.20 0.0896
995.30 0.08946
995.40 0.08931
995.50 0.08917
995.60 0.08902
995.70 0.08887
995.80 0.08871
995.90 0.08855
996.00 0.08839
996.10 0.08823
996.20 0.08807
996.30 0.08791
996.40 0.08775
996.50 0.08759
996.60 0.08743
996.70 0.08727
996.80 0.08711
996.90 0.08695
997.00 0.08679
997.10 0.08662
997.20 0.08645
997.30 0.08628
997.40 0.0861
997.50 0.08593
997.60 0.08576
997.70 0.08558
997.80 0.08539
997.90 0.0852
998.00 0.08501
998.10 0.08482
998.20 0.08463
998.30 0.08444
998.40 0.08425
998.50 0.08406
998.60 0.08388
998.70 0.08369
998.80 0.0835
998.90 0.08331
999.00 0.08312
999.10 0.08293
999.20 0.08275
999.30 0.08256
999.40 0.08237
999.50 0.08218
999.60 0.08199
999.70 0.08179
999.80 0.08158
999.90 0.08137
1000.00 0.08115
1000.10 0.08094
1000.20 0.08073
1000.30 0.08052
1000.40 0.08031
1000.50 0.0801
1000.60 0.07989
1000.70 0.07968
1000.80 0.07947
1000.90 0.07926
1001.00 0.07905
1001.10 0.07884
1001.20 0.07863
1001.30 0.07842
1001.40 0.07821
1001.50 0.078
1001.60 0.07779
1001.70 0.07757
1001.80 0.07735
1001.90 0.07713
1002.00 0.07692
1002.10 0.0767
1002.20 0.07648
1002.30 0.07626
1002.40 0.07605
1002.50 0.07583
1002.60 0.07561
1002.70 0.0754
1002.80 0.07518
1002.90 0.07496
1003.00 0.07475
1003.10 0.07453
1003.20 0.07433
1003.30 0.07414
1003.40 0.07395
1003.50 0.07376
1003.60 0.07357
1003.70 0.07338
1003.80 0.07319
1003.90 0.07309
1004.00 0.073
1004.10 0.07292
1004.20 0.07283
1004.30 0.073
1004.40 0.07325
1004.50 0.07371
1004.60 0.07442
1004.70 0.07397
1004.80 0.0733
1004.90 0.073
1005.00 0.0727
1005.10 0.07266
1005.20 0.0727
1005.30 0.07273
1005.40 0.07277
1005.50 0.07288
1005.60 0.07302
1005.70 0.07316
1005.80 0.0733
1005.90 0.07344
1006.00 0.07358
1006.10 0.07372
1006.20 0.07388
1006.30 0.07404
1006.40 0.07421
1006.50 0.07437
1006.60 0.07453
1006.70 0.0747
1006.80 0.07486
1006.90 0.07502
1007.00 0.07519
1007.10 0.07535
1007.20 0.07551
1007.30 0.07568
1007.40 0.07584
1007.50 0.076
1007.60 0.07617
1007.70 0.07632
1007.80 0.07647
1007.90 0.07663
1008.00 0.07678
1008.10 0.07693
1008.20 0.07708
1008.30 0.07723
1008.40 0.07738
1008.50 0.07753
1008.60 0.07769
1008.70 0.07784
1008.80 0.07799
1008.90 0.07814
1009.00 0.07829
1009.10 0.07844
1009.20 0.07859
1009.30 0.07874
1009.40 0.07889
1009.50 0.07904
1009.60 0.07919
1009.70 0.07932
1009.80 0.07945
1009.90 0.07957
1010.00 0.0797
1010.10 0.07982
1010.20 0.07995
1010.30 0.08007
1010.40 0.0802
1010.50 0.08032
1010.60 0.08044
1010.70 0.08057
1010.80 0.08069
1010.90 0.08082
1011.00 0.08094
1011.10 0.08107
1011.20 0.08119
1011.30 0.08131
1011.40 0.08144
1011.50 0.08156
1011.60 0.08169
1011.70 0.0818
1011.80 0.0819
1011.90 0.08201
1012.00 0.08212
1012.10 0.08221
1012.20 0.08231
1012.30 0.0824
1012.40 0.08249
1012.50 0.08259
1012.60 0.08268
1012.70 0.08277
1012.80 0.08287
1012.90 0.08296
1013.00 0.08305
1013.10 0.08315
1013.20 0.08324
1013.30 0.08333
1013.40 0.08343
1013.50 0.08352
1013.60 0.08361
1013.70 0.0837
1013.80 0.08377
1013.90 0.08385
1014.00 0.08393
1014.10 0.084
1014.20 0.08408
1014.30 0.08416
1014.40 0.08423
1014.50 0.08431
1014.60 0.08439
1014.70 0.08445
1014.80 0.08451
1014.90 0.08457
1015.00 0.08463
1015.10 0.08469
1015.20 0.08475
1015.30 0.08481
1015.40 0.08487
1015.50 0.08493
1015.60 0.08499
1015.70 0.08505
1015.80 0.0851
1015.90 0.08516
1016.00 0.08522
1016.10 0.08528
1016.20 0.08534
1016.30 0.0854
1016.40 0.08546
1016.50 0.08552
1016.60 0.08558
1016.70 0.08563
1016.80 0.08568
1016.90 0.08572
1017.00 0.08577
1017.10 0.08581
1017.20 0.08585
1017.30 0.08589
1017.40 0.08592
1017.50 0.08596
1017.60 0.086
1017.70 0.08604
1017.80 0.08608
1017.90 0.08612
1018.00 0.08615
1018.10 0.08619
1018.20 0.08623
1018.30 0.08627
1018.40 0.08631
1018.50 0.08635
1018.60 0.08638
1018.70 0.08641
1018.80 0.08644
1018.90 0.08646
1019.00 0.08648
1019.10 0.08651
1019.20 0.08653
1019.30 0.08656
1019.40 0.08658
1019.50 0.0866
1019.60 0.08663
1019.70 0.08665
1019.80 0.08668
1019.90 0.0867
1020.00 0.08672
1020.10 0.08675
1020.20 0.08677
1020.30 0.0868
1020.40 0.08682
1020.50 0.08684
1020.60 0.08687
1020.70 0.08688
1020.80 0.0869
1020.90 0.08691
1021.00 0.08692
1021.10 0.08694
1021.20 0.08695
1021.30 0.08696
1021.40 0.08698
1021.50 0.08699
1021.60 0.087
1021.70 0.08702
1021.80 0.08703
1021.90 0.08704
1022.00 0.08706
1022.10 0.08706
1022.20 0.08706
1022.30 0.08706
1022.40 0.08707
1022.50 0.08707
1022.60 0.08707
1022.70 0.08708
1022.80 0.08708
1022.90 0.08708
1023.00 0.08709
1023.10 0.08709
1023.20 0.08709
1023.30 0.0871
1023.40 0.0871
1023.50 0.0871
1023.60 0.08711
1023.70 0.08711
1023.80 0.08711
1023.90 0.08712
1024.00 0.08712
1024.10 0.08712
1024.20 0.08712
1024.30 0.08713
1024.40 0.08713
1024.50 0.08713
1024.60 0.08714
1024.70 0.08713
1024.80 0.08713
1024.90 0.08712
1025.00 0.08711
1025.10 0.08711
1025.20 0.0871
1025.30 0.0871
1025.40 0.08709
1025.50 0.08708
1025.60 0.08708
1025.70 0.08707
1025.80 0.08706
1025.90 0.08706
1026.00 0.08705
1026.10 0.08704
1026.20 0.08704
1026.30 0.08703
1026.40 0.08703
1026.50 0.08702
1026.60 0.08701
1026.70 0.08701
1026.80 0.087
1026.90 0.08699
1027.00 0.08699
1027.10 0.08697
1027.20 0.08696
1027.30 0.08694
1027.40 0.08693
1027.50 0.08691
1027.60 0.0869
1027.70 0.08688
1027.80 0.08686
1027.90 0.08685
1028.00 0.08683
1028.10 0.08682
1028.20 0.0868
1028.30 0.08679
1028.40 0.08677
1028.50 0.08676
1028.60 0.08674
1028.70 0.08673
1028.80 0.08671
1028.90 0.0867
1029.00 0.08668
1029.10 0.08667
1029.20 0.08665
1029.30 0.08663
1029.40 0.08662
1029.50 0.0866
1029.60 0.08659
1029.70 0.08657
1029.80 0.08656
1029.90 0.08654
1030.00 0.08653
1030.10 0.08651
1030.20 0.0865
1030.30 0.08648
1030.40 0.08647
1030.50 0.08645
1030.60 0.08644
1030.70 0.08642
1030.80 0.08641
1030.90 0.08639
1031.00 0.08637
1031.10 0.08636
1031.20 0.08634
1031.30 0.08633
1031.40 0.08631
1031.50 0.0863
1031.60 0.08628
1031.70 0.08627
1031.80 0.08625
1031.90 0.08624
1032.00 0.08622
1032.10 0.0862
1032.20 0.08618
1032.30 0.08616
1032.40 0.08613
1032.50 0.08611
1032.60 0.08609
1032.70 0.08607
1032.80 0.08604
1032.90 0.08602
1033.00 0.086
1033.10 0.08598
1033.20 0.08596
1033.30 0.08593
1033.40 0.08591
1033.50 0.08589
1033.60 0.08587
1033.70 0.08584
1033.80 0.08582
1033.90 0.0858
1034.00 0.08578
1034.10 0.08576
1034.20 0.08573
1034.30 0.08571
1034.40 0.08569
1034.50 0.08567
1034.60 0.08565
1034.70 0.08562
1034.80 0.0856
1034.90 0.08558
1035.00 0.08556
1035.10 0.08553
1035.20 0.08551
1035.30 0.08549
1035.40 0.08547
1035.50 0.08545
1035.60 0.08542
1035.70 0.0854
1035.80 0.08538
1035.90 0.08536
1036.00 0.08534
1036.10 0.08531
1036.20 0.08529
1036.30 0.08527
1036.40 0.08525
1036.50 0.08523
1036.60 0.0852
1036.70 0.08518
1036.80 0.08516
1036.90 0.08514
1037.00 0.08512
1037.10 0.08509
1037.20 0.08506
1037.30 0.08504
1037.40 0.08501
1037.50 0.08499
1037.60 0.08496
1037.70 0.08493
1037.80 0.08491
1037.90 0.08488
1038.00 0.08486
1038.10 0.08483
1038.20 0.08481
1038.30 0.08478
1038.40 0.08475
1038.50 0.08473
1038.60 0.0847
1038.70 0.08468
1038.80 0.08465
1038.90 0.08462
1039.00 0.0846
1039.10 0.08457
1039.20 0.08455
1039.30 0.08452
1039.40 0.0845
1039.50 0.08447
1039.60 0.08444
1039.70 0.08442
1039.80 0.08439
1039.90 0.08437
1040.00 0.08434
1040.10 0.08432
1040.20 0.08429
1040.30 0.08426
1040.40 0.08424
1040.50 0.08421
1040.60 0.08419
1040.70 0.08416
1040.80 0.08414
1040.90 0.08411
1041.00 0.08409
1041.10 0.08406
1041.20 0.08403
1041.30 0.08401
1041.40 0.08398
1041.50 0.08396
1041.60 0.08393
1041.70 0.08391
1041.80 0.08388
1041.90 0.08385
1042.00 0.08383
1042.10 0.0838
1042.20 0.08377
1042.30 0.08375
1042.40 0.08372
1042.50 0.08369
1042.60 0.08366
1042.70 0.08363
1042.80 0.08361
1042.90 0.08358
1043.00 0.08355
1043.10 0.08352
1043.20 0.0835
1043.30 0.08347
1043.40 0.08344
1043.50 0.08341
1043.60 0.08339
1043.70 0.08336
1043.80 0.08333
1043.90 0.0833
1044.00 0.08327
1044.10 0.08325
1044.20 0.08322
1044.30 0.08319
1044.40 0.08316
1044.50 0.08314
1044.60 0.08311
1044.70 0.08308
1044.80 0.08305
1044.90 0.08303
1045.00 0.083
1045.10 0.08297
1045.20 0.08294
1045.30 0.08292
1045.40 0.08289
1045.50 0.08286
1045.60 0.08283
1045.70 0.08281
1045.80 0.08278
1045.90 0.08275
1046.00 0.08272
1046.10 0.0827
1046.20 0.08267
1046.30 0.08264
1046.40 0.08261
1046.50 0.08259
1046.60 0.08256
1046.70 0.08253
1046.80 0.0825
1046.90 0.08248
1047.00 0.08245
1047.10 0.08242
1047.20 0.08239
1047.30 0.08236
1047.40 0.08233
1047.50 0.0823
1047.60 0.08228
1047.70 0.08225
1047.80 0.08222
1047.90 0.08219
1048.00 0.08216
1048.10 0.08213
1048.20 0.0821
1048.30 0.08207
1048.40 0.08204
1048.50 0.08201
1048.60 0.08198
1048.70 0.08196
1048.80 0.08193
1048.90 0.0819
1049.00 0.08187
1049.10 0.08184
1049.20 0.08181
1049.30 0.08178
1049.40 0.08175
1049.50 0.08172
1049.60 0.08169
1049.70 0.08167
1049.80 0.08164
1049.90 0.08161
1050.00 0.08158
1050.10 0.08155
1050.20 0.08152
1050.30 0.08149
1050.40 0.08146
1050.50 0.08144
1050.60 0.08141
1050.70 0.08138
1050.80 0.08135
1050.90 0.08132
1051.00 0.08129
1051.10 0.08126
1051.20 0.08123
1051.30 0.0812
1051.40 0.08118
1051.50 0.08115
1051.60 0.08112
1051.70 0.08109
1051.80 0.08106
1051.90 0.08103
1052.00 0.081
1052.10 0.08097
1052.20 0.08094
1052.30 0.08091
1052.40 0.08088
1052.50 0.08085
1052.60 0.08082
1052.70 0.08079
1052.80 0.08076
1052.90 0.08073
1053.00 0.0807
1053.10 0.08067
1053.20 0.08064
1053.30 0.08061
1053.40 0.08058
1053.50 0.08055
1053.60 0.08052
1053.70 0.08049
1053.80 0.08046
1053.90 0.08043
1054.00 0.0804
1054.10 0.08037
1054.20 0.08034
1054.30 0.08031
1054.40 0.08028
1054.50 0.08025
1054.60 0.08022
1054.70 0.08019
1054.80 0.08016
1054.90 0.08013
1055.00 0.0801
1055.10 0.08007
1055.20 0.08004
1055.30 0.08001
1055.40 0.07998
1055.50 0.07995
1055.60 0.07992
1055.70 0.07989
1055.80 0.07986
1055.90 0.07983
1056.00 0.0798
1056.10 0.07977
1056.20 0.07974
1056.30 0.07971
1056.40 0.07968
1056.50 0.07965
1056.60 0.07962
1056.70 0.07959
1056.80 0.07956
1056.90 0.07953
1057.00 0.0795
1057.10 0.07947
1057.20 0.07944
1057.30 0.07941
1057.40 0.07937
1057.50 0.07934
1057.60 0.07931
1057.70 0.07928
1057.80 0.07925
1057.90 0.07921
1058.00 0.07918
1058.10 0.07915
1058.20 0.07912
1058.30 0.07909
1058.40 0.07905
1058.50 0.07902
1058.60 0.07899
1058.70 0.07896
1058.80 0.07893
1058.90 0.07889
1059.00 0.07886
1059.10 0.07883
1059.20 0.0788
1059.30 0.07877
1059.40 0.07873
1059.50 0.0787
1059.60 0.07867
1059.70 0.07864
1059.80 0.07861
1059.90 0.07858
1060.00 0.07854
1060.10 0.07851
1060.20 0.07848
1060.30 0.07845
1060.40 0.07842
1060.50 0.07839
1060.60 0.07835
1060.70 0.07832
1060.80 0.07829
1060.90 0.07826
1061.00 0.07823
1061.10 0.0782
1061.20 0.07816
1061.30 0.07813
1061.40 0.0781
1061.50 0.07807
1061.60 0.07804
1061.70 0.07801
1061.80 0.07797
1061.90 0.07794
1062.00 0.07791
1062.10 0.07788
1062.20 0.07784
1062.30 0.0778
1062.40 0.07777
1062.50 0.07773
1062.60 0.0777
1062.70 0.07766
1062.80 0.07763
1062.90 0.07759
1063.00 0.07756
1063.10 0.07752
1063.20 0.07748
1063.30 0.07745
1063.40 0.07741
1063.50 0.07738
1063.60 0.07734
1063.70 0.07731
1063.80 0.07727
1063.90 0.07724
1064.00 0.0772
1064.10 0.07717
1064.20 0.07713
1064.30 0.07709
1064.40 0.07706
1064.50 0.07702
1064.60 0.07699
1064.70 0.07695
1064.80 0.07692
1064.90 0.07688
1065.00 0.07685
1065.10 0.07681
1065.20 0.07678
1065.30 0.07674
1065.40 0.07671
1065.50 0.07667
1065.60 0.07664
1065.70 0.0766
1065.80 0.07657
1065.90 0.07653
1066.00 0.07649
1066.10 0.07646
1066.20 0.07642
1066.30 0.07639
1066.40 0.07635
1066.50 0.07632
1066.60 0.07628
1066.70 0.07625
1066.80 0.07621
1066.90 0.07618
1067.00 0.07614
1067.10 0.0761
1067.20 0.07606
1067.30 0.07602
1067.40 0.07598
1067.50 0.07594
1067.60 0.0759
1067.70 0.07585
1067.80 0.07581
1067.90 0.07577
1068.00 0.07573
1068.10 0.07569
1068.20 0.07565
1068.30 0.07561
1068.40 0.07556
1068.50 0.07552
1068.60 0.07548
1068.70 0.07544
1068.80 0.0754
1068.90 0.07536
1069.00 0.07532
1069.10 0.07528
1069.20 0.07524
1069.30 0.07519
1069.40 0.07515
1069.50 0.07511
1069.60 0.07507
1069.70 0.07503
1069.80 0.07499
1069.90 0.07495
1070.00 0.07491
1070.10 0.07487
1070.20 0.07483
1070.30 0.07478
1070.40 0.07474
1070.50 0.0747
1070.60 0.07466
1070.70 0.07462
1070.80 0.07458
1070.90 0.07454
1071.00 0.0745
1071.10 0.07446
1071.20 0.07442
1071.30 0.07438
1071.40 0.07433
1071.50 0.07429
1071.60 0.07425
1071.70 0.07421
1071.80 0.07417
1071.90 0.07413
1072.00 0.07409
1072.10 0.07404
1072.20 0.07399
1072.30 0.07395
1072.40 0.0739
1072.50 0.07385
1072.60 0.0738
1072.70 0.07375
1072.80 0.0737
1072.90 0.07366
1073.00 0.07361
1073.10 0.07356
1073.20 0.07351
1073.30 0.07346
1073.40 0.07341
1073.50 0.07336
1073.60 0.07331
1073.70 0.07325
1073.80 0.0732
1073.90 0.07314
1074.00 0.07309
1074.10 0.07303
1074.20 0.07297
1074.30 0.07292
1074.40 0.07286
1074.50 0.07281
1074.60 0.07275
1074.70 0.0727
1074.80 0.07264
1074.90 0.07259
1075.00 0.07253
1075.10 0.07248
1075.20 0.07242
1075.30 0.07237
1075.40 0.07231
1075.50 0.07226
1075.60 0.0722
1075.70 0.07215
1075.80 0.07209
1075.90 0.07204
1076.00 0.07198
1076.10 0.07193
1076.20 0.07187
1076.30 0.07182
1076.40 0.07176
1076.50 0.07171
1076.60 0.07165
1076.70 0.0716
1076.80 0.07154
1076.90 0.07149
1077.00 0.07143
1077.10 0.07137
1077.20 0.07131
1077.30 0.07124
1077.40 0.07118
1077.50 0.07112
1077.60 0.07105
1077.70 0.07098
1077.80 0.07091
1077.90 0.07084
1078.00 0.07078
1078.10 0.07071
1078.20 0.07064
1078.30 0.07057
1078.40 0.0705
1078.50 0.07043
1078.60 0.07037
1078.70 0.0703
1078.80 0.07023
1078.90 0.07016
1079.00 0.07009
1079.10 0.07003
1079.20 0.06996
1079.30 0.06989
1079.40 0.06982
1079.50 0.06975
1079.60 0.06967
1079.70 0.06959
1079.80 0.06951
1079.90 0.06943
1080.00 0.06935
1080.10 0.06927
1080.20 0.06919
1080.30 0.06912
1080.40 0.06904
1080.50 0.06896
1080.60 0.06888
1080.70 0.0688
1080.80 0.06872
1080.90 0.06864
1081.00 0.06856
1081.10 0.06848
1081.20 0.0684
1081.30 0.06832
1081.40 0.06824
1081.50 0.06816
1081.60 0.06808
1081.70 0.06799
1081.80 0.0679
1081.90 0.06782
1082.00 0.06773
1082.10 0.06764
1082.20 0.06754
1082.30 0.06745
1082.40 0.06735
1082.50 0.06726
1082.60 0.06717
1082.70 0.06707
1082.80 0.06698
1082.90 0.06688
1083.00 0.06679
1083.10 0.0667
1083.20 0.0666
1083.30 0.06651
1083.40 0.06641
1083.50 0.06632
1083.60 0.06621
1083.70 0.06611
1083.80 0.06601
1083.90 0.0659
1084.00 0.0658
1084.10 0.06569
1084.20 0.06559
1084.30 0.06549
1084.40 0.06538
1084.50 0.06528
1084.60 0.06516
1084.70 0.06504
1084.80 0.06492
1084.90 0.06481
1085.00 0.06469
1085.10 0.06457
1085.20 0.06446
1085.30 0.06434
1085.40 0.06422
1085.50 0.06411
1085.60 0.06399
1085.70 0.06387
1085.80 0.06376
1085.90 0.06364
1086.00 0.06352
1086.10 0.06341
1086.20 0.06329
1086.30 0.06318
1086.40 0.06306
1086.50 0.06294
1086.60 0.06281
1086.70 0.06268
1086.80 0.06255
1086.90 0.06243
1087.00 0.0623
1087.10 0.06216
1087.20 0.06202
1087.30 0.06188
1087.40 0.06175
1087.50 0.06161
1087.60 0.06147
1087.70 0.06133
1087.80 0.06119
1087.90 0.06106
1088.00 0.06092
1088.10 0.06078
1088.20 0.06064
1088.30 0.06051
1088.40 0.06037
1088.50 0.06023
1088.60 0.06007
1088.70 0.05991
1088.80 0.05976
1088.90 0.0596
1089.00 0.05944
1089.10 0.05929
1089.20 0.05913
1089.30 0.05897
1089.40 0.05882
1089.50 0.05866
1089.60 0.05851
1089.70 0.05835
1089.80 0.05819
1089.90 0.05804
1090.00 0.05788
1090.10 0.05773
1090.20 0.05757
1090.30 0.05742
1090.40 0.05726
1090.50 0.0571
1090.60 0.05692
1090.70 0.05674
1090.80 0.05656
1090.90 0.05638
1091.00 0.0562
1091.10 0.05602
1091.20 0.05584
1091.30 0.05566
1091.40 0.05548
1091.50 0.0553
1091.60 0.05512
1091.70 0.05494
1091.80 0.05476
1091.90 0.05458
1092.00 0.0544
1092.10 0.05419
1092.20 0.05398
1092.30 0.05377
1092.40 0.05356
1092.50 0.05335
1092.60 0.05315
1092.70 0.05293
1092.80 0.05271
1092.90 0.05249
1093.00 0.05227
1093.10 0.05208
1093.20 0.05196
1093.30 0.05187
1093.40 0.0521
1093.50 0.05229
1093.60 0.05188
1093.70 0.05184
1093.80 0.05193
1093.90 0.05205
1094.00 0.05224
1094.10 0.05243
1094.20 0.05262
1094.30 0.0528
1094.40 0.05298
1094.50 0.05315
1094.60 0.05332
1094.70 0.0535
1094.80 0.05367
1094.90 0.05384
1095.00 0.05401
1095.10 0.05415
1095.20 0.05429
1095.30 0.05444
1095.40 0.05458
1095.50 0.05472
1095.60 0.05486
1095.70 0.055
1095.80 0.05515
1095.90 0.05529
1096.00 0.05543
1096.10 0.05557
1096.20 0.05572
1096.30 0.05586
1096.40 0.056
1096.50 0.05614
1096.60 0.05626
1096.70 0.05639
1096.80 0.05651
1096.90 0.05663
1097.00 0.05676
1097.10 0.05687
1097.20 0.05698
1097.30 0.05709
1097.40 0.05721
1097.50 0.05732
1097.60 0.05743
1097.70 0.05754
1097.80 0.05765
1097.90 0.05776
1098.00 0.05788
1098.10 0.05799
1098.20 0.0581
1098.30 0.05821
1098.40 0.05832
1098.50 0.05843
1098.60 0.05852
1098.70 0.05861
1098.80 0.0587
1098.90 0.05879
1099.00 0.05888
1099.10 0.05897
1099.20 0.05906
1099.30 0.05916
1099.40 0.05925
1099.50 0.05934
1099.60 0.05943
1099.70 0.05952
1099.80 0.05961
1099.90 0.0597
1100.00 0.05979
1100.10 0.05988
1100.20 0.05997
1100.30 0.06006
1100.40 0.06015
1100.50 0.06024
1100.60 0.06031
1100.70 0.06038
1100.80 0.06046
1100.90 0.06053
1101.00 0.0606
1101.10 0.06067
1101.20 0.06074
1101.30 0.06082
1101.40 0.06089
1101.50 0.06096
1101.60 0.06103
1101.70 0.0611
1101.80 0.06118
1101.90 0.06125
1102.00 0.06132
1102.10 0.06138
1102.20 0.06144
1102.30 0.0615
1102.40 0.06157
1102.50 0.06163
1102.60 0.06168
1102.70 0.06174
1102.80 0.06179
1102.90 0.06185
1103.00 0.0619
1103.10 0.06196
1103.20 0.06202
1103.30 0.06207
1103.40 0.06213
1103.50 0.06218
1103.60 0.06222
1103.70 0.06227
1103.80 0.06231
1103.90 0.06235
1104.00 0.0624
1104.10 0.06244
1104.20 0.06248
1104.30 0.06253
1104.40 0.06257
1104.50 0.06261
1104.60 0.06266
1104.70 0.0627
1104.80 0.06274
1104.90 0.06279
1105.00 0.06283
1105.10 0.06287
1105.20 0.06292
1105.30 0.06296
1105.40 0.063
1105.50 0.06304
1105.60 0.06307
1105.70 0.0631
1105.80 0.06313
1105.90 0.06316
1106.00 0.0632
1106.10 0.06323
1106.20 0.06326
1106.30 0.06329
1106.40 0.06332
1106.50 0.06335
1106.60 0.06338
1106.70 0.06341
1106.80 0.06344
1106.90 0.06347
1107.00 0.0635
1107.10 0.06353
1107.20 0.06355
1107.30 0.06358
1107.40 0.06361
1107.50 0.06363
1107.60 0.06365
1107.70 0.06367
1107.80 0.06368
1107.90 0.0637
1108.00 0.06372
1108.10 0.06374
1108.20 0.06376
1108.30 0.06378
1108.40 0.06379
1108.50 0.06381
1108.60 0.06383
1108.70 0.06385
1108.80 0.06387
1108.90 0.06388
1109.00 0.0639
1109.10 0.06392
1109.20 0.06394
1109.30 0.06396
1109.40 0.06397
1109.50 0.06399
1109.60 0.064
1109.70 0.06401
1109.80 0.06401
1109.90 0.06402
1110.00 0.06403
1110.10 0.06404
1110.20 0.06405
1110.30 0.06406
1110.40 0.06406
1110.50 0.06407
1110.60 0.06408
1110.70 0.06409
1110.80 0.0641
1110.90 0.06411
1111.00 0.06411
1111.10 0.06412
1111.20 0.06413
1111.30 0.06414
1111.40 0.06415
1111.50 0.06416
1111.60 0.06416
1111.70 0.06417
1111.80 0.06418
1111.90 0.06419
1112.00 0.0642
1112.10 0.0642
1112.20 0.0642
1112.30 0.0642
1112.40 0.0642
1112.50 0.06421
1112.60 0.06421
1112.70 0.06421
1112.80 0.06421
1112.90 0.06421
1113.00 0.06422
1113.10 0.06422
1113.20 0.06422
1113.30 0.06422
1113.40 0.06422
1113.50 0.06422
1113.60 0.06422
1113.70 0.06421
1113.80 0.06421
1113.90 0.06421
1114.00 0.0642
1114.10 0.0642
1114.20 0.06419
1114.30 0.06419
1114.40 0.06418
1114.50 0.06418
1114.60 0.06417
1114.70 0.06417
1114.80 0.06416
1114.90 0.06416
1115.00 0.06416
1115.10 0.06415
1115.20 0.06415
1115.30 0.06414
1115.40 0.06414
1115.50 0.06413
1115.60 0.06413
1115.70 0.06412
1115.80 0.06412
1115.90 0.06412
1116.00 0.06411
1116.10 0.06411
1116.20 0.0641
1116.30 0.0641
1116.40 0.06409
1116.50 0.06409
1116.60 0.06408
1116.70 0.06408
1116.80 0.06407
1116.90 0.06407
1117.00 0.06407
1117.10 0.06405
1117.20 0.06404
1117.30 0.06403
1117.40 0.06402
1117.50 0.06401
1117.60 0.064
1117.70 0.06399
1117.80 0.06398
1117.90 0.06396
1118.00 0.06395
1118.10 0.06394
1118.20 0.06393
1118.30 0.06392
1118.40 0.06391
1118.50 0.0639
1118.60 0.06389
1118.70 0.06387
1118.80 0.06386
1118.90 0.06385
1119.00 0.06384
1119.10 0.06383
1119.20 0.06382
1119.30 0.06381
1119.40 0.0638
1119.50 0.06378
1119.60 0.06377
1119.70 0.06376
1119.80 0.06375
1119.90 0.06374
1120.00 0.06373
1120.10 0.06372
1120.20 0.06371
1120.30 0.0637
1120.40 0.06368
1120.50 0.06367
1120.60 0.06366
1120.70 0.06365
1120.80 0.06364
1120.90 0.06363
1121.00 0.06362
1121.10 0.06361
1121.20 0.06359
1121.30 0.06358
1121.40 0.06357
1121.50 0.06356
1121.60 0.06355
1121.70 0.06354
1121.80 0.06353
1121.90 0.06352
1122.00 0.06351
1122.10 0.06349
1122.20 0.06348
1122.30 0.06346
1122.40 0.06344
1122.50 0.06343
1122.60 0.06341
1122.70 0.0634
1122.80 0.06338
1122.90 0.06337
1123.00 0.06335
1123.10 0.06334
1123.20 0.06332
1123.30 0.06331
1123.40 0.06329
1123.50 0.06328
1123.60 0.06326
1123.70 0.06325
1123.80 0.06323
1123.90 0.06322
1124.00 0.0632
1124.10 0.06319
1124.20 0.06317
1124.30 0.06316
1124.40 0.06314
1124.50 0.06313
1124.60 0.06311
1124.70 0.0631
1124.80 0.06308
1124.90 0.06307
1125.00 0.06305
1125.10 0.06303
1125.20 0.06302
1125.30 0.063
1125.40 0.06299
1125.50 0.06297
1125.60 0.06296
1125.70 0.06294
1125.80 0.06293
1125.90 0.06291
1126.00 0.0629
1126.10 0.06288
1126.20 0.06287
1126.30 0.06285
1126.40 0.06284
1126.50 0.06282
1126.60 0.06281
1126.70 0.06279
1126.80 0.06278
1126.90 0.06276
1127.00 0.06275
1127.10 0.06273
1127.20 0.06271
1127.30 0.0627
1127.40 0.06268
1127.50 0.06266
1127.60 0.06264
1127.70 0.06263
1127.80 0.06261
1127.90 0.06259
1128.00 0.06257
1128.10 0.06256
1128.20 0.06254
1128.30 0.06252
1128.40 0.0625
1128.50 0.06249
1128.60 0.06247
1128.70 0.06245
1128.80 0.06243
1128.90 0.06242
1129.00 0.0624
1129.10 0.06238
1129.20 0.06237
1129.30 0.06235
1129.40 0.06233
1129.50 0.06231
1129.60 0.0623
1129.70 0.06228
1129.80 0.06226
1129.90 0.06224
1130.00 0.06223
1130.10 0.06221
1130.20 0.06219
1130.30 0.06218
1130.40 0.06216
1130.50 0.06214
1130.60 0.06212
1130.70 0.06211
1130.80 0.06209
1130.90 0.06207
1131.00 0.06205
1131.10 0.06204
1131.20 0.06202
1131.30 0.062
1131.40 0.06199
1131.50 0.06197
1131.60 0.06195
1131.70 0.06193
1131.80 0.06192
1131.90 0.0619
1132.00 0.06188
1132.10 0.06186
1132.20 0.06185
1132.30 0.06183
1132.40 0.06181
1132.50 0.06179
1132.60 0.06177
1132.70 0.06175
1132.80 0.06173
1132.90 0.06172
1133.00 0.0617
1133.10 0.06168
1133.20 0.06166
1133.30 0.06164
1133.40 0.06162
1133.50 0.06161
1133.60 0.06159
1133.70 0.06157
1133.80 0.06155
1133.90 0.06153
1134.00 0.06151
1134.10 0.0615
1134.20 0.06148
1134.30 0.06146
1134.40 0.06144
1134.50 0.06142
1134.60 0.0614
1134.70 0.06139
1134.80 0.06137
1134.90 0.06135
1135.00 0.06133
1135.10 0.06131
1135.20 0.0613
1135.30 0.06128
1135.40 0.06126
1135.50 0.06124
1135.60 0.06122
1135.70 0.0612
1135.80 0.06119
1135.90 0.06117
1136.00 0.06115
1136.10 0.06113
1136.20 0.06111
1136.30 0.06109
1136.40 0.06108
1136.50 0.06106
1136.60 0.06104
1136.70 0.06102
1136.80 0.061
1136.90 0.06099
1137.00 0.06097
1137.10 0.06095
1137.20 0.06093
1137.30 0.06091
1137.40 0.06089
1137.50 0.06087
1137.60 0.06086
1137.70 0.06084
1137.80 0.06082
1137.90 0.0608
1138.00 0.06078
1138.10 0.06076
1138.20 0.06074
1138.30 0.06073
1138.40 0.06071
1138.50 0.06069
1138.60 0.06067
1138.70 0.06065
1138.80 0.06063
1138.90 0.06061
1139.00 0.0606
1139.10 0.06058
1139.20 0.06056
1139.30 0.06054
1139.40 0.06052
1139.50 0.0605
1139.60 0.06048
1139.70 0.06047
1139.80 0.06045
1139.90 0.06043
1140.00 0.06041
1140.10 0.06039
1140.20 0.06037
1140.30 0.06035
1140.40 0.06034
1140.50 0.06032
1140.60 0.0603
1140.70 0.06028
1140.80 0.06026
1140.90 0.06024
1141.00 0.06022
1141.10 0.06021
1141.20 0.06019
1141.30 0.06017
1141.40 0.06015
1141.50 0.06013
1141.60 0.06011
1141.70 0.0601
1141.80 0.06008
1141.90 0.06006
1142.00 0.06004
1142.10 0.06002
1142.20 0.06
1142.30 0.05998
1142.40 0.05997
1142.50 0.05995
1142.60 0.05993
1142.70 0.05991
1142.80 0.05989
1142.90 0.05987
1143.00 0.05985
1143.10 0.05983
1143.20 0.05982
1143.30 0.0598
1143.40 0.05978
1143.50 0.05976
1143.60 0.05974
1143.70 0.05972
1143.80 0.0597
1143.90 0.05969
1144.00 0.05967
1144.10 0.05965
1144.20 0.05963
1144.30 0.05961
1144.40 0.05959
1144.50 0.05957
1144.60 0.05956
1144.70 0.05954
1144.80 0.05952
1144.90 0.0595
1145.00 0.05948
1145.10 0.05946
1145.20 0.05944
1145.30 0.05943
1145.40 0.05941
1145.50 0.05939
1145.60 0.05937
1145.70 0.05935
1145.80 0.05933
1145.90 0.05931
1146.00 0.0593
1146.10 0.05928
1146.20 0.05926
1146.30 0.05924
1146.40 0.05922
1146.50 0.0592
1146.60 0.05918
1146.70 0.05917
1146.80 0.05915
1146.90 0.05913
1147.00 0.05911
1147.10 0.05909
1147.20 0.05907
1147.30 0.05905
1147.40 0.05904
1147.50 0.05902
1147.60 0.059
1147.70 0.05898
1147.80 0.05896
1147.90 0.05894
1148.00 0.05892
1148.10 0.05891
1148.20 0.05889
1148.30 0.05887
1148.40 0.05885
1148.50 0.05883
1148.60 0.05881
1148.70 0.05879
1148.80 0.05878
1148.90 0.05876
1149.00 0.05874
1149.10 0.05872
1149.20 0.0587
1149.30 0.05868
1149.40 0.05866
1149.50 0.05865
1149.60 0.05863
1149.70 0.05861
1149.80 0.05859
1149.90 0.05857
1150.00 0.05855
1150.10 0.05854
1150.20 0.05852
1150.30 0.0585
1150.40 0.05848
1150.50 0.05846
1150.60 0.05844
1150.70 0.05842
1150.80 0.05841
1150.90 0.05839
1151.00 0.05837
1151.10 0.05835
1151.20 0.05833
1151.30 0.05831
1151.40 0.0583
1151.50 0.05828
1151.60 0.05826
1151.70 0.05824
1151.80 0.05822
1151.90 0.0582
1152.00 0.05818
1152.10 0.05817
1152.20 0.05815
1152.30 0.05813
1152.40 0.05811
1152.50 0.05809
1152.60 0.05807
1152.70 0.05806
1152.80 0.05804
1152.90 0.05802
1153.00 0.058
1153.10 0.05798
1153.20 0.05796
1153.30 0.05795
1153.40 0.05793
1153.50 0.05791
1153.60 0.05789
1153.70 0.05787
1153.80 0.05785
1153.90 0.05784
1154.00 0.05782
1154.10 0.0578
1154.20 0.05778
1154.30 0.05776
1154.40 0.05774
1154.50 0.05773
1154.60 0.05771
1154.70 0.05769
1154.80 0.05767
1154.90 0.05765
1155.00 0.05763
1155.10 0.05762
1155.20 0.0576
1155.30 0.05758
1155.40 0.05756
1155.50 0.05754
1155.60 0.05753
1155.70 0.05751
1155.80 0.05749
1155.90 0.05747
1156.00 0.05745
1156.10 0.05743
1156.20 0.05742
1156.30 0.0574
1156.40 0.05738
1156.50 0.05736
1156.60 0.05734
1156.70 0.05732
1156.80 0.05731
1156.90 0.05729
1157.00 0.05727
1157.10 0.05725
1157.20 0.05723
1157.30 0.05722
1157.40 0.0572
1157.50 0.05718
1157.60 0.05716
1157.70 0.05714
1157.80 0.05712
1157.90 0.05711
1158.00 0.05709
1158.10 0.05707
1158.20 0.05705
1158.30 0.05703
1158.40 0.05702
1158.50 0.057
1158.60 0.05698
1158.70 0.05696
1158.80 0.05694
1158.90 0.05693
1159.00 0.05691
1159.10 0.05689
1159.20 0.05687
1159.30 0.05685
1159.40 0.05684
1159.50 0.05682
1159.60 0.0568
1159.70 0.05678
1159.80 0.05676
1159.90 0.05675
1160.00 0.05673
1160.10 0.05671
1160.20 0.05669
1160.30 0.05667
1160.40 0.05666
1160.50 0.05664
1160.60 0.05662
1160.70 0.0566
1160.80 0.05658
1160.90 0.05657
1161.00 0.05655
1161.10 0.05653
1161.20 0.05651
1161.30 0.05649
1161.40 0.05648
1161.50 0.05646
1161.60 0.05644
1161.70 0.05642
1161.80 0.0564
1161.90 0.05639
1162.00 0.05637
1162.10 0.05635
1162.20 0.05633
1162.30 0.05631
1162.40 0.0563
1162.50 0.05628
1162.60 0.05626
1162.70 0.05624
1162.80 0.05622
1162.90 0.05621
1163.00 0.05619
1163.10 0.05617
1163.20 0.05615
1163.30 0.05614
1163.40 0.05612
1163.50 0.0561
1163.60 0.05608
1163.70 0.05606
1163.80 0.05605
1163.90 0.05603
1164.00 0.05601
1164.10 0.05599
1164.20 0.05598
1164.30 0.05596
1164.40 0.05594
1164.50 0.05592
1164.60 0.0559
1164.70 0.05589
1164.80 0.05587
1164.90 0.05585
1165.00 0.05583
1165.10 0.05582
1165.20 0.0558
1165.30 0.05578
1165.40 0.05576
1165.50 0.05574
1165.60 0.05573
1165.70 0.05571
1165.80 0.05569
1165.90 0.05567
1166.00 0.05566
1166.10 0.05564
1166.20 0.05562
1166.30 0.0556
1166.40 0.05559
1166.50 0.05557
1166.60 0.05555
1166.70 0.05553
1166.80 0.05552
1166.90 0.0555
1167.00 0.05548
1167.10 0.05546
1167.20 0.05544
1167.30 0.05543
1167.40 0.05541
1167.50 0.05539
1167.60 0.05537
1167.70 0.05536
1167.80 0.05534
1167.90 0.05532
1168.00 0.0553
1168.10 0.05529
1168.20 0.05527
1168.30 0.05525
1168.40 0.05523
1168.50 0.05522
1168.60 0.0552
1168.70 0.05518
1168.80 0.05516
1168.90 0.05515
1169.00 0.05513
1169.10 0.05511
1169.20 0.05509
1169.30 0.05508
1169.40 0.05506
1169.50 0.05504
1169.60 0.05502
1169.70 0.05501
1169.80 0.05499
1169.90 0.05497
1170.00 0.05495
1170.10 0.05494
1170.20 0.05492
1170.30 0.0549
1170.40 0.05488
1170.50 0.05487
1170.60 0.05485
1170.70 0.05483
1170.80 0.05481
1170.90 0.0548
1171.00 0.05478
1171.10 0.05476
1171.20 0.05474
1171.30 0.05473
1171.40 0.05471
1171.50 0.05469
1171.60 0.05467
1171.70 0.05466
1171.80 0.05464
1171.90 0.05462
1172.00 0.05461
1172.10 0.05459
1172.20 0.05457
1172.30 0.05455
1172.40 0.05454
1172.50 0.05452
1172.60 0.0545
1172.70 0.05448
1172.80 0.05447
1172.90 0.05445
1173.00 0.05443
1173.10 0.05441
1173.20 0.0544
1173.30 0.05438
1173.40 0.05436
1173.50 0.05435
1173.60 0.05433
1173.70 0.05431
1173.80 0.05429
1173.90 0.05428
1174.00 0.05426
1174.10 0.05424
1174.20 0.05422
1174.30 0.05421
1174.40 0.05419
1174.50 0.05417
1174.60 0.05416
1174.70 0.05414
1174.80 0.05412
1174.90 0.0541
1175.00 0.05409
1175.10 0.05407
1175.20 0.05405
1175.30 0.05404
1175.40 0.05402
1175.50 0.054
1175.60 0.05398
1175.70 0.05397
1175.80 0.05395
1175.90 0.05393
1176.00 0.05392
1176.10 0.0539
1176.20 0.05388
1176.30 0.05386
1176.40 0.05385
1176.50 0.05383
1176.60 0.05381
1176.70 0.0538
1176.80 0.05378
1176.90 0.05376
1177.00 0.05374
1177.10 0.05373
1177.20 0.05371
1177.30 0.05369
1177.40 0.05368
1177.50 0.05366
1177.60 0.05364
1177.70 0.05363
1177.80 0.05361
1177.90 0.05359
1178.00 0.05357
1178.10 0.05356
1178.20 0.05354
1178.30 0.05352
1178.40 0.05351
1178.50 0.05349
1178.60 0.05347
1178.70 0.05346
1178.80 0.05344
1178.90 0.05342
1179.00 0.05341
1179.10 0.05339
1179.20 0.05337
1179.30 0.05335
1179.40 0.05334
1179.50 0.05332
1179.60 0.0533
1179.70 0.05329
1179.80 0.05327
1179.90 0.05325
1180.00 0.05324
1180.10 0.05322
1180.20 0.0532
1180.30 0.05319
1180.40 0.05317
1180.50 0.05315
1180.60 0.05314
1180.70 0.05312
1180.80 0.0531
1180.90 0.05309
1181.00 0.05307
1181.10 0.05305
1181.20 0.05303
1181.30 0.05302
1181.40 0.053
1181.50 0.05298
1181.60 0.05297
1181.70 0.05295
1181.80 0.05293
1181.90 0.05292
1182.00 0.0529
1182.10 0.05288
1182.20 0.05287
1182.30 0.05285
1182.40 0.05283
1182.50 0.05282
1182.60 0.0528
1182.70 0.05278
1182.80 0.05277
1182.90 0.05275
1183.00 0.05273
1183.10 0.05272
1183.20 0.0527
1183.30 0.05268
1183.40 0.05267
1183.50 0.05265
1183.60 0.05263
1183.70 0.05262
1183.80 0.0526
1183.90 0.05258
1184.00 0.05257
1184.10 0.05255
1184.20 0.05253
1184.30 0.05252
1184.40 0.0525
1184.50 0.05248
1184.60 0.05247
1184.70 0.05245
1184.80 0.05243
1184.90 0.05242
1185.00 0.0524
1185.10 0.05238
1185.20 0.05237
1185.30 0.05235
1185.40 0.05233
1185.50 0.05232
1185.60 0.0523
1185.70 0.05228
1185.80 0.05227
1185.90 0.05225
1186.00 0.05223
1186.10 0.05222
1186.20 0.0522
1186.30 0.05218
1186.40 0.05217
1186.50 0.05215
1186.60 0.05213
1186.70 0.05212
1186.80 0.0521
1186.90 0.05209
1187.00 0.05207
1187.10 0.05205
1187.20 0.05204
1187.30 0.05202
1187.40 0.052
1187.50 0.05199
1187.60 0.05197
1187.70 0.05195
1187.80 0.05194
1187.90 0.05192
1188.00 0.0519
1188.10 0.05189
1188.20 0.05187
1188.30 0.05186
1188.40 0.05184
1188.50 0.05182
1188.60 0.05181
1188.70 0.05179
1188.80 0.05177
1188.90 0.05176
1189.00 0.05174
1189.10 0.05172
1189.20 0.05171
1189.30 0.05169
1189.40 0.05168
1189.50 0.05166
1189.60 0.05164
1189.70 0.05163
1189.80 0.05161
1189.90 0.05159
1190.00 0.05158
1190.10 0.05156
1190.20 0.05155
1190.30 0.05153
1190.40 0.05151
1190.50 0.0515
1190.60 0.05148
1190.70 0.05146
1190.80 0.05145
1190.90 0.05143
1191.00 0.05141
1191.10 0.0514
1191.20 0.05138
1191.30 0.05137
1191.40 0.05135
1191.50 0.05133
1191.60 0.05132
1191.70 0.0513
1191.80 0.05129
1191.90 0.05127
1192.00 0.05125
1192.10 0.05124
1192.20 0.05122
1192.30 0.0512
1192.40 0.05119
1192.50 0.05117
1192.60 0.05116
1192.70 0.05114
1192.80 0.05112
1192.90 0.05111
1193.00 0.05109
1193.10 0.05107
1193.20 0.05106
1193.30 0.05104
1193.40 0.05103
1193.50 0.05101
1193.60 0.05099
1193.70 0.05098
1193.80 0.05096
1193.90 0.05095
1194.00 0.05093
1194.10 0.05091
1194.20 0.0509
1194.30 0.05088
1194.40 0.05087
1194.50 0.05085
1194.60 0.05083
1194.70 0.05082
1194.80 0.0508
1194.90 0.05078
1195.00 0.05077
1195.10 0.05075
1195.20 0.05074
1195.30 0.05072
1195.40 0.0507
1195.50 0.05069
1195.60 0.05067
1195.70 0.05066
1195.80 0.05064
1195.90 0.05062
1196.00 0.05061
1196.10 0.05059
1196.20 0.05058
1196.30 0.05056
1196.40 0.05054
1196.50 0.05053
1196.60 0.05051
1196.70 0.0505
1196.80 0.05048
1196.90 0.05046
1197.00 0.05045
1197.10 0.05043
1197.20 0.05042
1197.30 0.0504
1197.40 0.05038
1197.50 0.05037
1197.60 0.05035
1197.70 0.05034
1197.80 0.05032
1197.90 0.05031
1198.00 0.05029
1198.10 0.05027
1198.20 0.05026
1198.30 0.05024
1198.40 0.05023
1198.50 0.05021
1198.60 0.05019
1198.70 0.05018
1198.80 0.05016
1198.90 0.05015
1199.00 0.05013
1199.10 0.05012
1199.20 0.0501
1199.30 0.05008
1199.40 0.05007
1199.50 0.05005
1199.60 0.05004
1199.70 0.05002
1199.80 0.05
1199.90 0.04999
1200.00 0
