# Version 2.1 - nm, norm@500 to 1, cut digits, bergeron_80000_90.dat_80000
# Wavelength(nm)  Flambda(ergs/cm^s/s/nm)
300.00 6.694
300.10 6.686
300.20 6.678
300.30 6.669
300.40 6.661
300.50 6.653
300.60 6.645
300.70 6.636
300.80 6.628
300.90 6.62
301.00 6.612
301.10 6.604
301.20 6.595
301.30 6.587
301.40 6.579
301.50 6.571
301.60 6.563
301.70 6.555
301.80 6.547
301.90 6.538
302.00 6.53
302.10 6.522
302.20 6.514
302.30 6.506
302.40 6.498
302.50 6.49
302.60 6.482
302.70 6.474
302.80 6.466
302.90 6.458
303.00 6.45
303.10 6.442
303.20 6.434
303.30 6.426
303.40 6.419
303.50 6.411
303.60 6.403
303.70 6.395
303.80 6.387
303.90 6.379
304.00 6.371
304.10 6.364
304.20 6.356
304.30 6.348
304.40 6.34
304.50 6.332
304.60 6.325
304.70 6.317
304.80 6.309
304.90 6.301
305.00 6.294
305.10 6.286
305.20 6.278
305.30 6.271
305.40 6.263
305.50 6.255
305.60 6.248
305.70 6.24
305.80 6.232
305.90 6.225
306.00 6.217
306.10 6.21
306.20 6.202
306.30 6.194
306.40 6.187
306.50 6.179
306.60 6.172
306.70 6.164
306.80 6.157
306.90 6.149
307.00 6.142
307.10 6.134
307.20 6.127
307.30 6.119
307.40 6.112
307.50 6.105
307.60 6.097
307.70 6.09
307.80 6.082
307.90 6.075
308.00 6.068
308.10 6.06
308.20 6.053
308.30 6.046
308.40 6.038
308.50 6.031
308.60 6.024
308.70 6.016
308.80 6.009
308.90 6.002
309.00 5.994
309.10 5.987
309.20 5.98
309.30 5.973
309.40 5.966
309.50 5.958
309.60 5.951
309.70 5.944
309.80 5.937
309.90 5.93
310.00 5.922
310.10 5.915
310.20 5.908
310.30 5.901
310.40 5.894
310.50 5.887
310.60 5.88
310.70 5.873
310.80 5.866
310.90 5.859
311.00 5.852
311.10 5.845
311.20 5.838
311.30 5.831
311.40 5.823
311.50 5.816
311.60 5.81
311.70 5.803
311.80 5.796
311.90 5.789
312.00 5.782
312.10 5.775
312.20 5.768
312.30 5.761
312.40 5.754
312.50 5.747
312.60 5.74
312.70 5.733
312.80 5.727
312.90 5.72
313.00 5.713
313.10 5.706
313.20 5.699
313.30 5.692
313.40 5.686
313.50 5.679
313.60 5.672
313.70 5.665
313.80 5.659
313.90 5.652
314.00 5.645
314.10 5.638
314.20 5.632
314.30 5.625
314.40 5.618
314.50 5.612
314.60 5.605
314.70 5.598
314.80 5.592
314.90 5.585
315.00 5.578
315.10 5.572
315.20 5.565
315.30 5.558
315.40 5.552
315.50 5.545
315.60 5.539
315.70 5.532
315.80 5.526
315.90 5.519
316.00 5.513
316.10 5.506
316.20 5.5
316.30 5.493
316.40 5.486
316.50 5.48
316.60 5.474
316.70 5.467
316.80 5.461
316.90 5.454
317.00 5.448
317.10 5.441
317.20 5.435
317.30 5.428
317.40 5.422
317.50 5.416
317.60 5.409
317.70 5.403
317.80 5.397
317.90 5.39
318.00 5.384
318.10 5.378
318.20 5.371
318.30 5.365
318.40 5.359
318.50 5.352
318.60 5.346
318.70 5.34
318.80 5.333
318.90 5.327
319.00 5.321
319.10 5.315
319.20 5.308
319.30 5.302
319.40 5.296
319.50 5.29
319.60 5.284
319.70 5.277
319.80 5.271
319.90 5.265
320.00 5.259
320.10 5.253
320.20 5.247
320.30 5.24
320.40 5.234
320.50 5.228
320.60 5.222
320.70 5.216
320.80 5.21
320.90 5.204
321.00 5.198
321.10 5.192
321.20 5.186
321.30 5.18
321.40 5.174
321.50 5.168
321.60 5.162
321.70 5.156
321.80 5.15
321.90 5.144
322.00 5.138
322.10 5.132
322.20 5.126
322.30 5.12
322.40 5.114
322.50 5.108
322.60 5.102
322.70 5.096
322.80 5.09
322.90 5.084
323.00 5.078
323.10 5.072
323.20 5.066
323.30 5.061
323.40 5.055
323.50 5.049
323.60 5.043
323.70 5.037
323.80 5.031
323.90 5.026
324.00 5.02
324.10 5.014
324.20 5.008
324.30 5.002
324.40 4.997
324.50 4.991
324.60 4.985
324.70 4.979
324.80 4.974
324.90 4.968
325.00 4.962
325.10 4.956
325.20 4.951
325.30 4.945
325.40 4.939
325.50 4.934
325.60 4.928
325.70 4.922
325.80 4.917
325.90 4.911
326.00 4.905
326.10 4.9
326.20 4.894
326.30 4.888
326.40 4.883
326.50 4.877
326.60 4.872
326.70 4.866
326.80 4.86
326.90 4.855
327.00 4.849
327.10 4.844
327.20 4.838
327.30 4.833
327.40 4.827
327.50 4.822
327.60 4.816
327.70 4.811
327.80 4.805
327.90 4.8
328.00 4.794
328.10 4.789
328.20 4.783
328.30 4.778
328.40 4.772
328.50 4.767
328.60 4.761
328.70 4.756
328.80 4.75
328.90 4.745
329.00 4.74
329.10 4.734
329.20 4.729
329.30 4.723
329.40 4.718
329.50 4.713
329.60 4.707
329.70 4.702
329.80 4.697
329.90 4.691
330.00 4.686
330.10 4.681
330.20 4.675
330.30 4.67
330.40 4.665
330.50 4.66
330.60 4.654
330.70 4.649
330.80 4.644
330.90 4.638
331.00 4.633
331.10 4.628
331.20 4.623
331.30 4.617
331.40 4.612
331.50 4.607
331.60 4.602
331.70 4.597
331.80 4.591
331.90 4.586
332.00 4.581
332.10 4.576
332.20 4.571
332.30 4.566
332.40 4.56
332.50 4.555
332.60 4.55
332.70 4.545
332.80 4.54
332.90 4.535
333.00 4.53
333.10 4.525
333.20 4.519
333.30 4.514
333.40 4.509
333.50 4.504
333.60 4.499
333.70 4.494
333.80 4.489
333.90 4.484
334.00 4.479
334.10 4.474
334.20 4.469
334.30 4.464
334.40 4.459
334.50 4.454
334.60 4.449
334.70 4.444
334.80 4.439
334.90 4.434
335.00 4.429
335.10 4.424
335.20 4.419
335.30 4.414
335.40 4.409
335.50 4.404
335.60 4.399
335.70 4.394
335.80 4.389
335.90 4.385
336.00 4.38
336.10 4.375
336.20 4.37
336.30 4.365
336.40 4.36
336.50 4.355
336.60 4.35
336.70 4.346
336.80 4.341
336.90 4.336
337.00 4.331
337.10 4.326
337.20 4.321
337.30 4.317
337.40 4.312
337.50 4.307
337.60 4.302
337.70 4.297
337.80 4.293
337.90 4.288
338.00 4.283
338.10 4.278
338.20 4.274
338.30 4.269
338.40 4.264
338.50 4.259
338.60 4.255
338.70 4.25
338.80 4.245
338.90 4.241
339.00 4.236
339.10 4.231
339.20 4.227
339.30 4.222
339.40 4.217
339.50 4.213
339.60 4.208
339.70 4.203
339.80 4.199
339.90 4.194
340.00 4.189
340.10 4.185
340.20 4.18
340.30 4.175
340.40 4.171
340.50 4.166
340.60 4.162
340.70 4.157
340.80 4.152
340.90 4.148
341.00 4.143
341.10 4.139
341.20 4.134
341.30 4.13
341.40 4.125
341.50 4.121
341.60 4.116
341.70 4.111
341.80 4.107
341.90 4.102
342.00 4.098
342.10 4.093
342.20 4.089
342.30 4.084
342.40 4.08
342.50 4.076
342.60 4.071
342.70 4.067
342.80 4.062
342.90 4.058
343.00 4.053
343.10 4.049
343.20 4.044
343.30 4.04
343.40 4.036
343.50 4.031
343.60 4.027
343.70 4.022
343.80 4.018
343.90 4.014
344.00 4.009
344.10 4.005
344.20 4
344.30 3.996
344.40 3.992
344.50 3.987
344.60 3.983
344.70 3.979
344.80 3.974
344.90 3.97
345.00 3.966
345.10 3.961
345.20 3.957
345.30 3.953
345.40 3.948
345.50 3.944
345.60 3.94
345.70 3.936
345.80 3.931
345.90 3.927
346.00 3.923
346.10 3.918
346.20 3.914
346.30 3.91
346.40 3.906
346.50 3.902
346.60 3.897
346.70 3.893
346.80 3.889
346.90 3.885
347.00 3.88
347.10 3.876
347.20 3.872
347.30 3.868
347.40 3.864
347.50 3.859
347.60 3.855
347.70 3.851
347.80 3.847
347.90 3.843
348.00 3.839
348.10 3.834
348.20 3.83
348.30 3.826
348.40 3.822
348.50 3.818
348.60 3.814
348.70 3.81
348.80 3.806
348.90 3.802
349.00 3.797
349.10 3.793
349.20 3.789
349.30 3.785
349.40 3.781
349.50 3.777
349.60 3.773
349.70 3.769
349.80 3.765
349.90 3.761
350.00 3.757
350.10 3.753
350.20 3.749
350.30 3.745
350.40 3.741
350.50 3.737
350.60 3.733
350.70 3.729
350.80 3.725
350.90 3.721
351.00 3.717
351.10 3.713
351.20 3.709
351.30 3.705
351.40 3.701
351.50 3.697
351.60 3.693
351.70 3.689
351.80 3.685
351.90 3.681
352.00 3.677
352.10 3.673
352.20 3.669
352.30 3.665
352.40 3.661
352.50 3.658
352.60 3.654
352.70 3.65
352.80 3.646
352.90 3.642
353.00 3.638
353.10 3.634
353.20 3.63
353.30 3.626
353.40 3.623
353.50 3.619
353.60 3.615
353.70 3.611
353.80 3.607
353.90 3.603
354.00 3.6
354.10 3.596
354.20 3.592
354.30 3.588
354.40 3.584
354.50 3.58
354.60 3.577
354.70 3.573
354.80 3.569
354.90 3.565
355.00 3.562
355.10 3.558
355.20 3.554
355.30 3.55
355.40 3.546
355.50 3.543
355.60 3.539
355.70 3.535
355.80 3.531
355.90 3.528
356.00 3.524
356.10 3.52
356.20 3.517
356.30 3.513
356.40 3.509
356.50 3.505
356.60 3.502
356.70 3.498
356.80 3.494
356.90 3.491
357.00 3.487
357.10 3.483
357.20 3.48
357.30 3.476
357.40 3.472
357.50 3.469
357.60 3.465
357.70 3.461
357.80 3.458
357.90 3.454
358.00 3.45
358.10 3.447
358.20 3.443
358.30 3.44
358.40 3.436
358.50 3.432
358.60 3.429
358.70 3.425
358.80 3.422
358.90 3.418
359.00 3.414
359.10 3.411
359.20 3.407
359.30 3.404
359.40 3.4
359.50 3.397
359.60 3.393
359.70 3.389
359.80 3.386
359.90 3.382
360.00 3.379
360.10 3.375
360.20 3.372
360.30 3.368
360.40 3.365
360.50 3.361
360.60 3.358
360.70 3.354
360.80 3.351
360.90 3.347
361.00 3.344
361.10 3.34
361.20 3.337
361.30 3.333
361.40 3.33
361.50 3.326
361.60 3.323
361.70 3.319
361.80 3.316
361.90 3.312
362.00 3.309
362.10 3.306
362.20 3.302
362.30 3.299
362.40 3.295
362.50 3.292
362.60 3.288
362.70 3.285
362.80 3.282
362.90 3.278
363.00 3.275
363.10 3.271
363.20 3.268
363.30 3.265
363.40 3.261
363.50 3.258
363.60 3.255
363.70 3.251
363.80 3.248
363.90 3.244
364.00 3.241
364.10 3.238
364.20 3.234
364.30 3.231
364.40 3.228
364.50 3.224
364.60 3.221
364.70 3.218
364.80 3.214
364.90 3.211
365.00 3.208
365.10 3.204
365.20 3.201
365.30 3.198
365.40 3.195
365.50 3.191
365.60 3.188
365.70 3.185
365.80 3.181
365.90 3.178
366.00 3.175
366.10 3.172
366.20 3.168
366.30 3.165
366.40 3.162
366.50 3.158
366.60 3.155
366.70 3.152
366.80 3.149
366.90 3.145
367.00 3.142
367.10 3.139
367.20 3.136
367.30 3.132
367.40 3.129
367.50 3.126
367.60 3.123
367.70 3.119
367.80 3.116
367.90 3.113
368.00 3.11
368.10 3.107
368.20 3.103
368.30 3.1
368.40 3.097
368.50 3.094
368.60 3.09
368.70 3.087
368.80 3.084
368.90 3.081
369.00 3.077
369.10 3.074
369.20 3.071
369.30 3.068
369.40 3.064
369.50 3.061
369.60 3.058
369.70 3.055
369.80 3.052
369.90 3.048
370.00 3.045
370.10 3.042
370.20 3.039
370.30 3.036
370.40 3.032
370.50 3.029
370.60 3.026
370.70 3.023
370.80 3.02
370.90 3.017
371.00 3.014
371.10 3.01
371.20 3.007
371.30 3.004
371.40 3.001
371.50 2.998
371.60 2.995
371.70 2.992
371.80 2.988
371.90 2.985
372.00 2.982
372.10 2.979
372.20 2.976
372.30 2.973
372.40 2.97
372.50 2.967
372.60 2.964
372.70 2.961
372.80 2.958
372.90 2.955
373.00 2.952
373.10 2.949
373.20 2.947
373.30 2.944
373.40 2.941
373.50 2.938
373.60 2.935
373.70 2.932
373.80 2.929
373.90 2.926
374.00 2.923
374.10 2.92
374.20 2.917
374.30 2.914
374.40 2.911
374.50 2.908
374.60 2.905
374.70 2.902
374.80 2.899
374.90 2.896
375.00 2.893
375.10 2.89
375.20 2.887
375.30 2.884
375.40 2.881
375.50 2.878
375.60 2.875
375.70 2.872
375.80 2.869
375.90 2.866
376.00 2.863
376.10 2.86
376.20 2.857
376.30 2.854
376.40 2.851
376.50 2.848
376.60 2.846
376.70 2.843
376.80 2.84
376.90 2.837
377.00 2.834
377.10 2.831
377.20 2.828
377.30 2.825
377.40 2.822
377.50 2.82
377.60 2.817
377.70 2.814
377.80 2.811
377.90 2.808
378.00 2.805
378.10 2.802
378.20 2.8
378.30 2.797
378.40 2.794
378.50 2.791
378.60 2.788
378.70 2.786
378.80 2.783
378.90 2.78
379.00 2.777
379.10 2.774
379.20 2.772
379.30 2.769
379.40 2.766
379.50 2.763
379.60 2.761
379.70 2.758
379.80 2.755
379.90 2.752
380.00 2.749
380.10 2.747
380.20 2.744
380.30 2.741
380.40 2.739
380.50 2.736
380.60 2.733
380.70 2.73
380.80 2.728
380.90 2.725
381.00 2.722
381.10 2.72
381.20 2.717
381.30 2.714
381.40 2.712
381.50 2.709
381.60 2.706
381.70 2.703
381.80 2.701
381.90 2.698
382.00 2.696
382.10 2.693
382.20 2.69
382.30 2.688
382.40 2.685
382.50 2.682
382.60 2.68
382.70 2.677
382.80 2.674
382.90 2.672
383.00 2.669
383.10 2.667
383.20 2.664
383.30 2.661
383.40 2.659
383.50 2.656
383.60 2.654
383.70 2.651
383.80 2.649
383.90 2.646
384.00 2.643
384.10 2.641
384.20 2.638
384.30 2.636
384.40 2.633
384.50 2.631
384.60 2.628
384.70 2.626
384.80 2.623
384.90 2.621
385.00 2.618
385.10 2.616
385.20 2.613
385.30 2.611
385.40 2.608
385.50 2.606
385.60 2.603
385.70 2.601
385.80 2.598
385.90 2.596
386.00 2.593
386.10 2.591
386.20 2.588
386.30 2.586
386.40 2.583
386.50 2.581
386.60 2.578
386.70 2.576
386.80 2.573
386.90 2.571
387.00 2.569
387.10 2.566
387.20 2.564
387.30 2.561
387.40 2.559
387.50 2.556
387.60 2.554
387.70 2.551
387.80 2.549
387.90 2.546
388.00 2.544
388.10 2.542
388.20 2.539
388.30 2.537
388.40 2.534
388.50 2.532
388.60 2.53
388.70 2.527
388.80 2.525
388.90 2.523
389.00 2.52
389.10 2.518
389.20 2.516
389.30 2.513
389.40 2.511
389.50 2.509
389.60 2.507
389.70 2.504
389.80 2.502
389.90 2.5
390.00 2.498
390.10 2.495
390.20 2.493
390.30 2.491
390.40 2.489
390.50 2.487
390.60 2.484
390.70 2.482
390.80 2.48
390.90 2.478
391.00 2.475
391.10 2.473
391.20 2.471
391.30 2.469
391.40 2.466
391.50 2.464
391.60 2.462
391.70 2.46
391.80 2.457
391.90 2.455
392.00 2.453
392.10 2.45
392.20 2.448
392.30 2.446
392.40 2.444
392.50 2.441
392.60 2.439
392.70 2.437
392.80 2.434
392.90 2.432
393.00 2.429
393.10 2.427
393.20 2.425
393.30 2.422
393.40 2.42
393.50 2.418
393.60 2.415
393.70 2.413
393.80 2.41
393.90 2.408
394.00 2.405
394.10 2.403
394.20 2.401
394.30 2.398
394.40 2.396
394.50 2.393
394.60 2.391
394.70 2.388
394.80 2.386
394.90 2.383
395.00 2.381
395.10 2.378
395.20 2.376
395.30 2.373
395.40 2.371
395.50 2.368
395.60 2.366
395.70 2.363
395.80 2.361
395.90 2.358
396.00 2.356
396.10 2.353
396.20 2.351
396.30 2.348
396.40 2.346
396.50 2.343
396.60 2.341
396.70 2.339
396.80 2.336
396.90 2.334
397.00 2.332
397.10 2.33
397.20 2.328
397.30 2.326
397.40 2.325
397.50 2.323
397.60 2.321
397.70 2.32
397.80 2.318
397.90 2.316
398.00 2.315
398.10 2.313
398.20 2.312
398.30 2.31
398.40 2.309
398.50 2.307
398.60 2.305
398.70 2.304
398.80 2.302
398.90 2.301
399.00 2.299
399.10 2.297
399.20 2.296
399.30 2.294
399.40 2.293
399.50 2.291
399.60 2.289
399.70 2.288
399.80 2.286
399.90 2.284
400.00 2.283
400.10 2.281
400.20 2.279
400.30 2.277
400.40 2.276
400.50 2.274
400.60 2.272
400.70 2.27
400.80 2.268
400.90 2.267
401.00 2.265
401.10 2.263
401.20 2.261
401.30 2.259
401.40 2.257
401.50 2.255
401.60 2.253
401.70 2.251
401.80 2.249
401.90 2.247
402.00 2.245
402.10 2.243
402.20 2.241
402.30 2.239
402.40 2.237
402.50 2.235
402.60 2.233
402.70 2.231
402.80 2.229
402.90 2.227
403.00 2.224
403.10 2.222
403.20 2.22
403.30 2.218
403.40 2.216
403.50 2.213
403.60 2.211
403.70 2.209
403.80 2.206
403.90 2.204
404.00 2.202
404.10 2.199
404.20 2.197
404.30 2.194
404.40 2.192
404.50 2.19
404.60 2.187
404.70 2.185
404.80 2.182
404.90 2.179
405.00 2.177
405.10 2.174
405.20 2.172
405.30 2.169
405.40 2.166
405.50 2.164
405.60 2.161
405.70 2.158
405.80 2.155
405.90 2.153
406.00 2.15
406.10 2.147
406.20 2.144
406.30 2.141
406.40 2.138
406.50 2.136
406.60 2.133
406.70 2.13
406.80 2.127
406.90 2.124
407.00 2.121
407.10 2.118
407.20 2.114
407.30 2.111
407.40 2.108
407.50 2.105
407.60 2.102
407.70 2.099
407.80 2.096
407.90 2.092
408.00 2.089
408.10 2.086
408.20 2.083
408.30 2.079
408.40 2.076
408.50 2.073
408.60 2.07
408.70 2.067
408.80 2.063
408.90 2.06
409.00 2.057
409.10 2.054
409.20 2.051
409.30 2.048
409.40 2.045
409.50 2.043
409.60 2.04
409.70 2.038
409.80 2.036
409.90 2.035
410.00 2.034
410.10 2.032
410.20 2.031
410.30 2.028
410.40 2.026
410.50 2.024
410.60 2.022
410.70 2.021
410.80 2.02
410.90 2.019
411.00 2.018
411.10 2.017
411.20 2.017
411.30 2.016
411.40 2.016
411.50 2.015
411.60 2.015
411.70 2.015
411.80 2.014
411.90 2.014
412.00 2.014
412.10 2.013
412.20 2.013
412.30 2.013
412.40 2.012
412.50 2.012
412.60 2.012
412.70 2.011
412.80 2.011
412.90 2.01
413.00 2.01
413.10 2.009
413.20 2.009
413.30 2.008
413.40 2.008
413.50 2.007
413.60 2.007
413.70 2.006
413.80 2.006
413.90 2.005
414.00 2.004
414.10 2.003
414.20 2.003
414.30 2.002
414.40 2.001
414.50 2
414.60 2
414.70 1.999
414.80 1.998
414.90 1.997
415.00 1.996
415.10 1.995
415.20 1.994
415.30 1.993
415.40 1.992
415.50 1.991
415.60 1.99
415.70 1.989
415.80 1.988
415.90 1.987
416.00 1.986
416.10 1.985
416.20 1.984
416.30 1.983
416.40 1.982
416.50 1.98
416.60 1.979
416.70 1.978
416.80 1.977
416.90 1.976
417.00 1.974
417.10 1.973
417.20 1.972
417.30 1.97
417.40 1.969
417.50 1.968
417.60 1.966
417.70 1.965
417.80 1.964
417.90 1.962
418.00 1.961
418.10 1.96
418.20 1.958
418.30 1.957
418.40 1.955
418.50 1.954
418.60 1.952
418.70 1.951
418.80 1.95
418.90 1.948
419.00 1.947
419.10 1.945
419.20 1.944
419.30 1.942
419.40 1.94
419.50 1.939
419.60 1.937
419.70 1.936
419.80 1.934
419.90 1.933
420.00 1.931
420.10 1.93
420.20 1.928
420.30 1.926
420.40 1.925
420.50 1.923
420.60 1.921
420.70 1.92
420.80 1.918
420.90 1.916
421.00 1.915
421.10 1.913
421.20 1.911
421.30 1.91
421.40 1.908
421.50 1.906
421.60 1.905
421.70 1.903
421.80 1.901
421.90 1.899
422.00 1.898
422.10 1.896
422.20 1.894
422.30 1.892
422.40 1.891
422.50 1.889
422.60 1.887
422.70 1.885
422.80 1.883
422.90 1.882
423.00 1.88
423.10 1.878
423.20 1.876
423.30 1.874
423.40 1.872
423.50 1.87
423.60 1.868
423.70 1.867
423.80 1.865
423.90 1.863
424.00 1.861
424.10 1.859
424.20 1.857
424.30 1.855
424.40 1.853
424.50 1.851
424.60 1.849
424.70 1.847
424.80 1.845
424.90 1.843
425.00 1.841
425.10 1.839
425.20 1.837
425.30 1.835
425.40 1.833
425.50 1.83
425.60 1.828
425.70 1.826
425.80 1.824
425.90 1.822
426.00 1.82
426.10 1.818
426.20 1.815
426.30 1.813
426.40 1.811
426.50 1.809
426.60 1.806
426.70 1.804
426.80 1.802
426.90 1.799
427.00 1.797
427.10 1.794
427.20 1.792
427.30 1.79
427.40 1.787
427.50 1.785
427.60 1.782
427.70 1.78
427.80 1.777
427.90 1.775
428.00 1.772
428.10 1.769
428.20 1.767
428.30 1.764
428.40 1.761
428.50 1.759
428.60 1.756
428.70 1.753
428.80 1.75
428.90 1.747
429.00 1.744
429.10 1.742
429.20 1.739
429.30 1.736
429.40 1.733
429.50 1.73
429.60 1.726
429.70 1.723
429.80 1.72
429.90 1.717
430.00 1.714
430.10 1.71
430.20 1.707
430.30 1.704
430.40 1.7
430.50 1.697
430.60 1.693
430.70 1.69
430.80 1.686
430.90 1.683
431.00 1.679
431.10 1.676
431.20 1.672
431.30 1.668
431.40 1.664
431.50 1.661
431.60 1.657
431.70 1.653
431.80 1.649
431.90 1.645
432.00 1.641
432.10 1.637
432.20 1.633
432.30 1.629
432.40 1.625
432.50 1.621
432.60 1.617
432.70 1.613
432.80 1.609
432.90 1.605
433.00 1.601
433.10 1.596
433.20 1.592
433.30 1.588
433.40 1.584
433.50 1.579
433.60 1.575
433.70 1.57
433.80 1.564
433.90 1.559
434.00 1.555
434.10 1.554
434.20 1.555
434.30 1.558
434.40 1.561
434.50 1.564
434.60 1.565
434.70 1.567
434.80 1.569
434.90 1.57
435.00 1.572
435.10 1.573
435.20 1.575
435.30 1.576
435.40 1.578
435.50 1.579
435.60 1.58
435.70 1.581
435.80 1.583
435.90 1.584
436.00 1.585
436.10 1.586
436.20 1.588
436.30 1.589
436.40 1.59
436.50 1.591
436.60 1.592
436.70 1.593
436.80 1.594
436.90 1.595
437.00 1.595
437.10 1.596
437.20 1.597
437.30 1.598
437.40 1.598
437.50 1.599
437.60 1.599
437.70 1.6
437.80 1.6
437.90 1.601
438.00 1.601
438.10 1.601
438.20 1.602
438.30 1.602
438.40 1.602
438.50 1.602
438.60 1.602
438.70 1.603
438.80 1.603
438.90 1.603
439.00 1.603
439.10 1.603
439.20 1.602
439.30 1.602
439.40 1.602
439.50 1.602
439.60 1.602
439.70 1.602
439.80 1.601
439.90 1.601
440.00 1.601
440.10 1.6
440.20 1.6
440.30 1.599
440.40 1.599
440.50 1.599
440.60 1.598
440.70 1.597
440.80 1.597
440.90 1.596
441.00 1.596
441.10 1.595
441.20 1.595
441.30 1.594
441.40 1.593
441.50 1.593
441.60 1.592
441.70 1.591
441.80 1.59
441.90 1.59
442.00 1.589
442.10 1.588
442.20 1.587
442.30 1.586
442.40 1.586
442.50 1.585
442.60 1.584
442.70 1.583
442.80 1.582
442.90 1.581
443.00 1.58
443.10 1.579
443.20 1.579
443.30 1.578
443.40 1.577
443.50 1.576
443.60 1.575
443.70 1.574
443.80 1.573
443.90 1.572
444.00 1.571
444.10 1.57
444.20 1.569
444.30 1.568
444.40 1.567
444.50 1.566
444.60 1.565
444.70 1.563
444.80 1.562
444.90 1.561
445.00 1.56
445.10 1.559
445.20 1.558
445.30 1.557
445.40 1.556
445.50 1.555
445.60 1.554
445.70 1.553
445.80 1.551
445.90 1.55
446.00 1.549
446.10 1.548
446.20 1.547
446.30 1.546
446.40 1.545
446.50 1.544
446.60 1.542
446.70 1.541
446.80 1.54
446.90 1.539
447.00 1.538
447.10 1.537
447.20 1.535
447.30 1.534
447.40 1.533
447.50 1.532
447.60 1.531
447.70 1.53
447.80 1.528
447.90 1.527
448.00 1.526
448.10 1.525
448.20 1.524
448.30 1.522
448.40 1.521
448.50 1.52
448.60 1.519
448.70 1.518
448.80 1.517
448.90 1.515
449.00 1.514
449.10 1.513
449.20 1.512
449.30 1.511
449.40 1.509
449.50 1.508
449.60 1.507
449.70 1.506
449.80 1.505
449.90 1.503
450.00 1.502
450.10 1.501
450.20 1.5
450.30 1.498
450.40 1.497
450.50 1.496
450.60 1.495
450.70 1.494
450.80 1.492
450.90 1.491
451.00 1.49
451.10 1.489
451.20 1.488
451.30 1.486
451.40 1.485
451.50 1.484
451.60 1.483
451.70 1.482
451.80 1.48
451.90 1.479
452.00 1.478
452.10 1.477
452.20 1.476
452.30 1.474
452.40 1.473
452.50 1.472
452.60 1.471
452.70 1.469
452.80 1.468
452.90 1.467
453.00 1.466
453.10 1.465
453.20 1.463
453.30 1.462
453.40 1.461
453.50 1.46
453.60 1.459
453.70 1.457
453.80 1.456
453.90 1.455
454.00 1.454
454.10 1.453
454.20 1.451
454.30 1.45
454.40 1.449
454.50 1.448
454.60 1.447
454.70 1.445
454.80 1.444
454.90 1.443
455.00 1.442
455.10 1.441
455.20 1.439
455.30 1.438
455.40 1.437
455.50 1.436
455.60 1.435
455.70 1.433
455.80 1.432
455.90 1.431
456.00 1.43
456.10 1.429
456.20 1.427
456.30 1.426
456.40 1.425
456.50 1.424
456.60 1.423
456.70 1.421
456.80 1.42
456.90 1.419
457.00 1.418
457.10 1.417
457.20 1.416
457.30 1.414
457.40 1.413
457.50 1.412
457.60 1.411
457.70 1.41
457.80 1.408
457.90 1.407
458.00 1.406
458.10 1.405
458.20 1.404
458.30 1.403
458.40 1.401
458.50 1.4
458.60 1.399
458.70 1.398
458.80 1.397
458.90 1.396
459.00 1.394
459.10 1.393
459.20 1.392
459.30 1.391
459.40 1.39
459.50 1.389
459.60 1.387
459.70 1.386
459.80 1.385
459.90 1.384
460.00 1.383
460.10 1.382
460.20 1.38
460.30 1.379
460.40 1.378
460.50 1.377
460.60 1.376
460.70 1.375
460.80 1.373
460.90 1.372
461.00 1.371
461.10 1.37
461.20 1.369
461.30 1.368
461.40 1.367
461.50 1.365
461.60 1.364
461.70 1.363
461.80 1.362
461.90 1.361
462.00 1.36
462.10 1.358
462.20 1.357
462.30 1.356
462.40 1.355
462.50 1.354
462.60 1.353
462.70 1.352
462.80 1.35
462.90 1.349
463.00 1.348
463.10 1.347
463.20 1.346
463.30 1.345
463.40 1.344
463.50 1.342
463.60 1.341
463.70 1.34
463.80 1.339
463.90 1.338
464.00 1.337
464.10 1.336
464.20 1.335
464.30 1.333
464.40 1.332
464.50 1.331
464.60 1.33
464.70 1.329
464.80 1.328
464.90 1.327
465.00 1.325
465.10 1.324
465.20 1.323
465.30 1.322
465.40 1.321
465.50 1.32
465.60 1.319
465.70 1.318
465.80 1.316
465.90 1.315
466.00 1.314
466.10 1.313
466.20 1.312
466.30 1.311
466.40 1.31
466.50 1.309
466.60 1.307
466.70 1.306
466.80 1.305
466.90 1.304
467.00 1.303
467.10 1.302
467.20 1.301
467.30 1.3
467.40 1.298
467.50 1.297
467.60 1.296
467.70 1.295
467.80 1.294
467.90 1.293
468.00 1.292
468.10 1.291
468.20 1.29
468.30 1.288
468.40 1.287
468.50 1.286
468.60 1.285
468.70 1.284
468.80 1.283
468.90 1.282
469.00 1.281
469.10 1.279
469.20 1.278
469.30 1.277
469.40 1.276
469.50 1.275
469.60 1.274
469.70 1.273
469.80 1.272
469.90 1.27
470.00 1.269
470.10 1.268
470.20 1.267
470.30 1.266
470.40 1.265
470.50 1.264
470.60 1.263
470.70 1.261
470.80 1.26
470.90 1.259
471.00 1.258
471.10 1.257
471.20 1.256
471.30 1.255
471.40 1.254
471.50 1.252
471.60 1.251
471.70 1.25
471.80 1.249
471.90 1.248
472.00 1.247
472.10 1.246
472.20 1.244
472.30 1.243
472.40 1.242
472.50 1.241
472.60 1.24
472.70 1.239
472.80 1.238
472.90 1.236
473.00 1.235
473.10 1.234
473.20 1.233
473.30 1.232
473.40 1.231
473.50 1.229
473.60 1.228
473.70 1.227
473.80 1.226
473.90 1.225
474.00 1.224
474.10 1.222
474.20 1.221
474.30 1.22
474.40 1.219
474.50 1.218
474.60 1.216
474.70 1.215
474.80 1.214
474.90 1.213
475.00 1.212
475.10 1.21
475.20 1.209
475.30 1.208
475.40 1.207
475.50 1.205
475.60 1.204
475.70 1.203
475.80 1.202
475.90 1.2
476.00 1.199
476.10 1.198
476.20 1.197
476.30 1.195
476.40 1.194
476.50 1.193
476.60 1.191
476.70 1.19
476.80 1.189
476.90 1.187
477.00 1.186
477.10 1.185
477.20 1.183
477.30 1.182
477.40 1.181
477.50 1.179
477.60 1.178
477.70 1.176
477.80 1.175
477.90 1.174
478.00 1.172
478.10 1.171
478.20 1.169
478.30 1.168
478.40 1.166
478.50 1.165
478.60 1.163
478.70 1.162
478.80 1.16
478.90 1.159
479.00 1.157
479.10 1.156
479.20 1.154
479.30 1.152
479.40 1.151
479.50 1.149
479.60 1.147
479.70 1.146
479.80 1.144
479.90 1.142
480.00 1.141
480.10 1.139
480.20 1.137
480.30 1.135
480.40 1.133
480.50 1.132
480.60 1.13
480.70 1.128
480.80 1.126
480.90 1.124
481.00 1.122
481.10 1.12
481.20 1.118
481.30 1.116
481.40 1.114
481.50 1.112
481.60 1.109
481.70 1.107
481.80 1.105
481.90 1.103
482.00 1.101
482.10 1.099
482.20 1.096
482.30 1.094
482.40 1.091
482.50 1.089
482.60 1.086
482.70 1.084
482.80 1.081
482.90 1.079
483.00 1.076
483.10 1.073
483.20 1.071
483.30 1.068
483.40 1.065
483.50 1.062
483.60 1.059
483.70 1.056
483.80 1.053
483.90 1.05
484.00 1.047
484.10 1.044
484.20 1.041
484.30 1.038
484.40 1.035
484.50 1.032
484.60 1.029
484.70 1.025
484.80 1.022
484.90 1.019
485.00 1.016
485.10 1.013
485.20 1.009
485.30 1.006
485.40 1.003
485.50 1.001
485.60 0.9985
485.70 0.9966
485.80 0.9966
485.90 0.9976
486.00 1.002
486.10 1.011
486.20 1.007
486.30 0.9974
486.40 0.9934
486.50 0.9908
486.60 0.9902
486.70 0.9906
486.80 0.9916
486.90 0.9929
487.00 0.9943
487.10 0.9958
487.20 0.9975
487.30 0.9991
487.40 1.001
487.50 1.002
487.60 1.004
487.70 1.006
487.80 1.007
487.90 1.009
488.00 1.01
488.10 1.012
488.20 1.013
488.30 1.015
488.40 1.016
488.50 1.017
488.60 1.018
488.70 1.02
488.80 1.021
488.90 1.022
489.00 1.023
489.10 1.025
489.20 1.026
489.30 1.026
489.40 1.027
489.50 1.028
489.60 1.029
489.70 1.03
489.80 1.03
489.90 1.031
490.00 1.032
490.10 1.033
490.20 1.033
490.30 1.034
490.40 1.034
490.50 1.034
490.60 1.035
490.70 1.035
490.80 1.036
490.90 1.036
491.00 1.036
491.10 1.037
491.20 1.037
491.30 1.037
491.40 1.037
491.50 1.037
491.60 1.037
491.70 1.038
491.80 1.038
491.90 1.038
492.00 1.038
492.10 1.038
492.20 1.038
492.30 1.038
492.40 1.038
492.50 1.037
492.60 1.037
492.70 1.037
492.80 1.037
492.90 1.037
493.00 1.037
493.10 1.037
493.20 1.036
493.30 1.036
493.40 1.036
493.50 1.036
493.60 1.035
493.70 1.035
493.80 1.035
493.90 1.034
494.00 1.034
494.10 1.034
494.20 1.033
494.30 1.033
494.40 1.032
494.50 1.032
494.60 1.032
494.70 1.031
494.80 1.031
494.90 1.03
495.00 1.03
495.10 1.03
495.20 1.029
495.30 1.029
495.40 1.028
495.50 1.027
495.60 1.027
495.70 1.026
495.80 1.026
495.90 1.025
496.00 1.025
496.10 1.024
496.20 1.024
496.30 1.023
496.40 1.023
496.50 1.022
496.60 1.022
496.70 1.021
496.80 1.02
496.90 1.02
497.00 1.019
497.10 1.019
497.20 1.018
497.30 1.017
497.40 1.017
497.50 1.016
497.60 1.016
497.70 1.015
497.80 1.014
497.90 1.014
498.00 1.013
498.10 1.013
498.20 1.012
498.30 1.011
498.40 1.011
498.50 1.01
498.60 1.009
498.70 1.009
498.80 1.008
498.90 1.007
499.00 1.007
499.10 1.006
499.20 1.005
499.30 1.005
499.40 1.004
499.50 1.003
499.60 1.003
499.70 1.002
499.80 1.001
499.90 1.001
500.00 1
500.10 0.9993
500.20 0.9986
500.30 0.998
500.40 0.9973
500.50 0.9966
500.60 0.9959
500.70 0.9952
500.80 0.9945
500.90 0.9938
501.00 0.9932
501.10 0.9925
501.20 0.9918
501.30 0.9911
501.40 0.9904
501.50 0.9897
501.60 0.989
501.70 0.9883
501.80 0.9876
501.90 0.9869
502.00 0.9862
502.10 0.9855
502.20 0.9848
502.30 0.9841
502.40 0.9834
502.50 0.9827
502.60 0.982
502.70 0.9813
502.80 0.9806
502.90 0.9799
503.00 0.9792
503.10 0.9785
503.20 0.9778
503.30 0.9771
503.40 0.9764
503.50 0.9757
503.60 0.975
503.70 0.9743
503.80 0.9736
503.90 0.9729
504.00 0.9722
504.10 0.9715
504.20 0.9708
504.30 0.9701
504.40 0.9694
504.50 0.9687
504.60 0.968
504.70 0.9673
504.80 0.9666
504.90 0.9659
505.00 0.9652
505.10 0.9645
505.20 0.9638
505.30 0.9631
505.40 0.9624
505.50 0.9617
505.60 0.961
505.70 0.9602
505.80 0.9595
505.90 0.9588
506.00 0.9581
506.10 0.9574
506.20 0.9567
506.30 0.956
506.40 0.9553
506.50 0.9546
506.60 0.9539
506.70 0.9532
506.80 0.9525
506.90 0.9518
507.00 0.9511
507.10 0.9504
507.20 0.9497
507.30 0.949
507.40 0.9483
507.50 0.9476
507.60 0.9469
507.70 0.9462
507.80 0.9455
507.90 0.9448
508.00 0.9441
508.10 0.9434
508.20 0.9427
508.30 0.942
508.40 0.9414
508.50 0.9407
508.60 0.94
508.70 0.9393
508.80 0.9386
508.90 0.9379
509.00 0.9372
509.10 0.9365
509.20 0.9358
509.30 0.9351
509.40 0.9344
509.50 0.9337
509.60 0.933
509.70 0.9323
509.80 0.9316
509.90 0.931
510.00 0.9303
510.10 0.9296
510.20 0.9289
510.30 0.9282
510.40 0.9275
510.50 0.9268
510.60 0.9261
510.70 0.9254
510.80 0.9248
510.90 0.9241
511.00 0.9234
511.10 0.9227
511.20 0.922
511.30 0.9213
511.40 0.9207
511.50 0.92
511.60 0.9193
511.70 0.9186
511.80 0.9179
511.90 0.9172
512.00 0.9166
512.10 0.9159
512.20 0.9152
512.30 0.9145
512.40 0.9139
512.50 0.9132
512.60 0.9125
512.70 0.9118
512.80 0.9111
512.90 0.9105
513.00 0.9098
513.10 0.9091
513.20 0.9084
513.30 0.9078
513.40 0.9071
513.50 0.9064
513.60 0.9057
513.70 0.9051
513.80 0.9044
513.90 0.9037
514.00 0.9031
514.10 0.9024
514.20 0.9017
514.30 0.9011
514.40 0.9004
514.50 0.8997
514.60 0.8991
514.70 0.8984
514.80 0.8977
514.90 0.8971
515.00 0.8964
515.10 0.8957
515.20 0.8951
515.30 0.8944
515.40 0.8937
515.50 0.8931
515.60 0.8924
515.70 0.8918
515.80 0.8911
515.90 0.8904
516.00 0.8898
516.10 0.8891
516.20 0.8885
516.30 0.8878
516.40 0.8871
516.50 0.8865
516.60 0.8858
516.70 0.8852
516.80 0.8845
516.90 0.8839
517.00 0.8832
517.10 0.8825
517.20 0.8819
517.30 0.8812
517.40 0.8806
517.50 0.8799
517.60 0.8793
517.70 0.8786
517.80 0.878
517.90 0.8773
518.00 0.8767
518.10 0.876
518.20 0.8754
518.30 0.8747
518.40 0.8741
518.50 0.8734
518.60 0.8728
518.70 0.8722
518.80 0.8715
518.90 0.8709
519.00 0.8702
519.10 0.8696
519.20 0.8689
519.30 0.8683
519.40 0.8677
519.50 0.867
519.60 0.8664
519.70 0.8657
519.80 0.8651
519.90 0.8645
520.00 0.8638
520.10 0.8632
520.20 0.8625
520.30 0.8619
520.40 0.8613
520.50 0.8606
520.60 0.86
520.70 0.8594
520.80 0.8587
520.90 0.8581
521.00 0.8575
521.10 0.8568
521.20 0.8562
521.30 0.8556
521.40 0.8549
521.50 0.8543
521.60 0.8537
521.70 0.8531
521.80 0.8524
521.90 0.8518
522.00 0.8512
522.10 0.8506
522.20 0.8499
522.30 0.8493
522.40 0.8487
522.50 0.848
522.60 0.8474
522.70 0.8468
522.80 0.8462
522.90 0.8456
523.00 0.8449
523.10 0.8443
523.20 0.8437
523.30 0.8431
523.40 0.8425
523.50 0.8418
523.60 0.8412
523.70 0.8406
523.80 0.84
523.90 0.8394
524.00 0.8387
524.10 0.8381
524.20 0.8375
524.30 0.8369
524.40 0.8363
524.50 0.8357
524.60 0.8351
524.70 0.8345
524.80 0.8338
524.90 0.8332
525.00 0.8326
525.10 0.832
525.20 0.8314
525.30 0.8308
525.40 0.8302
525.50 0.8296
525.60 0.829
525.70 0.8284
525.80 0.8278
525.90 0.8271
526.00 0.8265
526.10 0.8259
526.20 0.8253
526.30 0.8247
526.40 0.8241
526.50 0.8235
526.60 0.8229
526.70 0.8223
526.80 0.8217
526.90 0.8211
527.00 0.8205
527.10 0.8199
527.20 0.8193
527.30 0.8187
527.40 0.8181
527.50 0.8175
527.60 0.8169
527.70 0.8163
527.80 0.8157
527.90 0.8151
528.00 0.8145
528.10 0.814
528.20 0.8134
528.30 0.8128
528.40 0.8122
528.50 0.8116
528.60 0.811
528.70 0.8104
528.80 0.8098
528.90 0.8092
529.00 0.8086
529.10 0.808
529.20 0.8075
529.30 0.8069
529.40 0.8063
529.50 0.8057
529.60 0.8051
529.70 0.8045
529.80 0.8039
529.90 0.8034
530.00 0.8028
530.10 0.8022
530.20 0.8016
530.30 0.801
530.40 0.8004
530.50 0.7999
530.60 0.7993
530.70 0.7987
530.80 0.7981
530.90 0.7975
531.00 0.797
531.10 0.7964
531.20 0.7958
531.30 0.7952
531.40 0.7946
531.50 0.7941
531.60 0.7935
531.70 0.7929
531.80 0.7923
531.90 0.7918
532.00 0.7912
532.10 0.7906
532.20 0.79
532.30 0.7895
532.40 0.7889
532.50 0.7883
532.60 0.7878
532.70 0.7872
532.80 0.7866
532.90 0.7861
533.00 0.7855
533.10 0.7849
533.20 0.7844
533.30 0.7838
533.40 0.7832
533.50 0.7827
533.60 0.7821
533.70 0.7815
533.80 0.781
533.90 0.7804
534.00 0.7798
534.10 0.7793
534.20 0.7787
534.30 0.7781
534.40 0.7776
534.50 0.777
534.60 0.7765
534.70 0.7759
534.80 0.7753
534.90 0.7748
535.00 0.7742
535.10 0.7737
535.20 0.7731
535.30 0.7725
535.40 0.772
535.50 0.7714
535.60 0.7709
535.70 0.7703
535.80 0.7698
535.90 0.7692
536.00 0.7687
536.10 0.7681
536.20 0.7675
536.30 0.767
536.40 0.7664
536.50 0.7659
536.60 0.7653
536.70 0.7648
536.80 0.7642
536.90 0.7637
537.00 0.7631
537.10 0.7626
537.20 0.7621
537.30 0.7615
537.40 0.761
537.50 0.7604
537.60 0.7599
537.70 0.7593
537.80 0.7588
537.90 0.7582
538.00 0.7577
538.10 0.7571
538.20 0.7566
538.30 0.7561
538.40 0.7555
538.50 0.755
538.60 0.7544
538.70 0.7539
538.80 0.7534
538.90 0.7528
539.00 0.7523
539.10 0.7517
539.20 0.7512
539.30 0.7507
539.40 0.7501
539.50 0.7496
539.60 0.749
539.70 0.7485
539.80 0.748
539.90 0.7474
540.00 0.7469
540.10 0.7464
540.20 0.7458
540.30 0.7453
540.40 0.7448
540.50 0.7442
540.60 0.7437
540.70 0.7432
540.80 0.7427
540.90 0.7421
541.00 0.7416
541.10 0.7411
541.20 0.7405
541.30 0.74
541.40 0.7395
541.50 0.7389
541.60 0.7384
541.70 0.7379
541.80 0.7374
541.90 0.7368
542.00 0.7363
542.10 0.7358
542.20 0.7353
542.30 0.7347
542.40 0.7342
542.50 0.7337
542.60 0.7332
542.70 0.7327
542.80 0.7321
542.90 0.7316
543.00 0.7311
543.10 0.7306
543.20 0.7301
543.30 0.7295
543.40 0.729
543.50 0.7285
543.60 0.728
543.70 0.7275
543.80 0.727
543.90 0.7264
544.00 0.7259
544.10 0.7254
544.20 0.7249
544.30 0.7244
544.40 0.7239
544.50 0.7233
544.60 0.7228
544.70 0.7223
544.80 0.7218
544.90 0.7213
545.00 0.7208
545.10 0.7203
545.20 0.7198
545.30 0.7193
545.40 0.7187
545.50 0.7182
545.60 0.7177
545.70 0.7172
545.80 0.7167
545.90 0.7162
546.00 0.7157
546.10 0.7152
546.20 0.7147
546.30 0.7142
546.40 0.7137
546.50 0.7132
546.60 0.7127
546.70 0.7122
546.80 0.7117
546.90 0.7112
547.00 0.7107
547.10 0.7102
547.20 0.7097
547.30 0.7092
547.40 0.7087
547.50 0.7082
547.60 0.7077
547.70 0.7072
547.80 0.7067
547.90 0.7062
548.00 0.7057
548.10 0.7052
548.20 0.7047
548.30 0.7042
548.40 0.7037
548.50 0.7032
548.60 0.7027
548.70 0.7022
548.80 0.7017
548.90 0.7012
549.00 0.7007
549.10 0.7002
549.20 0.6997
549.30 0.6992
549.40 0.6987
549.50 0.6982
549.60 0.6977
549.70 0.6973
549.80 0.6968
549.90 0.6963
550.00 0.6958
550.10 0.6953
550.20 0.6948
550.30 0.6943
550.40 0.6938
550.50 0.6934
550.60 0.6929
550.70 0.6924
550.80 0.6919
550.90 0.6914
551.00 0.6909
551.10 0.6904
551.20 0.69
551.30 0.6895
551.40 0.689
551.50 0.6885
551.60 0.688
551.70 0.6875
551.80 0.6871
551.90 0.6866
552.00 0.6861
552.10 0.6856
552.20 0.6851
552.30 0.6847
552.40 0.6842
552.50 0.6837
552.60 0.6832
552.70 0.6827
552.80 0.6823
552.90 0.6818
553.00 0.6813
553.10 0.6808
553.20 0.6804
553.30 0.6799
553.40 0.6794
553.50 0.6789
553.60 0.6785
553.70 0.678
553.80 0.6775
553.90 0.677
554.00 0.6766
554.10 0.6761
554.20 0.6756
554.30 0.6752
554.40 0.6747
554.50 0.6742
554.60 0.6737
554.70 0.6733
554.80 0.6728
554.90 0.6723
555.00 0.6719
555.10 0.6714
555.20 0.6709
555.30 0.6705
555.40 0.67
555.50 0.6695
555.60 0.6691
555.70 0.6686
555.80 0.6681
555.90 0.6677
556.00 0.6672
556.10 0.6667
556.20 0.6663
556.30 0.6658
556.40 0.6654
556.50 0.6649
556.60 0.6644
556.70 0.664
556.80 0.6635
556.90 0.663
557.00 0.6626
557.10 0.6621
557.20 0.6617
557.30 0.6612
557.40 0.6607
557.50 0.6603
557.60 0.6598
557.70 0.6594
557.80 0.6589
557.90 0.6585
558.00 0.658
558.10 0.6575
558.20 0.6571
558.30 0.6566
558.40 0.6562
558.50 0.6557
558.60 0.6553
558.70 0.6548
558.80 0.6544
558.90 0.6539
559.00 0.6535
559.10 0.653
559.20 0.6526
559.30 0.6521
559.40 0.6517
559.50 0.6512
559.60 0.6508
559.70 0.6503
559.80 0.6499
559.90 0.6494
560.00 0.649
560.10 0.6485
560.20 0.6481
560.30 0.6476
560.40 0.6472
560.50 0.6467
560.60 0.6463
560.70 0.6458
560.80 0.6454
560.90 0.6449
561.00 0.6445
561.10 0.6441
561.20 0.6436
561.30 0.6432
561.40 0.6427
561.50 0.6423
561.60 0.6418
561.70 0.6414
561.80 0.641
561.90 0.6405
562.00 0.6401
562.10 0.6396
562.20 0.6392
562.30 0.6388
562.40 0.6383
562.50 0.6379
562.60 0.6374
562.70 0.637
562.80 0.6366
562.90 0.6361
563.00 0.6357
563.10 0.6352
563.20 0.6348
563.30 0.6344
563.40 0.6339
563.50 0.6335
563.60 0.6331
563.70 0.6326
563.80 0.6322
563.90 0.6318
564.00 0.6313
564.10 0.6309
564.20 0.6305
564.30 0.63
564.40 0.6296
564.50 0.6292
564.60 0.6287
564.70 0.6283
564.80 0.6279
564.90 0.6275
565.00 0.627
565.10 0.6266
565.20 0.6262
565.30 0.6257
565.40 0.6253
565.50 0.6249
565.60 0.6245
565.70 0.624
565.80 0.6236
565.90 0.6232
566.00 0.6227
566.10 0.6223
566.20 0.6219
566.30 0.6215
566.40 0.621
566.50 0.6206
566.60 0.6202
566.70 0.6198
566.80 0.6194
566.90 0.6189
567.00 0.6185
567.10 0.6181
567.20 0.6177
567.30 0.6172
567.40 0.6168
567.50 0.6164
567.60 0.616
567.70 0.6156
567.80 0.6151
567.90 0.6147
568.00 0.6143
568.10 0.6139
568.20 0.6135
568.30 0.613
568.40 0.6126
568.50 0.6122
568.60 0.6118
568.70 0.6114
568.80 0.611
568.90 0.6105
569.00 0.6101
569.10 0.6097
569.20 0.6093
569.30 0.6089
569.40 0.6085
569.50 0.6081
569.60 0.6077
569.70 0.6072
569.80 0.6068
569.90 0.6064
570.00 0.606
570.10 0.6056
570.20 0.6052
570.30 0.6048
570.40 0.6044
570.50 0.6039
570.60 0.6035
570.70 0.6031
570.80 0.6027
570.90 0.6023
571.00 0.6019
571.10 0.6015
571.20 0.6011
571.30 0.6007
571.40 0.6003
571.50 0.5999
571.60 0.5995
571.70 0.5991
571.80 0.5987
571.90 0.5982
572.00 0.5978
572.10 0.5974
572.20 0.597
572.30 0.5966
572.40 0.5962
572.50 0.5958
572.60 0.5954
572.70 0.595
572.80 0.5946
572.90 0.5942
573.00 0.5938
573.10 0.5934
573.20 0.593
573.30 0.5926
573.40 0.5922
573.50 0.5918
573.60 0.5914
573.70 0.591
573.80 0.5906
573.90 0.5902
574.00 0.5898
574.10 0.5894
574.20 0.589
574.30 0.5886
574.40 0.5882
574.50 0.5878
574.60 0.5874
574.70 0.587
574.80 0.5866
574.90 0.5862
575.00 0.5859
575.10 0.5855
575.20 0.5851
575.30 0.5847
575.40 0.5843
575.50 0.5839
575.60 0.5835
575.70 0.5831
575.80 0.5827
575.90 0.5823
576.00 0.5819
576.10 0.5815
576.20 0.5811
576.30 0.5808
576.40 0.5804
576.50 0.58
576.60 0.5796
576.70 0.5792
576.80 0.5788
576.90 0.5784
577.00 0.578
577.10 0.5776
577.20 0.5773
577.30 0.5769
577.40 0.5765
577.50 0.5761
577.60 0.5757
577.70 0.5753
577.80 0.5749
577.90 0.5746
578.00 0.5742
578.10 0.5738
578.20 0.5734
578.30 0.573
578.40 0.5726
578.50 0.5722
578.60 0.5719
578.70 0.5715
578.80 0.5711
578.90 0.5707
579.00 0.5703
579.10 0.57
579.20 0.5696
579.30 0.5692
579.40 0.5688
579.50 0.5684
579.60 0.5681
579.70 0.5677
579.80 0.5673
579.90 0.5669
580.00 0.5665
580.10 0.5662
580.20 0.5658
580.30 0.5654
580.40 0.565
580.50 0.5646
580.60 0.5643
580.70 0.5639
580.80 0.5635
580.90 0.5631
581.00 0.5628
581.10 0.5624
581.20 0.562
581.30 0.5616
581.40 0.5613
581.50 0.5609
581.60 0.5605
581.70 0.5602
581.80 0.5598
581.90 0.5594
582.00 0.559
582.10 0.5587
582.20 0.5583
582.30 0.5579
582.40 0.5575
582.50 0.5572
582.60 0.5568
582.70 0.5564
582.80 0.5561
582.90 0.5557
583.00 0.5553
583.10 0.555
583.20 0.5546
583.30 0.5542
583.40 0.5539
583.50 0.5535
583.60 0.5531
583.70 0.5528
583.80 0.5524
583.90 0.552
584.00 0.5517
584.10 0.5513
584.20 0.5509
584.30 0.5506
584.40 0.5502
584.50 0.5498
584.60 0.5495
584.70 0.5491
584.80 0.5487
584.90 0.5484
585.00 0.548
585.10 0.5476
585.20 0.5473
585.30 0.5469
585.40 0.5466
585.50 0.5462
585.60 0.5458
585.70 0.5455
585.80 0.5451
585.90 0.5448
586.00 0.5444
586.10 0.544
586.20 0.5437
586.30 0.5433
586.40 0.543
586.50 0.5426
586.60 0.5422
586.70 0.5419
586.80 0.5415
586.90 0.5412
587.00 0.5408
587.10 0.5405
587.20 0.5401
587.30 0.5397
587.40 0.5394
587.50 0.539
587.60 0.5387
587.70 0.5383
587.80 0.538
587.90 0.5376
588.00 0.5373
588.10 0.5369
588.20 0.5365
588.30 0.5362
588.40 0.5358
588.50 0.5355
588.60 0.5351
588.70 0.5348
588.80 0.5344
588.90 0.5341
589.00 0.5337
589.10 0.5334
589.20 0.533
589.30 0.5327
589.40 0.5323
589.50 0.532
589.60 0.5316
589.70 0.5313
589.80 0.5309
589.90 0.5306
590.00 0.5302
590.10 0.5299
590.20 0.5295
590.30 0.5292
590.40 0.5288
590.50 0.5285
590.60 0.5281
590.70 0.5278
590.80 0.5275
590.90 0.5271
591.00 0.5268
591.10 0.5264
591.20 0.5261
591.30 0.5257
591.40 0.5254
591.50 0.525
591.60 0.5247
591.70 0.5243
591.80 0.524
591.90 0.5237
592.00 0.5233
592.10 0.523
592.20 0.5226
592.30 0.5223
592.40 0.5219
592.50 0.5216
592.60 0.5213
592.70 0.5209
592.80 0.5206
592.90 0.5202
593.00 0.5199
593.10 0.5196
593.20 0.5192
593.30 0.5189
593.40 0.5185
593.50 0.5182
593.60 0.5179
593.70 0.5175
593.80 0.5172
593.90 0.5169
594.00 0.5165
594.10 0.5162
594.20 0.5158
594.30 0.5155
594.40 0.5152
594.50 0.5148
594.60 0.5145
594.70 0.5142
594.80 0.5138
594.90 0.5135
595.00 0.5132
595.10 0.5128
595.20 0.5125
595.30 0.5122
595.40 0.5118
595.50 0.5115
595.60 0.5112
595.70 0.5108
595.80 0.5105
595.90 0.5102
596.00 0.5098
596.10 0.5095
596.20 0.5092
596.30 0.5088
596.40 0.5085
596.50 0.5082
596.60 0.5078
596.70 0.5075
596.80 0.5072
596.90 0.5069
597.00 0.5065
597.10 0.5062
597.20 0.5059
597.30 0.5055
597.40 0.5052
597.50 0.5049
597.60 0.5046
597.70 0.5042
597.80 0.5039
597.90 0.5036
598.00 0.5032
598.10 0.5029
598.20 0.5026
598.30 0.5023
598.40 0.5019
598.50 0.5016
598.60 0.5013
598.70 0.501
598.80 0.5006
598.90 0.5003
599.00 0.5
599.10 0.4997
599.20 0.4993
599.30 0.499
599.40 0.4987
599.50 0.4984
599.60 0.4981
599.70 0.4977
599.80 0.4974
599.90 0.4971
600.00 0.4968
600.10 0.4964
600.20 0.4961
600.30 0.4958
600.40 0.4955
600.50 0.4952
600.60 0.4948
600.70 0.4945
600.80 0.4942
600.90 0.4939
601.00 0.4936
601.10 0.4933
601.20 0.4929
601.30 0.4926
601.40 0.4923
601.50 0.492
601.60 0.4917
601.70 0.4913
601.80 0.491
601.90 0.4907
602.00 0.4904
602.10 0.4901
602.20 0.4898
602.30 0.4895
602.40 0.4891
602.50 0.4888
602.60 0.4885
602.70 0.4882
602.80 0.4879
602.90 0.4876
603.00 0.4872
603.10 0.4869
603.20 0.4866
603.30 0.4863
603.40 0.486
603.50 0.4857
603.60 0.4854
603.70 0.4851
603.80 0.4847
603.90 0.4844
604.00 0.4841
604.10 0.4838
604.20 0.4835
604.30 0.4832
604.40 0.4829
604.50 0.4826
604.60 0.4823
604.70 0.482
604.80 0.4816
604.90 0.4813
605.00 0.481
605.10 0.4807
605.20 0.4804
605.30 0.4801
605.40 0.4798
605.50 0.4795
605.60 0.4792
605.70 0.4789
605.80 0.4786
605.90 0.4783
606.00 0.478
606.10 0.4776
606.20 0.4773
606.30 0.477
606.40 0.4767
606.50 0.4764
606.60 0.4761
606.70 0.4758
606.80 0.4755
606.90 0.4752
607.00 0.4749
607.10 0.4746
607.20 0.4743
607.30 0.474
607.40 0.4737
607.50 0.4734
607.60 0.4731
607.70 0.4728
607.80 0.4725
607.90 0.4722
608.00 0.4719
608.10 0.4716
608.20 0.4713
608.30 0.471
608.40 0.4707
608.50 0.4704
608.60 0.4701
608.70 0.4698
608.80 0.4695
608.90 0.4692
609.00 0.4689
609.10 0.4686
609.20 0.4683
609.30 0.468
609.40 0.4677
609.50 0.4674
609.60 0.4671
609.70 0.4668
609.80 0.4665
609.90 0.4662
610.00 0.4659
610.10 0.4656
610.20 0.4653
610.30 0.465
610.40 0.4647
610.50 0.4644
610.60 0.4641
610.70 0.4638
610.80 0.4635
610.90 0.4632
611.00 0.4629
611.10 0.4626
611.20 0.4623
611.30 0.4621
611.40 0.4618
611.50 0.4615
611.60 0.4612
611.70 0.4609
611.80 0.4606
611.90 0.4603
612.00 0.46
612.10 0.4597
612.20 0.4594
612.30 0.4591
612.40 0.4588
612.50 0.4585
612.60 0.4583
612.70 0.458
612.80 0.4577
612.90 0.4574
613.00 0.4571
613.10 0.4568
613.20 0.4565
613.30 0.4562
613.40 0.4559
613.50 0.4556
613.60 0.4554
613.70 0.4551
613.80 0.4548
613.90 0.4545
614.00 0.4542
614.10 0.4539
614.20 0.4536
614.30 0.4533
614.40 0.4531
614.50 0.4528
614.60 0.4525
614.70 0.4522
614.80 0.4519
614.90 0.4516
615.00 0.4513
615.10 0.451
615.20 0.4508
615.30 0.4505
615.40 0.4502
615.50 0.4499
615.60 0.4496
615.70 0.4493
615.80 0.4491
615.90 0.4488
616.00 0.4485
616.10 0.4482
616.20 0.4479
616.30 0.4476
616.40 0.4474
616.50 0.4471
616.60 0.4468
616.70 0.4465
616.80 0.4462
616.90 0.4459
617.00 0.4457
617.10 0.4454
617.20 0.4451
617.30 0.4448
617.40 0.4445
617.50 0.4443
617.60 0.444
617.70 0.4437
617.80 0.4434
617.90 0.4431
618.00 0.4429
618.10 0.4426
618.20 0.4423
618.30 0.442
618.40 0.4417
618.50 0.4415
618.60 0.4412
618.70 0.4409
618.80 0.4406
618.90 0.4404
619.00 0.4401
619.10 0.4398
619.20 0.4395
619.30 0.4393
619.40 0.439
619.50 0.4387
619.60 0.4384
619.70 0.4381
619.80 0.4379
619.90 0.4376
620.00 0.4373
620.10 0.437
620.20 0.4368
620.30 0.4365
620.40 0.4362
620.50 0.4359
620.60 0.4357
620.70 0.4354
620.80 0.4351
620.90 0.4349
621.00 0.4346
621.10 0.4343
621.20 0.434
621.30 0.4338
621.40 0.4335
621.50 0.4332
621.60 0.4329
621.70 0.4327
621.80 0.4324
621.90 0.4321
622.00 0.4319
622.10 0.4316
622.20 0.4313
622.30 0.431
622.40 0.4308
622.50 0.4305
622.60 0.4302
622.70 0.43
622.80 0.4297
622.90 0.4294
623.00 0.4292
623.10 0.4289
623.20 0.4286
623.30 0.4284
623.40 0.4281
623.50 0.4278
623.60 0.4275
623.70 0.4273
623.80 0.427
623.90 0.4267
624.00 0.4265
624.10 0.4262
624.20 0.4259
624.30 0.4257
624.40 0.4254
624.50 0.4251
624.60 0.4249
624.70 0.4246
624.80 0.4243
624.90 0.4241
625.00 0.4238
625.10 0.4235
625.20 0.4233
625.30 0.423
625.40 0.4228
625.50 0.4225
625.60 0.4222
625.70 0.422
625.80 0.4217
625.90 0.4214
626.00 0.4212
626.10 0.4209
626.20 0.4206
626.30 0.4204
626.40 0.4201
626.50 0.4199
626.60 0.4196
626.70 0.4193
626.80 0.4191
626.90 0.4188
627.00 0.4185
627.10 0.4183
627.20 0.418
627.30 0.4178
627.40 0.4175
627.50 0.4172
627.60 0.417
627.70 0.4167
627.80 0.4164
627.90 0.4162
628.00 0.4159
628.10 0.4157
628.20 0.4154
628.30 0.4151
628.40 0.4149
628.50 0.4146
628.60 0.4144
628.70 0.4141
628.80 0.4139
628.90 0.4136
629.00 0.4133
629.10 0.4131
629.20 0.4128
629.30 0.4126
629.40 0.4123
629.50 0.412
629.60 0.4118
629.70 0.4115
629.80 0.4113
629.90 0.411
630.00 0.4108
630.10 0.4105
630.20 0.4102
630.30 0.41
630.40 0.4097
630.50 0.4095
630.60 0.4092
630.70 0.409
630.80 0.4087
630.90 0.4084
631.00 0.4082
631.10 0.4079
631.20 0.4077
631.30 0.4074
631.40 0.4072
631.50 0.4069
631.60 0.4067
631.70 0.4064
631.80 0.4062
631.90 0.4059
632.00 0.4056
632.10 0.4054
632.20 0.4051
632.30 0.4049
632.40 0.4046
632.50 0.4044
632.60 0.4041
632.70 0.4039
632.80 0.4036
632.90 0.4034
633.00 0.4031
633.10 0.4029
633.20 0.4026
633.30 0.4023
633.40 0.4021
633.50 0.4018
633.60 0.4016
633.70 0.4013
633.80 0.4011
633.90 0.4008
634.00 0.4006
634.10 0.4003
634.20 0.4001
634.30 0.3998
634.40 0.3996
634.50 0.3993
634.60 0.3991
634.70 0.3988
634.80 0.3986
634.90 0.3983
635.00 0.3981
635.10 0.3978
635.20 0.3976
635.30 0.3973
635.40 0.3971
635.50 0.3968
635.60 0.3966
635.70 0.3963
635.80 0.3961
635.90 0.3958
636.00 0.3956
636.10 0.3953
636.20 0.3951
636.30 0.3948
636.40 0.3946
636.50 0.3943
636.60 0.3941
636.70 0.3938
636.80 0.3936
636.90 0.3933
637.00 0.3931
637.10 0.3928
637.20 0.3926
637.30 0.3923
637.40 0.3921
637.50 0.3918
637.60 0.3916
637.70 0.3913
637.80 0.3911
637.90 0.3908
638.00 0.3906
638.10 0.3903
638.20 0.3901
638.30 0.3898
638.40 0.3896
638.50 0.3893
638.60 0.3891
638.70 0.3888
638.80 0.3886
638.90 0.3883
639.00 0.3881
639.10 0.3878
639.20 0.3876
639.30 0.3873
639.40 0.3871
639.50 0.3868
639.60 0.3866
639.70 0.3863
639.80 0.3861
639.90 0.3858
640.00 0.3856
640.10 0.3853
640.20 0.3851
640.30 0.3848
640.40 0.3846
640.50 0.3843
640.60 0.3841
640.70 0.3838
640.80 0.3835
640.90 0.3833
641.00 0.383
641.10 0.3828
641.20 0.3825
641.30 0.3823
641.40 0.382
641.50 0.3818
641.60 0.3815
641.70 0.3813
641.80 0.381
641.90 0.3808
642.00 0.3805
642.10 0.3803
642.20 0.38
642.30 0.3797
642.40 0.3795
642.50 0.3792
642.60 0.379
642.70 0.3787
642.80 0.3785
642.90 0.3782
643.00 0.3779
643.10 0.3777
643.20 0.3774
643.30 0.3772
643.40 0.3769
643.50 0.3766
643.60 0.3764
643.70 0.3761
643.80 0.3759
643.90 0.3756
644.00 0.3753
644.10 0.3751
644.20 0.3748
644.30 0.3745
644.40 0.3743
644.50 0.374
644.60 0.3737
644.70 0.3735
644.80 0.3732
644.90 0.3729
645.00 0.3727
645.10 0.3724
645.20 0.3721
645.30 0.3718
645.40 0.3716
645.50 0.3713
645.60 0.371
645.70 0.3707
645.80 0.3704
645.90 0.3702
646.00 0.3699
646.10 0.3696
646.20 0.3693
646.30 0.369
646.40 0.3687
646.50 0.3685
646.60 0.3682
646.70 0.3679
646.80 0.3676
646.90 0.3673
647.00 0.367
647.10 0.3667
647.20 0.3664
647.30 0.3661
647.40 0.3658
647.50 0.3655
647.60 0.3652
647.70 0.3648
647.80 0.3645
647.90 0.3642
648.00 0.3639
648.10 0.3636
648.20 0.3633
648.30 0.363
648.40 0.3626
648.50 0.3623
648.60 0.3619
648.70 0.3616
648.80 0.3613
648.90 0.3609
649.00 0.3606
649.10 0.3602
649.20 0.3599
649.30 0.3596
649.40 0.3592
649.50 0.3588
649.60 0.3584
649.70 0.358
649.80 0.3577
649.90 0.3573
650.00 0.3569
650.10 0.3565
650.20 0.3561
650.30 0.3558
650.40 0.3553
650.50 0.3549
650.60 0.3545
650.70 0.354
650.80 0.3536
650.90 0.3532
651.00 0.3527
651.10 0.3523
651.20 0.3519
651.30 0.3514
651.40 0.3509
651.50 0.3504
651.60 0.3499
651.70 0.3494
651.80 0.3489
651.90 0.3484
652.00 0.3479
652.10 0.3474
652.20 0.3469
652.30 0.3464
652.40 0.3458
652.50 0.3452
652.60 0.3446
652.70 0.344
652.80 0.3435
652.90 0.3429
653.00 0.3423
653.10 0.3417
653.20 0.3411
653.30 0.3405
653.40 0.3398
653.50 0.3391
653.60 0.3384
653.70 0.3377
653.80 0.3371
653.90 0.3364
654.00 0.3357
654.10 0.335
654.20 0.3343
654.30 0.3336
654.40 0.3329
654.50 0.3321
654.60 0.3314
654.70 0.3306
654.80 0.3299
654.90 0.3291
655.00 0.3284
655.10 0.3276
655.20 0.3269
655.30 0.3262
655.40 0.3255
655.50 0.3248
655.60 0.3242
655.70 0.3237
655.80 0.3235
655.90 0.3235
656.00 0.3247
656.10 0.3264
656.20 0.3363
656.30 0.348
656.40 0.3305
656.50 0.3247
656.60 0.3231
656.70 0.3218
656.80 0.3216
656.90 0.3216
657.00 0.3218
657.10 0.322
657.20 0.3223
657.30 0.3226
657.40 0.323
657.50 0.3234
657.60 0.3237
657.70 0.3241
657.80 0.3245
657.90 0.3248
658.00 0.3252
658.10 0.3255
658.20 0.3259
658.30 0.3263
658.40 0.3265
658.50 0.3268
658.60 0.3271
658.70 0.3274
658.80 0.3277
658.90 0.328
659.00 0.3283
659.10 0.3286
659.20 0.3289
659.30 0.3291
659.40 0.3293
659.50 0.3295
659.60 0.3297
659.70 0.3299
659.80 0.33
659.90 0.3302
660.00 0.3304
660.10 0.3306
660.20 0.3308
660.30 0.3309
660.40 0.331
660.50 0.3311
660.60 0.3312
660.70 0.3313
660.80 0.3314
660.90 0.3315
661.00 0.3315
661.10 0.3316
661.20 0.3317
661.30 0.3318
661.40 0.3318
661.50 0.3318
661.60 0.3318
661.70 0.3318
661.80 0.3318
661.90 0.3319
662.00 0.3319
662.10 0.3319
662.20 0.3319
662.30 0.3319
662.40 0.3319
662.50 0.3318
662.60 0.3318
662.70 0.3317
662.80 0.3317
662.90 0.3316
663.00 0.3316
663.10 0.3316
663.20 0.3315
663.30 0.3315
663.40 0.3314
663.50 0.3313
663.60 0.3312
663.70 0.3311
663.80 0.3311
663.90 0.331
664.00 0.3309
664.10 0.3308
664.20 0.3307
664.30 0.3306
664.40 0.3305
664.50 0.3304
664.60 0.3303
664.70 0.3302
664.80 0.3301
664.90 0.33
665.00 0.3299
665.10 0.3298
665.20 0.3297
665.30 0.3295
665.40 0.3294
665.50 0.3293
665.60 0.3292
665.70 0.329
665.80 0.3289
665.90 0.3288
666.00 0.3286
666.10 0.3285
666.20 0.3284
666.30 0.3283
666.40 0.3281
666.50 0.328
666.60 0.3278
666.70 0.3277
666.80 0.3275
666.90 0.3274
667.00 0.3272
667.10 0.3271
667.20 0.327
667.30 0.3268
667.40 0.3267
667.50 0.3265
667.60 0.3264
667.70 0.3262
667.80 0.3261
667.90 0.3259
668.00 0.3257
668.10 0.3256
668.20 0.3254
668.30 0.3253
668.40 0.3251
668.50 0.325
668.60 0.3248
668.70 0.3247
668.80 0.3245
668.90 0.3243
669.00 0.3242
669.10 0.324
669.20 0.3239
669.30 0.3237
669.40 0.3235
669.50 0.3234
669.60 0.3232
669.70 0.323
669.80 0.3229
669.90 0.3227
670.00 0.3225
670.10 0.3224
670.20 0.3222
670.30 0.322
670.40 0.3219
670.50 0.3217
670.60 0.3215
670.70 0.3214
670.80 0.3212
670.90 0.321
671.00 0.3209
671.10 0.3207
671.20 0.3205
671.30 0.3204
671.40 0.3202
671.50 0.32
671.60 0.3199
671.70 0.3197
671.80 0.3195
671.90 0.3193
672.00 0.3192
672.10 0.319
672.20 0.3188
672.30 0.3187
672.40 0.3185
672.50 0.3183
672.60 0.3182
672.70 0.318
672.80 0.3178
672.90 0.3176
673.00 0.3175
673.10 0.3173
673.20 0.3171
673.30 0.317
673.40 0.3168
673.50 0.3166
673.60 0.3164
673.70 0.3163
673.80 0.3161
673.90 0.3159
674.00 0.3157
674.10 0.3156
674.20 0.3154
674.30 0.3152
674.40 0.3151
674.50 0.3149
674.60 0.3147
674.70 0.3145
674.80 0.3144
674.90 0.3142
675.00 0.314
675.10 0.3138
675.20 0.3137
675.30 0.3135
675.40 0.3133
675.50 0.3132
675.60 0.313
675.70 0.3128
675.80 0.3126
675.90 0.3125
676.00 0.3123
676.10 0.3121
676.20 0.3119
676.30 0.3118
676.40 0.3116
676.50 0.3114
676.60 0.3113
676.70 0.3111
676.80 0.3109
676.90 0.3107
677.00 0.3106
677.10 0.3104
677.20 0.3102
677.30 0.31
677.40 0.3099
677.50 0.3097
677.60 0.3095
677.70 0.3094
677.80 0.3092
677.90 0.309
678.00 0.3088
678.10 0.3087
678.20 0.3085
678.30 0.3083
678.40 0.3082
678.50 0.308
678.60 0.3078
678.70 0.3076
678.80 0.3075
678.90 0.3073
679.00 0.3071
679.10 0.3069
679.20 0.3068
679.30 0.3066
679.40 0.3064
679.50 0.3063
679.60 0.3061
679.70 0.3059
679.80 0.3057
679.90 0.3056
680.00 0.3054
680.10 0.3052
680.20 0.3051
680.30 0.3049
680.40 0.3047
680.50 0.3046
680.60 0.3044
680.70 0.3042
680.80 0.304
680.90 0.3039
681.00 0.3037
681.10 0.3035
681.20 0.3034
681.30 0.3032
681.40 0.303
681.50 0.3029
681.60 0.3027
681.70 0.3025
681.80 0.3023
681.90 0.3022
682.00 0.302
682.10 0.3018
682.20 0.3017
682.30 0.3015
682.40 0.3013
682.50 0.3012
682.60 0.301
682.70 0.3008
682.80 0.3007
682.90 0.3005
683.00 0.3003
683.10 0.3001
683.20 0.3
683.30 0.2998
683.40 0.2996
683.50 0.2995
683.60 0.2993
683.70 0.2991
683.80 0.299
683.90 0.2988
684.00 0.2986
684.10 0.2985
684.20 0.2983
684.30 0.2981
684.40 0.298
684.50 0.2978
684.60 0.2976
684.70 0.2975
684.80 0.2973
684.90 0.2971
685.00 0.297
685.10 0.2968
685.20 0.2966
685.30 0.2965
685.40 0.2963
685.50 0.2961
685.60 0.296
685.70 0.2958
685.80 0.2956
685.90 0.2955
686.00 0.2953
686.10 0.2951
686.20 0.295
686.30 0.2948
686.40 0.2946
686.50 0.2945
686.60 0.2943
686.70 0.2941
686.80 0.294
686.90 0.2938
687.00 0.2936
687.10 0.2935
687.20 0.2933
687.30 0.2932
687.40 0.293
687.50 0.2928
687.60 0.2927
687.70 0.2925
687.80 0.2923
687.90 0.2922
688.00 0.292
688.10 0.2918
688.20 0.2917
688.30 0.2915
688.40 0.2913
688.50 0.2912
688.60 0.291
688.70 0.2909
688.80 0.2907
688.90 0.2905
689.00 0.2904
689.10 0.2902
689.20 0.29
689.30 0.2899
689.40 0.2897
689.50 0.2896
689.60 0.2894
689.70 0.2892
689.80 0.2891
689.90 0.2889
690.00 0.2888
690.10 0.2886
690.20 0.2884
690.30 0.2883
690.40 0.2881
690.50 0.2879
690.60 0.2878
690.70 0.2876
690.80 0.2875
690.90 0.2873
691.00 0.2871
691.10 0.287
691.20 0.2868
691.30 0.2867
691.40 0.2865
691.50 0.2863
691.60 0.2862
691.70 0.286
691.80 0.2859
691.90 0.2857
692.00 0.2855
692.10 0.2854
692.20 0.2852
692.30 0.2851
692.40 0.2849
692.50 0.2847
692.60 0.2846
692.70 0.2844
692.80 0.2843
692.90 0.2841
693.00 0.284
693.10 0.2838
693.20 0.2836
693.30 0.2835
693.40 0.2833
693.50 0.2832
693.60 0.283
693.70 0.2828
693.80 0.2827
693.90 0.2825
694.00 0.2824
694.10 0.2822
694.20 0.2821
694.30 0.2819
694.40 0.2817
694.50 0.2816
694.60 0.2814
694.70 0.2813
694.80 0.2811
694.90 0.281
695.00 0.2808
695.10 0.2806
695.20 0.2805
695.30 0.2803
695.40 0.2802
695.50 0.28
695.60 0.2799
695.70 0.2797
695.80 0.2796
695.90 0.2794
696.00 0.2792
696.10 0.2791
696.20 0.2789
696.30 0.2788
696.40 0.2786
696.50 0.2785
696.60 0.2783
696.70 0.2782
696.80 0.278
696.90 0.2778
697.00 0.2777
697.10 0.2775
697.20 0.2774
697.30 0.2772
697.40 0.2771
697.50 0.2769
697.60 0.2768
697.70 0.2766
697.80 0.2765
697.90 0.2763
698.00 0.2762
698.10 0.276
698.20 0.2758
698.30 0.2757
698.40 0.2755
698.50 0.2754
698.60 0.2752
698.70 0.2751
698.80 0.2749
698.90 0.2748
699.00 0.2746
699.10 0.2745
699.20 0.2743
699.30 0.2742
699.40 0.274
699.50 0.2739
699.60 0.2737
699.70 0.2736
699.80 0.2734
699.90 0.2733
700.00 0.2731
700.10 0.273
700.20 0.2728
700.30 0.2727
700.40 0.2725
700.50 0.2723
700.60 0.2722
700.70 0.272
700.80 0.2719
700.90 0.2717
701.00 0.2716
701.10 0.2714
701.20 0.2713
701.30 0.2711
701.40 0.271
701.50 0.2709
701.60 0.2707
701.70 0.2706
701.80 0.2704
701.90 0.2703
702.00 0.2701
702.10 0.27
702.20 0.2698
702.30 0.2697
702.40 0.2695
702.50 0.2694
702.60 0.2692
702.70 0.2691
702.80 0.2689
702.90 0.2688
703.00 0.2686
703.10 0.2685
703.20 0.2683
703.30 0.2682
703.40 0.268
703.50 0.2679
703.60 0.2677
703.70 0.2676
703.80 0.2674
703.90 0.2673
704.00 0.2671
704.10 0.267
704.20 0.2668
704.30 0.2667
704.40 0.2665
704.50 0.2664
704.60 0.2663
704.70 0.2661
704.80 0.266
704.90 0.2658
705.00 0.2657
705.10 0.2655
705.20 0.2654
705.30 0.2652
705.40 0.2651
705.50 0.2649
705.60 0.2648
705.70 0.2646
705.80 0.2645
705.90 0.2644
706.00 0.2642
706.10 0.2641
706.20 0.2639
706.30 0.2638
706.40 0.2636
706.50 0.2635
706.60 0.2633
706.70 0.2632
706.80 0.2631
706.90 0.2629
707.00 0.2628
707.10 0.2626
707.20 0.2625
707.30 0.2623
707.40 0.2622
707.50 0.262
707.60 0.2619
707.70 0.2618
707.80 0.2616
707.90 0.2615
708.00 0.2613
708.10 0.2612
708.20 0.261
708.30 0.2609
708.40 0.2608
708.50 0.2606
708.60 0.2605
708.70 0.2603
708.80 0.2602
708.90 0.26
709.00 0.2599
709.10 0.2598
709.20 0.2596
709.30 0.2595
709.40 0.2593
709.50 0.2592
709.60 0.259
709.70 0.2589
709.80 0.2588
709.90 0.2586
710.00 0.2585
710.10 0.2583
710.20 0.2582
710.30 0.258
710.40 0.2579
710.50 0.2578
710.60 0.2576
710.70 0.2575
710.80 0.2573
710.90 0.2572
711.00 0.2571
711.10 0.2569
711.20 0.2568
711.30 0.2566
711.40 0.2565
711.50 0.2564
711.60 0.2562
711.70 0.2561
711.80 0.2559
711.90 0.2558
712.00 0.2557
712.10 0.2555
712.20 0.2554
712.30 0.2553
712.40 0.2551
712.50 0.255
712.60 0.2548
712.70 0.2547
712.80 0.2546
712.90 0.2544
713.00 0.2543
713.10 0.2541
713.20 0.254
713.30 0.2539
713.40 0.2537
713.50 0.2536
713.60 0.2534
713.70 0.2533
713.80 0.2532
713.90 0.253
714.00 0.2529
714.10 0.2528
714.20 0.2526
714.30 0.2525
714.40 0.2523
714.50 0.2522
714.60 0.2521
714.70 0.2519
714.80 0.2518
714.90 0.2517
715.00 0.2515
715.10 0.2514
715.20 0.2512
715.30 0.2511
715.40 0.251
715.50 0.2508
715.60 0.2507
715.70 0.2506
715.80 0.2504
715.90 0.2503
716.00 0.2502
716.10 0.25
716.20 0.2499
716.30 0.2498
716.40 0.2496
716.50 0.2495
716.60 0.2494
716.70 0.2492
716.80 0.2491
716.90 0.2489
717.00 0.2488
717.10 0.2487
717.20 0.2485
717.30 0.2484
717.40 0.2483
717.50 0.2481
717.60 0.248
717.70 0.2479
717.80 0.2477
717.90 0.2476
718.00 0.2475
718.10 0.2473
718.20 0.2472
718.30 0.2471
718.40 0.2469
718.50 0.2468
718.60 0.2467
718.70 0.2465
718.80 0.2464
718.90 0.2463
719.00 0.2461
719.10 0.246
719.20 0.2459
719.30 0.2457
719.40 0.2456
719.50 0.2455
719.60 0.2453
719.70 0.2452
719.80 0.2451
719.90 0.2449
720.00 0.2448
720.10 0.2447
720.20 0.2445
720.30 0.2444
720.40 0.2443
720.50 0.2441
720.60 0.244
720.70 0.2439
720.80 0.2437
720.90 0.2436
721.00 0.2435
721.10 0.2434
721.20 0.2432
721.30 0.2431
721.40 0.243
721.50 0.2428
721.60 0.2427
721.70 0.2426
721.80 0.2424
721.90 0.2423
722.00 0.2422
722.10 0.242
722.20 0.2419
722.30 0.2418
722.40 0.2417
722.50 0.2415
722.60 0.2414
722.70 0.2413
722.80 0.2411
722.90 0.241
723.00 0.2409
723.10 0.2407
723.20 0.2406
723.30 0.2405
723.40 0.2404
723.50 0.2402
723.60 0.2401
723.70 0.24
723.80 0.2398
723.90 0.2397
724.00 0.2396
724.10 0.2395
724.20 0.2393
724.30 0.2392
724.40 0.2391
724.50 0.2389
724.60 0.2388
724.70 0.2387
724.80 0.2386
724.90 0.2384
725.00 0.2383
725.10 0.2382
725.20 0.238
725.30 0.2379
725.40 0.2378
725.50 0.2377
725.60 0.2375
725.70 0.2374
725.80 0.2373
725.90 0.2372
726.00 0.237
726.10 0.2369
726.20 0.2368
726.30 0.2366
726.40 0.2365
726.50 0.2364
726.60 0.2363
726.70 0.2361
726.80 0.236
726.90 0.2359
727.00 0.2358
727.10 0.2356
727.20 0.2355
727.30 0.2354
727.40 0.2353
727.50 0.2351
727.60 0.235
727.70 0.2349
727.80 0.2348
727.90 0.2346
728.00 0.2345
728.10 0.2344
728.20 0.2343
728.30 0.2341
728.40 0.234
728.50 0.2339
728.60 0.2338
728.70 0.2336
728.80 0.2335
728.90 0.2334
729.00 0.2333
729.10 0.2331
729.20 0.233
729.30 0.2329
729.40 0.2328
729.50 0.2326
729.60 0.2325
729.70 0.2324
729.80 0.2323
729.90 0.2321
730.00 0.232
730.10 0.2319
730.20 0.2318
730.30 0.2316
730.40 0.2315
730.50 0.2314
730.60 0.2313
730.70 0.2312
730.80 0.231
730.90 0.2309
731.00 0.2308
731.10 0.2307
731.20 0.2305
731.30 0.2304
731.40 0.2303
731.50 0.2302
731.60 0.2301
731.70 0.2299
731.80 0.2298
731.90 0.2297
732.00 0.2296
732.10 0.2295
732.20 0.2293
732.30 0.2292
732.40 0.2291
732.50 0.229
732.60 0.2288
732.70 0.2287
732.80 0.2286
732.90 0.2285
733.00 0.2284
733.10 0.2282
733.20 0.2281
733.30 0.228
733.40 0.2279
733.50 0.2278
733.60 0.2276
733.70 0.2275
733.80 0.2274
733.90 0.2273
734.00 0.2272
734.10 0.227
734.20 0.2269
734.30 0.2268
734.40 0.2267
734.50 0.2266
734.60 0.2264
734.70 0.2263
734.80 0.2262
734.90 0.2261
735.00 0.226
735.10 0.2258
735.20 0.2257
735.30 0.2256
735.40 0.2255
735.50 0.2254
735.60 0.2252
735.70 0.2251
735.80 0.225
735.90 0.2249
736.00 0.2248
736.10 0.2246
736.20 0.2245
736.30 0.2244
736.40 0.2243
736.50 0.2242
736.60 0.2241
736.70 0.2239
736.80 0.2238
736.90 0.2237
737.00 0.2236
737.10 0.2235
737.20 0.2233
737.30 0.2232
737.40 0.2231
737.50 0.223
737.60 0.2229
737.70 0.2228
737.80 0.2226
737.90 0.2225
738.00 0.2224
738.10 0.2223
738.20 0.2222
738.30 0.222
738.40 0.2219
738.50 0.2218
738.60 0.2217
738.70 0.2216
738.80 0.2215
738.90 0.2213
739.00 0.2212
739.10 0.2211
739.20 0.221
739.30 0.2209
739.40 0.2208
739.50 0.2206
739.60 0.2205
739.70 0.2204
739.80 0.2203
739.90 0.2202
740.00 0.2201
740.10 0.2199
740.20 0.2198
740.30 0.2197
740.40 0.2196
740.50 0.2195
740.60 0.2194
740.70 0.2193
740.80 0.2191
740.90 0.219
741.00 0.2189
741.10 0.2188
741.20 0.2187
741.30 0.2186
741.40 0.2185
741.50 0.2183
741.60 0.2182
741.70 0.2181
741.80 0.218
741.90 0.2179
742.00 0.2178
742.10 0.2177
742.20 0.2175
742.30 0.2174
742.40 0.2173
742.50 0.2172
742.60 0.2171
742.70 0.217
742.80 0.2169
742.90 0.2167
743.00 0.2166
743.10 0.2165
743.20 0.2164
743.30 0.2163
743.40 0.2162
743.50 0.2161
743.60 0.216
743.70 0.2158
743.80 0.2157
743.90 0.2156
744.00 0.2155
744.10 0.2154
744.20 0.2153
744.30 0.2152
744.40 0.2151
744.50 0.2149
744.60 0.2148
744.70 0.2147
744.80 0.2146
744.90 0.2145
745.00 0.2144
745.10 0.2143
745.20 0.2142
745.30 0.2141
745.40 0.2139
745.50 0.2138
745.60 0.2137
745.70 0.2136
745.80 0.2135
745.90 0.2134
746.00 0.2133
746.10 0.2132
746.20 0.213
746.30 0.2129
746.40 0.2128
746.50 0.2127
746.60 0.2126
746.70 0.2125
746.80 0.2124
746.90 0.2123
747.00 0.2122
747.10 0.212
747.20 0.2119
747.30 0.2118
747.40 0.2117
747.50 0.2116
747.60 0.2115
747.70 0.2114
747.80 0.2113
747.90 0.2112
748.00 0.211
748.10 0.2109
748.20 0.2108
748.30 0.2107
748.40 0.2106
748.50 0.2105
748.60 0.2104
748.70 0.2103
748.80 0.2102
748.90 0.2101
749.00 0.2099
749.10 0.2098
749.20 0.2097
749.30 0.2096
749.40 0.2095
749.50 0.2094
749.60 0.2093
749.70 0.2092
749.80 0.2091
749.90 0.209
750.00 0.2089
750.10 0.2087
750.20 0.2086
750.30 0.2085
750.40 0.2084
750.50 0.2083
750.60 0.2082
750.70 0.2081
750.80 0.208
750.90 0.2079
751.00 0.2078
751.10 0.2077
751.20 0.2076
751.30 0.2075
751.40 0.2074
751.50 0.2072
751.60 0.2071
751.70 0.207
751.80 0.2069
751.90 0.2068
752.00 0.2067
752.10 0.2066
752.20 0.2065
752.30 0.2064
752.40 0.2063
752.50 0.2062
752.60 0.2061
752.70 0.206
752.80 0.2059
752.90 0.2058
753.00 0.2057
753.10 0.2055
753.20 0.2054
753.30 0.2053
753.40 0.2052
753.50 0.2051
753.60 0.205
753.70 0.2049
753.80 0.2048
753.90 0.2047
754.00 0.2046
754.10 0.2045
754.20 0.2044
754.30 0.2043
754.40 0.2042
754.50 0.2041
754.60 0.204
754.70 0.2039
754.80 0.2038
754.90 0.2036
755.00 0.2035
755.10 0.2034
755.20 0.2033
755.30 0.2032
755.40 0.2031
755.50 0.203
755.60 0.2029
755.70 0.2028
755.80 0.2027
755.90 0.2026
756.00 0.2025
756.10 0.2024
756.20 0.2023
756.30 0.2022
756.40 0.2021
756.50 0.202
756.60 0.2019
756.70 0.2018
756.80 0.2017
756.90 0.2016
757.00 0.2015
757.10 0.2013
757.20 0.2012
757.30 0.2011
757.40 0.201
757.50 0.2009
757.60 0.2008
757.70 0.2007
757.80 0.2006
757.90 0.2005
758.00 0.2004
758.10 0.2003
758.20 0.2002
758.30 0.2001
758.40 0.2
758.50 0.1999
758.60 0.1998
758.70 0.1997
758.80 0.1996
758.90 0.1995
759.00 0.1994
759.10 0.1993
759.20 0.1992
759.30 0.1991
759.40 0.199
759.50 0.1989
759.60 0.1988
759.70 0.1987
759.80 0.1986
759.90 0.1985
760.00 0.1984
760.10 0.1983
760.20 0.1982
760.30 0.1981
760.40 0.198
760.50 0.1979
760.60 0.1978
760.70 0.1977
760.80 0.1976
760.90 0.1975
761.00 0.1974
761.10 0.1973
761.20 0.1972
761.30 0.1971
761.40 0.1969
761.50 0.1968
761.60 0.1967
761.70 0.1966
761.80 0.1966
761.90 0.1965
762.00 0.1964
762.10 0.1963
762.20 0.1962
762.30 0.1961
762.40 0.196
762.50 0.1959
762.60 0.1958
762.70 0.1957
762.80 0.1956
762.90 0.1955
763.00 0.1954
763.10 0.1953
763.20 0.1952
763.30 0.1951
763.40 0.195
763.50 0.1949
763.60 0.1948
763.70 0.1947
763.80 0.1946
763.90 0.1945
764.00 0.1944
764.10 0.1943
764.20 0.1942
764.30 0.1941
764.40 0.194
764.50 0.1939
764.60 0.1938
764.70 0.1937
764.80 0.1936
764.90 0.1935
765.00 0.1934
765.10 0.1933
765.20 0.1932
765.30 0.1931
765.40 0.193
765.50 0.1929
765.60 0.1928
765.70 0.1927
765.80 0.1926
765.90 0.1925
766.00 0.1924
766.10 0.1923
766.20 0.1922
766.30 0.1921
766.40 0.192
766.50 0.1919
766.60 0.1918
766.70 0.1917
766.80 0.1916
766.90 0.1915
767.00 0.1914
767.10 0.1913
767.20 0.1912
767.30 0.1911
767.40 0.191
767.50 0.1909
767.60 0.1908
767.70 0.1907
767.80 0.1906
767.90 0.1905
768.00 0.1904
768.10 0.1903
768.20 0.1902
768.30 0.1902
768.40 0.1901
768.50 0.19
768.60 0.1899
768.70 0.1898
768.80 0.1897
768.90 0.1896
769.00 0.1895
769.10 0.1894
769.20 0.1893
769.30 0.1892
769.40 0.1891
769.50 0.189
769.60 0.1889
769.70 0.1888
769.80 0.1887
769.90 0.1886
770.00 0.1885
770.10 0.1884
770.20 0.1883
770.30 0.1882
770.40 0.1881
770.50 0.188
770.60 0.1879
770.70 0.1879
770.80 0.1878
770.90 0.1877
771.00 0.1876
771.10 0.1875
771.20 0.1874
771.30 0.1873
771.40 0.1872
771.50 0.1871
771.60 0.187
771.70 0.1869
771.80 0.1868
771.90 0.1867
772.00 0.1866
772.10 0.1865
772.20 0.1864
772.30 0.1863
772.40 0.1863
772.50 0.1862
772.60 0.1861
772.70 0.186
772.80 0.1859
772.90 0.1858
773.00 0.1857
773.10 0.1856
773.20 0.1855
773.30 0.1854
773.40 0.1853
773.50 0.1852
773.60 0.1851
773.70 0.185
773.80 0.185
773.90 0.1849
774.00 0.1848
774.10 0.1847
774.20 0.1846
774.30 0.1845
774.40 0.1844
774.50 0.1843
774.60 0.1842
774.70 0.1841
774.80 0.184
774.90 0.1839
775.00 0.1838
775.10 0.1837
775.20 0.1837
775.30 0.1836
775.40 0.1835
775.50 0.1834
775.60 0.1833
775.70 0.1832
775.80 0.1831
775.90 0.183
776.00 0.1829
776.10 0.1828
776.20 0.1827
776.30 0.1826
776.40 0.1825
776.50 0.1825
776.60 0.1824
776.70 0.1823
776.80 0.1822
776.90 0.1821
777.00 0.182
777.10 0.1819
777.20 0.1818
777.30 0.1817
777.40 0.1816
777.50 0.1815
777.60 0.1814
777.70 0.1814
777.80 0.1813
777.90 0.1812
778.00 0.1811
778.10 0.181
778.20 0.1809
778.30 0.1808
778.40 0.1807
778.50 0.1806
778.60 0.1805
778.70 0.1804
778.80 0.1804
778.90 0.1803
779.00 0.1802
779.10 0.1801
779.20 0.18
779.30 0.1799
779.40 0.1798
779.50 0.1797
779.60 0.1796
779.70 0.1795
779.80 0.1795
779.90 0.1794
780.00 0.1793
780.10 0.1792
780.20 0.1791
780.30 0.179
780.40 0.1789
780.50 0.1788
780.60 0.1787
780.70 0.1786
780.80 0.1786
780.90 0.1785
781.00 0.1784
781.10 0.1783
781.20 0.1782
781.30 0.1781
781.40 0.178
781.50 0.1779
781.60 0.1779
781.70 0.1778
781.80 0.1777
781.90 0.1776
782.00 0.1775
782.10 0.1774
782.20 0.1773
782.30 0.1772
782.40 0.1772
782.50 0.1771
782.60 0.177
782.70 0.1769
782.80 0.1768
782.90 0.1767
783.00 0.1766
783.10 0.1765
783.20 0.1764
783.30 0.1764
783.40 0.1763
783.50 0.1762
783.60 0.1761
783.70 0.176
783.80 0.1759
783.90 0.1758
784.00 0.1758
784.10 0.1757
784.20 0.1756
784.30 0.1755
784.40 0.1754
784.50 0.1753
784.60 0.1752
784.70 0.1751
784.80 0.1751
784.90 0.175
785.00 0.1749
785.10 0.1748
785.20 0.1747
785.30 0.1746
785.40 0.1745
785.50 0.1744
785.60 0.1744
785.70 0.1743
785.80 0.1742
785.90 0.1741
786.00 0.174
786.10 0.1739
786.20 0.1738
786.30 0.1738
786.40 0.1737
786.50 0.1736
786.60 0.1735
786.70 0.1734
786.80 0.1733
786.90 0.1732
787.00 0.1732
787.10 0.1731
787.20 0.173
787.30 0.1729
787.40 0.1728
787.50 0.1727
787.60 0.1726
787.70 0.1726
787.80 0.1725
787.90 0.1724
788.00 0.1723
788.10 0.1722
788.20 0.1721
788.30 0.172
788.40 0.172
788.50 0.1719
788.60 0.1718
788.70 0.1717
788.80 0.1716
788.90 0.1715
789.00 0.1714
789.10 0.1714
789.20 0.1713
789.30 0.1712
789.40 0.1711
789.50 0.171
789.60 0.1709
789.70 0.1708
789.80 0.1708
789.90 0.1707
790.00 0.1706
790.10 0.1705
790.20 0.1704
790.30 0.1703
790.40 0.1703
790.50 0.1702
790.60 0.1701
790.70 0.17
790.80 0.1699
790.90 0.1698
791.00 0.1698
791.10 0.1697
791.20 0.1696
791.30 0.1695
791.40 0.1694
791.50 0.1693
791.60 0.1693
791.70 0.1692
791.80 0.1691
791.90 0.169
792.00 0.1689
792.10 0.1688
792.20 0.1688
792.30 0.1687
792.40 0.1686
792.50 0.1685
792.60 0.1684
792.70 0.1683
792.80 0.1683
792.90 0.1682
793.00 0.1681
793.10 0.168
793.20 0.1679
793.30 0.1679
793.40 0.1678
793.50 0.1677
793.60 0.1676
793.70 0.1675
793.80 0.1674
793.90 0.1674
794.00 0.1673
794.10 0.1672
794.20 0.1671
794.30 0.167
794.40 0.167
794.50 0.1669
794.60 0.1668
794.70 0.1667
794.80 0.1666
794.90 0.1665
795.00 0.1665
795.10 0.1664
795.20 0.1663
795.30 0.1662
795.40 0.1661
795.50 0.1661
795.60 0.166
795.70 0.1659
795.80 0.1658
795.90 0.1657
796.00 0.1656
796.10 0.1656
796.20 0.1655
796.30 0.1654
796.40 0.1653
796.50 0.1652
796.60 0.1652
796.70 0.1651
796.80 0.165
796.90 0.1649
797.00 0.1648
797.10 0.1648
797.20 0.1647
797.30 0.1646
797.40 0.1645
797.50 0.1644
797.60 0.1644
797.70 0.1643
797.80 0.1642
797.90 0.1641
798.00 0.164
798.10 0.164
798.20 0.1639
798.30 0.1638
798.40 0.1637
798.50 0.1636
798.60 0.1635
798.70 0.1635
798.80 0.1634
798.90 0.1633
799.00 0.1632
799.10 0.1631
799.20 0.1631
799.30 0.163
799.40 0.1629
799.50 0.1628
799.60 0.1627
799.70 0.1627
799.80 0.1626
799.90 0.1625
800.00 0.1624
800.10 0.1623
800.20 0.1623
800.30 0.1622
800.40 0.1621
800.50 0.162
800.60 0.162
800.70 0.1619
800.80 0.1618
800.90 0.1617
801.00 0.1616
801.10 0.1616
801.20 0.1615
801.30 0.1614
801.40 0.1613
801.50 0.1613
801.60 0.1612
801.70 0.1611
801.80 0.161
801.90 0.1609
802.00 0.1609
802.10 0.1608
802.20 0.1607
802.30 0.1606
802.40 0.1606
802.50 0.1605
802.60 0.1604
802.70 0.1603
802.80 0.1602
802.90 0.1602
803.00 0.1601
803.10 0.16
803.20 0.1599
803.30 0.1599
803.40 0.1598
803.50 0.1597
803.60 0.1596
803.70 0.1595
803.80 0.1595
803.90 0.1594
804.00 0.1593
804.10 0.1592
804.20 0.1592
804.30 0.1591
804.40 0.159
804.50 0.1589
804.60 0.1589
804.70 0.1588
804.80 0.1587
804.90 0.1586
805.00 0.1585
805.10 0.1585
805.20 0.1584
805.30 0.1583
805.40 0.1582
805.50 0.1582
805.60 0.1581
805.70 0.158
805.80 0.1579
805.90 0.1579
806.00 0.1578
806.10 0.1577
806.20 0.1576
806.30 0.1576
806.40 0.1575
806.50 0.1574
806.60 0.1573
806.70 0.1572
806.80 0.1572
806.90 0.1571
807.00 0.157
807.10 0.1569
807.20 0.1569
807.30 0.1568
807.40 0.1567
807.50 0.1566
807.60 0.1566
807.70 0.1565
807.80 0.1564
807.90 0.1563
808.00 0.1563
808.10 0.1562
808.20 0.1561
808.30 0.156
808.40 0.156
808.50 0.1559
808.60 0.1558
808.70 0.1557
808.80 0.1557
808.90 0.1556
809.00 0.1555
809.10 0.1554
809.20 0.1554
809.30 0.1553
809.40 0.1552
809.50 0.1551
809.60 0.1551
809.70 0.155
809.80 0.1549
809.90 0.1548
810.00 0.1547
810.10 0.1547
810.20 0.1546
810.30 0.1545
810.40 0.1545
810.50 0.1544
810.60 0.1543
810.70 0.1542
810.80 0.1542
810.90 0.1541
811.00 0.154
811.10 0.1539
811.20 0.1539
811.30 0.1538
811.40 0.1537
811.50 0.1536
811.60 0.1536
811.70 0.1535
811.80 0.1534
811.90 0.1534
812.00 0.1533
812.10 0.1532
812.20 0.1531
812.30 0.1531
812.40 0.153
812.50 0.1529
812.60 0.1528
812.70 0.1528
812.80 0.1527
812.90 0.1526
813.00 0.1525
813.10 0.1525
813.20 0.1524
813.30 0.1523
813.40 0.1523
813.50 0.1522
813.60 0.1521
813.70 0.152
813.80 0.152
813.90 0.1519
814.00 0.1518
814.10 0.1517
814.20 0.1517
814.30 0.1516
814.40 0.1515
814.50 0.1515
814.60 0.1514
814.70 0.1513
814.80 0.1512
814.90 0.1512
815.00 0.1511
815.10 0.151
815.20 0.151
815.30 0.1509
815.40 0.1508
815.50 0.1507
815.60 0.1507
815.70 0.1506
815.80 0.1505
815.90 0.1504
816.00 0.1504
816.10 0.1503
816.20 0.1502
816.30 0.1502
816.40 0.1501
816.50 0.15
816.60 0.1499
816.70 0.1499
816.80 0.1498
816.90 0.1497
817.00 0.1497
817.10 0.1496
817.20 0.1495
817.30 0.1494
817.40 0.1494
817.50 0.1493
817.60 0.1492
817.70 0.1492
817.80 0.1491
817.90 0.149
818.00 0.1489
818.10 0.1489
818.20 0.1488
818.30 0.1487
818.40 0.1487
818.50 0.1486
818.60 0.1485
818.70 0.1484
818.80 0.1484
818.90 0.1483
819.00 0.1482
819.10 0.1482
819.20 0.1481
819.30 0.148
819.40 0.1479
819.50 0.1479
819.60 0.1478
819.70 0.1477
819.80 0.1477
819.90 0.1476
820.00 0.1475
820.10 0.1475
820.20 0.1474
820.30 0.1473
820.40 0.1472
820.50 0.1472
820.60 0.1471
820.70 0.147
820.80 0.147
820.90 0.1469
821.00 0.1468
821.10 0.1468
821.20 0.1467
821.30 0.1466
821.40 0.1465
821.50 0.1465
821.60 0.1464
821.70 0.1463
821.80 0.1463
821.90 0.1462
822.00 0.1461
822.10 0.1461
822.20 0.146
822.30 0.1459
822.40 0.1458
822.50 0.1458
822.60 0.1457
822.70 0.1456
822.80 0.1456
822.90 0.1455
823.00 0.1454
823.10 0.1454
823.20 0.1453
823.30 0.1452
823.40 0.1452
823.50 0.1451
823.60 0.145
823.70 0.145
823.80 0.1449
823.90 0.1448
824.00 0.1448
824.10 0.1447
824.20 0.1446
824.30 0.1445
824.40 0.1445
824.50 0.1444
824.60 0.1443
824.70 0.1443
824.80 0.1442
824.90 0.1441
825.00 0.1441
825.10 0.144
825.20 0.1439
825.30 0.1439
825.40 0.1438
825.50 0.1437
825.60 0.1437
825.70 0.1436
825.80 0.1435
825.90 0.1435
826.00 0.1434
826.10 0.1433
826.20 0.1433
826.30 0.1432
826.40 0.1431
826.50 0.143
826.60 0.143
826.70 0.1429
826.80 0.1428
826.90 0.1428
827.00 0.1427
827.10 0.1426
827.20 0.1426
827.30 0.1425
827.40 0.1424
827.50 0.1424
827.60 0.1423
827.70 0.1422
827.80 0.1422
827.90 0.1421
828.00 0.142
828.10 0.142
828.20 0.1419
828.30 0.1418
828.40 0.1418
828.50 0.1417
828.60 0.1416
828.70 0.1416
828.80 0.1415
828.90 0.1414
829.00 0.1414
829.10 0.1413
829.20 0.1412
829.30 0.1412
829.40 0.1411
829.50 0.141
829.60 0.141
829.70 0.1409
829.80 0.1408
829.90 0.1408
830.00 0.1407
830.10 0.1406
830.20 0.1406
830.30 0.1405
830.40 0.1404
830.50 0.1404
830.60 0.1403
830.70 0.1402
830.80 0.1402
830.90 0.1401
831.00 0.1401
831.10 0.14
831.20 0.1399
831.30 0.1399
831.40 0.1398
831.50 0.1397
831.60 0.1397
831.70 0.1396
831.80 0.1395
831.90 0.1395
832.00 0.1394
832.10 0.1393
832.20 0.1393
832.30 0.1392
832.40 0.1391
832.50 0.1391
832.60 0.139
832.70 0.1389
832.80 0.1389
832.90 0.1388
833.00 0.1387
833.10 0.1387
833.20 0.1386
833.30 0.1386
833.40 0.1385
833.50 0.1384
833.60 0.1384
833.70 0.1383
833.80 0.1382
833.90 0.1382
834.00 0.1381
834.10 0.138
834.20 0.138
834.30 0.1379
834.40 0.1378
834.50 0.1378
834.60 0.1377
834.70 0.1376
834.80 0.1376
834.90 0.1375
835.00 0.1375
835.10 0.1374
835.20 0.1373
835.30 0.1373
835.40 0.1372
835.50 0.1371
835.60 0.1371
835.70 0.137
835.80 0.1369
835.90 0.1369
836.00 0.1368
836.10 0.1367
836.20 0.1367
836.30 0.1366
836.40 0.1366
836.50 0.1365
836.60 0.1364
836.70 0.1364
836.80 0.1363
836.90 0.1362
837.00 0.1362
837.10 0.1361
837.20 0.136
837.30 0.136
837.40 0.1359
837.50 0.1359
837.60 0.1358
837.70 0.1357
837.80 0.1357
837.90 0.1356
838.00 0.1355
838.10 0.1355
838.20 0.1354
838.30 0.1354
838.40 0.1353
838.50 0.1352
838.60 0.1352
838.70 0.1351
838.80 0.135
838.90 0.135
839.00 0.1349
839.10 0.1348
839.20 0.1348
839.30 0.1347
839.40 0.1347
839.50 0.1346
839.60 0.1345
839.70 0.1345
839.80 0.1344
839.90 0.1343
840.00 0.1343
840.10 0.1342
840.20 0.1342
840.30 0.1341
840.40 0.134
840.50 0.134
840.60 0.1339
840.70 0.1338
840.80 0.1338
840.90 0.1337
841.00 0.1337
841.10 0.1336
841.20 0.1335
841.30 0.1335
841.40 0.1334
841.50 0.1333
841.60 0.1333
841.70 0.1332
841.80 0.1332
841.90 0.1331
842.00 0.133
842.10 0.133
842.20 0.1329
842.30 0.1329
842.40 0.1328
842.50 0.1327
842.60 0.1327
842.70 0.1326
842.80 0.1325
842.90 0.1325
843.00 0.1324
843.10 0.1324
843.20 0.1323
843.30 0.1322
843.40 0.1322
843.50 0.1321
843.60 0.1321
843.70 0.132
843.80 0.1319
843.90 0.1319
844.00 0.1318
844.10 0.1318
844.20 0.1317
844.30 0.1316
844.40 0.1316
844.50 0.1315
844.60 0.1314
844.70 0.1314
844.80 0.1313
844.90 0.1313
845.00 0.1312
845.10 0.1311
845.20 0.1311
845.30 0.131
845.40 0.131
845.50 0.1309
845.60 0.1308
845.70 0.1308
845.80 0.1307
845.90 0.1307
846.00 0.1306
846.10 0.1305
846.20 0.1305
846.30 0.1304
846.40 0.1304
846.50 0.1303
846.60 0.1302
846.70 0.1302
846.80 0.1301
846.90 0.1301
847.00 0.13
847.10 0.1299
847.20 0.1299
847.30 0.1298
847.40 0.1298
847.50 0.1297
847.60 0.1296
847.70 0.1296
847.80 0.1295
847.90 0.1295
848.00 0.1294
848.10 0.1293
848.20 0.1293
848.30 0.1292
848.40 0.1292
848.50 0.1291
848.60 0.129
848.70 0.129
848.80 0.1289
848.90 0.1289
849.00 0.1288
849.10 0.1287
849.20 0.1287
849.30 0.1286
849.40 0.1286
849.50 0.1285
849.60 0.1284
849.70 0.1284
849.80 0.1283
849.90 0.1283
850.00 0.1282
850.10 0.1282
850.20 0.1281
850.30 0.128
850.40 0.128
850.50 0.1279
850.60 0.1279
850.70 0.1278
850.80 0.1277
850.90 0.1277
851.00 0.1276
851.10 0.1276
851.20 0.1275
851.30 0.1274
851.40 0.1274
851.50 0.1273
851.60 0.1273
851.70 0.1272
851.80 0.1272
851.90 0.1271
852.00 0.127
852.10 0.127
852.20 0.1269
852.30 0.1269
852.40 0.1268
852.50 0.1267
852.60 0.1267
852.70 0.1266
852.80 0.1266
852.90 0.1265
853.00 0.1265
853.10 0.1264
853.20 0.1263
853.30 0.1263
853.40 0.1262
853.50 0.1262
853.60 0.1261
853.70 0.126
853.80 0.126
853.90 0.1259
854.00 0.1259
854.10 0.1258
854.20 0.1258
854.30 0.1257
854.40 0.1256
854.50 0.1256
854.60 0.1255
854.70 0.1255
854.80 0.1254
854.90 0.1254
855.00 0.1253
855.10 0.1252
855.20 0.1252
855.30 0.1251
855.40 0.1251
855.50 0.125
855.60 0.125
855.70 0.1249
855.80 0.1248
855.90 0.1248
856.00 0.1247
856.10 0.1247
856.20 0.1246
856.30 0.1246
856.40 0.1245
856.50 0.1244
856.60 0.1244
856.70 0.1243
856.80 0.1243
856.90 0.1242
857.00 0.1242
857.10 0.1241
857.20 0.124
857.30 0.124
857.40 0.1239
857.50 0.1239
857.60 0.1238
857.70 0.1238
857.80 0.1237
857.90 0.1237
858.00 0.1236
858.10 0.1235
858.20 0.1235
858.30 0.1234
858.40 0.1234
858.50 0.1233
858.60 0.1233
858.70 0.1232
858.80 0.1232
858.90 0.1231
859.00 0.123
859.10 0.123
859.20 0.1229
859.30 0.1229
859.40 0.1228
859.50 0.1228
859.60 0.1227
859.70 0.1227
859.80 0.1226
859.90 0.1225
860.00 0.1225
860.10 0.1224
860.20 0.1224
860.30 0.1223
860.40 0.1223
860.50 0.1222
860.60 0.1222
860.70 0.1221
860.80 0.122
860.90 0.122
861.00 0.1219
861.10 0.1219
861.20 0.1218
861.30 0.1218
861.40 0.1217
861.50 0.1217
861.60 0.1216
861.70 0.1215
861.80 0.1215
861.90 0.1214
862.00 0.1214
862.10 0.1213
862.20 0.1213
862.30 0.1212
862.40 0.1212
862.50 0.1211
862.60 0.1211
862.70 0.121
862.80 0.1209
862.90 0.1209
863.00 0.1208
863.10 0.1208
863.20 0.1207
863.30 0.1207
863.40 0.1206
863.50 0.1206
863.60 0.1205
863.70 0.1204
863.80 0.1204
863.90 0.1203
864.00 0.1203
864.10 0.1202
864.20 0.1202
864.30 0.1201
864.40 0.1201
864.50 0.12
864.60 0.12
864.70 0.1199
864.80 0.1199
864.90 0.1198
865.00 0.1197
865.10 0.1197
865.20 0.1196
865.30 0.1196
865.40 0.1195
865.50 0.1195
865.60 0.1194
865.70 0.1194
865.80 0.1193
865.90 0.1193
866.00 0.1192
866.10 0.1191
866.20 0.1191
866.30 0.119
866.40 0.119
866.50 0.1189
866.60 0.1189
866.70 0.1188
866.80 0.1188
866.90 0.1187
867.00 0.1187
867.10 0.1186
867.20 0.1186
867.30 0.1185
867.40 0.1184
867.50 0.1184
867.60 0.1183
867.70 0.1183
867.80 0.1182
867.90 0.1182
868.00 0.1181
868.10 0.1181
868.20 0.118
868.30 0.118
868.40 0.1179
868.50 0.1179
868.60 0.1178
868.70 0.1178
868.80 0.1177
868.90 0.1177
869.00 0.1176
869.10 0.1175
869.20 0.1175
869.30 0.1174
869.40 0.1174
869.50 0.1173
869.60 0.1173
869.70 0.1172
869.80 0.1172
869.90 0.1171
870.00 0.1171
870.10 0.117
870.20 0.117
870.30 0.1169
870.40 0.1169
870.50 0.1168
870.60 0.1168
870.70 0.1167
870.80 0.1167
870.90 0.1166
871.00 0.1165
871.10 0.1165
871.20 0.1164
871.30 0.1164
871.40 0.1163
871.50 0.1163
871.60 0.1162
871.70 0.1162
871.80 0.1161
871.90 0.1161
872.00 0.116
872.10 0.116
872.20 0.1159
872.30 0.1159
872.40 0.1158
872.50 0.1158
872.60 0.1157
872.70 0.1157
872.80 0.1156
872.90 0.1156
873.00 0.1155
873.10 0.1155
873.20 0.1154
873.30 0.1154
873.40 0.1153
873.50 0.1152
873.60 0.1152
873.70 0.1151
873.80 0.1151
873.90 0.115
874.00 0.115
874.10 0.1149
874.20 0.1149
874.30 0.1148
874.40 0.1148
874.50 0.1147
874.60 0.1147
874.70 0.1146
874.80 0.1146
874.90 0.1145
875.00 0.1145
875.10 0.1144
875.20 0.1144
875.30 0.1143
875.40 0.1143
875.50 0.1142
875.60 0.1142
875.70 0.1141
875.80 0.1141
875.90 0.114
876.00 0.114
876.10 0.1139
876.20 0.1139
876.30 0.1138
876.40 0.1138
876.50 0.1137
876.60 0.1137
876.70 0.1136
876.80 0.1136
876.90 0.1135
877.00 0.1135
877.10 0.1134
877.20 0.1134
877.30 0.1133
877.40 0.1133
877.50 0.1132
877.60 0.1132
877.70 0.1131
877.80 0.1131
877.90 0.113
878.00 0.113
878.10 0.1129
878.20 0.1129
878.30 0.1128
878.40 0.1128
878.50 0.1127
878.60 0.1127
878.70 0.1126
878.80 0.1126
878.90 0.1125
879.00 0.1125
879.10 0.1124
879.20 0.1124
879.30 0.1123
879.40 0.1123
879.50 0.1122
879.60 0.1122
879.70 0.1121
879.80 0.1121
879.90 0.112
880.00 0.112
880.10 0.1119
880.20 0.1119
880.30 0.1118
880.40 0.1118
880.50 0.1117
880.60 0.1117
880.70 0.1116
880.80 0.1116
880.90 0.1115
881.00 0.1115
881.10 0.1114
881.20 0.1114
881.30 0.1113
881.40 0.1113
881.50 0.1112
881.60 0.1112
881.70 0.1111
881.80 0.1111
881.90 0.111
882.00 0.111
882.10 0.1109
882.20 0.1109
882.30 0.1108
882.40 0.1108
882.50 0.1107
882.60 0.1107
882.70 0.1106
882.80 0.1106
882.90 0.1105
883.00 0.1105
883.10 0.1104
883.20 0.1104
883.30 0.1103
883.40 0.1103
883.50 0.1102
883.60 0.1102
883.70 0.1101
883.80 0.1101
883.90 0.11
884.00 0.11
884.10 0.1099
884.20 0.1099
884.30 0.1098
884.40 0.1098
884.50 0.1097
884.60 0.1097
884.70 0.1096
884.80 0.1096
884.90 0.1095
885.00 0.1095
885.10 0.1095
885.20 0.1094
885.30 0.1094
885.40 0.1093
885.50 0.1093
885.60 0.1092
885.70 0.1092
885.80 0.1091
885.90 0.1091
886.00 0.109
886.10 0.109
886.20 0.1089
886.30 0.1089
886.40 0.1088
886.50 0.1088
886.60 0.1087
886.70 0.1087
886.80 0.1086
886.90 0.1086
887.00 0.1085
887.10 0.1085
887.20 0.1084
887.30 0.1084
887.40 0.1083
887.50 0.1083
887.60 0.1083
887.70 0.1082
887.80 0.1082
887.90 0.1081
888.00 0.1081
888.10 0.108
888.20 0.108
888.30 0.1079
888.40 0.1079
888.50 0.1078
888.60 0.1078
888.70 0.1077
888.80 0.1077
888.90 0.1076
889.00 0.1076
889.10 0.1075
889.20 0.1075
889.30 0.1074
889.40 0.1074
889.50 0.1074
889.60 0.1073
889.70 0.1073
889.80 0.1072
889.90 0.1072
890.00 0.1071
890.10 0.1071
890.20 0.107
890.30 0.107
890.40 0.1069
890.50 0.1069
890.60 0.1068
890.70 0.1068
890.80 0.1067
890.90 0.1067
891.00 0.1066
891.10 0.1066
891.20 0.1066
891.30 0.1065
891.40 0.1065
891.50 0.1064
891.60 0.1064
891.70 0.1063
891.80 0.1063
891.90 0.1062
892.00 0.1062
892.10 0.1061
892.20 0.1061
892.30 0.106
892.40 0.106
892.50 0.1059
892.60 0.1059
892.70 0.1059
892.80 0.1058
892.90 0.1058
893.00 0.1057
893.10 0.1057
893.20 0.1056
893.30 0.1056
893.40 0.1055
893.50 0.1055
893.60 0.1054
893.70 0.1054
893.80 0.1053
893.90 0.1053
894.00 0.1053
894.10 0.1052
894.20 0.1052
894.30 0.1051
894.40 0.1051
894.50 0.105
894.60 0.105
894.70 0.1049
894.80 0.1049
894.90 0.1048
895.00 0.1048
895.10 0.1048
895.20 0.1047
895.30 0.1047
895.40 0.1046
895.50 0.1046
895.60 0.1045
895.70 0.1045
895.80 0.1044
895.90 0.1044
896.00 0.1043
896.10 0.1043
896.20 0.1042
896.30 0.1042
896.40 0.1042
896.50 0.1041
896.60 0.1041
896.70 0.104
896.80 0.104
896.90 0.1039
897.00 0.1039
897.10 0.1038
897.20 0.1038
897.30 0.1037
897.40 0.1037
897.50 0.1037
897.60 0.1036
897.70 0.1036
897.80 0.1035
897.90 0.1035
898.00 0.1034
898.10 0.1034
898.20 0.1033
898.30 0.1033
898.40 0.1033
898.50 0.1032
898.60 0.1032
898.70 0.1031
898.80 0.1031
898.90 0.103
899.00 0.103
899.10 0.1029
899.20 0.1029
899.30 0.1029
899.40 0.1028
899.50 0.1028
899.60 0.1027
899.70 0.1027
899.80 0.1026
899.90 0.1026
900.00 0.1025
900.10 0.1025
900.20 0.1025
900.30 0.1024
900.40 0.1024
900.50 0.1023
900.60 0.1023
900.70 0.1022
900.80 0.1022
900.90 0.1021
901.00 0.1021
901.10 0.1021
901.20 0.102
901.30 0.102
901.40 0.1019
901.50 0.1019
901.60 0.1018
901.70 0.1018
901.80 0.1017
901.90 0.1017
902.00 0.1017
902.10 0.1016
902.20 0.1016
902.30 0.1015
902.40 0.1015
902.50 0.1014
902.60 0.1014
902.70 0.1013
902.80 0.1013
902.90 0.1013
903.00 0.1012
903.10 0.1012
903.20 0.1011
903.30 0.1011
903.40 0.101
903.50 0.101
903.60 0.101
903.70 0.1009
903.80 0.1009
903.90 0.1008
904.00 0.1008
904.10 0.1007
904.20 0.1007
904.30 0.1007
904.40 0.1006
904.50 0.1006
904.60 0.1005
904.70 0.1005
904.80 0.1004
904.90 0.1004
905.00 0.1003
905.10 0.1003
905.20 0.1003
905.30 0.1002
905.40 0.1002
905.50 0.1001
905.60 0.1001
905.70 0.1
905.80 0.1
905.90 0.09996
906.00 0.09991
906.10 0.09987
906.20 0.09983
906.30 0.09978
906.40 0.09974
906.50 0.0997
906.60 0.09966
906.70 0.09961
906.80 0.09957
906.90 0.09953
907.00 0.09948
907.10 0.09944
907.20 0.0994
907.30 0.09935
907.40 0.09931
907.50 0.09927
907.60 0.09923
907.70 0.09918
907.80 0.09914
907.90 0.0991
908.00 0.09906
908.10 0.09901
908.20 0.09897
908.30 0.09893
908.40 0.09889
908.50 0.09884
908.60 0.0988
908.70 0.09876
908.80 0.09872
908.90 0.09868
909.00 0.09863
909.10 0.09859
909.20 0.09855
909.30 0.09851
909.40 0.09846
909.50 0.09842
909.60 0.09838
909.70 0.09834
909.80 0.0983
909.90 0.09825
910.00 0.09821
910.10 0.09817
910.20 0.09813
910.30 0.09808
910.40 0.09804
910.50 0.098
910.60 0.09796
910.70 0.09792
910.80 0.09787
910.90 0.09783
911.00 0.09779
911.10 0.09775
911.20 0.09771
911.30 0.09766
911.40 0.09762
911.50 0.09758
911.60 0.09754
911.70 0.0975
911.80 0.09745
911.90 0.09741
912.00 0.09737
912.10 0.09733
912.20 0.09729
912.30 0.09725
912.40 0.09721
912.50 0.09716
912.60 0.09712
912.70 0.09708
912.80 0.09704
912.90 0.097
913.00 0.09696
913.10 0.09692
913.20 0.09687
913.30 0.09683
913.40 0.09679
913.50 0.09675
913.60 0.09671
913.70 0.09667
913.80 0.09663
913.90 0.09659
914.00 0.09654
914.10 0.0965
914.20 0.09646
914.30 0.09642
914.40 0.09638
914.50 0.09634
914.60 0.0963
914.70 0.09626
914.80 0.09622
914.90 0.09618
915.00 0.09613
915.10 0.09609
915.20 0.09605
915.30 0.09601
915.40 0.09597
915.50 0.09593
915.60 0.09589
915.70 0.09585
915.80 0.09581
915.90 0.09577
916.00 0.09573
916.10 0.09568
916.20 0.09564
916.30 0.0956
916.40 0.09556
916.50 0.09552
916.60 0.09548
916.70 0.09544
916.80 0.0954
916.90 0.09536
917.00 0.09532
917.10 0.09528
917.20 0.09524
917.30 0.0952
917.40 0.09516
917.50 0.09512
917.60 0.09508
917.70 0.09504
917.80 0.095
917.90 0.09496
918.00 0.09492
918.10 0.09488
918.20 0.09484
918.30 0.0948
918.40 0.09476
918.50 0.09472
918.60 0.09468
918.70 0.09464
918.80 0.0946
918.90 0.09456
919.00 0.09452
919.10 0.09448
919.20 0.09444
919.30 0.0944
919.40 0.09436
919.50 0.09432
919.60 0.09428
919.70 0.09424
919.80 0.0942
919.90 0.09416
920.00 0.09412
920.10 0.09408
920.20 0.09404
920.30 0.094
920.40 0.09396
920.50 0.09392
920.60 0.09388
920.70 0.09384
920.80 0.0938
920.90 0.09376
921.00 0.09372
921.10 0.09368
921.20 0.09364
921.30 0.0936
921.40 0.09356
921.50 0.09352
921.60 0.09348
921.70 0.09344
921.80 0.0934
921.90 0.09336
922.00 0.09332
922.10 0.09328
922.20 0.09325
922.30 0.09321
922.40 0.09317
922.50 0.09313
922.60 0.09309
922.70 0.09305
922.80 0.09301
922.90 0.09297
923.00 0.09293
923.10 0.09289
923.20 0.09285
923.30 0.09281
923.40 0.09277
923.50 0.09273
923.60 0.0927
923.70 0.09266
923.80 0.09262
923.90 0.09258
924.00 0.09254
924.10 0.0925
924.20 0.09246
924.30 0.09242
924.40 0.09238
924.50 0.09234
924.60 0.09231
924.70 0.09227
924.80 0.09223
924.90 0.09219
925.00 0.09215
925.10 0.09211
925.20 0.09207
925.30 0.09203
925.40 0.09199
925.50 0.09195
925.60 0.09192
925.70 0.09188
925.80 0.09184
925.90 0.0918
926.00 0.09176
926.10 0.09172
926.20 0.09168
926.30 0.09164
926.40 0.09161
926.50 0.09157
926.60 0.09153
926.70 0.09149
926.80 0.09145
926.90 0.09141
927.00 0.09137
927.10 0.09134
927.20 0.0913
927.30 0.09126
927.40 0.09122
927.50 0.09118
927.60 0.09114
927.70 0.09111
927.80 0.09107
927.90 0.09103
928.00 0.09099
928.10 0.09095
928.20 0.09092
928.30 0.09088
928.40 0.09084
928.50 0.0908
928.60 0.09076
928.70 0.09072
928.80 0.09069
928.90 0.09065
929.00 0.09061
929.10 0.09057
929.20 0.09053
929.30 0.0905
929.40 0.09046
929.50 0.09042
929.60 0.09038
929.70 0.09034
929.80 0.09031
929.90 0.09027
930.00 0.09023
930.10 0.09019
930.20 0.09016
930.30 0.09012
930.40 0.09008
930.50 0.09004
930.60 0.09
930.70 0.08997
930.80 0.08993
930.90 0.08989
931.00 0.08985
931.10 0.08982
931.20 0.08978
931.30 0.08974
931.40 0.0897
931.50 0.08966
931.60 0.08963
931.70 0.08959
931.80 0.08955
931.90 0.08951
932.00 0.08948
932.10 0.08944
932.20 0.0894
932.30 0.08936
932.40 0.08933
932.50 0.08929
932.60 0.08925
932.70 0.08922
932.80 0.08918
932.90 0.08914
933.00 0.0891
933.10 0.08907
933.20 0.08903
933.30 0.08899
933.40 0.08895
933.50 0.08892
933.60 0.08888
933.70 0.08884
933.80 0.08881
933.90 0.08877
934.00 0.08873
934.10 0.08869
934.20 0.08866
934.30 0.08862
934.40 0.08858
934.50 0.08855
934.60 0.08851
934.70 0.08847
934.80 0.08844
934.90 0.0884
935.00 0.08836
935.10 0.08833
935.20 0.08829
935.30 0.08825
935.40 0.08821
935.50 0.08818
935.60 0.08814
935.70 0.0881
935.80 0.08807
935.90 0.08803
936.00 0.08799
936.10 0.08796
936.20 0.08792
936.30 0.08788
936.40 0.08785
936.50 0.08781
936.60 0.08777
936.70 0.08774
936.80 0.0877
936.90 0.08766
937.00 0.08763
937.10 0.08759
937.20 0.08756
937.30 0.08752
937.40 0.08748
937.50 0.08745
937.60 0.08741
937.70 0.08737
937.80 0.08734
937.90 0.0873
938.00 0.08726
938.10 0.08723
938.20 0.08719
938.30 0.08716
938.40 0.08712
938.50 0.08708
938.60 0.08705
938.70 0.08701
938.80 0.08697
938.90 0.08694
939.00 0.0869
939.10 0.08687
939.20 0.08683
939.30 0.08679
939.40 0.08676
939.50 0.08672
939.60 0.08669
939.70 0.08665
939.80 0.08661
939.90 0.08658
940.00 0.08654
940.10 0.08651
940.20 0.08647
940.30 0.08643
940.40 0.0864
940.50 0.08636
940.60 0.08633
940.70 0.08629
940.80 0.08625
940.90 0.08622
941.00 0.08618
941.10 0.08615
941.20 0.08611
941.30 0.08608
941.40 0.08604
941.50 0.086
941.60 0.08597
941.70 0.08593
941.80 0.0859
941.90 0.08586
942.00 0.08583
942.10 0.08579
942.20 0.08575
942.30 0.08572
942.40 0.08568
942.50 0.08565
942.60 0.08561
942.70 0.08558
942.80 0.08554
942.90 0.08551
943.00 0.08547
943.10 0.08544
943.20 0.0854
943.30 0.08536
943.40 0.08533
943.50 0.08529
943.60 0.08526
943.70 0.08522
943.80 0.08519
943.90 0.08515
944.00 0.08512
944.10 0.08508
944.20 0.08505
944.30 0.08501
944.40 0.08498
944.50 0.08494
944.60 0.08491
944.70 0.08487
944.80 0.08484
944.90 0.0848
945.00 0.08477
945.10 0.08473
945.20 0.0847
945.30 0.08466
945.40 0.08463
945.50 0.08459
945.60 0.08456
945.70 0.08452
945.80 0.08449
945.90 0.08445
946.00 0.08442
946.10 0.08438
946.20 0.08435
946.30 0.08431
946.40 0.08428
946.50 0.08424
946.60 0.08421
946.70 0.08417
946.80 0.08414
946.90 0.0841
947.00 0.08407
947.10 0.08403
947.20 0.084
947.30 0.08397
947.40 0.08393
947.50 0.0839
947.60 0.08386
947.70 0.08383
947.80 0.08379
947.90 0.08376
948.00 0.08372
948.10 0.08369
948.20 0.08366
948.30 0.08362
948.40 0.08359
948.50 0.08355
948.60 0.08352
948.70 0.08348
948.80 0.08345
948.90 0.08341
949.00 0.08338
949.10 0.08335
949.20 0.08331
949.30 0.08328
949.40 0.08324
949.50 0.08321
949.60 0.08318
949.70 0.08314
949.80 0.08311
949.90 0.08307
950.00 0.08304
950.10 0.08301
950.20 0.08297
950.30 0.08294
950.40 0.0829
950.50 0.08287
950.60 0.08284
950.70 0.0828
950.80 0.08277
950.90 0.08273
951.00 0.0827
951.10 0.08267
951.20 0.08263
951.30 0.0826
951.40 0.08257
951.50 0.08253
951.60 0.0825
951.70 0.08246
951.80 0.08243
951.90 0.0824
952.00 0.08236
952.10 0.08233
952.20 0.0823
952.30 0.08226
952.40 0.08223
952.50 0.0822
952.60 0.08216
952.70 0.08213
952.80 0.0821
952.90 0.08206
953.00 0.08203
953.10 0.082
953.20 0.08196
953.30 0.08193
953.40 0.0819
953.50 0.08186
953.60 0.08183
953.70 0.0818
953.80 0.08176
953.90 0.08173
954.00 0.0817
954.10 0.08167
954.20 0.08163
954.30 0.0816
954.40 0.08157
954.50 0.08153
954.60 0.0815
954.70 0.08147
954.80 0.08144
954.90 0.0814
955.00 0.08137
955.10 0.08133
955.20 0.0813
955.30 0.08127
955.40 0.08123
955.50 0.0812
955.60 0.08117
955.70 0.08113
955.80 0.0811
955.90 0.08107
956.00 0.08103
956.10 0.081
956.20 0.08097
956.30 0.08093
956.40 0.0809
956.50 0.08087
956.60 0.08084
956.70 0.0808
956.80 0.08077
956.90 0.08074
957.00 0.0807
957.10 0.08067
957.20 0.08064
957.30 0.0806
957.40 0.08057
957.50 0.08054
957.60 0.08051
957.70 0.08047
957.80 0.08044
957.90 0.08041
958.00 0.08038
958.10 0.08034
958.20 0.08031
958.30 0.08028
958.40 0.08025
958.50 0.08021
958.60 0.08018
958.70 0.08015
958.80 0.08012
958.90 0.08008
959.00 0.08005
959.10 0.08002
959.20 0.07998
959.30 0.07995
959.40 0.07992
959.50 0.07989
959.60 0.07986
959.70 0.07982
959.80 0.07979
959.90 0.07976
960.00 0.07973
960.10 0.07969
960.20 0.07966
960.30 0.07963
960.40 0.0796
960.50 0.07957
960.60 0.07953
960.70 0.0795
960.80 0.07947
960.90 0.07944
961.00 0.0794
961.10 0.07937
961.20 0.07934
961.30 0.07931
961.40 0.07928
961.50 0.07924
961.60 0.07921
961.70 0.07918
961.80 0.07915
961.90 0.07912
962.00 0.07909
962.10 0.07905
962.20 0.07902
962.30 0.07899
962.40 0.07896
962.50 0.07893
962.60 0.07889
962.70 0.07886
962.80 0.07883
962.90 0.0788
963.00 0.07877
963.10 0.07874
963.20 0.0787
963.30 0.07867
963.40 0.07864
963.50 0.07861
963.60 0.07858
963.70 0.07855
963.80 0.07851
963.90 0.07848
964.00 0.07845
964.10 0.07842
964.20 0.07839
964.30 0.07836
964.40 0.07833
964.50 0.07829
964.60 0.07826
964.70 0.07823
964.80 0.0782
964.90 0.07817
965.00 0.07814
965.10 0.07811
965.20 0.07807
965.30 0.07804
965.40 0.07801
965.50 0.07798
965.60 0.07795
965.70 0.07792
965.80 0.07789
965.90 0.07785
966.00 0.07782
966.10 0.07779
966.20 0.07776
966.30 0.07773
966.40 0.0777
966.50 0.07767
966.60 0.07764
966.70 0.0776
966.80 0.07757
966.90 0.07754
967.00 0.07751
967.10 0.07748
967.20 0.07745
967.30 0.07742
967.40 0.07739
967.50 0.07736
967.60 0.07732
967.70 0.07729
967.80 0.07726
967.90 0.07723
968.00 0.0772
968.10 0.07717
968.20 0.07714
968.30 0.07711
968.40 0.07708
968.50 0.07705
968.60 0.07701
968.70 0.07698
968.80 0.07695
968.90 0.07692
969.00 0.07689
969.10 0.07686
969.20 0.07683
969.30 0.0768
969.40 0.07677
969.50 0.07674
969.60 0.07671
969.70 0.07668
969.80 0.07664
969.90 0.07661
970.00 0.07658
970.10 0.07655
970.20 0.07652
970.30 0.07649
970.40 0.07646
970.50 0.07643
970.60 0.0764
970.70 0.07637
970.80 0.07634
970.90 0.07631
971.00 0.07628
971.10 0.07625
971.20 0.07622
971.30 0.07618
971.40 0.07615
971.50 0.07612
971.60 0.07609
971.70 0.07606
971.80 0.07603
971.90 0.076
972.00 0.07597
972.10 0.07594
972.20 0.07591
972.30 0.07588
972.40 0.07585
972.50 0.07582
972.60 0.07579
972.70 0.07576
972.80 0.07573
972.90 0.0757
973.00 0.07567
973.10 0.07564
973.20 0.07561
973.30 0.07558
973.40 0.07555
973.50 0.07552
973.60 0.07548
973.70 0.07545
973.80 0.07542
973.90 0.07539
974.00 0.07536
974.10 0.07533
974.20 0.0753
974.30 0.07527
974.40 0.07524
974.50 0.07521
974.60 0.07518
974.70 0.07515
974.80 0.07512
974.90 0.07509
975.00 0.07506
975.10 0.07503
975.20 0.075
975.30 0.07497
975.40 0.07494
975.50 0.07491
975.60 0.07488
975.70 0.07485
975.80 0.07482
975.90 0.07479
976.00 0.07476
976.10 0.07473
976.20 0.0747
976.30 0.07467
976.40 0.07464
976.50 0.07461
976.60 0.07458
976.70 0.07455
976.80 0.07452
976.90 0.07449
977.00 0.07446
977.10 0.07443
977.20 0.0744
977.30 0.07437
977.40 0.07434
977.50 0.07431
977.60 0.07428
977.70 0.07425
977.80 0.07422
977.90 0.07419
978.00 0.07416
978.10 0.07413
978.20 0.0741
978.30 0.07407
978.40 0.07404
978.50 0.07401
978.60 0.07398
978.70 0.07395
978.80 0.07393
978.90 0.0739
979.00 0.07387
979.10 0.07384
979.20 0.07381
979.30 0.07378
979.40 0.07375
979.50 0.07372
979.60 0.07369
979.70 0.07366
979.80 0.07363
979.90 0.0736
980.00 0.07357
980.10 0.07354
980.20 0.07351
980.30 0.07348
980.40 0.07345
980.50 0.07342
980.60 0.07339
980.70 0.07336
980.80 0.07333
980.90 0.0733
981.00 0.07327
981.10 0.07324
981.20 0.07321
981.30 0.07319
981.40 0.07316
981.50 0.07313
981.60 0.0731
981.70 0.07307
981.80 0.07304
981.90 0.07301
982.00 0.07298
982.10 0.07295
982.20 0.07292
982.30 0.07289
982.40 0.07286
982.50 0.07283
982.60 0.0728
982.70 0.07277
982.80 0.07274
982.90 0.07272
983.00 0.07269
983.10 0.07266
983.20 0.07263
983.30 0.0726
983.40 0.07257
983.50 0.07254
983.60 0.07251
983.70 0.07248
983.80 0.07245
983.90 0.07242
984.00 0.07239
984.10 0.07236
984.20 0.07234
984.30 0.07231
984.40 0.07228
984.50 0.07225
984.60 0.07222
984.70 0.07219
984.80 0.07216
984.90 0.07213
985.00 0.0721
985.10 0.07207
985.20 0.07204
985.30 0.07202
985.40 0.07199
985.50 0.07196
985.60 0.07193
985.70 0.0719
985.80 0.07187
985.90 0.07184
986.00 0.07181
986.10 0.07178
986.20 0.07175
986.30 0.07173
986.40 0.0717
986.50 0.07167
986.60 0.07164
986.70 0.07161
986.80 0.07158
986.90 0.07155
987.00 0.07152
987.10 0.07149
987.20 0.07147
987.30 0.07144
987.40 0.07141
987.50 0.07138
987.60 0.07135
987.70 0.07132
987.80 0.07129
987.90 0.07126
988.00 0.07124
988.10 0.07121
988.20 0.07118
988.30 0.07115
988.40 0.07112
988.50 0.07109
988.60 0.07106
988.70 0.07103
988.80 0.07101
988.90 0.07098
989.00 0.07095
989.10 0.07092
989.20 0.07089
989.30 0.07086
989.40 0.07083
989.50 0.0708
989.60 0.07078
989.70 0.07075
989.80 0.07072
989.90 0.07069
990.00 0.07066
990.10 0.07063
990.20 0.0706
990.30 0.07058
990.40 0.07055
990.50 0.07052
990.60 0.07049
990.70 0.07046
990.80 0.07043
990.90 0.07041
991.00 0.07038
991.10 0.07035
991.20 0.07032
991.30 0.07029
991.40 0.07026
991.50 0.07023
991.60 0.07021
991.70 0.07018
991.80 0.07015
991.90 0.07012
992.00 0.07009
992.10 0.07006
992.20 0.07004
992.30 0.07001
992.40 0.06998
992.50 0.06995
992.60 0.06992
992.70 0.06989
992.80 0.06987
992.90 0.06984
993.00 0.06981
993.10 0.06978
993.20 0.06975
993.30 0.06973
993.40 0.0697
993.50 0.06967
993.60 0.06964
993.70 0.06961
993.80 0.06958
993.90 0.06956
994.00 0.06953
994.10 0.0695
994.20 0.06947
994.30 0.06944
994.40 0.06942
994.50 0.06939
994.60 0.06936
994.70 0.06933
994.80 0.0693
994.90 0.06928
995.00 0.06925
995.10 0.06922
995.20 0.06919
995.30 0.06916
995.40 0.06914
995.50 0.06911
995.60 0.06908
995.70 0.06905
995.80 0.06902
995.90 0.069
996.00 0.06897
996.10 0.06894
996.20 0.06891
996.30 0.06889
996.40 0.06886
996.50 0.06883
996.60 0.0688
996.70 0.06877
996.80 0.06875
996.90 0.06872
997.00 0.06869
997.10 0.06866
997.20 0.06864
997.30 0.06861
997.40 0.06858
997.50 0.06855
997.60 0.06853
997.70 0.0685
997.80 0.06847
997.90 0.06844
998.00 0.06842
998.10 0.06839
998.20 0.06836
998.30 0.06834
998.40 0.06831
998.50 0.06828
998.60 0.06825
998.70 0.06823
998.80 0.0682
998.90 0.06817
999.00 0.06814
999.10 0.06812
999.20 0.06809
999.30 0.06806
999.40 0.06804
999.50 0.06801
999.60 0.06798
999.70 0.06795
999.80 0.06792
999.90 0.0679
1000.00 0.06787
1000.10 0.06784
1000.20 0.06781
1000.30 0.06778
1000.40 0.06775
1000.50 0.06772
1000.60 0.0677
1000.70 0.06767
1000.80 0.06764
1000.90 0.06761
1001.00 0.06758
1001.10 0.06755
1001.20 0.06752
1001.30 0.0675
1001.40 0.06747
1001.50 0.06744
1001.60 0.06741
1001.70 0.06738
1001.80 0.06736
1001.90 0.06733
1002.00 0.06731
1002.10 0.06728
1002.20 0.06726
1002.30 0.06723
1002.40 0.0672
1002.50 0.06718
1002.60 0.06715
1002.70 0.06713
1002.80 0.0671
1002.90 0.06708
1003.00 0.06705
1003.10 0.06703
1003.20 0.067
1003.30 0.06698
1003.40 0.06695
1003.50 0.06693
1003.60 0.0669
1003.70 0.06688
1003.80 0.06685
1003.90 0.06683
1004.00 0.0668
1004.10 0.06678
1004.20 0.06676
1004.30 0.06673
1004.40 0.06671
1004.50 0.06668
1004.60 0.06666
1004.70 0.06663
1004.80 0.06661
1004.90 0.06658
1005.00 0.06655
1005.10 0.06653
1005.20 0.0665
1005.30 0.06648
1005.40 0.06645
1005.50 0.06642
1005.60 0.0664
1005.70 0.06637
1005.80 0.06634
1005.90 0.06632
1006.00 0.06629
1006.10 0.06626
1006.20 0.06624
1006.30 0.06621
1006.40 0.06618
1006.50 0.06616
1006.60 0.06613
1006.70 0.0661
1006.80 0.06608
1006.90 0.06605
1007.00 0.06602
1007.10 0.066
1007.20 0.06597
1007.30 0.06594
1007.40 0.06592
1007.50 0.06589
1007.60 0.06587
1007.70 0.06584
1007.80 0.06582
1007.90 0.06579
1008.00 0.06576
1008.10 0.06574
1008.20 0.06571
1008.30 0.06569
1008.40 0.06566
1008.50 0.06564
1008.60 0.06561
1008.70 0.06559
1008.80 0.06556
1008.90 0.06554
1009.00 0.06551
1009.10 0.06549
1009.20 0.06546
1009.30 0.06544
1009.40 0.06541
1009.50 0.06539
1009.60 0.06536
1009.70 0.06534
1009.80 0.06531
1009.90 0.06529
1010.00 0.06526
1010.10 0.06524
1010.20 0.06521
1010.30 0.06519
1010.40 0.06516
1010.50 0.06514
1010.60 0.06512
1010.70 0.06509
1010.80 0.06507
1010.90 0.06504
1011.00 0.06502
1011.10 0.06499
1011.20 0.06497
1011.30 0.06494
1011.40 0.06492
1011.50 0.0649
1011.60 0.06487
1011.70 0.06485
1011.80 0.06482
1011.90 0.0648
1012.00 0.06477
1012.10 0.06475
1012.20 0.06473
1012.30 0.0647
1012.40 0.06468
1012.50 0.06465
1012.60 0.06463
1012.70 0.06461
1012.80 0.06458
1012.90 0.06456
1013.00 0.06453
1013.10 0.06451
1013.20 0.06449
1013.30 0.06446
1013.40 0.06444
1013.50 0.06441
1013.60 0.06439
1013.70 0.06437
1013.80 0.06434
1013.90 0.06432
1014.00 0.0643
1014.10 0.06427
1014.20 0.06425
1014.30 0.06422
1014.40 0.0642
1014.50 0.06418
1014.60 0.06415
1014.70 0.06413
1014.80 0.06411
1014.90 0.06408
1015.00 0.06406
1015.10 0.06403
1015.20 0.06401
1015.30 0.06399
1015.40 0.06396
1015.50 0.06394
1015.60 0.06392
1015.70 0.06389
1015.80 0.06387
1015.90 0.06384
1016.00 0.06382
1016.10 0.0638
1016.20 0.06377
1016.30 0.06375
1016.40 0.06373
1016.50 0.0637
1016.60 0.06368
1016.70 0.06366
1016.80 0.06363
1016.90 0.06361
1017.00 0.06359
1017.10 0.06356
1017.20 0.06354
1017.30 0.06351
1017.40 0.06349
1017.50 0.06347
1017.60 0.06344
1017.70 0.06342
1017.80 0.0634
1017.90 0.06337
1018.00 0.06335
1018.10 0.06333
1018.20 0.0633
1018.30 0.06328
1018.40 0.06326
1018.50 0.06323
1018.60 0.06321
1018.70 0.06319
1018.80 0.06316
1018.90 0.06314
1019.00 0.06312
1019.10 0.06309
1019.20 0.06307
1019.30 0.06305
1019.40 0.06302
1019.50 0.063
1019.60 0.06298
1019.70 0.06295
1019.80 0.06293
1019.90 0.06291
1020.00 0.06288
1020.10 0.06286
1020.20 0.06284
1020.30 0.06281
1020.40 0.06279
1020.50 0.06277
1020.60 0.06274
1020.70 0.06272
1020.80 0.0627
1020.90 0.06267
1021.00 0.06265
1021.10 0.06263
1021.20 0.0626
1021.30 0.06258
1021.40 0.06256
1021.50 0.06253
1021.60 0.06251
1021.70 0.06249
1021.80 0.06246
1021.90 0.06244
1022.00 0.06242
1022.10 0.0624
1022.20 0.06237
1022.30 0.06235
1022.40 0.06233
1022.50 0.0623
1022.60 0.06228
1022.70 0.06226
1022.80 0.06223
1022.90 0.06221
1023.00 0.06219
1023.10 0.06216
1023.20 0.06214
1023.30 0.06212
1023.40 0.0621
1023.50 0.06207
1023.60 0.06205
1023.70 0.06203
1023.80 0.062
1023.90 0.06198
1024.00 0.06196
1024.10 0.06193
1024.20 0.06191
1024.30 0.06189
1024.40 0.06186
1024.50 0.06184
1024.60 0.06182
1024.70 0.0618
1024.80 0.06177
1024.90 0.06175
1025.00 0.06173
1025.10 0.0617
1025.20 0.06168
1025.30 0.06166
1025.40 0.06164
1025.50 0.06161
1025.60 0.06159
1025.70 0.06157
1025.80 0.06154
1025.90 0.06152
1026.00 0.0615
1026.10 0.06148
1026.20 0.06145
1026.30 0.06143
1026.40 0.06141
1026.50 0.06138
1026.60 0.06136
1026.70 0.06134
1026.80 0.06132
1026.90 0.06129
1027.00 0.06127
1027.10 0.06125
1027.20 0.06122
1027.30 0.0612
1027.40 0.06118
1027.50 0.06116
1027.60 0.06113
1027.70 0.06111
1027.80 0.06109
1027.90 0.06106
1028.00 0.06104
1028.10 0.06102
1028.20 0.061
1028.30 0.06097
1028.40 0.06095
1028.50 0.06093
1028.60 0.06091
1028.70 0.06088
1028.80 0.06086
1028.90 0.06084
1029.00 0.06081
1029.10 0.06079
1029.20 0.06077
1029.30 0.06075
1029.40 0.06072
1029.50 0.0607
1029.60 0.06068
1029.70 0.06066
1029.80 0.06063
1029.90 0.06061
1030.00 0.06059
1030.10 0.06057
1030.20 0.06054
1030.30 0.06052
1030.40 0.0605
1030.50 0.06048
1030.60 0.06045
1030.70 0.06043
1030.80 0.06041
1030.90 0.06039
1031.00 0.06036
1031.10 0.06034
1031.20 0.06032
1031.30 0.0603
1031.40 0.06027
1031.50 0.06025
1031.60 0.06023
1031.70 0.06021
1031.80 0.06018
1031.90 0.06016
1032.00 0.06014
1032.10 0.06012
1032.20 0.06009
1032.30 0.06007
1032.40 0.06005
1032.50 0.06003
1032.60 0.06
1032.70 0.05998
1032.80 0.05996
1032.90 0.05994
1033.00 0.05991
1033.10 0.05989
1033.20 0.05987
1033.30 0.05985
1033.40 0.05983
1033.50 0.0598
1033.60 0.05978
1033.70 0.05976
1033.80 0.05974
1033.90 0.05971
1034.00 0.05969
1034.10 0.05967
1034.20 0.05965
1034.30 0.05962
1034.40 0.0596
1034.50 0.05958
1034.60 0.05956
1034.70 0.05954
1034.80 0.05951
1034.90 0.05949
1035.00 0.05947
1035.10 0.05945
1035.20 0.05942
1035.30 0.0594
1035.40 0.05938
1035.50 0.05936
1035.60 0.05934
1035.70 0.05931
1035.80 0.05929
1035.90 0.05927
1036.00 0.05925
1036.10 0.05922
1036.20 0.0592
1036.30 0.05918
1036.40 0.05916
1036.50 0.05914
1036.60 0.05911
1036.70 0.05909
1036.80 0.05907
1036.90 0.05905
1037.00 0.05903
1037.10 0.059
1037.20 0.05898
1037.30 0.05896
1037.40 0.05894
1037.50 0.05892
1037.60 0.05889
1037.70 0.05887
1037.80 0.05885
1037.90 0.05883
1038.00 0.05881
1038.10 0.05878
1038.20 0.05876
1038.30 0.05874
1038.40 0.05872
1038.50 0.0587
1038.60 0.05867
1038.70 0.05865
1038.80 0.05863
1038.90 0.05861
1039.00 0.05859
1039.10 0.05856
1039.20 0.05854
1039.30 0.05852
1039.40 0.0585
1039.50 0.05848
1039.60 0.05845
1039.70 0.05843
1039.80 0.05841
1039.90 0.05839
1040.00 0.05837
1040.10 0.05835
1040.20 0.05832
1040.30 0.0583
1040.40 0.05828
1040.50 0.05826
1040.60 0.05824
1040.70 0.05821
1040.80 0.05819
1040.90 0.05817
1041.00 0.05815
1041.10 0.05813
1041.20 0.05811
1041.30 0.05808
1041.40 0.05806
1041.50 0.05804
1041.60 0.05802
1041.70 0.058
1041.80 0.05798
1041.90 0.05795
1042.00 0.05793
1042.10 0.05791
1042.20 0.05789
1042.30 0.05787
1042.40 0.05785
1042.50 0.05782
1042.60 0.0578
1042.70 0.05778
1042.80 0.05776
1042.90 0.05774
1043.00 0.05772
1043.10 0.05769
1043.20 0.05767
1043.30 0.05765
1043.40 0.05763
1043.50 0.05761
1043.60 0.05759
1043.70 0.05756
1043.80 0.05754
1043.90 0.05752
1044.00 0.0575
1044.10 0.05748
1044.20 0.05746
1044.30 0.05744
1044.40 0.05741
1044.50 0.05739
1044.60 0.05737
1044.70 0.05735
1044.80 0.05733
1044.90 0.05731
1045.00 0.05729
1045.10 0.05726
1045.20 0.05724
1045.30 0.05722
1045.40 0.0572
1045.50 0.05718
1045.60 0.05716
1045.70 0.05714
1045.80 0.05711
1045.90 0.05709
1046.00 0.05707
1046.10 0.05705
1046.20 0.05703
1046.30 0.05701
1046.40 0.05699
1046.50 0.05696
1046.60 0.05694
1046.70 0.05692
1046.80 0.0569
1046.90 0.05688
1047.00 0.05686
1047.10 0.05684
1047.20 0.05681
1047.30 0.05679
1047.40 0.05677
1047.50 0.05675
1047.60 0.05673
1047.70 0.05671
1047.80 0.05669
1047.90 0.05667
1048.00 0.05664
1048.10 0.05662
1048.20 0.0566
1048.30 0.05658
1048.40 0.05656
1048.50 0.05654
1048.60 0.05652
1048.70 0.0565
1048.80 0.05648
1048.90 0.05645
1049.00 0.05643
1049.10 0.05641
1049.20 0.05639
1049.30 0.05637
1049.40 0.05635
1049.50 0.05633
1049.60 0.05631
1049.70 0.05629
1049.80 0.05626
1049.90 0.05624
1050.00 0.05622
1050.10 0.0562
1050.20 0.05618
1050.30 0.05616
1050.40 0.05614
1050.50 0.05612
1050.60 0.0561
1050.70 0.05607
1050.80 0.05605
1050.90 0.05603
1051.00 0.05601
1051.10 0.05599
1051.20 0.05597
1051.30 0.05595
1051.40 0.05593
1051.50 0.05591
1051.60 0.05589
1051.70 0.05586
1051.80 0.05584
1051.90 0.05582
1052.00 0.0558
1052.10 0.05578
1052.20 0.05576
1052.30 0.05574
1052.40 0.05572
1052.50 0.0557
1052.60 0.05568
1052.70 0.05566
1052.80 0.05563
1052.90 0.05561
1053.00 0.05559
1053.10 0.05557
1053.20 0.05555
1053.30 0.05553
1053.40 0.05551
1053.50 0.05549
1053.60 0.05547
1053.70 0.05545
1053.80 0.05543
1053.90 0.05541
1054.00 0.05538
1054.10 0.05536
1054.20 0.05534
1054.30 0.05532
1054.40 0.0553
1054.50 0.05528
1054.60 0.05526
1054.70 0.05524
1054.80 0.05522
1054.90 0.0552
1055.00 0.05518
1055.10 0.05516
1055.20 0.05514
1055.30 0.05511
1055.40 0.05509
1055.50 0.05507
1055.60 0.05505
1055.70 0.05503
1055.80 0.05501
1055.90 0.05499
1056.00 0.05497
1056.10 0.05495
1056.20 0.05493
1056.30 0.05491
1056.40 0.05489
1056.50 0.05487
1056.60 0.05485
1056.70 0.05483
1056.80 0.0548
1056.90 0.05478
1057.00 0.05476
1057.10 0.05474
1057.20 0.05472
1057.30 0.0547
1057.40 0.05468
1057.50 0.05466
1057.60 0.05464
1057.70 0.05462
1057.80 0.0546
1057.90 0.05458
1058.00 0.05456
1058.10 0.05454
1058.20 0.05452
1058.30 0.0545
1058.40 0.05448
1058.50 0.05446
1058.60 0.05443
1058.70 0.05441
1058.80 0.05439
1058.90 0.05437
1059.00 0.05435
1059.10 0.05433
1059.20 0.05431
1059.30 0.05429
1059.40 0.05427
1059.50 0.05425
1059.60 0.05423
1059.70 0.05421
1059.80 0.05419
1059.90 0.05417
1060.00 0.05415
1060.10 0.05413
1060.20 0.05411
1060.30 0.05409
1060.40 0.05407
1060.50 0.05405
1060.60 0.05403
1060.70 0.05401
1060.80 0.05399
1060.90 0.05396
1061.00 0.05394
1061.10 0.05392
1061.20 0.0539
1061.30 0.05388
1061.40 0.05386
1061.50 0.05384
1061.60 0.05382
1061.70 0.0538
1061.80 0.05378
1061.90 0.05376
1062.00 0.05374
1062.10 0.05372
1062.20 0.0537
1062.30 0.05368
1062.40 0.05366
1062.50 0.05364
1062.60 0.05362
1062.70 0.0536
1062.80 0.05358
1062.90 0.05356
1063.00 0.05354
1063.10 0.05352
1063.20 0.0535
1063.30 0.05348
1063.40 0.05346
1063.50 0.05344
1063.60 0.05342
1063.70 0.0534
1063.80 0.05338
1063.90 0.05336
1064.00 0.05334
1064.10 0.05332
1064.20 0.0533
1064.30 0.05328
1064.40 0.05326
1064.50 0.05323
1064.60 0.05321
1064.70 0.05319
1064.80 0.05317
1064.90 0.05315
1065.00 0.05313
1065.10 0.05311
1065.20 0.05309
1065.30 0.05307
1065.40 0.05305
1065.50 0.05303
1065.60 0.05301
1065.70 0.05299
1065.80 0.05297
1065.90 0.05295
1066.00 0.05293
1066.10 0.05291
1066.20 0.05289
1066.30 0.05287
1066.40 0.05285
1066.50 0.05283
1066.60 0.05281
1066.70 0.05279
1066.80 0.05277
1066.90 0.05275
1067.00 0.05273
1067.10 0.05271
1067.20 0.05269
1067.30 0.05267
1067.40 0.05265
1067.50 0.05263
1067.60 0.05261
1067.70 0.05259
1067.80 0.05257
1067.90 0.05255
1068.00 0.05253
1068.10 0.05251
1068.20 0.05249
1068.30 0.05247
1068.40 0.05245
1068.50 0.05243
1068.60 0.05241
1068.70 0.05239
1068.80 0.05237
1068.90 0.05235
1069.00 0.05233
1069.10 0.05231
1069.20 0.05229
1069.30 0.05227
1069.40 0.05225
1069.50 0.05223
1069.60 0.05221
1069.70 0.05219
1069.80 0.05217
1069.90 0.05215
1070.00 0.05213
1070.10 0.05211
1070.20 0.05209
1070.30 0.05207
1070.40 0.05205
1070.50 0.05203
1070.60 0.05201
1070.70 0.05199
1070.80 0.05197
1070.90 0.05195
1071.00 0.05193
1071.10 0.05191
1071.20 0.05189
1071.30 0.05187
1071.40 0.05185
1071.50 0.05183
1071.60 0.05181
1071.70 0.05179
1071.80 0.05177
1071.90 0.05175
1072.00 0.05173
1072.10 0.05171
1072.20 0.05169
1072.30 0.05167
1072.40 0.05165
1072.50 0.05163
1072.60 0.05161
1072.70 0.05159
1072.80 0.05157
1072.90 0.05155
1073.00 0.05153
1073.10 0.05151
1073.20 0.05149
1073.30 0.05147
1073.40 0.05145
1073.50 0.05144
1073.60 0.05142
1073.70 0.0514
1073.80 0.05138
1073.90 0.05136
1074.00 0.05134
1074.10 0.05132
1074.20 0.0513
1074.30 0.05128
1074.40 0.05126
1074.50 0.05124
1074.60 0.05122
1074.70 0.0512
1074.80 0.05118
1074.90 0.05116
1075.00 0.05114
1075.10 0.05112
1075.20 0.0511
1075.30 0.05108
1075.40 0.05106
1075.50 0.05104
1075.60 0.05102
1075.70 0.051
1075.80 0.05098
1075.90 0.05096
1076.00 0.05094
1076.10 0.05092
1076.20 0.0509
1076.30 0.05088
1076.40 0.05086
1076.50 0.05084
1076.60 0.05082
1076.70 0.0508
1076.80 0.05078
1076.90 0.05076
1077.00 0.05074
1077.10 0.05072
1077.20 0.0507
1077.30 0.05068
1077.40 0.05066
1077.50 0.05064
1077.60 0.05062
1077.70 0.0506
1077.80 0.05058
1077.90 0.05056
1078.00 0.05054
1078.10 0.05052
1078.20 0.0505
1078.30 0.05048
1078.40 0.05046
1078.50 0.05044
1078.60 0.05042
1078.70 0.0504
1078.80 0.05038
1078.90 0.05036
1079.00 0.05034
1079.10 0.05032
1079.20 0.05031
1079.30 0.05029
1079.40 0.05027
1079.50 0.05025
1079.60 0.05023
1079.70 0.05021
1079.80 0.05019
1079.90 0.05017
1080.00 0.05015
1080.10 0.05013
1080.20 0.05011
1080.30 0.05009
1080.40 0.05007
1080.50 0.05005
1080.60 0.05003
1080.70 0.05001
1080.80 0.04999
1080.90 0.04997
1081.00 0.04995
1081.10 0.04993
1081.20 0.04991
1081.30 0.04989
1081.40 0.04987
1081.50 0.04985
1081.60 0.04983
1081.70 0.04981
1081.80 0.04979
1081.90 0.04977
1082.00 0.04975
1082.10 0.04973
1082.20 0.04971
1082.30 0.04969
1082.40 0.04967
1082.50 0.04965
1082.60 0.04963
1082.70 0.04961
1082.80 0.04959
1082.90 0.04958
1083.00 0.04956
1083.10 0.04954
1083.20 0.04952
1083.30 0.0495
1083.40 0.04948
1083.50 0.04946
1083.60 0.04944
1083.70 0.04942
1083.80 0.0494
1083.90 0.04938
1084.00 0.04936
1084.10 0.04934
1084.20 0.04932
1084.30 0.0493
1084.40 0.04928
1084.50 0.04926
1084.60 0.04924
1084.70 0.04922
1084.80 0.0492
1084.90 0.04918
1085.00 0.04916
1085.10 0.04914
1085.20 0.04912
1085.30 0.04911
1085.40 0.04909
1085.50 0.04907
1085.60 0.04905
1085.70 0.04903
1085.80 0.04901
1085.90 0.04899
1086.00 0.04897
1086.10 0.04895
1086.20 0.04893
1086.30 0.04891
1086.40 0.04889
1086.50 0.04887
1086.60 0.04885
1086.70 0.04883
1086.80 0.04881
1086.90 0.04879
1087.00 0.04878
1087.10 0.04876
1087.20 0.04874
1087.30 0.04872
1087.40 0.0487
1087.50 0.04868
1087.60 0.04866
1087.70 0.04864
1087.80 0.04862
1087.90 0.0486
1088.00 0.04858
1088.10 0.04856
1088.20 0.04854
1088.30 0.04853
1088.40 0.04851
1088.50 0.04849
1088.60 0.04847
1088.70 0.04845
1088.80 0.04843
1088.90 0.04841
1089.00 0.04839
1089.10 0.04837
1089.20 0.04835
1089.30 0.04834
1089.40 0.04832
1089.50 0.0483
1089.60 0.04828
1089.70 0.04826
1089.80 0.04824
1089.90 0.04822
1090.00 0.0482
1090.10 0.04818
1090.20 0.04817
1090.30 0.04815
1090.40 0.04813
1090.50 0.04811
1090.60 0.04809
1090.70 0.04807
1090.80 0.04805
1090.90 0.04803
1091.00 0.04802
1091.10 0.048
1091.20 0.04798
1091.30 0.04796
1091.40 0.04794
1091.50 0.04792
1091.60 0.0479
1091.70 0.04789
1091.80 0.04787
1091.90 0.04785
1092.00 0.04783
1092.10 0.04781
1092.20 0.04779
1092.30 0.04777
1092.40 0.04776
1092.50 0.04774
1092.60 0.04772
1092.70 0.0477
1092.80 0.04768
1092.90 0.04767
1093.00 0.04765
1093.10 0.04763
1093.20 0.04762
1093.30 0.0476
1093.40 0.04759
1093.50 0.04757
1093.60 0.04757
1093.70 0.04755
1093.80 0.04754
1093.90 0.04753
1094.00 0.0475
1094.10 0.04748
1094.20 0.04746
1094.30 0.04744
1094.40 0.04742
1094.50 0.04741
1094.60 0.04739
1094.70 0.04737
1094.80 0.04736
1094.90 0.04734
1095.00 0.04732
1095.10 0.04731
1095.20 0.04729
1095.30 0.04728
1095.40 0.04726
1095.50 0.04725
1095.60 0.04723
1095.70 0.04722
1095.80 0.0472
1095.90 0.04718
1096.00 0.04717
1096.10 0.04715
1096.20 0.04714
1096.30 0.04712
1096.40 0.04711
1096.50 0.04709
1096.60 0.04708
1096.70 0.04706
1096.80 0.04705
1096.90 0.04703
1097.00 0.04702
1097.10 0.047
1097.20 0.04699
1097.30 0.04697
1097.40 0.04696
1097.50 0.04694
1097.60 0.04693
1097.70 0.04691
1097.80 0.0469
1097.90 0.04688
1098.00 0.04687
1098.10 0.04685
1098.20 0.04684
1098.30 0.04682
1098.40 0.04681
1098.50 0.04679
1098.60 0.04678
1098.70 0.04676
1098.80 0.04675
1098.90 0.04673
1099.00 0.04672
1099.10 0.0467
1099.20 0.04669
1099.30 0.04667
1099.40 0.04666
1099.50 0.04664
1099.60 0.04663
1099.70 0.04661
1099.80 0.0466
1099.90 0.04658
1100.00 0.04657
1100.10 0.04656
1100.20 0.04654
1100.30 0.04653
1100.40 0.04651
1100.50 0.0465
1100.60 0.04648
1100.70 0.04647
1100.80 0.04645
1100.90 0.04644
1101.00 0.04642
1101.10 0.04641
1101.20 0.04639
1101.30 0.04638
1101.40 0.04636
1101.50 0.04635
1101.60 0.04633
1101.70 0.04632
1101.80 0.04631
1101.90 0.04629
1102.00 0.04628
1102.10 0.04626
1102.20 0.04625
1102.30 0.04623
1102.40 0.04622
1102.50 0.0462
1102.60 0.04619
1102.70 0.04617
1102.80 0.04616
1102.90 0.04615
1103.00 0.04613
1103.10 0.04612
1103.20 0.0461
1103.30 0.04609
1103.40 0.04607
1103.50 0.04606
1103.60 0.04604
1103.70 0.04603
1103.80 0.04601
1103.90 0.046
1104.00 0.04599
1104.10 0.04597
1104.20 0.04596
1104.30 0.04594
1104.40 0.04593
1104.50 0.04591
1104.60 0.0459
1104.70 0.04588
1104.80 0.04587
1104.90 0.04585
1105.00 0.04584
1105.10 0.04583
1105.20 0.04581
1105.30 0.0458
1105.40 0.04578
1105.50 0.04577
1105.60 0.04575
1105.70 0.04574
1105.80 0.04572
1105.90 0.04571
1106.00 0.04569
1106.10 0.04568
1106.20 0.04567
1106.30 0.04565
1106.40 0.04564
1106.50 0.04562
1106.60 0.04561
1106.70 0.04559
1106.80 0.04558
1106.90 0.04556
1107.00 0.04555
1107.10 0.04553
1107.20 0.04552
1107.30 0.04551
1107.40 0.04549
1107.50 0.04548
1107.60 0.04546
1107.70 0.04545
1107.80 0.04543
1107.90 0.04542
1108.00 0.0454
1108.10 0.04539
1108.20 0.04537
1108.30 0.04536
1108.40 0.04534
1108.50 0.04533
1108.60 0.04532
1108.70 0.0453
1108.80 0.04529
1108.90 0.04527
1109.00 0.04526
1109.10 0.04524
1109.20 0.04523
1109.30 0.04521
1109.40 0.0452
1109.50 0.04518
1109.60 0.04517
1109.70 0.04516
1109.80 0.04514
1109.90 0.04513
1110.00 0.04511
1110.10 0.0451
1110.20 0.04508
1110.30 0.04507
1110.40 0.04505
1110.50 0.04504
1110.60 0.04502
1110.70 0.04501
1110.80 0.04499
1110.90 0.04498
1111.00 0.04497
1111.10 0.04495
1111.20 0.04494
1111.30 0.04492
1111.40 0.04491
1111.50 0.04489
1111.60 0.04488
1111.70 0.04486
1111.80 0.04485
1111.90 0.04483
1112.00 0.04482
1112.10 0.0448
1112.20 0.04479
1112.30 0.04478
1112.40 0.04476
1112.50 0.04475
1112.60 0.04473
1112.70 0.04472
1112.80 0.0447
1112.90 0.04469
1113.00 0.04467
1113.10 0.04466
1113.20 0.04464
1113.30 0.04463
1113.40 0.04461
1113.50 0.0446
1113.60 0.04459
1113.70 0.04457
1113.80 0.04456
1113.90 0.04454
1114.00 0.04453
1114.10 0.04451
1114.20 0.0445
1114.30 0.04448
1114.40 0.04447
1114.50 0.04445
1114.60 0.04444
1114.70 0.04442
1114.80 0.04441
1114.90 0.04439
1115.00 0.04438
1115.10 0.04436
1115.20 0.04435
1115.30 0.04434
1115.40 0.04432
1115.50 0.04431
1115.60 0.04429
1115.70 0.04428
1115.80 0.04426
1115.90 0.04425
1116.00 0.04423
1116.10 0.04422
1116.20 0.0442
1116.30 0.04419
1116.40 0.04417
1116.50 0.04416
1116.60 0.04415
1116.70 0.04413
1116.80 0.04412
1116.90 0.0441
1117.00 0.04409
1117.10 0.04407
1117.20 0.04406
1117.30 0.04404
1117.40 0.04403
1117.50 0.04401
1117.60 0.044
1117.70 0.04398
1117.80 0.04397
1117.90 0.04395
1118.00 0.04394
1118.10 0.04393
1118.20 0.04391
1118.30 0.0439
1118.40 0.04388
1118.50 0.04387
1118.60 0.04385
1118.70 0.04384
1118.80 0.04382
1118.90 0.04381
1119.00 0.04379
1119.10 0.04378
1119.20 0.04376
1119.30 0.04375
1119.40 0.04373
1119.50 0.04372
1119.60 0.04371
1119.70 0.04369
1119.80 0.04368
1119.90 0.04366
1120.00 0.04365
1120.10 0.04363
1120.20 0.04362
1120.30 0.0436
1120.40 0.04359
1120.50 0.04357
1120.60 0.04356
1120.70 0.04354
1120.80 0.04353
1120.90 0.04352
1121.00 0.0435
1121.10 0.04349
1121.20 0.04347
1121.30 0.04346
1121.40 0.04344
1121.50 0.04343
1121.60 0.04341
1121.70 0.0434
1121.80 0.04338
1121.90 0.04337
1122.00 0.04336
1122.10 0.04334
1122.20 0.04333
1122.30 0.04331
1122.40 0.0433
1122.50 0.04328
1122.60 0.04327
1122.70 0.04325
1122.80 0.04324
1122.90 0.04322
1123.00 0.04321
1123.10 0.04319
1123.20 0.04318
1123.30 0.04317
1123.40 0.04315
1123.50 0.04314
1123.60 0.04312
1123.70 0.04311
1123.80 0.04309
1123.90 0.04308
1124.00 0.04306
1124.10 0.04305
1124.20 0.04303
1124.30 0.04302
1124.40 0.04301
1124.50 0.04299
1124.60 0.04298
1124.70 0.04296
1124.80 0.04295
1124.90 0.04293
1125.00 0.04292
1125.10 0.0429
1125.20 0.04289
1125.30 0.04287
1125.40 0.04286
1125.50 0.04285
1125.60 0.04283
1125.70 0.04282
1125.80 0.0428
1125.90 0.04279
1126.00 0.04277
1126.10 0.04276
1126.20 0.04274
1126.30 0.04273
1126.40 0.04272
1126.50 0.0427
1126.60 0.04269
1126.70 0.04267
1126.80 0.04266
1126.90 0.04264
1127.00 0.04263
1127.10 0.04261
1127.20 0.0426
1127.30 0.04259
1127.40 0.04257
1127.50 0.04256
1127.60 0.04254
1127.70 0.04253
1127.80 0.04251
1127.90 0.0425
1128.00 0.04248
1128.10 0.04247
1128.20 0.04246
1128.30 0.04244
1128.40 0.04243
1128.50 0.04241
1128.60 0.0424
1128.70 0.04238
1128.80 0.04237
1128.90 0.04236
1129.00 0.04234
1129.10 0.04233
1129.20 0.04231
1129.30 0.0423
1129.40 0.04228
1129.50 0.04227
1129.60 0.04225
1129.70 0.04224
1129.80 0.04223
1129.90 0.04221
1130.00 0.0422
1130.10 0.04218
1130.20 0.04217
1130.30 0.04215
1130.40 0.04214
1130.50 0.04213
1130.60 0.04211
1130.70 0.0421
1130.80 0.04208
1130.90 0.04207
1131.00 0.04205
1131.10 0.04204
1131.20 0.04203
1131.30 0.04201
1131.40 0.042
1131.50 0.04198
1131.60 0.04197
1131.70 0.04195
1131.80 0.04194
1131.90 0.04193
1132.00 0.04191
1132.10 0.0419
1132.20 0.04188
1132.30 0.04187
1132.40 0.04185
1132.50 0.04184
1132.60 0.04183
1132.70 0.04181
1132.80 0.0418
1132.90 0.04178
1133.00 0.04177
1133.10 0.04175
1133.20 0.04174
1133.30 0.04173
1133.40 0.04171
1133.50 0.0417
1133.60 0.04168
1133.70 0.04167
1133.80 0.04166
1133.90 0.04164
1134.00 0.04163
1134.10 0.04161
1134.20 0.0416
1134.30 0.04158
1134.40 0.04157
1134.50 0.04156
1134.60 0.04154
1134.70 0.04153
1134.80 0.04151
1134.90 0.0415
1135.00 0.04149
1135.10 0.04147
1135.20 0.04146
1135.30 0.04144
1135.40 0.04143
1135.50 0.04142
1135.60 0.0414
1135.70 0.04139
1135.80 0.04137
1135.90 0.04136
1136.00 0.04134
1136.10 0.04133
1136.20 0.04132
1136.30 0.0413
1136.40 0.04129
1136.50 0.04127
1136.60 0.04126
1136.70 0.04125
1136.80 0.04123
1136.90 0.04122
1137.00 0.0412
1137.10 0.04119
1137.20 0.04118
1137.30 0.04116
1137.40 0.04115
1137.50 0.04113
1137.60 0.04112
1137.70 0.04111
1137.80 0.04109
1137.90 0.04108
1138.00 0.04106
1138.10 0.04105
1138.20 0.04104
1138.30 0.04102
1138.40 0.04101
1138.50 0.04099
1138.60 0.04098
1138.70 0.04097
1138.80 0.04095
1138.90 0.04094
1139.00 0.04092
1139.10 0.04091
1139.20 0.0409
1139.30 0.04088
1139.40 0.04087
1139.50 0.04085
1139.60 0.04084
1139.70 0.04083
1139.80 0.04081
1139.90 0.0408
1140.00 0.04079
1140.10 0.04077
1140.20 0.04076
1140.30 0.04074
1140.40 0.04073
1140.50 0.04072
1140.60 0.0407
1140.70 0.04069
1140.80 0.04067
1140.90 0.04066
1141.00 0.04065
1141.10 0.04063
1141.20 0.04062
1141.30 0.04061
1141.40 0.04059
1141.50 0.04058
1141.60 0.04056
1141.70 0.04055
1141.80 0.04054
1141.90 0.04052
1142.00 0.04051
1142.10 0.04049
1142.20 0.04048
1142.30 0.04047
1142.40 0.04045
1142.50 0.04044
1142.60 0.04043
1142.70 0.04041
1142.80 0.0404
1142.90 0.04038
1143.00 0.04037
1143.10 0.04036
1143.20 0.04034
1143.30 0.04033
1143.40 0.04032
1143.50 0.0403
1143.60 0.04029
1143.70 0.04028
1143.80 0.04026
1143.90 0.04025
1144.00 0.04023
1144.10 0.04022
1144.20 0.04021
1144.30 0.04019
1144.40 0.04018
1144.50 0.04017
1144.60 0.04015
1144.70 0.04014
1144.80 0.04012
1144.90 0.04011
1145.00 0.0401
1145.10 0.04008
1145.20 0.04007
1145.30 0.04006
1145.40 0.04004
1145.50 0.04003
1145.60 0.04002
1145.70 0.04
1145.80 0.03999
1145.90 0.03997
1146.00 0.03996
1146.10 0.03995
1146.20 0.03993
1146.30 0.03992
1146.40 0.03991
1146.50 0.03989
1146.60 0.03988
1146.70 0.03987
1146.80 0.03985
1146.90 0.03984
1147.00 0.03983
1147.10 0.03981
1147.20 0.0398
1147.30 0.03979
1147.40 0.03977
1147.50 0.03976
1147.60 0.03974
1147.70 0.03973
1147.80 0.03972
1147.90 0.0397
1148.00 0.03969
1148.10 0.03968
1148.20 0.03966
1148.30 0.03965
1148.40 0.03964
1148.50 0.03962
1148.60 0.03961
1148.70 0.0396
1148.80 0.03958
1148.90 0.03957
1149.00 0.03956
1149.10 0.03954
1149.20 0.03953
1149.30 0.03952
1149.40 0.0395
1149.50 0.03949
1149.60 0.03948
1149.70 0.03946
1149.80 0.03945
1149.90 0.03944
1150.00 0.03942
1150.10 0.03941
1150.20 0.0394
1150.30 0.03938
1150.40 0.03937
1150.50 0.03936
1150.60 0.03934
1150.70 0.03933
1150.80 0.03932
1150.90 0.0393
1151.00 0.03929
1151.10 0.03928
1151.20 0.03926
1151.30 0.03925
1151.40 0.03924
1151.50 0.03922
1151.60 0.03921
1151.70 0.0392
1151.80 0.03918
1151.90 0.03917
1152.00 0.03916
1152.10 0.03914
1152.20 0.03913
1152.30 0.03912
1152.40 0.0391
1152.50 0.03909
1152.60 0.03908
1152.70 0.03906
1152.80 0.03905
1152.90 0.03904
1153.00 0.03902
1153.10 0.03901
1153.20 0.039
1153.30 0.03898
1153.40 0.03897
1153.50 0.03896
1153.60 0.03894
1153.70 0.03893
1153.80 0.03892
1153.90 0.0389
1154.00 0.03889
1154.10 0.03888
1154.20 0.03887
1154.30 0.03885
1154.40 0.03884
1154.50 0.03883
1154.60 0.03881
1154.70 0.0388
1154.80 0.03879
1154.90 0.03877
1155.00 0.03876
1155.10 0.03875
1155.20 0.03873
1155.30 0.03872
1155.40 0.03871
1155.50 0.03869
1155.60 0.03868
1155.70 0.03867
1155.80 0.03866
1155.90 0.03864
1156.00 0.03863
1156.10 0.03862
1156.20 0.0386
1156.30 0.03859
1156.40 0.03858
1156.50 0.03856
1156.60 0.03855
1156.70 0.03854
1156.80 0.03852
1156.90 0.03851
1157.00 0.0385
1157.10 0.03849
1157.20 0.03847
1157.30 0.03846
1157.40 0.03845
1157.50 0.03843
1157.60 0.03842
1157.70 0.03841
1157.80 0.03839
1157.90 0.03838
1158.00 0.03837
1158.10 0.03836
1158.20 0.03834
1158.30 0.03833
1158.40 0.03832
1158.50 0.0383
1158.60 0.03829
1158.70 0.03828
1158.80 0.03827
1158.90 0.03825
1159.00 0.03824
1159.10 0.03823
1159.20 0.03821
1159.30 0.0382
1159.40 0.03819
1159.50 0.03818
1159.60 0.03816
1159.70 0.03815
1159.80 0.03814
1159.90 0.03812
1160.00 0.03811
1160.10 0.0381
1160.20 0.03809
1160.30 0.03807
1160.40 0.03806
1160.50 0.03805
1160.60 0.03803
1160.70 0.03802
1160.80 0.03801
1160.90 0.038
1161.00 0.03798
1161.10 0.03797
1161.20 0.03796
1161.30 0.03794
1161.40 0.03793
1161.50 0.03792
1161.60 0.03791
1161.70 0.03789
1161.80 0.03788
1161.90 0.03787
1162.00 0.03785
1162.10 0.03784
1162.20 0.03783
1162.30 0.03782
1162.40 0.0378
1162.50 0.03779
1162.60 0.03778
1162.70 0.03777
1162.80 0.03775
1162.90 0.03774
1163.00 0.03773
1163.10 0.03771
1163.20 0.0377
1163.30 0.03769
1163.40 0.03768
1163.50 0.03766
1163.60 0.03765
1163.70 0.03764
1163.80 0.03763
1163.90 0.03761
1164.00 0.0376
1164.10 0.03759
1164.20 0.03758
1164.30 0.03756
1164.40 0.03755
1164.50 0.03754
1164.60 0.03752
1164.70 0.03751
1164.80 0.0375
1164.90 0.03749
1165.00 0.03747
1165.10 0.03746
1165.20 0.03745
1165.30 0.03744
1165.40 0.03742
1165.50 0.03741
1165.60 0.0374
1165.70 0.03739
1165.80 0.03737
1165.90 0.03736
1166.00 0.03735
1166.10 0.03734
1166.20 0.03732
1166.30 0.03731
1166.40 0.0373
1166.50 0.03729
1166.60 0.03727
1166.70 0.03726
1166.80 0.03725
1166.90 0.03724
1167.00 0.03722
1167.10 0.03721
1167.20 0.0372
1167.30 0.03719
1167.40 0.03717
1167.50 0.03716
1167.60 0.03715
1167.70 0.03714
1167.80 0.03712
1167.90 0.03711
1168.00 0.0371
1168.10 0.03709
1168.20 0.03707
1168.30 0.03706
1168.40 0.03705
1168.50 0.03704
1168.60 0.03702
1168.70 0.03701
1168.80 0.037
1168.90 0.03699
1169.00 0.03697
1169.10 0.03696
1169.20 0.03695
1169.30 0.03694
1169.40 0.03693
1169.50 0.03691
1169.60 0.0369
1169.70 0.03689
1169.80 0.03688
1169.90 0.03686
1170.00 0.03685
1170.10 0.03684
1170.20 0.03683
1170.30 0.03681
1170.40 0.0368
1170.50 0.03679
1170.60 0.03678
1170.70 0.03676
1170.80 0.03675
1170.90 0.03674
1171.00 0.03673
1171.10 0.03672
1171.20 0.0367
1171.30 0.03669
1171.40 0.03668
1171.50 0.03667
1171.60 0.03665
1171.70 0.03664
1171.80 0.03663
1171.90 0.03662
1172.00 0.0366
1172.10 0.03659
1172.20 0.03658
1172.30 0.03657
1172.40 0.03656
1172.50 0.03654
1172.60 0.03653
1172.70 0.03652
1172.80 0.03651
1172.90 0.03649
1173.00 0.03648
1173.10 0.03647
1173.20 0.03646
1173.30 0.03645
1173.40 0.03643
1173.50 0.03642
1173.60 0.03641
1173.70 0.0364
1173.80 0.03639
1173.90 0.03637
1174.00 0.03636
1174.10 0.03635
1174.20 0.03634
1174.30 0.03632
1174.40 0.03631
1174.50 0.0363
1174.60 0.03629
1174.70 0.03628
1174.80 0.03626
1174.90 0.03625
1175.00 0.03624
1175.10 0.03623
1175.20 0.03622
1175.30 0.0362
1175.40 0.03619
1175.50 0.03618
1175.60 0.03617
1175.70 0.03616
1175.80 0.03614
1175.90 0.03613
1176.00 0.03612
1176.10 0.03611
1176.20 0.03609
1176.30 0.03608
1176.40 0.03607
1176.50 0.03606
1176.60 0.03605
1176.70 0.03603
1176.80 0.03602
1176.90 0.03601
1177.00 0.036
1177.10 0.03599
1177.20 0.03597
1177.30 0.03596
1177.40 0.03595
1177.50 0.03594
1177.60 0.03593
1177.70 0.03591
1177.80 0.0359
1177.90 0.03589
1178.00 0.03588
1178.10 0.03587
1178.20 0.03586
1178.30 0.03584
1178.40 0.03583
1178.50 0.03582
1178.60 0.03581
1178.70 0.0358
1178.80 0.03578
1178.90 0.03577
1179.00 0.03576
1179.10 0.03575
1179.20 0.03574
1179.30 0.03572
1179.40 0.03571
1179.50 0.0357
1179.60 0.03569
1179.70 0.03568
1179.80 0.03567
1179.90 0.03565
1180.00 0.03564
1180.10 0.03563
1180.20 0.03562
1180.30 0.03561
1180.40 0.03559
1180.50 0.03558
1180.60 0.03557
1180.70 0.03556
1180.80 0.03555
1180.90 0.03553
1181.00 0.03552
1181.10 0.03551
1181.20 0.0355
1181.30 0.03549
1181.40 0.03548
1181.50 0.03546
1181.60 0.03545
1181.70 0.03544
1181.80 0.03543
1181.90 0.03542
1182.00 0.0354
1182.10 0.03539
1182.20 0.03538
1182.30 0.03537
1182.40 0.03536
1182.50 0.03535
1182.60 0.03533
1182.70 0.03532
1182.80 0.03531
1182.90 0.0353
1183.00 0.03529
1183.10 0.03528
1183.20 0.03526
1183.30 0.03525
1183.40 0.03524
1183.50 0.03523
1183.60 0.03522
1183.70 0.03521
1183.80 0.03519
1183.90 0.03518
1184.00 0.03517
1184.10 0.03516
1184.20 0.03515
1184.30 0.03514
1184.40 0.03512
1184.50 0.03511
1184.60 0.0351
1184.70 0.03509
1184.80 0.03508
1184.90 0.03507
1185.00 0.03505
1185.10 0.03504
1185.20 0.03503
1185.30 0.03502
1185.40 0.03501
1185.50 0.035
1185.60 0.03498
1185.70 0.03497
1185.80 0.03496
1185.90 0.03495
1186.00 0.03494
1186.10 0.03493
1186.20 0.03492
1186.30 0.0349
1186.40 0.03489
1186.50 0.03488
1186.60 0.03487
1186.70 0.03486
1186.80 0.03485
1186.90 0.03483
1187.00 0.03482
1187.10 0.03481
1187.20 0.0348
1187.30 0.03479
1187.40 0.03478
1187.50 0.03477
1187.60 0.03475
1187.70 0.03474
1187.80 0.03473
1187.90 0.03472
1188.00 0.03471
1188.10 0.0347
1188.20 0.03469
1188.30 0.03467
1188.40 0.03466
1188.50 0.03465
1188.60 0.03464
1188.70 0.03463
1188.80 0.03462
1188.90 0.03461
1189.00 0.03459
1189.10 0.03458
1189.20 0.03457
1189.30 0.03456
1189.40 0.03455
1189.50 0.03454
1189.60 0.03453
1189.70 0.03451
1189.80 0.0345
1189.90 0.03449
1190.00 0.03448
1190.10 0.03447
1190.20 0.03446
1190.30 0.03445
1190.40 0.03443
1190.50 0.03442
1190.60 0.03441
1190.70 0.0344
1190.80 0.03439
1190.90 0.03438
1191.00 0.03437
1191.10 0.03435
1191.20 0.03434
1191.30 0.03433
1191.40 0.03432
1191.50 0.03431
1191.60 0.0343
1191.70 0.03429
1191.80 0.03428
1191.90 0.03426
1192.00 0.03425
1192.10 0.03424
1192.20 0.03423
1192.30 0.03422
1192.40 0.03421
1192.50 0.0342
1192.60 0.03419
1192.70 0.03417
1192.80 0.03416
1192.90 0.03415
1193.00 0.03414
1193.10 0.03413
1193.20 0.03412
1193.30 0.03411
1193.40 0.0341
1193.50 0.03408
1193.60 0.03407
1193.70 0.03406
1193.80 0.03405
1193.90 0.03404
1194.00 0.03403
1194.10 0.03402
1194.20 0.03401
1194.30 0.03399
1194.40 0.03398
1194.50 0.03397
1194.60 0.03396
1194.70 0.03395
1194.80 0.03394
1194.90 0.03393
1195.00 0.03392
1195.10 0.03391
1195.20 0.03389
1195.30 0.03388
1195.40 0.03387
1195.50 0.03386
1195.60 0.03385
1195.70 0.03384
1195.80 0.03383
1195.90 0.03382
1196.00 0.0338
1196.10 0.03379
1196.20 0.03378
1196.30 0.03377
1196.40 0.03376
1196.50 0.03375
1196.60 0.03374
1196.70 0.03373
1196.80 0.03372
1196.90 0.0337
1197.00 0.03369
1197.10 0.03368
1197.20 0.03367
1197.30 0.03366
1197.40 0.03365
1197.50 0.03364
1197.60 0.03363
1197.70 0.03362
1197.80 0.03361
1197.90 0.03359
1198.00 0.03358
1198.10 0.03357
1198.20 0.03356
1198.30 0.03355
1198.40 0.03354
1198.50 0.03353
1198.60 0.03352
1198.70 0.03351
1198.80 0.0335
1198.90 0.03348
1199.00 0.03347
1199.10 0.03346
1199.20 0.03345
1199.30 0.03344
1199.40 0.03343
1199.50 0.03342
1199.60 0.03341
1199.70 0.0334
1199.80 0.03339
1199.90 0.03337
1200.00 0
