# Version 2.1 - nm, norm@500 to 1, cut digits, bergeron_110000_70.dat_110000
# Wavelength(nm)  Flambda(ergs/cm^s/s/nm)
300.00 6.893
300.10 6.884
300.20 6.875
300.30 6.867
300.40 6.858
300.50 6.849
300.60 6.841
300.70 6.832
300.80 6.824
300.90 6.815
301.00 6.807
301.10 6.798
301.20 6.789
301.30 6.781
301.40 6.772
301.50 6.764
301.60 6.755
301.70 6.747
301.80 6.739
301.90 6.73
302.00 6.722
302.10 6.713
302.20 6.705
302.30 6.696
302.40 6.688
302.50 6.68
302.60 6.671
302.70 6.663
302.80 6.655
302.90 6.646
303.00 6.638
303.10 6.63
303.20 6.622
303.30 6.613
303.40 6.605
303.50 6.597
303.60 6.589
303.70 6.58
303.80 6.572
303.90 6.564
304.00 6.556
304.10 6.548
304.20 6.54
304.30 6.531
304.40 6.523
304.50 6.515
304.60 6.507
304.70 6.499
304.80 6.491
304.90 6.483
305.00 6.475
305.10 6.467
305.20 6.459
305.30 6.451
305.40 6.443
305.50 6.435
305.60 6.427
305.70 6.419
305.80 6.411
305.90 6.403
306.00 6.395
306.10 6.387
306.20 6.379
306.30 6.372
306.40 6.364
306.50 6.356
306.60 6.348
306.70 6.34
306.80 6.332
306.90 6.325
307.00 6.317
307.10 6.309
307.20 6.301
307.30 6.293
307.40 6.286
307.50 6.278
307.60 6.27
307.70 6.263
307.80 6.255
307.90 6.247
308.00 6.239
308.10 6.232
308.20 6.224
308.30 6.217
308.40 6.209
308.50 6.201
308.60 6.194
308.70 6.186
308.80 6.179
308.90 6.171
309.00 6.163
309.10 6.156
309.20 6.148
309.30 6.141
309.40 6.133
309.50 6.126
309.60 6.118
309.70 6.111
309.80 6.103
309.90 6.096
310.00 6.088
310.10 6.081
310.20 6.074
310.30 6.066
310.40 6.059
310.50 6.051
310.60 6.044
310.70 6.037
310.80 6.029
310.90 6.022
311.00 6.015
311.10 6.007
311.20 6
311.30 5.993
311.40 5.985
311.50 5.978
311.60 5.971
311.70 5.964
311.80 5.956
311.90 5.949
312.00 5.942
312.10 5.935
312.20 5.928
312.30 5.92
312.40 5.913
312.50 5.906
312.60 5.899
312.70 5.892
312.80 5.885
312.90 5.877
313.00 5.87
313.10 5.863
313.20 5.856
313.30 5.849
313.40 5.842
313.50 5.835
313.60 5.828
313.70 5.821
313.80 5.814
313.90 5.807
314.00 5.8
314.10 5.793
314.20 5.786
314.30 5.779
314.40 5.772
314.50 5.765
314.60 5.758
314.70 5.751
314.80 5.744
314.90 5.737
315.00 5.73
315.10 5.723
315.20 5.717
315.30 5.71
315.40 5.703
315.50 5.696
315.60 5.689
315.70 5.682
315.80 5.676
315.90 5.669
316.00 5.662
316.10 5.655
316.20 5.648
316.30 5.642
316.40 5.635
316.50 5.628
316.60 5.621
316.70 5.615
316.80 5.608
316.90 5.601
317.00 5.595
317.10 5.588
317.20 5.581
317.30 5.575
317.40 5.568
317.50 5.561
317.60 5.555
317.70 5.548
317.80 5.541
317.90 5.535
318.00 5.528
318.10 5.522
318.20 5.515
318.30 5.508
318.40 5.502
318.50 5.495
318.60 5.489
318.70 5.482
318.80 5.476
318.90 5.469
319.00 5.463
319.10 5.456
319.20 5.45
319.30 5.443
319.40 5.437
319.50 5.43
319.60 5.424
319.70 5.418
319.80 5.411
319.90 5.405
320.00 5.398
320.10 5.392
320.20 5.386
320.30 5.379
320.40 5.373
320.50 5.366
320.60 5.36
320.70 5.354
320.80 5.347
320.90 5.341
321.00 5.335
321.10 5.329
321.20 5.322
321.30 5.316
321.40 5.31
321.50 5.303
321.60 5.297
321.70 5.291
321.80 5.285
321.90 5.279
322.00 5.272
322.10 5.266
322.20 5.26
322.30 5.254
322.40 5.248
322.50 5.241
322.60 5.235
322.70 5.229
322.80 5.223
322.90 5.217
323.00 5.211
323.10 5.205
323.20 5.198
323.30 5.192
323.40 5.186
323.50 5.18
323.60 5.174
323.70 5.168
323.80 5.162
323.90 5.156
324.00 5.15
324.10 5.144
324.20 5.138
324.30 5.132
324.40 5.126
324.50 5.12
324.60 5.114
324.70 5.108
324.80 5.102
324.90 5.096
325.00 5.09
325.10 5.084
325.20 5.078
325.30 5.072
325.40 5.066
325.50 5.06
325.60 5.055
325.70 5.049
325.80 5.043
325.90 5.037
326.00 5.031
326.10 5.025
326.20 5.019
326.30 5.014
326.40 5.008
326.50 5.002
326.60 4.996
326.70 4.99
326.80 4.984
326.90 4.979
327.00 4.973
327.10 4.967
327.20 4.961
327.30 4.956
327.40 4.95
327.50 4.944
327.60 4.938
327.70 4.933
327.80 4.927
327.90 4.921
328.00 4.916
328.10 4.91
328.20 4.904
328.30 4.899
328.40 4.893
328.50 4.887
328.60 4.882
328.70 4.876
328.80 4.87
328.90 4.865
329.00 4.859
329.10 4.854
329.20 4.848
329.30 4.842
329.40 4.837
329.50 4.831
329.60 4.826
329.70 4.82
329.80 4.815
329.90 4.809
330.00 4.804
330.10 4.798
330.20 4.793
330.30 4.787
330.40 4.782
330.50 4.776
330.60 4.771
330.70 4.765
330.80 4.76
330.90 4.754
331.00 4.749
331.10 4.743
331.20 4.738
331.30 4.732
331.40 4.727
331.50 4.722
331.60 4.716
331.70 4.711
331.80 4.705
331.90 4.7
332.00 4.695
332.10 4.689
332.20 4.684
332.30 4.679
332.40 4.673
332.50 4.668
332.60 4.663
332.70 4.657
332.80 4.652
332.90 4.647
333.00 4.641
333.10 4.636
333.20 4.631
333.30 4.626
333.40 4.62
333.50 4.615
333.60 4.61
333.70 4.604
333.80 4.599
333.90 4.594
334.00 4.589
334.10 4.584
334.20 4.578
334.30 4.573
334.40 4.568
334.50 4.563
334.60 4.558
334.70 4.552
334.80 4.547
334.90 4.542
335.00 4.537
335.10 4.532
335.20 4.527
335.30 4.522
335.40 4.516
335.50 4.511
335.60 4.506
335.70 4.501
335.80 4.496
335.90 4.491
336.00 4.486
336.10 4.481
336.20 4.476
336.30 4.471
336.40 4.466
336.50 4.461
336.60 4.456
336.70 4.451
336.80 4.446
336.90 4.441
337.00 4.436
337.10 4.431
337.20 4.426
337.30 4.421
337.40 4.416
337.50 4.411
337.60 4.406
337.70 4.401
337.80 4.396
337.90 4.391
338.00 4.386
338.10 4.381
338.20 4.376
338.30 4.371
338.40 4.366
338.50 4.361
338.60 4.356
338.70 4.352
338.80 4.347
338.90 4.342
339.00 4.337
339.10 4.332
339.20 4.327
339.30 4.322
339.40 4.318
339.50 4.313
339.60 4.308
339.70 4.303
339.80 4.298
339.90 4.293
340.00 4.289
340.10 4.284
340.20 4.279
340.30 4.274
340.40 4.27
340.50 4.265
340.60 4.26
340.70 4.255
340.80 4.251
340.90 4.246
341.00 4.241
341.10 4.236
341.20 4.232
341.30 4.227
341.40 4.222
341.50 4.218
341.60 4.213
341.70 4.208
341.80 4.203
341.90 4.199
342.00 4.194
342.10 4.189
342.20 4.185
342.30 4.18
342.40 4.176
342.50 4.171
342.60 4.166
342.70 4.162
342.80 4.157
342.90 4.152
343.00 4.148
343.10 4.143
343.20 4.139
343.30 4.134
343.40 4.129
343.50 4.125
343.60 4.12
343.70 4.116
343.80 4.111
343.90 4.107
344.00 4.102
344.10 4.098
344.20 4.093
344.30 4.089
344.40 4.084
344.50 4.08
344.60 4.075
344.70 4.071
344.80 4.066
344.90 4.062
345.00 4.057
345.10 4.053
345.20 4.048
345.30 4.044
345.40 4.039
345.50 4.035
345.60 4.03
345.70 4.026
345.80 4.022
345.90 4.017
346.00 4.013
346.10 4.008
346.20 4.004
346.30 3.999
346.40 3.995
346.50 3.991
346.60 3.986
346.70 3.982
346.80 3.978
346.90 3.973
347.00 3.969
347.10 3.965
347.20 3.96
347.30 3.956
347.40 3.952
347.50 3.947
347.60 3.943
347.70 3.939
347.80 3.934
347.90 3.93
348.00 3.926
348.10 3.921
348.20 3.917
348.30 3.913
348.40 3.909
348.50 3.904
348.60 3.9
348.70 3.896
348.80 3.892
348.90 3.887
349.00 3.883
349.10 3.879
349.20 3.875
349.30 3.87
349.40 3.866
349.50 3.862
349.60 3.858
349.70 3.854
349.80 3.849
349.90 3.845
350.00 3.841
350.10 3.837
350.20 3.833
350.30 3.829
350.40 3.824
350.50 3.82
350.60 3.816
350.70 3.812
350.80 3.808
350.90 3.804
351.00 3.8
351.10 3.795
351.20 3.791
351.30 3.787
351.40 3.783
351.50 3.779
351.60 3.775
351.70 3.771
351.80 3.767
351.90 3.763
352.00 3.759
352.10 3.755
352.20 3.751
352.30 3.746
352.40 3.742
352.50 3.738
352.60 3.734
352.70 3.73
352.80 3.726
352.90 3.722
353.00 3.718
353.10 3.714
353.20 3.71
353.30 3.706
353.40 3.702
353.50 3.698
353.60 3.694
353.70 3.69
353.80 3.686
353.90 3.682
354.00 3.678
354.10 3.674
354.20 3.671
354.30 3.667
354.40 3.663
354.50 3.659
354.60 3.655
354.70 3.651
354.80 3.647
354.90 3.643
355.00 3.639
355.10 3.635
355.20 3.631
355.30 3.628
355.40 3.624
355.50 3.62
355.60 3.616
355.70 3.612
355.80 3.608
355.90 3.604
356.00 3.6
356.10 3.597
356.20 3.593
356.30 3.589
356.40 3.585
356.50 3.581
356.60 3.577
356.70 3.574
356.80 3.57
356.90 3.566
357.00 3.562
357.10 3.558
357.20 3.555
357.30 3.551
357.40 3.547
357.50 3.543
357.60 3.539
357.70 3.536
357.80 3.532
357.90 3.528
358.00 3.524
358.10 3.521
358.20 3.517
358.30 3.513
358.40 3.509
358.50 3.506
358.60 3.502
358.70 3.498
358.80 3.495
358.90 3.491
359.00 3.487
359.10 3.484
359.20 3.48
359.30 3.476
359.40 3.472
359.50 3.469
359.60 3.465
359.70 3.461
359.80 3.458
359.90 3.454
360.00 3.45
360.10 3.447
360.20 3.443
360.30 3.44
360.40 3.436
360.50 3.432
360.60 3.429
360.70 3.425
360.80 3.421
360.90 3.418
361.00 3.414
361.10 3.411
361.20 3.407
361.30 3.403
361.40 3.4
361.50 3.396
361.60 3.393
361.70 3.389
361.80 3.385
361.90 3.382
362.00 3.378
362.10 3.375
362.20 3.371
362.30 3.368
362.40 3.364
362.50 3.361
362.60 3.357
362.70 3.354
362.80 3.35
362.90 3.347
363.00 3.343
363.10 3.34
363.20 3.336
363.30 3.333
363.40 3.329
363.50 3.326
363.60 3.322
363.70 3.319
363.80 3.315
363.90 3.312
364.00 3.308
364.10 3.305
364.20 3.301
364.30 3.298
364.40 3.294
364.50 3.291
364.60 3.287
364.70 3.284
364.80 3.281
364.90 3.277
365.00 3.274
365.10 3.27
365.20 3.267
365.30 3.264
365.40 3.26
365.50 3.257
365.60 3.253
365.70 3.25
365.80 3.247
365.90 3.243
366.00 3.24
366.10 3.236
366.20 3.233
366.30 3.23
366.40 3.226
366.50 3.223
366.60 3.219
366.70 3.216
366.80 3.213
366.90 3.209
367.00 3.206
367.10 3.203
367.20 3.199
367.30 3.196
367.40 3.192
367.50 3.189
367.60 3.186
367.70 3.182
367.80 3.179
367.90 3.176
368.00 3.172
368.10 3.169
368.20 3.166
368.30 3.162
368.40 3.159
368.50 3.156
368.60 3.152
368.70 3.149
368.80 3.146
368.90 3.143
369.00 3.139
369.10 3.136
369.20 3.133
369.30 3.129
369.40 3.126
369.50 3.123
369.60 3.12
369.70 3.116
369.80 3.113
369.90 3.11
370.00 3.106
370.10 3.103
370.20 3.1
370.30 3.097
370.40 3.094
370.50 3.09
370.60 3.087
370.70 3.084
370.80 3.081
370.90 3.077
371.00 3.074
371.10 3.071
371.20 3.068
371.30 3.065
371.40 3.062
371.50 3.058
371.60 3.055
371.70 3.052
371.80 3.049
371.90 3.046
372.00 3.042
372.10 3.039
372.20 3.036
372.30 3.033
372.40 3.03
372.50 3.027
372.60 3.024
372.70 3.021
372.80 3.017
372.90 3.014
373.00 3.011
373.10 3.008
373.20 3.005
373.30 3.002
373.40 2.999
373.50 2.996
373.60 2.993
373.70 2.99
373.80 2.987
373.90 2.984
374.00 2.98
374.10 2.977
374.20 2.974
374.30 2.971
374.40 2.968
374.50 2.965
374.60 2.962
374.70 2.959
374.80 2.956
374.90 2.953
375.00 2.95
375.10 2.948
375.20 2.945
375.30 2.942
375.40 2.939
375.50 2.936
375.60 2.933
375.70 2.93
375.80 2.927
375.90 2.924
376.00 2.921
376.10 2.918
376.20 2.915
376.30 2.912
376.40 2.909
376.50 2.906
376.60 2.903
376.70 2.9
376.80 2.897
376.90 2.894
377.00 2.891
377.10 2.889
377.20 2.886
377.30 2.883
377.40 2.88
377.50 2.878
377.60 2.875
377.70 2.872
377.80 2.869
377.90 2.867
378.00 2.864
378.10 2.861
378.20 2.858
378.30 2.855
378.40 2.852
378.50 2.849
378.60 2.847
378.70 2.844
378.80 2.841
378.90 2.838
379.00 2.835
379.10 2.832
379.20 2.829
379.30 2.826
379.40 2.824
379.50 2.821
379.60 2.818
379.70 2.815
379.80 2.812
379.90 2.809
380.00 2.807
380.10 2.804
380.20 2.802
380.30 2.799
380.40 2.797
380.50 2.795
380.60 2.792
380.70 2.79
380.80 2.787
380.90 2.785
381.00 2.783
381.10 2.78
381.20 2.777
381.30 2.775
381.40 2.772
381.50 2.769
381.60 2.767
381.70 2.764
381.80 2.761
381.90 2.758
382.00 2.755
382.10 2.752
382.20 2.749
382.30 2.745
382.40 2.742
382.50 2.738
382.60 2.735
382.70 2.731
382.80 2.728
382.90 2.725
383.00 2.721
383.10 2.718
383.20 2.714
383.30 2.711
383.40 2.708
383.50 2.705
383.60 2.702
383.70 2.701
383.80 2.699
383.90 2.697
384.00 2.696
384.10 2.695
384.20 2.693
384.30 2.692
384.40 2.69
384.50 2.689
384.60 2.687
384.70 2.685
384.80 2.684
384.90 2.682
385.00 2.68
385.10 2.678
385.20 2.676
385.30 2.674
385.40 2.671
385.50 2.669
385.60 2.667
385.70 2.664
385.80 2.662
385.90 2.659
386.00 2.657
386.10 2.654
386.20 2.651
386.30 2.648
386.40 2.645
386.50 2.642
386.60 2.639
386.70 2.635
386.80 2.632
386.90 2.629
387.00 2.625
387.10 2.621
387.20 2.618
387.30 2.614
387.40 2.61
387.50 2.606
387.60 2.601
387.70 2.597
387.80 2.593
387.90 2.588
388.00 2.583
388.10 2.579
388.20 2.574
388.30 2.569
388.40 2.564
388.50 2.559
388.60 2.554
388.70 2.55
388.80 2.546
388.90 2.544
389.00 2.542
389.10 2.54
389.20 2.54
389.30 2.54
389.40 2.54
389.50 2.541
389.60 2.541
389.70 2.541
389.80 2.541
389.90 2.541
390.00 2.541
390.10 2.541
390.20 2.541
390.30 2.54
390.40 2.54
390.50 2.539
390.60 2.538
390.70 2.538
390.80 2.537
390.90 2.536
391.00 2.535
391.10 2.533
391.20 2.532
391.30 2.531
391.40 2.529
391.50 2.528
391.60 2.526
391.70 2.525
391.80 2.523
391.90 2.521
392.00 2.519
392.10 2.517
392.20 2.515
392.30 2.513
392.40 2.511
392.50 2.509
392.60 2.506
392.70 2.504
392.80 2.502
392.90 2.499
393.00 2.496
393.10 2.494
393.20 2.491
393.30 2.488
393.40 2.486
393.50 2.483
393.60 2.48
393.70 2.477
393.80 2.473
393.90 2.47
394.00 2.467
394.10 2.463
394.20 2.46
394.30 2.456
394.40 2.452
394.50 2.448
394.60 2.444
394.70 2.44
394.80 2.436
394.90 2.432
395.00 2.427
395.10 2.422
395.20 2.417
395.30 2.412
395.40 2.407
395.50 2.402
395.60 2.396
395.70 2.39
395.80 2.384
395.90 2.378
396.00 2.371
396.10 2.364
396.20 2.357
396.30 2.35
396.40 2.343
396.50 2.335
396.60 2.327
396.70 2.319
396.80 2.311
396.90 2.303
397.00 2.295
397.10 2.298
397.20 2.301
397.30 2.305
397.40 2.309
397.50 2.313
397.60 2.316
397.70 2.319
397.80 2.322
397.90 2.325
398.00 2.327
398.10 2.329
398.20 2.331
398.30 2.333
398.40 2.334
398.50 2.335
398.60 2.336
398.70 2.337
398.80 2.338
398.90 2.338
399.00 2.339
399.10 2.339
399.20 2.339
399.30 2.339
399.40 2.339
399.50 2.338
399.60 2.338
399.70 2.337
399.80 2.336
399.90 2.335
400.00 2.335
400.10 2.334
400.20 2.333
400.30 2.331
400.40 2.33
400.50 2.329
400.60 2.328
400.70 2.326
400.80 2.325
400.90 2.323
401.00 2.322
401.10 2.32
401.20 2.318
401.30 2.317
401.40 2.315
401.50 2.313
401.60 2.312
401.70 2.31
401.80 2.308
401.90 2.306
402.00 2.304
402.10 2.302
402.20 2.3
402.30 2.299
402.40 2.297
402.50 2.295
402.60 2.293
402.70 2.291
402.80 2.289
402.90 2.286
403.00 2.284
403.10 2.282
403.20 2.28
403.30 2.278
403.40 2.276
403.50 2.274
403.60 2.272
403.70 2.27
403.80 2.267
403.90 2.265
404.00 2.263
404.10 2.261
404.20 2.258
404.30 2.256
404.40 2.254
404.50 2.252
404.60 2.249
404.70 2.247
404.80 2.245
404.90 2.242
405.00 2.24
405.10 2.237
405.20 2.235
405.30 2.232
405.40 2.23
405.50 2.227
405.60 2.225
405.70 2.222
405.80 2.22
405.90 2.217
406.00 2.214
406.10 2.211
406.20 2.209
406.30 2.206
406.40 2.203
406.50 2.2
406.60 2.197
406.70 2.194
406.80 2.19
406.90 2.187
407.00 2.184
407.10 2.18
407.20 2.177
407.30 2.173
407.40 2.169
407.50 2.165
407.60 2.161
407.70 2.157
407.80 2.152
407.90 2.148
408.00 2.143
408.10 2.138
408.20 2.133
408.30 2.127
408.40 2.122
408.50 2.116
408.60 2.109
408.70 2.103
408.80 2.096
408.90 2.089
409.00 2.081
409.10 2.073
409.20 2.065
409.30 2.056
409.40 2.046
409.50 2.036
409.60 2.026
409.70 2.015
409.80 2.003
409.90 1.991
410.00 1.98
410.10 1.975
410.20 1.975
410.30 1.974
410.40 1.977
410.50 1.985
410.60 1.994
410.70 2.001
410.80 2.009
410.90 2.015
411.00 2.021
411.10 2.026
411.20 2.031
411.30 2.035
411.40 2.039
411.50 2.043
411.60 2.046
411.70 2.049
411.80 2.051
411.90 2.053
412.00 2.055
412.10 2.057
412.20 2.058
412.30 2.059
412.40 2.06
412.50 2.061
412.60 2.061
412.70 2.061
412.80 2.061
412.90 2.062
413.00 2.061
413.10 2.061
413.20 2.061
413.30 2.06
413.40 2.06
413.50 2.059
413.60 2.058
413.70 2.057
413.80 2.056
413.90 2.055
414.00 2.054
414.10 2.053
414.20 2.052
414.30 2.051
414.40 2.05
414.50 2.048
414.60 2.047
414.70 2.046
414.80 2.044
414.90 2.043
415.00 2.041
415.10 2.04
415.20 2.038
415.30 2.037
415.40 2.035
415.50 2.034
415.60 2.032
415.70 2.031
415.80 2.029
415.90 2.027
416.00 2.026
416.10 2.024
416.20 2.022
416.30 2.021
416.40 2.019
416.50 2.017
416.60 2.016
416.70 2.014
416.80 2.012
416.90 2.011
417.00 2.009
417.10 2.007
417.20 2.006
417.30 2.004
417.40 2.002
417.50 2
417.60 1.999
417.70 1.997
417.80 1.995
417.90 1.993
418.00 1.992
418.10 1.99
418.20 1.988
418.30 1.986
418.40 1.985
418.50 1.983
418.60 1.981
418.70 1.979
418.80 1.978
418.90 1.976
419.00 1.974
419.10 1.972
419.20 1.971
419.30 1.969
419.40 1.967
419.50 1.965
419.60 1.963
419.70 1.962
419.80 1.96
419.90 1.958
420.00 1.956
420.10 1.955
420.20 1.953
420.30 1.951
420.40 1.949
420.50 1.948
420.60 1.946
420.70 1.944
420.80 1.942
420.90 1.941
421.00 1.939
421.10 1.937
421.20 1.935
421.30 1.934
421.40 1.932
421.50 1.93
421.60 1.928
421.70 1.927
421.80 1.925
421.90 1.923
422.00 1.921
422.10 1.92
422.20 1.918
422.30 1.916
422.40 1.914
422.50 1.913
422.60 1.911
422.70 1.909
422.80 1.907
422.90 1.906
423.00 1.904
423.10 1.902
423.20 1.9
423.30 1.899
423.40 1.897
423.50 1.895
423.60 1.893
423.70 1.892
423.80 1.89
423.90 1.888
424.00 1.886
424.10 1.885
424.20 1.883
424.30 1.881
424.40 1.88
424.50 1.878
424.60 1.876
424.70 1.874
424.80 1.873
424.90 1.871
425.00 1.869
425.10 1.867
425.20 1.866
425.30 1.864
425.40 1.862
425.50 1.86
425.60 1.859
425.70 1.857
425.80 1.855
425.90 1.853
426.00 1.852
426.10 1.85
426.20 1.848
426.30 1.847
426.40 1.845
426.50 1.843
426.60 1.841
426.70 1.84
426.80 1.838
426.90 1.836
427.00 1.834
427.10 1.832
427.20 1.831
427.30 1.829
427.40 1.827
427.50 1.825
427.60 1.824
427.70 1.822
427.80 1.82
427.90 1.818
428.00 1.816
428.10 1.815
428.20 1.813
428.30 1.811
428.40 1.809
428.50 1.807
428.60 1.805
428.70 1.803
428.80 1.802
428.90 1.8
429.00 1.798
429.10 1.796
429.20 1.794
429.30 1.792
429.40 1.79
429.50 1.788
429.60 1.786
429.70 1.784
429.80 1.781
429.90 1.779
430.00 1.777
430.10 1.775
430.20 1.773
430.30 1.77
430.40 1.768
430.50 1.765
430.60 1.763
430.70 1.76
430.80 1.758
430.90 1.755
431.00 1.752
431.10 1.749
431.20 1.746
431.30 1.743
431.40 1.74
431.50 1.736
431.60 1.733
431.70 1.729
431.80 1.725
431.90 1.721
432.00 1.716
432.10 1.712
432.20 1.707
432.30 1.702
432.40 1.696
432.50 1.69
432.60 1.684
432.70 1.677
432.80 1.67
432.90 1.663
433.00 1.655
433.10 1.646
433.20 1.637
433.30 1.628
433.40 1.617
433.50 1.606
433.60 1.594
433.70 1.581
433.80 1.566
433.90 1.549
434.00 1.534
434.10 1.533
434.20 1.547
434.30 1.56
434.40 1.572
434.50 1.583
434.60 1.592
434.70 1.6
434.80 1.608
434.90 1.614
435.00 1.62
435.10 1.626
435.20 1.631
435.30 1.635
435.40 1.639
435.50 1.643
435.60 1.646
435.70 1.649
435.80 1.651
435.90 1.653
436.00 1.655
436.10 1.656
436.20 1.658
436.30 1.659
436.40 1.66
436.50 1.66
436.60 1.661
436.70 1.661
436.80 1.661
436.90 1.661
437.00 1.661
437.10 1.661
437.20 1.661
437.30 1.66
437.40 1.66
437.50 1.66
437.60 1.659
437.70 1.658
437.80 1.658
437.90 1.657
438.00 1.656
438.10 1.655
438.20 1.654
438.30 1.653
438.40 1.652
438.50 1.651
438.60 1.65
438.70 1.649
438.80 1.648
438.90 1.647
439.00 1.646
439.10 1.645
439.20 1.643
439.30 1.642
439.40 1.641
439.50 1.64
439.60 1.639
439.70 1.637
439.80 1.636
439.90 1.635
440.00 1.634
440.10 1.632
440.20 1.631
440.30 1.63
440.40 1.629
440.50 1.627
440.60 1.626
440.70 1.625
440.80 1.623
440.90 1.622
441.00 1.621
441.10 1.619
441.20 1.618
441.30 1.617
441.40 1.616
441.50 1.614
441.60 1.613
441.70 1.612
441.80 1.61
441.90 1.609
442.00 1.608
442.10 1.606
442.20 1.605
442.30 1.603
442.40 1.602
442.50 1.601
442.60 1.599
442.70 1.598
442.80 1.597
442.90 1.595
443.00 1.594
443.10 1.593
443.20 1.591
443.30 1.59
443.40 1.589
443.50 1.587
443.60 1.586
443.70 1.585
443.80 1.583
443.90 1.582
444.00 1.581
444.10 1.579
444.20 1.578
444.30 1.577
444.40 1.575
444.50 1.574
444.60 1.573
444.70 1.571
444.80 1.57
444.90 1.569
445.00 1.567
445.10 1.566
445.20 1.565
445.30 1.563
445.40 1.562
445.50 1.561
445.60 1.559
445.70 1.558
445.80 1.557
445.90 1.555
446.00 1.554
446.10 1.553
446.20 1.551
446.30 1.55
446.40 1.549
446.50 1.547
446.60 1.546
446.70 1.545
446.80 1.543
446.90 1.542
447.00 1.541
447.10 1.539
447.20 1.538
447.30 1.537
447.40 1.535
447.50 1.534
447.60 1.533
447.70 1.531
447.80 1.53
447.90 1.529
448.00 1.528
448.10 1.526
448.20 1.525
448.30 1.524
448.40 1.522
448.50 1.521
448.60 1.52
448.70 1.518
448.80 1.517
448.90 1.516
449.00 1.515
449.10 1.513
449.20 1.512
449.30 1.511
449.40 1.509
449.50 1.508
449.60 1.507
449.70 1.506
449.80 1.504
449.90 1.503
450.00 1.502
450.10 1.5
450.20 1.499
450.30 1.498
450.40 1.497
450.50 1.495
450.60 1.494
450.70 1.493
450.80 1.491
450.90 1.49
451.00 1.489
451.10 1.488
451.20 1.486
451.30 1.485
451.40 1.484
451.50 1.483
451.60 1.481
451.70 1.48
451.80 1.479
451.90 1.478
452.00 1.476
452.10 1.475
452.20 1.474
452.30 1.473
452.40 1.471
452.50 1.47
452.60 1.469
452.70 1.468
452.80 1.466
452.90 1.465
453.00 1.464
453.10 1.463
453.20 1.461
453.30 1.46
453.40 1.459
453.50 1.458
453.60 1.456
453.70 1.455
453.80 1.454
453.90 1.453
454.00 1.451
454.10 1.45
454.20 1.449
454.30 1.448
454.40 1.447
454.50 1.445
454.60 1.444
454.70 1.443
454.80 1.442
454.90 1.44
455.00 1.439
455.10 1.438
455.20 1.437
455.30 1.436
455.40 1.434
455.50 1.433
455.60 1.432
455.70 1.431
455.80 1.43
455.90 1.428
456.00 1.427
456.10 1.426
456.20 1.425
456.30 1.423
456.40 1.422
456.50 1.421
456.60 1.42
456.70 1.419
456.80 1.417
456.90 1.416
457.00 1.415
457.10 1.414
457.20 1.413
457.30 1.412
457.40 1.41
457.50 1.409
457.60 1.408
457.70 1.407
457.80 1.406
457.90 1.404
458.00 1.403
458.10 1.402
458.20 1.401
458.30 1.4
458.40 1.399
458.50 1.397
458.60 1.396
458.70 1.395
458.80 1.394
458.90 1.393
459.00 1.391
459.10 1.39
459.20 1.389
459.30 1.388
459.40 1.387
459.50 1.386
459.60 1.384
459.70 1.383
459.80 1.382
459.90 1.381
460.00 1.38
460.10 1.379
460.20 1.378
460.30 1.376
460.40 1.375
460.50 1.374
460.60 1.373
460.70 1.372
460.80 1.371
460.90 1.369
461.00 1.368
461.10 1.367
461.20 1.366
461.30 1.365
461.40 1.364
461.50 1.363
461.60 1.361
461.70 1.36
461.80 1.359
461.90 1.358
462.00 1.357
462.10 1.356
462.20 1.355
462.30 1.354
462.40 1.352
462.50 1.351
462.60 1.35
462.70 1.349
462.80 1.348
462.90 1.347
463.00 1.346
463.10 1.345
463.20 1.343
463.30 1.342
463.40 1.341
463.50 1.34
463.60 1.339
463.70 1.338
463.80 1.337
463.90 1.336
464.00 1.335
464.10 1.333
464.20 1.332
464.30 1.331
464.40 1.33
464.50 1.329
464.60 1.328
464.70 1.327
464.80 1.326
464.90 1.325
465.00 1.323
465.10 1.322
465.20 1.321
465.30 1.32
465.40 1.319
465.50 1.318
465.60 1.317
465.70 1.316
465.80 1.315
465.90 1.314
466.00 1.313
466.10 1.311
466.20 1.31
466.30 1.309
466.40 1.308
466.50 1.307
466.60 1.306
466.70 1.305
466.80 1.304
466.90 1.303
467.00 1.302
467.10 1.301
467.20 1.3
467.30 1.298
467.40 1.297
467.50 1.296
467.60 1.295
467.70 1.294
467.80 1.293
467.90 1.292
468.00 1.291
468.10 1.29
468.20 1.289
468.30 1.288
468.40 1.287
468.50 1.286
468.60 1.285
468.70 1.284
468.80 1.282
468.90 1.281
469.00 1.28
469.10 1.279
469.20 1.278
469.30 1.277
469.40 1.276
469.50 1.275
469.60 1.274
469.70 1.273
469.80 1.272
469.90 1.271
470.00 1.27
470.10 1.269
470.20 1.268
470.30 1.267
470.40 1.266
470.50 1.265
470.60 1.264
470.70 1.262
470.80 1.261
470.90 1.26
471.00 1.259
471.10 1.258
471.20 1.257
471.30 1.256
471.40 1.255
471.50 1.254
471.60 1.253
471.70 1.252
471.80 1.251
471.90 1.25
472.00 1.249
472.10 1.248
472.20 1.247
472.30 1.246
472.40 1.245
472.50 1.244
472.60 1.243
472.70 1.242
472.80 1.241
472.90 1.24
473.00 1.239
473.10 1.238
473.20 1.237
473.30 1.236
473.40 1.235
473.50 1.234
473.60 1.233
473.70 1.232
473.80 1.231
473.90 1.23
474.00 1.229
474.10 1.228
474.20 1.227
474.30 1.226
474.40 1.225
474.50 1.224
474.60 1.223
474.70 1.222
474.80 1.221
474.90 1.22
475.00 1.219
475.10 1.218
475.20 1.217
475.30 1.215
475.40 1.214
475.50 1.213
475.60 1.212
475.70 1.211
475.80 1.21
475.90 1.209
476.00 1.208
476.10 1.207
476.20 1.206
476.30 1.205
476.40 1.204
476.50 1.203
476.60 1.202
476.70 1.201
476.80 1.2
476.90 1.199
477.00 1.198
477.10 1.197
477.20 1.196
477.30 1.195
477.40 1.194
477.50 1.193
477.60 1.192
477.70 1.191
477.80 1.19
477.90 1.189
478.00 1.188
478.10 1.187
478.20 1.186
478.30 1.185
478.40 1.184
478.50 1.183
478.60 1.182
478.70 1.181
478.80 1.18
478.90 1.179
479.00 1.178
479.10 1.177
479.20 1.176
479.30 1.175
479.40 1.174
479.50 1.173
479.60 1.172
479.70 1.171
479.80 1.17
479.90 1.169
480.00 1.168
480.10 1.167
480.20 1.166
480.30 1.165
480.40 1.164
480.50 1.162
480.60 1.161
480.70 1.16
480.80 1.159
480.90 1.158
481.00 1.157
481.10 1.156
481.20 1.155
481.30 1.153
481.40 1.152
481.50 1.151
481.60 1.15
481.70 1.149
481.80 1.147
481.90 1.146
482.00 1.145
482.10 1.144
482.20 1.142
482.30 1.141
482.40 1.139
482.50 1.138
482.60 1.136
482.70 1.135
482.80 1.133
482.90 1.132
483.00 1.13
483.10 1.129
483.20 1.127
483.30 1.125
483.40 1.122
483.50 1.12
483.60 1.118
483.70 1.116
483.80 1.114
483.90 1.111
484.00 1.109
484.10 1.107
484.20 1.104
484.30 1.101
484.40 1.097
484.50 1.094
484.60 1.091
484.70 1.086
484.80 1.082
484.90 1.077
485.00 1.072
485.10 1.068
485.20 1.062
485.30 1.056
485.40 1.049
485.50 1.042
485.60 1.034
485.70 1.024
485.80 1.011
485.90 0.9966
486.00 0.9784
486.10 0.9766
486.20 0.9715
486.30 0.9825
486.40 0.9973
486.50 1.011
486.60 1.02
486.70 1.028
486.80 1.034
486.90 1.04
487.00 1.044
487.10 1.049
487.20 1.052
487.30 1.055
487.40 1.058
487.50 1.061
487.60 1.064
487.70 1.066
487.80 1.067
487.90 1.069
488.00 1.07
488.10 1.072
488.20 1.073
488.30 1.073
488.40 1.073
488.50 1.074
488.60 1.074
488.70 1.075
488.80 1.075
488.90 1.075
489.00 1.076
489.10 1.076
489.20 1.076
489.30 1.076
489.40 1.076
489.50 1.075
489.60 1.075
489.70 1.075
489.80 1.074
489.90 1.074
490.00 1.074
490.10 1.074
490.20 1.073
490.30 1.072
490.40 1.072
490.50 1.071
490.60 1.071
490.70 1.07
490.80 1.07
490.90 1.069
491.00 1.068
491.10 1.068
491.20 1.067
491.30 1.067
491.40 1.066
491.50 1.065
491.60 1.064
491.70 1.064
491.80 1.063
491.90 1.062
492.00 1.062
492.10 1.061
492.20 1.06
492.30 1.06
492.40 1.059
492.50 1.058
492.60 1.057
492.70 1.057
492.80 1.056
492.90 1.055
493.00 1.054
493.10 1.054
493.20 1.053
493.30 1.052
493.40 1.051
493.50 1.05
493.60 1.05
493.70 1.049
493.80 1.048
493.90 1.047
494.00 1.047
494.10 1.046
494.20 1.045
494.30 1.044
494.40 1.044
494.50 1.043
494.60 1.042
494.70 1.041
494.80 1.04
494.90 1.04
495.00 1.039
495.10 1.038
495.20 1.037
495.30 1.037
495.40 1.036
495.50 1.035
495.60 1.034
495.70 1.033
495.80 1.033
495.90 1.032
496.00 1.031
496.10 1.03
496.20 1.029
496.30 1.029
496.40 1.028
496.50 1.027
496.60 1.026
496.70 1.026
496.80 1.025
496.90 1.024
497.00 1.023
497.10 1.022
497.20 1.022
497.30 1.021
497.40 1.02
497.50 1.019
497.60 1.019
497.70 1.018
497.80 1.017
497.90 1.016
498.00 1.015
498.10 1.015
498.20 1.014
498.30 1.013
498.40 1.012
498.50 1.012
498.60 1.011
498.70 1.01
498.80 1.009
498.90 1.008
499.00 1.008
499.10 1.007
499.20 1.006
499.30 1.005
499.40 1.005
499.50 1.004
499.60 1.003
499.70 1.002
499.80 1.002
499.90 1.001
500.00 1
500.10 0.9992
500.20 0.9985
500.30 0.9977
500.40 0.9969
500.50 0.9962
500.60 0.9954
500.70 0.9947
500.80 0.9939
500.90 0.9931
501.00 0.9924
501.10 0.9916
501.20 0.9908
501.30 0.9901
501.40 0.9893
501.50 0.9886
501.60 0.9878
501.70 0.9871
501.80 0.9863
501.90 0.9855
502.00 0.9848
502.10 0.984
502.20 0.9833
502.30 0.9825
502.40 0.9818
502.50 0.981
502.60 0.9803
502.70 0.9795
502.80 0.9788
502.90 0.978
503.00 0.9773
503.10 0.9765
503.20 0.9758
503.30 0.975
503.40 0.9743
503.50 0.9736
503.60 0.9728
503.70 0.9721
503.80 0.9713
503.90 0.9706
504.00 0.9698
504.10 0.9691
504.20 0.9684
504.30 0.9676
504.40 0.9669
504.50 0.9661
504.60 0.9654
504.70 0.9647
504.80 0.9639
504.90 0.9632
505.00 0.9625
505.10 0.9617
505.20 0.961
505.30 0.9603
505.40 0.9595
505.50 0.9588
505.60 0.9581
505.70 0.9573
505.80 0.9566
505.90 0.9559
506.00 0.9552
506.10 0.9544
506.20 0.9537
506.30 0.953
506.40 0.9522
506.50 0.9515
506.60 0.9508
506.70 0.9501
506.80 0.9494
506.90 0.9486
507.00 0.9479
507.10 0.9472
507.20 0.9465
507.30 0.9457
507.40 0.945
507.50 0.9443
507.60 0.9436
507.70 0.9429
507.80 0.9422
507.90 0.9414
508.00 0.9407
508.10 0.94
508.20 0.9393
508.30 0.9386
508.40 0.9379
508.50 0.9372
508.60 0.9365
508.70 0.9357
508.80 0.935
508.90 0.9343
509.00 0.9336
509.10 0.9329
509.20 0.9322
509.30 0.9315
509.40 0.9308
509.50 0.9301
509.60 0.9294
509.70 0.9287
509.80 0.928
509.90 0.9273
510.00 0.9266
510.10 0.9259
510.20 0.9252
510.30 0.9245
510.40 0.9238
510.50 0.9231
510.60 0.9224
510.70 0.9217
510.80 0.921
510.90 0.9203
511.00 0.9196
511.10 0.9189
511.20 0.9182
511.30 0.9175
511.40 0.9168
511.50 0.9161
511.60 0.9154
511.70 0.9147
511.80 0.9141
511.90 0.9134
512.00 0.9127
512.10 0.912
512.20 0.9113
512.30 0.9106
512.40 0.9099
512.50 0.9092
512.60 0.9086
512.70 0.9079
512.80 0.9072
512.90 0.9065
513.00 0.9058
513.10 0.9051
513.20 0.9045
513.30 0.9038
513.40 0.9031
513.50 0.9024
513.60 0.9018
513.70 0.9011
513.80 0.9004
513.90 0.8997
514.00 0.899
514.10 0.8984
514.20 0.8977
514.30 0.897
514.40 0.8963
514.50 0.8957
514.60 0.895
514.70 0.8943
514.80 0.8937
514.90 0.893
515.00 0.8923
515.10 0.8916
515.20 0.891
515.30 0.8903
515.40 0.8896
515.50 0.889
515.60 0.8883
515.70 0.8876
515.80 0.887
515.90 0.8863
516.00 0.8857
516.10 0.885
516.20 0.8843
516.30 0.8837
516.40 0.883
516.50 0.8823
516.60 0.8817
516.70 0.881
516.80 0.8804
516.90 0.8797
517.00 0.8791
517.10 0.8784
517.20 0.8777
517.30 0.8771
517.40 0.8764
517.50 0.8758
517.60 0.8751
517.70 0.8745
517.80 0.8738
517.90 0.8732
518.00 0.8725
518.10 0.8719
518.20 0.8712
518.30 0.8706
518.40 0.8699
518.50 0.8693
518.60 0.8686
518.70 0.868
518.80 0.8673
518.90 0.8667
519.00 0.866
519.10 0.8654
519.20 0.8647
519.30 0.8641
519.40 0.8635
519.50 0.8628
519.60 0.8622
519.70 0.8615
519.80 0.8609
519.90 0.8603
520.00 0.8596
520.10 0.859
520.20 0.8583
520.30 0.8577
520.40 0.8571
520.50 0.8564
520.60 0.8558
520.70 0.8552
520.80 0.8545
520.90 0.8539
521.00 0.8533
521.10 0.8526
521.20 0.852
521.30 0.8514
521.40 0.8507
521.50 0.8501
521.60 0.8495
521.70 0.8488
521.80 0.8482
521.90 0.8476
522.00 0.847
522.10 0.8463
522.20 0.8457
522.30 0.8451
522.40 0.8445
522.50 0.8438
522.60 0.8432
522.70 0.8426
522.80 0.842
522.90 0.8413
523.00 0.8407
523.10 0.8401
523.20 0.8395
523.30 0.8389
523.40 0.8382
523.50 0.8376
523.60 0.837
523.70 0.8364
523.80 0.8358
523.90 0.8352
524.00 0.8345
524.10 0.8339
524.20 0.8333
524.30 0.8327
524.40 0.8321
524.50 0.8315
524.60 0.8309
524.70 0.8302
524.80 0.8296
524.90 0.829
525.00 0.8284
525.10 0.8278
525.20 0.8272
525.30 0.8266
525.40 0.826
525.50 0.8254
525.60 0.8248
525.70 0.8242
525.80 0.8235
525.90 0.8229
526.00 0.8223
526.10 0.8217
526.20 0.8211
526.30 0.8205
526.40 0.8199
526.50 0.8193
526.60 0.8187
526.70 0.8181
526.80 0.8175
526.90 0.8169
527.00 0.8163
527.10 0.8157
527.20 0.8151
527.30 0.8145
527.40 0.8139
527.50 0.8133
527.60 0.8127
527.70 0.8121
527.80 0.8115
527.90 0.8109
528.00 0.8104
528.10 0.8098
528.20 0.8092
528.30 0.8086
528.40 0.808
528.50 0.8074
528.60 0.8068
528.70 0.8062
528.80 0.8056
528.90 0.805
529.00 0.8044
529.10 0.8039
529.20 0.8033
529.30 0.8027
529.40 0.8021
529.50 0.8015
529.60 0.8009
529.70 0.8003
529.80 0.7998
529.90 0.7992
530.00 0.7986
530.10 0.798
530.20 0.7974
530.30 0.7968
530.40 0.7963
530.50 0.7957
530.60 0.7951
530.70 0.7945
530.80 0.794
530.90 0.7934
531.00 0.7928
531.10 0.7922
531.20 0.7916
531.30 0.7911
531.40 0.7905
531.50 0.7899
531.60 0.7893
531.70 0.7888
531.80 0.7882
531.90 0.7876
532.00 0.7871
532.10 0.7865
532.20 0.7859
532.30 0.7853
532.40 0.7848
532.50 0.7842
532.60 0.7836
532.70 0.7831
532.80 0.7825
532.90 0.7819
533.00 0.7814
533.10 0.7808
533.20 0.7802
533.30 0.7797
533.40 0.7791
533.50 0.7785
533.60 0.778
533.70 0.7774
533.80 0.7768
533.90 0.7763
534.00 0.7757
534.10 0.7751
534.20 0.7746
534.30 0.774
534.40 0.7735
534.50 0.7729
534.60 0.7724
534.70 0.7718
534.80 0.7712
534.90 0.7707
535.00 0.7701
535.10 0.7696
535.20 0.769
535.30 0.7685
535.40 0.7679
535.50 0.7673
535.60 0.7668
535.70 0.7662
535.80 0.7657
535.90 0.7651
536.00 0.7646
536.10 0.764
536.20 0.7635
536.30 0.7629
536.40 0.7624
536.50 0.7618
536.60 0.7613
536.70 0.7607
536.80 0.7602
536.90 0.7596
537.00 0.7591
537.10 0.7585
537.20 0.758
537.30 0.7574
537.40 0.7569
537.50 0.7564
537.60 0.7558
537.70 0.7553
537.80 0.7547
537.90 0.7542
538.00 0.7536
538.10 0.7531
538.20 0.7526
538.30 0.752
538.40 0.7515
538.50 0.7509
538.60 0.7504
538.70 0.7499
538.80 0.7493
538.90 0.7488
539.00 0.7482
539.10 0.7477
539.20 0.7472
539.30 0.7466
539.40 0.7461
539.50 0.7456
539.60 0.745
539.70 0.7445
539.80 0.744
539.90 0.7434
540.00 0.7429
540.10 0.7424
540.20 0.7418
540.30 0.7413
540.40 0.7408
540.50 0.7402
540.60 0.7397
540.70 0.7392
540.80 0.7387
540.90 0.7381
541.00 0.7376
541.10 0.7371
541.20 0.7365
541.30 0.736
541.40 0.7355
541.50 0.735
541.60 0.7344
541.70 0.7339
541.80 0.7334
541.90 0.7329
542.00 0.7324
542.10 0.7318
542.20 0.7313
542.30 0.7308
542.40 0.7303
542.50 0.7297
542.60 0.7292
542.70 0.7287
542.80 0.7282
542.90 0.7277
543.00 0.7272
543.10 0.7266
543.20 0.7261
543.30 0.7256
543.40 0.7251
543.50 0.7246
543.60 0.724
543.70 0.7235
543.80 0.723
543.90 0.7225
544.00 0.722
544.10 0.7215
544.20 0.721
544.30 0.7204
544.40 0.7199
544.50 0.7194
544.60 0.7189
544.70 0.7184
544.80 0.7179
544.90 0.7174
545.00 0.7169
545.10 0.7164
545.20 0.7159
545.30 0.7154
545.40 0.7148
545.50 0.7143
545.60 0.7138
545.70 0.7133
545.80 0.7128
545.90 0.7123
546.00 0.7118
546.10 0.7113
546.20 0.7108
546.30 0.7103
546.40 0.7098
546.50 0.7093
546.60 0.7088
546.70 0.7083
546.80 0.7078
546.90 0.7073
547.00 0.7068
547.10 0.7063
547.20 0.7058
547.30 0.7053
547.40 0.7048
547.50 0.7043
547.60 0.7038
547.70 0.7033
547.80 0.7028
547.90 0.7023
548.00 0.7018
548.10 0.7013
548.20 0.7008
548.30 0.7003
548.40 0.6998
548.50 0.6993
548.60 0.6988
548.70 0.6984
548.80 0.6979
548.90 0.6974
549.00 0.6969
549.10 0.6964
549.20 0.6959
549.30 0.6954
549.40 0.6949
549.50 0.6944
549.60 0.6939
549.70 0.6935
549.80 0.693
549.90 0.6925
550.00 0.692
550.10 0.6915
550.20 0.691
550.30 0.6905
550.40 0.69
550.50 0.6896
550.60 0.6891
550.70 0.6886
550.80 0.6881
550.90 0.6876
551.00 0.6871
551.10 0.6867
551.20 0.6862
551.30 0.6857
551.40 0.6852
551.50 0.6847
551.60 0.6842
551.70 0.6838
551.80 0.6833
551.90 0.6828
552.00 0.6823
552.10 0.6819
552.20 0.6814
552.30 0.6809
552.40 0.6804
552.50 0.6799
552.60 0.6795
552.70 0.679
552.80 0.6785
552.90 0.678
553.00 0.6776
553.10 0.6771
553.20 0.6766
553.30 0.6761
553.40 0.6757
553.50 0.6752
553.60 0.6747
553.70 0.6743
553.80 0.6738
553.90 0.6733
554.00 0.6728
554.10 0.6724
554.20 0.6719
554.30 0.6714
554.40 0.671
554.50 0.6705
554.60 0.67
554.70 0.6696
554.80 0.6691
554.90 0.6686
555.00 0.6682
555.10 0.6677
555.20 0.6672
555.30 0.6668
555.40 0.6663
555.50 0.6658
555.60 0.6654
555.70 0.6649
555.80 0.6645
555.90 0.664
556.00 0.6635
556.10 0.6631
556.20 0.6626
556.30 0.6621
556.40 0.6617
556.50 0.6612
556.60 0.6608
556.70 0.6603
556.80 0.6598
556.90 0.6594
557.00 0.6589
557.10 0.6585
557.20 0.658
557.30 0.6576
557.40 0.6571
557.50 0.6566
557.60 0.6562
557.70 0.6557
557.80 0.6553
557.90 0.6548
558.00 0.6544
558.10 0.6539
558.20 0.6535
558.30 0.653
558.40 0.6526
558.50 0.6521
558.60 0.6517
558.70 0.6512
558.80 0.6508
558.90 0.6503
559.00 0.6499
559.10 0.6494
559.20 0.649
559.30 0.6485
559.40 0.6481
559.50 0.6476
559.60 0.6472
559.70 0.6467
559.80 0.6463
559.90 0.6458
560.00 0.6454
560.10 0.6449
560.20 0.6445
560.30 0.644
560.40 0.6436
560.50 0.6431
560.60 0.6427
560.70 0.6423
560.80 0.6418
560.90 0.6414
561.00 0.6409
561.10 0.6405
561.20 0.64
561.30 0.6396
561.40 0.6392
561.50 0.6387
561.60 0.6383
561.70 0.6378
561.80 0.6374
561.90 0.637
562.00 0.6365
562.10 0.6361
562.20 0.6356
562.30 0.6352
562.40 0.6348
562.50 0.6343
562.60 0.6339
562.70 0.6335
562.80 0.633
562.90 0.6326
563.00 0.6322
563.10 0.6317
563.20 0.6313
563.30 0.6309
563.40 0.6304
563.50 0.63
563.60 0.6296
563.70 0.6291
563.80 0.6287
563.90 0.6283
564.00 0.6278
564.10 0.6274
564.20 0.627
564.30 0.6265
564.40 0.6261
564.50 0.6257
564.60 0.6252
564.70 0.6248
564.80 0.6244
564.90 0.624
565.00 0.6235
565.10 0.6231
565.20 0.6227
565.30 0.6223
565.40 0.6218
565.50 0.6214
565.60 0.621
565.70 0.6206
565.80 0.6201
565.90 0.6197
566.00 0.6193
566.10 0.6189
566.20 0.6184
566.30 0.618
566.40 0.6176
566.50 0.6172
566.60 0.6167
566.70 0.6163
566.80 0.6159
566.90 0.6155
567.00 0.6151
567.10 0.6146
567.20 0.6142
567.30 0.6138
567.40 0.6134
567.50 0.613
567.60 0.6125
567.70 0.6121
567.80 0.6117
567.90 0.6113
568.00 0.6109
568.10 0.6105
568.20 0.61
568.30 0.6096
568.40 0.6092
568.50 0.6088
568.60 0.6084
568.70 0.608
568.80 0.6076
568.90 0.6071
569.00 0.6067
569.10 0.6063
569.20 0.6059
569.30 0.6055
569.40 0.6051
569.50 0.6047
569.60 0.6043
569.70 0.6038
569.80 0.6034
569.90 0.603
570.00 0.6026
570.10 0.6022
570.20 0.6018
570.30 0.6014
570.40 0.601
570.50 0.6006
570.60 0.6002
570.70 0.5998
570.80 0.5994
570.90 0.599
571.00 0.5985
571.10 0.5981
571.20 0.5977
571.30 0.5973
571.40 0.5969
571.50 0.5965
571.60 0.5961
571.70 0.5957
571.80 0.5953
571.90 0.5949
572.00 0.5945
572.10 0.5941
572.20 0.5937
572.30 0.5933
572.40 0.5929
572.50 0.5925
572.60 0.5921
572.70 0.5917
572.80 0.5913
572.90 0.5909
573.00 0.5905
573.10 0.5901
573.20 0.5897
573.30 0.5893
573.40 0.5889
573.50 0.5885
573.60 0.5881
573.70 0.5877
573.80 0.5873
573.90 0.5869
574.00 0.5865
574.10 0.5861
574.20 0.5857
574.30 0.5853
574.40 0.5849
574.50 0.5845
574.60 0.5842
574.70 0.5838
574.80 0.5834
574.90 0.583
575.00 0.5826
575.10 0.5822
575.20 0.5818
575.30 0.5814
575.40 0.581
575.50 0.5806
575.60 0.5802
575.70 0.5798
575.80 0.5794
575.90 0.5791
576.00 0.5787
576.10 0.5783
576.20 0.5779
576.30 0.5775
576.40 0.5771
576.50 0.5767
576.60 0.5763
576.70 0.576
576.80 0.5756
576.90 0.5752
577.00 0.5748
577.10 0.5744
577.20 0.574
577.30 0.5736
577.40 0.5733
577.50 0.5729
577.60 0.5725
577.70 0.5721
577.80 0.5717
577.90 0.5713
578.00 0.571
578.10 0.5706
578.20 0.5702
578.30 0.5698
578.40 0.5694
578.50 0.569
578.60 0.5687
578.70 0.5683
578.80 0.5679
578.90 0.5675
579.00 0.5671
579.10 0.5668
579.20 0.5664
579.30 0.566
579.40 0.5656
579.50 0.5652
579.60 0.5649
579.70 0.5645
579.80 0.5641
579.90 0.5637
580.00 0.5634
580.10 0.563
580.20 0.5626
580.30 0.5622
580.40 0.5619
580.50 0.5615
580.60 0.5611
580.70 0.5607
580.80 0.5604
580.90 0.56
581.00 0.5596
581.10 0.5592
581.20 0.5589
581.30 0.5585
581.40 0.5581
581.50 0.5578
581.60 0.5574
581.70 0.557
581.80 0.5566
581.90 0.5563
582.00 0.5559
582.10 0.5555
582.20 0.5552
582.30 0.5548
582.40 0.5544
582.50 0.5541
582.60 0.5537
582.70 0.5533
582.80 0.5529
582.90 0.5526
583.00 0.5522
583.10 0.5518
583.20 0.5515
583.30 0.5511
583.40 0.5507
583.50 0.5504
583.60 0.55
583.70 0.5497
583.80 0.5493
583.90 0.5489
584.00 0.5486
584.10 0.5482
584.20 0.5478
584.30 0.5475
584.40 0.5471
584.50 0.5467
584.60 0.5464
584.70 0.546
584.80 0.5457
584.90 0.5453
585.00 0.5449
585.10 0.5446
585.20 0.5442
585.30 0.5439
585.40 0.5435
585.50 0.5431
585.60 0.5428
585.70 0.5424
585.80 0.5421
585.90 0.5417
586.00 0.5413
586.10 0.541
586.20 0.5406
586.30 0.5403
586.40 0.5399
586.50 0.5396
586.60 0.5392
586.70 0.5388
586.80 0.5385
586.90 0.5381
587.00 0.5378
587.10 0.5374
587.20 0.5371
587.30 0.5367
587.40 0.5364
587.50 0.536
587.60 0.5357
587.70 0.5353
587.80 0.5349
587.90 0.5346
588.00 0.5342
588.10 0.5339
588.20 0.5335
588.30 0.5332
588.40 0.5328
588.50 0.5325
588.60 0.5321
588.70 0.5318
588.80 0.5314
588.90 0.5311
589.00 0.5307
589.10 0.5304
589.20 0.53
589.30 0.5297
589.40 0.5293
589.50 0.529
589.60 0.5286
589.70 0.5283
589.80 0.528
589.90 0.5276
590.00 0.5273
590.10 0.5269
590.20 0.5266
590.30 0.5262
590.40 0.5259
590.50 0.5255
590.60 0.5252
590.70 0.5248
590.80 0.5245
590.90 0.5242
591.00 0.5238
591.10 0.5235
591.20 0.5231
591.30 0.5228
591.40 0.5224
591.50 0.5221
591.60 0.5218
591.70 0.5214
591.80 0.5211
591.90 0.5207
592.00 0.5204
592.10 0.5201
592.20 0.5197
592.30 0.5194
592.40 0.519
592.50 0.5187
592.60 0.5184
592.70 0.518
592.80 0.5177
592.90 0.5173
593.00 0.517
593.10 0.5167
593.20 0.5163
593.30 0.516
593.40 0.5156
593.50 0.5153
593.60 0.515
593.70 0.5146
593.80 0.5143
593.90 0.514
594.00 0.5136
594.10 0.5133
594.20 0.513
594.30 0.5126
594.40 0.5123
594.50 0.512
594.60 0.5116
594.70 0.5113
594.80 0.511
594.90 0.5106
595.00 0.5103
595.10 0.51
595.20 0.5096
595.30 0.5093
595.40 0.509
595.50 0.5086
595.60 0.5083
595.70 0.508
595.80 0.5076
595.90 0.5073
596.00 0.507
596.10 0.5067
596.20 0.5063
596.30 0.506
596.40 0.5057
596.50 0.5053
596.60 0.505
596.70 0.5047
596.80 0.5044
596.90 0.504
597.00 0.5037
597.10 0.5034
597.20 0.503
597.30 0.5027
597.40 0.5024
597.50 0.5021
597.60 0.5017
597.70 0.5014
597.80 0.5011
597.90 0.5008
598.00 0.5004
598.10 0.5001
598.20 0.4998
598.30 0.4995
598.40 0.4991
598.50 0.4988
598.60 0.4985
598.70 0.4982
598.80 0.4979
598.90 0.4975
599.00 0.4972
599.10 0.4969
599.20 0.4966
599.30 0.4962
599.40 0.4959
599.50 0.4956
599.60 0.4953
599.70 0.495
599.80 0.4946
599.90 0.4943
600.00 0.494
600.10 0.4937
600.20 0.4934
600.30 0.493
600.40 0.4927
600.50 0.4924
600.60 0.4921
600.70 0.4918
600.80 0.4915
600.90 0.4911
601.00 0.4908
601.10 0.4905
601.20 0.4902
601.30 0.4899
601.40 0.4896
601.50 0.4892
601.60 0.4889
601.70 0.4886
601.80 0.4883
601.90 0.488
602.00 0.4877
602.10 0.4874
602.20 0.487
602.30 0.4867
602.40 0.4864
602.50 0.4861
602.60 0.4858
602.70 0.4855
602.80 0.4852
602.90 0.4849
603.00 0.4845
603.10 0.4842
603.20 0.4839
603.30 0.4836
603.40 0.4833
603.50 0.483
603.60 0.4827
603.70 0.4824
603.80 0.4821
603.90 0.4818
604.00 0.4814
604.10 0.4811
604.20 0.4808
604.30 0.4805
604.40 0.4802
604.50 0.4799
604.60 0.4796
604.70 0.4793
604.80 0.479
604.90 0.4787
605.00 0.4784
605.10 0.4781
605.20 0.4778
605.30 0.4774
605.40 0.4771
605.50 0.4768
605.60 0.4765
605.70 0.4762
605.80 0.4759
605.90 0.4756
606.00 0.4753
606.10 0.475
606.20 0.4747
606.30 0.4744
606.40 0.4741
606.50 0.4738
606.60 0.4735
606.70 0.4732
606.80 0.4729
606.90 0.4726
607.00 0.4723
607.10 0.472
607.20 0.4717
607.30 0.4714
607.40 0.4711
607.50 0.4708
607.60 0.4705
607.70 0.4702
607.80 0.4699
607.90 0.4696
608.00 0.4693
608.10 0.469
608.20 0.4687
608.30 0.4684
608.40 0.4681
608.50 0.4678
608.60 0.4675
608.70 0.4672
608.80 0.4669
608.90 0.4666
609.00 0.4663
609.10 0.466
609.20 0.4657
609.30 0.4654
609.40 0.4651
609.50 0.4648
609.60 0.4645
609.70 0.4642
609.80 0.4639
609.90 0.4636
610.00 0.4633
610.10 0.463
610.20 0.4628
610.30 0.4625
610.40 0.4622
610.50 0.4619
610.60 0.4616
610.70 0.4613
610.80 0.461
610.90 0.4607
611.00 0.4604
611.10 0.4601
611.20 0.4598
611.30 0.4595
611.40 0.4592
611.50 0.4589
611.60 0.4587
611.70 0.4584
611.80 0.4581
611.90 0.4578
612.00 0.4575
612.10 0.4572
612.20 0.4569
612.30 0.4566
612.40 0.4563
612.50 0.456
612.60 0.4558
612.70 0.4555
612.80 0.4552
612.90 0.4549
613.00 0.4546
613.10 0.4543
613.20 0.454
613.30 0.4537
613.40 0.4535
613.50 0.4532
613.60 0.4529
613.70 0.4526
613.80 0.4523
613.90 0.452
614.00 0.4517
614.10 0.4515
614.20 0.4512
614.30 0.4509
614.40 0.4506
614.50 0.4503
614.60 0.45
614.70 0.4497
614.80 0.4495
614.90 0.4492
615.00 0.4489
615.10 0.4486
615.20 0.4483
615.30 0.448
615.40 0.4478
615.50 0.4475
615.60 0.4472
615.70 0.4469
615.80 0.4466
615.90 0.4464
616.00 0.4461
616.10 0.4458
616.20 0.4455
616.30 0.4452
616.40 0.445
616.50 0.4447
616.60 0.4444
616.70 0.4441
616.80 0.4438
616.90 0.4436
617.00 0.4433
617.10 0.443
617.20 0.4427
617.30 0.4424
617.40 0.4422
617.50 0.4419
617.60 0.4416
617.70 0.4413
617.80 0.4411
617.90 0.4408
618.00 0.4405
618.10 0.4402
618.20 0.44
618.30 0.4397
618.40 0.4394
618.50 0.4391
618.60 0.4388
618.70 0.4386
618.80 0.4383
618.90 0.438
619.00 0.4377
619.10 0.4375
619.20 0.4372
619.30 0.4369
619.40 0.4367
619.50 0.4364
619.60 0.4361
619.70 0.4358
619.80 0.4356
619.90 0.4353
620.00 0.435
620.10 0.4347
620.20 0.4345
620.30 0.4342
620.40 0.4339
620.50 0.4337
620.60 0.4334
620.70 0.4331
620.80 0.4328
620.90 0.4326
621.00 0.4323
621.10 0.432
621.20 0.4318
621.30 0.4315
621.40 0.4312
621.50 0.431
621.60 0.4307
621.70 0.4304
621.80 0.4302
621.90 0.4299
622.00 0.4296
622.10 0.4293
622.20 0.4291
622.30 0.4288
622.40 0.4285
622.50 0.4283
622.60 0.428
622.70 0.4277
622.80 0.4275
622.90 0.4272
623.00 0.4269
623.10 0.4267
623.20 0.4264
623.30 0.4261
623.40 0.4259
623.50 0.4256
623.60 0.4254
623.70 0.4251
623.80 0.4248
623.90 0.4246
624.00 0.4243
624.10 0.424
624.20 0.4238
624.30 0.4235
624.40 0.4232
624.50 0.423
624.60 0.4227
624.70 0.4225
624.80 0.4222
624.90 0.4219
625.00 0.4217
625.10 0.4214
625.20 0.4211
625.30 0.4209
625.40 0.4206
625.50 0.4204
625.60 0.4201
625.70 0.4198
625.80 0.4196
625.90 0.4193
626.00 0.4191
626.10 0.4188
626.20 0.4185
626.30 0.4183
626.40 0.418
626.50 0.4178
626.60 0.4175
626.70 0.4172
626.80 0.417
626.90 0.4167
627.00 0.4165
627.10 0.4162
627.20 0.416
627.30 0.4157
627.40 0.4154
627.50 0.4152
627.60 0.4149
627.70 0.4147
627.80 0.4144
627.90 0.4142
628.00 0.4139
628.10 0.4136
628.20 0.4134
628.30 0.4131
628.40 0.4129
628.50 0.4126
628.60 0.4124
628.70 0.4121
628.80 0.4119
628.90 0.4116
629.00 0.4114
629.10 0.4111
629.20 0.4108
629.30 0.4106
629.40 0.4103
629.50 0.4101
629.60 0.4098
629.70 0.4096
629.80 0.4093
629.90 0.4091
630.00 0.4088
630.10 0.4086
630.20 0.4083
630.30 0.4081
630.40 0.4078
630.50 0.4076
630.60 0.4073
630.70 0.4071
630.80 0.4068
630.90 0.4066
631.00 0.4063
631.10 0.4061
631.20 0.4058
631.30 0.4056
631.40 0.4053
631.50 0.4051
631.60 0.4048
631.70 0.4046
631.80 0.4043
631.90 0.4041
632.00 0.4038
632.10 0.4036
632.20 0.4033
632.30 0.4031
632.40 0.4028
632.50 0.4026
632.60 0.4023
632.70 0.4021
632.80 0.4018
632.90 0.4016
633.00 0.4013
633.10 0.4011
633.20 0.4009
633.30 0.4006
633.40 0.4004
633.50 0.4001
633.60 0.3999
633.70 0.3996
633.80 0.3994
633.90 0.3991
634.00 0.3989
634.10 0.3986
634.20 0.3984
634.30 0.3982
634.40 0.3979
634.50 0.3977
634.60 0.3974
634.70 0.3972
634.80 0.3969
634.90 0.3967
635.00 0.3965
635.10 0.3962
635.20 0.396
635.30 0.3957
635.40 0.3955
635.50 0.3952
635.60 0.395
635.70 0.3948
635.80 0.3945
635.90 0.3943
636.00 0.394
636.10 0.3938
636.20 0.3936
636.30 0.3933
636.40 0.3931
636.50 0.3928
636.60 0.3926
636.70 0.3924
636.80 0.3921
636.90 0.3919
637.00 0.3916
637.10 0.3914
637.20 0.3912
637.30 0.3909
637.40 0.3907
637.50 0.3904
637.60 0.3902
637.70 0.39
637.80 0.3897
637.90 0.3895
638.00 0.3892
638.10 0.389
638.20 0.3888
638.30 0.3885
638.40 0.3883
638.50 0.3881
638.60 0.3878
638.70 0.3876
638.80 0.3874
638.90 0.3871
639.00 0.3869
639.10 0.3866
639.20 0.3864
639.30 0.3862
639.40 0.3859
639.50 0.3857
639.60 0.3855
639.70 0.3852
639.80 0.385
639.90 0.3848
640.00 0.3845
640.10 0.3843
640.20 0.3841
640.30 0.3838
640.40 0.3836
640.50 0.3834
640.60 0.3831
640.70 0.3829
640.80 0.3827
640.90 0.3824
641.00 0.3822
641.10 0.382
641.20 0.3817
641.30 0.3815
641.40 0.3813
641.50 0.381
641.60 0.3808
641.70 0.3806
641.80 0.3803
641.90 0.3801
642.00 0.3799
642.10 0.3796
642.20 0.3794
642.30 0.3792
642.40 0.3789
642.50 0.3787
642.60 0.3785
642.70 0.3782
642.80 0.378
642.90 0.3778
643.00 0.3776
643.10 0.3773
643.20 0.3771
643.30 0.3769
643.40 0.3766
643.50 0.3764
643.60 0.3762
643.70 0.3759
643.80 0.3757
643.90 0.3755
644.00 0.3753
644.10 0.375
644.20 0.3748
644.30 0.3746
644.40 0.3743
644.50 0.3741
644.60 0.3739
644.70 0.3737
644.80 0.3734
644.90 0.3732
645.00 0.373
645.10 0.3727
645.20 0.3725
645.30 0.3723
645.40 0.3721
645.50 0.3718
645.60 0.3716
645.70 0.3714
645.80 0.3711
645.90 0.3709
646.00 0.3707
646.10 0.3705
646.20 0.3702
646.30 0.37
646.40 0.3698
646.50 0.3695
646.60 0.3693
646.70 0.3691
646.80 0.3689
646.90 0.3686
647.00 0.3684
647.10 0.3682
647.20 0.3679
647.30 0.3677
647.40 0.3675
647.50 0.3673
647.60 0.367
647.70 0.3668
647.80 0.3666
647.90 0.3663
648.00 0.3661
648.10 0.3659
648.20 0.3656
648.30 0.3654
648.40 0.3652
648.50 0.3649
648.60 0.3647
648.70 0.3645
648.80 0.3642
648.90 0.364
649.00 0.3638
649.10 0.3635
649.20 0.3633
649.30 0.3631
649.40 0.3628
649.50 0.3626
649.60 0.3624
649.70 0.3621
649.80 0.3619
649.90 0.3616
650.00 0.3614
650.10 0.3612
650.20 0.3609
650.30 0.3607
650.40 0.3604
650.50 0.3602
650.60 0.3599
650.70 0.3597
650.80 0.3594
650.90 0.3591
651.00 0.3589
651.10 0.3586
651.20 0.3584
651.30 0.3581
651.40 0.3578
651.50 0.3575
651.60 0.3573
651.70 0.357
651.80 0.3567
651.90 0.3564
652.00 0.3561
652.10 0.3558
652.20 0.3555
652.30 0.3552
652.40 0.3549
652.50 0.3545
652.60 0.3542
652.70 0.3538
652.80 0.3534
652.90 0.3531
653.00 0.3527
653.10 0.3524
653.20 0.352
653.30 0.3516
653.40 0.3511
653.50 0.3505
653.60 0.3499
653.70 0.3494
653.80 0.3488
653.90 0.3483
654.00 0.3477
654.10 0.3472
654.20 0.3466
654.30 0.346
654.40 0.3451
654.50 0.3442
654.60 0.3433
654.70 0.3424
654.80 0.3414
654.90 0.3401
655.00 0.3387
655.10 0.3373
655.20 0.336
655.30 0.3345
655.40 0.3325
655.50 0.3304
655.60 0.3278
655.70 0.3249
655.80 0.321
655.90 0.3164
656.00 0.3089
656.10 0.3009
656.20 0.3016
656.30 0.314
656.40 0.2972
656.50 0.3033
656.60 0.3105
656.70 0.317
656.80 0.3206
656.90 0.3238
657.00 0.326
657.10 0.3281
657.20 0.3297
657.30 0.3311
657.40 0.3321
657.50 0.3331
657.60 0.334
657.70 0.335
657.80 0.3359
657.90 0.3363
658.00 0.3368
658.10 0.3373
658.20 0.3378
658.30 0.3382
658.40 0.3383
658.50 0.3385
658.60 0.3386
658.70 0.3387
658.80 0.3389
658.90 0.339
659.00 0.3392
659.10 0.3393
659.20 0.3394
659.30 0.3395
659.40 0.3395
659.50 0.3394
659.60 0.3394
659.70 0.3393
659.80 0.3392
659.90 0.3392
660.00 0.3391
660.10 0.3391
660.20 0.339
660.30 0.3389
660.40 0.3388
660.50 0.3387
660.60 0.3386
660.70 0.3384
660.80 0.3383
660.90 0.3382
661.00 0.338
661.10 0.3379
661.20 0.3378
661.30 0.3376
661.40 0.3375
661.50 0.3373
661.60 0.3372
661.70 0.337
661.80 0.3368
661.90 0.3367
662.00 0.3365
662.10 0.3363
662.20 0.3362
662.30 0.336
662.40 0.3358
662.50 0.3357
662.60 0.3355
662.70 0.3353
662.80 0.3351
662.90 0.335
663.00 0.3348
663.10 0.3346
663.20 0.3344
663.30 0.3343
663.40 0.3341
663.50 0.3339
663.60 0.3337
663.70 0.3335
663.80 0.3334
663.90 0.3332
664.00 0.333
664.10 0.3328
664.20 0.3326
664.30 0.3325
664.40 0.3323
664.50 0.3321
664.60 0.3319
664.70 0.3317
664.80 0.3315
664.90 0.3313
665.00 0.3312
665.10 0.331
665.20 0.3308
665.30 0.3306
665.40 0.3304
665.50 0.3302
665.60 0.33
665.70 0.3299
665.80 0.3297
665.90 0.3295
666.00 0.3293
666.10 0.3291
666.20 0.3289
666.30 0.3287
666.40 0.3286
666.50 0.3284
666.60 0.3282
666.70 0.328
666.80 0.3278
666.90 0.3276
667.00 0.3274
667.10 0.3272
667.20 0.3271
667.30 0.3269
667.40 0.3267
667.50 0.3265
667.60 0.3263
667.70 0.3261
667.80 0.3259
667.90 0.3258
668.00 0.3256
668.10 0.3254
668.20 0.3252
668.30 0.325
668.40 0.3248
668.50 0.3246
668.60 0.3245
668.70 0.3243
668.80 0.3241
668.90 0.3239
669.00 0.3237
669.10 0.3235
669.20 0.3233
669.30 0.3232
669.40 0.323
669.50 0.3228
669.60 0.3226
669.70 0.3224
669.80 0.3222
669.90 0.322
670.00 0.3219
670.10 0.3217
670.20 0.3215
670.30 0.3213
670.40 0.3211
670.50 0.3209
670.60 0.3208
670.70 0.3206
670.80 0.3204
670.90 0.3202
671.00 0.32
671.10 0.3198
671.20 0.3196
671.30 0.3195
671.40 0.3193
671.50 0.3191
671.60 0.3189
671.70 0.3187
671.80 0.3185
671.90 0.3184
672.00 0.3182
672.10 0.318
672.20 0.3178
672.30 0.3176
672.40 0.3175
672.50 0.3173
672.60 0.3171
672.70 0.3169
672.80 0.3167
672.90 0.3165
673.00 0.3164
673.10 0.3162
673.20 0.316
673.30 0.3158
673.40 0.3156
673.50 0.3155
673.60 0.3153
673.70 0.3151
673.80 0.3149
673.90 0.3147
674.00 0.3145
674.10 0.3144
674.20 0.3142
674.30 0.314
674.40 0.3138
674.50 0.3136
674.60 0.3135
674.70 0.3133
674.80 0.3131
674.90 0.3129
675.00 0.3127
675.10 0.3126
675.20 0.3124
675.30 0.3122
675.40 0.312
675.50 0.3119
675.60 0.3117
675.70 0.3115
675.80 0.3113
675.90 0.3111
676.00 0.311
676.10 0.3108
676.20 0.3106
676.30 0.3104
676.40 0.3102
676.50 0.3101
676.60 0.3099
676.70 0.3097
676.80 0.3095
676.90 0.3094
677.00 0.3092
677.10 0.309
677.20 0.3088
677.30 0.3087
677.40 0.3085
677.50 0.3083
677.60 0.3081
677.70 0.3079
677.80 0.3078
677.90 0.3076
678.00 0.3074
678.10 0.3072
678.20 0.3071
678.30 0.3069
678.40 0.3067
678.50 0.3065
678.60 0.3064
678.70 0.3062
678.80 0.306
678.90 0.3058
679.00 0.3057
679.10 0.3055
679.20 0.3053
679.30 0.3051
679.40 0.305
679.50 0.3048
679.60 0.3046
679.70 0.3044
679.80 0.3043
679.90 0.3041
680.00 0.3039
680.10 0.3038
680.20 0.3036
680.30 0.3034
680.40 0.3032
680.50 0.3031
680.60 0.3029
680.70 0.3027
680.80 0.3025
680.90 0.3024
681.00 0.3022
681.10 0.302
681.20 0.3019
681.30 0.3017
681.40 0.3015
681.50 0.3013
681.60 0.3012
681.70 0.301
681.80 0.3008
681.90 0.3007
682.00 0.3005
682.10 0.3003
682.20 0.3001
682.30 0.3
682.40 0.2998
682.50 0.2996
682.60 0.2995
682.70 0.2993
682.80 0.2991
682.90 0.299
683.00 0.2988
683.10 0.2986
683.20 0.2984
683.30 0.2983
683.40 0.2981
683.50 0.2979
683.60 0.2978
683.70 0.2976
683.80 0.2974
683.90 0.2973
684.00 0.2971
684.10 0.2969
684.20 0.2968
684.30 0.2966
684.40 0.2964
684.50 0.2962
684.60 0.2961
684.70 0.2959
684.80 0.2957
684.90 0.2956
685.00 0.2954
685.10 0.2952
685.20 0.2951
685.30 0.2949
685.40 0.2947
685.50 0.2946
685.60 0.2944
685.70 0.2942
685.80 0.2941
685.90 0.2939
686.00 0.2937
686.10 0.2936
686.20 0.2934
686.30 0.2932
686.40 0.2931
686.50 0.2929
686.60 0.2927
686.70 0.2926
686.80 0.2924
686.90 0.2922
687.00 0.2921
687.10 0.2919
687.20 0.2918
687.30 0.2916
687.40 0.2914
687.50 0.2913
687.60 0.2911
687.70 0.2909
687.80 0.2908
687.90 0.2906
688.00 0.2904
688.10 0.2903
688.20 0.2901
688.30 0.2899
688.40 0.2898
688.50 0.2896
688.60 0.2895
688.70 0.2893
688.80 0.2891
688.90 0.289
689.00 0.2888
689.10 0.2886
689.20 0.2885
689.30 0.2883
689.40 0.2882
689.50 0.288
689.60 0.2878
689.70 0.2877
689.80 0.2875
689.90 0.2873
690.00 0.2872
690.10 0.287
690.20 0.2869
690.30 0.2867
690.40 0.2865
690.50 0.2864
690.60 0.2862
690.70 0.2861
690.80 0.2859
690.90 0.2857
691.00 0.2856
691.10 0.2854
691.20 0.2853
691.30 0.2851
691.40 0.2849
691.50 0.2848
691.60 0.2846
691.70 0.2845
691.80 0.2843
691.90 0.2841
692.00 0.284
692.10 0.2838
692.20 0.2837
692.30 0.2835
692.40 0.2833
692.50 0.2832
692.60 0.283
692.70 0.2829
692.80 0.2827
692.90 0.2826
693.00 0.2824
693.10 0.2822
693.20 0.2821
693.30 0.2819
693.40 0.2818
693.50 0.2816
693.60 0.2814
693.70 0.2813
693.80 0.2811
693.90 0.281
694.00 0.2808
694.10 0.2807
694.20 0.2805
694.30 0.2803
694.40 0.2802
694.50 0.28
694.60 0.2799
694.70 0.2797
694.80 0.2796
694.90 0.2794
695.00 0.2792
695.10 0.2791
695.20 0.2789
695.30 0.2788
695.40 0.2786
695.50 0.2785
695.60 0.2783
695.70 0.2782
695.80 0.278
695.90 0.2778
696.00 0.2777
696.10 0.2775
696.20 0.2774
696.30 0.2772
696.40 0.2771
696.50 0.2769
696.60 0.2768
696.70 0.2766
696.80 0.2765
696.90 0.2763
697.00 0.2761
697.10 0.276
697.20 0.2758
697.30 0.2757
697.40 0.2755
697.50 0.2754
697.60 0.2752
697.70 0.2751
697.80 0.2749
697.90 0.2748
698.00 0.2746
698.10 0.2745
698.20 0.2743
698.30 0.2742
698.40 0.274
698.50 0.2739
698.60 0.2737
698.70 0.2735
698.80 0.2734
698.90 0.2732
699.00 0.2731
699.10 0.2729
699.20 0.2728
699.30 0.2726
699.40 0.2725
699.50 0.2723
699.60 0.2722
699.70 0.272
699.80 0.2719
699.90 0.2717
700.00 0.2716
700.10 0.2714
700.20 0.2713
700.30 0.2711
700.40 0.271
700.50 0.2708
700.60 0.2707
700.70 0.2705
700.80 0.2704
700.90 0.2702
701.00 0.2701
701.10 0.2699
701.20 0.2698
701.30 0.2696
701.40 0.2695
701.50 0.2693
701.60 0.2692
701.70 0.269
701.80 0.2689
701.90 0.2687
702.00 0.2686
702.10 0.2684
702.20 0.2683
702.30 0.2681
702.40 0.268
702.50 0.2678
702.60 0.2677
702.70 0.2675
702.80 0.2674
702.90 0.2673
703.00 0.2671
703.10 0.267
703.20 0.2668
703.30 0.2667
703.40 0.2665
703.50 0.2664
703.60 0.2662
703.70 0.2661
703.80 0.2659
703.90 0.2658
704.00 0.2656
704.10 0.2655
704.20 0.2653
704.30 0.2652
704.40 0.265
704.50 0.2649
704.60 0.2647
704.70 0.2646
704.80 0.2645
704.90 0.2643
705.00 0.2642
705.10 0.264
705.20 0.2639
705.30 0.2637
705.40 0.2636
705.50 0.2634
705.60 0.2633
705.70 0.2631
705.80 0.263
705.90 0.2629
706.00 0.2627
706.10 0.2626
706.20 0.2624
706.30 0.2623
706.40 0.2621
706.50 0.262
706.60 0.2619
706.70 0.2617
706.80 0.2616
706.90 0.2614
707.00 0.2613
707.10 0.2611
707.20 0.261
707.30 0.2608
707.40 0.2607
707.50 0.2606
707.60 0.2604
707.70 0.2603
707.80 0.2601
707.90 0.26
708.00 0.2598
708.10 0.2597
708.20 0.2596
708.30 0.2594
708.40 0.2593
708.50 0.2591
708.60 0.259
708.70 0.2588
708.80 0.2587
708.90 0.2586
709.00 0.2584
709.10 0.2583
709.20 0.2581
709.30 0.258
709.40 0.2579
709.50 0.2577
709.60 0.2576
709.70 0.2574
709.80 0.2573
709.90 0.2571
710.00 0.257
710.10 0.2569
710.20 0.2567
710.30 0.2566
710.40 0.2564
710.50 0.2563
710.60 0.2562
710.70 0.256
710.80 0.2559
710.90 0.2557
711.00 0.2556
711.10 0.2555
711.20 0.2553
711.30 0.2552
711.40 0.255
711.50 0.2549
711.60 0.2548
711.70 0.2546
711.80 0.2545
711.90 0.2544
712.00 0.2542
712.10 0.2541
712.20 0.2539
712.30 0.2538
712.40 0.2537
712.50 0.2535
712.60 0.2534
712.70 0.2532
712.80 0.2531
712.90 0.253
713.00 0.2528
713.10 0.2527
713.20 0.2526
713.30 0.2524
713.40 0.2523
713.50 0.2521
713.60 0.252
713.70 0.2519
713.80 0.2517
713.90 0.2516
714.00 0.2515
714.10 0.2513
714.20 0.2512
714.30 0.251
714.40 0.2509
714.50 0.2508
714.60 0.2506
714.70 0.2505
714.80 0.2504
714.90 0.2502
715.00 0.2501
715.10 0.25
715.20 0.2498
715.30 0.2497
715.40 0.2495
715.50 0.2494
715.60 0.2493
715.70 0.2491
715.80 0.249
715.90 0.2489
716.00 0.2487
716.10 0.2486
716.20 0.2485
716.30 0.2483
716.40 0.2482
716.50 0.2481
716.60 0.2479
716.70 0.2478
716.80 0.2477
716.90 0.2475
717.00 0.2474
717.10 0.2473
717.20 0.2471
717.30 0.247
717.40 0.2469
717.50 0.2467
717.60 0.2466
717.70 0.2465
717.80 0.2463
717.90 0.2462
718.00 0.2461
718.10 0.2459
718.20 0.2458
718.30 0.2457
718.40 0.2455
718.50 0.2454
718.60 0.2453
718.70 0.2451
718.80 0.245
718.90 0.2449
719.00 0.2447
719.10 0.2446
719.20 0.2445
719.30 0.2443
719.40 0.2442
719.50 0.2441
719.60 0.2439
719.70 0.2438
719.80 0.2437
719.90 0.2435
720.00 0.2434
720.10 0.2433
720.20 0.2431
720.30 0.243
720.40 0.2429
720.50 0.2427
720.60 0.2426
720.70 0.2425
720.80 0.2424
720.90 0.2422
721.00 0.2421
721.10 0.242
721.20 0.2418
721.30 0.2417
721.40 0.2416
721.50 0.2414
721.60 0.2413
721.70 0.2412
721.80 0.2411
721.90 0.2409
722.00 0.2408
722.10 0.2407
722.20 0.2405
722.30 0.2404
722.40 0.2403
722.50 0.2402
722.60 0.24
722.70 0.2399
722.80 0.2398
722.90 0.2396
723.00 0.2395
723.10 0.2394
723.20 0.2392
723.30 0.2391
723.40 0.239
723.50 0.2389
723.60 0.2387
723.70 0.2386
723.80 0.2385
723.90 0.2383
724.00 0.2382
724.10 0.2381
724.20 0.238
724.30 0.2378
724.40 0.2377
724.50 0.2376
724.60 0.2375
724.70 0.2373
724.80 0.2372
724.90 0.2371
725.00 0.2369
725.10 0.2368
725.20 0.2367
725.30 0.2366
725.40 0.2364
725.50 0.2363
725.60 0.2362
725.70 0.2361
725.80 0.2359
725.90 0.2358
726.00 0.2357
726.10 0.2356
726.20 0.2354
726.30 0.2353
726.40 0.2352
726.50 0.235
726.60 0.2349
726.70 0.2348
726.80 0.2347
726.90 0.2345
727.00 0.2344
727.10 0.2343
727.20 0.2342
727.30 0.234
727.40 0.2339
727.50 0.2338
727.60 0.2337
727.70 0.2335
727.80 0.2334
727.90 0.2333
728.00 0.2332
728.10 0.233
728.20 0.2329
728.30 0.2328
728.40 0.2327
728.50 0.2326
728.60 0.2324
728.70 0.2323
728.80 0.2322
728.90 0.2321
729.00 0.2319
729.10 0.2318
729.20 0.2317
729.30 0.2316
729.40 0.2314
729.50 0.2313
729.60 0.2312
729.70 0.2311
729.80 0.2309
729.90 0.2308
730.00 0.2307
730.10 0.2306
730.20 0.2304
730.30 0.2303
730.40 0.2302
730.50 0.2301
730.60 0.23
730.70 0.2298
730.80 0.2297
730.90 0.2296
731.00 0.2295
731.10 0.2294
731.20 0.2292
731.30 0.2291
731.40 0.229
731.50 0.2289
731.60 0.2288
731.70 0.2286
731.80 0.2285
731.90 0.2284
732.00 0.2283
732.10 0.2281
732.20 0.228
732.30 0.2279
732.40 0.2278
732.50 0.2277
732.60 0.2275
732.70 0.2274
732.80 0.2273
732.90 0.2272
733.00 0.2271
733.10 0.2269
733.20 0.2268
733.30 0.2267
733.40 0.2266
733.50 0.2265
733.60 0.2263
733.70 0.2262
733.80 0.2261
733.90 0.226
734.00 0.2259
734.10 0.2257
734.20 0.2256
734.30 0.2255
734.40 0.2254
734.50 0.2253
734.60 0.2252
734.70 0.225
734.80 0.2249
734.90 0.2248
735.00 0.2247
735.10 0.2246
735.20 0.2244
735.30 0.2243
735.40 0.2242
735.50 0.2241
735.60 0.224
735.70 0.2238
735.80 0.2237
735.90 0.2236
736.00 0.2235
736.10 0.2234
736.20 0.2233
736.30 0.2231
736.40 0.223
736.50 0.2229
736.60 0.2228
736.70 0.2227
736.80 0.2225
736.90 0.2224
737.00 0.2223
737.10 0.2222
737.20 0.2221
737.30 0.222
737.40 0.2218
737.50 0.2217
737.60 0.2216
737.70 0.2215
737.80 0.2214
737.90 0.2213
738.00 0.2211
738.10 0.221
738.20 0.2209
738.30 0.2208
738.40 0.2207
738.50 0.2205
738.60 0.2204
738.70 0.2203
738.80 0.2202
738.90 0.2201
739.00 0.22
739.10 0.2198
739.20 0.2197
739.30 0.2196
739.40 0.2195
739.50 0.2194
739.60 0.2193
739.70 0.2191
739.80 0.219
739.90 0.2189
740.00 0.2188
740.10 0.2187
740.20 0.2186
740.30 0.2185
740.40 0.2183
740.50 0.2182
740.60 0.2181
740.70 0.218
740.80 0.2179
740.90 0.2178
741.00 0.2177
741.10 0.2176
741.20 0.2174
741.30 0.2173
741.40 0.2172
741.50 0.2171
741.60 0.217
741.70 0.2169
741.80 0.2168
741.90 0.2166
742.00 0.2165
742.10 0.2164
742.20 0.2163
742.30 0.2162
742.40 0.2161
742.50 0.216
742.60 0.2159
742.70 0.2157
742.80 0.2156
742.90 0.2155
743.00 0.2154
743.10 0.2153
743.20 0.2152
743.30 0.2151
743.40 0.215
743.50 0.2148
743.60 0.2147
743.70 0.2146
743.80 0.2145
743.90 0.2144
744.00 0.2143
744.10 0.2142
744.20 0.2141
744.30 0.214
744.40 0.2138
744.50 0.2137
744.60 0.2136
744.70 0.2135
744.80 0.2134
744.90 0.2133
745.00 0.2132
745.10 0.2131
745.20 0.2129
745.30 0.2128
745.40 0.2127
745.50 0.2126
745.60 0.2125
745.70 0.2124
745.80 0.2123
745.90 0.2122
746.00 0.2121
746.10 0.2119
746.20 0.2118
746.30 0.2117
746.40 0.2116
746.50 0.2115
746.60 0.2114
746.70 0.2113
746.80 0.2112
746.90 0.2111
747.00 0.211
747.10 0.2108
747.20 0.2107
747.30 0.2106
747.40 0.2105
747.50 0.2104
747.60 0.2103
747.70 0.2102
747.80 0.2101
747.90 0.21
748.00 0.2099
748.10 0.2097
748.20 0.2096
748.30 0.2095
748.40 0.2094
748.50 0.2093
748.60 0.2092
748.70 0.2091
748.80 0.209
748.90 0.2089
749.00 0.2088
749.10 0.2086
749.20 0.2085
749.30 0.2084
749.40 0.2083
749.50 0.2082
749.60 0.2081
749.70 0.208
749.80 0.2079
749.90 0.2078
750.00 0.2077
750.10 0.2076
750.20 0.2075
750.30 0.2073
750.40 0.2072
750.50 0.2071
750.60 0.207
750.70 0.2069
750.80 0.2068
750.90 0.2067
751.00 0.2066
751.10 0.2065
751.20 0.2064
751.30 0.2063
751.40 0.2062
751.50 0.2061
751.60 0.206
751.70 0.2059
751.80 0.2058
751.90 0.2056
752.00 0.2055
752.10 0.2054
752.20 0.2053
752.30 0.2052
752.40 0.2051
752.50 0.205
752.60 0.2049
752.70 0.2048
752.80 0.2047
752.90 0.2046
753.00 0.2045
753.10 0.2044
753.20 0.2043
753.30 0.2042
753.40 0.2041
753.50 0.204
753.60 0.2039
753.70 0.2038
753.80 0.2036
753.90 0.2035
754.00 0.2034
754.10 0.2033
754.20 0.2032
754.30 0.2031
754.40 0.203
754.50 0.2029
754.60 0.2028
754.70 0.2027
754.80 0.2026
754.90 0.2025
755.00 0.2024
755.10 0.2023
755.20 0.2022
755.30 0.2021
755.40 0.202
755.50 0.2019
755.60 0.2018
755.70 0.2017
755.80 0.2016
755.90 0.2015
756.00 0.2014
756.10 0.2012
756.20 0.2011
756.30 0.201
756.40 0.2009
756.50 0.2008
756.60 0.2007
756.70 0.2006
756.80 0.2005
756.90 0.2004
757.00 0.2003
757.10 0.2002
757.20 0.2001
757.30 0.2
757.40 0.1999
757.50 0.1998
757.60 0.1997
757.70 0.1996
757.80 0.1995
757.90 0.1994
758.00 0.1993
758.10 0.1992
758.20 0.1991
758.30 0.199
758.40 0.1989
758.50 0.1988
758.60 0.1987
758.70 0.1986
758.80 0.1985
758.90 0.1984
759.00 0.1983
759.10 0.1982
759.20 0.1981
759.30 0.198
759.40 0.1978
759.50 0.1977
759.60 0.1976
759.70 0.1975
759.80 0.1974
759.90 0.1973
760.00 0.1972
760.10 0.1971
760.20 0.197
760.30 0.1969
760.40 0.1968
760.50 0.1967
760.60 0.1966
760.70 0.1965
760.80 0.1964
760.90 0.1963
761.00 0.1962
761.10 0.1961
761.20 0.196
761.30 0.1959
761.40 0.1958
761.50 0.1957
761.60 0.1956
761.70 0.1955
761.80 0.1954
761.90 0.1953
762.00 0.1952
762.10 0.1951
762.20 0.195
762.30 0.1949
762.40 0.1948
762.50 0.1947
762.60 0.1947
762.70 0.1946
762.80 0.1945
762.90 0.1944
763.00 0.1943
763.10 0.1942
763.20 0.1941
763.30 0.194
763.40 0.1939
763.50 0.1938
763.60 0.1937
763.70 0.1936
763.80 0.1935
763.90 0.1934
764.00 0.1933
764.10 0.1932
764.20 0.1931
764.30 0.193
764.40 0.1929
764.50 0.1928
764.60 0.1927
764.70 0.1926
764.80 0.1925
764.90 0.1924
765.00 0.1923
765.10 0.1922
765.20 0.1921
765.30 0.192
765.40 0.1919
765.50 0.1918
765.60 0.1917
765.70 0.1916
765.80 0.1915
765.90 0.1914
766.00 0.1913
766.10 0.1912
766.20 0.1911
766.30 0.191
766.40 0.1909
766.50 0.1908
766.60 0.1907
766.70 0.1906
766.80 0.1905
766.90 0.1904
767.00 0.1903
767.10 0.1902
767.20 0.1901
767.30 0.1901
767.40 0.19
767.50 0.1899
767.60 0.1898
767.70 0.1897
767.80 0.1896
767.90 0.1895
768.00 0.1894
768.10 0.1893
768.20 0.1892
768.30 0.1891
768.40 0.189
768.50 0.1889
768.60 0.1888
768.70 0.1887
768.80 0.1886
768.90 0.1885
769.00 0.1884
769.10 0.1883
769.20 0.1882
769.30 0.1881
769.40 0.188
769.50 0.1879
769.60 0.1878
769.70 0.1877
769.80 0.1876
769.90 0.1875
770.00 0.1875
770.10 0.1874
770.20 0.1873
770.30 0.1872
770.40 0.1871
770.50 0.187
770.60 0.1869
770.70 0.1868
770.80 0.1867
770.90 0.1866
771.00 0.1865
771.10 0.1864
771.20 0.1863
771.30 0.1862
771.40 0.1861
771.50 0.186
771.60 0.186
771.70 0.1859
771.80 0.1858
771.90 0.1857
772.00 0.1856
772.10 0.1855
772.20 0.1854
772.30 0.1853
772.40 0.1852
772.50 0.1851
772.60 0.185
772.70 0.1849
772.80 0.1848
772.90 0.1847
773.00 0.1847
773.10 0.1846
773.20 0.1845
773.30 0.1844
773.40 0.1843
773.50 0.1842
773.60 0.1841
773.70 0.184
773.80 0.1839
773.90 0.1838
774.00 0.1837
774.10 0.1836
774.20 0.1835
774.30 0.1835
774.40 0.1834
774.50 0.1833
774.60 0.1832
774.70 0.1831
774.80 0.183
774.90 0.1829
775.00 0.1828
775.10 0.1827
775.20 0.1826
775.30 0.1825
775.40 0.1824
775.50 0.1824
775.60 0.1823
775.70 0.1822
775.80 0.1821
775.90 0.182
776.00 0.1819
776.10 0.1818
776.20 0.1817
776.30 0.1816
776.40 0.1815
776.50 0.1814
776.60 0.1813
776.70 0.1813
776.80 0.1812
776.90 0.1811
777.00 0.181
777.10 0.1809
777.20 0.1808
777.30 0.1807
777.40 0.1806
777.50 0.1805
777.60 0.1804
777.70 0.1803
777.80 0.1803
777.90 0.1802
778.00 0.1801
778.10 0.18
778.20 0.1799
778.30 0.1798
778.40 0.1797
778.50 0.1796
778.60 0.1795
778.70 0.1794
778.80 0.1794
778.90 0.1793
779.00 0.1792
779.10 0.1791
779.20 0.179
779.30 0.1789
779.40 0.1788
779.50 0.1787
779.60 0.1786
779.70 0.1785
779.80 0.1784
779.90 0.1784
780.00 0.1783
780.10 0.1782
780.20 0.1781
780.30 0.178
780.40 0.1779
780.50 0.1778
780.60 0.1777
780.70 0.1777
780.80 0.1776
780.90 0.1775
781.00 0.1774
781.10 0.1773
781.20 0.1772
781.30 0.1771
781.40 0.177
781.50 0.177
781.60 0.1769
781.70 0.1768
781.80 0.1767
781.90 0.1766
782.00 0.1765
782.10 0.1764
782.20 0.1763
782.30 0.1763
782.40 0.1762
782.50 0.1761
782.60 0.176
782.70 0.1759
782.80 0.1758
782.90 0.1757
783.00 0.1756
783.10 0.1756
783.20 0.1755
783.30 0.1754
783.40 0.1753
783.50 0.1752
783.60 0.1751
783.70 0.175
783.80 0.1749
783.90 0.1749
784.00 0.1748
784.10 0.1747
784.20 0.1746
784.30 0.1745
784.40 0.1744
784.50 0.1743
784.60 0.1743
784.70 0.1742
784.80 0.1741
784.90 0.174
785.00 0.1739
785.10 0.1738
785.20 0.1737
785.30 0.1737
785.40 0.1736
785.50 0.1735
785.60 0.1734
785.70 0.1733
785.80 0.1732
785.90 0.1731
786.00 0.173
786.10 0.173
786.20 0.1729
786.30 0.1728
786.40 0.1727
786.50 0.1726
786.60 0.1725
786.70 0.1724
786.80 0.1724
786.90 0.1723
787.00 0.1722
787.10 0.1721
787.20 0.172
787.30 0.1719
787.40 0.1718
787.50 0.1718
787.60 0.1717
787.70 0.1716
787.80 0.1715
787.90 0.1714
788.00 0.1713
788.10 0.1713
788.20 0.1712
788.30 0.1711
788.40 0.171
788.50 0.1709
788.60 0.1708
788.70 0.1707
788.80 0.1707
788.90 0.1706
789.00 0.1705
789.10 0.1704
789.20 0.1703
789.30 0.1702
789.40 0.1702
789.50 0.1701
789.60 0.17
789.70 0.1699
789.80 0.1698
789.90 0.1697
790.00 0.1696
790.10 0.1696
790.20 0.1695
790.30 0.1694
790.40 0.1693
790.50 0.1692
790.60 0.1691
790.70 0.1691
790.80 0.169
790.90 0.1689
791.00 0.1688
791.10 0.1687
791.20 0.1687
791.30 0.1686
791.40 0.1685
791.50 0.1684
791.60 0.1683
791.70 0.1682
791.80 0.1682
791.90 0.1681
792.00 0.168
792.10 0.1679
792.20 0.1678
792.30 0.1677
792.40 0.1677
792.50 0.1676
792.60 0.1675
792.70 0.1674
792.80 0.1673
792.90 0.1673
793.00 0.1672
793.10 0.1671
793.20 0.167
793.30 0.1669
793.40 0.1668
793.50 0.1668
793.60 0.1667
793.70 0.1666
793.80 0.1665
793.90 0.1664
794.00 0.1664
794.10 0.1663
794.20 0.1662
794.30 0.1661
794.40 0.166
794.50 0.166
794.60 0.1659
794.70 0.1658
794.80 0.1657
794.90 0.1656
795.00 0.1655
795.10 0.1655
795.20 0.1654
795.30 0.1653
795.40 0.1652
795.50 0.1651
795.60 0.1651
795.70 0.165
795.80 0.1649
795.90 0.1648
796.00 0.1647
796.10 0.1647
796.20 0.1646
796.30 0.1645
796.40 0.1644
796.50 0.1643
796.60 0.1643
796.70 0.1642
796.80 0.1641
796.90 0.164
797.00 0.1639
797.10 0.1638
797.20 0.1638
797.30 0.1637
797.40 0.1636
797.50 0.1635
797.60 0.1634
797.70 0.1634
797.80 0.1633
797.90 0.1632
798.00 0.1631
798.10 0.163
798.20 0.163
798.30 0.1629
798.40 0.1628
798.50 0.1627
798.60 0.1626
798.70 0.1626
798.80 0.1625
798.90 0.1624
799.00 0.1623
799.10 0.1622
799.20 0.1622
799.30 0.1621
799.40 0.162
799.50 0.1619
799.60 0.1619
799.70 0.1618
799.80 0.1617
799.90 0.1616
800.00 0.1615
800.10 0.1615
800.20 0.1614
800.30 0.1613
800.40 0.1612
800.50 0.1611
800.60 0.1611
800.70 0.161
800.80 0.1609
800.90 0.1608
801.00 0.1608
801.10 0.1607
801.20 0.1606
801.30 0.1605
801.40 0.1604
801.50 0.1604
801.60 0.1603
801.70 0.1602
801.80 0.1601
801.90 0.1601
802.00 0.16
802.10 0.1599
802.20 0.1598
802.30 0.1597
802.40 0.1597
802.50 0.1596
802.60 0.1595
802.70 0.1594
802.80 0.1594
802.90 0.1593
803.00 0.1592
803.10 0.1591
803.20 0.1591
803.30 0.159
803.40 0.1589
803.50 0.1588
803.60 0.1587
803.70 0.1587
803.80 0.1586
803.90 0.1585
804.00 0.1584
804.10 0.1584
804.20 0.1583
804.30 0.1582
804.40 0.1581
804.50 0.1581
804.60 0.158
804.70 0.1579
804.80 0.1578
804.90 0.1578
805.00 0.1577
805.10 0.1576
805.20 0.1575
805.30 0.1574
805.40 0.1574
805.50 0.1573
805.60 0.1572
805.70 0.1571
805.80 0.1571
805.90 0.157
806.00 0.1569
806.10 0.1568
806.20 0.1568
806.30 0.1567
806.40 0.1566
806.50 0.1565
806.60 0.1565
806.70 0.1564
806.80 0.1563
806.90 0.1562
807.00 0.1562
807.10 0.1561
807.20 0.156
807.30 0.1559
807.40 0.1559
807.50 0.1558
807.60 0.1557
807.70 0.1556
807.80 0.1556
807.90 0.1555
808.00 0.1554
808.10 0.1553
808.20 0.1553
808.30 0.1552
808.40 0.1551
808.50 0.155
808.60 0.155
808.70 0.1549
808.80 0.1548
808.90 0.1547
809.00 0.1547
809.10 0.1546
809.20 0.1545
809.30 0.1544
809.40 0.1544
809.50 0.1543
809.60 0.1542
809.70 0.1541
809.80 0.1541
809.90 0.154
810.00 0.1539
810.10 0.1538
810.20 0.1538
810.30 0.1537
810.40 0.1536
810.50 0.1535
810.60 0.1535
810.70 0.1534
810.80 0.1533
810.90 0.1532
811.00 0.1532
811.10 0.1531
811.20 0.153
811.30 0.153
811.40 0.1529
811.50 0.1528
811.60 0.1527
811.70 0.1527
811.80 0.1526
811.90 0.1525
812.00 0.1524
812.10 0.1524
812.20 0.1523
812.30 0.1522
812.40 0.1522
812.50 0.1521
812.60 0.152
812.70 0.1519
812.80 0.1519
812.90 0.1518
813.00 0.1517
813.10 0.1516
813.20 0.1516
813.30 0.1515
813.40 0.1514
813.50 0.1514
813.60 0.1513
813.70 0.1512
813.80 0.1511
813.90 0.1511
814.00 0.151
814.10 0.1509
814.20 0.1509
814.30 0.1508
814.40 0.1507
814.50 0.1506
814.60 0.1506
814.70 0.1505
814.80 0.1504
814.90 0.1503
815.00 0.1503
815.10 0.1502
815.20 0.1501
815.30 0.1501
815.40 0.15
815.50 0.1499
815.60 0.1498
815.70 0.1498
815.80 0.1497
815.90 0.1496
816.00 0.1496
816.10 0.1495
816.20 0.1494
816.30 0.1493
816.40 0.1493
816.50 0.1492
816.60 0.1491
816.70 0.1491
816.80 0.149
816.90 0.1489
817.00 0.1488
817.10 0.1488
817.20 0.1487
817.30 0.1486
817.40 0.1486
817.50 0.1485
817.60 0.1484
817.70 0.1483
817.80 0.1483
817.90 0.1482
818.00 0.1481
818.10 0.1481
818.20 0.148
818.30 0.1479
818.40 0.1479
818.50 0.1478
818.60 0.1477
818.70 0.1476
818.80 0.1476
818.90 0.1475
819.00 0.1474
819.10 0.1474
819.20 0.1473
819.30 0.1472
819.40 0.1471
819.50 0.1471
819.60 0.147
819.70 0.1469
819.80 0.1469
819.90 0.1468
820.00 0.1467
820.10 0.1467
820.20 0.1466
820.30 0.1465
820.40 0.1464
820.50 0.1464
820.60 0.1463
820.70 0.1462
820.80 0.1462
820.90 0.1461
821.00 0.146
821.10 0.146
821.20 0.1459
821.30 0.1458
821.40 0.1457
821.50 0.1457
821.60 0.1456
821.70 0.1455
821.80 0.1455
821.90 0.1454
822.00 0.1453
822.10 0.1453
822.20 0.1452
822.30 0.1451
822.40 0.1451
822.50 0.145
822.60 0.1449
822.70 0.1449
822.80 0.1448
822.90 0.1447
823.00 0.1447
823.10 0.1446
823.20 0.1445
823.30 0.1444
823.40 0.1444
823.50 0.1443
823.60 0.1442
823.70 0.1442
823.80 0.1441
823.90 0.144
824.00 0.144
824.10 0.1439
824.20 0.1438
824.30 0.1438
824.40 0.1437
824.50 0.1436
824.60 0.1436
824.70 0.1435
824.80 0.1434
824.90 0.1434
825.00 0.1433
825.10 0.1432
825.20 0.1432
825.30 0.1431
825.40 0.143
825.50 0.143
825.60 0.1429
825.70 0.1428
825.80 0.1427
825.90 0.1427
826.00 0.1426
826.10 0.1425
826.20 0.1425
826.30 0.1424
826.40 0.1423
826.50 0.1423
826.60 0.1422
826.70 0.1421
826.80 0.1421
826.90 0.142
827.00 0.1419
827.10 0.1419
827.20 0.1418
827.30 0.1417
827.40 0.1417
827.50 0.1416
827.60 0.1415
827.70 0.1415
827.80 0.1414
827.90 0.1413
828.00 0.1413
828.10 0.1412
828.20 0.1411
828.30 0.1411
828.40 0.141
828.50 0.1409
828.60 0.1409
828.70 0.1408
828.80 0.1407
828.90 0.1407
829.00 0.1406
829.10 0.1405
829.20 0.1405
829.30 0.1404
829.40 0.1404
829.50 0.1403
829.60 0.1402
829.70 0.1402
829.80 0.1401
829.90 0.14
830.00 0.14
830.10 0.1399
830.20 0.1398
830.30 0.1398
830.40 0.1397
830.50 0.1396
830.60 0.1396
830.70 0.1395
830.80 0.1394
830.90 0.1394
831.00 0.1393
831.10 0.1392
831.20 0.1392
831.30 0.1391
831.40 0.139
831.50 0.139
831.60 0.1389
831.70 0.1388
831.80 0.1388
831.90 0.1387
832.00 0.1386
832.10 0.1386
832.20 0.1385
832.30 0.1385
832.40 0.1384
832.50 0.1383
832.60 0.1383
832.70 0.1382
832.80 0.1381
832.90 0.1381
833.00 0.138
833.10 0.1379
833.20 0.1379
833.30 0.1378
833.40 0.1377
833.50 0.1377
833.60 0.1376
833.70 0.1375
833.80 0.1375
833.90 0.1374
834.00 0.1374
834.10 0.1373
834.20 0.1372
834.30 0.1372
834.40 0.1371
834.50 0.137
834.60 0.137
834.70 0.1369
834.80 0.1368
834.90 0.1368
835.00 0.1367
835.10 0.1367
835.20 0.1366
835.30 0.1365
835.40 0.1365
835.50 0.1364
835.60 0.1363
835.70 0.1363
835.80 0.1362
835.90 0.1361
836.00 0.1361
836.10 0.136
836.20 0.1359
836.30 0.1359
836.40 0.1358
836.50 0.1358
836.60 0.1357
836.70 0.1356
836.80 0.1356
836.90 0.1355
837.00 0.1354
837.10 0.1354
837.20 0.1353
837.30 0.1353
837.40 0.1352
837.50 0.1351
837.60 0.1351
837.70 0.135
837.80 0.1349
837.90 0.1349
838.00 0.1348
838.10 0.1348
838.20 0.1347
838.30 0.1346
838.40 0.1346
838.50 0.1345
838.60 0.1344
838.70 0.1344
838.80 0.1343
838.90 0.1343
839.00 0.1342
839.10 0.1341
839.20 0.1341
839.30 0.134
839.40 0.1339
839.50 0.1339
839.60 0.1338
839.70 0.1338
839.80 0.1337
839.90 0.1336
840.00 0.1336
840.10 0.1335
840.20 0.1334
840.30 0.1334
840.40 0.1333
840.50 0.1333
840.60 0.1332
840.70 0.1331
840.80 0.1331
840.90 0.133
841.00 0.1329
841.10 0.1329
841.20 0.1328
841.30 0.1328
841.40 0.1327
841.50 0.1326
841.60 0.1326
841.70 0.1325
841.80 0.1325
841.90 0.1324
842.00 0.1323
842.10 0.1323
842.20 0.1322
842.30 0.1321
842.40 0.1321
842.50 0.132
842.60 0.132
842.70 0.1319
842.80 0.1318
842.90 0.1318
843.00 0.1317
843.10 0.1317
843.20 0.1316
843.30 0.1315
843.40 0.1315
843.50 0.1314
843.60 0.1314
843.70 0.1313
843.80 0.1312
843.90 0.1312
844.00 0.1311
844.10 0.1311
844.20 0.131
844.30 0.1309
844.40 0.1309
844.50 0.1308
844.60 0.1308
844.70 0.1307
844.80 0.1306
844.90 0.1306
845.00 0.1305
845.10 0.1305
845.20 0.1304
845.30 0.1303
845.40 0.1303
845.50 0.1302
845.60 0.1302
845.70 0.1301
845.80 0.13
845.90 0.13
846.00 0.1299
846.10 0.1298
846.20 0.1298
846.30 0.1297
846.40 0.1297
846.50 0.1296
846.60 0.1295
846.70 0.1295
846.80 0.1294
846.90 0.1294
847.00 0.1293
847.10 0.1293
847.20 0.1292
847.30 0.1291
847.40 0.1291
847.50 0.129
847.60 0.129
847.70 0.1289
847.80 0.1288
847.90 0.1288
848.00 0.1287
848.10 0.1287
848.20 0.1286
848.30 0.1285
848.40 0.1285
848.50 0.1284
848.60 0.1284
848.70 0.1283
848.80 0.1282
848.90 0.1282
849.00 0.1281
849.10 0.1281
849.20 0.128
849.30 0.128
849.40 0.1279
849.50 0.1278
849.60 0.1278
849.70 0.1277
849.80 0.1277
849.90 0.1276
850.00 0.1275
850.10 0.1275
850.20 0.1274
850.30 0.1274
850.40 0.1273
850.50 0.1272
850.60 0.1272
850.70 0.1271
850.80 0.1271
850.90 0.127
851.00 0.127
851.10 0.1269
851.20 0.1268
851.30 0.1268
851.40 0.1267
851.50 0.1267
851.60 0.1266
851.70 0.1265
851.80 0.1265
851.90 0.1264
852.00 0.1264
852.10 0.1263
852.20 0.1263
852.30 0.1262
852.40 0.1261
852.50 0.1261
852.60 0.126
852.70 0.126
852.80 0.1259
852.90 0.1259
853.00 0.1258
853.10 0.1257
853.20 0.1257
853.30 0.1256
853.40 0.1256
853.50 0.1255
853.60 0.1255
853.70 0.1254
853.80 0.1253
853.90 0.1253
854.00 0.1252
854.10 0.1252
854.20 0.1251
854.30 0.1251
854.40 0.125
854.50 0.1249
854.60 0.1249
854.70 0.1248
854.80 0.1248
854.90 0.1247
855.00 0.1247
855.10 0.1246
855.20 0.1245
855.30 0.1245
855.40 0.1244
855.50 0.1244
855.60 0.1243
855.70 0.1243
855.80 0.1242
855.90 0.1241
856.00 0.1241
856.10 0.124
856.20 0.124
856.30 0.1239
856.40 0.1239
856.50 0.1238
856.60 0.1237
856.70 0.1237
856.80 0.1236
856.90 0.1236
857.00 0.1235
857.10 0.1235
857.20 0.1234
857.30 0.1234
857.40 0.1233
857.50 0.1232
857.60 0.1232
857.70 0.1231
857.80 0.1231
857.90 0.123
858.00 0.123
858.10 0.1229
858.20 0.1229
858.30 0.1228
858.40 0.1227
858.50 0.1227
858.60 0.1226
858.70 0.1226
858.80 0.1225
858.90 0.1225
859.00 0.1224
859.10 0.1224
859.20 0.1223
859.30 0.1222
859.40 0.1222
859.50 0.1221
859.60 0.1221
859.70 0.122
859.80 0.122
859.90 0.1219
860.00 0.1219
860.10 0.1218
860.20 0.1217
860.30 0.1217
860.40 0.1216
860.50 0.1216
860.60 0.1215
860.70 0.1215
860.80 0.1214
860.90 0.1214
861.00 0.1213
861.10 0.1212
861.20 0.1212
861.30 0.1211
861.40 0.1211
861.50 0.121
861.60 0.121
861.70 0.1209
861.80 0.1209
861.90 0.1208
862.00 0.1207
862.10 0.1207
862.20 0.1206
862.30 0.1206
862.40 0.1205
862.50 0.1205
862.60 0.1204
862.70 0.1204
862.80 0.1203
862.90 0.1203
863.00 0.1202
863.10 0.1202
863.20 0.1201
863.30 0.12
863.40 0.12
863.50 0.1199
863.60 0.1199
863.70 0.1198
863.80 0.1198
863.90 0.1197
864.00 0.1197
864.10 0.1196
864.20 0.1196
864.30 0.1195
864.40 0.1195
864.50 0.1194
864.60 0.1193
864.70 0.1193
864.80 0.1192
864.90 0.1192
865.00 0.1191
865.10 0.1191
865.20 0.119
865.30 0.119
865.40 0.1189
865.50 0.1189
865.60 0.1188
865.70 0.1188
865.80 0.1187
865.90 0.1186
866.00 0.1186
866.10 0.1185
866.20 0.1185
866.30 0.1184
866.40 0.1184
866.50 0.1183
866.60 0.1183
866.70 0.1182
866.80 0.1182
866.90 0.1181
867.00 0.1181
867.10 0.118
867.20 0.118
867.30 0.1179
867.40 0.1178
867.50 0.1178
867.60 0.1177
867.70 0.1177
867.80 0.1176
867.90 0.1176
868.00 0.1175
868.10 0.1175
868.20 0.1174
868.30 0.1174
868.40 0.1173
868.50 0.1173
868.60 0.1172
868.70 0.1172
868.80 0.1171
868.90 0.1171
869.00 0.117
869.10 0.117
869.20 0.1169
869.30 0.1168
869.40 0.1168
869.50 0.1167
869.60 0.1167
869.70 0.1166
869.80 0.1166
869.90 0.1165
870.00 0.1165
870.10 0.1164
870.20 0.1164
870.30 0.1163
870.40 0.1163
870.50 0.1162
870.60 0.1162
870.70 0.1161
870.80 0.1161
870.90 0.116
871.00 0.116
871.10 0.1159
871.20 0.1159
871.30 0.1158
871.40 0.1158
871.50 0.1157
871.60 0.1156
871.70 0.1156
871.80 0.1155
871.90 0.1155
872.00 0.1154
872.10 0.1154
872.20 0.1153
872.30 0.1153
872.40 0.1152
872.50 0.1152
872.60 0.1151
872.70 0.1151
872.80 0.115
872.90 0.115
873.00 0.1149
873.10 0.1149
873.20 0.1148
873.30 0.1148
873.40 0.1147
873.50 0.1147
873.60 0.1146
873.70 0.1146
873.80 0.1145
873.90 0.1145
874.00 0.1144
874.10 0.1144
874.20 0.1143
874.30 0.1143
874.40 0.1142
874.50 0.1142
874.60 0.1141
874.70 0.1141
874.80 0.114
874.90 0.114
875.00 0.1139
875.10 0.1139
875.20 0.1138
875.30 0.1138
875.40 0.1137
875.50 0.1137
875.60 0.1136
875.70 0.1136
875.80 0.1135
875.90 0.1135
876.00 0.1134
876.10 0.1134
876.20 0.1133
876.30 0.1133
876.40 0.1132
876.50 0.1132
876.60 0.1131
876.70 0.113
876.80 0.113
876.90 0.1129
877.00 0.1129
877.10 0.1128
877.20 0.1128
877.30 0.1127
877.40 0.1127
877.50 0.1126
877.60 0.1126
877.70 0.1125
877.80 0.1125
877.90 0.1124
878.00 0.1124
878.10 0.1123
878.20 0.1123
878.30 0.1123
878.40 0.1122
878.50 0.1122
878.60 0.1121
878.70 0.1121
878.80 0.112
878.90 0.112
879.00 0.1119
879.10 0.1119
879.20 0.1118
879.30 0.1118
879.40 0.1117
879.50 0.1117
879.60 0.1116
879.70 0.1116
879.80 0.1115
879.90 0.1115
880.00 0.1114
880.10 0.1114
880.20 0.1113
880.30 0.1113
880.40 0.1112
880.50 0.1112
880.60 0.1111
880.70 0.1111
880.80 0.111
880.90 0.111
881.00 0.1109
881.10 0.1109
881.20 0.1108
881.30 0.1108
881.40 0.1107
881.50 0.1107
881.60 0.1106
881.70 0.1106
881.80 0.1105
881.90 0.1105
882.00 0.1104
882.10 0.1104
882.20 0.1103
882.30 0.1103
882.40 0.1102
882.50 0.1102
882.60 0.1101
882.70 0.1101
882.80 0.11
882.90 0.11
883.00 0.1099
883.10 0.1099
883.20 0.1098
883.30 0.1098
883.40 0.1097
883.50 0.1097
883.60 0.1097
883.70 0.1096
883.80 0.1096
883.90 0.1095
884.00 0.1095
884.10 0.1094
884.20 0.1094
884.30 0.1093
884.40 0.1093
884.50 0.1092
884.60 0.1092
884.70 0.1091
884.80 0.1091
884.90 0.109
885.00 0.109
885.10 0.1089
885.20 0.1089
885.30 0.1088
885.40 0.1088
885.50 0.1087
885.60 0.1087
885.70 0.1086
885.80 0.1086
885.90 0.1086
886.00 0.1085
886.10 0.1085
886.20 0.1084
886.30 0.1084
886.40 0.1083
886.50 0.1083
886.60 0.1082
886.70 0.1082
886.80 0.1081
886.90 0.1081
887.00 0.108
887.10 0.108
887.20 0.1079
887.30 0.1079
887.40 0.1078
887.50 0.1078
887.60 0.1077
887.70 0.1077
887.80 0.1077
887.90 0.1076
888.00 0.1076
888.10 0.1075
888.20 0.1075
888.30 0.1074
888.40 0.1074
888.50 0.1073
888.60 0.1073
888.70 0.1072
888.80 0.1072
888.90 0.1071
889.00 0.1071
889.10 0.107
889.20 0.107
889.30 0.1069
889.40 0.1069
889.50 0.1069
889.60 0.1068
889.70 0.1068
889.80 0.1067
889.90 0.1067
890.00 0.1066
890.10 0.1066
890.20 0.1065
890.30 0.1065
890.40 0.1064
890.50 0.1064
890.60 0.1063
890.70 0.1063
890.80 0.1062
890.90 0.1062
891.00 0.1061
891.10 0.1061
891.20 0.1061
891.30 0.106
891.40 0.106
891.50 0.1059
891.60 0.1059
891.70 0.1058
891.80 0.1058
891.90 0.1057
892.00 0.1057
892.10 0.1056
892.20 0.1056
892.30 0.1055
892.40 0.1055
892.50 0.1054
892.60 0.1054
892.70 0.1054
892.80 0.1053
892.90 0.1053
893.00 0.1052
893.10 0.1052
893.20 0.1051
893.30 0.1051
893.40 0.105
893.50 0.105
893.60 0.1049
893.70 0.1049
893.80 0.1049
893.90 0.1048
894.00 0.1048
894.10 0.1047
894.20 0.1047
894.30 0.1046
894.40 0.1046
894.50 0.1045
894.60 0.1045
894.70 0.1044
894.80 0.1044
894.90 0.1044
895.00 0.1043
895.10 0.1043
895.20 0.1042
895.30 0.1042
895.40 0.1041
895.50 0.1041
895.60 0.104
895.70 0.104
895.80 0.1039
895.90 0.1039
896.00 0.1038
896.10 0.1038
896.20 0.1038
896.30 0.1037
896.40 0.1037
896.50 0.1036
896.60 0.1036
896.70 0.1035
896.80 0.1035
896.90 0.1034
897.00 0.1034
897.10 0.1034
897.20 0.1033
897.30 0.1033
897.40 0.1032
897.50 0.1032
897.60 0.1031
897.70 0.1031
897.80 0.103
897.90 0.103
898.00 0.103
898.10 0.1029
898.20 0.1029
898.30 0.1028
898.40 0.1028
898.50 0.1027
898.60 0.1027
898.70 0.1026
898.80 0.1026
898.90 0.1026
899.00 0.1025
899.10 0.1025
899.20 0.1024
899.30 0.1024
899.40 0.1023
899.50 0.1023
899.60 0.1023
899.70 0.1022
899.80 0.1022
899.90 0.1021
900.00 0.1021
900.10 0.102
900.20 0.102
900.30 0.1019
900.40 0.1019
900.50 0.1019
900.60 0.1018
900.70 0.1018
900.80 0.1017
900.90 0.1017
901.00 0.1016
901.10 0.1016
901.20 0.1016
901.30 0.1015
901.40 0.1015
901.50 0.1014
901.60 0.1014
901.70 0.1013
901.80 0.1013
901.90 0.1012
902.00 0.1012
902.10 0.1012
902.20 0.1011
902.30 0.1011
902.40 0.101
902.50 0.101
902.60 0.1009
902.70 0.1009
902.80 0.1009
902.90 0.1008
903.00 0.1008
903.10 0.1007
903.20 0.1007
903.30 0.1006
903.40 0.1006
903.50 0.1005
903.60 0.1005
903.70 0.1005
903.80 0.1004
903.90 0.1004
904.00 0.1003
904.10 0.1003
904.20 0.1002
904.30 0.1002
904.40 0.1002
904.50 0.1001
904.60 0.1001
904.70 0.1
904.80 0.09999
904.90 0.09994
905.00 0.0999
905.10 0.09986
905.20 0.09981
905.30 0.09977
905.40 0.09973
905.50 0.09968
905.60 0.09964
905.70 0.0996
905.80 0.09955
905.90 0.09951
906.00 0.09947
906.10 0.09943
906.20 0.09938
906.30 0.09934
906.40 0.0993
906.50 0.09925
906.60 0.09921
906.70 0.09917
906.80 0.09912
906.90 0.09908
907.00 0.09904
907.10 0.099
907.20 0.09895
907.30 0.09891
907.40 0.09887
907.50 0.09883
907.60 0.09879
907.70 0.09874
907.80 0.0987
907.90 0.09866
908.00 0.09862
908.10 0.09857
908.20 0.09853
908.30 0.09849
908.40 0.09845
908.50 0.09841
908.60 0.09836
908.70 0.09832
908.80 0.09828
908.90 0.09824
909.00 0.0982
909.10 0.09815
909.20 0.09811
909.30 0.09807
909.40 0.09803
909.50 0.09799
909.60 0.09794
909.70 0.0979
909.80 0.09786
909.90 0.09782
910.00 0.09778
910.10 0.09773
910.20 0.09769
910.30 0.09765
910.40 0.09761
910.50 0.09757
910.60 0.09753
910.70 0.09748
910.80 0.09744
910.90 0.0974
911.00 0.09736
911.10 0.09732
911.20 0.09728
911.30 0.09723
911.40 0.09719
911.50 0.09715
911.60 0.09711
911.70 0.09707
911.80 0.09703
911.90 0.09698
912.00 0.09694
912.10 0.0969
912.20 0.09686
912.30 0.09682
912.40 0.09678
912.50 0.09673
912.60 0.09669
912.70 0.09665
912.80 0.09661
912.90 0.09657
913.00 0.09652
913.10 0.09648
913.20 0.09644
913.30 0.0964
913.40 0.09636
913.50 0.09632
913.60 0.09627
913.70 0.09623
913.80 0.09619
913.90 0.09615
914.00 0.09611
914.10 0.09607
914.20 0.09603
914.30 0.09598
914.40 0.09594
914.50 0.0959
914.60 0.09586
914.70 0.09582
914.80 0.09578
914.90 0.09573
915.00 0.09569
915.10 0.09565
915.20 0.09561
915.30 0.09557
915.40 0.09553
915.50 0.09549
915.60 0.09544
915.70 0.0954
915.80 0.09536
915.90 0.09532
916.00 0.09528
916.10 0.09524
916.20 0.0952
916.30 0.09516
916.40 0.09511
916.50 0.09507
916.60 0.09503
916.70 0.09499
916.80 0.09495
916.90 0.09491
917.00 0.09487
917.10 0.09483
917.20 0.09479
917.30 0.09475
917.40 0.09471
917.50 0.09467
917.60 0.09463
917.70 0.09458
917.80 0.09454
917.90 0.0945
918.00 0.09446
918.10 0.09442
918.20 0.09438
918.30 0.09434
918.40 0.0943
918.50 0.09426
918.60 0.09422
918.70 0.09418
918.80 0.09414
918.90 0.0941
919.00 0.09406
919.10 0.09402
919.20 0.09398
919.30 0.09394
919.40 0.0939
919.50 0.09386
919.60 0.09382
919.70 0.09378
919.80 0.09374
919.90 0.0937
920.00 0.09366
920.10 0.09362
920.20 0.09358
920.30 0.09354
920.40 0.0935
920.50 0.09346
920.60 0.09342
920.70 0.09338
920.80 0.09334
920.90 0.0933
921.00 0.09326
921.10 0.09322
921.20 0.09318
921.30 0.09314
921.40 0.0931
921.50 0.09306
921.60 0.09302
921.70 0.09298
921.80 0.09294
921.90 0.0929
922.00 0.09286
922.10 0.09282
922.20 0.09279
922.30 0.09275
922.40 0.09271
922.50 0.09267
922.60 0.09263
922.70 0.09259
922.80 0.09255
922.90 0.09251
923.00 0.09247
923.10 0.09244
923.20 0.0924
923.30 0.09236
923.40 0.09232
923.50 0.09228
923.60 0.09224
923.70 0.0922
923.80 0.09216
923.90 0.09213
924.00 0.09209
924.10 0.09205
924.20 0.09201
924.30 0.09197
924.40 0.09193
924.50 0.09189
924.60 0.09186
924.70 0.09182
924.80 0.09178
924.90 0.09174
925.00 0.0917
925.10 0.09166
925.20 0.09163
925.30 0.09159
925.40 0.09155
925.50 0.09151
925.60 0.09147
925.70 0.09143
925.80 0.09139
925.90 0.09136
926.00 0.09132
926.10 0.09128
926.20 0.09124
926.30 0.0912
926.40 0.09116
926.50 0.09113
926.60 0.09109
926.70 0.09105
926.80 0.09101
926.90 0.09097
927.00 0.09093
927.10 0.0909
927.20 0.09086
927.30 0.09082
927.40 0.09079
927.50 0.09075
927.60 0.09071
927.70 0.09068
927.80 0.09064
927.90 0.0906
928.00 0.09057
928.10 0.09053
928.20 0.09049
928.30 0.09046
928.40 0.09042
928.50 0.09038
928.60 0.09034
928.70 0.09031
928.80 0.09027
928.90 0.09023
929.00 0.0902
929.10 0.09016
929.20 0.09012
929.30 0.09009
929.40 0.09005
929.50 0.09001
929.60 0.08998
929.70 0.08994
929.80 0.0899
929.90 0.08987
930.00 0.08983
930.10 0.08979
930.20 0.08976
930.30 0.08972
930.40 0.08968
930.50 0.08965
930.60 0.08961
930.70 0.08958
930.80 0.08954
930.90 0.0895
931.00 0.08947
931.10 0.08943
931.20 0.08939
931.30 0.08936
931.40 0.08932
931.50 0.08928
931.60 0.08925
931.70 0.08921
931.80 0.08917
931.90 0.08914
932.00 0.0891
932.10 0.08907
932.20 0.08903
932.30 0.08899
932.40 0.08896
932.50 0.08892
932.60 0.08888
932.70 0.08885
932.80 0.08881
932.90 0.08877
933.00 0.08874
933.10 0.0887
933.20 0.08866
933.30 0.08863
933.40 0.08859
933.50 0.08855
933.60 0.08852
933.70 0.08848
933.80 0.08845
933.90 0.08841
934.00 0.08837
934.10 0.08834
934.20 0.0883
934.30 0.08826
934.40 0.08823
934.50 0.08819
934.60 0.08815
934.70 0.08812
934.80 0.08808
934.90 0.08804
935.00 0.08801
935.10 0.08797
935.20 0.08794
935.30 0.0879
935.40 0.08786
935.50 0.08783
935.60 0.08779
935.70 0.08775
935.80 0.08772
935.90 0.08768
936.00 0.08764
936.10 0.08761
936.20 0.08757
936.30 0.08754
936.40 0.0875
936.50 0.08746
936.60 0.08743
936.70 0.08739
936.80 0.08735
936.90 0.08732
937.00 0.08728
937.10 0.08725
937.20 0.08721
937.30 0.08717
937.40 0.08714
937.50 0.0871
937.60 0.08706
937.70 0.08703
937.80 0.08699
937.90 0.08696
938.00 0.08692
938.10 0.08688
938.20 0.08685
938.30 0.08681
938.40 0.08677
938.50 0.08674
938.60 0.0867
938.70 0.08667
938.80 0.08663
938.90 0.08659
939.00 0.08656
939.10 0.08652
939.20 0.08648
939.30 0.08645
939.40 0.08641
939.50 0.08638
939.60 0.08634
939.70 0.0863
939.80 0.08627
939.90 0.08623
940.00 0.0862
940.10 0.08616
940.20 0.08612
940.30 0.08609
940.40 0.08605
940.50 0.08602
940.60 0.08598
940.70 0.08594
940.80 0.08591
940.90 0.08587
941.00 0.08583
941.10 0.0858
941.20 0.08576
941.30 0.08573
941.40 0.08569
941.50 0.08565
941.60 0.08562
941.70 0.08558
941.80 0.08555
941.90 0.08551
942.00 0.08547
942.10 0.08544
942.20 0.0854
942.30 0.08536
942.40 0.08533
942.50 0.08529
942.60 0.08526
942.70 0.08522
942.80 0.08518
942.90 0.08515
943.00 0.08511
943.10 0.08508
943.20 0.08504
943.30 0.085
943.40 0.08497
943.50 0.08493
943.60 0.08489
943.70 0.08486
943.80 0.08482
943.90 0.08479
944.00 0.08475
944.10 0.08471
944.20 0.08468
944.30 0.08464
944.40 0.08461
944.50 0.08457
944.60 0.08453
944.70 0.0845
944.80 0.08446
944.90 0.08443
945.00 0.08439
945.10 0.08435
945.20 0.08432
945.30 0.08428
945.40 0.08424
945.50 0.08421
945.60 0.08417
945.70 0.08413
945.80 0.0841
945.90 0.08406
946.00 0.08403
946.10 0.08399
946.20 0.08395
946.30 0.08392
946.40 0.08388
946.50 0.08384
946.60 0.08381
946.70 0.08377
946.80 0.08374
946.90 0.0837
947.00 0.08366
947.10 0.08363
947.20 0.08359
947.30 0.08355
947.40 0.08352
947.50 0.08348
947.60 0.08344
947.70 0.08341
947.80 0.08337
947.90 0.08333
948.00 0.0833
948.10 0.08326
948.20 0.08322
948.30 0.08319
948.40 0.08315
948.50 0.08311
948.60 0.08308
948.70 0.08304
948.80 0.08301
948.90 0.08297
949.00 0.08293
949.10 0.0829
949.20 0.08286
949.30 0.08282
949.40 0.08279
949.50 0.08275
949.60 0.08271
949.70 0.08268
949.80 0.08264
949.90 0.0826
950.00 0.08257
950.10 0.08253
950.20 0.08249
950.30 0.08246
950.40 0.08242
950.50 0.08238
950.60 0.08235
950.70 0.08231
950.80 0.08227
950.90 0.08224
951.00 0.0822
951.10 0.08216
951.20 0.08213
951.30 0.08209
951.40 0.08206
951.50 0.08202
951.60 0.08198
951.70 0.08195
951.80 0.08191
951.90 0.08188
952.00 0.08184
952.10 0.08181
952.20 0.08177
952.30 0.08174
952.40 0.0817
952.50 0.08167
952.60 0.08163
952.70 0.0816
952.80 0.08156
952.90 0.08153
953.00 0.0815
953.10 0.08146
953.20 0.08143
953.30 0.0814
953.40 0.08137
953.50 0.08133
953.60 0.0813
953.70 0.08127
953.80 0.08124
953.90 0.08121
954.00 0.08119
954.10 0.08116
954.20 0.08113
954.30 0.08111
954.40 0.08108
954.50 0.08106
954.60 0.08102
954.70 0.08099
954.80 0.08095
954.90 0.08091
955.00 0.08087
955.10 0.08083
955.20 0.08079
955.30 0.08075
955.40 0.08072
955.50 0.08068
955.60 0.08064
955.70 0.08061
955.80 0.08057
955.90 0.08054
956.00 0.08051
956.10 0.08048
956.20 0.08044
956.30 0.08041
956.40 0.08038
956.50 0.08035
956.60 0.08031
956.70 0.08028
956.80 0.08025
956.90 0.08022
957.00 0.08019
957.10 0.08016
957.20 0.08013
957.30 0.0801
957.40 0.08007
957.50 0.08004
957.60 0.08001
957.70 0.07998
957.80 0.07995
957.90 0.07992
958.00 0.07989
958.10 0.07986
958.20 0.07983
958.30 0.0798
958.40 0.07977
958.50 0.07974
958.60 0.07971
958.70 0.07968
958.80 0.07965
958.90 0.07962
959.00 0.07959
959.10 0.07956
959.20 0.07953
959.30 0.0795
959.40 0.07947
959.50 0.07944
959.60 0.07941
959.70 0.07938
959.80 0.07935
959.90 0.07932
960.00 0.07929
960.10 0.07926
960.20 0.07923
960.30 0.0792
960.40 0.07917
960.50 0.07914
960.60 0.07911
960.70 0.07908
960.80 0.07905
960.90 0.07902
961.00 0.07899
961.10 0.07897
961.20 0.07894
961.30 0.07891
961.40 0.07888
961.50 0.07885
961.60 0.07882
961.70 0.07879
961.80 0.07876
961.90 0.07873
962.00 0.0787
962.10 0.07867
962.20 0.07864
962.30 0.07861
962.40 0.07858
962.50 0.07855
962.60 0.07852
962.70 0.07849
962.80 0.07846
962.90 0.07843
963.00 0.0784
963.10 0.07837
963.20 0.07834
963.30 0.07831
963.40 0.07828
963.50 0.07825
963.60 0.07822
963.70 0.07819
963.80 0.07816
963.90 0.07813
964.00 0.0781
964.10 0.07807
964.20 0.07804
964.30 0.07801
964.40 0.07798
964.50 0.07794
964.60 0.07791
964.70 0.07788
964.80 0.07785
964.90 0.07782
965.00 0.07779
965.10 0.07776
965.20 0.07773
965.30 0.0777
965.40 0.07767
965.50 0.07764
965.60 0.07761
965.70 0.07758
965.80 0.07755
965.90 0.07752
966.00 0.07749
966.10 0.07746
966.20 0.07743
966.30 0.0774
966.40 0.07737
966.50 0.07734
966.60 0.07731
966.70 0.07728
966.80 0.07725
966.90 0.07722
967.00 0.07719
967.10 0.07716
967.20 0.07713
967.30 0.0771
967.40 0.07707
967.50 0.07704
967.60 0.07701
967.70 0.07698
967.80 0.07695
967.90 0.07692
968.00 0.07689
968.10 0.07686
968.20 0.07683
968.30 0.0768
968.40 0.07676
968.50 0.07673
968.60 0.0767
968.70 0.07667
968.80 0.07664
968.90 0.07661
969.00 0.07658
969.10 0.07655
969.20 0.07652
969.30 0.07649
969.40 0.07646
969.50 0.07643
969.60 0.0764
969.70 0.07637
969.80 0.07634
969.90 0.07631
970.00 0.07628
970.10 0.07625
970.20 0.07622
970.30 0.07619
970.40 0.07616
970.50 0.07613
970.60 0.0761
970.70 0.07607
970.80 0.07604
970.90 0.07601
971.00 0.07598
971.10 0.07595
971.20 0.07592
971.30 0.07589
971.40 0.07586
971.50 0.07583
971.60 0.0758
971.70 0.07577
971.80 0.07574
971.90 0.07571
972.00 0.07568
972.10 0.07565
972.20 0.07562
972.30 0.07559
972.40 0.07556
972.50 0.07553
972.60 0.0755
972.70 0.07547
972.80 0.07544
972.90 0.07541
973.00 0.07538
973.10 0.07535
973.20 0.07532
973.30 0.07529
973.40 0.07526
973.50 0.07523
973.60 0.0752
973.70 0.07517
973.80 0.07514
973.90 0.07511
974.00 0.07508
974.10 0.07505
974.20 0.07502
974.30 0.07499
974.40 0.07496
974.50 0.07493
974.60 0.0749
974.70 0.07487
974.80 0.07484
974.90 0.07481
975.00 0.07478
975.10 0.07475
975.20 0.07472
975.30 0.07469
975.40 0.07466
975.50 0.07463
975.60 0.0746
975.70 0.07457
975.80 0.07454
975.90 0.07451
976.00 0.07448
976.10 0.07445
976.20 0.07442
976.30 0.07439
976.40 0.07437
976.50 0.07434
976.60 0.07431
976.70 0.07428
976.80 0.07425
976.90 0.07422
977.00 0.07419
977.10 0.07416
977.20 0.07413
977.30 0.0741
977.40 0.07407
977.50 0.07404
977.60 0.07401
977.70 0.07398
977.80 0.07395
977.90 0.07392
978.00 0.07389
978.10 0.07386
978.20 0.07383
978.30 0.0738
978.40 0.07377
978.50 0.07375
978.60 0.07372
978.70 0.07369
978.80 0.07366
978.90 0.07363
979.00 0.0736
979.10 0.07357
979.20 0.07354
979.30 0.07351
979.40 0.07348
979.50 0.07345
979.60 0.07342
979.70 0.07339
979.80 0.07336
979.90 0.07333
980.00 0.07331
980.10 0.07328
980.20 0.07325
980.30 0.07322
980.40 0.07319
980.50 0.07316
980.60 0.07313
980.70 0.0731
980.80 0.07307
980.90 0.07304
981.00 0.07301
981.10 0.07298
981.20 0.07296
981.30 0.07293
981.40 0.0729
981.50 0.07287
981.60 0.07284
981.70 0.07281
981.80 0.07278
981.90 0.07275
982.00 0.07272
982.10 0.07269
982.20 0.07266
982.30 0.07264
982.40 0.07261
982.50 0.07258
982.60 0.07255
982.70 0.07252
982.80 0.07249
982.90 0.07246
983.00 0.07243
983.10 0.0724
983.20 0.07238
983.30 0.07235
983.40 0.07232
983.50 0.07229
983.60 0.07226
983.70 0.07223
983.80 0.0722
983.90 0.07217
984.00 0.07214
984.10 0.07212
984.20 0.07209
984.30 0.07206
984.40 0.07203
984.50 0.072
984.60 0.07197
984.70 0.07194
984.80 0.07191
984.90 0.07188
985.00 0.07186
985.10 0.07183
985.20 0.0718
985.30 0.07177
985.40 0.07174
985.50 0.07171
985.60 0.07168
985.70 0.07166
985.80 0.07163
985.90 0.0716
986.00 0.07157
986.10 0.07154
986.20 0.07151
986.30 0.07148
986.40 0.07145
986.50 0.07143
986.60 0.0714
986.70 0.07137
986.80 0.07134
986.90 0.07131
987.00 0.07128
987.10 0.07125
987.20 0.07123
987.30 0.0712
987.40 0.07117
987.50 0.07114
987.60 0.07111
987.70 0.07108
987.80 0.07105
987.90 0.07103
988.00 0.071
988.10 0.07097
988.20 0.07094
988.30 0.07091
988.40 0.07088
988.50 0.07085
988.60 0.07083
988.70 0.0708
988.80 0.07077
988.90 0.07074
989.00 0.07071
989.10 0.07068
989.20 0.07065
989.30 0.07063
989.40 0.0706
989.50 0.07057
989.60 0.07054
989.70 0.07051
989.80 0.07048
989.90 0.07046
990.00 0.07043
990.10 0.0704
990.20 0.07037
990.30 0.07034
990.40 0.07031
990.50 0.07029
990.60 0.07026
990.70 0.07023
990.80 0.0702
990.90 0.07017
991.00 0.07014
991.10 0.07011
991.20 0.07009
991.30 0.07006
991.40 0.07003
991.50 0.07
991.60 0.06997
991.70 0.06994
991.80 0.06991
991.90 0.06989
992.00 0.06986
992.10 0.06983
992.20 0.0698
992.30 0.06977
992.40 0.06974
992.50 0.06971
992.60 0.06969
992.70 0.06966
992.80 0.06963
992.90 0.0696
993.00 0.06957
993.10 0.06954
993.20 0.06951
993.30 0.06948
993.40 0.06946
993.50 0.06943
993.60 0.0694
993.70 0.06937
993.80 0.06934
993.90 0.06931
994.00 0.06928
994.10 0.06925
994.20 0.06923
994.30 0.0692
994.40 0.06917
994.50 0.06914
994.60 0.06911
994.70 0.06908
994.80 0.06905
994.90 0.06902
995.00 0.069
995.10 0.06897
995.20 0.06894
995.30 0.06891
995.40 0.06888
995.50 0.06885
995.60 0.06882
995.70 0.06879
995.80 0.06876
995.90 0.06873
996.00 0.0687
996.10 0.06867
996.20 0.06865
996.30 0.06862
996.40 0.06859
996.50 0.06856
996.60 0.06853
996.70 0.0685
996.80 0.06847
996.90 0.06844
997.00 0.06841
997.10 0.06838
997.20 0.06835
997.30 0.06832
997.40 0.06829
997.50 0.06826
997.60 0.06823
997.70 0.0682
997.80 0.06817
997.90 0.06814
998.00 0.06811
998.10 0.06808
998.20 0.06805
998.30 0.06802
998.40 0.06799
998.50 0.06796
998.60 0.06793
998.70 0.0679
998.80 0.06787
998.90 0.06783
999.00 0.0678
999.10 0.06777
999.20 0.06774
999.30 0.06771
999.40 0.06768
999.50 0.06765
999.60 0.06762
999.70 0.06759
999.80 0.06756
999.90 0.06753
1000.00 0.06749
1000.10 0.06746
1000.20 0.06743
1000.30 0.0674
1000.40 0.06737
1000.50 0.06733
1000.60 0.0673
1000.70 0.06727
1000.80 0.06724
1000.90 0.0672
1001.00 0.06717
1001.10 0.06714
1001.20 0.06711
1001.30 0.06708
1001.40 0.06705
1001.50 0.06701
1001.60 0.06698
1001.70 0.06695
1001.80 0.06692
1001.90 0.06689
1002.00 0.06685
1002.10 0.06682
1002.20 0.06679
1002.30 0.06676
1002.40 0.06673
1002.50 0.0667
1002.60 0.06667
1002.70 0.06664
1002.80 0.06661
1002.90 0.06657
1003.00 0.06654
1003.10 0.06651
1003.20 0.06649
1003.30 0.06646
1003.40 0.06643
1003.50 0.06641
1003.60 0.06638
1003.70 0.06635
1003.80 0.06633
1003.90 0.06631
1004.00 0.06629
1004.10 0.06628
1004.20 0.06626
1004.30 0.06625
1004.40 0.06625
1004.50 0.06624
1004.60 0.06625
1004.70 0.06625
1004.80 0.06625
1004.90 0.06622
1005.00 0.0662
1005.10 0.06616
1005.20 0.0661
1005.30 0.06605
1005.40 0.066
1005.50 0.06596
1005.60 0.06593
1005.70 0.06589
1005.80 0.06585
1005.90 0.06582
1006.00 0.06578
1006.10 0.06574
1006.20 0.06571
1006.30 0.06569
1006.40 0.06567
1006.50 0.06564
1006.60 0.06562
1006.70 0.0656
1006.80 0.06557
1006.90 0.06555
1007.00 0.06552
1007.10 0.0655
1007.20 0.06548
1007.30 0.06546
1007.40 0.06544
1007.50 0.06542
1007.60 0.0654
1007.70 0.06538
1007.80 0.06536
1007.90 0.06535
1008.00 0.06533
1008.10 0.06531
1008.20 0.06529
1008.30 0.06527
1008.40 0.06525
1008.50 0.06523
1008.60 0.06521
1008.70 0.06519
1008.80 0.06517
1008.90 0.06515
1009.00 0.06513
1009.10 0.06511
1009.20 0.06509
1009.30 0.06507
1009.40 0.06505
1009.50 0.06503
1009.60 0.06501
1009.70 0.06499
1009.80 0.06497
1009.90 0.06495
1010.00 0.06493
1010.10 0.06491
1010.20 0.06489
1010.30 0.06487
1010.40 0.06484
1010.50 0.06482
1010.60 0.0648
1010.70 0.06478
1010.80 0.06476
1010.90 0.06474
1011.00 0.06472
1011.10 0.0647
1011.20 0.06468
1011.30 0.06466
1011.40 0.06464
1011.50 0.06461
1011.60 0.06459
1011.70 0.06457
1011.80 0.06455
1011.90 0.06453
1012.00 0.06451
1012.10 0.06448
1012.20 0.06446
1012.30 0.06444
1012.40 0.06442
1012.50 0.0644
1012.60 0.06437
1012.70 0.06435
1012.80 0.06433
1012.90 0.06431
1013.00 0.06428
1013.10 0.06426
1013.20 0.06424
1013.30 0.06422
1013.40 0.0642
1013.50 0.06417
1013.60 0.06415
1013.70 0.06413
1013.80 0.06411
1013.90 0.06408
1014.00 0.06406
1014.10 0.06404
1014.20 0.06401
1014.30 0.06399
1014.40 0.06397
1014.50 0.06395
1014.60 0.06392
1014.70 0.0639
1014.80 0.06388
1014.90 0.06385
1015.00 0.06383
1015.10 0.06381
1015.20 0.06379
1015.30 0.06376
1015.40 0.06374
1015.50 0.06372
1015.60 0.06369
1015.70 0.06367
1015.80 0.06365
1015.90 0.06362
1016.00 0.0636
1016.10 0.06358
1016.20 0.06355
1016.30 0.06353
1016.40 0.06351
1016.50 0.06348
1016.60 0.06346
1016.70 0.06344
1016.80 0.06342
1016.90 0.06339
1017.00 0.06337
1017.10 0.06335
1017.20 0.06332
1017.30 0.0633
1017.40 0.06328
1017.50 0.06325
1017.60 0.06323
1017.70 0.0632
1017.80 0.06318
1017.90 0.06316
1018.00 0.06313
1018.10 0.06311
1018.20 0.06309
1018.30 0.06306
1018.40 0.06304
1018.50 0.06302
1018.60 0.06299
1018.70 0.06297
1018.80 0.06295
1018.90 0.06292
1019.00 0.0629
1019.10 0.06288
1019.20 0.06285
1019.30 0.06283
1019.40 0.06281
1019.50 0.06278
1019.60 0.06276
1019.70 0.06274
1019.80 0.06271
1019.90 0.06269
1020.00 0.06267
1020.10 0.06264
1020.20 0.06262
1020.30 0.0626
1020.40 0.06257
1020.50 0.06255
1020.60 0.06253
1020.70 0.0625
1020.80 0.06248
1020.90 0.06246
1021.00 0.06243
1021.10 0.06241
1021.20 0.06239
1021.30 0.06236
1021.40 0.06234
1021.50 0.06232
1021.60 0.06229
1021.70 0.06227
1021.80 0.06224
1021.90 0.06222
1022.00 0.0622
1022.10 0.06217
1022.20 0.06215
1022.30 0.06213
1022.40 0.0621
1022.50 0.06208
1022.60 0.06206
1022.70 0.06203
1022.80 0.06201
1022.90 0.06199
1023.00 0.06196
1023.10 0.06194
1023.20 0.06192
1023.30 0.06189
1023.40 0.06187
1023.50 0.06185
1023.60 0.06182
1023.70 0.0618
1023.80 0.06178
1023.90 0.06175
1024.00 0.06173
1024.10 0.06171
1024.20 0.06168
1024.30 0.06166
1024.40 0.06164
1024.50 0.06161
1024.60 0.06159
1024.70 0.06157
1024.80 0.06155
1024.90 0.06152
1025.00 0.0615
1025.10 0.06148
1025.20 0.06145
1025.30 0.06143
1025.40 0.06141
1025.50 0.06138
1025.60 0.06136
1025.70 0.06134
1025.80 0.06131
1025.90 0.06129
1026.00 0.06127
1026.10 0.06124
1026.20 0.06122
1026.30 0.0612
1026.40 0.06117
1026.50 0.06115
1026.60 0.06113
1026.70 0.06111
1026.80 0.06108
1026.90 0.06106
1027.00 0.06104
1027.10 0.06101
1027.20 0.06099
1027.30 0.06097
1027.40 0.06094
1027.50 0.06092
1027.60 0.0609
1027.70 0.06087
1027.80 0.06085
1027.90 0.06083
1028.00 0.06081
1028.10 0.06078
1028.20 0.06076
1028.30 0.06074
1028.40 0.06071
1028.50 0.06069
1028.60 0.06067
1028.70 0.06065
1028.80 0.06062
1028.90 0.0606
1029.00 0.06058
1029.10 0.06055
1029.20 0.06053
1029.30 0.06051
1029.40 0.06049
1029.50 0.06046
1029.60 0.06044
1029.70 0.06042
1029.80 0.06039
1029.90 0.06037
1030.00 0.06035
1030.10 0.06033
1030.20 0.0603
1030.30 0.06028
1030.40 0.06026
1030.50 0.06023
1030.60 0.06021
1030.70 0.06019
1030.80 0.06017
1030.90 0.06014
1031.00 0.06012
1031.10 0.0601
1031.20 0.06008
1031.30 0.06005
1031.40 0.06003
1031.50 0.06001
1031.60 0.05998
1031.70 0.05996
1031.80 0.05994
1031.90 0.05992
1032.00 0.05989
1032.10 0.05987
1032.20 0.05985
1032.30 0.05983
1032.40 0.0598
1032.50 0.05978
1032.60 0.05976
1032.70 0.05974
1032.80 0.05971
1032.90 0.05969
1033.00 0.05967
1033.10 0.05965
1033.20 0.05962
1033.30 0.0596
1033.40 0.05958
1033.50 0.05956
1033.60 0.05953
1033.70 0.05951
1033.80 0.05949
1033.90 0.05947
1034.00 0.05945
1034.10 0.05942
1034.20 0.0594
1034.30 0.05938
1034.40 0.05936
1034.50 0.05933
1034.60 0.05931
1034.70 0.05929
1034.80 0.05927
1034.90 0.05924
1035.00 0.05922
1035.10 0.0592
1035.20 0.05918
1035.30 0.05915
1035.40 0.05913
1035.50 0.05911
1035.60 0.05909
1035.70 0.05907
1035.80 0.05904
1035.90 0.05902
1036.00 0.059
1036.10 0.05898
1036.20 0.05895
1036.30 0.05893
1036.40 0.05891
1036.50 0.05889
1036.60 0.05887
1036.70 0.05884
1036.80 0.05882
1036.90 0.0588
1037.00 0.05878
1037.10 0.05875
1037.20 0.05873
1037.30 0.05871
1037.40 0.05869
1037.50 0.05867
1037.60 0.05864
1037.70 0.05862
1037.80 0.0586
1037.90 0.05858
1038.00 0.05856
1038.10 0.05853
1038.20 0.05851
1038.30 0.05849
1038.40 0.05847
1038.50 0.05845
1038.60 0.05842
1038.70 0.0584
1038.80 0.05838
1038.90 0.05836
1039.00 0.05834
1039.10 0.05832
1039.20 0.05829
1039.30 0.05827
1039.40 0.05825
1039.50 0.05823
1039.60 0.05821
1039.70 0.05818
1039.80 0.05816
1039.90 0.05814
1040.00 0.05812
1040.10 0.0581
1040.20 0.05808
1040.30 0.05805
1040.40 0.05803
1040.50 0.05801
1040.60 0.05799
1040.70 0.05797
1040.80 0.05794
1040.90 0.05792
1041.00 0.0579
1041.10 0.05788
1041.20 0.05786
1041.30 0.05784
1041.40 0.05781
1041.50 0.05779
1041.60 0.05777
1041.70 0.05775
1041.80 0.05773
1041.90 0.05771
1042.00 0.05768
1042.10 0.05766
1042.20 0.05764
1042.30 0.05762
1042.40 0.0576
1042.50 0.05758
1042.60 0.05755
1042.70 0.05753
1042.80 0.05751
1042.90 0.05749
1043.00 0.05747
1043.10 0.05745
1043.20 0.05743
1043.30 0.0574
1043.40 0.05738
1043.50 0.05736
1043.60 0.05734
1043.70 0.05732
1043.80 0.0573
1043.90 0.05728
1044.00 0.05725
1044.10 0.05723
1044.20 0.05721
1044.30 0.05719
1044.40 0.05717
1044.50 0.05715
1044.60 0.05713
1044.70 0.0571
1044.80 0.05708
1044.90 0.05706
1045.00 0.05704
1045.10 0.05702
1045.20 0.057
1045.30 0.05698
1045.40 0.05696
1045.50 0.05693
1045.60 0.05691
1045.70 0.05689
1045.80 0.05687
1045.90 0.05685
1046.00 0.05683
1046.10 0.05681
1046.20 0.05679
1046.30 0.05676
1046.40 0.05674
1046.50 0.05672
1046.60 0.0567
1046.70 0.05668
1046.80 0.05666
1046.90 0.05664
1047.00 0.05662
1047.10 0.05659
1047.20 0.05657
1047.30 0.05655
1047.40 0.05653
1047.50 0.05651
1047.60 0.05649
1047.70 0.05647
1047.80 0.05645
1047.90 0.05643
1048.00 0.05641
1048.10 0.05638
1048.20 0.05636
1048.30 0.05634
1048.40 0.05632
1048.50 0.0563
1048.60 0.05628
1048.70 0.05626
1048.80 0.05624
1048.90 0.05622
1049.00 0.0562
1049.10 0.05617
1049.20 0.05615
1049.30 0.05613
1049.40 0.05611
1049.50 0.05609
1049.60 0.05607
1049.70 0.05605
1049.80 0.05603
1049.90 0.05601
1050.00 0.05599
1050.10 0.05597
1050.20 0.05595
1050.30 0.05592
1050.40 0.0559
1050.50 0.05588
1050.60 0.05586
1050.70 0.05584
1050.80 0.05582
1050.90 0.0558
1051.00 0.05578
1051.10 0.05576
1051.20 0.05574
1051.30 0.05572
1051.40 0.0557
1051.50 0.05567
1051.60 0.05565
1051.70 0.05563
1051.80 0.05561
1051.90 0.05559
1052.00 0.05557
1052.10 0.05555
1052.20 0.05553
1052.30 0.05551
1052.40 0.05549
1052.50 0.05547
1052.60 0.05545
1052.70 0.05543
1052.80 0.05541
1052.90 0.05539
1053.00 0.05537
1053.10 0.05535
1053.20 0.05532
1053.30 0.0553
1053.40 0.05528
1053.50 0.05526
1053.60 0.05524
1053.70 0.05522
1053.80 0.0552
1053.90 0.05518
1054.00 0.05516
1054.10 0.05514
1054.20 0.05512
1054.30 0.0551
1054.40 0.05508
1054.50 0.05506
1054.60 0.05504
1054.70 0.05502
1054.80 0.055
1054.90 0.05498
1055.00 0.05496
1055.10 0.05494
1055.20 0.05492
1055.30 0.0549
1055.40 0.05488
1055.50 0.05485
1055.60 0.05483
1055.70 0.05481
1055.80 0.05479
1055.90 0.05477
1056.00 0.05475
1056.10 0.05473
1056.20 0.05471
1056.30 0.05469
1056.40 0.05467
1056.50 0.05465
1056.60 0.05463
1056.70 0.05461
1056.80 0.05459
1056.90 0.05457
1057.00 0.05455
1057.10 0.05453
1057.20 0.05451
1057.30 0.05449
1057.40 0.05447
1057.50 0.05445
1057.60 0.05443
1057.70 0.05441
1057.80 0.05439
1057.90 0.05437
1058.00 0.05435
1058.10 0.05433
1058.20 0.05431
1058.30 0.05429
1058.40 0.05427
1058.50 0.05425
1058.60 0.05423
1058.70 0.05421
1058.80 0.05419
1058.90 0.05417
1059.00 0.05415
1059.10 0.05413
1059.20 0.05411
1059.30 0.05409
1059.40 0.05407
1059.50 0.05405
1059.60 0.05403
1059.70 0.05401
1059.80 0.05399
1059.90 0.05397
1060.00 0.05395
1060.10 0.05393
1060.20 0.05391
1060.30 0.05389
1060.40 0.05387
1060.50 0.05385
1060.60 0.05383
1060.70 0.05381
1060.80 0.05379
1060.90 0.05377
1061.00 0.05375
1061.10 0.05373
1061.20 0.05371
1061.30 0.05369
1061.40 0.05367
1061.50 0.05365
1061.60 0.05363
1061.70 0.05361
1061.80 0.05359
1061.90 0.05357
1062.00 0.05355
1062.10 0.05353
1062.20 0.05351
1062.30 0.05349
1062.40 0.05347
1062.50 0.05345
1062.60 0.05343
1062.70 0.05341
1062.80 0.05339
1062.90 0.05338
1063.00 0.05336
1063.10 0.05334
1063.20 0.05332
1063.30 0.0533
1063.40 0.05328
1063.50 0.05326
1063.60 0.05324
1063.70 0.05322
1063.80 0.0532
1063.90 0.05318
1064.00 0.05316
1064.10 0.05314
1064.20 0.05312
1064.30 0.0531
1064.40 0.05308
1064.50 0.05306
1064.60 0.05304
1064.70 0.05302
1064.80 0.053
1064.90 0.05298
1065.00 0.05296
1065.10 0.05294
1065.20 0.05292
1065.30 0.05291
1065.40 0.05289
1065.50 0.05287
1065.60 0.05285
1065.70 0.05283
1065.80 0.05281
1065.90 0.05279
1066.00 0.05277
1066.10 0.05275
1066.20 0.05273
1066.30 0.05271
1066.40 0.05269
1066.50 0.05267
1066.60 0.05265
1066.70 0.05263
1066.80 0.05261
1066.90 0.05259
1067.00 0.05258
1067.10 0.05256
1067.20 0.05254
1067.30 0.05252
1067.40 0.0525
1067.50 0.05248
1067.60 0.05246
1067.70 0.05244
1067.80 0.05242
1067.90 0.0524
1068.00 0.05238
1068.10 0.05236
1068.20 0.05234
1068.30 0.05232
1068.40 0.05231
1068.50 0.05229
1068.60 0.05227
1068.70 0.05225
1068.80 0.05223
1068.90 0.05221
1069.00 0.05219
1069.10 0.05217
1069.20 0.05215
1069.30 0.05213
1069.40 0.05211
1069.50 0.05209
1069.60 0.05208
1069.70 0.05206
1069.80 0.05204
1069.90 0.05202
1070.00 0.052
1070.10 0.05198
1070.20 0.05196
1070.30 0.05194
1070.40 0.05192
1070.50 0.0519
1070.60 0.05188
1070.70 0.05186
1070.80 0.05185
1070.90 0.05183
1071.00 0.05181
1071.10 0.05179
1071.20 0.05177
1071.30 0.05175
1071.40 0.05173
1071.50 0.05171
1071.60 0.05169
1071.70 0.05167
1071.80 0.05166
1071.90 0.05164
1072.00 0.05162
1072.10 0.0516
1072.20 0.05158
1072.30 0.05156
1072.40 0.05154
1072.50 0.05152
1072.60 0.0515
1072.70 0.05148
1072.80 0.05147
1072.90 0.05145
1073.00 0.05143
1073.10 0.05141
1073.20 0.05139
1073.30 0.05137
1073.40 0.05135
1073.50 0.05133
1073.60 0.05131
1073.70 0.0513
1073.80 0.05128
1073.90 0.05126
1074.00 0.05124
1074.10 0.05122
1074.20 0.0512
1074.30 0.05118
1074.40 0.05116
1074.50 0.05114
1074.60 0.05113
1074.70 0.05111
1074.80 0.05109
1074.90 0.05107
1075.00 0.05105
1075.10 0.05103
1075.20 0.05101
1075.30 0.05099
1075.40 0.05097
1075.50 0.05096
1075.60 0.05094
1075.70 0.05092
1075.80 0.0509
1075.90 0.05088
1076.00 0.05086
1076.10 0.05084
1076.20 0.05082
1076.30 0.05081
1076.40 0.05079
1076.50 0.05077
1076.60 0.05075
1076.70 0.05073
1076.80 0.05071
1076.90 0.05069
1077.00 0.05067
1077.10 0.05066
1077.20 0.05064
1077.30 0.05062
1077.40 0.0506
1077.50 0.05058
1077.60 0.05056
1077.70 0.05054
1077.80 0.05052
1077.90 0.05051
1078.00 0.05049
1078.10 0.05047
1078.20 0.05045
1078.30 0.05043
1078.40 0.05041
1078.50 0.05039
1078.60 0.05037
1078.70 0.05036
1078.80 0.05034
1078.90 0.05032
1079.00 0.0503
1079.10 0.05028
1079.20 0.05026
1079.30 0.05024
1079.40 0.05022
1079.50 0.05021
1079.60 0.05019
1079.70 0.05017
1079.80 0.05015
1079.90 0.05013
1080.00 0.05011
1080.10 0.05009
1080.20 0.05007
1080.30 0.05005
1080.40 0.05004
1080.50 0.05002
1080.60 0.05
1080.70 0.04998
1080.80 0.04996
1080.90 0.04994
1081.00 0.04992
1081.10 0.0499
1081.20 0.04988
1081.30 0.04987
1081.40 0.04985
1081.50 0.04983
1081.60 0.04981
1081.70 0.04979
1081.80 0.04977
1081.90 0.04975
1082.00 0.04973
1082.10 0.04971
1082.20 0.04969
1082.30 0.04968
1082.40 0.04966
1082.50 0.04964
1082.60 0.04962
1082.70 0.0496
1082.80 0.04958
1082.90 0.04956
1083.00 0.04954
1083.10 0.04952
1083.20 0.0495
1083.30 0.04948
1083.40 0.04946
1083.50 0.04945
1083.60 0.04943
1083.70 0.04941
1083.80 0.04939
1083.90 0.04937
1084.00 0.04935
1084.10 0.04933
1084.20 0.04931
1084.30 0.04929
1084.40 0.04927
1084.50 0.04925
1084.60 0.04923
1084.70 0.04921
1084.80 0.04919
1084.90 0.04917
1085.00 0.04915
1085.10 0.04913
1085.20 0.04911
1085.30 0.04909
1085.40 0.04907
1085.50 0.04905
1085.60 0.04903
1085.70 0.04901
1085.80 0.04899
1085.90 0.04897
1086.00 0.04895
1086.10 0.04893
1086.20 0.04891
1086.30 0.04889
1086.40 0.04887
1086.50 0.04885
1086.60 0.04882
1086.70 0.0488
1086.80 0.04878
1086.90 0.04876
1087.00 0.04874
1087.10 0.04872
1087.20 0.0487
1087.30 0.04867
1087.40 0.04865
1087.50 0.04863
1087.60 0.04861
1087.70 0.04859
1087.80 0.04856
1087.90 0.04854
1088.00 0.04852
1088.10 0.0485
1088.20 0.04848
1088.30 0.04845
1088.40 0.04843
1088.50 0.04841
1088.60 0.04838
1088.70 0.04836
1088.80 0.04834
1088.90 0.04831
1089.00 0.04829
1089.10 0.04826
1089.20 0.04824
1089.30 0.04821
1089.40 0.04819
1089.50 0.04817
1089.60 0.04814
1089.70 0.04812
1089.80 0.04809
1089.90 0.04807
1090.00 0.04805
1090.10 0.04802
1090.20 0.048
1090.30 0.04797
1090.40 0.04795
1090.50 0.04793
1090.60 0.0479
1090.70 0.04788
1090.80 0.04785
1090.90 0.04783
1091.00 0.0478
1091.10 0.04778
1091.20 0.04775
1091.30 0.04773
1091.40 0.0477
1091.50 0.04768
1091.60 0.04766
1091.70 0.04763
1091.80 0.04761
1091.90 0.04758
1092.00 0.04756
1092.10 0.04754
1092.20 0.04752
1092.30 0.04751
1092.40 0.04749
1092.50 0.04747
1092.60 0.04745
1092.70 0.04744
1092.80 0.04743
1092.90 0.04743
1093.00 0.04742
1093.10 0.04741
1093.20 0.04742
1093.30 0.04742
1093.40 0.04743
1093.50 0.04744
1093.60 0.04748
1093.70 0.04751
1093.80 0.04753
1093.90 0.04751
1094.00 0.04745
1094.10 0.04738
1094.20 0.04731
1094.30 0.04726
1094.40 0.04723
1094.50 0.0472
1094.60 0.04716
1094.70 0.04713
1094.80 0.0471
1094.90 0.04707
1095.00 0.04705
1095.10 0.04704
1095.20 0.04702
1095.30 0.04701
1095.40 0.047
1095.50 0.04699
1095.60 0.04697
1095.70 0.04696
1095.80 0.04695
1095.90 0.04694
1096.00 0.04692
1096.10 0.04691
1096.20 0.0469
1096.30 0.04689
1096.40 0.04687
1096.50 0.04686
1096.60 0.04685
1096.70 0.04685
1096.80 0.04684
1096.90 0.04683
1097.00 0.04682
1097.10 0.04681
1097.20 0.0468
1097.30 0.04679
1097.40 0.04678
1097.50 0.04677
1097.60 0.04676
1097.70 0.04676
1097.80 0.04675
1097.90 0.04674
1098.00 0.04673
1098.10 0.04672
1098.20 0.04671
1098.30 0.0467
1098.40 0.04669
1098.50 0.04668
1098.60 0.04667
1098.70 0.04666
1098.80 0.04664
1098.90 0.04663
1099.00 0.04662
1099.10 0.04661
1099.20 0.0466
1099.30 0.04659
1099.40 0.04658
1099.50 0.04656
1099.60 0.04655
1099.70 0.04654
1099.80 0.04653
1099.90 0.04652
1100.00 0.04651
1100.10 0.04649
1100.20 0.04648
1100.30 0.04647
1100.40 0.04646
1100.50 0.04645
1100.60 0.04643
1100.70 0.04642
1100.80 0.04641
1100.90 0.04639
1101.00 0.04638
1101.10 0.04637
1101.20 0.04635
1101.30 0.04634
1101.40 0.04633
1101.50 0.04631
1101.60 0.0463
1101.70 0.04629
1101.80 0.04627
1101.90 0.04626
1102.00 0.04625
1102.10 0.04623
1102.20 0.04622
1102.30 0.0462
1102.40 0.04619
1102.50 0.04618
1102.60 0.04616
1102.70 0.04615
1102.80 0.04613
1102.90 0.04612
1103.00 0.0461
1103.10 0.04609
1103.20 0.04607
1103.30 0.04606
1103.40 0.04604
1103.50 0.04603
1103.60 0.04602
1103.70 0.046
1103.80 0.04599
1103.90 0.04597
1104.00 0.04596
1104.10 0.04594
1104.20 0.04593
1104.30 0.04591
1104.40 0.0459
1104.50 0.04588
1104.60 0.04587
1104.70 0.04585
1104.80 0.04584
1104.90 0.04582
1105.00 0.04581
1105.10 0.04579
1105.20 0.04578
1105.30 0.04576
1105.40 0.04575
1105.50 0.04573
1105.60 0.04572
1105.70 0.0457
1105.80 0.04569
1105.90 0.04567
1106.00 0.04565
1106.10 0.04564
1106.20 0.04562
1106.30 0.04561
1106.40 0.04559
1106.50 0.04558
1106.60 0.04556
1106.70 0.04555
1106.80 0.04553
1106.90 0.04552
1107.00 0.0455
1107.10 0.04549
1107.20 0.04547
1107.30 0.04546
1107.40 0.04544
1107.50 0.04542
1107.60 0.04541
1107.70 0.04539
1107.80 0.04538
1107.90 0.04536
1108.00 0.04535
1108.10 0.04533
1108.20 0.04532
1108.30 0.0453
1108.40 0.04528
1108.50 0.04527
1108.60 0.04525
1108.70 0.04524
1108.80 0.04522
1108.90 0.04521
1109.00 0.04519
1109.10 0.04518
1109.20 0.04516
1109.30 0.04515
1109.40 0.04513
1109.50 0.04511
1109.60 0.0451
1109.70 0.04508
1109.80 0.04507
1109.90 0.04505
1110.00 0.04504
1110.10 0.04502
1110.20 0.04501
1110.30 0.04499
1110.40 0.04498
1110.50 0.04496
1110.60 0.04494
1110.70 0.04493
1110.80 0.04491
1110.90 0.0449
1111.00 0.04488
1111.10 0.04487
1111.20 0.04485
1111.30 0.04484
1111.40 0.04482
1111.50 0.0448
1111.60 0.04479
1111.70 0.04477
1111.80 0.04476
1111.90 0.04474
1112.00 0.04473
1112.10 0.04471
1112.20 0.0447
1112.30 0.04468
1112.40 0.04467
1112.50 0.04465
1112.60 0.04463
1112.70 0.04462
1112.80 0.0446
1112.90 0.04459
1113.00 0.04457
1113.10 0.04456
1113.20 0.04454
1113.30 0.04453
1113.40 0.04451
1113.50 0.0445
1113.60 0.04448
1113.70 0.04446
1113.80 0.04445
1113.90 0.04443
1114.00 0.04442
1114.10 0.0444
1114.20 0.04439
1114.30 0.04437
1114.40 0.04436
1114.50 0.04434
1114.60 0.04433
1114.70 0.04431
1114.80 0.04429
1114.90 0.04428
1115.00 0.04426
1115.10 0.04425
1115.20 0.04423
1115.30 0.04422
1115.40 0.0442
1115.50 0.04419
1115.60 0.04417
1115.70 0.04416
1115.80 0.04414
1115.90 0.04413
1116.00 0.04411
1116.10 0.0441
1116.20 0.04408
1116.30 0.04406
1116.40 0.04405
1116.50 0.04403
1116.60 0.04402
1116.70 0.044
1116.80 0.04399
1116.90 0.04397
1117.00 0.04396
1117.10 0.04394
1117.20 0.04393
1117.30 0.04391
1117.40 0.0439
1117.50 0.04388
1117.60 0.04387
1117.70 0.04385
1117.80 0.04384
1117.90 0.04382
1118.00 0.04381
1118.10 0.04379
1118.20 0.04377
1118.30 0.04376
1118.40 0.04374
1118.50 0.04373
1118.60 0.04371
1118.70 0.0437
1118.80 0.04368
1118.90 0.04367
1119.00 0.04365
1119.10 0.04364
1119.20 0.04362
1119.30 0.04361
1119.40 0.04359
1119.50 0.04358
1119.60 0.04356
1119.70 0.04355
1119.80 0.04353
1119.90 0.04352
1120.00 0.0435
1120.10 0.04349
1120.20 0.04347
1120.30 0.04346
1120.40 0.04344
1120.50 0.04343
1120.60 0.04341
1120.70 0.0434
1120.80 0.04338
1120.90 0.04337
1121.00 0.04335
1121.10 0.04334
1121.20 0.04332
1121.30 0.04331
1121.40 0.04329
1121.50 0.04328
1121.60 0.04326
1121.70 0.04325
1121.80 0.04323
1121.90 0.04322
1122.00 0.0432
1122.10 0.04319
1122.20 0.04317
1122.30 0.04316
1122.40 0.04314
1122.50 0.04313
1122.60 0.04311
1122.70 0.0431
1122.80 0.04308
1122.90 0.04307
1123.00 0.04305
1123.10 0.04304
1123.20 0.04302
1123.30 0.04301
1123.40 0.04299
1123.50 0.04298
1123.60 0.04296
1123.70 0.04295
1123.80 0.04293
1123.90 0.04292
1124.00 0.0429
1124.10 0.04289
1124.20 0.04287
1124.30 0.04286
1124.40 0.04284
1124.50 0.04283
1124.60 0.04281
1124.70 0.0428
1124.80 0.04278
1124.90 0.04277
1125.00 0.04275
1125.10 0.04274
1125.20 0.04272
1125.30 0.04271
1125.40 0.04269
1125.50 0.04268
1125.60 0.04266
1125.70 0.04265
1125.80 0.04263
1125.90 0.04262
1126.00 0.0426
1126.10 0.04259
1126.20 0.04258
1126.30 0.04256
1126.40 0.04255
1126.50 0.04253
1126.60 0.04252
1126.70 0.0425
1126.80 0.04249
1126.90 0.04247
1127.00 0.04246
1127.10 0.04244
1127.20 0.04243
1127.30 0.04241
1127.40 0.0424
1127.50 0.04238
1127.60 0.04237
1127.70 0.04235
1127.80 0.04234
1127.90 0.04233
1128.00 0.04231
1128.10 0.0423
1128.20 0.04228
1128.30 0.04227
1128.40 0.04225
1128.50 0.04224
1128.60 0.04222
1128.70 0.04221
1128.80 0.04219
1128.90 0.04218
1129.00 0.04216
1129.10 0.04215
1129.20 0.04214
1129.30 0.04212
1129.40 0.04211
1129.50 0.04209
1129.60 0.04208
1129.70 0.04206
1129.80 0.04205
1129.90 0.04203
1130.00 0.04202
1130.10 0.042
1130.20 0.04199
1130.30 0.04198
1130.40 0.04196
1130.50 0.04195
1130.60 0.04193
1130.70 0.04192
1130.80 0.0419
1130.90 0.04189
1131.00 0.04187
1131.10 0.04186
1131.20 0.04185
1131.30 0.04183
1131.40 0.04182
1131.50 0.0418
1131.60 0.04179
1131.70 0.04177
1131.80 0.04176
1131.90 0.04174
1132.00 0.04173
1132.10 0.04172
1132.20 0.0417
1132.30 0.04169
1132.40 0.04167
1132.50 0.04166
1132.60 0.04164
1132.70 0.04163
1132.80 0.04162
1132.90 0.0416
1133.00 0.04159
1133.10 0.04157
1133.20 0.04156
1133.30 0.04154
1133.40 0.04153
1133.50 0.04151
1133.60 0.0415
1133.70 0.04149
1133.80 0.04147
1133.90 0.04146
1134.00 0.04144
1134.10 0.04143
1134.20 0.04142
1134.30 0.0414
1134.40 0.04139
1134.50 0.04137
1134.60 0.04136
1134.70 0.04134
1134.80 0.04133
1134.90 0.04132
1135.00 0.0413
1135.10 0.04129
1135.20 0.04127
1135.30 0.04126
1135.40 0.04124
1135.50 0.04123
1135.60 0.04122
1135.70 0.0412
1135.80 0.04119
1135.90 0.04117
1136.00 0.04116
1136.10 0.04114
1136.20 0.04113
1136.30 0.04112
1136.40 0.0411
1136.50 0.04109
1136.60 0.04107
1136.70 0.04106
1136.80 0.04105
1136.90 0.04103
1137.00 0.04102
1137.10 0.041
1137.20 0.04099
1137.30 0.04098
1137.40 0.04096
1137.50 0.04095
1137.60 0.04093
1137.70 0.04092
1137.80 0.04091
1137.90 0.04089
1138.00 0.04088
1138.10 0.04086
1138.20 0.04085
1138.30 0.04084
1138.40 0.04082
1138.50 0.04081
1138.60 0.04079
1138.70 0.04078
1138.80 0.04077
1138.90 0.04075
1139.00 0.04074
1139.10 0.04072
1139.20 0.04071
1139.30 0.0407
1139.40 0.04068
1139.50 0.04067
1139.60 0.04065
1139.70 0.04064
1139.80 0.04063
1139.90 0.04061
1140.00 0.0406
1140.10 0.04058
1140.20 0.04057
1140.30 0.04056
1140.40 0.04054
1140.50 0.04053
1140.60 0.04051
1140.70 0.0405
1140.80 0.04049
1140.90 0.04047
1141.00 0.04046
1141.10 0.04044
1141.20 0.04043
1141.30 0.04042
1141.40 0.0404
1141.50 0.04039
1141.60 0.04038
1141.70 0.04036
1141.80 0.04035
1141.90 0.04033
1142.00 0.04032
1142.10 0.04031
1142.20 0.04029
1142.30 0.04028
1142.40 0.04027
1142.50 0.04025
1142.60 0.04024
1142.70 0.04022
1142.80 0.04021
1142.90 0.0402
1143.00 0.04018
1143.10 0.04017
1143.20 0.04016
1143.30 0.04014
1143.40 0.04013
1143.50 0.04011
1143.60 0.0401
1143.70 0.04009
1143.80 0.04007
1143.90 0.04006
1144.00 0.04005
1144.10 0.04003
1144.20 0.04002
1144.30 0.04
1144.40 0.03999
1144.50 0.03998
1144.60 0.03996
1144.70 0.03995
1144.80 0.03994
1144.90 0.03992
1145.00 0.03991
1145.10 0.0399
1145.20 0.03988
1145.30 0.03987
1145.40 0.03985
1145.50 0.03984
1145.60 0.03983
1145.70 0.03981
1145.80 0.0398
1145.90 0.03979
1146.00 0.03977
1146.10 0.03976
1146.20 0.03975
1146.30 0.03973
1146.40 0.03972
1146.50 0.03971
1146.60 0.03969
1146.70 0.03968
1146.80 0.03966
1146.90 0.03965
1147.00 0.03964
1147.10 0.03962
1147.20 0.03961
1147.30 0.0396
1147.40 0.03958
1147.50 0.03957
1147.60 0.03956
1147.70 0.03954
1147.80 0.03953
1147.90 0.03952
1148.00 0.0395
1148.10 0.03949
1148.20 0.03948
1148.30 0.03946
1148.40 0.03945
1148.50 0.03944
1148.60 0.03942
1148.70 0.03941
1148.80 0.0394
1148.90 0.03938
1149.00 0.03937
1149.10 0.03936
1149.20 0.03934
1149.30 0.03933
1149.40 0.03932
1149.50 0.0393
1149.60 0.03929
1149.70 0.03928
1149.80 0.03926
1149.90 0.03925
1150.00 0.03924
1150.10 0.03922
1150.20 0.03921
1150.30 0.0392
1150.40 0.03918
1150.50 0.03917
1150.60 0.03916
1150.70 0.03914
1150.80 0.03913
1150.90 0.03912
1151.00 0.0391
1151.10 0.03909
1151.20 0.03908
1151.30 0.03906
1151.40 0.03905
1151.50 0.03904
1151.60 0.03902
1151.70 0.03901
1151.80 0.039
1151.90 0.03898
1152.00 0.03897
1152.10 0.03896
1152.20 0.03894
1152.30 0.03893
1152.40 0.03892
1152.50 0.0389
1152.60 0.03889
1152.70 0.03888
1152.80 0.03886
1152.90 0.03885
1153.00 0.03884
1153.10 0.03882
1153.20 0.03881
1153.30 0.0388
1153.40 0.03878
1153.50 0.03877
1153.60 0.03876
1153.70 0.03875
1153.80 0.03873
1153.90 0.03872
1154.00 0.03871
1154.10 0.03869
1154.20 0.03868
1154.30 0.03867
1154.40 0.03865
1154.50 0.03864
1154.60 0.03863
1154.70 0.03861
1154.80 0.0386
1154.90 0.03859
1155.00 0.03857
1155.10 0.03856
1155.20 0.03855
1155.30 0.03854
1155.40 0.03852
1155.50 0.03851
1155.60 0.0385
1155.70 0.03848
1155.80 0.03847
1155.90 0.03846
1156.00 0.03844
1156.10 0.03843
1156.20 0.03842
1156.30 0.03841
1156.40 0.03839
1156.50 0.03838
1156.60 0.03837
1156.70 0.03835
1156.80 0.03834
1156.90 0.03833
1157.00 0.03831
1157.10 0.0383
1157.20 0.03829
1157.30 0.03828
1157.40 0.03826
1157.50 0.03825
1157.60 0.03824
1157.70 0.03822
1157.80 0.03821
1157.90 0.0382
1158.00 0.03819
1158.10 0.03817
1158.20 0.03816
1158.30 0.03815
1158.40 0.03813
1158.50 0.03812
1158.60 0.03811
1158.70 0.0381
1158.80 0.03808
1158.90 0.03807
1159.00 0.03806
1159.10 0.03804
1159.20 0.03803
1159.30 0.03802
1159.40 0.03801
1159.50 0.03799
1159.60 0.03798
1159.70 0.03797
1159.80 0.03795
1159.90 0.03794
1160.00 0.03793
1160.10 0.03792
1160.20 0.0379
1160.30 0.03789
1160.40 0.03788
1160.50 0.03786
1160.60 0.03785
1160.70 0.03784
1160.80 0.03783
1160.90 0.03781
1161.00 0.0378
1161.10 0.03779
1161.20 0.03778
1161.30 0.03776
1161.40 0.03775
1161.50 0.03774
1161.60 0.03772
1161.70 0.03771
1161.80 0.0377
1161.90 0.03769
1162.00 0.03767
1162.10 0.03766
1162.20 0.03765
1162.30 0.03764
1162.40 0.03762
1162.50 0.03761
1162.60 0.0376
1162.70 0.03759
1162.80 0.03757
1162.90 0.03756
1163.00 0.03755
1163.10 0.03753
1163.20 0.03752
1163.30 0.03751
1163.40 0.0375
1163.50 0.03748
1163.60 0.03747
1163.70 0.03746
1163.80 0.03745
1163.90 0.03743
1164.00 0.03742
1164.10 0.03741
1164.20 0.0374
1164.30 0.03738
1164.40 0.03737
1164.50 0.03736
1164.60 0.03735
1164.70 0.03733
1164.80 0.03732
1164.90 0.03731
1165.00 0.0373
1165.10 0.03728
1165.20 0.03727
1165.30 0.03726
1165.40 0.03725
1165.50 0.03723
1165.60 0.03722
1165.70 0.03721
1165.80 0.0372
1165.90 0.03718
1166.00 0.03717
1166.10 0.03716
1166.20 0.03715
1166.30 0.03713
1166.40 0.03712
1166.50 0.03711
1166.60 0.0371
1166.70 0.03708
1166.80 0.03707
1166.90 0.03706
1167.00 0.03705
1167.10 0.03703
1167.20 0.03702
1167.30 0.03701
1167.40 0.037
1167.50 0.03698
1167.60 0.03697
1167.70 0.03696
1167.80 0.03695
1167.90 0.03694
1168.00 0.03692
1168.10 0.03691
1168.20 0.0369
1168.30 0.03689
1168.40 0.03687
1168.50 0.03686
1168.60 0.03685
1168.70 0.03684
1168.80 0.03682
1168.90 0.03681
1169.00 0.0368
1169.10 0.03679
1169.20 0.03677
1169.30 0.03676
1169.40 0.03675
1169.50 0.03674
1169.60 0.03673
1169.70 0.03671
1169.80 0.0367
1169.90 0.03669
1170.00 0.03668
1170.10 0.03666
1170.20 0.03665
1170.30 0.03664
1170.40 0.03663
1170.50 0.03662
1170.60 0.0366
1170.70 0.03659
1170.80 0.03658
1170.90 0.03657
1171.00 0.03655
1171.10 0.03654
1171.20 0.03653
1171.30 0.03652
1171.40 0.03651
1171.50 0.03649
1171.60 0.03648
1171.70 0.03647
1171.80 0.03646
1171.90 0.03644
1172.00 0.03643
1172.10 0.03642
1172.20 0.03641
1172.30 0.0364
1172.40 0.03638
1172.50 0.03637
1172.60 0.03636
1172.70 0.03635
1172.80 0.03633
1172.90 0.03632
1173.00 0.03631
1173.10 0.0363
1173.20 0.03629
1173.30 0.03627
1173.40 0.03626
1173.50 0.03625
1173.60 0.03624
1173.70 0.03623
1173.80 0.03621
1173.90 0.0362
1174.00 0.03619
1174.10 0.03618
1174.20 0.03617
1174.30 0.03615
1174.40 0.03614
1174.50 0.03613
1174.60 0.03612
1174.70 0.03611
1174.80 0.03609
1174.90 0.03608
1175.00 0.03607
1175.10 0.03606
1175.20 0.03605
1175.30 0.03603
1175.40 0.03602
1175.50 0.03601
1175.60 0.036
1175.70 0.03599
1175.80 0.03597
1175.90 0.03596
1176.00 0.03595
1176.10 0.03594
1176.20 0.03593
1176.30 0.03591
1176.40 0.0359
1176.50 0.03589
1176.60 0.03588
1176.70 0.03587
1176.80 0.03585
1176.90 0.03584
1177.00 0.03583
1177.10 0.03582
1177.20 0.03581
1177.30 0.03579
1177.40 0.03578
1177.50 0.03577
1177.60 0.03576
1177.70 0.03575
1177.80 0.03574
1177.90 0.03572
1178.00 0.03571
1178.10 0.0357
1178.20 0.03569
1178.30 0.03568
1178.40 0.03566
1178.50 0.03565
1178.60 0.03564
1178.70 0.03563
1178.80 0.03562
1178.90 0.03561
1179.00 0.03559
1179.10 0.03558
1179.20 0.03557
1179.30 0.03556
1179.40 0.03555
1179.50 0.03553
1179.60 0.03552
1179.70 0.03551
1179.80 0.0355
1179.90 0.03549
1180.00 0.03548
1180.10 0.03546
1180.20 0.03545
1180.30 0.03544
1180.40 0.03543
1180.50 0.03542
1180.60 0.03541
1180.70 0.03539
1180.80 0.03538
1180.90 0.03537
1181.00 0.03536
1181.10 0.03535
1181.20 0.03533
1181.30 0.03532
1181.40 0.03531
1181.50 0.0353
1181.60 0.03529
1181.70 0.03528
1181.80 0.03526
1181.90 0.03525
1182.00 0.03524
1182.10 0.03523
1182.20 0.03522
1182.30 0.03521
1182.40 0.03519
1182.50 0.03518
1182.60 0.03517
1182.70 0.03516
1182.80 0.03515
1182.90 0.03514
1183.00 0.03512
1183.10 0.03511
1183.20 0.0351
1183.30 0.03509
1183.40 0.03508
1183.50 0.03507
1183.60 0.03506
1183.70 0.03504
1183.80 0.03503
1183.90 0.03502
1184.00 0.03501
1184.10 0.035
1184.20 0.03499
1184.30 0.03497
1184.40 0.03496
1184.50 0.03495
1184.60 0.03494
1184.70 0.03493
1184.80 0.03492
1184.90 0.03491
1185.00 0.03489
1185.10 0.03488
1185.20 0.03487
1185.30 0.03486
1185.40 0.03485
1185.50 0.03484
1185.60 0.03482
1185.70 0.03481
1185.80 0.0348
1185.90 0.03479
1186.00 0.03478
1186.10 0.03477
1186.20 0.03476
1186.30 0.03474
1186.40 0.03473
1186.50 0.03472
1186.60 0.03471
1186.70 0.0347
1186.80 0.03469
1186.90 0.03468
1187.00 0.03466
1187.10 0.03465
1187.20 0.03464
1187.30 0.03463
1187.40 0.03462
1187.50 0.03461
1187.60 0.0346
1187.70 0.03458
1187.80 0.03457
1187.90 0.03456
1188.00 0.03455
1188.10 0.03454
1188.20 0.03453
1188.30 0.03452
1188.40 0.0345
1188.50 0.03449
1188.60 0.03448
1188.70 0.03447
1188.80 0.03446
1188.90 0.03445
1189.00 0.03444
1189.10 0.03443
1189.20 0.03441
1189.30 0.0344
1189.40 0.03439
1189.50 0.03438
1189.60 0.03437
1189.70 0.03436
1189.80 0.03435
1189.90 0.03433
1190.00 0.03432
1190.10 0.03431
1190.20 0.0343
1190.30 0.03429
1190.40 0.03428
1190.50 0.03427
1190.60 0.03426
1190.70 0.03424
1190.80 0.03423
1190.90 0.03422
1191.00 0.03421
1191.10 0.0342
1191.20 0.03419
1191.30 0.03418
1191.40 0.03417
1191.50 0.03415
1191.60 0.03414
1191.70 0.03413
1191.80 0.03412
1191.90 0.03411
1192.00 0.0341
1192.10 0.03409
1192.20 0.03408
1192.30 0.03406
1192.40 0.03405
1192.50 0.03404
1192.60 0.03403
1192.70 0.03402
1192.80 0.03401
1192.90 0.034
1193.00 0.03399
1193.10 0.03398
1193.20 0.03396
1193.30 0.03395
1193.40 0.03394
1193.50 0.03393
1193.60 0.03392
1193.70 0.03391
1193.80 0.0339
1193.90 0.03389
1194.00 0.03388
1194.10 0.03386
1194.20 0.03385
1194.30 0.03384
1194.40 0.03383
1194.50 0.03382
1194.60 0.03381
1194.70 0.0338
1194.80 0.03379
1194.90 0.03378
1195.00 0.03376
1195.10 0.03375
1195.20 0.03374
1195.30 0.03373
1195.40 0.03372
1195.50 0.03371
1195.60 0.0337
1195.70 0.03369
1195.80 0.03368
1195.90 0.03367
1196.00 0.03365
1196.10 0.03364
1196.20 0.03363
1196.30 0.03362
1196.40 0.03361
1196.50 0.0336
1196.60 0.03359
1196.70 0.03358
1196.80 0.03357
1196.90 0.03356
1197.00 0.03354
1197.10 0.03353
1197.20 0.03352
1197.30 0.03351
1197.40 0.0335
1197.50 0.03349
1197.60 0.03348
1197.70 0.03347
1197.80 0.03346
1197.90 0.03345
1198.00 0.03344
1198.10 0.03342
1198.20 0.03341
1198.30 0.0334
1198.40 0.03339
1198.50 0.03338
1198.60 0.03337
1198.70 0.03336
1198.80 0.03335
1198.90 0.03334
1199.00 0.03333
1199.10 0.03332
1199.20 0.0333
1199.30 0.03329
1199.40 0.03328
1199.50 0.03327
1199.60 0.03326
1199.70 0.03325
1199.80 0.03324
1199.90 0.03323
1200.00 0
