# Version 2.1 - nm, norm@500 to 1, cut digits, bergeron_50000_70.dat_50000
# Wavelength(nm)  Flambda(ergs/cm^s/s/nm)
300.00 6.175
300.10 6.168
300.20 6.16
300.30 6.153
300.40 6.145
300.50 6.138
300.60 6.131
300.70 6.123
300.80 6.116
300.90 6.109
301.00 6.101
301.10 6.094
301.20 6.087
301.30 6.079
301.40 6.072
301.50 6.065
301.60 6.057
301.70 6.05
301.80 6.043
301.90 6.036
302.00 6.029
302.10 6.021
302.20 6.014
302.30 6.007
302.40 6
302.50 5.993
302.60 5.985
302.70 5.978
302.80 5.971
302.90 5.964
303.00 5.957
303.10 5.95
303.20 5.943
303.30 5.936
303.40 5.928
303.50 5.921
303.60 5.914
303.70 5.907
303.80 5.9
303.90 5.893
304.00 5.886
304.10 5.879
304.20 5.872
304.30 5.865
304.40 5.858
304.50 5.851
304.60 5.844
304.70 5.837
304.80 5.83
304.90 5.824
305.00 5.817
305.10 5.81
305.20 5.803
305.30 5.796
305.40 5.789
305.50 5.782
305.60 5.775
305.70 5.769
305.80 5.762
305.90 5.755
306.00 5.748
306.10 5.741
306.20 5.735
306.30 5.728
306.40 5.721
306.50 5.714
306.60 5.707
306.70 5.701
306.80 5.694
306.90 5.687
307.00 5.681
307.10 5.674
307.20 5.667
307.30 5.661
307.40 5.654
307.50 5.647
307.60 5.641
307.70 5.634
307.80 5.627
307.90 5.621
308.00 5.614
308.10 5.607
308.20 5.601
308.30 5.594
308.40 5.588
308.50 5.581
308.60 5.575
308.70 5.568
308.80 5.562
308.90 5.555
309.00 5.548
309.10 5.542
309.20 5.535
309.30 5.529
309.40 5.523
309.50 5.516
309.60 5.51
309.70 5.503
309.80 5.497
309.90 5.49
310.00 5.484
310.10 5.477
310.20 5.471
310.30 5.465
310.40 5.458
310.50 5.452
310.60 5.446
310.70 5.439
310.80 5.433
310.90 5.427
311.00 5.42
311.10 5.414
311.20 5.408
311.30 5.401
311.40 5.395
311.50 5.389
311.60 5.382
311.70 5.376
311.80 5.37
311.90 5.364
312.00 5.357
312.10 5.351
312.20 5.345
312.30 5.339
312.40 5.333
312.50 5.326
312.60 5.32
312.70 5.314
312.80 5.308
312.90 5.302
313.00 5.296
313.10 5.289
313.20 5.283
313.30 5.277
313.40 5.271
313.50 5.265
313.60 5.259
313.70 5.253
313.80 5.247
313.90 5.241
314.00 5.235
314.10 5.229
314.20 5.223
314.30 5.217
314.40 5.211
314.50 5.204
314.60 5.198
314.70 5.193
314.80 5.187
314.90 5.181
315.00 5.175
315.10 5.169
315.20 5.163
315.30 5.157
315.40 5.151
315.50 5.145
315.60 5.139
315.70 5.133
315.80 5.127
315.90 5.121
316.00 5.115
316.10 5.11
316.20 5.104
316.30 5.098
316.40 5.092
316.50 5.086
316.60 5.08
316.70 5.074
316.80 5.069
316.90 5.063
317.00 5.057
317.10 5.051
317.20 5.045
317.30 5.04
317.40 5.034
317.50 5.028
317.60 5.022
317.70 5.017
317.80 5.011
317.90 5.005
318.00 5
318.10 4.994
318.20 4.988
318.30 4.982
318.40 4.977
318.50 4.971
318.60 4.965
318.70 4.96
318.80 4.954
318.90 4.948
319.00 4.943
319.10 4.937
319.20 4.932
319.30 4.926
319.40 4.92
319.50 4.915
319.60 4.909
319.70 4.904
319.80 4.898
319.90 4.892
320.00 4.887
320.10 4.881
320.20 4.876
320.30 4.87
320.40 4.865
320.50 4.859
320.60 4.854
320.70 4.848
320.80 4.843
320.90 4.837
321.00 4.832
321.10 4.826
321.20 4.821
321.30 4.815
321.40 4.81
321.50 4.805
321.60 4.799
321.70 4.794
321.80 4.788
321.90 4.783
322.00 4.777
322.10 4.772
322.20 4.767
322.30 4.761
322.40 4.756
322.50 4.751
322.60 4.745
322.70 4.74
322.80 4.735
322.90 4.729
323.00 4.724
323.10 4.719
323.20 4.713
323.30 4.708
323.40 4.703
323.50 4.697
323.60 4.692
323.70 4.687
323.80 4.682
323.90 4.676
324.00 4.671
324.10 4.666
324.20 4.661
324.30 4.655
324.40 4.65
324.50 4.645
324.60 4.64
324.70 4.635
324.80 4.629
324.90 4.624
325.00 4.619
325.10 4.614
325.20 4.609
325.30 4.604
325.40 4.598
325.50 4.593
325.60 4.588
325.70 4.583
325.80 4.578
325.90 4.573
326.00 4.568
326.10 4.563
326.20 4.557
326.30 4.552
326.40 4.547
326.50 4.542
326.60 4.537
326.70 4.532
326.80 4.527
326.90 4.522
327.00 4.517
327.10 4.512
327.20 4.507
327.30 4.502
327.40 4.497
327.50 4.492
327.60 4.487
327.70 4.482
327.80 4.477
327.90 4.472
328.00 4.467
328.10 4.462
328.20 4.457
328.30 4.452
328.40 4.447
328.50 4.442
328.60 4.437
328.70 4.433
328.80 4.428
328.90 4.423
329.00 4.418
329.10 4.413
329.20 4.408
329.30 4.403
329.40 4.398
329.50 4.393
329.60 4.389
329.70 4.384
329.80 4.379
329.90 4.374
330.00 4.369
330.10 4.364
330.20 4.36
330.30 4.355
330.40 4.35
330.50 4.345
330.60 4.34
330.70 4.336
330.80 4.331
330.90 4.326
331.00 4.321
331.10 4.317
331.20 4.312
331.30 4.307
331.40 4.302
331.50 4.298
331.60 4.293
331.70 4.288
331.80 4.284
331.90 4.279
332.00 4.274
332.10 4.269
332.20 4.265
332.30 4.26
332.40 4.255
332.50 4.251
332.60 4.246
332.70 4.241
332.80 4.237
332.90 4.232
333.00 4.228
333.10 4.223
333.20 4.218
333.30 4.214
333.40 4.209
333.50 4.204
333.60 4.2
333.70 4.195
333.80 4.191
333.90 4.186
334.00 4.182
334.10 4.177
334.20 4.172
334.30 4.168
334.40 4.163
334.50 4.159
334.60 4.154
334.70 4.15
334.80 4.145
334.90 4.141
335.00 4.136
335.10 4.132
335.20 4.127
335.30 4.123
335.40 4.118
335.50 4.114
335.60 4.109
335.70 4.105
335.80 4.1
335.90 4.096
336.00 4.091
336.10 4.087
336.20 4.083
336.30 4.078
336.40 4.074
336.50 4.069
336.60 4.065
336.70 4.061
336.80 4.056
336.90 4.052
337.00 4.047
337.10 4.043
337.20 4.039
337.30 4.034
337.40 4.03
337.50 4.026
337.60 4.021
337.70 4.017
337.80 4.013
337.90 4.008
338.00 4.004
338.10 4
338.20 3.995
338.30 3.991
338.40 3.987
338.50 3.982
338.60 3.978
338.70 3.974
338.80 3.97
338.90 3.965
339.00 3.961
339.10 3.957
339.20 3.952
339.30 3.948
339.40 3.944
339.50 3.94
339.60 3.935
339.70 3.931
339.80 3.927
339.90 3.923
340.00 3.919
340.10 3.914
340.20 3.91
340.30 3.906
340.40 3.902
340.50 3.898
340.60 3.893
340.70 3.889
340.80 3.885
340.90 3.881
341.00 3.877
341.10 3.873
341.20 3.869
341.30 3.864
341.40 3.86
341.50 3.856
341.60 3.852
341.70 3.848
341.80 3.844
341.90 3.84
342.00 3.836
342.10 3.831
342.20 3.827
342.30 3.823
342.40 3.819
342.50 3.815
342.60 3.811
342.70 3.807
342.80 3.803
342.90 3.799
343.00 3.795
343.10 3.791
343.20 3.787
343.30 3.783
343.40 3.779
343.50 3.775
343.60 3.771
343.70 3.767
343.80 3.763
343.90 3.759
344.00 3.755
344.10 3.751
344.20 3.747
344.30 3.743
344.40 3.739
344.50 3.735
344.60 3.731
344.70 3.727
344.80 3.723
344.90 3.719
345.00 3.715
345.10 3.711
345.20 3.707
345.30 3.703
345.40 3.699
345.50 3.696
345.60 3.692
345.70 3.688
345.80 3.684
345.90 3.68
346.00 3.676
346.10 3.672
346.20 3.668
346.30 3.664
346.40 3.661
346.50 3.657
346.60 3.653
346.70 3.649
346.80 3.645
346.90 3.641
347.00 3.637
347.10 3.634
347.20 3.63
347.30 3.626
347.40 3.622
347.50 3.618
347.60 3.615
347.70 3.611
347.80 3.607
347.90 3.603
348.00 3.599
348.10 3.596
348.20 3.592
348.30 3.588
348.40 3.584
348.50 3.581
348.60 3.577
348.70 3.573
348.80 3.569
348.90 3.566
349.00 3.562
349.10 3.558
349.20 3.554
349.30 3.551
349.40 3.547
349.50 3.543
349.60 3.539
349.70 3.536
349.80 3.532
349.90 3.528
350.00 3.525
350.10 3.521
350.20 3.517
350.30 3.514
350.40 3.51
350.50 3.506
350.60 3.503
350.70 3.499
350.80 3.495
350.90 3.492
351.00 3.488
351.10 3.484
351.20 3.481
351.30 3.477
351.40 3.474
351.50 3.47
351.60 3.466
351.70 3.463
351.80 3.459
351.90 3.456
352.00 3.452
352.10 3.448
352.20 3.445
352.30 3.441
352.40 3.438
352.50 3.434
352.60 3.431
352.70 3.427
352.80 3.423
352.90 3.42
353.00 3.416
353.10 3.413
353.20 3.409
353.30 3.406
353.40 3.402
353.50 3.399
353.60 3.395
353.70 3.392
353.80 3.388
353.90 3.385
354.00 3.381
354.10 3.378
354.20 3.374
354.30 3.371
354.40 3.367
354.50 3.364
354.60 3.36
354.70 3.357
354.80 3.353
354.90 3.35
355.00 3.346
355.10 3.343
355.20 3.339
355.30 3.336
355.40 3.333
355.50 3.329
355.60 3.326
355.70 3.322
355.80 3.319
355.90 3.315
356.00 3.312
356.10 3.309
356.20 3.305
356.30 3.302
356.40 3.298
356.50 3.295
356.60 3.292
356.70 3.288
356.80 3.285
356.90 3.282
357.00 3.278
357.10 3.275
357.20 3.271
357.30 3.268
357.40 3.265
357.50 3.261
357.60 3.258
357.70 3.255
357.80 3.251
357.90 3.248
358.00 3.245
358.10 3.241
358.20 3.238
358.30 3.235
358.40 3.232
358.50 3.228
358.60 3.225
358.70 3.222
358.80 3.218
358.90 3.215
359.00 3.212
359.10 3.209
359.20 3.205
359.30 3.202
359.40 3.199
359.50 3.195
359.60 3.192
359.70 3.189
359.80 3.186
359.90 3.182
360.00 3.179
360.10 3.176
360.20 3.173
360.30 3.169
360.40 3.166
360.50 3.163
360.60 3.16
360.70 3.157
360.80 3.153
360.90 3.15
361.00 3.147
361.10 3.144
361.20 3.141
361.30 3.137
361.40 3.134
361.50 3.131
361.60 3.128
361.70 3.125
361.80 3.122
361.90 3.118
362.00 3.115
362.10 3.112
362.20 3.109
362.30 3.106
362.40 3.103
362.50 3.1
362.60 3.096
362.70 3.093
362.80 3.09
362.90 3.087
363.00 3.084
363.10 3.081
363.20 3.078
363.30 3.075
363.40 3.071
363.50 3.068
363.60 3.065
363.70 3.062
363.80 3.059
363.90 3.056
364.00 3.053
364.10 3.05
364.20 3.047
364.30 3.044
364.40 3.041
364.50 3.038
364.60 3.035
364.70 3.031
364.80 3.028
364.90 3.025
365.00 3.022
365.10 3.019
365.20 3.016
365.30 3.013
365.40 3.01
365.50 3.007
365.60 3.004
365.70 3.001
365.80 2.998
365.90 2.995
366.00 2.992
366.10 2.989
366.20 2.986
366.30 2.983
366.40 2.98
366.50 2.977
366.60 2.973
366.70 2.97
366.80 2.967
366.90 2.964
367.00 2.961
367.10 2.958
367.20 2.955
367.30 2.952
367.40 2.949
367.50 2.946
367.60 2.942
367.70 2.939
367.80 2.936
367.90 2.933
368.00 2.93
368.10 2.927
368.20 2.924
368.30 2.921
368.40 2.918
368.50 2.915
368.60 2.912
368.70 2.909
368.80 2.906
368.90 2.903
369.00 2.9
369.10 2.897
369.20 2.894
369.30 2.891
369.40 2.888
369.50 2.885
369.60 2.882
369.70 2.879
369.80 2.876
369.90 2.873
370.00 2.87
370.10 2.867
370.20 2.864
370.30 2.861
370.40 2.858
370.50 2.855
370.60 2.852
370.70 2.849
370.80 2.846
370.90 2.844
371.00 2.841
371.10 2.838
371.20 2.835
371.30 2.832
371.40 2.829
371.50 2.826
371.60 2.823
371.70 2.82
371.80 2.817
371.90 2.815
372.00 2.812
372.10 2.809
372.20 2.806
372.30 2.803
372.40 2.801
372.50 2.798
372.60 2.795
372.70 2.792
372.80 2.79
372.90 2.787
373.00 2.784
373.10 2.782
373.20 2.779
373.30 2.776
373.40 2.773
373.50 2.771
373.60 2.768
373.70 2.765
373.80 2.763
373.90 2.76
374.00 2.757
374.10 2.755
374.20 2.752
374.30 2.75
374.40 2.747
374.50 2.745
374.60 2.742
374.70 2.74
374.80 2.737
374.90 2.735
375.00 2.732
375.10 2.73
375.20 2.727
375.30 2.725
375.40 2.722
375.50 2.72
375.60 2.717
375.70 2.715
375.80 2.712
375.90 2.71
376.00 2.707
376.10 2.704
376.20 2.702
376.30 2.699
376.40 2.696
376.50 2.694
376.60 2.691
376.70 2.688
376.80 2.686
376.90 2.683
377.00 2.68
377.10 2.678
377.20 2.677
377.30 2.675
377.40 2.673
377.50 2.671
377.60 2.669
377.70 2.667
377.80 2.665
377.90 2.663
378.00 2.661
378.10 2.659
378.20 2.656
378.30 2.653
378.40 2.651
378.50 2.648
378.60 2.645
378.70 2.642
378.80 2.64
378.90 2.637
379.00 2.634
379.10 2.631
379.20 2.629
379.30 2.626
379.40 2.623
379.50 2.62
379.60 2.617
379.70 2.614
379.80 2.612
379.90 2.609
380.00 2.606
380.10 2.605
380.20 2.604
380.30 2.604
380.40 2.603
380.50 2.602
380.60 2.601
380.70 2.6
380.80 2.6
380.90 2.599
381.00 2.598
381.10 2.596
381.20 2.594
381.30 2.592
381.40 2.59
381.50 2.588
381.60 2.585
381.70 2.582
381.80 2.578
381.90 2.575
382.00 2.571
382.10 2.567
382.20 2.563
382.30 2.557
382.40 2.551
382.50 2.546
382.60 2.54
382.70 2.535
382.80 2.529
382.90 2.524
383.00 2.518
383.10 2.512
383.20 2.507
383.30 2.501
383.40 2.495
383.50 2.491
383.60 2.49
383.70 2.491
383.80 2.493
383.90 2.496
384.00 2.498
384.10 2.501
384.20 2.503
384.30 2.506
384.40 2.508
384.50 2.51
384.60 2.512
384.70 2.514
384.80 2.515
384.90 2.516
385.00 2.517
385.10 2.517
385.20 2.517
385.30 2.517
385.40 2.517
385.50 2.516
385.60 2.515
385.70 2.514
385.80 2.512
385.90 2.51
386.00 2.508
386.10 2.505
386.20 2.502
386.30 2.499
386.40 2.495
386.50 2.491
386.60 2.487
386.70 2.482
386.80 2.477
386.90 2.472
387.00 2.466
387.10 2.46
387.20 2.453
387.30 2.446
387.40 2.439
387.50 2.43
387.60 2.422
387.70 2.413
387.80 2.404
387.90 2.394
388.00 2.384
388.10 2.374
388.20 2.363
388.30 2.352
388.40 2.341
388.50 2.33
388.60 2.319
388.70 2.309
388.80 2.302
388.90 2.297
389.00 2.298
389.10 2.301
389.20 2.307
389.30 2.314
389.40 2.322
389.50 2.329
389.60 2.336
389.70 2.344
389.80 2.351
389.90 2.357
390.00 2.363
390.10 2.369
390.20 2.374
390.30 2.379
390.40 2.384
390.50 2.388
390.60 2.392
390.70 2.396
390.80 2.399
390.90 2.401
391.00 2.404
391.10 2.406
391.20 2.408
391.30 2.409
391.40 2.411
391.50 2.412
391.60 2.412
391.70 2.413
391.80 2.413
391.90 2.413
392.00 2.412
392.10 2.412
392.20 2.411
392.30 2.41
392.40 2.409
392.50 2.408
392.60 2.406
392.70 2.404
392.80 2.402
392.90 2.4
393.00 2.397
393.10 2.395
393.20 2.392
393.30 2.389
393.40 2.385
393.50 2.382
393.60 2.378
393.70 2.374
393.80 2.369
393.90 2.365
394.00 2.36
394.10 2.355
394.20 2.349
394.30 2.343
394.40 2.337
394.50 2.331
394.60 2.324
394.70 2.316
394.80 2.309
394.90 2.3
395.00 2.292
395.10 2.283
395.20 2.273
395.30 2.263
395.40 2.252
395.50 2.241
395.60 2.229
395.70 2.216
395.80 2.203
395.90 2.19
396.00 2.175
396.10 2.16
396.20 2.145
396.30 2.128
396.40 2.112
396.50 2.095
396.60 2.077
396.70 2.06
396.80 2.042
396.90 2.025
397.00 2.009
397.10 2.02
397.20 2.033
397.30 2.047
397.40 2.061
397.50 2.075
397.60 2.088
397.70 2.101
397.80 2.114
397.90 2.126
398.00 2.137
398.10 2.147
398.20 2.157
398.30 2.166
398.40 2.175
398.50 2.183
398.60 2.191
398.70 2.197
398.80 2.204
398.90 2.21
399.00 2.215
399.10 2.22
399.20 2.224
399.30 2.228
399.40 2.232
399.50 2.235
399.60 2.238
399.70 2.241
399.80 2.243
399.90 2.245
400.00 2.246
400.10 2.248
400.20 2.249
400.30 2.25
400.40 2.251
400.50 2.251
400.60 2.252
400.70 2.252
400.80 2.252
400.90 2.252
401.00 2.252
401.10 2.252
401.20 2.251
401.30 2.251
401.40 2.25
401.50 2.249
401.60 2.249
401.70 2.248
401.80 2.247
401.90 2.245
402.00 2.244
402.10 2.243
402.20 2.242
402.30 2.24
402.40 2.239
402.50 2.237
402.60 2.236
402.70 2.234
402.80 2.233
402.90 2.231
403.00 2.229
403.10 2.227
403.20 2.225
403.30 2.224
403.40 2.222
403.50 2.22
403.60 2.218
403.70 2.215
403.80 2.213
403.90 2.211
404.00 2.209
404.10 2.207
404.20 2.204
404.30 2.202
404.40 2.2
404.50 2.197
404.60 2.195
404.70 2.192
404.80 2.189
404.90 2.187
405.00 2.184
405.10 2.181
405.20 2.178
405.30 2.175
405.40 2.172
405.50 2.169
405.60 2.166
405.70 2.162
405.80 2.159
405.90 2.155
406.00 2.152
406.10 2.148
406.20 2.144
406.30 2.14
406.40 2.136
406.50 2.131
406.60 2.127
406.70 2.122
406.80 2.117
406.90 2.112
407.00 2.107
407.10 2.101
407.20 2.096
407.30 2.089
407.40 2.083
407.50 2.076
407.60 2.069
407.70 2.062
407.80 2.054
407.90 2.046
408.00 2.037
408.10 2.028
408.20 2.018
408.30 2.008
408.40 1.997
408.50 1.985
408.60 1.973
408.70 1.96
408.80 1.947
408.90 1.932
409.00 1.918
409.10 1.902
409.20 1.885
409.30 1.868
409.40 1.849
409.50 1.83
409.60 1.81
409.70 1.79
409.80 1.768
409.90 1.746
410.00 1.725
410.10 1.712
410.20 1.708
410.30 1.716
410.40 1.729
410.50 1.749
410.60 1.767
410.70 1.785
410.80 1.802
410.90 1.818
411.00 1.833
411.10 1.848
411.20 1.861
411.30 1.874
411.40 1.886
411.50 1.897
411.60 1.907
411.70 1.917
411.80 1.925
411.90 1.933
412.00 1.941
412.10 1.947
412.20 1.954
412.30 1.959
412.40 1.964
412.50 1.969
412.60 1.973
412.70 1.977
412.80 1.981
412.90 1.984
413.00 1.986
413.10 1.989
413.20 1.991
413.30 1.993
413.40 1.994
413.50 1.996
413.60 1.997
413.70 1.998
413.80 1.999
413.90 1.999
414.00 2
414.10 2
414.20 2
414.30 2
414.40 2
414.50 2
414.60 2
414.70 1.999
414.80 1.999
414.90 1.998
415.00 1.998
415.10 1.997
415.20 1.996
415.30 1.995
415.40 1.995
415.50 1.994
415.60 1.993
415.70 1.992
415.80 1.991
415.90 1.99
416.00 1.988
416.10 1.987
416.20 1.986
416.30 1.985
416.40 1.984
416.50 1.982
416.60 1.981
416.70 1.98
416.80 1.978
416.90 1.977
417.00 1.976
417.10 1.974
417.20 1.973
417.30 1.971
417.40 1.97
417.50 1.968
417.60 1.967
417.70 1.965
417.80 1.964
417.90 1.962
418.00 1.961
418.10 1.959
418.20 1.958
418.30 1.956
418.40 1.955
418.50 1.953
418.60 1.951
418.70 1.95
418.80 1.948
418.90 1.947
419.00 1.945
419.10 1.943
419.20 1.942
419.30 1.94
419.40 1.939
419.50 1.937
419.60 1.935
419.70 1.934
419.80 1.932
419.90 1.93
420.00 1.929
420.10 1.927
420.20 1.926
420.30 1.924
420.40 1.922
420.50 1.921
420.60 1.919
420.70 1.917
420.80 1.916
420.90 1.914
421.00 1.912
421.10 1.911
421.20 1.909
421.30 1.907
421.40 1.906
421.50 1.904
421.60 1.902
421.70 1.9
421.80 1.899
421.90 1.897
422.00 1.895
422.10 1.894
422.20 1.892
422.30 1.89
422.40 1.889
422.50 1.887
422.60 1.885
422.70 1.884
422.80 1.882
422.90 1.88
423.00 1.878
423.10 1.877
423.20 1.875
423.30 1.873
423.40 1.872
423.50 1.87
423.60 1.868
423.70 1.867
423.80 1.865
423.90 1.863
424.00 1.861
424.10 1.86
424.20 1.858
424.30 1.856
424.40 1.854
424.50 1.853
424.60 1.851
424.70 1.849
424.80 1.847
424.90 1.846
425.00 1.844
425.10 1.842
425.20 1.84
425.30 1.839
425.40 1.837
425.50 1.835
425.60 1.833
425.70 1.832
425.80 1.83
425.90 1.828
426.00 1.826
426.10 1.824
426.20 1.822
426.30 1.821
426.40 1.819
426.50 1.817
426.60 1.815
426.70 1.813
426.80 1.811
426.90 1.809
427.00 1.808
427.10 1.806
427.20 1.804
427.30 1.802
427.40 1.8
427.50 1.798
427.60 1.796
427.70 1.794
427.80 1.792
427.90 1.79
428.00 1.788
428.10 1.786
428.20 1.783
428.30 1.781
428.40 1.779
428.50 1.777
428.60 1.775
428.70 1.772
428.80 1.77
428.90 1.768
429.00 1.765
429.10 1.763
429.20 1.76
429.30 1.758
429.40 1.755
429.50 1.752
429.60 1.75
429.70 1.747
429.80 1.744
429.90 1.741
430.00 1.738
430.10 1.734
430.20 1.731
430.30 1.728
430.40 1.724
430.50 1.72
430.60 1.717
430.70 1.713
430.80 1.708
430.90 1.704
431.00 1.699
431.10 1.695
431.20 1.69
431.30 1.684
431.40 1.679
431.50 1.673
431.60 1.667
431.70 1.66
431.80 1.653
431.90 1.646
432.00 1.638
432.10 1.63
432.20 1.621
432.30 1.612
432.40 1.602
432.50 1.591
432.60 1.58
432.70 1.568
432.80 1.556
432.90 1.542
433.00 1.528
433.10 1.513
433.20 1.498
433.30 1.481
433.40 1.464
433.50 1.446
433.60 1.427
433.70 1.407
433.80 1.387
433.90 1.365
434.00 1.345
434.10 1.345
434.20 1.363
434.30 1.382
434.40 1.401
434.50 1.418
434.60 1.434
434.70 1.45
434.80 1.465
434.90 1.478
435.00 1.491
435.10 1.504
435.20 1.515
435.30 1.525
435.40 1.535
435.50 1.544
435.60 1.552
435.70 1.56
435.80 1.567
435.90 1.573
436.00 1.579
436.10 1.584
436.20 1.589
436.30 1.593
436.40 1.597
436.50 1.601
436.60 1.604
436.70 1.607
436.80 1.609
436.90 1.611
437.00 1.613
437.10 1.615
437.20 1.617
437.30 1.618
437.40 1.619
437.50 1.62
437.60 1.621
437.70 1.621
437.80 1.622
437.90 1.622
438.00 1.622
438.10 1.623
438.20 1.623
438.30 1.623
438.40 1.622
438.50 1.622
438.60 1.622
438.70 1.622
438.80 1.621
438.90 1.621
439.00 1.62
439.10 1.62
439.20 1.619
439.30 1.618
439.40 1.618
439.50 1.617
439.60 1.616
439.70 1.615
439.80 1.614
439.90 1.614
440.00 1.613
440.10 1.612
440.20 1.611
440.30 1.61
440.40 1.609
440.50 1.608
440.60 1.607
440.70 1.606
440.80 1.605
440.90 1.604
441.00 1.603
441.10 1.602
441.20 1.6
441.30 1.599
441.40 1.598
441.50 1.597
441.60 1.596
441.70 1.595
441.80 1.594
441.90 1.592
442.00 1.591
442.10 1.59
442.20 1.589
442.30 1.588
442.40 1.587
442.50 1.585
442.60 1.584
442.70 1.583
442.80 1.582
442.90 1.58
443.00 1.579
443.10 1.578
443.20 1.577
443.30 1.576
443.40 1.574
443.50 1.573
443.60 1.572
443.70 1.571
443.80 1.569
443.90 1.568
444.00 1.567
444.10 1.566
444.20 1.564
444.30 1.563
444.40 1.562
444.50 1.561
444.60 1.559
444.70 1.558
444.80 1.557
444.90 1.556
445.00 1.554
445.10 1.553
445.20 1.552
445.30 1.55
445.40 1.549
445.50 1.548
445.60 1.547
445.70 1.545
445.80 1.544
445.90 1.543
446.00 1.542
446.10 1.54
446.20 1.539
446.30 1.538
446.40 1.537
446.50 1.535
446.60 1.534
446.70 1.533
446.80 1.532
446.90 1.53
447.00 1.529
447.10 1.528
447.20 1.526
447.30 1.525
447.40 1.524
447.50 1.523
447.60 1.521
447.70 1.52
447.80 1.519
447.90 1.518
448.00 1.516
448.10 1.515
448.20 1.514
448.30 1.513
448.40 1.511
448.50 1.51
448.60 1.509
448.70 1.508
448.80 1.506
448.90 1.505
449.00 1.504
449.10 1.503
449.20 1.501
449.30 1.5
449.40 1.499
449.50 1.498
449.60 1.496
449.70 1.495
449.80 1.494
449.90 1.493
450.00 1.491
450.10 1.49
450.20 1.489
450.30 1.488
450.40 1.486
450.50 1.485
450.60 1.484
450.70 1.483
450.80 1.482
450.90 1.48
451.00 1.479
451.10 1.478
451.20 1.477
451.30 1.475
451.40 1.474
451.50 1.473
451.60 1.472
451.70 1.47
451.80 1.469
451.90 1.468
452.00 1.467
452.10 1.466
452.20 1.464
452.30 1.463
452.40 1.462
452.50 1.461
452.60 1.46
452.70 1.458
452.80 1.457
452.90 1.456
453.00 1.455
453.10 1.453
453.20 1.452
453.30 1.451
453.40 1.45
453.50 1.449
453.60 1.447
453.70 1.446
453.80 1.445
453.90 1.444
454.00 1.443
454.10 1.441
454.20 1.44
454.30 1.439
454.40 1.438
454.50 1.437
454.60 1.435
454.70 1.434
454.80 1.433
454.90 1.432
455.00 1.431
455.10 1.43
455.20 1.428
455.30 1.427
455.40 1.426
455.50 1.425
455.60 1.424
455.70 1.422
455.80 1.421
455.90 1.42
456.00 1.419
456.10 1.418
456.20 1.417
456.30 1.415
456.40 1.414
456.50 1.413
456.60 1.412
456.70 1.411
456.80 1.41
456.90 1.408
457.00 1.407
457.10 1.406
457.20 1.405
457.30 1.404
457.40 1.403
457.50 1.401
457.60 1.4
457.70 1.399
457.80 1.398
457.90 1.397
458.00 1.396
458.10 1.394
458.20 1.393
458.30 1.392
458.40 1.391
458.50 1.39
458.60 1.389
458.70 1.388
458.80 1.386
458.90 1.385
459.00 1.384
459.10 1.383
459.20 1.382
459.30 1.381
459.40 1.38
459.50 1.378
459.60 1.377
459.70 1.376
459.80 1.375
459.90 1.374
460.00 1.373
460.10 1.372
460.20 1.371
460.30 1.369
460.40 1.368
460.50 1.367
460.60 1.366
460.70 1.365
460.80 1.364
460.90 1.363
461.00 1.362
461.10 1.36
461.20 1.359
461.30 1.358
461.40 1.357
461.50 1.356
461.60 1.355
461.70 1.354
461.80 1.353
461.90 1.351
462.00 1.35
462.10 1.349
462.20 1.348
462.30 1.347
462.40 1.346
462.50 1.345
462.60 1.344
462.70 1.343
462.80 1.342
462.90 1.34
463.00 1.339
463.10 1.338
463.20 1.337
463.30 1.336
463.40 1.335
463.50 1.334
463.60 1.333
463.70 1.332
463.80 1.331
463.90 1.329
464.00 1.328
464.10 1.327
464.20 1.326
464.30 1.325
464.40 1.324
464.50 1.323
464.60 1.322
464.70 1.321
464.80 1.32
464.90 1.319
465.00 1.318
465.10 1.316
465.20 1.315
465.30 1.314
465.40 1.313
465.50 1.312
465.60 1.311
465.70 1.31
465.80 1.309
465.90 1.308
466.00 1.307
466.10 1.306
466.20 1.305
466.30 1.304
466.40 1.303
466.50 1.301
466.60 1.3
466.70 1.299
466.80 1.298
466.90 1.297
467.00 1.296
467.10 1.295
467.20 1.294
467.30 1.293
467.40 1.292
467.50 1.291
467.60 1.29
467.70 1.289
467.80 1.288
467.90 1.287
468.00 1.286
468.10 1.285
468.20 1.284
468.30 1.282
468.40 1.281
468.50 1.28
468.60 1.279
468.70 1.278
468.80 1.277
468.90 1.276
469.00 1.275
469.10 1.274
469.20 1.273
469.30 1.272
469.40 1.271
469.50 1.27
469.60 1.269
469.70 1.268
469.80 1.267
469.90 1.266
470.00 1.265
470.10 1.264
470.20 1.263
470.30 1.262
470.40 1.261
470.50 1.26
470.60 1.259
470.70 1.258
470.80 1.256
470.90 1.255
471.00 1.254
471.10 1.253
471.20 1.252
471.30 1.251
471.40 1.25
471.50 1.249
471.60 1.248
471.70 1.247
471.80 1.246
471.90 1.245
472.00 1.244
472.10 1.243
472.20 1.242
472.30 1.241
472.40 1.24
472.50 1.239
472.60 1.238
472.70 1.237
472.80 1.236
472.90 1.235
473.00 1.234
473.10 1.233
473.20 1.232
473.30 1.231
473.40 1.23
473.50 1.229
473.60 1.228
473.70 1.227
473.80 1.226
473.90 1.225
474.00 1.224
474.10 1.223
474.20 1.222
474.30 1.221
474.40 1.22
474.50 1.219
474.60 1.218
474.70 1.217
474.80 1.216
474.90 1.215
475.00 1.214
475.10 1.213
475.20 1.212
475.30 1.21
475.40 1.209
475.50 1.208
475.60 1.207
475.70 1.206
475.80 1.205
475.90 1.204
476.00 1.203
476.10 1.202
476.20 1.201
476.30 1.2
476.40 1.199
476.50 1.198
476.60 1.197
476.70 1.196
476.80 1.195
476.90 1.194
477.00 1.193
477.10 1.192
477.20 1.191
477.30 1.19
477.40 1.189
477.50 1.188
477.60 1.187
477.70 1.185
477.80 1.184
477.90 1.183
478.00 1.182
478.10 1.181
478.20 1.18
478.30 1.179
478.40 1.178
478.50 1.177
478.60 1.176
478.70 1.175
478.80 1.173
478.90 1.172
479.00 1.171
479.10 1.17
479.20 1.169
479.30 1.168
479.40 1.166
479.50 1.165
479.60 1.164
479.70 1.163
479.80 1.162
479.90 1.16
480.00 1.159
480.10 1.158
480.20 1.157
480.30 1.155
480.40 1.154
480.50 1.153
480.60 1.151
480.70 1.15
480.80 1.148
480.90 1.147
481.00 1.146
481.10 1.144
481.20 1.143
481.30 1.141
481.40 1.139
481.50 1.138
481.60 1.136
481.70 1.134
481.80 1.133
481.90 1.131
482.00 1.129
482.10 1.128
482.20 1.125
482.30 1.123
482.40 1.121
482.50 1.118
482.60 1.116
482.70 1.114
482.80 1.111
482.90 1.109
483.00 1.107
483.10 1.104
483.20 1.101
483.30 1.097
483.40 1.093
483.50 1.09
483.60 1.086
483.70 1.082
483.80 1.078
483.90 1.074
484.00 1.071
484.10 1.067
484.20 1.062
484.30 1.056
484.40 1.05
484.50 1.045
484.60 1.039
484.70 1.032
484.80 1.024
484.90 1.017
485.00 1.009
485.10 1.001
485.20 0.9926
485.30 0.9833
485.40 0.9733
485.50 0.9629
485.60 0.9518
485.70 0.9403
485.80 0.9272
485.90 0.9133
486.00 0.8952
486.10 0.8772
486.20 0.8788
486.30 0.9003
486.40 0.9143
486.50 0.927
486.60 0.9379
486.70 0.9479
486.80 0.9572
486.90 0.966
487.00 0.9741
487.10 0.9818
487.20 0.9884
487.30 0.9945
487.40 1
487.50 1.007
487.60 1.013
487.70 1.017
487.80 1.021
487.90 1.025
488.00 1.029
488.10 1.033
488.20 1.036
488.30 1.038
488.40 1.04
488.50 1.042
488.60 1.044
488.70 1.046
488.80 1.048
488.90 1.05
489.00 1.052
489.10 1.054
489.20 1.055
489.30 1.055
489.40 1.056
489.50 1.056
489.60 1.057
489.70 1.058
489.80 1.058
489.90 1.059
490.00 1.059
490.10 1.06
490.20 1.06
490.30 1.06
490.40 1.06
490.50 1.06
490.60 1.06
490.70 1.06
490.80 1.059
490.90 1.059
491.00 1.059
491.10 1.059
491.20 1.059
491.30 1.058
491.40 1.058
491.50 1.058
491.60 1.057
491.70 1.057
491.80 1.056
491.90 1.056
492.00 1.056
492.10 1.055
492.20 1.055
492.30 1.054
492.40 1.054
492.50 1.053
492.60 1.052
492.70 1.052
492.80 1.051
492.90 1.051
493.00 1.05
493.10 1.05
493.20 1.049
493.30 1.048
493.40 1.048
493.50 1.047
493.60 1.046
493.70 1.046
493.80 1.045
493.90 1.044
494.00 1.044
494.10 1.043
494.20 1.042
494.30 1.042
494.40 1.041
494.50 1.04
494.60 1.04
494.70 1.039
494.80 1.038
494.90 1.037
495.00 1.037
495.10 1.036
495.20 1.035
495.30 1.035
495.40 1.034
495.50 1.033
495.60 1.032
495.70 1.032
495.80 1.031
495.90 1.03
496.00 1.03
496.10 1.029
496.20 1.028
496.30 1.027
496.40 1.027
496.50 1.026
496.60 1.025
496.70 1.024
496.80 1.024
496.90 1.023
497.00 1.022
497.10 1.022
497.20 1.021
497.30 1.02
497.40 1.019
497.50 1.019
497.60 1.018
497.70 1.017
497.80 1.016
497.90 1.016
498.00 1.015
498.10 1.014
498.20 1.013
498.30 1.013
498.40 1.012
498.50 1.011
498.60 1.01
498.70 1.01
498.80 1.009
498.90 1.008
499.00 1.007
499.10 1.007
499.20 1.006
499.30 1.005
499.40 1.004
499.50 1.004
499.60 1.003
499.70 1.002
499.80 1.001
499.90 1.001
500.00 1
500.10 0.9993
500.20 0.9985
500.30 0.9978
500.40 0.997
500.50 0.9963
500.60 0.9956
500.70 0.9948
500.80 0.9941
500.90 0.9933
501.00 0.9926
501.10 0.9919
501.20 0.9911
501.30 0.9904
501.40 0.9896
501.50 0.9889
501.60 0.9882
501.70 0.9874
501.80 0.9867
501.90 0.986
502.00 0.9852
502.10 0.9845
502.20 0.9838
502.30 0.983
502.40 0.9823
502.50 0.9816
502.60 0.9808
502.70 0.9801
502.80 0.9794
502.90 0.9786
503.00 0.9779
503.10 0.9772
503.20 0.9764
503.30 0.9757
503.40 0.975
503.50 0.9743
503.60 0.9735
503.70 0.9728
503.80 0.9721
503.90 0.9714
504.00 0.9706
504.10 0.9699
504.20 0.9692
504.30 0.9685
504.40 0.9677
504.50 0.967
504.60 0.9663
504.70 0.9656
504.80 0.9648
504.90 0.9641
505.00 0.9634
505.10 0.9627
505.20 0.962
505.30 0.9613
505.40 0.9605
505.50 0.9598
505.60 0.9591
505.70 0.9584
505.80 0.9577
505.90 0.957
506.00 0.9562
506.10 0.9555
506.20 0.9548
506.30 0.9541
506.40 0.9534
506.50 0.9527
506.60 0.952
506.70 0.9513
506.80 0.9506
506.90 0.9498
507.00 0.9491
507.10 0.9484
507.20 0.9477
507.30 0.947
507.40 0.9463
507.50 0.9456
507.60 0.9449
507.70 0.9442
507.80 0.9435
507.90 0.9428
508.00 0.9421
508.10 0.9414
508.20 0.9407
508.30 0.94
508.40 0.9393
508.50 0.9386
508.60 0.9379
508.70 0.9372
508.80 0.9365
508.90 0.9358
509.00 0.9351
509.10 0.9344
509.20 0.9337
509.30 0.933
509.40 0.9323
509.50 0.9316
509.60 0.9309
509.70 0.9302
509.80 0.9296
509.90 0.9289
510.00 0.9282
510.10 0.9275
510.20 0.9268
510.30 0.9261
510.40 0.9254
510.50 0.9247
510.60 0.924
510.70 0.9234
510.80 0.9227
510.90 0.922
511.00 0.9213
511.10 0.9206
511.20 0.9199
511.30 0.9193
511.40 0.9186
511.50 0.9179
511.60 0.9172
511.70 0.9165
511.80 0.9159
511.90 0.9152
512.00 0.9145
512.10 0.9138
512.20 0.9131
512.30 0.9125
512.40 0.9118
512.50 0.9111
512.60 0.9104
512.70 0.9098
512.80 0.9091
512.90 0.9084
513.00 0.9078
513.10 0.9071
513.20 0.9064
513.30 0.9057
513.40 0.9051
513.50 0.9044
513.60 0.9037
513.70 0.9031
513.80 0.9024
513.90 0.9017
514.00 0.9011
514.10 0.9004
514.20 0.8997
514.30 0.8991
514.40 0.8984
514.50 0.8977
514.60 0.8971
514.70 0.8964
514.80 0.8958
514.90 0.8951
515.00 0.8944
515.10 0.8938
515.20 0.8931
515.30 0.8925
515.40 0.8918
515.50 0.8912
515.60 0.8905
515.70 0.8898
515.80 0.8892
515.90 0.8885
516.00 0.8879
516.10 0.8872
516.20 0.8866
516.30 0.8859
516.40 0.8853
516.50 0.8846
516.60 0.884
516.70 0.8833
516.80 0.8827
516.90 0.882
517.00 0.8814
517.10 0.8807
517.20 0.8801
517.30 0.8794
517.40 0.8788
517.50 0.8781
517.60 0.8775
517.70 0.8768
517.80 0.8762
517.90 0.8756
518.00 0.8749
518.10 0.8743
518.20 0.8736
518.30 0.873
518.40 0.8724
518.50 0.8717
518.60 0.8711
518.70 0.8704
518.80 0.8698
518.90 0.8692
519.00 0.8685
519.10 0.8679
519.20 0.8673
519.30 0.8666
519.40 0.866
519.50 0.8654
519.60 0.8647
519.70 0.8641
519.80 0.8635
519.90 0.8628
520.00 0.8622
520.10 0.8616
520.20 0.8609
520.30 0.8603
520.40 0.8597
520.50 0.859
520.60 0.8584
520.70 0.8578
520.80 0.8572
520.90 0.8565
521.00 0.8559
521.10 0.8553
521.20 0.8547
521.30 0.854
521.40 0.8534
521.50 0.8528
521.60 0.8522
521.70 0.8516
521.80 0.8509
521.90 0.8503
522.00 0.8497
522.10 0.8491
522.20 0.8485
522.30 0.8478
522.40 0.8472
522.50 0.8466
522.60 0.846
522.70 0.8454
522.80 0.8448
522.90 0.8441
523.00 0.8435
523.10 0.8429
523.20 0.8423
523.30 0.8417
523.40 0.8411
523.50 0.8405
523.60 0.8399
523.70 0.8393
523.80 0.8386
523.90 0.838
524.00 0.8374
524.10 0.8368
524.20 0.8362
524.30 0.8356
524.40 0.835
524.50 0.8344
524.60 0.8338
524.70 0.8332
524.80 0.8326
524.90 0.832
525.00 0.8314
525.10 0.8308
525.20 0.8302
525.30 0.8296
525.40 0.829
525.50 0.8284
525.60 0.8278
525.70 0.8272
525.80 0.8266
525.90 0.826
526.00 0.8254
526.10 0.8248
526.20 0.8242
526.30 0.8236
526.40 0.823
526.50 0.8224
526.60 0.8218
526.70 0.8212
526.80 0.8206
526.90 0.82
527.00 0.8194
527.10 0.8188
527.20 0.8182
527.30 0.8177
527.40 0.8171
527.50 0.8165
527.60 0.8159
527.70 0.8153
527.80 0.8147
527.90 0.8141
528.00 0.8135
528.10 0.8129
528.20 0.8124
528.30 0.8118
528.40 0.8112
528.50 0.8106
528.60 0.81
528.70 0.8094
528.80 0.8089
528.90 0.8083
529.00 0.8077
529.10 0.8071
529.20 0.8065
529.30 0.806
529.40 0.8054
529.50 0.8048
529.60 0.8042
529.70 0.8036
529.80 0.8031
529.90 0.8025
530.00 0.8019
530.10 0.8013
530.20 0.8008
530.30 0.8002
530.40 0.7996
530.50 0.799
530.60 0.7985
530.70 0.7979
530.80 0.7973
530.90 0.7967
531.00 0.7962
531.10 0.7956
531.20 0.795
531.30 0.7945
531.40 0.7939
531.50 0.7933
531.60 0.7928
531.70 0.7922
531.80 0.7916
531.90 0.7911
532.00 0.7905
532.10 0.7899
532.20 0.7894
532.30 0.7888
532.40 0.7882
532.50 0.7877
532.60 0.7871
532.70 0.7865
532.80 0.786
532.90 0.7854
533.00 0.7849
533.10 0.7843
533.20 0.7837
533.30 0.7832
533.40 0.7826
533.50 0.7821
533.60 0.7815
533.70 0.7809
533.80 0.7804
533.90 0.7798
534.00 0.7793
534.10 0.7787
534.20 0.7782
534.30 0.7776
534.40 0.7771
534.50 0.7765
534.60 0.7759
534.70 0.7754
534.80 0.7748
534.90 0.7743
535.00 0.7737
535.10 0.7732
535.20 0.7726
535.30 0.7721
535.40 0.7715
535.50 0.771
535.60 0.7704
535.70 0.7699
535.80 0.7693
535.90 0.7688
536.00 0.7682
536.10 0.7677
536.20 0.7672
536.30 0.7666
536.40 0.7661
536.50 0.7655
536.60 0.765
536.70 0.7644
536.80 0.7639
536.90 0.7634
537.00 0.7628
537.10 0.7623
537.20 0.7617
537.30 0.7612
537.40 0.7607
537.50 0.7601
537.60 0.7596
537.70 0.759
537.80 0.7585
537.90 0.758
538.00 0.7574
538.10 0.7569
538.20 0.7564
538.30 0.7558
538.40 0.7553
538.50 0.7547
538.60 0.7542
538.70 0.7537
538.80 0.7531
538.90 0.7526
539.00 0.7521
539.10 0.7515
539.20 0.751
539.30 0.7505
539.40 0.75
539.50 0.7494
539.60 0.7489
539.70 0.7484
539.80 0.7478
539.90 0.7473
540.00 0.7468
540.10 0.7463
540.20 0.7457
540.30 0.7452
540.40 0.7447
540.50 0.7442
540.60 0.7436
540.70 0.7431
540.80 0.7426
540.90 0.7421
541.00 0.7415
541.10 0.741
541.20 0.7405
541.30 0.74
541.40 0.7395
541.50 0.7389
541.60 0.7384
541.70 0.7379
541.80 0.7374
541.90 0.7369
542.00 0.7363
542.10 0.7358
542.20 0.7353
542.30 0.7348
542.40 0.7343
542.50 0.7338
542.60 0.7332
542.70 0.7327
542.80 0.7322
542.90 0.7317
543.00 0.7312
543.10 0.7307
543.20 0.7302
543.30 0.7296
543.40 0.7291
543.50 0.7286
543.60 0.7281
543.70 0.7276
543.80 0.7271
543.90 0.7266
544.00 0.7261
544.10 0.7256
544.20 0.7251
544.30 0.7245
544.40 0.724
544.50 0.7235
544.60 0.723
544.70 0.7225
544.80 0.722
544.90 0.7215
545.00 0.721
545.10 0.7205
545.20 0.72
545.30 0.7195
545.40 0.719
545.50 0.7185
545.60 0.718
545.70 0.7175
545.80 0.717
545.90 0.7165
546.00 0.716
546.10 0.7155
546.20 0.715
546.30 0.7145
546.40 0.714
546.50 0.7135
546.60 0.713
546.70 0.7125
546.80 0.712
546.90 0.7115
547.00 0.711
547.10 0.7105
547.20 0.71
547.30 0.7095
547.40 0.709
547.50 0.7085
547.60 0.708
547.70 0.7075
547.80 0.7071
547.90 0.7066
548.00 0.7061
548.10 0.7056
548.20 0.7051
548.30 0.7046
548.40 0.7041
548.50 0.7036
548.60 0.7031
548.70 0.7026
548.80 0.7022
548.90 0.7017
549.00 0.7012
549.10 0.7007
549.20 0.7002
549.30 0.6997
549.40 0.6992
549.50 0.6987
549.60 0.6983
549.70 0.6978
549.80 0.6973
549.90 0.6968
550.00 0.6963
550.10 0.6958
550.20 0.6954
550.30 0.6949
550.40 0.6944
550.50 0.6939
550.60 0.6934
550.70 0.693
550.80 0.6925
550.90 0.692
551.00 0.6915
551.10 0.691
551.20 0.6906
551.30 0.6901
551.40 0.6896
551.50 0.6891
551.60 0.6887
551.70 0.6882
551.80 0.6877
551.90 0.6872
552.00 0.6868
552.10 0.6863
552.20 0.6858
552.30 0.6853
552.40 0.6849
552.50 0.6844
552.60 0.6839
552.70 0.6834
552.80 0.683
552.90 0.6825
553.00 0.682
553.10 0.6816
553.20 0.6811
553.30 0.6806
553.40 0.6801
553.50 0.6797
553.60 0.6792
553.70 0.6787
553.80 0.6783
553.90 0.6778
554.00 0.6773
554.10 0.6769
554.20 0.6764
554.30 0.6759
554.40 0.6755
554.50 0.675
554.60 0.6745
554.70 0.6741
554.80 0.6736
554.90 0.6732
555.00 0.6727
555.10 0.6722
555.20 0.6718
555.30 0.6713
555.40 0.6708
555.50 0.6704
555.60 0.6699
555.70 0.6695
555.80 0.669
555.90 0.6685
556.00 0.6681
556.10 0.6676
556.20 0.6672
556.30 0.6667
556.40 0.6663
556.50 0.6658
556.60 0.6653
556.70 0.6649
556.80 0.6644
556.90 0.664
557.00 0.6635
557.10 0.6631
557.20 0.6626
557.30 0.6622
557.40 0.6617
557.50 0.6613
557.60 0.6608
557.70 0.6604
557.80 0.6599
557.90 0.6594
558.00 0.659
558.10 0.6585
558.20 0.6581
558.30 0.6576
558.40 0.6572
558.50 0.6567
558.60 0.6563
558.70 0.6559
558.80 0.6554
558.90 0.655
559.00 0.6545
559.10 0.6541
559.20 0.6536
559.30 0.6532
559.40 0.6527
559.50 0.6523
559.60 0.6518
559.70 0.6514
559.80 0.6509
559.90 0.6505
560.00 0.6501
560.10 0.6496
560.20 0.6492
560.30 0.6487
560.40 0.6483
560.50 0.6478
560.60 0.6474
560.70 0.647
560.80 0.6465
560.90 0.6461
561.00 0.6456
561.10 0.6452
561.20 0.6448
561.30 0.6443
561.40 0.6439
561.50 0.6435
561.60 0.643
561.70 0.6426
561.80 0.6421
561.90 0.6417
562.00 0.6413
562.10 0.6408
562.20 0.6404
562.30 0.64
562.40 0.6395
562.50 0.6391
562.60 0.6387
562.70 0.6382
562.80 0.6378
562.90 0.6374
563.00 0.6369
563.10 0.6365
563.20 0.6361
563.30 0.6356
563.40 0.6352
563.50 0.6348
563.60 0.6344
563.70 0.6339
563.80 0.6335
563.90 0.6331
564.00 0.6326
564.10 0.6322
564.20 0.6318
564.30 0.6314
564.40 0.6309
564.50 0.6305
564.60 0.6301
564.70 0.6296
564.80 0.6292
564.90 0.6288
565.00 0.6284
565.10 0.6279
565.20 0.6275
565.30 0.6271
565.40 0.6267
565.50 0.6263
565.60 0.6258
565.70 0.6254
565.80 0.625
565.90 0.6246
566.00 0.6241
566.10 0.6237
566.20 0.6233
566.30 0.6229
566.40 0.6225
566.50 0.622
566.60 0.6216
566.70 0.6212
566.80 0.6208
566.90 0.6204
567.00 0.6199
567.10 0.6195
567.20 0.6191
567.30 0.6187
567.40 0.6183
567.50 0.6179
567.60 0.6174
567.70 0.617
567.80 0.6166
567.90 0.6162
568.00 0.6158
568.10 0.6154
568.20 0.615
568.30 0.6145
568.40 0.6141
568.50 0.6137
568.60 0.6133
568.70 0.6129
568.80 0.6125
568.90 0.6121
569.00 0.6117
569.10 0.6113
569.20 0.6108
569.30 0.6104
569.40 0.61
569.50 0.6096
569.60 0.6092
569.70 0.6088
569.80 0.6084
569.90 0.608
570.00 0.6076
570.10 0.6072
570.20 0.6068
570.30 0.6064
570.40 0.606
570.50 0.6055
570.60 0.6051
570.70 0.6047
570.80 0.6043
570.90 0.6039
571.00 0.6035
571.10 0.6031
571.20 0.6027
571.30 0.6023
571.40 0.6019
571.50 0.6015
571.60 0.6011
571.70 0.6007
571.80 0.6003
571.90 0.5999
572.00 0.5995
572.10 0.5991
572.20 0.5987
572.30 0.5983
572.40 0.5979
572.50 0.5975
572.60 0.5971
572.70 0.5967
572.80 0.5963
572.90 0.5959
573.00 0.5955
573.10 0.5951
573.20 0.5947
573.30 0.5943
573.40 0.5939
573.50 0.5935
573.60 0.5931
573.70 0.5927
573.80 0.5924
573.90 0.592
574.00 0.5916
574.10 0.5912
574.20 0.5908
574.30 0.5904
574.40 0.59
574.50 0.5896
574.60 0.5892
574.70 0.5888
574.80 0.5884
574.90 0.588
575.00 0.5876
575.10 0.5872
575.20 0.5869
575.30 0.5865
575.40 0.5861
575.50 0.5857
575.60 0.5853
575.70 0.5849
575.80 0.5845
575.90 0.5841
576.00 0.5838
576.10 0.5834
576.20 0.583
576.30 0.5826
576.40 0.5822
576.50 0.5818
576.60 0.5814
576.70 0.581
576.80 0.5807
576.90 0.5803
577.00 0.5799
577.10 0.5795
577.20 0.5791
577.30 0.5787
577.40 0.5784
577.50 0.578
577.60 0.5776
577.70 0.5772
577.80 0.5768
577.90 0.5765
578.00 0.5761
578.10 0.5757
578.20 0.5753
578.30 0.5749
578.40 0.5745
578.50 0.5742
578.60 0.5738
578.70 0.5734
578.80 0.573
578.90 0.5727
579.00 0.5723
579.10 0.5719
579.20 0.5715
579.30 0.5711
579.40 0.5708
579.50 0.5704
579.60 0.57
579.70 0.5696
579.80 0.5693
579.90 0.5689
580.00 0.5685
580.10 0.5681
580.20 0.5678
580.30 0.5674
580.40 0.567
580.50 0.5666
580.60 0.5663
580.70 0.5659
580.80 0.5655
580.90 0.5652
581.00 0.5648
581.10 0.5644
581.20 0.564
581.30 0.5637
581.40 0.5633
581.50 0.5629
581.60 0.5626
581.70 0.5622
581.80 0.5618
581.90 0.5615
582.00 0.5611
582.10 0.5607
582.20 0.5603
582.30 0.56
582.40 0.5596
582.50 0.5592
582.60 0.5589
582.70 0.5585
582.80 0.5581
582.90 0.5578
583.00 0.5574
583.10 0.557
583.20 0.5567
583.30 0.5563
583.40 0.556
583.50 0.5556
583.60 0.5552
583.70 0.5549
583.80 0.5545
583.90 0.5541
584.00 0.5538
584.10 0.5534
584.20 0.553
584.30 0.5527
584.40 0.5523
584.50 0.552
584.60 0.5516
584.70 0.5512
584.80 0.5509
584.90 0.5505
585.00 0.5502
585.10 0.5498
585.20 0.5494
585.30 0.5491
585.40 0.5487
585.50 0.5484
585.60 0.548
585.70 0.5477
585.80 0.5473
585.90 0.5469
586.00 0.5466
586.10 0.5462
586.20 0.5459
586.30 0.5455
586.40 0.5452
586.50 0.5448
586.60 0.5444
586.70 0.5441
586.80 0.5437
586.90 0.5434
587.00 0.543
587.10 0.5427
587.20 0.5423
587.30 0.542
587.40 0.5416
587.50 0.5413
587.60 0.5409
587.70 0.5406
587.80 0.5402
587.90 0.5399
588.00 0.5395
588.10 0.5392
588.20 0.5388
588.30 0.5385
588.40 0.5381
588.50 0.5378
588.60 0.5374
588.70 0.5371
588.80 0.5367
588.90 0.5364
589.00 0.536
589.10 0.5357
589.20 0.5353
589.30 0.535
589.40 0.5346
589.50 0.5343
589.60 0.5339
589.70 0.5336
589.80 0.5332
589.90 0.5329
590.00 0.5325
590.10 0.5322
590.20 0.5319
590.30 0.5315
590.40 0.5312
590.50 0.5308
590.60 0.5305
590.70 0.5301
590.80 0.5298
590.90 0.5294
591.00 0.5291
591.10 0.5288
591.20 0.5284
591.30 0.5281
591.40 0.5277
591.50 0.5274
591.60 0.5271
591.70 0.5267
591.80 0.5264
591.90 0.526
592.00 0.5257
592.10 0.5254
592.20 0.525
592.30 0.5247
592.40 0.5243
592.50 0.524
592.60 0.5237
592.70 0.5233
592.80 0.523
592.90 0.5227
593.00 0.5223
593.10 0.522
593.20 0.5216
593.30 0.5213
593.40 0.521
593.50 0.5206
593.60 0.5203
593.70 0.52
593.80 0.5196
593.90 0.5193
594.00 0.519
594.10 0.5186
594.20 0.5183
594.30 0.518
594.40 0.5176
594.50 0.5173
594.60 0.517
594.70 0.5166
594.80 0.5163
594.90 0.516
595.00 0.5156
595.10 0.5153
595.20 0.515
595.30 0.5146
595.40 0.5143
595.50 0.514
595.60 0.5136
595.70 0.5133
595.80 0.513
595.90 0.5127
596.00 0.5123
596.10 0.512
596.20 0.5117
596.30 0.5113
596.40 0.511
596.50 0.5107
596.60 0.5104
596.70 0.51
596.80 0.5097
596.90 0.5094
597.00 0.509
597.10 0.5087
597.20 0.5084
597.30 0.5081
597.40 0.5077
597.50 0.5074
597.60 0.5071
597.70 0.5068
597.80 0.5064
597.90 0.5061
598.00 0.5058
598.10 0.5055
598.20 0.5052
598.30 0.5048
598.40 0.5045
598.50 0.5042
598.60 0.5039
598.70 0.5035
598.80 0.5032
598.90 0.5029
599.00 0.5026
599.10 0.5023
599.20 0.5019
599.30 0.5016
599.40 0.5013
599.50 0.501
599.60 0.5007
599.70 0.5003
599.80 0.5
599.90 0.4997
600.00 0.4994
600.10 0.4991
600.20 0.4987
600.30 0.4984
600.40 0.4981
600.50 0.4978
600.60 0.4975
600.70 0.4972
600.80 0.4968
600.90 0.4965
601.00 0.4962
601.10 0.4959
601.20 0.4956
601.30 0.4953
601.40 0.4949
601.50 0.4946
601.60 0.4943
601.70 0.494
601.80 0.4937
601.90 0.4934
602.00 0.4931
602.10 0.4927
602.20 0.4924
602.30 0.4921
602.40 0.4918
602.50 0.4915
602.60 0.4912
602.70 0.4909
602.80 0.4906
602.90 0.4902
603.00 0.4899
603.10 0.4896
603.20 0.4893
603.30 0.489
603.40 0.4887
603.50 0.4884
603.60 0.4881
603.70 0.4878
603.80 0.4875
603.90 0.4871
604.00 0.4868
604.10 0.4865
604.20 0.4862
604.30 0.4859
604.40 0.4856
604.50 0.4853
604.60 0.485
604.70 0.4847
604.80 0.4844
604.90 0.4841
605.00 0.4838
605.10 0.4835
605.20 0.4831
605.30 0.4828
605.40 0.4825
605.50 0.4822
605.60 0.4819
605.70 0.4816
605.80 0.4813
605.90 0.481
606.00 0.4807
606.10 0.4804
606.20 0.4801
606.30 0.4798
606.40 0.4795
606.50 0.4792
606.60 0.4789
606.70 0.4786
606.80 0.4783
606.90 0.478
607.00 0.4777
607.10 0.4774
607.20 0.4771
607.30 0.4768
607.40 0.4765
607.50 0.4762
607.60 0.4759
607.70 0.4756
607.80 0.4753
607.90 0.475
608.00 0.4747
608.10 0.4744
608.20 0.4741
608.30 0.4738
608.40 0.4735
608.50 0.4732
608.60 0.4729
608.70 0.4726
608.80 0.4723
608.90 0.472
609.00 0.4717
609.10 0.4714
609.20 0.4711
609.30 0.4708
609.40 0.4705
609.50 0.4702
609.60 0.4699
609.70 0.4696
609.80 0.4693
609.90 0.469
610.00 0.4688
610.10 0.4685
610.20 0.4682
610.30 0.4679
610.40 0.4676
610.50 0.4673
610.60 0.467
610.70 0.4667
610.80 0.4664
610.90 0.4661
611.00 0.4658
611.10 0.4655
611.20 0.4652
611.30 0.4649
611.40 0.4647
611.50 0.4644
611.60 0.4641
611.70 0.4638
611.80 0.4635
611.90 0.4632
612.00 0.4629
612.10 0.4626
612.20 0.4623
612.30 0.462
612.40 0.4618
612.50 0.4615
612.60 0.4612
612.70 0.4609
612.80 0.4606
612.90 0.4603
613.00 0.46
613.10 0.4597
613.20 0.4594
613.30 0.4592
613.40 0.4589
613.50 0.4586
613.60 0.4583
613.70 0.458
613.80 0.4577
613.90 0.4574
614.00 0.4572
614.10 0.4569
614.20 0.4566
614.30 0.4563
614.40 0.456
614.50 0.4557
614.60 0.4555
614.70 0.4552
614.80 0.4549
614.90 0.4546
615.00 0.4543
615.10 0.454
615.20 0.4538
615.30 0.4535
615.40 0.4532
615.50 0.4529
615.60 0.4526
615.70 0.4523
615.80 0.4521
615.90 0.4518
616.00 0.4515
616.10 0.4512
616.20 0.4509
616.30 0.4507
616.40 0.4504
616.50 0.4501
616.60 0.4498
616.70 0.4495
616.80 0.4493
616.90 0.449
617.00 0.4487
617.10 0.4484
617.20 0.4481
617.30 0.4479
617.40 0.4476
617.50 0.4473
617.60 0.447
617.70 0.4468
617.80 0.4465
617.90 0.4462
618.00 0.4459
618.10 0.4456
618.20 0.4454
618.30 0.4451
618.40 0.4448
618.50 0.4445
618.60 0.4443
618.70 0.444
618.80 0.4437
618.90 0.4434
619.00 0.4432
619.10 0.4429
619.20 0.4426
619.30 0.4423
619.40 0.4421
619.50 0.4418
619.60 0.4415
619.70 0.4412
619.80 0.441
619.90 0.4407
620.00 0.4404
620.10 0.4402
620.20 0.4399
620.30 0.4396
620.40 0.4393
620.50 0.4391
620.60 0.4388
620.70 0.4385
620.80 0.4383
620.90 0.438
621.00 0.4377
621.10 0.4374
621.20 0.4372
621.30 0.4369
621.40 0.4366
621.50 0.4364
621.60 0.4361
621.70 0.4358
621.80 0.4356
621.90 0.4353
622.00 0.435
622.10 0.4348
622.20 0.4345
622.30 0.4342
622.40 0.434
622.50 0.4337
622.60 0.4334
622.70 0.4332
622.80 0.4329
622.90 0.4326
623.00 0.4324
623.10 0.4321
623.20 0.4318
623.30 0.4316
623.40 0.4313
623.50 0.431
623.60 0.4308
623.70 0.4305
623.80 0.4302
623.90 0.43
624.00 0.4297
624.10 0.4294
624.20 0.4292
624.30 0.4289
624.40 0.4286
624.50 0.4284
624.60 0.4281
624.70 0.4279
624.80 0.4276
624.90 0.4273
625.00 0.4271
625.10 0.4268
625.20 0.4265
625.30 0.4263
625.40 0.426
625.50 0.4258
625.60 0.4255
625.70 0.4252
625.80 0.425
625.90 0.4247
626.00 0.4245
626.10 0.4242
626.20 0.4239
626.30 0.4237
626.40 0.4234
626.50 0.4232
626.60 0.4229
626.70 0.4226
626.80 0.4224
626.90 0.4221
627.00 0.4219
627.10 0.4216
627.20 0.4213
627.30 0.4211
627.40 0.4208
627.50 0.4206
627.60 0.4203
627.70 0.4201
627.80 0.4198
627.90 0.4195
628.00 0.4193
628.10 0.419
628.20 0.4188
628.30 0.4185
628.40 0.4183
628.50 0.418
628.60 0.4177
628.70 0.4175
628.80 0.4172
628.90 0.417
629.00 0.4167
629.10 0.4165
629.20 0.4162
629.30 0.416
629.40 0.4157
629.50 0.4155
629.60 0.4152
629.70 0.4149
629.80 0.4147
629.90 0.4144
630.00 0.4142
630.10 0.4139
630.20 0.4137
630.30 0.4134
630.40 0.4132
630.50 0.4129
630.60 0.4127
630.70 0.4124
630.80 0.4122
630.90 0.4119
631.00 0.4117
631.10 0.4114
631.20 0.4112
631.30 0.4109
631.40 0.4107
631.50 0.4104
631.60 0.4102
631.70 0.4099
631.80 0.4097
631.90 0.4094
632.00 0.4092
632.10 0.4089
632.20 0.4087
632.30 0.4084
632.40 0.4082
632.50 0.4079
632.60 0.4077
632.70 0.4074
632.80 0.4072
632.90 0.4069
633.00 0.4067
633.10 0.4064
633.20 0.4062
633.30 0.4059
633.40 0.4057
633.50 0.4055
633.60 0.4052
633.70 0.405
633.80 0.4047
633.90 0.4045
634.00 0.4042
634.10 0.404
634.20 0.4037
634.30 0.4035
634.40 0.4032
634.50 0.403
634.60 0.4027
634.70 0.4025
634.80 0.4023
634.90 0.402
635.00 0.4018
635.10 0.4015
635.20 0.4013
635.30 0.401
635.40 0.4008
635.50 0.4006
635.60 0.4003
635.70 0.4001
635.80 0.3998
635.90 0.3996
636.00 0.3993
636.10 0.3991
636.20 0.3989
636.30 0.3986
636.40 0.3984
636.50 0.3981
636.60 0.3979
636.70 0.3976
636.80 0.3974
636.90 0.3972
637.00 0.3969
637.10 0.3967
637.20 0.3964
637.30 0.3962
637.40 0.396
637.50 0.3957
637.60 0.3955
637.70 0.3952
637.80 0.395
637.90 0.3948
638.00 0.3945
638.10 0.3943
638.20 0.394
638.30 0.3938
638.40 0.3936
638.50 0.3933
638.60 0.3931
638.70 0.3928
638.80 0.3926
638.90 0.3924
639.00 0.3921
639.10 0.3919
639.20 0.3916
639.30 0.3914
639.40 0.3912
639.50 0.3909
639.60 0.3907
639.70 0.3905
639.80 0.3902
639.90 0.39
640.00 0.3897
640.10 0.3895
640.20 0.3893
640.30 0.389
640.40 0.3888
640.50 0.3886
640.60 0.3883
640.70 0.3881
640.80 0.3878
640.90 0.3876
641.00 0.3874
641.10 0.3871
641.20 0.3869
641.30 0.3867
641.40 0.3864
641.50 0.3862
641.60 0.386
641.70 0.3857
641.80 0.3855
641.90 0.3853
642.00 0.385
642.10 0.3848
642.20 0.3845
642.30 0.3843
642.40 0.3841
642.50 0.3838
642.60 0.3836
642.70 0.3834
642.80 0.3831
642.90 0.3829
643.00 0.3827
643.10 0.3824
643.20 0.3822
643.30 0.382
643.40 0.3817
643.50 0.3815
643.60 0.3812
643.70 0.381
643.80 0.3808
643.90 0.3805
644.00 0.3803
644.10 0.3801
644.20 0.3798
644.30 0.3796
644.40 0.3794
644.50 0.3791
644.60 0.3789
644.70 0.3787
644.80 0.3784
644.90 0.3782
645.00 0.3779
645.10 0.3777
645.20 0.3775
645.30 0.3772
645.40 0.377
645.50 0.3768
645.60 0.3765
645.70 0.3763
645.80 0.376
645.90 0.3758
646.00 0.3756
646.10 0.3753
646.20 0.3751
646.30 0.3748
646.40 0.3746
646.50 0.3744
646.60 0.3741
646.70 0.3739
646.80 0.3736
646.90 0.3734
647.00 0.3732
647.10 0.3729
647.20 0.3727
647.30 0.3724
647.40 0.3722
647.50 0.3719
647.60 0.3717
647.70 0.3714
647.80 0.3712
647.90 0.3709
648.00 0.3707
648.10 0.3704
648.20 0.3702
648.30 0.3699
648.40 0.3697
648.50 0.3694
648.60 0.3691
648.70 0.3689
648.80 0.3686
648.90 0.3684
649.00 0.3681
649.10 0.3678
649.20 0.3676
649.30 0.3673
649.40 0.367
649.50 0.3668
649.60 0.3665
649.70 0.3662
649.80 0.3659
649.90 0.3656
650.00 0.3654
650.10 0.3651
650.20 0.3648
650.30 0.3645
650.40 0.3642
650.50 0.3639
650.60 0.3635
650.70 0.3632
650.80 0.3629
650.90 0.3626
651.00 0.3623
651.10 0.3619
651.20 0.3616
651.30 0.3613
651.40 0.3609
651.50 0.3605
651.60 0.3601
651.70 0.3597
651.80 0.3593
651.90 0.3589
652.00 0.3585
652.10 0.3581
652.20 0.3577
652.30 0.3573
652.40 0.3568
652.50 0.3562
652.60 0.3557
652.70 0.3551
652.80 0.3546
652.90 0.354
653.00 0.3535
653.10 0.3529
653.20 0.3524
653.30 0.3518
653.40 0.3509
653.50 0.35
653.60 0.3491
653.70 0.3482
653.80 0.3473
653.90 0.3464
654.00 0.3456
654.10 0.3447
654.20 0.3438
654.30 0.3428
654.40 0.3415
654.50 0.3401
654.60 0.3387
654.70 0.3374
654.80 0.3359
654.90 0.3341
655.00 0.3322
655.10 0.3304
655.20 0.3286
655.30 0.3266
655.40 0.3243
655.50 0.3219
655.60 0.3193
655.70 0.3165
655.80 0.3133
655.90 0.3096
656.00 0.3041
656.10 0.298
656.20 0.2843
656.30 0.2892
656.40 0.2891
656.50 0.2999
656.60 0.3051
656.70 0.3098
656.80 0.3127
656.90 0.3154
657.00 0.3177
657.10 0.3199
657.20 0.3218
657.30 0.3237
657.40 0.3251
657.50 0.3266
657.60 0.328
657.70 0.3295
657.80 0.3308
657.90 0.3318
658.00 0.3327
658.10 0.3337
658.20 0.3346
658.30 0.3355
658.40 0.3359
658.50 0.3364
658.60 0.3369
658.70 0.3373
658.80 0.3378
658.90 0.3383
659.00 0.3387
659.10 0.3392
659.20 0.3397
659.30 0.3401
659.40 0.3402
659.50 0.3403
659.60 0.3404
659.70 0.3406
659.80 0.3407
659.90 0.3408
660.00 0.341
660.10 0.3411
660.20 0.3412
660.30 0.3413
660.40 0.3413
660.50 0.3412
660.60 0.3412
660.70 0.3412
660.80 0.3412
660.90 0.3411
661.00 0.3411
661.10 0.3411
661.20 0.3411
661.30 0.341
661.40 0.3409
661.50 0.3408
661.60 0.3407
661.70 0.3406
661.80 0.3405
661.90 0.3404
662.00 0.3403
662.10 0.3402
662.20 0.3401
662.30 0.34
662.40 0.3399
662.50 0.3397
662.60 0.3396
662.70 0.3394
662.80 0.3393
662.90 0.3392
663.00 0.339
663.10 0.3389
663.20 0.3387
663.30 0.3386
663.40 0.3384
663.50 0.3383
663.60 0.3381
663.70 0.338
663.80 0.3378
663.90 0.3377
664.00 0.3375
664.10 0.3373
664.20 0.3372
664.30 0.337
664.40 0.3368
664.50 0.3367
664.60 0.3365
664.70 0.3363
664.80 0.3362
664.90 0.336
665.00 0.3358
665.10 0.3357
665.20 0.3355
665.30 0.3353
665.40 0.3351
665.50 0.335
665.60 0.3348
665.70 0.3346
665.80 0.3344
665.90 0.3343
666.00 0.3341
666.10 0.3339
666.20 0.3337
666.30 0.3336
666.40 0.3334
666.50 0.3332
666.60 0.333
666.70 0.3328
666.80 0.3327
666.90 0.3325
667.00 0.3323
667.10 0.3321
667.20 0.332
667.30 0.3318
667.40 0.3316
667.50 0.3314
667.60 0.3312
667.70 0.331
667.80 0.3309
667.90 0.3307
668.00 0.3305
668.10 0.3303
668.20 0.3301
668.30 0.33
668.40 0.3298
668.50 0.3296
668.60 0.3294
668.70 0.3292
668.80 0.3291
668.90 0.3289
669.00 0.3287
669.10 0.3285
669.20 0.3283
669.30 0.3281
669.40 0.328
669.50 0.3278
669.60 0.3276
669.70 0.3274
669.80 0.3272
669.90 0.327
670.00 0.3269
670.10 0.3267
670.20 0.3265
670.30 0.3263
670.40 0.3261
670.50 0.326
670.60 0.3258
670.70 0.3256
670.80 0.3254
670.90 0.3252
671.00 0.325
671.10 0.3249
671.20 0.3247
671.30 0.3245
671.40 0.3243
671.50 0.3241
671.60 0.3239
671.70 0.3238
671.80 0.3236
671.90 0.3234
672.00 0.3232
672.10 0.323
672.20 0.3229
672.30 0.3227
672.40 0.3225
672.50 0.3223
672.60 0.3221
672.70 0.322
672.80 0.3218
672.90 0.3216
673.00 0.3214
673.10 0.3212
673.20 0.321
673.30 0.3209
673.40 0.3207
673.50 0.3205
673.60 0.3203
673.70 0.3201
673.80 0.32
673.90 0.3198
674.00 0.3196
674.10 0.3194
674.20 0.3192
674.30 0.3191
674.40 0.3189
674.50 0.3187
674.60 0.3185
674.70 0.3183
674.80 0.3182
674.90 0.318
675.00 0.3178
675.10 0.3176
675.20 0.3174
675.30 0.3173
675.40 0.3171
675.50 0.3169
675.60 0.3167
675.70 0.3166
675.80 0.3164
675.90 0.3162
676.00 0.316
676.10 0.3158
676.20 0.3157
676.30 0.3155
676.40 0.3153
676.50 0.3151
676.60 0.315
676.70 0.3148
676.80 0.3146
676.90 0.3144
677.00 0.3142
677.10 0.3141
677.20 0.3139
677.30 0.3137
677.40 0.3135
677.50 0.3134
677.60 0.3132
677.70 0.313
677.80 0.3128
677.90 0.3127
678.00 0.3125
678.10 0.3123
678.20 0.3121
678.30 0.3119
678.40 0.3118
678.50 0.3116
678.60 0.3114
678.70 0.3112
678.80 0.3111
678.90 0.3109
679.00 0.3107
679.10 0.3105
679.20 0.3104
679.30 0.3102
679.40 0.31
679.50 0.3098
679.60 0.3097
679.70 0.3095
679.80 0.3093
679.90 0.3092
680.00 0.309
680.10 0.3088
680.20 0.3086
680.30 0.3085
680.40 0.3083
680.50 0.3081
680.60 0.3079
680.70 0.3078
680.80 0.3076
680.90 0.3074
681.00 0.3072
681.10 0.3071
681.20 0.3069
681.30 0.3067
681.40 0.3066
681.50 0.3064
681.60 0.3062
681.70 0.306
681.80 0.3059
681.90 0.3057
682.00 0.3055
682.10 0.3054
682.20 0.3052
682.30 0.305
682.40 0.3048
682.50 0.3047
682.60 0.3045
682.70 0.3043
682.80 0.3042
682.90 0.304
683.00 0.3038
683.10 0.3036
683.20 0.3035
683.30 0.3033
683.40 0.3031
683.50 0.303
683.60 0.3028
683.70 0.3026
683.80 0.3025
683.90 0.3023
684.00 0.3021
684.10 0.3019
684.20 0.3018
684.30 0.3016
684.40 0.3014
684.50 0.3013
684.60 0.3011
684.70 0.3009
684.80 0.3008
684.90 0.3006
685.00 0.3004
685.10 0.3003
685.20 0.3001
685.30 0.2999
685.40 0.2998
685.50 0.2996
685.60 0.2994
685.70 0.2993
685.80 0.2991
685.90 0.2989
686.00 0.2987
686.10 0.2986
686.20 0.2984
686.30 0.2982
686.40 0.2981
686.50 0.2979
686.60 0.2977
686.70 0.2976
686.80 0.2974
686.90 0.2973
687.00 0.2971
687.10 0.2969
687.20 0.2968
687.30 0.2966
687.40 0.2964
687.50 0.2963
687.60 0.2961
687.70 0.2959
687.80 0.2958
687.90 0.2956
688.00 0.2954
688.10 0.2953
688.20 0.2951
688.30 0.2949
688.40 0.2948
688.50 0.2946
688.60 0.2944
688.70 0.2943
688.80 0.2941
688.90 0.294
689.00 0.2938
689.10 0.2936
689.20 0.2935
689.30 0.2933
689.40 0.2931
689.50 0.293
689.60 0.2928
689.70 0.2926
689.80 0.2925
689.90 0.2923
690.00 0.2922
690.10 0.292
690.20 0.2918
690.30 0.2917
690.40 0.2915
690.50 0.2914
690.60 0.2912
690.70 0.291
690.80 0.2909
690.90 0.2907
691.00 0.2905
691.10 0.2904
691.20 0.2902
691.30 0.2901
691.40 0.2899
691.50 0.2897
691.60 0.2896
691.70 0.2894
691.80 0.2893
691.90 0.2891
692.00 0.2889
692.10 0.2888
692.20 0.2886
692.30 0.2885
692.40 0.2883
692.50 0.2881
692.60 0.288
692.70 0.2878
692.80 0.2877
692.90 0.2875
693.00 0.2873
693.10 0.2872
693.20 0.287
693.30 0.2869
693.40 0.2867
693.50 0.2865
693.60 0.2864
693.70 0.2862
693.80 0.2861
693.90 0.2859
694.00 0.2858
694.10 0.2856
694.20 0.2854
694.30 0.2853
694.40 0.2851
694.50 0.285
694.60 0.2848
694.70 0.2846
694.80 0.2845
694.90 0.2843
695.00 0.2842
695.10 0.284
695.20 0.2839
695.30 0.2837
695.40 0.2835
695.50 0.2834
695.60 0.2832
695.70 0.2831
695.80 0.2829
695.90 0.2828
696.00 0.2826
696.10 0.2825
696.20 0.2823
696.30 0.2821
696.40 0.282
696.50 0.2818
696.60 0.2817
696.70 0.2815
696.80 0.2814
696.90 0.2812
697.00 0.2811
697.10 0.2809
697.20 0.2807
697.30 0.2806
697.40 0.2804
697.50 0.2803
697.60 0.2801
697.70 0.28
697.80 0.2798
697.90 0.2797
698.00 0.2795
698.10 0.2794
698.20 0.2792
698.30 0.279
698.40 0.2789
698.50 0.2787
698.60 0.2786
698.70 0.2784
698.80 0.2783
698.90 0.2781
699.00 0.278
699.10 0.2778
699.20 0.2777
699.30 0.2775
699.40 0.2774
699.50 0.2772
699.60 0.2771
699.70 0.2769
699.80 0.2768
699.90 0.2766
700.00 0.2764
700.10 0.2763
700.20 0.2761
700.30 0.276
700.40 0.2758
700.50 0.2757
700.60 0.2755
700.70 0.2754
700.80 0.2752
700.90 0.2751
701.00 0.2749
701.10 0.2748
701.20 0.2746
701.30 0.2745
701.40 0.2743
701.50 0.2742
701.60 0.274
701.70 0.2739
701.80 0.2737
701.90 0.2736
702.00 0.2734
702.10 0.2733
702.20 0.2731
702.30 0.273
702.40 0.2728
702.50 0.2727
702.60 0.2725
702.70 0.2724
702.80 0.2722
702.90 0.2721
703.00 0.2719
703.10 0.2718
703.20 0.2716
703.30 0.2715
703.40 0.2714
703.50 0.2712
703.60 0.2711
703.70 0.2709
703.80 0.2708
703.90 0.2706
704.00 0.2705
704.10 0.2703
704.20 0.2702
704.30 0.27
704.40 0.2699
704.50 0.2697
704.60 0.2696
704.70 0.2694
704.80 0.2693
704.90 0.2691
705.00 0.269
705.10 0.2688
705.20 0.2687
705.30 0.2685
705.40 0.2684
705.50 0.2683
705.60 0.2681
705.70 0.268
705.80 0.2678
705.90 0.2677
706.00 0.2675
706.10 0.2674
706.20 0.2672
706.30 0.2671
706.40 0.2669
706.50 0.2668
706.60 0.2667
706.70 0.2665
706.80 0.2664
706.90 0.2662
707.00 0.2661
707.10 0.2659
707.20 0.2658
707.30 0.2656
707.40 0.2655
707.50 0.2654
707.60 0.2652
707.70 0.2651
707.80 0.2649
707.90 0.2648
708.00 0.2646
708.10 0.2645
708.20 0.2643
708.30 0.2642
708.40 0.2641
708.50 0.2639
708.60 0.2638
708.70 0.2636
708.80 0.2635
708.90 0.2633
709.00 0.2632
709.10 0.2631
709.20 0.2629
709.30 0.2628
709.40 0.2626
709.50 0.2625
709.60 0.2623
709.70 0.2622
709.80 0.2621
709.90 0.2619
710.00 0.2618
710.10 0.2616
710.20 0.2615
710.30 0.2613
710.40 0.2612
710.50 0.2611
710.60 0.2609
710.70 0.2608
710.80 0.2606
710.90 0.2605
711.00 0.2604
711.10 0.2602
711.20 0.2601
711.30 0.2599
711.40 0.2598
711.50 0.2597
711.60 0.2595
711.70 0.2594
711.80 0.2592
711.90 0.2591
712.00 0.259
712.10 0.2588
712.20 0.2587
712.30 0.2585
712.40 0.2584
712.50 0.2583
712.60 0.2581
712.70 0.258
712.80 0.2578
712.90 0.2577
713.00 0.2576
713.10 0.2574
713.20 0.2573
713.30 0.2572
713.40 0.257
713.50 0.2569
713.60 0.2567
713.70 0.2566
713.80 0.2565
713.90 0.2563
714.00 0.2562
714.10 0.256
714.20 0.2559
714.30 0.2558
714.40 0.2556
714.50 0.2555
714.60 0.2554
714.70 0.2552
714.80 0.2551
714.90 0.2549
715.00 0.2548
715.10 0.2547
715.20 0.2545
715.30 0.2544
715.40 0.2543
715.50 0.2541
715.60 0.254
715.70 0.2538
715.80 0.2537
715.90 0.2536
716.00 0.2534
716.10 0.2533
716.20 0.2532
716.30 0.253
716.40 0.2529
716.50 0.2528
716.60 0.2526
716.70 0.2525
716.80 0.2524
716.90 0.2522
717.00 0.2521
717.10 0.2519
717.20 0.2518
717.30 0.2517
717.40 0.2515
717.50 0.2514
717.60 0.2513
717.70 0.2511
717.80 0.251
717.90 0.2509
718.00 0.2507
718.10 0.2506
718.20 0.2505
718.30 0.2503
718.40 0.2502
718.50 0.2501
718.60 0.2499
718.70 0.2498
718.80 0.2497
718.90 0.2495
719.00 0.2494
719.10 0.2493
719.20 0.2491
719.30 0.249
719.40 0.2489
719.50 0.2487
719.60 0.2486
719.70 0.2485
719.80 0.2483
719.90 0.2482
720.00 0.2481
720.10 0.2479
720.20 0.2478
720.30 0.2477
720.40 0.2475
720.50 0.2474
720.60 0.2473
720.70 0.2471
720.80 0.247
720.90 0.2469
721.00 0.2467
721.10 0.2466
721.20 0.2465
721.30 0.2463
721.40 0.2462
721.50 0.2461
721.60 0.246
721.70 0.2458
721.80 0.2457
721.90 0.2456
722.00 0.2454
722.10 0.2453
722.20 0.2452
722.30 0.245
722.40 0.2449
722.50 0.2448
722.60 0.2446
722.70 0.2445
722.80 0.2444
722.90 0.2443
723.00 0.2441
723.10 0.244
723.20 0.2439
723.30 0.2437
723.40 0.2436
723.50 0.2435
723.60 0.2433
723.70 0.2432
723.80 0.2431
723.90 0.243
724.00 0.2428
724.10 0.2427
724.20 0.2426
724.30 0.2424
724.40 0.2423
724.50 0.2422
724.60 0.2421
724.70 0.2419
724.80 0.2418
724.90 0.2417
725.00 0.2415
725.10 0.2414
725.20 0.2413
725.30 0.2412
725.40 0.241
725.50 0.2409
725.60 0.2408
725.70 0.2406
725.80 0.2405
725.90 0.2404
726.00 0.2403
726.10 0.2401
726.20 0.24
726.30 0.2399
726.40 0.2398
726.50 0.2396
726.60 0.2395
726.70 0.2394
726.80 0.2393
726.90 0.2391
727.00 0.239
727.10 0.2389
727.20 0.2387
727.30 0.2386
727.40 0.2385
727.50 0.2384
727.60 0.2382
727.70 0.2381
727.80 0.238
727.90 0.2379
728.00 0.2377
728.10 0.2376
728.20 0.2375
728.30 0.2374
728.40 0.2372
728.50 0.2371
728.60 0.237
728.70 0.2369
728.80 0.2367
728.90 0.2366
729.00 0.2365
729.10 0.2364
729.20 0.2362
729.30 0.2361
729.40 0.236
729.50 0.2359
729.60 0.2357
729.70 0.2356
729.80 0.2355
729.90 0.2354
730.00 0.2352
730.10 0.2351
730.20 0.235
730.30 0.2349
730.40 0.2347
730.50 0.2346
730.60 0.2345
730.70 0.2344
730.80 0.2343
730.90 0.2341
731.00 0.234
731.10 0.2339
731.20 0.2338
731.30 0.2336
731.40 0.2335
731.50 0.2334
731.60 0.2333
731.70 0.2332
731.80 0.233
731.90 0.2329
732.00 0.2328
732.10 0.2327
732.20 0.2325
732.30 0.2324
732.40 0.2323
732.50 0.2322
732.60 0.2321
732.70 0.2319
732.80 0.2318
732.90 0.2317
733.00 0.2316
733.10 0.2314
733.20 0.2313
733.30 0.2312
733.40 0.2311
733.50 0.231
733.60 0.2308
733.70 0.2307
733.80 0.2306
733.90 0.2305
734.00 0.2304
734.10 0.2302
734.20 0.2301
734.30 0.23
734.40 0.2299
734.50 0.2298
734.60 0.2296
734.70 0.2295
734.80 0.2294
734.90 0.2293
735.00 0.2292
735.10 0.229
735.20 0.2289
735.30 0.2288
735.40 0.2287
735.50 0.2286
735.60 0.2284
735.70 0.2283
735.80 0.2282
735.90 0.2281
736.00 0.228
736.10 0.2278
736.20 0.2277
736.30 0.2276
736.40 0.2275
736.50 0.2274
736.60 0.2272
736.70 0.2271
736.80 0.227
736.90 0.2269
737.00 0.2268
737.10 0.2266
737.20 0.2265
737.30 0.2264
737.40 0.2263
737.50 0.2262
737.60 0.2261
737.70 0.2259
737.80 0.2258
737.90 0.2257
738.00 0.2256
738.10 0.2255
738.20 0.2253
738.30 0.2252
738.40 0.2251
738.50 0.225
738.60 0.2249
738.70 0.2248
738.80 0.2246
738.90 0.2245
739.00 0.2244
739.10 0.2243
739.20 0.2242
739.30 0.224
739.40 0.2239
739.50 0.2238
739.60 0.2237
739.70 0.2236
739.80 0.2235
739.90 0.2233
740.00 0.2232
740.10 0.2231
740.20 0.223
740.30 0.2229
740.40 0.2228
740.50 0.2227
740.60 0.2225
740.70 0.2224
740.80 0.2223
740.90 0.2222
741.00 0.2221
741.10 0.222
741.20 0.2218
741.30 0.2217
741.40 0.2216
741.50 0.2215
741.60 0.2214
741.70 0.2213
741.80 0.2212
741.90 0.221
742.00 0.2209
742.10 0.2208
742.20 0.2207
742.30 0.2206
742.40 0.2205
742.50 0.2204
742.60 0.2203
742.70 0.2201
742.80 0.22
742.90 0.2199
743.00 0.2198
743.10 0.2197
743.20 0.2196
743.30 0.2195
743.40 0.2193
743.50 0.2192
743.60 0.2191
743.70 0.219
743.80 0.2189
743.90 0.2188
744.00 0.2187
744.10 0.2185
744.20 0.2184
744.30 0.2183
744.40 0.2182
744.50 0.2181
744.60 0.218
744.70 0.2179
744.80 0.2178
744.90 0.2176
745.00 0.2175
745.10 0.2174
745.20 0.2173
745.30 0.2172
745.40 0.2171
745.50 0.217
745.60 0.2169
745.70 0.2167
745.80 0.2166
745.90 0.2165
746.00 0.2164
746.10 0.2163
746.20 0.2162
746.30 0.2161
746.40 0.216
746.50 0.2159
746.60 0.2157
746.70 0.2156
746.80 0.2155
746.90 0.2154
747.00 0.2153
747.10 0.2152
747.20 0.2151
747.30 0.215
747.40 0.2149
747.50 0.2147
747.60 0.2146
747.70 0.2145
747.80 0.2144
747.90 0.2143
748.00 0.2142
748.10 0.2141
748.20 0.214
748.30 0.2139
748.40 0.2137
748.50 0.2136
748.60 0.2135
748.70 0.2134
748.80 0.2133
748.90 0.2132
749.00 0.2131
749.10 0.213
749.20 0.2129
749.30 0.2127
749.40 0.2126
749.50 0.2125
749.60 0.2124
749.70 0.2123
749.80 0.2122
749.90 0.2121
750.00 0.212
750.10 0.2119
750.20 0.2118
750.30 0.2117
750.40 0.2115
750.50 0.2114
750.60 0.2113
750.70 0.2112
750.80 0.2111
750.90 0.211
751.00 0.2109
751.10 0.2108
751.20 0.2107
751.30 0.2106
751.40 0.2105
751.50 0.2104
751.60 0.2103
751.70 0.2101
751.80 0.21
751.90 0.2099
752.00 0.2098
752.10 0.2097
752.20 0.2096
752.30 0.2095
752.40 0.2094
752.50 0.2093
752.60 0.2092
752.70 0.2091
752.80 0.209
752.90 0.2089
753.00 0.2088
753.10 0.2087
753.20 0.2085
753.30 0.2084
753.40 0.2083
753.50 0.2082
753.60 0.2081
753.70 0.208
753.80 0.2079
753.90 0.2078
754.00 0.2077
754.10 0.2076
754.20 0.2075
754.30 0.2074
754.40 0.2073
754.50 0.2072
754.60 0.2071
754.70 0.207
754.80 0.2069
754.90 0.2067
755.00 0.2066
755.10 0.2065
755.20 0.2064
755.30 0.2063
755.40 0.2062
755.50 0.2061
755.60 0.206
755.70 0.2059
755.80 0.2058
755.90 0.2057
756.00 0.2056
756.10 0.2055
756.20 0.2054
756.30 0.2053
756.40 0.2052
756.50 0.2051
756.60 0.205
756.70 0.2049
756.80 0.2048
756.90 0.2046
757.00 0.2045
757.10 0.2044
757.20 0.2043
757.30 0.2042
757.40 0.2041
757.50 0.204
757.60 0.2039
757.70 0.2038
757.80 0.2037
757.90 0.2036
758.00 0.2035
758.10 0.2034
758.20 0.2033
758.30 0.2032
758.40 0.2031
758.50 0.203
758.60 0.2029
758.70 0.2028
758.80 0.2027
758.90 0.2026
759.00 0.2025
759.10 0.2024
759.20 0.2023
759.30 0.2022
759.40 0.202
759.50 0.2019
759.60 0.2018
759.70 0.2017
759.80 0.2016
759.90 0.2015
760.00 0.2014
760.10 0.2013
760.20 0.2012
760.30 0.2011
760.40 0.201
760.50 0.2009
760.60 0.2008
760.70 0.2007
760.80 0.2006
760.90 0.2005
761.00 0.2004
761.10 0.2003
761.20 0.2002
761.30 0.2001
761.40 0.2
761.50 0.1999
761.60 0.1998
761.70 0.1997
761.80 0.1996
761.90 0.1995
762.00 0.1994
762.10 0.1993
762.20 0.1992
762.30 0.1991
762.40 0.199
762.50 0.1989
762.60 0.1988
762.70 0.1987
762.80 0.1986
762.90 0.1985
763.00 0.1984
763.10 0.1983
763.20 0.1982
763.30 0.1981
763.40 0.198
763.50 0.1979
763.60 0.1978
763.70 0.1977
763.80 0.1976
763.90 0.1975
764.00 0.1974
764.10 0.1973
764.20 0.1972
764.30 0.1971
764.40 0.197
764.50 0.1969
764.60 0.1968
764.70 0.1967
764.80 0.1966
764.90 0.1965
765.00 0.1964
765.10 0.1963
765.20 0.1962
765.30 0.1961
765.40 0.196
765.50 0.1959
765.60 0.1958
765.70 0.1957
765.80 0.1956
765.90 0.1955
766.00 0.1954
766.10 0.1953
766.20 0.1952
766.30 0.1951
766.40 0.195
766.50 0.1949
766.60 0.1948
766.70 0.1947
766.80 0.1946
766.90 0.1945
767.00 0.1945
767.10 0.1944
767.20 0.1943
767.30 0.1942
767.40 0.1941
767.50 0.194
767.60 0.1939
767.70 0.1938
767.80 0.1937
767.90 0.1936
768.00 0.1935
768.10 0.1934
768.20 0.1933
768.30 0.1932
768.40 0.1931
768.50 0.193
768.60 0.1929
768.70 0.1928
768.80 0.1927
768.90 0.1926
769.00 0.1925
769.10 0.1924
769.20 0.1923
769.30 0.1922
769.40 0.1921
769.50 0.192
769.60 0.1919
769.70 0.1918
769.80 0.1917
769.90 0.1916
770.00 0.1915
770.10 0.1914
770.20 0.1913
770.30 0.1912
770.40 0.1911
770.50 0.1911
770.60 0.191
770.70 0.1909
770.80 0.1908
770.90 0.1907
771.00 0.1906
771.10 0.1905
771.20 0.1904
771.30 0.1903
771.40 0.1902
771.50 0.1901
771.60 0.19
771.70 0.1899
771.80 0.1898
771.90 0.1897
772.00 0.1896
772.10 0.1895
772.20 0.1894
772.30 0.1894
772.40 0.1893
772.50 0.1892
772.60 0.1891
772.70 0.189
772.80 0.1889
772.90 0.1888
773.00 0.1887
773.10 0.1886
773.20 0.1885
773.30 0.1884
773.40 0.1883
773.50 0.1882
773.60 0.1881
773.70 0.188
773.80 0.1879
773.90 0.1879
774.00 0.1878
774.10 0.1877
774.20 0.1876
774.30 0.1875
774.40 0.1874
774.50 0.1873
774.60 0.1872
774.70 0.1871
774.80 0.187
774.90 0.1869
775.00 0.1868
775.10 0.1867
775.20 0.1866
775.30 0.1865
775.40 0.1865
775.50 0.1864
775.60 0.1863
775.70 0.1862
775.80 0.1861
775.90 0.186
776.00 0.1859
776.10 0.1858
776.20 0.1857
776.30 0.1856
776.40 0.1855
776.50 0.1854
776.60 0.1853
776.70 0.1853
776.80 0.1852
776.90 0.1851
777.00 0.185
777.10 0.1849
777.20 0.1848
777.30 0.1847
777.40 0.1846
777.50 0.1845
777.60 0.1844
777.70 0.1843
777.80 0.1842
777.90 0.1841
778.00 0.1841
778.10 0.184
778.20 0.1839
778.30 0.1838
778.40 0.1837
778.50 0.1836
778.60 0.1835
778.70 0.1834
778.80 0.1833
778.90 0.1832
779.00 0.1831
779.10 0.183
779.20 0.183
779.30 0.1829
779.40 0.1828
779.50 0.1827
779.60 0.1826
779.70 0.1825
779.80 0.1824
779.90 0.1823
780.00 0.1822
780.10 0.1821
780.20 0.1821
780.30 0.182
780.40 0.1819
780.50 0.1818
780.60 0.1817
780.70 0.1816
780.80 0.1815
780.90 0.1814
781.00 0.1813
781.10 0.1812
781.20 0.1812
781.30 0.1811
781.40 0.181
781.50 0.1809
781.60 0.1808
781.70 0.1807
781.80 0.1806
781.90 0.1805
782.00 0.1805
782.10 0.1804
782.20 0.1803
782.30 0.1802
782.40 0.1801
782.50 0.18
782.60 0.1799
782.70 0.1798
782.80 0.1797
782.90 0.1797
783.00 0.1796
783.10 0.1795
783.20 0.1794
783.30 0.1793
783.40 0.1792
783.50 0.1791
783.60 0.179
783.70 0.179
783.80 0.1789
783.90 0.1788
784.00 0.1787
784.10 0.1786
784.20 0.1785
784.30 0.1784
784.40 0.1783
784.50 0.1782
784.60 0.1782
784.70 0.1781
784.80 0.178
784.90 0.1779
785.00 0.1778
785.10 0.1777
785.20 0.1776
785.30 0.1775
785.40 0.1775
785.50 0.1774
785.60 0.1773
785.70 0.1772
785.80 0.1771
785.90 0.177
786.00 0.1769
786.10 0.1769
786.20 0.1768
786.30 0.1767
786.40 0.1766
786.50 0.1765
786.60 0.1764
786.70 0.1763
786.80 0.1762
786.90 0.1762
787.00 0.1761
787.10 0.176
787.20 0.1759
787.30 0.1758
787.40 0.1757
787.50 0.1756
787.60 0.1756
787.70 0.1755
787.80 0.1754
787.90 0.1753
788.00 0.1752
788.10 0.1751
788.20 0.175
788.30 0.1749
788.40 0.1749
788.50 0.1748
788.60 0.1747
788.70 0.1746
788.80 0.1745
788.90 0.1744
789.00 0.1743
789.10 0.1743
789.20 0.1742
789.30 0.1741
789.40 0.174
789.50 0.1739
789.60 0.1738
789.70 0.1737
789.80 0.1737
789.90 0.1736
790.00 0.1735
790.10 0.1734
790.20 0.1733
790.30 0.1732
790.40 0.1732
790.50 0.1731
790.60 0.173
790.70 0.1729
790.80 0.1728
790.90 0.1727
791.00 0.1727
791.10 0.1726
791.20 0.1725
791.30 0.1724
791.40 0.1723
791.50 0.1722
791.60 0.1722
791.70 0.1721
791.80 0.172
791.90 0.1719
792.00 0.1718
792.10 0.1717
792.20 0.1717
792.30 0.1716
792.40 0.1715
792.50 0.1714
792.60 0.1713
792.70 0.1712
792.80 0.1712
792.90 0.1711
793.00 0.171
793.10 0.1709
793.20 0.1708
793.30 0.1707
793.40 0.1707
793.50 0.1706
793.60 0.1705
793.70 0.1704
793.80 0.1703
793.90 0.1702
794.00 0.1702
794.10 0.1701
794.20 0.17
794.30 0.1699
794.40 0.1698
794.50 0.1697
794.60 0.1697
794.70 0.1696
794.80 0.1695
794.90 0.1694
795.00 0.1693
795.10 0.1693
795.20 0.1692
795.30 0.1691
795.40 0.169
795.50 0.1689
795.60 0.1688
795.70 0.1688
795.80 0.1687
795.90 0.1686
796.00 0.1685
796.10 0.1684
796.20 0.1684
796.30 0.1683
796.40 0.1682
796.50 0.1681
796.60 0.168
796.70 0.1679
796.80 0.1679
796.90 0.1678
797.00 0.1677
797.10 0.1676
797.20 0.1675
797.30 0.1675
797.40 0.1674
797.50 0.1673
797.60 0.1672
797.70 0.1671
797.80 0.167
797.90 0.167
798.00 0.1669
798.10 0.1668
798.20 0.1667
798.30 0.1666
798.40 0.1666
798.50 0.1665
798.60 0.1664
798.70 0.1663
798.80 0.1662
798.90 0.1662
799.00 0.1661
799.10 0.166
799.20 0.1659
799.30 0.1658
799.40 0.1658
799.50 0.1657
799.60 0.1656
799.70 0.1655
799.80 0.1654
799.90 0.1653
800.00 0.1653
800.10 0.1652
800.20 0.1651
800.30 0.165
800.40 0.165
800.50 0.1649
800.60 0.1648
800.70 0.1647
800.80 0.1646
800.90 0.1646
801.00 0.1645
801.10 0.1644
801.20 0.1643
801.30 0.1642
801.40 0.1642
801.50 0.1641
801.60 0.164
801.70 0.1639
801.80 0.1639
801.90 0.1638
802.00 0.1637
802.10 0.1636
802.20 0.1635
802.30 0.1635
802.40 0.1634
802.50 0.1633
802.60 0.1632
802.70 0.1631
802.80 0.1631
802.90 0.163
803.00 0.1629
803.10 0.1628
803.20 0.1628
803.30 0.1627
803.40 0.1626
803.50 0.1625
803.60 0.1624
803.70 0.1624
803.80 0.1623
803.90 0.1622
804.00 0.1621
804.10 0.1621
804.20 0.162
804.30 0.1619
804.40 0.1618
804.50 0.1617
804.60 0.1617
804.70 0.1616
804.80 0.1615
804.90 0.1614
805.00 0.1614
805.10 0.1613
805.20 0.1612
805.30 0.1611
805.40 0.161
805.50 0.161
805.60 0.1609
805.70 0.1608
805.80 0.1607
805.90 0.1607
806.00 0.1606
806.10 0.1605
806.20 0.1604
806.30 0.1604
806.40 0.1603
806.50 0.1602
806.60 0.1601
806.70 0.16
806.80 0.16
806.90 0.1599
807.00 0.1598
807.10 0.1597
807.20 0.1597
807.30 0.1596
807.40 0.1595
807.50 0.1594
807.60 0.1594
807.70 0.1593
807.80 0.1592
807.90 0.1591
808.00 0.1591
808.10 0.159
808.20 0.1589
808.30 0.1588
808.40 0.1587
808.50 0.1587
808.60 0.1586
808.70 0.1585
808.80 0.1584
808.90 0.1584
809.00 0.1583
809.10 0.1582
809.20 0.1581
809.30 0.1581
809.40 0.158
809.50 0.1579
809.60 0.1578
809.70 0.1578
809.80 0.1577
809.90 0.1576
810.00 0.1575
810.10 0.1575
810.20 0.1574
810.30 0.1573
810.40 0.1572
810.50 0.1572
810.60 0.1571
810.70 0.157
810.80 0.1569
810.90 0.1569
811.00 0.1568
811.10 0.1567
811.20 0.1566
811.30 0.1566
811.40 0.1565
811.50 0.1564
811.60 0.1563
811.70 0.1563
811.80 0.1562
811.90 0.1561
812.00 0.156
812.10 0.156
812.20 0.1559
812.30 0.1558
812.40 0.1558
812.50 0.1557
812.60 0.1556
812.70 0.1555
812.80 0.1555
812.90 0.1554
813.00 0.1553
813.10 0.1552
813.20 0.1552
813.30 0.1551
813.40 0.155
813.50 0.1549
813.60 0.1549
813.70 0.1548
813.80 0.1547
813.90 0.1546
814.00 0.1546
814.10 0.1545
814.20 0.1544
814.30 0.1544
814.40 0.1543
814.50 0.1542
814.60 0.1541
814.70 0.1541
814.80 0.154
814.90 0.1539
815.00 0.1538
815.10 0.1538
815.20 0.1537
815.30 0.1536
815.40 0.1536
815.50 0.1535
815.60 0.1534
815.70 0.1533
815.80 0.1533
815.90 0.1532
816.00 0.1531
816.10 0.153
816.20 0.153
816.30 0.1529
816.40 0.1528
816.50 0.1528
816.60 0.1527
816.70 0.1526
816.80 0.1525
816.90 0.1525
817.00 0.1524
817.10 0.1523
817.20 0.1522
817.30 0.1522
817.40 0.1521
817.50 0.152
817.60 0.152
817.70 0.1519
817.80 0.1518
817.90 0.1517
818.00 0.1517
818.10 0.1516
818.20 0.1515
818.30 0.1515
818.40 0.1514
818.50 0.1513
818.60 0.1512
818.70 0.1512
818.80 0.1511
818.90 0.151
819.00 0.151
819.10 0.1509
819.20 0.1508
819.30 0.1507
819.40 0.1507
819.50 0.1506
819.60 0.1505
819.70 0.1505
819.80 0.1504
819.90 0.1503
820.00 0.1502
820.10 0.1502
820.20 0.1501
820.30 0.15
820.40 0.15
820.50 0.1499
820.60 0.1498
820.70 0.1497
820.80 0.1497
820.90 0.1496
821.00 0.1495
821.10 0.1495
821.20 0.1494
821.30 0.1493
821.40 0.1493
821.50 0.1492
821.60 0.1491
821.70 0.149
821.80 0.149
821.90 0.1489
822.00 0.1488
822.10 0.1488
822.20 0.1487
822.30 0.1486
822.40 0.1486
822.50 0.1485
822.60 0.1484
822.70 0.1483
822.80 0.1483
822.90 0.1482
823.00 0.1481
823.10 0.1481
823.20 0.148
823.30 0.1479
823.40 0.1479
823.50 0.1478
823.60 0.1477
823.70 0.1477
823.80 0.1476
823.90 0.1475
824.00 0.1474
824.10 0.1474
824.20 0.1473
824.30 0.1472
824.40 0.1472
824.50 0.1471
824.60 0.147
824.70 0.147
824.80 0.1469
824.90 0.1468
825.00 0.1468
825.10 0.1467
825.20 0.1466
825.30 0.1465
825.40 0.1465
825.50 0.1464
825.60 0.1463
825.70 0.1463
825.80 0.1462
825.90 0.1461
826.00 0.1461
826.10 0.146
826.20 0.1459
826.30 0.1459
826.40 0.1458
826.50 0.1457
826.60 0.1457
826.70 0.1456
826.80 0.1455
826.90 0.1455
827.00 0.1454
827.10 0.1453
827.20 0.1453
827.30 0.1452
827.40 0.1451
827.50 0.145
827.60 0.145
827.70 0.1449
827.80 0.1448
827.90 0.1448
828.00 0.1447
828.10 0.1446
828.20 0.1446
828.30 0.1445
828.40 0.1444
828.50 0.1444
828.60 0.1443
828.70 0.1442
828.80 0.1442
828.90 0.1441
829.00 0.144
829.10 0.144
829.20 0.1439
829.30 0.1438
829.40 0.1438
829.50 0.1437
829.60 0.1436
829.70 0.1436
829.80 0.1435
829.90 0.1434
830.00 0.1434
830.10 0.1433
830.20 0.1432
830.30 0.1432
830.40 0.1431
830.50 0.143
830.60 0.143
830.70 0.1429
830.80 0.1428
830.90 0.1428
831.00 0.1427
831.10 0.1426
831.20 0.1426
831.30 0.1425
831.40 0.1424
831.50 0.1424
831.60 0.1423
831.70 0.1422
831.80 0.1422
831.90 0.1421
832.00 0.142
832.10 0.142
832.20 0.1419
832.30 0.1418
832.40 0.1418
832.50 0.1417
832.60 0.1416
832.70 0.1416
832.80 0.1415
832.90 0.1414
833.00 0.1414
833.10 0.1413
833.20 0.1412
833.30 0.1412
833.40 0.1411
833.50 0.141
833.60 0.141
833.70 0.1409
833.80 0.1408
833.90 0.1408
834.00 0.1407
834.10 0.1407
834.20 0.1406
834.30 0.1405
834.40 0.1405
834.50 0.1404
834.60 0.1403
834.70 0.1403
834.80 0.1402
834.90 0.1401
835.00 0.1401
835.10 0.14
835.20 0.1399
835.30 0.1399
835.40 0.1398
835.50 0.1397
835.60 0.1397
835.70 0.1396
835.80 0.1395
835.90 0.1395
836.00 0.1394
836.10 0.1393
836.20 0.1393
836.30 0.1392
836.40 0.1392
836.50 0.1391
836.60 0.139
836.70 0.139
836.80 0.1389
836.90 0.1388
837.00 0.1388
837.10 0.1387
837.20 0.1386
837.30 0.1386
837.40 0.1385
837.50 0.1384
837.60 0.1384
837.70 0.1383
837.80 0.1383
837.90 0.1382
838.00 0.1381
838.10 0.1381
838.20 0.138
838.30 0.1379
838.40 0.1379
838.50 0.1378
838.60 0.1377
838.70 0.1377
838.80 0.1376
838.90 0.1375
839.00 0.1375
839.10 0.1374
839.20 0.1374
839.30 0.1373
839.40 0.1372
839.50 0.1372
839.60 0.1371
839.70 0.137
839.80 0.137
839.90 0.1369
840.00 0.1369
840.10 0.1368
840.20 0.1367
840.30 0.1367
840.40 0.1366
840.50 0.1365
840.60 0.1365
840.70 0.1364
840.80 0.1363
840.90 0.1363
841.00 0.1362
841.10 0.1362
841.20 0.1361
841.30 0.136
841.40 0.136
841.50 0.1359
841.60 0.1358
841.70 0.1358
841.80 0.1357
841.90 0.1357
842.00 0.1356
842.10 0.1355
842.20 0.1355
842.30 0.1354
842.40 0.1353
842.50 0.1353
842.60 0.1352
842.70 0.1352
842.80 0.1351
842.90 0.135
843.00 0.135
843.10 0.1349
843.20 0.1348
843.30 0.1348
843.40 0.1347
843.50 0.1347
843.60 0.1346
843.70 0.1345
843.80 0.1345
843.90 0.1344
844.00 0.1344
844.10 0.1343
844.20 0.1342
844.30 0.1342
844.40 0.1341
844.50 0.134
844.60 0.134
844.70 0.1339
844.80 0.1339
844.90 0.1338
845.00 0.1337
845.10 0.1337
845.20 0.1336
845.30 0.1336
845.40 0.1335
845.50 0.1334
845.60 0.1334
845.70 0.1333
845.80 0.1332
845.90 0.1332
846.00 0.1331
846.10 0.1331
846.20 0.133
846.30 0.1329
846.40 0.1329
846.50 0.1328
846.60 0.1328
846.70 0.1327
846.80 0.1326
846.90 0.1326
847.00 0.1325
847.10 0.1325
847.20 0.1324
847.30 0.1323
847.40 0.1323
847.50 0.1322
847.60 0.1321
847.70 0.1321
847.80 0.132
847.90 0.132
848.00 0.1319
848.10 0.1318
848.20 0.1318
848.30 0.1317
848.40 0.1317
848.50 0.1316
848.60 0.1315
848.70 0.1315
848.80 0.1314
848.90 0.1314
849.00 0.1313
849.10 0.1312
849.20 0.1312
849.30 0.1311
849.40 0.1311
849.50 0.131
849.60 0.1309
849.70 0.1309
849.80 0.1308
849.90 0.1308
850.00 0.1307
850.10 0.1306
850.20 0.1306
850.30 0.1305
850.40 0.1305
850.50 0.1304
850.60 0.1303
850.70 0.1303
850.80 0.1302
850.90 0.1302
851.00 0.1301
851.10 0.1301
851.20 0.13
851.30 0.1299
851.40 0.1299
851.50 0.1298
851.60 0.1298
851.70 0.1297
851.80 0.1296
851.90 0.1296
852.00 0.1295
852.10 0.1295
852.20 0.1294
852.30 0.1293
852.40 0.1293
852.50 0.1292
852.60 0.1292
852.70 0.1291
852.80 0.129
852.90 0.129
853.00 0.1289
853.10 0.1289
853.20 0.1288
853.30 0.1288
853.40 0.1287
853.50 0.1286
853.60 0.1286
853.70 0.1285
853.80 0.1285
853.90 0.1284
854.00 0.1283
854.10 0.1283
854.20 0.1282
854.30 0.1282
854.40 0.1281
854.50 0.1281
854.60 0.128
854.70 0.1279
854.80 0.1279
854.90 0.1278
855.00 0.1278
855.10 0.1277
855.20 0.1277
855.30 0.1276
855.40 0.1275
855.50 0.1275
855.60 0.1274
855.70 0.1274
855.80 0.1273
855.90 0.1272
856.00 0.1272
856.10 0.1271
856.20 0.1271
856.30 0.127
856.40 0.127
856.50 0.1269
856.60 0.1268
856.70 0.1268
856.80 0.1267
856.90 0.1267
857.00 0.1266
857.10 0.1266
857.20 0.1265
857.30 0.1264
857.40 0.1264
857.50 0.1263
857.60 0.1263
857.70 0.1262
857.80 0.1262
857.90 0.1261
858.00 0.126
858.10 0.126
858.20 0.1259
858.30 0.1259
858.40 0.1258
858.50 0.1258
858.60 0.1257
858.70 0.1256
858.80 0.1256
858.90 0.1255
859.00 0.1255
859.10 0.1254
859.20 0.1254
859.30 0.1253
859.40 0.1253
859.50 0.1252
859.60 0.1251
859.70 0.1251
859.80 0.125
859.90 0.125
860.00 0.1249
860.10 0.1249
860.20 0.1248
860.30 0.1247
860.40 0.1247
860.50 0.1246
860.60 0.1246
860.70 0.1245
860.80 0.1245
860.90 0.1244
861.00 0.1244
861.10 0.1243
861.20 0.1242
861.30 0.1242
861.40 0.1241
861.50 0.1241
861.60 0.124
861.70 0.124
861.80 0.1239
861.90 0.1239
862.00 0.1238
862.10 0.1237
862.20 0.1237
862.30 0.1236
862.40 0.1236
862.50 0.1235
862.60 0.1235
862.70 0.1234
862.80 0.1234
862.90 0.1233
863.00 0.1232
863.10 0.1232
863.20 0.1231
863.30 0.1231
863.40 0.123
863.50 0.123
863.60 0.1229
863.70 0.1229
863.80 0.1228
863.90 0.1228
864.00 0.1227
864.10 0.1226
864.20 0.1226
864.30 0.1225
864.40 0.1225
864.50 0.1224
864.60 0.1224
864.70 0.1223
864.80 0.1223
864.90 0.1222
865.00 0.1222
865.10 0.1221
865.20 0.122
865.30 0.122
865.40 0.1219
865.50 0.1219
865.60 0.1218
865.70 0.1218
865.80 0.1217
865.90 0.1217
866.00 0.1216
866.10 0.1216
866.20 0.1215
866.30 0.1215
866.40 0.1214
866.50 0.1213
866.60 0.1213
866.70 0.1212
866.80 0.1212
866.90 0.1211
867.00 0.1211
867.10 0.121
867.20 0.121
867.30 0.1209
867.40 0.1209
867.50 0.1208
867.60 0.1208
867.70 0.1207
867.80 0.1206
867.90 0.1206
868.00 0.1205
868.10 0.1205
868.20 0.1204
868.30 0.1204
868.40 0.1203
868.50 0.1203
868.60 0.1202
868.70 0.1202
868.80 0.1201
868.90 0.1201
869.00 0.12
869.10 0.12
869.20 0.1199
869.30 0.1198
869.40 0.1198
869.50 0.1197
869.60 0.1197
869.70 0.1196
869.80 0.1196
869.90 0.1195
870.00 0.1195
870.10 0.1194
870.20 0.1194
870.30 0.1193
870.40 0.1193
870.50 0.1192
870.60 0.1192
870.70 0.1191
870.80 0.1191
870.90 0.119
871.00 0.1189
871.10 0.1189
871.20 0.1188
871.30 0.1188
871.40 0.1187
871.50 0.1187
871.60 0.1186
871.70 0.1186
871.80 0.1185
871.90 0.1185
872.00 0.1184
872.10 0.1184
872.20 0.1183
872.30 0.1183
872.40 0.1182
872.50 0.1182
872.60 0.1181
872.70 0.1181
872.80 0.118
872.90 0.118
873.00 0.1179
873.10 0.1179
873.20 0.1178
873.30 0.1177
873.40 0.1177
873.50 0.1176
873.60 0.1176
873.70 0.1175
873.80 0.1175
873.90 0.1174
874.00 0.1174
874.10 0.1173
874.20 0.1173
874.30 0.1172
874.40 0.1172
874.50 0.1171
874.60 0.1171
874.70 0.117
874.80 0.117
874.90 0.1169
875.00 0.1169
875.10 0.1168
875.20 0.1168
875.30 0.1167
875.40 0.1167
875.50 0.1166
875.60 0.1166
875.70 0.1165
875.80 0.1165
875.90 0.1164
876.00 0.1164
876.10 0.1163
876.20 0.1163
876.30 0.1162
876.40 0.1162
876.50 0.1161
876.60 0.1161
876.70 0.116
876.80 0.116
876.90 0.1159
877.00 0.1159
877.10 0.1158
877.20 0.1158
877.30 0.1157
877.40 0.1157
877.50 0.1156
877.60 0.1156
877.70 0.1155
877.80 0.1155
877.90 0.1154
878.00 0.1154
878.10 0.1153
878.20 0.1153
878.30 0.1152
878.40 0.1151
878.50 0.1151
878.60 0.115
878.70 0.115
878.80 0.1149
878.90 0.1149
879.00 0.1148
879.10 0.1148
879.20 0.1147
879.30 0.1147
879.40 0.1146
879.50 0.1146
879.60 0.1145
879.70 0.1145
879.80 0.1144
879.90 0.1144
880.00 0.1143
880.10 0.1143
880.20 0.1142
880.30 0.1142
880.40 0.1141
880.50 0.1141
880.60 0.114
880.70 0.114
880.80 0.1139
880.90 0.1139
881.00 0.1138
881.10 0.1138
881.20 0.1137
881.30 0.1137
881.40 0.1137
881.50 0.1136
881.60 0.1136
881.70 0.1135
881.80 0.1135
881.90 0.1134
882.00 0.1134
882.10 0.1133
882.20 0.1133
882.30 0.1132
882.40 0.1132
882.50 0.1131
882.60 0.1131
882.70 0.113
882.80 0.113
882.90 0.1129
883.00 0.1129
883.10 0.1128
883.20 0.1128
883.30 0.1127
883.40 0.1127
883.50 0.1126
883.60 0.1126
883.70 0.1125
883.80 0.1125
883.90 0.1124
884.00 0.1124
884.10 0.1123
884.20 0.1123
884.30 0.1122
884.40 0.1122
884.50 0.1121
884.60 0.1121
884.70 0.112
884.80 0.112
884.90 0.1119
885.00 0.1119
885.10 0.1118
885.20 0.1118
885.30 0.1117
885.40 0.1117
885.50 0.1116
885.60 0.1116
885.70 0.1115
885.80 0.1115
885.90 0.1115
886.00 0.1114
886.10 0.1114
886.20 0.1113
886.30 0.1113
886.40 0.1112
886.50 0.1112
886.60 0.1111
886.70 0.1111
886.80 0.111
886.90 0.111
887.00 0.1109
887.10 0.1109
887.20 0.1108
887.30 0.1108
887.40 0.1107
887.50 0.1107
887.60 0.1106
887.70 0.1106
887.80 0.1105
887.90 0.1105
888.00 0.1104
888.10 0.1104
888.20 0.1104
888.30 0.1103
888.40 0.1103
888.50 0.1102
888.60 0.1102
888.70 0.1101
888.80 0.1101
888.90 0.11
889.00 0.11
889.10 0.1099
889.20 0.1099
889.30 0.1098
889.40 0.1098
889.50 0.1097
889.60 0.1097
889.70 0.1097
889.80 0.1096
889.90 0.1096
890.00 0.1095
890.10 0.1095
890.20 0.1094
890.30 0.1094
890.40 0.1093
890.50 0.1093
890.60 0.1092
890.70 0.1092
890.80 0.1091
890.90 0.1091
891.00 0.109
891.10 0.109
891.20 0.109
891.30 0.1089
891.40 0.1089
891.50 0.1088
891.60 0.1088
891.70 0.1087
891.80 0.1087
891.90 0.1086
892.00 0.1086
892.10 0.1085
892.20 0.1085
892.30 0.1084
892.40 0.1084
892.50 0.1083
892.60 0.1083
892.70 0.1082
892.80 0.1082
892.90 0.1082
893.00 0.1081
893.10 0.1081
893.20 0.108
893.30 0.108
893.40 0.1079
893.50 0.1079
893.60 0.1078
893.70 0.1078
893.80 0.1077
893.90 0.1077
894.00 0.1076
894.10 0.1076
894.20 0.1075
894.30 0.1075
894.40 0.1074
894.50 0.1074
894.60 0.1073
894.70 0.1073
894.80 0.1072
894.90 0.1072
895.00 0.1071
895.10 0.1071
895.20 0.1071
895.30 0.107
895.40 0.107
895.50 0.1069
895.60 0.1069
895.70 0.1068
895.80 0.1068
895.90 0.1067
896.00 0.1067
896.10 0.1066
896.20 0.1066
896.30 0.1065
896.40 0.1065
896.50 0.1064
896.60 0.1064
896.70 0.1063
896.80 0.1063
896.90 0.1062
897.00 0.1062
897.10 0.1062
897.20 0.1061
897.30 0.1061
897.40 0.106
897.50 0.106
897.60 0.1059
897.70 0.1059
897.80 0.1058
897.90 0.1058
898.00 0.1057
898.10 0.1057
898.20 0.1056
898.30 0.1056
898.40 0.1055
898.50 0.1055
898.60 0.1054
898.70 0.1054
898.80 0.1054
898.90 0.1053
899.00 0.1053
899.10 0.1052
899.20 0.1052
899.30 0.1051
899.40 0.1051
899.50 0.105
899.60 0.105
899.70 0.1049
899.80 0.1049
899.90 0.1048
900.00 0.1048
900.10 0.1047
900.20 0.1047
900.30 0.1047
900.40 0.1046
900.50 0.1046
900.60 0.1045
900.70 0.1045
900.80 0.1044
900.90 0.1044
901.00 0.1043
901.10 0.1043
901.20 0.1042
901.30 0.1042
901.40 0.1041
901.50 0.1041
901.60 0.1041
901.70 0.104
901.80 0.104
901.90 0.1039
902.00 0.1039
902.10 0.1038
902.20 0.1038
902.30 0.1037
902.40 0.1037
902.50 0.1037
902.60 0.1036
902.70 0.1036
902.80 0.1035
902.90 0.1035
903.00 0.1035
903.10 0.1034
903.20 0.1034
903.30 0.1033
903.40 0.1033
903.50 0.1033
903.60 0.1032
903.70 0.1032
903.80 0.1031
903.90 0.1031
904.00 0.1031
904.10 0.103
904.20 0.103
904.30 0.1029
904.40 0.1029
904.50 0.1029
904.60 0.1028
904.70 0.1028
904.80 0.1027
904.90 0.1027
905.00 0.1027
905.10 0.1026
905.20 0.1026
905.30 0.1025
905.40 0.1025
905.50 0.1025
905.60 0.1024
905.70 0.1024
905.80 0.1023
905.90 0.1023
906.00 0.1023
906.10 0.1022
906.20 0.1022
906.30 0.1021
906.40 0.1021
906.50 0.1021
906.60 0.102
906.70 0.102
906.80 0.1019
906.90 0.1019
907.00 0.1019
907.10 0.1018
907.20 0.1018
907.30 0.1017
907.40 0.1017
907.50 0.1017
907.60 0.1016
907.70 0.1016
907.80 0.1015
907.90 0.1015
908.00 0.1015
908.10 0.1014
908.20 0.1014
908.30 0.1013
908.40 0.1013
908.50 0.1012
908.60 0.1012
908.70 0.1012
908.80 0.1011
908.90 0.1011
909.00 0.101
909.10 0.101
909.20 0.101
909.30 0.1009
909.40 0.1009
909.50 0.1008
909.60 0.1008
909.70 0.1007
909.80 0.1007
909.90 0.1007
910.00 0.1006
910.10 0.1006
910.20 0.1005
910.30 0.1005
910.40 0.1005
910.50 0.1004
910.60 0.1004
910.70 0.1003
910.80 0.1003
910.90 0.1002
911.00 0.1002
911.10 0.1002
911.20 0.1001
911.30 0.1001
911.40 0.1
911.50 0.1
911.60 0.09996
911.70 0.09992
911.80 0.09988
911.90 0.09983
912.00 0.09979
912.10 0.09975
912.20 0.0997
912.30 0.09965
912.40 0.09961
912.50 0.09956
912.60 0.09952
912.70 0.09947
912.80 0.09942
912.90 0.09938
913.00 0.09933
913.10 0.09929
913.20 0.09924
913.30 0.09919
913.40 0.09915
913.50 0.0991
913.60 0.09905
913.70 0.09901
913.80 0.09896
913.90 0.09892
914.00 0.09887
914.10 0.09882
914.20 0.09878
914.30 0.09873
914.40 0.09869
914.50 0.09864
914.60 0.0986
914.70 0.09855
914.80 0.0985
914.90 0.09846
915.00 0.09841
915.10 0.09837
915.20 0.09832
915.30 0.09827
915.40 0.09823
915.50 0.09818
915.60 0.09814
915.70 0.09809
915.80 0.09805
915.90 0.098
916.00 0.09796
916.10 0.09791
916.20 0.09786
916.30 0.09782
916.40 0.09777
916.50 0.09773
916.60 0.09768
916.70 0.09764
916.80 0.09759
916.90 0.09755
917.00 0.0975
917.10 0.09745
917.20 0.0974
917.30 0.09735
917.40 0.0973
917.50 0.09725
917.60 0.09721
917.70 0.09716
917.80 0.09711
917.90 0.09706
918.00 0.09701
918.10 0.09696
918.20 0.09691
918.30 0.09686
918.40 0.09681
918.50 0.09676
918.60 0.09672
918.70 0.09667
918.80 0.09662
918.90 0.09657
919.00 0.09652
919.10 0.09647
919.20 0.09642
919.30 0.09637
919.40 0.09633
919.50 0.09628
919.60 0.09623
919.70 0.09618
919.80 0.09613
919.90 0.09608
920.00 0.09603
920.10 0.09599
920.20 0.09594
920.30 0.09589
920.40 0.09584
920.50 0.09579
920.60 0.09574
920.70 0.09569
920.80 0.09565
920.90 0.0956
921.00 0.09555
921.10 0.0955
921.20 0.09545
921.30 0.0954
921.40 0.09536
921.50 0.09531
921.60 0.09526
921.70 0.09521
921.80 0.09516
921.90 0.09511
922.00 0.09507
922.10 0.09503
922.20 0.095
922.30 0.09497
922.40 0.09493
922.50 0.0949
922.60 0.09487
922.70 0.09483
922.80 0.0948
922.90 0.09477
923.00 0.09473
923.10 0.0947
923.20 0.09467
923.30 0.09464
923.40 0.0946
923.50 0.09457
923.60 0.09454
923.70 0.0945
923.80 0.09447
923.90 0.09444
924.00 0.0944
924.10 0.09437
924.20 0.09434
924.30 0.0943
924.40 0.09427
924.50 0.09424
924.60 0.09421
924.70 0.09417
924.80 0.09414
924.90 0.09411
925.00 0.09407
925.10 0.09404
925.20 0.09401
925.30 0.09398
925.40 0.09394
925.50 0.09391
925.60 0.09388
925.70 0.09384
925.80 0.09381
925.90 0.09378
926.00 0.09375
926.10 0.09371
926.20 0.09368
926.30 0.09365
926.40 0.09362
926.50 0.09358
926.60 0.09355
926.70 0.09352
926.80 0.09348
926.90 0.09345
927.00 0.09342
927.10 0.09339
927.20 0.09336
927.30 0.09333
927.40 0.0933
927.50 0.09326
927.60 0.09323
927.70 0.0932
927.80 0.09317
927.90 0.09314
928.00 0.09311
928.10 0.09308
928.20 0.09305
928.30 0.09302
928.40 0.09298
928.50 0.09295
928.60 0.09292
928.70 0.09289
928.80 0.09286
928.90 0.09283
929.00 0.0928
929.10 0.09277
929.20 0.09274
929.30 0.09271
929.40 0.09268
929.50 0.09264
929.60 0.09261
929.70 0.09258
929.80 0.09255
929.90 0.09252
930.00 0.09249
930.10 0.09246
930.20 0.09243
930.30 0.0924
930.40 0.09237
930.50 0.09234
930.60 0.09231
930.70 0.09228
930.80 0.09224
930.90 0.09221
931.00 0.09218
931.10 0.09215
931.20 0.09212
931.30 0.09209
931.40 0.09206
931.50 0.09203
931.60 0.092
931.70 0.09197
931.80 0.09194
931.90 0.09191
932.00 0.09188
932.10 0.09184
932.20 0.09181
932.30 0.09177
932.40 0.09174
932.50 0.09171
932.60 0.09167
932.70 0.09164
932.80 0.0916
932.90 0.09157
933.00 0.09154
933.10 0.0915
933.20 0.09147
933.30 0.09143
933.40 0.0914
933.50 0.09137
933.60 0.09133
933.70 0.0913
933.80 0.09126
933.90 0.09123
934.00 0.09119
934.10 0.09116
934.20 0.09113
934.30 0.09109
934.40 0.09106
934.50 0.09102
934.60 0.09099
934.70 0.09095
934.80 0.09091
934.90 0.09088
935.00 0.09084
935.10 0.09081
935.20 0.09077
935.30 0.09073
935.40 0.0907
935.50 0.09066
935.60 0.09063
935.70 0.09059
935.80 0.09055
935.90 0.09052
936.00 0.09048
936.10 0.09045
936.20 0.09041
936.30 0.09038
936.40 0.09034
936.50 0.0903
936.60 0.09027
936.70 0.09023
936.80 0.0902
936.90 0.09016
937.00 0.09013
937.10 0.09009
937.20 0.09005
937.30 0.09002
937.40 0.08998
937.50 0.08994
937.60 0.0899
937.70 0.08987
937.80 0.08983
937.90 0.08979
938.00 0.08976
938.10 0.08972
938.20 0.08968
938.30 0.08965
938.40 0.08961
938.50 0.08957
938.60 0.08953
938.70 0.08949
938.80 0.08946
938.90 0.08942
939.00 0.08938
939.10 0.08934
939.20 0.0893
939.30 0.08927
939.40 0.08923
939.50 0.08919
939.60 0.08915
939.70 0.08911
939.80 0.08908
939.90 0.08904
940.00 0.089
940.10 0.08896
940.20 0.08892
940.30 0.08889
940.40 0.08885
940.50 0.08881
940.60 0.08877
940.70 0.08873
940.80 0.08869
940.90 0.08865
941.00 0.08861
941.10 0.08857
941.20 0.08853
941.30 0.08849
941.40 0.08846
941.50 0.08842
941.60 0.08838
941.70 0.08834
941.80 0.0883
941.90 0.08826
942.00 0.08822
942.10 0.08818
942.20 0.08814
942.30 0.0881
942.40 0.08806
942.50 0.08802
942.60 0.08798
942.70 0.08794
942.80 0.0879
942.90 0.08785
943.00 0.08781
943.10 0.08777
943.20 0.08773
943.30 0.08769
943.40 0.08765
943.50 0.08761
943.60 0.08757
943.70 0.08753
943.80 0.08749
943.90 0.08745
944.00 0.0874
944.10 0.08736
944.20 0.08732
944.30 0.08728
944.40 0.08724
944.50 0.0872
944.60 0.08715
944.70 0.08711
944.80 0.08707
944.90 0.08703
945.00 0.08698
945.10 0.08694
945.20 0.0869
945.30 0.08686
945.40 0.08681
945.50 0.08677
945.60 0.08672
945.70 0.08668
945.80 0.08663
945.90 0.08659
946.00 0.08654
946.10 0.0865
946.20 0.08645
946.30 0.08641
946.40 0.08637
946.50 0.08632
946.60 0.08628
946.70 0.08623
946.80 0.08619
946.90 0.08614
947.00 0.0861
947.10 0.08605
947.20 0.08601
947.30 0.08596
947.40 0.08591
947.50 0.08586
947.60 0.08582
947.70 0.08577
947.80 0.08572
947.90 0.08567
948.00 0.08562
948.10 0.08557
948.20 0.08553
948.30 0.08548
948.40 0.08543
948.50 0.08538
948.60 0.08533
948.70 0.08528
948.80 0.08524
948.90 0.08519
949.00 0.08514
949.10 0.08509
949.20 0.08504
949.30 0.085
949.40 0.08494
949.50 0.08489
949.60 0.08484
949.70 0.08479
949.80 0.08473
949.90 0.08468
950.00 0.08463
950.10 0.08458
950.20 0.08453
950.30 0.08447
950.40 0.08442
950.50 0.08437
950.60 0.08432
950.70 0.08427
950.80 0.08421
950.90 0.08416
951.00 0.08411
951.10 0.08406
951.20 0.08401
951.30 0.08395
951.40 0.0839
951.50 0.08385
951.60 0.08379
951.70 0.08374
951.80 0.08368
951.90 0.08363
952.00 0.08358
952.10 0.08352
952.20 0.08347
952.30 0.08342
952.40 0.08336
952.50 0.08331
952.60 0.08326
952.70 0.0832
952.80 0.08315
952.90 0.0831
953.00 0.08305
953.10 0.083
953.20 0.08295
953.30 0.0829
953.40 0.08285
953.50 0.0828
953.60 0.08275
953.70 0.08271
953.80 0.08266
953.90 0.08262
954.00 0.08258
954.10 0.08254
954.20 0.08251
954.30 0.08248
954.40 0.08245
954.50 0.08243
954.60 0.08239
954.70 0.08236
954.80 0.08232
954.90 0.08229
955.00 0.08225
955.10 0.08221
955.20 0.08219
955.30 0.08217
955.40 0.08215
955.50 0.08213
955.60 0.0821
955.70 0.08208
955.80 0.08206
955.90 0.08205
956.00 0.08203
956.10 0.08202
956.20 0.082
956.30 0.08199
956.40 0.08197
956.50 0.08196
956.60 0.08194
956.70 0.08193
956.80 0.08192
956.90 0.0819
957.00 0.08189
957.10 0.08187
957.20 0.08186
957.30 0.08185
957.40 0.08183
957.50 0.08182
957.60 0.08181
957.70 0.08179
957.80 0.08178
957.90 0.08176
958.00 0.08175
958.10 0.08174
958.20 0.08172
958.30 0.08171
958.40 0.08169
958.50 0.08168
958.60 0.08167
958.70 0.08165
958.80 0.08164
958.90 0.08162
959.00 0.08161
959.10 0.0816
959.20 0.08158
959.30 0.08157
959.40 0.08155
959.50 0.08153
959.60 0.08151
959.70 0.08149
959.80 0.08148
959.90 0.08146
960.00 0.08144
960.10 0.08142
960.20 0.0814
960.30 0.08138
960.40 0.08137
960.50 0.08135
960.60 0.08133
960.70 0.08131
960.80 0.08129
960.90 0.08127
961.00 0.08126
961.10 0.08124
961.20 0.08122
961.30 0.0812
961.40 0.08118
961.50 0.08116
961.60 0.08114
961.70 0.08112
961.80 0.0811
961.90 0.08108
962.00 0.08105
962.10 0.08103
962.20 0.08101
962.30 0.08099
962.40 0.08096
962.50 0.08094
962.60 0.08092
962.70 0.08089
962.80 0.08087
962.90 0.08085
963.00 0.08083
963.10 0.0808
963.20 0.08078
963.30 0.08076
963.40 0.08073
963.50 0.08071
963.60 0.08068
963.70 0.08066
963.80 0.08063
963.90 0.08061
964.00 0.08059
964.10 0.08056
964.20 0.08054
964.30 0.08051
964.40 0.08049
964.50 0.08046
964.60 0.08043
964.70 0.08041
964.80 0.08038
964.90 0.08035
965.00 0.08033
965.10 0.0803
965.20 0.08028
965.30 0.08025
965.40 0.08022
965.50 0.0802
965.60 0.08017
965.70 0.08014
965.80 0.08012
965.90 0.08009
966.00 0.08007
966.10 0.08004
966.20 0.08001
966.30 0.07999
966.40 0.07996
966.50 0.07993
966.60 0.0799
966.70 0.07988
966.80 0.07985
966.90 0.07982
967.00 0.07979
967.10 0.07977
967.20 0.07974
967.30 0.07971
967.40 0.07968
967.50 0.07965
967.60 0.07963
967.70 0.0796
967.80 0.07957
967.90 0.07954
968.00 0.07951
968.10 0.07949
968.20 0.07946
968.30 0.07943
968.40 0.0794
968.50 0.07937
968.60 0.07934
968.70 0.07931
968.80 0.07928
968.90 0.07926
969.00 0.07923
969.10 0.0792
969.20 0.07917
969.30 0.07914
969.40 0.07911
969.50 0.07908
969.60 0.07905
969.70 0.07902
969.80 0.079
969.90 0.07897
970.00 0.07894
970.10 0.07891
970.20 0.07888
970.30 0.07885
970.40 0.07882
970.50 0.07879
970.60 0.07876
970.70 0.07873
970.80 0.0787
970.90 0.07867
971.00 0.07864
971.10 0.07861
971.20 0.07859
971.30 0.07856
971.40 0.07853
971.50 0.0785
971.60 0.07847
971.70 0.07844
971.80 0.07841
971.90 0.07838
972.00 0.07835
972.10 0.07832
972.20 0.07829
972.30 0.07826
972.40 0.07823
972.50 0.0782
972.60 0.07817
972.70 0.07814
972.80 0.07811
972.90 0.07808
973.00 0.07805
973.10 0.07802
973.20 0.07799
973.30 0.07796
973.40 0.07793
973.50 0.0779
973.60 0.07787
973.70 0.07784
973.80 0.07781
973.90 0.07778
974.00 0.07775
974.10 0.07772
974.20 0.07769
974.30 0.07766
974.40 0.07763
974.50 0.0776
974.60 0.07757
974.70 0.07754
974.80 0.07751
974.90 0.07748
975.00 0.07745
975.10 0.07742
975.20 0.07739
975.30 0.07736
975.40 0.07733
975.50 0.0773
975.60 0.07727
975.70 0.07724
975.80 0.07721
975.90 0.07718
976.00 0.07715
976.10 0.07712
976.20 0.07709
976.30 0.07706
976.40 0.07703
976.50 0.077
976.60 0.07697
976.70 0.07694
976.80 0.07691
976.90 0.07688
977.00 0.07685
977.10 0.07682
977.20 0.07679
977.30 0.07676
977.40 0.07673
977.50 0.0767
977.60 0.07667
977.70 0.07664
977.80 0.07661
977.90 0.07658
978.00 0.07655
978.10 0.07652
978.20 0.07649
978.30 0.07646
978.40 0.07642
978.50 0.07639
978.60 0.07636
978.70 0.07633
978.80 0.0763
978.90 0.07627
979.00 0.07624
979.10 0.07621
979.20 0.07618
979.30 0.07615
979.40 0.07612
979.50 0.07609
979.60 0.07606
979.70 0.07603
979.80 0.076
979.90 0.07597
980.00 0.07594
980.10 0.07591
980.20 0.07588
980.30 0.07585
980.40 0.07582
980.50 0.07579
980.60 0.07576
980.70 0.07573
980.80 0.0757
980.90 0.07567
981.00 0.07564
981.10 0.07561
981.20 0.07558
981.30 0.07555
981.40 0.07552
981.50 0.07549
981.60 0.07546
981.70 0.07543
981.80 0.0754
981.90 0.07537
982.00 0.07534
982.10 0.07531
982.20 0.07528
982.30 0.07525
982.40 0.07522
982.50 0.07519
982.60 0.07516
982.70 0.07513
982.80 0.0751
982.90 0.07507
983.00 0.07504
983.10 0.07501
983.20 0.07498
983.30 0.07495
983.40 0.07492
983.50 0.07489
983.60 0.07485
983.70 0.07482
983.80 0.07479
983.90 0.07476
984.00 0.07473
984.10 0.0747
984.20 0.07467
984.30 0.07464
984.40 0.07461
984.50 0.07458
984.60 0.07455
984.70 0.07452
984.80 0.07449
984.90 0.07446
985.00 0.07443
985.10 0.0744
985.20 0.07437
985.30 0.07434
985.40 0.07431
985.50 0.07428
985.60 0.07425
985.70 0.07422
985.80 0.07419
985.90 0.07416
986.00 0.07412
986.10 0.07409
986.20 0.07406
986.30 0.07403
986.40 0.074
986.50 0.07397
986.60 0.07394
986.70 0.07391
986.80 0.07388
986.90 0.07385
987.00 0.07382
987.10 0.07379
987.20 0.07376
987.30 0.07373
987.40 0.0737
987.50 0.07367
987.60 0.07363
987.70 0.0736
987.80 0.07357
987.90 0.07354
988.00 0.07351
988.10 0.07348
988.20 0.07345
988.30 0.07342
988.40 0.07339
988.50 0.07336
988.60 0.07333
988.70 0.07329
988.80 0.07326
988.90 0.07323
989.00 0.0732
989.10 0.07317
989.20 0.07314
989.30 0.07311
989.40 0.07307
989.50 0.07304
989.60 0.07301
989.70 0.07298
989.80 0.07295
989.90 0.07292
990.00 0.07289
990.10 0.07285
990.20 0.07282
990.30 0.07279
990.40 0.07276
990.50 0.07273
990.60 0.0727
990.70 0.07267
990.80 0.07263
990.90 0.0726
991.00 0.07257
991.10 0.07254
991.20 0.0725
991.30 0.07247
991.40 0.07244
991.50 0.07241
991.60 0.07237
991.70 0.07234
991.80 0.07231
991.90 0.07228
992.00 0.07224
992.10 0.07221
992.20 0.07218
992.30 0.07215
992.40 0.07211
992.50 0.07208
992.60 0.07205
992.70 0.07201
992.80 0.07198
992.90 0.07194
993.00 0.07191
993.10 0.07187
993.20 0.07184
993.30 0.07181
993.40 0.07177
993.50 0.07174
993.60 0.0717
993.70 0.07167
993.80 0.07163
993.90 0.0716
994.00 0.07157
994.10 0.07153
994.20 0.0715
994.30 0.07146
994.40 0.07143
994.50 0.07139
994.60 0.07136
994.70 0.07132
994.80 0.07129
994.90 0.07125
995.00 0.07121
995.10 0.07118
995.20 0.07114
995.30 0.0711
995.40 0.07107
995.50 0.07103
995.60 0.071
995.70 0.07096
995.80 0.07092
995.90 0.07088
996.00 0.07084
996.10 0.0708
996.20 0.07076
996.30 0.07072
996.40 0.07069
996.50 0.07065
996.60 0.07061
996.70 0.07057
996.80 0.07053
996.90 0.07049
997.00 0.07045
997.10 0.07041
997.20 0.07037
997.30 0.07033
997.40 0.07029
997.50 0.07025
997.60 0.07021
997.70 0.07016
997.80 0.07012
997.90 0.07007
998.00 0.07002
998.10 0.06998
998.20 0.06993
998.30 0.06989
998.40 0.06984
998.50 0.0698
998.60 0.06975
998.70 0.06971
998.80 0.06966
998.90 0.06961
999.00 0.06957
999.10 0.06952
999.20 0.06948
999.30 0.06943
999.40 0.06939
999.50 0.06934
999.60 0.0693
999.70 0.06924
999.80 0.06919
999.90 0.06914
1000.00 0.06908
1000.10 0.06903
1000.20 0.06897
1000.30 0.06892
1000.40 0.06886
1000.50 0.06881
1000.60 0.06876
1000.70 0.0687
1000.80 0.06865
1000.90 0.06859
1001.00 0.06854
1001.10 0.06848
1001.20 0.06843
1001.30 0.06838
1001.40 0.06832
1001.50 0.06827
1001.60 0.06821
1001.70 0.06816
1001.80 0.0681
1001.90 0.06804
1002.00 0.06798
1002.10 0.06792
1002.20 0.06786
1002.30 0.0678
1002.40 0.06774
1002.50 0.06768
1002.60 0.06762
1002.70 0.06756
1002.80 0.0675
1002.90 0.06744
1003.00 0.06738
1003.10 0.06732
1003.20 0.06726
1003.30 0.0672
1003.40 0.06715
1003.50 0.06709
1003.60 0.06703
1003.70 0.06698
1003.80 0.06692
1003.90 0.06688
1004.00 0.06684
1004.10 0.0668
1004.20 0.06676
1004.30 0.06674
1004.40 0.06673
1004.50 0.06673
1004.60 0.06676
1004.70 0.0668
1004.80 0.06685
1004.90 0.06684
1005.00 0.06683
1005.10 0.06676
1005.20 0.06667
1005.30 0.06659
1005.40 0.0665
1005.50 0.06646
1005.60 0.06645
1005.70 0.06643
1005.80 0.06641
1005.90 0.06639
1006.00 0.06637
1006.10 0.06635
1006.20 0.06635
1006.30 0.06636
1006.40 0.06637
1006.50 0.06638
1006.60 0.06638
1006.70 0.06639
1006.80 0.0664
1006.90 0.0664
1007.00 0.06641
1007.10 0.06642
1007.20 0.06643
1007.30 0.06644
1007.40 0.06645
1007.50 0.06645
1007.60 0.06646
1007.70 0.06647
1007.80 0.06647
1007.90 0.06648
1008.00 0.06648
1008.10 0.06648
1008.20 0.06649
1008.30 0.06649
1008.40 0.06649
1008.50 0.0665
1008.60 0.0665
1008.70 0.06651
1008.80 0.06651
1008.90 0.06651
1009.00 0.06652
1009.10 0.06652
1009.20 0.06652
1009.30 0.06653
1009.40 0.06653
1009.50 0.06653
1009.60 0.06654
1009.70 0.06654
1009.80 0.06653
1009.90 0.06652
1010.00 0.06652
1010.10 0.06651
1010.20 0.06651
1010.30 0.0665
1010.40 0.0665
1010.50 0.06649
1010.60 0.06648
1010.70 0.06648
1010.80 0.06647
1010.90 0.06647
1011.00 0.06646
1011.10 0.06646
1011.20 0.06645
1011.30 0.06644
1011.40 0.06644
1011.50 0.06643
1011.60 0.06643
1011.70 0.06642
1011.80 0.06641
1011.90 0.0664
1012.00 0.06639
1012.10 0.06637
1012.20 0.06636
1012.30 0.06635
1012.40 0.06633
1012.50 0.06632
1012.60 0.06631
1012.70 0.06629
1012.80 0.06628
1012.90 0.06627
1013.00 0.06625
1013.10 0.06624
1013.20 0.06623
1013.30 0.06621
1013.40 0.0662
1013.50 0.06619
1013.60 0.06617
1013.70 0.06616
1013.80 0.06614
1013.90 0.06613
1014.00 0.06611
1014.10 0.06609
1014.20 0.06608
1014.30 0.06606
1014.40 0.06604
1014.50 0.06603
1014.60 0.06601
1014.70 0.06599
1014.80 0.06598
1014.90 0.06596
1015.00 0.06594
1015.10 0.06592
1015.20 0.0659
1015.30 0.06588
1015.40 0.06586
1015.50 0.06584
1015.60 0.06582
1015.70 0.06581
1015.80 0.06579
1015.90 0.06577
1016.00 0.06575
1016.10 0.06573
1016.20 0.06571
1016.30 0.06569
1016.40 0.06568
1016.50 0.06566
1016.60 0.06564
1016.70 0.06562
1016.80 0.0656
1016.90 0.06558
1017.00 0.06556
1017.10 0.06554
1017.20 0.06552
1017.30 0.06549
1017.40 0.06547
1017.50 0.06545
1017.60 0.06543
1017.70 0.06541
1017.80 0.06539
1017.90 0.06537
1018.00 0.06535
1018.10 0.06533
1018.20 0.06531
1018.30 0.06528
1018.40 0.06526
1018.50 0.06524
1018.60 0.06522
1018.70 0.0652
1018.80 0.06518
1018.90 0.06516
1019.00 0.06513
1019.10 0.06511
1019.20 0.06509
1019.30 0.06507
1019.40 0.06505
1019.50 0.06502
1019.60 0.065
1019.70 0.06498
1019.80 0.06496
1019.90 0.06494
1020.00 0.06491
1020.10 0.06489
1020.20 0.06487
1020.30 0.06485
1020.40 0.06483
1020.50 0.0648
1020.60 0.06478
1020.70 0.06476
1020.80 0.06474
1020.90 0.06471
1021.00 0.06469
1021.10 0.06467
1021.20 0.06465
1021.30 0.06462
1021.40 0.0646
1021.50 0.06458
1021.60 0.06455
1021.70 0.06453
1021.80 0.06451
1021.90 0.06449
1022.00 0.06446
1022.10 0.06444
1022.20 0.06442
1022.30 0.06439
1022.40 0.06437
1022.50 0.06435
1022.60 0.06433
1022.70 0.0643
1022.80 0.06428
1022.90 0.06426
1023.00 0.06423
1023.10 0.06421
1023.20 0.06419
1023.30 0.06416
1023.40 0.06414
1023.50 0.06412
1023.60 0.0641
1023.70 0.06407
1023.80 0.06405
1023.90 0.06403
1024.00 0.064
1024.10 0.06398
1024.20 0.06396
1024.30 0.06393
1024.40 0.06391
1024.50 0.06389
1024.60 0.06387
1024.70 0.06384
1024.80 0.06382
1024.90 0.0638
1025.00 0.06377
1025.10 0.06375
1025.20 0.06373
1025.30 0.0637
1025.40 0.06368
1025.50 0.06366
1025.60 0.06363
1025.70 0.06361
1025.80 0.06359
1025.90 0.06356
1026.00 0.06354
1026.10 0.06352
1026.20 0.06349
1026.30 0.06347
1026.40 0.06345
1026.50 0.06342
1026.60 0.0634
1026.70 0.06338
1026.80 0.06335
1026.90 0.06333
1027.00 0.06331
1027.10 0.06328
1027.20 0.06326
1027.30 0.06324
1027.40 0.06321
1027.50 0.06319
1027.60 0.06317
1027.70 0.06314
1027.80 0.06312
1027.90 0.0631
1028.00 0.06307
1028.10 0.06305
1028.20 0.06303
1028.30 0.063
1028.40 0.06298
1028.50 0.06296
1028.60 0.06293
1028.70 0.06291
1028.80 0.06289
1028.90 0.06287
1029.00 0.06284
1029.10 0.06282
1029.20 0.0628
1029.30 0.06277
1029.40 0.06275
1029.50 0.06273
1029.60 0.0627
1029.70 0.06268
1029.80 0.06266
1029.90 0.06263
1030.00 0.06261
1030.10 0.06259
1030.20 0.06256
1030.30 0.06254
1030.40 0.06252
1030.50 0.06249
1030.60 0.06247
1030.70 0.06245
1030.80 0.06242
1030.90 0.0624
1031.00 0.06238
1031.10 0.06236
1031.20 0.06233
1031.30 0.06231
1031.40 0.06229
1031.50 0.06226
1031.60 0.06224
1031.70 0.06222
1031.80 0.06219
1031.90 0.06217
1032.00 0.06215
1032.10 0.06213
1032.20 0.0621
1032.30 0.06208
1032.40 0.06206
1032.50 0.06203
1032.60 0.06201
1032.70 0.06199
1032.80 0.06196
1032.90 0.06194
1033.00 0.06192
1033.10 0.06189
1033.20 0.06187
1033.30 0.06185
1033.40 0.06183
1033.50 0.0618
1033.60 0.06178
1033.70 0.06176
1033.80 0.06173
1033.90 0.06171
1034.00 0.06169
1034.10 0.06166
1034.20 0.06164
1034.30 0.06162
1034.40 0.0616
1034.50 0.06157
1034.60 0.06155
1034.70 0.06153
1034.80 0.0615
1034.90 0.06148
1035.00 0.06146
1035.10 0.06144
1035.20 0.06141
1035.30 0.06139
1035.40 0.06137
1035.50 0.06134
1035.60 0.06132
1035.70 0.0613
1035.80 0.06128
1035.90 0.06125
1036.00 0.06123
1036.10 0.06121
1036.20 0.06118
1036.30 0.06116
1036.40 0.06114
1036.50 0.06112
1036.60 0.06109
1036.70 0.06107
1036.80 0.06105
1036.90 0.06103
1037.00 0.061
1037.10 0.06098
1037.20 0.06096
1037.30 0.06093
1037.40 0.06091
1037.50 0.06089
1037.60 0.06087
1037.70 0.06084
1037.80 0.06082
1037.90 0.0608
1038.00 0.06078
1038.10 0.06075
1038.20 0.06073
1038.30 0.06071
1038.40 0.06069
1038.50 0.06066
1038.60 0.06064
1038.70 0.06062
1038.80 0.0606
1038.90 0.06057
1039.00 0.06055
1039.10 0.06053
1039.20 0.06051
1039.30 0.06048
1039.40 0.06046
1039.50 0.06044
1039.60 0.06041
1039.70 0.06039
1039.80 0.06037
1039.90 0.06035
1040.00 0.06032
1040.10 0.0603
1040.20 0.06028
1040.30 0.06026
1040.40 0.06024
1040.50 0.06021
1040.60 0.06019
1040.70 0.06017
1040.80 0.06015
1040.90 0.06012
1041.00 0.0601
1041.10 0.06008
1041.20 0.06006
1041.30 0.06003
1041.40 0.06001
1041.50 0.05999
1041.60 0.05997
1041.70 0.05994
1041.80 0.05992
1041.90 0.0599
1042.00 0.05988
1042.10 0.05985
1042.20 0.05983
1042.30 0.05981
1042.40 0.05979
1042.50 0.05977
1042.60 0.05974
1042.70 0.05972
1042.80 0.0597
1042.90 0.05968
1043.00 0.05966
1043.10 0.05963
1043.20 0.05961
1043.30 0.05959
1043.40 0.05957
1043.50 0.05954
1043.60 0.05952
1043.70 0.0595
1043.80 0.05948
1043.90 0.05946
1044.00 0.05943
1044.10 0.05941
1044.20 0.05939
1044.30 0.05937
1044.40 0.05935
1044.50 0.05932
1044.60 0.0593
1044.70 0.05928
1044.80 0.05926
1044.90 0.05924
1045.00 0.05921
1045.10 0.05919
1045.20 0.05917
1045.30 0.05915
1045.40 0.05913
1045.50 0.0591
1045.60 0.05908
1045.70 0.05906
1045.80 0.05904
1045.90 0.05902
1046.00 0.05899
1046.10 0.05897
1046.20 0.05895
1046.30 0.05893
1046.40 0.05891
1046.50 0.05888
1046.60 0.05886
1046.70 0.05884
1046.80 0.05882
1046.90 0.0588
1047.00 0.05877
1047.10 0.05875
1047.20 0.05873
1047.30 0.05871
1047.40 0.05869
1047.50 0.05867
1047.60 0.05864
1047.70 0.05862
1047.80 0.0586
1047.90 0.05858
1048.00 0.05856
1048.10 0.05854
1048.20 0.05851
1048.30 0.05849
1048.40 0.05847
1048.50 0.05845
1048.60 0.05843
1048.70 0.0584
1048.80 0.05838
1048.90 0.05836
1049.00 0.05834
1049.10 0.05832
1049.20 0.0583
1049.30 0.05828
1049.40 0.05825
1049.50 0.05823
1049.60 0.05821
1049.70 0.05819
1049.80 0.05817
1049.90 0.05815
1050.00 0.05812
1050.10 0.0581
1050.20 0.05808
1050.30 0.05806
1050.40 0.05804
1050.50 0.05802
1050.60 0.05799
1050.70 0.05797
1050.80 0.05795
1050.90 0.05793
1051.00 0.05791
1051.10 0.05789
1051.20 0.05787
1051.30 0.05784
1051.40 0.05782
1051.50 0.0578
1051.60 0.05778
1051.70 0.05776
1051.80 0.05774
1051.90 0.05772
1052.00 0.05769
1052.10 0.05767
1052.20 0.05765
1052.30 0.05763
1052.40 0.05761
1052.50 0.05759
1052.60 0.05757
1052.70 0.05754
1052.80 0.05752
1052.90 0.0575
1053.00 0.05748
1053.10 0.05746
1053.20 0.05744
1053.30 0.05742
1053.40 0.0574
1053.50 0.05737
1053.60 0.05735
1053.70 0.05733
1053.80 0.05731
1053.90 0.05729
1054.00 0.05727
1054.10 0.05725
1054.20 0.05723
1054.30 0.05721
1054.40 0.05718
1054.50 0.05716
1054.60 0.05714
1054.70 0.05712
1054.80 0.0571
1054.90 0.05708
1055.00 0.05706
1055.10 0.05704
1055.20 0.05701
1055.30 0.05699
1055.40 0.05697
1055.50 0.05695
1055.60 0.05693
1055.70 0.05691
1055.80 0.05689
1055.90 0.05687
1056.00 0.05685
1056.10 0.05683
1056.20 0.0568
1056.30 0.05678
1056.40 0.05676
1056.50 0.05674
1056.60 0.05672
1056.70 0.0567
1056.80 0.05668
1056.90 0.05666
1057.00 0.05664
1057.10 0.05662
1057.20 0.05659
1057.30 0.05657
1057.40 0.05655
1057.50 0.05653
1057.60 0.05651
1057.70 0.05649
1057.80 0.05647
1057.90 0.05645
1058.00 0.05643
1058.10 0.05641
1058.20 0.05639
1058.30 0.05636
1058.40 0.05634
1058.50 0.05632
1058.60 0.0563
1058.70 0.05628
1058.80 0.05626
1058.90 0.05624
1059.00 0.05622
1059.10 0.0562
1059.20 0.05618
1059.30 0.05616
1059.40 0.05614
1059.50 0.05612
1059.60 0.05609
1059.70 0.05607
1059.80 0.05605
1059.90 0.05603
1060.00 0.05601
1060.10 0.05599
1060.20 0.05597
1060.30 0.05595
1060.40 0.05593
1060.50 0.05591
1060.60 0.05589
1060.70 0.05587
1060.80 0.05585
1060.90 0.05583
1061.00 0.0558
1061.10 0.05578
1061.20 0.05576
1061.30 0.05574
1061.40 0.05572
1061.50 0.0557
1061.60 0.05568
1061.70 0.05566
1061.80 0.05564
1061.90 0.05562
1062.00 0.0556
1062.10 0.05558
1062.20 0.05556
1062.30 0.05554
1062.40 0.05552
1062.50 0.0555
1062.60 0.05547
1062.70 0.05545
1062.80 0.05543
1062.90 0.05541
1063.00 0.05539
1063.10 0.05537
1063.20 0.05535
1063.30 0.05533
1063.40 0.05531
1063.50 0.05529
1063.60 0.05527
1063.70 0.05525
1063.80 0.05523
1063.90 0.05521
1064.00 0.05519
1064.10 0.05517
1064.20 0.05515
1064.30 0.05513
1064.40 0.05511
1064.50 0.05509
1064.60 0.05507
1064.70 0.05505
1064.80 0.05502
1064.90 0.055
1065.00 0.05498
1065.10 0.05496
1065.20 0.05494
1065.30 0.05492
1065.40 0.0549
1065.50 0.05488
1065.60 0.05486
1065.70 0.05484
1065.80 0.05482
1065.90 0.0548
1066.00 0.05478
1066.10 0.05476
1066.20 0.05474
1066.30 0.05472
1066.40 0.0547
1066.50 0.05468
1066.60 0.05466
1066.70 0.05464
1066.80 0.05462
1066.90 0.0546
1067.00 0.05458
1067.10 0.05456
1067.20 0.05454
1067.30 0.05452
1067.40 0.0545
1067.50 0.05448
1067.60 0.05446
1067.70 0.05444
1067.80 0.05442
1067.90 0.05439
1068.00 0.05437
1068.10 0.05435
1068.20 0.05433
1068.30 0.05431
1068.40 0.05429
1068.50 0.05427
1068.60 0.05425
1068.70 0.05423
1068.80 0.05421
1068.90 0.05419
1069.00 0.05417
1069.10 0.05415
1069.20 0.05413
1069.30 0.05411
1069.40 0.05409
1069.50 0.05407
1069.60 0.05405
1069.70 0.05403
1069.80 0.05401
1069.90 0.05399
1070.00 0.05397
1070.10 0.05395
1070.20 0.05393
1070.30 0.05391
1070.40 0.05389
1070.50 0.05387
1070.60 0.05385
1070.70 0.05383
1070.80 0.05381
1070.90 0.05379
1071.00 0.05377
1071.10 0.05375
1071.20 0.05373
1071.30 0.05371
1071.40 0.05369
1071.50 0.05367
1071.60 0.05365
1071.70 0.05363
1071.80 0.05361
1071.90 0.05359
1072.00 0.05357
1072.10 0.05355
1072.20 0.05353
1072.30 0.05351
1072.40 0.05349
1072.50 0.05347
1072.60 0.05345
1072.70 0.05343
1072.80 0.05341
1072.90 0.05339
1073.00 0.05337
1073.10 0.05335
1073.20 0.05333
1073.30 0.05331
1073.40 0.05328
1073.50 0.05326
1073.60 0.05324
1073.70 0.05322
1073.80 0.0532
1073.90 0.05318
1074.00 0.05316
1074.10 0.05314
1074.20 0.05312
1074.30 0.0531
1074.40 0.05308
1074.50 0.05306
1074.60 0.05304
1074.70 0.05302
1074.80 0.053
1074.90 0.05298
1075.00 0.05296
1075.10 0.05294
1075.20 0.05292
1075.30 0.0529
1075.40 0.05288
1075.50 0.05286
1075.60 0.05284
1075.70 0.05282
1075.80 0.05279
1075.90 0.05277
1076.00 0.05275
1076.10 0.05273
1076.20 0.05271
1076.30 0.05269
1076.40 0.05267
1076.50 0.05265
1076.60 0.05263
1076.70 0.05261
1076.80 0.05259
1076.90 0.05257
1077.00 0.05255
1077.10 0.05253
1077.20 0.05251
1077.30 0.05249
1077.40 0.05247
1077.50 0.05245
1077.60 0.05243
1077.70 0.05241
1077.80 0.05238
1077.90 0.05236
1078.00 0.05234
1078.10 0.05232
1078.20 0.0523
1078.30 0.05228
1078.40 0.05226
1078.50 0.05224
1078.60 0.05222
1078.70 0.0522
1078.80 0.05217
1078.90 0.05215
1079.00 0.05213
1079.10 0.05211
1079.20 0.05209
1079.30 0.05207
1079.40 0.05205
1079.50 0.05203
1079.60 0.052
1079.70 0.05198
1079.80 0.05196
1079.90 0.05194
1080.00 0.05192
1080.10 0.05189
1080.20 0.05187
1080.30 0.05185
1080.40 0.05183
1080.50 0.05181
1080.60 0.05179
1080.70 0.05176
1080.80 0.05174
1080.90 0.05172
1081.00 0.0517
1081.10 0.05168
1081.20 0.05165
1081.30 0.05163
1081.40 0.05161
1081.50 0.05159
1081.60 0.05157
1081.70 0.05154
1081.80 0.05152
1081.90 0.0515
1082.00 0.05147
1082.10 0.05145
1082.20 0.05143
1082.30 0.0514
1082.40 0.05138
1082.50 0.05135
1082.60 0.05133
1082.70 0.05131
1082.80 0.05128
1082.90 0.05126
1083.00 0.05124
1083.10 0.05121
1083.20 0.05119
1083.30 0.05116
1083.40 0.05114
1083.50 0.05112
1083.60 0.05109
1083.70 0.05107
1083.80 0.05104
1083.90 0.05102
1084.00 0.05099
1084.10 0.05096
1084.20 0.05094
1084.30 0.05091
1084.40 0.05089
1084.50 0.05086
1084.60 0.05083
1084.70 0.05081
1084.80 0.05078
1084.90 0.05075
1085.00 0.05072
1085.10 0.05069
1085.20 0.05066
1085.30 0.05063
1085.40 0.05061
1085.50 0.05058
1085.60 0.05055
1085.70 0.05052
1085.80 0.05049
1085.90 0.05046
1086.00 0.05044
1086.10 0.05041
1086.20 0.05038
1086.30 0.05035
1086.40 0.05032
1086.50 0.05029
1086.60 0.05026
1086.70 0.05023
1086.80 0.0502
1086.90 0.05017
1087.00 0.05013
1087.10 0.0501
1087.20 0.05006
1087.30 0.05003
1087.40 0.04999
1087.50 0.04996
1087.60 0.04992
1087.70 0.04989
1087.80 0.04985
1087.90 0.04981
1088.00 0.04978
1088.10 0.04974
1088.20 0.04971
1088.30 0.04967
1088.40 0.04964
1088.50 0.0496
1088.60 0.04956
1088.70 0.04951
1088.80 0.04947
1088.90 0.04942
1089.00 0.04938
1089.10 0.04934
1089.20 0.04929
1089.30 0.04925
1089.40 0.04921
1089.50 0.04916
1089.60 0.04912
1089.70 0.04908
1089.80 0.04903
1089.90 0.04899
1090.00 0.04894
1090.10 0.0489
1090.20 0.04886
1090.30 0.04881
1090.40 0.04877
1090.50 0.04873
1090.60 0.04868
1090.70 0.04863
1090.80 0.04858
1090.90 0.04853
1091.00 0.04848
1091.10 0.04843
1091.20 0.04838
1091.30 0.04833
1091.40 0.04828
1091.50 0.04823
1091.60 0.04818
1091.70 0.04813
1091.80 0.04808
1091.90 0.04803
1092.00 0.04798
1092.10 0.04793
1092.20 0.04789
1092.30 0.04784
1092.40 0.0478
1092.50 0.04776
1092.60 0.04771
1092.70 0.04767
1092.80 0.04765
1092.90 0.04762
1093.00 0.04759
1093.10 0.04757
1093.20 0.04756
1093.30 0.04755
1093.40 0.04756
1093.50 0.04757
1093.60 0.04762
1093.70 0.04767
1093.80 0.04771
1093.90 0.0477
1094.00 0.04762
1094.10 0.04754
1094.20 0.04745
1094.30 0.04739
1094.40 0.04738
1094.50 0.04737
1094.60 0.04736
1094.70 0.04734
1094.80 0.04733
1094.90 0.04732
1095.00 0.04731
1095.10 0.04733
1095.20 0.04734
1095.30 0.04736
1095.40 0.04737
1095.50 0.04738
1095.60 0.0474
1095.70 0.04741
1095.80 0.04743
1095.90 0.04744
1096.00 0.04745
1096.10 0.04747
1096.20 0.04748
1096.30 0.0475
1096.40 0.04751
1096.50 0.04752
1096.60 0.04754
1096.70 0.04755
1096.80 0.04757
1096.90 0.04758
1097.00 0.0476
1097.10 0.04761
1097.20 0.04762
1097.30 0.04763
1097.40 0.04764
1097.50 0.04765
1097.60 0.04766
1097.70 0.04768
1097.80 0.04769
1097.90 0.0477
1098.00 0.04771
1098.10 0.04772
1098.20 0.04773
1098.30 0.04774
1098.40 0.04775
1098.50 0.04776
1098.60 0.04776
1098.70 0.04776
1098.80 0.04776
1098.90 0.04777
1099.00 0.04777
1099.10 0.04777
1099.20 0.04777
1099.30 0.04777
1099.40 0.04778
1099.50 0.04778
1099.60 0.04778
1099.70 0.04778
1099.80 0.04778
1099.90 0.04779
1100.00 0.04779
1100.10 0.04779
1100.20 0.04779
1100.30 0.04779
1100.40 0.0478
1100.50 0.04779
1100.60 0.04779
1100.70 0.04779
1100.80 0.04778
1100.90 0.04778
1101.00 0.04777
1101.10 0.04777
1101.20 0.04776
1101.30 0.04776
1101.40 0.04775
1101.50 0.04775
1101.60 0.04774
1101.70 0.04774
1101.80 0.04773
1101.90 0.04773
1102.00 0.04772
1102.10 0.04771
1102.20 0.04771
1102.30 0.0477
1102.40 0.04769
1102.50 0.04768
1102.60 0.04767
1102.70 0.04766
1102.80 0.04766
1102.90 0.04765
1103.00 0.04764
1103.10 0.04763
1103.20 0.04762
1103.30 0.04761
1103.40 0.0476
1103.50 0.04759
1103.60 0.04758
1103.70 0.04757
1103.80 0.04756
1103.90 0.04754
1104.00 0.04753
1104.10 0.04752
1104.20 0.04751
1104.30 0.0475
1104.40 0.04749
1104.50 0.04748
1104.60 0.04746
1104.70 0.04745
1104.80 0.04744
1104.90 0.04743
1105.00 0.04742
1105.10 0.04741
1105.20 0.0474
1105.30 0.04738
1105.40 0.04737
1105.50 0.04736
1105.60 0.04735
1105.70 0.04733
1105.80 0.04732
1105.90 0.04731
1106.00 0.0473
1106.10 0.04728
1106.20 0.04727
1106.30 0.04726
1106.40 0.04724
1106.50 0.04723
1106.60 0.04722
1106.70 0.0472
1106.80 0.04719
1106.90 0.04718
1107.00 0.04716
1107.10 0.04715
1107.20 0.04714
1107.30 0.04712
1107.40 0.04711
1107.50 0.04709
1107.60 0.04708
1107.70 0.04707
1107.80 0.04705
1107.90 0.04704
1108.00 0.04702
1108.10 0.04701
1108.20 0.04699
1108.30 0.04698
1108.40 0.04696
1108.50 0.04695
1108.60 0.04694
1108.70 0.04692
1108.80 0.04691
1108.90 0.04689
1109.00 0.04688
1109.10 0.04686
1109.20 0.04685
1109.30 0.04684
1109.40 0.04682
1109.50 0.04681
1109.60 0.04679
1109.70 0.04678
1109.80 0.04676
1109.90 0.04675
1110.00 0.04673
1110.10 0.04672
1110.20 0.0467
1110.30 0.04669
1110.40 0.04667
1110.50 0.04666
1110.60 0.04664
1110.70 0.04663
1110.80 0.04661
1110.90 0.0466
1111.00 0.04658
1111.10 0.04657
1111.20 0.04655
1111.30 0.04654
1111.40 0.04652
1111.50 0.04651
1111.60 0.04649
1111.70 0.04648
1111.80 0.04646
1111.90 0.04645
1112.00 0.04643
1112.10 0.04642
1112.20 0.0464
1112.30 0.04639
1112.40 0.04637
1112.50 0.04635
1112.60 0.04634
1112.70 0.04632
1112.80 0.04631
1112.90 0.04629
1113.00 0.04628
1113.10 0.04626
1113.20 0.04625
1113.30 0.04623
1113.40 0.04622
1113.50 0.0462
1113.60 0.04619
1113.70 0.04617
1113.80 0.04616
1113.90 0.04614
1114.00 0.04612
1114.10 0.04611
1114.20 0.04609
1114.30 0.04608
1114.40 0.04606
1114.50 0.04605
1114.60 0.04603
1114.70 0.04602
1114.80 0.046
1114.90 0.04598
1115.00 0.04597
1115.10 0.04595
1115.20 0.04594
1115.30 0.04592
1115.40 0.04591
1115.50 0.04589
1115.60 0.04588
1115.70 0.04586
1115.80 0.04585
1115.90 0.04583
1116.00 0.04582
1116.10 0.0458
1116.20 0.04578
1116.30 0.04577
1116.40 0.04575
1116.50 0.04574
1116.60 0.04572
1116.70 0.04571
1116.80 0.04569
1116.90 0.04568
1117.00 0.04566
1117.10 0.04565
1117.20 0.04563
1117.30 0.04561
1117.40 0.0456
1117.50 0.04558
1117.60 0.04557
1117.70 0.04555
1117.80 0.04554
1117.90 0.04552
1118.00 0.04551
1118.10 0.04549
1118.20 0.04548
1118.30 0.04546
1118.40 0.04544
1118.50 0.04543
1118.60 0.04541
1118.70 0.0454
1118.80 0.04538
1118.90 0.04537
1119.00 0.04535
1119.10 0.04534
1119.20 0.04532
1119.30 0.0453
1119.40 0.04529
1119.50 0.04527
1119.60 0.04526
1119.70 0.04524
1119.80 0.04523
1119.90 0.04521
1120.00 0.0452
1120.10 0.04518
1120.20 0.04517
1120.30 0.04515
1120.40 0.04514
1120.50 0.04512
1120.60 0.0451
1120.70 0.04509
1120.80 0.04507
1120.90 0.04506
1121.00 0.04504
1121.10 0.04503
1121.20 0.04501
1121.30 0.045
1121.40 0.04498
1121.50 0.04497
1121.60 0.04495
1121.70 0.04494
1121.80 0.04492
1121.90 0.04491
1122.00 0.04489
1122.10 0.04487
1122.20 0.04486
1122.30 0.04484
1122.40 0.04483
1122.50 0.04481
1122.60 0.0448
1122.70 0.04478
1122.80 0.04477
1122.90 0.04475
1123.00 0.04474
1123.10 0.04472
1123.20 0.04471
1123.30 0.04469
1123.40 0.04468
1123.50 0.04466
1123.60 0.04464
1123.70 0.04463
1123.80 0.04461
1123.90 0.0446
1124.00 0.04458
1124.10 0.04457
1124.20 0.04455
1124.30 0.04454
1124.40 0.04452
1124.50 0.04451
1124.60 0.04449
1124.70 0.04448
1124.80 0.04446
1124.90 0.04445
1125.00 0.04443
1125.10 0.04442
1125.20 0.0444
1125.30 0.04438
1125.40 0.04437
1125.50 0.04435
1125.60 0.04434
1125.70 0.04432
1125.80 0.04431
1125.90 0.04429
1126.00 0.04428
1126.10 0.04426
1126.20 0.04425
1126.30 0.04423
1126.40 0.04422
1126.50 0.0442
1126.60 0.04419
1126.70 0.04417
1126.80 0.04416
1126.90 0.04414
1127.00 0.04413
1127.10 0.04411
1127.20 0.0441
1127.30 0.04408
1127.40 0.04407
1127.50 0.04405
1127.60 0.04404
1127.70 0.04402
1127.80 0.04401
1127.90 0.04399
1128.00 0.04398
1128.10 0.04396
1128.20 0.04395
1128.30 0.04393
1128.40 0.04392
1128.50 0.0439
1128.60 0.04389
1128.70 0.04387
1128.80 0.04386
1128.90 0.04384
1129.00 0.04383
1129.10 0.04381
1129.20 0.0438
1129.30 0.04378
1129.40 0.04377
1129.50 0.04375
1129.60 0.04374
1129.70 0.04372
1129.80 0.04371
1129.90 0.04369
1130.00 0.04368
1130.10 0.04366
1130.20 0.04365
1130.30 0.04363
1130.40 0.04362
1130.50 0.0436
1130.60 0.04359
1130.70 0.04357
1130.80 0.04356
1130.90 0.04354
1131.00 0.04353
1131.10 0.04351
1131.20 0.0435
1131.30 0.04348
1131.40 0.04347
1131.50 0.04345
1131.60 0.04344
1131.70 0.04342
1131.80 0.04341
1131.90 0.04339
1132.00 0.04338
1132.10 0.04336
1132.20 0.04335
1132.30 0.04333
1132.40 0.04332
1132.50 0.0433
1132.60 0.04329
1132.70 0.04327
1132.80 0.04326
1132.90 0.04324
1133.00 0.04323
1133.10 0.04321
1133.20 0.0432
1133.30 0.04318
1133.40 0.04317
1133.50 0.04315
1133.60 0.04314
1133.70 0.04313
1133.80 0.04311
1133.90 0.0431
1134.00 0.04308
1134.10 0.04307
1134.20 0.04305
1134.30 0.04304
1134.40 0.04302
1134.50 0.04301
1134.60 0.04299
1134.70 0.04298
1134.80 0.04296
1134.90 0.04295
1135.00 0.04293
1135.10 0.04292
1135.20 0.0429
1135.30 0.04289
1135.40 0.04288
1135.50 0.04286
1135.60 0.04285
1135.70 0.04283
1135.80 0.04282
1135.90 0.0428
1136.00 0.04279
1136.10 0.04277
1136.20 0.04276
1136.30 0.04274
1136.40 0.04273
1136.50 0.04271
1136.60 0.0427
1136.70 0.04268
1136.80 0.04267
1136.90 0.04266
1137.00 0.04264
1137.10 0.04263
1137.20 0.04261
1137.30 0.0426
1137.40 0.04258
1137.50 0.04257
1137.60 0.04255
1137.70 0.04254
1137.80 0.04252
1137.90 0.04251
1138.00 0.0425
1138.10 0.04248
1138.20 0.04247
1138.30 0.04245
1138.40 0.04244
1138.50 0.04242
1138.60 0.04241
1138.70 0.04239
1138.80 0.04238
1138.90 0.04237
1139.00 0.04235
1139.10 0.04234
1139.20 0.04232
1139.30 0.04231
1139.40 0.04229
1139.50 0.04228
1139.60 0.04226
1139.70 0.04225
1139.80 0.04224
1139.90 0.04222
1140.00 0.04221
1140.10 0.04219
1140.20 0.04218
1140.30 0.04216
1140.40 0.04215
1140.50 0.04214
1140.60 0.04212
1140.70 0.04211
1140.80 0.04209
1140.90 0.04208
1141.00 0.04206
1141.10 0.04205
1141.20 0.04203
1141.30 0.04202
1141.40 0.04201
1141.50 0.04199
1141.60 0.04198
1141.70 0.04196
1141.80 0.04195
1141.90 0.04193
1142.00 0.04192
1142.10 0.04191
1142.20 0.04189
1142.30 0.04188
1142.40 0.04186
1142.50 0.04185
1142.60 0.04183
1142.70 0.04182
1142.80 0.04181
1142.90 0.04179
1143.00 0.04178
1143.10 0.04176
1143.20 0.04175
1143.30 0.04174
1143.40 0.04172
1143.50 0.04171
1143.60 0.04169
1143.70 0.04168
1143.80 0.04166
1143.90 0.04165
1144.00 0.04164
1144.10 0.04162
1144.20 0.04161
1144.30 0.04159
1144.40 0.04158
1144.50 0.04157
1144.60 0.04155
1144.70 0.04154
1144.80 0.04152
1144.90 0.04151
1145.00 0.04149
1145.10 0.04148
1145.20 0.04147
1145.30 0.04145
1145.40 0.04144
1145.50 0.04142
1145.60 0.04141
1145.70 0.0414
1145.80 0.04138
1145.90 0.04137
1146.00 0.04135
1146.10 0.04134
1146.20 0.04133
1146.30 0.04131
1146.40 0.0413
1146.50 0.04128
1146.60 0.04127
1146.70 0.04126
1146.80 0.04124
1146.90 0.04123
1147.00 0.04121
1147.10 0.0412
1147.20 0.04119
1147.30 0.04117
1147.40 0.04116
1147.50 0.04114
1147.60 0.04113
1147.70 0.04112
1147.80 0.0411
1147.90 0.04109
1148.00 0.04107
1148.10 0.04106
1148.20 0.04105
1148.30 0.04103
1148.40 0.04102
1148.50 0.041
1148.60 0.04099
1148.70 0.04098
1148.80 0.04096
1148.90 0.04095
1149.00 0.04094
1149.10 0.04092
1149.20 0.04091
1149.30 0.04089
1149.40 0.04088
1149.50 0.04087
1149.60 0.04085
1149.70 0.04084
1149.80 0.04082
1149.90 0.04081
1150.00 0.0408
1150.10 0.04078
1150.20 0.04077
1150.30 0.04076
1150.40 0.04074
1150.50 0.04073
1150.60 0.04071
1150.70 0.0407
1150.80 0.04069
1150.90 0.04067
1151.00 0.04066
1151.10 0.04065
1151.20 0.04063
1151.30 0.04062
1151.40 0.0406
1151.50 0.04059
1151.60 0.04058
1151.70 0.04056
1151.80 0.04055
1151.90 0.04053
1152.00 0.04052
1152.10 0.04051
1152.20 0.04049
1152.30 0.04048
1152.40 0.04047
1152.50 0.04045
1152.60 0.04044
1152.70 0.04043
1152.80 0.04041
1152.90 0.0404
1153.00 0.04038
1153.10 0.04037
1153.20 0.04036
1153.30 0.04034
1153.40 0.04033
1153.50 0.04032
1153.60 0.0403
1153.70 0.04029
1153.80 0.04028
1153.90 0.04026
1154.00 0.04025
1154.10 0.04024
1154.20 0.04022
1154.30 0.04021
1154.40 0.04019
1154.50 0.04018
1154.60 0.04017
1154.70 0.04015
1154.80 0.04014
1154.90 0.04013
1155.00 0.04011
1155.10 0.0401
1155.20 0.04009
1155.30 0.04007
1155.40 0.04006
1155.50 0.04005
1155.60 0.04003
1155.70 0.04002
1155.80 0.04001
1155.90 0.03999
1156.00 0.03998
1156.10 0.03996
1156.20 0.03995
1156.30 0.03994
1156.40 0.03992
1156.50 0.03991
1156.60 0.0399
1156.70 0.03988
1156.80 0.03987
1156.90 0.03986
1157.00 0.03984
1157.10 0.03983
1157.20 0.03982
1157.30 0.0398
1157.40 0.03979
1157.50 0.03978
1157.60 0.03976
1157.70 0.03975
1157.80 0.03974
1157.90 0.03972
1158.00 0.03971
1158.10 0.0397
1158.20 0.03968
1158.30 0.03967
1158.40 0.03966
1158.50 0.03964
1158.60 0.03963
1158.70 0.03962
1158.80 0.0396
1158.90 0.03959
1159.00 0.03958
1159.10 0.03956
1159.20 0.03955
1159.30 0.03954
1159.40 0.03952
1159.50 0.03951
1159.60 0.0395
1159.70 0.03948
1159.80 0.03947
1159.90 0.03946
1160.00 0.03944
1160.10 0.03943
1160.20 0.03942
1160.30 0.0394
1160.40 0.03939
1160.50 0.03938
1160.60 0.03936
1160.70 0.03935
1160.80 0.03934
1160.90 0.03932
1161.00 0.03931
1161.10 0.0393
1161.20 0.03929
1161.30 0.03927
1161.40 0.03926
1161.50 0.03925
1161.60 0.03923
1161.70 0.03922
1161.80 0.03921
1161.90 0.03919
1162.00 0.03918
1162.10 0.03917
1162.20 0.03915
1162.30 0.03914
1162.40 0.03913
1162.50 0.03911
1162.60 0.0391
1162.70 0.03909
1162.80 0.03907
1162.90 0.03906
1163.00 0.03905
1163.10 0.03904
1163.20 0.03902
1163.30 0.03901
1163.40 0.039
1163.50 0.03898
1163.60 0.03897
1163.70 0.03896
1163.80 0.03894
1163.90 0.03893
1164.00 0.03892
1164.10 0.03891
1164.20 0.03889
1164.30 0.03888
1164.40 0.03887
1164.50 0.03885
1164.60 0.03884
1164.70 0.03883
1164.80 0.03881
1164.90 0.0388
1165.00 0.03879
1165.10 0.03878
1165.20 0.03876
1165.30 0.03875
1165.40 0.03874
1165.50 0.03872
1165.60 0.03871
1165.70 0.0387
1165.80 0.03868
1165.90 0.03867
1166.00 0.03866
1166.10 0.03865
1166.20 0.03863
1166.30 0.03862
1166.40 0.03861
1166.50 0.03859
1166.60 0.03858
1166.70 0.03857
1166.80 0.03855
1166.90 0.03854
1167.00 0.03853
1167.10 0.03852
1167.20 0.0385
1167.30 0.03849
1167.40 0.03848
1167.50 0.03847
1167.60 0.03845
1167.70 0.03844
1167.80 0.03843
1167.90 0.03841
1168.00 0.0384
1168.10 0.03839
1168.20 0.03838
1168.30 0.03836
1168.40 0.03835
1168.50 0.03834
1168.60 0.03832
1168.70 0.03831
1168.80 0.0383
1168.90 0.03829
1169.00 0.03827
1169.10 0.03826
1169.20 0.03825
1169.30 0.03824
1169.40 0.03822
1169.50 0.03821
1169.60 0.0382
1169.70 0.03818
1169.80 0.03817
1169.90 0.03816
1170.00 0.03815
1170.10 0.03813
1170.20 0.03812
1170.30 0.03811
1170.40 0.0381
1170.50 0.03808
1170.60 0.03807
1170.70 0.03806
1170.80 0.03804
1170.90 0.03803
1171.00 0.03802
1171.10 0.03801
1171.20 0.03799
1171.30 0.03798
1171.40 0.03797
1171.50 0.03796
1171.60 0.03794
1171.70 0.03793
1171.80 0.03792
1171.90 0.0379
1172.00 0.03789
1172.10 0.03788
1172.20 0.03787
1172.30 0.03785
1172.40 0.03784
1172.50 0.03783
1172.60 0.03782
1172.70 0.0378
1172.80 0.03779
1172.90 0.03778
1173.00 0.03777
1173.10 0.03775
1173.20 0.03774
1173.30 0.03773
1173.40 0.03772
1173.50 0.0377
1173.60 0.03769
1173.70 0.03768
1173.80 0.03767
1173.90 0.03765
1174.00 0.03764
1174.10 0.03763
1174.20 0.03762
1174.30 0.0376
1174.40 0.03759
1174.50 0.03758
1174.60 0.03757
1174.70 0.03755
1174.80 0.03754
1174.90 0.03753
1175.00 0.03752
1175.10 0.0375
1175.20 0.03749
1175.30 0.03748
1175.40 0.03747
1175.50 0.03745
1175.60 0.03744
1175.70 0.03743
1175.80 0.03742
1175.90 0.0374
1176.00 0.03739
1176.10 0.03738
1176.20 0.03737
1176.30 0.03736
1176.40 0.03734
1176.50 0.03733
1176.60 0.03732
1176.70 0.03731
1176.80 0.03729
1176.90 0.03728
1177.00 0.03727
1177.10 0.03726
1177.20 0.03724
1177.30 0.03723
1177.40 0.03722
1177.50 0.03721
1177.60 0.03719
1177.70 0.03718
1177.80 0.03717
1177.90 0.03716
1178.00 0.03715
1178.10 0.03713
1178.20 0.03712
1178.30 0.03711
1178.40 0.0371
1178.50 0.03708
1178.60 0.03707
1178.70 0.03706
1178.80 0.03705
1178.90 0.03704
1179.00 0.03702
1179.10 0.03701
1179.20 0.037
1179.30 0.03699
1179.40 0.03697
1179.50 0.03696
1179.60 0.03695
1179.70 0.03694
1179.80 0.03693
1179.90 0.03691
1180.00 0.0369
1180.10 0.03689
1180.20 0.03688
1180.30 0.03686
1180.40 0.03685
1180.50 0.03684
1180.60 0.03683
1180.70 0.03682
1180.80 0.0368
1180.90 0.03679
1181.00 0.03678
1181.10 0.03677
1181.20 0.03675
1181.30 0.03674
1181.40 0.03673
1181.50 0.03672
1181.60 0.03671
1181.70 0.03669
1181.80 0.03668
1181.90 0.03667
1182.00 0.03666
1182.10 0.03665
1182.20 0.03663
1182.30 0.03662
1182.40 0.03661
1182.50 0.0366
1182.60 0.03658
1182.70 0.03657
1182.80 0.03656
1182.90 0.03655
1183.00 0.03654
1183.10 0.03652
1183.20 0.03651
1183.30 0.0365
1183.40 0.03649
1183.50 0.03648
1183.60 0.03646
1183.70 0.03645
1183.80 0.03644
1183.90 0.03643
1184.00 0.03642
1184.10 0.0364
1184.20 0.03639
1184.30 0.03638
1184.40 0.03637
1184.50 0.03636
1184.60 0.03634
1184.70 0.03633
1184.80 0.03632
1184.90 0.03631
1185.00 0.0363
1185.10 0.03629
1185.20 0.03627
1185.30 0.03626
1185.40 0.03625
1185.50 0.03624
1185.60 0.03623
1185.70 0.03621
1185.80 0.0362
1185.90 0.03619
1186.00 0.03618
1186.10 0.03617
1186.20 0.03615
1186.30 0.03614
1186.40 0.03613
1186.50 0.03612
1186.60 0.03611
1186.70 0.03609
1186.80 0.03608
1186.90 0.03607
1187.00 0.03606
1187.10 0.03605
1187.20 0.03604
1187.30 0.03602
1187.40 0.03601
1187.50 0.036
1187.60 0.03599
1187.70 0.03598
1187.80 0.03596
1187.90 0.03595
1188.00 0.03594
1188.10 0.03593
1188.20 0.03592
1188.30 0.03591
1188.40 0.03589
1188.50 0.03588
1188.60 0.03587
1188.70 0.03586
1188.80 0.03585
1188.90 0.03583
1189.00 0.03582
1189.10 0.03581
1189.20 0.0358
1189.30 0.03579
1189.40 0.03578
1189.50 0.03576
1189.60 0.03575
1189.70 0.03574
1189.80 0.03573
1189.90 0.03572
1190.00 0.03571
1190.10 0.03569
1190.20 0.03568
1190.30 0.03567
1190.40 0.03566
1190.50 0.03565
1190.60 0.03564
1190.70 0.03562
1190.80 0.03561
1190.90 0.0356
1191.00 0.03559
1191.10 0.03558
1191.20 0.03557
1191.30 0.03555
1191.40 0.03554
1191.50 0.03553
1191.60 0.03552
1191.70 0.03551
1191.80 0.0355
1191.90 0.03548
1192.00 0.03547
1192.10 0.03546
1192.20 0.03545
1192.30 0.03544
1192.40 0.03543
1192.50 0.03541
1192.60 0.0354
1192.70 0.03539
1192.80 0.03538
1192.90 0.03537
1193.00 0.03536
1193.10 0.03535
1193.20 0.03533
1193.30 0.03532
1193.40 0.03531
1193.50 0.0353
1193.60 0.03529
1193.70 0.03528
1193.80 0.03526
1193.90 0.03525
1194.00 0.03524
1194.10 0.03523
1194.20 0.03522
1194.30 0.03521
1194.40 0.0352
1194.50 0.03518
1194.60 0.03517
1194.70 0.03516
1194.80 0.03515
1194.90 0.03514
1195.00 0.03513
1195.10 0.03512
1195.20 0.0351
1195.30 0.03509
1195.40 0.03508
1195.50 0.03507
1195.60 0.03506
1195.70 0.03505
1195.80 0.03503
1195.90 0.03502
1196.00 0.03501
1196.10 0.035
1196.20 0.03499
1196.30 0.03498
1196.40 0.03497
1196.50 0.03495
1196.60 0.03494
1196.70 0.03493
1196.80 0.03492
1196.90 0.03491
1197.00 0.0349
1197.10 0.03489
1197.20 0.03488
1197.30 0.03486
1197.40 0.03485
1197.50 0.03484
1197.60 0.03483
1197.70 0.03482
1197.80 0.03481
1197.90 0.0348
1198.00 0.03478
1198.10 0.03477
1198.20 0.03476
1198.30 0.03475
1198.40 0.03474
1198.50 0.03473
1198.60 0.03472
1198.70 0.03471
1198.80 0.03469
1198.90 0.03468
1199.00 0.03467
1199.10 0.03466
1199.20 0.03465
1199.30 0.03464
1199.40 0.03463
1199.50 0.03462
1199.60 0.0346
1199.70 0.03459
1199.80 0.03458
1199.90 0.03457
1200.00 0
