# Version 2.1 - nm, norm@500 to 1, cut digits, bergeron_130000_75.dat_130000
# Wavelength(nm)  Flambda(ergs/cm^s/s/nm)
300.00 7.001
300.10 6.992
300.20 6.983
300.30 6.974
300.40 6.965
300.50 6.957
300.60 6.948
300.70 6.939
300.80 6.93
300.90 6.921
301.00 6.913
301.10 6.904
301.20 6.895
301.30 6.887
301.40 6.878
301.50 6.869
301.60 6.86
301.70 6.852
301.80 6.843
301.90 6.835
302.00 6.826
302.10 6.817
302.20 6.809
302.30 6.8
302.40 6.792
302.50 6.783
302.60 6.774
302.70 6.766
302.80 6.757
302.90 6.749
303.00 6.74
303.10 6.732
303.20 6.724
303.30 6.715
303.40 6.707
303.50 6.698
303.60 6.69
303.70 6.681
303.80 6.673
303.90 6.665
304.00 6.656
304.10 6.648
304.20 6.64
304.30 6.631
304.40 6.623
304.50 6.615
304.60 6.607
304.70 6.598
304.80 6.59
304.90 6.582
305.00 6.574
305.10 6.565
305.20 6.557
305.30 6.549
305.40 6.541
305.50 6.533
305.60 6.525
305.70 6.516
305.80 6.508
305.90 6.5
306.00 6.492
306.10 6.484
306.20 6.476
306.30 6.468
306.40 6.46
306.50 6.452
306.60 6.444
306.70 6.436
306.80 6.428
306.90 6.42
307.00 6.412
307.10 6.404
307.20 6.396
307.30 6.388
307.40 6.38
307.50 6.372
307.60 6.364
307.70 6.356
307.80 6.349
307.90 6.341
308.00 6.333
308.10 6.325
308.20 6.317
308.30 6.309
308.40 6.302
308.50 6.294
308.60 6.286
308.70 6.278
308.80 6.271
308.90 6.263
309.00 6.255
309.10 6.247
309.20 6.24
309.30 6.232
309.40 6.224
309.50 6.217
309.60 6.209
309.70 6.201
309.80 6.194
309.90 6.186
310.00 6.178
310.10 6.171
310.20 6.163
310.30 6.156
310.40 6.148
310.50 6.141
310.60 6.133
310.70 6.126
310.80 6.118
310.90 6.111
311.00 6.103
311.10 6.096
311.20 6.088
311.30 6.081
311.40 6.073
311.50 6.066
311.60 6.058
311.70 6.051
311.80 6.044
311.90 6.036
312.00 6.029
312.10 6.021
312.20 6.014
312.30 6.007
312.40 5.999
312.50 5.992
312.60 5.985
312.70 5.977
312.80 5.97
312.90 5.963
313.00 5.956
313.10 5.948
313.20 5.941
313.30 5.934
313.40 5.927
313.50 5.919
313.60 5.912
313.70 5.905
313.80 5.898
313.90 5.891
314.00 5.884
314.10 5.876
314.20 5.869
314.30 5.862
314.40 5.855
314.50 5.848
314.60 5.841
314.70 5.834
314.80 5.827
314.90 5.82
315.00 5.813
315.10 5.806
315.20 5.799
315.30 5.792
315.40 5.785
315.50 5.778
315.60 5.771
315.70 5.764
315.80 5.757
315.90 5.75
316.00 5.743
316.10 5.736
316.20 5.729
316.30 5.722
316.40 5.715
316.50 5.708
316.60 5.701
316.70 5.694
316.80 5.688
316.90 5.681
317.00 5.674
317.10 5.667
317.20 5.66
317.30 5.654
317.40 5.647
317.50 5.64
317.60 5.633
317.70 5.626
317.80 5.62
317.90 5.613
318.00 5.606
318.10 5.599
318.20 5.593
318.30 5.586
318.40 5.579
318.50 5.573
318.60 5.566
318.70 5.559
318.80 5.553
318.90 5.546
319.00 5.539
319.10 5.533
319.20 5.526
319.30 5.52
319.40 5.513
319.50 5.506
319.60 5.5
319.70 5.493
319.80 5.487
319.90 5.48
320.00 5.474
320.10 5.467
320.20 5.461
320.30 5.454
320.40 5.448
320.50 5.441
320.60 5.435
320.70 5.428
320.80 5.422
320.90 5.415
321.00 5.409
321.10 5.402
321.20 5.396
321.30 5.39
321.40 5.383
321.50 5.377
321.60 5.37
321.70 5.364
321.80 5.358
321.90 5.351
322.00 5.345
322.10 5.339
322.20 5.332
322.30 5.326
322.40 5.32
322.50 5.313
322.60 5.307
322.70 5.301
322.80 5.295
322.90 5.288
323.00 5.282
323.10 5.276
323.20 5.27
323.30 5.263
323.40 5.257
323.50 5.251
323.60 5.245
323.70 5.239
323.80 5.232
323.90 5.226
324.00 5.22
324.10 5.214
324.20 5.208
324.30 5.202
324.40 5.196
324.50 5.189
324.60 5.183
324.70 5.177
324.80 5.171
324.90 5.165
325.00 5.159
325.10 5.153
325.20 5.147
325.30 5.141
325.40 5.135
325.50 5.129
325.60 5.123
325.70 5.117
325.80 5.111
325.90 5.105
326.00 5.099
326.10 5.093
326.20 5.087
326.30 5.081
326.40 5.075
326.50 5.069
326.60 5.063
326.70 5.057
326.80 5.051
326.90 5.045
327.00 5.039
327.10 5.034
327.20 5.028
327.30 5.022
327.40 5.016
327.50 5.01
327.60 5.004
327.70 4.999
327.80 4.993
327.90 4.987
328.00 4.981
328.10 4.975
328.20 4.969
328.30 4.964
328.40 4.958
328.50 4.952
328.60 4.946
328.70 4.941
328.80 4.935
328.90 4.929
329.00 4.923
329.10 4.918
329.20 4.912
329.30 4.906
329.40 4.901
329.50 4.895
329.60 4.889
329.70 4.884
329.80 4.878
329.90 4.872
330.00 4.867
330.10 4.861
330.20 4.855
330.30 4.85
330.40 4.844
330.50 4.839
330.60 4.833
330.70 4.828
330.80 4.822
330.90 4.816
331.00 4.811
331.10 4.805
331.20 4.8
331.30 4.794
331.40 4.789
331.50 4.783
331.60 4.778
331.70 4.772
331.80 4.767
331.90 4.761
332.00 4.756
332.10 4.75
332.20 4.745
332.30 4.739
332.40 4.734
332.50 4.728
332.60 4.723
332.70 4.718
332.80 4.712
332.90 4.707
333.00 4.701
333.10 4.696
333.20 4.691
333.30 4.685
333.40 4.68
333.50 4.674
333.60 4.669
333.70 4.664
333.80 4.658
333.90 4.653
334.00 4.648
334.10 4.642
334.20 4.637
334.30 4.632
334.40 4.627
334.50 4.621
334.60 4.616
334.70 4.611
334.80 4.605
334.90 4.6
335.00 4.595
335.10 4.59
335.20 4.585
335.30 4.579
335.40 4.574
335.50 4.569
335.60 4.564
335.70 4.558
335.80 4.553
335.90 4.548
336.00 4.543
336.10 4.538
336.20 4.533
336.30 4.527
336.40 4.522
336.50 4.517
336.60 4.512
336.70 4.507
336.80 4.502
336.90 4.497
337.00 4.492
337.10 4.487
337.20 4.481
337.30 4.476
337.40 4.471
337.50 4.466
337.60 4.461
337.70 4.456
337.80 4.451
337.90 4.446
338.00 4.441
338.10 4.436
338.20 4.431
338.30 4.426
338.40 4.421
338.50 4.416
338.60 4.411
338.70 4.406
338.80 4.401
338.90 4.396
339.00 4.391
339.10 4.386
339.20 4.381
339.30 4.376
339.40 4.371
339.50 4.366
339.60 4.361
339.70 4.357
339.80 4.352
339.90 4.347
340.00 4.342
340.10 4.337
340.20 4.332
340.30 4.327
340.40 4.322
340.50 4.318
340.60 4.313
340.70 4.308
340.80 4.303
340.90 4.298
341.00 4.293
341.10 4.289
341.20 4.284
341.30 4.279
341.40 4.274
341.50 4.269
341.60 4.265
341.70 4.26
341.80 4.255
341.90 4.25
342.00 4.246
342.10 4.241
342.20 4.236
342.30 4.231
342.40 4.227
342.50 4.222
342.60 4.217
342.70 4.213
342.80 4.208
342.90 4.203
343.00 4.198
343.10 4.194
343.20 4.189
343.30 4.184
343.40 4.18
343.50 4.175
343.60 4.17
343.70 4.166
343.80 4.161
343.90 4.156
344.00 4.152
344.10 4.147
344.20 4.143
344.30 4.138
344.40 4.133
344.50 4.129
344.60 4.124
344.70 4.12
344.80 4.115
344.90 4.111
345.00 4.106
345.10 4.102
345.20 4.097
345.30 4.092
345.40 4.088
345.50 4.083
345.60 4.079
345.70 4.074
345.80 4.07
345.90 4.065
346.00 4.061
346.10 4.056
346.20 4.052
346.30 4.047
346.40 4.043
346.50 4.038
346.60 4.034
346.70 4.03
346.80 4.025
346.90 4.021
347.00 4.016
347.10 4.012
347.20 4.007
347.30 4.003
347.40 3.999
347.50 3.994
347.60 3.99
347.70 3.985
347.80 3.981
347.90 3.977
348.00 3.972
348.10 3.968
348.20 3.964
348.30 3.959
348.40 3.955
348.50 3.951
348.60 3.946
348.70 3.942
348.80 3.938
348.90 3.933
349.00 3.929
349.10 3.925
349.20 3.92
349.30 3.916
349.40 3.912
349.50 3.907
349.60 3.903
349.70 3.899
349.80 3.895
349.90 3.89
350.00 3.886
350.10 3.882
350.20 3.878
350.30 3.873
350.40 3.869
350.50 3.865
350.60 3.861
350.70 3.856
350.80 3.852
350.90 3.848
351.00 3.844
351.10 3.84
351.20 3.836
351.30 3.831
351.40 3.827
351.50 3.823
351.60 3.819
351.70 3.815
351.80 3.81
351.90 3.806
352.00 3.802
352.10 3.798
352.20 3.794
352.30 3.79
352.40 3.786
352.50 3.782
352.60 3.778
352.70 3.773
352.80 3.769
352.90 3.765
353.00 3.761
353.10 3.757
353.20 3.753
353.30 3.749
353.40 3.745
353.50 3.741
353.60 3.737
353.70 3.733
353.80 3.729
353.90 3.725
354.00 3.721
354.10 3.717
354.20 3.713
354.30 3.709
354.40 3.705
354.50 3.701
354.60 3.697
354.70 3.693
354.80 3.689
354.90 3.685
355.00 3.681
355.10 3.677
355.20 3.673
355.30 3.669
355.40 3.665
355.50 3.661
355.60 3.657
355.70 3.653
355.80 3.649
355.90 3.645
356.00 3.641
356.10 3.637
356.20 3.633
356.30 3.629
356.40 3.626
356.50 3.622
356.60 3.618
356.70 3.614
356.80 3.61
356.90 3.606
357.00 3.602
357.10 3.598
357.20 3.595
357.30 3.591
357.40 3.587
357.50 3.583
357.60 3.579
357.70 3.575
357.80 3.572
357.90 3.568
358.00 3.564
358.10 3.56
358.20 3.556
358.30 3.552
358.40 3.549
358.50 3.545
358.60 3.541
358.70 3.537
358.80 3.534
358.90 3.53
359.00 3.526
359.10 3.522
359.20 3.519
359.30 3.515
359.40 3.511
359.50 3.507
359.60 3.504
359.70 3.5
359.80 3.496
359.90 3.492
360.00 3.489
360.10 3.485
360.20 3.481
360.30 3.478
360.40 3.474
360.50 3.47
360.60 3.466
360.70 3.463
360.80 3.459
360.90 3.455
361.00 3.452
361.10 3.448
361.20 3.444
361.30 3.441
361.40 3.437
361.50 3.434
361.60 3.43
361.70 3.426
361.80 3.423
361.90 3.419
362.00 3.415
362.10 3.412
362.20 3.408
362.30 3.405
362.40 3.401
362.50 3.397
362.60 3.394
362.70 3.39
362.80 3.387
362.90 3.383
363.00 3.379
363.10 3.376
363.20 3.372
363.30 3.369
363.40 3.365
363.50 3.362
363.60 3.358
363.70 3.355
363.80 3.351
363.90 3.348
364.00 3.344
364.10 3.341
364.20 3.337
364.30 3.333
364.40 3.33
364.50 3.326
364.60 3.323
364.70 3.319
364.80 3.316
364.90 3.313
365.00 3.309
365.10 3.306
365.20 3.302
365.30 3.299
365.40 3.295
365.50 3.292
365.60 3.288
365.70 3.285
365.80 3.281
365.90 3.278
366.00 3.275
366.10 3.271
366.20 3.268
366.30 3.264
366.40 3.261
366.50 3.257
366.60 3.254
366.70 3.25
366.80 3.247
366.90 3.244
367.00 3.24
367.10 3.237
367.20 3.233
367.30 3.23
367.40 3.227
367.50 3.223
367.60 3.22
367.70 3.216
367.80 3.213
367.90 3.21
368.00 3.206
368.10 3.203
368.20 3.199
368.30 3.196
368.40 3.193
368.50 3.189
368.60 3.186
368.70 3.183
368.80 3.179
368.90 3.176
369.00 3.173
369.10 3.169
369.20 3.166
369.30 3.163
369.40 3.159
369.50 3.156
369.60 3.153
369.70 3.149
369.80 3.146
369.90 3.143
370.00 3.139
370.10 3.136
370.20 3.133
370.30 3.13
370.40 3.126
370.50 3.123
370.60 3.12
370.70 3.117
370.80 3.113
370.90 3.11
371.00 3.107
371.10 3.104
371.20 3.1
371.30 3.097
371.40 3.094
371.50 3.091
371.60 3.087
371.70 3.084
371.80 3.081
371.90 3.078
372.00 3.075
372.10 3.071
372.20 3.068
372.30 3.065
372.40 3.062
372.50 3.059
372.60 3.056
372.70 3.052
372.80 3.049
372.90 3.046
373.00 3.043
373.10 3.04
373.20 3.037
373.30 3.034
373.40 3.03
373.50 3.027
373.60 3.024
373.70 3.021
373.80 3.018
373.90 3.015
374.00 3.012
374.10 3.009
374.20 3.005
374.30 3.002
374.40 2.999
374.50 2.996
374.60 2.993
374.70 2.99
374.80 2.987
374.90 2.984
375.00 2.981
375.10 2.978
375.20 2.975
375.30 2.972
375.40 2.969
375.50 2.965
375.60 2.962
375.70 2.959
375.80 2.956
375.90 2.953
376.00 2.95
376.10 2.947
376.20 2.944
376.30 2.941
376.40 2.938
376.50 2.935
376.60 2.932
376.70 2.929
376.80 2.926
376.90 2.923
377.00 2.92
377.10 2.917
377.20 2.915
377.30 2.912
377.40 2.909
377.50 2.906
377.60 2.903
377.70 2.9
377.80 2.897
377.90 2.894
378.00 2.891
378.10 2.888
378.20 2.885
378.30 2.882
378.40 2.879
378.50 2.877
378.60 2.874
378.70 2.871
378.80 2.868
378.90 2.865
379.00 2.862
379.10 2.859
379.20 2.856
379.30 2.854
379.40 2.851
379.50 2.848
379.60 2.845
379.70 2.842
379.80 2.839
379.90 2.837
380.00 2.834
380.10 2.831
380.20 2.828
380.30 2.826
380.40 2.823
380.50 2.82
380.60 2.817
380.70 2.815
380.80 2.812
380.90 2.809
381.00 2.806
381.10 2.804
381.20 2.801
381.30 2.798
381.40 2.795
381.50 2.793
381.60 2.79
381.70 2.787
381.80 2.784
381.90 2.781
382.00 2.779
382.10 2.776
382.20 2.773
382.30 2.77
382.40 2.767
382.50 2.764
382.60 2.762
382.70 2.759
382.80 2.756
382.90 2.753
383.00 2.75
383.10 2.747
383.20 2.745
383.30 2.742
383.40 2.739
383.50 2.736
383.60 2.734
383.70 2.731
383.80 2.729
383.90 2.726
384.00 2.724
384.10 2.721
384.20 2.719
384.30 2.717
384.40 2.714
384.50 2.712
384.60 2.71
384.70 2.707
384.80 2.705
384.90 2.702
385.00 2.7
385.10 2.697
385.20 2.695
385.30 2.692
385.40 2.69
385.50 2.687
385.60 2.685
385.70 2.682
385.80 2.679
385.90 2.677
386.00 2.674
386.10 2.671
386.20 2.668
386.30 2.666
386.40 2.663
386.50 2.66
386.60 2.657
386.70 2.654
386.80 2.651
386.90 2.649
387.00 2.646
387.10 2.643
387.20 2.64
387.30 2.637
387.40 2.634
387.50 2.63
387.60 2.627
387.70 2.624
387.80 2.621
387.90 2.618
388.00 2.615
388.10 2.612
388.20 2.608
388.30 2.605
388.40 2.602
388.50 2.599
388.60 2.596
388.70 2.593
388.80 2.591
388.90 2.589
389.00 2.586
389.10 2.584
389.20 2.582
389.30 2.58
389.40 2.578
389.50 2.576
389.60 2.575
389.70 2.573
389.80 2.571
389.90 2.57
390.00 2.568
390.10 2.566
390.20 2.565
390.30 2.563
390.40 2.561
390.50 2.559
390.60 2.558
390.70 2.556
390.80 2.554
390.90 2.552
391.00 2.55
391.10 2.548
391.20 2.546
391.30 2.544
391.40 2.542
391.50 2.54
391.60 2.538
391.70 2.536
391.80 2.534
391.90 2.531
392.00 2.529
392.10 2.527
392.20 2.524
392.30 2.522
392.40 2.52
392.50 2.517
392.60 2.515
392.70 2.512
392.80 2.51
392.90 2.507
393.00 2.504
393.10 2.502
393.20 2.499
393.30 2.496
393.40 2.494
393.50 2.491
393.60 2.488
393.70 2.485
393.80 2.482
393.90 2.479
394.00 2.476
394.10 2.473
394.20 2.47
394.30 2.467
394.40 2.463
394.50 2.46
394.60 2.457
394.70 2.453
394.80 2.45
394.90 2.446
395.00 2.443
395.10 2.439
395.20 2.435
395.30 2.432
395.40 2.428
395.50 2.424
395.60 2.42
395.70 2.416
395.80 2.412
395.90 2.408
396.00 2.404
396.10 2.4
396.20 2.395
396.30 2.391
396.40 2.387
396.50 2.383
396.60 2.378
396.70 2.374
396.80 2.37
396.90 2.366
397.00 2.362
397.10 2.361
397.20 2.361
397.30 2.361
397.40 2.36
397.50 2.36
397.60 2.36
397.70 2.36
397.80 2.36
397.90 2.36
398.00 2.359
398.10 2.359
398.20 2.359
398.30 2.358
398.40 2.358
398.50 2.357
398.60 2.357
398.70 2.356
398.80 2.355
398.90 2.355
399.00 2.354
399.10 2.353
399.20 2.352
399.30 2.351
399.40 2.35
399.50 2.349
399.60 2.348
399.70 2.347
399.80 2.345
399.90 2.344
400.00 2.343
400.10 2.341
400.20 2.34
400.30 2.339
400.40 2.337
400.50 2.336
400.60 2.334
400.70 2.333
400.80 2.331
400.90 2.329
401.00 2.328
401.10 2.326
401.20 2.324
401.30 2.322
401.40 2.321
401.50 2.319
401.60 2.317
401.70 2.315
401.80 2.313
401.90 2.311
402.00 2.309
402.10 2.307
402.20 2.305
402.30 2.303
402.40 2.301
402.50 2.299
402.60 2.297
402.70 2.295
402.80 2.293
402.90 2.291
403.00 2.289
403.10 2.287
403.20 2.285
403.30 2.283
403.40 2.281
403.50 2.278
403.60 2.276
403.70 2.274
403.80 2.272
403.90 2.269
404.00 2.267
404.10 2.265
404.20 2.263
404.30 2.26
404.40 2.258
404.50 2.256
404.60 2.253
404.70 2.251
404.80 2.248
404.90 2.246
405.00 2.243
405.10 2.241
405.20 2.238
405.30 2.236
405.40 2.233
405.50 2.231
405.60 2.228
405.70 2.225
405.80 2.223
405.90 2.22
406.00 2.217
406.10 2.214
406.20 2.212
406.30 2.209
406.40 2.206
406.50 2.203
406.60 2.2
406.70 2.197
406.80 2.193
406.90 2.19
407.00 2.187
407.10 2.184
407.20 2.18
407.30 2.177
407.40 2.173
407.50 2.169
407.60 2.166
407.70 2.162
407.80 2.158
407.90 2.154
408.00 2.15
408.10 2.146
408.20 2.141
408.30 2.137
408.40 2.132
408.50 2.127
408.60 2.123
408.70 2.118
408.80 2.113
408.90 2.107
409.00 2.102
409.10 2.096
409.20 2.091
409.30 2.085
409.40 2.079
409.50 2.073
409.60 2.067
409.70 2.061
409.80 2.056
409.90 2.05
410.00 2.048
410.10 2.047
410.20 2.047
410.30 2.043
410.40 2.041
410.50 2.041
410.60 2.043
410.70 2.045
410.80 2.047
410.90 2.049
411.00 2.051
411.10 2.053
411.20 2.055
411.30 2.057
411.40 2.058
411.50 2.059
411.60 2.061
411.70 2.062
411.80 2.063
411.90 2.064
412.00 2.064
412.10 2.065
412.20 2.065
412.30 2.066
412.40 2.066
412.50 2.066
412.60 2.066
412.70 2.066
412.80 2.065
412.90 2.065
413.00 2.065
413.10 2.064
413.20 2.064
413.30 2.063
413.40 2.062
413.50 2.062
413.60 2.061
413.70 2.06
413.80 2.059
413.90 2.058
414.00 2.057
414.10 2.056
414.20 2.055
414.30 2.054
414.40 2.053
414.50 2.051
414.60 2.05
414.70 2.049
414.80 2.047
414.90 2.046
415.00 2.045
415.10 2.043
415.20 2.042
415.30 2.04
415.40 2.039
415.50 2.037
415.60 2.036
415.70 2.034
415.80 2.033
415.90 2.031
416.00 2.03
416.10 2.028
416.20 2.026
416.30 2.025
416.40 2.023
416.50 2.022
416.60 2.02
416.70 2.018
416.80 2.017
416.90 2.015
417.00 2.013
417.10 2.012
417.20 2.01
417.30 2.008
417.40 2.006
417.50 2.005
417.60 2.003
417.70 2.001
417.80 2
417.90 1.998
418.00 1.996
418.10 1.994
418.20 1.993
418.30 1.991
418.40 1.989
418.50 1.988
418.60 1.986
418.70 1.984
418.80 1.982
418.90 1.981
419.00 1.979
419.10 1.977
419.20 1.975
419.30 1.974
419.40 1.972
419.50 1.97
419.60 1.968
419.70 1.966
419.80 1.965
419.90 1.963
420.00 1.961
420.10 1.959
420.20 1.958
420.30 1.956
420.40 1.954
420.50 1.952
420.60 1.951
420.70 1.949
420.80 1.947
420.90 1.945
421.00 1.944
421.10 1.942
421.20 1.94
421.30 1.938
421.40 1.937
421.50 1.935
421.60 1.933
421.70 1.931
421.80 1.929
421.90 1.928
422.00 1.926
422.10 1.924
422.20 1.922
422.30 1.921
422.40 1.919
422.50 1.917
422.60 1.915
422.70 1.914
422.80 1.912
422.90 1.91
423.00 1.908
423.10 1.907
423.20 1.905
423.30 1.903
423.40 1.901
423.50 1.9
423.60 1.898
423.70 1.896
423.80 1.894
423.90 1.893
424.00 1.891
424.10 1.889
424.20 1.887
424.30 1.886
424.40 1.884
424.50 1.882
424.60 1.88
424.70 1.878
424.80 1.877
424.90 1.875
425.00 1.873
425.10 1.871
425.20 1.87
425.30 1.868
425.40 1.866
425.50 1.864
425.60 1.863
425.70 1.861
425.80 1.859
425.90 1.857
426.00 1.855
426.10 1.854
426.20 1.852
426.30 1.85
426.40 1.848
426.50 1.847
426.60 1.845
426.70 1.843
426.80 1.841
426.90 1.839
427.00 1.838
427.10 1.836
427.20 1.834
427.30 1.832
427.40 1.83
427.50 1.828
427.60 1.826
427.70 1.825
427.80 1.823
427.90 1.821
428.00 1.819
428.10 1.817
428.20 1.815
428.30 1.813
428.40 1.811
428.50 1.809
428.60 1.807
428.70 1.805
428.80 1.803
428.90 1.801
429.00 1.799
429.10 1.797
429.20 1.795
429.30 1.793
429.40 1.791
429.50 1.789
429.60 1.787
429.70 1.784
429.80 1.782
429.90 1.78
430.00 1.777
430.10 1.775
430.20 1.773
430.30 1.77
430.40 1.768
430.50 1.765
430.60 1.762
430.70 1.76
430.80 1.757
430.90 1.754
431.00 1.751
431.10 1.748
431.20 1.745
431.30 1.742
431.40 1.738
431.50 1.735
431.60 1.731
431.70 1.728
431.80 1.724
431.90 1.72
432.00 1.716
432.10 1.711
432.20 1.707
432.30 1.702
432.40 1.698
432.50 1.693
432.60 1.688
432.70 1.682
432.80 1.677
432.90 1.671
433.00 1.665
433.10 1.659
433.20 1.653
433.30 1.647
433.40 1.64
433.50 1.633
433.60 1.627
433.70 1.62
433.80 1.613
433.90 1.605
434.00 1.598
434.10 1.597
434.20 1.602
434.30 1.606
434.40 1.61
434.50 1.614
434.60 1.618
434.70 1.622
434.80 1.626
434.90 1.629
435.00 1.632
435.10 1.636
435.20 1.638
435.30 1.641
435.40 1.644
435.50 1.646
435.60 1.648
435.70 1.65
435.80 1.652
435.90 1.653
436.00 1.655
436.10 1.656
436.20 1.657
436.30 1.658
436.40 1.658
436.50 1.659
436.60 1.659
436.70 1.66
436.80 1.66
436.90 1.66
437.00 1.66
437.10 1.66
437.20 1.66
437.30 1.66
437.40 1.659
437.50 1.659
437.60 1.658
437.70 1.658
437.80 1.657
437.90 1.657
438.00 1.656
438.10 1.655
438.20 1.654
438.30 1.654
438.40 1.653
438.50 1.652
438.60 1.651
438.70 1.65
438.80 1.649
438.90 1.648
439.00 1.647
439.10 1.646
439.20 1.645
439.30 1.644
439.40 1.643
439.50 1.641
439.60 1.64
439.70 1.639
439.80 1.638
439.90 1.637
440.00 1.636
440.10 1.634
440.20 1.633
440.30 1.632
440.40 1.631
440.50 1.629
440.60 1.628
440.70 1.627
440.80 1.626
440.90 1.624
441.00 1.623
441.10 1.622
441.20 1.621
441.30 1.619
441.40 1.618
441.50 1.617
441.60 1.615
441.70 1.614
441.80 1.613
441.90 1.611
442.00 1.61
442.10 1.609
442.20 1.607
442.30 1.606
442.40 1.605
442.50 1.603
442.60 1.602
442.70 1.601
442.80 1.599
442.90 1.598
443.00 1.597
443.10 1.595
443.20 1.594
443.30 1.593
443.40 1.591
443.50 1.59
443.60 1.589
443.70 1.587
443.80 1.586
443.90 1.585
444.00 1.583
444.10 1.582
444.20 1.581
444.30 1.579
444.40 1.578
444.50 1.577
444.60 1.575
444.70 1.574
444.80 1.573
444.90 1.571
445.00 1.57
445.10 1.569
445.20 1.567
445.30 1.566
445.40 1.565
445.50 1.563
445.60 1.562
445.70 1.561
445.80 1.559
445.90 1.558
446.00 1.557
446.10 1.555
446.20 1.554
446.30 1.553
446.40 1.551
446.50 1.55
446.60 1.549
446.70 1.547
446.80 1.546
446.90 1.545
447.00 1.543
447.10 1.542
447.20 1.541
447.30 1.54
447.40 1.538
447.50 1.537
447.60 1.536
447.70 1.534
447.80 1.533
447.90 1.532
448.00 1.53
448.10 1.529
448.20 1.528
448.30 1.526
448.40 1.525
448.50 1.524
448.60 1.522
448.70 1.521
448.80 1.52
448.90 1.519
449.00 1.517
449.10 1.516
449.20 1.515
449.30 1.513
449.40 1.512
449.50 1.511
449.60 1.509
449.70 1.508
449.80 1.507
449.90 1.506
450.00 1.504
450.10 1.503
450.20 1.502
450.30 1.5
450.40 1.499
450.50 1.498
450.60 1.497
450.70 1.495
450.80 1.494
450.90 1.493
451.00 1.492
451.10 1.49
451.20 1.489
451.30 1.488
451.40 1.486
451.50 1.485
451.60 1.484
451.70 1.483
451.80 1.481
451.90 1.48
452.00 1.479
452.10 1.478
452.20 1.476
452.30 1.475
452.40 1.474
452.50 1.473
452.60 1.471
452.70 1.47
452.80 1.469
452.90 1.468
453.00 1.466
453.10 1.465
453.20 1.464
453.30 1.463
453.40 1.461
453.50 1.46
453.60 1.459
453.70 1.458
453.80 1.456
453.90 1.455
454.00 1.454
454.10 1.453
454.20 1.451
454.30 1.45
454.40 1.449
454.50 1.448
454.60 1.446
454.70 1.445
454.80 1.444
454.90 1.443
455.00 1.442
455.10 1.44
455.20 1.439
455.30 1.438
455.40 1.437
455.50 1.435
455.60 1.434
455.70 1.433
455.80 1.432
455.90 1.431
456.00 1.429
456.10 1.428
456.20 1.427
456.30 1.426
456.40 1.424
456.50 1.423
456.60 1.422
456.70 1.421
456.80 1.42
456.90 1.418
457.00 1.417
457.10 1.416
457.20 1.415
457.30 1.414
457.40 1.412
457.50 1.411
457.60 1.41
457.70 1.409
457.80 1.408
457.90 1.407
458.00 1.405
458.10 1.404
458.20 1.403
458.30 1.402
458.40 1.401
458.50 1.399
458.60 1.398
458.70 1.397
458.80 1.396
458.90 1.395
459.00 1.394
459.10 1.392
459.20 1.391
459.30 1.39
459.40 1.389
459.50 1.388
459.60 1.386
459.70 1.385
459.80 1.384
459.90 1.383
460.00 1.382
460.10 1.381
460.20 1.379
460.30 1.378
460.40 1.377
460.50 1.376
460.60 1.375
460.70 1.374
460.80 1.373
460.90 1.371
461.00 1.37
461.10 1.369
461.20 1.368
461.30 1.367
461.40 1.366
461.50 1.364
461.60 1.363
461.70 1.362
461.80 1.361
461.90 1.36
462.00 1.359
462.10 1.358
462.20 1.356
462.30 1.355
462.40 1.354
462.50 1.353
462.60 1.352
462.70 1.351
462.80 1.35
462.90 1.349
463.00 1.347
463.10 1.346
463.20 1.345
463.30 1.344
463.40 1.343
463.50 1.342
463.60 1.341
463.70 1.34
463.80 1.338
463.90 1.337
464.00 1.336
464.10 1.335
464.20 1.334
464.30 1.333
464.40 1.332
464.50 1.331
464.60 1.33
464.70 1.328
464.80 1.327
464.90 1.326
465.00 1.325
465.10 1.324
465.20 1.323
465.30 1.322
465.40 1.321
465.50 1.32
465.60 1.318
465.70 1.317
465.80 1.316
465.90 1.315
466.00 1.314
466.10 1.313
466.20 1.312
466.30 1.311
466.40 1.31
466.50 1.309
466.60 1.308
466.70 1.306
466.80 1.305
466.90 1.304
467.00 1.303
467.10 1.302
467.20 1.301
467.30 1.3
467.40 1.299
467.50 1.298
467.60 1.297
467.70 1.296
467.80 1.295
467.90 1.293
468.00 1.292
468.10 1.291
468.20 1.29
468.30 1.289
468.40 1.288
468.50 1.287
468.60 1.286
468.70 1.285
468.80 1.284
468.90 1.283
469.00 1.282
469.10 1.281
469.20 1.28
469.30 1.278
469.40 1.277
469.50 1.276
469.60 1.275
469.70 1.274
469.80 1.273
469.90 1.272
470.00 1.271
470.10 1.27
470.20 1.269
470.30 1.268
470.40 1.267
470.50 1.266
470.60 1.265
470.70 1.264
470.80 1.263
470.90 1.262
471.00 1.261
471.10 1.26
471.20 1.258
471.30 1.257
471.40 1.256
471.50 1.255
471.60 1.254
471.70 1.253
471.80 1.252
471.90 1.251
472.00 1.25
472.10 1.249
472.20 1.248
472.30 1.247
472.40 1.246
472.50 1.245
472.60 1.244
472.70 1.243
472.80 1.242
472.90 1.241
473.00 1.24
473.10 1.239
473.20 1.238
473.30 1.237
473.40 1.236
473.50 1.235
473.60 1.234
473.70 1.233
473.80 1.232
473.90 1.231
474.00 1.23
474.10 1.229
474.20 1.227
474.30 1.226
474.40 1.225
474.50 1.224
474.60 1.223
474.70 1.222
474.80 1.221
474.90 1.22
475.00 1.219
475.10 1.218
475.20 1.217
475.30 1.216
475.40 1.215
475.50 1.214
475.60 1.213
475.70 1.212
475.80 1.211
475.90 1.21
476.00 1.209
476.10 1.208
476.20 1.207
476.30 1.206
476.40 1.205
476.50 1.204
476.60 1.203
476.70 1.202
476.80 1.201
476.90 1.2
477.00 1.199
477.10 1.198
477.20 1.197
477.30 1.196
477.40 1.195
477.50 1.194
477.60 1.193
477.70 1.192
477.80 1.191
477.90 1.19
478.00 1.189
478.10 1.188
478.20 1.187
478.30 1.186
478.40 1.185
478.50 1.183
478.60 1.182
478.70 1.181
478.80 1.18
478.90 1.179
479.00 1.178
479.10 1.177
479.20 1.176
479.30 1.175
479.40 1.174
479.50 1.173
479.60 1.172
479.70 1.171
479.80 1.17
479.90 1.169
480.00 1.168
480.10 1.166
480.20 1.165
480.30 1.164
480.40 1.163
480.50 1.162
480.60 1.161
480.70 1.16
480.80 1.158
480.90 1.157
481.00 1.156
481.10 1.155
481.20 1.154
481.30 1.152
481.40 1.151
481.50 1.15
481.60 1.148
481.70 1.147
481.80 1.146
481.90 1.145
482.00 1.143
482.10 1.142
482.20 1.14
482.30 1.139
482.40 1.137
482.50 1.136
482.60 1.134
482.70 1.132
482.80 1.131
482.90 1.129
483.00 1.128
483.10 1.126
483.20 1.124
483.30 1.122
483.40 1.119
483.50 1.117
483.60 1.115
483.70 1.113
483.80 1.11
483.90 1.108
484.00 1.106
484.10 1.104
484.20 1.101
484.30 1.098
484.40 1.095
484.50 1.092
484.60 1.089
484.70 1.085
484.80 1.081
484.90 1.078
485.00 1.074
485.10 1.07
485.20 1.066
485.30 1.061
485.40 1.057
485.50 1.052
485.60 1.046
485.70 1.04
485.80 1.034
485.90 1.027
486.00 1.022
486.10 1.03
486.20 1.024
486.30 1.02
486.40 1.025
486.50 1.03
486.60 1.035
486.70 1.039
486.80 1.042
486.90 1.046
487.00 1.049
487.10 1.051
487.20 1.054
487.30 1.056
487.40 1.058
487.50 1.06
487.60 1.062
487.70 1.064
487.80 1.065
487.90 1.066
488.00 1.067
488.10 1.069
488.20 1.069
488.30 1.07
488.40 1.07
488.50 1.071
488.60 1.071
488.70 1.072
488.80 1.072
488.90 1.073
489.00 1.073
489.10 1.073
489.20 1.073
489.30 1.073
489.40 1.073
489.50 1.073
489.60 1.073
489.70 1.072
489.80 1.072
489.90 1.072
490.00 1.072
490.10 1.072
490.20 1.071
490.30 1.071
490.40 1.07
490.50 1.07
490.60 1.069
490.70 1.069
490.80 1.068
490.90 1.068
491.00 1.067
491.10 1.067
491.20 1.066
491.30 1.066
491.40 1.065
491.50 1.064
491.60 1.064
491.70 1.063
491.80 1.062
491.90 1.062
492.00 1.061
492.10 1.06
492.20 1.06
492.30 1.059
492.40 1.058
492.50 1.057
492.60 1.057
492.70 1.056
492.80 1.055
492.90 1.055
493.00 1.054
493.10 1.053
493.20 1.052
493.30 1.052
493.40 1.051
493.50 1.05
493.60 1.049
493.70 1.049
493.80 1.048
493.90 1.047
494.00 1.046
494.10 1.046
494.20 1.045
494.30 1.044
494.40 1.043
494.50 1.043
494.60 1.042
494.70 1.041
494.80 1.04
494.90 1.04
495.00 1.039
495.10 1.038
495.20 1.037
495.30 1.036
495.40 1.036
495.50 1.035
495.60 1.034
495.70 1.033
495.80 1.033
495.90 1.032
496.00 1.031
496.10 1.03
496.20 1.029
496.30 1.029
496.40 1.028
496.50 1.027
496.60 1.026
496.70 1.026
496.80 1.025
496.90 1.024
497.00 1.023
497.10 1.022
497.20 1.022
497.30 1.021
497.40 1.02
497.50 1.019
497.60 1.019
497.70 1.018
497.80 1.017
497.90 1.016
498.00 1.015
498.10 1.015
498.20 1.014
498.30 1.013
498.40 1.012
498.50 1.012
498.60 1.011
498.70 1.01
498.80 1.009
498.90 1.008
499.00 1.008
499.10 1.007
499.20 1.006
499.30 1.005
499.40 1.005
499.50 1.004
499.60 1.003
499.70 1.002
499.80 1.002
499.90 1.001
500.00 1
500.10 0.9992
500.20 0.9985
500.30 0.9977
500.40 0.9969
500.50 0.9962
500.60 0.9954
500.70 0.9946
500.80 0.9939
500.90 0.9931
501.00 0.9924
501.10 0.9916
501.20 0.9908
501.30 0.9901
501.40 0.9893
501.50 0.9886
501.60 0.9878
501.70 0.987
501.80 0.9863
501.90 0.9855
502.00 0.9848
502.10 0.984
502.20 0.9833
502.30 0.9825
502.40 0.9818
502.50 0.981
502.60 0.9803
502.70 0.9795
502.80 0.9787
502.90 0.978
503.00 0.9772
503.10 0.9765
503.20 0.9757
503.30 0.975
503.40 0.9743
503.50 0.9735
503.60 0.9728
503.70 0.972
503.80 0.9713
503.90 0.9705
504.00 0.9698
504.10 0.969
504.20 0.9683
504.30 0.9676
504.40 0.9668
504.50 0.9661
504.60 0.9653
504.70 0.9646
504.80 0.9639
504.90 0.9631
505.00 0.9624
505.10 0.9617
505.20 0.9609
505.30 0.9602
505.40 0.9594
505.50 0.9587
505.60 0.958
505.70 0.9573
505.80 0.9565
505.90 0.9558
506.00 0.9551
506.10 0.9543
506.20 0.9536
506.30 0.9529
506.40 0.9521
506.50 0.9514
506.60 0.9507
506.70 0.95
506.80 0.9492
506.90 0.9485
507.00 0.9478
507.10 0.9471
507.20 0.9463
507.30 0.9456
507.40 0.9449
507.50 0.9442
507.60 0.9435
507.70 0.9427
507.80 0.942
507.90 0.9413
508.00 0.9406
508.10 0.9399
508.20 0.9392
508.30 0.9384
508.40 0.9377
508.50 0.937
508.60 0.9363
508.70 0.9356
508.80 0.9349
508.90 0.9342
509.00 0.9335
509.10 0.9328
509.20 0.932
509.30 0.9313
509.40 0.9306
509.50 0.9299
509.60 0.9292
509.70 0.9285
509.80 0.9278
509.90 0.9271
510.00 0.9264
510.10 0.9257
510.20 0.925
510.30 0.9243
510.40 0.9236
510.50 0.9229
510.60 0.9222
510.70 0.9215
510.80 0.9208
510.90 0.9201
511.00 0.9194
511.10 0.9187
511.20 0.918
511.30 0.9173
511.40 0.9166
511.50 0.9159
511.60 0.9152
511.70 0.9145
511.80 0.9138
511.90 0.9131
512.00 0.9124
512.10 0.9118
512.20 0.9111
512.30 0.9104
512.40 0.9097
512.50 0.909
512.60 0.9083
512.70 0.9076
512.80 0.9069
512.90 0.9063
513.00 0.9056
513.10 0.9049
513.20 0.9042
513.30 0.9035
513.40 0.9028
513.50 0.9022
513.60 0.9015
513.70 0.9008
513.80 0.9001
513.90 0.8994
514.00 0.8988
514.10 0.8981
514.20 0.8974
514.30 0.8967
514.40 0.8961
514.50 0.8954
514.60 0.8947
514.70 0.894
514.80 0.8934
514.90 0.8927
515.00 0.892
515.10 0.8913
515.20 0.8907
515.30 0.89
515.40 0.8893
515.50 0.8887
515.60 0.888
515.70 0.8873
515.80 0.8867
515.90 0.886
516.00 0.8853
516.10 0.8847
516.20 0.884
516.30 0.8833
516.40 0.8827
516.50 0.882
516.60 0.8814
516.70 0.8807
516.80 0.88
516.90 0.8794
517.00 0.8787
517.10 0.8781
517.20 0.8774
517.30 0.8767
517.40 0.8761
517.50 0.8754
517.60 0.8748
517.70 0.8741
517.80 0.8735
517.90 0.8728
518.00 0.8722
518.10 0.8715
518.20 0.8708
518.30 0.8702
518.40 0.8695
518.50 0.8689
518.60 0.8682
518.70 0.8676
518.80 0.8669
518.90 0.8663
519.00 0.8657
519.10 0.865
519.20 0.8644
519.30 0.8637
519.40 0.8631
519.50 0.8624
519.60 0.8618
519.70 0.8611
519.80 0.8605
519.90 0.8599
520.00 0.8592
520.10 0.8586
520.20 0.8579
520.30 0.8573
520.40 0.8567
520.50 0.856
520.60 0.8554
520.70 0.8547
520.80 0.8541
520.90 0.8535
521.00 0.8528
521.10 0.8522
521.20 0.8516
521.30 0.8509
521.40 0.8503
521.50 0.8497
521.60 0.849
521.70 0.8484
521.80 0.8478
521.90 0.8471
522.00 0.8465
522.10 0.8459
522.20 0.8453
522.30 0.8446
522.40 0.844
522.50 0.8434
522.60 0.8428
522.70 0.8421
522.80 0.8415
522.90 0.8409
523.00 0.8403
523.10 0.8396
523.20 0.839
523.30 0.8384
523.40 0.8378
523.50 0.8371
523.60 0.8365
523.70 0.8359
523.80 0.8353
523.90 0.8347
524.00 0.834
524.10 0.8334
524.20 0.8328
524.30 0.8322
524.40 0.8316
524.50 0.831
524.60 0.8304
524.70 0.8297
524.80 0.8291
524.90 0.8285
525.00 0.8279
525.10 0.8273
525.20 0.8267
525.30 0.8261
525.40 0.8255
525.50 0.8249
525.60 0.8242
525.70 0.8236
525.80 0.823
525.90 0.8224
526.00 0.8218
526.10 0.8212
526.20 0.8206
526.30 0.82
526.40 0.8194
526.50 0.8188
526.60 0.8182
526.70 0.8176
526.80 0.817
526.90 0.8164
527.00 0.8158
527.10 0.8152
527.20 0.8146
527.30 0.814
527.40 0.8134
527.50 0.8128
527.60 0.8122
527.70 0.8116
527.80 0.811
527.90 0.8104
528.00 0.8098
528.10 0.8092
528.20 0.8086
528.30 0.808
528.40 0.8074
528.50 0.8068
528.60 0.8062
528.70 0.8056
528.80 0.8051
528.90 0.8045
529.00 0.8039
529.10 0.8033
529.20 0.8027
529.30 0.8021
529.40 0.8015
529.50 0.8009
529.60 0.8003
529.70 0.7998
529.80 0.7992
529.90 0.7986
530.00 0.798
530.10 0.7974
530.20 0.7968
530.30 0.7962
530.40 0.7957
530.50 0.7951
530.60 0.7945
530.70 0.7939
530.80 0.7933
530.90 0.7928
531.00 0.7922
531.10 0.7916
531.20 0.791
531.30 0.7904
531.40 0.7899
531.50 0.7893
531.60 0.7887
531.70 0.7881
531.80 0.7876
531.90 0.787
532.00 0.7864
532.10 0.7858
532.20 0.7853
532.30 0.7847
532.40 0.7841
532.50 0.7836
532.60 0.783
532.70 0.7824
532.80 0.7818
532.90 0.7813
533.00 0.7807
533.10 0.7801
533.20 0.7796
533.30 0.779
533.40 0.7784
533.50 0.7779
533.60 0.7773
533.70 0.7767
533.80 0.7762
533.90 0.7756
534.00 0.775
534.10 0.7745
534.20 0.7739
534.30 0.7734
534.40 0.7728
534.50 0.7722
534.60 0.7717
534.70 0.7711
534.80 0.7706
534.90 0.77
535.00 0.7694
535.10 0.7689
535.20 0.7683
535.30 0.7678
535.40 0.7672
535.50 0.7667
535.60 0.7661
535.70 0.7655
535.80 0.765
535.90 0.7644
536.00 0.7639
536.10 0.7633
536.20 0.7628
536.30 0.7622
536.40 0.7617
536.50 0.7611
536.60 0.7606
536.70 0.76
536.80 0.7595
536.90 0.7589
537.00 0.7584
537.10 0.7578
537.20 0.7573
537.30 0.7567
537.40 0.7562
537.50 0.7556
537.60 0.7551
537.70 0.7545
537.80 0.754
537.90 0.7535
538.00 0.7529
538.10 0.7524
538.20 0.7518
538.30 0.7513
538.40 0.7507
538.50 0.7502
538.60 0.7497
538.70 0.7491
538.80 0.7486
538.90 0.748
539.00 0.7475
539.10 0.747
539.20 0.7464
539.30 0.7459
539.40 0.7454
539.50 0.7448
539.60 0.7443
539.70 0.7438
539.80 0.7432
539.90 0.7427
540.00 0.7421
540.10 0.7416
540.20 0.7411
540.30 0.7405
540.40 0.74
540.50 0.7395
540.60 0.739
540.70 0.7384
540.80 0.7379
540.90 0.7374
541.00 0.7368
541.10 0.7363
541.20 0.7358
541.30 0.7353
541.40 0.7347
541.50 0.7342
541.60 0.7337
541.70 0.7331
541.80 0.7326
541.90 0.7321
542.00 0.7316
542.10 0.731
542.20 0.7305
542.30 0.73
542.40 0.7295
542.50 0.729
542.60 0.7284
542.70 0.7279
542.80 0.7274
542.90 0.7269
543.00 0.7264
543.10 0.7258
543.20 0.7253
543.30 0.7248
543.40 0.7243
543.50 0.7238
543.60 0.7232
543.70 0.7227
543.80 0.7222
543.90 0.7217
544.00 0.7212
544.10 0.7207
544.20 0.7202
544.30 0.7196
544.40 0.7191
544.50 0.7186
544.60 0.7181
544.70 0.7176
544.80 0.7171
544.90 0.7166
545.00 0.7161
545.10 0.7155
545.20 0.715
545.30 0.7145
545.40 0.714
545.50 0.7135
545.60 0.713
545.70 0.7125
545.80 0.712
545.90 0.7115
546.00 0.711
546.10 0.7105
546.20 0.71
546.30 0.7095
546.40 0.709
546.50 0.7085
546.60 0.708
546.70 0.7074
546.80 0.7069
546.90 0.7064
547.00 0.7059
547.10 0.7054
547.20 0.7049
547.30 0.7044
547.40 0.7039
547.50 0.7034
547.60 0.7029
547.70 0.7024
547.80 0.7019
547.90 0.7015
548.00 0.701
548.10 0.7005
548.20 0.7
548.30 0.6995
548.40 0.699
548.50 0.6985
548.60 0.698
548.70 0.6975
548.80 0.697
548.90 0.6965
549.00 0.696
549.10 0.6955
549.20 0.695
549.30 0.6945
549.40 0.694
549.50 0.6936
549.60 0.6931
549.70 0.6926
549.80 0.6921
549.90 0.6916
550.00 0.6911
550.10 0.6906
550.20 0.6901
550.30 0.6896
550.40 0.6892
550.50 0.6887
550.60 0.6882
550.70 0.6877
550.80 0.6872
550.90 0.6867
551.00 0.6862
551.10 0.6858
551.20 0.6853
551.30 0.6848
551.40 0.6843
551.50 0.6838
551.60 0.6834
551.70 0.6829
551.80 0.6824
551.90 0.6819
552.00 0.6814
552.10 0.6809
552.20 0.6805
552.30 0.68
552.40 0.6795
552.50 0.679
552.60 0.6786
552.70 0.6781
552.80 0.6776
552.90 0.6771
553.00 0.6767
553.10 0.6762
553.20 0.6757
553.30 0.6752
553.40 0.6748
553.50 0.6743
553.60 0.6738
553.70 0.6733
553.80 0.6729
553.90 0.6724
554.00 0.6719
554.10 0.6714
554.20 0.671
554.30 0.6705
554.40 0.67
554.50 0.6696
554.60 0.6691
554.70 0.6686
554.80 0.6682
554.90 0.6677
555.00 0.6672
555.10 0.6668
555.20 0.6663
555.30 0.6658
555.40 0.6654
555.50 0.6649
555.60 0.6644
555.70 0.664
555.80 0.6635
555.90 0.663
556.00 0.6626
556.10 0.6621
556.20 0.6617
556.30 0.6612
556.40 0.6607
556.50 0.6603
556.60 0.6598
556.70 0.6594
556.80 0.6589
556.90 0.6584
557.00 0.658
557.10 0.6575
557.20 0.6571
557.30 0.6566
557.40 0.6561
557.50 0.6557
557.60 0.6552
557.70 0.6548
557.80 0.6543
557.90 0.6539
558.00 0.6534
558.10 0.653
558.20 0.6525
558.30 0.652
558.40 0.6516
558.50 0.6511
558.60 0.6507
558.70 0.6502
558.80 0.6498
558.90 0.6493
559.00 0.6489
559.10 0.6484
559.20 0.648
559.30 0.6475
559.40 0.6471
559.50 0.6466
559.60 0.6462
559.70 0.6457
559.80 0.6453
559.90 0.6448
560.00 0.6444
560.10 0.6439
560.20 0.6435
560.30 0.643
560.40 0.6426
560.50 0.6422
560.60 0.6417
560.70 0.6413
560.80 0.6408
560.90 0.6404
561.00 0.6399
561.10 0.6395
561.20 0.639
561.30 0.6386
561.40 0.6382
561.50 0.6377
561.60 0.6373
561.70 0.6368
561.80 0.6364
561.90 0.636
562.00 0.6355
562.10 0.6351
562.20 0.6346
562.30 0.6342
562.40 0.6338
562.50 0.6333
562.60 0.6329
562.70 0.6325
562.80 0.632
562.90 0.6316
563.00 0.6311
563.10 0.6307
563.20 0.6303
563.30 0.6298
563.40 0.6294
563.50 0.629
563.60 0.6285
563.70 0.6281
563.80 0.6277
563.90 0.6272
564.00 0.6268
564.10 0.6264
564.20 0.6259
564.30 0.6255
564.40 0.6251
564.50 0.6247
564.60 0.6242
564.70 0.6238
564.80 0.6234
564.90 0.6229
565.00 0.6225
565.10 0.6221
565.20 0.6217
565.30 0.6212
565.40 0.6208
565.50 0.6204
565.60 0.6199
565.70 0.6195
565.80 0.6191
565.90 0.6187
566.00 0.6182
566.10 0.6178
566.20 0.6174
566.30 0.617
566.40 0.6166
566.50 0.6161
566.60 0.6157
566.70 0.6153
566.80 0.6149
566.90 0.6144
567.00 0.614
567.10 0.6136
567.20 0.6132
567.30 0.6128
567.40 0.6123
567.50 0.6119
567.60 0.6115
567.70 0.6111
567.80 0.6107
567.90 0.6102
568.00 0.6098
568.10 0.6094
568.20 0.609
568.30 0.6086
568.40 0.6082
568.50 0.6078
568.60 0.6073
568.70 0.6069
568.80 0.6065
568.90 0.6061
569.00 0.6057
569.10 0.6053
569.20 0.6049
569.30 0.6044
569.40 0.604
569.50 0.6036
569.60 0.6032
569.70 0.6028
569.80 0.6024
569.90 0.602
570.00 0.6016
570.10 0.6011
570.20 0.6007
570.30 0.6003
570.40 0.5999
570.50 0.5995
570.60 0.5991
570.70 0.5987
570.80 0.5983
570.90 0.5979
571.00 0.5975
571.10 0.5971
571.20 0.5967
571.30 0.5963
571.40 0.5959
571.50 0.5954
571.60 0.595
571.70 0.5946
571.80 0.5942
571.90 0.5938
572.00 0.5934
572.10 0.593
572.20 0.5926
572.30 0.5922
572.40 0.5918
572.50 0.5914
572.60 0.591
572.70 0.5906
572.80 0.5902
572.90 0.5898
573.00 0.5894
573.10 0.589
573.20 0.5886
573.30 0.5882
573.40 0.5878
573.50 0.5874
573.60 0.587
573.70 0.5866
573.80 0.5862
573.90 0.5858
574.00 0.5854
574.10 0.585
574.20 0.5846
574.30 0.5842
574.40 0.5839
574.50 0.5835
574.60 0.5831
574.70 0.5827
574.80 0.5823
574.90 0.5819
575.00 0.5815
575.10 0.5811
575.20 0.5807
575.30 0.5803
575.40 0.5799
575.50 0.5795
575.60 0.5791
575.70 0.5787
575.80 0.5783
575.90 0.578
576.00 0.5776
576.10 0.5772
576.20 0.5768
576.30 0.5764
576.40 0.576
576.50 0.5756
576.60 0.5752
576.70 0.5748
576.80 0.5745
576.90 0.5741
577.00 0.5737
577.10 0.5733
577.20 0.5729
577.30 0.5725
577.40 0.5721
577.50 0.5718
577.60 0.5714
577.70 0.571
577.80 0.5706
577.90 0.5702
578.00 0.5698
578.10 0.5695
578.20 0.5691
578.30 0.5687
578.40 0.5683
578.50 0.5679
578.60 0.5675
578.70 0.5672
578.80 0.5668
578.90 0.5664
579.00 0.566
579.10 0.5656
579.20 0.5653
579.30 0.5649
579.40 0.5645
579.50 0.5641
579.60 0.5637
579.70 0.5634
579.80 0.563
579.90 0.5626
580.00 0.5622
580.10 0.5619
580.20 0.5615
580.30 0.5611
580.40 0.5607
580.50 0.5604
580.60 0.56
580.70 0.5596
580.80 0.5592
580.90 0.5589
581.00 0.5585
581.10 0.5581
581.20 0.5577
581.30 0.5574
581.40 0.557
581.50 0.5566
581.60 0.5563
581.70 0.5559
581.80 0.5555
581.90 0.5551
582.00 0.5548
582.10 0.5544
582.20 0.554
582.30 0.5537
582.40 0.5533
582.50 0.5529
582.60 0.5525
582.70 0.5522
582.80 0.5518
582.90 0.5514
583.00 0.5511
583.10 0.5507
583.20 0.5503
583.30 0.55
583.40 0.5496
583.50 0.5492
583.60 0.5489
583.70 0.5485
583.80 0.5481
583.90 0.5478
584.00 0.5474
584.10 0.547
584.20 0.5467
584.30 0.5463
584.40 0.546
584.50 0.5456
584.60 0.5452
584.70 0.5449
584.80 0.5445
584.90 0.5441
585.00 0.5438
585.10 0.5434
585.20 0.5431
585.30 0.5427
585.40 0.5423
585.50 0.542
585.60 0.5416
585.70 0.5413
585.80 0.5409
585.90 0.5405
586.00 0.5402
586.10 0.5398
586.20 0.5395
586.30 0.5391
586.40 0.5388
586.50 0.5384
586.60 0.538
586.70 0.5377
586.80 0.5373
586.90 0.537
587.00 0.5366
587.10 0.5363
587.20 0.5359
587.30 0.5356
587.40 0.5352
587.50 0.5348
587.60 0.5345
587.70 0.5341
587.80 0.5338
587.90 0.5334
588.00 0.5331
588.10 0.5327
588.20 0.5324
588.30 0.532
588.40 0.5317
588.50 0.5313
588.60 0.531
588.70 0.5306
588.80 0.5303
588.90 0.5299
589.00 0.5296
589.10 0.5292
589.20 0.5289
589.30 0.5285
589.40 0.5282
589.50 0.5278
589.60 0.5275
589.70 0.5271
589.80 0.5268
589.90 0.5264
590.00 0.5261
590.10 0.5257
590.20 0.5254
590.30 0.5251
590.40 0.5247
590.50 0.5244
590.60 0.524
590.70 0.5237
590.80 0.5233
590.90 0.523
591.00 0.5226
591.10 0.5223
591.20 0.5219
591.30 0.5216
591.40 0.5213
591.50 0.5209
591.60 0.5206
591.70 0.5202
591.80 0.5199
591.90 0.5196
592.00 0.5192
592.10 0.5189
592.20 0.5185
592.30 0.5182
592.40 0.5179
592.50 0.5175
592.60 0.5172
592.70 0.5168
592.80 0.5165
592.90 0.5162
593.00 0.5158
593.10 0.5155
593.20 0.5151
593.30 0.5148
593.40 0.5145
593.50 0.5141
593.60 0.5138
593.70 0.5135
593.80 0.5131
593.90 0.5128
594.00 0.5124
594.10 0.5121
594.20 0.5118
594.30 0.5114
594.40 0.5111
594.50 0.5108
594.60 0.5104
594.70 0.5101
594.80 0.5098
594.90 0.5094
595.00 0.5091
595.10 0.5088
595.20 0.5084
595.30 0.5081
595.40 0.5078
595.50 0.5074
595.60 0.5071
595.70 0.5068
595.80 0.5065
595.90 0.5061
596.00 0.5058
596.10 0.5055
596.20 0.5051
596.30 0.5048
596.40 0.5045
596.50 0.5041
596.60 0.5038
596.70 0.5035
596.80 0.5032
596.90 0.5028
597.00 0.5025
597.10 0.5022
597.20 0.5018
597.30 0.5015
597.40 0.5012
597.50 0.5009
597.60 0.5005
597.70 0.5002
597.80 0.4999
597.90 0.4996
598.00 0.4992
598.10 0.4989
598.20 0.4986
598.30 0.4983
598.40 0.4979
598.50 0.4976
598.60 0.4973
598.70 0.497
598.80 0.4967
598.90 0.4963
599.00 0.496
599.10 0.4957
599.20 0.4954
599.30 0.495
599.40 0.4947
599.50 0.4944
599.60 0.4941
599.70 0.4938
599.80 0.4934
599.90 0.4931
600.00 0.4928
600.10 0.4925
600.20 0.4922
600.30 0.4918
600.40 0.4915
600.50 0.4912
600.60 0.4909
600.70 0.4906
600.80 0.4903
600.90 0.4899
601.00 0.4896
601.10 0.4893
601.20 0.489
601.30 0.4887
601.40 0.4884
601.50 0.488
601.60 0.4877
601.70 0.4874
601.80 0.4871
601.90 0.4868
602.00 0.4865
602.10 0.4861
602.20 0.4858
602.30 0.4855
602.40 0.4852
602.50 0.4849
602.60 0.4846
602.70 0.4843
602.80 0.484
602.90 0.4836
603.00 0.4833
603.10 0.483
603.20 0.4827
603.30 0.4824
603.40 0.4821
603.50 0.4818
603.60 0.4815
603.70 0.4812
603.80 0.4808
603.90 0.4805
604.00 0.4802
604.10 0.4799
604.20 0.4796
604.30 0.4793
604.40 0.479
604.50 0.4787
604.60 0.4784
604.70 0.4781
604.80 0.4778
604.90 0.4775
605.00 0.4771
605.10 0.4768
605.20 0.4765
605.30 0.4762
605.40 0.4759
605.50 0.4756
605.60 0.4753
605.70 0.475
605.80 0.4747
605.90 0.4744
606.00 0.4741
606.10 0.4738
606.20 0.4735
606.30 0.4732
606.40 0.4729
606.50 0.4726
606.60 0.4723
606.70 0.472
606.80 0.4717
606.90 0.4714
607.00 0.4711
607.10 0.4708
607.20 0.4705
607.30 0.4702
607.40 0.4699
607.50 0.4696
607.60 0.4693
607.70 0.469
607.80 0.4687
607.90 0.4684
608.00 0.4681
608.10 0.4678
608.20 0.4675
608.30 0.4672
608.40 0.4669
608.50 0.4666
608.60 0.4663
608.70 0.466
608.80 0.4657
608.90 0.4654
609.00 0.4651
609.10 0.4648
609.20 0.4645
609.30 0.4642
609.40 0.4639
609.50 0.4636
609.60 0.4633
609.70 0.463
609.80 0.4627
609.90 0.4624
610.00 0.4621
610.10 0.4618
610.20 0.4615
610.30 0.4612
610.40 0.4609
610.50 0.4606
610.60 0.4603
610.70 0.4601
610.80 0.4598
610.90 0.4595
611.00 0.4592
611.10 0.4589
611.20 0.4586
611.30 0.4583
611.40 0.458
611.50 0.4577
611.60 0.4574
611.70 0.4571
611.80 0.4568
611.90 0.4566
612.00 0.4563
612.10 0.456
612.20 0.4557
612.30 0.4554
612.40 0.4551
612.50 0.4548
612.60 0.4545
612.70 0.4542
612.80 0.454
612.90 0.4537
613.00 0.4534
613.10 0.4531
613.20 0.4528
613.30 0.4525
613.40 0.4522
613.50 0.4519
613.60 0.4517
613.70 0.4514
613.80 0.4511
613.90 0.4508
614.00 0.4505
614.10 0.4502
614.20 0.4499
614.30 0.4497
614.40 0.4494
614.50 0.4491
614.60 0.4488
614.70 0.4485
614.80 0.4482
614.90 0.4479
615.00 0.4477
615.10 0.4474
615.20 0.4471
615.30 0.4468
615.40 0.4465
615.50 0.4462
615.60 0.446
615.70 0.4457
615.80 0.4454
615.90 0.4451
616.00 0.4448
616.10 0.4446
616.20 0.4443
616.30 0.444
616.40 0.4437
616.50 0.4434
616.60 0.4432
616.70 0.4429
616.80 0.4426
616.90 0.4423
617.00 0.442
617.10 0.4418
617.20 0.4415
617.30 0.4412
617.40 0.4409
617.50 0.4406
617.60 0.4404
617.70 0.4401
617.80 0.4398
617.90 0.4395
618.00 0.4393
618.10 0.439
618.20 0.4387
618.30 0.4384
618.40 0.4382
618.50 0.4379
618.60 0.4376
618.70 0.4373
618.80 0.4371
618.90 0.4368
619.00 0.4365
619.10 0.4362
619.20 0.436
619.30 0.4357
619.40 0.4354
619.50 0.4351
619.60 0.4349
619.70 0.4346
619.80 0.4343
619.90 0.434
620.00 0.4338
620.10 0.4335
620.20 0.4332
620.30 0.433
620.40 0.4327
620.50 0.4324
620.60 0.4321
620.70 0.4319
620.80 0.4316
620.90 0.4313
621.00 0.4311
621.10 0.4308
621.20 0.4305
621.30 0.4302
621.40 0.43
621.50 0.4297
621.60 0.4294
621.70 0.4292
621.80 0.4289
621.90 0.4286
622.00 0.4284
622.10 0.4281
622.20 0.4278
622.30 0.4276
622.40 0.4273
622.50 0.427
622.60 0.4268
622.70 0.4265
622.80 0.4262
622.90 0.426
623.00 0.4257
623.10 0.4254
623.20 0.4252
623.30 0.4249
623.40 0.4246
623.50 0.4244
623.60 0.4241
623.70 0.4238
623.80 0.4236
623.90 0.4233
624.00 0.423
624.10 0.4228
624.20 0.4225
624.30 0.4223
624.40 0.422
624.50 0.4217
624.60 0.4215
624.70 0.4212
624.80 0.4209
624.90 0.4207
625.00 0.4204
625.10 0.4202
625.20 0.4199
625.30 0.4196
625.40 0.4194
625.50 0.4191
625.60 0.4188
625.70 0.4186
625.80 0.4183
625.90 0.4181
626.00 0.4178
626.10 0.4175
626.20 0.4173
626.30 0.417
626.40 0.4168
626.50 0.4165
626.60 0.4163
626.70 0.416
626.80 0.4157
626.90 0.4155
627.00 0.4152
627.10 0.415
627.20 0.4147
627.30 0.4144
627.40 0.4142
627.50 0.4139
627.60 0.4137
627.70 0.4134
627.80 0.4132
627.90 0.4129
628.00 0.4127
628.10 0.4124
628.20 0.4121
628.30 0.4119
628.40 0.4116
628.50 0.4114
628.60 0.4111
628.70 0.4109
628.80 0.4106
628.90 0.4104
629.00 0.4101
629.10 0.4098
629.20 0.4096
629.30 0.4093
629.40 0.4091
629.50 0.4088
629.60 0.4086
629.70 0.4083
629.80 0.4081
629.90 0.4078
630.00 0.4076
630.10 0.4073
630.20 0.4071
630.30 0.4068
630.40 0.4066
630.50 0.4063
630.60 0.4061
630.70 0.4058
630.80 0.4056
630.90 0.4053
631.00 0.4051
631.10 0.4048
631.20 0.4046
631.30 0.4043
631.40 0.4041
631.50 0.4038
631.60 0.4036
631.70 0.4033
631.80 0.4031
631.90 0.4028
632.00 0.4026
632.10 0.4023
632.20 0.4021
632.30 0.4018
632.40 0.4016
632.50 0.4013
632.60 0.4011
632.70 0.4008
632.80 0.4006
632.90 0.4003
633.00 0.4001
633.10 0.3998
633.20 0.3996
633.30 0.3993
633.40 0.3991
633.50 0.3989
633.60 0.3986
633.70 0.3984
633.80 0.3981
633.90 0.3979
634.00 0.3976
634.10 0.3974
634.20 0.3971
634.30 0.3969
634.40 0.3967
634.50 0.3964
634.60 0.3962
634.70 0.3959
634.80 0.3957
634.90 0.3954
635.00 0.3952
635.10 0.395
635.20 0.3947
635.30 0.3945
635.40 0.3942
635.50 0.394
635.60 0.3937
635.70 0.3935
635.80 0.3933
635.90 0.393
636.00 0.3928
636.10 0.3925
636.20 0.3923
636.30 0.392
636.40 0.3918
636.50 0.3916
636.60 0.3913
636.70 0.3911
636.80 0.3908
636.90 0.3906
637.00 0.3904
637.10 0.3901
637.20 0.3899
637.30 0.3896
637.40 0.3894
637.50 0.3892
637.60 0.3889
637.70 0.3887
637.80 0.3885
637.90 0.3882
638.00 0.388
638.10 0.3877
638.20 0.3875
638.30 0.3873
638.40 0.387
638.50 0.3868
638.60 0.3866
638.70 0.3863
638.80 0.3861
638.90 0.3858
639.00 0.3856
639.10 0.3854
639.20 0.3851
639.30 0.3849
639.40 0.3847
639.50 0.3844
639.60 0.3842
639.70 0.384
639.80 0.3837
639.90 0.3835
640.00 0.3833
640.10 0.383
640.20 0.3828
640.30 0.3826
640.40 0.3823
640.50 0.3821
640.60 0.3818
640.70 0.3816
640.80 0.3814
640.90 0.3811
641.00 0.3809
641.10 0.3807
641.20 0.3804
641.30 0.3802
641.40 0.38
641.50 0.3797
641.60 0.3795
641.70 0.3793
641.80 0.3791
641.90 0.3788
642.00 0.3786
642.10 0.3784
642.20 0.3781
642.30 0.3779
642.40 0.3777
642.50 0.3774
642.60 0.3772
642.70 0.377
642.80 0.3767
642.90 0.3765
643.00 0.3763
643.10 0.376
643.20 0.3758
643.30 0.3756
643.40 0.3753
643.50 0.3751
643.60 0.3749
643.70 0.3747
643.80 0.3744
643.90 0.3742
644.00 0.374
644.10 0.3737
644.20 0.3735
644.30 0.3733
644.40 0.373
644.50 0.3728
644.60 0.3726
644.70 0.3724
644.80 0.3721
644.90 0.3719
645.00 0.3717
645.10 0.3714
645.20 0.3712
645.30 0.371
645.40 0.3707
645.50 0.3705
645.60 0.3703
645.70 0.3701
645.80 0.3698
645.90 0.3696
646.00 0.3694
646.10 0.3691
646.20 0.3689
646.30 0.3687
646.40 0.3684
646.50 0.3682
646.60 0.368
646.70 0.3678
646.80 0.3675
646.90 0.3673
647.00 0.3671
647.10 0.3668
647.20 0.3666
647.30 0.3664
647.40 0.3661
647.50 0.3659
647.60 0.3657
647.70 0.3654
647.80 0.3652
647.90 0.365
648.00 0.3647
648.10 0.3645
648.20 0.3643
648.30 0.364
648.40 0.3638
648.50 0.3636
648.60 0.3633
648.70 0.3631
648.80 0.3629
648.90 0.3626
649.00 0.3624
649.10 0.3621
649.20 0.3619
649.30 0.3617
649.40 0.3614
649.50 0.3612
649.60 0.3609
649.70 0.3607
649.80 0.3604
649.90 0.3602
650.00 0.3599
650.10 0.3597
650.20 0.3595
650.30 0.3592
650.40 0.3589
650.50 0.3587
650.60 0.3584
650.70 0.3582
650.80 0.3579
650.90 0.3576
651.00 0.3574
651.10 0.3571
651.20 0.3568
651.30 0.3566
651.40 0.3563
651.50 0.356
651.60 0.3557
651.70 0.3554
651.80 0.3551
651.90 0.3548
652.00 0.3545
652.10 0.3542
652.20 0.3539
652.30 0.3536
652.40 0.3532
652.50 0.3528
652.60 0.3524
652.70 0.3521
652.80 0.3517
652.90 0.3513
653.00 0.3509
653.10 0.3506
653.20 0.3502
653.30 0.3498
653.40 0.3492
653.50 0.3487
653.60 0.3481
653.70 0.3476
653.80 0.347
653.90 0.3465
654.00 0.3459
654.10 0.3454
654.20 0.3448
654.30 0.3442
654.40 0.3434
654.50 0.3426
654.60 0.3418
654.70 0.341
654.80 0.3402
654.90 0.3391
655.00 0.338
655.10 0.3369
655.20 0.3358
655.30 0.3346
655.40 0.3332
655.50 0.3317
655.60 0.3299
655.70 0.3279
655.80 0.3254
655.90 0.3227
656.00 0.319
656.10 0.3155
656.20 0.3215
656.30 0.3311
656.40 0.3164
656.50 0.3159
656.60 0.3192
656.70 0.3222
656.80 0.3244
656.90 0.3264
657.00 0.3278
657.10 0.3291
657.20 0.3302
657.30 0.3311
657.40 0.3318
657.50 0.3325
657.60 0.3332
657.70 0.3339
657.80 0.3345
657.90 0.3349
658.00 0.3353
658.10 0.3357
658.20 0.3361
658.30 0.3364
658.40 0.3366
658.50 0.3367
658.60 0.3368
658.70 0.337
658.80 0.3371
658.90 0.3372
659.00 0.3374
659.10 0.3375
659.20 0.3376
659.30 0.3377
659.40 0.3377
659.50 0.3377
659.60 0.3376
659.70 0.3376
659.80 0.3375
659.90 0.3375
660.00 0.3375
660.10 0.3374
660.20 0.3374
660.30 0.3373
660.40 0.3372
660.50 0.3371
660.60 0.337
660.70 0.3368
660.80 0.3367
660.90 0.3366
661.00 0.3365
661.10 0.3364
661.20 0.3363
661.30 0.3361
661.40 0.336
661.50 0.3358
661.60 0.3357
661.70 0.3355
661.80 0.3354
661.90 0.3352
662.00 0.3351
662.10 0.3349
662.20 0.3348
662.30 0.3346
662.40 0.3344
662.50 0.3343
662.60 0.3341
662.70 0.3339
662.80 0.3338
662.90 0.3336
663.00 0.3334
663.10 0.3332
663.20 0.3331
663.30 0.3329
663.40 0.3327
663.50 0.3326
663.60 0.3324
663.70 0.3322
663.80 0.332
663.90 0.3318
664.00 0.3317
664.10 0.3315
664.20 0.3313
664.30 0.3311
664.40 0.3309
664.50 0.3308
664.60 0.3306
664.70 0.3304
664.80 0.3302
664.90 0.33
665.00 0.3299
665.10 0.3297
665.20 0.3295
665.30 0.3293
665.40 0.3291
665.50 0.3289
665.60 0.3288
665.70 0.3286
665.80 0.3284
665.90 0.3282
666.00 0.328
666.10 0.3278
666.20 0.3276
666.30 0.3275
666.40 0.3273
666.50 0.3271
666.60 0.3269
666.70 0.3267
666.80 0.3265
666.90 0.3264
667.00 0.3262
667.10 0.326
667.20 0.3258
667.30 0.3256
667.40 0.3254
667.50 0.3252
667.60 0.3251
667.70 0.3249
667.80 0.3247
667.90 0.3245
668.00 0.3243
668.10 0.3241
668.20 0.3239
668.30 0.3238
668.40 0.3236
668.50 0.3234
668.60 0.3232
668.70 0.323
668.80 0.3228
668.90 0.3226
669.00 0.3225
669.10 0.3223
669.20 0.3221
669.30 0.3219
669.40 0.3217
669.50 0.3215
669.60 0.3214
669.70 0.3212
669.80 0.321
669.90 0.3208
670.00 0.3206
670.10 0.3204
670.20 0.3203
670.30 0.3201
670.40 0.3199
670.50 0.3197
670.60 0.3195
670.70 0.3193
670.80 0.3191
670.90 0.319
671.00 0.3188
671.10 0.3186
671.20 0.3184
671.30 0.3182
671.40 0.318
671.50 0.3179
671.60 0.3177
671.70 0.3175
671.80 0.3173
671.90 0.3171
672.00 0.317
672.10 0.3168
672.20 0.3166
672.30 0.3164
672.40 0.3162
672.50 0.316
672.60 0.3159
672.70 0.3157
672.80 0.3155
672.90 0.3153
673.00 0.3151
673.10 0.315
673.20 0.3148
673.30 0.3146
673.40 0.3144
673.50 0.3142
673.60 0.3141
673.70 0.3139
673.80 0.3137
673.90 0.3135
674.00 0.3133
674.10 0.3131
674.20 0.313
674.30 0.3128
674.40 0.3126
674.50 0.3124
674.60 0.3122
674.70 0.3121
674.80 0.3119
674.90 0.3117
675.00 0.3115
675.10 0.3114
675.20 0.3112
675.30 0.311
675.40 0.3108
675.50 0.3106
675.60 0.3105
675.70 0.3103
675.80 0.3101
675.90 0.3099
676.00 0.3097
676.10 0.3096
676.20 0.3094
676.30 0.3092
676.40 0.309
676.50 0.3089
676.60 0.3087
676.70 0.3085
676.80 0.3083
676.90 0.3082
677.00 0.308
677.10 0.3078
677.20 0.3076
677.30 0.3074
677.40 0.3073
677.50 0.3071
677.60 0.3069
677.70 0.3067
677.80 0.3066
677.90 0.3064
678.00 0.3062
678.10 0.306
678.20 0.3059
678.30 0.3057
678.40 0.3055
678.50 0.3053
678.60 0.3052
678.70 0.305
678.80 0.3048
678.90 0.3046
679.00 0.3045
679.10 0.3043
679.20 0.3041
679.30 0.3039
679.40 0.3038
679.50 0.3036
679.60 0.3034
679.70 0.3032
679.80 0.3031
679.90 0.3029
680.00 0.3027
680.10 0.3026
680.20 0.3024
680.30 0.3022
680.40 0.302
680.50 0.3019
680.60 0.3017
680.70 0.3015
680.80 0.3013
680.90 0.3012
681.00 0.301
681.10 0.3008
681.20 0.3007
681.30 0.3005
681.40 0.3003
681.50 0.3001
681.60 0.3
681.70 0.2998
681.80 0.2996
681.90 0.2995
682.00 0.2993
682.10 0.2991
682.20 0.2989
682.30 0.2988
682.40 0.2986
682.50 0.2984
682.60 0.2983
682.70 0.2981
682.80 0.2979
682.90 0.2978
683.00 0.2976
683.10 0.2974
683.20 0.2973
683.30 0.2971
683.40 0.2969
683.50 0.2967
683.60 0.2966
683.70 0.2964
683.80 0.2962
683.90 0.2961
684.00 0.2959
684.10 0.2957
684.20 0.2956
684.30 0.2954
684.40 0.2952
684.50 0.2951
684.60 0.2949
684.70 0.2947
684.80 0.2946
684.90 0.2944
685.00 0.2942
685.10 0.2941
685.20 0.2939
685.30 0.2937
685.40 0.2936
685.50 0.2934
685.60 0.2932
685.70 0.2931
685.80 0.2929
685.90 0.2927
686.00 0.2926
686.10 0.2924
686.20 0.2922
686.30 0.2921
686.40 0.2919
686.50 0.2917
686.60 0.2916
686.70 0.2914
686.80 0.2912
686.90 0.2911
687.00 0.2909
687.10 0.2907
687.20 0.2906
687.30 0.2904
687.40 0.2902
687.50 0.2901
687.60 0.2899
687.70 0.2898
687.80 0.2896
687.90 0.2894
688.00 0.2893
688.10 0.2891
688.20 0.2889
688.30 0.2888
688.40 0.2886
688.50 0.2884
688.60 0.2883
688.70 0.2881
688.80 0.288
688.90 0.2878
689.00 0.2876
689.10 0.2875
689.20 0.2873
689.30 0.2871
689.40 0.287
689.50 0.2868
689.60 0.2867
689.70 0.2865
689.80 0.2863
689.90 0.2862
690.00 0.286
690.10 0.2859
690.20 0.2857
690.30 0.2855
690.40 0.2854
690.50 0.2852
690.60 0.2851
690.70 0.2849
690.80 0.2847
690.90 0.2846
691.00 0.2844
691.10 0.2843
691.20 0.2841
691.30 0.2839
691.40 0.2838
691.50 0.2836
691.60 0.2835
691.70 0.2833
691.80 0.2831
691.90 0.283
692.00 0.2828
692.10 0.2827
692.20 0.2825
692.30 0.2823
692.40 0.2822
692.50 0.282
692.60 0.2819
692.70 0.2817
692.80 0.2815
692.90 0.2814
693.00 0.2812
693.10 0.2811
693.20 0.2809
693.30 0.2808
693.40 0.2806
693.50 0.2804
693.60 0.2803
693.70 0.2801
693.80 0.28
693.90 0.2798
694.00 0.2796
694.10 0.2795
694.20 0.2793
694.30 0.2792
694.40 0.279
694.50 0.2789
694.60 0.2787
694.70 0.2785
694.80 0.2784
694.90 0.2782
695.00 0.2781
695.10 0.2779
695.20 0.2778
695.30 0.2776
695.40 0.2775
695.50 0.2773
695.60 0.2771
695.70 0.277
695.80 0.2768
695.90 0.2767
696.00 0.2765
696.10 0.2764
696.20 0.2762
696.30 0.2761
696.40 0.2759
696.50 0.2758
696.60 0.2756
696.70 0.2755
696.80 0.2753
696.90 0.2751
697.00 0.275
697.10 0.2748
697.20 0.2747
697.30 0.2745
697.40 0.2744
697.50 0.2742
697.60 0.2741
697.70 0.2739
697.80 0.2738
697.90 0.2736
698.00 0.2735
698.10 0.2733
698.20 0.2732
698.30 0.273
698.40 0.2728
698.50 0.2727
698.60 0.2725
698.70 0.2724
698.80 0.2722
698.90 0.2721
699.00 0.2719
699.10 0.2718
699.20 0.2716
699.30 0.2715
699.40 0.2713
699.50 0.2712
699.60 0.271
699.70 0.2709
699.80 0.2707
699.90 0.2706
700.00 0.2704
700.10 0.2703
700.20 0.2701
700.30 0.27
700.40 0.2698
700.50 0.2697
700.60 0.2695
700.70 0.2694
700.80 0.2692
700.90 0.2691
701.00 0.2689
701.10 0.2688
701.20 0.2686
701.30 0.2685
701.40 0.2683
701.50 0.2682
701.60 0.268
701.70 0.2679
701.80 0.2677
701.90 0.2676
702.00 0.2674
702.10 0.2673
702.20 0.2671
702.30 0.267
702.40 0.2668
702.50 0.2667
702.60 0.2665
702.70 0.2664
702.80 0.2663
702.90 0.2661
703.00 0.266
703.10 0.2658
703.20 0.2657
703.30 0.2655
703.40 0.2654
703.50 0.2652
703.60 0.2651
703.70 0.2649
703.80 0.2648
703.90 0.2646
704.00 0.2645
704.10 0.2643
704.20 0.2642
704.30 0.264
704.40 0.2639
704.50 0.2638
704.60 0.2636
704.70 0.2635
704.80 0.2633
704.90 0.2632
705.00 0.263
705.10 0.2629
705.20 0.2627
705.30 0.2626
705.40 0.2624
705.50 0.2623
705.60 0.2622
705.70 0.262
705.80 0.2619
705.90 0.2617
706.00 0.2616
706.10 0.2614
706.20 0.2613
706.30 0.2611
706.40 0.261
706.50 0.2609
706.60 0.2607
706.70 0.2606
706.80 0.2604
706.90 0.2603
707.00 0.2601
707.10 0.26
707.20 0.2599
707.30 0.2597
707.40 0.2596
707.50 0.2594
707.60 0.2593
707.70 0.2591
707.80 0.259
707.90 0.2589
708.00 0.2587
708.10 0.2586
708.20 0.2584
708.30 0.2583
708.40 0.2581
708.50 0.258
708.60 0.2579
708.70 0.2577
708.80 0.2576
708.90 0.2574
709.00 0.2573
709.10 0.2571
709.20 0.257
709.30 0.2569
709.40 0.2567
709.50 0.2566
709.60 0.2564
709.70 0.2563
709.80 0.2562
709.90 0.256
710.00 0.2559
710.10 0.2557
710.20 0.2556
710.30 0.2555
710.40 0.2553
710.50 0.2552
710.60 0.255
710.70 0.2549
710.80 0.2548
710.90 0.2546
711.00 0.2545
711.10 0.2543
711.20 0.2542
711.30 0.2541
711.40 0.2539
711.50 0.2538
711.60 0.2536
711.70 0.2535
711.80 0.2534
711.90 0.2532
712.00 0.2531
712.10 0.253
712.20 0.2528
712.30 0.2527
712.40 0.2525
712.50 0.2524
712.60 0.2523
712.70 0.2521
712.80 0.252
712.90 0.2519
713.00 0.2517
713.10 0.2516
713.20 0.2514
713.30 0.2513
713.40 0.2512
713.50 0.251
713.60 0.2509
713.70 0.2508
713.80 0.2506
713.90 0.2505
714.00 0.2503
714.10 0.2502
714.20 0.2501
714.30 0.2499
714.40 0.2498
714.50 0.2497
714.60 0.2495
714.70 0.2494
714.80 0.2492
714.90 0.2491
715.00 0.249
715.10 0.2488
715.20 0.2487
715.30 0.2486
715.40 0.2484
715.50 0.2483
715.60 0.2482
715.70 0.248
715.80 0.2479
715.90 0.2478
716.00 0.2476
716.10 0.2475
716.20 0.2474
716.30 0.2472
716.40 0.2471
716.50 0.247
716.60 0.2468
716.70 0.2467
716.80 0.2466
716.90 0.2464
717.00 0.2463
717.10 0.2461
717.20 0.246
717.30 0.2459
717.40 0.2457
717.50 0.2456
717.60 0.2455
717.70 0.2453
717.80 0.2452
717.90 0.2451
718.00 0.2449
718.10 0.2448
718.20 0.2447
718.30 0.2445
718.40 0.2444
718.50 0.2443
718.60 0.2442
718.70 0.244
718.80 0.2439
718.90 0.2438
719.00 0.2436
719.10 0.2435
719.20 0.2434
719.30 0.2432
719.40 0.2431
719.50 0.243
719.60 0.2428
719.70 0.2427
719.80 0.2426
719.90 0.2424
720.00 0.2423
720.10 0.2422
720.20 0.242
720.30 0.2419
720.40 0.2418
720.50 0.2416
720.60 0.2415
720.70 0.2414
720.80 0.2413
720.90 0.2411
721.00 0.241
721.10 0.2409
721.20 0.2407
721.30 0.2406
721.40 0.2405
721.50 0.2403
721.60 0.2402
721.70 0.2401
721.80 0.24
721.90 0.2398
722.00 0.2397
722.10 0.2396
722.20 0.2394
722.30 0.2393
722.40 0.2392
722.50 0.2391
722.60 0.2389
722.70 0.2388
722.80 0.2387
722.90 0.2385
723.00 0.2384
723.10 0.2383
723.20 0.2382
723.30 0.238
723.40 0.2379
723.50 0.2378
723.60 0.2376
723.70 0.2375
723.80 0.2374
723.90 0.2373
724.00 0.2371
724.10 0.237
724.20 0.2369
724.30 0.2367
724.40 0.2366
724.50 0.2365
724.60 0.2364
724.70 0.2362
724.80 0.2361
724.90 0.236
725.00 0.2358
725.10 0.2357
725.20 0.2356
725.30 0.2355
725.40 0.2353
725.50 0.2352
725.60 0.2351
725.70 0.235
725.80 0.2348
725.90 0.2347
726.00 0.2346
726.10 0.2345
726.20 0.2343
726.30 0.2342
726.40 0.2341
726.50 0.234
726.60 0.2338
726.70 0.2337
726.80 0.2336
726.90 0.2335
727.00 0.2333
727.10 0.2332
727.20 0.2331
727.30 0.233
727.40 0.2328
727.50 0.2327
727.60 0.2326
727.70 0.2325
727.80 0.2323
727.90 0.2322
728.00 0.2321
728.10 0.232
728.20 0.2318
728.30 0.2317
728.40 0.2316
728.50 0.2315
728.60 0.2313
728.70 0.2312
728.80 0.2311
728.90 0.231
729.00 0.2308
729.10 0.2307
729.20 0.2306
729.30 0.2305
729.40 0.2304
729.50 0.2302
729.60 0.2301
729.70 0.23
729.80 0.2299
729.90 0.2297
730.00 0.2296
730.10 0.2295
730.20 0.2294
730.30 0.2292
730.40 0.2291
730.50 0.229
730.60 0.2289
730.70 0.2288
730.80 0.2286
730.90 0.2285
731.00 0.2284
731.10 0.2283
731.20 0.2282
731.30 0.228
731.40 0.2279
731.50 0.2278
731.60 0.2277
731.70 0.2276
731.80 0.2274
731.90 0.2273
732.00 0.2272
732.10 0.2271
732.20 0.227
732.30 0.2268
732.40 0.2267
732.50 0.2266
732.60 0.2265
732.70 0.2264
732.80 0.2262
732.90 0.2261
733.00 0.226
733.10 0.2259
733.20 0.2258
733.30 0.2256
733.40 0.2255
733.50 0.2254
733.60 0.2253
733.70 0.2252
733.80 0.225
733.90 0.2249
734.00 0.2248
734.10 0.2247
734.20 0.2246
734.30 0.2244
734.40 0.2243
734.50 0.2242
734.60 0.2241
734.70 0.224
734.80 0.2238
734.90 0.2237
735.00 0.2236
735.10 0.2235
735.20 0.2234
735.30 0.2233
735.40 0.2231
735.50 0.223
735.60 0.2229
735.70 0.2228
735.80 0.2227
735.90 0.2225
736.00 0.2224
736.10 0.2223
736.20 0.2222
736.30 0.2221
736.40 0.222
736.50 0.2218
736.60 0.2217
736.70 0.2216
736.80 0.2215
736.90 0.2214
737.00 0.2212
737.10 0.2211
737.20 0.221
737.30 0.2209
737.40 0.2208
737.50 0.2207
737.60 0.2205
737.70 0.2204
737.80 0.2203
737.90 0.2202
738.00 0.2201
738.10 0.22
738.20 0.2198
738.30 0.2197
738.40 0.2196
738.50 0.2195
738.60 0.2194
738.70 0.2193
738.80 0.2191
738.90 0.219
739.00 0.2189
739.10 0.2188
739.20 0.2187
739.30 0.2186
739.40 0.2184
739.50 0.2183
739.60 0.2182
739.70 0.2181
739.80 0.218
739.90 0.2179
740.00 0.2177
740.10 0.2176
740.20 0.2175
740.30 0.2174
740.40 0.2173
740.50 0.2172
740.60 0.2171
740.70 0.217
740.80 0.2168
740.90 0.2167
741.00 0.2166
741.10 0.2165
741.20 0.2164
741.30 0.2163
741.40 0.2162
741.50 0.216
741.60 0.2159
741.70 0.2158
741.80 0.2157
741.90 0.2156
742.00 0.2155
742.10 0.2154
742.20 0.2153
742.30 0.2151
742.40 0.215
742.50 0.2149
742.60 0.2148
742.70 0.2147
742.80 0.2146
742.90 0.2145
743.00 0.2144
743.10 0.2143
743.20 0.2141
743.30 0.214
743.40 0.2139
743.50 0.2138
743.60 0.2137
743.70 0.2136
743.80 0.2135
743.90 0.2134
744.00 0.2132
744.10 0.2131
744.20 0.213
744.30 0.2129
744.40 0.2128
744.50 0.2127
744.60 0.2126
744.70 0.2125
744.80 0.2124
744.90 0.2122
745.00 0.2121
745.10 0.212
745.20 0.2119
745.30 0.2118
745.40 0.2117
745.50 0.2116
745.60 0.2115
745.70 0.2114
745.80 0.2112
745.90 0.2111
746.00 0.211
746.10 0.2109
746.20 0.2108
746.30 0.2107
746.40 0.2106
746.50 0.2105
746.60 0.2104
746.70 0.2103
746.80 0.2101
746.90 0.21
747.00 0.2099
747.10 0.2098
747.20 0.2097
747.30 0.2096
747.40 0.2095
747.50 0.2094
747.60 0.2093
747.70 0.2092
747.80 0.209
747.90 0.2089
748.00 0.2088
748.10 0.2087
748.20 0.2086
748.30 0.2085
748.40 0.2084
748.50 0.2083
748.60 0.2082
748.70 0.2081
748.80 0.2079
748.90 0.2078
749.00 0.2077
749.10 0.2076
749.20 0.2075
749.30 0.2074
749.40 0.2073
749.50 0.2072
749.60 0.2071
749.70 0.207
749.80 0.2069
749.90 0.2068
750.00 0.2066
750.10 0.2065
750.20 0.2064
750.30 0.2063
750.40 0.2062
750.50 0.2061
750.60 0.206
750.70 0.2059
750.80 0.2058
750.90 0.2057
751.00 0.2056
751.10 0.2055
751.20 0.2054
751.30 0.2053
751.40 0.2052
751.50 0.2051
751.60 0.2049
751.70 0.2048
751.80 0.2047
751.90 0.2046
752.00 0.2045
752.10 0.2044
752.20 0.2043
752.30 0.2042
752.40 0.2041
752.50 0.204
752.60 0.2039
752.70 0.2038
752.80 0.2037
752.90 0.2036
753.00 0.2035
753.10 0.2034
753.20 0.2033
753.30 0.2032
753.40 0.2031
753.50 0.2029
753.60 0.2028
753.70 0.2027
753.80 0.2026
753.90 0.2025
754.00 0.2024
754.10 0.2023
754.20 0.2022
754.30 0.2021
754.40 0.202
754.50 0.2019
754.60 0.2018
754.70 0.2017
754.80 0.2016
754.90 0.2015
755.00 0.2014
755.10 0.2013
755.20 0.2012
755.30 0.2011
755.40 0.201
755.50 0.2009
755.60 0.2008
755.70 0.2007
755.80 0.2005
755.90 0.2004
756.00 0.2003
756.10 0.2002
756.20 0.2001
756.30 0.2
756.40 0.1999
756.50 0.1998
756.60 0.1997
756.70 0.1996
756.80 0.1995
756.90 0.1994
757.00 0.1993
757.10 0.1992
757.20 0.1991
757.30 0.199
757.40 0.1989
757.50 0.1988
757.60 0.1987
757.70 0.1986
757.80 0.1985
757.90 0.1984
758.00 0.1983
758.10 0.1982
758.20 0.1981
758.30 0.198
758.40 0.1979
758.50 0.1978
758.60 0.1977
758.70 0.1976
758.80 0.1975
758.90 0.1974
759.00 0.1973
759.10 0.1972
759.20 0.1971
759.30 0.1969
759.40 0.1968
759.50 0.1967
759.60 0.1966
759.70 0.1965
759.80 0.1964
759.90 0.1963
760.00 0.1962
760.10 0.1961
760.20 0.196
760.30 0.1959
760.40 0.1958
760.50 0.1957
760.60 0.1956
760.70 0.1955
760.80 0.1954
760.90 0.1953
761.00 0.1952
761.10 0.1951
761.20 0.195
761.30 0.1949
761.40 0.1948
761.50 0.1947
761.60 0.1946
761.70 0.1945
761.80 0.1944
761.90 0.1943
762.00 0.1942
762.10 0.1942
762.20 0.1941
762.30 0.194
762.40 0.1939
762.50 0.1938
762.60 0.1937
762.70 0.1936
762.80 0.1935
762.90 0.1934
763.00 0.1933
763.10 0.1932
763.20 0.1931
763.30 0.193
763.40 0.1929
763.50 0.1928
763.60 0.1927
763.70 0.1926
763.80 0.1925
763.90 0.1924
764.00 0.1923
764.10 0.1922
764.20 0.1921
764.30 0.192
764.40 0.1919
764.50 0.1918
764.60 0.1917
764.70 0.1916
764.80 0.1915
764.90 0.1914
765.00 0.1913
765.10 0.1912
765.20 0.1911
765.30 0.191
765.40 0.1909
765.50 0.1908
765.60 0.1907
765.70 0.1906
765.80 0.1905
765.90 0.1904
766.00 0.1903
766.10 0.1902
766.20 0.1901
766.30 0.19
766.40 0.1899
766.50 0.1898
766.60 0.1897
766.70 0.1897
766.80 0.1896
766.90 0.1895
767.00 0.1894
767.10 0.1893
767.20 0.1892
767.30 0.1891
767.40 0.189
767.50 0.1889
767.60 0.1888
767.70 0.1887
767.80 0.1886
767.90 0.1885
768.00 0.1884
768.10 0.1883
768.20 0.1882
768.30 0.1881
768.40 0.188
768.50 0.1879
768.60 0.1878
768.70 0.1877
768.80 0.1876
768.90 0.1875
769.00 0.1874
769.10 0.1873
769.20 0.1872
769.30 0.1871
769.40 0.1871
769.50 0.187
769.60 0.1869
769.70 0.1868
769.80 0.1867
769.90 0.1866
770.00 0.1865
770.10 0.1864
770.20 0.1863
770.30 0.1862
770.40 0.1861
770.50 0.186
770.60 0.1859
770.70 0.1858
770.80 0.1857
770.90 0.1856
771.00 0.1855
771.10 0.1855
771.20 0.1854
771.30 0.1853
771.40 0.1852
771.50 0.1851
771.60 0.185
771.70 0.1849
771.80 0.1848
771.90 0.1847
772.00 0.1846
772.10 0.1845
772.20 0.1844
772.30 0.1843
772.40 0.1842
772.50 0.1842
772.60 0.1841
772.70 0.184
772.80 0.1839
772.90 0.1838
773.00 0.1837
773.10 0.1836
773.20 0.1835
773.30 0.1834
773.40 0.1833
773.50 0.1832
773.60 0.1831
773.70 0.183
773.80 0.183
773.90 0.1829
774.00 0.1828
774.10 0.1827
774.20 0.1826
774.30 0.1825
774.40 0.1824
774.50 0.1823
774.60 0.1822
774.70 0.1821
774.80 0.182
774.90 0.1819
775.00 0.1819
775.10 0.1818
775.20 0.1817
775.30 0.1816
775.40 0.1815
775.50 0.1814
775.60 0.1813
775.70 0.1812
775.80 0.1811
775.90 0.181
776.00 0.1809
776.10 0.1808
776.20 0.1808
776.30 0.1807
776.40 0.1806
776.50 0.1805
776.60 0.1804
776.70 0.1803
776.80 0.1802
776.90 0.1801
777.00 0.18
777.10 0.1799
777.20 0.1798
777.30 0.1798
777.40 0.1797
777.50 0.1796
777.60 0.1795
777.70 0.1794
777.80 0.1793
777.90 0.1792
778.00 0.1791
778.10 0.179
778.20 0.1789
778.30 0.1789
778.40 0.1788
778.50 0.1787
778.60 0.1786
778.70 0.1785
778.80 0.1784
778.90 0.1783
779.00 0.1782
779.10 0.1781
779.20 0.178
779.30 0.178
779.40 0.1779
779.50 0.1778
779.60 0.1777
779.70 0.1776
779.80 0.1775
779.90 0.1774
780.00 0.1773
780.10 0.1772
780.20 0.1771
780.30 0.1771
780.40 0.177
780.50 0.1769
780.60 0.1768
780.70 0.1767
780.80 0.1766
780.90 0.1765
781.00 0.1764
781.10 0.1764
781.20 0.1763
781.30 0.1762
781.40 0.1761
781.50 0.176
781.60 0.1759
781.70 0.1758
781.80 0.1757
781.90 0.1757
782.00 0.1756
782.10 0.1755
782.20 0.1754
782.30 0.1753
782.40 0.1752
782.50 0.1751
782.60 0.1751
782.70 0.175
782.80 0.1749
782.90 0.1748
783.00 0.1747
783.10 0.1746
783.20 0.1745
783.30 0.1744
783.40 0.1744
783.50 0.1743
783.60 0.1742
783.70 0.1741
783.80 0.174
783.90 0.1739
784.00 0.1738
784.10 0.1738
784.20 0.1737
784.30 0.1736
784.40 0.1735
784.50 0.1734
784.60 0.1733
784.70 0.1732
784.80 0.1731
784.90 0.1731
785.00 0.173
785.10 0.1729
785.20 0.1728
785.30 0.1727
785.40 0.1726
785.50 0.1725
785.60 0.1725
785.70 0.1724
785.80 0.1723
785.90 0.1722
786.00 0.1721
786.10 0.172
786.20 0.1719
786.30 0.1719
786.40 0.1718
786.50 0.1717
786.60 0.1716
786.70 0.1715
786.80 0.1714
786.90 0.1713
787.00 0.1713
787.10 0.1712
787.20 0.1711
787.30 0.171
787.40 0.1709
787.50 0.1708
787.60 0.1708
787.70 0.1707
787.80 0.1706
787.90 0.1705
788.00 0.1704
788.10 0.1703
788.20 0.1702
788.30 0.1702
788.40 0.1701
788.50 0.17
788.60 0.1699
788.70 0.1698
788.80 0.1697
788.90 0.1697
789.00 0.1696
789.10 0.1695
789.20 0.1694
789.30 0.1693
789.40 0.1692
789.50 0.1691
789.60 0.1691
789.70 0.169
789.80 0.1689
789.90 0.1688
790.00 0.1687
790.10 0.1686
790.20 0.1686
790.30 0.1685
790.40 0.1684
790.50 0.1683
790.60 0.1682
790.70 0.1681
790.80 0.1681
790.90 0.168
791.00 0.1679
791.10 0.1678
791.20 0.1677
791.30 0.1677
791.40 0.1676
791.50 0.1675
791.60 0.1674
791.70 0.1673
791.80 0.1672
791.90 0.1672
792.00 0.1671
792.10 0.167
792.20 0.1669
792.30 0.1668
792.40 0.1668
792.50 0.1667
792.60 0.1666
792.70 0.1665
792.80 0.1664
792.90 0.1663
793.00 0.1663
793.10 0.1662
793.20 0.1661
793.30 0.166
793.40 0.1659
793.50 0.1659
793.60 0.1658
793.70 0.1657
793.80 0.1656
793.90 0.1655
794.00 0.1654
794.10 0.1654
794.20 0.1653
794.30 0.1652
794.40 0.1651
794.50 0.165
794.60 0.165
794.70 0.1649
794.80 0.1648
794.90 0.1647
795.00 0.1646
795.10 0.1646
795.20 0.1645
795.30 0.1644
795.40 0.1643
795.50 0.1642
795.60 0.1642
795.70 0.1641
795.80 0.164
795.90 0.1639
796.00 0.1638
796.10 0.1637
796.20 0.1637
796.30 0.1636
796.40 0.1635
796.50 0.1634
796.60 0.1633
796.70 0.1633
796.80 0.1632
796.90 0.1631
797.00 0.163
797.10 0.1629
797.20 0.1629
797.30 0.1628
797.40 0.1627
797.50 0.1626
797.60 0.1625
797.70 0.1625
797.80 0.1624
797.90 0.1623
798.00 0.1622
798.10 0.1621
798.20 0.1621
798.30 0.162
798.40 0.1619
798.50 0.1618
798.60 0.1617
798.70 0.1617
798.80 0.1616
798.90 0.1615
799.00 0.1614
799.10 0.1614
799.20 0.1613
799.30 0.1612
799.40 0.1611
799.50 0.161
799.60 0.161
799.70 0.1609
799.80 0.1608
799.90 0.1607
800.00 0.1606
800.10 0.1606
800.20 0.1605
800.30 0.1604
800.40 0.1603
800.50 0.1603
800.60 0.1602
800.70 0.1601
800.80 0.16
800.90 0.1599
801.00 0.1599
801.10 0.1598
801.20 0.1597
801.30 0.1596
801.40 0.1596
801.50 0.1595
801.60 0.1594
801.70 0.1593
801.80 0.1592
801.90 0.1592
802.00 0.1591
802.10 0.159
802.20 0.1589
802.30 0.1589
802.40 0.1588
802.50 0.1587
802.60 0.1586
802.70 0.1586
802.80 0.1585
802.90 0.1584
803.00 0.1583
803.10 0.1582
803.20 0.1582
803.30 0.1581
803.40 0.158
803.50 0.1579
803.60 0.1579
803.70 0.1578
803.80 0.1577
803.90 0.1576
804.00 0.1576
804.10 0.1575
804.20 0.1574
804.30 0.1573
804.40 0.1573
804.50 0.1572
804.60 0.1571
804.70 0.157
804.80 0.1569
804.90 0.1569
805.00 0.1568
805.10 0.1567
805.20 0.1566
805.30 0.1566
805.40 0.1565
805.50 0.1564
805.60 0.1563
805.70 0.1563
805.80 0.1562
805.90 0.1561
806.00 0.156
806.10 0.156
806.20 0.1559
806.30 0.1558
806.40 0.1557
806.50 0.1557
806.60 0.1556
806.70 0.1555
806.80 0.1554
806.90 0.1554
807.00 0.1553
807.10 0.1552
807.20 0.1551
807.30 0.1551
807.40 0.155
807.50 0.1549
807.60 0.1548
807.70 0.1548
807.80 0.1547
807.90 0.1546
808.00 0.1545
808.10 0.1545
808.20 0.1544
808.30 0.1543
808.40 0.1542
808.50 0.1542
808.60 0.1541
808.70 0.154
808.80 0.1539
808.90 0.1539
809.00 0.1538
809.10 0.1537
809.20 0.1536
809.30 0.1536
809.40 0.1535
809.50 0.1534
809.60 0.1533
809.70 0.1533
809.80 0.1532
809.90 0.1531
810.00 0.153
810.10 0.153
810.20 0.1529
810.30 0.1528
810.40 0.1527
810.50 0.1527
810.60 0.1526
810.70 0.1525
810.80 0.1525
810.90 0.1524
811.00 0.1523
811.10 0.1522
811.20 0.1522
811.30 0.1521
811.40 0.152
811.50 0.1519
811.60 0.1519
811.70 0.1518
811.80 0.1517
811.90 0.1517
812.00 0.1516
812.10 0.1515
812.20 0.1514
812.30 0.1514
812.40 0.1513
812.50 0.1512
812.60 0.1511
812.70 0.1511
812.80 0.151
812.90 0.1509
813.00 0.1509
813.10 0.1508
813.20 0.1507
813.30 0.1506
813.40 0.1506
813.50 0.1505
813.60 0.1504
813.70 0.1504
813.80 0.1503
813.90 0.1502
814.00 0.1501
814.10 0.1501
814.20 0.15
814.30 0.1499
814.40 0.1498
814.50 0.1498
814.60 0.1497
814.70 0.1496
814.80 0.1496
814.90 0.1495
815.00 0.1494
815.10 0.1493
815.20 0.1493
815.30 0.1492
815.40 0.1491
815.50 0.1491
815.60 0.149
815.70 0.1489
815.80 0.1488
815.90 0.1488
816.00 0.1487
816.10 0.1486
816.20 0.1486
816.30 0.1485
816.40 0.1484
816.50 0.1483
816.60 0.1483
816.70 0.1482
816.80 0.1481
816.90 0.1481
817.00 0.148
817.10 0.1479
817.20 0.1479
817.30 0.1478
817.40 0.1477
817.50 0.1476
817.60 0.1476
817.70 0.1475
817.80 0.1474
817.90 0.1474
818.00 0.1473
818.10 0.1472
818.20 0.1471
818.30 0.1471
818.40 0.147
818.50 0.1469
818.60 0.1469
818.70 0.1468
818.80 0.1467
818.90 0.1466
819.00 0.1466
819.10 0.1465
819.20 0.1464
819.30 0.1464
819.40 0.1463
819.50 0.1462
819.60 0.1462
819.70 0.1461
819.80 0.146
819.90 0.1459
820.00 0.1459
820.10 0.1458
820.20 0.1457
820.30 0.1457
820.40 0.1456
820.50 0.1455
820.60 0.1455
820.70 0.1454
820.80 0.1453
820.90 0.1453
821.00 0.1452
821.10 0.1451
821.20 0.145
821.30 0.145
821.40 0.1449
821.50 0.1448
821.60 0.1448
821.70 0.1447
821.80 0.1446
821.90 0.1446
822.00 0.1445
822.10 0.1444
822.20 0.1444
822.30 0.1443
822.40 0.1442
822.50 0.1442
822.60 0.1441
822.70 0.144
822.80 0.1439
822.90 0.1439
823.00 0.1438
823.10 0.1437
823.20 0.1437
823.30 0.1436
823.40 0.1435
823.50 0.1435
823.60 0.1434
823.70 0.1433
823.80 0.1433
823.90 0.1432
824.00 0.1431
824.10 0.1431
824.20 0.143
824.30 0.1429
824.40 0.1429
824.50 0.1428
824.60 0.1427
824.70 0.1427
824.80 0.1426
824.90 0.1425
825.00 0.1425
825.10 0.1424
825.20 0.1423
825.30 0.1423
825.40 0.1422
825.50 0.1421
825.60 0.1421
825.70 0.142
825.80 0.1419
825.90 0.1419
826.00 0.1418
826.10 0.1417
826.20 0.1416
826.30 0.1416
826.40 0.1415
826.50 0.1414
826.60 0.1414
826.70 0.1413
826.80 0.1412
826.90 0.1412
827.00 0.1411
827.10 0.141
827.20 0.141
827.30 0.1409
827.40 0.1408
827.50 0.1408
827.60 0.1407
827.70 0.1406
827.80 0.1406
827.90 0.1405
828.00 0.1405
828.10 0.1404
828.20 0.1403
828.30 0.1403
828.40 0.1402
828.50 0.1401
828.60 0.1401
828.70 0.14
828.80 0.1399
828.90 0.1399
829.00 0.1398
829.10 0.1397
829.20 0.1397
829.30 0.1396
829.40 0.1395
829.50 0.1395
829.60 0.1394
829.70 0.1393
829.80 0.1393
829.90 0.1392
830.00 0.1391
830.10 0.1391
830.20 0.139
830.30 0.1389
830.40 0.1389
830.50 0.1388
830.60 0.1387
830.70 0.1387
830.80 0.1386
830.90 0.1385
831.00 0.1385
831.10 0.1384
831.20 0.1384
831.30 0.1383
831.40 0.1382
831.50 0.1382
831.60 0.1381
831.70 0.138
831.80 0.138
831.90 0.1379
832.00 0.1378
832.10 0.1378
832.20 0.1377
832.30 0.1376
832.40 0.1376
832.50 0.1375
832.60 0.1374
832.70 0.1374
832.80 0.1373
832.90 0.1373
833.00 0.1372
833.10 0.1371
833.20 0.1371
833.30 0.137
833.40 0.1369
833.50 0.1369
833.60 0.1368
833.70 0.1367
833.80 0.1367
833.90 0.1366
834.00 0.1365
834.10 0.1365
834.20 0.1364
834.30 0.1364
834.40 0.1363
834.50 0.1362
834.60 0.1362
834.70 0.1361
834.80 0.136
834.90 0.136
835.00 0.1359
835.10 0.1358
835.20 0.1358
835.30 0.1357
835.40 0.1357
835.50 0.1356
835.60 0.1355
835.70 0.1355
835.80 0.1354
835.90 0.1353
836.00 0.1353
836.10 0.1352
836.20 0.1351
836.30 0.1351
836.40 0.135
836.50 0.135
836.60 0.1349
836.70 0.1348
836.80 0.1348
836.90 0.1347
837.00 0.1346
837.10 0.1346
837.20 0.1345
837.30 0.1345
837.40 0.1344
837.50 0.1343
837.60 0.1343
837.70 0.1342
837.80 0.1341
837.90 0.1341
838.00 0.134
838.10 0.134
838.20 0.1339
838.30 0.1338
838.40 0.1338
838.50 0.1337
838.60 0.1336
838.70 0.1336
838.80 0.1335
838.90 0.1335
839.00 0.1334
839.10 0.1333
839.20 0.1333
839.30 0.1332
839.40 0.1331
839.50 0.1331
839.60 0.133
839.70 0.133
839.80 0.1329
839.90 0.1328
840.00 0.1328
840.10 0.1327
840.20 0.1327
840.30 0.1326
840.40 0.1325
840.50 0.1325
840.60 0.1324
840.70 0.1323
840.80 0.1323
840.90 0.1322
841.00 0.1322
841.10 0.1321
841.20 0.132
841.30 0.132
841.40 0.1319
841.50 0.1318
841.60 0.1318
841.70 0.1317
841.80 0.1317
841.90 0.1316
842.00 0.1315
842.10 0.1315
842.20 0.1314
842.30 0.1314
842.40 0.1313
842.50 0.1312
842.60 0.1312
842.70 0.1311
842.80 0.1311
842.90 0.131
843.00 0.1309
843.10 0.1309
843.20 0.1308
843.30 0.1308
843.40 0.1307
843.50 0.1306
843.60 0.1306
843.70 0.1305
843.80 0.1305
843.90 0.1304
844.00 0.1303
844.10 0.1303
844.20 0.1302
844.30 0.1302
844.40 0.1301
844.50 0.13
844.60 0.13
844.70 0.1299
844.80 0.1299
844.90 0.1298
845.00 0.1297
845.10 0.1297
845.20 0.1296
845.30 0.1295
845.40 0.1295
845.50 0.1294
845.60 0.1294
845.70 0.1293
845.80 0.1293
845.90 0.1292
846.00 0.1291
846.10 0.1291
846.20 0.129
846.30 0.129
846.40 0.1289
846.50 0.1288
846.60 0.1288
846.70 0.1287
846.80 0.1287
846.90 0.1286
847.00 0.1285
847.10 0.1285
847.20 0.1284
847.30 0.1284
847.40 0.1283
847.50 0.1282
847.60 0.1282
847.70 0.1281
847.80 0.1281
847.90 0.128
848.00 0.1279
848.10 0.1279
848.20 0.1278
848.30 0.1278
848.40 0.1277
848.50 0.1277
848.60 0.1276
848.70 0.1275
848.80 0.1275
848.90 0.1274
849.00 0.1274
849.10 0.1273
849.20 0.1272
849.30 0.1272
849.40 0.1271
849.50 0.1271
849.60 0.127
849.70 0.1269
849.80 0.1269
849.90 0.1268
850.00 0.1268
850.10 0.1267
850.20 0.1267
850.30 0.1266
850.40 0.1265
850.50 0.1265
850.60 0.1264
850.70 0.1264
850.80 0.1263
850.90 0.1262
851.00 0.1262
851.10 0.1261
851.20 0.1261
851.30 0.126
851.40 0.126
851.50 0.1259
851.60 0.1258
851.70 0.1258
851.80 0.1257
851.90 0.1257
852.00 0.1256
852.10 0.1256
852.20 0.1255
852.30 0.1254
852.40 0.1254
852.50 0.1253
852.60 0.1253
852.70 0.1252
852.80 0.1252
852.90 0.1251
853.00 0.125
853.10 0.125
853.20 0.1249
853.30 0.1249
853.40 0.1248
853.50 0.1248
853.60 0.1247
853.70 0.1246
853.80 0.1246
853.90 0.1245
854.00 0.1245
854.10 0.1244
854.20 0.1244
854.30 0.1243
854.40 0.1242
854.50 0.1242
854.60 0.1241
854.70 0.1241
854.80 0.124
854.90 0.124
855.00 0.1239
855.10 0.1238
855.20 0.1238
855.30 0.1237
855.40 0.1237
855.50 0.1236
855.60 0.1236
855.70 0.1235
855.80 0.1234
855.90 0.1234
856.00 0.1233
856.10 0.1233
856.20 0.1232
856.30 0.1232
856.40 0.1231
856.50 0.1231
856.60 0.123
856.70 0.1229
856.80 0.1229
856.90 0.1228
857.00 0.1228
857.10 0.1227
857.20 0.1227
857.30 0.1226
857.40 0.1225
857.50 0.1225
857.60 0.1224
857.70 0.1224
857.80 0.1223
857.90 0.1223
858.00 0.1222
858.10 0.1222
858.20 0.1221
858.30 0.122
858.40 0.122
858.50 0.1219
858.60 0.1219
858.70 0.1218
858.80 0.1218
858.90 0.1217
859.00 0.1217
859.10 0.1216
859.20 0.1215
859.30 0.1215
859.40 0.1214
859.50 0.1214
859.60 0.1213
859.70 0.1213
859.80 0.1212
859.90 0.1212
860.00 0.1211
860.10 0.1211
860.20 0.121
860.30 0.1209
860.40 0.1209
860.50 0.1208
860.60 0.1208
860.70 0.1207
860.80 0.1207
860.90 0.1206
861.00 0.1206
861.10 0.1205
861.20 0.1204
861.30 0.1204
861.40 0.1203
861.50 0.1203
861.60 0.1202
861.70 0.1202
861.80 0.1201
861.90 0.1201
862.00 0.12
862.10 0.12
862.20 0.1199
862.30 0.1198
862.40 0.1198
862.50 0.1197
862.60 0.1197
862.70 0.1196
862.80 0.1196
862.90 0.1195
863.00 0.1195
863.10 0.1194
863.20 0.1194
863.30 0.1193
863.40 0.1193
863.50 0.1192
863.60 0.1191
863.70 0.1191
863.80 0.119
863.90 0.119
864.00 0.1189
864.10 0.1189
864.20 0.1188
864.30 0.1188
864.40 0.1187
864.50 0.1187
864.60 0.1186
864.70 0.1186
864.80 0.1185
864.90 0.1184
865.00 0.1184
865.10 0.1183
865.20 0.1183
865.30 0.1182
865.40 0.1182
865.50 0.1181
865.60 0.1181
865.70 0.118
865.80 0.118
865.90 0.1179
866.00 0.1179
866.10 0.1178
866.20 0.1178
866.30 0.1177
866.40 0.1176
866.50 0.1176
866.60 0.1175
866.70 0.1175
866.80 0.1174
866.90 0.1174
867.00 0.1173
867.10 0.1173
867.20 0.1172
867.30 0.1172
867.40 0.1171
867.50 0.1171
867.60 0.117
867.70 0.117
867.80 0.1169
867.90 0.1169
868.00 0.1168
868.10 0.1167
868.20 0.1167
868.30 0.1166
868.40 0.1166
868.50 0.1165
868.60 0.1165
868.70 0.1164
868.80 0.1164
868.90 0.1163
869.00 0.1163
869.10 0.1162
869.20 0.1162
869.30 0.1161
869.40 0.1161
869.50 0.116
869.60 0.116
869.70 0.1159
869.80 0.1159
869.90 0.1158
870.00 0.1158
870.10 0.1157
870.20 0.1157
870.30 0.1156
870.40 0.1155
870.50 0.1155
870.60 0.1154
870.70 0.1154
870.80 0.1153
870.90 0.1153
871.00 0.1152
871.10 0.1152
871.20 0.1151
871.30 0.1151
871.40 0.115
871.50 0.115
871.60 0.1149
871.70 0.1149
871.80 0.1148
871.90 0.1148
872.00 0.1147
872.10 0.1147
872.20 0.1146
872.30 0.1146
872.40 0.1145
872.50 0.1145
872.60 0.1144
872.70 0.1144
872.80 0.1143
872.90 0.1143
873.00 0.1142
873.10 0.1142
873.20 0.1141
873.30 0.1141
873.40 0.114
873.50 0.114
873.60 0.1139
873.70 0.1139
873.80 0.1138
873.90 0.1138
874.00 0.1137
874.10 0.1136
874.20 0.1136
874.30 0.1135
874.40 0.1135
874.50 0.1134
874.60 0.1134
874.70 0.1133
874.80 0.1133
874.90 0.1132
875.00 0.1132
875.10 0.1131
875.20 0.1131
875.30 0.113
875.40 0.113
875.50 0.1129
875.60 0.1129
875.70 0.1128
875.80 0.1128
875.90 0.1127
876.00 0.1127
876.10 0.1126
876.20 0.1126
876.30 0.1125
876.40 0.1125
876.50 0.1124
876.60 0.1124
876.70 0.1123
876.80 0.1123
876.90 0.1122
877.00 0.1122
877.10 0.1121
877.20 0.1121
877.30 0.112
877.40 0.112
877.50 0.1119
877.60 0.1119
877.70 0.1118
877.80 0.1118
877.90 0.1117
878.00 0.1117
878.10 0.1116
878.20 0.1116
878.30 0.1115
878.40 0.1115
878.50 0.1114
878.60 0.1114
878.70 0.1113
878.80 0.1113
878.90 0.1112
879.00 0.1112
879.10 0.1111
879.20 0.1111
879.30 0.111
879.40 0.111
879.50 0.1109
879.60 0.1109
879.70 0.1108
879.80 0.1108
879.90 0.1107
880.00 0.1107
880.10 0.1107
880.20 0.1106
880.30 0.1106
880.40 0.1105
880.50 0.1105
880.60 0.1104
880.70 0.1104
880.80 0.1103
880.90 0.1103
881.00 0.1102
881.10 0.1102
881.20 0.1101
881.30 0.1101
881.40 0.11
881.50 0.11
881.60 0.1099
881.70 0.1099
881.80 0.1098
881.90 0.1098
882.00 0.1097
882.10 0.1097
882.20 0.1096
882.30 0.1096
882.40 0.1095
882.50 0.1095
882.60 0.1094
882.70 0.1094
882.80 0.1093
882.90 0.1093
883.00 0.1092
883.10 0.1092
883.20 0.1091
883.30 0.1091
883.40 0.109
883.50 0.109
883.60 0.109
883.70 0.1089
883.80 0.1089
883.90 0.1088
884.00 0.1088
884.10 0.1087
884.20 0.1087
884.30 0.1086
884.40 0.1086
884.50 0.1085
884.60 0.1085
884.70 0.1084
884.80 0.1084
884.90 0.1083
885.00 0.1083
885.10 0.1082
885.20 0.1082
885.30 0.1081
885.40 0.1081
885.50 0.108
885.60 0.108
885.70 0.1079
885.80 0.1079
885.90 0.1079
886.00 0.1078
886.10 0.1078
886.20 0.1077
886.30 0.1077
886.40 0.1076
886.50 0.1076
886.60 0.1075
886.70 0.1075
886.80 0.1074
886.90 0.1074
887.00 0.1073
887.10 0.1073
887.20 0.1072
887.30 0.1072
887.40 0.1071
887.50 0.1071
887.60 0.107
887.70 0.107
887.80 0.107
887.90 0.1069
888.00 0.1069
888.10 0.1068
888.20 0.1068
888.30 0.1067
888.40 0.1067
888.50 0.1066
888.60 0.1066
888.70 0.1065
888.80 0.1065
888.90 0.1064
889.00 0.1064
889.10 0.1063
889.20 0.1063
889.30 0.1062
889.40 0.1062
889.50 0.1062
889.60 0.1061
889.70 0.1061
889.80 0.106
889.90 0.106
890.00 0.1059
890.10 0.1059
890.20 0.1058
890.30 0.1058
890.40 0.1057
890.50 0.1057
890.60 0.1056
890.70 0.1056
890.80 0.1055
890.90 0.1055
891.00 0.1055
891.10 0.1054
891.20 0.1054
891.30 0.1053
891.40 0.1053
891.50 0.1052
891.60 0.1052
891.70 0.1051
891.80 0.1051
891.90 0.105
892.00 0.105
892.10 0.1049
892.20 0.1049
892.30 0.1049
892.40 0.1048
892.50 0.1048
892.60 0.1047
892.70 0.1047
892.80 0.1046
892.90 0.1046
893.00 0.1045
893.10 0.1045
893.20 0.1044
893.30 0.1044
893.40 0.1044
893.50 0.1043
893.60 0.1043
893.70 0.1042
893.80 0.1042
893.90 0.1041
894.00 0.1041
894.10 0.104
894.20 0.104
894.30 0.1039
894.40 0.1039
894.50 0.1039
894.60 0.1038
894.70 0.1038
894.80 0.1037
894.90 0.1037
895.00 0.1036
895.10 0.1036
895.20 0.1035
895.30 0.1035
895.40 0.1034
895.50 0.1034
895.60 0.1034
895.70 0.1033
895.80 0.1033
895.90 0.1032
896.00 0.1032
896.10 0.1031
896.20 0.1031
896.30 0.103
896.40 0.103
896.50 0.1029
896.60 0.1029
896.70 0.1029
896.80 0.1028
896.90 0.1028
897.00 0.1027
897.10 0.1027
897.20 0.1026
897.30 0.1026
897.40 0.1025
897.50 0.1025
897.60 0.1025
897.70 0.1024
897.80 0.1024
897.90 0.1023
898.00 0.1023
898.10 0.1022
898.20 0.1022
898.30 0.1022
898.40 0.1021
898.50 0.1021
898.60 0.102
898.70 0.102
898.80 0.1019
898.90 0.1019
899.00 0.1018
899.10 0.1018
899.20 0.1018
899.30 0.1017
899.40 0.1017
899.50 0.1016
899.60 0.1016
899.70 0.1015
899.80 0.1015
899.90 0.1015
900.00 0.1014
900.10 0.1014
900.20 0.1013
900.30 0.1013
900.40 0.1012
900.50 0.1012
900.60 0.1011
900.70 0.1011
900.80 0.1011
900.90 0.101
901.00 0.101
901.10 0.1009
901.20 0.1009
901.30 0.1008
901.40 0.1008
901.50 0.1008
901.60 0.1007
901.70 0.1007
901.80 0.1006
901.90 0.1006
902.00 0.1005
902.10 0.1005
902.20 0.1004
902.30 0.1004
902.40 0.1004
902.50 0.1003
902.60 0.1003
902.70 0.1002
902.80 0.1002
902.90 0.1001
903.00 0.1001
903.10 0.1001
903.20 0.1
903.30 0.09997
903.40 0.09993
903.50 0.09988
903.60 0.09984
903.70 0.0998
903.80 0.09975
903.90 0.09971
904.00 0.09967
904.10 0.09962
904.20 0.09958
904.30 0.09954
904.40 0.09949
904.50 0.09945
904.60 0.09941
904.70 0.09936
904.80 0.09932
904.90 0.09928
905.00 0.09923
905.10 0.09919
905.20 0.09915
905.30 0.0991
905.40 0.09906
905.50 0.09902
905.60 0.09897
905.70 0.09893
905.80 0.09889
905.90 0.09885
906.00 0.0988
906.10 0.09876
906.20 0.09872
906.30 0.09867
906.40 0.09863
906.50 0.09859
906.60 0.09854
906.70 0.0985
906.80 0.09846
906.90 0.09842
907.00 0.09837
907.10 0.09833
907.20 0.09829
907.30 0.09825
907.40 0.0982
907.50 0.09816
907.60 0.09812
907.70 0.09808
907.80 0.09803
907.90 0.09799
908.00 0.09795
908.10 0.09791
908.20 0.09787
908.30 0.09782
908.40 0.09778
908.50 0.09774
908.60 0.0977
908.70 0.09766
908.80 0.09761
908.90 0.09757
909.00 0.09753
909.10 0.09749
909.20 0.09745
909.30 0.0974
909.40 0.09736
909.50 0.09732
909.60 0.09728
909.70 0.09724
909.80 0.0972
909.90 0.09715
910.00 0.09711
910.10 0.09707
910.20 0.09703
910.30 0.09699
910.40 0.09694
910.50 0.0969
910.60 0.09686
910.70 0.09682
910.80 0.09678
910.90 0.09674
911.00 0.09669
911.10 0.09665
911.20 0.09661
911.30 0.09657
911.40 0.09653
911.50 0.09649
911.60 0.09645
911.70 0.0964
911.80 0.09636
911.90 0.09632
912.00 0.09628
912.10 0.09624
912.20 0.0962
912.30 0.09616
912.40 0.09611
912.50 0.09607
912.60 0.09603
912.70 0.09599
912.80 0.09595
912.90 0.09591
913.00 0.09587
913.10 0.09583
913.20 0.09579
913.30 0.09575
913.40 0.0957
913.50 0.09566
913.60 0.09562
913.70 0.09558
913.80 0.09554
913.90 0.0955
914.00 0.09546
914.10 0.09542
914.20 0.09538
914.30 0.09534
914.40 0.0953
914.50 0.09526
914.60 0.09521
914.70 0.09517
914.80 0.09513
914.90 0.09509
915.00 0.09505
915.10 0.09501
915.20 0.09497
915.30 0.09493
915.40 0.09489
915.50 0.09485
915.60 0.09481
915.70 0.09477
915.80 0.09473
915.90 0.09469
916.00 0.09465
916.10 0.09461
916.20 0.09457
916.30 0.09452
916.40 0.09448
916.50 0.09444
916.60 0.0944
916.70 0.09436
916.80 0.09432
916.90 0.09428
917.00 0.09424
917.10 0.0942
917.20 0.09416
917.30 0.09412
917.40 0.09408
917.50 0.09404
917.60 0.09401
917.70 0.09397
917.80 0.09393
917.90 0.09389
918.00 0.09385
918.10 0.09381
918.20 0.09377
918.30 0.09373
918.40 0.09369
918.50 0.09365
918.60 0.09361
918.70 0.09357
918.80 0.09353
918.90 0.09349
919.00 0.09346
919.10 0.09342
919.20 0.09338
919.30 0.09334
919.40 0.0933
919.50 0.09326
919.60 0.09322
919.70 0.09318
919.80 0.09314
919.90 0.0931
920.00 0.09306
920.10 0.09303
920.20 0.09299
920.30 0.09295
920.40 0.09291
920.50 0.09287
920.60 0.09283
920.70 0.09279
920.80 0.09275
920.90 0.09271
921.00 0.09267
921.10 0.09264
921.20 0.0926
921.30 0.09256
921.40 0.09252
921.50 0.09248
921.60 0.09244
921.70 0.0924
921.80 0.09236
921.90 0.09233
922.00 0.09229
922.10 0.09225
922.20 0.09221
922.30 0.09217
922.40 0.09213
922.50 0.09209
922.60 0.09205
922.70 0.09201
922.80 0.09197
922.90 0.09193
923.00 0.09189
923.10 0.09186
923.20 0.09182
923.30 0.09178
923.40 0.09174
923.50 0.0917
923.60 0.09166
923.70 0.09162
923.80 0.09158
923.90 0.09154
924.00 0.0915
924.10 0.09146
924.20 0.09143
924.30 0.09139
924.40 0.09135
924.50 0.09131
924.60 0.09127
924.70 0.09123
924.80 0.09119
924.90 0.09115
925.00 0.09111
925.10 0.09108
925.20 0.09104
925.30 0.091
925.40 0.09096
925.50 0.09092
925.60 0.09088
925.70 0.09084
925.80 0.0908
925.90 0.09076
926.00 0.09073
926.10 0.09069
926.20 0.09065
926.30 0.09061
926.40 0.09057
926.50 0.09053
926.60 0.09049
926.70 0.09046
926.80 0.09042
926.90 0.09038
927.00 0.09034
927.10 0.0903
927.20 0.09026
927.30 0.09023
927.40 0.09019
927.50 0.09015
927.60 0.09011
927.70 0.09008
927.80 0.09004
927.90 0.09
928.00 0.08996
928.10 0.08992
928.20 0.08989
928.30 0.08985
928.40 0.08981
928.50 0.08977
928.60 0.08974
928.70 0.0897
928.80 0.08966
928.90 0.08962
929.00 0.08959
929.10 0.08955
929.20 0.08951
929.30 0.08947
929.40 0.08944
929.50 0.0894
929.60 0.08936
929.70 0.08932
929.80 0.08929
929.90 0.08925
930.00 0.08921
930.10 0.08917
930.20 0.08914
930.30 0.0891
930.40 0.08906
930.50 0.08902
930.60 0.08899
930.70 0.08895
930.80 0.08891
930.90 0.08887
931.00 0.08884
931.10 0.0888
931.20 0.08876
931.30 0.08873
931.40 0.08869
931.50 0.08865
931.60 0.08861
931.70 0.08858
931.80 0.08854
931.90 0.0885
932.00 0.08847
932.10 0.08843
932.20 0.08839
932.30 0.08835
932.40 0.08832
932.50 0.08828
932.60 0.08824
932.70 0.08821
932.80 0.08817
932.90 0.08813
933.00 0.0881
933.10 0.08806
933.20 0.08802
933.30 0.08799
933.40 0.08795
933.50 0.08791
933.60 0.08788
933.70 0.08784
933.80 0.0878
933.90 0.08777
934.00 0.08773
934.10 0.08769
934.20 0.08766
934.30 0.08762
934.40 0.08758
934.50 0.08755
934.60 0.08751
934.70 0.08747
934.80 0.08744
934.90 0.0874
935.00 0.08736
935.10 0.08733
935.20 0.08729
935.30 0.08725
935.40 0.08722
935.50 0.08718
935.60 0.08715
935.70 0.08711
935.80 0.08707
935.90 0.08704
936.00 0.087
936.10 0.08696
936.20 0.08693
936.30 0.08689
936.40 0.08685
936.50 0.08682
936.60 0.08678
936.70 0.08675
936.80 0.08671
936.90 0.08667
937.00 0.08664
937.10 0.0866
937.20 0.08656
937.30 0.08653
937.40 0.08649
937.50 0.08646
937.60 0.08642
937.70 0.08638
937.80 0.08635
937.90 0.08631
938.00 0.08628
938.10 0.08624
938.20 0.0862
938.30 0.08617
938.40 0.08613
938.50 0.0861
938.60 0.08606
938.70 0.08602
938.80 0.08599
938.90 0.08595
939.00 0.08592
939.10 0.08588
939.20 0.08584
939.30 0.08581
939.40 0.08577
939.50 0.08574
939.60 0.0857
939.70 0.08566
939.80 0.08563
939.90 0.08559
940.00 0.08556
940.10 0.08552
940.20 0.08549
940.30 0.08545
940.40 0.08541
940.50 0.08538
940.60 0.08534
940.70 0.08531
940.80 0.08527
940.90 0.08524
941.00 0.0852
941.10 0.08516
941.20 0.08513
941.30 0.08509
941.40 0.08506
941.50 0.08502
941.60 0.08499
941.70 0.08495
941.80 0.08492
941.90 0.08488
942.00 0.08484
942.10 0.08481
942.20 0.08477
942.30 0.08474
942.40 0.0847
942.50 0.08467
942.60 0.08463
942.70 0.0846
942.80 0.08456
942.90 0.08452
943.00 0.08449
943.10 0.08445
943.20 0.08442
943.30 0.08438
943.40 0.08435
943.50 0.08431
943.60 0.08428
943.70 0.08424
943.80 0.08421
943.90 0.08417
944.00 0.08414
944.10 0.0841
944.20 0.08406
944.30 0.08403
944.40 0.08399
944.50 0.08396
944.60 0.08392
944.70 0.08389
944.80 0.08385
944.90 0.08382
945.00 0.08378
945.10 0.08375
945.20 0.08371
945.30 0.08368
945.40 0.08364
945.50 0.08361
945.60 0.08357
945.70 0.08354
945.80 0.0835
945.90 0.08347
946.00 0.08343
946.10 0.0834
946.20 0.08336
946.30 0.08333
946.40 0.08329
946.50 0.08326
946.60 0.08322
946.70 0.08319
946.80 0.08315
946.90 0.08312
947.00 0.08308
947.10 0.08305
947.20 0.08301
947.30 0.08298
947.40 0.08294
947.50 0.08291
947.60 0.08288
947.70 0.08284
947.80 0.08281
947.90 0.08277
948.00 0.08274
948.10 0.0827
948.20 0.08267
948.30 0.08263
948.40 0.0826
948.50 0.08256
948.60 0.08253
948.70 0.0825
948.80 0.08246
948.90 0.08243
949.00 0.08239
949.10 0.08236
949.20 0.08232
949.30 0.08229
949.40 0.08225
949.50 0.08222
949.60 0.08219
949.70 0.08215
949.80 0.08212
949.90 0.08209
950.00 0.08205
950.10 0.08202
950.20 0.08198
950.30 0.08195
950.40 0.08192
950.50 0.08188
950.60 0.08185
950.70 0.08181
950.80 0.08178
950.90 0.08175
951.00 0.08171
951.10 0.08168
951.20 0.08165
951.30 0.08161
951.40 0.08158
951.50 0.08155
951.60 0.08151
951.70 0.08148
951.80 0.08145
951.90 0.08141
952.00 0.08138
952.10 0.08135
952.20 0.08132
952.30 0.08128
952.40 0.08125
952.50 0.08122
952.60 0.08119
952.70 0.08115
952.80 0.08112
952.90 0.08109
953.00 0.08106
953.10 0.08103
953.20 0.081
953.30 0.08096
953.40 0.08093
953.50 0.0809
953.60 0.08087
953.70 0.08084
953.80 0.08081
953.90 0.08078
954.00 0.08075
954.10 0.08072
954.20 0.08069
954.30 0.08066
954.40 0.08063
954.50 0.0806
954.60 0.08057
954.70 0.08054
954.80 0.0805
954.90 0.08046
955.00 0.08043
955.10 0.08039
955.20 0.08035
955.30 0.08032
955.40 0.08028
955.50 0.08025
955.60 0.08021
955.70 0.08018
955.80 0.08014
955.90 0.08011
956.00 0.08007
956.10 0.08004
956.20 0.08001
956.30 0.07997
956.40 0.07994
956.50 0.07991
956.60 0.07987
956.70 0.07984
956.80 0.0798
956.90 0.07977
957.00 0.07974
957.10 0.0797
957.20 0.07967
957.30 0.07964
957.40 0.0796
957.50 0.07957
957.60 0.07954
957.70 0.07951
957.80 0.07947
957.90 0.07944
958.00 0.07941
958.10 0.07938
958.20 0.07935
958.30 0.07931
958.40 0.07928
958.50 0.07925
958.60 0.07922
958.70 0.07918
958.80 0.07915
958.90 0.07912
959.00 0.07909
959.10 0.07906
959.20 0.07902
959.30 0.07899
959.40 0.07896
959.50 0.07893
959.60 0.0789
959.70 0.07886
959.80 0.07883
959.90 0.0788
960.00 0.07877
960.10 0.07874
960.20 0.07871
960.30 0.07868
960.40 0.07864
960.50 0.07861
960.60 0.07858
960.70 0.07855
960.80 0.07852
960.90 0.07849
961.00 0.07846
961.10 0.07842
961.20 0.07839
961.30 0.07836
961.40 0.07833
961.50 0.0783
961.60 0.07827
961.70 0.07824
961.80 0.07821
961.90 0.07817
962.00 0.07814
962.10 0.07811
962.20 0.07808
962.30 0.07805
962.40 0.07802
962.50 0.07799
962.60 0.07796
962.70 0.07793
962.80 0.07789
962.90 0.07786
963.00 0.07783
963.10 0.0778
963.20 0.07777
963.30 0.07774
963.40 0.07771
963.50 0.07768
963.60 0.07765
963.70 0.07762
963.80 0.07758
963.90 0.07755
964.00 0.07752
964.10 0.07749
964.20 0.07746
964.30 0.07743
964.40 0.0774
964.50 0.07737
964.60 0.07734
964.70 0.07731
964.80 0.07728
964.90 0.07725
965.00 0.07722
965.10 0.07718
965.20 0.07715
965.30 0.07712
965.40 0.07709
965.50 0.07706
965.60 0.07703
965.70 0.077
965.80 0.07697
965.90 0.07694
966.00 0.07691
966.10 0.07688
966.20 0.07685
966.30 0.07682
966.40 0.07679
966.50 0.07676
966.60 0.07672
966.70 0.07669
966.80 0.07666
966.90 0.07663
967.00 0.0766
967.10 0.07657
967.20 0.07654
967.30 0.07651
967.40 0.07648
967.50 0.07645
967.60 0.07642
967.70 0.07639
967.80 0.07636
967.90 0.07633
968.00 0.0763
968.10 0.07627
968.20 0.07624
968.30 0.07621
968.40 0.07618
968.50 0.07615
968.60 0.07611
968.70 0.07608
968.80 0.07605
968.90 0.07602
969.00 0.07599
969.10 0.07596
969.20 0.07593
969.30 0.0759
969.40 0.07587
969.50 0.07584
969.60 0.07581
969.70 0.07578
969.80 0.07575
969.90 0.07572
970.00 0.07569
970.10 0.07566
970.20 0.07563
970.30 0.0756
970.40 0.07557
970.50 0.07554
970.60 0.07551
970.70 0.07548
970.80 0.07545
970.90 0.07542
971.00 0.07539
971.10 0.07536
971.20 0.07533
971.30 0.0753
971.40 0.07527
971.50 0.07524
971.60 0.07521
971.70 0.07518
971.80 0.07515
971.90 0.07512
972.00 0.07509
972.10 0.07506
972.20 0.07503
972.30 0.075
972.40 0.07497
972.50 0.07494
972.60 0.07491
972.70 0.07488
972.80 0.07485
972.90 0.07482
973.00 0.07479
973.10 0.07476
973.20 0.07473
973.30 0.0747
973.40 0.07467
973.50 0.07464
973.60 0.07461
973.70 0.07458
973.80 0.07455
973.90 0.07452
974.00 0.07449
974.10 0.07446
974.20 0.07443
974.30 0.0744
974.40 0.07437
974.50 0.07434
974.60 0.07431
974.70 0.07428
974.80 0.07425
974.90 0.07422
975.00 0.07419
975.10 0.07416
975.20 0.07413
975.30 0.07411
975.40 0.07408
975.50 0.07405
975.60 0.07402
975.70 0.07399
975.80 0.07396
975.90 0.07393
976.00 0.0739
976.10 0.07387
976.20 0.07384
976.30 0.07381
976.40 0.07378
976.50 0.07375
976.60 0.07372
976.70 0.07369
976.80 0.07366
976.90 0.07363
977.00 0.0736
977.10 0.07357
977.20 0.07354
977.30 0.07352
977.40 0.07349
977.50 0.07346
977.60 0.07343
977.70 0.0734
977.80 0.07337
977.90 0.07334
978.00 0.07331
978.10 0.07328
978.20 0.07325
978.30 0.07322
978.40 0.07319
978.50 0.07316
978.60 0.07313
978.70 0.07311
978.80 0.07308
978.90 0.07305
979.00 0.07302
979.10 0.07299
979.20 0.07296
979.30 0.07293
979.40 0.0729
979.50 0.07287
979.60 0.07284
979.70 0.07281
979.80 0.07278
979.90 0.07276
980.00 0.07273
980.10 0.0727
980.20 0.07267
980.30 0.07264
980.40 0.07261
980.50 0.07258
980.60 0.07255
980.70 0.07252
980.80 0.07249
980.90 0.07246
981.00 0.07244
981.10 0.07241
981.20 0.07238
981.30 0.07235
981.40 0.07232
981.50 0.07229
981.60 0.07226
981.70 0.07223
981.80 0.0722
981.90 0.07218
982.00 0.07215
982.10 0.07212
982.20 0.07209
982.30 0.07206
982.40 0.07203
982.50 0.072
982.60 0.07197
982.70 0.07194
982.80 0.07192
982.90 0.07189
983.00 0.07186
983.10 0.07183
983.20 0.0718
983.30 0.07177
983.40 0.07174
983.50 0.07171
983.60 0.07169
983.70 0.07166
983.80 0.07163
983.90 0.0716
984.00 0.07157
984.10 0.07154
984.20 0.07151
984.30 0.07149
984.40 0.07146
984.50 0.07143
984.60 0.0714
984.70 0.07137
984.80 0.07134
984.90 0.07131
985.00 0.07129
985.10 0.07126
985.20 0.07123
985.30 0.0712
985.40 0.07117
985.50 0.07114
985.60 0.07111
985.70 0.07109
985.80 0.07106
985.90 0.07103
986.00 0.071
986.10 0.07097
986.20 0.07094
986.30 0.07091
986.40 0.07089
986.50 0.07086
986.60 0.07083
986.70 0.0708
986.80 0.07077
986.90 0.07074
987.00 0.07072
987.10 0.07069
987.20 0.07066
987.30 0.07063
987.40 0.0706
987.50 0.07057
987.60 0.07055
987.70 0.07052
987.80 0.07049
987.90 0.07046
988.00 0.07043
988.10 0.0704
988.20 0.07038
988.30 0.07035
988.40 0.07032
988.50 0.07029
988.60 0.07026
988.70 0.07023
988.80 0.07021
988.90 0.07018
989.00 0.07015
989.10 0.07012
989.20 0.07009
989.30 0.07006
989.40 0.07004
989.50 0.07001
989.60 0.06998
989.70 0.06995
989.80 0.06992
989.90 0.0699
990.00 0.06987
990.10 0.06984
990.20 0.06981
990.30 0.06978
990.40 0.06975
990.50 0.06973
990.60 0.0697
990.70 0.06967
990.80 0.06964
990.90 0.06961
991.00 0.06959
991.10 0.06956
991.20 0.06953
991.30 0.0695
991.40 0.06947
991.50 0.06945
991.60 0.06942
991.70 0.06939
991.80 0.06936
991.90 0.06933
992.00 0.0693
992.10 0.06928
992.20 0.06925
992.30 0.06922
992.40 0.06919
992.50 0.06916
992.60 0.06914
992.70 0.06911
992.80 0.06908
992.90 0.06905
993.00 0.06902
993.10 0.069
993.20 0.06897
993.30 0.06894
993.40 0.06891
993.50 0.06888
993.60 0.06886
993.70 0.06883
993.80 0.0688
993.90 0.06877
994.00 0.06874
994.10 0.06872
994.20 0.06869
994.30 0.06866
994.40 0.06863
994.50 0.0686
994.60 0.06858
994.70 0.06855
994.80 0.06852
994.90 0.06849
995.00 0.06846
995.10 0.06844
995.20 0.06841
995.30 0.06838
995.40 0.06835
995.50 0.06832
995.60 0.0683
995.70 0.06827
995.80 0.06824
995.90 0.06821
996.00 0.06818
996.10 0.06816
996.20 0.06813
996.30 0.0681
996.40 0.06807
996.50 0.06804
996.60 0.06801
996.70 0.06799
996.80 0.06796
996.90 0.06793
997.00 0.0679
997.10 0.06788
997.20 0.06785
997.30 0.06782
997.40 0.06779
997.50 0.06776
997.60 0.06774
997.70 0.06771
997.80 0.06768
997.90 0.06765
998.00 0.06762
998.10 0.0676
998.20 0.06757
998.30 0.06754
998.40 0.06751
998.50 0.06748
998.60 0.06746
998.70 0.06743
998.80 0.0674
998.90 0.06737
999.00 0.06734
999.10 0.06732
999.20 0.06729
999.30 0.06726
999.40 0.06723
999.50 0.06721
999.60 0.06718
999.70 0.06715
999.80 0.06712
999.90 0.06709
1000.00 0.06707
1000.10 0.06704
1000.20 0.06701
1000.30 0.06698
1000.40 0.06696
1000.50 0.06693
1000.60 0.0669
1000.70 0.06687
1000.80 0.06684
1000.90 0.06682
1001.00 0.06679
1001.10 0.06676
1001.20 0.06673
1001.30 0.06671
1001.40 0.06668
1001.50 0.06665
1001.60 0.06662
1001.70 0.0666
1001.80 0.06657
1001.90 0.06654
1002.00 0.06652
1002.10 0.06649
1002.20 0.06647
1002.30 0.06644
1002.40 0.06642
1002.50 0.06639
1002.60 0.06637
1002.70 0.06634
1002.80 0.06632
1002.90 0.0663
1003.00 0.06627
1003.10 0.06625
1003.20 0.06622
1003.30 0.0662
1003.40 0.06618
1003.50 0.06616
1003.60 0.06614
1003.70 0.06612
1003.80 0.0661
1003.90 0.06608
1004.00 0.06606
1004.10 0.06604
1004.20 0.06603
1004.30 0.06601
1004.40 0.06599
1004.50 0.06598
1004.60 0.06596
1004.70 0.06594
1004.80 0.06592
1004.90 0.06589
1005.00 0.06587
1005.10 0.06584
1005.20 0.06581
1005.30 0.06577
1005.40 0.06574
1005.50 0.06571
1005.60 0.06568
1005.70 0.06564
1005.80 0.06561
1005.90 0.06557
1006.00 0.06554
1006.10 0.06551
1006.20 0.06548
1006.30 0.06545
1006.40 0.06542
1006.50 0.06539
1006.60 0.06536
1006.70 0.06533
1006.80 0.0653
1006.90 0.06527
1007.00 0.06525
1007.10 0.06522
1007.20 0.06519
1007.30 0.06517
1007.40 0.06514
1007.50 0.06511
1007.60 0.06509
1007.70 0.06506
1007.80 0.06504
1007.90 0.06501
1008.00 0.06499
1008.10 0.06497
1008.20 0.06494
1008.30 0.06492
1008.40 0.06489
1008.50 0.06487
1008.60 0.06484
1008.70 0.06482
1008.80 0.06479
1008.90 0.06477
1009.00 0.06475
1009.10 0.06472
1009.20 0.0647
1009.30 0.06467
1009.40 0.06465
1009.50 0.06462
1009.60 0.0646
1009.70 0.06458
1009.80 0.06455
1009.90 0.06453
1010.00 0.06451
1010.10 0.06448
1010.20 0.06446
1010.30 0.06444
1010.40 0.06441
1010.50 0.06439
1010.60 0.06436
1010.70 0.06434
1010.80 0.06432
1010.90 0.06429
1011.00 0.06427
1011.10 0.06425
1011.20 0.06422
1011.30 0.0642
1011.40 0.06418
1011.50 0.06415
1011.60 0.06413
1011.70 0.06411
1011.80 0.06408
1011.90 0.06406
1012.00 0.06404
1012.10 0.06401
1012.20 0.06399
1012.30 0.06397
1012.40 0.06394
1012.50 0.06392
1012.60 0.0639
1012.70 0.06387
1012.80 0.06385
1012.90 0.06382
1013.00 0.0638
1013.10 0.06378
1013.20 0.06375
1013.30 0.06373
1013.40 0.06371
1013.50 0.06368
1013.60 0.06366
1013.70 0.06364
1013.80 0.06361
1013.90 0.06359
1014.00 0.06357
1014.10 0.06354
1014.20 0.06352
1014.30 0.0635
1014.40 0.06347
1014.50 0.06345
1014.60 0.06343
1014.70 0.0634
1014.80 0.06338
1014.90 0.06336
1015.00 0.06333
1015.10 0.06331
1015.20 0.06329
1015.30 0.06326
1015.40 0.06324
1015.50 0.06321
1015.60 0.06319
1015.70 0.06317
1015.80 0.06314
1015.90 0.06312
1016.00 0.0631
1016.10 0.06307
1016.20 0.06305
1016.30 0.06303
1016.40 0.063
1016.50 0.06298
1016.60 0.06296
1016.70 0.06293
1016.80 0.06291
1016.90 0.06289
1017.00 0.06286
1017.10 0.06284
1017.20 0.06282
1017.30 0.06279
1017.40 0.06277
1017.50 0.06275
1017.60 0.06272
1017.70 0.0627
1017.80 0.06268
1017.90 0.06265
1018.00 0.06263
1018.10 0.06261
1018.20 0.06258
1018.30 0.06256
1018.40 0.06254
1018.50 0.06251
1018.60 0.06249
1018.70 0.06246
1018.80 0.06244
1018.90 0.06242
1019.00 0.06239
1019.10 0.06237
1019.20 0.06235
1019.30 0.06232
1019.40 0.0623
1019.50 0.06228
1019.60 0.06225
1019.70 0.06223
1019.80 0.06221
1019.90 0.06218
1020.00 0.06216
1020.10 0.06214
1020.20 0.06211
1020.30 0.06209
1020.40 0.06207
1020.50 0.06204
1020.60 0.06202
1020.70 0.062
1020.80 0.06197
1020.90 0.06195
1021.00 0.06193
1021.10 0.0619
1021.20 0.06188
1021.30 0.06186
1021.40 0.06183
1021.50 0.06181
1021.60 0.06179
1021.70 0.06176
1021.80 0.06174
1021.90 0.06172
1022.00 0.06169
1022.10 0.06167
1022.20 0.06165
1022.30 0.06162
1022.40 0.0616
1022.50 0.06158
1022.60 0.06155
1022.70 0.06153
1022.80 0.06151
1022.90 0.06148
1023.00 0.06146
1023.10 0.06144
1023.20 0.06142
1023.30 0.06139
1023.40 0.06137
1023.50 0.06135
1023.60 0.06132
1023.70 0.0613
1023.80 0.06128
1023.90 0.06125
1024.00 0.06123
1024.10 0.06121
1024.20 0.06118
1024.30 0.06116
1024.40 0.06114
1024.50 0.06111
1024.60 0.06109
1024.70 0.06107
1024.80 0.06105
1024.90 0.06102
1025.00 0.061
1025.10 0.06098
1025.20 0.06095
1025.30 0.06093
1025.40 0.06091
1025.50 0.06088
1025.60 0.06086
1025.70 0.06084
1025.80 0.06081
1025.90 0.06079
1026.00 0.06077
1026.10 0.06075
1026.20 0.06072
1026.30 0.0607
1026.40 0.06068
1026.50 0.06065
1026.60 0.06063
1026.70 0.06061
1026.80 0.06059
1026.90 0.06056
1027.00 0.06054
1027.10 0.06052
1027.20 0.06049
1027.30 0.06047
1027.40 0.06045
1027.50 0.06043
1027.60 0.0604
1027.70 0.06038
1027.80 0.06036
1027.90 0.06033
1028.00 0.06031
1028.10 0.06029
1028.20 0.06027
1028.30 0.06024
1028.40 0.06022
1028.50 0.0602
1028.60 0.06017
1028.70 0.06015
1028.80 0.06013
1028.90 0.06011
1029.00 0.06008
1029.10 0.06006
1029.20 0.06004
1029.30 0.06002
1029.40 0.05999
1029.50 0.05997
1029.60 0.05995
1029.70 0.05993
1029.80 0.0599
1029.90 0.05988
1030.00 0.05986
1030.10 0.05983
1030.20 0.05981
1030.30 0.05979
1030.40 0.05977
1030.50 0.05974
1030.60 0.05972
1030.70 0.0597
1030.80 0.05968
1030.90 0.05965
1031.00 0.05963
1031.10 0.05961
1031.20 0.05959
1031.30 0.05956
1031.40 0.05954
1031.50 0.05952
1031.60 0.0595
1031.70 0.05947
1031.80 0.05945
1031.90 0.05943
1032.00 0.05941
1032.10 0.05938
1032.20 0.05936
1032.30 0.05934
1032.40 0.05932
1032.50 0.05929
1032.60 0.05927
1032.70 0.05925
1032.80 0.05923
1032.90 0.05921
1033.00 0.05918
1033.10 0.05916
1033.20 0.05914
1033.30 0.05912
1033.40 0.05909
1033.50 0.05907
1033.60 0.05905
1033.70 0.05903
1033.80 0.059
1033.90 0.05898
1034.00 0.05896
1034.10 0.05894
1034.20 0.05892
1034.30 0.05889
1034.40 0.05887
1034.50 0.05885
1034.60 0.05883
1034.70 0.0588
1034.80 0.05878
1034.90 0.05876
1035.00 0.05874
1035.10 0.05872
1035.20 0.05869
1035.30 0.05867
1035.40 0.05865
1035.50 0.05863
1035.60 0.05861
1035.70 0.05858
1035.80 0.05856
1035.90 0.05854
1036.00 0.05852
1036.10 0.0585
1036.20 0.05847
1036.30 0.05845
1036.40 0.05843
1036.50 0.05841
1036.60 0.05838
1036.70 0.05836
1036.80 0.05834
1036.90 0.05832
1037.00 0.0583
1037.10 0.05827
1037.20 0.05825
1037.30 0.05823
1037.40 0.05821
1037.50 0.05819
1037.60 0.05817
1037.70 0.05814
1037.80 0.05812
1037.90 0.0581
1038.00 0.05808
1038.10 0.05806
1038.20 0.05803
1038.30 0.05801
1038.40 0.05799
1038.50 0.05797
1038.60 0.05795
1038.70 0.05793
1038.80 0.0579
1038.90 0.05788
1039.00 0.05786
1039.10 0.05784
1039.20 0.05782
1039.30 0.0578
1039.40 0.05777
1039.50 0.05775
1039.60 0.05773
1039.70 0.05771
1039.80 0.05769
1039.90 0.05767
1040.00 0.05764
1040.10 0.05762
1040.20 0.0576
1040.30 0.05758
1040.40 0.05756
1040.50 0.05754
1040.60 0.05751
1040.70 0.05749
1040.80 0.05747
1040.90 0.05745
1041.00 0.05743
1041.10 0.05741
1041.20 0.05738
1041.30 0.05736
1041.40 0.05734
1041.50 0.05732
1041.60 0.0573
1041.70 0.05728
1041.80 0.05725
1041.90 0.05723
1042.00 0.05721
1042.10 0.05719
1042.20 0.05717
1042.30 0.05715
1042.40 0.05713
1042.50 0.0571
1042.60 0.05708
1042.70 0.05706
1042.80 0.05704
1042.90 0.05702
1043.00 0.057
1043.10 0.05698
1043.20 0.05696
1043.30 0.05693
1043.40 0.05691
1043.50 0.05689
1043.60 0.05687
1043.70 0.05685
1043.80 0.05683
1043.90 0.05681
1044.00 0.05678
1044.10 0.05676
1044.20 0.05674
1044.30 0.05672
1044.40 0.0567
1044.50 0.05668
1044.60 0.05666
1044.70 0.05664
1044.80 0.05661
1044.90 0.05659
1045.00 0.05657
1045.10 0.05655
1045.20 0.05653
1045.30 0.05651
1045.40 0.05649
1045.50 0.05647
1045.60 0.05645
1045.70 0.05642
1045.80 0.0564
1045.90 0.05638
1046.00 0.05636
1046.10 0.05634
1046.20 0.05632
1046.30 0.0563
1046.40 0.05628
1046.50 0.05626
1046.60 0.05623
1046.70 0.05621
1046.80 0.05619
1046.90 0.05617
1047.00 0.05615
1047.10 0.05613
1047.20 0.05611
1047.30 0.05609
1047.40 0.05607
1047.50 0.05605
1047.60 0.05602
1047.70 0.056
1047.80 0.05598
1047.90 0.05596
1048.00 0.05594
1048.10 0.05592
1048.20 0.0559
1048.30 0.05588
1048.40 0.05586
1048.50 0.05584
1048.60 0.05582
1048.70 0.0558
1048.80 0.05577
1048.90 0.05575
1049.00 0.05573
1049.10 0.05571
1049.20 0.05569
1049.30 0.05567
1049.40 0.05565
1049.50 0.05563
1049.60 0.05561
1049.70 0.05559
1049.80 0.05557
1049.90 0.05555
1050.00 0.05553
1050.10 0.0555
1050.20 0.05548
1050.30 0.05546
1050.40 0.05544
1050.50 0.05542
1050.60 0.0554
1050.70 0.05538
1050.80 0.05536
1050.90 0.05534
1051.00 0.05532
1051.10 0.0553
1051.20 0.05528
1051.30 0.05526
1051.40 0.05524
1051.50 0.05522
1051.60 0.0552
1051.70 0.05517
1051.80 0.05515
1051.90 0.05513
1052.00 0.05511
1052.10 0.05509
1052.20 0.05507
1052.30 0.05505
1052.40 0.05503
1052.50 0.05501
1052.60 0.05499
1052.70 0.05497
1052.80 0.05495
1052.90 0.05493
1053.00 0.05491
1053.10 0.05489
1053.20 0.05487
1053.30 0.05485
1053.40 0.05483
1053.50 0.05481
1053.60 0.05479
1053.70 0.05477
1053.80 0.05475
1053.90 0.05473
1054.00 0.05471
1054.10 0.05468
1054.20 0.05466
1054.30 0.05464
1054.40 0.05462
1054.50 0.0546
1054.60 0.05458
1054.70 0.05456
1054.80 0.05454
1054.90 0.05452
1055.00 0.0545
1055.10 0.05448
1055.20 0.05446
1055.30 0.05444
1055.40 0.05442
1055.50 0.0544
1055.60 0.05438
1055.70 0.05436
1055.80 0.05434
1055.90 0.05432
1056.00 0.0543
1056.10 0.05428
1056.20 0.05426
1056.30 0.05424
1056.40 0.05422
1056.50 0.0542
1056.60 0.05418
1056.70 0.05416
1056.80 0.05414
1056.90 0.05412
1057.00 0.0541
1057.10 0.05408
1057.20 0.05406
1057.30 0.05404
1057.40 0.05402
1057.50 0.054
1057.60 0.05398
1057.70 0.05396
1057.80 0.05394
1057.90 0.05392
1058.00 0.0539
1058.10 0.05388
1058.20 0.05386
1058.30 0.05384
1058.40 0.05382
1058.50 0.0538
1058.60 0.05378
1058.70 0.05376
1058.80 0.05374
1058.90 0.05372
1059.00 0.0537
1059.10 0.05368
1059.20 0.05366
1059.30 0.05364
1059.40 0.05362
1059.50 0.0536
1059.60 0.05358
1059.70 0.05356
1059.80 0.05354
1059.90 0.05352
1060.00 0.0535
1060.10 0.05348
1060.20 0.05346
1060.30 0.05344
1060.40 0.05342
1060.50 0.0534
1060.60 0.05338
1060.70 0.05336
1060.80 0.05334
1060.90 0.05332
1061.00 0.0533
1061.10 0.05328
1061.20 0.05326
1061.30 0.05324
1061.40 0.05322
1061.50 0.05321
1061.60 0.05319
1061.70 0.05317
1061.80 0.05315
1061.90 0.05313
1062.00 0.05311
1062.10 0.05309
1062.20 0.05307
1062.30 0.05305
1062.40 0.05303
1062.50 0.05301
1062.60 0.05299
1062.70 0.05297
1062.80 0.05295
1062.90 0.05293
1063.00 0.05291
1063.10 0.05289
1063.20 0.05287
1063.30 0.05285
1063.40 0.05283
1063.50 0.05281
1063.60 0.05279
1063.70 0.05277
1063.80 0.05276
1063.90 0.05274
1064.00 0.05272
1064.10 0.0527
1064.20 0.05268
1064.30 0.05266
1064.40 0.05264
1064.50 0.05262
1064.60 0.0526
1064.70 0.05258
1064.80 0.05256
1064.90 0.05254
1065.00 0.05252
1065.10 0.0525
1065.20 0.05248
1065.30 0.05246
1065.40 0.05244
1065.50 0.05243
1065.60 0.05241
1065.70 0.05239
1065.80 0.05237
1065.90 0.05235
1066.00 0.05233
1066.10 0.05231
1066.20 0.05229
1066.30 0.05227
1066.40 0.05225
1066.50 0.05223
1066.60 0.05221
1066.70 0.05219
1066.80 0.05217
1066.90 0.05216
1067.00 0.05214
1067.10 0.05212
1067.20 0.0521
1067.30 0.05208
1067.40 0.05206
1067.50 0.05204
1067.60 0.05202
1067.70 0.052
1067.80 0.05198
1067.90 0.05196
1068.00 0.05194
1068.10 0.05193
1068.20 0.05191
1068.30 0.05189
1068.40 0.05187
1068.50 0.05185
1068.60 0.05183
1068.70 0.05181
1068.80 0.05179
1068.90 0.05177
1069.00 0.05175
1069.10 0.05173
1069.20 0.05172
1069.30 0.0517
1069.40 0.05168
1069.50 0.05166
1069.60 0.05164
1069.70 0.05162
1069.80 0.0516
1069.90 0.05158
1070.00 0.05156
1070.10 0.05154
1070.20 0.05152
1070.30 0.05151
1070.40 0.05149
1070.50 0.05147
1070.60 0.05145
1070.70 0.05143
1070.80 0.05141
1070.90 0.05139
1071.00 0.05137
1071.10 0.05135
1071.20 0.05134
1071.30 0.05132
1071.40 0.0513
1071.50 0.05128
1071.60 0.05126
1071.70 0.05124
1071.80 0.05122
1071.90 0.0512
1072.00 0.05118
1072.10 0.05117
1072.20 0.05115
1072.30 0.05113
1072.40 0.05111
1072.50 0.05109
1072.60 0.05107
1072.70 0.05105
1072.80 0.05103
1072.90 0.05101
1073.00 0.051
1073.10 0.05098
1073.20 0.05096
1073.30 0.05094
1073.40 0.05092
1073.50 0.0509
1073.60 0.05088
1073.70 0.05086
1073.80 0.05084
1073.90 0.05083
1074.00 0.05081
1074.10 0.05079
1074.20 0.05077
1074.30 0.05075
1074.40 0.05073
1074.50 0.05071
1074.60 0.05069
1074.70 0.05068
1074.80 0.05066
1074.90 0.05064
1075.00 0.05062
1075.10 0.0506
1075.20 0.05058
1075.30 0.05056
1075.40 0.05054
1075.50 0.05053
1075.60 0.05051
1075.70 0.05049
1075.80 0.05047
1075.90 0.05045
1076.00 0.05043
1076.10 0.05041
1076.20 0.0504
1076.30 0.05038
1076.40 0.05036
1076.50 0.05034
1076.60 0.05032
1076.70 0.0503
1076.80 0.05028
1076.90 0.05026
1077.00 0.05025
1077.10 0.05023
1077.20 0.05021
1077.30 0.05019
1077.40 0.05017
1077.50 0.05015
1077.60 0.05013
1077.70 0.05012
1077.80 0.0501
1077.90 0.05008
1078.00 0.05006
1078.10 0.05004
1078.20 0.05002
1078.30 0.05
1078.40 0.04999
1078.50 0.04997
1078.60 0.04995
1078.70 0.04993
1078.80 0.04991
1078.90 0.04989
1079.00 0.04987
1079.10 0.04985
1079.20 0.04984
1079.30 0.04982
1079.40 0.0498
1079.50 0.04978
1079.60 0.04976
1079.70 0.04974
1079.80 0.04972
1079.90 0.04971
1080.00 0.04969
1080.10 0.04967
1080.20 0.04965
1080.30 0.04963
1080.40 0.04961
1080.50 0.04959
1080.60 0.04957
1080.70 0.04956
1080.80 0.04954
1080.90 0.04952
1081.00 0.0495
1081.10 0.04948
1081.20 0.04946
1081.30 0.04944
1081.40 0.04943
1081.50 0.04941
1081.60 0.04939
1081.70 0.04937
1081.80 0.04935
1081.90 0.04933
1082.00 0.04931
1082.10 0.04929
1082.20 0.04928
1082.30 0.04926
1082.40 0.04924
1082.50 0.04922
1082.60 0.0492
1082.70 0.04918
1082.80 0.04916
1082.90 0.04914
1083.00 0.04913
1083.10 0.04911
1083.20 0.04909
1083.30 0.04907
1083.40 0.04905
1083.50 0.04903
1083.60 0.04901
1083.70 0.04899
1083.80 0.04897
1083.90 0.04896
1084.00 0.04894
1084.10 0.04892
1084.20 0.0489
1084.30 0.04888
1084.40 0.04886
1084.50 0.04884
1084.60 0.04882
1084.70 0.0488
1084.80 0.04878
1084.90 0.04876
1085.00 0.04875
1085.10 0.04873
1085.20 0.04871
1085.30 0.04869
1085.40 0.04867
1085.50 0.04865
1085.60 0.04863
1085.70 0.04861
1085.80 0.04859
1085.90 0.04857
1086.00 0.04855
1086.10 0.04853
1086.20 0.04852
1086.30 0.0485
1086.40 0.04848
1086.50 0.04846
1086.60 0.04844
1086.70 0.04842
1086.80 0.0484
1086.90 0.04838
1087.00 0.04836
1087.10 0.04834
1087.20 0.04832
1087.30 0.0483
1087.40 0.04828
1087.50 0.04826
1087.60 0.04824
1087.70 0.04823
1087.80 0.04821
1087.90 0.04819
1088.00 0.04817
1088.10 0.04815
1088.20 0.04813
1088.30 0.04811
1088.40 0.04809
1088.50 0.04807
1088.60 0.04805
1088.70 0.04803
1088.80 0.04801
1088.90 0.04799
1089.00 0.04797
1089.10 0.04796
1089.20 0.04794
1089.30 0.04792
1089.40 0.0479
1089.50 0.04788
1089.60 0.04786
1089.70 0.04784
1089.80 0.04782
1089.90 0.0478
1090.00 0.04778
1090.10 0.04777
1090.20 0.04775
1090.30 0.04773
1090.40 0.04771
1090.50 0.04769
1090.60 0.04767
1090.70 0.04766
1090.80 0.04764
1090.90 0.04763
1091.00 0.04761
1091.10 0.04759
1091.20 0.04758
1091.30 0.04756
1091.40 0.04754
1091.50 0.04753
1091.60 0.04751
1091.70 0.0475
1091.80 0.04748
1091.90 0.04746
1092.00 0.04745
1092.10 0.04744
1092.20 0.04743
1092.30 0.04741
1092.40 0.0474
1092.50 0.04739
1092.60 0.04738
1092.70 0.04737
1092.80 0.04736
1092.90 0.04735
1093.00 0.04735
1093.10 0.04734
1093.20 0.04734
1093.30 0.04733
1093.40 0.04733
1093.50 0.04734
1093.60 0.04737
1093.70 0.04738
1093.80 0.04738
1093.90 0.04737
1094.00 0.04732
1094.10 0.04726
1094.20 0.04721
1094.30 0.04717
1094.40 0.04714
1094.50 0.04711
1094.60 0.04708
1094.70 0.04706
1094.80 0.04703
1094.90 0.047
1095.00 0.04698
1095.10 0.04696
1095.20 0.04694
1095.30 0.04692
1095.40 0.0469
1095.50 0.04688
1095.60 0.04686
1095.70 0.04684
1095.80 0.04682
1095.90 0.0468
1096.00 0.04678
1096.10 0.04676
1096.20 0.04674
1096.30 0.04672
1096.40 0.0467
1096.50 0.04668
1096.60 0.04666
1096.70 0.04664
1096.80 0.04663
1096.90 0.04661
1097.00 0.0466
1097.10 0.04658
1097.20 0.04657
1097.30 0.04655
1097.40 0.04654
1097.50 0.04652
1097.60 0.04651
1097.70 0.04649
1097.80 0.04648
1097.90 0.04646
1098.00 0.04645
1098.10 0.04643
1098.20 0.04642
1098.30 0.0464
1098.40 0.04639
1098.50 0.04637
1098.60 0.04636
1098.70 0.04634
1098.80 0.04633
1098.90 0.04631
1099.00 0.0463
1099.10 0.04629
1099.20 0.04627
1099.30 0.04626
1099.40 0.04624
1099.50 0.04623
1099.60 0.04621
1099.70 0.0462
1099.80 0.04618
1099.90 0.04617
1100.00 0.04616
1100.10 0.04614
1100.20 0.04613
1100.30 0.04611
1100.40 0.0461
1100.50 0.04608
1100.60 0.04607
1100.70 0.04605
1100.80 0.04604
1100.90 0.04603
1101.00 0.04601
1101.10 0.046
1101.20 0.04598
1101.30 0.04597
1101.40 0.04595
1101.50 0.04594
1101.60 0.04592
1101.70 0.04591
1101.80 0.04589
1101.90 0.04588
1102.00 0.04586
1102.10 0.04585
1102.20 0.04584
1102.30 0.04582
1102.40 0.04581
1102.50 0.04579
1102.60 0.04578
1102.70 0.04576
1102.80 0.04575
1102.90 0.04573
1103.00 0.04572
1103.10 0.0457
1103.20 0.04569
1103.30 0.04567
1103.40 0.04566
1103.50 0.04564
1103.60 0.04563
1103.70 0.04561
1103.80 0.0456
1103.90 0.04558
1104.00 0.04557
1104.10 0.04555
1104.20 0.04554
1104.30 0.04552
1104.40 0.04551
1104.50 0.04549
1104.60 0.04548
1104.70 0.04546
1104.80 0.04545
1104.90 0.04543
1105.00 0.04542
1105.10 0.0454
1105.20 0.04539
1105.30 0.04537
1105.40 0.04536
1105.50 0.04534
1105.60 0.04532
1105.70 0.04531
1105.80 0.04529
1105.90 0.04528
1106.00 0.04526
1106.10 0.04525
1106.20 0.04523
1106.30 0.04522
1106.40 0.0452
1106.50 0.04519
1106.60 0.04517
1106.70 0.04516
1106.80 0.04514
1106.90 0.04513
1107.00 0.04511
1107.10 0.0451
1107.20 0.04508
1107.30 0.04506
1107.40 0.04505
1107.50 0.04503
1107.60 0.04502
1107.70 0.045
1107.80 0.04499
1107.90 0.04497
1108.00 0.04496
1108.10 0.04494
1108.20 0.04493
1108.30 0.04491
1108.40 0.0449
1108.50 0.04488
1108.60 0.04486
1108.70 0.04485
1108.80 0.04483
1108.90 0.04482
1109.00 0.0448
1109.10 0.04479
1109.20 0.04477
1109.30 0.04476
1109.40 0.04474
1109.50 0.04473
1109.60 0.04471
1109.70 0.0447
1109.80 0.04468
1109.90 0.04467
1110.00 0.04465
1110.10 0.04463
1110.20 0.04462
1110.30 0.0446
1110.40 0.04459
1110.50 0.04457
1110.60 0.04456
1110.70 0.04454
1110.80 0.04453
1110.90 0.04451
1111.00 0.0445
1111.10 0.04448
1111.20 0.04447
1111.30 0.04445
1111.40 0.04443
1111.50 0.04442
1111.60 0.0444
1111.70 0.04439
1111.80 0.04437
1111.90 0.04436
1112.00 0.04434
1112.10 0.04433
1112.20 0.04431
1112.30 0.0443
1112.40 0.04428
1112.50 0.04427
1112.60 0.04425
1112.70 0.04424
1112.80 0.04422
1112.90 0.0442
1113.00 0.04419
1113.10 0.04417
1113.20 0.04416
1113.30 0.04414
1113.40 0.04413
1113.50 0.04411
1113.60 0.0441
1113.70 0.04408
1113.80 0.04407
1113.90 0.04405
1114.00 0.04404
1114.10 0.04402
1114.20 0.04401
1114.30 0.04399
1114.40 0.04397
1114.50 0.04396
1114.60 0.04394
1114.70 0.04393
1114.80 0.04391
1114.90 0.0439
1115.00 0.04388
1115.10 0.04387
1115.20 0.04385
1115.30 0.04384
1115.40 0.04382
1115.50 0.04381
1115.60 0.04379
1115.70 0.04378
1115.80 0.04376
1115.90 0.04375
1116.00 0.04373
1116.10 0.04372
1116.20 0.0437
1116.30 0.04369
1116.40 0.04367
1116.50 0.04366
1116.60 0.04364
1116.70 0.04362
1116.80 0.04361
1116.90 0.04359
1117.00 0.04358
1117.10 0.04356
1117.20 0.04355
1117.30 0.04353
1117.40 0.04352
1117.50 0.0435
1117.60 0.04349
1117.70 0.04347
1117.80 0.04346
1117.90 0.04344
1118.00 0.04343
1118.10 0.04341
1118.20 0.0434
1118.30 0.04338
1118.40 0.04337
1118.50 0.04335
1118.60 0.04334
1118.70 0.04332
1118.80 0.04331
1118.90 0.04329
1119.00 0.04328
1119.10 0.04326
1119.20 0.04325
1119.30 0.04323
1119.40 0.04322
1119.50 0.0432
1119.60 0.04319
1119.70 0.04317
1119.80 0.04316
1119.90 0.04314
1120.00 0.04313
1120.10 0.04311
1120.20 0.0431
1120.30 0.04308
1120.40 0.04307
1120.50 0.04305
1120.60 0.04304
1120.70 0.04302
1120.80 0.04301
1120.90 0.04299
1121.00 0.04298
1121.10 0.04296
1121.20 0.04295
1121.30 0.04293
1121.40 0.04292
1121.50 0.0429
1121.60 0.04289
1121.70 0.04287
1121.80 0.04286
1121.90 0.04284
1122.00 0.04283
1122.10 0.04281
1122.20 0.0428
1122.30 0.04278
1122.40 0.04277
1122.50 0.04275
1122.60 0.04274
1122.70 0.04272
1122.80 0.04271
1122.90 0.04269
1123.00 0.04268
1123.10 0.04266
1123.20 0.04265
1123.30 0.04264
1123.40 0.04262
1123.50 0.04261
1123.60 0.04259
1123.70 0.04258
1123.80 0.04256
1123.90 0.04255
1124.00 0.04253
1124.10 0.04252
1124.20 0.0425
1124.30 0.04249
1124.40 0.04247
1124.50 0.04246
1124.60 0.04244
1124.70 0.04243
1124.80 0.04241
1124.90 0.0424
1125.00 0.04238
1125.10 0.04237
1125.20 0.04236
1125.30 0.04234
1125.40 0.04233
1125.50 0.04231
1125.60 0.0423
1125.70 0.04228
1125.80 0.04227
1125.90 0.04225
1126.00 0.04224
1126.10 0.04222
1126.20 0.04221
1126.30 0.04219
1126.40 0.04218
1126.50 0.04216
1126.60 0.04215
1126.70 0.04214
1126.80 0.04212
1126.90 0.04211
1127.00 0.04209
1127.10 0.04208
1127.20 0.04206
1127.30 0.04205
1127.40 0.04203
1127.50 0.04202
1127.60 0.042
1127.70 0.04199
1127.80 0.04197
1127.90 0.04196
1128.00 0.04195
1128.10 0.04193
1128.20 0.04192
1128.30 0.0419
1128.40 0.04189
1128.50 0.04187
1128.60 0.04186
1128.70 0.04184
1128.80 0.04183
1128.90 0.04182
1129.00 0.0418
1129.10 0.04179
1129.20 0.04177
1129.30 0.04176
1129.40 0.04174
1129.50 0.04173
1129.60 0.04171
1129.70 0.0417
1129.80 0.04169
1129.90 0.04167
1130.00 0.04166
1130.10 0.04164
1130.20 0.04163
1130.30 0.04161
1130.40 0.0416
1130.50 0.04158
1130.60 0.04157
1130.70 0.04156
1130.80 0.04154
1130.90 0.04153
1131.00 0.04151
1131.10 0.0415
1131.20 0.04148
1131.30 0.04147
1131.40 0.04146
1131.50 0.04144
1131.60 0.04143
1131.70 0.04141
1131.80 0.0414
1131.90 0.04138
1132.00 0.04137
1132.10 0.04135
1132.20 0.04134
1132.30 0.04133
1132.40 0.04131
1132.50 0.0413
1132.60 0.04128
1132.70 0.04127
1132.80 0.04126
1132.90 0.04124
1133.00 0.04123
1133.10 0.04121
1133.20 0.0412
1133.30 0.04118
1133.40 0.04117
1133.50 0.04116
1133.60 0.04114
1133.70 0.04113
1133.80 0.04111
1133.90 0.0411
1134.00 0.04108
1134.10 0.04107
1134.20 0.04106
1134.30 0.04104
1134.40 0.04103
1134.50 0.04101
1134.60 0.041
1134.70 0.04099
1134.80 0.04097
1134.90 0.04096
1135.00 0.04094
1135.10 0.04093
1135.20 0.04092
1135.30 0.0409
1135.40 0.04089
1135.50 0.04087
1135.60 0.04086
1135.70 0.04084
1135.80 0.04083
1135.90 0.04082
1136.00 0.0408
1136.10 0.04079
1136.20 0.04077
1136.30 0.04076
1136.40 0.04075
1136.50 0.04073
1136.60 0.04072
1136.70 0.0407
1136.80 0.04069
1136.90 0.04068
1137.00 0.04066
1137.10 0.04065
1137.20 0.04063
1137.30 0.04062
1137.40 0.04061
1137.50 0.04059
1137.60 0.04058
1137.70 0.04056
1137.80 0.04055
1137.90 0.04054
1138.00 0.04052
1138.10 0.04051
1138.20 0.04049
1138.30 0.04048
1138.40 0.04047
1138.50 0.04045
1138.60 0.04044
1138.70 0.04043
1138.80 0.04041
1138.90 0.0404
1139.00 0.04038
1139.10 0.04037
1139.20 0.04036
1139.30 0.04034
1139.40 0.04033
1139.50 0.04031
1139.60 0.0403
1139.70 0.04029
1139.80 0.04027
1139.90 0.04026
1140.00 0.04025
1140.10 0.04023
1140.20 0.04022
1140.30 0.0402
1140.40 0.04019
1140.50 0.04018
1140.60 0.04016
1140.70 0.04015
1140.80 0.04013
1140.90 0.04012
1141.00 0.04011
1141.10 0.04009
1141.20 0.04008
1141.30 0.04007
1141.40 0.04005
1141.50 0.04004
1141.60 0.04002
1141.70 0.04001
1141.80 0.04
1141.90 0.03998
1142.00 0.03997
1142.10 0.03996
1142.20 0.03994
1142.30 0.03993
1142.40 0.03992
1142.50 0.0399
1142.60 0.03989
1142.70 0.03987
1142.80 0.03986
1142.90 0.03985
1143.00 0.03983
1143.10 0.03982
1143.20 0.03981
1143.30 0.03979
1143.40 0.03978
1143.50 0.03977
1143.60 0.03975
1143.70 0.03974
1143.80 0.03972
1143.90 0.03971
1144.00 0.0397
1144.10 0.03968
1144.20 0.03967
1144.30 0.03966
1144.40 0.03964
1144.50 0.03963
1144.60 0.03962
1144.70 0.0396
1144.80 0.03959
1144.90 0.03958
1145.00 0.03956
1145.10 0.03955
1145.20 0.03953
1145.30 0.03952
1145.40 0.03951
1145.50 0.03949
1145.60 0.03948
1145.70 0.03947
1145.80 0.03945
1145.90 0.03944
1146.00 0.03943
1146.10 0.03941
1146.20 0.0394
1146.30 0.03939
1146.40 0.03937
1146.50 0.03936
1146.60 0.03935
1146.70 0.03933
1146.80 0.03932
1146.90 0.03931
1147.00 0.03929
1147.10 0.03928
1147.20 0.03927
1147.30 0.03925
1147.40 0.03924
1147.50 0.03923
1147.60 0.03921
1147.70 0.0392
1147.80 0.03919
1147.90 0.03917
1148.00 0.03916
1148.10 0.03915
1148.20 0.03913
1148.30 0.03912
1148.40 0.03911
1148.50 0.03909
1148.60 0.03908
1148.70 0.03907
1148.80 0.03905
1148.90 0.03904
1149.00 0.03903
1149.10 0.03901
1149.20 0.039
1149.30 0.03899
1149.40 0.03897
1149.50 0.03896
1149.60 0.03895
1149.70 0.03893
1149.80 0.03892
1149.90 0.03891
1150.00 0.03889
1150.10 0.03888
1150.20 0.03887
1150.30 0.03885
1150.40 0.03884
1150.50 0.03883
1150.60 0.03881
1150.70 0.0388
1150.80 0.03879
1150.90 0.03877
1151.00 0.03876
1151.10 0.03875
1151.20 0.03873
1151.30 0.03872
1151.40 0.03871
1151.50 0.03869
1151.60 0.03868
1151.70 0.03867
1151.80 0.03865
1151.90 0.03864
1152.00 0.03863
1152.10 0.03862
1152.20 0.0386
1152.30 0.03859
1152.40 0.03858
1152.50 0.03856
1152.60 0.03855
1152.70 0.03854
1152.80 0.03852
1152.90 0.03851
1153.00 0.0385
1153.10 0.03848
1153.20 0.03847
1153.30 0.03846
1153.40 0.03845
1153.50 0.03843
1153.60 0.03842
1153.70 0.03841
1153.80 0.03839
1153.90 0.03838
1154.00 0.03837
1154.10 0.03835
1154.20 0.03834
1154.30 0.03833
1154.40 0.03832
1154.50 0.0383
1154.60 0.03829
1154.70 0.03828
1154.80 0.03826
1154.90 0.03825
1155.00 0.03824
1155.10 0.03822
1155.20 0.03821
1155.30 0.0382
1155.40 0.03819
1155.50 0.03817
1155.60 0.03816
1155.70 0.03815
1155.80 0.03813
1155.90 0.03812
1156.00 0.03811
1156.10 0.0381
1156.20 0.03808
1156.30 0.03807
1156.40 0.03806
1156.50 0.03804
1156.60 0.03803
1156.70 0.03802
1156.80 0.038
1156.90 0.03799
1157.00 0.03798
1157.10 0.03797
1157.20 0.03795
1157.30 0.03794
1157.40 0.03793
1157.50 0.03792
1157.60 0.0379
1157.70 0.03789
1157.80 0.03788
1157.90 0.03786
1158.00 0.03785
1158.10 0.03784
1158.20 0.03783
1158.30 0.03781
1158.40 0.0378
1158.50 0.03779
1158.60 0.03777
1158.70 0.03776
1158.80 0.03775
1158.90 0.03774
1159.00 0.03772
1159.10 0.03771
1159.20 0.0377
1159.30 0.03769
1159.40 0.03767
1159.50 0.03766
1159.60 0.03765
1159.70 0.03763
1159.80 0.03762
1159.90 0.03761
1160.00 0.0376
1160.10 0.03758
1160.20 0.03757
1160.30 0.03756
1160.40 0.03755
1160.50 0.03753
1160.60 0.03752
1160.70 0.03751
1160.80 0.03749
1160.90 0.03748
1161.00 0.03747
1161.10 0.03746
1161.20 0.03744
1161.30 0.03743
1161.40 0.03742
1161.50 0.03741
1161.60 0.03739
1161.70 0.03738
1161.80 0.03737
1161.90 0.03736
1162.00 0.03734
1162.10 0.03733
1162.20 0.03732
1162.30 0.03731
1162.40 0.03729
1162.50 0.03728
1162.60 0.03727
1162.70 0.03726
1162.80 0.03724
1162.90 0.03723
1163.00 0.03722
1163.10 0.03721
1163.20 0.03719
1163.30 0.03718
1163.40 0.03717
1163.50 0.03716
1163.60 0.03714
1163.70 0.03713
1163.80 0.03712
1163.90 0.03711
1164.00 0.03709
1164.10 0.03708
1164.20 0.03707
1164.30 0.03706
1164.40 0.03704
1164.50 0.03703
1164.60 0.03702
1164.70 0.03701
1164.80 0.03699
1164.90 0.03698
1165.00 0.03697
1165.10 0.03696
1165.20 0.03694
1165.30 0.03693
1165.40 0.03692
1165.50 0.03691
1165.60 0.03689
1165.70 0.03688
1165.80 0.03687
1165.90 0.03686
1166.00 0.03684
1166.10 0.03683
1166.20 0.03682
1166.30 0.03681
1166.40 0.03679
1166.50 0.03678
1166.60 0.03677
1166.70 0.03676
1166.80 0.03675
1166.90 0.03673
1167.00 0.03672
1167.10 0.03671
1167.20 0.0367
1167.30 0.03668
1167.40 0.03667
1167.50 0.03666
1167.60 0.03665
1167.70 0.03663
1167.80 0.03662
1167.90 0.03661
1168.00 0.0366
1168.10 0.03659
1168.20 0.03657
1168.30 0.03656
1168.40 0.03655
1168.50 0.03654
1168.60 0.03652
1168.70 0.03651
1168.80 0.0365
1168.90 0.03649
1169.00 0.03648
1169.10 0.03646
1169.20 0.03645
1169.30 0.03644
1169.40 0.03643
1169.50 0.03641
1169.60 0.0364
1169.70 0.03639
1169.80 0.03638
1169.90 0.03637
1170.00 0.03635
1170.10 0.03634
1170.20 0.03633
1170.30 0.03632
1170.40 0.0363
1170.50 0.03629
1170.60 0.03628
1170.70 0.03627
1170.80 0.03626
1170.90 0.03624
1171.00 0.03623
1171.10 0.03622
1171.20 0.03621
1171.30 0.0362
1171.40 0.03618
1171.50 0.03617
1171.60 0.03616
1171.70 0.03615
1171.80 0.03613
1171.90 0.03612
1172.00 0.03611
1172.10 0.0361
1172.20 0.03609
1172.30 0.03607
1172.40 0.03606
1172.50 0.03605
1172.60 0.03604
1172.70 0.03603
1172.80 0.03601
1172.90 0.036
1173.00 0.03599
1173.10 0.03598
1173.20 0.03597
1173.30 0.03595
1173.40 0.03594
1173.50 0.03593
1173.60 0.03592
1173.70 0.03591
1173.80 0.03589
1173.90 0.03588
1174.00 0.03587
1174.10 0.03586
1174.20 0.03585
1174.30 0.03583
1174.40 0.03582
1174.50 0.03581
1174.60 0.0358
1174.70 0.03579
1174.80 0.03578
1174.90 0.03576
1175.00 0.03575
1175.10 0.03574
1175.20 0.03573
1175.30 0.03572
1175.40 0.0357
1175.50 0.03569
1175.60 0.03568
1175.70 0.03567
1175.80 0.03566
1175.90 0.03564
1176.00 0.03563
1176.10 0.03562
1176.20 0.03561
1176.30 0.0356
1176.40 0.03558
1176.50 0.03557
1176.60 0.03556
1176.70 0.03555
1176.80 0.03554
1176.90 0.03553
1177.00 0.03551
1177.10 0.0355
1177.20 0.03549
1177.30 0.03548
1177.40 0.03547
1177.50 0.03545
1177.60 0.03544
1177.70 0.03543
1177.80 0.03542
1177.90 0.03541
1178.00 0.0354
1178.10 0.03538
1178.20 0.03537
1178.30 0.03536
1178.40 0.03535
1178.50 0.03534
1178.60 0.03533
1178.70 0.03531
1178.80 0.0353
1178.90 0.03529
1179.00 0.03528
1179.10 0.03527
1179.20 0.03526
1179.30 0.03524
1179.40 0.03523
1179.50 0.03522
1179.60 0.03521
1179.70 0.0352
1179.80 0.03519
1179.90 0.03517
1180.00 0.03516
1180.10 0.03515
1180.20 0.03514
1180.30 0.03513
1180.40 0.03512
1180.50 0.0351
1180.60 0.03509
1180.70 0.03508
1180.80 0.03507
1180.90 0.03506
1181.00 0.03505
1181.10 0.03503
1181.20 0.03502
1181.30 0.03501
1181.40 0.035
1181.50 0.03499
1181.60 0.03498
1181.70 0.03496
1181.80 0.03495
1181.90 0.03494
1182.00 0.03493
1182.10 0.03492
1182.20 0.03491
1182.30 0.03489
1182.40 0.03488
1182.50 0.03487
1182.60 0.03486
1182.70 0.03485
1182.80 0.03484
1182.90 0.03483
1183.00 0.03481
1183.10 0.0348
1183.20 0.03479
1183.30 0.03478
1183.40 0.03477
1183.50 0.03476
1183.60 0.03474
1183.70 0.03473
1183.80 0.03472
1183.90 0.03471
1184.00 0.0347
1184.10 0.03469
1184.20 0.03468
1184.30 0.03466
1184.40 0.03465
1184.50 0.03464
1184.60 0.03463
1184.70 0.03462
1184.80 0.03461
1184.90 0.0346
1185.00 0.03458
1185.10 0.03457
1185.20 0.03456
1185.30 0.03455
1185.40 0.03454
1185.50 0.03453
1185.60 0.03452
1185.70 0.0345
1185.80 0.03449
1185.90 0.03448
1186.00 0.03447
1186.10 0.03446
1186.20 0.03445
1186.30 0.03444
1186.40 0.03442
1186.50 0.03441
1186.60 0.0344
1186.70 0.03439
1186.80 0.03438
1186.90 0.03437
1187.00 0.03436
1187.10 0.03434
1187.20 0.03433
1187.30 0.03432
1187.40 0.03431
1187.50 0.0343
1187.60 0.03429
1187.70 0.03428
1187.80 0.03427
1187.90 0.03425
1188.00 0.03424
1188.10 0.03423
1188.20 0.03422
1188.30 0.03421
1188.40 0.0342
1188.50 0.03419
1188.60 0.03418
1188.70 0.03416
1188.80 0.03415
1188.90 0.03414
1189.00 0.03413
1189.10 0.03412
1189.20 0.03411
1189.30 0.0341
1189.40 0.03409
1189.50 0.03407
1189.60 0.03406
1189.70 0.03405
1189.80 0.03404
1189.90 0.03403
1190.00 0.03402
1190.10 0.03401
1190.20 0.034
1190.30 0.03398
1190.40 0.03397
1190.50 0.03396
1190.60 0.03395
1190.70 0.03394
1190.80 0.03393
1190.90 0.03392
1191.00 0.03391
1191.10 0.0339
1191.20 0.03388
1191.30 0.03387
1191.40 0.03386
1191.50 0.03385
1191.60 0.03384
1191.70 0.03383
1191.80 0.03382
1191.90 0.03381
1192.00 0.03379
1192.10 0.03378
1192.20 0.03377
1192.30 0.03376
1192.40 0.03375
1192.50 0.03374
1192.60 0.03373
1192.70 0.03372
1192.80 0.03371
1192.90 0.0337
1193.00 0.03368
1193.10 0.03367
1193.20 0.03366
1193.30 0.03365
1193.40 0.03364
1193.50 0.03363
1193.60 0.03362
1193.70 0.03361
1193.80 0.0336
1193.90 0.03359
1194.00 0.03357
1194.10 0.03356
1194.20 0.03355
1194.30 0.03354
1194.40 0.03353
1194.50 0.03352
1194.60 0.03351
1194.70 0.0335
1194.80 0.03349
1194.90 0.03348
1195.00 0.03346
1195.10 0.03345
1195.20 0.03344
1195.30 0.03343
1195.40 0.03342
1195.50 0.03341
1195.60 0.0334
1195.70 0.03339
1195.80 0.03338
1195.90 0.03337
1196.00 0.03335
1196.10 0.03334
1196.20 0.03333
1196.30 0.03332
1196.40 0.03331
1196.50 0.0333
1196.60 0.03329
1196.70 0.03328
1196.80 0.03327
1196.90 0.03326
1197.00 0.03325
1197.10 0.03323
1197.20 0.03322
1197.30 0.03321
1197.40 0.0332
1197.50 0.03319
1197.60 0.03318
1197.70 0.03317
1197.80 0.03316
1197.90 0.03315
1198.00 0.03314
1198.10 0.03313
1198.20 0.03312
1198.30 0.0331
1198.40 0.03309
1198.50 0.03308
1198.60 0.03307
1198.70 0.03306
1198.80 0.03305
1198.90 0.03304
1199.00 0.03303
1199.10 0.03302
1199.20 0.03301
1199.30 0.033
1199.40 0.03299
1199.50 0.03297
1199.60 0.03296
1199.70 0.03295
1199.80 0.03294
1199.90 0.03293
1200.00 0
