# Version 2.1 - nm, norm@500 to 1, cut digits, bergeron_100000_95.dat_100000
# Wavelength(nm)  Flambda(ergs/cm^s/s/nm)
300.00 6.881
300.10 6.873
300.20 6.864
300.30 6.856
300.40 6.847
300.50 6.838
300.60 6.83
300.70 6.821
300.80 6.813
300.90 6.804
301.00 6.796
301.10 6.787
301.20 6.779
301.30 6.77
301.40 6.762
301.50 6.753
301.60 6.745
301.70 6.736
301.80 6.728
301.90 6.719
302.00 6.711
302.10 6.703
302.20 6.694
302.30 6.686
302.40 6.677
302.50 6.669
302.60 6.661
302.70 6.653
302.80 6.644
302.90 6.636
303.00 6.628
303.10 6.619
303.20 6.611
303.30 6.603
303.40 6.595
303.50 6.587
303.60 6.578
303.70 6.57
303.80 6.562
303.90 6.554
304.00 6.546
304.10 6.538
304.20 6.529
304.30 6.521
304.40 6.513
304.50 6.505
304.60 6.497
304.70 6.489
304.80 6.481
304.90 6.473
305.00 6.465
305.10 6.457
305.20 6.449
305.30 6.441
305.40 6.433
305.50 6.425
305.60 6.417
305.70 6.409
305.80 6.401
305.90 6.393
306.00 6.386
306.10 6.378
306.20 6.37
306.30 6.362
306.40 6.354
306.50 6.346
306.60 6.338
306.70 6.331
306.80 6.323
306.90 6.315
307.00 6.307
307.10 6.299
307.20 6.292
307.30 6.284
307.40 6.276
307.50 6.269
307.60 6.261
307.70 6.253
307.80 6.246
307.90 6.238
308.00 6.23
308.10 6.223
308.20 6.215
308.30 6.207
308.40 6.2
308.50 6.192
308.60 6.185
308.70 6.177
308.80 6.169
308.90 6.162
309.00 6.154
309.10 6.147
309.20 6.139
309.30 6.132
309.40 6.124
309.50 6.117
309.60 6.109
309.70 6.102
309.80 6.094
309.90 6.087
310.00 6.08
310.10 6.072
310.20 6.065
310.30 6.057
310.40 6.05
310.50 6.043
310.60 6.035
310.70 6.028
310.80 6.021
310.90 6.013
311.00 6.006
311.10 5.999
311.20 5.991
311.30 5.984
311.40 5.977
311.50 5.97
311.60 5.962
311.70 5.955
311.80 5.948
311.90 5.941
312.00 5.934
312.10 5.926
312.20 5.919
312.30 5.912
312.40 5.905
312.50 5.898
312.60 5.891
312.70 5.883
312.80 5.876
312.90 5.869
313.00 5.862
313.10 5.855
313.20 5.848
313.30 5.841
313.40 5.834
313.50 5.827
313.60 5.82
313.70 5.813
313.80 5.806
313.90 5.799
314.00 5.792
314.10 5.785
314.20 5.778
314.30 5.771
314.40 5.764
314.50 5.757
314.60 5.75
314.70 5.743
314.80 5.736
314.90 5.729
315.00 5.723
315.10 5.716
315.20 5.709
315.30 5.702
315.40 5.695
315.50 5.688
315.60 5.682
315.70 5.675
315.80 5.668
315.90 5.661
316.00 5.654
316.10 5.648
316.20 5.641
316.30 5.634
316.40 5.627
316.50 5.621
316.60 5.614
316.70 5.607
316.80 5.6
316.90 5.594
317.00 5.587
317.10 5.58
317.20 5.574
317.30 5.567
317.40 5.561
317.50 5.554
317.60 5.547
317.70 5.541
317.80 5.534
317.90 5.528
318.00 5.521
318.10 5.514
318.20 5.508
318.30 5.501
318.40 5.495
318.50 5.488
318.60 5.482
318.70 5.475
318.80 5.469
318.90 5.462
319.00 5.456
319.10 5.449
319.20 5.443
319.30 5.436
319.40 5.43
319.50 5.423
319.60 5.417
319.70 5.411
319.80 5.404
319.90 5.398
320.00 5.391
320.10 5.385
320.20 5.379
320.30 5.372
320.40 5.366
320.50 5.36
320.60 5.353
320.70 5.347
320.80 5.341
320.90 5.334
321.00 5.328
321.10 5.322
321.20 5.316
321.30 5.309
321.40 5.303
321.50 5.297
321.60 5.291
321.70 5.284
321.80 5.278
321.90 5.272
322.00 5.266
322.10 5.26
322.20 5.253
322.30 5.247
322.40 5.241
322.50 5.235
322.60 5.229
322.70 5.223
322.80 5.216
322.90 5.21
323.00 5.204
323.10 5.198
323.20 5.192
323.30 5.186
323.40 5.18
323.50 5.174
323.60 5.168
323.70 5.162
323.80 5.156
323.90 5.15
324.00 5.144
324.10 5.138
324.20 5.132
324.30 5.126
324.40 5.12
324.50 5.114
324.60 5.108
324.70 5.102
324.80 5.096
324.90 5.09
325.00 5.084
325.10 5.078
325.20 5.072
325.30 5.066
325.40 5.06
325.50 5.054
325.60 5.049
325.70 5.043
325.80 5.037
325.90 5.031
326.00 5.025
326.10 5.019
326.20 5.013
326.30 5.008
326.40 5.002
326.50 4.996
326.60 4.99
326.70 4.984
326.80 4.979
326.90 4.973
327.00 4.967
327.10 4.961
327.20 4.956
327.30 4.95
327.40 4.944
327.50 4.939
327.60 4.933
327.70 4.927
327.80 4.921
327.90 4.916
328.00 4.91
328.10 4.904
328.20 4.899
328.30 4.893
328.40 4.887
328.50 4.882
328.60 4.876
328.70 4.871
328.80 4.865
328.90 4.859
329.00 4.854
329.10 4.848
329.20 4.843
329.30 4.837
329.40 4.831
329.50 4.826
329.60 4.82
329.70 4.815
329.80 4.809
329.90 4.804
330.00 4.798
330.10 4.793
330.20 4.787
330.30 4.782
330.40 4.776
330.50 4.771
330.60 4.765
330.70 4.76
330.80 4.754
330.90 4.749
331.00 4.744
331.10 4.738
331.20 4.733
331.30 4.727
331.40 4.722
331.50 4.717
331.60 4.711
331.70 4.706
331.80 4.7
331.90 4.695
332.00 4.69
332.10 4.684
332.20 4.679
332.30 4.674
332.40 4.668
332.50 4.663
332.60 4.658
332.70 4.652
332.80 4.647
332.90 4.642
333.00 4.636
333.10 4.631
333.20 4.626
333.30 4.621
333.40 4.615
333.50 4.61
333.60 4.605
333.70 4.6
333.80 4.594
333.90 4.589
334.00 4.584
334.10 4.579
334.20 4.574
334.30 4.568
334.40 4.563
334.50 4.558
334.60 4.553
334.70 4.548
334.80 4.543
334.90 4.538
335.00 4.532
335.10 4.527
335.20 4.522
335.30 4.517
335.40 4.512
335.50 4.507
335.60 4.502
335.70 4.497
335.80 4.491
335.90 4.486
336.00 4.481
336.10 4.476
336.20 4.471
336.30 4.466
336.40 4.461
336.50 4.456
336.60 4.451
336.70 4.446
336.80 4.441
336.90 4.436
337.00 4.431
337.10 4.426
337.20 4.421
337.30 4.416
337.40 4.411
337.50 4.406
337.60 4.401
337.70 4.396
337.80 4.391
337.90 4.386
338.00 4.382
338.10 4.377
338.20 4.372
338.30 4.367
338.40 4.362
338.50 4.357
338.60 4.352
338.70 4.347
338.80 4.343
338.90 4.338
339.00 4.333
339.10 4.328
339.20 4.323
339.30 4.318
339.40 4.313
339.50 4.309
339.60 4.304
339.70 4.299
339.80 4.294
339.90 4.289
340.00 4.285
340.10 4.28
340.20 4.275
340.30 4.27
340.40 4.266
340.50 4.261
340.60 4.256
340.70 4.251
340.80 4.247
340.90 4.242
341.00 4.237
341.10 4.232
341.20 4.228
341.30 4.223
341.40 4.218
341.50 4.214
341.60 4.209
341.70 4.204
341.80 4.2
341.90 4.195
342.00 4.19
342.10 4.186
342.20 4.181
342.30 4.176
342.40 4.172
342.50 4.167
342.60 4.163
342.70 4.158
342.80 4.153
342.90 4.149
343.00 4.144
343.10 4.14
343.20 4.135
343.30 4.13
343.40 4.126
343.50 4.121
343.60 4.117
343.70 4.112
343.80 4.108
343.90 4.103
344.00 4.099
344.10 4.094
344.20 4.09
344.30 4.085
344.40 4.081
344.50 4.076
344.60 4.072
344.70 4.067
344.80 4.063
344.90 4.058
345.00 4.054
345.10 4.049
345.20 4.045
345.30 4.04
345.40 4.036
345.50 4.031
345.60 4.027
345.70 4.023
345.80 4.018
345.90 4.014
346.00 4.009
346.10 4.005
346.20 4.001
346.30 3.996
346.40 3.992
346.50 3.987
346.60 3.983
346.70 3.979
346.80 3.974
346.90 3.97
347.00 3.966
347.10 3.961
347.20 3.957
347.30 3.953
347.40 3.948
347.50 3.944
347.60 3.94
347.70 3.935
347.80 3.931
347.90 3.927
348.00 3.922
348.10 3.918
348.20 3.914
348.30 3.91
348.40 3.905
348.50 3.901
348.60 3.897
348.70 3.893
348.80 3.888
348.90 3.884
349.00 3.88
349.10 3.876
349.20 3.872
349.30 3.867
349.40 3.863
349.50 3.859
349.60 3.855
349.70 3.851
349.80 3.846
349.90 3.842
350.00 3.838
350.10 3.834
350.20 3.83
350.30 3.826
350.40 3.821
350.50 3.817
350.60 3.813
350.70 3.809
350.80 3.805
350.90 3.801
351.00 3.797
351.10 3.793
351.20 3.789
351.30 3.784
351.40 3.78
351.50 3.776
351.60 3.772
351.70 3.768
351.80 3.764
351.90 3.76
352.00 3.756
352.10 3.752
352.20 3.748
352.30 3.744
352.40 3.74
352.50 3.736
352.60 3.732
352.70 3.728
352.80 3.724
352.90 3.72
353.00 3.716
353.10 3.712
353.20 3.708
353.30 3.704
353.40 3.7
353.50 3.696
353.60 3.692
353.70 3.688
353.80 3.684
353.90 3.68
354.00 3.676
354.10 3.672
354.20 3.668
354.30 3.664
354.40 3.66
354.50 3.656
354.60 3.652
354.70 3.648
354.80 3.644
354.90 3.641
355.00 3.637
355.10 3.633
355.20 3.629
355.30 3.625
355.40 3.621
355.50 3.617
355.60 3.613
355.70 3.61
355.80 3.606
355.90 3.602
356.00 3.598
356.10 3.594
356.20 3.59
356.30 3.586
356.40 3.583
356.50 3.579
356.60 3.575
356.70 3.571
356.80 3.567
356.90 3.564
357.00 3.56
357.10 3.556
357.20 3.552
357.30 3.548
357.40 3.545
357.50 3.541
357.60 3.537
357.70 3.533
357.80 3.53
357.90 3.526
358.00 3.522
358.10 3.518
358.20 3.515
358.30 3.511
358.40 3.507
358.50 3.504
358.60 3.5
358.70 3.496
358.80 3.492
358.90 3.489
359.00 3.485
359.10 3.481
359.20 3.478
359.30 3.474
359.40 3.47
359.50 3.467
359.60 3.463
359.70 3.459
359.80 3.456
359.90 3.452
360.00 3.448
360.10 3.445
360.20 3.441
360.30 3.437
360.40 3.434
360.50 3.43
360.60 3.427
360.70 3.423
360.80 3.419
360.90 3.416
361.00 3.412
361.10 3.409
361.20 3.405
361.30 3.401
361.40 3.398
361.50 3.394
361.60 3.391
361.70 3.387
361.80 3.384
361.90 3.38
362.00 3.376
362.10 3.373
362.20 3.369
362.30 3.366
362.40 3.362
362.50 3.359
362.60 3.355
362.70 3.352
362.80 3.348
362.90 3.345
363.00 3.341
363.10 3.338
363.20 3.334
363.30 3.331
363.40 3.327
363.50 3.324
363.60 3.32
363.70 3.317
363.80 3.313
363.90 3.31
364.00 3.306
364.10 3.303
364.20 3.299
364.30 3.296
364.40 3.293
364.50 3.289
364.60 3.286
364.70 3.282
364.80 3.279
364.90 3.275
365.00 3.272
365.10 3.269
365.20 3.265
365.30 3.262
365.40 3.258
365.50 3.255
365.60 3.252
365.70 3.248
365.80 3.245
365.90 3.242
366.00 3.238
366.10 3.235
366.20 3.231
366.30 3.228
366.40 3.225
366.50 3.221
366.60 3.218
366.70 3.215
366.80 3.211
366.90 3.208
367.00 3.205
367.10 3.201
367.20 3.198
367.30 3.195
367.40 3.191
367.50 3.188
367.60 3.185
367.70 3.181
367.80 3.178
367.90 3.175
368.00 3.172
368.10 3.168
368.20 3.165
368.30 3.162
368.40 3.158
368.50 3.155
368.60 3.152
368.70 3.148
368.80 3.145
368.90 3.142
369.00 3.138
369.10 3.135
369.20 3.132
369.30 3.128
369.40 3.125
369.50 3.122
369.60 3.119
369.70 3.115
369.80 3.112
369.90 3.109
370.00 3.106
370.10 3.102
370.20 3.099
370.30 3.096
370.40 3.092
370.50 3.089
370.60 3.086
370.70 3.083
370.80 3.079
370.90 3.076
371.00 3.073
371.10 3.07
371.20 3.067
371.30 3.063
371.40 3.06
371.50 3.057
371.60 3.054
371.70 3.05
371.80 3.047
371.90 3.044
372.00 3.041
372.10 3.038
372.20 3.035
372.30 3.032
372.40 3.029
372.50 3.026
372.60 3.022
372.70 3.019
372.80 3.016
372.90 3.013
373.00 3.01
373.10 3.007
373.20 3.004
373.30 3.001
373.40 2.998
373.50 2.995
373.60 2.992
373.70 2.989
373.80 2.986
373.90 2.983
374.00 2.98
374.10 2.977
374.20 2.974
374.30 2.971
374.40 2.968
374.50 2.965
374.60 2.962
374.70 2.959
374.80 2.956
374.90 2.953
375.00 2.95
375.10 2.946
375.20 2.943
375.30 2.94
375.40 2.937
375.50 2.934
375.60 2.931
375.70 2.928
375.80 2.925
375.90 2.922
376.00 2.919
376.10 2.916
376.20 2.913
376.30 2.91
376.40 2.907
376.50 2.904
376.60 2.901
376.70 2.898
376.80 2.895
376.90 2.892
377.00 2.889
377.10 2.886
377.20 2.883
377.30 2.88
377.40 2.877
377.50 2.874
377.60 2.871
377.70 2.868
377.80 2.865
377.90 2.862
378.00 2.859
378.10 2.857
378.20 2.854
378.30 2.851
378.40 2.848
378.50 2.845
378.60 2.842
378.70 2.839
378.80 2.836
378.90 2.833
379.00 2.831
379.10 2.828
379.20 2.825
379.30 2.822
379.40 2.819
379.50 2.816
379.60 2.813
379.70 2.81
379.80 2.808
379.90 2.805
380.00 2.802
380.10 2.799
380.20 2.796
380.30 2.793
380.40 2.791
380.50 2.788
380.60 2.785
380.70 2.782
380.80 2.779
380.90 2.776
381.00 2.774
381.10 2.771
381.20 2.768
381.30 2.765
381.40 2.763
381.50 2.76
381.60 2.757
381.70 2.754
381.80 2.751
381.90 2.749
382.00 2.746
382.10 2.743
382.20 2.74
382.30 2.738
382.40 2.735
382.50 2.732
382.60 2.73
382.70 2.727
382.80 2.724
382.90 2.721
383.00 2.719
383.10 2.716
383.20 2.713
383.30 2.71
383.40 2.708
383.50 2.705
383.60 2.702
383.70 2.7
383.80 2.697
383.90 2.694
384.00 2.692
384.10 2.689
384.20 2.686
384.30 2.684
384.40 2.681
384.50 2.678
384.60 2.676
384.70 2.673
384.80 2.67
384.90 2.668
385.00 2.665
385.10 2.663
385.20 2.66
385.30 2.657
385.40 2.655
385.50 2.652
385.60 2.649
385.70 2.647
385.80 2.644
385.90 2.642
386.00 2.639
386.10 2.636
386.20 2.634
386.30 2.631
386.40 2.629
386.50 2.626
386.60 2.624
386.70 2.621
386.80 2.618
386.90 2.616
387.00 2.613
387.10 2.611
387.20 2.608
387.30 2.606
387.40 2.603
387.50 2.601
387.60 2.598
387.70 2.596
387.80 2.593
387.90 2.59
388.00 2.588
388.10 2.585
388.20 2.583
388.30 2.58
388.40 2.578
388.50 2.575
388.60 2.573
388.70 2.571
388.80 2.568
388.90 2.566
389.00 2.563
389.10 2.561
389.20 2.558
389.30 2.556
389.40 2.553
389.50 2.551
389.60 2.548
389.70 2.546
389.80 2.543
389.90 2.541
390.00 2.539
390.10 2.536
390.20 2.534
390.30 2.531
390.40 2.529
390.50 2.527
390.60 2.524
390.70 2.522
390.80 2.519
390.90 2.517
391.00 2.515
391.10 2.512
391.20 2.51
391.30 2.507
391.40 2.505
391.50 2.503
391.60 2.5
391.70 2.498
391.80 2.495
391.90 2.493
392.00 2.491
392.10 2.488
392.20 2.486
392.30 2.484
392.40 2.481
392.50 2.479
392.60 2.476
392.70 2.474
392.80 2.472
392.90 2.469
393.00 2.467
393.10 2.465
393.20 2.462
393.30 2.46
393.40 2.457
393.50 2.455
393.60 2.453
393.70 2.45
393.80 2.448
393.90 2.446
394.00 2.443
394.10 2.441
394.20 2.439
394.30 2.436
394.40 2.434
394.50 2.432
394.60 2.429
394.70 2.427
394.80 2.425
394.90 2.422
395.00 2.42
395.10 2.418
395.20 2.415
395.30 2.413
395.40 2.411
395.50 2.408
395.60 2.406
395.70 2.404
395.80 2.401
395.90 2.399
396.00 2.397
396.10 2.394
396.20 2.392
396.30 2.39
396.40 2.388
396.50 2.385
396.60 2.383
396.70 2.381
396.80 2.379
396.90 2.376
397.00 2.374
397.10 2.372
397.20 2.37
397.30 2.368
397.40 2.366
397.50 2.363
397.60 2.361
397.70 2.359
397.80 2.357
397.90 2.355
398.00 2.353
398.10 2.351
398.20 2.349
398.30 2.347
398.40 2.345
398.50 2.343
398.60 2.341
398.70 2.339
398.80 2.337
398.90 2.335
399.00 2.333
399.10 2.33
399.20 2.328
399.30 2.326
399.40 2.324
399.50 2.322
399.60 2.32
399.70 2.318
399.80 2.316
399.90 2.314
400.00 2.312
400.10 2.31
400.20 2.308
400.30 2.306
400.40 2.304
400.50 2.302
400.60 2.3
400.70 2.298
400.80 2.295
400.90 2.293
401.00 2.291
401.10 2.289
401.20 2.287
401.30 2.285
401.40 2.283
401.50 2.281
401.60 2.279
401.70 2.277
401.80 2.274
401.90 2.272
402.00 2.27
402.10 2.268
402.20 2.266
402.30 2.264
402.40 2.262
402.50 2.26
402.60 2.257
402.70 2.255
402.80 2.253
402.90 2.251
403.00 2.249
403.10 2.247
403.20 2.244
403.30 2.242
403.40 2.24
403.50 2.238
403.60 2.236
403.70 2.233
403.80 2.231
403.90 2.229
404.00 2.227
404.10 2.225
404.20 2.222
404.30 2.22
404.40 2.218
404.50 2.216
404.60 2.213
404.70 2.211
404.80 2.209
404.90 2.207
405.00 2.204
405.10 2.202
405.20 2.2
405.30 2.198
405.40 2.195
405.50 2.193
405.60 2.191
405.70 2.188
405.80 2.186
405.90 2.184
406.00 2.181
406.10 2.179
406.20 2.177
406.30 2.174
406.40 2.172
406.50 2.17
406.60 2.167
406.70 2.165
406.80 2.163
406.90 2.16
407.00 2.158
407.10 2.156
407.20 2.153
407.30 2.151
407.40 2.149
407.50 2.146
407.60 2.144
407.70 2.142
407.80 2.139
407.90 2.137
408.00 2.135
408.10 2.132
408.20 2.13
408.30 2.128
408.40 2.125
408.50 2.123
408.60 2.121
408.70 2.118
408.80 2.116
408.90 2.114
409.00 2.112
409.10 2.11
409.20 2.107
409.30 2.105
409.40 2.103
409.50 2.101
409.60 2.099
409.70 2.098
409.80 2.096
409.90 2.094
410.00 2.093
410.10 2.091
410.20 2.089
410.30 2.087
410.40 2.085
410.50 2.083
410.60 2.081
410.70 2.079
410.80 2.077
410.90 2.076
411.00 2.074
411.10 2.073
411.20 2.071
411.30 2.069
411.40 2.068
411.50 2.066
411.60 2.065
411.70 2.064
411.80 2.062
411.90 2.061
412.00 2.059
412.10 2.058
412.20 2.057
412.30 2.055
412.40 2.054
412.50 2.053
412.60 2.051
412.70 2.05
412.80 2.049
412.90 2.047
413.00 2.046
413.10 2.045
413.20 2.043
413.30 2.042
413.40 2.041
413.50 2.039
413.60 2.038
413.70 2.037
413.80 2.035
413.90 2.034
414.00 2.032
414.10 2.031
414.20 2.03
414.30 2.028
414.40 2.027
414.50 2.025
414.60 2.024
414.70 2.023
414.80 2.021
414.90 2.02
415.00 2.018
415.10 2.017
415.20 2.015
415.30 2.014
415.40 2.013
415.50 2.011
415.60 2.01
415.70 2.008
415.80 2.007
415.90 2.005
416.00 2.004
416.10 2.002
416.20 2.001
416.30 1.999
416.40 1.998
416.50 1.996
416.60 1.995
416.70 1.993
416.80 1.992
416.90 1.99
417.00 1.988
417.10 1.987
417.20 1.985
417.30 1.984
417.40 1.982
417.50 1.981
417.60 1.979
417.70 1.977
417.80 1.976
417.90 1.974
418.00 1.973
418.10 1.971
418.20 1.969
418.30 1.968
418.40 1.966
418.50 1.965
418.60 1.963
418.70 1.961
418.80 1.96
418.90 1.958
419.00 1.956
419.10 1.955
419.20 1.953
419.30 1.951
419.40 1.95
419.50 1.948
419.60 1.946
419.70 1.945
419.80 1.943
419.90 1.941
420.00 1.94
420.10 1.938
420.20 1.936
420.30 1.934
420.40 1.933
420.50 1.931
420.60 1.929
420.70 1.927
420.80 1.926
420.90 1.924
421.00 1.922
421.10 1.92
421.20 1.919
421.30 1.917
421.40 1.915
421.50 1.913
421.60 1.912
421.70 1.91
421.80 1.908
421.90 1.906
422.00 1.904
422.10 1.903
422.20 1.901
422.30 1.899
422.40 1.897
422.50 1.895
422.60 1.893
422.70 1.892
422.80 1.89
422.90 1.888
423.00 1.886
423.10 1.884
423.20 1.882
423.30 1.88
423.40 1.879
423.50 1.877
423.60 1.875
423.70 1.873
423.80 1.871
423.90 1.869
424.00 1.867
424.10 1.865
424.20 1.863
424.30 1.861
424.40 1.859
424.50 1.857
424.60 1.855
424.70 1.853
424.80 1.851
424.90 1.85
425.00 1.848
425.10 1.846
425.20 1.844
425.30 1.841
425.40 1.839
425.50 1.837
425.60 1.835
425.70 1.833
425.80 1.831
425.90 1.829
426.00 1.827
426.10 1.825
426.20 1.823
426.30 1.821
426.40 1.819
426.50 1.817
426.60 1.814
426.70 1.812
426.80 1.81
426.90 1.808
427.00 1.806
427.10 1.804
427.20 1.801
427.30 1.799
427.40 1.797
427.50 1.795
427.60 1.793
427.70 1.79
427.80 1.788
427.90 1.786
428.00 1.783
428.10 1.781
428.20 1.779
428.30 1.777
428.40 1.774
428.50 1.772
428.60 1.77
428.70 1.767
428.80 1.765
428.90 1.762
429.00 1.76
429.10 1.758
429.20 1.755
429.30 1.753
429.40 1.75
429.50 1.748
429.60 1.745
429.70 1.743
429.80 1.74
429.90 1.738
430.00 1.735
430.10 1.733
430.20 1.73
430.30 1.727
430.40 1.725
430.50 1.722
430.60 1.72
430.70 1.717
430.80 1.714
430.90 1.712
431.00 1.709
431.10 1.706
431.20 1.704
431.30 1.701
431.40 1.698
431.50 1.696
431.60 1.693
431.70 1.69
431.80 1.688
431.90 1.685
432.00 1.682
432.10 1.679
432.20 1.677
432.30 1.674
432.40 1.671
432.50 1.668
432.60 1.665
432.70 1.662
432.80 1.66
432.90 1.657
433.00 1.654
433.10 1.651
433.20 1.648
433.30 1.644
433.40 1.641
433.50 1.638
433.60 1.634
433.70 1.631
433.80 1.627
433.90 1.623
434.00 1.621
434.10 1.62
434.20 1.621
434.30 1.622
434.40 1.622
434.50 1.623
434.60 1.624
434.70 1.625
434.80 1.625
434.90 1.625
435.00 1.626
435.10 1.626
435.20 1.626
435.30 1.626
435.40 1.626
435.50 1.626
435.60 1.626
435.70 1.626
435.80 1.626
435.90 1.626
436.00 1.626
436.10 1.626
436.20 1.626
436.30 1.626
436.40 1.626
436.50 1.626
436.60 1.625
436.70 1.625
436.80 1.625
436.90 1.625
437.00 1.625
437.10 1.624
437.20 1.624
437.30 1.624
437.40 1.624
437.50 1.623
437.60 1.623
437.70 1.623
437.80 1.622
437.90 1.622
438.00 1.622
438.10 1.621
438.20 1.621
438.30 1.62
438.40 1.62
438.50 1.62
438.60 1.619
438.70 1.619
438.80 1.618
438.90 1.618
439.00 1.617
439.10 1.617
439.20 1.616
439.30 1.615
439.40 1.615
439.50 1.614
439.60 1.614
439.70 1.613
439.80 1.612
439.90 1.612
440.00 1.611
440.10 1.61
440.20 1.61
440.30 1.609
440.40 1.608
440.50 1.607
440.60 1.607
440.70 1.606
440.80 1.605
440.90 1.604
441.00 1.604
441.10 1.603
441.20 1.602
441.30 1.601
441.40 1.6
441.50 1.599
441.60 1.599
441.70 1.598
441.80 1.597
441.90 1.596
442.00 1.595
442.10 1.594
442.20 1.593
442.30 1.592
442.40 1.591
442.50 1.59
442.60 1.589
442.70 1.589
442.80 1.588
442.90 1.587
443.00 1.586
443.10 1.585
443.20 1.584
443.30 1.583
443.40 1.582
443.50 1.581
443.60 1.58
443.70 1.579
443.80 1.578
443.90 1.576
444.00 1.575
444.10 1.574
444.20 1.573
444.30 1.572
444.40 1.571
444.50 1.57
444.60 1.569
444.70 1.568
444.80 1.567
444.90 1.566
445.00 1.565
445.10 1.564
445.20 1.562
445.30 1.561
445.40 1.56
445.50 1.559
445.60 1.558
445.70 1.557
445.80 1.556
445.90 1.555
446.00 1.553
446.10 1.552
446.20 1.551
446.30 1.55
446.40 1.549
446.50 1.548
446.60 1.547
446.70 1.545
446.80 1.544
446.90 1.543
447.00 1.542
447.10 1.541
447.20 1.54
447.30 1.538
447.40 1.537
447.50 1.536
447.60 1.535
447.70 1.534
447.80 1.533
447.90 1.531
448.00 1.53
448.10 1.529
448.20 1.528
448.30 1.527
448.40 1.525
448.50 1.524
448.60 1.523
448.70 1.522
448.80 1.521
448.90 1.519
449.00 1.518
449.10 1.517
449.20 1.516
449.30 1.515
449.40 1.513
449.50 1.512
449.60 1.511
449.70 1.51
449.80 1.509
449.90 1.507
450.00 1.506
450.10 1.505
450.20 1.504
450.30 1.503
450.40 1.501
450.50 1.5
450.60 1.499
450.70 1.498
450.80 1.497
450.90 1.495
451.00 1.494
451.10 1.493
451.20 1.492
451.30 1.491
451.40 1.489
451.50 1.488
451.60 1.487
451.70 1.486
451.80 1.484
451.90 1.483
452.00 1.482
452.10 1.481
452.20 1.48
452.30 1.478
452.40 1.477
452.50 1.476
452.60 1.475
452.70 1.474
452.80 1.472
452.90 1.471
453.00 1.47
453.10 1.469
453.20 1.468
453.30 1.466
453.40 1.465
453.50 1.464
453.60 1.463
453.70 1.461
453.80 1.46
453.90 1.459
454.00 1.458
454.10 1.457
454.20 1.455
454.30 1.454
454.40 1.453
454.50 1.452
454.60 1.451
454.70 1.449
454.80 1.448
454.90 1.447
455.00 1.446
455.10 1.445
455.20 1.443
455.30 1.442
455.40 1.441
455.50 1.44
455.60 1.439
455.70 1.437
455.80 1.436
455.90 1.435
456.00 1.434
456.10 1.433
456.20 1.431
456.30 1.43
456.40 1.429
456.50 1.428
456.60 1.427
456.70 1.425
456.80 1.424
456.90 1.423
457.00 1.422
457.10 1.421
457.20 1.419
457.30 1.418
457.40 1.417
457.50 1.416
457.60 1.415
457.70 1.413
457.80 1.412
457.90 1.411
458.00 1.41
458.10 1.409
458.20 1.407
458.30 1.406
458.40 1.405
458.50 1.404
458.60 1.403
458.70 1.402
458.80 1.4
458.90 1.399
459.00 1.398
459.10 1.397
459.20 1.396
459.30 1.394
459.40 1.393
459.50 1.392
459.60 1.391
459.70 1.39
459.80 1.389
459.90 1.387
460.00 1.386
460.10 1.385
460.20 1.384
460.30 1.383
460.40 1.382
460.50 1.38
460.60 1.379
460.70 1.378
460.80 1.377
460.90 1.376
461.00 1.374
461.10 1.373
461.20 1.372
461.30 1.371
461.40 1.37
461.50 1.369
461.60 1.367
461.70 1.366
461.80 1.365
461.90 1.364
462.00 1.363
462.10 1.362
462.20 1.361
462.30 1.359
462.40 1.358
462.50 1.357
462.60 1.356
462.70 1.355
462.80 1.354
462.90 1.352
463.00 1.351
463.10 1.35
463.20 1.349
463.30 1.348
463.40 1.347
463.50 1.345
463.60 1.344
463.70 1.343
463.80 1.342
463.90 1.341
464.00 1.34
464.10 1.339
464.20 1.337
464.30 1.336
464.40 1.335
464.50 1.334
464.60 1.333
464.70 1.332
464.80 1.33
464.90 1.329
465.00 1.328
465.10 1.327
465.20 1.326
465.30 1.325
465.40 1.324
465.50 1.322
465.60 1.321
465.70 1.32
465.80 1.319
465.90 1.318
466.00 1.317
466.10 1.316
466.20 1.314
466.30 1.313
466.40 1.312
466.50 1.311
466.60 1.31
466.70 1.309
466.80 1.308
466.90 1.306
467.00 1.305
467.10 1.304
467.20 1.303
467.30 1.302
467.40 1.301
467.50 1.3
467.60 1.298
467.70 1.297
467.80 1.296
467.90 1.295
468.00 1.294
468.10 1.293
468.20 1.292
468.30 1.29
468.40 1.289
468.50 1.288
468.60 1.287
468.70 1.286
468.80 1.285
468.90 1.284
469.00 1.282
469.10 1.281
469.20 1.28
469.30 1.279
469.40 1.278
469.50 1.277
469.60 1.276
469.70 1.274
469.80 1.273
469.90 1.272
470.00 1.271
470.10 1.27
470.20 1.269
470.30 1.267
470.40 1.266
470.50 1.265
470.60 1.264
470.70 1.263
470.80 1.262
470.90 1.261
471.00 1.259
471.10 1.258
471.20 1.257
471.30 1.256
471.40 1.255
471.50 1.254
471.60 1.252
471.70 1.251
471.80 1.25
471.90 1.249
472.00 1.248
472.10 1.247
472.20 1.245
472.30 1.244
472.40 1.243
472.50 1.242
472.60 1.241
472.70 1.239
472.80 1.238
472.90 1.237
473.00 1.236
473.10 1.235
473.20 1.233
473.30 1.232
473.40 1.231
473.50 1.23
473.60 1.229
473.70 1.227
473.80 1.226
473.90 1.225
474.00 1.224
474.10 1.223
474.20 1.221
474.30 1.22
474.40 1.219
474.50 1.218
474.60 1.216
474.70 1.215
474.80 1.214
474.90 1.213
475.00 1.211
475.10 1.21
475.20 1.209
475.30 1.208
475.40 1.206
475.50 1.205
475.60 1.204
475.70 1.203
475.80 1.201
475.90 1.2
476.00 1.199
476.10 1.197
476.20 1.196
476.30 1.195
476.40 1.193
476.50 1.192
476.60 1.191
476.70 1.189
476.80 1.188
476.90 1.187
477.00 1.185
477.10 1.184
477.20 1.183
477.30 1.181
477.40 1.18
477.50 1.178
477.60 1.177
477.70 1.176
477.80 1.174
477.90 1.173
478.00 1.171
478.10 1.17
478.20 1.168
478.30 1.167
478.40 1.165
478.50 1.164
478.60 1.162
478.70 1.161
478.80 1.159
478.90 1.158
479.00 1.156
479.10 1.155
479.20 1.153
479.30 1.152
479.40 1.15
479.50 1.148
479.60 1.147
479.70 1.145
479.80 1.144
479.90 1.142
480.00 1.14
480.10 1.139
480.20 1.137
480.30 1.135
480.40 1.133
480.50 1.132
480.60 1.13
480.70 1.128
480.80 1.126
480.90 1.125
481.00 1.123
481.10 1.121
481.20 1.119
481.30 1.117
481.40 1.115
481.50 1.113
481.60 1.112
481.70 1.11
481.80 1.108
481.90 1.106
482.00 1.104
482.10 1.102
482.20 1.1
482.30 1.098
482.40 1.095
482.50 1.093
482.60 1.091
482.70 1.089
482.80 1.087
482.90 1.085
483.00 1.083
483.10 1.081
483.20 1.078
483.30 1.076
483.40 1.074
483.50 1.071
483.60 1.069
483.70 1.067
483.80 1.064
483.90 1.062
484.00 1.06
484.10 1.058
484.20 1.055
484.30 1.053
484.40 1.05
484.50 1.048
484.60 1.046
484.70 1.043
484.80 1.041
484.90 1.039
485.00 1.037
485.10 1.035
485.20 1.033
485.30 1.031
485.40 1.029
485.50 1.028
485.60 1.028
485.70 1.027
485.80 1.029
485.90 1.032
486.00 1.037
486.10 1.04
486.20 1.038
486.30 1.032
486.40 1.027
486.50 1.023
486.60 1.02
486.70 1.019
486.80 1.018
486.90 1.018
487.00 1.018
487.10 1.018
487.20 1.019
487.30 1.019
487.40 1.02
487.50 1.021
487.60 1.021
487.70 1.022
487.80 1.023
487.90 1.023
488.00 1.024
488.10 1.025
488.20 1.025
488.30 1.026
488.40 1.027
488.50 1.027
488.60 1.028
488.70 1.029
488.80 1.029
488.90 1.03
489.00 1.031
489.10 1.031
489.20 1.032
489.30 1.032
489.40 1.033
489.50 1.033
489.60 1.033
489.70 1.034
489.80 1.034
489.90 1.035
490.00 1.035
490.10 1.035
490.20 1.036
490.30 1.036
490.40 1.036
490.50 1.036
490.60 1.036
490.70 1.037
490.80 1.037
490.90 1.037
491.00 1.037
491.10 1.037
491.20 1.037
491.30 1.037
491.40 1.037
491.50 1.037
491.60 1.037
491.70 1.037
491.80 1.037
491.90 1.037
492.00 1.037
492.10 1.037
492.20 1.037
492.30 1.037
492.40 1.037
492.50 1.037
492.60 1.036
492.70 1.036
492.80 1.036
492.90 1.036
493.00 1.036
493.10 1.036
493.20 1.035
493.30 1.035
493.40 1.035
493.50 1.034
493.60 1.034
493.70 1.034
493.80 1.033
493.90 1.033
494.00 1.033
494.10 1.032
494.20 1.032
494.30 1.032
494.40 1.031
494.50 1.031
494.60 1.03
494.70 1.03
494.80 1.03
494.90 1.029
495.00 1.029
495.10 1.028
495.20 1.028
495.30 1.027
495.40 1.027
495.50 1.026
495.60 1.026
495.70 1.025
495.80 1.025
495.90 1.024
496.00 1.024
496.10 1.023
496.20 1.023
496.30 1.022
496.40 1.022
496.50 1.021
496.60 1.021
496.70 1.02
496.80 1.02
496.90 1.019
497.00 1.019
497.10 1.018
497.20 1.017
497.30 1.017
497.40 1.016
497.50 1.016
497.60 1.015
497.70 1.014
497.80 1.014
497.90 1.013
498.00 1.013
498.10 1.012
498.20 1.011
498.30 1.011
498.40 1.01
498.50 1.01
498.60 1.009
498.70 1.008
498.80 1.008
498.90 1.007
499.00 1.006
499.10 1.006
499.20 1.005
499.30 1.005
499.40 1.004
499.50 1.003
499.60 1.003
499.70 1.002
499.80 1.001
499.90 1.001
500.00 1
500.10 0.9994
500.20 0.9987
500.30 0.998
500.40 0.9973
500.50 0.9967
500.60 0.996
500.70 0.9953
500.80 0.9947
500.90 0.994
501.00 0.9933
501.10 0.9927
501.20 0.992
501.30 0.9913
501.40 0.9906
501.50 0.99
501.60 0.9893
501.70 0.9886
501.80 0.9879
501.90 0.9872
502.00 0.9866
502.10 0.9859
502.20 0.9852
502.30 0.9845
502.40 0.9838
502.50 0.9831
502.60 0.9824
502.70 0.9817
502.80 0.9811
502.90 0.9804
503.00 0.9797
503.10 0.979
503.20 0.9783
503.30 0.9776
503.40 0.9769
503.50 0.9762
503.60 0.9755
503.70 0.9748
503.80 0.9741
503.90 0.9734
504.00 0.9728
504.10 0.9721
504.20 0.9714
504.30 0.9707
504.40 0.97
504.50 0.9693
504.60 0.9686
504.70 0.9679
504.80 0.9672
504.90 0.9665
505.00 0.9658
505.10 0.9651
505.20 0.9644
505.30 0.9637
505.40 0.963
505.50 0.9623
505.60 0.9616
505.70 0.9609
505.80 0.9602
505.90 0.9595
506.00 0.9588
506.10 0.9581
506.20 0.9574
506.30 0.9567
506.40 0.956
506.50 0.9553
506.60 0.9546
506.70 0.9539
506.80 0.9532
506.90 0.9526
507.00 0.9519
507.10 0.9512
507.20 0.9505
507.30 0.9498
507.40 0.9491
507.50 0.9484
507.60 0.9477
507.70 0.947
507.80 0.9463
507.90 0.9456
508.00 0.9449
508.10 0.9442
508.20 0.9435
508.30 0.9428
508.40 0.9421
508.50 0.9414
508.60 0.9407
508.70 0.94
508.80 0.9393
508.90 0.9387
509.00 0.938
509.10 0.9373
509.20 0.9366
509.30 0.9359
509.40 0.9352
509.50 0.9345
509.60 0.9338
509.70 0.9331
509.80 0.9324
509.90 0.9318
510.00 0.9311
510.10 0.9304
510.20 0.9297
510.30 0.929
510.40 0.9283
510.50 0.9276
510.60 0.9269
510.70 0.9263
510.80 0.9256
510.90 0.9249
511.00 0.9242
511.10 0.9235
511.20 0.9228
511.30 0.9221
511.40 0.9215
511.50 0.9208
511.60 0.9201
511.70 0.9194
511.80 0.9187
511.90 0.9181
512.00 0.9174
512.10 0.9167
512.20 0.916
512.30 0.9153
512.40 0.9147
512.50 0.914
512.60 0.9133
512.70 0.9126
512.80 0.9119
512.90 0.9113
513.00 0.9106
513.10 0.9099
513.20 0.9092
513.30 0.9086
513.40 0.9079
513.50 0.9072
513.60 0.9065
513.70 0.9059
513.80 0.9052
513.90 0.9045
514.00 0.9039
514.10 0.9032
514.20 0.9025
514.30 0.9018
514.40 0.9012
514.50 0.9005
514.60 0.8998
514.70 0.8992
514.80 0.8985
514.90 0.8978
515.00 0.8972
515.10 0.8965
515.20 0.8958
515.30 0.8952
515.40 0.8945
515.50 0.8938
515.60 0.8932
515.70 0.8925
515.80 0.8919
515.90 0.8912
516.00 0.8905
516.10 0.8899
516.20 0.8892
516.30 0.8886
516.40 0.8879
516.50 0.8872
516.60 0.8866
516.70 0.8859
516.80 0.8853
516.90 0.8846
517.00 0.8839
517.10 0.8833
517.20 0.8826
517.30 0.882
517.40 0.8813
517.50 0.8807
517.60 0.88
517.70 0.8794
517.80 0.8787
517.90 0.8781
518.00 0.8774
518.10 0.8768
518.20 0.8761
518.30 0.8755
518.40 0.8748
518.50 0.8742
518.60 0.8735
518.70 0.8729
518.80 0.8722
518.90 0.8716
519.00 0.8709
519.10 0.8703
519.20 0.8696
519.30 0.869
519.40 0.8684
519.50 0.8677
519.60 0.8671
519.70 0.8664
519.80 0.8658
519.90 0.8652
520.00 0.8645
520.10 0.8639
520.20 0.8632
520.30 0.8626
520.40 0.862
520.50 0.8613
520.60 0.8607
520.70 0.86
520.80 0.8594
520.90 0.8588
521.00 0.8581
521.10 0.8575
521.20 0.8569
521.30 0.8562
521.40 0.8556
521.50 0.855
521.60 0.8543
521.70 0.8537
521.80 0.8531
521.90 0.8524
522.00 0.8518
522.10 0.8512
522.20 0.8506
522.30 0.8499
522.40 0.8493
522.50 0.8487
522.60 0.8481
522.70 0.8474
522.80 0.8468
522.90 0.8462
523.00 0.8455
523.10 0.8449
523.20 0.8443
523.30 0.8437
523.40 0.8431
523.50 0.8424
523.60 0.8418
523.70 0.8412
523.80 0.8406
523.90 0.84
524.00 0.8393
524.10 0.8387
524.20 0.8381
524.30 0.8375
524.40 0.8369
524.50 0.8363
524.60 0.8356
524.70 0.835
524.80 0.8344
524.90 0.8338
525.00 0.8332
525.10 0.8326
525.20 0.832
525.30 0.8314
525.40 0.8307
525.50 0.8301
525.60 0.8295
525.70 0.8289
525.80 0.8283
525.90 0.8277
526.00 0.8271
526.10 0.8265
526.20 0.8259
526.30 0.8253
526.40 0.8247
526.50 0.8241
526.60 0.8234
526.70 0.8228
526.80 0.8222
526.90 0.8216
527.00 0.821
527.10 0.8204
527.20 0.8198
527.30 0.8192
527.40 0.8186
527.50 0.818
527.60 0.8174
527.70 0.8168
527.80 0.8162
527.90 0.8156
528.00 0.815
528.10 0.8144
528.20 0.8138
528.30 0.8132
528.40 0.8127
528.50 0.8121
528.60 0.8115
528.70 0.8109
528.80 0.8103
528.90 0.8097
529.00 0.8091
529.10 0.8085
529.20 0.8079
529.30 0.8073
529.40 0.8067
529.50 0.8061
529.60 0.8056
529.70 0.805
529.80 0.8044
529.90 0.8038
530.00 0.8032
530.10 0.8026
530.20 0.802
530.30 0.8014
530.40 0.8009
530.50 0.8003
530.60 0.7997
530.70 0.7991
530.80 0.7985
530.90 0.7979
531.00 0.7974
531.10 0.7968
531.20 0.7962
531.30 0.7956
531.40 0.795
531.50 0.7945
531.60 0.7939
531.70 0.7933
531.80 0.7927
531.90 0.7922
532.00 0.7916
532.10 0.791
532.20 0.7904
532.30 0.7899
532.40 0.7893
532.50 0.7887
532.60 0.7881
532.70 0.7876
532.80 0.787
532.90 0.7864
533.00 0.7858
533.10 0.7853
533.20 0.7847
533.30 0.7841
533.40 0.7836
533.50 0.783
533.60 0.7824
533.70 0.7819
533.80 0.7813
533.90 0.7807
534.00 0.7802
534.10 0.7796
534.20 0.779
534.30 0.7785
534.40 0.7779
534.50 0.7773
534.60 0.7768
534.70 0.7762
534.80 0.7756
534.90 0.7751
535.00 0.7745
535.10 0.774
535.20 0.7734
535.30 0.7728
535.40 0.7723
535.50 0.7717
535.60 0.7712
535.70 0.7706
535.80 0.77
535.90 0.7695
536.00 0.7689
536.10 0.7684
536.20 0.7678
536.30 0.7673
536.40 0.7667
536.50 0.7662
536.60 0.7656
536.70 0.7651
536.80 0.7645
536.90 0.764
537.00 0.7634
537.10 0.7628
537.20 0.7623
537.30 0.7617
537.40 0.7612
537.50 0.7606
537.60 0.7601
537.70 0.7596
537.80 0.759
537.90 0.7585
538.00 0.7579
538.10 0.7574
538.20 0.7568
538.30 0.7563
538.40 0.7557
538.50 0.7552
538.60 0.7546
538.70 0.7541
538.80 0.7536
538.90 0.753
539.00 0.7525
539.10 0.7519
539.20 0.7514
539.30 0.7509
539.40 0.7503
539.50 0.7498
539.60 0.7492
539.70 0.7487
539.80 0.7482
539.90 0.7476
540.00 0.7471
540.10 0.7465
540.20 0.746
540.30 0.7455
540.40 0.7449
540.50 0.7444
540.60 0.7439
540.70 0.7433
540.80 0.7428
540.90 0.7423
541.00 0.7417
541.10 0.7412
541.20 0.7407
541.30 0.7401
541.40 0.7396
541.50 0.7391
541.60 0.7386
541.70 0.738
541.80 0.7375
541.90 0.737
542.00 0.7364
542.10 0.7359
542.20 0.7354
542.30 0.7349
542.40 0.7343
542.50 0.7338
542.60 0.7333
542.70 0.7328
542.80 0.7322
542.90 0.7317
543.00 0.7312
543.10 0.7307
543.20 0.7302
543.30 0.7296
543.40 0.7291
543.50 0.7286
543.60 0.7281
543.70 0.7275
543.80 0.727
543.90 0.7265
544.00 0.726
544.10 0.7255
544.20 0.725
544.30 0.7244
544.40 0.7239
544.50 0.7234
544.60 0.7229
544.70 0.7224
544.80 0.7219
544.90 0.7214
545.00 0.7208
545.10 0.7203
545.20 0.7198
545.30 0.7193
545.40 0.7188
545.50 0.7183
545.60 0.7178
545.70 0.7173
545.80 0.7167
545.90 0.7162
546.00 0.7157
546.10 0.7152
546.20 0.7147
546.30 0.7142
546.40 0.7137
546.50 0.7132
546.60 0.7127
546.70 0.7122
546.80 0.7117
546.90 0.7112
547.00 0.7107
547.10 0.7102
547.20 0.7097
547.30 0.7092
547.40 0.7087
547.50 0.7082
547.60 0.7076
547.70 0.7071
547.80 0.7066
547.90 0.7061
548.00 0.7056
548.10 0.7051
548.20 0.7046
548.30 0.7041
548.40 0.7036
548.50 0.7032
548.60 0.7027
548.70 0.7022
548.80 0.7017
548.90 0.7012
549.00 0.7007
549.10 0.7002
549.20 0.6997
549.30 0.6992
549.40 0.6987
549.50 0.6982
549.60 0.6977
549.70 0.6972
549.80 0.6967
549.90 0.6962
550.00 0.6957
550.10 0.6952
550.20 0.6947
550.30 0.6943
550.40 0.6938
550.50 0.6933
550.60 0.6928
550.70 0.6923
550.80 0.6918
550.90 0.6913
551.00 0.6908
551.10 0.6904
551.20 0.6899
551.30 0.6894
551.40 0.6889
551.50 0.6884
551.60 0.6879
551.70 0.6874
551.80 0.687
551.90 0.6865
552.00 0.686
552.10 0.6855
552.20 0.685
552.30 0.6845
552.40 0.6841
552.50 0.6836
552.60 0.6831
552.70 0.6826
552.80 0.6821
552.90 0.6817
553.00 0.6812
553.10 0.6807
553.20 0.6802
553.30 0.6798
553.40 0.6793
553.50 0.6788
553.60 0.6783
553.70 0.6779
553.80 0.6774
553.90 0.6769
554.00 0.6764
554.10 0.676
554.20 0.6755
554.30 0.675
554.40 0.6745
554.50 0.6741
554.60 0.6736
554.70 0.6731
554.80 0.6726
554.90 0.6722
555.00 0.6717
555.10 0.6712
555.20 0.6708
555.30 0.6703
555.40 0.6698
555.50 0.6694
555.60 0.6689
555.70 0.6684
555.80 0.668
555.90 0.6675
556.00 0.667
556.10 0.6666
556.20 0.6661
556.30 0.6656
556.40 0.6652
556.50 0.6647
556.60 0.6642
556.70 0.6638
556.80 0.6633
556.90 0.6628
557.00 0.6624
557.10 0.6619
557.20 0.6615
557.30 0.661
557.40 0.6605
557.50 0.6601
557.60 0.6596
557.70 0.6592
557.80 0.6587
557.90 0.6582
558.00 0.6578
558.10 0.6573
558.20 0.6569
558.30 0.6564
558.40 0.656
558.50 0.6555
558.60 0.655
558.70 0.6546
558.80 0.6541
558.90 0.6537
559.00 0.6532
559.10 0.6528
559.20 0.6523
559.30 0.6519
559.40 0.6514
559.50 0.651
559.60 0.6505
559.70 0.65
559.80 0.6496
559.90 0.6491
560.00 0.6487
560.10 0.6482
560.20 0.6478
560.30 0.6473
560.40 0.6469
560.50 0.6465
560.60 0.646
560.70 0.6456
560.80 0.6451
560.90 0.6447
561.00 0.6442
561.10 0.6438
561.20 0.6433
561.30 0.6429
561.40 0.6424
561.50 0.642
561.60 0.6415
561.70 0.6411
561.80 0.6407
561.90 0.6402
562.00 0.6398
562.10 0.6393
562.20 0.6389
562.30 0.6384
562.40 0.638
562.50 0.6376
562.60 0.6371
562.70 0.6367
562.80 0.6362
562.90 0.6358
563.00 0.6354
563.10 0.6349
563.20 0.6345
563.30 0.6341
563.40 0.6336
563.50 0.6332
563.60 0.6327
563.70 0.6323
563.80 0.6319
563.90 0.6314
564.00 0.631
564.10 0.6306
564.20 0.6301
564.30 0.6297
564.40 0.6293
564.50 0.6288
564.60 0.6284
564.70 0.628
564.80 0.6275
564.90 0.6271
565.00 0.6267
565.10 0.6262
565.20 0.6258
565.30 0.6254
565.40 0.6249
565.50 0.6245
565.60 0.6241
565.70 0.6237
565.80 0.6232
565.90 0.6228
566.00 0.6224
566.10 0.6219
566.20 0.6215
566.30 0.6211
566.40 0.6207
566.50 0.6202
566.60 0.6198
566.70 0.6194
566.80 0.619
566.90 0.6185
567.00 0.6181
567.10 0.6177
567.20 0.6173
567.30 0.6168
567.40 0.6164
567.50 0.616
567.60 0.6156
567.70 0.6152
567.80 0.6147
567.90 0.6143
568.00 0.6139
568.10 0.6135
568.20 0.6131
568.30 0.6126
568.40 0.6122
568.50 0.6118
568.60 0.6114
568.70 0.611
568.80 0.6105
568.90 0.6101
569.00 0.6097
569.10 0.6093
569.20 0.6089
569.30 0.6085
569.40 0.608
569.50 0.6076
569.60 0.6072
569.70 0.6068
569.80 0.6064
569.90 0.606
570.00 0.6056
570.10 0.6052
570.20 0.6047
570.30 0.6043
570.40 0.6039
570.50 0.6035
570.60 0.6031
570.70 0.6027
570.80 0.6023
570.90 0.6019
571.00 0.6014
571.10 0.601
571.20 0.6006
571.30 0.6002
571.40 0.5998
571.50 0.5994
571.60 0.599
571.70 0.5986
571.80 0.5982
571.90 0.5978
572.00 0.5974
572.10 0.597
572.20 0.5966
572.30 0.5962
572.40 0.5957
572.50 0.5953
572.60 0.5949
572.70 0.5945
572.80 0.5941
572.90 0.5937
573.00 0.5933
573.10 0.5929
573.20 0.5925
573.30 0.5921
573.40 0.5917
573.50 0.5913
573.60 0.5909
573.70 0.5905
573.80 0.5901
573.90 0.5897
574.00 0.5893
574.10 0.5889
574.20 0.5885
574.30 0.5881
574.40 0.5877
574.50 0.5873
574.60 0.5869
574.70 0.5865
574.80 0.5861
574.90 0.5857
575.00 0.5853
575.10 0.5849
575.20 0.5845
575.30 0.5842
575.40 0.5838
575.50 0.5834
575.60 0.583
575.70 0.5826
575.80 0.5822
575.90 0.5818
576.00 0.5814
576.10 0.581
576.20 0.5806
576.30 0.5802
576.40 0.5798
576.50 0.5794
576.60 0.579
576.70 0.5787
576.80 0.5783
576.90 0.5779
577.00 0.5775
577.10 0.5771
577.20 0.5767
577.30 0.5763
577.40 0.5759
577.50 0.5755
577.60 0.5752
577.70 0.5748
577.80 0.5744
577.90 0.574
578.00 0.5736
578.10 0.5732
578.20 0.5728
578.30 0.5725
578.40 0.5721
578.50 0.5717
578.60 0.5713
578.70 0.5709
578.80 0.5705
578.90 0.5701
579.00 0.5698
579.10 0.5694
579.20 0.569
579.30 0.5686
579.40 0.5682
579.50 0.5679
579.60 0.5675
579.70 0.5671
579.80 0.5667
579.90 0.5663
580.00 0.5659
580.10 0.5656
580.20 0.5652
580.30 0.5648
580.40 0.5644
580.50 0.5641
580.60 0.5637
580.70 0.5633
580.80 0.5629
580.90 0.5625
581.00 0.5622
581.10 0.5618
581.20 0.5614
581.30 0.561
581.40 0.5607
581.50 0.5603
581.60 0.5599
581.70 0.5595
581.80 0.5592
581.90 0.5588
582.00 0.5584
582.10 0.558
582.20 0.5577
582.30 0.5573
582.40 0.5569
582.50 0.5566
582.60 0.5562
582.70 0.5558
582.80 0.5554
582.90 0.5551
583.00 0.5547
583.10 0.5543
583.20 0.554
583.30 0.5536
583.40 0.5532
583.50 0.5529
583.60 0.5525
583.70 0.5521
583.80 0.5517
583.90 0.5514
584.00 0.551
584.10 0.5506
584.20 0.5503
584.30 0.5499
584.40 0.5495
584.50 0.5492
584.60 0.5488
584.70 0.5484
584.80 0.5481
584.90 0.5477
585.00 0.5474
585.10 0.547
585.20 0.5466
585.30 0.5463
585.40 0.5459
585.50 0.5455
585.60 0.5452
585.70 0.5448
585.80 0.5445
585.90 0.5441
586.00 0.5437
586.10 0.5434
586.20 0.543
586.30 0.5426
586.40 0.5423
586.50 0.5419
586.60 0.5416
586.70 0.5412
586.80 0.5408
586.90 0.5405
587.00 0.5401
587.10 0.5398
587.20 0.5394
587.30 0.5391
587.40 0.5387
587.50 0.5383
587.60 0.538
587.70 0.5376
587.80 0.5373
587.90 0.5369
588.00 0.5366
588.10 0.5362
588.20 0.5359
588.30 0.5355
588.40 0.5351
588.50 0.5348
588.60 0.5344
588.70 0.5341
588.80 0.5337
588.90 0.5334
589.00 0.533
589.10 0.5327
589.20 0.5323
589.30 0.532
589.40 0.5316
589.50 0.5313
589.60 0.5309
589.70 0.5306
589.80 0.5302
589.90 0.5299
590.00 0.5295
590.10 0.5292
590.20 0.5288
590.30 0.5285
590.40 0.5281
590.50 0.5278
590.60 0.5274
590.70 0.5271
590.80 0.5267
590.90 0.5264
591.00 0.526
591.10 0.5257
591.20 0.5253
591.30 0.525
591.40 0.5246
591.50 0.5243
591.60 0.524
591.70 0.5236
591.80 0.5233
591.90 0.5229
592.00 0.5226
592.10 0.5222
592.20 0.5219
592.30 0.5216
592.40 0.5212
592.50 0.5209
592.60 0.5205
592.70 0.5202
592.80 0.5198
592.90 0.5195
593.00 0.5192
593.10 0.5188
593.20 0.5185
593.30 0.5181
593.40 0.5178
593.50 0.5175
593.60 0.5171
593.70 0.5168
593.80 0.5164
593.90 0.5161
594.00 0.5158
594.10 0.5154
594.20 0.5151
594.30 0.5147
594.40 0.5144
594.50 0.5141
594.60 0.5137
594.70 0.5134
594.80 0.5131
594.90 0.5127
595.00 0.5124
595.10 0.5121
595.20 0.5117
595.30 0.5114
595.40 0.5111
595.50 0.5107
595.60 0.5104
595.70 0.5101
595.80 0.5097
595.90 0.5094
596.00 0.509
596.10 0.5087
596.20 0.5084
596.30 0.5081
596.40 0.5077
596.50 0.5074
596.60 0.5071
596.70 0.5067
596.80 0.5064
596.90 0.5061
597.00 0.5057
597.10 0.5054
597.20 0.5051
597.30 0.5047
597.40 0.5044
597.50 0.5041
597.60 0.5038
597.70 0.5034
597.80 0.5031
597.90 0.5028
598.00 0.5024
598.10 0.5021
598.20 0.5018
598.30 0.5015
598.40 0.5011
598.50 0.5008
598.60 0.5005
598.70 0.5002
598.80 0.4998
598.90 0.4995
599.00 0.4992
599.10 0.4989
599.20 0.4985
599.30 0.4982
599.40 0.4979
599.50 0.4976
599.60 0.4972
599.70 0.4969
599.80 0.4966
599.90 0.4963
600.00 0.4959
600.10 0.4956
600.20 0.4953
600.30 0.495
600.40 0.4947
600.50 0.4943
600.60 0.494
600.70 0.4937
600.80 0.4934
600.90 0.4931
601.00 0.4927
601.10 0.4924
601.20 0.4921
601.30 0.4918
601.40 0.4915
601.50 0.4911
601.60 0.4908
601.70 0.4905
601.80 0.4902
601.90 0.4899
602.00 0.4896
602.10 0.4892
602.20 0.4889
602.30 0.4886
602.40 0.4883
602.50 0.488
602.60 0.4877
602.70 0.4873
602.80 0.487
602.90 0.4867
603.00 0.4864
603.10 0.4861
603.20 0.4858
603.30 0.4855
603.40 0.4851
603.50 0.4848
603.60 0.4845
603.70 0.4842
603.80 0.4839
603.90 0.4836
604.00 0.4833
604.10 0.483
604.20 0.4826
604.30 0.4823
604.40 0.482
604.50 0.4817
604.60 0.4814
604.70 0.4811
604.80 0.4808
604.90 0.4805
605.00 0.4802
605.10 0.4798
605.20 0.4795
605.30 0.4792
605.40 0.4789
605.50 0.4786
605.60 0.4783
605.70 0.478
605.80 0.4777
605.90 0.4774
606.00 0.4771
606.10 0.4768
606.20 0.4765
606.30 0.4761
606.40 0.4758
606.50 0.4755
606.60 0.4752
606.70 0.4749
606.80 0.4746
606.90 0.4743
607.00 0.474
607.10 0.4737
607.20 0.4734
607.30 0.4731
607.40 0.4728
607.50 0.4725
607.60 0.4722
607.70 0.4719
607.80 0.4716
607.90 0.4713
608.00 0.471
608.10 0.4707
608.20 0.4704
608.30 0.4701
608.40 0.4698
608.50 0.4695
608.60 0.4692
608.70 0.4689
608.80 0.4686
608.90 0.4683
609.00 0.468
609.10 0.4677
609.20 0.4674
609.30 0.4671
609.40 0.4668
609.50 0.4665
609.60 0.4662
609.70 0.4659
609.80 0.4656
609.90 0.4653
610.00 0.465
610.10 0.4647
610.20 0.4644
610.30 0.4641
610.40 0.4638
610.50 0.4635
610.60 0.4632
610.70 0.4629
610.80 0.4626
610.90 0.4623
611.00 0.462
611.10 0.4617
611.20 0.4614
611.30 0.4611
611.40 0.4608
611.50 0.4605
611.60 0.4602
611.70 0.4599
611.80 0.4596
611.90 0.4594
612.00 0.4591
612.10 0.4588
612.20 0.4585
612.30 0.4582
612.40 0.4579
612.50 0.4576
612.60 0.4573
612.70 0.457
612.80 0.4567
612.90 0.4564
613.00 0.4561
613.10 0.4559
613.20 0.4556
613.30 0.4553
613.40 0.455
613.50 0.4547
613.60 0.4544
613.70 0.4541
613.80 0.4538
613.90 0.4535
614.00 0.4532
614.10 0.453
614.20 0.4527
614.30 0.4524
614.40 0.4521
614.50 0.4518
614.60 0.4515
614.70 0.4512
614.80 0.4509
614.90 0.4507
615.00 0.4504
615.10 0.4501
615.20 0.4498
615.30 0.4495
615.40 0.4492
615.50 0.4489
615.60 0.4487
615.70 0.4484
615.80 0.4481
615.90 0.4478
616.00 0.4475
616.10 0.4472
616.20 0.4469
616.30 0.4467
616.40 0.4464
616.50 0.4461
616.60 0.4458
616.70 0.4455
616.80 0.4452
616.90 0.445
617.00 0.4447
617.10 0.4444
617.20 0.4441
617.30 0.4438
617.40 0.4436
617.50 0.4433
617.60 0.443
617.70 0.4427
617.80 0.4424
617.90 0.4421
618.00 0.4419
618.10 0.4416
618.20 0.4413
618.30 0.441
618.40 0.4407
618.50 0.4405
618.60 0.4402
618.70 0.4399
618.80 0.4396
618.90 0.4394
619.00 0.4391
619.10 0.4388
619.20 0.4385
619.30 0.4382
619.40 0.438
619.50 0.4377
619.60 0.4374
619.70 0.4371
619.80 0.4369
619.90 0.4366
620.00 0.4363
620.10 0.436
620.20 0.4358
620.30 0.4355
620.40 0.4352
620.50 0.4349
620.60 0.4347
620.70 0.4344
620.80 0.4341
620.90 0.4338
621.00 0.4336
621.10 0.4333
621.20 0.433
621.30 0.4327
621.40 0.4325
621.50 0.4322
621.60 0.4319
621.70 0.4316
621.80 0.4314
621.90 0.4311
622.00 0.4308
622.10 0.4305
622.20 0.4303
622.30 0.43
622.40 0.4297
622.50 0.4295
622.60 0.4292
622.70 0.4289
622.80 0.4286
622.90 0.4284
623.00 0.4281
623.10 0.4278
623.20 0.4276
623.30 0.4273
623.40 0.427
623.50 0.4268
623.60 0.4265
623.70 0.4262
623.80 0.426
623.90 0.4257
624.00 0.4254
624.10 0.4251
624.20 0.4249
624.30 0.4246
624.40 0.4243
624.50 0.4241
624.60 0.4238
624.70 0.4235
624.80 0.4233
624.90 0.423
625.00 0.4227
625.10 0.4225
625.20 0.4222
625.30 0.4219
625.40 0.4217
625.50 0.4214
625.60 0.4211
625.70 0.4209
625.80 0.4206
625.90 0.4203
626.00 0.4201
626.10 0.4198
626.20 0.4196
626.30 0.4193
626.40 0.419
626.50 0.4188
626.60 0.4185
626.70 0.4182
626.80 0.418
626.90 0.4177
627.00 0.4174
627.10 0.4172
627.20 0.4169
627.30 0.4167
627.40 0.4164
627.50 0.4161
627.60 0.4159
627.70 0.4156
627.80 0.4153
627.90 0.4151
628.00 0.4148
628.10 0.4146
628.20 0.4143
628.30 0.414
628.40 0.4138
628.50 0.4135
628.60 0.4132
628.70 0.413
628.80 0.4127
628.90 0.4125
629.00 0.4122
629.10 0.4119
629.20 0.4117
629.30 0.4114
629.40 0.4112
629.50 0.4109
629.60 0.4107
629.70 0.4104
629.80 0.4101
629.90 0.4099
630.00 0.4096
630.10 0.4094
630.20 0.4091
630.30 0.4088
630.40 0.4086
630.50 0.4083
630.60 0.4081
630.70 0.4078
630.80 0.4075
630.90 0.4073
631.00 0.407
631.10 0.4068
631.20 0.4065
631.30 0.4063
631.40 0.406
631.50 0.4057
631.60 0.4055
631.70 0.4052
631.80 0.405
631.90 0.4047
632.00 0.4045
632.10 0.4042
632.20 0.404
632.30 0.4037
632.40 0.4034
632.50 0.4032
632.60 0.4029
632.70 0.4027
632.80 0.4024
632.90 0.4022
633.00 0.4019
633.10 0.4017
633.20 0.4014
633.30 0.4011
633.40 0.4009
633.50 0.4006
633.60 0.4004
633.70 0.4001
633.80 0.3999
633.90 0.3996
634.00 0.3994
634.10 0.3991
634.20 0.3989
634.30 0.3986
634.40 0.3983
634.50 0.3981
634.60 0.3978
634.70 0.3976
634.80 0.3973
634.90 0.3971
635.00 0.3968
635.10 0.3966
635.20 0.3963
635.30 0.3961
635.40 0.3958
635.50 0.3956
635.60 0.3953
635.70 0.3951
635.80 0.3948
635.90 0.3945
636.00 0.3943
636.10 0.394
636.20 0.3938
636.30 0.3935
636.40 0.3933
636.50 0.393
636.60 0.3928
636.70 0.3925
636.80 0.3923
636.90 0.392
637.00 0.3918
637.10 0.3915
637.20 0.3913
637.30 0.391
637.40 0.3908
637.50 0.3905
637.60 0.3902
637.70 0.39
637.80 0.3897
637.90 0.3895
638.00 0.3892
638.10 0.389
638.20 0.3887
638.30 0.3885
638.40 0.3882
638.50 0.388
638.60 0.3877
638.70 0.3875
638.80 0.3872
638.90 0.387
639.00 0.3867
639.10 0.3864
639.20 0.3862
639.30 0.3859
639.40 0.3857
639.50 0.3854
639.60 0.3852
639.70 0.3849
639.80 0.3847
639.90 0.3844
640.00 0.3842
640.10 0.3839
640.20 0.3836
640.30 0.3834
640.40 0.3831
640.50 0.3829
640.60 0.3826
640.70 0.3824
640.80 0.3821
640.90 0.3818
641.00 0.3816
641.10 0.3813
641.20 0.3811
641.30 0.3808
641.40 0.3806
641.50 0.3803
641.60 0.38
641.70 0.3798
641.80 0.3795
641.90 0.3793
642.00 0.379
642.10 0.3787
642.20 0.3785
642.30 0.3782
642.40 0.378
642.50 0.3777
642.60 0.3774
642.70 0.3772
642.80 0.3769
642.90 0.3766
643.00 0.3764
643.10 0.3761
643.20 0.3758
643.30 0.3756
643.40 0.3753
643.50 0.375
643.60 0.3748
643.70 0.3745
643.80 0.3742
643.90 0.374
644.00 0.3737
644.10 0.3734
644.20 0.3732
644.30 0.3729
644.40 0.3726
644.50 0.3723
644.60 0.372
644.70 0.3718
644.80 0.3715
644.90 0.3712
645.00 0.3709
645.10 0.3707
645.20 0.3704
645.30 0.3701
645.40 0.3698
645.50 0.3695
645.60 0.3692
645.70 0.369
645.80 0.3687
645.90 0.3684
646.00 0.3681
646.10 0.3678
646.20 0.3675
646.30 0.3672
646.40 0.3669
646.50 0.3666
646.60 0.3663
646.70 0.366
646.80 0.3657
646.90 0.3654
647.00 0.3651
647.10 0.3648
647.20 0.3645
647.30 0.3642
647.40 0.3639
647.50 0.3636
647.60 0.3633
647.70 0.3629
647.80 0.3626
647.90 0.3623
648.00 0.362
648.10 0.3617
648.20 0.3613
648.30 0.361
648.40 0.3607
648.50 0.3603
648.60 0.36
648.70 0.3596
648.80 0.3593
648.90 0.359
649.00 0.3586
649.10 0.3583
649.20 0.3579
649.30 0.3576
649.40 0.3572
649.50 0.3568
649.60 0.3565
649.70 0.3561
649.80 0.3557
649.90 0.3553
650.00 0.355
650.10 0.3546
650.20 0.3542
650.30 0.3538
650.40 0.3534
650.50 0.353
650.60 0.3526
650.70 0.3522
650.80 0.3518
650.90 0.3513
651.00 0.3509
651.10 0.3505
651.20 0.3501
651.30 0.3497
651.40 0.3492
651.50 0.3488
651.60 0.3483
651.70 0.3478
651.80 0.3474
651.90 0.3469
652.00 0.3464
652.10 0.346
652.20 0.3455
652.30 0.3451
652.40 0.3445
652.50 0.344
652.60 0.3435
652.70 0.343
652.80 0.3425
652.90 0.342
653.00 0.3415
653.10 0.3409
653.20 0.3404
653.30 0.3399
653.40 0.3393
653.50 0.3388
653.60 0.3382
653.70 0.3376
653.80 0.3371
653.90 0.3365
654.00 0.336
654.10 0.3354
654.20 0.3348
654.30 0.3343
654.40 0.3337
654.50 0.3331
654.60 0.3325
654.70 0.3319
654.80 0.3314
654.90 0.3308
655.00 0.3303
655.10 0.3297
655.20 0.3292
655.30 0.3287
655.40 0.3282
655.50 0.3278
655.60 0.3275
655.70 0.3273
655.80 0.3274
655.90 0.3278
656.00 0.3293
656.10 0.3313
656.20 0.3395
656.30 0.3477
656.40 0.3348
656.50 0.3295
656.60 0.3275
656.70 0.3259
656.80 0.3254
656.90 0.325
657.00 0.3249
657.10 0.3248
657.20 0.3249
657.30 0.325
657.40 0.3252
657.50 0.3253
657.60 0.3255
657.70 0.3256
657.80 0.3258
657.90 0.326
658.00 0.3262
658.10 0.3264
658.20 0.3266
658.30 0.3268
658.40 0.3269
658.50 0.3271
658.60 0.3273
658.70 0.3274
658.80 0.3276
658.90 0.3278
659.00 0.328
659.10 0.3281
659.20 0.3283
659.30 0.3284
659.40 0.3286
659.50 0.3287
659.60 0.3288
659.70 0.3289
659.80 0.329
659.90 0.3291
660.00 0.3292
660.10 0.3293
660.20 0.3294
660.30 0.3295
660.40 0.3296
660.50 0.3296
660.60 0.3297
660.70 0.3297
660.80 0.3298
660.90 0.3298
661.00 0.3299
661.10 0.3299
661.20 0.33
661.30 0.33
661.40 0.33
661.50 0.33
661.60 0.33
661.70 0.33
661.80 0.33
661.90 0.33
662.00 0.33
662.10 0.33
662.20 0.33
662.30 0.33
662.40 0.33
662.50 0.3299
662.60 0.3299
662.70 0.3298
662.80 0.3298
662.90 0.3298
663.00 0.3297
663.10 0.3297
663.20 0.3296
663.30 0.3296
663.40 0.3295
663.50 0.3294
663.60 0.3293
663.70 0.3293
663.80 0.3292
663.90 0.3291
664.00 0.329
664.10 0.329
664.20 0.3289
664.30 0.3288
664.40 0.3287
664.50 0.3286
664.60 0.3285
664.70 0.3284
664.80 0.3283
664.90 0.3282
665.00 0.3281
665.10 0.328
665.20 0.3279
665.30 0.3278
665.40 0.3276
665.50 0.3275
665.60 0.3274
665.70 0.3273
665.80 0.3272
665.90 0.327
666.00 0.3269
666.10 0.3268
666.20 0.3267
666.30 0.3266
666.40 0.3264
666.50 0.3263
666.60 0.3261
666.70 0.326
666.80 0.3259
666.90 0.3257
667.00 0.3256
667.10 0.3255
667.20 0.3253
667.30 0.3252
667.40 0.325
667.50 0.3249
667.60 0.3248
667.70 0.3246
667.80 0.3245
667.90 0.3243
668.00 0.3242
668.10 0.324
668.20 0.3239
668.30 0.3237
668.40 0.3236
668.50 0.3234
668.60 0.3233
668.70 0.3231
668.80 0.323
668.90 0.3228
669.00 0.3227
669.10 0.3225
669.20 0.3224
669.30 0.3222
669.40 0.322
669.50 0.3219
669.60 0.3217
669.70 0.3216
669.80 0.3214
669.90 0.3212
670.00 0.3211
670.10 0.3209
670.20 0.3208
670.30 0.3206
670.40 0.3204
670.50 0.3203
670.60 0.3201
670.70 0.32
670.80 0.3198
670.90 0.3196
671.00 0.3195
671.10 0.3193
671.20 0.3191
671.30 0.319
671.40 0.3188
671.50 0.3186
671.60 0.3185
671.70 0.3183
671.80 0.3181
671.90 0.318
672.00 0.3178
672.10 0.3176
672.20 0.3175
672.30 0.3173
672.40 0.3171
672.50 0.317
672.60 0.3168
672.70 0.3166
672.80 0.3165
672.90 0.3163
673.00 0.3161
673.10 0.316
673.20 0.3158
673.30 0.3156
673.40 0.3155
673.50 0.3153
673.60 0.3151
673.70 0.315
673.80 0.3148
673.90 0.3146
674.00 0.3144
674.10 0.3143
674.20 0.3141
674.30 0.3139
674.40 0.3138
674.50 0.3136
674.60 0.3134
674.70 0.3133
674.80 0.3131
674.90 0.3129
675.00 0.3127
675.10 0.3126
675.20 0.3124
675.30 0.3122
675.40 0.3121
675.50 0.3119
675.60 0.3117
675.70 0.3115
675.80 0.3114
675.90 0.3112
676.00 0.311
676.10 0.3109
676.20 0.3107
676.30 0.3105
676.40 0.3104
676.50 0.3102
676.60 0.31
676.70 0.3098
676.80 0.3097
676.90 0.3095
677.00 0.3093
677.10 0.3092
677.20 0.309
677.30 0.3088
677.40 0.3086
677.50 0.3085
677.60 0.3083
677.70 0.3081
677.80 0.308
677.90 0.3078
678.00 0.3076
678.10 0.3074
678.20 0.3073
678.30 0.3071
678.40 0.3069
678.50 0.3068
678.60 0.3066
678.70 0.3064
678.80 0.3062
678.90 0.3061
679.00 0.3059
679.10 0.3057
679.20 0.3056
679.30 0.3054
679.40 0.3052
679.50 0.3051
679.60 0.3049
679.70 0.3047
679.80 0.3045
679.90 0.3044
680.00 0.3042
680.10 0.304
680.20 0.3039
680.30 0.3037
680.40 0.3035
680.50 0.3034
680.60 0.3032
680.70 0.303
680.80 0.3028
680.90 0.3027
681.00 0.3025
681.10 0.3023
681.20 0.3022
681.30 0.302
681.40 0.3018
681.50 0.3017
681.60 0.3015
681.70 0.3013
681.80 0.3012
681.90 0.301
682.00 0.3008
682.10 0.3007
682.20 0.3005
682.30 0.3003
682.40 0.3001
682.50 0.3
682.60 0.2998
682.70 0.2996
682.80 0.2995
682.90 0.2993
683.00 0.2991
683.10 0.299
683.20 0.2988
683.30 0.2986
683.40 0.2985
683.50 0.2983
683.60 0.2981
683.70 0.298
683.80 0.2978
683.90 0.2976
684.00 0.2975
684.10 0.2973
684.20 0.2971
684.30 0.297
684.40 0.2968
684.50 0.2966
684.60 0.2965
684.70 0.2963
684.80 0.2961
684.90 0.296
685.00 0.2958
685.10 0.2956
685.20 0.2955
685.30 0.2953
685.40 0.2951
685.50 0.295
685.60 0.2948
685.70 0.2946
685.80 0.2945
685.90 0.2943
686.00 0.2941
686.10 0.294
686.20 0.2938
686.30 0.2936
686.40 0.2935
686.50 0.2933
686.60 0.2932
686.70 0.293
686.80 0.2928
686.90 0.2927
687.00 0.2925
687.10 0.2923
687.20 0.2922
687.30 0.292
687.40 0.2918
687.50 0.2917
687.60 0.2915
687.70 0.2913
687.80 0.2912
687.90 0.291
688.00 0.2909
688.10 0.2907
688.20 0.2905
688.30 0.2904
688.40 0.2902
688.50 0.29
688.60 0.2899
688.70 0.2897
688.80 0.2896
688.90 0.2894
689.00 0.2892
689.10 0.2891
689.20 0.2889
689.30 0.2887
689.40 0.2886
689.50 0.2884
689.60 0.2883
689.70 0.2881
689.80 0.2879
689.90 0.2878
690.00 0.2876
690.10 0.2875
690.20 0.2873
690.30 0.2871
690.40 0.287
690.50 0.2868
690.60 0.2866
690.70 0.2865
690.80 0.2863
690.90 0.2862
691.00 0.286
691.10 0.2858
691.20 0.2857
691.30 0.2855
691.40 0.2854
691.50 0.2852
691.60 0.285
691.70 0.2849
691.80 0.2847
691.90 0.2846
692.00 0.2844
692.10 0.2843
692.20 0.2841
692.30 0.2839
692.40 0.2838
692.50 0.2836
692.60 0.2835
692.70 0.2833
692.80 0.2831
692.90 0.283
693.00 0.2828
693.10 0.2827
693.20 0.2825
693.30 0.2823
693.40 0.2822
693.50 0.282
693.60 0.2819
693.70 0.2817
693.80 0.2816
693.90 0.2814
694.00 0.2812
694.10 0.2811
694.20 0.2809
694.30 0.2808
694.40 0.2806
694.50 0.2805
694.60 0.2803
694.70 0.2801
694.80 0.28
694.90 0.2798
695.00 0.2797
695.10 0.2795
695.20 0.2794
695.30 0.2792
695.40 0.279
695.50 0.2789
695.60 0.2787
695.70 0.2786
695.80 0.2784
695.90 0.2783
696.00 0.2781
696.10 0.278
696.20 0.2778
696.30 0.2777
696.40 0.2775
696.50 0.2773
696.60 0.2772
696.70 0.277
696.80 0.2769
696.90 0.2767
697.00 0.2766
697.10 0.2764
697.20 0.2763
697.30 0.2761
697.40 0.276
697.50 0.2758
697.60 0.2756
697.70 0.2755
697.80 0.2753
697.90 0.2752
698.00 0.275
698.10 0.2749
698.20 0.2747
698.30 0.2746
698.40 0.2744
698.50 0.2743
698.60 0.2741
698.70 0.274
698.80 0.2738
698.90 0.2737
699.00 0.2735
699.10 0.2734
699.20 0.2732
699.30 0.273
699.40 0.2729
699.50 0.2727
699.60 0.2726
699.70 0.2724
699.80 0.2723
699.90 0.2721
700.00 0.272
700.10 0.2718
700.20 0.2717
700.30 0.2715
700.40 0.2714
700.50 0.2712
700.60 0.2711
700.70 0.2709
700.80 0.2708
700.90 0.2706
701.00 0.2705
701.10 0.2703
701.20 0.2702
701.30 0.27
701.40 0.2699
701.50 0.2697
701.60 0.2696
701.70 0.2694
701.80 0.2693
701.90 0.2691
702.00 0.269
702.10 0.2688
702.20 0.2687
702.30 0.2685
702.40 0.2684
702.50 0.2682
702.60 0.2681
702.70 0.2679
702.80 0.2678
702.90 0.2677
703.00 0.2675
703.10 0.2674
703.20 0.2672
703.30 0.2671
703.40 0.2669
703.50 0.2668
703.60 0.2666
703.70 0.2665
703.80 0.2663
703.90 0.2662
704.00 0.266
704.10 0.2659
704.20 0.2657
704.30 0.2656
704.40 0.2654
704.50 0.2653
704.60 0.2651
704.70 0.265
704.80 0.2648
704.90 0.2647
705.00 0.2646
705.10 0.2644
705.20 0.2643
705.30 0.2641
705.40 0.264
705.50 0.2638
705.60 0.2637
705.70 0.2635
705.80 0.2634
705.90 0.2632
706.00 0.2631
706.10 0.263
706.20 0.2628
706.30 0.2627
706.40 0.2625
706.50 0.2624
706.60 0.2622
706.70 0.2621
706.80 0.2619
706.90 0.2618
707.00 0.2617
707.10 0.2615
707.20 0.2614
707.30 0.2612
707.40 0.2611
707.50 0.2609
707.60 0.2608
707.70 0.2606
707.80 0.2605
707.90 0.2604
708.00 0.2602
708.10 0.2601
708.20 0.2599
708.30 0.2598
708.40 0.2596
708.50 0.2595
708.60 0.2594
708.70 0.2592
708.80 0.2591
708.90 0.2589
709.00 0.2588
709.10 0.2586
709.20 0.2585
709.30 0.2584
709.40 0.2582
709.50 0.2581
709.60 0.2579
709.70 0.2578
709.80 0.2577
709.90 0.2575
710.00 0.2574
710.10 0.2572
710.20 0.2571
710.30 0.2569
710.40 0.2568
710.50 0.2567
710.60 0.2565
710.70 0.2564
710.80 0.2562
710.90 0.2561
711.00 0.256
711.10 0.2558
711.20 0.2557
711.30 0.2555
711.40 0.2554
711.50 0.2553
711.60 0.2551
711.70 0.255
711.80 0.2548
711.90 0.2547
712.00 0.2546
712.10 0.2544
712.20 0.2543
712.30 0.2541
712.40 0.254
712.50 0.2539
712.60 0.2537
712.70 0.2536
712.80 0.2535
712.90 0.2533
713.00 0.2532
713.10 0.253
713.20 0.2529
713.30 0.2528
713.40 0.2526
713.50 0.2525
713.60 0.2523
713.70 0.2522
713.80 0.2521
713.90 0.2519
714.00 0.2518
714.10 0.2517
714.20 0.2515
714.30 0.2514
714.40 0.2512
714.50 0.2511
714.60 0.251
714.70 0.2508
714.80 0.2507
714.90 0.2506
715.00 0.2504
715.10 0.2503
715.20 0.2501
715.30 0.25
715.40 0.2499
715.50 0.2497
715.60 0.2496
715.70 0.2495
715.80 0.2493
715.90 0.2492
716.00 0.2491
716.10 0.2489
716.20 0.2488
716.30 0.2487
716.40 0.2485
716.50 0.2484
716.60 0.2483
716.70 0.2481
716.80 0.248
716.90 0.2478
717.00 0.2477
717.10 0.2476
717.20 0.2474
717.30 0.2473
717.40 0.2472
717.50 0.247
717.60 0.2469
717.70 0.2468
717.80 0.2466
717.90 0.2465
718.00 0.2464
718.10 0.2462
718.20 0.2461
718.30 0.246
718.40 0.2458
718.50 0.2457
718.60 0.2456
718.70 0.2454
718.80 0.2453
718.90 0.2452
719.00 0.245
719.10 0.2449
719.20 0.2448
719.30 0.2446
719.40 0.2445
719.50 0.2444
719.60 0.2442
719.70 0.2441
719.80 0.244
719.90 0.2438
720.00 0.2437
720.10 0.2436
720.20 0.2434
720.30 0.2433
720.40 0.2432
720.50 0.243
720.60 0.2429
720.70 0.2428
720.80 0.2427
720.90 0.2425
721.00 0.2424
721.10 0.2423
721.20 0.2421
721.30 0.242
721.40 0.2419
721.50 0.2417
721.60 0.2416
721.70 0.2415
721.80 0.2413
721.90 0.2412
722.00 0.2411
722.10 0.241
722.20 0.2408
722.30 0.2407
722.40 0.2406
722.50 0.2404
722.60 0.2403
722.70 0.2402
722.80 0.24
722.90 0.2399
723.00 0.2398
723.10 0.2397
723.20 0.2395
723.30 0.2394
723.40 0.2393
723.50 0.2391
723.60 0.239
723.70 0.2389
723.80 0.2388
723.90 0.2386
724.00 0.2385
724.10 0.2384
724.20 0.2382
724.30 0.2381
724.40 0.238
724.50 0.2379
724.60 0.2377
724.70 0.2376
724.80 0.2375
724.90 0.2373
725.00 0.2372
725.10 0.2371
725.20 0.237
725.30 0.2368
725.40 0.2367
725.50 0.2366
725.60 0.2365
725.70 0.2363
725.80 0.2362
725.90 0.2361
726.00 0.2359
726.10 0.2358
726.20 0.2357
726.30 0.2356
726.40 0.2354
726.50 0.2353
726.60 0.2352
726.70 0.2351
726.80 0.2349
726.90 0.2348
727.00 0.2347
727.10 0.2346
727.20 0.2344
727.30 0.2343
727.40 0.2342
727.50 0.2341
727.60 0.2339
727.70 0.2338
727.80 0.2337
727.90 0.2336
728.00 0.2334
728.10 0.2333
728.20 0.2332
728.30 0.2331
728.40 0.2329
728.50 0.2328
728.60 0.2327
728.70 0.2326
728.80 0.2324
728.90 0.2323
729.00 0.2322
729.10 0.2321
729.20 0.2319
729.30 0.2318
729.40 0.2317
729.50 0.2316
729.60 0.2314
729.70 0.2313
729.80 0.2312
729.90 0.2311
730.00 0.2309
730.10 0.2308
730.20 0.2307
730.30 0.2306
730.40 0.2304
730.50 0.2303
730.60 0.2302
730.70 0.2301
730.80 0.23
730.90 0.2298
731.00 0.2297
731.10 0.2296
731.20 0.2295
731.30 0.2293
731.40 0.2292
731.50 0.2291
731.60 0.229
731.70 0.2289
731.80 0.2287
731.90 0.2286
732.00 0.2285
732.10 0.2284
732.20 0.2283
732.30 0.2281
732.40 0.228
732.50 0.2279
732.60 0.2278
732.70 0.2277
732.80 0.2275
732.90 0.2274
733.00 0.2273
733.10 0.2272
733.20 0.227
733.30 0.2269
733.40 0.2268
733.50 0.2267
733.60 0.2266
733.70 0.2264
733.80 0.2263
733.90 0.2262
734.00 0.2261
734.10 0.226
734.20 0.2258
734.30 0.2257
734.40 0.2256
734.50 0.2255
734.60 0.2254
734.70 0.2252
734.80 0.2251
734.90 0.225
735.00 0.2249
735.10 0.2248
735.20 0.2246
735.30 0.2245
735.40 0.2244
735.50 0.2243
735.60 0.2242
735.70 0.2241
735.80 0.2239
735.90 0.2238
736.00 0.2237
736.10 0.2236
736.20 0.2235
736.30 0.2233
736.40 0.2232
736.50 0.2231
736.60 0.223
736.70 0.2229
736.80 0.2227
736.90 0.2226
737.00 0.2225
737.10 0.2224
737.20 0.2223
737.30 0.2222
737.40 0.222
737.50 0.2219
737.60 0.2218
737.70 0.2217
737.80 0.2216
737.90 0.2214
738.00 0.2213
738.10 0.2212
738.20 0.2211
738.30 0.221
738.40 0.2209
738.50 0.2207
738.60 0.2206
738.70 0.2205
738.80 0.2204
738.90 0.2203
739.00 0.2202
739.10 0.22
739.20 0.2199
739.30 0.2198
739.40 0.2197
739.50 0.2196
739.60 0.2195
739.70 0.2193
739.80 0.2192
739.90 0.2191
740.00 0.219
740.10 0.2189
740.20 0.2188
740.30 0.2186
740.40 0.2185
740.50 0.2184
740.60 0.2183
740.70 0.2182
740.80 0.2181
740.90 0.218
741.00 0.2178
741.10 0.2177
741.20 0.2176
741.30 0.2175
741.40 0.2174
741.50 0.2173
741.60 0.2172
741.70 0.217
741.80 0.2169
741.90 0.2168
742.00 0.2167
742.10 0.2166
742.20 0.2165
742.30 0.2164
742.40 0.2163
742.50 0.2161
742.60 0.216
742.70 0.2159
742.80 0.2158
742.90 0.2157
743.00 0.2156
743.10 0.2155
743.20 0.2153
743.30 0.2152
743.40 0.2151
743.50 0.215
743.60 0.2149
743.70 0.2148
743.80 0.2147
743.90 0.2146
744.00 0.2144
744.10 0.2143
744.20 0.2142
744.30 0.2141
744.40 0.214
744.50 0.2139
744.60 0.2138
744.70 0.2137
744.80 0.2136
744.90 0.2134
745.00 0.2133
745.10 0.2132
745.20 0.2131
745.30 0.213
745.40 0.2129
745.50 0.2128
745.60 0.2127
745.70 0.2125
745.80 0.2124
745.90 0.2123
746.00 0.2122
746.10 0.2121
746.20 0.212
746.30 0.2119
746.40 0.2118
746.50 0.2117
746.60 0.2115
746.70 0.2114
746.80 0.2113
746.90 0.2112
747.00 0.2111
747.10 0.211
747.20 0.2109
747.30 0.2108
747.40 0.2107
747.50 0.2105
747.60 0.2104
747.70 0.2103
747.80 0.2102
747.90 0.2101
748.00 0.21
748.10 0.2099
748.20 0.2098
748.30 0.2097
748.40 0.2096
748.50 0.2094
748.60 0.2093
748.70 0.2092
748.80 0.2091
748.90 0.209
749.00 0.2089
749.10 0.2088
749.20 0.2087
749.30 0.2086
749.40 0.2085
749.50 0.2083
749.60 0.2082
749.70 0.2081
749.80 0.208
749.90 0.2079
750.00 0.2078
750.10 0.2077
750.20 0.2076
750.30 0.2075
750.40 0.2074
750.50 0.2073
750.60 0.2072
750.70 0.2071
750.80 0.2069
750.90 0.2068
751.00 0.2067
751.10 0.2066
751.20 0.2065
751.30 0.2064
751.40 0.2063
751.50 0.2062
751.60 0.2061
751.70 0.206
751.80 0.2059
751.90 0.2058
752.00 0.2057
752.10 0.2056
752.20 0.2055
752.30 0.2053
752.40 0.2052
752.50 0.2051
752.60 0.205
752.70 0.2049
752.80 0.2048
752.90 0.2047
753.00 0.2046
753.10 0.2045
753.20 0.2044
753.30 0.2043
753.40 0.2042
753.50 0.2041
753.60 0.204
753.70 0.2039
753.80 0.2038
753.90 0.2037
754.00 0.2035
754.10 0.2034
754.20 0.2033
754.30 0.2032
754.40 0.2031
754.50 0.203
754.60 0.2029
754.70 0.2028
754.80 0.2027
754.90 0.2026
755.00 0.2025
755.10 0.2024
755.20 0.2023
755.30 0.2022
755.40 0.2021
755.50 0.202
755.60 0.2019
755.70 0.2018
755.80 0.2017
755.90 0.2016
756.00 0.2015
756.10 0.2013
756.20 0.2012
756.30 0.2011
756.40 0.201
756.50 0.2009
756.60 0.2008
756.70 0.2007
756.80 0.2006
756.90 0.2005
757.00 0.2004
757.10 0.2003
757.20 0.2002
757.30 0.2001
757.40 0.2
757.50 0.1999
757.60 0.1998
757.70 0.1997
757.80 0.1996
757.90 0.1995
758.00 0.1994
758.10 0.1993
758.20 0.1992
758.30 0.1991
758.40 0.199
758.50 0.1989
758.60 0.1988
758.70 0.1987
758.80 0.1986
758.90 0.1984
759.00 0.1983
759.10 0.1982
759.20 0.1981
759.30 0.198
759.40 0.1979
759.50 0.1978
759.60 0.1977
759.70 0.1976
759.80 0.1975
759.90 0.1974
760.00 0.1973
760.10 0.1972
760.20 0.1971
760.30 0.197
760.40 0.1969
760.50 0.1968
760.60 0.1967
760.70 0.1966
760.80 0.1965
760.90 0.1964
761.00 0.1963
761.10 0.1962
761.20 0.1961
761.30 0.196
761.40 0.1959
761.50 0.1958
761.60 0.1957
761.70 0.1956
761.80 0.1955
761.90 0.1954
762.00 0.1953
762.10 0.1952
762.20 0.1951
762.30 0.195
762.40 0.1949
762.50 0.1948
762.60 0.1947
762.70 0.1946
762.80 0.1945
762.90 0.1944
763.00 0.1943
763.10 0.1942
763.20 0.1941
763.30 0.194
763.40 0.1939
763.50 0.1938
763.60 0.1937
763.70 0.1936
763.80 0.1935
763.90 0.1934
764.00 0.1933
764.10 0.1932
764.20 0.1931
764.30 0.193
764.40 0.1929
764.50 0.1928
764.60 0.1927
764.70 0.1926
764.80 0.1925
764.90 0.1924
765.00 0.1924
765.10 0.1923
765.20 0.1922
765.30 0.1921
765.40 0.192
765.50 0.1919
765.60 0.1918
765.70 0.1917
765.80 0.1916
765.90 0.1915
766.00 0.1914
766.10 0.1913
766.20 0.1912
766.30 0.1911
766.40 0.191
766.50 0.1909
766.60 0.1908
766.70 0.1907
766.80 0.1906
766.90 0.1905
767.00 0.1904
767.10 0.1903
767.20 0.1902
767.30 0.1901
767.40 0.19
767.50 0.1899
767.60 0.1898
767.70 0.1897
767.80 0.1896
767.90 0.1895
768.00 0.1894
768.10 0.1893
768.20 0.1892
768.30 0.1891
768.40 0.189
768.50 0.1889
768.60 0.1888
768.70 0.1887
768.80 0.1886
768.90 0.1886
769.00 0.1885
769.10 0.1884
769.20 0.1883
769.30 0.1882
769.40 0.1881
769.50 0.188
769.60 0.1879
769.70 0.1878
769.80 0.1877
769.90 0.1876
770.00 0.1875
770.10 0.1874
770.20 0.1873
770.30 0.1872
770.40 0.1871
770.50 0.187
770.60 0.1869
770.70 0.1868
770.80 0.1867
770.90 0.1866
771.00 0.1866
771.10 0.1865
771.20 0.1864
771.30 0.1863
771.40 0.1862
771.50 0.1861
771.60 0.186
771.70 0.1859
771.80 0.1858
771.90 0.1857
772.00 0.1856
772.10 0.1855
772.20 0.1854
772.30 0.1853
772.40 0.1852
772.50 0.1851
772.60 0.1851
772.70 0.185
772.80 0.1849
772.90 0.1848
773.00 0.1847
773.10 0.1846
773.20 0.1845
773.30 0.1844
773.40 0.1843
773.50 0.1842
773.60 0.1841
773.70 0.184
773.80 0.1839
773.90 0.1838
774.00 0.1838
774.10 0.1837
774.20 0.1836
774.30 0.1835
774.40 0.1834
774.50 0.1833
774.60 0.1832
774.70 0.1831
774.80 0.183
774.90 0.1829
775.00 0.1828
775.10 0.1827
775.20 0.1826
775.30 0.1826
775.40 0.1825
775.50 0.1824
775.60 0.1823
775.70 0.1822
775.80 0.1821
775.90 0.182
776.00 0.1819
776.10 0.1818
776.20 0.1817
776.30 0.1816
776.40 0.1815
776.50 0.1815
776.60 0.1814
776.70 0.1813
776.80 0.1812
776.90 0.1811
777.00 0.181
777.10 0.1809
777.20 0.1808
777.30 0.1807
777.40 0.1806
777.50 0.1805
777.60 0.1804
777.70 0.1804
777.80 0.1803
777.90 0.1802
778.00 0.1801
778.10 0.18
778.20 0.1799
778.30 0.1798
778.40 0.1797
778.50 0.1796
778.60 0.1795
778.70 0.1794
778.80 0.1794
778.90 0.1793
779.00 0.1792
779.10 0.1791
779.20 0.179
779.30 0.1789
779.40 0.1788
779.50 0.1787
779.60 0.1786
779.70 0.1785
779.80 0.1785
779.90 0.1784
780.00 0.1783
780.10 0.1782
780.20 0.1781
780.30 0.178
780.40 0.1779
780.50 0.1778
780.60 0.1777
780.70 0.1777
780.80 0.1776
780.90 0.1775
781.00 0.1774
781.10 0.1773
781.20 0.1772
781.30 0.1771
781.40 0.177
781.50 0.1769
781.60 0.1769
781.70 0.1768
781.80 0.1767
781.90 0.1766
782.00 0.1765
782.10 0.1764
782.20 0.1763
782.30 0.1762
782.40 0.1762
782.50 0.1761
782.60 0.176
782.70 0.1759
782.80 0.1758
782.90 0.1757
783.00 0.1756
783.10 0.1755
783.20 0.1755
783.30 0.1754
783.40 0.1753
783.50 0.1752
783.60 0.1751
783.70 0.175
783.80 0.1749
783.90 0.1748
784.00 0.1748
784.10 0.1747
784.20 0.1746
784.30 0.1745
784.40 0.1744
784.50 0.1743
784.60 0.1742
784.70 0.1742
784.80 0.1741
784.90 0.174
785.00 0.1739
785.10 0.1738
785.20 0.1737
785.30 0.1736
785.40 0.1735
785.50 0.1735
785.60 0.1734
785.70 0.1733
785.80 0.1732
785.90 0.1731
786.00 0.173
786.10 0.1729
786.20 0.1729
786.30 0.1728
786.40 0.1727
786.50 0.1726
786.60 0.1725
786.70 0.1724
786.80 0.1723
786.90 0.1723
787.00 0.1722
787.10 0.1721
787.20 0.172
787.30 0.1719
787.40 0.1718
787.50 0.1717
787.60 0.1717
787.70 0.1716
787.80 0.1715
787.90 0.1714
788.00 0.1713
788.10 0.1712
788.20 0.1711
788.30 0.1711
788.40 0.171
788.50 0.1709
788.60 0.1708
788.70 0.1707
788.80 0.1706
788.90 0.1705
789.00 0.1705
789.10 0.1704
789.20 0.1703
789.30 0.1702
789.40 0.1701
789.50 0.17
789.60 0.1699
789.70 0.1699
789.80 0.1698
789.90 0.1697
790.00 0.1696
790.10 0.1695
790.20 0.1694
790.30 0.1694
790.40 0.1693
790.50 0.1692
790.60 0.1691
790.70 0.169
790.80 0.1689
790.90 0.1689
791.00 0.1688
791.10 0.1687
791.20 0.1686
791.30 0.1685
791.40 0.1684
791.50 0.1684
791.60 0.1683
791.70 0.1682
791.80 0.1681
791.90 0.168
792.00 0.168
792.10 0.1679
792.20 0.1678
792.30 0.1677
792.40 0.1676
792.50 0.1675
792.60 0.1675
792.70 0.1674
792.80 0.1673
792.90 0.1672
793.00 0.1671
793.10 0.167
793.20 0.167
793.30 0.1669
793.40 0.1668
793.50 0.1667
793.60 0.1666
793.70 0.1666
793.80 0.1665
793.90 0.1664
794.00 0.1663
794.10 0.1662
794.20 0.1661
794.30 0.1661
794.40 0.166
794.50 0.1659
794.60 0.1658
794.70 0.1657
794.80 0.1657
794.90 0.1656
795.00 0.1655
795.10 0.1654
795.20 0.1653
795.30 0.1652
795.40 0.1652
795.50 0.1651
795.60 0.165
795.70 0.1649
795.80 0.1648
795.90 0.1648
796.00 0.1647
796.10 0.1646
796.20 0.1645
796.30 0.1644
796.40 0.1644
796.50 0.1643
796.60 0.1642
796.70 0.1641
796.80 0.164
796.90 0.164
797.00 0.1639
797.10 0.1638
797.20 0.1637
797.30 0.1636
797.40 0.1635
797.50 0.1635
797.60 0.1634
797.70 0.1633
797.80 0.1632
797.90 0.1631
798.00 0.1631
798.10 0.163
798.20 0.1629
798.30 0.1628
798.40 0.1627
798.50 0.1627
798.60 0.1626
798.70 0.1625
798.80 0.1624
798.90 0.1623
799.00 0.1623
799.10 0.1622
799.20 0.1621
799.30 0.162
799.40 0.1619
799.50 0.1619
799.60 0.1618
799.70 0.1617
799.80 0.1616
799.90 0.1615
800.00 0.1615
800.10 0.1614
800.20 0.1613
800.30 0.1612
800.40 0.1612
800.50 0.1611
800.60 0.161
800.70 0.1609
800.80 0.1608
800.90 0.1608
801.00 0.1607
801.10 0.1606
801.20 0.1605
801.30 0.1605
801.40 0.1604
801.50 0.1603
801.60 0.1602
801.70 0.1601
801.80 0.1601
801.90 0.16
802.00 0.1599
802.10 0.1598
802.20 0.1598
802.30 0.1597
802.40 0.1596
802.50 0.1595
802.60 0.1594
802.70 0.1594
802.80 0.1593
802.90 0.1592
803.00 0.1591
803.10 0.1591
803.20 0.159
803.30 0.1589
803.40 0.1588
803.50 0.1587
803.60 0.1587
803.70 0.1586
803.80 0.1585
803.90 0.1584
804.00 0.1584
804.10 0.1583
804.20 0.1582
804.30 0.1581
804.40 0.1581
804.50 0.158
804.60 0.1579
804.70 0.1578
804.80 0.1577
804.90 0.1577
805.00 0.1576
805.10 0.1575
805.20 0.1574
805.30 0.1574
805.40 0.1573
805.50 0.1572
805.60 0.1571
805.70 0.1571
805.80 0.157
805.90 0.1569
806.00 0.1568
806.10 0.1568
806.20 0.1567
806.30 0.1566
806.40 0.1565
806.50 0.1565
806.60 0.1564
806.70 0.1563
806.80 0.1562
806.90 0.1561
807.00 0.1561
807.10 0.156
807.20 0.1559
807.30 0.1558
807.40 0.1558
807.50 0.1557
807.60 0.1556
807.70 0.1555
807.80 0.1555
807.90 0.1554
808.00 0.1553
808.10 0.1552
808.20 0.1552
808.30 0.1551
808.40 0.155
808.50 0.1549
808.60 0.1549
808.70 0.1548
808.80 0.1547
808.90 0.1546
809.00 0.1546
809.10 0.1545
809.20 0.1544
809.30 0.1543
809.40 0.1543
809.50 0.1542
809.60 0.1541
809.70 0.154
809.80 0.154
809.90 0.1539
810.00 0.1538
810.10 0.1537
810.20 0.1537
810.30 0.1536
810.40 0.1535
810.50 0.1534
810.60 0.1534
810.70 0.1533
810.80 0.1532
810.90 0.1531
811.00 0.1531
811.10 0.153
811.20 0.1529
811.30 0.1529
811.40 0.1528
811.50 0.1527
811.60 0.1526
811.70 0.1526
811.80 0.1525
811.90 0.1524
812.00 0.1523
812.10 0.1523
812.20 0.1522
812.30 0.1521
812.40 0.1521
812.50 0.152
812.60 0.1519
812.70 0.1518
812.80 0.1518
812.90 0.1517
813.00 0.1516
813.10 0.1515
813.20 0.1515
813.30 0.1514
813.40 0.1513
813.50 0.1513
813.60 0.1512
813.70 0.1511
813.80 0.151
813.90 0.151
814.00 0.1509
814.10 0.1508
814.20 0.1507
814.30 0.1507
814.40 0.1506
814.50 0.1505
814.60 0.1505
814.70 0.1504
814.80 0.1503
814.90 0.1502
815.00 0.1502
815.10 0.1501
815.20 0.15
815.30 0.1499
815.40 0.1499
815.50 0.1498
815.60 0.1497
815.70 0.1497
815.80 0.1496
815.90 0.1495
816.00 0.1494
816.10 0.1494
816.20 0.1493
816.30 0.1492
816.40 0.1492
816.50 0.1491
816.60 0.149
816.70 0.1489
816.80 0.1489
816.90 0.1488
817.00 0.1487
817.10 0.1487
817.20 0.1486
817.30 0.1485
817.40 0.1484
817.50 0.1484
817.60 0.1483
817.70 0.1482
817.80 0.1482
817.90 0.1481
818.00 0.148
818.10 0.1479
818.20 0.1479
818.30 0.1478
818.40 0.1477
818.50 0.1477
818.60 0.1476
818.70 0.1475
818.80 0.1474
818.90 0.1474
819.00 0.1473
819.10 0.1472
819.20 0.1472
819.30 0.1471
819.40 0.147
819.50 0.147
819.60 0.1469
819.70 0.1468
819.80 0.1467
819.90 0.1467
820.00 0.1466
820.10 0.1465
820.20 0.1465
820.30 0.1464
820.40 0.1463
820.50 0.1463
820.60 0.1462
820.70 0.1461
820.80 0.146
820.90 0.146
821.00 0.1459
821.10 0.1458
821.20 0.1458
821.30 0.1457
821.40 0.1456
821.50 0.1456
821.60 0.1455
821.70 0.1454
821.80 0.1453
821.90 0.1453
822.00 0.1452
822.10 0.1451
822.20 0.1451
822.30 0.145
822.40 0.1449
822.50 0.1449
822.60 0.1448
822.70 0.1447
822.80 0.1447
822.90 0.1446
823.00 0.1445
823.10 0.1445
823.20 0.1444
823.30 0.1443
823.40 0.1442
823.50 0.1442
823.60 0.1441
823.70 0.144
823.80 0.144
823.90 0.1439
824.00 0.1438
824.10 0.1438
824.20 0.1437
824.30 0.1436
824.40 0.1436
824.50 0.1435
824.60 0.1434
824.70 0.1434
824.80 0.1433
824.90 0.1432
825.00 0.1432
825.10 0.1431
825.20 0.143
825.30 0.143
825.40 0.1429
825.50 0.1428
825.60 0.1427
825.70 0.1427
825.80 0.1426
825.90 0.1425
826.00 0.1425
826.10 0.1424
826.20 0.1423
826.30 0.1423
826.40 0.1422
826.50 0.1421
826.60 0.1421
826.70 0.142
826.80 0.1419
826.90 0.1419
827.00 0.1418
827.10 0.1417
827.20 0.1417
827.30 0.1416
827.40 0.1415
827.50 0.1415
827.60 0.1414
827.70 0.1413
827.80 0.1413
827.90 0.1412
828.00 0.1411
828.10 0.1411
828.20 0.141
828.30 0.1409
828.40 0.1409
828.50 0.1408
828.60 0.1407
828.70 0.1407
828.80 0.1406
828.90 0.1405
829.00 0.1405
829.10 0.1404
829.20 0.1403
829.30 0.1403
829.40 0.1402
829.50 0.1401
829.60 0.1401
829.70 0.14
829.80 0.1399
829.90 0.1399
830.00 0.1398
830.10 0.1397
830.20 0.1397
830.30 0.1396
830.40 0.1395
830.50 0.1395
830.60 0.1394
830.70 0.1394
830.80 0.1393
830.90 0.1392
831.00 0.1392
831.10 0.1391
831.20 0.139
831.30 0.139
831.40 0.1389
831.50 0.1388
831.60 0.1388
831.70 0.1387
831.80 0.1386
831.90 0.1386
832.00 0.1385
832.10 0.1384
832.20 0.1384
832.30 0.1383
832.40 0.1382
832.50 0.1382
832.60 0.1381
832.70 0.138
832.80 0.138
832.90 0.1379
833.00 0.1378
833.10 0.1378
833.20 0.1377
833.30 0.1377
833.40 0.1376
833.50 0.1375
833.60 0.1375
833.70 0.1374
833.80 0.1373
833.90 0.1373
834.00 0.1372
834.10 0.1371
834.20 0.1371
834.30 0.137
834.40 0.1369
834.50 0.1369
834.60 0.1368
834.70 0.1368
834.80 0.1367
834.90 0.1366
835.00 0.1366
835.10 0.1365
835.20 0.1364
835.30 0.1364
835.40 0.1363
835.50 0.1362
835.60 0.1362
835.70 0.1361
835.80 0.1361
835.90 0.136
836.00 0.1359
836.10 0.1359
836.20 0.1358
836.30 0.1357
836.40 0.1357
836.50 0.1356
836.60 0.1355
836.70 0.1355
836.80 0.1354
836.90 0.1354
837.00 0.1353
837.10 0.1352
837.20 0.1352
837.30 0.1351
837.40 0.135
837.50 0.135
837.60 0.1349
837.70 0.1348
837.80 0.1348
837.90 0.1347
838.00 0.1347
838.10 0.1346
838.20 0.1345
838.30 0.1345
838.40 0.1344
838.50 0.1343
838.60 0.1343
838.70 0.1342
838.80 0.1342
838.90 0.1341
839.00 0.134
839.10 0.134
839.20 0.1339
839.30 0.1338
839.40 0.1338
839.50 0.1337
839.60 0.1337
839.70 0.1336
839.80 0.1335
839.90 0.1335
840.00 0.1334
840.10 0.1333
840.20 0.1333
840.30 0.1332
840.40 0.1332
840.50 0.1331
840.60 0.133
840.70 0.133
840.80 0.1329
840.90 0.1328
841.00 0.1328
841.10 0.1327
841.20 0.1327
841.30 0.1326
841.40 0.1325
841.50 0.1325
841.60 0.1324
841.70 0.1324
841.80 0.1323
841.90 0.1322
842.00 0.1322
842.10 0.1321
842.20 0.132
842.30 0.132
842.40 0.1319
842.50 0.1319
842.60 0.1318
842.70 0.1317
842.80 0.1317
842.90 0.1316
843.00 0.1316
843.10 0.1315
843.20 0.1314
843.30 0.1314
843.40 0.1313
843.50 0.1313
843.60 0.1312
843.70 0.1311
843.80 0.1311
843.90 0.131
844.00 0.1309
844.10 0.1309
844.20 0.1308
844.30 0.1308
844.40 0.1307
844.50 0.1306
844.60 0.1306
844.70 0.1305
844.80 0.1305
844.90 0.1304
845.00 0.1303
845.10 0.1303
845.20 0.1302
845.30 0.1302
845.40 0.1301
845.50 0.13
845.60 0.13
845.70 0.1299
845.80 0.1299
845.90 0.1298
846.00 0.1297
846.10 0.1297
846.20 0.1296
846.30 0.1296
846.40 0.1295
846.50 0.1294
846.60 0.1294
846.70 0.1293
846.80 0.1293
846.90 0.1292
847.00 0.1291
847.10 0.1291
847.20 0.129
847.30 0.129
847.40 0.1289
847.50 0.1288
847.60 0.1288
847.70 0.1287
847.80 0.1287
847.90 0.1286
848.00 0.1285
848.10 0.1285
848.20 0.1284
848.30 0.1284
848.40 0.1283
848.50 0.1282
848.60 0.1282
848.70 0.1281
848.80 0.1281
848.90 0.128
849.00 0.1279
849.10 0.1279
849.20 0.1278
849.30 0.1278
849.40 0.1277
849.50 0.1277
849.60 0.1276
849.70 0.1275
849.80 0.1275
849.90 0.1274
850.00 0.1274
850.10 0.1273
850.20 0.1272
850.30 0.1272
850.40 0.1271
850.50 0.1271
850.60 0.127
850.70 0.1269
850.80 0.1269
850.90 0.1268
851.00 0.1268
851.10 0.1267
851.20 0.1267
851.30 0.1266
851.40 0.1265
851.50 0.1265
851.60 0.1264
851.70 0.1264
851.80 0.1263
851.90 0.1262
852.00 0.1262
852.10 0.1261
852.20 0.1261
852.30 0.126
852.40 0.126
852.50 0.1259
852.60 0.1258
852.70 0.1258
852.80 0.1257
852.90 0.1257
853.00 0.1256
853.10 0.1255
853.20 0.1255
853.30 0.1254
853.40 0.1254
853.50 0.1253
853.60 0.1253
853.70 0.1252
853.80 0.1251
853.90 0.1251
854.00 0.125
854.10 0.125
854.20 0.1249
854.30 0.1249
854.40 0.1248
854.50 0.1247
854.60 0.1247
854.70 0.1246
854.80 0.1246
854.90 0.1245
855.00 0.1245
855.10 0.1244
855.20 0.1243
855.30 0.1243
855.40 0.1242
855.50 0.1242
855.60 0.1241
855.70 0.1241
855.80 0.124
855.90 0.1239
856.00 0.1239
856.10 0.1238
856.20 0.1238
856.30 0.1237
856.40 0.1237
856.50 0.1236
856.60 0.1235
856.70 0.1235
856.80 0.1234
856.90 0.1234
857.00 0.1233
857.10 0.1233
857.20 0.1232
857.30 0.1232
857.40 0.1231
857.50 0.123
857.60 0.123
857.70 0.1229
857.80 0.1229
857.90 0.1228
858.00 0.1228
858.10 0.1227
858.20 0.1227
858.30 0.1226
858.40 0.1225
858.50 0.1225
858.60 0.1224
858.70 0.1224
858.80 0.1223
858.90 0.1223
859.00 0.1222
859.10 0.1222
859.20 0.1221
859.30 0.122
859.40 0.122
859.50 0.1219
859.60 0.1219
859.70 0.1218
859.80 0.1218
859.90 0.1217
860.00 0.1217
860.10 0.1216
860.20 0.1215
860.30 0.1215
860.40 0.1214
860.50 0.1214
860.60 0.1213
860.70 0.1213
860.80 0.1212
860.90 0.1212
861.00 0.1211
861.10 0.121
861.20 0.121
861.30 0.1209
861.40 0.1209
861.50 0.1208
861.60 0.1208
861.70 0.1207
861.80 0.1207
861.90 0.1206
862.00 0.1206
862.10 0.1205
862.20 0.1204
862.30 0.1204
862.40 0.1203
862.50 0.1203
862.60 0.1202
862.70 0.1202
862.80 0.1201
862.90 0.1201
863.00 0.12
863.10 0.12
863.20 0.1199
863.30 0.1198
863.40 0.1198
863.50 0.1197
863.60 0.1197
863.70 0.1196
863.80 0.1196
863.90 0.1195
864.00 0.1195
864.10 0.1194
864.20 0.1194
864.30 0.1193
864.40 0.1192
864.50 0.1192
864.60 0.1191
864.70 0.1191
864.80 0.119
864.90 0.119
865.00 0.1189
865.10 0.1189
865.20 0.1188
865.30 0.1188
865.40 0.1187
865.50 0.1187
865.60 0.1186
865.70 0.1185
865.80 0.1185
865.90 0.1184
866.00 0.1184
866.10 0.1183
866.20 0.1183
866.30 0.1182
866.40 0.1182
866.50 0.1181
866.60 0.1181
866.70 0.118
866.80 0.118
866.90 0.1179
867.00 0.1178
867.10 0.1178
867.20 0.1177
867.30 0.1177
867.40 0.1176
867.50 0.1176
867.60 0.1175
867.70 0.1175
867.80 0.1174
867.90 0.1174
868.00 0.1173
868.10 0.1173
868.20 0.1172
868.30 0.1172
868.40 0.1171
868.50 0.1171
868.60 0.117
868.70 0.1169
868.80 0.1169
868.90 0.1168
869.00 0.1168
869.10 0.1167
869.20 0.1167
869.30 0.1166
869.40 0.1166
869.50 0.1165
869.60 0.1165
869.70 0.1164
869.80 0.1164
869.90 0.1163
870.00 0.1163
870.10 0.1162
870.20 0.1162
870.30 0.1161
870.40 0.1161
870.50 0.116
870.60 0.116
870.70 0.1159
870.80 0.1158
870.90 0.1158
871.00 0.1157
871.10 0.1157
871.20 0.1156
871.30 0.1156
871.40 0.1155
871.50 0.1155
871.60 0.1154
871.70 0.1154
871.80 0.1153
871.90 0.1153
872.00 0.1152
872.10 0.1152
872.20 0.1151
872.30 0.1151
872.40 0.115
872.50 0.115
872.60 0.1149
872.70 0.1149
872.80 0.1148
872.90 0.1148
873.00 0.1147
873.10 0.1147
873.20 0.1146
873.30 0.1145
873.40 0.1145
873.50 0.1144
873.60 0.1144
873.70 0.1143
873.80 0.1143
873.90 0.1142
874.00 0.1142
874.10 0.1141
874.20 0.1141
874.30 0.114
874.40 0.114
874.50 0.1139
874.60 0.1139
874.70 0.1138
874.80 0.1138
874.90 0.1137
875.00 0.1137
875.10 0.1136
875.20 0.1136
875.30 0.1135
875.40 0.1135
875.50 0.1134
875.60 0.1134
875.70 0.1133
875.80 0.1133
875.90 0.1132
876.00 0.1132
876.10 0.1131
876.20 0.1131
876.30 0.113
876.40 0.113
876.50 0.1129
876.60 0.1129
876.70 0.1128
876.80 0.1128
876.90 0.1127
877.00 0.1127
877.10 0.1126
877.20 0.1126
877.30 0.1125
877.40 0.1125
877.50 0.1124
877.60 0.1124
877.70 0.1123
877.80 0.1123
877.90 0.1122
878.00 0.1122
878.10 0.1121
878.20 0.1121
878.30 0.112
878.40 0.112
878.50 0.1119
878.60 0.1119
878.70 0.1118
878.80 0.1118
878.90 0.1117
879.00 0.1117
879.10 0.1116
879.20 0.1116
879.30 0.1115
879.40 0.1115
879.50 0.1114
879.60 0.1114
879.70 0.1113
879.80 0.1113
879.90 0.1112
880.00 0.1112
880.10 0.1111
880.20 0.1111
880.30 0.111
880.40 0.111
880.50 0.1109
880.60 0.1109
880.70 0.1108
880.80 0.1108
880.90 0.1107
881.00 0.1107
881.10 0.1106
881.20 0.1106
881.30 0.1105
881.40 0.1105
881.50 0.1104
881.60 0.1104
881.70 0.1103
881.80 0.1103
881.90 0.1102
882.00 0.1102
882.10 0.1101
882.20 0.1101
882.30 0.11
882.40 0.11
882.50 0.1099
882.60 0.1099
882.70 0.1098
882.80 0.1098
882.90 0.1097
883.00 0.1097
883.10 0.1096
883.20 0.1096
883.30 0.1095
883.40 0.1095
883.50 0.1094
883.60 0.1094
883.70 0.1094
883.80 0.1093
883.90 0.1093
884.00 0.1092
884.10 0.1092
884.20 0.1091
884.30 0.1091
884.40 0.109
884.50 0.109
884.60 0.1089
884.70 0.1089
884.80 0.1088
884.90 0.1088
885.00 0.1087
885.10 0.1087
885.20 0.1086
885.30 0.1086
885.40 0.1085
885.50 0.1085
885.60 0.1084
885.70 0.1084
885.80 0.1083
885.90 0.1083
886.00 0.1082
886.10 0.1082
886.20 0.1081
886.30 0.1081
886.40 0.108
886.50 0.108
886.60 0.108
886.70 0.1079
886.80 0.1079
886.90 0.1078
887.00 0.1078
887.10 0.1077
887.20 0.1077
887.30 0.1076
887.40 0.1076
887.50 0.1075
887.60 0.1075
887.70 0.1074
887.80 0.1074
887.90 0.1073
888.00 0.1073
888.10 0.1072
888.20 0.1072
888.30 0.1071
888.40 0.1071
888.50 0.1071
888.60 0.107
888.70 0.107
888.80 0.1069
888.90 0.1069
889.00 0.1068
889.10 0.1068
889.20 0.1067
889.30 0.1067
889.40 0.1066
889.50 0.1066
889.60 0.1065
889.70 0.1065
889.80 0.1064
889.90 0.1064
890.00 0.1063
890.10 0.1063
890.20 0.1063
890.30 0.1062
890.40 0.1062
890.50 0.1061
890.60 0.1061
890.70 0.106
890.80 0.106
890.90 0.1059
891.00 0.1059
891.10 0.1058
891.20 0.1058
891.30 0.1057
891.40 0.1057
891.50 0.1056
891.60 0.1056
891.70 0.1056
891.80 0.1055
891.90 0.1055
892.00 0.1054
892.10 0.1054
892.20 0.1053
892.30 0.1053
892.40 0.1052
892.50 0.1052
892.60 0.1051
892.70 0.1051
892.80 0.105
892.90 0.105
893.00 0.105
893.10 0.1049
893.20 0.1049
893.30 0.1048
893.40 0.1048
893.50 0.1047
893.60 0.1047
893.70 0.1046
893.80 0.1046
893.90 0.1045
894.00 0.1045
894.10 0.1044
894.20 0.1044
894.30 0.1044
894.40 0.1043
894.50 0.1043
894.60 0.1042
894.70 0.1042
894.80 0.1041
894.90 0.1041
895.00 0.104
895.10 0.104
895.20 0.1039
895.30 0.1039
895.40 0.1039
895.50 0.1038
895.60 0.1038
895.70 0.1037
895.80 0.1037
895.90 0.1036
896.00 0.1036
896.10 0.1035
896.20 0.1035
896.30 0.1034
896.40 0.1034
896.50 0.1034
896.60 0.1033
896.70 0.1033
896.80 0.1032
896.90 0.1032
897.00 0.1031
897.10 0.1031
897.20 0.103
897.30 0.103
897.40 0.1029
897.50 0.1029
897.60 0.1029
897.70 0.1028
897.80 0.1028
897.90 0.1027
898.00 0.1027
898.10 0.1026
898.20 0.1026
898.30 0.1025
898.40 0.1025
898.50 0.1025
898.60 0.1024
898.70 0.1024
898.80 0.1023
898.90 0.1023
899.00 0.1022
899.10 0.1022
899.20 0.1021
899.30 0.1021
899.40 0.1021
899.50 0.102
899.60 0.102
899.70 0.1019
899.80 0.1019
899.90 0.1018
900.00 0.1018
900.10 0.1017
900.20 0.1017
900.30 0.1017
900.40 0.1016
900.50 0.1016
900.60 0.1015
900.70 0.1015
900.80 0.1014
900.90 0.1014
901.00 0.1013
901.10 0.1013
901.20 0.1013
901.30 0.1012
901.40 0.1012
901.50 0.1011
901.60 0.1011
901.70 0.101
901.80 0.101
901.90 0.1009
902.00 0.1009
902.10 0.1009
902.20 0.1008
902.30 0.1008
902.40 0.1007
902.50 0.1007
902.60 0.1006
902.70 0.1006
902.80 0.1006
902.90 0.1005
903.00 0.1005
903.10 0.1004
903.20 0.1004
903.30 0.1003
903.40 0.1003
903.50 0.1002
903.60 0.1002
903.70 0.1002
903.80 0.1001
903.90 0.1001
904.00 0.1
904.10 0.09999
904.20 0.09995
904.30 0.0999
904.40 0.09986
904.50 0.09982
904.60 0.09977
904.70 0.09973
904.80 0.09969
904.90 0.09964
905.00 0.0996
905.10 0.09956
905.20 0.09951
905.30 0.09947
905.40 0.09943
905.50 0.09938
905.60 0.09934
905.70 0.0993
905.80 0.09925
905.90 0.09921
906.00 0.09917
906.10 0.09913
906.20 0.09908
906.30 0.09904
906.40 0.099
906.50 0.09895
906.60 0.09891
906.70 0.09887
906.80 0.09883
906.90 0.09878
907.00 0.09874
907.10 0.0987
907.20 0.09865
907.30 0.09861
907.40 0.09857
907.50 0.09853
907.60 0.09848
907.70 0.09844
907.80 0.0984
907.90 0.09836
908.00 0.09832
908.10 0.09827
908.20 0.09823
908.30 0.09819
908.40 0.09815
908.50 0.0981
908.60 0.09806
908.70 0.09802
908.80 0.09798
908.90 0.09794
909.00 0.09789
909.10 0.09785
909.20 0.09781
909.30 0.09777
909.40 0.09772
909.50 0.09768
909.60 0.09764
909.70 0.0976
909.80 0.09756
909.90 0.09751
910.00 0.09747
910.10 0.09743
910.20 0.09739
910.30 0.09735
910.40 0.0973
910.50 0.09726
910.60 0.09722
910.70 0.09718
910.80 0.09714
910.90 0.09709
911.00 0.09705
911.10 0.09701
911.20 0.09697
911.30 0.09693
911.40 0.09689
911.50 0.09684
911.60 0.0968
911.70 0.09676
911.80 0.09672
911.90 0.09668
912.00 0.09664
912.10 0.09659
912.20 0.09655
912.30 0.09651
912.40 0.09647
912.50 0.09643
912.60 0.09639
912.70 0.09635
912.80 0.0963
912.90 0.09626
913.00 0.09622
913.10 0.09618
913.20 0.09614
913.30 0.0961
913.40 0.09606
913.50 0.09602
913.60 0.09598
913.70 0.09593
913.80 0.09589
913.90 0.09585
914.00 0.09581
914.10 0.09577
914.20 0.09573
914.30 0.09569
914.40 0.09565
914.50 0.09561
914.60 0.09557
914.70 0.09552
914.80 0.09548
914.90 0.09544
915.00 0.0954
915.10 0.09536
915.20 0.09532
915.30 0.09528
915.40 0.09524
915.50 0.0952
915.60 0.09516
915.70 0.09512
915.80 0.09508
915.90 0.09503
916.00 0.09499
916.10 0.09495
916.20 0.09491
916.30 0.09487
916.40 0.09483
916.50 0.09479
916.60 0.09475
916.70 0.09471
916.80 0.09467
916.90 0.09463
917.00 0.09459
917.10 0.09455
917.20 0.09451
917.30 0.09447
917.40 0.09443
917.50 0.09439
917.60 0.09435
917.70 0.09431
917.80 0.09427
917.90 0.09423
918.00 0.09419
918.10 0.09415
918.20 0.09411
918.30 0.09407
918.40 0.09403
918.50 0.09399
918.60 0.09395
918.70 0.09391
918.80 0.09387
918.90 0.09383
919.00 0.09379
919.10 0.09375
919.20 0.09371
919.30 0.09367
919.40 0.09363
919.50 0.09359
919.60 0.09355
919.70 0.09351
919.80 0.09347
919.90 0.09343
920.00 0.09339
920.10 0.09335
920.20 0.09331
920.30 0.09327
920.40 0.09323
920.50 0.09319
920.60 0.09315
920.70 0.09311
920.80 0.09307
920.90 0.09303
921.00 0.09299
921.10 0.09295
921.20 0.09291
921.30 0.09287
921.40 0.09283
921.50 0.09279
921.60 0.09275
921.70 0.09271
921.80 0.09268
921.90 0.09264
922.00 0.0926
922.10 0.09256
922.20 0.09252
922.30 0.09248
922.40 0.09244
922.50 0.0924
922.60 0.09236
922.70 0.09232
922.80 0.09228
922.90 0.09224
923.00 0.0922
923.10 0.09217
923.20 0.09213
923.30 0.09209
923.40 0.09205
923.50 0.09201
923.60 0.09197
923.70 0.09193
923.80 0.09189
923.90 0.09185
924.00 0.09181
924.10 0.09178
924.20 0.09174
924.30 0.0917
924.40 0.09166
924.50 0.09162
924.60 0.09158
924.70 0.09154
924.80 0.0915
924.90 0.09147
925.00 0.09143
925.10 0.09139
925.20 0.09135
925.30 0.09131
925.40 0.09127
925.50 0.09123
925.60 0.09119
925.70 0.09116
925.80 0.09112
925.90 0.09108
926.00 0.09104
926.10 0.091
926.20 0.09096
926.30 0.09092
926.40 0.09088
926.50 0.09085
926.60 0.09081
926.70 0.09077
926.80 0.09073
926.90 0.09069
927.00 0.09065
927.10 0.09062
927.20 0.09058
927.30 0.09054
927.40 0.0905
927.50 0.09046
927.60 0.09042
927.70 0.09039
927.80 0.09035
927.90 0.09031
928.00 0.09027
928.10 0.09023
928.20 0.0902
928.30 0.09016
928.40 0.09012
928.50 0.09008
928.60 0.09004
928.70 0.09001
928.80 0.08997
928.90 0.08993
929.00 0.08989
929.10 0.08986
929.20 0.08982
929.30 0.08978
929.40 0.08974
929.50 0.0897
929.60 0.08967
929.70 0.08963
929.80 0.08959
929.90 0.08955
930.00 0.08951
930.10 0.08948
930.20 0.08944
930.30 0.0894
930.40 0.08936
930.50 0.08933
930.60 0.08929
930.70 0.08925
930.80 0.08921
930.90 0.08918
931.00 0.08914
931.10 0.0891
931.20 0.08906
931.30 0.08903
931.40 0.08899
931.50 0.08895
931.60 0.08891
931.70 0.08888
931.80 0.08884
931.90 0.0888
932.00 0.08876
932.10 0.08873
932.20 0.08869
932.30 0.08865
932.40 0.08861
932.50 0.08858
932.60 0.08854
932.70 0.0885
932.80 0.08847
932.90 0.08843
933.00 0.08839
933.10 0.08835
933.20 0.08832
933.30 0.08828
933.40 0.08824
933.50 0.08821
933.60 0.08817
933.70 0.08813
933.80 0.08809
933.90 0.08806
934.00 0.08802
934.10 0.08798
934.20 0.08795
934.30 0.08791
934.40 0.08787
934.50 0.08784
934.60 0.0878
934.70 0.08776
934.80 0.08773
934.90 0.08769
935.00 0.08765
935.10 0.08762
935.20 0.08758
935.30 0.08754
935.40 0.08751
935.50 0.08747
935.60 0.08743
935.70 0.0874
935.80 0.08736
935.90 0.08732
936.00 0.08729
936.10 0.08725
936.20 0.08721
936.30 0.08718
936.40 0.08714
936.50 0.0871
936.60 0.08707
936.70 0.08703
936.80 0.08699
936.90 0.08696
937.00 0.08692
937.10 0.08689
937.20 0.08685
937.30 0.08681
937.40 0.08678
937.50 0.08674
937.60 0.0867
937.70 0.08667
937.80 0.08663
937.90 0.0866
938.00 0.08656
938.10 0.08652
938.20 0.08649
938.30 0.08645
938.40 0.08642
938.50 0.08638
938.60 0.08634
938.70 0.08631
938.80 0.08627
938.90 0.08624
939.00 0.0862
939.10 0.08616
939.20 0.08613
939.30 0.08609
939.40 0.08606
939.50 0.08602
939.60 0.08598
939.70 0.08595
939.80 0.08591
939.90 0.08588
940.00 0.08584
940.10 0.0858
940.20 0.08577
940.30 0.08573
940.40 0.0857
940.50 0.08566
940.60 0.08563
940.70 0.08559
940.80 0.08555
940.90 0.08552
941.00 0.08548
941.10 0.08545
941.20 0.08541
941.30 0.08538
941.40 0.08534
941.50 0.08531
941.60 0.08527
941.70 0.08524
941.80 0.0852
941.90 0.08516
942.00 0.08513
942.10 0.08509
942.20 0.08506
942.30 0.08502
942.40 0.08499
942.50 0.08495
942.60 0.08492
942.70 0.08488
942.80 0.08485
942.90 0.08481
943.00 0.08478
943.10 0.08474
943.20 0.08471
943.30 0.08467
943.40 0.08464
943.50 0.0846
943.60 0.08457
943.70 0.08453
943.80 0.0845
943.90 0.08446
944.00 0.08443
944.10 0.08439
944.20 0.08436
944.30 0.08432
944.40 0.08429
944.50 0.08425
944.60 0.08422
944.70 0.08418
944.80 0.08415
944.90 0.08411
945.00 0.08408
945.10 0.08404
945.20 0.08401
945.30 0.08397
945.40 0.08394
945.50 0.0839
945.60 0.08387
945.70 0.08383
945.80 0.0838
945.90 0.08376
946.00 0.08373
946.10 0.08369
946.20 0.08366
946.30 0.08363
946.40 0.08359
946.50 0.08356
946.60 0.08352
946.70 0.08349
946.80 0.08345
946.90 0.08342
947.00 0.08338
947.10 0.08335
947.20 0.08331
947.30 0.08328
947.40 0.08325
947.50 0.08321
947.60 0.08318
947.70 0.08314
947.80 0.08311
947.90 0.08307
948.00 0.08304
948.10 0.08301
948.20 0.08297
948.30 0.08294
948.40 0.0829
948.50 0.08287
948.60 0.08284
948.70 0.0828
948.80 0.08277
948.90 0.08273
949.00 0.0827
949.10 0.08266
949.20 0.08263
949.30 0.0826
949.40 0.08256
949.50 0.08253
949.60 0.08249
949.70 0.08246
949.80 0.08243
949.90 0.08239
950.00 0.08236
950.10 0.08233
950.20 0.08229
950.30 0.08226
950.40 0.08222
950.50 0.08219
950.60 0.08216
950.70 0.08212
950.80 0.08209
950.90 0.08206
951.00 0.08202
951.10 0.08199
951.20 0.08195
951.30 0.08192
951.40 0.08189
951.50 0.08185
951.60 0.08182
951.70 0.08179
951.80 0.08175
951.90 0.08172
952.00 0.08169
952.10 0.08165
952.20 0.08162
952.30 0.08159
952.40 0.08155
952.50 0.08152
952.60 0.08149
952.70 0.08145
952.80 0.08142
952.90 0.08139
953.00 0.08135
953.10 0.08132
953.20 0.08129
953.30 0.08125
953.40 0.08122
953.50 0.08119
953.60 0.08115
953.70 0.08112
953.80 0.08109
953.90 0.08105
954.00 0.08102
954.10 0.08099
954.20 0.08095
954.30 0.08092
954.40 0.08089
954.50 0.08085
954.60 0.08082
954.70 0.08079
954.80 0.08076
954.90 0.08072
955.00 0.08069
955.10 0.08066
955.20 0.08062
955.30 0.08059
955.40 0.08056
955.50 0.08052
955.60 0.08049
955.70 0.08046
955.80 0.08042
955.90 0.08039
956.00 0.08036
956.10 0.08032
956.20 0.08029
956.30 0.08026
956.40 0.08023
956.50 0.08019
956.60 0.08016
956.70 0.08013
956.80 0.08009
956.90 0.08006
957.00 0.08003
957.10 0.08
957.20 0.07996
957.30 0.07993
957.40 0.0799
957.50 0.07986
957.60 0.07983
957.70 0.0798
957.80 0.07977
957.90 0.07973
958.00 0.0797
958.10 0.07967
958.20 0.07964
958.30 0.0796
958.40 0.07957
958.50 0.07954
958.60 0.07951
958.70 0.07947
958.80 0.07944
958.90 0.07941
959.00 0.07938
959.10 0.07934
959.20 0.07931
959.30 0.07928
959.40 0.07925
959.50 0.07921
959.60 0.07918
959.70 0.07915
959.80 0.07912
959.90 0.07908
960.00 0.07905
960.10 0.07902
960.20 0.07899
960.30 0.07896
960.40 0.07892
960.50 0.07889
960.60 0.07886
960.70 0.07883
960.80 0.07879
960.90 0.07876
961.00 0.07873
961.10 0.0787
961.20 0.07867
961.30 0.07863
961.40 0.0786
961.50 0.07857
961.60 0.07854
961.70 0.07851
961.80 0.07847
961.90 0.07844
962.00 0.07841
962.10 0.07838
962.20 0.07835
962.30 0.07831
962.40 0.07828
962.50 0.07825
962.60 0.07822
962.70 0.07819
962.80 0.07816
962.90 0.07812
963.00 0.07809
963.10 0.07806
963.20 0.07803
963.30 0.078
963.40 0.07797
963.50 0.07793
963.60 0.0779
963.70 0.07787
963.80 0.07784
963.90 0.07781
964.00 0.07778
964.10 0.07774
964.20 0.07771
964.30 0.07768
964.40 0.07765
964.50 0.07762
964.60 0.07759
964.70 0.07755
964.80 0.07752
964.90 0.07749
965.00 0.07746
965.10 0.07743
965.20 0.0774
965.30 0.07737
965.40 0.07733
965.50 0.0773
965.60 0.07727
965.70 0.07724
965.80 0.07721
965.90 0.07718
966.00 0.07715
966.10 0.07712
966.20 0.07708
966.30 0.07705
966.40 0.07702
966.50 0.07699
966.60 0.07696
966.70 0.07693
966.80 0.0769
966.90 0.07687
967.00 0.07683
967.10 0.0768
967.20 0.07677
967.30 0.07674
967.40 0.07671
967.50 0.07668
967.60 0.07665
967.70 0.07662
967.80 0.07659
967.90 0.07656
968.00 0.07652
968.10 0.07649
968.20 0.07646
968.30 0.07643
968.40 0.0764
968.50 0.07637
968.60 0.07634
968.70 0.07631
968.80 0.07628
968.90 0.07625
969.00 0.07622
969.10 0.07618
969.20 0.07615
969.30 0.07612
969.40 0.07609
969.50 0.07606
969.60 0.07603
969.70 0.076
969.80 0.07597
969.90 0.07594
970.00 0.07591
970.10 0.07588
970.20 0.07585
970.30 0.07582
970.40 0.07579
970.50 0.07575
970.60 0.07572
970.70 0.07569
970.80 0.07566
970.90 0.07563
971.00 0.0756
971.10 0.07557
971.20 0.07554
971.30 0.07551
971.40 0.07548
971.50 0.07545
971.60 0.07542
971.70 0.07539
971.80 0.07536
971.90 0.07533
972.00 0.0753
972.10 0.07527
972.20 0.07524
972.30 0.07521
972.40 0.07518
972.50 0.07515
972.60 0.07512
972.70 0.07509
972.80 0.07506
972.90 0.07503
973.00 0.075
973.10 0.07497
973.20 0.07493
973.30 0.0749
973.40 0.07487
973.50 0.07484
973.60 0.07481
973.70 0.07478
973.80 0.07475
973.90 0.07472
974.00 0.07469
974.10 0.07466
974.20 0.07463
974.30 0.0746
974.40 0.07457
974.50 0.07454
974.60 0.07451
974.70 0.07448
974.80 0.07445
974.90 0.07442
975.00 0.07439
975.10 0.07436
975.20 0.07433
975.30 0.0743
975.40 0.07427
975.50 0.07424
975.60 0.07421
975.70 0.07418
975.80 0.07415
975.90 0.07412
976.00 0.0741
976.10 0.07407
976.20 0.07404
976.30 0.07401
976.40 0.07398
976.50 0.07395
976.60 0.07392
976.70 0.07389
976.80 0.07386
976.90 0.07383
977.00 0.0738
977.10 0.07377
977.20 0.07374
977.30 0.07371
977.40 0.07368
977.50 0.07365
977.60 0.07362
977.70 0.07359
977.80 0.07356
977.90 0.07353
978.00 0.0735
978.10 0.07347
978.20 0.07344
978.30 0.07341
978.40 0.07338
978.50 0.07336
978.60 0.07333
978.70 0.0733
978.80 0.07327
978.90 0.07324
979.00 0.07321
979.10 0.07318
979.20 0.07315
979.30 0.07312
979.40 0.07309
979.50 0.07306
979.60 0.07303
979.70 0.073
979.80 0.07297
979.90 0.07294
980.00 0.07292
980.10 0.07289
980.20 0.07286
980.30 0.07283
980.40 0.0728
980.50 0.07277
980.60 0.07274
980.70 0.07271
980.80 0.07268
980.90 0.07265
981.00 0.07262
981.10 0.07259
981.20 0.07256
981.30 0.07254
981.40 0.07251
981.50 0.07248
981.60 0.07245
981.70 0.07242
981.80 0.07239
981.90 0.07236
982.00 0.07233
982.10 0.0723
982.20 0.07227
982.30 0.07225
982.40 0.07222
982.50 0.07219
982.60 0.07216
982.70 0.07213
982.80 0.0721
982.90 0.07207
983.00 0.07204
983.10 0.07201
983.20 0.07199
983.30 0.07196
983.40 0.07193
983.50 0.0719
983.60 0.07187
983.70 0.07184
983.80 0.07181
983.90 0.07178
984.00 0.07176
984.10 0.07173
984.20 0.0717
984.30 0.07167
984.40 0.07164
984.50 0.07161
984.60 0.07158
984.70 0.07156
984.80 0.07153
984.90 0.0715
985.00 0.07147
985.10 0.07144
985.20 0.07141
985.30 0.07138
985.40 0.07136
985.50 0.07133
985.60 0.0713
985.70 0.07127
985.80 0.07124
985.90 0.07121
986.00 0.07119
986.10 0.07116
986.20 0.07113
986.30 0.0711
986.40 0.07107
986.50 0.07104
986.60 0.07101
986.70 0.07099
986.80 0.07096
986.90 0.07093
987.00 0.0709
987.10 0.07087
987.20 0.07084
987.30 0.07082
987.40 0.07079
987.50 0.07076
987.60 0.07073
987.70 0.0707
987.80 0.07068
987.90 0.07065
988.00 0.07062
988.10 0.07059
988.20 0.07056
988.30 0.07053
988.40 0.07051
988.50 0.07048
988.60 0.07045
988.70 0.07042
988.80 0.07039
988.90 0.07037
989.00 0.07034
989.10 0.07031
989.20 0.07028
989.30 0.07025
989.40 0.07023
989.50 0.0702
989.60 0.07017
989.70 0.07014
989.80 0.07012
989.90 0.07009
990.00 0.07006
990.10 0.07003
990.20 0.07
990.30 0.06998
990.40 0.06995
990.50 0.06992
990.60 0.06989
990.70 0.06986
990.80 0.06984
990.90 0.06981
991.00 0.06978
991.10 0.06975
991.20 0.06973
991.30 0.0697
991.40 0.06967
991.50 0.06964
991.60 0.06961
991.70 0.06959
991.80 0.06956
991.90 0.06953
992.00 0.0695
992.10 0.06948
992.20 0.06945
992.30 0.06942
992.40 0.06939
992.50 0.06937
992.60 0.06934
992.70 0.06931
992.80 0.06928
992.90 0.06926
993.00 0.06923
993.10 0.0692
993.20 0.06917
993.30 0.06915
993.40 0.06912
993.50 0.06909
993.60 0.06906
993.70 0.06904
993.80 0.06901
993.90 0.06898
994.00 0.06896
994.10 0.06893
994.20 0.0689
994.30 0.06887
994.40 0.06885
994.50 0.06882
994.60 0.06879
994.70 0.06876
994.80 0.06874
994.90 0.06871
995.00 0.06868
995.10 0.06866
995.20 0.06863
995.30 0.0686
995.40 0.06857
995.50 0.06855
995.60 0.06852
995.70 0.06849
995.80 0.06847
995.90 0.06844
996.00 0.06841
996.10 0.06839
996.20 0.06836
996.30 0.06833
996.40 0.0683
996.50 0.06828
996.60 0.06825
996.70 0.06822
996.80 0.0682
996.90 0.06817
997.00 0.06814
997.10 0.06812
997.20 0.06809
997.30 0.06806
997.40 0.06804
997.50 0.06801
997.60 0.06798
997.70 0.06796
997.80 0.06793
997.90 0.0679
998.00 0.06788
998.10 0.06785
998.20 0.06782
998.30 0.0678
998.40 0.06777
998.50 0.06774
998.60 0.06772
998.70 0.06769
998.80 0.06766
998.90 0.06764
999.00 0.06761
999.10 0.06758
999.20 0.06756
999.30 0.06753
999.40 0.06751
999.50 0.06748
999.60 0.06745
999.70 0.06742
999.80 0.0674
999.90 0.06737
1000.00 0.06734
1000.10 0.06731
1000.20 0.06728
1000.30 0.06725
1000.40 0.06722
1000.50 0.06719
1000.60 0.06717
1000.70 0.06714
1000.80 0.06711
1000.90 0.06708
1001.00 0.06705
1001.10 0.06702
1001.20 0.06699
1001.30 0.06696
1001.40 0.06694
1001.50 0.06691
1001.60 0.06688
1001.70 0.06685
1001.80 0.06683
1001.90 0.0668
1002.00 0.06677
1002.10 0.06675
1002.20 0.06672
1002.30 0.0667
1002.40 0.06667
1002.50 0.06665
1002.60 0.06662
1002.70 0.0666
1002.80 0.06657
1002.90 0.06654
1003.00 0.06652
1003.10 0.06649
1003.20 0.06647
1003.30 0.06644
1003.40 0.06642
1003.50 0.06639
1003.60 0.06637
1003.70 0.06634
1003.80 0.06632
1003.90 0.06629
1004.00 0.06626
1004.10 0.06624
1004.20 0.06621
1004.30 0.06619
1004.40 0.06616
1004.50 0.06614
1004.60 0.06611
1004.70 0.06609
1004.80 0.06606
1004.90 0.06603
1005.00 0.06601
1005.10 0.06598
1005.20 0.06596
1005.30 0.06593
1005.40 0.06591
1005.50 0.06588
1005.60 0.06585
1005.70 0.06583
1005.80 0.0658
1005.90 0.06578
1006.00 0.06575
1006.10 0.06573
1006.20 0.0657
1006.30 0.06567
1006.40 0.06565
1006.50 0.06562
1006.60 0.0656
1006.70 0.06557
1006.80 0.06554
1006.90 0.06552
1007.00 0.06549
1007.10 0.06547
1007.20 0.06544
1007.30 0.06542
1007.40 0.06539
1007.50 0.06536
1007.60 0.06534
1007.70 0.06531
1007.80 0.06529
1007.90 0.06526
1008.00 0.06524
1008.10 0.06521
1008.20 0.06519
1008.30 0.06516
1008.40 0.06513
1008.50 0.06511
1008.60 0.06508
1008.70 0.06506
1008.80 0.06503
1008.90 0.06501
1009.00 0.06498
1009.10 0.06496
1009.20 0.06493
1009.30 0.06491
1009.40 0.06488
1009.50 0.06486
1009.60 0.06483
1009.70 0.0648
1009.80 0.06478
1009.90 0.06475
1010.00 0.06473
1010.10 0.0647
1010.20 0.06468
1010.30 0.06465
1010.40 0.06463
1010.50 0.0646
1010.60 0.06458
1010.70 0.06455
1010.80 0.06453
1010.90 0.06451
1011.00 0.06448
1011.10 0.06446
1011.20 0.06443
1011.30 0.06441
1011.40 0.06438
1011.50 0.06436
1011.60 0.06433
1011.70 0.06431
1011.80 0.06428
1011.90 0.06426
1012.00 0.06423
1012.10 0.06421
1012.20 0.06418
1012.30 0.06416
1012.40 0.06413
1012.50 0.06411
1012.60 0.06408
1012.70 0.06406
1012.80 0.06403
1012.90 0.06401
1013.00 0.06399
1013.10 0.06396
1013.20 0.06394
1013.30 0.06391
1013.40 0.06389
1013.50 0.06386
1013.60 0.06384
1013.70 0.06381
1013.80 0.06379
1013.90 0.06376
1014.00 0.06374
1014.10 0.06372
1014.20 0.06369
1014.30 0.06367
1014.40 0.06364
1014.50 0.06362
1014.60 0.06359
1014.70 0.06357
1014.80 0.06355
1014.90 0.06352
1015.00 0.0635
1015.10 0.06347
1015.20 0.06345
1015.30 0.06342
1015.40 0.0634
1015.50 0.06338
1015.60 0.06335
1015.70 0.06333
1015.80 0.0633
1015.90 0.06328
1016.00 0.06325
1016.10 0.06323
1016.20 0.06321
1016.30 0.06318
1016.40 0.06316
1016.50 0.06313
1016.60 0.06311
1016.70 0.06309
1016.80 0.06306
1016.90 0.06304
1017.00 0.06301
1017.10 0.06299
1017.20 0.06297
1017.30 0.06294
1017.40 0.06292
1017.50 0.06289
1017.60 0.06287
1017.70 0.06285
1017.80 0.06282
1017.90 0.0628
1018.00 0.06277
1018.10 0.06275
1018.20 0.06273
1018.30 0.0627
1018.40 0.06268
1018.50 0.06265
1018.60 0.06263
1018.70 0.06261
1018.80 0.06258
1018.90 0.06256
1019.00 0.06254
1019.10 0.06251
1019.20 0.06249
1019.30 0.06246
1019.40 0.06244
1019.50 0.06242
1019.60 0.06239
1019.70 0.06237
1019.80 0.06235
1019.90 0.06232
1020.00 0.0623
1020.10 0.06227
1020.20 0.06225
1020.30 0.06223
1020.40 0.0622
1020.50 0.06218
1020.60 0.06216
1020.70 0.06213
1020.80 0.06211
1020.90 0.06208
1021.00 0.06206
1021.10 0.06204
1021.20 0.06201
1021.30 0.06199
1021.40 0.06197
1021.50 0.06194
1021.60 0.06192
1021.70 0.0619
1021.80 0.06187
1021.90 0.06185
1022.00 0.06183
1022.10 0.0618
1022.20 0.06178
1022.30 0.06176
1022.40 0.06173
1022.50 0.06171
1022.60 0.06169
1022.70 0.06166
1022.80 0.06164
1022.90 0.06162
1023.00 0.06159
1023.10 0.06157
1023.20 0.06155
1023.30 0.06152
1023.40 0.0615
1023.50 0.06148
1023.60 0.06145
1023.70 0.06143
1023.80 0.06141
1023.90 0.06138
1024.00 0.06136
1024.10 0.06134
1024.20 0.06131
1024.30 0.06129
1024.40 0.06127
1024.50 0.06124
1024.60 0.06122
1024.70 0.0612
1024.80 0.06117
1024.90 0.06115
1025.00 0.06113
1025.10 0.0611
1025.20 0.06108
1025.30 0.06106
1025.40 0.06103
1025.50 0.06101
1025.60 0.06099
1025.70 0.06096
1025.80 0.06094
1025.90 0.06092
1026.00 0.06089
1026.10 0.06087
1026.20 0.06085
1026.30 0.06083
1026.40 0.0608
1026.50 0.06078
1026.60 0.06076
1026.70 0.06073
1026.80 0.06071
1026.90 0.06069
1027.00 0.06066
1027.10 0.06064
1027.20 0.06062
1027.30 0.0606
1027.40 0.06057
1027.50 0.06055
1027.60 0.06053
1027.70 0.0605
1027.80 0.06048
1027.90 0.06046
1028.00 0.06044
1028.10 0.06041
1028.20 0.06039
1028.30 0.06037
1028.40 0.06034
1028.50 0.06032
1028.60 0.0603
1028.70 0.06028
1028.80 0.06025
1028.90 0.06023
1029.00 0.06021
1029.10 0.06018
1029.20 0.06016
1029.30 0.06014
1029.40 0.06012
1029.50 0.06009
1029.60 0.06007
1029.70 0.06005
1029.80 0.06003
1029.90 0.06
1030.00 0.05998
1030.10 0.05996
1030.20 0.05993
1030.30 0.05991
1030.40 0.05989
1030.50 0.05987
1030.60 0.05984
1030.70 0.05982
1030.80 0.0598
1030.90 0.05978
1031.00 0.05975
1031.10 0.05973
1031.20 0.05971
1031.30 0.05969
1031.40 0.05966
1031.50 0.05964
1031.60 0.05962
1031.70 0.0596
1031.80 0.05957
1031.90 0.05955
1032.00 0.05953
1032.10 0.05951
1032.20 0.05948
1032.30 0.05946
1032.40 0.05944
1032.50 0.05942
1032.60 0.05939
1032.70 0.05937
1032.80 0.05935
1032.90 0.05933
1033.00 0.0593
1033.10 0.05928
1033.20 0.05926
1033.30 0.05924
1033.40 0.05921
1033.50 0.05919
1033.60 0.05917
1033.70 0.05915
1033.80 0.05913
1033.90 0.0591
1034.00 0.05908
1034.10 0.05906
1034.20 0.05904
1034.30 0.05901
1034.40 0.05899
1034.50 0.05897
1034.60 0.05895
1034.70 0.05892
1034.80 0.0589
1034.90 0.05888
1035.00 0.05886
1035.10 0.05884
1035.20 0.05881
1035.30 0.05879
1035.40 0.05877
1035.50 0.05875
1035.60 0.05872
1035.70 0.0587
1035.80 0.05868
1035.90 0.05866
1036.00 0.05864
1036.10 0.05861
1036.20 0.05859
1036.30 0.05857
1036.40 0.05855
1036.50 0.05853
1036.60 0.0585
1036.70 0.05848
1036.80 0.05846
1036.90 0.05844
1037.00 0.05841
1037.10 0.05839
1037.20 0.05837
1037.30 0.05835
1037.40 0.05833
1037.50 0.0583
1037.60 0.05828
1037.70 0.05826
1037.80 0.05824
1037.90 0.05822
1038.00 0.0582
1038.10 0.05817
1038.20 0.05815
1038.30 0.05813
1038.40 0.05811
1038.50 0.05809
1038.60 0.05806
1038.70 0.05804
1038.80 0.05802
1038.90 0.058
1039.00 0.05798
1039.10 0.05795
1039.20 0.05793
1039.30 0.05791
1039.40 0.05789
1039.50 0.05787
1039.60 0.05785
1039.70 0.05782
1039.80 0.0578
1039.90 0.05778
1040.00 0.05776
1040.10 0.05774
1040.20 0.05771
1040.30 0.05769
1040.40 0.05767
1040.50 0.05765
1040.60 0.05763
1040.70 0.05761
1040.80 0.05758
1040.90 0.05756
1041.00 0.05754
1041.10 0.05752
1041.20 0.0575
1041.30 0.05748
1041.40 0.05745
1041.50 0.05743
1041.60 0.05741
1041.70 0.05739
1041.80 0.05737
1041.90 0.05735
1042.00 0.05732
1042.10 0.0573
1042.20 0.05728
1042.30 0.05726
1042.40 0.05724
1042.50 0.05722
1042.60 0.0572
1042.70 0.05717
1042.80 0.05715
1042.90 0.05713
1043.00 0.05711
1043.10 0.05709
1043.20 0.05707
1043.30 0.05705
1043.40 0.05702
1043.50 0.057
1043.60 0.05698
1043.70 0.05696
1043.80 0.05694
1043.90 0.05692
1044.00 0.0569
1044.10 0.05687
1044.20 0.05685
1044.30 0.05683
1044.40 0.05681
1044.50 0.05679
1044.60 0.05677
1044.70 0.05675
1044.80 0.05672
1044.90 0.0567
1045.00 0.05668
1045.10 0.05666
1045.20 0.05664
1045.30 0.05662
1045.40 0.0566
1045.50 0.05658
1045.60 0.05655
1045.70 0.05653
1045.80 0.05651
1045.90 0.05649
1046.00 0.05647
1046.10 0.05645
1046.20 0.05643
1046.30 0.05641
1046.40 0.05638
1046.50 0.05636
1046.60 0.05634
1046.70 0.05632
1046.80 0.0563
1046.90 0.05628
1047.00 0.05626
1047.10 0.05624
1047.20 0.05621
1047.30 0.05619
1047.40 0.05617
1047.50 0.05615
1047.60 0.05613
1047.70 0.05611
1047.80 0.05609
1047.90 0.05607
1048.00 0.05605
1048.10 0.05602
1048.20 0.056
1048.30 0.05598
1048.40 0.05596
1048.50 0.05594
1048.60 0.05592
1048.70 0.0559
1048.80 0.05588
1048.90 0.05586
1049.00 0.05584
1049.10 0.05581
1049.20 0.05579
1049.30 0.05577
1049.40 0.05575
1049.50 0.05573
1049.60 0.05571
1049.70 0.05569
1049.80 0.05567
1049.90 0.05565
1050.00 0.05563
1050.10 0.05561
1050.20 0.05558
1050.30 0.05556
1050.40 0.05554
1050.50 0.05552
1050.60 0.0555
1050.70 0.05548
1050.80 0.05546
1050.90 0.05544
1051.00 0.05542
1051.10 0.0554
1051.20 0.05538
1051.30 0.05536
1051.40 0.05533
1051.50 0.05531
1051.60 0.05529
1051.70 0.05527
1051.80 0.05525
1051.90 0.05523
1052.00 0.05521
1052.10 0.05519
1052.20 0.05517
1052.30 0.05515
1052.40 0.05513
1052.50 0.05511
1052.60 0.05509
1052.70 0.05507
1052.80 0.05504
1052.90 0.05502
1053.00 0.055
1053.10 0.05498
1053.20 0.05496
1053.30 0.05494
1053.40 0.05492
1053.50 0.0549
1053.60 0.05488
1053.70 0.05486
1053.80 0.05484
1053.90 0.05482
1054.00 0.0548
1054.10 0.05478
1054.20 0.05476
1054.30 0.05474
1054.40 0.05472
1054.50 0.0547
1054.60 0.05467
1054.70 0.05465
1054.80 0.05463
1054.90 0.05461
1055.00 0.05459
1055.10 0.05457
1055.20 0.05455
1055.30 0.05453
1055.40 0.05451
1055.50 0.05449
1055.60 0.05447
1055.70 0.05445
1055.80 0.05443
1055.90 0.05441
1056.00 0.05439
1056.10 0.05437
1056.20 0.05435
1056.30 0.05433
1056.40 0.05431
1056.50 0.05429
1056.60 0.05427
1056.70 0.05425
1056.80 0.05422
1056.90 0.0542
1057.00 0.05418
1057.10 0.05416
1057.20 0.05414
1057.30 0.05412
1057.40 0.0541
1057.50 0.05408
1057.60 0.05406
1057.70 0.05404
1057.80 0.05402
1057.90 0.054
1058.00 0.05398
1058.10 0.05396
1058.20 0.05394
1058.30 0.05392
1058.40 0.0539
1058.50 0.05388
1058.60 0.05386
1058.70 0.05384
1058.80 0.05382
1058.90 0.0538
1059.00 0.05378
1059.10 0.05376
1059.20 0.05374
1059.30 0.05372
1059.40 0.0537
1059.50 0.05368
1059.60 0.05366
1059.70 0.05364
1059.80 0.05362
1059.90 0.0536
1060.00 0.05358
1060.10 0.05356
1060.20 0.05354
1060.30 0.05352
1060.40 0.0535
1060.50 0.05348
1060.60 0.05346
1060.70 0.05344
1060.80 0.05342
1060.90 0.0534
1061.00 0.05338
1061.10 0.05336
1061.20 0.05334
1061.30 0.05332
1061.40 0.0533
1061.50 0.05328
1061.60 0.05326
1061.70 0.05324
1061.80 0.05322
1061.90 0.0532
1062.00 0.05318
1062.10 0.05316
1062.20 0.05314
1062.30 0.05312
1062.40 0.0531
1062.50 0.05308
1062.60 0.05306
1062.70 0.05304
1062.80 0.05302
1062.90 0.053
1063.00 0.05298
1063.10 0.05296
1063.20 0.05294
1063.30 0.05292
1063.40 0.0529
1063.50 0.05288
1063.60 0.05286
1063.70 0.05284
1063.80 0.05282
1063.90 0.0528
1064.00 0.05278
1064.10 0.05276
1064.20 0.05274
1064.30 0.05272
1064.40 0.0527
1064.50 0.05268
1064.60 0.05266
1064.70 0.05264
1064.80 0.05262
1064.90 0.0526
1065.00 0.05258
1065.10 0.05256
1065.20 0.05254
1065.30 0.05252
1065.40 0.0525
1065.50 0.05248
1065.60 0.05246
1065.70 0.05245
1065.80 0.05243
1065.90 0.05241
1066.00 0.05239
1066.10 0.05237
1066.20 0.05235
1066.30 0.05233
1066.40 0.05231
1066.50 0.05229
1066.60 0.05227
1066.70 0.05225
1066.80 0.05223
1066.90 0.05221
1067.00 0.05219
1067.10 0.05217
1067.20 0.05215
1067.30 0.05213
1067.40 0.05211
1067.50 0.05209
1067.60 0.05207
1067.70 0.05205
1067.80 0.05203
1067.90 0.05201
1068.00 0.05199
1068.10 0.05198
1068.20 0.05196
1068.30 0.05194
1068.40 0.05192
1068.50 0.0519
1068.60 0.05188
1068.70 0.05186
1068.80 0.05184
1068.90 0.05182
1069.00 0.0518
1069.10 0.05178
1069.20 0.05176
1069.30 0.05174
1069.40 0.05172
1069.50 0.0517
1069.60 0.05168
1069.70 0.05166
1069.80 0.05165
1069.90 0.05163
1070.00 0.05161
1070.10 0.05159
1070.20 0.05157
1070.30 0.05155
1070.40 0.05153
1070.50 0.05151
1070.60 0.05149
1070.70 0.05147
1070.80 0.05145
1070.90 0.05143
1071.00 0.05141
1071.10 0.05139
1071.20 0.05137
1071.30 0.05136
1071.40 0.05134
1071.50 0.05132
1071.60 0.0513
1071.70 0.05128
1071.80 0.05126
1071.90 0.05124
1072.00 0.05122
1072.10 0.0512
1072.20 0.05118
1072.30 0.05116
1072.40 0.05114
1072.50 0.05112
1072.60 0.05111
1072.70 0.05109
1072.80 0.05107
1072.90 0.05105
1073.00 0.05103
1073.10 0.05101
1073.20 0.05099
1073.30 0.05097
1073.40 0.05095
1073.50 0.05093
1073.60 0.05091
1073.70 0.05089
1073.80 0.05088
1073.90 0.05086
1074.00 0.05084
1074.10 0.05082
1074.20 0.0508
1074.30 0.05078
1074.40 0.05076
1074.50 0.05074
1074.60 0.05072
1074.70 0.0507
1074.80 0.05068
1074.90 0.05067
1075.00 0.05065
1075.10 0.05063
1075.20 0.05061
1075.30 0.05059
1075.40 0.05057
1075.50 0.05055
1075.60 0.05053
1075.70 0.05051
1075.80 0.0505
1075.90 0.05048
1076.00 0.05046
1076.10 0.05044
1076.20 0.05042
1076.30 0.0504
1076.40 0.05038
1076.50 0.05036
1076.60 0.05034
1076.70 0.05032
1076.80 0.05031
1076.90 0.05029
1077.00 0.05027
1077.10 0.05025
1077.20 0.05023
1077.30 0.05021
1077.40 0.05019
1077.50 0.05017
1077.60 0.05015
1077.70 0.05014
1077.80 0.05012
1077.90 0.0501
1078.00 0.05008
1078.10 0.05006
1078.20 0.05004
1078.30 0.05002
1078.40 0.05
1078.50 0.04999
1078.60 0.04997
1078.70 0.04995
1078.80 0.04993
1078.90 0.04991
1079.00 0.04989
1079.10 0.04987
1079.20 0.04985
1079.30 0.04984
1079.40 0.04982
1079.50 0.0498
1079.60 0.04978
1079.70 0.04976
1079.80 0.04974
1079.90 0.04972
1080.00 0.04971
1080.10 0.04969
1080.20 0.04967
1080.30 0.04965
1080.40 0.04963
1080.50 0.04961
1080.60 0.04959
1080.70 0.04958
1080.80 0.04956
1080.90 0.04954
1081.00 0.04952
1081.10 0.0495
1081.20 0.04948
1081.30 0.04946
1081.40 0.04945
1081.50 0.04943
1081.60 0.04941
1081.70 0.04939
1081.80 0.04937
1081.90 0.04935
1082.00 0.04933
1082.10 0.04932
1082.20 0.0493
1082.30 0.04928
1082.40 0.04926
1082.50 0.04924
1082.60 0.04922
1082.70 0.04921
1082.80 0.04919
1082.90 0.04917
1083.00 0.04915
1083.10 0.04913
1083.20 0.04911
1083.30 0.04909
1083.40 0.04908
1083.50 0.04906
1083.60 0.04904
1083.70 0.04902
1083.80 0.049
1083.90 0.04898
1084.00 0.04897
1084.10 0.04895
1084.20 0.04893
1084.30 0.04891
1084.40 0.04889
1084.50 0.04888
1084.60 0.04886
1084.70 0.04884
1084.80 0.04882
1084.90 0.0488
1085.00 0.04878
1085.10 0.04877
1085.20 0.04875
1085.30 0.04873
1085.40 0.04871
1085.50 0.04869
1085.60 0.04868
1085.70 0.04866
1085.80 0.04864
1085.90 0.04862
1086.00 0.0486
1086.10 0.04858
1086.20 0.04857
1086.30 0.04855
1086.40 0.04853
1086.50 0.04851
1086.60 0.04849
1086.70 0.04848
1086.80 0.04846
1086.90 0.04844
1087.00 0.04842
1087.10 0.0484
1087.20 0.04839
1087.30 0.04837
1087.40 0.04835
1087.50 0.04833
1087.60 0.04831
1087.70 0.0483
1087.80 0.04828
1087.90 0.04826
1088.00 0.04824
1088.10 0.04822
1088.20 0.04821
1088.30 0.04819
1088.40 0.04817
1088.50 0.04815
1088.60 0.04814
1088.70 0.04812
1088.80 0.0481
1088.90 0.04808
1089.00 0.04806
1089.10 0.04805
1089.20 0.04803
1089.30 0.04801
1089.40 0.04799
1089.50 0.04798
1089.60 0.04796
1089.70 0.04794
1089.80 0.04792
1089.90 0.0479
1090.00 0.04789
1090.10 0.04787
1090.20 0.04785
1090.30 0.04783
1090.40 0.04782
1090.50 0.0478
1090.60 0.04778
1090.70 0.04776
1090.80 0.04775
1090.90 0.04773
1091.00 0.04771
1091.10 0.04769
1091.20 0.04768
1091.30 0.04766
1091.40 0.04764
1091.50 0.04762
1091.60 0.04761
1091.70 0.04759
1091.80 0.04757
1091.90 0.04755
1092.00 0.04754
1092.10 0.04752
1092.20 0.0475
1092.30 0.04749
1092.40 0.04747
1092.50 0.04745
1092.60 0.04743
1092.70 0.04742
1092.80 0.0474
1092.90 0.04738
1093.00 0.04737
1093.10 0.04735
1093.20 0.04734
1093.30 0.04732
1093.40 0.04731
1093.50 0.04729
1093.60 0.04728
1093.70 0.04726
1093.80 0.04725
1093.90 0.04723
1094.00 0.04722
1094.10 0.0472
1094.20 0.04718
1094.30 0.04717
1094.40 0.04715
1094.50 0.04713
1094.60 0.04711
1094.70 0.0471
1094.80 0.04708
1094.90 0.04706
1095.00 0.04704
1095.10 0.04703
1095.20 0.04701
1095.30 0.04699
1095.40 0.04698
1095.50 0.04696
1095.60 0.04694
1095.70 0.04693
1095.80 0.04691
1095.90 0.0469
1096.00 0.04688
1096.10 0.04686
1096.20 0.04685
1096.30 0.04683
1096.40 0.04681
1096.50 0.0468
1096.60 0.04678
1096.70 0.04676
1096.80 0.04675
1096.90 0.04673
1097.00 0.04672
1097.10 0.0467
1097.20 0.04668
1097.30 0.04667
1097.40 0.04665
1097.50 0.04664
1097.60 0.04662
1097.70 0.0466
1097.80 0.04659
1097.90 0.04657
1098.00 0.04655
1098.10 0.04654
1098.20 0.04652
1098.30 0.04651
1098.40 0.04649
1098.50 0.04647
1098.60 0.04646
1098.70 0.04644
1098.80 0.04643
1098.90 0.04641
1099.00 0.04639
1099.10 0.04638
1099.20 0.04636
1099.30 0.04635
1099.40 0.04633
1099.50 0.04631
1099.60 0.0463
1099.70 0.04628
1099.80 0.04627
1099.90 0.04625
1100.00 0.04623
1100.10 0.04622
1100.20 0.0462
1100.30 0.04619
1100.40 0.04617
1100.50 0.04616
1100.60 0.04614
1100.70 0.04612
1100.80 0.04611
1100.90 0.04609
1101.00 0.04608
1101.10 0.04606
1101.20 0.04604
1101.30 0.04603
1101.40 0.04601
1101.50 0.046
1101.60 0.04598
1101.70 0.04597
1101.80 0.04595
1101.90 0.04593
1102.00 0.04592
1102.10 0.0459
1102.20 0.04589
1102.30 0.04587
1102.40 0.04586
1102.50 0.04584
1102.60 0.04582
1102.70 0.04581
1102.80 0.04579
1102.90 0.04578
1103.00 0.04576
1103.10 0.04575
1103.20 0.04573
1103.30 0.04571
1103.40 0.0457
1103.50 0.04568
1103.60 0.04567
1103.70 0.04565
1103.80 0.04564
1103.90 0.04562
1104.00 0.04561
1104.10 0.04559
1104.20 0.04557
1104.30 0.04556
1104.40 0.04554
1104.50 0.04553
1104.60 0.04551
1104.70 0.0455
1104.80 0.04548
1104.90 0.04547
1105.00 0.04545
1105.10 0.04543
1105.20 0.04542
1105.30 0.0454
1105.40 0.04539
1105.50 0.04537
1105.60 0.04536
1105.70 0.04534
1105.80 0.04533
1105.90 0.04531
1106.00 0.04529
1106.10 0.04528
1106.20 0.04526
1106.30 0.04525
1106.40 0.04523
1106.50 0.04522
1106.60 0.0452
1106.70 0.04519
1106.80 0.04517
1106.90 0.04516
1107.00 0.04514
1107.10 0.04513
1107.20 0.04511
1107.30 0.04509
1107.40 0.04508
1107.50 0.04506
1107.60 0.04505
1107.70 0.04503
1107.80 0.04502
1107.90 0.045
1108.00 0.04499
1108.10 0.04497
1108.20 0.04496
1108.30 0.04494
1108.40 0.04493
1108.50 0.04491
1108.60 0.0449
1108.70 0.04488
1108.80 0.04486
1108.90 0.04485
1109.00 0.04483
1109.10 0.04482
1109.20 0.0448
1109.30 0.04479
1109.40 0.04477
1109.50 0.04476
1109.60 0.04474
1109.70 0.04473
1109.80 0.04471
1109.90 0.0447
1110.00 0.04468
1110.10 0.04467
1110.20 0.04465
1110.30 0.04464
1110.40 0.04462
1110.50 0.0446
1110.60 0.04459
1110.70 0.04457
1110.80 0.04456
1110.90 0.04454
1111.00 0.04453
1111.10 0.04451
1111.20 0.0445
1111.30 0.04448
1111.40 0.04447
1111.50 0.04445
1111.60 0.04444
1111.70 0.04442
1111.80 0.04441
1111.90 0.04439
1112.00 0.04438
1112.10 0.04436
1112.20 0.04435
1112.30 0.04433
1112.40 0.04432
1112.50 0.0443
1112.60 0.04429
1112.70 0.04427
1112.80 0.04426
1112.90 0.04424
1113.00 0.04423
1113.10 0.04421
1113.20 0.0442
1113.30 0.04418
1113.40 0.04417
1113.50 0.04415
1113.60 0.04414
1113.70 0.04412
1113.80 0.04411
1113.90 0.04409
1114.00 0.04408
1114.10 0.04406
1114.20 0.04405
1114.30 0.04403
1114.40 0.04402
1114.50 0.044
1114.60 0.04398
1114.70 0.04397
1114.80 0.04395
1114.90 0.04394
1115.00 0.04392
1115.10 0.04391
1115.20 0.04389
1115.30 0.04388
1115.40 0.04386
1115.50 0.04385
1115.60 0.04384
1115.70 0.04382
1115.80 0.04381
1115.90 0.04379
1116.00 0.04378
1116.10 0.04376
1116.20 0.04375
1116.30 0.04373
1116.40 0.04372
1116.50 0.0437
1116.60 0.04369
1116.70 0.04367
1116.80 0.04366
1116.90 0.04364
1117.00 0.04363
1117.10 0.04361
1117.20 0.0436
1117.30 0.04358
1117.40 0.04357
1117.50 0.04355
1117.60 0.04354
1117.70 0.04352
1117.80 0.04351
1117.90 0.04349
1118.00 0.04348
1118.10 0.04346
1118.20 0.04345
1118.30 0.04343
1118.40 0.04342
1118.50 0.0434
1118.60 0.04339
1118.70 0.04337
1118.80 0.04336
1118.90 0.04334
1119.00 0.04333
1119.10 0.04331
1119.20 0.0433
1119.30 0.04328
1119.40 0.04327
1119.50 0.04325
1119.60 0.04324
1119.70 0.04322
1119.80 0.04321
1119.90 0.0432
1120.00 0.04318
1120.10 0.04317
1120.20 0.04315
1120.30 0.04314
1120.40 0.04312
1120.50 0.04311
1120.60 0.04309
1120.70 0.04308
1120.80 0.04306
1120.90 0.04305
1121.00 0.04303
1121.10 0.04302
1121.20 0.043
1121.30 0.04299
1121.40 0.04297
1121.50 0.04296
1121.60 0.04294
1121.70 0.04293
1121.80 0.04292
1121.90 0.0429
1122.00 0.04289
1122.10 0.04287
1122.20 0.04286
1122.30 0.04284
1122.40 0.04283
1122.50 0.04281
1122.60 0.0428
1122.70 0.04278
1122.80 0.04277
1122.90 0.04275
1123.00 0.04274
1123.10 0.04272
1123.20 0.04271
1123.30 0.0427
1123.40 0.04268
1123.50 0.04267
1123.60 0.04265
1123.70 0.04264
1123.80 0.04262
1123.90 0.04261
1124.00 0.04259
1124.10 0.04258
1124.20 0.04256
1124.30 0.04255
1124.40 0.04253
1124.50 0.04252
1124.60 0.04251
1124.70 0.04249
1124.80 0.04248
1124.90 0.04246
1125.00 0.04245
1125.10 0.04243
1125.20 0.04242
1125.30 0.0424
1125.40 0.04239
1125.50 0.04237
1125.60 0.04236
1125.70 0.04235
1125.80 0.04233
1125.90 0.04232
1126.00 0.0423
1126.10 0.04229
1126.20 0.04227
1126.30 0.04226
1126.40 0.04224
1126.50 0.04223
1126.60 0.04222
1126.70 0.0422
1126.80 0.04219
1126.90 0.04217
1127.00 0.04216
1127.10 0.04214
1127.20 0.04213
1127.30 0.04211
1127.40 0.0421
1127.50 0.04209
1127.60 0.04207
1127.70 0.04206
1127.80 0.04204
1127.90 0.04203
1128.00 0.04201
1128.10 0.042
1128.20 0.04198
1128.30 0.04197
1128.40 0.04196
1128.50 0.04194
1128.60 0.04193
1128.70 0.04191
1128.80 0.0419
1128.90 0.04188
1129.00 0.04187
1129.10 0.04186
1129.20 0.04184
1129.30 0.04183
1129.40 0.04181
1129.50 0.0418
1129.60 0.04178
1129.70 0.04177
1129.80 0.04176
1129.90 0.04174
1130.00 0.04173
1130.10 0.04171
1130.20 0.0417
1130.30 0.04168
1130.40 0.04167
1130.50 0.04166
1130.60 0.04164
1130.70 0.04163
1130.80 0.04161
1130.90 0.0416
1131.00 0.04158
1131.10 0.04157
1131.20 0.04156
1131.30 0.04154
1131.40 0.04153
1131.50 0.04151
1131.60 0.0415
1131.70 0.04148
1131.80 0.04147
1131.90 0.04146
1132.00 0.04144
1132.10 0.04143
1132.20 0.04141
1132.30 0.0414
1132.40 0.04138
1132.50 0.04137
1132.60 0.04136
1132.70 0.04134
1132.80 0.04133
1132.90 0.04131
1133.00 0.0413
1133.10 0.04129
1133.20 0.04127
1133.30 0.04126
1133.40 0.04124
1133.50 0.04123
1133.60 0.04122
1133.70 0.0412
1133.80 0.04119
1133.90 0.04117
1134.00 0.04116
1134.10 0.04114
1134.20 0.04113
1134.30 0.04112
1134.40 0.0411
1134.50 0.04109
1134.60 0.04107
1134.70 0.04106
1134.80 0.04105
1134.90 0.04103
1135.00 0.04102
1135.10 0.041
1135.20 0.04099
1135.30 0.04098
1135.40 0.04096
1135.50 0.04095
1135.60 0.04093
1135.70 0.04092
1135.80 0.04091
1135.90 0.04089
1136.00 0.04088
1136.10 0.04086
1136.20 0.04085
1136.30 0.04084
1136.40 0.04082
1136.50 0.04081
1136.60 0.04079
1136.70 0.04078
1136.80 0.04077
1136.90 0.04075
1137.00 0.04074
1137.10 0.04072
1137.20 0.04071
1137.30 0.0407
1137.40 0.04068
1137.50 0.04067
1137.60 0.04065
1137.70 0.04064
1137.80 0.04063
1137.90 0.04061
1138.00 0.0406
1138.10 0.04059
1138.20 0.04057
1138.30 0.04056
1138.40 0.04054
1138.50 0.04053
1138.60 0.04052
1138.70 0.0405
1138.80 0.04049
1138.90 0.04047
1139.00 0.04046
1139.10 0.04045
1139.20 0.04043
1139.30 0.04042
1139.40 0.04041
1139.50 0.04039
1139.60 0.04038
1139.70 0.04036
1139.80 0.04035
1139.90 0.04034
1140.00 0.04032
1140.10 0.04031
1140.20 0.04029
1140.30 0.04028
1140.40 0.04027
1140.50 0.04025
1140.60 0.04024
1140.70 0.04023
1140.80 0.04021
1140.90 0.0402
1141.00 0.04018
1141.10 0.04017
1141.20 0.04016
1141.30 0.04014
1141.40 0.04013
1141.50 0.04012
1141.60 0.0401
1141.70 0.04009
1141.80 0.04007
1141.90 0.04006
1142.00 0.04005
1142.10 0.04003
1142.20 0.04002
1142.30 0.04001
1142.40 0.03999
1142.50 0.03998
1142.60 0.03997
1142.70 0.03995
1142.80 0.03994
1142.90 0.03992
1143.00 0.03991
1143.10 0.0399
1143.20 0.03988
1143.30 0.03987
1143.40 0.03986
1143.50 0.03984
1143.60 0.03983
1143.70 0.03982
1143.80 0.0398
1143.90 0.03979
1144.00 0.03978
1144.10 0.03976
1144.20 0.03975
1144.30 0.03973
1144.40 0.03972
1144.50 0.03971
1144.60 0.03969
1144.70 0.03968
1144.80 0.03967
1144.90 0.03965
1145.00 0.03964
1145.10 0.03963
1145.20 0.03961
1145.30 0.0396
1145.40 0.03959
1145.50 0.03957
1145.60 0.03956
1145.70 0.03955
1145.80 0.03953
1145.90 0.03952
1146.00 0.0395
1146.10 0.03949
1146.20 0.03948
1146.30 0.03946
1146.40 0.03945
1146.50 0.03944
1146.60 0.03942
1146.70 0.03941
1146.80 0.0394
1146.90 0.03938
1147.00 0.03937
1147.10 0.03936
1147.20 0.03934
1147.30 0.03933
1147.40 0.03932
1147.50 0.0393
1147.60 0.03929
1147.70 0.03928
1147.80 0.03926
1147.90 0.03925
1148.00 0.03924
1148.10 0.03922
1148.20 0.03921
1148.30 0.0392
1148.40 0.03918
1148.50 0.03917
1148.60 0.03916
1148.70 0.03914
1148.80 0.03913
1148.90 0.03912
1149.00 0.0391
1149.10 0.03909
1149.20 0.03908
1149.30 0.03906
1149.40 0.03905
1149.50 0.03904
1149.60 0.03902
1149.70 0.03901
1149.80 0.039
1149.90 0.03898
1150.00 0.03897
1150.10 0.03896
1150.20 0.03894
1150.30 0.03893
1150.40 0.03892
1150.50 0.0389
1150.60 0.03889
1150.70 0.03888
1150.80 0.03886
1150.90 0.03885
1151.00 0.03884
1151.10 0.03882
1151.20 0.03881
1151.30 0.0388
1151.40 0.03879
1151.50 0.03877
1151.60 0.03876
1151.70 0.03875
1151.80 0.03873
1151.90 0.03872
1152.00 0.03871
1152.10 0.03869
1152.20 0.03868
1152.30 0.03867
1152.40 0.03865
1152.50 0.03864
1152.60 0.03863
1152.70 0.03861
1152.80 0.0386
1152.90 0.03859
1153.00 0.03858
1153.10 0.03856
1153.20 0.03855
1153.30 0.03854
1153.40 0.03852
1153.50 0.03851
1153.60 0.0385
1153.70 0.03848
1153.80 0.03847
1153.90 0.03846
1154.00 0.03844
1154.10 0.03843
1154.20 0.03842
1154.30 0.03841
1154.40 0.03839
1154.50 0.03838
1154.60 0.03837
1154.70 0.03835
1154.80 0.03834
1154.90 0.03833
1155.00 0.03831
1155.10 0.0383
1155.20 0.03829
1155.30 0.03828
1155.40 0.03826
1155.50 0.03825
1155.60 0.03824
1155.70 0.03822
1155.80 0.03821
1155.90 0.0382
1156.00 0.03818
1156.10 0.03817
1156.20 0.03816
1156.30 0.03815
1156.40 0.03813
1156.50 0.03812
1156.60 0.03811
1156.70 0.03809
1156.80 0.03808
1156.90 0.03807
1157.00 0.03806
1157.10 0.03804
1157.20 0.03803
1157.30 0.03802
1157.40 0.038
1157.50 0.03799
1157.60 0.03798
1157.70 0.03797
1157.80 0.03795
1157.90 0.03794
1158.00 0.03793
1158.10 0.03791
1158.20 0.0379
1158.30 0.03789
1158.40 0.03788
1158.50 0.03786
1158.60 0.03785
1158.70 0.03784
1158.80 0.03782
1158.90 0.03781
1159.00 0.0378
1159.10 0.03779
1159.20 0.03777
1159.30 0.03776
1159.40 0.03775
1159.50 0.03773
1159.60 0.03772
1159.70 0.03771
1159.80 0.0377
1159.90 0.03768
1160.00 0.03767
1160.10 0.03766
1160.20 0.03765
1160.30 0.03763
1160.40 0.03762
1160.50 0.03761
1160.60 0.03759
1160.70 0.03758
1160.80 0.03757
1160.90 0.03756
1161.00 0.03754
1161.10 0.03753
1161.20 0.03752
1161.30 0.03751
1161.40 0.03749
1161.50 0.03748
1161.60 0.03747
1161.70 0.03745
1161.80 0.03744
1161.90 0.03743
1162.00 0.03742
1162.10 0.0374
1162.20 0.03739
1162.30 0.03738
1162.40 0.03737
1162.50 0.03735
1162.60 0.03734
1162.70 0.03733
1162.80 0.03732
1162.90 0.0373
1163.00 0.03729
1163.10 0.03728
1163.20 0.03727
1163.30 0.03725
1163.40 0.03724
1163.50 0.03723
1163.60 0.03722
1163.70 0.0372
1163.80 0.03719
1163.90 0.03718
1164.00 0.03717
1164.10 0.03715
1164.20 0.03714
1164.30 0.03713
1164.40 0.03712
1164.50 0.0371
1164.60 0.03709
1164.70 0.03708
1164.80 0.03707
1164.90 0.03705
1165.00 0.03704
1165.10 0.03703
1165.20 0.03702
1165.30 0.037
1165.40 0.03699
1165.50 0.03698
1165.60 0.03697
1165.70 0.03695
1165.80 0.03694
1165.90 0.03693
1166.00 0.03692
1166.10 0.0369
1166.20 0.03689
1166.30 0.03688
1166.40 0.03687
1166.50 0.03685
1166.60 0.03684
1166.70 0.03683
1166.80 0.03682
1166.90 0.0368
1167.00 0.03679
1167.10 0.03678
1167.20 0.03677
1167.30 0.03675
1167.40 0.03674
1167.50 0.03673
1167.60 0.03672
1167.70 0.03671
1167.80 0.03669
1167.90 0.03668
1168.00 0.03667
1168.10 0.03666
1168.20 0.03664
1168.30 0.03663
1168.40 0.03662
1168.50 0.03661
1168.60 0.03659
1168.70 0.03658
1168.80 0.03657
1168.90 0.03656
1169.00 0.03655
1169.10 0.03653
1169.20 0.03652
1169.30 0.03651
1169.40 0.0365
1169.50 0.03648
1169.60 0.03647
1169.70 0.03646
1169.80 0.03645
1169.90 0.03644
1170.00 0.03642
1170.10 0.03641
1170.20 0.0364
1170.30 0.03639
1170.40 0.03637
1170.50 0.03636
1170.60 0.03635
1170.70 0.03634
1170.80 0.03633
1170.90 0.03631
1171.00 0.0363
1171.10 0.03629
1171.20 0.03628
1171.30 0.03626
1171.40 0.03625
1171.50 0.03624
1171.60 0.03623
1171.70 0.03622
1171.80 0.0362
1171.90 0.03619
1172.00 0.03618
1172.10 0.03617
1172.20 0.03615
1172.30 0.03614
1172.40 0.03613
1172.50 0.03612
1172.60 0.03611
1172.70 0.03609
1172.80 0.03608
1172.90 0.03607
1173.00 0.03606
1173.10 0.03605
1173.20 0.03603
1173.30 0.03602
1173.40 0.03601
1173.50 0.036
1173.60 0.03599
1173.70 0.03597
1173.80 0.03596
1173.90 0.03595
1174.00 0.03594
1174.10 0.03593
1174.20 0.03591
1174.30 0.0359
1174.40 0.03589
1174.50 0.03588
1174.60 0.03587
1174.70 0.03585
1174.80 0.03584
1174.90 0.03583
1175.00 0.03582
1175.10 0.03581
1175.20 0.03579
1175.30 0.03578
1175.40 0.03577
1175.50 0.03576
1175.60 0.03575
1175.70 0.03573
1175.80 0.03572
1175.90 0.03571
1176.00 0.0357
1176.10 0.03569
1176.20 0.03567
1176.30 0.03566
1176.40 0.03565
1176.50 0.03564
1176.60 0.03563
1176.70 0.03561
1176.80 0.0356
1176.90 0.03559
1177.00 0.03558
1177.10 0.03557
1177.20 0.03555
1177.30 0.03554
1177.40 0.03553
1177.50 0.03552
1177.60 0.03551
1177.70 0.0355
1177.80 0.03548
1177.90 0.03547
1178.00 0.03546
1178.10 0.03545
1178.20 0.03544
1178.30 0.03542
1178.40 0.03541
1178.50 0.0354
1178.60 0.03539
1178.70 0.03538
1178.80 0.03537
1178.90 0.03535
1179.00 0.03534
1179.10 0.03533
1179.20 0.03532
1179.30 0.03531
1179.40 0.03529
1179.50 0.03528
1179.60 0.03527
1179.70 0.03526
1179.80 0.03525
1179.90 0.03524
1180.00 0.03522
1180.10 0.03521
1180.20 0.0352
1180.30 0.03519
1180.40 0.03518
1180.50 0.03517
1180.60 0.03515
1180.70 0.03514
1180.80 0.03513
1180.90 0.03512
1181.00 0.03511
1181.10 0.0351
1181.20 0.03508
1181.30 0.03507
1181.40 0.03506
1181.50 0.03505
1181.60 0.03504
1181.70 0.03503
1181.80 0.03501
1181.90 0.035
1182.00 0.03499
1182.10 0.03498
1182.20 0.03497
1182.30 0.03496
1182.40 0.03494
1182.50 0.03493
1182.60 0.03492
1182.70 0.03491
1182.80 0.0349
1182.90 0.03489
1183.00 0.03487
1183.10 0.03486
1183.20 0.03485
1183.30 0.03484
1183.40 0.03483
1183.50 0.03482
1183.60 0.0348
1183.70 0.03479
1183.80 0.03478
1183.90 0.03477
1184.00 0.03476
1184.10 0.03475
1184.20 0.03474
1184.30 0.03472
1184.40 0.03471
1184.50 0.0347
1184.60 0.03469
1184.70 0.03468
1184.80 0.03467
1184.90 0.03465
1185.00 0.03464
1185.10 0.03463
1185.20 0.03462
1185.30 0.03461
1185.40 0.0346
1185.50 0.03459
1185.60 0.03457
1185.70 0.03456
1185.80 0.03455
1185.90 0.03454
1186.00 0.03453
1186.10 0.03452
1186.20 0.03451
1186.30 0.03449
1186.40 0.03448
1186.50 0.03447
1186.60 0.03446
1186.70 0.03445
1186.80 0.03444
1186.90 0.03443
1187.00 0.03441
1187.10 0.0344
1187.20 0.03439
1187.30 0.03438
1187.40 0.03437
1187.50 0.03436
1187.60 0.03435
1187.70 0.03433
1187.80 0.03432
1187.90 0.03431
1188.00 0.0343
1188.10 0.03429
1188.20 0.03428
1188.30 0.03427
1188.40 0.03425
1188.50 0.03424
1188.60 0.03423
1188.70 0.03422
1188.80 0.03421
1188.90 0.0342
1189.00 0.03419
1189.10 0.03418
1189.20 0.03416
1189.30 0.03415
1189.40 0.03414
1189.50 0.03413
1189.60 0.03412
1189.70 0.03411
1189.80 0.0341
1189.90 0.03408
1190.00 0.03407
1190.10 0.03406
1190.20 0.03405
1190.30 0.03404
1190.40 0.03403
1190.50 0.03402
1190.60 0.03401
1190.70 0.03399
1190.80 0.03398
1190.90 0.03397
1191.00 0.03396
1191.10 0.03395
1191.20 0.03394
1191.30 0.03393
1191.40 0.03392
1191.50 0.0339
1191.60 0.03389
1191.70 0.03388
1191.80 0.03387
1191.90 0.03386
1192.00 0.03385
1192.10 0.03384
1192.20 0.03383
1192.30 0.03382
1192.40 0.0338
1192.50 0.03379
1192.60 0.03378
1192.70 0.03377
1192.80 0.03376
1192.90 0.03375
1193.00 0.03374
1193.10 0.03373
1193.20 0.03371
1193.30 0.0337
1193.40 0.03369
1193.50 0.03368
1193.60 0.03367
1193.70 0.03366
1193.80 0.03365
1193.90 0.03364
1194.00 0.03363
1194.10 0.03362
1194.20 0.0336
1194.30 0.03359
1194.40 0.03358
1194.50 0.03357
1194.60 0.03356
1194.70 0.03355
1194.80 0.03354
1194.90 0.03353
1195.00 0.03352
1195.10 0.0335
1195.20 0.03349
1195.30 0.03348
1195.40 0.03347
1195.50 0.03346
1195.60 0.03345
1195.70 0.03344
1195.80 0.03343
1195.90 0.03342
1196.00 0.0334
1196.10 0.03339
1196.20 0.03338
1196.30 0.03337
1196.40 0.03336
1196.50 0.03335
1196.60 0.03334
1196.70 0.03333
1196.80 0.03332
1196.90 0.03331
1197.00 0.03329
1197.10 0.03328
1197.20 0.03327
1197.30 0.03326
1197.40 0.03325
1197.50 0.03324
1197.60 0.03323
1197.70 0.03322
1197.80 0.03321
1197.90 0.0332
1198.00 0.03319
1198.10 0.03317
1198.20 0.03316
1198.30 0.03315
1198.40 0.03314
1198.50 0.03313
1198.60 0.03312
1198.70 0.03311
1198.80 0.0331
1198.90 0.03309
1199.00 0.03308
1199.10 0.03307
1199.20 0.03305
1199.30 0.03304
1199.40 0.03303
1199.50 0.03302
1199.60 0.03301
1199.70 0.033
1199.80 0.03299
1199.90 0.03298
1200.00 0
