# Version 2.1 - nm, norm@500 to 1, cut digits, bergeron_16000_80.dat_16000
# Wavelength(nm)  Flambda(ergs/cm^s/s/nm)
300.00 2.48
300.10 2.478
300.20 2.476
300.30 2.474
300.40 2.472
300.50 2.47
300.60 2.468
300.70 2.466
300.80 2.464
300.90 2.462
301.00 2.46
301.10 2.458
301.20 2.456
301.30 2.454
301.40 2.452
301.50 2.45
301.60 2.448
301.70 2.446
301.80 2.444
301.90 2.442
302.00 2.44
302.10 2.438
302.20 2.436
302.30 2.434
302.40 2.432
302.50 2.43
302.60 2.428
302.70 2.426
302.80 2.424
302.90 2.422
303.00 2.42
303.10 2.418
303.20 2.416
303.30 2.414
303.40 2.412
303.50 2.41
303.60 2.408
303.70 2.406
303.80 2.404
303.90 2.402
304.00 2.4
304.10 2.398
304.20 2.396
304.30 2.394
304.40 2.392
304.50 2.39
304.60 2.388
304.70 2.387
304.80 2.385
304.90 2.383
305.00 2.381
305.10 2.379
305.20 2.377
305.30 2.375
305.40 2.373
305.50 2.371
305.60 2.369
305.70 2.367
305.80 2.365
305.90 2.363
306.00 2.361
306.10 2.359
306.20 2.357
306.30 2.356
306.40 2.354
306.50 2.352
306.60 2.35
306.70 2.348
306.80 2.346
306.90 2.344
307.00 2.342
307.10 2.34
307.20 2.338
307.30 2.336
307.40 2.335
307.50 2.333
307.60 2.331
307.70 2.329
307.80 2.327
307.90 2.325
308.00 2.323
308.10 2.321
308.20 2.319
308.30 2.318
308.40 2.316
308.50 2.314
308.60 2.312
308.70 2.31
308.80 2.308
308.90 2.306
309.00 2.305
309.10 2.303
309.20 2.301
309.30 2.299
309.40 2.297
309.50 2.295
309.60 2.293
309.70 2.292
309.80 2.29
309.90 2.288
310.00 2.286
310.10 2.284
310.20 2.282
310.30 2.28
310.40 2.279
310.50 2.277
310.60 2.275
310.70 2.273
310.80 2.271
310.90 2.269
311.00 2.268
311.10 2.266
311.20 2.264
311.30 2.262
311.40 2.26
311.50 2.259
311.60 2.257
311.70 2.255
311.80 2.253
311.90 2.251
312.00 2.25
312.10 2.248
312.20 2.246
312.30 2.244
312.40 2.242
312.50 2.241
312.60 2.239
312.70 2.237
312.80 2.235
312.90 2.233
313.00 2.232
313.10 2.23
313.20 2.228
313.30 2.226
313.40 2.224
313.50 2.223
313.60 2.221
313.70 2.219
313.80 2.217
313.90 2.216
314.00 2.214
314.10 2.212
314.20 2.21
314.30 2.209
314.40 2.207
314.50 2.205
314.60 2.203
314.70 2.202
314.80 2.2
314.90 2.198
315.00 2.196
315.10 2.195
315.20 2.193
315.30 2.191
315.40 2.189
315.50 2.188
315.60 2.186
315.70 2.184
315.80 2.182
315.90 2.181
316.00 2.179
316.10 2.177
316.20 2.176
316.30 2.174
316.40 2.172
316.50 2.17
316.60 2.169
316.70 2.167
316.80 2.165
316.90 2.163
317.00 2.162
317.10 2.16
317.20 2.158
317.30 2.157
317.40 2.155
317.50 2.153
317.60 2.152
317.70 2.15
317.80 2.148
317.90 2.146
318.00 2.145
318.10 2.143
318.20 2.141
318.30 2.14
318.40 2.138
318.50 2.136
318.60 2.135
318.70 2.133
318.80 2.131
318.90 2.13
319.00 2.128
319.10 2.126
319.20 2.125
319.30 2.123
319.40 2.121
319.50 2.12
319.60 2.118
319.70 2.116
319.80 2.115
319.90 2.113
320.00 2.111
320.10 2.11
320.20 2.108
320.30 2.106
320.40 2.105
320.50 2.103
320.60 2.101
320.70 2.1
320.80 2.098
320.90 2.096
321.00 2.095
321.10 2.093
321.20 2.092
321.30 2.09
321.40 2.088
321.50 2.087
321.60 2.085
321.70 2.083
321.80 2.082
321.90 2.08
322.00 2.078
322.10 2.077
322.20 2.075
322.30 2.074
322.40 2.072
322.50 2.07
322.60 2.069
322.70 2.067
322.80 2.066
322.90 2.064
323.00 2.062
323.10 2.061
323.20 2.059
323.30 2.058
323.40 2.056
323.50 2.054
323.60 2.053
323.70 2.051
323.80 2.05
323.90 2.048
324.00 2.046
324.10 2.045
324.20 2.043
324.30 2.042
324.40 2.04
324.50 2.039
324.60 2.037
324.70 2.035
324.80 2.034
324.90 2.032
325.00 2.031
325.10 2.029
325.20 2.027
325.30 2.026
325.40 2.024
325.50 2.023
325.60 2.021
325.70 2.02
325.80 2.018
325.90 2.016
326.00 2.015
326.10 2.013
326.20 2.012
326.30 2.01
326.40 2.009
326.50 2.007
326.60 2.006
326.70 2.004
326.80 2.003
326.90 2.001
327.00 1.999
327.10 1.998
327.20 1.996
327.30 1.995
327.40 1.993
327.50 1.992
327.60 1.99
327.70 1.989
327.80 1.987
327.90 1.986
328.00 1.984
328.10 1.983
328.20 1.981
328.30 1.98
328.40 1.978
328.50 1.977
328.60 1.975
328.70 1.974
328.80 1.972
328.90 1.971
329.00 1.969
329.10 1.967
329.20 1.966
329.30 1.964
329.40 1.963
329.50 1.961
329.60 1.96
329.70 1.958
329.80 1.957
329.90 1.955
330.00 1.954
330.10 1.952
330.20 1.951
330.30 1.95
330.40 1.948
330.50 1.947
330.60 1.945
330.70 1.944
330.80 1.942
330.90 1.941
331.00 1.939
331.10 1.938
331.20 1.936
331.30 1.935
331.40 1.933
331.50 1.932
331.60 1.93
331.70 1.929
331.80 1.927
331.90 1.926
332.00 1.924
332.10 1.923
332.20 1.921
332.30 1.92
332.40 1.919
332.50 1.917
332.60 1.916
332.70 1.914
332.80 1.913
332.90 1.911
333.00 1.91
333.10 1.908
333.20 1.907
333.30 1.905
333.40 1.904
333.50 1.903
333.60 1.901
333.70 1.9
333.80 1.898
333.90 1.897
334.00 1.895
334.10 1.894
334.20 1.893
334.30 1.891
334.40 1.89
334.50 1.888
334.60 1.887
334.70 1.885
334.80 1.884
334.90 1.883
335.00 1.881
335.10 1.88
335.20 1.878
335.30 1.877
335.40 1.875
335.50 1.874
335.60 1.873
335.70 1.871
335.80 1.87
335.90 1.868
336.00 1.867
336.10 1.866
336.20 1.864
336.30 1.863
336.40 1.861
336.50 1.86
336.60 1.859
336.70 1.857
336.80 1.856
336.90 1.854
337.00 1.853
337.10 1.852
337.20 1.85
337.30 1.849
337.40 1.847
337.50 1.846
337.60 1.845
337.70 1.843
337.80 1.842
337.90 1.841
338.00 1.839
338.10 1.838
338.20 1.836
338.30 1.835
338.40 1.834
338.50 1.832
338.60 1.831
338.70 1.83
338.80 1.828
338.90 1.827
339.00 1.825
339.10 1.824
339.20 1.823
339.30 1.821
339.40 1.82
339.50 1.819
339.60 1.817
339.70 1.816
339.80 1.814
339.90 1.813
340.00 1.812
340.10 1.81
340.20 1.809
340.30 1.808
340.40 1.806
340.50 1.805
340.60 1.804
340.70 1.802
340.80 1.801
340.90 1.8
341.00 1.798
341.10 1.797
341.20 1.796
341.30 1.794
341.40 1.793
341.50 1.792
341.60 1.79
341.70 1.789
341.80 1.788
341.90 1.786
342.00 1.785
342.10 1.784
342.20 1.782
342.30 1.781
342.40 1.78
342.50 1.778
342.60 1.777
342.70 1.776
342.80 1.774
342.90 1.773
343.00 1.772
343.10 1.771
343.20 1.769
343.30 1.768
343.40 1.767
343.50 1.765
343.60 1.764
343.70 1.763
343.80 1.761
343.90 1.76
344.00 1.759
344.10 1.757
344.20 1.756
344.30 1.755
344.40 1.754
344.50 1.752
344.60 1.751
344.70 1.75
344.80 1.748
344.90 1.747
345.00 1.746
345.10 1.744
345.20 1.743
345.30 1.742
345.40 1.741
345.50 1.739
345.60 1.738
345.70 1.737
345.80 1.735
345.90 1.734
346.00 1.733
346.10 1.732
346.20 1.73
346.30 1.729
346.40 1.728
346.50 1.727
346.60 1.725
346.70 1.724
346.80 1.723
346.90 1.721
347.00 1.72
347.10 1.719
347.20 1.718
347.30 1.716
347.40 1.715
347.50 1.714
347.60 1.713
347.70 1.711
347.80 1.71
347.90 1.709
348.00 1.708
348.10 1.706
348.20 1.705
348.30 1.704
348.40 1.703
348.50 1.701
348.60 1.7
348.70 1.699
348.80 1.698
348.90 1.696
349.00 1.695
349.10 1.694
349.20 1.693
349.30 1.691
349.40 1.69
349.50 1.689
349.60 1.688
349.70 1.687
349.80 1.685
349.90 1.684
350.00 1.683
350.10 1.682
350.20 1.68
350.30 1.679
350.40 1.678
350.50 1.677
350.60 1.676
350.70 1.674
350.80 1.673
350.90 1.672
351.00 1.671
351.10 1.669
351.20 1.668
351.30 1.667
351.40 1.666
351.50 1.665
351.60 1.663
351.70 1.662
351.80 1.661
351.90 1.66
352.00 1.659
352.10 1.657
352.20 1.656
352.30 1.655
352.40 1.654
352.50 1.653
352.60 1.651
352.70 1.65
352.80 1.649
352.90 1.648
353.00 1.647
353.10 1.645
353.20 1.644
353.30 1.643
353.40 1.642
353.50 1.641
353.60 1.639
353.70 1.638
353.80 1.637
353.90 1.636
354.00 1.635
354.10 1.634
354.20 1.632
354.30 1.631
354.40 1.63
354.50 1.629
354.60 1.628
354.70 1.626
354.80 1.625
354.90 1.624
355.00 1.623
355.10 1.622
355.20 1.621
355.30 1.619
355.40 1.618
355.50 1.617
355.60 1.616
355.70 1.615
355.80 1.614
355.90 1.612
356.00 1.611
356.10 1.61
356.20 1.609
356.30 1.608
356.40 1.607
356.50 1.605
356.60 1.604
356.70 1.603
356.80 1.602
356.90 1.601
357.00 1.6
357.10 1.599
357.20 1.597
357.30 1.596
357.40 1.595
357.50 1.594
357.60 1.593
357.70 1.592
357.80 1.591
357.90 1.589
358.00 1.588
358.10 1.587
358.20 1.586
358.30 1.585
358.40 1.584
358.50 1.583
358.60 1.582
358.70 1.58
358.80 1.579
358.90 1.578
359.00 1.577
359.10 1.576
359.20 1.575
359.30 1.574
359.40 1.573
359.50 1.571
359.60 1.57
359.70 1.569
359.80 1.568
359.90 1.567
360.00 1.566
360.10 1.565
360.20 1.564
360.30 1.562
360.40 1.561
360.50 1.56
360.60 1.559
360.70 1.558
360.80 1.557
360.90 1.556
361.00 1.555
361.10 1.554
361.20 1.552
361.30 1.551
361.40 1.55
361.50 1.549
361.60 1.548
361.70 1.547
361.80 1.546
361.90 1.545
362.00 1.544
362.10 1.542
362.20 1.541
362.30 1.54
362.40 1.539
362.50 1.538
362.60 1.537
362.70 1.536
362.80 1.535
362.90 1.534
363.00 1.533
363.10 1.532
363.20 1.53
363.30 1.529
363.40 1.528
363.50 1.527
363.60 1.526
363.70 1.524
363.80 1.523
363.90 1.522
364.00 1.521
364.10 1.52
364.20 1.519
364.30 1.517
364.40 1.516
364.50 1.515
364.60 1.514
364.70 1.513
364.80 1.511
364.90 1.51
365.00 1.509
365.10 1.508
365.20 1.507
365.30 1.505
365.40 1.504
365.50 1.503
365.60 1.502
365.70 1.501
365.80 1.5
365.90 1.498
366.00 1.497
366.10 1.496
366.20 1.495
366.30 1.494
366.40 1.493
366.50 1.492
366.60 1.491
366.70 1.49
366.80 1.489
366.90 1.487
367.00 1.486
367.10 1.485
367.20 1.484
367.30 1.483
367.40 1.482
367.50 1.481
367.60 1.48
367.70 1.479
367.80 1.478
367.90 1.477
368.00 1.476
368.10 1.475
368.20 1.474
368.30 1.473
368.40 1.472
368.50 1.471
368.60 1.47
368.70 1.469
368.80 1.468
368.90 1.467
369.00 1.466
369.10 1.465
369.20 1.464
369.30 1.463
369.40 1.462
369.50 1.461
369.60 1.46
369.70 1.46
369.80 1.459
369.90 1.458
370.00 1.457
370.10 1.456
370.20 1.456
370.30 1.455
370.40 1.455
370.50 1.454
370.60 1.454
370.70 1.453
370.80 1.453
370.90 1.452
371.00 1.452
371.10 1.451
371.20 1.451
371.30 1.45
371.40 1.45
371.50 1.449
371.60 1.449
371.70 1.448
371.80 1.448
371.90 1.447
372.00 1.447
372.10 1.447
372.20 1.447
372.30 1.448
372.40 1.448
372.50 1.448
372.60 1.448
372.70 1.449
372.80 1.449
372.90 1.449
373.00 1.449
373.10 1.45
373.20 1.45
373.30 1.45
373.40 1.45
373.50 1.451
373.60 1.451
373.70 1.451
373.80 1.451
373.90 1.452
374.00 1.452
374.10 1.452
374.20 1.453
374.30 1.454
374.40 1.455
374.50 1.455
374.60 1.456
374.70 1.457
374.80 1.457
374.90 1.458
375.00 1.459
375.10 1.46
375.20 1.46
375.30 1.461
375.40 1.462
375.50 1.462
375.60 1.463
375.70 1.464
375.80 1.465
375.90 1.465
376.00 1.466
376.10 1.466
376.20 1.466
376.30 1.467
376.40 1.467
376.50 1.467
376.60 1.468
376.70 1.468
376.80 1.468
376.90 1.469
377.00 1.469
377.10 1.468
377.20 1.467
377.30 1.466
377.40 1.465
377.50 1.464
377.60 1.462
377.70 1.461
377.80 1.46
377.90 1.459
378.00 1.458
378.10 1.453
378.20 1.448
378.30 1.443
378.40 1.438
378.50 1.432
378.60 1.427
378.70 1.422
378.80 1.417
378.90 1.412
379.00 1.407
379.10 1.403
379.20 1.4
379.30 1.396
379.40 1.392
379.50 1.389
379.60 1.385
379.70 1.382
379.80 1.378
379.90 1.375
380.00 1.371
380.10 1.376
380.20 1.381
380.30 1.386
380.40 1.391
380.50 1.396
380.60 1.401
380.70 1.406
380.80 1.41
380.90 1.415
381.00 1.42
381.10 1.422
381.20 1.423
381.30 1.424
381.40 1.426
381.50 1.427
381.60 1.426
381.70 1.424
381.80 1.421
381.90 1.417
382.00 1.413
382.10 1.407
382.20 1.4
382.30 1.388
382.40 1.375
382.50 1.363
382.60 1.35
382.70 1.338
382.80 1.325
382.90 1.313
383.00 1.301
383.10 1.288
383.20 1.276
383.30 1.267
383.40 1.257
383.50 1.247
383.60 1.249
383.70 1.26
383.80 1.27
383.90 1.279
384.00 1.29
384.10 1.305
384.20 1.321
384.30 1.337
384.40 1.352
384.50 1.367
384.60 1.379
384.70 1.391
384.80 1.401
384.90 1.41
385.00 1.417
385.10 1.423
385.20 1.429
385.30 1.433
385.40 1.436
385.50 1.439
385.60 1.441
385.70 1.442
385.80 1.442
385.90 1.442
386.00 1.441
386.10 1.439
386.20 1.436
386.30 1.433
386.40 1.428
386.50 1.424
386.60 1.418
386.70 1.412
386.80 1.405
386.90 1.397
387.00 1.388
387.10 1.379
387.20 1.369
387.30 1.358
387.40 1.347
387.50 1.334
387.60 1.319
387.70 1.304
387.80 1.287
387.90 1.269
388.00 1.249
388.10 1.227
388.20 1.203
388.30 1.177
388.40 1.151
388.50 1.126
388.60 1.104
388.70 1.088
388.80 1.073
388.90 1.061
389.00 1.072
389.10 1.085
389.20 1.101
389.30 1.123
389.40 1.147
389.50 1.173
389.60 1.199
389.70 1.224
389.80 1.247
389.90 1.267
390.00 1.287
390.10 1.305
390.20 1.321
390.30 1.337
390.40 1.352
390.50 1.365
390.60 1.378
390.70 1.391
390.80 1.402
390.90 1.413
391.00 1.424
391.10 1.434
391.20 1.443
391.30 1.452
391.40 1.461
391.50 1.469
391.60 1.476
391.70 1.483
391.80 1.489
391.90 1.495
392.00 1.499
392.10 1.504
392.20 1.507
392.30 1.51
392.40 1.512
392.50 1.514
392.60 1.514
392.70 1.514
392.80 1.514
392.90 1.512
393.00 1.51
393.10 1.507
393.20 1.503
393.30 1.499
393.40 1.494
393.50 1.488
393.60 1.481
393.70 1.474
393.80 1.465
393.90 1.457
394.00 1.447
394.10 1.437
394.20 1.425
394.30 1.414
394.40 1.401
394.50 1.388
394.60 1.375
394.70 1.361
394.80 1.346
394.90 1.331
395.00 1.315
395.10 1.299
395.20 1.283
395.30 1.266
395.40 1.248
395.50 1.23
395.60 1.211
395.70 1.192
395.80 1.172
395.90 1.151
396.00 1.13
396.10 1.108
396.20 1.083
396.30 1.056
396.40 1.028
396.50 0.9953
396.60 0.9626
396.70 0.9299
396.80 0.9037
396.90 0.8758
397.00 0.8461
397.10 0.8729
397.20 0.8987
397.30 0.9234
397.40 0.9549
397.50 0.9866
397.60 1.018
397.70 1.046
397.80 1.072
397.90 1.096
398.00 1.118
398.10 1.139
398.20 1.159
398.30 1.178
398.40 1.196
398.50 1.215
398.60 1.232
398.70 1.249
398.80 1.266
398.90 1.283
399.00 1.299
399.10 1.315
399.20 1.33
399.30 1.345
399.40 1.36
399.50 1.375
399.60 1.389
399.70 1.404
399.80 1.417
399.90 1.43
400.00 1.443
400.10 1.455
400.20 1.467
400.30 1.479
400.40 1.49
400.50 1.501
400.60 1.511
400.70 1.521
400.80 1.53
400.90 1.539
401.00 1.548
401.10 1.556
401.20 1.563
401.30 1.571
401.40 1.577
401.50 1.584
401.60 1.59
401.70 1.596
401.80 1.601
401.90 1.606
402.00 1.611
402.10 1.615
402.20 1.619
402.30 1.622
402.40 1.625
402.50 1.628
402.60 1.63
402.70 1.632
402.80 1.634
402.90 1.635
403.00 1.636
403.10 1.636
403.20 1.637
403.30 1.637
403.40 1.636
403.50 1.635
403.60 1.634
403.70 1.632
403.80 1.63
403.90 1.628
404.00 1.625
404.10 1.622
404.20 1.619
404.30 1.615
404.40 1.611
404.50 1.607
404.60 1.602
404.70 1.597
404.80 1.591
404.90 1.585
405.00 1.579
405.10 1.572
405.20 1.565
405.30 1.557
405.40 1.55
405.50 1.541
405.60 1.533
405.70 1.524
405.80 1.514
405.90 1.504
406.00 1.494
406.10 1.484
406.20 1.473
406.30 1.461
406.40 1.449
406.50 1.437
406.60 1.425
406.70 1.412
406.80 1.398
406.90 1.385
407.00 1.371
407.10 1.356
407.20 1.341
407.30 1.326
407.40 1.31
407.50 1.294
407.60 1.277
407.70 1.26
407.80 1.243
407.90 1.226
408.00 1.208
408.10 1.191
408.20 1.173
408.30 1.155
408.40 1.136
408.50 1.118
408.60 1.099
408.70 1.08
408.80 1.061
408.90 1.042
409.00 1.022
409.10 1.002
409.20 0.9823
409.30 0.9618
409.40 0.9394
409.50 0.9152
409.60 0.8894
409.70 0.8595
409.80 0.8284
409.90 0.796
410.00 0.7623
410.10 0.7323
410.20 0.7062
410.30 0.7444
410.40 0.7794
410.50 0.8112
410.60 0.8422
410.70 0.8714
410.80 0.8989
410.90 0.9223
411.00 0.9443
411.10 0.9647
411.20 0.9837
411.30 1.002
411.40 1.021
411.50 1.039
411.60 1.057
411.70 1.074
411.80 1.092
411.90 1.109
412.00 1.126
412.10 1.143
412.20 1.159
412.30 1.176
412.40 1.192
412.50 1.208
412.60 1.224
412.70 1.239
412.80 1.254
412.90 1.269
413.00 1.283
413.10 1.298
413.20 1.311
413.30 1.325
413.40 1.338
413.50 1.351
413.60 1.363
413.70 1.375
413.80 1.387
413.90 1.398
414.00 1.409
414.10 1.42
414.20 1.43
414.30 1.44
414.40 1.45
414.50 1.459
414.60 1.469
414.70 1.478
414.80 1.486
414.90 1.495
415.00 1.503
415.10 1.51
415.20 1.518
415.30 1.525
415.40 1.532
415.50 1.539
415.60 1.545
415.70 1.551
415.80 1.557
415.90 1.563
416.00 1.569
416.10 1.574
416.20 1.579
416.30 1.584
416.40 1.589
416.50 1.594
416.60 1.598
416.70 1.602
416.80 1.606
416.90 1.61
417.00 1.614
417.10 1.617
417.20 1.62
417.30 1.624
417.40 1.627
417.50 1.63
417.60 1.632
417.70 1.635
417.80 1.637
417.90 1.64
418.00 1.642
418.10 1.644
418.20 1.646
418.30 1.648
418.40 1.65
418.50 1.651
418.60 1.653
418.70 1.654
418.80 1.655
418.90 1.657
419.00 1.658
419.10 1.659
419.20 1.66
419.30 1.66
419.40 1.661
419.50 1.662
419.60 1.662
419.70 1.663
419.80 1.663
419.90 1.663
420.00 1.664
420.10 1.664
420.20 1.664
420.30 1.664
420.40 1.664
420.50 1.664
420.60 1.663
420.70 1.663
420.80 1.663
420.90 1.662
421.00 1.662
421.10 1.661
421.20 1.661
421.30 1.66
421.40 1.659
421.50 1.658
421.60 1.657
421.70 1.656
421.80 1.655
421.90 1.654
422.00 1.653
422.10 1.652
422.20 1.651
422.30 1.649
422.40 1.648
422.50 1.646
422.60 1.645
422.70 1.643
422.80 1.642
422.90 1.64
423.00 1.638
423.10 1.636
423.20 1.634
423.30 1.633
423.40 1.63
423.50 1.628
423.60 1.626
423.70 1.624
423.80 1.622
423.90 1.619
424.00 1.617
424.10 1.614
424.20 1.612
424.30 1.609
424.40 1.606
424.50 1.604
424.60 1.601
424.70 1.598
424.80 1.595
424.90 1.592
425.00 1.589
425.10 1.585
425.20 1.582
425.30 1.578
425.40 1.575
425.50 1.571
425.60 1.568
425.70 1.564
425.80 1.56
425.90 1.556
426.00 1.552
426.10 1.547
426.20 1.542
426.30 1.537
426.40 1.533
426.50 1.528
426.60 1.523
426.70 1.519
426.80 1.514
426.90 1.508
427.00 1.503
427.10 1.498
427.20 1.492
427.30 1.487
427.40 1.481
427.50 1.475
427.60 1.469
427.70 1.463
427.80 1.456
427.90 1.45
428.00 1.443
428.10 1.436
428.20 1.429
428.30 1.422
428.40 1.415
428.50 1.407
428.60 1.399
428.70 1.392
428.80 1.383
428.90 1.375
429.00 1.367
429.10 1.358
429.20 1.349
429.30 1.34
429.40 1.331
429.50 1.321
429.60 1.312
429.70 1.302
429.80 1.291
429.90 1.281
430.00 1.271
430.10 1.26
430.20 1.249
430.30 1.238
430.40 1.226
430.50 1.215
430.60 1.203
430.70 1.19
430.80 1.178
430.90 1.166
431.00 1.153
431.10 1.14
431.20 1.127
431.30 1.113
431.40 1.1
431.50 1.086
431.60 1.072
431.70 1.058
431.80 1.043
431.90 1.029
432.00 1.014
432.10 0.9987
432.20 0.9833
432.30 0.9675
432.40 0.9515
432.50 0.9348
432.60 0.9178
432.70 0.9004
432.80 0.8828
432.90 0.8652
433.00 0.8478
433.10 0.8311
433.20 0.8142
433.30 0.7971
433.40 0.7782
433.50 0.7578
433.60 0.7357
433.70 0.7082
433.80 0.6771
433.90 0.6427
434.00 0.5839
434.10 0.5847
434.20 0.6451
434.30 0.6783
434.40 0.7082
434.50 0.7347
434.60 0.7557
434.70 0.7751
434.80 0.793
434.90 0.8091
435.00 0.825
435.10 0.8408
435.20 0.8571
435.30 0.8736
435.40 0.8901
435.50 0.9062
435.60 0.922
435.70 0.9373
435.80 0.952
435.90 0.9663
436.00 0.9804
436.10 0.994
436.20 1.007
436.30 1.021
436.40 1.033
436.50 1.046
436.60 1.058
436.70 1.07
436.80 1.082
436.90 1.094
437.00 1.105
437.10 1.117
437.20 1.128
437.30 1.138
437.40 1.149
437.50 1.159
437.60 1.169
437.70 1.179
437.80 1.188
437.90 1.197
438.00 1.206
438.10 1.215
438.20 1.223
438.30 1.232
438.40 1.24
438.50 1.248
438.60 1.255
438.70 1.263
438.80 1.27
438.90 1.277
439.00 1.283
439.10 1.29
439.20 1.296
439.30 1.302
439.40 1.308
439.50 1.314
439.60 1.319
439.70 1.325
439.80 1.33
439.90 1.335
440.00 1.34
440.10 1.344
440.20 1.349
440.30 1.353
440.40 1.357
440.50 1.361
440.60 1.365
440.70 1.369
440.80 1.373
440.90 1.376
441.00 1.38
441.10 1.383
441.20 1.386
441.30 1.389
441.40 1.392
441.50 1.395
441.60 1.397
441.70 1.4
441.80 1.402
441.90 1.405
442.00 1.407
442.10 1.409
442.20 1.411
442.30 1.413
442.40 1.415
442.50 1.417
442.60 1.419
442.70 1.42
442.80 1.422
442.90 1.423
443.00 1.425
443.10 1.426
443.20 1.427
443.30 1.429
443.40 1.43
443.50 1.431
443.60 1.432
443.70 1.433
443.80 1.434
443.90 1.435
444.00 1.436
444.10 1.436
444.20 1.437
444.30 1.438
444.40 1.438
444.50 1.439
444.60 1.439
444.70 1.44
444.80 1.44
444.90 1.441
445.00 1.441
445.10 1.442
445.20 1.442
445.30 1.442
445.40 1.442
445.50 1.443
445.60 1.443
445.70 1.443
445.80 1.443
445.90 1.443
446.00 1.443
446.10 1.443
446.20 1.443
446.30 1.443
446.40 1.443
446.50 1.443
446.60 1.443
446.70 1.443
446.80 1.442
446.90 1.442
447.00 1.442
447.10 1.442
447.20 1.442
447.30 1.441
447.40 1.441
447.50 1.441
447.60 1.44
447.70 1.44
447.80 1.44
447.90 1.439
448.00 1.439
448.10 1.438
448.20 1.438
448.30 1.438
448.40 1.437
448.50 1.437
448.60 1.436
448.70 1.436
448.80 1.435
448.90 1.435
449.00 1.434
449.10 1.434
449.20 1.433
449.30 1.433
449.40 1.432
449.50 1.432
449.60 1.431
449.70 1.43
449.80 1.43
449.90 1.429
450.00 1.429
450.10 1.428
450.20 1.427
450.30 1.427
450.40 1.426
450.50 1.425
450.60 1.425
450.70 1.424
450.80 1.423
450.90 1.422
451.00 1.422
451.10 1.421
451.20 1.42
451.30 1.419
451.40 1.419
451.50 1.418
451.60 1.417
451.70 1.416
451.80 1.416
451.90 1.415
452.00 1.414
452.10 1.413
452.20 1.413
452.30 1.412
452.40 1.411
452.50 1.41
452.60 1.409
452.70 1.408
452.80 1.408
452.90 1.407
453.00 1.406
453.10 1.405
453.20 1.404
453.30 1.403
453.40 1.403
453.50 1.402
453.60 1.401
453.70 1.4
453.80 1.399
453.90 1.398
454.00 1.397
454.10 1.397
454.20 1.396
454.30 1.395
454.40 1.394
454.50 1.393
454.60 1.392
454.70 1.391
454.80 1.39
454.90 1.39
455.00 1.389
455.10 1.388
455.20 1.387
455.30 1.386
455.40 1.385
455.50 1.384
455.60 1.383
455.70 1.382
455.80 1.381
455.90 1.38
456.00 1.379
456.10 1.379
456.20 1.378
456.30 1.377
456.40 1.376
456.50 1.375
456.60 1.374
456.70 1.373
456.80 1.372
456.90 1.371
457.00 1.37
457.10 1.369
457.20 1.369
457.30 1.368
457.40 1.367
457.50 1.366
457.60 1.365
457.70 1.364
457.80 1.363
457.90 1.362
458.00 1.361
458.10 1.36
458.20 1.359
458.30 1.358
458.40 1.357
458.50 1.356
458.60 1.355
458.70 1.354
458.80 1.353
458.90 1.352
459.00 1.351
459.10 1.35
459.20 1.349
459.30 1.348
459.40 1.347
459.50 1.346
459.60 1.345
459.70 1.344
459.80 1.343
459.90 1.342
460.00 1.341
460.10 1.34
460.20 1.339
460.30 1.338
460.40 1.337
460.50 1.336
460.60 1.335
460.70 1.334
460.80 1.333
460.90 1.332
461.00 1.331
461.10 1.33
461.20 1.329
461.30 1.328
461.40 1.327
461.50 1.326
461.60 1.325
461.70 1.324
461.80 1.323
461.90 1.322
462.00 1.321
462.10 1.32
462.20 1.319
462.30 1.318
462.40 1.317
462.50 1.316
462.60 1.315
462.70 1.314
462.80 1.313
462.90 1.312
463.00 1.311
463.10 1.31
463.20 1.309
463.30 1.308
463.40 1.307
463.50 1.305
463.60 1.304
463.70 1.303
463.80 1.302
463.90 1.301
464.00 1.3
464.10 1.299
464.20 1.298
464.30 1.297
464.40 1.296
464.50 1.295
464.60 1.294
464.70 1.293
464.80 1.292
464.90 1.29
465.00 1.289
465.10 1.288
465.20 1.287
465.30 1.286
465.40 1.285
465.50 1.284
465.60 1.283
465.70 1.282
465.80 1.281
465.90 1.279
466.00 1.278
466.10 1.277
466.20 1.276
466.30 1.275
466.40 1.274
466.50 1.273
466.60 1.272
466.70 1.27
466.80 1.269
466.90 1.268
467.00 1.267
467.10 1.266
467.20 1.265
467.30 1.264
467.40 1.262
467.50 1.261
467.60 1.26
467.70 1.259
467.80 1.258
467.90 1.256
468.00 1.255
468.10 1.254
468.20 1.253
468.30 1.252
468.40 1.25
468.50 1.249
468.60 1.248
468.70 1.247
468.80 1.245
468.90 1.244
469.00 1.243
469.10 1.242
469.20 1.24
469.30 1.239
469.40 1.238
469.50 1.237
469.60 1.235
469.70 1.234
469.80 1.233
469.90 1.231
470.00 1.23
470.10 1.229
470.20 1.228
470.30 1.226
470.40 1.225
470.50 1.224
470.60 1.222
470.70 1.221
470.80 1.22
470.90 1.218
471.00 1.217
471.10 1.216
471.20 1.214
471.30 1.213
471.40 1.211
471.50 1.21
471.60 1.208
471.70 1.207
471.80 1.205
471.90 1.204
472.00 1.202
472.10 1.201
472.20 1.199
472.30 1.198
472.40 1.196
472.50 1.195
472.60 1.193
472.70 1.192
472.80 1.19
472.90 1.188
473.00 1.187
473.10 1.185
473.20 1.183
473.30 1.182
473.40 1.18
473.50 1.178
473.60 1.176
473.70 1.175
473.80 1.173
473.90 1.171
474.00 1.169
474.10 1.168
474.20 1.166
474.30 1.164
474.40 1.162
474.50 1.16
474.60 1.158
474.70 1.156
474.80 1.154
474.90 1.152
475.00 1.15
475.10 1.148
475.20 1.146
475.30 1.144
475.40 1.142
475.50 1.139
475.60 1.137
475.70 1.135
475.80 1.133
475.90 1.131
476.00 1.128
476.10 1.126
476.20 1.124
476.30 1.121
476.40 1.119
476.50 1.116
476.60 1.114
476.70 1.111
476.80 1.108
476.90 1.106
477.00 1.103
477.10 1.101
477.20 1.098
477.30 1.095
477.40 1.092
477.50 1.089
477.60 1.086
477.70 1.083
477.80 1.08
477.90 1.077
478.00 1.074
478.10 1.071
478.20 1.068
478.30 1.064
478.40 1.061
478.50 1.057
478.60 1.054
478.70 1.05
478.80 1.047
478.90 1.043
479.00 1.04
479.10 1.036
479.20 1.032
479.30 1.028
479.40 1.024
479.50 1.019
479.60 1.015
479.70 1.011
479.80 1.007
479.90 1.003
480.00 0.9983
480.10 0.9941
480.20 0.9893
480.30 0.9843
480.40 0.9792
480.50 0.9742
480.60 0.9691
480.70 0.9641
480.80 0.959
480.90 0.954
481.00 0.949
481.10 0.944
481.20 0.9382
481.30 0.9321
481.40 0.926
481.50 0.9199
481.60 0.9139
481.70 0.9078
481.80 0.9017
481.90 0.8957
482.00 0.8896
482.10 0.8836
482.20 0.8767
482.30 0.8694
482.40 0.8622
482.50 0.8549
482.60 0.8477
482.70 0.8404
482.80 0.8332
482.90 0.826
483.00 0.8187
483.10 0.8115
483.20 0.8033
483.30 0.7947
483.40 0.786
483.50 0.7774
483.60 0.7687
483.70 0.7601
483.80 0.7515
483.90 0.7429
484.00 0.7342
484.10 0.7256
484.20 0.7163
484.30 0.7065
484.40 0.6968
484.50 0.6871
484.60 0.6773
484.70 0.6671
484.80 0.6567
484.90 0.6462
485.00 0.6358
485.10 0.6254
485.20 0.6147
485.30 0.604
485.40 0.5927
485.50 0.5812
485.60 0.5685
485.70 0.5552
485.80 0.5377
485.90 0.5182
486.00 0.4893
486.10 0.4193
486.20 0.4502
486.30 0.5009
486.40 0.5233
486.50 0.5426
486.60 0.5574
486.70 0.5701
486.80 0.5816
486.90 0.5925
487.00 0.6028
487.10 0.6129
487.20 0.6227
487.30 0.6323
487.40 0.642
487.50 0.6517
487.60 0.6614
487.70 0.6705
487.80 0.6793
487.90 0.6882
488.00 0.697
488.10 0.7058
488.20 0.7138
488.30 0.7214
488.40 0.729
488.50 0.7366
488.60 0.7442
488.70 0.7518
488.80 0.7593
488.90 0.7669
489.00 0.7744
489.10 0.782
489.20 0.7885
489.30 0.7945
489.40 0.8005
489.50 0.8065
489.60 0.8125
489.70 0.8185
489.80 0.8244
489.90 0.8304
490.00 0.8364
490.10 0.8423
490.20 0.8474
490.30 0.8521
490.40 0.8568
490.50 0.8615
490.60 0.8662
490.70 0.8708
490.80 0.8755
490.90 0.8802
491.00 0.8848
491.10 0.8895
491.20 0.8934
491.30 0.8969
491.40 0.9004
491.50 0.9039
491.60 0.9074
491.70 0.911
491.80 0.9145
491.90 0.918
492.00 0.9215
492.10 0.925
492.20 0.9279
492.30 0.9305
492.40 0.9331
492.50 0.9357
492.60 0.9383
492.70 0.9409
492.80 0.9435
492.90 0.9461
493.00 0.9487
493.10 0.9513
493.20 0.9534
493.30 0.9553
493.40 0.9572
493.50 0.9591
493.60 0.961
493.70 0.9629
493.80 0.9648
493.90 0.9667
494.00 0.9686
494.10 0.9705
494.20 0.972
494.30 0.9733
494.40 0.9746
494.50 0.9759
494.60 0.9772
494.70 0.9785
494.80 0.9798
494.90 0.9811
495.00 0.9823
495.10 0.9836
495.20 0.9846
495.30 0.9855
495.40 0.9863
495.50 0.9872
495.60 0.988
495.70 0.9889
495.80 0.9897
495.90 0.9906
496.00 0.9914
496.10 0.9923
496.20 0.9929
496.30 0.9934
496.40 0.9939
496.50 0.9944
496.60 0.9949
496.70 0.9954
496.80 0.996
496.90 0.9965
497.00 0.997
497.10 0.9975
497.20 0.9978
497.30 0.9981
497.40 0.9983
497.50 0.9986
497.60 0.9988
497.70 0.9991
497.80 0.9993
497.90 0.9996
498.00 0.9998
498.10 1
498.20 1
498.30 1
498.40 1
498.50 1
498.60 1
498.70 1.001
498.80 1.001
498.90 1.001
499.00 1.001
499.10 1.001
499.20 1.001
499.30 1.001
499.40 1.001
499.50 1
499.60 1
499.70 1
499.80 1
499.90 1
500.00 1
500.10 0.9999
500.20 0.9997
500.30 0.9995
500.40 0.9993
500.50 0.9991
500.60 0.9989
500.70 0.9987
500.80 0.9985
500.90 0.9983
501.00 0.9981
501.10 0.9979
501.20 0.9977
501.30 0.9974
501.40 0.9971
501.50 0.9968
501.60 0.9965
501.70 0.9962
501.80 0.9959
501.90 0.9957
502.00 0.9954
502.10 0.9951
502.20 0.9947
502.30 0.9944
502.40 0.994
502.50 0.9937
502.60 0.9933
502.70 0.993
502.80 0.9926
502.90 0.9923
503.00 0.9919
503.10 0.9916
503.20 0.9912
503.30 0.9908
503.40 0.9904
503.50 0.99
503.60 0.9896
503.70 0.9892
503.80 0.9888
503.90 0.9884
504.00 0.9879
504.10 0.9875
504.20 0.9871
504.30 0.9867
504.40 0.9862
504.50 0.9858
504.60 0.9853
504.70 0.9849
504.80 0.9844
504.90 0.984
505.00 0.9836
505.10 0.9831
505.20 0.9826
505.30 0.9822
505.40 0.9817
505.50 0.9812
505.60 0.9807
505.70 0.9803
505.80 0.9798
505.90 0.9793
506.00 0.9788
506.10 0.9783
506.20 0.9779
506.30 0.9774
506.40 0.9769
506.50 0.9764
506.60 0.9759
506.70 0.9754
506.80 0.9749
506.90 0.9744
507.00 0.9739
507.10 0.9734
507.20 0.9729
507.30 0.9723
507.40 0.9718
507.50 0.9713
507.60 0.9708
507.70 0.9703
507.80 0.9698
507.90 0.9692
508.00 0.9687
508.10 0.9682
508.20 0.9677
508.30 0.9671
508.40 0.9666
508.50 0.9661
508.60 0.9655
508.70 0.965
508.80 0.9645
508.90 0.9639
509.00 0.9634
509.10 0.9629
509.20 0.9623
509.30 0.9618
509.40 0.9612
509.50 0.9607
509.60 0.9601
509.70 0.9596
509.80 0.959
509.90 0.9585
510.00 0.9579
510.10 0.9574
510.20 0.9568
510.30 0.9563
510.40 0.9557
510.50 0.9552
510.60 0.9546
510.70 0.9541
510.80 0.9535
510.90 0.953
511.00 0.9524
511.10 0.9519
511.20 0.9513
511.30 0.9508
511.40 0.9502
511.50 0.9496
511.60 0.9491
511.70 0.9485
511.80 0.9479
511.90 0.9474
512.00 0.9468
512.10 0.9463
512.20 0.9457
512.30 0.9451
512.40 0.9446
512.50 0.944
512.60 0.9435
512.70 0.9429
512.80 0.9423
512.90 0.9418
513.00 0.9412
513.10 0.9407
513.20 0.9401
513.30 0.9395
513.40 0.939
513.50 0.9384
513.60 0.9378
513.70 0.9373
513.80 0.9367
513.90 0.9361
514.00 0.9356
514.10 0.935
514.20 0.9344
514.30 0.9339
514.40 0.9333
514.50 0.9327
514.60 0.9322
514.70 0.9316
514.80 0.931
514.90 0.9305
515.00 0.9299
515.10 0.9293
515.20 0.9288
515.30 0.9282
515.40 0.9276
515.50 0.927
515.60 0.9265
515.70 0.9259
515.80 0.9253
515.90 0.9248
516.00 0.9242
516.10 0.9236
516.20 0.9231
516.30 0.9225
516.40 0.9219
516.50 0.9214
516.60 0.9208
516.70 0.9202
516.80 0.9197
516.90 0.9191
517.00 0.9185
517.10 0.918
517.20 0.9174
517.30 0.9168
517.40 0.9163
517.50 0.9157
517.60 0.9151
517.70 0.9146
517.80 0.914
517.90 0.9134
518.00 0.9129
518.10 0.9123
518.20 0.9117
518.30 0.9112
518.40 0.9106
518.50 0.91
518.60 0.9095
518.70 0.9089
518.80 0.9083
518.90 0.9078
519.00 0.9072
519.10 0.9066
519.20 0.9061
519.30 0.9055
519.40 0.9049
519.50 0.9044
519.60 0.9038
519.70 0.9033
519.80 0.9027
519.90 0.9021
520.00 0.9016
520.10 0.901
520.20 0.9005
520.30 0.8999
520.40 0.8993
520.50 0.8988
520.60 0.8982
520.70 0.8977
520.80 0.8971
520.90 0.8965
521.00 0.896
521.10 0.8954
521.20 0.8949
521.30 0.8943
521.40 0.8937
521.50 0.8932
521.60 0.8926
521.70 0.8921
521.80 0.8915
521.90 0.8909
522.00 0.8904
522.10 0.8898
522.20 0.8893
522.30 0.8887
522.40 0.8881
522.50 0.8876
522.60 0.887
522.70 0.8865
522.80 0.8859
522.90 0.8854
523.00 0.8848
523.10 0.8842
523.20 0.8837
523.30 0.8831
523.40 0.8826
523.50 0.882
523.60 0.8815
523.70 0.8809
523.80 0.8804
523.90 0.8798
524.00 0.8792
524.10 0.8787
524.20 0.8781
524.30 0.8776
524.40 0.877
524.50 0.8765
524.60 0.8759
524.70 0.8754
524.80 0.8748
524.90 0.8743
525.00 0.8737
525.10 0.8732
525.20 0.8726
525.30 0.8721
525.40 0.8715
525.50 0.871
525.60 0.8704
525.70 0.8699
525.80 0.8694
525.90 0.8688
526.00 0.8683
526.10 0.8677
526.20 0.8672
526.30 0.8666
526.40 0.8661
526.50 0.8655
526.60 0.865
526.70 0.8644
526.80 0.8639
526.90 0.8634
527.00 0.8628
527.10 0.8623
527.20 0.8617
527.30 0.8612
527.40 0.8606
527.50 0.8601
527.60 0.8595
527.70 0.859
527.80 0.8584
527.90 0.8579
528.00 0.8574
528.10 0.8568
528.20 0.8563
528.30 0.8557
528.40 0.8552
528.50 0.8547
528.60 0.8541
528.70 0.8536
528.80 0.853
528.90 0.8525
529.00 0.852
529.10 0.8514
529.20 0.8509
529.30 0.8504
529.40 0.8498
529.50 0.8493
529.60 0.8488
529.70 0.8482
529.80 0.8477
529.90 0.8472
530.00 0.8466
530.10 0.8461
530.20 0.8456
530.30 0.845
530.40 0.8445
530.50 0.844
530.60 0.8434
530.70 0.8429
530.80 0.8424
530.90 0.8419
531.00 0.8413
531.10 0.8408
531.20 0.8403
531.30 0.8397
531.40 0.8392
531.50 0.8387
531.60 0.8381
531.70 0.8376
531.80 0.8371
531.90 0.8365
532.00 0.836
532.10 0.8355
532.20 0.8349
532.30 0.8344
532.40 0.8339
532.50 0.8334
532.60 0.8328
532.70 0.8323
532.80 0.8318
532.90 0.8313
533.00 0.8308
533.10 0.8302
533.20 0.8297
533.30 0.8292
533.40 0.8287
533.50 0.8282
533.60 0.8276
533.70 0.8271
533.80 0.8266
533.90 0.8261
534.00 0.8256
534.10 0.825
534.20 0.8245
534.30 0.824
534.40 0.8235
534.50 0.823
534.60 0.8225
534.70 0.8219
534.80 0.8214
534.90 0.8209
535.00 0.8204
535.10 0.8199
535.20 0.8194
535.30 0.8188
535.40 0.8183
535.50 0.8178
535.60 0.8173
535.70 0.8168
535.80 0.8163
535.90 0.8158
536.00 0.8153
536.10 0.8147
536.20 0.8142
536.30 0.8137
536.40 0.8132
536.50 0.8127
536.60 0.8122
536.70 0.8117
536.80 0.8112
536.90 0.8107
537.00 0.8102
537.10 0.8096
537.20 0.8091
537.30 0.8086
537.40 0.8081
537.50 0.8076
537.60 0.8071
537.70 0.8066
537.80 0.8061
537.90 0.8056
538.00 0.8051
538.10 0.8046
538.20 0.8041
538.30 0.8036
538.40 0.8031
538.50 0.8026
538.60 0.8021
538.70 0.8015
538.80 0.801
538.90 0.8005
539.00 0.8
539.10 0.7995
539.20 0.799
539.30 0.7985
539.40 0.7981
539.50 0.7976
539.60 0.7971
539.70 0.7966
539.80 0.7961
539.90 0.7956
540.00 0.7951
540.10 0.7946
540.20 0.7941
540.30 0.7936
540.40 0.7931
540.50 0.7926
540.60 0.7921
540.70 0.7916
540.80 0.7911
540.90 0.7906
541.00 0.7901
541.10 0.7896
541.20 0.7891
541.30 0.7886
541.40 0.7882
541.50 0.7877
541.60 0.7872
541.70 0.7867
541.80 0.7862
541.90 0.7857
542.00 0.7852
542.10 0.7847
542.20 0.7843
542.30 0.7838
542.40 0.7833
542.50 0.7828
542.60 0.7823
542.70 0.7818
542.80 0.7813
542.90 0.7808
543.00 0.7803
543.10 0.7798
543.20 0.7794
543.30 0.7789
543.40 0.7784
543.50 0.7779
543.60 0.7774
543.70 0.7769
543.80 0.7765
543.90 0.776
544.00 0.7755
544.10 0.775
544.20 0.7745
544.30 0.7741
544.40 0.7736
544.50 0.7731
544.60 0.7726
544.70 0.7721
544.80 0.7716
544.90 0.7711
545.00 0.7707
545.10 0.7702
545.20 0.7697
545.30 0.7692
545.40 0.7687
545.50 0.7683
545.60 0.7678
545.70 0.7673
545.80 0.7668
545.90 0.7664
546.00 0.7659
546.10 0.7654
546.20 0.765
546.30 0.7645
546.40 0.7641
546.50 0.7637
546.60 0.7633
546.70 0.7628
546.80 0.7624
546.90 0.762
547.00 0.7616
547.10 0.7611
547.20 0.7607
547.30 0.7602
547.40 0.7597
547.50 0.7592
547.60 0.7588
547.70 0.7583
547.80 0.7578
547.90 0.7573
548.00 0.7569
548.10 0.7564
548.20 0.7559
548.30 0.7554
548.40 0.755
548.50 0.7545
548.60 0.754
548.70 0.7536
548.80 0.7531
548.90 0.7526
549.00 0.7522
549.10 0.7517
549.20 0.7512
549.30 0.7508
549.40 0.7503
549.50 0.7499
549.60 0.7494
549.70 0.7489
549.80 0.7485
549.90 0.748
550.00 0.7475
550.10 0.7471
550.20 0.7466
550.30 0.7462
550.40 0.7457
550.50 0.7452
550.60 0.7448
550.70 0.7443
550.80 0.7438
550.90 0.7434
551.00 0.7429
551.10 0.7425
551.20 0.742
551.30 0.7415
551.40 0.7411
551.50 0.7406
551.60 0.7402
551.70 0.7397
551.80 0.7393
551.90 0.7388
552.00 0.7383
552.10 0.7379
552.20 0.7374
552.30 0.737
552.40 0.7365
552.50 0.7361
552.60 0.7356
552.70 0.7351
552.80 0.7347
552.90 0.7342
553.00 0.7338
553.10 0.7333
553.20 0.7329
553.30 0.7324
553.40 0.732
553.50 0.7315
553.60 0.7311
553.70 0.7306
553.80 0.7302
553.90 0.7298
554.00 0.7293
554.10 0.7289
554.20 0.7284
554.30 0.728
554.40 0.7275
554.50 0.7271
554.60 0.7266
554.70 0.7262
554.80 0.7257
554.90 0.7253
555.00 0.7248
555.10 0.7244
555.20 0.7239
555.30 0.7235
555.40 0.723
555.50 0.7226
555.60 0.7222
555.70 0.7217
555.80 0.7213
555.90 0.7208
556.00 0.7204
556.10 0.72
556.20 0.7195
556.30 0.7191
556.40 0.7186
556.50 0.7182
556.60 0.7177
556.70 0.7173
556.80 0.7168
556.90 0.7164
557.00 0.716
557.10 0.7155
557.20 0.7151
557.30 0.7146
557.40 0.7142
557.50 0.7138
557.60 0.7133
557.70 0.7129
557.80 0.7125
557.90 0.712
558.00 0.7116
558.10 0.7112
558.20 0.7107
558.30 0.7103
558.40 0.7099
558.50 0.7094
558.60 0.709
558.70 0.7086
558.80 0.7081
558.90 0.7077
559.00 0.7073
559.10 0.7068
559.20 0.7064
559.30 0.706
559.40 0.7055
559.50 0.7051
559.60 0.7047
559.70 0.7042
559.80 0.7038
559.90 0.7034
560.00 0.703
560.10 0.7025
560.20 0.7021
560.30 0.7017
560.40 0.7012
560.50 0.7008
560.60 0.7004
560.70 0.7
560.80 0.6995
560.90 0.6991
561.00 0.6987
561.10 0.6983
561.20 0.6978
561.30 0.6974
561.40 0.697
561.50 0.6966
561.60 0.6962
561.70 0.6957
561.80 0.6953
561.90 0.6949
562.00 0.6945
562.10 0.6941
562.20 0.6936
562.30 0.6932
562.40 0.6928
562.50 0.6924
562.60 0.6919
562.70 0.6915
562.80 0.6911
562.90 0.6907
563.00 0.6903
563.10 0.6898
563.20 0.6894
563.30 0.689
563.40 0.6886
563.50 0.6882
563.60 0.6877
563.70 0.6873
563.80 0.6869
563.90 0.6865
564.00 0.6861
564.10 0.6856
564.20 0.6852
564.30 0.6848
564.40 0.6844
564.50 0.684
564.60 0.6836
564.70 0.6832
564.80 0.6828
564.90 0.6824
565.00 0.6819
565.10 0.6815
565.20 0.6811
565.30 0.6807
565.40 0.6803
565.50 0.6799
565.60 0.6795
565.70 0.6791
565.80 0.6787
565.90 0.6783
566.00 0.6778
566.10 0.6774
566.20 0.677
566.30 0.6766
566.40 0.6762
566.50 0.6758
566.60 0.6754
566.70 0.675
566.80 0.6746
566.90 0.6741
567.00 0.6737
567.10 0.6733
567.20 0.6729
567.30 0.6725
567.40 0.6721
567.50 0.6717
567.60 0.6713
567.70 0.6709
567.80 0.6705
567.90 0.6701
568.00 0.6697
568.10 0.6693
568.20 0.6689
568.30 0.6685
568.40 0.6681
568.50 0.6677
568.60 0.6673
568.70 0.6669
568.80 0.6665
568.90 0.6661
569.00 0.6657
569.10 0.6653
569.20 0.6649
569.30 0.6645
569.40 0.6641
569.50 0.6637
569.60 0.6633
569.70 0.6629
569.80 0.6625
569.90 0.6621
570.00 0.6617
570.10 0.6613
570.20 0.6609
570.30 0.6605
570.40 0.6601
570.50 0.6597
570.60 0.6593
570.70 0.6589
570.80 0.6585
570.90 0.6581
571.00 0.6578
571.10 0.6574
571.20 0.657
571.30 0.6566
571.40 0.6562
571.50 0.6558
571.60 0.6554
571.70 0.655
571.80 0.6546
571.90 0.6542
572.00 0.6538
572.10 0.6534
572.20 0.653
572.30 0.6526
572.40 0.6522
572.50 0.6519
572.60 0.6515
572.70 0.6511
572.80 0.6507
572.90 0.6503
573.00 0.6499
573.10 0.6495
573.20 0.6491
573.30 0.6487
573.40 0.6483
573.50 0.648
573.60 0.6476
573.70 0.6472
573.80 0.6468
573.90 0.6464
574.00 0.646
574.10 0.6457
574.20 0.6453
574.30 0.6449
574.40 0.6445
574.50 0.6441
574.60 0.6437
574.70 0.6433
574.80 0.643
574.90 0.6426
575.00 0.6422
575.10 0.6418
575.20 0.6414
575.30 0.641
575.40 0.6407
575.50 0.6403
575.60 0.6399
575.70 0.6395
575.80 0.6391
575.90 0.6388
576.00 0.6384
576.10 0.638
576.20 0.6376
576.30 0.6372
576.40 0.6369
576.50 0.6365
576.60 0.6361
576.70 0.6357
576.80 0.6354
576.90 0.635
577.00 0.6346
577.10 0.6342
577.20 0.6339
577.30 0.6335
577.40 0.6331
577.50 0.6327
577.60 0.6324
577.70 0.632
577.80 0.6316
577.90 0.6312
578.00 0.6309
578.10 0.6305
578.20 0.6301
578.30 0.6297
578.40 0.6294
578.50 0.629
578.60 0.6286
578.70 0.6282
578.80 0.6279
578.90 0.6275
579.00 0.6271
579.10 0.6268
579.20 0.6264
579.30 0.626
579.40 0.6256
579.50 0.6253
579.60 0.6249
579.70 0.6245
579.80 0.6242
579.90 0.6238
580.00 0.6234
580.10 0.6231
580.20 0.6227
580.30 0.6223
580.40 0.6219
580.50 0.6216
580.60 0.6212
580.70 0.6208
580.80 0.6205
580.90 0.6201
581.00 0.6197
581.10 0.6194
581.20 0.619
581.30 0.6186
581.40 0.6183
581.50 0.6179
581.60 0.6176
581.70 0.6172
581.80 0.6168
581.90 0.6165
582.00 0.6161
582.10 0.6158
582.20 0.6154
582.30 0.615
582.40 0.6147
582.50 0.6143
582.60 0.6139
582.70 0.6136
582.80 0.6132
582.90 0.6129
583.00 0.6125
583.10 0.6121
583.20 0.6118
583.30 0.6114
583.40 0.6111
583.50 0.6107
583.60 0.6103
583.70 0.61
583.80 0.6096
583.90 0.6093
584.00 0.6089
584.10 0.6086
584.20 0.6082
584.30 0.6078
584.40 0.6075
584.50 0.6071
584.60 0.6068
584.70 0.6064
584.80 0.606
584.90 0.6057
585.00 0.6053
585.10 0.605
585.20 0.6046
585.30 0.6043
585.40 0.6039
585.50 0.6036
585.60 0.6032
585.70 0.6029
585.80 0.6025
585.90 0.6021
586.00 0.6018
586.10 0.6014
586.20 0.6011
586.30 0.6007
586.40 0.6004
586.50 0.6
586.60 0.5997
586.70 0.5993
586.80 0.599
586.90 0.5986
587.00 0.5983
587.10 0.5979
587.20 0.5976
587.30 0.5973
587.40 0.5969
587.50 0.5966
587.60 0.5962
587.70 0.5959
587.80 0.5955
587.90 0.5952
588.00 0.5948
588.10 0.5945
588.20 0.5941
588.30 0.5938
588.40 0.5934
588.50 0.5931
588.60 0.5927
588.70 0.5924
588.80 0.592
588.90 0.5917
589.00 0.5914
589.10 0.591
589.20 0.5907
589.30 0.5903
589.40 0.59
589.50 0.5896
589.60 0.5893
589.70 0.5889
589.80 0.5886
589.90 0.5883
590.00 0.5879
590.10 0.5876
590.20 0.5872
590.30 0.5869
590.40 0.5865
590.50 0.5862
590.60 0.5859
590.70 0.5855
590.80 0.5852
590.90 0.5848
591.00 0.5845
591.10 0.5842
591.20 0.5838
591.30 0.5835
591.40 0.5831
591.50 0.5828
591.60 0.5824
591.70 0.5821
591.80 0.5818
591.90 0.5814
592.00 0.5811
592.10 0.5807
592.20 0.5804
592.30 0.5801
592.40 0.5797
592.50 0.5794
592.60 0.5791
592.70 0.5788
592.80 0.5784
592.90 0.5781
593.00 0.5778
593.10 0.5774
593.20 0.5771
593.30 0.5768
593.40 0.5764
593.50 0.5761
593.60 0.5757
593.70 0.5754
593.80 0.5751
593.90 0.5747
594.00 0.5744
594.10 0.5741
594.20 0.5737
594.30 0.5734
594.40 0.5731
594.50 0.5727
594.60 0.5724
594.70 0.5721
594.80 0.5718
594.90 0.5714
595.00 0.5711
595.10 0.5708
595.20 0.5704
595.30 0.5701
595.40 0.5698
595.50 0.5694
595.60 0.5691
595.70 0.5688
595.80 0.5685
595.90 0.5681
596.00 0.5678
596.10 0.5675
596.20 0.5671
596.30 0.5667
596.40 0.5663
596.50 0.5659
596.60 0.5654
596.70 0.565
596.80 0.5646
596.90 0.5642
597.00 0.5638
597.10 0.5634
597.20 0.5631
597.30 0.5627
597.40 0.5624
597.50 0.5621
597.60 0.5618
597.70 0.5614
597.80 0.5611
597.90 0.5608
598.00 0.5604
598.10 0.5601
598.20 0.5598
598.30 0.5595
598.40 0.5592
598.50 0.5588
598.60 0.5585
598.70 0.5582
598.80 0.5579
598.90 0.5575
599.00 0.5572
599.10 0.5569
599.20 0.5566
599.30 0.5563
599.40 0.5559
599.50 0.5556
599.60 0.5553
599.70 0.555
599.80 0.5546
599.90 0.5543
600.00 0.554
600.10 0.5537
600.20 0.5533
600.30 0.553
600.40 0.5527
600.50 0.5524
600.60 0.5521
600.70 0.5518
600.80 0.5514
600.90 0.5511
601.00 0.5508
601.10 0.5505
601.20 0.5502
601.30 0.5498
601.40 0.5495
601.50 0.5492
601.60 0.5489
601.70 0.5486
601.80 0.5482
601.90 0.5479
602.00 0.5476
602.10 0.5473
602.20 0.547
602.30 0.5466
602.40 0.5463
602.50 0.546
602.60 0.5457
602.70 0.5454
602.80 0.5451
602.90 0.5448
603.00 0.5445
603.10 0.5441
603.20 0.5438
603.30 0.5435
603.40 0.5432
603.50 0.5429
603.60 0.5426
603.70 0.5423
603.80 0.542
603.90 0.5416
604.00 0.5413
604.10 0.541
604.20 0.5407
604.30 0.5404
604.40 0.5401
604.50 0.5398
604.60 0.5394
604.70 0.5391
604.80 0.5388
604.90 0.5385
605.00 0.5382
605.10 0.5379
605.20 0.5376
605.30 0.5373
605.40 0.5369
605.50 0.5366
605.60 0.5363
605.70 0.536
605.80 0.5357
605.90 0.5354
606.00 0.5351
606.10 0.5348
606.20 0.5345
606.30 0.5342
606.40 0.5339
606.50 0.5336
606.60 0.5333
606.70 0.5329
606.80 0.5326
606.90 0.5323
607.00 0.532
607.10 0.5317
607.20 0.5314
607.30 0.5311
607.40 0.5308
607.50 0.5305
607.60 0.5302
607.70 0.5299
607.80 0.5296
607.90 0.5293
608.00 0.529
608.10 0.5287
608.20 0.5284
608.30 0.5281
608.40 0.5278
608.50 0.5275
608.60 0.5272
608.70 0.5269
608.80 0.5265
608.90 0.5262
609.00 0.5259
609.10 0.5256
609.20 0.5253
609.30 0.525
609.40 0.5247
609.50 0.5244
609.60 0.5241
609.70 0.5238
609.80 0.5235
609.90 0.5232
610.00 0.5229
610.10 0.5226
610.20 0.5223
610.30 0.522
610.40 0.5217
610.50 0.5214
610.60 0.5211
610.70 0.5208
610.80 0.5205
610.90 0.5202
611.00 0.5199
611.10 0.5196
611.20 0.5193
611.30 0.519
611.40 0.5187
611.50 0.5184
611.60 0.5181
611.70 0.5178
611.80 0.5175
611.90 0.5172
612.00 0.5169
612.10 0.5166
612.20 0.5163
612.30 0.516
612.40 0.5158
612.50 0.5155
612.60 0.5152
612.70 0.5149
612.80 0.5146
612.90 0.5143
613.00 0.514
613.10 0.5137
613.20 0.5134
613.30 0.5131
613.40 0.5128
613.50 0.5125
613.60 0.5122
613.70 0.5119
613.80 0.5116
613.90 0.5113
614.00 0.511
614.10 0.5107
614.20 0.5104
614.30 0.5101
614.40 0.5098
614.50 0.5095
614.60 0.5093
614.70 0.509
614.80 0.5087
614.90 0.5084
615.00 0.5081
615.10 0.5078
615.20 0.5075
615.30 0.5072
615.40 0.5069
615.50 0.5066
615.60 0.5063
615.70 0.506
615.80 0.5057
615.90 0.5054
616.00 0.5051
616.10 0.5048
616.20 0.5046
616.30 0.5043
616.40 0.504
616.50 0.5037
616.60 0.5034
616.70 0.5031
616.80 0.5028
616.90 0.5025
617.00 0.5022
617.10 0.5019
617.20 0.5016
617.30 0.5014
617.40 0.5011
617.50 0.5008
617.60 0.5005
617.70 0.5002
617.80 0.4999
617.90 0.4996
618.00 0.4993
618.10 0.499
618.20 0.4988
618.30 0.4985
618.40 0.4982
618.50 0.4979
618.60 0.4976
618.70 0.4973
618.80 0.497
618.90 0.4967
619.00 0.4964
619.10 0.4962
619.20 0.4959
619.30 0.4956
619.40 0.4953
619.50 0.495
619.60 0.4947
619.70 0.4944
619.80 0.4941
619.90 0.4938
620.00 0.4936
620.10 0.4933
620.20 0.493
620.30 0.4927
620.40 0.4924
620.50 0.4921
620.60 0.4918
620.70 0.4916
620.80 0.4913
620.90 0.491
621.00 0.4907
621.10 0.4904
621.20 0.4901
621.30 0.4898
621.40 0.4895
621.50 0.4893
621.60 0.489
621.70 0.4887
621.80 0.4884
621.90 0.4881
622.00 0.4878
622.10 0.4875
622.20 0.4873
622.30 0.487
622.40 0.4867
622.50 0.4864
622.60 0.4861
622.70 0.4858
622.80 0.4856
622.90 0.4853
623.00 0.485
623.10 0.4847
623.20 0.4844
623.30 0.4841
623.40 0.4838
623.50 0.4836
623.60 0.4833
623.70 0.483
623.80 0.4827
623.90 0.4824
624.00 0.4821
624.10 0.4818
624.20 0.4816
624.30 0.4813
624.40 0.481
624.50 0.4807
624.60 0.4804
624.70 0.4801
624.80 0.4799
624.90 0.4796
625.00 0.4793
625.10 0.479
625.20 0.4787
625.30 0.4784
625.40 0.4782
625.50 0.4779
625.60 0.4776
625.70 0.4773
625.80 0.477
625.90 0.4767
626.00 0.4764
626.10 0.4762
626.20 0.4759
626.30 0.4756
626.40 0.4753
626.50 0.475
626.60 0.4747
626.70 0.4745
626.80 0.4742
626.90 0.4739
627.00 0.4736
627.10 0.4733
627.20 0.473
627.30 0.4728
627.40 0.4725
627.50 0.4722
627.60 0.4719
627.70 0.4716
627.80 0.4713
627.90 0.471
628.00 0.4708
628.10 0.4705
628.20 0.4702
628.30 0.4699
628.40 0.4696
628.50 0.4693
628.60 0.4691
628.70 0.4688
628.80 0.4685
628.90 0.4682
629.00 0.4679
629.10 0.4676
629.20 0.4673
629.30 0.4671
629.40 0.4668
629.50 0.4665
629.60 0.4662
629.70 0.4659
629.80 0.4656
629.90 0.4653
630.00 0.4651
630.10 0.4648
630.20 0.4645
630.30 0.4642
630.40 0.4639
630.50 0.4636
630.60 0.4633
630.70 0.463
630.80 0.4628
630.90 0.4625
631.00 0.4622
631.10 0.4619
631.20 0.4616
631.30 0.4613
631.40 0.461
631.50 0.4607
631.60 0.4604
631.70 0.4601
631.80 0.4599
631.90 0.4596
632.00 0.4593
632.10 0.459
632.20 0.4587
632.30 0.4584
632.40 0.4581
632.50 0.4578
632.60 0.4575
632.70 0.4572
632.80 0.4569
632.90 0.4566
633.00 0.4563
633.10 0.456
633.20 0.4558
633.30 0.4555
633.40 0.4552
633.50 0.4549
633.60 0.4546
633.70 0.4543
633.80 0.454
633.90 0.4537
634.00 0.4534
634.10 0.4531
634.20 0.4528
634.30 0.4525
634.40 0.4522
634.50 0.4519
634.60 0.4516
634.70 0.4513
634.80 0.451
634.90 0.4507
635.00 0.4504
635.10 0.45
635.20 0.4497
635.30 0.4494
635.40 0.4491
635.50 0.4488
635.60 0.4485
635.70 0.4482
635.80 0.4479
635.90 0.4476
636.00 0.4473
636.10 0.447
636.20 0.4466
636.30 0.4463
636.40 0.446
636.50 0.4457
636.60 0.4454
636.70 0.4451
636.80 0.4447
636.90 0.4444
637.00 0.4441
637.10 0.4438
637.20 0.4435
637.30 0.4431
637.40 0.4428
637.50 0.4425
637.60 0.4422
637.70 0.4418
637.80 0.4415
637.90 0.4412
638.00 0.4408
638.10 0.4405
638.20 0.4402
638.30 0.4398
638.40 0.4395
638.50 0.4392
638.60 0.4388
638.70 0.4385
638.80 0.4381
638.90 0.4378
639.00 0.4374
639.10 0.4371
639.20 0.4368
639.30 0.4364
639.40 0.4361
639.50 0.4357
639.60 0.4353
639.70 0.435
639.80 0.4346
639.90 0.4343
640.00 0.4339
640.10 0.4335
640.20 0.4332
640.30 0.4328
640.40 0.4324
640.50 0.4321
640.60 0.4317
640.70 0.4313
640.80 0.4309
640.90 0.4305
641.00 0.4302
641.10 0.4298
641.20 0.4294
641.30 0.429
641.40 0.4286
641.50 0.4282
641.60 0.4278
641.70 0.4274
641.80 0.427
641.90 0.4266
642.00 0.4262
642.10 0.4258
642.20 0.4254
642.30 0.425
642.40 0.4246
642.50 0.4241
642.60 0.4237
642.70 0.4232
642.80 0.4228
642.90 0.4224
643.00 0.4219
643.10 0.4215
643.20 0.4211
643.30 0.4206
643.40 0.4202
643.50 0.4197
643.60 0.4192
643.70 0.4187
643.80 0.4183
643.90 0.4178
644.00 0.4173
644.10 0.4168
644.20 0.4164
644.30 0.4159
644.40 0.4153
644.50 0.4148
644.60 0.4143
644.70 0.4138
644.80 0.4132
644.90 0.4127
645.00 0.4122
645.10 0.4117
645.20 0.4111
645.30 0.4106
645.40 0.41
645.50 0.4094
645.60 0.4088
645.70 0.4082
645.80 0.4077
645.90 0.4071
646.00 0.4065
646.10 0.4059
646.20 0.4053
646.30 0.4047
646.40 0.404
646.50 0.4034
646.60 0.4027
646.70 0.402
646.80 0.4014
646.90 0.4007
647.00 0.4
647.10 0.3994
647.20 0.3987
647.30 0.398
647.40 0.3972
647.50 0.3965
647.60 0.3957
647.70 0.3949
647.80 0.3942
647.90 0.3934
648.00 0.3926
648.10 0.3918
648.20 0.3911
648.30 0.3903
648.40 0.3894
648.50 0.3884
648.60 0.3875
648.70 0.3866
648.80 0.3857
648.90 0.3848
649.00 0.3839
649.10 0.383
649.20 0.3821
649.30 0.3812
649.40 0.3801
649.50 0.379
649.60 0.3779
649.70 0.3769
649.80 0.3758
649.90 0.3747
650.00 0.3737
650.10 0.3726
650.20 0.3715
650.30 0.3704
650.40 0.3691
650.50 0.3679
650.60 0.3666
650.70 0.3653
650.80 0.364
650.90 0.3627
651.00 0.3614
651.10 0.3602
651.20 0.3589
651.30 0.3576
651.40 0.356
651.50 0.3545
651.60 0.353
651.70 0.3515
651.80 0.3499
651.90 0.3484
652.00 0.3469
652.10 0.3454
652.20 0.3438
652.30 0.3423
652.40 0.3404
652.50 0.3386
652.60 0.3368
652.70 0.335
652.80 0.3332
652.90 0.3314
653.00 0.3296
653.10 0.3277
653.20 0.3259
653.30 0.3241
653.40 0.3219
653.50 0.3197
653.60 0.3175
653.70 0.3154
653.80 0.3132
653.90 0.311
654.00 0.3088
654.10 0.3067
654.20 0.3045
654.30 0.3023
654.40 0.2998
654.50 0.2973
654.60 0.2948
654.70 0.2923
654.80 0.2898
654.90 0.2869
655.00 0.2841
655.10 0.2813
655.20 0.2784
655.30 0.2755
655.40 0.2723
655.50 0.2691
655.60 0.2655
655.70 0.2617
655.80 0.2573
655.90 0.2522
656.00 0.2448
656.10 0.2365
656.20 0.2125
656.30 0.1877
656.40 0.2259
656.50 0.2397
656.60 0.247
656.70 0.2536
656.80 0.2579
656.90 0.2619
657.00 0.2653
657.10 0.2685
657.20 0.2714
657.30 0.2743
657.40 0.2769
657.50 0.2794
657.60 0.282
657.70 0.2846
657.80 0.2871
657.90 0.2893
658.00 0.2914
658.10 0.2936
658.20 0.2958
658.30 0.2979
658.40 0.2998
658.50 0.3016
658.60 0.3035
658.70 0.3053
658.80 0.3072
658.90 0.309
659.00 0.3108
659.10 0.3127
659.20 0.3145
659.30 0.3163
659.40 0.3177
659.50 0.3192
659.60 0.3206
659.70 0.3221
659.80 0.3235
659.90 0.325
660.00 0.3264
660.10 0.3279
660.20 0.3293
660.30 0.3307
660.40 0.3318
660.50 0.333
660.60 0.3341
660.70 0.3352
660.80 0.3363
660.90 0.3375
661.00 0.3386
661.10 0.3397
661.20 0.3408
661.30 0.3419
661.40 0.3428
661.50 0.3436
661.60 0.3445
661.70 0.3454
661.80 0.3462
661.90 0.3471
662.00 0.348
662.10 0.3488
662.20 0.3497
662.30 0.3505
662.40 0.3511
662.50 0.3518
662.60 0.3524
662.70 0.353
662.80 0.3537
662.90 0.3543
663.00 0.3549
663.10 0.3556
663.20 0.3562
663.30 0.3568
663.40 0.3572
663.50 0.3577
663.60 0.3582
663.70 0.3586
663.80 0.3591
663.90 0.3596
664.00 0.36
664.10 0.3605
664.20 0.3609
664.30 0.3614
664.40 0.3617
664.50 0.362
664.60 0.3623
664.70 0.3626
664.80 0.363
664.90 0.3633
665.00 0.3636
665.10 0.3639
665.20 0.3642
665.30 0.3645
665.40 0.3647
665.50 0.3649
665.60 0.3652
665.70 0.3654
665.80 0.3656
665.90 0.3658
666.00 0.366
666.10 0.3662
666.20 0.3664
666.30 0.3666
666.40 0.3667
666.50 0.3669
666.60 0.367
666.70 0.3671
666.80 0.3672
666.90 0.3674
667.00 0.3675
667.10 0.3676
667.20 0.3678
667.30 0.3679
667.40 0.3679
667.50 0.368
667.60 0.3681
667.70 0.3681
667.80 0.3682
667.90 0.3683
668.00 0.3683
668.10 0.3684
668.20 0.3685
668.30 0.3685
668.40 0.3685
668.50 0.3686
668.60 0.3686
668.70 0.3686
668.80 0.3686
668.90 0.3686
669.00 0.3686
669.10 0.3687
669.20 0.3687
669.30 0.3687
669.40 0.3687
669.50 0.3686
669.60 0.3686
669.70 0.3686
669.80 0.3686
669.90 0.3685
670.00 0.3685
670.10 0.3685
670.20 0.3685
670.30 0.3684
670.40 0.3684
670.50 0.3683
670.60 0.3683
670.70 0.3682
670.80 0.3682
670.90 0.3681
671.00 0.3681
671.10 0.368
671.20 0.368
671.30 0.3679
671.40 0.3678
671.50 0.3677
671.60 0.3677
671.70 0.3676
671.80 0.3675
671.90 0.3674
672.00 0.3673
672.10 0.3673
672.20 0.3672
672.30 0.3671
672.40 0.367
672.50 0.3669
672.60 0.3668
672.70 0.3667
672.80 0.3666
672.90 0.3665
673.00 0.3664
673.10 0.3663
673.20 0.3662
673.30 0.3661
673.40 0.366
673.50 0.3659
673.60 0.3658
673.70 0.3657
673.80 0.3656
673.90 0.3655
674.00 0.3654
674.10 0.3653
674.20 0.3652
674.30 0.365
674.40 0.3649
674.50 0.3648
674.60 0.3647
674.70 0.3645
674.80 0.3644
674.90 0.3643
675.00 0.3642
675.10 0.3641
675.20 0.3639
675.30 0.3638
675.40 0.3637
675.50 0.3635
675.60 0.3634
675.70 0.3633
675.80 0.3631
675.90 0.363
676.00 0.3629
676.10 0.3628
676.20 0.3626
676.30 0.3625
676.40 0.3623
676.50 0.3622
676.60 0.3621
676.70 0.3619
676.80 0.3618
676.90 0.3616
677.00 0.3615
677.10 0.3614
677.20 0.3612
677.30 0.3611
677.40 0.3609
677.50 0.3608
677.60 0.3606
677.70 0.3605
677.80 0.3604
677.90 0.3602
678.00 0.3601
678.10 0.3599
678.20 0.3598
678.30 0.3596
678.40 0.3595
678.50 0.3593
678.60 0.3592
678.70 0.359
678.80 0.3589
678.90 0.3587
679.00 0.3586
679.10 0.3584
679.20 0.3583
679.30 0.3581
679.40 0.358
679.50 0.3578
679.60 0.3577
679.70 0.3575
679.80 0.3573
679.90 0.3572
680.00 0.357
680.10 0.3569
680.20 0.3567
680.30 0.3566
680.40 0.3564
680.50 0.3563
680.60 0.3561
680.70 0.3559
680.80 0.3558
680.90 0.3556
681.00 0.3555
681.10 0.3553
681.20 0.3552
681.30 0.355
681.40 0.3548
681.50 0.3547
681.60 0.3545
681.70 0.3544
681.80 0.3542
681.90 0.354
682.00 0.3539
682.10 0.3537
682.20 0.3536
682.30 0.3534
682.40 0.3532
682.50 0.3531
682.60 0.3529
682.70 0.3528
682.80 0.3526
682.90 0.3524
683.00 0.3523
683.10 0.3521
683.20 0.352
683.30 0.3518
683.40 0.3516
683.50 0.3515
683.60 0.3513
683.70 0.3511
683.80 0.351
683.90 0.3508
684.00 0.3507
684.10 0.3505
684.20 0.3503
684.30 0.3502
684.40 0.35
684.50 0.3498
684.60 0.3497
684.70 0.3495
684.80 0.3494
684.90 0.3492
685.00 0.349
685.10 0.3489
685.20 0.3487
685.30 0.3485
685.40 0.3484
685.50 0.3482
685.60 0.348
685.70 0.3479
685.80 0.3477
685.90 0.3476
686.00 0.3474
686.10 0.3472
686.20 0.3471
686.30 0.3469
686.40 0.3467
686.50 0.3466
686.60 0.3464
686.70 0.3462
686.80 0.3461
686.90 0.3459
687.00 0.3457
687.10 0.3456
687.20 0.3454
687.30 0.3453
687.40 0.3451
687.50 0.3449
687.60 0.3448
687.70 0.3446
687.80 0.3444
687.90 0.3443
688.00 0.3441
688.10 0.3439
688.20 0.3438
688.30 0.3436
688.40 0.3434
688.50 0.3433
688.60 0.3431
688.70 0.343
688.80 0.3428
688.90 0.3426
689.00 0.3425
689.10 0.3423
689.20 0.3421
689.30 0.342
689.40 0.3418
689.50 0.3416
689.60 0.3415
689.70 0.3413
689.80 0.3411
689.90 0.341
690.00 0.3408
690.10 0.3406
690.20 0.3405
690.30 0.3403
690.40 0.3401
690.50 0.34
690.60 0.3398
690.70 0.3396
690.80 0.3395
690.90 0.3393
691.00 0.3392
691.10 0.339
691.20 0.3388
691.30 0.3387
691.40 0.3385
691.50 0.3383
691.60 0.3382
691.70 0.338
691.80 0.3378
691.90 0.3377
692.00 0.3375
692.10 0.3373
692.20 0.3372
692.30 0.337
692.40 0.3368
692.50 0.3367
692.60 0.3365
692.70 0.3364
692.80 0.3362
692.90 0.336
693.00 0.3359
693.10 0.3357
693.20 0.3355
693.30 0.3354
693.40 0.3352
693.50 0.335
693.60 0.3349
693.70 0.3347
693.80 0.3346
693.90 0.3344
694.00 0.3342
694.10 0.3341
694.20 0.3339
694.30 0.3337
694.40 0.3336
694.50 0.3334
694.60 0.3333
694.70 0.3331
694.80 0.3329
694.90 0.3328
695.00 0.3326
695.10 0.3324
695.20 0.3323
695.30 0.3321
695.40 0.332
695.50 0.3318
695.60 0.3316
695.70 0.3315
695.80 0.3313
695.90 0.3312
696.00 0.331
696.10 0.3308
696.20 0.3307
696.30 0.3305
696.40 0.3304
696.50 0.3302
696.60 0.33
696.70 0.3299
696.80 0.3297
696.90 0.3295
697.00 0.3294
697.10 0.3292
697.20 0.3291
697.30 0.3289
697.40 0.3287
697.50 0.3286
697.60 0.3284
697.70 0.3283
697.80 0.3281
697.90 0.3279
698.00 0.3278
698.10 0.3276
698.20 0.3275
698.30 0.3273
698.40 0.3272
698.50 0.327
698.60 0.3268
698.70 0.3267
698.80 0.3265
698.90 0.3264
699.00 0.3262
699.10 0.326
699.20 0.3259
699.30 0.3257
699.40 0.3256
699.50 0.3254
699.60 0.3252
699.70 0.3251
699.80 0.3249
699.90 0.3248
700.00 0.3246
700.10 0.3245
700.20 0.3243
700.30 0.3242
700.40 0.324
700.50 0.3238
700.60 0.3237
700.70 0.3235
700.80 0.3234
700.90 0.3232
701.00 0.3231
701.10 0.3229
701.20 0.3228
701.30 0.3226
701.40 0.3225
701.50 0.3223
701.60 0.3222
701.70 0.322
701.80 0.3219
701.90 0.3217
702.00 0.3215
702.10 0.3214
702.20 0.3212
702.30 0.3211
702.40 0.3209
702.50 0.3208
702.60 0.3206
702.70 0.3205
702.80 0.3203
702.90 0.3202
703.00 0.32
703.10 0.3199
703.20 0.3197
703.30 0.3196
703.40 0.3194
703.50 0.3193
703.60 0.3191
703.70 0.319
703.80 0.3188
703.90 0.3187
704.00 0.3185
704.10 0.3184
704.20 0.3182
704.30 0.3181
704.40 0.3179
704.50 0.3178
704.60 0.3176
704.70 0.3175
704.80 0.3173
704.90 0.3172
705.00 0.317
705.10 0.3168
705.20 0.3167
705.30 0.3165
705.40 0.3164
705.50 0.3162
705.60 0.3161
705.70 0.3159
705.80 0.3158
705.90 0.3156
706.00 0.3155
706.10 0.3153
706.20 0.3151
706.30 0.315
706.40 0.3148
706.50 0.3147
706.60 0.3145
706.70 0.3144
706.80 0.3142
706.90 0.3141
707.00 0.3139
707.10 0.3138
707.20 0.3136
707.30 0.3135
707.40 0.3133
707.50 0.3131
707.60 0.313
707.70 0.3128
707.80 0.3127
707.90 0.3125
708.00 0.3124
708.10 0.3122
708.20 0.3121
708.30 0.3119
708.40 0.3118
708.50 0.3116
708.60 0.3115
708.70 0.3113
708.80 0.3112
708.90 0.311
709.00 0.3108
709.10 0.3107
709.20 0.3105
709.30 0.3104
709.40 0.3102
709.50 0.3101
709.60 0.3099
709.70 0.3098
709.80 0.3096
709.90 0.3095
710.00 0.3093
710.10 0.3092
710.20 0.309
710.30 0.3089
710.40 0.3087
710.50 0.3086
710.60 0.3084
710.70 0.3083
710.80 0.3081
710.90 0.308
711.00 0.3078
711.10 0.3077
711.20 0.3075
711.30 0.3074
711.40 0.3072
711.50 0.3071
711.60 0.3069
711.70 0.3068
711.80 0.3066
711.90 0.3065
712.00 0.3063
712.10 0.3062
712.20 0.306
712.30 0.3059
712.40 0.3057
712.50 0.3056
712.60 0.3054
712.70 0.3053
712.80 0.3051
712.90 0.305
713.00 0.3048
713.10 0.3047
713.20 0.3045
713.30 0.3044
713.40 0.3042
713.50 0.3041
713.60 0.3039
713.70 0.3038
713.80 0.3036
713.90 0.3035
714.00 0.3033
714.10 0.3032
714.20 0.303
714.30 0.3029
714.40 0.3028
714.50 0.3026
714.60 0.3025
714.70 0.3023
714.80 0.3022
714.90 0.302
715.00 0.3019
715.10 0.3017
715.20 0.3016
715.30 0.3014
715.40 0.3013
715.50 0.3011
715.60 0.301
715.70 0.3009
715.80 0.3007
715.90 0.3006
716.00 0.3004
716.10 0.3003
716.20 0.3001
716.30 0.3
716.40 0.2999
716.50 0.2997
716.60 0.2996
716.70 0.2994
716.80 0.2993
716.90 0.2991
717.00 0.299
717.10 0.2989
717.20 0.2987
717.30 0.2986
717.40 0.2984
717.50 0.2983
717.60 0.2982
717.70 0.298
717.80 0.2979
717.90 0.2977
718.00 0.2976
718.10 0.2974
718.20 0.2973
718.30 0.2972
718.40 0.297
718.50 0.2969
718.60 0.2967
718.70 0.2966
718.80 0.2965
718.90 0.2963
719.00 0.2962
719.10 0.296
719.20 0.2959
719.30 0.2957
719.40 0.2956
719.50 0.2955
719.60 0.2953
719.70 0.2952
719.80 0.295
719.90 0.2949
720.00 0.2948
720.10 0.2946
720.20 0.2945
720.30 0.2943
720.40 0.2942
720.50 0.2941
720.60 0.2939
720.70 0.2938
720.80 0.2936
720.90 0.2935
721.00 0.2933
721.10 0.2932
721.20 0.2931
721.30 0.2929
721.40 0.2928
721.50 0.2926
721.60 0.2925
721.70 0.2923
721.80 0.2922
721.90 0.2921
722.00 0.2919
722.10 0.2918
722.20 0.2916
722.30 0.2915
722.40 0.2913
722.50 0.2912
722.60 0.2911
722.70 0.2909
722.80 0.2908
722.90 0.2906
723.00 0.2905
723.10 0.2904
723.20 0.2902
723.30 0.2901
723.40 0.2899
723.50 0.2898
723.60 0.2897
723.70 0.2895
723.80 0.2894
723.90 0.2892
724.00 0.2891
724.10 0.289
724.20 0.2888
724.30 0.2887
724.40 0.2885
724.50 0.2884
724.60 0.2883
724.70 0.2881
724.80 0.288
724.90 0.2878
725.00 0.2877
725.10 0.2876
725.20 0.2874
725.30 0.2873
725.40 0.2871
725.50 0.287
725.60 0.2869
725.70 0.2867
725.80 0.2866
725.90 0.2864
726.00 0.2863
726.10 0.2862
726.20 0.286
726.30 0.2859
726.40 0.2858
726.50 0.2856
726.60 0.2855
726.70 0.2853
726.80 0.2852
726.90 0.2851
727.00 0.2849
727.10 0.2848
727.20 0.2847
727.30 0.2845
727.40 0.2844
727.50 0.2842
727.60 0.2841
727.70 0.284
727.80 0.2838
727.90 0.2837
728.00 0.2836
728.10 0.2834
728.20 0.2833
728.30 0.2831
728.40 0.283
728.50 0.2829
728.60 0.2827
728.70 0.2826
728.80 0.2825
728.90 0.2823
729.00 0.2822
729.10 0.2821
729.20 0.2819
729.30 0.2818
729.40 0.2816
729.50 0.2815
729.60 0.2814
729.70 0.2812
729.80 0.2811
729.90 0.281
730.00 0.2808
730.10 0.2807
730.20 0.2806
730.30 0.2804
730.40 0.2803
730.50 0.2802
730.60 0.28
730.70 0.2799
730.80 0.2798
730.90 0.2796
731.00 0.2795
731.10 0.2794
731.20 0.2792
731.30 0.2791
731.40 0.279
731.50 0.2788
731.60 0.2787
731.70 0.2786
731.80 0.2784
731.90 0.2783
732.00 0.2782
732.10 0.278
732.20 0.2779
732.30 0.2778
732.40 0.2776
732.50 0.2775
732.60 0.2774
732.70 0.2772
732.80 0.2771
732.90 0.277
733.00 0.2768
733.10 0.2767
733.20 0.2766
733.30 0.2764
733.40 0.2763
733.50 0.2762
733.60 0.276
733.70 0.2759
733.80 0.2758
733.90 0.2756
734.00 0.2755
734.10 0.2754
734.20 0.2752
734.30 0.2751
734.40 0.275
734.50 0.2749
734.60 0.2747
734.70 0.2746
734.80 0.2745
734.90 0.2743
735.00 0.2742
735.10 0.2741
735.20 0.2739
735.30 0.2738
735.40 0.2737
735.50 0.2735
735.60 0.2734
735.70 0.2733
735.80 0.2731
735.90 0.273
736.00 0.2729
736.10 0.2728
736.20 0.2726
736.30 0.2725
736.40 0.2724
736.50 0.2722
736.60 0.2721
736.70 0.272
736.80 0.2718
736.90 0.2717
737.00 0.2716
737.10 0.2715
737.20 0.2713
737.30 0.2712
737.40 0.2711
737.50 0.2709
737.60 0.2708
737.70 0.2707
737.80 0.2705
737.90 0.2704
738.00 0.2703
738.10 0.2702
738.20 0.27
738.30 0.2699
738.40 0.2698
738.50 0.2696
738.60 0.2695
738.70 0.2694
738.80 0.2693
738.90 0.2691
739.00 0.269
739.10 0.2689
739.20 0.2687
739.30 0.2686
739.40 0.2685
739.50 0.2684
739.60 0.2682
739.70 0.2681
739.80 0.268
739.90 0.2678
740.00 0.2677
740.10 0.2676
740.20 0.2675
740.30 0.2673
740.40 0.2672
740.50 0.2671
740.60 0.267
740.70 0.2668
740.80 0.2667
740.90 0.2666
741.00 0.2665
741.10 0.2663
741.20 0.2662
741.30 0.2661
741.40 0.2659
741.50 0.2658
741.60 0.2657
741.70 0.2656
741.80 0.2654
741.90 0.2653
742.00 0.2652
742.10 0.2651
742.20 0.2649
742.30 0.2648
742.40 0.2647
742.50 0.2646
742.60 0.2644
742.70 0.2643
742.80 0.2642
742.90 0.2641
743.00 0.2639
743.10 0.2638
743.20 0.2637
743.30 0.2636
743.40 0.2634
743.50 0.2633
743.60 0.2632
743.70 0.2631
743.80 0.2629
743.90 0.2628
744.00 0.2627
744.10 0.2626
744.20 0.2625
744.30 0.2623
744.40 0.2622
744.50 0.2621
744.60 0.262
744.70 0.2618
744.80 0.2617
744.90 0.2616
745.00 0.2615
745.10 0.2613
745.20 0.2612
745.30 0.2611
745.40 0.261
745.50 0.2608
745.60 0.2607
745.70 0.2606
745.80 0.2605
745.90 0.2604
746.00 0.2602
746.10 0.2601
746.20 0.26
746.30 0.2599
746.40 0.2597
746.50 0.2596
746.60 0.2595
746.70 0.2594
746.80 0.2592
746.90 0.2591
747.00 0.259
747.10 0.2589
747.20 0.2588
747.30 0.2586
747.40 0.2585
747.50 0.2584
747.60 0.2583
747.70 0.2581
747.80 0.258
747.90 0.2579
748.00 0.2578
748.10 0.2577
748.20 0.2575
748.30 0.2574
748.40 0.2573
748.50 0.2572
748.60 0.2571
748.70 0.2569
748.80 0.2568
748.90 0.2567
749.00 0.2566
749.10 0.2564
749.20 0.2563
749.30 0.2562
749.40 0.2561
749.50 0.256
749.60 0.2558
749.70 0.2557
749.80 0.2556
749.90 0.2555
750.00 0.2554
750.10 0.2552
750.20 0.2551
750.30 0.255
750.40 0.2549
750.50 0.2548
750.60 0.2546
750.70 0.2545
750.80 0.2544
750.90 0.2543
751.00 0.2542
751.10 0.254
751.20 0.2539
751.30 0.2538
751.40 0.2537
751.50 0.2536
751.60 0.2535
751.70 0.2533
751.80 0.2532
751.90 0.2531
752.00 0.253
752.10 0.2529
752.20 0.2527
752.30 0.2526
752.40 0.2525
752.50 0.2524
752.60 0.2523
752.70 0.2522
752.80 0.252
752.90 0.2519
753.00 0.2518
753.10 0.2517
753.20 0.2516
753.30 0.2515
753.40 0.2513
753.50 0.2512
753.60 0.2511
753.70 0.251
753.80 0.2509
753.90 0.2508
754.00 0.2506
754.10 0.2505
754.20 0.2504
754.30 0.2503
754.40 0.2502
754.50 0.2501
754.60 0.2499
754.70 0.2498
754.80 0.2497
754.90 0.2496
755.00 0.2495
755.10 0.2494
755.20 0.2492
755.30 0.2491
755.40 0.249
755.50 0.2489
755.60 0.2488
755.70 0.2487
755.80 0.2485
755.90 0.2484
756.00 0.2483
756.10 0.2482
756.20 0.2481
756.30 0.248
756.40 0.2478
756.50 0.2477
756.60 0.2476
756.70 0.2475
756.80 0.2474
756.90 0.2473
757.00 0.2471
757.10 0.247
757.20 0.2469
757.30 0.2468
757.40 0.2467
757.50 0.2466
757.60 0.2465
757.70 0.2463
757.80 0.2462
757.90 0.2461
758.00 0.246
758.10 0.2459
758.20 0.2458
758.30 0.2457
758.40 0.2455
758.50 0.2454
758.60 0.2453
758.70 0.2452
758.80 0.2451
758.90 0.245
759.00 0.2449
759.10 0.2447
759.20 0.2446
759.30 0.2445
759.40 0.2444
759.50 0.2443
759.60 0.2442
759.70 0.2441
759.80 0.2439
759.90 0.2438
760.00 0.2437
760.10 0.2436
760.20 0.2435
760.30 0.2434
760.40 0.2433
760.50 0.2431
760.60 0.243
760.70 0.2429
760.80 0.2428
760.90 0.2427
761.00 0.2426
761.10 0.2425
761.20 0.2424
761.30 0.2423
761.40 0.2421
761.50 0.242
761.60 0.2419
761.70 0.2418
761.80 0.2417
761.90 0.2416
762.00 0.2415
762.10 0.2414
762.20 0.2413
762.30 0.2411
762.40 0.241
762.50 0.2409
762.60 0.2408
762.70 0.2407
762.80 0.2406
762.90 0.2405
763.00 0.2404
763.10 0.2403
763.20 0.2401
763.30 0.24
763.40 0.2399
763.50 0.2398
763.60 0.2397
763.70 0.2396
763.80 0.2395
763.90 0.2394
764.00 0.2393
764.10 0.2391
764.20 0.239
764.30 0.2389
764.40 0.2388
764.50 0.2387
764.60 0.2386
764.70 0.2385
764.80 0.2384
764.90 0.2383
765.00 0.2382
765.10 0.238
765.20 0.2379
765.30 0.2378
765.40 0.2377
765.50 0.2376
765.60 0.2375
765.70 0.2374
765.80 0.2373
765.90 0.2372
766.00 0.2371
766.10 0.237
766.20 0.2368
766.30 0.2367
766.40 0.2366
766.50 0.2365
766.60 0.2364
766.70 0.2363
766.80 0.2362
766.90 0.2361
767.00 0.236
767.10 0.2359
767.20 0.2358
767.30 0.2356
767.40 0.2355
767.50 0.2354
767.60 0.2353
767.70 0.2352
767.80 0.2351
767.90 0.235
768.00 0.2349
768.10 0.2348
768.20 0.2347
768.30 0.2346
768.40 0.2345
768.50 0.2343
768.60 0.2342
768.70 0.2341
768.80 0.234
768.90 0.2339
769.00 0.2338
769.10 0.2337
769.20 0.2336
769.30 0.2335
769.40 0.2334
769.50 0.2333
769.60 0.2332
769.70 0.233
769.80 0.2329
769.90 0.2328
770.00 0.2327
770.10 0.2326
770.20 0.2325
770.30 0.2324
770.40 0.2323
770.50 0.2322
770.60 0.2321
770.70 0.232
770.80 0.2319
770.90 0.2318
771.00 0.2317
771.10 0.2316
771.20 0.2315
771.30 0.2314
771.40 0.2312
771.50 0.2311
771.60 0.231
771.70 0.2309
771.80 0.2308
771.90 0.2307
772.00 0.2306
772.10 0.2305
772.20 0.2304
772.30 0.2303
772.40 0.2302
772.50 0.2301
772.60 0.23
772.70 0.2299
772.80 0.2298
772.90 0.2297
773.00 0.2296
773.10 0.2295
773.20 0.2294
773.30 0.2293
773.40 0.2291
773.50 0.229
773.60 0.2289
773.70 0.2288
773.80 0.2287
773.90 0.2286
774.00 0.2285
774.10 0.2284
774.20 0.2283
774.30 0.2282
774.40 0.2281
774.50 0.228
774.60 0.2279
774.70 0.2278
774.80 0.2277
774.90 0.2276
775.00 0.2275
775.10 0.2274
775.20 0.2273
775.30 0.2272
775.40 0.2271
775.50 0.227
775.60 0.2269
775.70 0.2268
775.80 0.2267
775.90 0.2266
776.00 0.2264
776.10 0.2263
776.20 0.2262
776.30 0.2261
776.40 0.226
776.50 0.2259
776.60 0.2258
776.70 0.2257
776.80 0.2256
776.90 0.2255
777.00 0.2254
777.10 0.2253
777.20 0.2252
777.30 0.2251
777.40 0.225
777.50 0.2249
777.60 0.2248
777.70 0.2247
777.80 0.2246
777.90 0.2245
778.00 0.2244
778.10 0.2243
778.20 0.2242
778.30 0.2241
778.40 0.224
778.50 0.2239
778.60 0.2238
778.70 0.2237
778.80 0.2236
778.90 0.2235
779.00 0.2234
779.10 0.2233
779.20 0.2232
779.30 0.2231
779.40 0.223
779.50 0.2229
779.60 0.2228
779.70 0.2227
779.80 0.2226
779.90 0.2225
780.00 0.2224
780.10 0.2223
780.20 0.2222
780.30 0.2221
780.40 0.222
780.50 0.2219
780.60 0.2218
780.70 0.2217
780.80 0.2216
780.90 0.2215
781.00 0.2214
781.10 0.2213
781.20 0.2212
781.30 0.2211
781.40 0.221
781.50 0.2209
781.60 0.2208
781.70 0.2207
781.80 0.2206
781.90 0.2205
782.00 0.2204
782.10 0.2203
782.20 0.2202
782.30 0.2201
782.40 0.22
782.50 0.2199
782.60 0.2198
782.70 0.2197
782.80 0.2196
782.90 0.2195
783.00 0.2194
783.10 0.2193
783.20 0.2192
783.30 0.2191
783.40 0.219
783.50 0.2189
783.60 0.2188
783.70 0.2187
783.80 0.2186
783.90 0.2185
784.00 0.2184
784.10 0.2183
784.20 0.2182
784.30 0.2181
784.40 0.218
784.50 0.2179
784.60 0.2178
784.70 0.2177
784.80 0.2176
784.90 0.2175
785.00 0.2174
785.10 0.2173
785.20 0.2172
785.30 0.2171
785.40 0.217
785.50 0.2169
785.60 0.2168
785.70 0.2167
785.80 0.2166
785.90 0.2165
786.00 0.2164
786.10 0.2163
786.20 0.2162
786.30 0.2161
786.40 0.216
786.50 0.2159
786.60 0.2158
786.70 0.2157
786.80 0.2156
786.90 0.2155
787.00 0.2155
787.10 0.2154
787.20 0.2153
787.30 0.2152
787.40 0.2151
787.50 0.215
787.60 0.2149
787.70 0.2148
787.80 0.2147
787.90 0.2146
788.00 0.2145
788.10 0.2144
788.20 0.2143
788.30 0.2142
788.40 0.2141
788.50 0.214
788.60 0.2139
788.70 0.2138
788.80 0.2137
788.90 0.2136
789.00 0.2135
789.10 0.2134
789.20 0.2133
789.30 0.2132
789.40 0.2131
789.50 0.213
789.60 0.2129
789.70 0.2128
789.80 0.2128
789.90 0.2127
790.00 0.2126
790.10 0.2125
790.20 0.2124
790.30 0.2123
790.40 0.2122
790.50 0.2121
790.60 0.212
790.70 0.2119
790.80 0.2118
790.90 0.2117
791.00 0.2116
791.10 0.2115
791.20 0.2114
791.30 0.2113
791.40 0.2112
791.50 0.2111
791.60 0.2111
791.70 0.211
791.80 0.2109
791.90 0.2108
792.00 0.2107
792.10 0.2106
792.20 0.2105
792.30 0.2104
792.40 0.2103
792.50 0.2102
792.60 0.2101
792.70 0.21
792.80 0.2099
792.90 0.2098
793.00 0.2097
793.10 0.2096
793.20 0.2096
793.30 0.2095
793.40 0.2094
793.50 0.2093
793.60 0.2092
793.70 0.2091
793.80 0.209
793.90 0.2089
794.00 0.2088
794.10 0.2087
794.20 0.2086
794.30 0.2085
794.40 0.2084
794.50 0.2083
794.60 0.2083
794.70 0.2082
794.80 0.2081
794.90 0.208
795.00 0.2079
795.10 0.2078
795.20 0.2077
795.30 0.2076
795.40 0.2075
795.50 0.2074
795.60 0.2073
795.70 0.2072
795.80 0.2071
795.90 0.207
796.00 0.207
796.10 0.2069
796.20 0.2068
796.30 0.2067
796.40 0.2066
796.50 0.2065
796.60 0.2064
796.70 0.2063
796.80 0.2062
796.90 0.2061
797.00 0.206
797.10 0.2059
797.20 0.2059
797.30 0.2058
797.40 0.2057
797.50 0.2056
797.60 0.2055
797.70 0.2054
797.80 0.2053
797.90 0.2052
798.00 0.2051
798.10 0.205
798.20 0.2049
798.30 0.2048
798.40 0.2048
798.50 0.2047
798.60 0.2046
798.70 0.2045
798.80 0.2044
798.90 0.2043
799.00 0.2042
799.10 0.2041
799.20 0.204
799.30 0.2039
799.40 0.2038
799.50 0.2038
799.60 0.2037
799.70 0.2036
799.80 0.2035
799.90 0.2034
800.00 0.2033
800.10 0.2032
800.20 0.2031
800.30 0.203
800.40 0.2029
800.50 0.2029
800.60 0.2028
800.70 0.2027
800.80 0.2026
800.90 0.2025
801.00 0.2024
801.10 0.2023
801.20 0.2022
801.30 0.2021
801.40 0.2021
801.50 0.202
801.60 0.2019
801.70 0.2018
801.80 0.2017
801.90 0.2016
802.00 0.2015
802.10 0.2014
802.20 0.2013
802.30 0.2013
802.40 0.2012
802.50 0.2011
802.60 0.201
802.70 0.2009
802.80 0.2008
802.90 0.2007
803.00 0.2006
803.10 0.2005
803.20 0.2005
803.30 0.2004
803.40 0.2003
803.50 0.2002
803.60 0.2001
803.70 0.2
803.80 0.1999
803.90 0.1998
804.00 0.1998
804.10 0.1997
804.20 0.1996
804.30 0.1995
804.40 0.1994
804.50 0.1993
804.60 0.1992
804.70 0.1991
804.80 0.1991
804.90 0.199
805.00 0.1989
805.10 0.1988
805.20 0.1987
805.30 0.1986
805.40 0.1985
805.50 0.1984
805.60 0.1984
805.70 0.1983
805.80 0.1982
805.90 0.1981
806.00 0.198
806.10 0.1979
806.20 0.1978
806.30 0.1977
806.40 0.1977
806.50 0.1976
806.60 0.1975
806.70 0.1974
806.80 0.1973
806.90 0.1972
807.00 0.1971
807.10 0.197
807.20 0.197
807.30 0.1969
807.40 0.1968
807.50 0.1967
807.60 0.1966
807.70 0.1965
807.80 0.1964
807.90 0.1964
808.00 0.1963
808.10 0.1962
808.20 0.1961
808.30 0.196
808.40 0.1959
808.50 0.1958
808.60 0.1957
808.70 0.1957
808.80 0.1956
808.90 0.1955
809.00 0.1954
809.10 0.1953
809.20 0.1952
809.30 0.1951
809.40 0.1951
809.50 0.195
809.60 0.1949
809.70 0.1948
809.80 0.1947
809.90 0.1946
810.00 0.1945
810.10 0.1945
810.20 0.1944
810.30 0.1943
810.40 0.1942
810.50 0.1941
810.60 0.194
810.70 0.194
810.80 0.1939
810.90 0.1938
811.00 0.1937
811.10 0.1936
811.20 0.1935
811.30 0.1934
811.40 0.1934
811.50 0.1933
811.60 0.1932
811.70 0.1931
811.80 0.193
811.90 0.1929
812.00 0.1929
812.10 0.1928
812.20 0.1927
812.30 0.1926
812.40 0.1925
812.50 0.1924
812.60 0.1924
812.70 0.1923
812.80 0.1922
812.90 0.1921
813.00 0.192
813.10 0.1919
813.20 0.1919
813.30 0.1918
813.40 0.1917
813.50 0.1916
813.60 0.1915
813.70 0.1914
813.80 0.1914
813.90 0.1913
814.00 0.1912
814.10 0.1911
814.20 0.191
814.30 0.1909
814.40 0.1909
814.50 0.1908
814.60 0.1907
814.70 0.1906
814.80 0.1905
814.90 0.1904
815.00 0.1904
815.10 0.1903
815.20 0.1902
815.30 0.1901
815.40 0.19
815.50 0.1899
815.60 0.1899
815.70 0.1898
815.80 0.1897
815.90 0.1896
816.00 0.1895
816.10 0.1894
816.20 0.1894
816.30 0.1893
816.40 0.1892
816.50 0.1891
816.60 0.189
816.70 0.189
816.80 0.1889
816.90 0.1888
817.00 0.1887
817.10 0.1886
817.20 0.1885
817.30 0.1885
817.40 0.1884
817.50 0.1883
817.60 0.1882
817.70 0.1881
817.80 0.188
817.90 0.188
818.00 0.1879
818.10 0.1878
818.20 0.1877
818.30 0.1876
818.40 0.1876
818.50 0.1875
818.60 0.1874
818.70 0.1873
818.80 0.1872
818.90 0.1872
819.00 0.1871
819.10 0.187
819.20 0.1869
819.30 0.1868
819.40 0.1867
819.50 0.1867
819.60 0.1866
819.70 0.1865
819.80 0.1864
819.90 0.1863
820.00 0.1863
820.10 0.1862
820.20 0.1861
820.30 0.186
820.40 0.1859
820.50 0.1859
820.60 0.1858
820.70 0.1857
820.80 0.1856
820.90 0.1855
821.00 0.1855
821.10 0.1854
821.20 0.1853
821.30 0.1852
821.40 0.1851
821.50 0.1851
821.60 0.185
821.70 0.1849
821.80 0.1848
821.90 0.1847
822.00 0.1847
822.10 0.1846
822.20 0.1845
822.30 0.1844
822.40 0.1843
822.50 0.1843
822.60 0.1842
822.70 0.1841
822.80 0.184
822.90 0.1839
823.00 0.1839
823.10 0.1838
823.20 0.1837
823.30 0.1836
823.40 0.1835
823.50 0.1835
823.60 0.1834
823.70 0.1833
823.80 0.1832
823.90 0.1832
824.00 0.1831
824.10 0.183
824.20 0.1829
824.30 0.1828
824.40 0.1828
824.50 0.1827
824.60 0.1826
824.70 0.1825
824.80 0.1824
824.90 0.1824
825.00 0.1823
825.10 0.1822
825.20 0.1821
825.30 0.1821
825.40 0.182
825.50 0.1819
825.60 0.1818
825.70 0.1817
825.80 0.1817
825.90 0.1816
826.00 0.1815
826.10 0.1814
826.20 0.1813
826.30 0.1813
826.40 0.1812
826.50 0.1811
826.60 0.181
826.70 0.181
826.80 0.1809
826.90 0.1808
827.00 0.1807
827.10 0.1806
827.20 0.1806
827.30 0.1805
827.40 0.1804
827.50 0.1803
827.60 0.1803
827.70 0.1802
827.80 0.1801
827.90 0.18
828.00 0.1799
828.10 0.1799
828.20 0.1798
828.30 0.1797
828.40 0.1796
828.50 0.1796
828.60 0.1795
828.70 0.1794
828.80 0.1793
828.90 0.1793
829.00 0.1792
829.10 0.1791
829.20 0.179
829.30 0.1789
829.40 0.1789
829.50 0.1788
829.60 0.1787
829.70 0.1786
829.80 0.1786
829.90 0.1785
830.00 0.1784
830.10 0.1783
830.20 0.1783
830.30 0.1782
830.40 0.1781
830.50 0.178
830.60 0.178
830.70 0.1779
830.80 0.1778
830.90 0.1777
831.00 0.1777
831.10 0.1776
831.20 0.1775
831.30 0.1774
831.40 0.1773
831.50 0.1773
831.60 0.1772
831.70 0.1771
831.80 0.177
831.90 0.177
832.00 0.1769
832.10 0.1768
832.20 0.1767
832.30 0.1767
832.40 0.1766
832.50 0.1765
832.60 0.1764
832.70 0.1764
832.80 0.1763
832.90 0.1762
833.00 0.1761
833.10 0.1761
833.20 0.176
833.30 0.1759
833.40 0.1758
833.50 0.1758
833.60 0.1757
833.70 0.1756
833.80 0.1755
833.90 0.1755
834.00 0.1754
834.10 0.1753
834.20 0.1752
834.30 0.1752
834.40 0.1751
834.50 0.175
834.60 0.1749
834.70 0.1749
834.80 0.1748
834.90 0.1747
835.00 0.1746
835.10 0.1746
835.20 0.1745
835.30 0.1744
835.40 0.1743
835.50 0.1743
835.60 0.1742
835.70 0.1741
835.80 0.174
835.90 0.174
836.00 0.1739
836.10 0.1738
836.20 0.1738
836.30 0.1737
836.40 0.1736
836.50 0.1735
836.60 0.1735
836.70 0.1734
836.80 0.1733
836.90 0.1732
837.00 0.1732
837.10 0.1731
837.20 0.173
837.30 0.1729
837.40 0.1729
837.50 0.1728
837.60 0.1727
837.70 0.1726
837.80 0.1726
837.90 0.1725
838.00 0.1724
838.10 0.1724
838.20 0.1723
838.30 0.1722
838.40 0.1721
838.50 0.1721
838.60 0.172
838.70 0.1719
838.80 0.1718
838.90 0.1718
839.00 0.1717
839.10 0.1716
839.20 0.1716
839.30 0.1715
839.40 0.1714
839.50 0.1713
839.60 0.1713
839.70 0.1712
839.80 0.1711
839.90 0.171
840.00 0.171
840.10 0.1709
840.20 0.1708
840.30 0.1708
840.40 0.1707
840.50 0.1706
840.60 0.1705
840.70 0.1705
840.80 0.1704
840.90 0.1703
841.00 0.1703
841.10 0.1702
841.20 0.1701
841.30 0.17
841.40 0.17
841.50 0.1699
841.60 0.1698
841.70 0.1697
841.80 0.1697
841.90 0.1696
842.00 0.1695
842.10 0.1695
842.20 0.1694
842.30 0.1693
842.40 0.1692
842.50 0.1692
842.60 0.1691
842.70 0.169
842.80 0.169
842.90 0.1689
843.00 0.1688
843.10 0.1687
843.20 0.1687
843.30 0.1686
843.40 0.1685
843.50 0.1685
843.60 0.1684
843.70 0.1683
843.80 0.1683
843.90 0.1682
844.00 0.1681
844.10 0.168
844.20 0.168
844.30 0.1679
844.40 0.1678
844.50 0.1678
844.60 0.1677
844.70 0.1676
844.80 0.1675
844.90 0.1675
845.00 0.1674
845.10 0.1673
845.20 0.1673
845.30 0.1672
845.40 0.1671
845.50 0.167
845.60 0.167
845.70 0.1669
845.80 0.1668
845.90 0.1668
846.00 0.1667
846.10 0.1666
846.20 0.1666
846.30 0.1665
846.40 0.1664
846.50 0.1663
846.60 0.1663
846.70 0.1662
846.80 0.1661
846.90 0.1661
847.00 0.166
847.10 0.1659
847.20 0.1659
847.30 0.1658
847.40 0.1657
847.50 0.1657
847.60 0.1656
847.70 0.1655
847.80 0.1655
847.90 0.1654
848.00 0.1653
848.10 0.1653
848.20 0.1652
848.30 0.1652
848.40 0.1651
848.50 0.165
848.60 0.165
848.70 0.1649
848.80 0.1648
848.90 0.1648
849.00 0.1647
849.10 0.1646
849.20 0.1646
849.30 0.1645
849.40 0.1644
849.50 0.1644
849.60 0.1643
849.70 0.1642
849.80 0.1642
849.90 0.1641
850.00 0.164
850.10 0.164
850.20 0.1639
850.30 0.1639
850.40 0.1638
850.50 0.1637
850.60 0.1637
850.70 0.1636
850.80 0.1635
850.90 0.1635
851.00 0.1634
851.10 0.1633
851.20 0.1633
851.30 0.1632
851.40 0.1631
851.50 0.1631
851.60 0.163
851.70 0.163
851.80 0.1629
851.90 0.1628
852.00 0.1628
852.10 0.1627
852.20 0.1626
852.30 0.1626
852.40 0.1625
852.50 0.1624
852.60 0.1624
852.70 0.1623
852.80 0.1623
852.90 0.1622
853.00 0.1621
853.10 0.1621
853.20 0.162
853.30 0.1619
853.40 0.1619
853.50 0.1618
853.60 0.1618
853.70 0.1617
853.80 0.1616
853.90 0.1616
854.00 0.1615
854.10 0.1614
854.20 0.1614
854.30 0.1613
854.40 0.1612
854.50 0.1612
854.60 0.1611
854.70 0.1611
854.80 0.161
854.90 0.1609
855.00 0.1609
855.10 0.1608
855.20 0.1607
855.30 0.1607
855.40 0.1606
855.50 0.1606
855.60 0.1605
855.70 0.1604
855.80 0.1604
855.90 0.1603
856.00 0.1602
856.10 0.1602
856.20 0.1601
856.30 0.1601
856.40 0.16
856.50 0.1599
856.60 0.1599
856.70 0.1598
856.80 0.1597
856.90 0.1597
857.00 0.1596
857.10 0.1596
857.20 0.1595
857.30 0.1594
857.40 0.1594
857.50 0.1593
857.60 0.1593
857.70 0.1592
857.80 0.1591
857.90 0.1591
858.00 0.159
858.10 0.159
858.20 0.1589
858.30 0.1589
858.40 0.1588
858.50 0.1587
858.60 0.1587
858.70 0.1586
858.80 0.1586
858.90 0.1585
859.00 0.1584
859.10 0.1584
859.20 0.1583
859.30 0.1583
859.40 0.1582
859.50 0.1581
859.60 0.1581
859.70 0.158
859.80 0.158
859.90 0.1579
860.00 0.1579
860.10 0.1578
860.20 0.1577
860.30 0.1577
860.40 0.1576
860.50 0.1576
860.60 0.1575
860.70 0.1574
860.80 0.1574
860.90 0.1573
861.00 0.1573
861.10 0.1572
861.20 0.1572
861.30 0.1571
861.40 0.157
861.50 0.157
861.60 0.1569
861.70 0.1569
861.80 0.1568
861.90 0.1567
862.00 0.1567
862.10 0.1566
862.20 0.1566
862.30 0.1565
862.40 0.1564
862.50 0.1564
862.60 0.1563
862.70 0.1563
862.80 0.1562
862.90 0.1562
863.00 0.1561
863.10 0.156
863.20 0.156
863.30 0.1559
863.40 0.1559
863.50 0.1558
863.60 0.1557
863.70 0.1557
863.80 0.1556
863.90 0.1556
864.00 0.1555
864.10 0.1555
864.20 0.1554
864.30 0.1553
864.40 0.1553
864.50 0.1552
864.60 0.1552
864.70 0.1551
864.80 0.155
864.90 0.155
865.00 0.1549
865.10 0.1549
865.20 0.1548
865.30 0.1548
865.40 0.1547
865.50 0.1546
865.60 0.1546
865.70 0.1545
865.80 0.1545
865.90 0.1544
866.00 0.1544
866.10 0.1543
866.20 0.1542
866.30 0.1542
866.40 0.1541
866.50 0.1541
866.60 0.154
866.70 0.1539
866.80 0.1539
866.90 0.1538
867.00 0.1538
867.10 0.1537
867.20 0.1537
867.30 0.1536
867.40 0.1536
867.50 0.1535
867.60 0.1535
867.70 0.1534
867.80 0.1534
867.90 0.1533
868.00 0.1533
868.10 0.1533
868.20 0.1532
868.30 0.1532
868.40 0.1531
868.50 0.1531
868.60 0.153
868.70 0.153
868.80 0.1529
868.90 0.1529
869.00 0.1528
869.10 0.1528
869.20 0.1527
869.30 0.1527
869.40 0.1526
869.50 0.1526
869.60 0.1525
869.70 0.1525
869.80 0.1524
869.90 0.1524
870.00 0.1523
870.10 0.1523
870.20 0.1523
870.30 0.1522
870.40 0.1522
870.50 0.1521
870.60 0.1521
870.70 0.152
870.80 0.152
870.90 0.1519
871.00 0.1519
871.10 0.1518
871.20 0.1518
871.30 0.1517
871.40 0.1517
871.50 0.1516
871.60 0.1516
871.70 0.1515
871.80 0.1515
871.90 0.1515
872.00 0.1514
872.10 0.1514
872.20 0.1513
872.30 0.1512
872.40 0.1512
872.50 0.1511
872.60 0.1511
872.70 0.151
872.80 0.151
872.90 0.1509
873.00 0.1509
873.10 0.1508
873.20 0.1508
873.30 0.1507
873.40 0.1507
873.50 0.1506
873.60 0.1506
873.70 0.1505
873.80 0.1505
873.90 0.1504
874.00 0.1504
874.10 0.1503
874.20 0.1503
874.30 0.1502
874.40 0.1502
874.50 0.1501
874.60 0.15
874.70 0.15
874.80 0.1499
874.90 0.1499
875.00 0.1498
875.10 0.1498
875.20 0.1497
875.30 0.1497
875.40 0.1496
875.50 0.1496
875.60 0.1495
875.70 0.1495
875.80 0.1494
875.90 0.1494
876.00 0.1493
876.10 0.1493
876.20 0.1492
876.30 0.1492
876.40 0.1491
876.50 0.1491
876.60 0.149
876.70 0.149
876.80 0.1489
876.90 0.1489
877.00 0.1488
877.10 0.1488
877.20 0.1487
877.30 0.1487
877.40 0.1486
877.50 0.1486
877.60 0.1486
877.70 0.1485
877.80 0.1485
877.90 0.1484
878.00 0.1484
878.10 0.1484
878.20 0.1483
878.30 0.1483
878.40 0.1482
878.50 0.1482
878.60 0.1482
878.70 0.1481
878.80 0.1481
878.90 0.148
879.00 0.148
879.10 0.148
879.20 0.1479
879.30 0.1479
879.40 0.1478
879.50 0.1478
879.60 0.1478
879.70 0.1477
879.80 0.1477
879.90 0.1476
880.00 0.1476
880.10 0.1476
880.20 0.1475
880.30 0.1475
880.40 0.1474
880.50 0.1474
880.60 0.1474
880.70 0.1473
880.80 0.1473
880.90 0.1472
881.00 0.1472
881.10 0.1472
881.20 0.1471
881.30 0.1471
881.40 0.147
881.50 0.147
881.60 0.147
881.70 0.1469
881.80 0.1469
881.90 0.1468
882.00 0.1468
882.10 0.1467
882.20 0.1466
882.30 0.1466
882.40 0.1465
882.50 0.1464
882.60 0.1463
882.70 0.1462
882.80 0.1462
882.90 0.1461
883.00 0.146
883.10 0.1459
883.20 0.1458
883.30 0.1457
883.40 0.1457
883.50 0.1456
883.60 0.1455
883.70 0.1454
883.80 0.1453
883.90 0.1453
884.00 0.1452
884.10 0.1451
884.20 0.145
884.30 0.1449
884.40 0.1449
884.50 0.1448
884.60 0.1447
884.70 0.1446
884.80 0.1445
884.90 0.1444
885.00 0.1444
885.10 0.1443
885.20 0.1442
885.30 0.1441
885.40 0.144
885.50 0.144
885.60 0.1439
885.70 0.1438
885.80 0.1437
885.90 0.1436
886.00 0.1436
886.10 0.1435
886.20 0.1434
886.30 0.1433
886.40 0.1432
886.50 0.1432
886.60 0.1431
886.70 0.143
886.80 0.1429
886.90 0.1428
887.00 0.1428
887.10 0.1428
887.20 0.1427
887.30 0.1427
887.40 0.1427
887.50 0.1427
887.60 0.1427
887.70 0.1427
887.80 0.1427
887.90 0.1427
888.00 0.1427
888.10 0.1427
888.20 0.1427
888.30 0.1427
888.40 0.1427
888.50 0.1427
888.60 0.1427
888.70 0.1426
888.80 0.1426
888.90 0.1426
889.00 0.1426
889.10 0.1426
889.20 0.1426
889.30 0.1426
889.40 0.1426
889.50 0.1426
889.60 0.1426
889.70 0.1426
889.80 0.1426
889.90 0.1426
890.00 0.1426
890.10 0.1426
890.20 0.1425
890.30 0.1425
890.40 0.1425
890.50 0.1425
890.60 0.1425
890.70 0.1425
890.80 0.1425
890.90 0.1425
891.00 0.1425
891.10 0.1425
891.20 0.1425
891.30 0.1425
891.40 0.1425
891.50 0.1425
891.60 0.1425
891.70 0.1425
891.80 0.1424
891.90 0.1424
892.00 0.1424
892.10 0.1424
892.20 0.1423
892.30 0.1423
892.40 0.1422
892.50 0.1422
892.60 0.1421
892.70 0.1421
892.80 0.142
892.90 0.142
893.00 0.1419
893.10 0.1419
893.20 0.1418
893.30 0.1418
893.40 0.1417
893.50 0.1417
893.60 0.1416
893.70 0.1416
893.80 0.1415
893.90 0.1415
894.00 0.1414
894.10 0.1414
894.20 0.1413
894.30 0.1413
894.40 0.1412
894.50 0.1412
894.60 0.1412
894.70 0.1411
894.80 0.1411
894.90 0.141
895.00 0.141
895.10 0.1409
895.20 0.1409
895.30 0.1408
895.40 0.1408
895.50 0.1407
895.60 0.1407
895.70 0.1406
895.80 0.1406
895.90 0.1405
896.00 0.1405
896.10 0.1404
896.20 0.1404
896.30 0.1403
896.40 0.1403
896.50 0.1402
896.60 0.1402
896.70 0.1401
896.80 0.1401
896.90 0.14
897.00 0.14
897.10 0.1398
897.20 0.1397
897.30 0.1395
897.40 0.1394
897.50 0.1392
897.60 0.1391
897.70 0.1389
897.80 0.1388
897.90 0.1386
898.00 0.1385
898.10 0.1383
898.20 0.1382
898.30 0.138
898.40 0.1379
898.50 0.1377
898.60 0.1376
898.70 0.1374
898.80 0.1373
898.90 0.1371
899.00 0.137
899.10 0.1368
899.20 0.1367
899.30 0.1365
899.40 0.1364
899.50 0.1362
899.60 0.1361
899.70 0.1359
899.80 0.1358
899.90 0.1356
900.00 0.1355
900.10 0.1353
900.20 0.1352
900.30 0.135
900.40 0.1349
900.50 0.1347
900.60 0.1346
900.70 0.1344
900.80 0.1343
900.90 0.1341
901.00 0.134
901.10 0.1338
901.20 0.1337
901.30 0.1335
901.40 0.1334
901.50 0.1332
901.60 0.1331
901.70 0.133
901.80 0.1328
901.90 0.1327
902.00 0.1325
902.10 0.1325
902.20 0.1326
902.30 0.1326
902.40 0.1327
902.50 0.1327
902.60 0.1327
902.70 0.1328
902.80 0.1328
902.90 0.1329
903.00 0.1329
903.10 0.1329
903.20 0.133
903.30 0.133
903.40 0.1331
903.50 0.1331
903.60 0.1331
903.70 0.1332
903.80 0.1332
903.90 0.1333
904.00 0.1333
904.10 0.1333
904.20 0.1334
904.30 0.1334
904.40 0.1335
904.50 0.1335
904.60 0.1335
904.70 0.1336
904.80 0.1336
904.90 0.1336
905.00 0.1337
905.10 0.1337
905.20 0.1338
905.30 0.1338
905.40 0.1338
905.50 0.1339
905.60 0.1339
905.70 0.134
905.80 0.134
905.90 0.134
906.00 0.1341
906.10 0.1341
906.20 0.1342
906.30 0.1342
906.40 0.1342
906.50 0.1343
906.60 0.1343
906.70 0.1343
906.80 0.1344
906.90 0.1344
907.00 0.1345
907.10 0.1344
907.20 0.1344
907.30 0.1344
907.40 0.1344
907.50 0.1344
907.60 0.1344
907.70 0.1344
907.80 0.1343
907.90 0.1343
908.00 0.1343
908.10 0.1343
908.20 0.1343
908.30 0.1343
908.40 0.1342
908.50 0.1342
908.60 0.1342
908.70 0.1342
908.80 0.1342
908.90 0.1342
909.00 0.1342
909.10 0.1341
909.20 0.1341
909.30 0.1341
909.40 0.1341
909.50 0.1341
909.60 0.1341
909.70 0.1341
909.80 0.134
909.90 0.134
910.00 0.134
910.10 0.134
910.20 0.134
910.30 0.134
910.40 0.1339
910.50 0.1339
910.60 0.1339
910.70 0.1339
910.80 0.1339
910.90 0.1339
911.00 0.1339
911.10 0.1338
911.20 0.1338
911.30 0.1338
911.40 0.1338
911.50 0.1338
911.60 0.1338
911.70 0.1337
911.80 0.1337
911.90 0.1337
912.00 0.1337
912.10 0.1336
912.20 0.1335
912.30 0.1334
912.40 0.1334
912.50 0.1333
912.60 0.1332
912.70 0.1331
912.80 0.133
912.90 0.1329
913.00 0.1328
913.10 0.1327
913.20 0.1327
913.30 0.1326
913.40 0.1325
913.50 0.1324
913.60 0.1323
913.70 0.1322
913.80 0.1321
913.90 0.1321
914.00 0.132
914.10 0.1319
914.20 0.1318
914.30 0.1317
914.40 0.1316
914.50 0.1315
914.60 0.1314
914.70 0.1314
914.80 0.1313
914.90 0.1312
915.00 0.1311
915.10 0.131
915.20 0.1309
915.30 0.1308
915.40 0.1308
915.50 0.1307
915.60 0.1306
915.70 0.1305
915.80 0.1304
915.90 0.1303
916.00 0.1302
916.10 0.1302
916.20 0.1301
916.30 0.13
916.40 0.1299
916.50 0.1298
916.60 0.1297
916.70 0.1296
916.80 0.1296
916.90 0.1295
917.00 0.1294
917.10 0.1292
917.20 0.129
917.30 0.1288
917.40 0.1286
917.50 0.1285
917.60 0.1283
917.70 0.1281
917.80 0.1279
917.90 0.1277
918.00 0.1275
918.10 0.1273
918.20 0.1272
918.30 0.127
918.40 0.1268
918.50 0.1266
918.60 0.1264
918.70 0.1262
918.80 0.126
918.90 0.1259
919.00 0.1257
919.10 0.1255
919.20 0.1253
919.30 0.1251
919.40 0.1249
919.50 0.1248
919.60 0.1246
919.70 0.1244
919.80 0.1242
919.90 0.124
920.00 0.1238
920.10 0.1237
920.20 0.1235
920.30 0.1233
920.40 0.1231
920.50 0.1229
920.60 0.1227
920.70 0.1226
920.80 0.1224
920.90 0.1222
921.00 0.122
921.10 0.1218
921.20 0.1216
921.30 0.1215
921.40 0.1213
921.50 0.1211
921.60 0.1209
921.70 0.1207
921.80 0.1205
921.90 0.1204
922.00 0.1202
922.10 0.1201
922.20 0.12
922.30 0.1199
922.40 0.1199
922.50 0.1198
922.60 0.1197
922.70 0.1196
922.80 0.1196
922.90 0.1195
923.00 0.1194
923.10 0.1193
923.20 0.1192
923.30 0.1192
923.40 0.1191
923.50 0.119
923.60 0.1189
923.70 0.1189
923.80 0.1188
923.90 0.1187
924.00 0.1186
924.10 0.1185
924.20 0.1185
924.30 0.1184
924.40 0.1183
924.50 0.1182
924.60 0.1182
924.70 0.1181
924.80 0.118
924.90 0.1179
925.00 0.1178
925.10 0.1178
925.20 0.1177
925.30 0.1176
925.40 0.1175
925.50 0.1175
925.60 0.1174
925.70 0.1173
925.80 0.1172
925.90 0.1171
926.00 0.1171
926.10 0.117
926.20 0.1169
926.30 0.1168
926.40 0.1168
926.50 0.1167
926.60 0.1166
926.70 0.1165
926.80 0.1164
926.90 0.1164
927.00 0.1163
927.10 0.1164
927.20 0.1165
927.30 0.1166
927.40 0.1166
927.50 0.1167
927.60 0.1168
927.70 0.1169
927.80 0.117
927.90 0.1171
928.00 0.1172
928.10 0.1173
928.20 0.1174
928.30 0.1174
928.40 0.1175
928.50 0.1176
928.60 0.1177
928.70 0.1178
928.80 0.1179
928.90 0.118
929.00 0.1181
929.10 0.1181
929.20 0.1182
929.30 0.1183
929.40 0.1184
929.50 0.1185
929.60 0.1186
929.70 0.1187
929.80 0.1188
929.90 0.1188
930.00 0.1189
930.10 0.119
930.20 0.1191
930.30 0.1192
930.40 0.1193
930.50 0.1194
930.60 0.1195
930.70 0.1195
930.80 0.1196
930.90 0.1197
931.00 0.1198
931.10 0.1199
931.20 0.12
931.30 0.1201
931.40 0.1202
931.50 0.1202
931.60 0.1203
931.70 0.1204
931.80 0.1205
931.90 0.1206
932.00 0.1207
932.10 0.1207
932.20 0.1207
932.30 0.1207
932.40 0.1208
932.50 0.1208
932.60 0.1208
932.70 0.1208
932.80 0.1209
932.90 0.1209
933.00 0.1209
933.10 0.1209
933.20 0.121
933.30 0.121
933.40 0.121
933.50 0.121
933.60 0.1211
933.70 0.1211
933.80 0.1211
933.90 0.1211
934.00 0.1212
934.10 0.1212
934.20 0.1212
934.30 0.1212
934.40 0.1212
934.50 0.1212
934.60 0.1212
934.70 0.1212
934.80 0.1212
934.90 0.1212
935.00 0.1211
935.10 0.1211
935.20 0.1211
935.30 0.1211
935.40 0.1211
935.50 0.1211
935.60 0.1211
935.70 0.1211
935.80 0.1211
935.90 0.121
936.00 0.121
936.10 0.121
936.20 0.121
936.30 0.121
936.40 0.121
936.50 0.121
936.60 0.121
936.70 0.1209
936.80 0.1209
936.90 0.1209
937.00 0.1209
937.10 0.1209
937.20 0.1208
937.30 0.1208
937.40 0.1208
937.50 0.1207
937.60 0.1207
937.70 0.1207
937.80 0.1206
937.90 0.1206
938.00 0.1205
938.10 0.1205
938.20 0.1205
938.30 0.1204
938.40 0.1204
938.50 0.1203
938.60 0.1203
938.70 0.1202
938.80 0.1201
938.90 0.1201
939.00 0.12
939.10 0.12
939.20 0.1199
939.30 0.1199
939.40 0.1198
939.50 0.1197
939.60 0.1197
939.70 0.1196
939.80 0.1196
939.90 0.1195
940.00 0.1195
940.10 0.1194
940.20 0.1193
940.30 0.1193
940.40 0.1192
940.50 0.1191
940.60 0.119
940.70 0.1189
940.80 0.1189
940.90 0.1188
941.00 0.1187
941.10 0.1186
941.20 0.1185
941.30 0.1184
941.40 0.1184
941.50 0.1183
941.60 0.1182
941.70 0.1181
941.80 0.118
941.90 0.1179
942.00 0.1179
942.10 0.1178
942.20 0.1177
942.30 0.1176
942.40 0.1174
942.50 0.1173
942.60 0.1172
942.70 0.1171
942.80 0.1169
942.90 0.1168
943.00 0.1167
943.10 0.1166
943.20 0.1164
943.30 0.1163
943.40 0.1162
943.50 0.1161
943.60 0.1159
943.70 0.1158
943.80 0.1157
943.90 0.1156
944.00 0.1155
944.10 0.1153
944.20 0.1152
944.30 0.1151
944.40 0.1149
944.50 0.1148
944.60 0.1146
944.70 0.1145
944.80 0.1143
944.90 0.1141
945.00 0.114
945.10 0.1138
945.20 0.1137
945.30 0.1135
945.40 0.1133
945.50 0.1131
945.60 0.1129
945.70 0.1127
945.80 0.1126
945.90 0.1124
946.00 0.1122
946.10 0.112
946.20 0.1118
946.30 0.1116
946.40 0.1114
946.50 0.1112
946.60 0.111
946.70 0.1108
946.80 0.1107
946.90 0.1105
947.00 0.1103
947.10 0.1101
947.20 0.1098
947.30 0.1096
947.40 0.1094
947.50 0.1092
947.60 0.1089
947.70 0.1087
947.80 0.1084
947.90 0.1082
948.00 0.108
948.10 0.1077
948.20 0.1075
948.30 0.1072
948.40 0.107
948.50 0.1068
948.60 0.1065
948.70 0.1063
948.80 0.1061
948.90 0.1058
949.00 0.1056
949.10 0.1053
949.20 0.1051
949.30 0.1049
949.40 0.1046
949.50 0.1044
949.60 0.1041
949.70 0.1038
949.80 0.1036
949.90 0.1033
950.00 0.1031
950.10 0.1028
950.20 0.1026
950.30 0.1023
950.40 0.1021
950.50 0.1018
950.60 0.1016
950.70 0.1013
950.80 0.101
950.90 0.1008
951.00 0.1005
951.10 0.1003
951.20 0.1
951.30 0.09977
951.40 0.09953
951.50 0.0993
951.60 0.09906
951.70 0.09882
951.80 0.09859
951.90 0.09835
952.00 0.09812
952.10 0.09792
952.20 0.09773
952.30 0.09753
952.40 0.09734
952.50 0.09715
952.60 0.09695
952.70 0.09676
952.80 0.09656
952.90 0.09647
953.00 0.09638
953.10 0.09628
953.20 0.09619
953.30 0.09609
953.40 0.096
953.50 0.09591
953.60 0.09617
953.70 0.09644
953.80 0.09671
953.90 0.09698
954.00 0.09771
954.10 0.09845
954.20 0.09934
954.30 0.09911
954.40 0.09767
954.50 0.09681
954.60 0.09611
954.70 0.09541
954.80 0.09513
954.90 0.09485
955.00 0.09456
955.10 0.09429
955.20 0.09431
955.30 0.09432
955.40 0.09434
955.50 0.09436
955.60 0.09438
955.70 0.0944
955.80 0.09441
955.90 0.09454
956.00 0.09466
956.10 0.09479
956.20 0.09491
956.30 0.09503
956.40 0.09516
956.50 0.09528
956.60 0.09541
956.70 0.09553
956.80 0.09565
956.90 0.09578
957.00 0.0959
957.10 0.09605
957.20 0.0962
957.30 0.09635
957.40 0.0965
957.50 0.09665
957.60 0.0968
957.70 0.09695
957.80 0.0971
957.90 0.09725
958.00 0.0974
958.10 0.09755
958.20 0.0977
958.30 0.09785
958.40 0.098
958.50 0.09815
958.60 0.0983
958.70 0.09844
958.80 0.09859
958.90 0.09874
959.00 0.09889
959.10 0.09904
959.20 0.09919
959.30 0.09934
959.40 0.09947
959.50 0.0996
959.60 0.09972
959.70 0.09985
959.80 0.09998
959.90 0.1001
960.00 0.1002
960.10 0.1004
960.20 0.1005
960.30 0.1006
960.40 0.1007
960.50 0.1009
960.60 0.101
960.70 0.1011
960.80 0.1013
960.90 0.1014
961.00 0.1015
961.10 0.1016
961.20 0.1018
961.30 0.1019
961.40 0.102
961.50 0.1021
961.60 0.1022
961.70 0.1023
961.80 0.1024
961.90 0.1025
962.00 0.1026
962.10 0.1027
962.20 0.1028
962.30 0.1029
962.40 0.103
962.50 0.1031
962.60 0.1032
962.70 0.1033
962.80 0.1034
962.90 0.1034
963.00 0.1035
963.10 0.1036
963.20 0.1037
963.30 0.1038
963.40 0.1039
963.50 0.104
963.60 0.104
963.70 0.1041
963.80 0.1042
963.90 0.1043
964.00 0.1043
964.10 0.1044
964.20 0.1045
964.30 0.1046
964.40 0.1046
964.50 0.1047
964.60 0.1047
964.70 0.1048
964.80 0.1048
964.90 0.1049
965.00 0.1049
965.10 0.105
965.20 0.105
965.30 0.1051
965.40 0.1051
965.50 0.1052
965.60 0.1053
965.70 0.1053
965.80 0.1054
965.90 0.1054
966.00 0.1055
966.10 0.1055
966.20 0.1056
966.30 0.1056
966.40 0.1057
966.50 0.1057
966.60 0.1057
966.70 0.1058
966.80 0.1058
966.90 0.1059
967.00 0.1059
967.10 0.1059
967.20 0.1059
967.30 0.106
967.40 0.106
967.50 0.106
967.60 0.1061
967.70 0.1061
967.80 0.1061
967.90 0.1061
968.00 0.1062
968.10 0.1062
968.20 0.1062
968.30 0.1062
968.40 0.1063
968.50 0.1063
968.60 0.1063
968.70 0.1063
968.80 0.1063
968.90 0.1063
969.00 0.1063
969.10 0.1064
969.20 0.1064
969.30 0.1064
969.40 0.1064
969.50 0.1064
969.60 0.1064
969.70 0.1064
969.80 0.1064
969.90 0.1065
970.00 0.1065
970.10 0.1065
970.20 0.1065
970.30 0.1065
970.40 0.1065
970.50 0.1065
970.60 0.1065
970.70 0.1065
970.80 0.1065
970.90 0.1065
971.00 0.1065
971.10 0.1065
971.20 0.1065
971.30 0.1065
971.40 0.1065
971.50 0.1065
971.60 0.1065
971.70 0.1065
971.80 0.1065
971.90 0.1065
972.00 0.1065
972.10 0.1065
972.20 0.1065
972.30 0.1065
972.40 0.1064
972.50 0.1064
972.60 0.1064
972.70 0.1064
972.80 0.1064
972.90 0.1064
973.00 0.1064
973.10 0.1063
973.20 0.1063
973.30 0.1063
973.40 0.1063
973.50 0.1063
973.60 0.1063
973.70 0.1063
973.80 0.1063
973.90 0.1062
974.00 0.1062
974.10 0.1062
974.20 0.1062
974.30 0.1062
974.40 0.1062
974.50 0.1061
974.60 0.1061
974.70 0.1061
974.80 0.1061
974.90 0.106
975.00 0.106
975.10 0.106
975.20 0.106
975.30 0.1059
975.40 0.1059
975.50 0.1059
975.60 0.1059
975.70 0.1058
975.80 0.1058
975.90 0.1058
976.00 0.1057
976.10 0.1057
976.20 0.1057
976.30 0.1057
976.40 0.1056
976.50 0.1056
976.60 0.1056
976.70 0.1056
976.80 0.1055
976.90 0.1055
977.00 0.1055
977.10 0.1055
977.20 0.1054
977.30 0.1054
977.40 0.1053
977.50 0.1053
977.60 0.1052
977.70 0.1052
977.80 0.1052
977.90 0.1051
978.00 0.1051
978.10 0.105
978.20 0.105
978.30 0.105
978.40 0.1049
978.50 0.1049
978.60 0.1048
978.70 0.1048
978.80 0.1047
978.90 0.1047
979.00 0.1047
979.10 0.1046
979.20 0.1046
979.30 0.1045
979.40 0.1045
979.50 0.1045
979.60 0.1044
979.70 0.1044
979.80 0.1043
979.90 0.1043
980.00 0.1042
980.10 0.1042
980.20 0.1042
980.30 0.1041
980.40 0.1041
980.50 0.104
980.60 0.104
980.70 0.104
980.80 0.1039
980.90 0.1039
981.00 0.1038
981.10 0.1038
981.20 0.1037
981.30 0.1037
981.40 0.1037
981.50 0.1036
981.60 0.1036
981.70 0.1035
981.80 0.1035
981.90 0.1035
982.00 0.1034
982.10 0.1034
982.20 0.1033
982.30 0.1032
982.40 0.1032
982.50 0.1031
982.60 0.1031
982.70 0.103
982.80 0.103
982.90 0.1029
983.00 0.1028
983.10 0.1028
983.20 0.1027
983.30 0.1027
983.40 0.1026
983.50 0.1025
983.60 0.1025
983.70 0.1024
983.80 0.1024
983.90 0.1023
984.00 0.1023
984.10 0.1022
984.20 0.1021
984.30 0.1021
984.40 0.102
984.50 0.102
984.60 0.1019
984.70 0.1018
984.80 0.1018
984.90 0.1017
985.00 0.1016
985.10 0.1016
985.20 0.1015
985.30 0.1014
985.40 0.1014
985.50 0.1013
985.60 0.1012
985.70 0.1011
985.80 0.1011
985.90 0.101
986.00 0.1009
986.10 0.1009
986.20 0.1008
986.30 0.1007
986.40 0.1006
986.50 0.1006
986.60 0.1005
986.70 0.1004
986.80 0.1004
986.90 0.1003
987.00 0.1002
987.10 0.1001
987.20 0.1001
987.30 0.09997
987.40 0.09989
987.50 0.09981
987.60 0.09972
987.70 0.09964
987.80 0.09956
987.90 0.09947
988.00 0.09939
988.10 0.09931
988.20 0.09922
988.30 0.09914
988.40 0.09906
988.50 0.09897
988.60 0.09889
988.70 0.0988
988.80 0.0987
988.90 0.09861
989.00 0.09851
989.10 0.09841
989.20 0.09832
989.30 0.09822
989.40 0.09812
989.50 0.09803
989.60 0.09793
989.70 0.09783
989.80 0.09774
989.90 0.09764
990.00 0.09755
990.10 0.09745
990.20 0.09735
990.30 0.09726
990.40 0.09716
990.50 0.09707
990.60 0.09697
990.70 0.09686
990.80 0.09675
990.90 0.09664
991.00 0.09653
991.10 0.09642
991.20 0.09631
991.30 0.0962
991.40 0.09609
991.50 0.09598
991.60 0.09587
991.70 0.09576
991.80 0.09565
991.90 0.09554
992.00 0.09543
992.10 0.09531
992.20 0.09519
992.30 0.09507
992.40 0.09495
992.50 0.09483
992.60 0.09471
992.70 0.09458
992.80 0.09444
992.90 0.09431
993.00 0.09418
993.10 0.09404
993.20 0.09391
993.30 0.09378
993.40 0.09364
993.50 0.09351
993.60 0.09338
993.70 0.09324
993.80 0.09311
993.90 0.09298
994.00 0.09284
994.10 0.09271
994.20 0.09258
994.30 0.09244
994.40 0.09231
994.50 0.09218
994.60 0.09204
994.70 0.0919
994.80 0.09175
994.90 0.0916
995.00 0.09145
995.10 0.0913
995.20 0.09115
995.30 0.091
995.40 0.09085
995.50 0.0907
995.60 0.09055
995.70 0.09039
995.80 0.09022
995.90 0.09006
996.00 0.08989
996.10 0.08973
996.20 0.08956
996.30 0.0894
996.40 0.08923
996.50 0.08907
996.60 0.08891
996.70 0.08874
996.80 0.08858
996.90 0.08841
997.00 0.08825
997.10 0.08807
997.20 0.08789
997.30 0.08772
997.40 0.08754
997.50 0.08736
997.60 0.08718
997.70 0.08699
997.80 0.0868
997.90 0.0866
998.00 0.08641
998.10 0.08621
998.20 0.08602
998.30 0.08582
998.40 0.08563
998.50 0.08543
998.60 0.08524
998.70 0.08504
998.80 0.08485
998.90 0.08466
999.00 0.08446
999.10 0.08427
999.20 0.08407
999.30 0.08388
999.40 0.08368
999.50 0.08349
999.60 0.0833
999.70 0.08308
999.80 0.08287
999.90 0.08265
1000.00 0.08243
1000.10 0.08221
1000.20 0.08199
1000.30 0.08178
1000.40 0.08156
1000.50 0.08134
1000.60 0.08112
1000.70 0.08091
1000.80 0.08069
1000.90 0.08047
1001.00 0.08025
1001.10 0.08004
1001.20 0.07982
1001.30 0.0796
1001.40 0.07939
1001.50 0.07917
1001.60 0.07895
1001.70 0.07873
1001.80 0.0785
1001.90 0.07828
1002.00 0.07805
1002.10 0.07782
1002.20 0.0776
1002.30 0.07738
1002.40 0.07715
1002.50 0.07693
1002.60 0.0767
1002.70 0.07648
1002.80 0.07626
1002.90 0.07603
1003.00 0.07581
1003.10 0.07559
1003.20 0.07538
1003.30 0.07519
1003.40 0.07499
1003.50 0.07479
1003.60 0.0746
1003.70 0.0744
1003.80 0.07421
1003.90 0.07409
1004.00 0.074
1004.10 0.07391
1004.20 0.07382
1004.30 0.07398
1004.40 0.07423
1004.50 0.0747
1004.60 0.07545
1004.70 0.07503
1004.80 0.07429
1004.90 0.07398
1005.00 0.07368
1005.10 0.07364
1005.20 0.07368
1005.30 0.07373
1005.40 0.07377
1005.50 0.07389
1005.60 0.07404
1005.70 0.07419
1005.80 0.07433
1005.90 0.07448
1006.00 0.07462
1006.10 0.07477
1006.20 0.07493
1006.30 0.0751
1006.40 0.07527
1006.50 0.07544
1006.60 0.07561
1006.70 0.07578
1006.80 0.07595
1006.90 0.07612
1007.00 0.07629
1007.10 0.07646
1007.20 0.07663
1007.30 0.0768
1007.40 0.07697
1007.50 0.07714
1007.60 0.07731
1007.70 0.07747
1007.80 0.07763
1007.90 0.07779
1008.00 0.07795
1008.10 0.07811
1008.20 0.07826
1008.30 0.07842
1008.40 0.07858
1008.50 0.07874
1008.60 0.07889
1008.70 0.07905
1008.80 0.07921
1008.90 0.07936
1009.00 0.07952
1009.10 0.07968
1009.20 0.07984
1009.30 0.07999
1009.40 0.08015
1009.50 0.08031
1009.60 0.08046
1009.70 0.0806
1009.80 0.08073
1009.90 0.08086
1010.00 0.08099
1010.10 0.08112
1010.20 0.08125
1010.30 0.08138
1010.40 0.08151
1010.50 0.08164
1010.60 0.08177
1010.70 0.0819
1010.80 0.08202
1010.90 0.08215
1011.00 0.08228
1011.10 0.08241
1011.20 0.08254
1011.30 0.08267
1011.40 0.0828
1011.50 0.08293
1011.60 0.08306
1011.70 0.08317
1011.80 0.08328
1011.90 0.0834
1012.00 0.08351
1012.10 0.08361
1012.20 0.0837
1012.30 0.0838
1012.40 0.0839
1012.50 0.084
1012.60 0.08409
1012.70 0.08419
1012.80 0.08429
1012.90 0.08439
1013.00 0.08448
1013.10 0.08458
1013.20 0.08468
1013.30 0.08478
1013.40 0.08487
1013.50 0.08497
1013.60 0.08507
1013.70 0.08515
1013.80 0.08523
1013.90 0.08531
1014.00 0.08539
1014.10 0.08547
1014.20 0.08555
1014.30 0.08563
1014.40 0.08571
1014.50 0.08579
1014.60 0.08587
1014.70 0.08594
1014.80 0.086
1014.90 0.08607
1015.00 0.08613
1015.10 0.08619
1015.20 0.08625
1015.30 0.08632
1015.40 0.08638
1015.50 0.08644
1015.60 0.0865
1015.70 0.08657
1015.80 0.08663
1015.90 0.08669
1016.00 0.08675
1016.10 0.08682
1016.20 0.08688
1016.30 0.08694
1016.40 0.087
1016.50 0.08707
1016.60 0.08713
1016.70 0.08718
1016.80 0.08723
1016.90 0.08728
1017.00 0.08733
1017.10 0.08737
1017.20 0.08741
1017.30 0.08745
1017.40 0.08749
1017.50 0.08753
1017.60 0.08757
1017.70 0.08762
1017.80 0.08766
1017.90 0.0877
1018.00 0.08774
1018.10 0.08778
1018.20 0.08782
1018.30 0.08786
1018.40 0.0879
1018.50 0.08794
1018.60 0.08798
1018.70 0.08801
1018.80 0.08804
1018.90 0.08806
1019.00 0.08809
1019.10 0.08812
1019.20 0.08814
1019.30 0.08817
1019.40 0.08819
1019.50 0.08822
1019.60 0.08825
1019.70 0.08827
1019.80 0.0883
1019.90 0.08833
1020.00 0.08835
1020.10 0.08838
1020.20 0.0884
1020.30 0.08843
1020.40 0.08846
1020.50 0.08848
1020.60 0.08851
1020.70 0.08853
1020.80 0.08854
1020.90 0.08856
1021.00 0.08857
1021.10 0.08859
1021.20 0.0886
1021.30 0.08862
1021.40 0.08863
1021.50 0.08864
1021.60 0.08866
1021.70 0.08867
1021.80 0.08869
1021.90 0.0887
1022.00 0.08872
1022.10 0.08872
1022.20 0.08873
1022.30 0.08873
1022.40 0.08874
1022.50 0.08874
1022.60 0.08875
1022.70 0.08875
1022.80 0.08876
1022.90 0.08876
1023.00 0.08877
1023.10 0.08877
1023.20 0.08878
1023.30 0.08878
1023.40 0.08879
1023.50 0.08879
1023.60 0.0888
1023.70 0.0888
1023.80 0.0888
1023.90 0.08881
1024.00 0.08881
1024.10 0.08882
1024.20 0.08882
1024.30 0.08883
1024.40 0.08883
1024.50 0.08884
1024.60 0.08884
1024.70 0.08884
1024.80 0.08883
1024.90 0.08883
1025.00 0.08882
1025.10 0.08882
1025.20 0.08881
1025.30 0.08881
1025.40 0.0888
1025.50 0.0888
1025.60 0.08879
1025.70 0.08878
1025.80 0.08878
1025.90 0.08877
1026.00 0.08877
1026.10 0.08876
1026.20 0.08876
1026.30 0.08875
1026.40 0.08875
1026.50 0.08874
1026.60 0.08873
1026.70 0.08873
1026.80 0.08872
1026.90 0.08872
1027.00 0.08871
1027.10 0.0887
1027.20 0.08868
1027.30 0.08867
1027.40 0.08865
1027.50 0.08864
1027.60 0.08862
1027.70 0.08861
1027.80 0.08859
1027.90 0.08858
1028.00 0.08857
1028.10 0.08855
1028.20 0.08854
1028.30 0.08852
1028.40 0.08851
1028.50 0.08849
1028.60 0.08848
1028.70 0.08846
1028.80 0.08845
1028.90 0.08843
1029.00 0.08842
1029.10 0.0884
1029.20 0.08839
1029.30 0.08837
1029.40 0.08836
1029.50 0.08834
1029.60 0.08833
1029.70 0.08832
1029.80 0.0883
1029.90 0.08829
1030.00 0.08827
1030.10 0.08826
1030.20 0.08824
1030.30 0.08823
1030.40 0.08821
1030.50 0.0882
1030.60 0.08818
1030.70 0.08817
1030.80 0.08815
1030.90 0.08814
1031.00 0.08813
1031.10 0.08811
1031.20 0.0881
1031.30 0.08808
1031.40 0.08807
1031.50 0.08805
1031.60 0.08804
1031.70 0.08802
1031.80 0.08801
1031.90 0.08799
1032.00 0.08798
1032.10 0.08796
1032.20 0.08794
1032.30 0.08791
1032.40 0.08789
1032.50 0.08787
1032.60 0.08785
1032.70 0.08782
1032.80 0.0878
1032.90 0.08778
1033.00 0.08776
1033.10 0.08773
1033.20 0.08771
1033.30 0.08769
1033.40 0.08767
1033.50 0.08765
1033.60 0.08762
1033.70 0.0876
1033.80 0.08758
1033.90 0.08756
1034.00 0.08754
1034.10 0.08751
1034.20 0.08749
1034.30 0.08747
1034.40 0.08745
1034.50 0.08742
1034.60 0.0874
1034.70 0.08738
1034.80 0.08736
1034.90 0.08734
1035.00 0.08731
1035.10 0.08729
1035.20 0.08727
1035.30 0.08725
1035.40 0.08723
1035.50 0.0872
1035.60 0.08718
1035.70 0.08716
1035.80 0.08714
1035.90 0.08712
1036.00 0.08709
1036.10 0.08707
1036.20 0.08705
1036.30 0.08703
1036.40 0.08701
1036.50 0.08698
1036.60 0.08696
1036.70 0.08694
1036.80 0.08692
1036.90 0.0869
1037.00 0.08687
1037.10 0.08685
1037.20 0.08682
1037.30 0.0868
1037.40 0.08677
1037.50 0.08674
1037.60 0.08672
1037.70 0.08669
1037.80 0.08667
1037.90 0.08664
1038.00 0.08661
1038.10 0.08659
1038.20 0.08656
1038.30 0.08654
1038.40 0.08651
1038.50 0.08648
1038.60 0.08646
1038.70 0.08643
1038.80 0.08641
1038.90 0.08638
1039.00 0.08635
1039.10 0.08633
1039.20 0.0863
1039.30 0.08628
1039.40 0.08625
1039.50 0.08622
1039.60 0.0862
1039.70 0.08617
1039.80 0.08615
1039.90 0.08612
1040.00 0.0861
1040.10 0.08607
1040.20 0.08604
1040.30 0.08602
1040.40 0.08599
1040.50 0.08597
1040.60 0.08594
1040.70 0.08592
1040.80 0.08589
1040.90 0.08586
1041.00 0.08584
1041.10 0.08581
1041.20 0.08579
1041.30 0.08576
1041.40 0.08574
1041.50 0.08571
1041.60 0.08568
1041.70 0.08566
1041.80 0.08563
1041.90 0.08561
1042.00 0.08558
1042.10 0.08555
1042.20 0.08552
1042.30 0.0855
1042.40 0.08547
1042.50 0.08544
1042.60 0.08541
1042.70 0.08538
1042.80 0.08536
1042.90 0.08533
1043.00 0.0853
1043.10 0.08527
1043.20 0.08524
1043.30 0.08522
1043.40 0.08519
1043.50 0.08516
1043.60 0.08513
1043.70 0.0851
1043.80 0.08507
1043.90 0.08505
1044.00 0.08502
1044.10 0.08499
1044.20 0.08496
1044.30 0.08493
1044.40 0.08491
1044.50 0.08488
1044.60 0.08485
1044.70 0.08482
1044.80 0.08479
1044.90 0.08477
1045.00 0.08474
1045.10 0.08471
1045.20 0.08468
1045.30 0.08466
1045.40 0.08463
1045.50 0.0846
1045.60 0.08457
1045.70 0.08454
1045.80 0.08452
1045.90 0.08449
1046.00 0.08446
1046.10 0.08443
1046.20 0.0844
1046.30 0.08438
1046.40 0.08435
1046.50 0.08432
1046.60 0.08429
1046.70 0.08427
1046.80 0.08424
1046.90 0.08421
1047.00 0.08418
1047.10 0.08415
1047.20 0.08412
1047.30 0.08409
1047.40 0.08406
1047.50 0.08403
1047.60 0.084
1047.70 0.08398
1047.80 0.08395
1047.90 0.08392
1048.00 0.08389
1048.10 0.08386
1048.20 0.08383
1048.30 0.0838
1048.40 0.08377
1048.50 0.08374
1048.60 0.08371
1048.70 0.08368
1048.80 0.08365
1048.90 0.08362
1049.00 0.08359
1049.10 0.08356
1049.20 0.08353
1049.30 0.0835
1049.40 0.08347
1049.50 0.08345
1049.60 0.08342
1049.70 0.08339
1049.80 0.08336
1049.90 0.08333
1050.00 0.0833
1050.10 0.08327
1050.20 0.08324
1050.30 0.08321
1050.40 0.08318
1050.50 0.08315
1050.60 0.08312
1050.70 0.08309
1050.80 0.08306
1050.90 0.08304
1051.00 0.08301
1051.10 0.08298
1051.20 0.08295
1051.30 0.08292
1051.40 0.08289
1051.50 0.08286
1051.60 0.08283
1051.70 0.0828
1051.80 0.08277
1051.90 0.08274
1052.00 0.08271
1052.10 0.08268
1052.20 0.08265
1052.30 0.08262
1052.40 0.08259
1052.50 0.08256
1052.60 0.08253
1052.70 0.0825
1052.80 0.08247
1052.90 0.08244
1053.00 0.0824
1053.10 0.08237
1053.20 0.08234
1053.30 0.08231
1053.40 0.08228
1053.50 0.08225
1053.60 0.08222
1053.70 0.08219
1053.80 0.08216
1053.90 0.08213
1054.00 0.0821
1054.10 0.08206
1054.20 0.08203
1054.30 0.082
1054.40 0.08197
1054.50 0.08194
1054.60 0.08191
1054.70 0.08188
1054.80 0.08185
1054.90 0.08182
1055.00 0.08179
1055.10 0.08176
1055.20 0.08173
1055.30 0.08169
1055.40 0.08166
1055.50 0.08163
1055.60 0.0816
1055.70 0.08157
1055.80 0.08154
1055.90 0.08151
1056.00 0.08148
1056.10 0.08145
1056.20 0.08142
1056.30 0.08139
1056.40 0.08136
1056.50 0.08133
1056.60 0.0813
1056.70 0.08127
1056.80 0.08123
1056.90 0.0812
1057.00 0.08117
1057.10 0.08114
1057.20 0.08111
1057.30 0.08107
1057.40 0.08104
1057.50 0.08101
1057.60 0.08098
1057.70 0.08094
1057.80 0.08091
1057.90 0.08088
1058.00 0.08084
1058.10 0.08081
1058.20 0.08078
1058.30 0.08075
1058.40 0.08071
1058.50 0.08068
1058.60 0.08065
1058.70 0.08061
1058.80 0.08058
1058.90 0.08055
1059.00 0.08052
1059.10 0.08048
1059.20 0.08045
1059.30 0.08042
1059.40 0.08038
1059.50 0.08035
1059.60 0.08032
1059.70 0.08029
1059.80 0.08025
1059.90 0.08022
1060.00 0.08019
1060.10 0.08016
1060.20 0.08012
1060.30 0.08009
1060.40 0.08006
1060.50 0.08003
1060.60 0.07999
1060.70 0.07996
1060.80 0.07993
1060.90 0.07989
1061.00 0.07986
1061.10 0.07983
1061.20 0.0798
1061.30 0.07976
1061.40 0.07973
1061.50 0.0797
1061.60 0.07967
1061.70 0.07963
1061.80 0.0796
1061.90 0.07957
1062.00 0.07954
1062.10 0.0795
1062.20 0.07946
1062.30 0.07943
1062.40 0.07939
1062.50 0.07935
1062.60 0.07932
1062.70 0.07928
1062.80 0.07925
1062.90 0.07921
1063.00 0.07917
1063.10 0.07914
1063.20 0.0791
1063.30 0.07906
1063.40 0.07903
1063.50 0.07899
1063.60 0.07895
1063.70 0.07892
1063.80 0.07888
1063.90 0.07885
1064.00 0.07881
1064.10 0.07877
1064.20 0.07874
1064.30 0.0787
1064.40 0.07866
1064.50 0.07863
1064.60 0.07859
1064.70 0.07856
1064.80 0.07852
1064.90 0.07848
1065.00 0.07845
1065.10 0.07841
1065.20 0.07838
1065.30 0.07834
1065.40 0.0783
1065.50 0.07827
1065.60 0.07823
1065.70 0.0782
1065.80 0.07816
1065.90 0.07812
1066.00 0.07809
1066.10 0.07805
1066.20 0.07802
1066.30 0.07798
1066.40 0.07794
1066.50 0.07791
1066.60 0.07787
1066.70 0.07784
1066.80 0.0778
1066.90 0.07776
1067.00 0.07773
1067.10 0.07768
1067.20 0.07764
1067.30 0.0776
1067.40 0.07755
1067.50 0.07751
1067.60 0.07747
1067.70 0.07742
1067.80 0.07738
1067.90 0.07734
1068.00 0.0773
1068.10 0.07725
1068.20 0.07721
1068.30 0.07717
1068.40 0.07712
1068.50 0.07708
1068.60 0.07704
1068.70 0.07699
1068.80 0.07695
1068.90 0.07691
1069.00 0.07686
1069.10 0.07682
1069.20 0.07678
1069.30 0.07673
1069.40 0.07669
1069.50 0.07665
1069.60 0.07661
1069.70 0.07656
1069.80 0.07652
1069.90 0.07648
1070.00 0.07643
1070.10 0.07639
1070.20 0.07635
1070.30 0.07631
1070.40 0.07626
1070.50 0.07622
1070.60 0.07618
1070.70 0.07613
1070.80 0.07609
1070.90 0.07605
1071.00 0.07601
1071.10 0.07596
1071.20 0.07592
1071.30 0.07588
1071.40 0.07583
1071.50 0.07579
1071.60 0.07575
1071.70 0.07571
1071.80 0.07566
1071.90 0.07562
1072.00 0.07558
1072.10 0.07553
1072.20 0.07548
1072.30 0.07543
1072.40 0.07538
1072.50 0.07533
1072.60 0.07529
1072.70 0.07524
1072.80 0.07519
1072.90 0.07514
1073.00 0.07509
1073.10 0.07504
1073.20 0.07499
1073.30 0.07494
1073.40 0.07489
1073.50 0.07484
1073.60 0.07478
1073.70 0.07473
1073.80 0.07467
1073.90 0.07461
1074.00 0.07455
1074.10 0.0745
1074.20 0.07444
1074.30 0.07438
1074.40 0.07432
1074.50 0.07427
1074.60 0.07421
1074.70 0.07415
1074.80 0.07409
1074.90 0.07403
1075.00 0.07398
1075.10 0.07392
1075.20 0.07386
1075.30 0.0738
1075.40 0.07375
1075.50 0.07369
1075.60 0.07363
1075.70 0.07357
1075.80 0.07352
1075.90 0.07346
1076.00 0.0734
1076.10 0.07335
1076.20 0.07329
1076.30 0.07323
1076.40 0.07317
1076.50 0.07312
1076.60 0.07306
1076.70 0.073
1076.80 0.07294
1076.90 0.07289
1077.00 0.07283
1077.10 0.07277
1077.20 0.0727
1077.30 0.07264
1077.40 0.07257
1077.50 0.07251
1077.60 0.07244
1077.70 0.07237
1077.80 0.07229
1077.90 0.07222
1078.00 0.07215
1078.10 0.07208
1078.20 0.07201
1078.30 0.07194
1078.40 0.07187
1078.50 0.0718
1078.60 0.07173
1078.70 0.07166
1078.80 0.07159
1078.90 0.07152
1079.00 0.07145
1079.10 0.07138
1079.20 0.07131
1079.30 0.07123
1079.40 0.07116
1079.50 0.07109
1079.60 0.07101
1079.70 0.07093
1079.80 0.07084
1079.90 0.07076
1080.00 0.07068
1080.10 0.0706
1080.20 0.07051
1080.30 0.07043
1080.40 0.07035
1080.50 0.07027
1080.60 0.07019
1080.70 0.0701
1080.80 0.07002
1080.90 0.06994
1081.00 0.06986
1081.10 0.06978
1081.20 0.06969
1081.30 0.06961
1081.40 0.06953
1081.50 0.06945
1081.60 0.06936
1081.70 0.06927
1081.80 0.06918
1081.90 0.06909
1082.00 0.069
1082.10 0.0689
1082.20 0.0688
1082.30 0.06871
1082.40 0.06861
1082.50 0.06851
1082.60 0.06841
1082.70 0.06832
1082.80 0.06822
1082.90 0.06812
1083.00 0.06803
1083.10 0.06793
1083.20 0.06783
1083.30 0.06774
1083.40 0.06764
1083.50 0.06754
1083.60 0.06743
1083.70 0.06732
1083.80 0.06722
1083.90 0.06711
1084.00 0.067
1084.10 0.0669
1084.20 0.06679
1084.30 0.06668
1084.40 0.06658
1084.50 0.06647
1084.60 0.06634
1084.70 0.06622
1084.80 0.0661
1084.90 0.06598
1085.00 0.06586
1085.10 0.06574
1085.20 0.06562
1085.30 0.0655
1085.40 0.06538
1085.50 0.06526
1085.60 0.06514
1085.70 0.06502
1085.80 0.0649
1085.90 0.06478
1086.00 0.06466
1086.10 0.06454
1086.20 0.06442
1086.30 0.0643
1086.40 0.06418
1086.50 0.06405
1086.60 0.06392
1086.70 0.06379
1086.80 0.06366
1086.90 0.06352
1087.00 0.06339
1087.10 0.06325
1087.20 0.06311
1087.30 0.06296
1087.40 0.06282
1087.50 0.06268
1087.60 0.06254
1087.70 0.06239
1087.80 0.06225
1087.90 0.06211
1088.00 0.06197
1088.10 0.06182
1088.20 0.06168
1088.30 0.06154
1088.40 0.0614
1088.50 0.06125
1088.60 0.06109
1088.70 0.06092
1088.80 0.06076
1088.90 0.0606
1089.00 0.06044
1089.10 0.06028
1089.20 0.06012
1089.30 0.05996
1089.40 0.0598
1089.50 0.05963
1089.60 0.05947
1089.70 0.05931
1089.80 0.05915
1089.90 0.05899
1090.00 0.05883
1090.10 0.05867
1090.20 0.05851
1090.30 0.05835
1090.40 0.05819
1090.50 0.05802
1090.60 0.05783
1090.70 0.05765
1090.80 0.05746
1090.90 0.05728
1091.00 0.05709
1091.10 0.05691
1091.20 0.05672
1091.30 0.05654
1091.40 0.05636
1091.50 0.05617
1091.60 0.05599
1091.70 0.0558
1091.80 0.05562
1091.90 0.05543
1092.00 0.05524
1092.10 0.05503
1092.20 0.05481
1092.30 0.0546
1092.40 0.05439
1092.50 0.05417
1092.60 0.05396
1092.70 0.05374
1092.80 0.05351
1092.90 0.05328
1093.00 0.05305
1093.10 0.05286
1093.20 0.05273
1093.30 0.05262
1093.40 0.05287
1093.50 0.05305
1093.60 0.05263
1093.70 0.0526
1093.80 0.0527
1093.90 0.05283
1094.00 0.05303
1094.10 0.05322
1094.20 0.05342
1094.30 0.05361
1094.40 0.05379
1094.50 0.05397
1094.60 0.05415
1094.70 0.05432
1094.80 0.0545
1094.90 0.05468
1095.00 0.05485
1095.10 0.055
1095.20 0.05514
1095.30 0.05529
1095.40 0.05544
1095.50 0.05559
1095.60 0.05573
1095.70 0.05588
1095.80 0.05603
1095.90 0.05617
1096.00 0.05632
1096.10 0.05647
1096.20 0.05662
1096.30 0.05676
1096.40 0.05691
1096.50 0.05705
1096.60 0.05718
1096.70 0.05731
1096.80 0.05744
1096.90 0.05757
1097.00 0.0577
1097.10 0.05781
1097.20 0.05793
1097.30 0.05805
1097.40 0.05816
1097.50 0.05828
1097.60 0.05839
1097.70 0.05851
1097.80 0.05863
1097.90 0.05874
1098.00 0.05886
1098.10 0.05897
1098.20 0.05909
1098.30 0.0592
1098.40 0.05932
1098.50 0.05943
1098.60 0.05952
1098.70 0.05962
1098.80 0.05971
1098.90 0.05981
1099.00 0.0599
1099.10 0.06
1099.20 0.06009
1099.30 0.06019
1099.40 0.06028
1099.50 0.06038
1099.60 0.06047
1099.70 0.06057
1099.80 0.06066
1099.90 0.06076
1100.00 0.06085
1100.10 0.06095
1100.20 0.06104
1100.30 0.06114
1100.40 0.06123
1100.50 0.06132
1100.60 0.06139
1100.70 0.06147
1100.80 0.06154
1100.90 0.06162
1101.00 0.06169
1101.10 0.06177
1101.20 0.06185
1101.30 0.06192
1101.40 0.062
1101.50 0.06207
1101.60 0.06215
1101.70 0.06222
1101.80 0.0623
1101.90 0.06237
1102.00 0.06244
1102.10 0.06251
1102.20 0.06257
1102.30 0.06264
1102.40 0.0627
1102.50 0.06277
1102.60 0.06282
1102.70 0.06288
1102.80 0.06294
1102.90 0.063
1103.00 0.06306
1103.10 0.06311
1103.20 0.06317
1103.30 0.06323
1103.40 0.06329
1103.50 0.06334
1103.60 0.06339
1103.70 0.06343
1103.80 0.06348
1103.90 0.06352
1104.00 0.06357
1104.10 0.06362
1104.20 0.06366
1104.30 0.06371
1104.40 0.06375
1104.50 0.0638
1104.60 0.06384
1104.70 0.06389
1104.80 0.06394
1104.90 0.06398
1105.00 0.06403
1105.10 0.06407
1105.20 0.06412
1105.30 0.06416
1105.40 0.06421
1105.50 0.06425
1105.60 0.06428
1105.70 0.06432
1105.80 0.06435
1105.90 0.06438
1106.00 0.06441
1106.10 0.06445
1106.20 0.06448
1106.30 0.06451
1106.40 0.06454
1106.50 0.06458
1106.60 0.06461
1106.70 0.06464
1106.80 0.06467
1106.90 0.06471
1107.00 0.06474
1107.10 0.06477
1107.20 0.0648
1107.30 0.06482
1107.40 0.06485
1107.50 0.06488
1107.60 0.0649
1107.70 0.06492
1107.80 0.06494
1107.90 0.06496
1108.00 0.06498
1108.10 0.065
1108.20 0.06502
1108.30 0.06504
1108.40 0.06506
1108.50 0.06507
1108.60 0.06509
1108.70 0.06511
1108.80 0.06513
1108.90 0.06515
1109.00 0.06517
1109.10 0.06519
1109.20 0.06521
1109.30 0.06523
1109.40 0.06525
1109.50 0.06527
1109.60 0.06528
1109.70 0.06529
1109.80 0.0653
1109.90 0.06531
1110.00 0.06532
1110.10 0.06533
1110.20 0.06534
1110.30 0.06535
1110.40 0.06536
1110.50 0.06536
1110.60 0.06537
1110.70 0.06538
1110.80 0.06539
1110.90 0.0654
1111.00 0.06541
1111.10 0.06542
1111.20 0.06543
1111.30 0.06544
1111.40 0.06545
1111.50 0.06546
1111.60 0.06547
1111.70 0.06548
1111.80 0.06549
1111.90 0.0655
1112.00 0.06551
1112.10 0.06551
1112.20 0.06551
1112.30 0.06551
1112.40 0.06552
1112.50 0.06552
1112.60 0.06552
1112.70 0.06552
1112.80 0.06553
1112.90 0.06553
1113.00 0.06553
1113.10 0.06553
1113.20 0.06553
1113.30 0.06554
1113.40 0.06554
1113.50 0.06554
1113.60 0.06554
1113.70 0.06553
1113.80 0.06553
1113.90 0.06553
1114.00 0.06552
1114.10 0.06552
1114.20 0.06552
1114.30 0.06551
1114.40 0.06551
1114.50 0.06551
1114.60 0.0655
1114.70 0.0655
1114.80 0.06549
1114.90 0.06549
1115.00 0.06549
1115.10 0.06548
1115.20 0.06548
1115.30 0.06548
1115.40 0.06547
1115.50 0.06547
1115.60 0.06547
1115.70 0.06546
1115.80 0.06546
1115.90 0.06546
1116.00 0.06545
1116.10 0.06545
1116.20 0.06545
1116.30 0.06544
1116.40 0.06544
1116.50 0.06544
1116.60 0.06543
1116.70 0.06543
1116.80 0.06543
1116.90 0.06542
1117.00 0.06542
1117.10 0.06541
1117.20 0.0654
1117.30 0.06539
1117.40 0.06538
1117.50 0.06537
1117.60 0.06536
1117.70 0.06534
1117.80 0.06533
1117.90 0.06532
1118.00 0.06531
1118.10 0.0653
1118.20 0.06529
1118.30 0.06528
1118.40 0.06527
1118.50 0.06526
1118.60 0.06525
1118.70 0.06524
1118.80 0.06522
1118.90 0.06521
1119.00 0.0652
1119.10 0.06519
1119.20 0.06518
1119.30 0.06517
1119.40 0.06516
1119.50 0.06515
1119.60 0.06514
1119.70 0.06513
1119.80 0.06512
1119.90 0.0651
1120.00 0.06509
1120.10 0.06508
1120.20 0.06507
1120.30 0.06506
1120.40 0.06505
1120.50 0.06504
1120.60 0.06503
1120.70 0.06502
1120.80 0.06501
1120.90 0.065
1121.00 0.06499
1121.10 0.06497
1121.20 0.06496
1121.30 0.06495
1121.40 0.06494
1121.50 0.06493
1121.60 0.06492
1121.70 0.06491
1121.80 0.0649
1121.90 0.06489
1122.00 0.06488
1122.10 0.06486
1122.20 0.06485
1122.30 0.06483
1122.40 0.06482
1122.50 0.0648
1122.60 0.06479
1122.70 0.06477
1122.80 0.06475
1122.90 0.06474
1123.00 0.06472
1123.10 0.06471
1123.20 0.06469
1123.30 0.06468
1123.40 0.06466
1123.50 0.06465
1123.60 0.06463
1123.70 0.06462
1123.80 0.0646
1123.90 0.06459
1124.00 0.06457
1124.10 0.06456
1124.20 0.06454
1124.30 0.06453
1124.40 0.06451
1124.50 0.06449
1124.60 0.06448
1124.70 0.06446
1124.80 0.06445
1124.90 0.06443
1125.00 0.06442
1125.10 0.0644
1125.20 0.06439
1125.30 0.06437
1125.40 0.06436
1125.50 0.06434
1125.60 0.06433
1125.70 0.06431
1125.80 0.0643
1125.90 0.06428
1126.00 0.06427
1126.10 0.06425
1126.20 0.06424
1126.30 0.06422
1126.40 0.06421
1126.50 0.06419
1126.60 0.06418
1126.70 0.06416
1126.80 0.06415
1126.90 0.06413
1127.00 0.06411
1127.10 0.0641
1127.20 0.06408
1127.30 0.06406
1127.40 0.06404
1127.50 0.06403
1127.60 0.06401
1127.70 0.06399
1127.80 0.06397
1127.90 0.06396
1128.00 0.06394
1128.10 0.06392
1128.20 0.0639
1128.30 0.06389
1128.40 0.06387
1128.50 0.06385
1128.60 0.06384
1128.70 0.06382
1128.80 0.0638
1128.90 0.06378
1129.00 0.06377
1129.10 0.06375
1129.20 0.06373
1129.30 0.06371
1129.40 0.0637
1129.50 0.06368
1129.60 0.06366
1129.70 0.06364
1129.80 0.06363
1129.90 0.06361
1130.00 0.06359
1130.10 0.06357
1130.20 0.06356
1130.30 0.06354
1130.40 0.06352
1130.50 0.0635
1130.60 0.06349
1130.70 0.06347
1130.80 0.06345
1130.90 0.06344
1131.00 0.06342
1131.10 0.0634
1131.20 0.06338
1131.30 0.06337
1131.40 0.06335
1131.50 0.06333
1131.60 0.06331
1131.70 0.0633
1131.80 0.06328
1131.90 0.06326
1132.00 0.06324
1132.10 0.06323
1132.20 0.06321
1132.30 0.06319
1132.40 0.06317
1132.50 0.06315
1132.60 0.06313
1132.70 0.06312
1132.80 0.0631
1132.90 0.06308
1133.00 0.06306
1133.10 0.06304
1133.20 0.06302
1133.30 0.063
1133.40 0.06299
1133.50 0.06297
1133.60 0.06295
1133.70 0.06293
1133.80 0.06291
1133.90 0.06289
1134.00 0.06288
1134.10 0.06286
1134.20 0.06284
1134.30 0.06282
1134.40 0.0628
1134.50 0.06278
1134.60 0.06276
1134.70 0.06275
1134.80 0.06273
1134.90 0.06271
1135.00 0.06269
1135.10 0.06267
1135.20 0.06265
1135.30 0.06264
1135.40 0.06262
1135.50 0.0626
1135.60 0.06258
1135.70 0.06256
1135.80 0.06254
1135.90 0.06253
1136.00 0.06251
1136.10 0.06249
1136.20 0.06247
1136.30 0.06245
1136.40 0.06243
1136.50 0.06242
1136.60 0.0624
1136.70 0.06238
1136.80 0.06236
1136.90 0.06234
1137.00 0.06232
1137.10 0.06231
1137.20 0.06229
1137.30 0.06227
1137.40 0.06225
1137.50 0.06223
1137.60 0.06221
1137.70 0.06219
1137.80 0.06217
1137.90 0.06215
1138.00 0.06214
1138.10 0.06212
1138.20 0.0621
1138.30 0.06208
1138.40 0.06206
1138.50 0.06204
1138.60 0.06202
1138.70 0.062
1138.80 0.06198
1138.90 0.06197
1139.00 0.06195
1139.10 0.06193
1139.20 0.06191
1139.30 0.06189
1139.40 0.06187
1139.50 0.06185
1139.60 0.06183
1139.70 0.06181
1139.80 0.0618
1139.90 0.06178
1140.00 0.06176
1140.10 0.06174
1140.20 0.06172
1140.30 0.0617
1140.40 0.06168
1140.50 0.06166
1140.60 0.06165
1140.70 0.06163
1140.80 0.06161
1140.90 0.06159
1141.00 0.06157
1141.10 0.06155
1141.20 0.06153
1141.30 0.06151
1141.40 0.0615
1141.50 0.06148
1141.60 0.06146
1141.70 0.06144
1141.80 0.06142
1141.90 0.0614
1142.00 0.06138
1142.10 0.06136
1142.20 0.06135
1142.30 0.06133
1142.40 0.06131
1142.50 0.06129
1142.60 0.06127
1142.70 0.06125
1142.80 0.06123
1142.90 0.06121
1143.00 0.06119
1143.10 0.06117
1143.20 0.06115
1143.30 0.06114
1143.40 0.06112
1143.50 0.0611
1143.60 0.06108
1143.70 0.06106
1143.80 0.06104
1143.90 0.06102
1144.00 0.061
1144.10 0.06098
1144.20 0.06096
1144.30 0.06095
1144.40 0.06093
1144.50 0.06091
1144.60 0.06089
1144.70 0.06087
1144.80 0.06085
1144.90 0.06083
1145.00 0.06081
1145.10 0.06079
1145.20 0.06078
1145.30 0.06076
1145.40 0.06074
1145.50 0.06072
1145.60 0.0607
1145.70 0.06068
1145.80 0.06066
1145.90 0.06064
1146.00 0.06062
1146.10 0.06061
1146.20 0.06059
1146.30 0.06057
1146.40 0.06055
1146.50 0.06053
1146.60 0.06051
1146.70 0.06049
1146.80 0.06047
1146.90 0.06046
1147.00 0.06044
1147.10 0.06042
1147.20 0.0604
1147.30 0.06038
1147.40 0.06036
1147.50 0.06034
1147.60 0.06032
1147.70 0.0603
1147.80 0.06028
1147.90 0.06027
1148.00 0.06025
1148.10 0.06023
1148.20 0.06021
1148.30 0.06019
1148.40 0.06017
1148.50 0.06015
1148.60 0.06013
1148.70 0.06011
1148.80 0.0601
1148.90 0.06008
1149.00 0.06006
1149.10 0.06004
1149.20 0.06002
1149.30 0.06
1149.40 0.05998
1149.50 0.05996
1149.60 0.05995
1149.70 0.05993
1149.80 0.05991
1149.90 0.05989
1150.00 0.05987
1150.10 0.05985
1150.20 0.05983
1150.30 0.05981
1150.40 0.05979
1150.50 0.05978
1150.60 0.05976
1150.70 0.05974
1150.80 0.05972
1150.90 0.0597
1151.00 0.05968
1151.10 0.05966
1151.20 0.05964
1151.30 0.05963
1151.40 0.05961
1151.50 0.05959
1151.60 0.05957
1151.70 0.05955
1151.80 0.05953
1151.90 0.05951
1152.00 0.0595
1152.10 0.05948
1152.20 0.05946
1152.30 0.05944
1152.40 0.05942
1152.50 0.0594
1152.60 0.05938
1152.70 0.05936
1152.80 0.05935
1152.90 0.05933
1153.00 0.05931
1153.10 0.05929
1153.20 0.05927
1153.30 0.05925
1153.40 0.05923
1153.50 0.05921
1153.60 0.0592
1153.70 0.05918
1153.80 0.05916
1153.90 0.05914
1154.00 0.05912
1154.10 0.0591
1154.20 0.05908
1154.30 0.05906
1154.40 0.05905
1154.50 0.05903
1154.60 0.05901
1154.70 0.05899
1154.80 0.05897
1154.90 0.05895
1155.00 0.05893
1155.10 0.05892
1155.20 0.0589
1155.30 0.05888
1155.40 0.05886
1155.50 0.05884
1155.60 0.05882
1155.70 0.0588
1155.80 0.05879
1155.90 0.05877
1156.00 0.05875
1156.10 0.05873
1156.20 0.05871
1156.30 0.05869
1156.40 0.05867
1156.50 0.05866
1156.60 0.05864
1156.70 0.05862
1156.80 0.0586
1156.90 0.05858
1157.00 0.05856
1157.10 0.05854
1157.20 0.05853
1157.30 0.05851
1157.40 0.05849
1157.50 0.05847
1157.60 0.05845
1157.70 0.05843
1157.80 0.05842
1157.90 0.0584
1158.00 0.05838
1158.10 0.05836
1158.20 0.05834
1158.30 0.05832
1158.40 0.0583
1158.50 0.05829
1158.60 0.05827
1158.70 0.05825
1158.80 0.05823
1158.90 0.05821
1159.00 0.05819
1159.10 0.05818
1159.20 0.05816
1159.30 0.05814
1159.40 0.05812
1159.50 0.0581
1159.60 0.05808
1159.70 0.05807
1159.80 0.05805
1159.90 0.05803
1160.00 0.05801
1160.10 0.05799
1160.20 0.05797
1160.30 0.05796
1160.40 0.05794
1160.50 0.05792
1160.60 0.0579
1160.70 0.05788
1160.80 0.05786
1160.90 0.05785
1161.00 0.05783
1161.10 0.05781
1161.20 0.05779
1161.30 0.05777
1161.40 0.05775
1161.50 0.05774
1161.60 0.05772
1161.70 0.0577
1161.80 0.05768
1161.90 0.05766
1162.00 0.05764
1162.10 0.05763
1162.20 0.05761
1162.30 0.05759
1162.40 0.05757
1162.50 0.05755
1162.60 0.05753
1162.70 0.05752
1162.80 0.0575
1162.90 0.05748
1163.00 0.05746
1163.10 0.05744
1163.20 0.05743
1163.30 0.05741
1163.40 0.05739
1163.50 0.05737
1163.60 0.05735
1163.70 0.05733
1163.80 0.05732
1163.90 0.0573
1164.00 0.05728
1164.10 0.05726
1164.20 0.05724
1164.30 0.05723
1164.40 0.05721
1164.50 0.05719
1164.60 0.05717
1164.70 0.05715
1164.80 0.05714
1164.90 0.05712
1165.00 0.0571
1165.10 0.05708
1165.20 0.05706
1165.30 0.05704
1165.40 0.05703
1165.50 0.05701
1165.60 0.05699
1165.70 0.05697
1165.80 0.05695
1165.90 0.05694
1166.00 0.05692
1166.10 0.0569
1166.20 0.05688
1166.30 0.05686
1166.40 0.05685
1166.50 0.05683
1166.60 0.05681
1166.70 0.05679
1166.80 0.05677
1166.90 0.05676
1167.00 0.05674
1167.10 0.05672
1167.20 0.0567
1167.30 0.05668
1167.40 0.05667
1167.50 0.05665
1167.60 0.05663
1167.70 0.05661
1167.80 0.05659
1167.90 0.05658
1168.00 0.05656
1168.10 0.05654
1168.20 0.05652
1168.30 0.05651
1168.40 0.05649
1168.50 0.05647
1168.60 0.05645
1168.70 0.05643
1168.80 0.05642
1168.90 0.0564
1169.00 0.05638
1169.10 0.05636
1169.20 0.05634
1169.30 0.05633
1169.40 0.05631
1169.50 0.05629
1169.60 0.05627
1169.70 0.05626
1169.80 0.05624
1169.90 0.05622
1170.00 0.0562
1170.10 0.05618
1170.20 0.05617
1170.30 0.05615
1170.40 0.05613
1170.50 0.05611
1170.60 0.05609
1170.70 0.05608
1170.80 0.05606
1170.90 0.05604
1171.00 0.05602
1171.10 0.05601
1171.20 0.05599
1171.30 0.05597
1171.40 0.05595
1171.50 0.05593
1171.60 0.05592
1171.70 0.0559
1171.80 0.05588
1171.90 0.05586
1172.00 0.05585
1172.10 0.05583
1172.20 0.05581
1172.30 0.05579
1172.40 0.05578
1172.50 0.05576
1172.60 0.05574
1172.70 0.05572
1172.80 0.05571
1172.90 0.05569
1173.00 0.05567
1173.10 0.05565
1173.20 0.05563
1173.30 0.05562
1173.40 0.0556
1173.50 0.05558
1173.60 0.05556
1173.70 0.05555
1173.80 0.05553
1173.90 0.05551
1174.00 0.05549
1174.10 0.05548
1174.20 0.05546
1174.30 0.05544
1174.40 0.05542
1174.50 0.05541
1174.60 0.05539
1174.70 0.05537
1174.80 0.05535
1174.90 0.05534
1175.00 0.05532
1175.10 0.0553
1175.20 0.05528
1175.30 0.05527
1175.40 0.05525
1175.50 0.05523
1175.60 0.05521
1175.70 0.0552
1175.80 0.05518
1175.90 0.05516
1176.00 0.05514
1176.10 0.05513
1176.20 0.05511
1176.30 0.05509
1176.40 0.05507
1176.50 0.05506
1176.60 0.05504
1176.70 0.05502
1176.80 0.055
1176.90 0.05499
1177.00 0.05497
1177.10 0.05495
1177.20 0.05493
1177.30 0.05492
1177.40 0.0549
1177.50 0.05488
1177.60 0.05487
1177.70 0.05485
1177.80 0.05483
1177.90 0.05481
1178.00 0.0548
1178.10 0.05478
1178.20 0.05476
1178.30 0.05474
1178.40 0.05473
1178.50 0.05471
1178.60 0.05469
1178.70 0.05468
1178.80 0.05466
1178.90 0.05464
1179.00 0.05462
1179.10 0.05461
1179.20 0.05459
1179.30 0.05457
1179.40 0.05455
1179.50 0.05454
1179.60 0.05452
1179.70 0.0545
1179.80 0.05449
1179.90 0.05447
1180.00 0.05445
1180.10 0.05443
1180.20 0.05442
1180.30 0.0544
1180.40 0.05438
1180.50 0.05436
1180.60 0.05435
1180.70 0.05433
1180.80 0.05431
1180.90 0.0543
1181.00 0.05428
1181.10 0.05426
1181.20 0.05424
1181.30 0.05423
1181.40 0.05421
1181.50 0.05419
1181.60 0.05418
1181.70 0.05416
1181.80 0.05414
1181.90 0.05412
1182.00 0.05411
1182.10 0.05409
1182.20 0.05407
1182.30 0.05406
1182.40 0.05404
1182.50 0.05402
1182.60 0.054
1182.70 0.05399
1182.80 0.05397
1182.90 0.05395
1183.00 0.05394
1183.10 0.05392
1183.20 0.0539
1183.30 0.05389
1183.40 0.05387
1183.50 0.05385
1183.60 0.05383
1183.70 0.05382
1183.80 0.0538
1183.90 0.05378
1184.00 0.05377
1184.10 0.05375
1184.20 0.05373
1184.30 0.05372
1184.40 0.0537
1184.50 0.05368
1184.60 0.05366
1184.70 0.05365
1184.80 0.05363
1184.90 0.05361
1185.00 0.0536
1185.10 0.05358
1185.20 0.05356
1185.30 0.05355
1185.40 0.05353
1185.50 0.05351
1185.60 0.0535
1185.70 0.05348
1185.80 0.05346
1185.90 0.05344
1186.00 0.05343
1186.10 0.05341
1186.20 0.05339
1186.30 0.05338
1186.40 0.05336
1186.50 0.05334
1186.60 0.05333
1186.70 0.05331
1186.80 0.05329
1186.90 0.05328
1187.00 0.05326
1187.10 0.05324
1187.20 0.05323
1187.30 0.05321
1187.40 0.05319
1187.50 0.05318
1187.60 0.05316
1187.70 0.05314
1187.80 0.05312
1187.90 0.05311
1188.00 0.05309
1188.10 0.05307
1188.20 0.05306
1188.30 0.05304
1188.40 0.05302
1188.50 0.05301
1188.60 0.05299
1188.70 0.05297
1188.80 0.05296
1188.90 0.05294
1189.00 0.05292
1189.10 0.05291
1189.20 0.05289
1189.30 0.05287
1189.40 0.05286
1189.50 0.05284
1189.60 0.05282
1189.70 0.05281
1189.80 0.05279
1189.90 0.05277
1190.00 0.05276
1190.10 0.05274
1190.20 0.05272
1190.30 0.05271
1190.40 0.05269
1190.50 0.05267
1190.60 0.05266
1190.70 0.05264
1190.80 0.05262
1190.90 0.05261
1191.00 0.05259
1191.10 0.05257
1191.20 0.05256
1191.30 0.05254
1191.40 0.05252
1191.50 0.05251
1191.60 0.05249
1191.70 0.05248
1191.80 0.05246
1191.90 0.05244
1192.00 0.05243
1192.10 0.05241
1192.20 0.05239
1192.30 0.05238
1192.40 0.05236
1192.50 0.05234
1192.60 0.05233
1192.70 0.05231
1192.80 0.05229
1192.90 0.05228
1193.00 0.05226
1193.10 0.05224
1193.20 0.05223
1193.30 0.05221
1193.40 0.05219
1193.50 0.05218
1193.60 0.05216
1193.70 0.05215
1193.80 0.05213
1193.90 0.05211
1194.00 0.0521
1194.10 0.05208
1194.20 0.05206
1194.30 0.05205
1194.40 0.05203
1194.50 0.05201
1194.60 0.052
1194.70 0.05198
1194.80 0.05196
1194.90 0.05195
1195.00 0.05193
1195.10 0.05192
1195.20 0.0519
1195.30 0.05188
1195.40 0.05187
1195.50 0.05185
1195.60 0.05183
1195.70 0.05182
1195.80 0.0518
1195.90 0.05178
1196.00 0.05177
1196.10 0.05175
1196.20 0.05174
1196.30 0.05172
1196.40 0.0517
1196.50 0.05169
1196.60 0.05167
1196.70 0.05165
1196.80 0.05164
1196.90 0.05162
1197.00 0.05161
1197.10 0.05159
1197.20 0.05157
1197.30 0.05156
1197.40 0.05154
1197.50 0.05152
1197.60 0.05151
1197.70 0.05149
1197.80 0.05148
1197.90 0.05146
1198.00 0.05144
1198.10 0.05143
1198.20 0.05141
1198.30 0.05139
1198.40 0.05138
1198.50 0.05136
1198.60 0.05135
1198.70 0.05133
1198.80 0.05131
1198.90 0.0513
1199.00 0.05128
1199.10 0.05127
1199.20 0.05125
1199.30 0.05123
1199.40 0.05122
1199.50 0.0512
1199.60 0.05118
1199.70 0.05117
1199.80 0.05115
1199.90 0.05114
1200.00 0
