# Version 2.1 - nm, norm@500 to 1, cut digits, bergeron_130000_70.dat_130000
# Wavelength(nm)  Flambda(ergs/cm^s/s/nm)
300.00 6.999
300.10 6.99
300.20 6.981
300.30 6.972
300.40 6.964
300.50 6.955
300.60 6.946
300.70 6.937
300.80 6.928
300.90 6.92
301.00 6.911
301.10 6.902
301.20 6.893
301.30 6.885
301.40 6.876
301.50 6.867
301.60 6.859
301.70 6.85
301.80 6.841
301.90 6.833
302.00 6.824
302.10 6.815
302.20 6.807
302.30 6.798
302.40 6.79
302.50 6.781
302.60 6.773
302.70 6.764
302.80 6.756
302.90 6.747
303.00 6.739
303.10 6.73
303.20 6.722
303.30 6.713
303.40 6.705
303.50 6.696
303.60 6.688
303.70 6.68
303.80 6.671
303.90 6.663
304.00 6.655
304.10 6.646
304.20 6.638
304.30 6.63
304.40 6.621
304.50 6.613
304.60 6.605
304.70 6.597
304.80 6.588
304.90 6.58
305.00 6.572
305.10 6.564
305.20 6.555
305.30 6.547
305.40 6.539
305.50 6.531
305.60 6.523
305.70 6.515
305.80 6.507
305.90 6.498
306.00 6.49
306.10 6.482
306.20 6.474
306.30 6.466
306.40 6.458
306.50 6.45
306.60 6.442
306.70 6.434
306.80 6.426
306.90 6.418
307.00 6.41
307.10 6.402
307.20 6.394
307.30 6.386
307.40 6.378
307.50 6.37
307.60 6.363
307.70 6.355
307.80 6.347
307.90 6.339
308.00 6.331
308.10 6.323
308.20 6.315
308.30 6.308
308.40 6.3
308.50 6.292
308.60 6.284
308.70 6.277
308.80 6.269
308.90 6.261
309.00 6.253
309.10 6.246
309.20 6.238
309.30 6.23
309.40 6.223
309.50 6.215
309.60 6.207
309.70 6.2
309.80 6.192
309.90 6.184
310.00 6.177
310.10 6.169
310.20 6.162
310.30 6.154
310.40 6.146
310.50 6.139
310.60 6.131
310.70 6.124
310.80 6.116
310.90 6.109
311.00 6.101
311.10 6.094
311.20 6.086
311.30 6.079
311.40 6.071
311.50 6.064
311.60 6.057
311.70 6.049
311.80 6.042
311.90 6.034
312.00 6.027
312.10 6.02
312.20 6.012
312.30 6.005
312.40 5.998
312.50 5.99
312.60 5.983
312.70 5.976
312.80 5.968
312.90 5.961
313.00 5.954
313.10 5.947
313.20 5.939
313.30 5.932
313.40 5.925
313.50 5.918
313.60 5.911
313.70 5.903
313.80 5.896
313.90 5.889
314.00 5.882
314.10 5.875
314.20 5.868
314.30 5.86
314.40 5.853
314.50 5.846
314.60 5.839
314.70 5.832
314.80 5.825
314.90 5.818
315.00 5.811
315.10 5.804
315.20 5.797
315.30 5.79
315.40 5.783
315.50 5.776
315.60 5.769
315.70 5.762
315.80 5.755
315.90 5.748
316.00 5.741
316.10 5.734
316.20 5.727
316.30 5.72
316.40 5.713
316.50 5.707
316.60 5.7
316.70 5.693
316.80 5.686
316.90 5.679
317.00 5.672
317.10 5.665
317.20 5.659
317.30 5.652
317.40 5.645
317.50 5.638
317.60 5.631
317.70 5.625
317.80 5.618
317.90 5.611
318.00 5.604
318.10 5.598
318.20 5.591
318.30 5.584
318.40 5.578
318.50 5.571
318.60 5.564
318.70 5.558
318.80 5.551
318.90 5.544
319.00 5.538
319.10 5.531
319.20 5.524
319.30 5.518
319.40 5.511
319.50 5.505
319.60 5.498
319.70 5.492
319.80 5.485
319.90 5.478
320.00 5.472
320.10 5.465
320.20 5.459
320.30 5.452
320.40 5.446
320.50 5.439
320.60 5.433
320.70 5.426
320.80 5.42
320.90 5.414
321.00 5.407
321.10 5.401
321.20 5.394
321.30 5.388
321.40 5.381
321.50 5.375
321.60 5.369
321.70 5.362
321.80 5.356
321.90 5.35
322.00 5.343
322.10 5.337
322.20 5.331
322.30 5.324
322.40 5.318
322.50 5.312
322.60 5.305
322.70 5.299
322.80 5.293
322.90 5.287
323.00 5.28
323.10 5.274
323.20 5.268
323.30 5.262
323.40 5.255
323.50 5.249
323.60 5.243
323.70 5.237
323.80 5.231
323.90 5.225
324.00 5.218
324.10 5.212
324.20 5.206
324.30 5.2
324.40 5.194
324.50 5.188
324.60 5.182
324.70 5.176
324.80 5.169
324.90 5.163
325.00 5.157
325.10 5.151
325.20 5.145
325.30 5.139
325.40 5.133
325.50 5.127
325.60 5.121
325.70 5.115
325.80 5.109
325.90 5.103
326.00 5.097
326.10 5.091
326.20 5.085
326.30 5.079
326.40 5.073
326.50 5.067
326.60 5.061
326.70 5.056
326.80 5.05
326.90 5.044
327.00 5.038
327.10 5.032
327.20 5.026
327.30 5.02
327.40 5.014
327.50 5.008
327.60 5.003
327.70 4.997
327.80 4.991
327.90 4.985
328.00 4.979
328.10 4.974
328.20 4.968
328.30 4.962
328.40 4.956
328.50 4.95
328.60 4.945
328.70 4.939
328.80 4.933
328.90 4.928
329.00 4.922
329.10 4.916
329.20 4.91
329.30 4.905
329.40 4.899
329.50 4.893
329.60 4.888
329.70 4.882
329.80 4.876
329.90 4.871
330.00 4.865
330.10 4.859
330.20 4.854
330.30 4.848
330.40 4.843
330.50 4.837
330.60 4.831
330.70 4.826
330.80 4.82
330.90 4.815
331.00 4.809
331.10 4.804
331.20 4.798
331.30 4.793
331.40 4.787
331.50 4.781
331.60 4.776
331.70 4.77
331.80 4.765
331.90 4.759
332.00 4.754
332.10 4.748
332.20 4.743
332.30 4.738
332.40 4.732
332.50 4.727
332.60 4.721
332.70 4.716
332.80 4.71
332.90 4.705
333.00 4.7
333.10 4.694
333.20 4.689
333.30 4.683
333.40 4.678
333.50 4.673
333.60 4.667
333.70 4.662
333.80 4.657
333.90 4.651
334.00 4.646
334.10 4.641
334.20 4.635
334.30 4.63
334.40 4.625
334.50 4.62
334.60 4.614
334.70 4.609
334.80 4.604
334.90 4.599
335.00 4.593
335.10 4.588
335.20 4.583
335.30 4.578
335.40 4.572
335.50 4.567
335.60 4.562
335.70 4.557
335.80 4.551
335.90 4.546
336.00 4.541
336.10 4.536
336.20 4.531
336.30 4.526
336.40 4.521
336.50 4.515
336.60 4.51
336.70 4.505
336.80 4.5
336.90 4.495
337.00 4.49
337.10 4.485
337.20 4.48
337.30 4.475
337.40 4.47
337.50 4.464
337.60 4.459
337.70 4.454
337.80 4.449
337.90 4.444
338.00 4.439
338.10 4.434
338.20 4.429
338.30 4.424
338.40 4.419
338.50 4.414
338.60 4.409
338.70 4.404
338.80 4.399
338.90 4.394
339.00 4.389
339.10 4.384
339.20 4.379
339.30 4.375
339.40 4.37
339.50 4.365
339.60 4.36
339.70 4.355
339.80 4.35
339.90 4.345
340.00 4.34
340.10 4.335
340.20 4.33
340.30 4.326
340.40 4.321
340.50 4.316
340.60 4.311
340.70 4.306
340.80 4.301
340.90 4.297
341.00 4.292
341.10 4.287
341.20 4.282
341.30 4.277
341.40 4.272
341.50 4.268
341.60 4.263
341.70 4.258
341.80 4.253
341.90 4.249
342.00 4.244
342.10 4.239
342.20 4.234
342.30 4.23
342.40 4.225
342.50 4.22
342.60 4.215
342.70 4.211
342.80 4.206
342.90 4.201
343.00 4.197
343.10 4.192
343.20 4.187
343.30 4.183
343.40 4.178
343.50 4.173
343.60 4.169
343.70 4.164
343.80 4.159
343.90 4.155
344.00 4.15
344.10 4.146
344.20 4.141
344.30 4.136
344.40 4.132
344.50 4.127
344.60 4.123
344.70 4.118
344.80 4.113
344.90 4.109
345.00 4.104
345.10 4.1
345.20 4.095
345.30 4.091
345.40 4.086
345.50 4.082
345.60 4.077
345.70 4.073
345.80 4.068
345.90 4.064
346.00 4.059
346.10 4.055
346.20 4.05
346.30 4.046
346.40 4.041
346.50 4.037
346.60 4.032
346.70 4.028
346.80 4.023
346.90 4.019
347.00 4.015
347.10 4.01
347.20 4.006
347.30 4.001
347.40 3.997
347.50 3.992
347.60 3.988
347.70 3.984
347.80 3.979
347.90 3.975
348.00 3.97
348.10 3.966
348.20 3.962
348.30 3.957
348.40 3.953
348.50 3.949
348.60 3.944
348.70 3.94
348.80 3.936
348.90 3.931
349.00 3.927
349.10 3.923
349.20 3.919
349.30 3.914
349.40 3.91
349.50 3.906
349.60 3.901
349.70 3.897
349.80 3.893
349.90 3.889
350.00 3.884
350.10 3.88
350.20 3.876
350.30 3.872
350.40 3.867
350.50 3.863
350.60 3.859
350.70 3.855
350.80 3.851
350.90 3.846
351.00 3.842
351.10 3.838
351.20 3.834
351.30 3.83
351.40 3.825
351.50 3.821
351.60 3.817
351.70 3.813
351.80 3.809
351.90 3.805
352.00 3.8
352.10 3.796
352.20 3.792
352.30 3.788
352.40 3.784
352.50 3.78
352.60 3.776
352.70 3.772
352.80 3.768
352.90 3.763
353.00 3.759
353.10 3.755
353.20 3.751
353.30 3.747
353.40 3.743
353.50 3.739
353.60 3.735
353.70 3.731
353.80 3.727
353.90 3.723
354.00 3.719
354.10 3.715
354.20 3.711
354.30 3.707
354.40 3.703
354.50 3.699
354.60 3.695
354.70 3.691
354.80 3.687
354.90 3.683
355.00 3.679
355.10 3.675
355.20 3.671
355.30 3.667
355.40 3.663
355.50 3.659
355.60 3.655
355.70 3.651
355.80 3.647
355.90 3.643
356.00 3.639
356.10 3.635
356.20 3.632
356.30 3.628
356.40 3.624
356.50 3.62
356.60 3.616
356.70 3.612
356.80 3.608
356.90 3.604
357.00 3.601
357.10 3.597
357.20 3.593
357.30 3.589
357.40 3.585
357.50 3.581
357.60 3.577
357.70 3.574
357.80 3.57
357.90 3.566
358.00 3.562
358.10 3.558
358.20 3.554
358.30 3.551
358.40 3.547
358.50 3.543
358.60 3.539
358.70 3.536
358.80 3.532
358.90 3.528
359.00 3.524
359.10 3.52
359.20 3.517
359.30 3.513
359.40 3.509
359.50 3.505
359.60 3.502
359.70 3.498
359.80 3.494
359.90 3.491
360.00 3.487
360.10 3.483
360.20 3.479
360.30 3.476
360.40 3.472
360.50 3.468
360.60 3.465
360.70 3.461
360.80 3.457
360.90 3.454
361.00 3.45
361.10 3.446
361.20 3.443
361.30 3.439
361.40 3.435
361.50 3.432
361.60 3.428
361.70 3.424
361.80 3.421
361.90 3.417
362.00 3.414
362.10 3.41
362.20 3.406
362.30 3.403
362.40 3.399
362.50 3.396
362.60 3.392
362.70 3.388
362.80 3.385
362.90 3.381
363.00 3.378
363.10 3.374
363.20 3.371
363.30 3.367
363.40 3.363
363.50 3.36
363.60 3.356
363.70 3.353
363.80 3.349
363.90 3.346
364.00 3.342
364.10 3.339
364.20 3.335
364.30 3.332
364.40 3.328
364.50 3.325
364.60 3.321
364.70 3.318
364.80 3.314
364.90 3.311
365.00 3.307
365.10 3.304
365.20 3.3
365.30 3.297
365.40 3.293
365.50 3.29
365.60 3.286
365.70 3.283
365.80 3.28
365.90 3.276
366.00 3.273
366.10 3.269
366.20 3.266
366.30 3.262
366.40 3.259
366.50 3.255
366.60 3.252
366.70 3.249
366.80 3.245
366.90 3.242
367.00 3.238
367.10 3.235
367.20 3.231
367.30 3.228
367.40 3.225
367.50 3.221
367.60 3.218
367.70 3.214
367.80 3.211
367.90 3.208
368.00 3.204
368.10 3.201
368.20 3.197
368.30 3.194
368.40 3.191
368.50 3.187
368.60 3.184
368.70 3.181
368.80 3.177
368.90 3.174
369.00 3.171
369.10 3.167
369.20 3.164
369.30 3.161
369.40 3.157
369.50 3.154
369.60 3.151
369.70 3.147
369.80 3.144
369.90 3.141
370.00 3.137
370.10 3.134
370.20 3.131
370.30 3.128
370.40 3.124
370.50 3.121
370.60 3.118
370.70 3.115
370.80 3.111
370.90 3.108
371.00 3.105
371.10 3.102
371.20 3.098
371.30 3.095
371.40 3.092
371.50 3.089
371.60 3.085
371.70 3.082
371.80 3.079
371.90 3.076
372.00 3.073
372.10 3.069
372.20 3.066
372.30 3.063
372.40 3.06
372.50 3.057
372.60 3.054
372.70 3.05
372.80 3.047
372.90 3.044
373.00 3.041
373.10 3.038
373.20 3.035
373.30 3.032
373.40 3.028
373.50 3.025
373.60 3.022
373.70 3.019
373.80 3.016
373.90 3.013
374.00 3.01
374.10 3.007
374.20 3.004
374.30 3
374.40 2.997
374.50 2.994
374.60 2.991
374.70 2.988
374.80 2.985
374.90 2.982
375.00 2.979
375.10 2.976
375.20 2.973
375.30 2.97
375.40 2.967
375.50 2.964
375.60 2.961
375.70 2.958
375.80 2.955
375.90 2.952
376.00 2.949
376.10 2.946
376.20 2.943
376.30 2.94
376.40 2.937
376.50 2.934
376.60 2.931
376.70 2.928
376.80 2.925
376.90 2.922
377.00 2.919
377.10 2.916
377.20 2.913
377.30 2.91
377.40 2.908
377.50 2.905
377.60 2.902
377.70 2.899
377.80 2.896
377.90 2.893
378.00 2.891
378.10 2.888
378.20 2.885
378.30 2.882
378.40 2.879
378.50 2.876
378.60 2.873
378.70 2.87
378.80 2.867
378.90 2.864
379.00 2.861
379.10 2.858
379.20 2.855
379.30 2.853
379.40 2.85
379.50 2.847
379.60 2.844
379.70 2.841
379.80 2.838
379.90 2.835
380.00 2.832
380.10 2.83
380.20 2.827
380.30 2.825
380.40 2.822
380.50 2.82
380.60 2.817
380.70 2.815
380.80 2.812
380.90 2.81
381.00 2.807
381.10 2.804
381.20 2.802
381.30 2.799
381.40 2.796
381.50 2.794
381.60 2.791
381.70 2.788
381.80 2.785
381.90 2.782
382.00 2.779
382.10 2.776
382.20 2.773
382.30 2.77
382.40 2.766
382.50 2.763
382.60 2.76
382.70 2.756
382.80 2.753
382.90 2.75
383.00 2.746
383.10 2.743
383.20 2.74
383.30 2.736
383.40 2.733
383.50 2.73
383.60 2.728
383.70 2.726
383.80 2.724
383.90 2.722
384.00 2.72
384.10 2.719
384.20 2.717
384.30 2.715
384.40 2.713
384.50 2.712
384.60 2.71
384.70 2.708
384.80 2.706
384.90 2.704
385.00 2.702
385.10 2.699
385.20 2.697
385.30 2.695
385.40 2.693
385.50 2.69
385.60 2.688
385.70 2.685
385.80 2.683
385.90 2.68
386.00 2.677
386.10 2.675
386.20 2.672
386.30 2.669
386.40 2.666
386.50 2.663
386.60 2.66
386.70 2.657
386.80 2.653
386.90 2.65
387.00 2.647
387.10 2.643
387.20 2.64
387.30 2.636
387.40 2.632
387.50 2.628
387.60 2.624
387.70 2.62
387.80 2.616
387.90 2.612
388.00 2.608
388.10 2.603
388.20 2.599
388.30 2.594
388.40 2.59
388.50 2.585
388.60 2.581
388.70 2.576
388.80 2.573
388.90 2.571
389.00 2.568
389.10 2.567
389.20 2.566
389.30 2.566
389.40 2.566
389.50 2.565
389.60 2.565
389.70 2.565
389.80 2.564
389.90 2.564
390.00 2.563
390.10 2.563
390.20 2.562
390.30 2.561
390.40 2.56
390.50 2.559
390.60 2.558
390.70 2.557
390.80 2.556
390.90 2.554
391.00 2.553
391.10 2.551
391.20 2.55
391.30 2.548
391.40 2.546
391.50 2.545
391.60 2.543
391.70 2.541
391.80 2.539
391.90 2.537
392.00 2.535
392.10 2.533
392.20 2.531
392.30 2.529
392.40 2.526
392.50 2.524
392.60 2.522
392.70 2.519
392.80 2.517
392.90 2.514
393.00 2.512
393.10 2.509
393.20 2.506
393.30 2.504
393.40 2.501
393.50 2.498
393.60 2.495
393.70 2.492
393.80 2.489
393.90 2.486
394.00 2.483
394.10 2.479
394.20 2.476
394.30 2.473
394.40 2.469
394.50 2.466
394.60 2.462
394.70 2.458
394.80 2.454
394.90 2.45
395.00 2.446
395.10 2.441
395.20 2.437
395.30 2.432
395.40 2.428
395.50 2.423
395.60 2.418
395.70 2.412
395.80 2.407
395.90 2.401
396.00 2.395
396.10 2.389
396.20 2.383
396.30 2.376
396.40 2.37
396.50 2.363
396.60 2.355
396.70 2.348
396.80 2.34
396.90 2.333
397.00 2.326
397.10 2.328
397.20 2.331
397.30 2.334
397.40 2.337
397.50 2.34
397.60 2.342
397.70 2.345
397.80 2.347
397.90 2.349
398.00 2.35
398.10 2.352
398.20 2.353
398.30 2.354
398.40 2.355
398.50 2.355
398.60 2.356
398.70 2.356
398.80 2.356
398.90 2.356
399.00 2.356
399.10 2.355
399.20 2.355
399.30 2.354
399.40 2.354
399.50 2.353
399.60 2.352
399.70 2.351
399.80 2.35
399.90 2.349
400.00 2.348
400.10 2.347
400.20 2.345
400.30 2.344
400.40 2.342
400.50 2.341
400.60 2.339
400.70 2.338
400.80 2.336
400.90 2.335
401.00 2.333
401.10 2.331
401.20 2.329
401.30 2.328
401.40 2.326
401.50 2.324
401.60 2.322
401.70 2.32
401.80 2.318
401.90 2.316
402.00 2.314
402.10 2.312
402.20 2.31
402.30 2.308
402.40 2.306
402.50 2.304
402.60 2.302
402.70 2.3
402.80 2.298
402.90 2.296
403.00 2.294
403.10 2.292
403.20 2.29
403.30 2.288
403.40 2.285
403.50 2.283
403.60 2.281
403.70 2.279
403.80 2.277
403.90 2.274
404.00 2.272
404.10 2.27
404.20 2.268
404.30 2.265
404.40 2.263
404.50 2.261
404.60 2.259
404.70 2.256
404.80 2.254
404.90 2.252
405.00 2.249
405.10 2.247
405.20 2.244
405.30 2.242
405.40 2.24
405.50 2.237
405.60 2.235
405.70 2.232
405.80 2.229
405.90 2.227
406.00 2.224
406.10 2.222
406.20 2.219
406.30 2.216
406.40 2.213
406.50 2.21
406.60 2.208
406.70 2.205
406.80 2.202
406.90 2.198
407.00 2.195
407.10 2.192
407.20 2.189
407.30 2.185
407.40 2.182
407.50 2.178
407.60 2.174
407.70 2.17
407.80 2.166
407.90 2.162
408.00 2.158
408.10 2.153
408.20 2.149
408.30 2.144
408.40 2.139
408.50 2.133
408.60 2.127
408.70 2.122
408.80 2.115
408.90 2.109
409.00 2.102
409.10 2.094
409.20 2.087
409.30 2.079
409.40 2.07
409.50 2.061
409.60 2.051
409.70 2.04
409.80 2.029
409.90 2.017
410.00 2.007
410.10 2.003
410.20 2.003
410.30 2.001
410.40 2.004
410.50 2.012
410.60 2.019
410.70 2.026
410.80 2.033
410.90 2.038
411.00 2.043
411.10 2.048
411.20 2.052
411.30 2.055
411.40 2.059
411.50 2.061
411.60 2.064
411.70 2.066
411.80 2.068
411.90 2.069
412.00 2.07
412.10 2.071
412.20 2.072
412.30 2.073
412.40 2.073
412.50 2.073
412.60 2.073
412.70 2.073
412.80 2.073
412.90 2.073
413.00 2.072
413.10 2.072
413.20 2.071
413.30 2.07
413.40 2.069
413.50 2.069
413.60 2.068
413.70 2.067
413.80 2.065
413.90 2.064
414.00 2.063
414.10 2.062
414.20 2.06
414.30 2.059
414.40 2.058
414.50 2.056
414.60 2.055
414.70 2.053
414.80 2.052
414.90 2.05
415.00 2.049
415.10 2.047
415.20 2.046
415.30 2.044
415.40 2.042
415.50 2.041
415.60 2.039
415.70 2.037
415.80 2.036
415.90 2.034
416.00 2.032
416.10 2.031
416.20 2.029
416.30 2.027
416.40 2.026
416.50 2.024
416.60 2.022
416.70 2.02
416.80 2.019
416.90 2.017
417.00 2.015
417.10 2.013
417.20 2.012
417.30 2.01
417.40 2.008
417.50 2.006
417.60 2.005
417.70 2.003
417.80 2.001
417.90 1.999
418.00 1.997
418.10 1.996
418.20 1.994
418.30 1.992
418.40 1.99
418.50 1.989
418.60 1.987
418.70 1.985
418.80 1.983
418.90 1.981
419.00 1.98
419.10 1.978
419.20 1.976
419.30 1.974
419.40 1.972
419.50 1.971
419.60 1.969
419.70 1.967
419.80 1.965
419.90 1.964
420.00 1.962
420.10 1.96
420.20 1.958
420.30 1.956
420.40 1.955
420.50 1.953
420.60 1.951
420.70 1.949
420.80 1.948
420.90 1.946
421.00 1.944
421.10 1.942
421.20 1.94
421.30 1.939
421.40 1.937
421.50 1.935
421.60 1.933
421.70 1.932
421.80 1.93
421.90 1.928
422.00 1.926
422.10 1.925
422.20 1.923
422.30 1.921
422.40 1.919
422.50 1.918
422.60 1.916
422.70 1.914
422.80 1.912
422.90 1.911
423.00 1.909
423.10 1.907
423.20 1.905
423.30 1.904
423.40 1.902
423.50 1.9
423.60 1.898
423.70 1.897
423.80 1.895
423.90 1.893
424.00 1.891
424.10 1.89
424.20 1.888
424.30 1.886
424.40 1.884
424.50 1.883
424.60 1.881
424.70 1.879
424.80 1.877
424.90 1.876
425.00 1.874
425.10 1.872
425.20 1.87
425.30 1.869
425.40 1.867
425.50 1.865
425.60 1.863
425.70 1.862
425.80 1.86
425.90 1.858
426.00 1.857
426.10 1.855
426.20 1.853
426.30 1.851
426.40 1.85
426.50 1.848
426.60 1.846
426.70 1.844
426.80 1.843
426.90 1.841
427.00 1.839
427.10 1.837
427.20 1.836
427.30 1.834
427.40 1.832
427.50 1.83
427.60 1.829
427.70 1.827
427.80 1.825
427.90 1.823
428.00 1.821
428.10 1.82
428.20 1.818
428.30 1.816
428.40 1.814
428.50 1.812
428.60 1.811
428.70 1.809
428.80 1.807
428.90 1.805
429.00 1.803
429.10 1.801
429.20 1.799
429.30 1.797
429.40 1.795
429.50 1.793
429.60 1.791
429.70 1.789
429.80 1.787
429.90 1.785
430.00 1.783
430.10 1.781
430.20 1.779
430.30 1.777
430.40 1.774
430.50 1.772
430.60 1.77
430.70 1.767
430.80 1.765
430.90 1.762
431.00 1.76
431.10 1.757
431.20 1.754
431.30 1.751
431.40 1.748
431.50 1.745
431.60 1.742
431.70 1.738
431.80 1.735
431.90 1.731
432.00 1.727
432.10 1.722
432.20 1.718
432.30 1.713
432.40 1.708
432.50 1.703
432.60 1.697
432.70 1.691
432.80 1.684
432.90 1.677
433.00 1.67
433.10 1.662
433.20 1.653
433.30 1.644
433.40 1.634
433.50 1.623
433.60 1.611
433.70 1.597
433.80 1.582
433.90 1.565
434.00 1.549
434.10 1.548
434.20 1.562
434.30 1.576
434.40 1.588
434.50 1.599
434.60 1.608
434.70 1.616
434.80 1.623
434.90 1.629
435.00 1.635
435.10 1.64
435.20 1.645
435.30 1.648
435.40 1.652
435.50 1.655
435.60 1.658
435.70 1.66
435.80 1.662
435.90 1.663
436.00 1.665
436.10 1.666
436.20 1.667
436.30 1.668
436.40 1.668
436.50 1.668
436.60 1.669
436.70 1.669
436.80 1.669
436.90 1.668
437.00 1.668
437.10 1.668
437.20 1.667
437.30 1.667
437.40 1.666
437.50 1.665
437.60 1.665
437.70 1.664
437.80 1.663
437.90 1.662
438.00 1.661
438.10 1.66
438.20 1.659
438.30 1.658
438.40 1.657
438.50 1.656
438.60 1.655
438.70 1.654
438.80 1.652
438.90 1.651
439.00 1.65
439.10 1.649
439.20 1.648
439.30 1.646
439.40 1.645
439.50 1.644
439.60 1.643
439.70 1.641
439.80 1.64
439.90 1.639
440.00 1.637
440.10 1.636
440.20 1.635
440.30 1.633
440.40 1.632
440.50 1.631
440.60 1.629
440.70 1.628
440.80 1.627
440.90 1.625
441.00 1.624
441.10 1.623
441.20 1.621
441.30 1.62
441.40 1.619
441.50 1.617
441.60 1.616
441.70 1.615
441.80 1.613
441.90 1.612
442.00 1.611
442.10 1.609
442.20 1.608
442.30 1.607
442.40 1.605
442.50 1.604
442.60 1.602
442.70 1.601
442.80 1.6
442.90 1.598
443.00 1.597
443.10 1.596
443.20 1.594
443.30 1.593
443.40 1.592
443.50 1.59
443.60 1.589
443.70 1.587
443.80 1.586
443.90 1.585
444.00 1.583
444.10 1.582
444.20 1.581
444.30 1.579
444.40 1.578
444.50 1.577
444.60 1.575
444.70 1.574
444.80 1.573
444.90 1.571
445.00 1.57
445.10 1.569
445.20 1.567
445.30 1.566
445.40 1.565
445.50 1.563
445.60 1.562
445.70 1.56
445.80 1.559
445.90 1.558
446.00 1.556
446.10 1.555
446.20 1.554
446.30 1.552
446.40 1.551
446.50 1.55
446.60 1.548
446.70 1.547
446.80 1.546
446.90 1.544
447.00 1.543
447.10 1.542
447.20 1.54
447.30 1.539
447.40 1.538
447.50 1.537
447.60 1.535
447.70 1.534
447.80 1.533
447.90 1.531
448.00 1.53
448.10 1.529
448.20 1.527
448.30 1.526
448.40 1.525
448.50 1.523
448.60 1.522
448.70 1.521
448.80 1.519
448.90 1.518
449.00 1.517
449.10 1.516
449.20 1.514
449.30 1.513
449.40 1.512
449.50 1.51
449.60 1.509
449.70 1.508
449.80 1.506
449.90 1.505
450.00 1.504
450.10 1.503
450.20 1.501
450.30 1.5
450.40 1.499
450.50 1.497
450.60 1.496
450.70 1.495
450.80 1.494
450.90 1.492
451.00 1.491
451.10 1.49
451.20 1.489
451.30 1.487
451.40 1.486
451.50 1.485
451.60 1.483
451.70 1.482
451.80 1.481
451.90 1.48
452.00 1.478
452.10 1.477
452.20 1.476
452.30 1.475
452.40 1.473
452.50 1.472
452.60 1.471
452.70 1.47
452.80 1.468
452.90 1.467
453.00 1.466
453.10 1.465
453.20 1.463
453.30 1.462
453.40 1.461
453.50 1.46
453.60 1.458
453.70 1.457
453.80 1.456
453.90 1.455
454.00 1.453
454.10 1.452
454.20 1.451
454.30 1.45
454.40 1.448
454.50 1.447
454.60 1.446
454.70 1.445
454.80 1.444
454.90 1.442
455.00 1.441
455.10 1.44
455.20 1.439
455.30 1.437
455.40 1.436
455.50 1.435
455.60 1.434
455.70 1.433
455.80 1.431
455.90 1.43
456.00 1.429
456.10 1.428
456.20 1.426
456.30 1.425
456.40 1.424
456.50 1.423
456.60 1.422
456.70 1.42
456.80 1.419
456.90 1.418
457.00 1.417
457.10 1.416
457.20 1.414
457.30 1.413
457.40 1.412
457.50 1.411
457.60 1.41
457.70 1.408
457.80 1.407
457.90 1.406
458.00 1.405
458.10 1.404
458.20 1.403
458.30 1.401
458.40 1.4
458.50 1.399
458.60 1.398
458.70 1.397
458.80 1.395
458.90 1.394
459.00 1.393
459.10 1.392
459.20 1.391
459.30 1.39
459.40 1.388
459.50 1.387
459.60 1.386
459.70 1.385
459.80 1.384
459.90 1.383
460.00 1.381
460.10 1.38
460.20 1.379
460.30 1.378
460.40 1.377
460.50 1.376
460.60 1.374
460.70 1.373
460.80 1.372
460.90 1.371
461.00 1.37
461.10 1.369
461.20 1.368
461.30 1.366
461.40 1.365
461.50 1.364
461.60 1.363
461.70 1.362
461.80 1.361
461.90 1.36
462.00 1.358
462.10 1.357
462.20 1.356
462.30 1.355
462.40 1.354
462.50 1.353
462.60 1.352
462.70 1.35
462.80 1.349
462.90 1.348
463.00 1.347
463.10 1.346
463.20 1.345
463.30 1.344
463.40 1.343
463.50 1.341
463.60 1.34
463.70 1.339
463.80 1.338
463.90 1.337
464.00 1.336
464.10 1.335
464.20 1.334
464.30 1.333
464.40 1.331
464.50 1.33
464.60 1.329
464.70 1.328
464.80 1.327
464.90 1.326
465.00 1.325
465.10 1.324
465.20 1.323
465.30 1.321
465.40 1.32
465.50 1.319
465.60 1.318
465.70 1.317
465.80 1.316
465.90 1.315
466.00 1.314
466.10 1.313
466.20 1.312
466.30 1.31
466.40 1.309
466.50 1.308
466.60 1.307
466.70 1.306
466.80 1.305
466.90 1.304
467.00 1.303
467.10 1.302
467.20 1.301
467.30 1.3
467.40 1.299
467.50 1.297
467.60 1.296
467.70 1.295
467.80 1.294
467.90 1.293
468.00 1.292
468.10 1.291
468.20 1.29
468.30 1.289
468.40 1.288
468.50 1.287
468.60 1.286
468.70 1.285
468.80 1.284
468.90 1.283
469.00 1.281
469.10 1.28
469.20 1.279
469.30 1.278
469.40 1.277
469.50 1.276
469.60 1.275
469.70 1.274
469.80 1.273
469.90 1.272
470.00 1.271
470.10 1.27
470.20 1.269
470.30 1.268
470.40 1.267
470.50 1.266
470.60 1.265
470.70 1.264
470.80 1.263
470.90 1.261
471.00 1.26
471.10 1.259
471.20 1.258
471.30 1.257
471.40 1.256
471.50 1.255
471.60 1.254
471.70 1.253
471.80 1.252
471.90 1.251
472.00 1.25
472.10 1.249
472.20 1.248
472.30 1.247
472.40 1.246
472.50 1.245
472.60 1.244
472.70 1.243
472.80 1.242
472.90 1.241
473.00 1.24
473.10 1.239
473.20 1.238
473.30 1.237
473.40 1.236
473.50 1.235
473.60 1.234
473.70 1.233
473.80 1.232
473.90 1.231
474.00 1.23
474.10 1.229
474.20 1.228
474.30 1.227
474.40 1.226
474.50 1.225
474.60 1.224
474.70 1.223
474.80 1.221
474.90 1.22
475.00 1.219
475.10 1.218
475.20 1.217
475.30 1.216
475.40 1.215
475.50 1.214
475.60 1.213
475.70 1.212
475.80 1.211
475.90 1.21
476.00 1.209
476.10 1.208
476.20 1.207
476.30 1.206
476.40 1.205
476.50 1.204
476.60 1.203
476.70 1.202
476.80 1.201
476.90 1.2
477.00 1.199
477.10 1.198
477.20 1.197
477.30 1.196
477.40 1.195
477.50 1.194
477.60 1.193
477.70 1.192
477.80 1.191
477.90 1.19
478.00 1.189
478.10 1.188
478.20 1.187
478.30 1.186
478.40 1.185
478.50 1.184
478.60 1.183
478.70 1.182
478.80 1.181
478.90 1.18
479.00 1.179
479.10 1.178
479.20 1.177
479.30 1.176
479.40 1.175
479.50 1.174
479.60 1.173
479.70 1.172
479.80 1.171
479.90 1.17
480.00 1.169
480.10 1.168
480.20 1.167
480.30 1.166
480.40 1.165
480.50 1.164
480.60 1.163
480.70 1.162
480.80 1.161
480.90 1.159
481.00 1.158
481.10 1.157
481.20 1.156
481.30 1.155
481.40 1.154
481.50 1.153
481.60 1.152
481.70 1.15
481.80 1.149
481.90 1.148
482.00 1.147
482.10 1.146
482.20 1.144
482.30 1.143
482.40 1.141
482.50 1.14
482.60 1.139
482.70 1.137
482.80 1.136
482.90 1.134
483.00 1.133
483.10 1.132
483.20 1.13
483.30 1.128
483.40 1.126
483.50 1.124
483.60 1.121
483.70 1.119
483.80 1.117
483.90 1.115
484.00 1.113
484.10 1.111
484.20 1.108
484.30 1.105
484.40 1.102
484.50 1.099
484.60 1.096
484.70 1.092
484.80 1.087
484.90 1.083
485.00 1.078
485.10 1.074
485.20 1.068
485.30 1.062
485.40 1.055
485.50 1.048
485.60 1.039
485.70 1.029
485.80 1.015
485.90 0.9987
486.00 0.9798
486.10 0.9788
486.20 0.9737
486.30 0.9839
486.40 0.9999
486.50 1.014
486.60 1.025
486.70 1.033
486.80 1.04
486.90 1.045
487.00 1.05
487.10 1.054
487.20 1.058
487.30 1.06
487.40 1.063
487.50 1.066
487.60 1.069
487.70 1.07
487.80 1.072
487.90 1.073
488.00 1.074
488.10 1.076
488.20 1.076
488.30 1.077
488.40 1.077
488.50 1.077
488.60 1.077
488.70 1.078
488.80 1.078
488.90 1.078
489.00 1.078
489.10 1.079
489.20 1.079
489.30 1.078
489.40 1.078
489.50 1.077
489.60 1.077
489.70 1.077
489.80 1.076
489.90 1.076
490.00 1.075
490.10 1.075
490.20 1.074
490.30 1.074
490.40 1.073
490.50 1.073
490.60 1.072
490.70 1.071
490.80 1.071
490.90 1.07
491.00 1.07
491.10 1.069
491.20 1.068
491.30 1.067
491.40 1.067
491.50 1.066
491.60 1.065
491.70 1.065
491.80 1.064
491.90 1.063
492.00 1.062
492.10 1.062
492.20 1.061
492.30 1.06
492.40 1.059
492.50 1.059
492.60 1.058
492.70 1.057
492.80 1.056
492.90 1.056
493.00 1.055
493.10 1.054
493.20 1.053
493.30 1.053
493.40 1.052
493.50 1.051
493.60 1.05
493.70 1.049
493.80 1.049
493.90 1.048
494.00 1.047
494.10 1.046
494.20 1.045
494.30 1.045
494.40 1.044
494.50 1.043
494.60 1.042
494.70 1.042
494.80 1.041
494.90 1.04
495.00 1.039
495.10 1.038
495.20 1.038
495.30 1.037
495.40 1.036
495.50 1.035
495.60 1.034
495.70 1.034
495.80 1.033
495.90 1.032
496.00 1.031
496.10 1.03
496.20 1.03
496.30 1.029
496.40 1.028
496.50 1.027
496.60 1.027
496.70 1.026
496.80 1.025
496.90 1.024
497.00 1.023
497.10 1.023
497.20 1.022
497.30 1.021
497.40 1.02
497.50 1.019
497.60 1.019
497.70 1.018
497.80 1.017
497.90 1.016
498.00 1.016
498.10 1.015
498.20 1.014
498.30 1.013
498.40 1.012
498.50 1.012
498.60 1.011
498.70 1.01
498.80 1.009
498.90 1.009
499.00 1.008
499.10 1.007
499.20 1.006
499.30 1.005
499.40 1.005
499.50 1.004
499.60 1.003
499.70 1.002
499.80 1.002
499.90 1.001
500.00 1
500.10 0.9992
500.20 0.9985
500.30 0.9977
500.40 0.9969
500.50 0.9962
500.60 0.9954
500.70 0.9946
500.80 0.9939
500.90 0.9931
501.00 0.9923
501.10 0.9916
501.20 0.9908
501.30 0.99
501.40 0.9893
501.50 0.9885
501.60 0.9878
501.70 0.987
501.80 0.9862
501.90 0.9855
502.00 0.9847
502.10 0.984
502.20 0.9832
502.30 0.9825
502.40 0.9817
502.50 0.981
502.60 0.9802
502.70 0.9794
502.80 0.9787
502.90 0.9779
503.00 0.9772
503.10 0.9764
503.20 0.9757
503.30 0.9749
503.40 0.9742
503.50 0.9734
503.60 0.9727
503.70 0.972
503.80 0.9712
503.90 0.9705
504.00 0.9697
504.10 0.969
504.20 0.9682
504.30 0.9675
504.40 0.9667
504.50 0.966
504.60 0.9653
504.70 0.9645
504.80 0.9638
504.90 0.963
505.00 0.9623
505.10 0.9616
505.20 0.9608
505.30 0.9601
505.40 0.9594
505.50 0.9586
505.60 0.9579
505.70 0.9572
505.80 0.9564
505.90 0.9557
506.00 0.955
506.10 0.9542
506.20 0.9535
506.30 0.9528
506.40 0.9521
506.50 0.9513
506.60 0.9506
506.70 0.9499
506.80 0.9492
506.90 0.9484
507.00 0.9477
507.10 0.947
507.20 0.9463
507.30 0.9455
507.40 0.9448
507.50 0.9441
507.60 0.9434
507.70 0.9427
507.80 0.9419
507.90 0.9412
508.00 0.9405
508.10 0.9398
508.20 0.9391
508.30 0.9384
508.40 0.9376
508.50 0.9369
508.60 0.9362
508.70 0.9355
508.80 0.9348
508.90 0.9341
509.00 0.9334
509.10 0.9326
509.20 0.9319
509.30 0.9312
509.40 0.9305
509.50 0.9298
509.60 0.9291
509.70 0.9284
509.80 0.9277
509.90 0.927
510.00 0.9263
510.10 0.9256
510.20 0.9249
510.30 0.9242
510.40 0.9235
510.50 0.9228
510.60 0.9221
510.70 0.9214
510.80 0.9207
510.90 0.92
511.00 0.9193
511.10 0.9186
511.20 0.9179
511.30 0.9172
511.40 0.9165
511.50 0.9158
511.60 0.9151
511.70 0.9144
511.80 0.9137
511.90 0.913
512.00 0.9124
512.10 0.9117
512.20 0.911
512.30 0.9103
512.40 0.9096
512.50 0.9089
512.60 0.9082
512.70 0.9075
512.80 0.9069
512.90 0.9062
513.00 0.9055
513.10 0.9048
513.20 0.9041
513.30 0.9034
513.40 0.9028
513.50 0.9021
513.60 0.9014
513.70 0.9007
513.80 0.9
513.90 0.8993
514.00 0.8987
514.10 0.898
514.20 0.8973
514.30 0.8966
514.40 0.896
514.50 0.8953
514.60 0.8946
514.70 0.8939
514.80 0.8933
514.90 0.8926
515.00 0.8919
515.10 0.8913
515.20 0.8906
515.30 0.8899
515.40 0.8892
515.50 0.8886
515.60 0.8879
515.70 0.8872
515.80 0.8866
515.90 0.8859
516.00 0.8852
516.10 0.8846
516.20 0.8839
516.30 0.8833
516.40 0.8826
516.50 0.8819
516.60 0.8813
516.70 0.8806
516.80 0.8799
516.90 0.8793
517.00 0.8786
517.10 0.878
517.20 0.8773
517.30 0.8767
517.40 0.876
517.50 0.8753
517.60 0.8747
517.70 0.874
517.80 0.8734
517.90 0.8727
518.00 0.8721
518.10 0.8714
518.20 0.8708
518.30 0.8701
518.40 0.8695
518.50 0.8688
518.60 0.8682
518.70 0.8675
518.80 0.8669
518.90 0.8662
519.00 0.8656
519.10 0.8649
519.20 0.8643
519.30 0.8636
519.40 0.863
519.50 0.8623
519.60 0.8617
519.70 0.8611
519.80 0.8604
519.90 0.8598
520.00 0.8591
520.10 0.8585
520.20 0.8579
520.30 0.8572
520.40 0.8566
520.50 0.8559
520.60 0.8553
520.70 0.8547
520.80 0.854
520.90 0.8534
521.00 0.8528
521.10 0.8521
521.20 0.8515
521.30 0.8509
521.40 0.8502
521.50 0.8496
521.60 0.849
521.70 0.8483
521.80 0.8477
521.90 0.8471
522.00 0.8464
522.10 0.8458
522.20 0.8452
522.30 0.8446
522.40 0.8439
522.50 0.8433
522.60 0.8427
522.70 0.8421
522.80 0.8414
522.90 0.8408
523.00 0.8402
523.10 0.8396
523.20 0.8389
523.30 0.8383
523.40 0.8377
523.50 0.8371
523.60 0.8365
523.70 0.8358
523.80 0.8352
523.90 0.8346
524.00 0.834
524.10 0.8334
524.20 0.8327
524.30 0.8321
524.40 0.8315
524.50 0.8309
524.60 0.8303
524.70 0.8297
524.80 0.8291
524.90 0.8285
525.00 0.8278
525.10 0.8272
525.20 0.8266
525.30 0.826
525.40 0.8254
525.50 0.8248
525.60 0.8242
525.70 0.8236
525.80 0.823
525.90 0.8224
526.00 0.8217
526.10 0.8211
526.20 0.8205
526.30 0.8199
526.40 0.8193
526.50 0.8187
526.60 0.8181
526.70 0.8175
526.80 0.8169
526.90 0.8163
527.00 0.8157
527.10 0.8151
527.20 0.8145
527.30 0.8139
527.40 0.8133
527.50 0.8127
527.60 0.8121
527.70 0.8115
527.80 0.8109
527.90 0.8103
528.00 0.8097
528.10 0.8091
528.20 0.8086
528.30 0.808
528.40 0.8074
528.50 0.8068
528.60 0.8062
528.70 0.8056
528.80 0.805
528.90 0.8044
529.00 0.8038
529.10 0.8032
529.20 0.8026
529.30 0.8021
529.40 0.8015
529.50 0.8009
529.60 0.8003
529.70 0.7997
529.80 0.7991
529.90 0.7985
530.00 0.798
530.10 0.7974
530.20 0.7968
530.30 0.7962
530.40 0.7956
530.50 0.795
530.60 0.7945
530.70 0.7939
530.80 0.7933
530.90 0.7927
531.00 0.7921
531.10 0.7916
531.20 0.791
531.30 0.7904
531.40 0.7898
531.50 0.7892
531.60 0.7887
531.70 0.7881
531.80 0.7875
531.90 0.7869
532.00 0.7864
532.10 0.7858
532.20 0.7852
532.30 0.7847
532.40 0.7841
532.50 0.7835
532.60 0.7829
532.70 0.7824
532.80 0.7818
532.90 0.7812
533.00 0.7807
533.10 0.7801
533.20 0.7795
533.30 0.779
533.40 0.7784
533.50 0.7778
533.60 0.7773
533.70 0.7767
533.80 0.7761
533.90 0.7756
534.00 0.775
534.10 0.7744
534.20 0.7739
534.30 0.7733
534.40 0.7728
534.50 0.7722
534.60 0.7716
534.70 0.7711
534.80 0.7705
534.90 0.77
535.00 0.7694
535.10 0.7688
535.20 0.7683
535.30 0.7677
535.40 0.7672
535.50 0.7666
535.60 0.7661
535.70 0.7655
535.80 0.765
535.90 0.7644
536.00 0.7638
536.10 0.7633
536.20 0.7627
536.30 0.7622
536.40 0.7616
536.50 0.7611
536.60 0.7605
536.70 0.76
536.80 0.7594
536.90 0.7589
537.00 0.7583
537.10 0.7578
537.20 0.7572
537.30 0.7567
537.40 0.7562
537.50 0.7556
537.60 0.7551
537.70 0.7545
537.80 0.754
537.90 0.7534
538.00 0.7529
538.10 0.7523
538.20 0.7518
538.30 0.7513
538.40 0.7507
538.50 0.7502
538.60 0.7496
538.70 0.7491
538.80 0.7486
538.90 0.748
539.00 0.7475
539.10 0.7469
539.20 0.7464
539.30 0.7459
539.40 0.7453
539.50 0.7448
539.60 0.7443
539.70 0.7437
539.80 0.7432
539.90 0.7427
540.00 0.7421
540.10 0.7416
540.20 0.7411
540.30 0.7405
540.40 0.74
540.50 0.7395
540.60 0.7389
540.70 0.7384
540.80 0.7379
540.90 0.7373
541.00 0.7368
541.10 0.7363
541.20 0.7358
541.30 0.7352
541.40 0.7347
541.50 0.7342
541.60 0.7336
541.70 0.7331
541.80 0.7326
541.90 0.7321
542.00 0.7315
542.10 0.731
542.20 0.7305
542.30 0.73
542.40 0.7295
542.50 0.7289
542.60 0.7284
542.70 0.7279
542.80 0.7274
542.90 0.7269
543.00 0.7263
543.10 0.7258
543.20 0.7253
543.30 0.7248
543.40 0.7243
543.50 0.7237
543.60 0.7232
543.70 0.7227
543.80 0.7222
543.90 0.7217
544.00 0.7212
544.10 0.7207
544.20 0.7201
544.30 0.7196
544.40 0.7191
544.50 0.7186
544.60 0.7181
544.70 0.7176
544.80 0.7171
544.90 0.7166
545.00 0.716
545.10 0.7155
545.20 0.715
545.30 0.7145
545.40 0.714
545.50 0.7135
545.60 0.713
545.70 0.7125
545.80 0.712
545.90 0.7115
546.00 0.711
546.10 0.7105
546.20 0.71
546.30 0.7095
546.40 0.7089
546.50 0.7084
546.60 0.7079
546.70 0.7074
546.80 0.7069
546.90 0.7064
547.00 0.7059
547.10 0.7054
547.20 0.7049
547.30 0.7044
547.40 0.7039
547.50 0.7034
547.60 0.7029
547.70 0.7024
547.80 0.7019
547.90 0.7014
548.00 0.7009
548.10 0.7005
548.20 0.7
548.30 0.6995
548.40 0.699
548.50 0.6985
548.60 0.698
548.70 0.6975
548.80 0.697
548.90 0.6965
549.00 0.696
549.10 0.6955
549.20 0.695
549.30 0.6945
549.40 0.694
549.50 0.6935
549.60 0.6931
549.70 0.6926
549.80 0.6921
549.90 0.6916
550.00 0.6911
550.10 0.6906
550.20 0.6901
550.30 0.6896
550.40 0.6892
550.50 0.6887
550.60 0.6882
550.70 0.6877
550.80 0.6872
550.90 0.6867
551.00 0.6862
551.10 0.6858
551.20 0.6853
551.30 0.6848
551.40 0.6843
551.50 0.6838
551.60 0.6833
551.70 0.6829
551.80 0.6824
551.90 0.6819
552.00 0.6814
552.10 0.6809
552.20 0.6805
552.30 0.68
552.40 0.6795
552.50 0.679
552.60 0.6786
552.70 0.6781
552.80 0.6776
552.90 0.6771
553.00 0.6767
553.10 0.6762
553.20 0.6757
553.30 0.6752
553.40 0.6748
553.50 0.6743
553.60 0.6738
553.70 0.6733
553.80 0.6729
553.90 0.6724
554.00 0.6719
554.10 0.6715
554.20 0.671
554.30 0.6705
554.40 0.67
554.50 0.6696
554.60 0.6691
554.70 0.6686
554.80 0.6682
554.90 0.6677
555.00 0.6672
555.10 0.6668
555.20 0.6663
555.30 0.6658
555.40 0.6654
555.50 0.6649
555.60 0.6644
555.70 0.664
555.80 0.6635
555.90 0.6631
556.00 0.6626
556.10 0.6621
556.20 0.6617
556.30 0.6612
556.40 0.6607
556.50 0.6603
556.60 0.6598
556.70 0.6594
556.80 0.6589
556.90 0.6584
557.00 0.658
557.10 0.6575
557.20 0.6571
557.30 0.6566
557.40 0.6561
557.50 0.6557
557.60 0.6552
557.70 0.6548
557.80 0.6543
557.90 0.6539
558.00 0.6534
558.10 0.653
558.20 0.6525
558.30 0.6521
558.40 0.6516
558.50 0.6511
558.60 0.6507
558.70 0.6502
558.80 0.6498
558.90 0.6493
559.00 0.6489
559.10 0.6484
559.20 0.648
559.30 0.6475
559.40 0.6471
559.50 0.6466
559.60 0.6462
559.70 0.6457
559.80 0.6453
559.90 0.6448
560.00 0.6444
560.10 0.644
560.20 0.6435
560.30 0.6431
560.40 0.6426
560.50 0.6422
560.60 0.6417
560.70 0.6413
560.80 0.6408
560.90 0.6404
561.00 0.64
561.10 0.6395
561.20 0.6391
561.30 0.6386
561.40 0.6382
561.50 0.6377
561.60 0.6373
561.70 0.6369
561.80 0.6364
561.90 0.636
562.00 0.6355
562.10 0.6351
562.20 0.6347
562.30 0.6342
562.40 0.6338
562.50 0.6333
562.60 0.6329
562.70 0.6325
562.80 0.632
562.90 0.6316
563.00 0.6312
563.10 0.6307
563.20 0.6303
563.30 0.6299
563.40 0.6294
563.50 0.629
563.60 0.6286
563.70 0.6281
563.80 0.6277
563.90 0.6273
564.00 0.6268
564.10 0.6264
564.20 0.626
564.30 0.6255
564.40 0.6251
564.50 0.6247
564.60 0.6242
564.70 0.6238
564.80 0.6234
564.90 0.623
565.00 0.6225
565.10 0.6221
565.20 0.6217
565.30 0.6213
565.40 0.6208
565.50 0.6204
565.60 0.62
565.70 0.6195
565.80 0.6191
565.90 0.6187
566.00 0.6183
566.10 0.6178
566.20 0.6174
566.30 0.617
566.40 0.6166
566.50 0.6162
566.60 0.6157
566.70 0.6153
566.80 0.6149
566.90 0.6145
567.00 0.614
567.10 0.6136
567.20 0.6132
567.30 0.6128
567.40 0.6124
567.50 0.6119
567.60 0.6115
567.70 0.6111
567.80 0.6107
567.90 0.6103
568.00 0.6099
568.10 0.6094
568.20 0.609
568.30 0.6086
568.40 0.6082
568.50 0.6078
568.60 0.6074
568.70 0.6069
568.80 0.6065
568.90 0.6061
569.00 0.6057
569.10 0.6053
569.20 0.6049
569.30 0.6045
569.40 0.6041
569.50 0.6036
569.60 0.6032
569.70 0.6028
569.80 0.6024
569.90 0.602
570.00 0.6016
570.10 0.6012
570.20 0.6008
570.30 0.6004
570.40 0.6
570.50 0.5995
570.60 0.5991
570.70 0.5987
570.80 0.5983
570.90 0.5979
571.00 0.5975
571.10 0.5971
571.20 0.5967
571.30 0.5963
571.40 0.5959
571.50 0.5955
571.60 0.5951
571.70 0.5947
571.80 0.5943
571.90 0.5939
572.00 0.5935
572.10 0.5931
572.20 0.5926
572.30 0.5922
572.40 0.5918
572.50 0.5914
572.60 0.591
572.70 0.5906
572.80 0.5902
572.90 0.5898
573.00 0.5894
573.10 0.589
573.20 0.5886
573.30 0.5882
573.40 0.5878
573.50 0.5875
573.60 0.5871
573.70 0.5867
573.80 0.5863
573.90 0.5859
574.00 0.5855
574.10 0.5851
574.20 0.5847
574.30 0.5843
574.40 0.5839
574.50 0.5835
574.60 0.5831
574.70 0.5827
574.80 0.5823
574.90 0.5819
575.00 0.5815
575.10 0.5811
575.20 0.5807
575.30 0.5803
575.40 0.5799
575.50 0.5796
575.60 0.5792
575.70 0.5788
575.80 0.5784
575.90 0.578
576.00 0.5776
576.10 0.5772
576.20 0.5768
576.30 0.5764
576.40 0.576
576.50 0.5757
576.60 0.5753
576.70 0.5749
576.80 0.5745
576.90 0.5741
577.00 0.5737
577.10 0.5733
577.20 0.573
577.30 0.5726
577.40 0.5722
577.50 0.5718
577.60 0.5714
577.70 0.571
577.80 0.5706
577.90 0.5703
578.00 0.5699
578.10 0.5695
578.20 0.5691
578.30 0.5687
578.40 0.5683
578.50 0.568
578.60 0.5676
578.70 0.5672
578.80 0.5668
578.90 0.5664
579.00 0.5661
579.10 0.5657
579.20 0.5653
579.30 0.5649
579.40 0.5645
579.50 0.5642
579.60 0.5638
579.70 0.5634
579.80 0.563
579.90 0.5627
580.00 0.5623
580.10 0.5619
580.20 0.5615
580.30 0.5611
580.40 0.5608
580.50 0.5604
580.60 0.56
580.70 0.5597
580.80 0.5593
580.90 0.5589
581.00 0.5585
581.10 0.5582
581.20 0.5578
581.30 0.5574
581.40 0.557
581.50 0.5567
581.60 0.5563
581.70 0.5559
581.80 0.5555
581.90 0.5552
582.00 0.5548
582.10 0.5544
582.20 0.5541
582.30 0.5537
582.40 0.5533
582.50 0.553
582.60 0.5526
582.70 0.5522
582.80 0.5519
582.90 0.5515
583.00 0.5511
583.10 0.5507
583.20 0.5504
583.30 0.55
583.40 0.5496
583.50 0.5493
583.60 0.5489
583.70 0.5486
583.80 0.5482
583.90 0.5478
584.00 0.5475
584.10 0.5471
584.20 0.5467
584.30 0.5464
584.40 0.546
584.50 0.5456
584.60 0.5453
584.70 0.5449
584.80 0.5446
584.90 0.5442
585.00 0.5438
585.10 0.5435
585.20 0.5431
585.30 0.5427
585.40 0.5424
585.50 0.542
585.60 0.5417
585.70 0.5413
585.80 0.541
585.90 0.5406
586.00 0.5402
586.10 0.5399
586.20 0.5395
586.30 0.5392
586.40 0.5388
586.50 0.5384
586.60 0.5381
586.70 0.5377
586.80 0.5374
586.90 0.537
587.00 0.5367
587.10 0.5363
587.20 0.536
587.30 0.5356
587.40 0.5352
587.50 0.5349
587.60 0.5345
587.70 0.5342
587.80 0.5338
587.90 0.5335
588.00 0.5331
588.10 0.5328
588.20 0.5324
588.30 0.5321
588.40 0.5317
588.50 0.5314
588.60 0.531
588.70 0.5307
588.80 0.5303
588.90 0.53
589.00 0.5296
589.10 0.5293
589.20 0.5289
589.30 0.5286
589.40 0.5282
589.50 0.5279
589.60 0.5275
589.70 0.5272
589.80 0.5268
589.90 0.5265
590.00 0.5261
590.10 0.5258
590.20 0.5254
590.30 0.5251
590.40 0.5248
590.50 0.5244
590.60 0.5241
590.70 0.5237
590.80 0.5234
590.90 0.523
591.00 0.5227
591.10 0.5223
591.20 0.522
591.30 0.5217
591.40 0.5213
591.50 0.521
591.60 0.5206
591.70 0.5203
591.80 0.5199
591.90 0.5196
592.00 0.5193
592.10 0.5189
592.20 0.5186
592.30 0.5182
592.40 0.5179
592.50 0.5176
592.60 0.5172
592.70 0.5169
592.80 0.5165
592.90 0.5162
593.00 0.5159
593.10 0.5155
593.20 0.5152
593.30 0.5149
593.40 0.5145
593.50 0.5142
593.60 0.5138
593.70 0.5135
593.80 0.5132
593.90 0.5128
594.00 0.5125
594.10 0.5122
594.20 0.5118
594.30 0.5115
594.40 0.5112
594.50 0.5108
594.60 0.5105
594.70 0.5102
594.80 0.5098
594.90 0.5095
595.00 0.5092
595.10 0.5088
595.20 0.5085
595.30 0.5082
595.40 0.5078
595.50 0.5075
595.60 0.5072
595.70 0.5068
595.80 0.5065
595.90 0.5062
596.00 0.5058
596.10 0.5055
596.20 0.5052
596.30 0.5049
596.40 0.5045
596.50 0.5042
596.60 0.5039
596.70 0.5035
596.80 0.5032
596.90 0.5029
597.00 0.5026
597.10 0.5022
597.20 0.5019
597.30 0.5016
597.40 0.5013
597.50 0.5009
597.60 0.5006
597.70 0.5003
597.80 0.4999
597.90 0.4996
598.00 0.4993
598.10 0.499
598.20 0.4986
598.30 0.4983
598.40 0.498
598.50 0.4977
598.60 0.4974
598.70 0.497
598.80 0.4967
598.90 0.4964
599.00 0.4961
599.10 0.4957
599.20 0.4954
599.30 0.4951
599.40 0.4948
599.50 0.4945
599.60 0.4941
599.70 0.4938
599.80 0.4935
599.90 0.4932
600.00 0.4929
600.10 0.4925
600.20 0.4922
600.30 0.4919
600.40 0.4916
600.50 0.4913
600.60 0.4909
600.70 0.4906
600.80 0.4903
600.90 0.49
601.00 0.4897
601.10 0.4894
601.20 0.489
601.30 0.4887
601.40 0.4884
601.50 0.4881
601.60 0.4878
601.70 0.4875
601.80 0.4871
601.90 0.4868
602.00 0.4865
602.10 0.4862
602.20 0.4859
602.30 0.4856
602.40 0.4853
602.50 0.485
602.60 0.4846
602.70 0.4843
602.80 0.484
602.90 0.4837
603.00 0.4834
603.10 0.4831
603.20 0.4828
603.30 0.4825
603.40 0.4821
603.50 0.4818
603.60 0.4815
603.70 0.4812
603.80 0.4809
603.90 0.4806
604.00 0.4803
604.10 0.48
604.20 0.4797
604.30 0.4794
604.40 0.4791
604.50 0.4787
604.60 0.4784
604.70 0.4781
604.80 0.4778
604.90 0.4775
605.00 0.4772
605.10 0.4769
605.20 0.4766
605.30 0.4763
605.40 0.476
605.50 0.4757
605.60 0.4754
605.70 0.4751
605.80 0.4748
605.90 0.4745
606.00 0.4742
606.10 0.4738
606.20 0.4735
606.30 0.4732
606.40 0.4729
606.50 0.4726
606.60 0.4723
606.70 0.472
606.80 0.4717
606.90 0.4714
607.00 0.4711
607.10 0.4708
607.20 0.4705
607.30 0.4702
607.40 0.4699
607.50 0.4696
607.60 0.4693
607.70 0.469
607.80 0.4687
607.90 0.4684
608.00 0.4681
608.10 0.4678
608.20 0.4675
608.30 0.4672
608.40 0.4669
608.50 0.4666
608.60 0.4663
608.70 0.466
608.80 0.4657
608.90 0.4654
609.00 0.4651
609.10 0.4648
609.20 0.4645
609.30 0.4642
609.40 0.4639
609.50 0.4637
609.60 0.4634
609.70 0.4631
609.80 0.4628
609.90 0.4625
610.00 0.4622
610.10 0.4619
610.20 0.4616
610.30 0.4613
610.40 0.461
610.50 0.4607
610.60 0.4604
610.70 0.4601
610.80 0.4598
610.90 0.4595
611.00 0.4592
611.10 0.4589
611.20 0.4587
611.30 0.4584
611.40 0.4581
611.50 0.4578
611.60 0.4575
611.70 0.4572
611.80 0.4569
611.90 0.4566
612.00 0.4563
612.10 0.456
612.20 0.4557
612.30 0.4555
612.40 0.4552
612.50 0.4549
612.60 0.4546
612.70 0.4543
612.80 0.454
612.90 0.4537
613.00 0.4534
613.10 0.4532
613.20 0.4529
613.30 0.4526
613.40 0.4523
613.50 0.452
613.60 0.4517
613.70 0.4514
613.80 0.4511
613.90 0.4509
614.00 0.4506
614.10 0.4503
614.20 0.45
614.30 0.4497
614.40 0.4494
614.50 0.4491
614.60 0.4489
614.70 0.4486
614.80 0.4483
614.90 0.448
615.00 0.4477
615.10 0.4474
615.20 0.4472
615.30 0.4469
615.40 0.4466
615.50 0.4463
615.60 0.446
615.70 0.4458
615.80 0.4455
615.90 0.4452
616.00 0.4449
616.10 0.4446
616.20 0.4443
616.30 0.4441
616.40 0.4438
616.50 0.4435
616.60 0.4432
616.70 0.4429
616.80 0.4427
616.90 0.4424
617.00 0.4421
617.10 0.4418
617.20 0.4416
617.30 0.4413
617.40 0.441
617.50 0.4407
617.60 0.4404
617.70 0.4402
617.80 0.4399
617.90 0.4396
618.00 0.4393
618.10 0.4391
618.20 0.4388
618.30 0.4385
618.40 0.4382
618.50 0.438
618.60 0.4377
618.70 0.4374
618.80 0.4371
618.90 0.4369
619.00 0.4366
619.10 0.4363
619.20 0.436
619.30 0.4358
619.40 0.4355
619.50 0.4352
619.60 0.4349
619.70 0.4347
619.80 0.4344
619.90 0.4341
620.00 0.4338
620.10 0.4336
620.20 0.4333
620.30 0.433
620.40 0.4328
620.50 0.4325
620.60 0.4322
620.70 0.4319
620.80 0.4317
620.90 0.4314
621.00 0.4311
621.10 0.4309
621.20 0.4306
621.30 0.4303
621.40 0.43
621.50 0.4298
621.60 0.4295
621.70 0.4292
621.80 0.429
621.90 0.4287
622.00 0.4284
622.10 0.4282
622.20 0.4279
622.30 0.4276
622.40 0.4274
622.50 0.4271
622.60 0.4268
622.70 0.4266
622.80 0.4263
622.90 0.426
623.00 0.4258
623.10 0.4255
623.20 0.4252
623.30 0.425
623.40 0.4247
623.50 0.4244
623.60 0.4242
623.70 0.4239
623.80 0.4236
623.90 0.4234
624.00 0.4231
624.10 0.4229
624.20 0.4226
624.30 0.4223
624.40 0.4221
624.50 0.4218
624.60 0.4215
624.70 0.4213
624.80 0.421
624.90 0.4208
625.00 0.4205
625.10 0.4202
625.20 0.42
625.30 0.4197
625.40 0.4194
625.50 0.4192
625.60 0.4189
625.70 0.4187
625.80 0.4184
625.90 0.4181
626.00 0.4179
626.10 0.4176
626.20 0.4174
626.30 0.4171
626.40 0.4168
626.50 0.4166
626.60 0.4163
626.70 0.4161
626.80 0.4158
626.90 0.4156
627.00 0.4153
627.10 0.415
627.20 0.4148
627.30 0.4145
627.40 0.4143
627.50 0.414
627.60 0.4137
627.70 0.4135
627.80 0.4132
627.90 0.413
628.00 0.4127
628.10 0.4125
628.20 0.4122
628.30 0.412
628.40 0.4117
628.50 0.4114
628.60 0.4112
628.70 0.4109
628.80 0.4107
628.90 0.4104
629.00 0.4102
629.10 0.4099
629.20 0.4097
629.30 0.4094
629.40 0.4092
629.50 0.4089
629.60 0.4087
629.70 0.4084
629.80 0.4082
629.90 0.4079
630.00 0.4076
630.10 0.4074
630.20 0.4071
630.30 0.4069
630.40 0.4066
630.50 0.4064
630.60 0.4061
630.70 0.4059
630.80 0.4056
630.90 0.4054
631.00 0.4051
631.10 0.4049
631.20 0.4046
631.30 0.4044
631.40 0.4041
631.50 0.4039
631.60 0.4036
631.70 0.4034
631.80 0.4031
631.90 0.4029
632.00 0.4026
632.10 0.4024
632.20 0.4021
632.30 0.4019
632.40 0.4016
632.50 0.4014
632.60 0.4012
632.70 0.4009
632.80 0.4007
632.90 0.4004
633.00 0.4002
633.10 0.3999
633.20 0.3997
633.30 0.3994
633.40 0.3992
633.50 0.3989
633.60 0.3987
633.70 0.3985
633.80 0.3982
633.90 0.398
634.00 0.3977
634.10 0.3975
634.20 0.3972
634.30 0.397
634.40 0.3967
634.50 0.3965
634.60 0.3963
634.70 0.396
634.80 0.3958
634.90 0.3955
635.00 0.3953
635.10 0.395
635.20 0.3948
635.30 0.3946
635.40 0.3943
635.50 0.3941
635.60 0.3938
635.70 0.3936
635.80 0.3933
635.90 0.3931
636.00 0.3929
636.10 0.3926
636.20 0.3924
636.30 0.3921
636.40 0.3919
636.50 0.3917
636.60 0.3914
636.70 0.3912
636.80 0.3909
636.90 0.3907
637.00 0.3905
637.10 0.3902
637.20 0.39
637.30 0.3897
637.40 0.3895
637.50 0.3893
637.60 0.389
637.70 0.3888
637.80 0.3886
637.90 0.3883
638.00 0.3881
638.10 0.3878
638.20 0.3876
638.30 0.3874
638.40 0.3871
638.50 0.3869
638.60 0.3867
638.70 0.3864
638.80 0.3862
638.90 0.3859
639.00 0.3857
639.10 0.3855
639.20 0.3852
639.30 0.385
639.40 0.3848
639.50 0.3845
639.60 0.3843
639.70 0.3841
639.80 0.3838
639.90 0.3836
640.00 0.3834
640.10 0.3831
640.20 0.3829
640.30 0.3827
640.40 0.3824
640.50 0.3822
640.60 0.382
640.70 0.3817
640.80 0.3815
640.90 0.3813
641.00 0.381
641.10 0.3808
641.20 0.3806
641.30 0.3803
641.40 0.3801
641.50 0.3799
641.60 0.3796
641.70 0.3794
641.80 0.3792
641.90 0.3789
642.00 0.3787
642.10 0.3785
642.20 0.3782
642.30 0.378
642.40 0.3778
642.50 0.3776
642.60 0.3773
642.70 0.3771
642.80 0.3769
642.90 0.3766
643.00 0.3764
643.10 0.3762
643.20 0.3759
643.30 0.3757
643.40 0.3755
643.50 0.3753
643.60 0.375
643.70 0.3748
643.80 0.3746
643.90 0.3743
644.00 0.3741
644.10 0.3739
644.20 0.3736
644.30 0.3734
644.40 0.3732
644.50 0.373
644.60 0.3727
644.70 0.3725
644.80 0.3723
644.90 0.3721
645.00 0.3718
645.10 0.3716
645.20 0.3714
645.30 0.3711
645.40 0.3709
645.50 0.3707
645.60 0.3705
645.70 0.3702
645.80 0.37
645.90 0.3698
646.00 0.3695
646.10 0.3693
646.20 0.3691
646.30 0.3689
646.40 0.3686
646.50 0.3684
646.60 0.3682
646.70 0.368
646.80 0.3677
646.90 0.3675
647.00 0.3673
647.10 0.367
647.20 0.3668
647.30 0.3666
647.40 0.3664
647.50 0.3661
647.60 0.3659
647.70 0.3657
647.80 0.3654
647.90 0.3652
648.00 0.365
648.10 0.3648
648.20 0.3645
648.30 0.3643
648.40 0.3641
648.50 0.3638
648.60 0.3636
648.70 0.3634
648.80 0.3631
648.90 0.3629
649.00 0.3627
649.10 0.3625
649.20 0.3622
649.30 0.362
649.40 0.3618
649.50 0.3615
649.60 0.3613
649.70 0.361
649.80 0.3608
649.90 0.3606
650.00 0.3603
650.10 0.3601
650.20 0.3599
650.30 0.3596
650.40 0.3594
650.50 0.3591
650.60 0.3589
650.70 0.3586
650.80 0.3584
650.90 0.3581
651.00 0.3579
651.10 0.3576
651.20 0.3574
651.30 0.3571
651.40 0.3568
651.50 0.3566
651.60 0.3563
651.70 0.356
651.80 0.3557
651.90 0.3555
652.00 0.3552
652.10 0.3549
652.20 0.3546
652.30 0.3543
652.40 0.354
652.50 0.3536
652.60 0.3533
652.70 0.353
652.80 0.3526
652.90 0.3523
653.00 0.3519
653.10 0.3516
653.20 0.3512
653.30 0.3508
653.40 0.3503
653.50 0.3498
653.60 0.3492
653.70 0.3487
653.80 0.3482
653.90 0.3476
654.00 0.3471
654.10 0.3466
654.20 0.346
654.30 0.3454
654.40 0.3446
654.50 0.3437
654.60 0.3428
654.70 0.3419
654.80 0.3409
654.90 0.3395
655.00 0.3381
655.10 0.3367
655.20 0.3353
655.30 0.3337
655.40 0.3316
655.50 0.3294
655.60 0.3265
655.70 0.3234
655.80 0.319
655.90 0.3139
656.00 0.3058
656.10 0.2974
656.20 0.2999
656.30 0.3112
656.40 0.2949
656.50 0.2999
656.60 0.3077
656.70 0.3147
656.80 0.3187
656.90 0.3224
657.00 0.3249
657.10 0.3272
657.20 0.3289
657.30 0.3304
657.40 0.3314
657.50 0.3324
657.60 0.3334
657.70 0.3344
657.80 0.3353
657.90 0.3358
658.00 0.3363
658.10 0.3367
658.20 0.3372
658.30 0.3376
658.40 0.3377
658.50 0.3378
658.60 0.338
658.70 0.3381
658.80 0.3382
658.90 0.3383
659.00 0.3384
659.10 0.3385
659.20 0.3387
659.30 0.3387
659.40 0.3387
659.50 0.3386
659.60 0.3385
659.70 0.3385
659.80 0.3384
659.90 0.3383
660.00 0.3382
660.10 0.3382
660.20 0.3381
660.30 0.338
660.40 0.3379
660.50 0.3377
660.60 0.3376
660.70 0.3375
660.80 0.3373
660.90 0.3372
661.00 0.337
661.10 0.3369
661.20 0.3368
661.30 0.3366
661.40 0.3365
661.50 0.3363
661.60 0.3361
661.70 0.336
661.80 0.3358
661.90 0.3356
662.00 0.3355
662.10 0.3353
662.20 0.3351
662.30 0.335
662.40 0.3348
662.50 0.3346
662.60 0.3344
662.70 0.3342
662.80 0.3341
662.90 0.3339
663.00 0.3337
663.10 0.3335
663.20 0.3334
663.30 0.3332
663.40 0.333
663.50 0.3328
663.60 0.3326
663.70 0.3324
663.80 0.3323
663.90 0.3321
664.00 0.3319
664.10 0.3317
664.20 0.3315
664.30 0.3313
664.40 0.3312
664.50 0.331
664.60 0.3308
664.70 0.3306
664.80 0.3304
664.90 0.3302
665.00 0.33
665.10 0.3299
665.20 0.3297
665.30 0.3295
665.40 0.3293
665.50 0.3291
665.60 0.3289
665.70 0.3287
665.80 0.3286
665.90 0.3284
666.00 0.3282
666.10 0.328
666.20 0.3278
666.30 0.3276
666.40 0.3274
666.50 0.3272
666.60 0.3271
666.70 0.3269
666.80 0.3267
666.90 0.3265
667.00 0.3263
667.10 0.3261
667.20 0.3259
667.30 0.3257
667.40 0.3256
667.50 0.3254
667.60 0.3252
667.70 0.325
667.80 0.3248
667.90 0.3246
668.00 0.3244
668.10 0.3243
668.20 0.3241
668.30 0.3239
668.40 0.3237
668.50 0.3235
668.60 0.3233
668.70 0.3231
668.80 0.323
668.90 0.3228
669.00 0.3226
669.10 0.3224
669.20 0.3222
669.30 0.322
669.40 0.3218
669.50 0.3217
669.60 0.3215
669.70 0.3213
669.80 0.3211
669.90 0.3209
670.00 0.3207
670.10 0.3205
670.20 0.3204
670.30 0.3202
670.40 0.32
670.50 0.3198
670.60 0.3196
670.70 0.3194
670.80 0.3192
670.90 0.3191
671.00 0.3189
671.10 0.3187
671.20 0.3185
671.30 0.3183
671.40 0.3181
671.50 0.318
671.60 0.3178
671.70 0.3176
671.80 0.3174
671.90 0.3172
672.00 0.317
672.10 0.3169
672.20 0.3167
672.30 0.3165
672.40 0.3163
672.50 0.3161
672.60 0.316
672.70 0.3158
672.80 0.3156
672.90 0.3154
673.00 0.3152
673.10 0.315
673.20 0.3149
673.30 0.3147
673.40 0.3145
673.50 0.3143
673.60 0.3141
673.70 0.314
673.80 0.3138
673.90 0.3136
674.00 0.3134
674.10 0.3132
674.20 0.3131
674.30 0.3129
674.40 0.3127
674.50 0.3125
674.60 0.3123
674.70 0.3122
674.80 0.312
674.90 0.3118
675.00 0.3116
675.10 0.3114
675.20 0.3113
675.30 0.3111
675.40 0.3109
675.50 0.3107
675.60 0.3105
675.70 0.3104
675.80 0.3102
675.90 0.31
676.00 0.3098
676.10 0.3096
676.20 0.3095
676.30 0.3093
676.40 0.3091
676.50 0.3089
676.60 0.3088
676.70 0.3086
676.80 0.3084
676.90 0.3082
677.00 0.3081
677.10 0.3079
677.20 0.3077
677.30 0.3075
677.40 0.3073
677.50 0.3072
677.60 0.307
677.70 0.3068
677.80 0.3066
677.90 0.3065
678.00 0.3063
678.10 0.3061
678.20 0.3059
678.30 0.3058
678.40 0.3056
678.50 0.3054
678.60 0.3052
678.70 0.3051
678.80 0.3049
678.90 0.3047
679.00 0.3045
679.10 0.3044
679.20 0.3042
679.30 0.304
679.40 0.3038
679.50 0.3037
679.60 0.3035
679.70 0.3033
679.80 0.3031
679.90 0.303
680.00 0.3028
680.10 0.3026
680.20 0.3025
680.30 0.3023
680.40 0.3021
680.50 0.3019
680.60 0.3018
680.70 0.3016
680.80 0.3014
680.90 0.3012
681.00 0.3011
681.10 0.3009
681.20 0.3007
681.30 0.3006
681.40 0.3004
681.50 0.3002
681.60 0.3
681.70 0.2999
681.80 0.2997
681.90 0.2995
682.00 0.2994
682.10 0.2992
682.20 0.299
682.30 0.2988
682.40 0.2987
682.50 0.2985
682.60 0.2983
682.70 0.2982
682.80 0.298
682.90 0.2978
683.00 0.2977
683.10 0.2975
683.20 0.2973
683.30 0.2971
683.40 0.297
683.50 0.2968
683.60 0.2966
683.70 0.2965
683.80 0.2963
683.90 0.2961
684.00 0.296
684.10 0.2958
684.20 0.2956
684.30 0.2955
684.40 0.2953
684.50 0.2951
684.60 0.295
684.70 0.2948
684.80 0.2946
684.90 0.2945
685.00 0.2943
685.10 0.2941
685.20 0.294
685.30 0.2938
685.40 0.2936
685.50 0.2935
685.60 0.2933
685.70 0.2931
685.80 0.293
685.90 0.2928
686.00 0.2926
686.10 0.2925
686.20 0.2923
686.30 0.2921
686.40 0.292
686.50 0.2918
686.60 0.2916
686.70 0.2915
686.80 0.2913
686.90 0.2911
687.00 0.291
687.10 0.2908
687.20 0.2906
687.30 0.2905
687.40 0.2903
687.50 0.2901
687.60 0.29
687.70 0.2898
687.80 0.2897
687.90 0.2895
688.00 0.2893
688.10 0.2892
688.20 0.289
688.30 0.2888
688.40 0.2887
688.50 0.2885
688.60 0.2883
688.70 0.2882
688.80 0.288
688.90 0.2879
689.00 0.2877
689.10 0.2875
689.20 0.2874
689.30 0.2872
689.40 0.287
689.50 0.2869
689.60 0.2867
689.70 0.2866
689.80 0.2864
689.90 0.2862
690.00 0.2861
690.10 0.2859
690.20 0.2858
690.30 0.2856
690.40 0.2854
690.50 0.2853
690.60 0.2851
690.70 0.285
690.80 0.2848
690.90 0.2846
691.00 0.2845
691.10 0.2843
691.20 0.2842
691.30 0.284
691.40 0.2838
691.50 0.2837
691.60 0.2835
691.70 0.2834
691.80 0.2832
691.90 0.283
692.00 0.2829
692.10 0.2827
692.20 0.2826
692.30 0.2824
692.40 0.2822
692.50 0.2821
692.60 0.2819
692.70 0.2818
692.80 0.2816
692.90 0.2814
693.00 0.2813
693.10 0.2811
693.20 0.281
693.30 0.2808
693.40 0.2807
693.50 0.2805
693.60 0.2803
693.70 0.2802
693.80 0.28
693.90 0.2799
694.00 0.2797
694.10 0.2796
694.20 0.2794
694.30 0.2792
694.40 0.2791
694.50 0.2789
694.60 0.2788
694.70 0.2786
694.80 0.2784
694.90 0.2783
695.00 0.2781
695.10 0.278
695.20 0.2778
695.30 0.2777
695.40 0.2775
695.50 0.2774
695.60 0.2772
695.70 0.2771
695.80 0.2769
695.90 0.2767
696.00 0.2766
696.10 0.2764
696.20 0.2763
696.30 0.2761
696.40 0.276
696.50 0.2758
696.60 0.2757
696.70 0.2755
696.80 0.2754
696.90 0.2752
697.00 0.275
697.10 0.2749
697.20 0.2747
697.30 0.2746
697.40 0.2744
697.50 0.2743
697.60 0.2741
697.70 0.274
697.80 0.2738
697.90 0.2737
698.00 0.2735
698.10 0.2734
698.20 0.2732
698.30 0.2731
698.40 0.2729
698.50 0.2728
698.60 0.2726
698.70 0.2724
698.80 0.2723
698.90 0.2721
699.00 0.272
699.10 0.2718
699.20 0.2717
699.30 0.2715
699.40 0.2714
699.50 0.2712
699.60 0.2711
699.70 0.2709
699.80 0.2708
699.90 0.2706
700.00 0.2705
700.10 0.2703
700.20 0.2702
700.30 0.27
700.40 0.2699
700.50 0.2697
700.60 0.2696
700.70 0.2694
700.80 0.2693
700.90 0.2691
701.00 0.269
701.10 0.2688
701.20 0.2687
701.30 0.2685
701.40 0.2684
701.50 0.2682
701.60 0.2681
701.70 0.2679
701.80 0.2678
701.90 0.2676
702.00 0.2675
702.10 0.2673
702.20 0.2672
702.30 0.267
702.40 0.2669
702.50 0.2668
702.60 0.2666
702.70 0.2665
702.80 0.2663
702.90 0.2662
703.00 0.266
703.10 0.2659
703.20 0.2657
703.30 0.2656
703.40 0.2654
703.50 0.2653
703.60 0.2651
703.70 0.265
703.80 0.2648
703.90 0.2647
704.00 0.2645
704.10 0.2644
704.20 0.2642
704.30 0.2641
704.40 0.264
704.50 0.2638
704.60 0.2637
704.70 0.2635
704.80 0.2634
704.90 0.2632
705.00 0.2631
705.10 0.2629
705.20 0.2628
705.30 0.2626
705.40 0.2625
705.50 0.2624
705.60 0.2622
705.70 0.2621
705.80 0.2619
705.90 0.2618
706.00 0.2616
706.10 0.2615
706.20 0.2613
706.30 0.2612
706.40 0.2611
706.50 0.2609
706.60 0.2608
706.70 0.2606
706.80 0.2605
706.90 0.2603
707.00 0.2602
707.10 0.2601
707.20 0.2599
707.30 0.2598
707.40 0.2596
707.50 0.2595
707.60 0.2593
707.70 0.2592
707.80 0.2591
707.90 0.2589
708.00 0.2588
708.10 0.2586
708.20 0.2585
708.30 0.2583
708.40 0.2582
708.50 0.2581
708.60 0.2579
708.70 0.2578
708.80 0.2576
708.90 0.2575
709.00 0.2573
709.10 0.2572
709.20 0.2571
709.30 0.2569
709.40 0.2568
709.50 0.2566
709.60 0.2565
709.70 0.2564
709.80 0.2562
709.90 0.2561
710.00 0.2559
710.10 0.2558
710.20 0.2557
710.30 0.2555
710.40 0.2554
710.50 0.2552
710.60 0.2551
710.70 0.255
710.80 0.2548
710.90 0.2547
711.00 0.2545
711.10 0.2544
711.20 0.2543
711.30 0.2541
711.40 0.254
711.50 0.2538
711.60 0.2537
711.70 0.2536
711.80 0.2534
711.90 0.2533
712.00 0.2531
712.10 0.253
712.20 0.2529
712.30 0.2527
712.40 0.2526
712.50 0.2525
712.60 0.2523
712.70 0.2522
712.80 0.252
712.90 0.2519
713.00 0.2518
713.10 0.2516
713.20 0.2515
713.30 0.2514
713.40 0.2512
713.50 0.2511
713.60 0.2509
713.70 0.2508
713.80 0.2507
713.90 0.2505
714.00 0.2504
714.10 0.2503
714.20 0.2501
714.30 0.25
714.40 0.2498
714.50 0.2497
714.60 0.2496
714.70 0.2494
714.80 0.2493
714.90 0.2492
715.00 0.249
715.10 0.2489
715.20 0.2488
715.30 0.2486
715.40 0.2485
715.50 0.2483
715.60 0.2482
715.70 0.2481
715.80 0.2479
715.90 0.2478
716.00 0.2477
716.10 0.2475
716.20 0.2474
716.30 0.2473
716.40 0.2471
716.50 0.247
716.60 0.2469
716.70 0.2467
716.80 0.2466
716.90 0.2465
717.00 0.2463
717.10 0.2462
717.20 0.2461
717.30 0.2459
717.40 0.2458
717.50 0.2457
717.60 0.2455
717.70 0.2454
717.80 0.2453
717.90 0.2451
718.00 0.245
718.10 0.2449
718.20 0.2447
718.30 0.2446
718.40 0.2445
718.50 0.2443
718.60 0.2442
718.70 0.2441
718.80 0.2439
718.90 0.2438
719.00 0.2437
719.10 0.2435
719.20 0.2434
719.30 0.2433
719.40 0.2431
719.50 0.243
719.60 0.2429
719.70 0.2427
719.80 0.2426
719.90 0.2425
720.00 0.2424
720.10 0.2422
720.20 0.2421
720.30 0.242
720.40 0.2418
720.50 0.2417
720.60 0.2416
720.70 0.2414
720.80 0.2413
720.90 0.2412
721.00 0.241
721.10 0.2409
721.20 0.2408
721.30 0.2407
721.40 0.2405
721.50 0.2404
721.60 0.2403
721.70 0.2401
721.80 0.24
721.90 0.2399
722.00 0.2398
722.10 0.2396
722.20 0.2395
722.30 0.2394
722.40 0.2392
722.50 0.2391
722.60 0.239
722.70 0.2388
722.80 0.2387
722.90 0.2386
723.00 0.2385
723.10 0.2383
723.20 0.2382
723.30 0.2381
723.40 0.2379
723.50 0.2378
723.60 0.2377
723.70 0.2376
723.80 0.2374
723.90 0.2373
724.00 0.2372
724.10 0.237
724.20 0.2369
724.30 0.2368
724.40 0.2367
724.50 0.2365
724.60 0.2364
724.70 0.2363
724.80 0.2362
724.90 0.236
725.00 0.2359
725.10 0.2358
725.20 0.2356
725.30 0.2355
725.40 0.2354
725.50 0.2353
725.60 0.2351
725.70 0.235
725.80 0.2349
725.90 0.2348
726.00 0.2346
726.10 0.2345
726.20 0.2344
726.30 0.2343
726.40 0.2341
726.50 0.234
726.60 0.2339
726.70 0.2338
726.80 0.2336
726.90 0.2335
727.00 0.2334
727.10 0.2333
727.20 0.2331
727.30 0.233
727.40 0.2329
727.50 0.2328
727.60 0.2326
727.70 0.2325
727.80 0.2324
727.90 0.2323
728.00 0.2321
728.10 0.232
728.20 0.2319
728.30 0.2318
728.40 0.2316
728.50 0.2315
728.60 0.2314
728.70 0.2313
728.80 0.2311
728.90 0.231
729.00 0.2309
729.10 0.2308
729.20 0.2306
729.30 0.2305
729.40 0.2304
729.50 0.2303
729.60 0.2302
729.70 0.23
729.80 0.2299
729.90 0.2298
730.00 0.2297
730.10 0.2295
730.20 0.2294
730.30 0.2293
730.40 0.2292
730.50 0.2291
730.60 0.2289
730.70 0.2288
730.80 0.2287
730.90 0.2286
731.00 0.2284
731.10 0.2283
731.20 0.2282
731.30 0.2281
731.40 0.228
731.50 0.2278
731.60 0.2277
731.70 0.2276
731.80 0.2275
731.90 0.2274
732.00 0.2272
732.10 0.2271
732.20 0.227
732.30 0.2269
732.40 0.2268
732.50 0.2266
732.60 0.2265
732.70 0.2264
732.80 0.2263
732.90 0.2262
733.00 0.226
733.10 0.2259
733.20 0.2258
733.30 0.2257
733.40 0.2256
733.50 0.2254
733.60 0.2253
733.70 0.2252
733.80 0.2251
733.90 0.225
734.00 0.2248
734.10 0.2247
734.20 0.2246
734.30 0.2245
734.40 0.2244
734.50 0.2243
734.60 0.2241
734.70 0.224
734.80 0.2239
734.90 0.2238
735.00 0.2237
735.10 0.2235
735.20 0.2234
735.30 0.2233
735.40 0.2232
735.50 0.2231
735.60 0.2229
735.70 0.2228
735.80 0.2227
735.90 0.2226
736.00 0.2225
736.10 0.2224
736.20 0.2222
736.30 0.2221
736.40 0.222
736.50 0.2219
736.60 0.2218
736.70 0.2216
736.80 0.2215
736.90 0.2214
737.00 0.2213
737.10 0.2212
737.20 0.2211
737.30 0.2209
737.40 0.2208
737.50 0.2207
737.60 0.2206
737.70 0.2205
737.80 0.2204
737.90 0.2202
738.00 0.2201
738.10 0.22
738.20 0.2199
738.30 0.2198
738.40 0.2197
738.50 0.2195
738.60 0.2194
738.70 0.2193
738.80 0.2192
738.90 0.2191
739.00 0.219
739.10 0.2188
739.20 0.2187
739.30 0.2186
739.40 0.2185
739.50 0.2184
739.60 0.2183
739.70 0.2181
739.80 0.218
739.90 0.2179
740.00 0.2178
740.10 0.2177
740.20 0.2176
740.30 0.2175
740.40 0.2173
740.50 0.2172
740.60 0.2171
740.70 0.217
740.80 0.2169
740.90 0.2168
741.00 0.2167
741.10 0.2165
741.20 0.2164
741.30 0.2163
741.40 0.2162
741.50 0.2161
741.60 0.216
741.70 0.2159
741.80 0.2158
741.90 0.2156
742.00 0.2155
742.10 0.2154
742.20 0.2153
742.30 0.2152
742.40 0.2151
742.50 0.215
742.60 0.2149
742.70 0.2147
742.80 0.2146
742.90 0.2145
743.00 0.2144
743.10 0.2143
743.20 0.2142
743.30 0.2141
743.40 0.214
743.50 0.2138
743.60 0.2137
743.70 0.2136
743.80 0.2135
743.90 0.2134
744.00 0.2133
744.10 0.2132
744.20 0.2131
744.30 0.213
744.40 0.2128
744.50 0.2127
744.60 0.2126
744.70 0.2125
744.80 0.2124
744.90 0.2123
745.00 0.2122
745.10 0.2121
745.20 0.212
745.30 0.2118
745.40 0.2117
745.50 0.2116
745.60 0.2115
745.70 0.2114
745.80 0.2113
745.90 0.2112
746.00 0.2111
746.10 0.211
746.20 0.2108
746.30 0.2107
746.40 0.2106
746.50 0.2105
746.60 0.2104
746.70 0.2103
746.80 0.2102
746.90 0.2101
747.00 0.21
747.10 0.2099
747.20 0.2097
747.30 0.2096
747.40 0.2095
747.50 0.2094
747.60 0.2093
747.70 0.2092
747.80 0.2091
747.90 0.209
748.00 0.2089
748.10 0.2088
748.20 0.2086
748.30 0.2085
748.40 0.2084
748.50 0.2083
748.60 0.2082
748.70 0.2081
748.80 0.208
748.90 0.2079
749.00 0.2078
749.10 0.2077
749.20 0.2076
749.30 0.2074
749.40 0.2073
749.50 0.2072
749.60 0.2071
749.70 0.207
749.80 0.2069
749.90 0.2068
750.00 0.2067
750.10 0.2066
750.20 0.2065
750.30 0.2064
750.40 0.2063
750.50 0.2062
750.60 0.206
750.70 0.2059
750.80 0.2058
750.90 0.2057
751.00 0.2056
751.10 0.2055
751.20 0.2054
751.30 0.2053
751.40 0.2052
751.50 0.2051
751.60 0.205
751.70 0.2049
751.80 0.2048
751.90 0.2047
752.00 0.2046
752.10 0.2045
752.20 0.2044
752.30 0.2042
752.40 0.2041
752.50 0.204
752.60 0.2039
752.70 0.2038
752.80 0.2037
752.90 0.2036
753.00 0.2035
753.10 0.2034
753.20 0.2033
753.30 0.2032
753.40 0.2031
753.50 0.203
753.60 0.2029
753.70 0.2028
753.80 0.2027
753.90 0.2026
754.00 0.2025
754.10 0.2024
754.20 0.2023
754.30 0.2022
754.40 0.202
754.50 0.2019
754.60 0.2018
754.70 0.2017
754.80 0.2016
754.90 0.2015
755.00 0.2014
755.10 0.2013
755.20 0.2012
755.30 0.2011
755.40 0.201
755.50 0.2009
755.60 0.2008
755.70 0.2007
755.80 0.2006
755.90 0.2005
756.00 0.2004
756.10 0.2003
756.20 0.2002
756.30 0.2001
756.40 0.2
756.50 0.1999
756.60 0.1998
756.70 0.1997
756.80 0.1996
756.90 0.1995
757.00 0.1993
757.10 0.1992
757.20 0.1991
757.30 0.199
757.40 0.1989
757.50 0.1988
757.60 0.1987
757.70 0.1986
757.80 0.1985
757.90 0.1984
758.00 0.1983
758.10 0.1982
758.20 0.1981
758.30 0.198
758.40 0.1979
758.50 0.1978
758.60 0.1977
758.70 0.1976
758.80 0.1975
758.90 0.1974
759.00 0.1973
759.10 0.1972
759.20 0.1971
759.30 0.197
759.40 0.1969
759.50 0.1968
759.60 0.1967
759.70 0.1966
759.80 0.1965
759.90 0.1964
760.00 0.1963
760.10 0.1962
760.20 0.1961
760.30 0.196
760.40 0.1959
760.50 0.1958
760.60 0.1957
760.70 0.1956
760.80 0.1955
760.90 0.1954
761.00 0.1953
761.10 0.1952
761.20 0.1951
761.30 0.195
761.40 0.1949
761.50 0.1948
761.60 0.1947
761.70 0.1946
761.80 0.1945
761.90 0.1944
762.00 0.1943
762.10 0.1942
762.20 0.1941
762.30 0.194
762.40 0.1939
762.50 0.1938
762.60 0.1937
762.70 0.1936
762.80 0.1935
762.90 0.1934
763.00 0.1933
763.10 0.1932
763.20 0.1931
763.30 0.193
763.40 0.1929
763.50 0.1928
763.60 0.1927
763.70 0.1926
763.80 0.1925
763.90 0.1924
764.00 0.1923
764.10 0.1922
764.20 0.1921
764.30 0.192
764.40 0.1919
764.50 0.1918
764.60 0.1917
764.70 0.1916
764.80 0.1915
764.90 0.1914
765.00 0.1913
765.10 0.1912
765.20 0.1911
765.30 0.191
765.40 0.191
765.50 0.1909
765.60 0.1908
765.70 0.1907
765.80 0.1906
765.90 0.1905
766.00 0.1904
766.10 0.1903
766.20 0.1902
766.30 0.1901
766.40 0.19
766.50 0.1899
766.60 0.1898
766.70 0.1897
766.80 0.1896
766.90 0.1895
767.00 0.1894
767.10 0.1893
767.20 0.1892
767.30 0.1891
767.40 0.189
767.50 0.1889
767.60 0.1888
767.70 0.1887
767.80 0.1886
767.90 0.1885
768.00 0.1884
768.10 0.1883
768.20 0.1882
768.30 0.1881
768.40 0.188
768.50 0.188
768.60 0.1879
768.70 0.1878
768.80 0.1877
768.90 0.1876
769.00 0.1875
769.10 0.1874
769.20 0.1873
769.30 0.1872
769.40 0.1871
769.50 0.187
769.60 0.1869
769.70 0.1868
769.80 0.1867
769.90 0.1866
770.00 0.1865
770.10 0.1864
770.20 0.1863
770.30 0.1862
770.40 0.1861
770.50 0.186
770.60 0.186
770.70 0.1859
770.80 0.1858
770.90 0.1857
771.00 0.1856
771.10 0.1855
771.20 0.1854
771.30 0.1853
771.40 0.1852
771.50 0.1851
771.60 0.185
771.70 0.1849
771.80 0.1848
771.90 0.1847
772.00 0.1847
772.10 0.1846
772.20 0.1845
772.30 0.1844
772.40 0.1843
772.50 0.1842
772.60 0.1841
772.70 0.184
772.80 0.1839
772.90 0.1838
773.00 0.1837
773.10 0.1836
773.20 0.1835
773.30 0.1834
773.40 0.1834
773.50 0.1833
773.60 0.1832
773.70 0.1831
773.80 0.183
773.90 0.1829
774.00 0.1828
774.10 0.1827
774.20 0.1826
774.30 0.1825
774.40 0.1824
774.50 0.1823
774.60 0.1823
774.70 0.1822
774.80 0.1821
774.90 0.182
775.00 0.1819
775.10 0.1818
775.20 0.1817
775.30 0.1816
775.40 0.1815
775.50 0.1814
775.60 0.1813
775.70 0.1812
775.80 0.1812
775.90 0.1811
776.00 0.181
776.10 0.1809
776.20 0.1808
776.30 0.1807
776.40 0.1806
776.50 0.1805
776.60 0.1804
776.70 0.1803
776.80 0.1802
776.90 0.1802
777.00 0.1801
777.10 0.18
777.20 0.1799
777.30 0.1798
777.40 0.1797
777.50 0.1796
777.60 0.1795
777.70 0.1794
777.80 0.1793
777.90 0.1792
778.00 0.1792
778.10 0.1791
778.20 0.179
778.30 0.1789
778.40 0.1788
778.50 0.1787
778.60 0.1786
778.70 0.1785
778.80 0.1784
778.90 0.1783
779.00 0.1783
779.10 0.1782
779.20 0.1781
779.30 0.178
779.40 0.1779
779.50 0.1778
779.60 0.1777
779.70 0.1776
779.80 0.1775
779.90 0.1774
780.00 0.1774
780.10 0.1773
780.20 0.1772
780.30 0.1771
780.40 0.177
780.50 0.1769
780.60 0.1768
780.70 0.1767
780.80 0.1767
780.90 0.1766
781.00 0.1765
781.10 0.1764
781.20 0.1763
781.30 0.1762
781.40 0.1761
781.50 0.176
781.60 0.176
781.70 0.1759
781.80 0.1758
781.90 0.1757
782.00 0.1756
782.10 0.1755
782.20 0.1754
782.30 0.1753
782.40 0.1753
782.50 0.1752
782.60 0.1751
782.70 0.175
782.80 0.1749
782.90 0.1748
783.00 0.1747
783.10 0.1746
783.20 0.1746
783.30 0.1745
783.40 0.1744
783.50 0.1743
783.60 0.1742
783.70 0.1741
783.80 0.174
783.90 0.174
784.00 0.1739
784.10 0.1738
784.20 0.1737
784.30 0.1736
784.40 0.1735
784.50 0.1734
784.60 0.1734
784.70 0.1733
784.80 0.1732
784.90 0.1731
785.00 0.173
785.10 0.1729
785.20 0.1728
785.30 0.1727
785.40 0.1727
785.50 0.1726
785.60 0.1725
785.70 0.1724
785.80 0.1723
785.90 0.1722
786.00 0.1721
786.10 0.1721
786.20 0.172
786.30 0.1719
786.40 0.1718
786.50 0.1717
786.60 0.1716
786.70 0.1716
786.80 0.1715
786.90 0.1714
787.00 0.1713
787.10 0.1712
787.20 0.1711
787.30 0.171
787.40 0.171
787.50 0.1709
787.60 0.1708
787.70 0.1707
787.80 0.1706
787.90 0.1705
788.00 0.1704
788.10 0.1704
788.20 0.1703
788.30 0.1702
788.40 0.1701
788.50 0.17
788.60 0.1699
788.70 0.1699
788.80 0.1698
788.90 0.1697
789.00 0.1696
789.10 0.1695
789.20 0.1694
789.30 0.1693
789.40 0.1693
789.50 0.1692
789.60 0.1691
789.70 0.169
789.80 0.1689
789.90 0.1688
790.00 0.1688
790.10 0.1687
790.20 0.1686
790.30 0.1685
790.40 0.1684
790.50 0.1683
790.60 0.1683
790.70 0.1682
790.80 0.1681
790.90 0.168
791.00 0.1679
791.10 0.1678
791.20 0.1678
791.30 0.1677
791.40 0.1676
791.50 0.1675
791.60 0.1674
791.70 0.1674
791.80 0.1673
791.90 0.1672
792.00 0.1671
792.10 0.167
792.20 0.1669
792.30 0.1669
792.40 0.1668
792.50 0.1667
792.60 0.1666
792.70 0.1665
792.80 0.1665
792.90 0.1664
793.00 0.1663
793.10 0.1662
793.20 0.1661
793.30 0.166
793.40 0.166
793.50 0.1659
793.60 0.1658
793.70 0.1657
793.80 0.1656
793.90 0.1656
794.00 0.1655
794.10 0.1654
794.20 0.1653
794.30 0.1652
794.40 0.1652
794.50 0.1651
794.60 0.165
794.70 0.1649
794.80 0.1648
794.90 0.1647
795.00 0.1647
795.10 0.1646
795.20 0.1645
795.30 0.1644
795.40 0.1643
795.50 0.1643
795.60 0.1642
795.70 0.1641
795.80 0.164
795.90 0.1639
796.00 0.1639
796.10 0.1638
796.20 0.1637
796.30 0.1636
796.40 0.1635
796.50 0.1635
796.60 0.1634
796.70 0.1633
796.80 0.1632
796.90 0.1631
797.00 0.1631
797.10 0.163
797.20 0.1629
797.30 0.1628
797.40 0.1627
797.50 0.1627
797.60 0.1626
797.70 0.1625
797.80 0.1624
797.90 0.1623
798.00 0.1623
798.10 0.1622
798.20 0.1621
798.30 0.162
798.40 0.1619
798.50 0.1619
798.60 0.1618
798.70 0.1617
798.80 0.1616
798.90 0.1615
799.00 0.1615
799.10 0.1614
799.20 0.1613
799.30 0.1612
799.40 0.1611
799.50 0.1611
799.60 0.161
799.70 0.1609
799.80 0.1608
799.90 0.1607
800.00 0.1607
800.10 0.1606
800.20 0.1605
800.30 0.1604
800.40 0.1604
800.50 0.1603
800.60 0.1602
800.70 0.1601
800.80 0.16
800.90 0.16
801.00 0.1599
801.10 0.1598
801.20 0.1597
801.30 0.1597
801.40 0.1596
801.50 0.1595
801.60 0.1594
801.70 0.1594
801.80 0.1593
801.90 0.1592
802.00 0.1591
802.10 0.159
802.20 0.159
802.30 0.1589
802.40 0.1588
802.50 0.1587
802.60 0.1587
802.70 0.1586
802.80 0.1585
802.90 0.1584
803.00 0.1584
803.10 0.1583
803.20 0.1582
803.30 0.1581
803.40 0.158
803.50 0.158
803.60 0.1579
803.70 0.1578
803.80 0.1577
803.90 0.1577
804.00 0.1576
804.10 0.1575
804.20 0.1574
804.30 0.1574
804.40 0.1573
804.50 0.1572
804.60 0.1571
804.70 0.1571
804.80 0.157
804.90 0.1569
805.00 0.1568
805.10 0.1567
805.20 0.1567
805.30 0.1566
805.40 0.1565
805.50 0.1564
805.60 0.1564
805.70 0.1563
805.80 0.1562
805.90 0.1561
806.00 0.1561
806.10 0.156
806.20 0.1559
806.30 0.1558
806.40 0.1558
806.50 0.1557
806.60 0.1556
806.70 0.1555
806.80 0.1555
806.90 0.1554
807.00 0.1553
807.10 0.1552
807.20 0.1552
807.30 0.1551
807.40 0.155
807.50 0.1549
807.60 0.1549
807.70 0.1548
807.80 0.1547
807.90 0.1546
808.00 0.1546
808.10 0.1545
808.20 0.1544
808.30 0.1543
808.40 0.1543
808.50 0.1542
808.60 0.1541
808.70 0.154
808.80 0.154
808.90 0.1539
809.00 0.1538
809.10 0.1537
809.20 0.1537
809.30 0.1536
809.40 0.1535
809.50 0.1534
809.60 0.1534
809.70 0.1533
809.80 0.1532
809.90 0.1531
810.00 0.1531
810.10 0.153
810.20 0.1529
810.30 0.1528
810.40 0.1528
810.50 0.1527
810.60 0.1526
810.70 0.1525
810.80 0.1525
810.90 0.1524
811.00 0.1523
811.10 0.1523
811.20 0.1522
811.30 0.1521
811.40 0.152
811.50 0.152
811.60 0.1519
811.70 0.1518
811.80 0.1517
811.90 0.1517
812.00 0.1516
812.10 0.1515
812.20 0.1515
812.30 0.1514
812.40 0.1513
812.50 0.1512
812.60 0.1512
812.70 0.1511
812.80 0.151
812.90 0.151
813.00 0.1509
813.10 0.1508
813.20 0.1507
813.30 0.1507
813.40 0.1506
813.50 0.1505
813.60 0.1504
813.70 0.1504
813.80 0.1503
813.90 0.1502
814.00 0.1502
814.10 0.1501
814.20 0.15
814.30 0.1499
814.40 0.1499
814.50 0.1498
814.60 0.1497
814.70 0.1497
814.80 0.1496
814.90 0.1495
815.00 0.1494
815.10 0.1494
815.20 0.1493
815.30 0.1492
815.40 0.1492
815.50 0.1491
815.60 0.149
815.70 0.1489
815.80 0.1489
815.90 0.1488
816.00 0.1487
816.10 0.1487
816.20 0.1486
816.30 0.1485
816.40 0.1484
816.50 0.1484
816.60 0.1483
816.70 0.1482
816.80 0.1482
816.90 0.1481
817.00 0.148
817.10 0.1479
817.20 0.1479
817.30 0.1478
817.40 0.1477
817.50 0.1477
817.60 0.1476
817.70 0.1475
817.80 0.1474
817.90 0.1474
818.00 0.1473
818.10 0.1472
818.20 0.1472
818.30 0.1471
818.40 0.147
818.50 0.147
818.60 0.1469
818.70 0.1468
818.80 0.1467
818.90 0.1467
819.00 0.1466
819.10 0.1465
819.20 0.1465
819.30 0.1464
819.40 0.1463
819.50 0.1463
819.60 0.1462
819.70 0.1461
819.80 0.146
819.90 0.146
820.00 0.1459
820.10 0.1458
820.20 0.1458
820.30 0.1457
820.40 0.1456
820.50 0.1456
820.60 0.1455
820.70 0.1454
820.80 0.1453
820.90 0.1453
821.00 0.1452
821.10 0.1451
821.20 0.1451
821.30 0.145
821.40 0.1449
821.50 0.1449
821.60 0.1448
821.70 0.1447
821.80 0.1447
821.90 0.1446
822.00 0.1445
822.10 0.1445
822.20 0.1444
822.30 0.1443
822.40 0.1442
822.50 0.1442
822.60 0.1441
822.70 0.144
822.80 0.144
822.90 0.1439
823.00 0.1438
823.10 0.1438
823.20 0.1437
823.30 0.1436
823.40 0.1436
823.50 0.1435
823.60 0.1434
823.70 0.1434
823.80 0.1433
823.90 0.1432
824.00 0.1432
824.10 0.1431
824.20 0.143
824.30 0.143
824.40 0.1429
824.50 0.1428
824.60 0.1428
824.70 0.1427
824.80 0.1426
824.90 0.1425
825.00 0.1425
825.10 0.1424
825.20 0.1423
825.30 0.1423
825.40 0.1422
825.50 0.1421
825.60 0.1421
825.70 0.142
825.80 0.1419
825.90 0.1419
826.00 0.1418
826.10 0.1417
826.20 0.1417
826.30 0.1416
826.40 0.1415
826.50 0.1415
826.60 0.1414
826.70 0.1413
826.80 0.1413
826.90 0.1412
827.00 0.1411
827.10 0.1411
827.20 0.141
827.30 0.1409
827.40 0.1409
827.50 0.1408
827.60 0.1407
827.70 0.1407
827.80 0.1406
827.90 0.1405
828.00 0.1405
828.10 0.1404
828.20 0.1403
828.30 0.1403
828.40 0.1402
828.50 0.1401
828.60 0.1401
828.70 0.14
828.80 0.1399
828.90 0.1399
829.00 0.1398
829.10 0.1397
829.20 0.1397
829.30 0.1396
829.40 0.1396
829.50 0.1395
829.60 0.1394
829.70 0.1394
829.80 0.1393
829.90 0.1392
830.00 0.1392
830.10 0.1391
830.20 0.139
830.30 0.139
830.40 0.1389
830.50 0.1388
830.60 0.1388
830.70 0.1387
830.80 0.1386
830.90 0.1386
831.00 0.1385
831.10 0.1384
831.20 0.1384
831.30 0.1383
831.40 0.1382
831.50 0.1382
831.60 0.1381
831.70 0.138
831.80 0.138
831.90 0.1379
832.00 0.1379
832.10 0.1378
832.20 0.1377
832.30 0.1377
832.40 0.1376
832.50 0.1375
832.60 0.1375
832.70 0.1374
832.80 0.1373
832.90 0.1373
833.00 0.1372
833.10 0.1371
833.20 0.1371
833.30 0.137
833.40 0.137
833.50 0.1369
833.60 0.1368
833.70 0.1368
833.80 0.1367
833.90 0.1366
834.00 0.1366
834.10 0.1365
834.20 0.1364
834.30 0.1364
834.40 0.1363
834.50 0.1362
834.60 0.1362
834.70 0.1361
834.80 0.1361
834.90 0.136
835.00 0.1359
835.10 0.1359
835.20 0.1358
835.30 0.1357
835.40 0.1357
835.50 0.1356
835.60 0.1355
835.70 0.1355
835.80 0.1354
835.90 0.1354
836.00 0.1353
836.10 0.1352
836.20 0.1352
836.30 0.1351
836.40 0.135
836.50 0.135
836.60 0.1349
836.70 0.1348
836.80 0.1348
836.90 0.1347
837.00 0.1347
837.10 0.1346
837.20 0.1345
837.30 0.1345
837.40 0.1344
837.50 0.1343
837.60 0.1343
837.70 0.1342
837.80 0.1342
837.90 0.1341
838.00 0.134
838.10 0.134
838.20 0.1339
838.30 0.1338
838.40 0.1338
838.50 0.1337
838.60 0.1337
838.70 0.1336
838.80 0.1335
838.90 0.1335
839.00 0.1334
839.10 0.1334
839.20 0.1333
839.30 0.1332
839.40 0.1332
839.50 0.1331
839.60 0.133
839.70 0.133
839.80 0.1329
839.90 0.1329
840.00 0.1328
840.10 0.1327
840.20 0.1327
840.30 0.1326
840.40 0.1325
840.50 0.1325
840.60 0.1324
840.70 0.1324
840.80 0.1323
840.90 0.1322
841.00 0.1322
841.10 0.1321
841.20 0.1321
841.30 0.132
841.40 0.1319
841.50 0.1319
841.60 0.1318
841.70 0.1317
841.80 0.1317
841.90 0.1316
842.00 0.1316
842.10 0.1315
842.20 0.1314
842.30 0.1314
842.40 0.1313
842.50 0.1313
842.60 0.1312
842.70 0.1311
842.80 0.1311
842.90 0.131
843.00 0.131
843.10 0.1309
843.20 0.1308
843.30 0.1308
843.40 0.1307
843.50 0.1307
843.60 0.1306
843.70 0.1305
843.80 0.1305
843.90 0.1304
844.00 0.1303
844.10 0.1303
844.20 0.1302
844.30 0.1302
844.40 0.1301
844.50 0.13
844.60 0.13
844.70 0.1299
844.80 0.1299
844.90 0.1298
845.00 0.1297
845.10 0.1297
845.20 0.1296
845.30 0.1296
845.40 0.1295
845.50 0.1294
845.60 0.1294
845.70 0.1293
845.80 0.1293
845.90 0.1292
846.00 0.1291
846.10 0.1291
846.20 0.129
846.30 0.129
846.40 0.1289
846.50 0.1288
846.60 0.1288
846.70 0.1287
846.80 0.1287
846.90 0.1286
847.00 0.1285
847.10 0.1285
847.20 0.1284
847.30 0.1284
847.40 0.1283
847.50 0.1283
847.60 0.1282
847.70 0.1281
847.80 0.1281
847.90 0.128
848.00 0.128
848.10 0.1279
848.20 0.1278
848.30 0.1278
848.40 0.1277
848.50 0.1277
848.60 0.1276
848.70 0.1275
848.80 0.1275
848.90 0.1274
849.00 0.1274
849.10 0.1273
849.20 0.1273
849.30 0.1272
849.40 0.1271
849.50 0.1271
849.60 0.127
849.70 0.127
849.80 0.1269
849.90 0.1268
850.00 0.1268
850.10 0.1267
850.20 0.1267
850.30 0.1266
850.40 0.1266
850.50 0.1265
850.60 0.1264
850.70 0.1264
850.80 0.1263
850.90 0.1263
851.00 0.1262
851.10 0.1261
851.20 0.1261
851.30 0.126
851.40 0.126
851.50 0.1259
851.60 0.1259
851.70 0.1258
851.80 0.1257
851.90 0.1257
852.00 0.1256
852.10 0.1256
852.20 0.1255
852.30 0.1255
852.40 0.1254
852.50 0.1253
852.60 0.1253
852.70 0.1252
852.80 0.1252
852.90 0.1251
853.00 0.1251
853.10 0.125
853.20 0.1249
853.30 0.1249
853.40 0.1248
853.50 0.1248
853.60 0.1247
853.70 0.1247
853.80 0.1246
853.90 0.1245
854.00 0.1245
854.10 0.1244
854.20 0.1244
854.30 0.1243
854.40 0.1243
854.50 0.1242
854.60 0.1241
854.70 0.1241
854.80 0.124
854.90 0.124
855.00 0.1239
855.10 0.1239
855.20 0.1238
855.30 0.1237
855.40 0.1237
855.50 0.1236
855.60 0.1236
855.70 0.1235
855.80 0.1235
855.90 0.1234
856.00 0.1233
856.10 0.1233
856.20 0.1232
856.30 0.1232
856.40 0.1231
856.50 0.1231
856.60 0.123
856.70 0.123
856.80 0.1229
856.90 0.1228
857.00 0.1228
857.10 0.1227
857.20 0.1227
857.30 0.1226
857.40 0.1226
857.50 0.1225
857.60 0.1224
857.70 0.1224
857.80 0.1223
857.90 0.1223
858.00 0.1222
858.10 0.1222
858.20 0.1221
858.30 0.1221
858.40 0.122
858.50 0.1219
858.60 0.1219
858.70 0.1218
858.80 0.1218
858.90 0.1217
859.00 0.1217
859.10 0.1216
859.20 0.1216
859.30 0.1215
859.40 0.1215
859.50 0.1214
859.60 0.1213
859.70 0.1213
859.80 0.1212
859.90 0.1212
860.00 0.1211
860.10 0.1211
860.20 0.121
860.30 0.121
860.40 0.1209
860.50 0.1208
860.60 0.1208
860.70 0.1207
860.80 0.1207
860.90 0.1206
861.00 0.1206
861.10 0.1205
861.20 0.1205
861.30 0.1204
861.40 0.1204
861.50 0.1203
861.60 0.1202
861.70 0.1202
861.80 0.1201
861.90 0.1201
862.00 0.12
862.10 0.12
862.20 0.1199
862.30 0.1199
862.40 0.1198
862.50 0.1198
862.60 0.1197
862.70 0.1196
862.80 0.1196
862.90 0.1195
863.00 0.1195
863.10 0.1194
863.20 0.1194
863.30 0.1193
863.40 0.1193
863.50 0.1192
863.60 0.1192
863.70 0.1191
863.80 0.1191
863.90 0.119
864.00 0.1189
864.10 0.1189
864.20 0.1188
864.30 0.1188
864.40 0.1187
864.50 0.1187
864.60 0.1186
864.70 0.1186
864.80 0.1185
864.90 0.1185
865.00 0.1184
865.10 0.1184
865.20 0.1183
865.30 0.1182
865.40 0.1182
865.50 0.1181
865.60 0.1181
865.70 0.118
865.80 0.118
865.90 0.1179
866.00 0.1179
866.10 0.1178
866.20 0.1178
866.30 0.1177
866.40 0.1177
866.50 0.1176
866.60 0.1176
866.70 0.1175
866.80 0.1174
866.90 0.1174
867.00 0.1173
867.10 0.1173
867.20 0.1172
867.30 0.1172
867.40 0.1171
867.50 0.1171
867.60 0.117
867.70 0.117
867.80 0.1169
867.90 0.1169
868.00 0.1168
868.10 0.1168
868.20 0.1167
868.30 0.1167
868.40 0.1166
868.50 0.1166
868.60 0.1165
868.70 0.1164
868.80 0.1164
868.90 0.1163
869.00 0.1163
869.10 0.1162
869.20 0.1162
869.30 0.1161
869.40 0.1161
869.50 0.116
869.60 0.116
869.70 0.1159
869.80 0.1159
869.90 0.1158
870.00 0.1158
870.10 0.1157
870.20 0.1157
870.30 0.1156
870.40 0.1156
870.50 0.1155
870.60 0.1155
870.70 0.1154
870.80 0.1154
870.90 0.1153
871.00 0.1152
871.10 0.1152
871.20 0.1151
871.30 0.1151
871.40 0.115
871.50 0.115
871.60 0.1149
871.70 0.1149
871.80 0.1148
871.90 0.1148
872.00 0.1147
872.10 0.1147
872.20 0.1146
872.30 0.1146
872.40 0.1145
872.50 0.1145
872.60 0.1144
872.70 0.1144
872.80 0.1143
872.90 0.1143
873.00 0.1142
873.10 0.1142
873.20 0.1141
873.30 0.1141
873.40 0.114
873.50 0.114
873.60 0.1139
873.70 0.1139
873.80 0.1138
873.90 0.1138
874.00 0.1137
874.10 0.1137
874.20 0.1136
874.30 0.1136
874.40 0.1135
874.50 0.1135
874.60 0.1134
874.70 0.1134
874.80 0.1133
874.90 0.1133
875.00 0.1132
875.10 0.1132
875.20 0.1131
875.30 0.1131
875.40 0.113
875.50 0.113
875.60 0.1129
875.70 0.1129
875.80 0.1128
875.90 0.1128
876.00 0.1127
876.10 0.1127
876.20 0.1126
876.30 0.1126
876.40 0.1125
876.50 0.1125
876.60 0.1124
876.70 0.1123
876.80 0.1123
876.90 0.1122
877.00 0.1122
877.10 0.1121
877.20 0.1121
877.30 0.112
877.40 0.112
877.50 0.112
877.60 0.1119
877.70 0.1119
877.80 0.1118
877.90 0.1118
878.00 0.1117
878.10 0.1117
878.20 0.1116
878.30 0.1116
878.40 0.1115
878.50 0.1115
878.60 0.1114
878.70 0.1114
878.80 0.1113
878.90 0.1113
879.00 0.1112
879.10 0.1112
879.20 0.1111
879.30 0.1111
879.40 0.111
879.50 0.111
879.60 0.1109
879.70 0.1109
879.80 0.1108
879.90 0.1108
880.00 0.1107
880.10 0.1107
880.20 0.1106
880.30 0.1106
880.40 0.1105
880.50 0.1105
880.60 0.1104
880.70 0.1104
880.80 0.1103
880.90 0.1103
881.00 0.1102
881.10 0.1102
881.20 0.1101
881.30 0.1101
881.40 0.11
881.50 0.11
881.60 0.1099
881.70 0.1099
881.80 0.1098
881.90 0.1098
882.00 0.1097
882.10 0.1097
882.20 0.1096
882.30 0.1096
882.40 0.1095
882.50 0.1095
882.60 0.1094
882.70 0.1094
882.80 0.1093
882.90 0.1093
883.00 0.1093
883.10 0.1092
883.20 0.1092
883.30 0.1091
883.40 0.1091
883.50 0.109
883.60 0.109
883.70 0.1089
883.80 0.1089
883.90 0.1088
884.00 0.1088
884.10 0.1087
884.20 0.1087
884.30 0.1086
884.40 0.1086
884.50 0.1085
884.60 0.1085
884.70 0.1084
884.80 0.1084
884.90 0.1083
885.00 0.1083
885.10 0.1082
885.20 0.1082
885.30 0.1082
885.40 0.1081
885.50 0.1081
885.60 0.108
885.70 0.108
885.80 0.1079
885.90 0.1079
886.00 0.1078
886.10 0.1078
886.20 0.1077
886.30 0.1077
886.40 0.1076
886.50 0.1076
886.60 0.1075
886.70 0.1075
886.80 0.1074
886.90 0.1074
887.00 0.1073
887.10 0.1073
887.20 0.1073
887.30 0.1072
887.40 0.1072
887.50 0.1071
887.60 0.1071
887.70 0.107
887.80 0.107
887.90 0.1069
888.00 0.1069
888.10 0.1068
888.20 0.1068
888.30 0.1067
888.40 0.1067
888.50 0.1066
888.60 0.1066
888.70 0.1065
888.80 0.1065
888.90 0.1065
889.00 0.1064
889.10 0.1064
889.20 0.1063
889.30 0.1063
889.40 0.1062
889.50 0.1062
889.60 0.1061
889.70 0.1061
889.80 0.106
889.90 0.106
890.00 0.1059
890.10 0.1059
890.20 0.1058
890.30 0.1058
890.40 0.1058
890.50 0.1057
890.60 0.1057
890.70 0.1056
890.80 0.1056
890.90 0.1055
891.00 0.1055
891.10 0.1054
891.20 0.1054
891.30 0.1053
891.40 0.1053
891.50 0.1052
891.60 0.1052
891.70 0.1051
891.80 0.1051
891.90 0.1051
892.00 0.105
892.10 0.105
892.20 0.1049
892.30 0.1049
892.40 0.1048
892.50 0.1048
892.60 0.1047
892.70 0.1047
892.80 0.1046
892.90 0.1046
893.00 0.1045
893.10 0.1045
893.20 0.1045
893.30 0.1044
893.40 0.1044
893.50 0.1043
893.60 0.1043
893.70 0.1042
893.80 0.1042
893.90 0.1041
894.00 0.1041
894.10 0.104
894.20 0.104
894.30 0.104
894.40 0.1039
894.50 0.1039
894.60 0.1038
894.70 0.1038
894.80 0.1037
894.90 0.1037
895.00 0.1036
895.10 0.1036
895.20 0.1035
895.30 0.1035
895.40 0.1035
895.50 0.1034
895.60 0.1034
895.70 0.1033
895.80 0.1033
895.90 0.1032
896.00 0.1032
896.10 0.1031
896.20 0.1031
896.30 0.103
896.40 0.103
896.50 0.103
896.60 0.1029
896.70 0.1029
896.80 0.1028
896.90 0.1028
897.00 0.1027
897.10 0.1027
897.20 0.1026
897.30 0.1026
897.40 0.1026
897.50 0.1025
897.60 0.1025
897.70 0.1024
897.80 0.1024
897.90 0.1023
898.00 0.1023
898.10 0.1022
898.20 0.1022
898.30 0.1022
898.40 0.1021
898.50 0.1021
898.60 0.102
898.70 0.102
898.80 0.1019
898.90 0.1019
899.00 0.1019
899.10 0.1018
899.20 0.1018
899.30 0.1017
899.40 0.1017
899.50 0.1016
899.60 0.1016
899.70 0.1015
899.80 0.1015
899.90 0.1015
900.00 0.1014
900.10 0.1014
900.20 0.1013
900.30 0.1013
900.40 0.1012
900.50 0.1012
900.60 0.1012
900.70 0.1011
900.80 0.1011
900.90 0.101
901.00 0.101
901.10 0.1009
901.20 0.1009
901.30 0.1008
901.40 0.1008
901.50 0.1008
901.60 0.1007
901.70 0.1007
901.80 0.1006
901.90 0.1006
902.00 0.1005
902.10 0.1005
902.20 0.1005
902.30 0.1004
902.40 0.1004
902.50 0.1003
902.60 0.1003
902.70 0.1002
902.80 0.1002
902.90 0.1002
903.00 0.1001
903.10 0.1001
903.20 0.1
903.30 0.09998
903.40 0.09994
903.50 0.09989
903.60 0.09985
903.70 0.09981
903.80 0.09976
903.90 0.09972
904.00 0.09968
904.10 0.09963
904.20 0.09959
904.30 0.09955
904.40 0.09951
904.50 0.09946
904.60 0.09942
904.70 0.09938
904.80 0.09933
904.90 0.09929
905.00 0.09925
905.10 0.0992
905.20 0.09916
905.30 0.09912
905.40 0.09908
905.50 0.09903
905.60 0.09899
905.70 0.09895
905.80 0.0989
905.90 0.09886
906.00 0.09882
906.10 0.09878
906.20 0.09873
906.30 0.09869
906.40 0.09865
906.50 0.0986
906.60 0.09856
906.70 0.09852
906.80 0.09848
906.90 0.09843
907.00 0.09839
907.10 0.09835
907.20 0.09831
907.30 0.09826
907.40 0.09822
907.50 0.09818
907.60 0.09814
907.70 0.0981
907.80 0.09805
907.90 0.09801
908.00 0.09797
908.10 0.09793
908.20 0.09789
908.30 0.09784
908.40 0.0978
908.50 0.09776
908.60 0.09772
908.70 0.09768
908.80 0.09763
908.90 0.09759
909.00 0.09755
909.10 0.09751
909.20 0.09747
909.30 0.09742
909.40 0.09738
909.50 0.09734
909.60 0.0973
909.70 0.09726
909.80 0.09722
909.90 0.09717
910.00 0.09713
910.10 0.09709
910.20 0.09705
910.30 0.09701
910.40 0.09697
910.50 0.09692
910.60 0.09688
910.70 0.09684
910.80 0.0968
910.90 0.09676
911.00 0.09672
911.10 0.09668
911.20 0.09663
911.30 0.09659
911.40 0.09655
911.50 0.09651
911.60 0.09647
911.70 0.09643
911.80 0.09638
911.90 0.09634
912.00 0.0963
912.10 0.09626
912.20 0.09622
912.30 0.09618
912.40 0.09614
912.50 0.09609
912.60 0.09605
912.70 0.09601
912.80 0.09597
912.90 0.09593
913.00 0.09589
913.10 0.09585
913.20 0.0958
913.30 0.09576
913.40 0.09572
913.50 0.09568
913.60 0.09564
913.70 0.0956
913.80 0.09556
913.90 0.09551
914.00 0.09547
914.10 0.09543
914.20 0.09539
914.30 0.09535
914.40 0.09531
914.50 0.09527
914.60 0.09523
914.70 0.09518
914.80 0.09514
914.90 0.0951
915.00 0.09506
915.10 0.09502
915.20 0.09498
915.30 0.09494
915.40 0.0949
915.50 0.09486
915.60 0.09481
915.70 0.09477
915.80 0.09473
915.90 0.09469
916.00 0.09465
916.10 0.09461
916.20 0.09457
916.30 0.09453
916.40 0.09449
916.50 0.09445
916.60 0.09441
916.70 0.09436
916.80 0.09432
916.90 0.09428
917.00 0.09424
917.10 0.0942
917.20 0.09416
917.30 0.09412
917.40 0.09408
917.50 0.09404
917.60 0.094
917.70 0.09396
917.80 0.09392
917.90 0.09388
918.00 0.09384
918.10 0.0938
918.20 0.09376
918.30 0.09372
918.40 0.09368
918.50 0.09364
918.60 0.0936
918.70 0.09356
918.80 0.09352
918.90 0.09348
919.00 0.09344
919.10 0.0934
919.20 0.09336
919.30 0.09332
919.40 0.09328
919.50 0.09324
919.60 0.0932
919.70 0.09316
919.80 0.09312
919.90 0.09308
920.00 0.09304
920.10 0.093
920.20 0.09296
920.30 0.09292
920.40 0.09288
920.50 0.09284
920.60 0.0928
920.70 0.09277
920.80 0.09273
920.90 0.09269
921.00 0.09265
921.10 0.09261
921.20 0.09257
921.30 0.09253
921.40 0.09249
921.50 0.09245
921.60 0.09241
921.70 0.09237
921.80 0.09233
921.90 0.09229
922.00 0.09225
922.10 0.09221
922.20 0.09217
922.30 0.09213
922.40 0.0921
922.50 0.09206
922.60 0.09202
922.70 0.09198
922.80 0.09194
922.90 0.0919
923.00 0.09186
923.10 0.09182
923.20 0.09179
923.30 0.09175
923.40 0.09171
923.50 0.09167
923.60 0.09163
923.70 0.09159
923.80 0.09155
923.90 0.09152
924.00 0.09148
924.10 0.09144
924.20 0.0914
924.30 0.09136
924.40 0.09132
924.50 0.09128
924.60 0.09125
924.70 0.09121
924.80 0.09117
924.90 0.09113
925.00 0.09109
925.10 0.09105
925.20 0.09102
925.30 0.09098
925.40 0.09094
925.50 0.0909
925.60 0.09086
925.70 0.09082
925.80 0.09079
925.90 0.09075
926.00 0.09071
926.10 0.09067
926.20 0.09063
926.30 0.09059
926.40 0.09056
926.50 0.09052
926.60 0.09048
926.70 0.09044
926.80 0.0904
926.90 0.09037
927.00 0.09033
927.10 0.09029
927.20 0.09025
927.30 0.09022
927.40 0.09018
927.50 0.09014
927.60 0.0901
927.70 0.09007
927.80 0.09003
927.90 0.08999
928.00 0.08996
928.10 0.08992
928.20 0.08988
928.30 0.08985
928.40 0.08981
928.50 0.08977
928.60 0.08974
928.70 0.0897
928.80 0.08966
928.90 0.08963
929.00 0.08959
929.10 0.08955
929.20 0.08951
929.30 0.08948
929.40 0.08944
929.50 0.0894
929.60 0.08937
929.70 0.08933
929.80 0.08929
929.90 0.08926
930.00 0.08922
930.10 0.08918
930.20 0.08915
930.30 0.08911
930.40 0.08907
930.50 0.08904
930.60 0.089
930.70 0.08896
930.80 0.08893
930.90 0.08889
931.00 0.08886
931.10 0.08882
931.20 0.08878
931.30 0.08875
931.40 0.08871
931.50 0.08867
931.60 0.08864
931.70 0.0886
931.80 0.08856
931.90 0.08853
932.00 0.08849
932.10 0.08845
932.20 0.08842
932.30 0.08838
932.40 0.08834
932.50 0.08831
932.60 0.08827
932.70 0.08823
932.80 0.0882
932.90 0.08816
933.00 0.08813
933.10 0.08809
933.20 0.08805
933.30 0.08802
933.40 0.08798
933.50 0.08794
933.60 0.08791
933.70 0.08787
933.80 0.08783
933.90 0.0878
934.00 0.08776
934.10 0.08773
934.20 0.08769
934.30 0.08765
934.40 0.08762
934.50 0.08758
934.60 0.08754
934.70 0.08751
934.80 0.08747
934.90 0.08743
935.00 0.0874
935.10 0.08736
935.20 0.08733
935.30 0.08729
935.40 0.08725
935.50 0.08722
935.60 0.08718
935.70 0.08714
935.80 0.08711
935.90 0.08707
936.00 0.08704
936.10 0.087
936.20 0.08696
936.30 0.08693
936.40 0.08689
936.50 0.08686
936.60 0.08682
936.70 0.08678
936.80 0.08675
936.90 0.08671
937.00 0.08667
937.10 0.08664
937.20 0.0866
937.30 0.08657
937.40 0.08653
937.50 0.08649
937.60 0.08646
937.70 0.08642
937.80 0.08639
937.90 0.08635
938.00 0.08631
938.10 0.08628
938.20 0.08624
938.30 0.08621
938.40 0.08617
938.50 0.08613
938.60 0.0861
938.70 0.08606
938.80 0.08603
938.90 0.08599
939.00 0.08595
939.10 0.08592
939.20 0.08588
939.30 0.08585
939.40 0.08581
939.50 0.08577
939.60 0.08574
939.70 0.0857
939.80 0.08567
939.90 0.08563
940.00 0.08559
940.10 0.08556
940.20 0.08552
940.30 0.08549
940.40 0.08545
940.50 0.08541
940.60 0.08538
940.70 0.08534
940.80 0.08531
940.90 0.08527
941.00 0.08524
941.10 0.0852
941.20 0.08516
941.30 0.08513
941.40 0.08509
941.50 0.08506
941.60 0.08502
941.70 0.08499
941.80 0.08495
941.90 0.08491
942.00 0.08488
942.10 0.08484
942.20 0.08481
942.30 0.08477
942.40 0.08473
942.50 0.0847
942.60 0.08466
942.70 0.08463
942.80 0.08459
942.90 0.08456
943.00 0.08452
943.10 0.08448
943.20 0.08445
943.30 0.08441
943.40 0.08438
943.50 0.08434
943.60 0.08431
943.70 0.08427
943.80 0.08423
943.90 0.0842
944.00 0.08416
944.10 0.08413
944.20 0.08409
944.30 0.08406
944.40 0.08402
944.50 0.08398
944.60 0.08395
944.70 0.08391
944.80 0.08388
944.90 0.08384
945.00 0.0838
945.10 0.08377
945.20 0.08373
945.30 0.0837
945.40 0.08366
945.50 0.08363
945.60 0.08359
945.70 0.08355
945.80 0.08352
945.90 0.08348
946.00 0.08345
946.10 0.08341
946.20 0.08338
946.30 0.08334
946.40 0.0833
946.50 0.08327
946.60 0.08323
946.70 0.0832
946.80 0.08316
946.90 0.08312
947.00 0.08309
947.10 0.08305
947.20 0.08302
947.30 0.08298
947.40 0.08295
947.50 0.08291
947.60 0.08287
947.70 0.08284
947.80 0.0828
947.90 0.08277
948.00 0.08273
948.10 0.08269
948.20 0.08266
948.30 0.08262
948.40 0.08259
948.50 0.08255
948.60 0.08251
948.70 0.08248
948.80 0.08244
948.90 0.08241
949.00 0.08237
949.10 0.08233
949.20 0.0823
949.30 0.08226
949.40 0.08223
949.50 0.08219
949.60 0.08216
949.70 0.08212
949.80 0.08208
949.90 0.08205
950.00 0.08201
950.10 0.08198
950.20 0.08194
950.30 0.0819
950.40 0.08187
950.50 0.08183
950.60 0.0818
950.70 0.08176
950.80 0.08173
950.90 0.08169
951.00 0.08165
951.10 0.08162
951.20 0.08158
951.30 0.08155
951.40 0.08151
951.50 0.08148
951.60 0.08144
951.70 0.08141
951.80 0.08137
951.90 0.08133
952.00 0.0813
952.10 0.08126
952.20 0.08123
952.30 0.0812
952.40 0.08116
952.50 0.08113
952.60 0.08109
952.70 0.08106
952.80 0.08102
952.90 0.08099
953.00 0.08096
953.10 0.08093
953.20 0.08089
953.30 0.08086
953.40 0.08083
953.50 0.0808
953.60 0.08077
953.70 0.08073
953.80 0.0807
953.90 0.08067
954.00 0.08064
954.10 0.08062
954.20 0.08059
954.30 0.08056
954.40 0.08054
954.50 0.08051
954.60 0.08048
954.70 0.08044
954.80 0.0804
954.90 0.08036
955.00 0.08033
955.10 0.08029
955.20 0.08025
955.30 0.08022
955.40 0.08018
955.50 0.08014
955.60 0.08011
955.70 0.08007
955.80 0.08004
955.90 0.08001
956.00 0.07997
956.10 0.07994
956.20 0.07991
956.30 0.07988
956.40 0.07984
956.50 0.07981
956.60 0.07978
956.70 0.07975
956.80 0.07972
956.90 0.07968
957.00 0.07965
957.10 0.07962
957.20 0.07959
957.30 0.07956
957.40 0.07953
957.50 0.0795
957.60 0.07947
957.70 0.07944
957.80 0.07941
957.90 0.07938
958.00 0.07935
958.10 0.07932
958.20 0.07929
958.30 0.07926
958.40 0.07923
958.50 0.0792
958.60 0.07917
958.70 0.07914
958.80 0.07911
958.90 0.07908
959.00 0.07905
959.10 0.07902
959.20 0.07899
959.30 0.07896
959.40 0.07893
959.50 0.0789
959.60 0.07887
959.70 0.07884
959.80 0.07881
959.90 0.07878
960.00 0.07875
960.10 0.07872
960.20 0.07869
960.30 0.07866
960.40 0.07863
960.50 0.0786
960.60 0.07857
960.70 0.07854
960.80 0.07851
960.90 0.07848
961.00 0.07845
961.10 0.07842
961.20 0.07839
961.30 0.07836
961.40 0.07833
961.50 0.0783
961.60 0.07827
961.70 0.07823
961.80 0.0782
961.90 0.07817
962.00 0.07814
962.10 0.07811
962.20 0.07808
962.30 0.07805
962.40 0.07802
962.50 0.07799
962.60 0.07796
962.70 0.07793
962.80 0.0779
962.90 0.07787
963.00 0.07784
963.10 0.07781
963.20 0.07778
963.30 0.07775
963.40 0.07772
963.50 0.07769
963.60 0.07766
963.70 0.07763
963.80 0.0776
963.90 0.07757
964.00 0.07754
964.10 0.07751
964.20 0.07748
964.30 0.07745
964.40 0.07742
964.50 0.07739
964.60 0.07736
964.70 0.07733
964.80 0.0773
964.90 0.07727
965.00 0.07724
965.10 0.07721
965.20 0.07718
965.30 0.07714
965.40 0.07711
965.50 0.07708
965.60 0.07705
965.70 0.07702
965.80 0.07699
965.90 0.07696
966.00 0.07693
966.10 0.0769
966.20 0.07687
966.30 0.07684
966.40 0.07681
966.50 0.07678
966.60 0.07675
966.70 0.07672
966.80 0.07669
966.90 0.07666
967.00 0.07663
967.10 0.0766
967.20 0.07657
967.30 0.07654
967.40 0.07651
967.50 0.07648
967.60 0.07645
967.70 0.07642
967.80 0.07639
967.90 0.07636
968.00 0.07633
968.10 0.0763
968.20 0.07627
968.30 0.07624
968.40 0.07621
968.50 0.07618
968.60 0.07615
968.70 0.07612
968.80 0.07608
968.90 0.07605
969.00 0.07602
969.10 0.07599
969.20 0.07596
969.30 0.07593
969.40 0.0759
969.50 0.07587
969.60 0.07584
969.70 0.07581
969.80 0.07578
969.90 0.07575
970.00 0.07572
970.10 0.07569
970.20 0.07566
970.30 0.07563
970.40 0.0756
970.50 0.07557
970.60 0.07554
970.70 0.07551
970.80 0.07548
970.90 0.07545
971.00 0.07542
971.10 0.07539
971.20 0.07536
971.30 0.07533
971.40 0.0753
971.50 0.07527
971.60 0.07524
971.70 0.07521
971.80 0.07518
971.90 0.07515
972.00 0.07512
972.10 0.07509
972.20 0.07506
972.30 0.07503
972.40 0.075
972.50 0.07497
972.60 0.07494
972.70 0.07491
972.80 0.07488
972.90 0.07485
973.00 0.07482
973.10 0.07479
973.20 0.07476
973.30 0.07473
973.40 0.0747
973.50 0.07467
973.60 0.07464
973.70 0.07461
973.80 0.07458
973.90 0.07455
974.00 0.07452
974.10 0.07449
974.20 0.07446
974.30 0.07443
974.40 0.07441
974.50 0.07438
974.60 0.07435
974.70 0.07432
974.80 0.07429
974.90 0.07426
975.00 0.07423
975.10 0.0742
975.20 0.07417
975.30 0.07414
975.40 0.07411
975.50 0.07408
975.60 0.07405
975.70 0.07402
975.80 0.07399
975.90 0.07396
976.00 0.07393
976.10 0.0739
976.20 0.07387
976.30 0.07384
976.40 0.07381
976.50 0.07378
976.60 0.07375
976.70 0.07372
976.80 0.0737
976.90 0.07367
977.00 0.07364
977.10 0.07361
977.20 0.07358
977.30 0.07355
977.40 0.07352
977.50 0.07349
977.60 0.07346
977.70 0.07343
977.80 0.0734
977.90 0.07337
978.00 0.07334
978.10 0.07331
978.20 0.07328
978.30 0.07326
978.40 0.07323
978.50 0.0732
978.60 0.07317
978.70 0.07314
978.80 0.07311
978.90 0.07308
979.00 0.07305
979.10 0.07302
979.20 0.07299
979.30 0.07296
979.40 0.07293
979.50 0.0729
979.60 0.07288
979.70 0.07285
979.80 0.07282
979.90 0.07279
980.00 0.07276
980.10 0.07273
980.20 0.0727
980.30 0.07267
980.40 0.07264
980.50 0.07261
980.60 0.07259
980.70 0.07256
980.80 0.07253
980.90 0.0725
981.00 0.07247
981.10 0.07244
981.20 0.07241
981.30 0.07238
981.40 0.07235
981.50 0.07232
981.60 0.0723
981.70 0.07227
981.80 0.07224
981.90 0.07221
982.00 0.07218
982.10 0.07215
982.20 0.07212
982.30 0.07209
982.40 0.07206
982.50 0.07204
982.60 0.07201
982.70 0.07198
982.80 0.07195
982.90 0.07192
983.00 0.07189
983.10 0.07186
983.20 0.07183
983.30 0.07181
983.40 0.07178
983.50 0.07175
983.60 0.07172
983.70 0.07169
983.80 0.07166
983.90 0.07163
984.00 0.07161
984.10 0.07158
984.20 0.07155
984.30 0.07152
984.40 0.07149
984.50 0.07146
984.60 0.07143
984.70 0.0714
984.80 0.07138
984.90 0.07135
985.00 0.07132
985.10 0.07129
985.20 0.07126
985.30 0.07123
985.40 0.07121
985.50 0.07118
985.60 0.07115
985.70 0.07112
985.80 0.07109
985.90 0.07106
986.00 0.07103
986.10 0.07101
986.20 0.07098
986.30 0.07095
986.40 0.07092
986.50 0.07089
986.60 0.07086
986.70 0.07084
986.80 0.07081
986.90 0.07078
987.00 0.07075
987.10 0.07072
987.20 0.07069
987.30 0.07067
987.40 0.07064
987.50 0.07061
987.60 0.07058
987.70 0.07055
987.80 0.07052
987.90 0.0705
988.00 0.07047
988.10 0.07044
988.20 0.07041
988.30 0.07038
988.40 0.07035
988.50 0.07033
988.60 0.0703
988.70 0.07027
988.80 0.07024
988.90 0.07021
989.00 0.07018
989.10 0.07016
989.20 0.07013
989.30 0.0701
989.40 0.07007
989.50 0.07004
989.60 0.07001
989.70 0.06999
989.80 0.06996
989.90 0.06993
990.00 0.0699
990.10 0.06987
990.20 0.06985
990.30 0.06982
990.40 0.06979
990.50 0.06976
990.60 0.06973
990.70 0.06971
990.80 0.06968
990.90 0.06965
991.00 0.06962
991.10 0.06959
991.20 0.06956
991.30 0.06954
991.40 0.06951
991.50 0.06948
991.60 0.06945
991.70 0.06942
991.80 0.0694
991.90 0.06937
992.00 0.06934
992.10 0.06931
992.20 0.06928
992.30 0.06925
992.40 0.06923
992.50 0.0692
992.60 0.06917
992.70 0.06914
992.80 0.06911
992.90 0.06908
993.00 0.06906
993.10 0.06903
993.20 0.069
993.30 0.06897
993.40 0.06894
993.50 0.06891
993.60 0.06889
993.70 0.06886
993.80 0.06883
993.90 0.0688
994.00 0.06877
994.10 0.06875
994.20 0.06872
994.30 0.06869
994.40 0.06866
994.50 0.06863
994.60 0.0686
994.70 0.06858
994.80 0.06855
994.90 0.06852
995.00 0.06849
995.10 0.06846
995.20 0.06843
995.30 0.0684
995.40 0.06838
995.50 0.06835
995.60 0.06832
995.70 0.06829
995.80 0.06826
995.90 0.06823
996.00 0.0682
996.10 0.06818
996.20 0.06815
996.30 0.06812
996.40 0.06809
996.50 0.06806
996.60 0.06803
996.70 0.068
996.80 0.06797
996.90 0.06795
997.00 0.06792
997.10 0.06789
997.20 0.06786
997.30 0.06783
997.40 0.0678
997.50 0.06777
997.60 0.06774
997.70 0.06771
997.80 0.06768
997.90 0.06765
998.00 0.06762
998.10 0.06759
998.20 0.06756
998.30 0.06753
998.40 0.06751
998.50 0.06748
998.60 0.06745
998.70 0.06742
998.80 0.06739
998.90 0.06736
999.00 0.06733
999.10 0.0673
999.20 0.06727
999.30 0.06724
999.40 0.06721
999.50 0.06718
999.60 0.06715
999.70 0.06712
999.80 0.06709
999.90 0.06706
1000.00 0.06703
1000.10 0.067
1000.20 0.06697
1000.30 0.06693
1000.40 0.0669
1000.50 0.06687
1000.60 0.06684
1000.70 0.06681
1000.80 0.06678
1000.90 0.06675
1001.00 0.06672
1001.10 0.06669
1001.20 0.06666
1001.30 0.06663
1001.40 0.0666
1001.50 0.06657
1001.60 0.06653
1001.70 0.0665
1001.80 0.06647
1001.90 0.06644
1002.00 0.06641
1002.10 0.06638
1002.20 0.06635
1002.30 0.06632
1002.40 0.06629
1002.50 0.06626
1002.60 0.06623
1002.70 0.0662
1002.80 0.06617
1002.90 0.06614
1003.00 0.06611
1003.10 0.06608
1003.20 0.06605
1003.30 0.06603
1003.40 0.066
1003.50 0.06597
1003.60 0.06595
1003.70 0.06592
1003.80 0.06589
1003.90 0.06587
1004.00 0.06586
1004.10 0.06584
1004.20 0.06582
1004.30 0.06581
1004.40 0.0658
1004.50 0.06579
1004.60 0.06579
1004.70 0.06579
1004.80 0.06578
1004.90 0.06576
1005.00 0.06573
1005.10 0.06569
1005.20 0.06565
1005.30 0.0656
1005.40 0.06556
1005.50 0.06552
1005.60 0.06548
1005.70 0.06545
1005.80 0.06541
1005.90 0.06538
1006.00 0.06534
1006.10 0.06531
1006.20 0.06528
1006.30 0.06526
1006.40 0.06524
1006.50 0.06521
1006.60 0.06519
1006.70 0.06516
1006.80 0.06514
1006.90 0.06512
1007.00 0.06509
1007.10 0.06507
1007.20 0.06505
1007.30 0.06503
1007.40 0.06501
1007.50 0.06499
1007.60 0.06497
1007.70 0.06495
1007.80 0.06493
1007.90 0.06491
1008.00 0.06489
1008.10 0.06487
1008.20 0.06485
1008.30 0.06483
1008.40 0.06481
1008.50 0.06479
1008.60 0.06477
1008.70 0.06474
1008.80 0.06472
1008.90 0.0647
1009.00 0.06468
1009.10 0.06466
1009.20 0.06464
1009.30 0.06462
1009.40 0.0646
1009.50 0.06458
1009.60 0.06456
1009.70 0.06454
1009.80 0.06452
1009.90 0.0645
1010.00 0.06448
1010.10 0.06445
1010.20 0.06443
1010.30 0.06441
1010.40 0.06439
1010.50 0.06437
1010.60 0.06435
1010.70 0.06432
1010.80 0.0643
1010.90 0.06428
1011.00 0.06426
1011.10 0.06424
1011.20 0.06422
1011.30 0.0642
1011.40 0.06417
1011.50 0.06415
1011.60 0.06413
1011.70 0.06411
1011.80 0.06409
1011.90 0.06406
1012.00 0.06404
1012.10 0.06402
1012.20 0.064
1012.30 0.06397
1012.40 0.06395
1012.50 0.06393
1012.60 0.06391
1012.70 0.06388
1012.80 0.06386
1012.90 0.06384
1013.00 0.06382
1013.10 0.06379
1013.20 0.06377
1013.30 0.06375
1013.40 0.06373
1013.50 0.0637
1013.60 0.06368
1013.70 0.06366
1013.80 0.06364
1013.90 0.06361
1014.00 0.06359
1014.10 0.06357
1014.20 0.06354
1014.30 0.06352
1014.40 0.0635
1014.50 0.06347
1014.60 0.06345
1014.70 0.06343
1014.80 0.0634
1014.90 0.06338
1015.00 0.06336
1015.10 0.06333
1015.20 0.06331
1015.30 0.06329
1015.40 0.06326
1015.50 0.06324
1015.60 0.06322
1015.70 0.0632
1015.80 0.06317
1015.90 0.06315
1016.00 0.06313
1016.10 0.0631
1016.20 0.06308
1016.30 0.06306
1016.40 0.06303
1016.50 0.06301
1016.60 0.06299
1016.70 0.06296
1016.80 0.06294
1016.90 0.06292
1017.00 0.06289
1017.10 0.06287
1017.20 0.06285
1017.30 0.06282
1017.40 0.0628
1017.50 0.06278
1017.60 0.06275
1017.70 0.06273
1017.80 0.06271
1017.90 0.06268
1018.00 0.06266
1018.10 0.06263
1018.20 0.06261
1018.30 0.06259
1018.40 0.06256
1018.50 0.06254
1018.60 0.06252
1018.70 0.06249
1018.80 0.06247
1018.90 0.06245
1019.00 0.06242
1019.10 0.0624
1019.20 0.06238
1019.30 0.06235
1019.40 0.06233
1019.50 0.06231
1019.60 0.06228
1019.70 0.06226
1019.80 0.06224
1019.90 0.06221
1020.00 0.06219
1020.10 0.06217
1020.20 0.06214
1020.30 0.06212
1020.40 0.0621
1020.50 0.06207
1020.60 0.06205
1020.70 0.06203
1020.80 0.062
1020.90 0.06198
1021.00 0.06196
1021.10 0.06193
1021.20 0.06191
1021.30 0.06189
1021.40 0.06186
1021.50 0.06184
1021.60 0.06182
1021.70 0.06179
1021.80 0.06177
1021.90 0.06175
1022.00 0.06172
1022.10 0.0617
1022.20 0.06168
1022.30 0.06165
1022.40 0.06163
1022.50 0.06161
1022.60 0.06158
1022.70 0.06156
1022.80 0.06154
1022.90 0.06151
1023.00 0.06149
1023.10 0.06147
1023.20 0.06144
1023.30 0.06142
1023.40 0.0614
1023.50 0.06137
1023.60 0.06135
1023.70 0.06133
1023.80 0.0613
1023.90 0.06128
1024.00 0.06126
1024.10 0.06123
1024.20 0.06121
1024.30 0.06119
1024.40 0.06116
1024.50 0.06114
1024.60 0.06112
1024.70 0.06109
1024.80 0.06107
1024.90 0.06105
1025.00 0.06102
1025.10 0.061
1025.20 0.06098
1025.30 0.06096
1025.40 0.06093
1025.50 0.06091
1025.60 0.06089
1025.70 0.06086
1025.80 0.06084
1025.90 0.06082
1026.00 0.06079
1026.10 0.06077
1026.20 0.06075
1026.30 0.06073
1026.40 0.0607
1026.50 0.06068
1026.60 0.06066
1026.70 0.06063
1026.80 0.06061
1026.90 0.06059
1027.00 0.06056
1027.10 0.06054
1027.20 0.06052
1027.30 0.0605
1027.40 0.06047
1027.50 0.06045
1027.60 0.06043
1027.70 0.0604
1027.80 0.06038
1027.90 0.06036
1028.00 0.06034
1028.10 0.06031
1028.20 0.06029
1028.30 0.06027
1028.40 0.06024
1028.50 0.06022
1028.60 0.0602
1028.70 0.06018
1028.80 0.06015
1028.90 0.06013
1029.00 0.06011
1029.10 0.06008
1029.20 0.06006
1029.30 0.06004
1029.40 0.06002
1029.50 0.05999
1029.60 0.05997
1029.70 0.05995
1029.80 0.05993
1029.90 0.0599
1030.00 0.05988
1030.10 0.05986
1030.20 0.05983
1030.30 0.05981
1030.40 0.05979
1030.50 0.05977
1030.60 0.05974
1030.70 0.05972
1030.80 0.0597
1030.90 0.05968
1031.00 0.05965
1031.10 0.05963
1031.20 0.05961
1031.30 0.05959
1031.40 0.05956
1031.50 0.05954
1031.60 0.05952
1031.70 0.0595
1031.80 0.05947
1031.90 0.05945
1032.00 0.05943
1032.10 0.05941
1032.20 0.05938
1032.30 0.05936
1032.40 0.05934
1032.50 0.05932
1032.60 0.05929
1032.70 0.05927
1032.80 0.05925
1032.90 0.05923
1033.00 0.0592
1033.10 0.05918
1033.20 0.05916
1033.30 0.05914
1033.40 0.05911
1033.50 0.05909
1033.60 0.05907
1033.70 0.05905
1033.80 0.05903
1033.90 0.059
1034.00 0.05898
1034.10 0.05896
1034.20 0.05894
1034.30 0.05891
1034.40 0.05889
1034.50 0.05887
1034.60 0.05885
1034.70 0.05883
1034.80 0.0588
1034.90 0.05878
1035.00 0.05876
1035.10 0.05874
1035.20 0.05871
1035.30 0.05869
1035.40 0.05867
1035.50 0.05865
1035.60 0.05863
1035.70 0.0586
1035.80 0.05858
1035.90 0.05856
1036.00 0.05854
1036.10 0.05852
1036.20 0.05849
1036.30 0.05847
1036.40 0.05845
1036.50 0.05843
1036.60 0.0584
1036.70 0.05838
1036.80 0.05836
1036.90 0.05834
1037.00 0.05832
1037.10 0.05829
1037.20 0.05827
1037.30 0.05825
1037.40 0.05823
1037.50 0.05821
1037.60 0.05819
1037.70 0.05816
1037.80 0.05814
1037.90 0.05812
1038.00 0.0581
1038.10 0.05808
1038.20 0.05805
1038.30 0.05803
1038.40 0.05801
1038.50 0.05799
1038.60 0.05797
1038.70 0.05795
1038.80 0.05792
1038.90 0.0579
1039.00 0.05788
1039.10 0.05786
1039.20 0.05784
1039.30 0.05781
1039.40 0.05779
1039.50 0.05777
1039.60 0.05775
1039.70 0.05773
1039.80 0.05771
1039.90 0.05768
1040.00 0.05766
1040.10 0.05764
1040.20 0.05762
1040.30 0.0576
1040.40 0.05758
1040.50 0.05755
1040.60 0.05753
1040.70 0.05751
1040.80 0.05749
1040.90 0.05747
1041.00 0.05745
1041.10 0.05742
1041.20 0.0574
1041.30 0.05738
1041.40 0.05736
1041.50 0.05734
1041.60 0.05732
1041.70 0.05729
1041.80 0.05727
1041.90 0.05725
1042.00 0.05723
1042.10 0.05721
1042.20 0.05719
1042.30 0.05717
1042.40 0.05714
1042.50 0.05712
1042.60 0.0571
1042.70 0.05708
1042.80 0.05706
1042.90 0.05704
1043.00 0.05702
1043.10 0.05699
1043.20 0.05697
1043.30 0.05695
1043.40 0.05693
1043.50 0.05691
1043.60 0.05689
1043.70 0.05687
1043.80 0.05685
1043.90 0.05682
1044.00 0.0568
1044.10 0.05678
1044.20 0.05676
1044.30 0.05674
1044.40 0.05672
1044.50 0.0567
1044.60 0.05668
1044.70 0.05665
1044.80 0.05663
1044.90 0.05661
1045.00 0.05659
1045.10 0.05657
1045.20 0.05655
1045.30 0.05653
1045.40 0.05651
1045.50 0.05648
1045.60 0.05646
1045.70 0.05644
1045.80 0.05642
1045.90 0.0564
1046.00 0.05638
1046.10 0.05636
1046.20 0.05634
1046.30 0.05632
1046.40 0.05629
1046.50 0.05627
1046.60 0.05625
1046.70 0.05623
1046.80 0.05621
1046.90 0.05619
1047.00 0.05617
1047.10 0.05615
1047.20 0.05613
1047.30 0.05611
1047.40 0.05608
1047.50 0.05606
1047.60 0.05604
1047.70 0.05602
1047.80 0.056
1047.90 0.05598
1048.00 0.05596
1048.10 0.05594
1048.20 0.05592
1048.30 0.0559
1048.40 0.05588
1048.50 0.05585
1048.60 0.05583
1048.70 0.05581
1048.80 0.05579
1048.90 0.05577
1049.00 0.05575
1049.10 0.05573
1049.20 0.05571
1049.30 0.05569
1049.40 0.05567
1049.50 0.05565
1049.60 0.05563
1049.70 0.05561
1049.80 0.05558
1049.90 0.05556
1050.00 0.05554
1050.10 0.05552
1050.20 0.0555
1050.30 0.05548
1050.40 0.05546
1050.50 0.05544
1050.60 0.05542
1050.70 0.0554
1050.80 0.05538
1050.90 0.05536
1051.00 0.05534
1051.10 0.05532
1051.20 0.05529
1051.30 0.05527
1051.40 0.05525
1051.50 0.05523
1051.60 0.05521
1051.70 0.05519
1051.80 0.05517
1051.90 0.05515
1052.00 0.05513
1052.10 0.05511
1052.20 0.05509
1052.30 0.05507
1052.40 0.05505
1052.50 0.05503
1052.60 0.05501
1052.70 0.05499
1052.80 0.05497
1052.90 0.05495
1053.00 0.05493
1053.10 0.05491
1053.20 0.05489
1053.30 0.05486
1053.40 0.05484
1053.50 0.05482
1053.60 0.0548
1053.70 0.05478
1053.80 0.05476
1053.90 0.05474
1054.00 0.05472
1054.10 0.0547
1054.20 0.05468
1054.30 0.05466
1054.40 0.05464
1054.50 0.05462
1054.60 0.0546
1054.70 0.05458
1054.80 0.05456
1054.90 0.05454
1055.00 0.05452
1055.10 0.0545
1055.20 0.05448
1055.30 0.05446
1055.40 0.05444
1055.50 0.05442
1055.60 0.0544
1055.70 0.05438
1055.80 0.05436
1055.90 0.05434
1056.00 0.05432
1056.10 0.0543
1056.20 0.05428
1056.30 0.05426
1056.40 0.05424
1056.50 0.05422
1056.60 0.0542
1056.70 0.05418
1056.80 0.05416
1056.90 0.05414
1057.00 0.05412
1057.10 0.0541
1057.20 0.05408
1057.30 0.05406
1057.40 0.05404
1057.50 0.05402
1057.60 0.054
1057.70 0.05398
1057.80 0.05396
1057.90 0.05394
1058.00 0.05392
1058.10 0.0539
1058.20 0.05388
1058.30 0.05386
1058.40 0.05384
1058.50 0.05382
1058.60 0.0538
1058.70 0.05378
1058.80 0.05376
1058.90 0.05374
1059.00 0.05372
1059.10 0.0537
1059.20 0.05368
1059.30 0.05366
1059.40 0.05364
1059.50 0.05362
1059.60 0.0536
1059.70 0.05358
1059.80 0.05356
1059.90 0.05354
1060.00 0.05352
1060.10 0.0535
1060.20 0.05348
1060.30 0.05346
1060.40 0.05344
1060.50 0.05342
1060.60 0.0534
1060.70 0.05338
1060.80 0.05336
1060.90 0.05334
1061.00 0.05332
1061.10 0.0533
1061.20 0.05328
1061.30 0.05326
1061.40 0.05324
1061.50 0.05322
1061.60 0.0532
1061.70 0.05318
1061.80 0.05316
1061.90 0.05314
1062.00 0.05312
1062.10 0.0531
1062.20 0.05308
1062.30 0.05307
1062.40 0.05305
1062.50 0.05303
1062.60 0.05301
1062.70 0.05299
1062.80 0.05297
1062.90 0.05295
1063.00 0.05293
1063.10 0.05291
1063.20 0.05289
1063.30 0.05287
1063.40 0.05285
1063.50 0.05283
1063.60 0.05281
1063.70 0.05279
1063.80 0.05277
1063.90 0.05275
1064.00 0.05273
1064.10 0.05271
1064.20 0.05269
1064.30 0.05268
1064.40 0.05266
1064.50 0.05264
1064.60 0.05262
1064.70 0.0526
1064.80 0.05258
1064.90 0.05256
1065.00 0.05254
1065.10 0.05252
1065.20 0.0525
1065.30 0.05248
1065.40 0.05246
1065.50 0.05244
1065.60 0.05242
1065.70 0.0524
1065.80 0.05238
1065.90 0.05237
1066.00 0.05235
1066.10 0.05233
1066.20 0.05231
1066.30 0.05229
1066.40 0.05227
1066.50 0.05225
1066.60 0.05223
1066.70 0.05221
1066.80 0.05219
1066.90 0.05217
1067.00 0.05215
1067.10 0.05213
1067.20 0.05212
1067.30 0.0521
1067.40 0.05208
1067.50 0.05206
1067.60 0.05204
1067.70 0.05202
1067.80 0.052
1067.90 0.05198
1068.00 0.05196
1068.10 0.05194
1068.20 0.05192
1068.30 0.0519
1068.40 0.05189
1068.50 0.05187
1068.60 0.05185
1068.70 0.05183
1068.80 0.05181
1068.90 0.05179
1069.00 0.05177
1069.10 0.05175
1069.20 0.05173
1069.30 0.05171
1069.40 0.0517
1069.50 0.05168
1069.60 0.05166
1069.70 0.05164
1069.80 0.05162
1069.90 0.0516
1070.00 0.05158
1070.10 0.05156
1070.20 0.05154
1070.30 0.05152
1070.40 0.05151
1070.50 0.05149
1070.60 0.05147
1070.70 0.05145
1070.80 0.05143
1070.90 0.05141
1071.00 0.05139
1071.10 0.05137
1071.20 0.05135
1071.30 0.05134
1071.40 0.05132
1071.50 0.0513
1071.60 0.05128
1071.70 0.05126
1071.80 0.05124
1071.90 0.05122
1072.00 0.0512
1072.10 0.05118
1072.20 0.05117
1072.30 0.05115
1072.40 0.05113
1072.50 0.05111
1072.60 0.05109
1072.70 0.05107
1072.80 0.05105
1072.90 0.05103
1073.00 0.05102
1073.10 0.051
1073.20 0.05098
1073.30 0.05096
1073.40 0.05094
1073.50 0.05092
1073.60 0.0509
1073.70 0.05088
1073.80 0.05087
1073.90 0.05085
1074.00 0.05083
1074.10 0.05081
1074.20 0.05079
1074.30 0.05077
1074.40 0.05075
1074.50 0.05073
1074.60 0.05072
1074.70 0.0507
1074.80 0.05068
1074.90 0.05066
1075.00 0.05064
1075.10 0.05062
1075.20 0.0506
1075.30 0.05058
1075.40 0.05057
1075.50 0.05055
1075.60 0.05053
1075.70 0.05051
1075.80 0.05049
1075.90 0.05047
1076.00 0.05045
1076.10 0.05044
1076.20 0.05042
1076.30 0.0504
1076.40 0.05038
1076.50 0.05036
1076.60 0.05034
1076.70 0.05032
1076.80 0.05031
1076.90 0.05029
1077.00 0.05027
1077.10 0.05025
1077.20 0.05023
1077.30 0.05021
1077.40 0.05019
1077.50 0.05018
1077.60 0.05016
1077.70 0.05014
1077.80 0.05012
1077.90 0.0501
1078.00 0.05008
1078.10 0.05006
1078.20 0.05005
1078.30 0.05003
1078.40 0.05001
1078.50 0.04999
1078.60 0.04997
1078.70 0.04995
1078.80 0.04993
1078.90 0.04992
1079.00 0.0499
1079.10 0.04988
1079.20 0.04986
1079.30 0.04984
1079.40 0.04982
1079.50 0.0498
1079.60 0.04979
1079.70 0.04977
1079.80 0.04975
1079.90 0.04973
1080.00 0.04971
1080.10 0.04969
1080.20 0.04967
1080.30 0.04966
1080.40 0.04964
1080.50 0.04962
1080.60 0.0496
1080.70 0.04958
1080.80 0.04956
1080.90 0.04954
1081.00 0.04953
1081.10 0.04951
1081.20 0.04949
1081.30 0.04947
1081.40 0.04945
1081.50 0.04943
1081.60 0.04941
1081.70 0.0494
1081.80 0.04938
1081.90 0.04936
1082.00 0.04934
1082.10 0.04932
1082.20 0.0493
1082.30 0.04928
1082.40 0.04926
1082.50 0.04925
1082.60 0.04923
1082.70 0.04921
1082.80 0.04919
1082.90 0.04917
1083.00 0.04915
1083.10 0.04913
1083.20 0.04911
1083.30 0.04909
1083.40 0.04908
1083.50 0.04906
1083.60 0.04904
1083.70 0.04902
1083.80 0.049
1083.90 0.04898
1084.00 0.04896
1084.10 0.04894
1084.20 0.04892
1084.30 0.0489
1084.40 0.04888
1084.50 0.04887
1084.60 0.04885
1084.70 0.04883
1084.80 0.04881
1084.90 0.04879
1085.00 0.04877
1085.10 0.04875
1085.20 0.04873
1085.30 0.04871
1085.40 0.04869
1085.50 0.04867
1085.60 0.04865
1085.70 0.04863
1085.80 0.04861
1085.90 0.04859
1086.00 0.04857
1086.10 0.04855
1086.20 0.04853
1086.30 0.04851
1086.40 0.04849
1086.50 0.04847
1086.60 0.04845
1086.70 0.04843
1086.80 0.04841
1086.90 0.04839
1087.00 0.04837
1087.10 0.04835
1087.20 0.04833
1087.30 0.0483
1087.40 0.04828
1087.50 0.04826
1087.60 0.04824
1087.70 0.04822
1087.80 0.0482
1087.90 0.04818
1088.00 0.04816
1088.10 0.04813
1088.20 0.04811
1088.30 0.04809
1088.40 0.04807
1088.50 0.04805
1088.60 0.04802
1088.70 0.048
1088.80 0.04798
1088.90 0.04795
1089.00 0.04793
1089.10 0.04791
1089.20 0.04788
1089.30 0.04786
1089.40 0.04784
1089.50 0.04781
1089.60 0.04779
1089.70 0.04777
1089.80 0.04774
1089.90 0.04772
1090.00 0.0477
1090.10 0.04767
1090.20 0.04765
1090.30 0.04763
1090.40 0.0476
1090.50 0.04758
1090.60 0.04756
1090.70 0.04753
1090.80 0.04751
1090.90 0.04748
1091.00 0.04746
1091.10 0.04743
1091.20 0.04741
1091.30 0.04739
1091.40 0.04736
1091.50 0.04734
1091.60 0.04731
1091.70 0.04729
1091.80 0.04727
1091.90 0.04724
1092.00 0.04722
1092.10 0.0472
1092.20 0.04718
1092.30 0.04716
1092.40 0.04715
1092.50 0.04713
1092.60 0.04711
1092.70 0.04709
1092.80 0.04708
1092.90 0.04707
1093.00 0.04706
1093.10 0.04706
1093.20 0.04705
1093.30 0.04705
1093.40 0.04705
1093.50 0.04705
1093.60 0.04708
1093.70 0.04709
1093.80 0.0471
1093.90 0.04708
1094.00 0.04703
1094.10 0.04698
1094.20 0.04693
1094.30 0.04688
1094.40 0.04686
1094.50 0.04683
1094.60 0.04681
1094.70 0.04678
1094.80 0.04675
1094.90 0.04673
1095.00 0.04671
1095.10 0.04669
1095.20 0.04668
1095.30 0.04667
1095.40 0.04666
1095.50 0.04665
1095.60 0.04663
1095.70 0.04662
1095.80 0.04661
1095.90 0.0466
1096.00 0.04659
1096.10 0.04657
1096.20 0.04656
1096.30 0.04655
1096.40 0.04654
1096.50 0.04653
1096.60 0.04652
1096.70 0.04651
1096.80 0.0465
1096.90 0.04649
1097.00 0.04648
1097.10 0.04647
1097.20 0.04646
1097.30 0.04645
1097.40 0.04644
1097.50 0.04643
1097.60 0.04642
1097.70 0.04641
1097.80 0.0464
1097.90 0.04639
1098.00 0.04638
1098.10 0.04637
1098.20 0.04636
1098.30 0.04635
1098.40 0.04634
1098.50 0.04633
1098.60 0.04632
1098.70 0.04631
1098.80 0.0463
1098.90 0.04628
1099.00 0.04627
1099.10 0.04626
1099.20 0.04625
1099.30 0.04623
1099.40 0.04622
1099.50 0.04621
1099.60 0.0462
1099.70 0.04619
1099.80 0.04617
1099.90 0.04616
1100.00 0.04615
1100.10 0.04614
1100.20 0.04613
1100.30 0.04611
1100.40 0.0461
1100.50 0.04609
1100.60 0.04607
1100.70 0.04606
1100.80 0.04605
1100.90 0.04603
1101.00 0.04602
1101.10 0.04601
1101.20 0.04599
1101.30 0.04598
1101.40 0.04596
1101.50 0.04595
1101.60 0.04594
1101.70 0.04592
1101.80 0.04591
1101.90 0.0459
1102.00 0.04588
1102.10 0.04587
1102.20 0.04585
1102.30 0.04584
1102.40 0.04582
1102.50 0.04581
1102.60 0.0458
1102.70 0.04578
1102.80 0.04577
1102.90 0.04575
1103.00 0.04574
1103.10 0.04572
1103.20 0.04571
1103.30 0.04569
1103.40 0.04568
1103.50 0.04566
1103.60 0.04565
1103.70 0.04563
1103.80 0.04562
1103.90 0.0456
1104.00 0.04559
1104.10 0.04557
1104.20 0.04556
1104.30 0.04554
1104.40 0.04553
1104.50 0.04551
1104.60 0.0455
1104.70 0.04548
1104.80 0.04547
1104.90 0.04545
1105.00 0.04544
1105.10 0.04542
1105.20 0.04541
1105.30 0.04539
1105.40 0.04538
1105.50 0.04536
1105.60 0.04535
1105.70 0.04533
1105.80 0.04531
1105.90 0.0453
1106.00 0.04528
1106.10 0.04527
1106.20 0.04525
1106.30 0.04524
1106.40 0.04522
1106.50 0.04521
1106.60 0.04519
1106.70 0.04518
1106.80 0.04516
1106.90 0.04515
1107.00 0.04513
1107.10 0.04512
1107.20 0.0451
1107.30 0.04508
1107.40 0.04507
1107.50 0.04505
1107.60 0.04504
1107.70 0.04502
1107.80 0.04501
1107.90 0.04499
1108.00 0.04498
1108.10 0.04496
1108.20 0.04495
1108.30 0.04493
1108.40 0.04491
1108.50 0.0449
1108.60 0.04488
1108.70 0.04487
1108.80 0.04485
1108.90 0.04484
1109.00 0.04482
1109.10 0.04481
1109.20 0.04479
1109.30 0.04478
1109.40 0.04476
1109.50 0.04474
1109.60 0.04473
1109.70 0.04471
1109.80 0.0447
1109.90 0.04468
1110.00 0.04467
1110.10 0.04465
1110.20 0.04464
1110.30 0.04462
1110.40 0.0446
1110.50 0.04459
1110.60 0.04457
1110.70 0.04456
1110.80 0.04454
1110.90 0.04453
1111.00 0.04451
1111.10 0.0445
1111.20 0.04448
1111.30 0.04447
1111.40 0.04445
1111.50 0.04443
1111.60 0.04442
1111.70 0.0444
1111.80 0.04439
1111.90 0.04437
1112.00 0.04436
1112.10 0.04434
1112.20 0.04433
1112.30 0.04431
1112.40 0.0443
1112.50 0.04428
1112.60 0.04427
1112.70 0.04425
1112.80 0.04423
1112.90 0.04422
1113.00 0.0442
1113.10 0.04419
1113.20 0.04417
1113.30 0.04416
1113.40 0.04414
1113.50 0.04413
1113.60 0.04411
1113.70 0.0441
1113.80 0.04408
1113.90 0.04407
1114.00 0.04405
1114.10 0.04403
1114.20 0.04402
1114.30 0.044
1114.40 0.04399
1114.50 0.04397
1114.60 0.04396
1114.70 0.04394
1114.80 0.04393
1114.90 0.04391
1115.00 0.0439
1115.10 0.04388
1115.20 0.04387
1115.30 0.04385
1115.40 0.04384
1115.50 0.04382
1115.60 0.0438
1115.70 0.04379
1115.80 0.04377
1115.90 0.04376
1116.00 0.04374
1116.10 0.04373
1116.20 0.04371
1116.30 0.0437
1116.40 0.04368
1116.50 0.04367
1116.60 0.04365
1116.70 0.04364
1116.80 0.04362
1116.90 0.04361
1117.00 0.04359
1117.10 0.04358
1117.20 0.04356
1117.30 0.04355
1117.40 0.04353
1117.50 0.04352
1117.60 0.0435
1117.70 0.04349
1117.80 0.04347
1117.90 0.04345
1118.00 0.04344
1118.10 0.04342
1118.20 0.04341
1118.30 0.04339
1118.40 0.04338
1118.50 0.04336
1118.60 0.04335
1118.70 0.04333
1118.80 0.04332
1118.90 0.0433
1119.00 0.04329
1119.10 0.04327
1119.20 0.04326
1119.30 0.04324
1119.40 0.04323
1119.50 0.04321
1119.60 0.0432
1119.70 0.04318
1119.80 0.04317
1119.90 0.04315
1120.00 0.04314
1120.10 0.04312
1120.20 0.04311
1120.30 0.04309
1120.40 0.04308
1120.50 0.04306
1120.60 0.04305
1120.70 0.04303
1120.80 0.04302
1120.90 0.043
1121.00 0.04299
1121.10 0.04297
1121.20 0.04296
1121.30 0.04294
1121.40 0.04293
1121.50 0.04291
1121.60 0.0429
1121.70 0.04288
1121.80 0.04287
1121.90 0.04285
1122.00 0.04284
1122.10 0.04282
1122.20 0.04281
1122.30 0.04279
1122.40 0.04278
1122.50 0.04276
1122.60 0.04275
1122.70 0.04273
1122.80 0.04272
1122.90 0.0427
1123.00 0.04269
1123.10 0.04267
1123.20 0.04266
1123.30 0.04265
1123.40 0.04263
1123.50 0.04262
1123.60 0.0426
1123.70 0.04259
1123.80 0.04257
1123.90 0.04256
1124.00 0.04254
1124.10 0.04253
1124.20 0.04251
1124.30 0.0425
1124.40 0.04248
1124.50 0.04247
1124.60 0.04245
1124.70 0.04244
1124.80 0.04242
1124.90 0.04241
1125.00 0.04239
1125.10 0.04238
1125.20 0.04236
1125.30 0.04235
1125.40 0.04233
1125.50 0.04232
1125.60 0.04231
1125.70 0.04229
1125.80 0.04228
1125.90 0.04226
1126.00 0.04225
1126.10 0.04223
1126.20 0.04222
1126.30 0.0422
1126.40 0.04219
1126.50 0.04217
1126.60 0.04216
1126.70 0.04214
1126.80 0.04213
1126.90 0.04211
1127.00 0.0421
1127.10 0.04209
1127.20 0.04207
1127.30 0.04206
1127.40 0.04204
1127.50 0.04203
1127.60 0.04201
1127.70 0.042
1127.80 0.04198
1127.90 0.04197
1128.00 0.04195
1128.10 0.04194
1128.20 0.04193
1128.30 0.04191
1128.40 0.0419
1128.50 0.04188
1128.60 0.04187
1128.70 0.04185
1128.80 0.04184
1128.90 0.04182
1129.00 0.04181
1129.10 0.0418
1129.20 0.04178
1129.30 0.04177
1129.40 0.04175
1129.50 0.04174
1129.60 0.04172
1129.70 0.04171
1129.80 0.04169
1129.90 0.04168
1130.00 0.04167
1130.10 0.04165
1130.20 0.04164
1130.30 0.04162
1130.40 0.04161
1130.50 0.04159
1130.60 0.04158
1130.70 0.04156
1130.80 0.04155
1130.90 0.04154
1131.00 0.04152
1131.10 0.04151
1131.20 0.04149
1131.30 0.04148
1131.40 0.04146
1131.50 0.04145
1131.60 0.04143
1131.70 0.04142
1131.80 0.04141
1131.90 0.04139
1132.00 0.04138
1132.10 0.04136
1132.20 0.04135
1132.30 0.04133
1132.40 0.04132
1132.50 0.04131
1132.60 0.04129
1132.70 0.04128
1132.80 0.04126
1132.90 0.04125
1133.00 0.04123
1133.10 0.04122
1133.20 0.04121
1133.30 0.04119
1133.40 0.04118
1133.50 0.04116
1133.60 0.04115
1133.70 0.04114
1133.80 0.04112
1133.90 0.04111
1134.00 0.04109
1134.10 0.04108
1134.20 0.04106
1134.30 0.04105
1134.40 0.04104
1134.50 0.04102
1134.60 0.04101
1134.70 0.04099
1134.80 0.04098
1134.90 0.04097
1135.00 0.04095
1135.10 0.04094
1135.20 0.04092
1135.30 0.04091
1135.40 0.04089
1135.50 0.04088
1135.60 0.04087
1135.70 0.04085
1135.80 0.04084
1135.90 0.04082
1136.00 0.04081
1136.10 0.0408
1136.20 0.04078
1136.30 0.04077
1136.40 0.04075
1136.50 0.04074
1136.60 0.04073
1136.70 0.04071
1136.80 0.0407
1136.90 0.04068
1137.00 0.04067
1137.10 0.04066
1137.20 0.04064
1137.30 0.04063
1137.40 0.04061
1137.50 0.0406
1137.60 0.04059
1137.70 0.04057
1137.80 0.04056
1137.90 0.04054
1138.00 0.04053
1138.10 0.04052
1138.20 0.0405
1138.30 0.04049
1138.40 0.04047
1138.50 0.04046
1138.60 0.04045
1138.70 0.04043
1138.80 0.04042
1138.90 0.04041
1139.00 0.04039
1139.10 0.04038
1139.20 0.04036
1139.30 0.04035
1139.40 0.04034
1139.50 0.04032
1139.60 0.04031
1139.70 0.04029
1139.80 0.04028
1139.90 0.04027
1140.00 0.04025
1140.10 0.04024
1140.20 0.04022
1140.30 0.04021
1140.40 0.0402
1140.50 0.04018
1140.60 0.04017
1140.70 0.04016
1140.80 0.04014
1140.90 0.04013
1141.00 0.04011
1141.10 0.0401
1141.20 0.04009
1141.30 0.04007
1141.40 0.04006
1141.50 0.04005
1141.60 0.04003
1141.70 0.04002
1141.80 0.04
1141.90 0.03999
1142.00 0.03998
1142.10 0.03996
1142.20 0.03995
1142.30 0.03994
1142.40 0.03992
1142.50 0.03991
1142.60 0.03989
1142.70 0.03988
1142.80 0.03987
1142.90 0.03985
1143.00 0.03984
1143.10 0.03983
1143.20 0.03981
1143.30 0.0398
1143.40 0.03979
1143.50 0.03977
1143.60 0.03976
1143.70 0.03975
1143.80 0.03973
1143.90 0.03972
1144.00 0.0397
1144.10 0.03969
1144.20 0.03968
1144.30 0.03966
1144.40 0.03965
1144.50 0.03964
1144.60 0.03962
1144.70 0.03961
1144.80 0.0396
1144.90 0.03958
1145.00 0.03957
1145.10 0.03956
1145.20 0.03954
1145.30 0.03953
1145.40 0.03951
1145.50 0.0395
1145.60 0.03949
1145.70 0.03947
1145.80 0.03946
1145.90 0.03945
1146.00 0.03943
1146.10 0.03942
1146.20 0.03941
1146.30 0.03939
1146.40 0.03938
1146.50 0.03937
1146.60 0.03935
1146.70 0.03934
1146.80 0.03933
1146.90 0.03931
1147.00 0.0393
1147.10 0.03929
1147.20 0.03927
1147.30 0.03926
1147.40 0.03925
1147.50 0.03923
1147.60 0.03922
1147.70 0.03921
1147.80 0.03919
1147.90 0.03918
1148.00 0.03917
1148.10 0.03915
1148.20 0.03914
1148.30 0.03913
1148.40 0.03911
1148.50 0.0391
1148.60 0.03909
1148.70 0.03907
1148.80 0.03906
1148.90 0.03905
1149.00 0.03903
1149.10 0.03902
1149.20 0.03901
1149.30 0.03899
1149.40 0.03898
1149.50 0.03897
1149.60 0.03895
1149.70 0.03894
1149.80 0.03893
1149.90 0.03891
1150.00 0.0389
1150.10 0.03889
1150.20 0.03887
1150.30 0.03886
1150.40 0.03885
1150.50 0.03883
1150.60 0.03882
1150.70 0.03881
1150.80 0.03879
1150.90 0.03878
1151.00 0.03877
1151.10 0.03875
1151.20 0.03874
1151.30 0.03873
1151.40 0.03871
1151.50 0.0387
1151.60 0.03869
1151.70 0.03867
1151.80 0.03866
1151.90 0.03865
1152.00 0.03863
1152.10 0.03862
1152.20 0.03861
1152.30 0.0386
1152.40 0.03858
1152.50 0.03857
1152.60 0.03856
1152.70 0.03854
1152.80 0.03853
1152.90 0.03852
1153.00 0.0385
1153.10 0.03849
1153.20 0.03848
1153.30 0.03846
1153.40 0.03845
1153.50 0.03844
1153.60 0.03843
1153.70 0.03841
1153.80 0.0384
1153.90 0.03839
1154.00 0.03837
1154.10 0.03836
1154.20 0.03835
1154.30 0.03833
1154.40 0.03832
1154.50 0.03831
1154.60 0.0383
1154.70 0.03828
1154.80 0.03827
1154.90 0.03826
1155.00 0.03824
1155.10 0.03823
1155.20 0.03822
1155.30 0.0382
1155.40 0.03819
1155.50 0.03818
1155.60 0.03817
1155.70 0.03815
1155.80 0.03814
1155.90 0.03813
1156.00 0.03811
1156.10 0.0381
1156.20 0.03809
1156.30 0.03808
1156.40 0.03806
1156.50 0.03805
1156.60 0.03804
1156.70 0.03802
1156.80 0.03801
1156.90 0.038
1157.00 0.03798
1157.10 0.03797
1157.20 0.03796
1157.30 0.03795
1157.40 0.03793
1157.50 0.03792
1157.60 0.03791
1157.70 0.0379
1157.80 0.03788
1157.90 0.03787
1158.00 0.03786
1158.10 0.03784
1158.20 0.03783
1158.30 0.03782
1158.40 0.03781
1158.50 0.03779
1158.60 0.03778
1158.70 0.03777
1158.80 0.03775
1158.90 0.03774
1159.00 0.03773
1159.10 0.03772
1159.20 0.0377
1159.30 0.03769
1159.40 0.03768
1159.50 0.03767
1159.60 0.03765
1159.70 0.03764
1159.80 0.03763
1159.90 0.03761
1160.00 0.0376
1160.10 0.03759
1160.20 0.03758
1160.30 0.03756
1160.40 0.03755
1160.50 0.03754
1160.60 0.03753
1160.70 0.03751
1160.80 0.0375
1160.90 0.03749
1161.00 0.03748
1161.10 0.03746
1161.20 0.03745
1161.30 0.03744
1161.40 0.03742
1161.50 0.03741
1161.60 0.0374
1161.70 0.03739
1161.80 0.03737
1161.90 0.03736
1162.00 0.03735
1162.10 0.03734
1162.20 0.03732
1162.30 0.03731
1162.40 0.0373
1162.50 0.03729
1162.60 0.03727
1162.70 0.03726
1162.80 0.03725
1162.90 0.03724
1163.00 0.03722
1163.10 0.03721
1163.20 0.0372
1163.30 0.03719
1163.40 0.03717
1163.50 0.03716
1163.60 0.03715
1163.70 0.03714
1163.80 0.03712
1163.90 0.03711
1164.00 0.0371
1164.10 0.03709
1164.20 0.03707
1164.30 0.03706
1164.40 0.03705
1164.50 0.03704
1164.60 0.03702
1164.70 0.03701
1164.80 0.037
1164.90 0.03699
1165.00 0.03697
1165.10 0.03696
1165.20 0.03695
1165.30 0.03694
1165.40 0.03692
1165.50 0.03691
1165.60 0.0369
1165.70 0.03689
1165.80 0.03687
1165.90 0.03686
1166.00 0.03685
1166.10 0.03684
1166.20 0.03682
1166.30 0.03681
1166.40 0.0368
1166.50 0.03679
1166.60 0.03678
1166.70 0.03676
1166.80 0.03675
1166.90 0.03674
1167.00 0.03673
1167.10 0.03671
1167.20 0.0367
1167.30 0.03669
1167.40 0.03668
1167.50 0.03666
1167.60 0.03665
1167.70 0.03664
1167.80 0.03663
1167.90 0.03662
1168.00 0.0366
1168.10 0.03659
1168.20 0.03658
1168.30 0.03657
1168.40 0.03655
1168.50 0.03654
1168.60 0.03653
1168.70 0.03652
1168.80 0.0365
1168.90 0.03649
1169.00 0.03648
1169.10 0.03647
1169.20 0.03646
1169.30 0.03644
1169.40 0.03643
1169.50 0.03642
1169.60 0.03641
1169.70 0.0364
1169.80 0.03638
1169.90 0.03637
1170.00 0.03636
1170.10 0.03635
1170.20 0.03633
1170.30 0.03632
1170.40 0.03631
1170.50 0.0363
1170.60 0.03629
1170.70 0.03627
1170.80 0.03626
1170.90 0.03625
1171.00 0.03624
1171.10 0.03622
1171.20 0.03621
1171.30 0.0362
1171.40 0.03619
1171.50 0.03618
1171.60 0.03616
1171.70 0.03615
1171.80 0.03614
1171.90 0.03613
1172.00 0.03612
1172.10 0.0361
1172.20 0.03609
1172.30 0.03608
1172.40 0.03607
1172.50 0.03606
1172.60 0.03604
1172.70 0.03603
1172.80 0.03602
1172.90 0.03601
1173.00 0.036
1173.10 0.03598
1173.20 0.03597
1173.30 0.03596
1173.40 0.03595
1173.50 0.03594
1173.60 0.03592
1173.70 0.03591
1173.80 0.0359
1173.90 0.03589
1174.00 0.03588
1174.10 0.03586
1174.20 0.03585
1174.30 0.03584
1174.40 0.03583
1174.50 0.03582
1174.60 0.0358
1174.70 0.03579
1174.80 0.03578
1174.90 0.03577
1175.00 0.03576
1175.10 0.03574
1175.20 0.03573
1175.30 0.03572
1175.40 0.03571
1175.50 0.0357
1175.60 0.03568
1175.70 0.03567
1175.80 0.03566
1175.90 0.03565
1176.00 0.03564
1176.10 0.03562
1176.20 0.03561
1176.30 0.0356
1176.40 0.03559
1176.50 0.03558
1176.60 0.03557
1176.70 0.03555
1176.80 0.03554
1176.90 0.03553
1177.00 0.03552
1177.10 0.03551
1177.20 0.03549
1177.30 0.03548
1177.40 0.03547
1177.50 0.03546
1177.60 0.03545
1177.70 0.03544
1177.80 0.03542
1177.90 0.03541
1178.00 0.0354
1178.10 0.03539
1178.20 0.03538
1178.30 0.03537
1178.40 0.03535
1178.50 0.03534
1178.60 0.03533
1178.70 0.03532
1178.80 0.03531
1178.90 0.03529
1179.00 0.03528
1179.10 0.03527
1179.20 0.03526
1179.30 0.03525
1179.40 0.03524
1179.50 0.03522
1179.60 0.03521
1179.70 0.0352
1179.80 0.03519
1179.90 0.03518
1180.00 0.03517
1180.10 0.03515
1180.20 0.03514
1180.30 0.03513
1180.40 0.03512
1180.50 0.03511
1180.60 0.0351
1180.70 0.03508
1180.80 0.03507
1180.90 0.03506
1181.00 0.03505
1181.10 0.03504
1181.20 0.03503
1181.30 0.03501
1181.40 0.035
1181.50 0.03499
1181.60 0.03498
1181.70 0.03497
1181.80 0.03496
1181.90 0.03494
1182.00 0.03493
1182.10 0.03492
1182.20 0.03491
1182.30 0.0349
1182.40 0.03489
1182.50 0.03488
1182.60 0.03486
1182.70 0.03485
1182.80 0.03484
1182.90 0.03483
1183.00 0.03482
1183.10 0.03481
1183.20 0.03479
1183.30 0.03478
1183.40 0.03477
1183.50 0.03476
1183.60 0.03475
1183.70 0.03474
1183.80 0.03473
1183.90 0.03471
1184.00 0.0347
1184.10 0.03469
1184.20 0.03468
1184.30 0.03467
1184.40 0.03466
1184.50 0.03465
1184.60 0.03463
1184.70 0.03462
1184.80 0.03461
1184.90 0.0346
1185.00 0.03459
1185.10 0.03458
1185.20 0.03457
1185.30 0.03455
1185.40 0.03454
1185.50 0.03453
1185.60 0.03452
1185.70 0.03451
1185.80 0.0345
1185.90 0.03449
1186.00 0.03447
1186.10 0.03446
1186.20 0.03445
1186.30 0.03444
1186.40 0.03443
1186.50 0.03442
1186.60 0.03441
1186.70 0.03439
1186.80 0.03438
1186.90 0.03437
1187.00 0.03436
1187.10 0.03435
1187.20 0.03434
1187.30 0.03433
1187.40 0.03431
1187.50 0.0343
1187.60 0.03429
1187.70 0.03428
1187.80 0.03427
1187.90 0.03426
1188.00 0.03425
1188.10 0.03424
1188.20 0.03422
1188.30 0.03421
1188.40 0.0342
1188.50 0.03419
1188.60 0.03418
1188.70 0.03417
1188.80 0.03416
1188.90 0.03415
1189.00 0.03413
1189.10 0.03412
1189.20 0.03411
1189.30 0.0341
1189.40 0.03409
1189.50 0.03408
1189.60 0.03407
1189.70 0.03406
1189.80 0.03404
1189.90 0.03403
1190.00 0.03402
1190.10 0.03401
1190.20 0.034
1190.30 0.03399
1190.40 0.03398
1190.50 0.03397
1190.60 0.03395
1190.70 0.03394
1190.80 0.03393
1190.90 0.03392
1191.00 0.03391
1191.10 0.0339
1191.20 0.03389
1191.30 0.03388
1191.40 0.03387
1191.50 0.03385
1191.60 0.03384
1191.70 0.03383
1191.80 0.03382
1191.90 0.03381
1192.00 0.0338
1192.10 0.03379
1192.20 0.03378
1192.30 0.03377
1192.40 0.03375
1192.50 0.03374
1192.60 0.03373
1192.70 0.03372
1192.80 0.03371
1192.90 0.0337
1193.00 0.03369
1193.10 0.03368
1193.20 0.03367
1193.30 0.03365
1193.40 0.03364
1193.50 0.03363
1193.60 0.03362
1193.70 0.03361
1193.80 0.0336
1193.90 0.03359
1194.00 0.03358
1194.10 0.03357
1194.20 0.03356
1194.30 0.03354
1194.40 0.03353
1194.50 0.03352
1194.60 0.03351
1194.70 0.0335
1194.80 0.03349
1194.90 0.03348
1195.00 0.03347
1195.10 0.03346
1195.20 0.03345
1195.30 0.03343
1195.40 0.03342
1195.50 0.03341
1195.60 0.0334
1195.70 0.03339
1195.80 0.03338
1195.90 0.03337
1196.00 0.03336
1196.10 0.03335
1196.20 0.03334
1196.30 0.03333
1196.40 0.03331
1196.50 0.0333
1196.60 0.03329
1196.70 0.03328
1196.80 0.03327
1196.90 0.03326
1197.00 0.03325
1197.10 0.03324
1197.20 0.03323
1197.30 0.03322
1197.40 0.03321
1197.50 0.03319
1197.60 0.03318
1197.70 0.03317
1197.80 0.03316
1197.90 0.03315
1198.00 0.03314
1198.10 0.03313
1198.20 0.03312
1198.30 0.03311
1198.40 0.0331
1198.50 0.03309
1198.60 0.03308
1198.70 0.03306
1198.80 0.03305
1198.90 0.03304
1199.00 0.03303
1199.10 0.03302
1199.20 0.03301
1199.30 0.033
1199.40 0.03299
1199.50 0.03298
1199.60 0.03297
1199.70 0.03296
1199.80 0.03295
1199.90 0.03294
1200.00 0
