# Version 2.1 - nm, norm@500 to 1, cut digits, bergeron_100000_70.dat_100000
# Wavelength(nm)  Flambda(ergs/cm^s/s/nm)
300.00 6.827
300.10 6.819
300.20 6.81
300.30 6.802
300.40 6.793
300.50 6.785
300.60 6.776
300.70 6.768
300.80 6.759
300.90 6.751
301.00 6.742
301.10 6.734
301.20 6.725
301.30 6.717
301.40 6.709
301.50 6.7
301.60 6.692
301.70 6.684
301.80 6.675
301.90 6.667
302.00 6.659
302.10 6.65
302.20 6.642
302.30 6.634
302.40 6.625
302.50 6.617
302.60 6.609
302.70 6.601
302.80 6.593
302.90 6.584
303.00 6.576
303.10 6.568
303.20 6.56
303.30 6.552
303.40 6.544
303.50 6.535
303.60 6.527
303.70 6.519
303.80 6.511
303.90 6.503
304.00 6.495
304.10 6.487
304.20 6.479
304.30 6.471
304.40 6.463
304.50 6.455
304.60 6.447
304.70 6.439
304.80 6.431
304.90 6.423
305.00 6.415
305.10 6.407
305.20 6.399
305.30 6.391
305.40 6.384
305.50 6.376
305.60 6.368
305.70 6.36
305.80 6.352
305.90 6.344
306.00 6.337
306.10 6.329
306.20 6.321
306.30 6.313
306.40 6.305
306.50 6.298
306.60 6.29
306.70 6.282
306.80 6.275
306.90 6.267
307.00 6.259
307.10 6.251
307.20 6.244
307.30 6.236
307.40 6.228
307.50 6.221
307.60 6.213
307.70 6.206
307.80 6.198
307.90 6.19
308.00 6.183
308.10 6.175
308.20 6.168
308.30 6.16
308.40 6.153
308.50 6.145
308.60 6.138
308.70 6.13
308.80 6.123
308.90 6.115
309.00 6.108
309.10 6.1
309.20 6.093
309.30 6.086
309.40 6.078
309.50 6.071
309.60 6.063
309.70 6.056
309.80 6.049
309.90 6.041
310.00 6.034
310.10 6.027
310.20 6.019
310.30 6.012
310.40 6.005
310.50 5.997
310.60 5.99
310.70 5.983
310.80 5.975
310.90 5.968
311.00 5.961
311.10 5.954
311.20 5.947
311.30 5.939
311.40 5.932
311.50 5.925
311.60 5.918
311.70 5.911
311.80 5.904
311.90 5.896
312.00 5.889
312.10 5.882
312.20 5.875
312.30 5.868
312.40 5.861
312.50 5.854
312.60 5.847
312.70 5.84
312.80 5.833
312.90 5.826
313.00 5.819
313.10 5.812
313.20 5.805
313.30 5.798
313.40 5.791
313.50 5.784
313.60 5.777
313.70 5.77
313.80 5.763
313.90 5.756
314.00 5.749
314.10 5.742
314.20 5.735
314.30 5.728
314.40 5.722
314.50 5.715
314.60 5.708
314.70 5.701
314.80 5.694
314.90 5.687
315.00 5.68
315.10 5.674
315.20 5.667
315.30 5.66
315.40 5.653
315.50 5.647
315.60 5.64
315.70 5.633
315.80 5.626
315.90 5.62
316.00 5.613
316.10 5.606
316.20 5.6
316.30 5.593
316.40 5.586
316.50 5.58
316.60 5.573
316.70 5.566
316.80 5.56
316.90 5.553
317.00 5.546
317.10 5.54
317.20 5.533
317.30 5.527
317.40 5.52
317.50 5.514
317.60 5.507
317.70 5.5
317.80 5.494
317.90 5.487
318.00 5.481
318.10 5.474
318.20 5.468
318.30 5.461
318.40 5.455
318.50 5.449
318.60 5.442
318.70 5.436
318.80 5.429
318.90 5.423
319.00 5.416
319.10 5.41
319.20 5.404
319.30 5.397
319.40 5.391
319.50 5.384
319.60 5.378
319.70 5.372
319.80 5.365
319.90 5.359
320.00 5.353
320.10 5.346
320.20 5.34
320.30 5.334
320.40 5.328
320.50 5.321
320.60 5.315
320.70 5.309
320.80 5.302
320.90 5.296
321.00 5.29
321.10 5.284
321.20 5.278
321.30 5.271
321.40 5.265
321.50 5.259
321.60 5.253
321.70 5.247
321.80 5.241
321.90 5.234
322.00 5.228
322.10 5.222
322.20 5.216
322.30 5.21
322.40 5.204
322.50 5.198
322.60 5.192
322.70 5.186
322.80 5.179
322.90 5.173
323.00 5.167
323.10 5.161
323.20 5.155
323.30 5.149
323.40 5.143
323.50 5.137
323.60 5.131
323.70 5.125
323.80 5.119
323.90 5.113
324.00 5.107
324.10 5.101
324.20 5.095
324.30 5.09
324.40 5.084
324.50 5.078
324.60 5.072
324.70 5.066
324.80 5.06
324.90 5.054
325.00 5.048
325.10 5.042
325.20 5.037
325.30 5.031
325.40 5.025
325.50 5.019
325.60 5.013
325.70 5.007
325.80 5.002
325.90 4.996
326.00 4.99
326.10 4.984
326.20 4.978
326.30 4.973
326.40 4.967
326.50 4.961
326.60 4.955
326.70 4.95
326.80 4.944
326.90 4.938
327.00 4.933
327.10 4.927
327.20 4.921
327.30 4.916
327.40 4.91
327.50 4.904
327.60 4.899
327.70 4.893
327.80 4.887
327.90 4.882
328.00 4.876
328.10 4.87
328.20 4.865
328.30 4.859
328.40 4.854
328.50 4.848
328.60 4.842
328.70 4.837
328.80 4.831
328.90 4.826
329.00 4.82
329.10 4.815
329.20 4.809
329.30 4.804
329.40 4.798
329.50 4.793
329.60 4.787
329.70 4.782
329.80 4.776
329.90 4.771
330.00 4.765
330.10 4.76
330.20 4.754
330.30 4.749
330.40 4.744
330.50 4.738
330.60 4.733
330.70 4.727
330.80 4.722
330.90 4.717
331.00 4.711
331.10 4.706
331.20 4.7
331.30 4.695
331.40 4.69
331.50 4.684
331.60 4.679
331.70 4.674
331.80 4.668
331.90 4.663
332.00 4.658
332.10 4.652
332.20 4.647
332.30 4.642
332.40 4.637
332.50 4.631
332.60 4.626
332.70 4.621
332.80 4.615
332.90 4.61
333.00 4.605
333.10 4.6
333.20 4.595
333.30 4.589
333.40 4.584
333.50 4.579
333.60 4.574
333.70 4.569
333.80 4.563
333.90 4.558
334.00 4.553
334.10 4.548
334.20 4.543
334.30 4.538
334.40 4.532
334.50 4.527
334.60 4.522
334.70 4.517
334.80 4.512
334.90 4.507
335.00 4.502
335.10 4.497
335.20 4.492
335.30 4.487
335.40 4.482
335.50 4.477
335.60 4.471
335.70 4.466
335.80 4.461
335.90 4.456
336.00 4.451
336.10 4.446
336.20 4.441
336.30 4.436
336.40 4.431
336.50 4.426
336.60 4.421
336.70 4.416
336.80 4.412
336.90 4.407
337.00 4.402
337.10 4.397
337.20 4.392
337.30 4.387
337.40 4.382
337.50 4.377
337.60 4.372
337.70 4.367
337.80 4.362
337.90 4.357
338.00 4.352
338.10 4.348
338.20 4.343
338.30 4.338
338.40 4.333
338.50 4.328
338.60 4.323
338.70 4.319
338.80 4.314
338.90 4.309
339.00 4.304
339.10 4.299
339.20 4.295
339.30 4.29
339.40 4.285
339.50 4.28
339.60 4.275
339.70 4.271
339.80 4.266
339.90 4.261
340.00 4.256
340.10 4.252
340.20 4.247
340.30 4.242
340.40 4.238
340.50 4.233
340.60 4.228
340.70 4.223
340.80 4.219
340.90 4.214
341.00 4.209
341.10 4.205
341.20 4.2
341.30 4.195
341.40 4.191
341.50 4.186
341.60 4.181
341.70 4.177
341.80 4.172
341.90 4.168
342.00 4.163
342.10 4.158
342.20 4.154
342.30 4.149
342.40 4.145
342.50 4.14
342.60 4.135
342.70 4.131
342.80 4.126
342.90 4.122
343.00 4.117
343.10 4.113
343.20 4.108
343.30 4.104
343.40 4.099
343.50 4.095
343.60 4.09
343.70 4.086
343.80 4.081
343.90 4.076
344.00 4.072
344.10 4.068
344.20 4.063
344.30 4.059
344.40 4.054
344.50 4.05
344.60 4.045
344.70 4.041
344.80 4.036
344.90 4.032
345.00 4.028
345.10 4.023
345.20 4.019
345.30 4.014
345.40 4.01
345.50 4.006
345.60 4.001
345.70 3.997
345.80 3.992
345.90 3.988
346.00 3.984
346.10 3.979
346.20 3.975
346.30 3.971
346.40 3.966
346.50 3.962
346.60 3.958
346.70 3.953
346.80 3.949
346.90 3.945
347.00 3.94
347.10 3.936
347.20 3.932
347.30 3.927
347.40 3.923
347.50 3.919
347.60 3.915
347.70 3.91
347.80 3.906
347.90 3.902
348.00 3.898
348.10 3.893
348.20 3.889
348.30 3.885
348.40 3.881
348.50 3.876
348.60 3.872
348.70 3.868
348.80 3.864
348.90 3.86
349.00 3.855
349.10 3.851
349.20 3.847
349.30 3.843
349.40 3.839
349.50 3.835
349.60 3.83
349.70 3.826
349.80 3.822
349.90 3.818
350.00 3.814
350.10 3.81
350.20 3.806
350.30 3.801
350.40 3.797
350.50 3.793
350.60 3.789
350.70 3.785
350.80 3.781
350.90 3.777
351.00 3.773
351.10 3.769
351.20 3.765
351.30 3.761
351.40 3.757
351.50 3.753
351.60 3.748
351.70 3.744
351.80 3.74
351.90 3.736
352.00 3.732
352.10 3.728
352.20 3.724
352.30 3.72
352.40 3.716
352.50 3.712
352.60 3.708
352.70 3.704
352.80 3.7
352.90 3.696
353.00 3.692
353.10 3.688
353.20 3.685
353.30 3.681
353.40 3.677
353.50 3.673
353.60 3.669
353.70 3.665
353.80 3.661
353.90 3.657
354.00 3.653
354.10 3.649
354.20 3.645
354.30 3.641
354.40 3.637
354.50 3.634
354.60 3.63
354.70 3.626
354.80 3.622
354.90 3.618
355.00 3.614
355.10 3.61
355.20 3.606
355.30 3.603
355.40 3.599
355.50 3.595
355.60 3.591
355.70 3.587
355.80 3.583
355.90 3.58
356.00 3.576
356.10 3.572
356.20 3.568
356.30 3.564
356.40 3.561
356.50 3.557
356.60 3.553
356.70 3.549
356.80 3.546
356.90 3.542
357.00 3.538
357.10 3.534
357.20 3.53
357.30 3.527
357.40 3.523
357.50 3.519
357.60 3.516
357.70 3.512
357.80 3.508
357.90 3.504
358.00 3.501
358.10 3.497
358.20 3.493
358.30 3.49
358.40 3.486
358.50 3.482
358.60 3.478
358.70 3.475
358.80 3.471
358.90 3.467
359.00 3.464
359.10 3.46
359.20 3.457
359.30 3.453
359.40 3.449
359.50 3.446
359.60 3.442
359.70 3.438
359.80 3.435
359.90 3.431
360.00 3.427
360.10 3.424
360.20 3.42
360.30 3.417
360.40 3.413
360.50 3.409
360.60 3.406
360.70 3.402
360.80 3.399
360.90 3.395
361.00 3.392
361.10 3.388
361.20 3.384
361.30 3.381
361.40 3.377
361.50 3.374
361.60 3.37
361.70 3.367
361.80 3.363
361.90 3.36
362.00 3.356
362.10 3.353
362.20 3.349
362.30 3.346
362.40 3.342
362.50 3.339
362.60 3.335
362.70 3.332
362.80 3.328
362.90 3.325
363.00 3.321
363.10 3.318
363.20 3.314
363.30 3.311
363.40 3.307
363.50 3.304
363.60 3.3
363.70 3.297
363.80 3.294
363.90 3.29
364.00 3.287
364.10 3.283
364.20 3.28
364.30 3.276
364.40 3.273
364.50 3.27
364.60 3.266
364.70 3.263
364.80 3.259
364.90 3.256
365.00 3.253
365.10 3.249
365.20 3.246
365.30 3.242
365.40 3.239
365.50 3.236
365.60 3.232
365.70 3.229
365.80 3.226
365.90 3.222
366.00 3.219
366.10 3.216
366.20 3.212
366.30 3.209
366.40 3.205
366.50 3.202
366.60 3.199
366.70 3.195
366.80 3.192
366.90 3.189
367.00 3.185
367.10 3.182
367.20 3.179
367.30 3.175
367.40 3.172
367.50 3.169
367.60 3.165
367.70 3.162
367.80 3.159
367.90 3.155
368.00 3.152
368.10 3.149
368.20 3.145
368.30 3.142
368.40 3.139
368.50 3.136
368.60 3.132
368.70 3.129
368.80 3.126
368.90 3.122
369.00 3.119
369.10 3.116
369.20 3.113
369.30 3.109
369.40 3.106
369.50 3.103
369.60 3.1
369.70 3.096
369.80 3.093
369.90 3.09
370.00 3.087
370.10 3.084
370.20 3.08
370.30 3.077
370.40 3.074
370.50 3.071
370.60 3.068
370.70 3.064
370.80 3.061
370.90 3.058
371.00 3.055
371.10 3.052
371.20 3.048
371.30 3.045
371.40 3.042
371.50 3.039
371.60 3.036
371.70 3.033
371.80 3.029
371.90 3.026
372.00 3.023
372.10 3.02
372.20 3.017
372.30 3.014
372.40 3.011
372.50 3.008
372.60 3.005
372.70 3.002
372.80 2.999
372.90 2.995
373.00 2.992
373.10 2.989
373.20 2.986
373.30 2.983
373.40 2.98
373.50 2.977
373.60 2.974
373.70 2.971
373.80 2.968
373.90 2.965
374.00 2.962
374.10 2.959
374.20 2.956
374.30 2.953
374.40 2.95
374.50 2.947
374.60 2.944
374.70 2.941
374.80 2.938
374.90 2.935
375.00 2.932
375.10 2.929
375.20 2.926
375.30 2.923
375.40 2.921
375.50 2.918
375.60 2.915
375.70 2.912
375.80 2.909
375.90 2.906
376.00 2.903
376.10 2.9
376.20 2.897
376.30 2.894
376.40 2.891
376.50 2.888
376.60 2.885
376.70 2.883
376.80 2.88
376.90 2.877
377.00 2.874
377.10 2.871
377.20 2.868
377.30 2.866
377.40 2.863
377.50 2.86
377.60 2.858
377.70 2.855
377.80 2.852
377.90 2.85
378.00 2.847
378.10 2.844
378.20 2.841
378.30 2.838
378.40 2.835
378.50 2.833
378.60 2.83
378.70 2.827
378.80 2.824
378.90 2.821
379.00 2.818
379.10 2.816
379.20 2.813
379.30 2.81
379.40 2.807
379.50 2.804
379.60 2.801
379.70 2.799
379.80 2.796
379.90 2.793
380.00 2.79
380.10 2.788
380.20 2.785
380.30 2.783
380.40 2.781
380.50 2.779
380.60 2.776
380.70 2.774
380.80 2.772
380.90 2.769
381.00 2.767
381.10 2.764
381.20 2.762
381.30 2.759
381.40 2.757
381.50 2.754
381.60 2.751
381.70 2.748
381.80 2.745
381.90 2.742
382.00 2.739
382.10 2.736
382.20 2.733
382.30 2.73
382.40 2.726
382.50 2.723
382.60 2.719
382.70 2.716
382.80 2.712
382.90 2.709
383.00 2.705
383.10 2.702
383.20 2.698
383.30 2.695
383.40 2.691
383.50 2.688
383.60 2.686
383.70 2.684
383.80 2.683
383.90 2.682
384.00 2.68
384.10 2.679
384.20 2.678
384.30 2.677
384.40 2.675
384.50 2.674
384.60 2.673
384.70 2.671
384.80 2.669
384.90 2.668
385.00 2.666
385.10 2.664
385.20 2.662
385.30 2.66
385.40 2.658
385.50 2.656
385.60 2.654
385.70 2.651
385.80 2.649
385.90 2.646
386.00 2.643
386.10 2.641
386.20 2.638
386.30 2.635
386.40 2.632
386.50 2.629
386.60 2.625
386.70 2.622
386.80 2.619
386.90 2.615
387.00 2.611
387.10 2.608
387.20 2.604
387.30 2.599
387.40 2.595
387.50 2.591
387.60 2.587
387.70 2.582
387.80 2.577
387.90 2.572
388.00 2.567
388.10 2.562
388.20 2.557
388.30 2.552
388.40 2.547
388.50 2.542
388.60 2.536
388.70 2.532
388.80 2.528
388.90 2.526
389.00 2.524
389.10 2.523
389.20 2.522
389.30 2.523
389.40 2.524
389.50 2.524
389.60 2.525
389.70 2.526
389.80 2.526
389.90 2.527
390.00 2.527
390.10 2.527
390.20 2.527
390.30 2.527
390.40 2.527
390.50 2.526
390.60 2.526
390.70 2.526
390.80 2.525
390.90 2.524
391.00 2.523
391.10 2.522
391.20 2.521
391.30 2.52
391.40 2.519
391.50 2.517
391.60 2.516
391.70 2.514
391.80 2.513
391.90 2.511
392.00 2.509
392.10 2.507
392.20 2.506
392.30 2.503
392.40 2.501
392.50 2.499
392.60 2.497
392.70 2.495
392.80 2.492
392.90 2.49
393.00 2.487
393.10 2.485
393.20 2.482
393.30 2.479
393.40 2.476
393.50 2.473
393.60 2.47
393.70 2.467
393.80 2.464
393.90 2.46
394.00 2.457
394.10 2.453
394.20 2.45
394.30 2.446
394.40 2.442
394.50 2.438
394.60 2.434
394.70 2.429
394.80 2.425
394.90 2.42
395.00 2.415
395.10 2.41
395.20 2.405
395.30 2.4
395.40 2.394
395.50 2.388
395.60 2.382
395.70 2.376
395.80 2.369
395.90 2.362
396.00 2.355
396.10 2.348
396.20 2.34
396.30 2.333
396.40 2.325
396.50 2.316
396.60 2.308
396.70 2.299
396.80 2.291
396.90 2.282
397.00 2.274
397.10 2.277
397.20 2.281
397.30 2.286
397.40 2.29
397.50 2.294
397.60 2.298
397.70 2.302
397.80 2.306
397.90 2.309
398.00 2.312
398.10 2.314
398.20 2.317
398.30 2.319
398.40 2.321
398.50 2.323
398.60 2.324
398.70 2.325
398.80 2.327
398.90 2.327
399.00 2.328
399.10 2.329
399.20 2.329
399.30 2.329
399.40 2.329
399.50 2.329
399.60 2.329
399.70 2.328
399.80 2.328
399.90 2.327
400.00 2.327
400.10 2.326
400.20 2.325
400.30 2.324
400.40 2.323
400.50 2.322
400.60 2.32
400.70 2.319
400.80 2.318
400.90 2.316
401.00 2.315
401.10 2.314
401.20 2.312
401.30 2.31
401.40 2.309
401.50 2.307
401.60 2.305
401.70 2.304
401.80 2.302
401.90 2.3
402.00 2.298
402.10 2.297
402.20 2.295
402.30 2.293
402.40 2.291
402.50 2.289
402.60 2.287
402.70 2.285
402.80 2.283
402.90 2.281
403.00 2.279
403.10 2.277
403.20 2.275
403.30 2.273
403.40 2.271
403.50 2.268
403.60 2.266
403.70 2.264
403.80 2.262
403.90 2.26
404.00 2.258
404.10 2.255
404.20 2.253
404.30 2.251
404.40 2.248
404.50 2.246
404.60 2.244
404.70 2.241
404.80 2.239
404.90 2.237
405.00 2.234
405.10 2.232
405.20 2.229
405.30 2.227
405.40 2.224
405.50 2.222
405.60 2.219
405.70 2.216
405.80 2.214
405.90 2.211
406.00 2.208
406.10 2.205
406.20 2.202
406.30 2.199
406.40 2.196
406.50 2.193
406.60 2.19
406.70 2.187
406.80 2.184
406.90 2.18
407.00 2.177
407.10 2.173
407.20 2.169
407.30 2.165
407.40 2.161
407.50 2.157
407.60 2.153
407.70 2.148
407.80 2.144
407.90 2.139
408.00 2.134
408.10 2.128
408.20 2.123
408.30 2.117
408.40 2.111
408.50 2.104
408.60 2.098
408.70 2.091
408.80 2.083
408.90 2.076
409.00 2.067
409.10 2.059
409.20 2.05
409.30 2.041
409.40 2.03
409.50 2.02
409.60 2.009
409.70 1.997
409.80 1.985
409.90 1.972
410.00 1.961
410.10 1.956
410.20 1.956
410.30 1.955
410.40 1.959
410.50 1.968
410.60 1.976
410.70 1.985
410.80 1.992
410.90 1.999
411.00 2.006
411.10 2.012
411.20 2.017
411.30 2.022
411.40 2.027
411.50 2.03
411.60 2.034
411.70 2.037
411.80 2.04
411.90 2.043
412.00 2.045
412.10 2.047
412.20 2.049
412.30 2.05
412.40 2.051
412.50 2.052
412.60 2.053
412.70 2.054
412.80 2.054
412.90 2.054
413.00 2.055
413.10 2.054
413.20 2.054
413.30 2.054
413.40 2.054
413.50 2.053
413.60 2.052
413.70 2.052
413.80 2.051
413.90 2.05
414.00 2.049
414.10 2.048
414.20 2.047
414.30 2.046
414.40 2.045
414.50 2.044
414.60 2.042
414.70 2.041
414.80 2.04
414.90 2.038
415.00 2.037
415.10 2.036
415.20 2.034
415.30 2.033
415.40 2.031
415.50 2.03
415.60 2.028
415.70 2.027
415.80 2.025
415.90 2.024
416.00 2.022
416.10 2.02
416.20 2.019
416.30 2.017
416.40 2.015
416.50 2.014
416.60 2.012
416.70 2.011
416.80 2.009
416.90 2.007
417.00 2.005
417.10 2.004
417.20 2.002
417.30 2
417.40 1.999
417.50 1.997
417.60 1.995
417.70 1.994
417.80 1.992
417.90 1.99
418.00 1.988
418.10 1.987
418.20 1.985
418.30 1.983
418.40 1.981
418.50 1.98
418.60 1.978
418.70 1.976
418.80 1.974
418.90 1.973
419.00 1.971
419.10 1.969
419.20 1.967
419.30 1.966
419.40 1.964
419.50 1.962
419.60 1.96
419.70 1.959
419.80 1.957
419.90 1.955
420.00 1.953
420.10 1.952
420.20 1.95
420.30 1.948
420.40 1.946
420.50 1.945
420.60 1.943
420.70 1.941
420.80 1.939
420.90 1.938
421.00 1.936
421.10 1.934
421.20 1.932
421.30 1.931
421.40 1.929
421.50 1.927
421.60 1.925
421.70 1.924
421.80 1.922
421.90 1.92
422.00 1.918
422.10 1.917
422.20 1.915
422.30 1.913
422.40 1.912
422.50 1.91
422.60 1.908
422.70 1.906
422.80 1.905
422.90 1.903
423.00 1.901
423.10 1.899
423.20 1.898
423.30 1.896
423.40 1.894
423.50 1.892
423.60 1.891
423.70 1.889
423.80 1.887
423.90 1.885
424.00 1.884
424.10 1.882
424.20 1.88
424.30 1.879
424.40 1.877
424.50 1.875
424.60 1.873
424.70 1.872
424.80 1.87
424.90 1.868
425.00 1.866
425.10 1.865
425.20 1.863
425.30 1.861
425.40 1.859
425.50 1.858
425.60 1.856
425.70 1.854
425.80 1.853
425.90 1.851
426.00 1.849
426.10 1.847
426.20 1.846
426.30 1.844
426.40 1.842
426.50 1.84
426.60 1.839
426.70 1.837
426.80 1.835
426.90 1.833
427.00 1.831
427.10 1.83
427.20 1.828
427.30 1.826
427.40 1.824
427.50 1.823
427.60 1.821
427.70 1.819
427.80 1.817
427.90 1.815
428.00 1.813
428.10 1.812
428.20 1.81
428.30 1.808
428.40 1.806
428.50 1.804
428.60 1.802
428.70 1.8
428.80 1.798
428.90 1.796
429.00 1.795
429.10 1.793
429.20 1.791
429.30 1.788
429.40 1.786
429.50 1.784
429.60 1.782
429.70 1.78
429.80 1.778
429.90 1.776
430.00 1.773
430.10 1.771
430.20 1.769
430.30 1.766
430.40 1.764
430.50 1.761
430.60 1.759
430.70 1.756
430.80 1.753
430.90 1.75
431.00 1.747
431.10 1.744
431.20 1.741
431.30 1.738
431.40 1.734
431.50 1.731
431.60 1.727
431.70 1.723
431.80 1.719
431.90 1.714
432.00 1.71
432.10 1.705
432.20 1.699
432.30 1.694
432.40 1.688
432.50 1.682
432.60 1.675
432.70 1.668
432.80 1.661
432.90 1.653
433.00 1.645
433.10 1.636
433.20 1.627
433.30 1.617
433.40 1.606
433.50 1.594
433.60 1.582
433.70 1.569
433.80 1.554
433.90 1.537
434.00 1.523
434.10 1.522
434.20 1.535
434.30 1.548
434.40 1.56
434.50 1.571
434.60 1.58
434.70 1.589
434.80 1.597
434.90 1.604
435.00 1.61
435.10 1.616
435.20 1.621
435.30 1.626
435.40 1.631
435.50 1.635
435.60 1.638
435.70 1.641
435.80 1.644
435.90 1.646
436.00 1.649
436.10 1.65
436.20 1.652
436.30 1.653
436.40 1.654
436.50 1.655
436.60 1.656
436.70 1.656
436.80 1.657
436.90 1.657
437.00 1.657
437.10 1.657
437.20 1.657
437.30 1.657
437.40 1.656
437.50 1.656
437.60 1.655
437.70 1.655
437.80 1.654
437.90 1.654
438.00 1.653
438.10 1.652
438.20 1.651
438.30 1.65
438.40 1.649
438.50 1.648
438.60 1.647
438.70 1.646
438.80 1.645
438.90 1.644
439.00 1.643
439.10 1.642
439.20 1.641
439.30 1.64
439.40 1.639
439.50 1.638
439.60 1.636
439.70 1.635
439.80 1.634
439.90 1.633
440.00 1.632
440.10 1.63
440.20 1.629
440.30 1.628
440.40 1.627
440.50 1.625
440.60 1.624
440.70 1.623
440.80 1.621
440.90 1.62
441.00 1.619
441.10 1.618
441.20 1.616
441.30 1.615
441.40 1.614
441.50 1.612
441.60 1.611
441.70 1.61
441.80 1.608
441.90 1.607
442.00 1.606
442.10 1.604
442.20 1.603
442.30 1.602
442.40 1.6
442.50 1.599
442.60 1.598
442.70 1.596
442.80 1.595
442.90 1.594
443.00 1.592
443.10 1.591
443.20 1.59
443.30 1.588
443.40 1.587
443.50 1.586
443.60 1.584
443.70 1.583
443.80 1.582
443.90 1.58
444.00 1.579
444.10 1.578
444.20 1.576
444.30 1.575
444.40 1.574
444.50 1.572
444.60 1.571
444.70 1.57
444.80 1.568
444.90 1.567
445.00 1.566
445.10 1.564
445.20 1.563
445.30 1.562
445.40 1.56
445.50 1.559
445.60 1.558
445.70 1.556
445.80 1.555
445.90 1.554
446.00 1.553
446.10 1.551
446.20 1.55
446.30 1.549
446.40 1.547
446.50 1.546
446.60 1.545
446.70 1.543
446.80 1.542
446.90 1.541
447.00 1.539
447.10 1.538
447.20 1.537
447.30 1.535
447.40 1.534
447.50 1.533
447.60 1.531
447.70 1.53
447.80 1.529
447.90 1.528
448.00 1.526
448.10 1.525
448.20 1.524
448.30 1.522
448.40 1.521
448.50 1.52
448.60 1.519
448.70 1.517
448.80 1.516
448.90 1.515
449.00 1.513
449.10 1.512
449.20 1.511
449.30 1.509
449.40 1.508
449.50 1.507
449.60 1.506
449.70 1.504
449.80 1.503
449.90 1.502
450.00 1.501
450.10 1.499
450.20 1.498
450.30 1.497
450.40 1.495
450.50 1.494
450.60 1.493
450.70 1.492
450.80 1.49
450.90 1.489
451.00 1.488
451.10 1.487
451.20 1.485
451.30 1.484
451.40 1.483
451.50 1.481
451.60 1.48
451.70 1.479
451.80 1.478
451.90 1.476
452.00 1.475
452.10 1.474
452.20 1.473
452.30 1.471
452.40 1.47
452.50 1.469
452.60 1.468
452.70 1.466
452.80 1.465
452.90 1.464
453.00 1.463
453.10 1.462
453.20 1.46
453.30 1.459
453.40 1.458
453.50 1.457
453.60 1.455
453.70 1.454
453.80 1.453
453.90 1.452
454.00 1.45
454.10 1.449
454.20 1.448
454.30 1.447
454.40 1.446
454.50 1.444
454.60 1.443
454.70 1.442
454.80 1.441
454.90 1.439
455.00 1.438
455.10 1.437
455.20 1.436
455.30 1.435
455.40 1.433
455.50 1.432
455.60 1.431
455.70 1.43
455.80 1.429
455.90 1.427
456.00 1.426
456.10 1.425
456.20 1.424
456.30 1.423
456.40 1.421
456.50 1.42
456.60 1.419
456.70 1.418
456.80 1.417
456.90 1.415
457.00 1.414
457.10 1.413
457.20 1.412
457.30 1.411
457.40 1.409
457.50 1.408
457.60 1.407
457.70 1.406
457.80 1.405
457.90 1.404
458.00 1.402
458.10 1.401
458.20 1.4
458.30 1.399
458.40 1.398
458.50 1.396
458.60 1.395
458.70 1.394
458.80 1.393
458.90 1.392
459.00 1.391
459.10 1.389
459.20 1.388
459.30 1.387
459.40 1.386
459.50 1.385
459.60 1.384
459.70 1.382
459.80 1.381
459.90 1.38
460.00 1.379
460.10 1.378
460.20 1.377
460.30 1.376
460.40 1.374
460.50 1.373
460.60 1.372
460.70 1.371
460.80 1.37
460.90 1.369
461.00 1.368
461.10 1.366
461.20 1.365
461.30 1.364
461.40 1.363
461.50 1.362
461.60 1.361
461.70 1.36
461.80 1.358
461.90 1.357
462.00 1.356
462.10 1.355
462.20 1.354
462.30 1.353
462.40 1.352
462.50 1.351
462.60 1.349
462.70 1.348
462.80 1.347
462.90 1.346
463.00 1.345
463.10 1.344
463.20 1.343
463.30 1.342
463.40 1.34
463.50 1.339
463.60 1.338
463.70 1.337
463.80 1.336
463.90 1.335
464.00 1.334
464.10 1.333
464.20 1.332
464.30 1.33
464.40 1.329
464.50 1.328
464.60 1.327
464.70 1.326
464.80 1.325
464.90 1.324
465.00 1.323
465.10 1.322
465.20 1.321
465.30 1.319
465.40 1.318
465.50 1.317
465.60 1.316
465.70 1.315
465.80 1.314
465.90 1.313
466.00 1.312
466.10 1.311
466.20 1.31
466.30 1.309
466.40 1.307
466.50 1.306
466.60 1.305
466.70 1.304
466.80 1.303
466.90 1.302
467.00 1.301
467.10 1.3
467.20 1.299
467.30 1.298
467.40 1.297
467.50 1.296
467.60 1.295
467.70 1.294
467.80 1.292
467.90 1.291
468.00 1.29
468.10 1.289
468.20 1.288
468.30 1.287
468.40 1.286
468.50 1.285
468.60 1.284
468.70 1.283
468.80 1.282
468.90 1.281
469.00 1.28
469.10 1.279
469.20 1.278
469.30 1.277
469.40 1.276
469.50 1.274
469.60 1.273
469.70 1.272
469.80 1.271
469.90 1.27
470.00 1.269
470.10 1.268
470.20 1.267
470.30 1.266
470.40 1.265
470.50 1.264
470.60 1.263
470.70 1.262
470.80 1.261
470.90 1.26
471.00 1.259
471.10 1.258
471.20 1.257
471.30 1.256
471.40 1.255
471.50 1.254
471.60 1.253
471.70 1.252
471.80 1.251
471.90 1.25
472.00 1.248
472.10 1.247
472.20 1.246
472.30 1.245
472.40 1.244
472.50 1.243
472.60 1.242
472.70 1.241
472.80 1.24
472.90 1.239
473.00 1.238
473.10 1.237
473.20 1.236
473.30 1.235
473.40 1.234
473.50 1.233
473.60 1.232
473.70 1.231
473.80 1.23
473.90 1.229
474.00 1.228
474.10 1.227
474.20 1.226
474.30 1.225
474.40 1.224
474.50 1.223
474.60 1.222
474.70 1.221
474.80 1.22
474.90 1.219
475.00 1.218
475.10 1.217
475.20 1.216
475.30 1.215
475.40 1.214
475.50 1.213
475.60 1.212
475.70 1.211
475.80 1.21
475.90 1.209
476.00 1.208
476.10 1.207
476.20 1.206
476.30 1.205
476.40 1.204
476.50 1.203
476.60 1.202
476.70 1.201
476.80 1.2
476.90 1.199
477.00 1.198
477.10 1.197
477.20 1.196
477.30 1.195
477.40 1.194
477.50 1.193
477.60 1.192
477.70 1.191
477.80 1.19
477.90 1.189
478.00 1.188
478.10 1.187
478.20 1.186
478.30 1.185
478.40 1.184
478.50 1.183
478.60 1.182
478.70 1.181
478.80 1.18
478.90 1.179
479.00 1.178
479.10 1.177
479.20 1.176
479.30 1.174
479.40 1.173
479.50 1.172
479.60 1.171
479.70 1.17
479.80 1.169
479.90 1.168
480.00 1.167
480.10 1.166
480.20 1.165
480.30 1.164
480.40 1.163
480.50 1.162
480.60 1.161
480.70 1.159
480.80 1.158
480.90 1.157
481.00 1.156
481.10 1.155
481.20 1.154
481.30 1.152
481.40 1.151
481.50 1.15
481.60 1.149
481.70 1.147
481.80 1.146
481.90 1.145
482.00 1.144
482.10 1.142
482.20 1.141
482.30 1.139
482.40 1.138
482.50 1.136
482.60 1.135
482.70 1.133
482.80 1.132
482.90 1.13
483.00 1.128
483.10 1.127
483.20 1.125
483.30 1.122
483.40 1.12
483.50 1.118
483.60 1.116
483.70 1.113
483.80 1.111
483.90 1.109
484.00 1.106
484.10 1.104
484.20 1.101
484.30 1.097
484.40 1.094
484.50 1.09
484.60 1.087
484.70 1.082
484.80 1.078
484.90 1.073
485.00 1.068
485.10 1.063
485.20 1.058
485.30 1.051
485.40 1.045
485.50 1.037
485.60 1.029
485.70 1.02
485.80 1.007
485.90 0.9933
486.00 0.9754
486.10 0.9727
486.20 0.9677
486.30 0.9796
486.40 0.9938
486.50 1.006
486.60 1.016
486.70 1.023
486.80 1.029
486.90 1.035
487.00 1.04
487.10 1.044
487.20 1.048
487.30 1.051
487.40 1.054
487.50 1.057
487.60 1.06
487.70 1.062
487.80 1.064
487.90 1.065
488.00 1.067
488.10 1.069
488.20 1.07
488.30 1.07
488.40 1.071
488.50 1.071
488.60 1.072
488.70 1.072
488.80 1.073
488.90 1.074
489.00 1.074
489.10 1.075
489.20 1.075
489.30 1.074
489.40 1.074
489.50 1.074
489.60 1.074
489.70 1.073
489.80 1.073
489.90 1.073
490.00 1.073
490.10 1.073
490.20 1.072
490.30 1.072
490.40 1.071
490.50 1.07
490.60 1.07
490.70 1.069
490.80 1.069
490.90 1.068
491.00 1.068
491.10 1.067
491.20 1.067
491.30 1.066
491.40 1.065
491.50 1.065
491.60 1.064
491.70 1.063
491.80 1.063
491.90 1.062
492.00 1.061
492.10 1.061
492.20 1.06
492.30 1.059
492.40 1.058
492.50 1.058
492.60 1.057
492.70 1.056
492.80 1.055
492.90 1.055
493.00 1.054
493.10 1.053
493.20 1.052
493.30 1.052
493.40 1.051
493.50 1.05
493.60 1.049
493.70 1.049
493.80 1.048
493.90 1.047
494.00 1.046
494.10 1.046
494.20 1.045
494.30 1.044
494.40 1.043
494.50 1.043
494.60 1.042
494.70 1.041
494.80 1.04
494.90 1.039
495.00 1.039
495.10 1.038
495.20 1.037
495.30 1.036
495.40 1.036
495.50 1.035
495.60 1.034
495.70 1.033
495.80 1.032
495.90 1.032
496.00 1.031
496.10 1.03
496.20 1.029
496.30 1.029
496.40 1.028
496.50 1.027
496.60 1.026
496.70 1.025
496.80 1.025
496.90 1.024
497.00 1.023
497.10 1.022
497.20 1.022
497.30 1.021
497.40 1.02
497.50 1.019
497.60 1.018
497.70 1.018
497.80 1.017
497.90 1.016
498.00 1.015
498.10 1.015
498.20 1.014
498.30 1.013
498.40 1.012
498.50 1.012
498.60 1.011
498.70 1.01
498.80 1.009
498.90 1.008
499.00 1.008
499.10 1.007
499.20 1.006
499.30 1.005
499.40 1.005
499.50 1.004
499.60 1.003
499.70 1.002
499.80 1.002
499.90 1.001
500.00 1
500.10 0.9992
500.20 0.9985
500.30 0.9977
500.40 0.9969
500.50 0.9962
500.60 0.9954
500.70 0.9947
500.80 0.9939
500.90 0.9931
501.00 0.9924
501.10 0.9916
501.20 0.9909
501.30 0.9901
501.40 0.9894
501.50 0.9886
501.60 0.9878
501.70 0.9871
501.80 0.9863
501.90 0.9856
502.00 0.9848
502.10 0.9841
502.20 0.9833
502.30 0.9826
502.40 0.9818
502.50 0.9811
502.60 0.9803
502.70 0.9796
502.80 0.9788
502.90 0.9781
503.00 0.9773
503.10 0.9766
503.20 0.9759
503.30 0.9751
503.40 0.9744
503.50 0.9736
503.60 0.9729
503.70 0.9721
503.80 0.9714
503.90 0.9707
504.00 0.9699
504.10 0.9692
504.20 0.9684
504.30 0.9677
504.40 0.967
504.50 0.9662
504.60 0.9655
504.70 0.9648
504.80 0.964
504.90 0.9633
505.00 0.9626
505.10 0.9618
505.20 0.9611
505.30 0.9604
505.40 0.9596
505.50 0.9589
505.60 0.9582
505.70 0.9574
505.80 0.9567
505.90 0.956
506.00 0.9553
506.10 0.9545
506.20 0.9538
506.30 0.9531
506.40 0.9524
506.50 0.9516
506.60 0.9509
506.70 0.9502
506.80 0.9495
506.90 0.9488
507.00 0.948
507.10 0.9473
507.20 0.9466
507.30 0.9459
507.40 0.9452
507.50 0.9444
507.60 0.9437
507.70 0.943
507.80 0.9423
507.90 0.9416
508.00 0.9409
508.10 0.9402
508.20 0.9394
508.30 0.9387
508.40 0.938
508.50 0.9373
508.60 0.9366
508.70 0.9359
508.80 0.9352
508.90 0.9345
509.00 0.9338
509.10 0.9331
509.20 0.9324
509.30 0.9317
509.40 0.9309
509.50 0.9302
509.60 0.9295
509.70 0.9288
509.80 0.9281
509.90 0.9274
510.00 0.9267
510.10 0.926
510.20 0.9253
510.30 0.9246
510.40 0.9239
510.50 0.9233
510.60 0.9226
510.70 0.9219
510.80 0.9212
510.90 0.9205
511.00 0.9198
511.10 0.9191
511.20 0.9184
511.30 0.9177
511.40 0.917
511.50 0.9163
511.60 0.9156
511.70 0.9149
511.80 0.9143
511.90 0.9136
512.00 0.9129
512.10 0.9122
512.20 0.9115
512.30 0.9108
512.40 0.9101
512.50 0.9094
512.60 0.9088
512.70 0.9081
512.80 0.9074
512.90 0.9067
513.00 0.906
513.10 0.9054
513.20 0.9047
513.30 0.904
513.40 0.9033
513.50 0.9026
513.60 0.902
513.70 0.9013
513.80 0.9006
513.90 0.8999
514.00 0.8993
514.10 0.8986
514.20 0.8979
514.30 0.8972
514.40 0.8966
514.50 0.8959
514.60 0.8952
514.70 0.8945
514.80 0.8939
514.90 0.8932
515.00 0.8925
515.10 0.8919
515.20 0.8912
515.30 0.8905
515.40 0.8899
515.50 0.8892
515.60 0.8885
515.70 0.8879
515.80 0.8872
515.90 0.8865
516.00 0.8859
516.10 0.8852
516.20 0.8846
516.30 0.8839
516.40 0.8832
516.50 0.8826
516.60 0.8819
516.70 0.8813
516.80 0.8806
516.90 0.88
517.00 0.8793
517.10 0.8786
517.20 0.878
517.30 0.8773
517.40 0.8767
517.50 0.876
517.60 0.8754
517.70 0.8747
517.80 0.8741
517.90 0.8734
518.00 0.8728
518.10 0.8721
518.20 0.8715
518.30 0.8708
518.40 0.8702
518.50 0.8695
518.60 0.8689
518.70 0.8682
518.80 0.8676
518.90 0.867
519.00 0.8663
519.10 0.8657
519.20 0.865
519.30 0.8644
519.40 0.8637
519.50 0.8631
519.60 0.8625
519.70 0.8618
519.80 0.8612
519.90 0.8605
520.00 0.8599
520.10 0.8593
520.20 0.8586
520.30 0.858
520.40 0.8574
520.50 0.8567
520.60 0.8561
520.70 0.8554
520.80 0.8548
520.90 0.8542
521.00 0.8535
521.10 0.8529
521.20 0.8523
521.30 0.8517
521.40 0.851
521.50 0.8504
521.60 0.8498
521.70 0.8491
521.80 0.8485
521.90 0.8479
522.00 0.8473
522.10 0.8466
522.20 0.846
522.30 0.8454
522.40 0.8448
522.50 0.8441
522.60 0.8435
522.70 0.8429
522.80 0.8423
522.90 0.8416
523.00 0.841
523.10 0.8404
523.20 0.8398
523.30 0.8392
523.40 0.8386
523.50 0.8379
523.60 0.8373
523.70 0.8367
523.80 0.8361
523.90 0.8355
524.00 0.8349
524.10 0.8342
524.20 0.8336
524.30 0.833
524.40 0.8324
524.50 0.8318
524.60 0.8312
524.70 0.8306
524.80 0.83
524.90 0.8293
525.00 0.8287
525.10 0.8281
525.20 0.8275
525.30 0.8269
525.40 0.8263
525.50 0.8257
525.60 0.8251
525.70 0.8245
525.80 0.8239
525.90 0.8233
526.00 0.8227
526.10 0.8221
526.20 0.8215
526.30 0.8209
526.40 0.8203
526.50 0.8197
526.60 0.8191
526.70 0.8185
526.80 0.8179
526.90 0.8173
527.00 0.8167
527.10 0.8161
527.20 0.8155
527.30 0.8149
527.40 0.8143
527.50 0.8137
527.60 0.8131
527.70 0.8125
527.80 0.8119
527.90 0.8113
528.00 0.8107
528.10 0.8101
528.20 0.8095
528.30 0.8089
528.40 0.8083
528.50 0.8078
528.60 0.8072
528.70 0.8066
528.80 0.806
528.90 0.8054
529.00 0.8048
529.10 0.8042
529.20 0.8036
529.30 0.8031
529.40 0.8025
529.50 0.8019
529.60 0.8013
529.70 0.8007
529.80 0.8001
529.90 0.7995
530.00 0.799
530.10 0.7984
530.20 0.7978
530.30 0.7972
530.40 0.7966
530.50 0.7961
530.60 0.7955
530.70 0.7949
530.80 0.7943
530.90 0.7937
531.00 0.7932
531.10 0.7926
531.20 0.792
531.30 0.7914
531.40 0.7909
531.50 0.7903
531.60 0.7897
531.70 0.7891
531.80 0.7886
531.90 0.788
532.00 0.7874
532.10 0.7869
532.20 0.7863
532.30 0.7857
532.40 0.7851
532.50 0.7846
532.60 0.784
532.70 0.7834
532.80 0.7829
532.90 0.7823
533.00 0.7817
533.10 0.7812
533.20 0.7806
533.30 0.78
533.40 0.7795
533.50 0.7789
533.60 0.7784
533.70 0.7778
533.80 0.7772
533.90 0.7767
534.00 0.7761
534.10 0.7755
534.20 0.775
534.30 0.7744
534.40 0.7739
534.50 0.7733
534.60 0.7728
534.70 0.7722
534.80 0.7716
534.90 0.7711
535.00 0.7705
535.10 0.77
535.20 0.7694
535.30 0.7689
535.40 0.7683
535.50 0.7678
535.60 0.7672
535.70 0.7666
535.80 0.7661
535.90 0.7655
536.00 0.765
536.10 0.7644
536.20 0.7639
536.30 0.7633
536.40 0.7628
536.50 0.7622
536.60 0.7617
536.70 0.7611
536.80 0.7606
536.90 0.76
537.00 0.7595
537.10 0.759
537.20 0.7584
537.30 0.7579
537.40 0.7573
537.50 0.7568
537.60 0.7562
537.70 0.7557
537.80 0.7551
537.90 0.7546
538.00 0.7541
538.10 0.7535
538.20 0.753
538.30 0.7524
538.40 0.7519
538.50 0.7514
538.60 0.7508
538.70 0.7503
538.80 0.7497
538.90 0.7492
539.00 0.7487
539.10 0.7481
539.20 0.7476
539.30 0.7471
539.40 0.7465
539.50 0.746
539.60 0.7455
539.70 0.7449
539.80 0.7444
539.90 0.7439
540.00 0.7433
540.10 0.7428
540.20 0.7423
540.30 0.7417
540.40 0.7412
540.50 0.7407
540.60 0.7402
540.70 0.7396
540.80 0.7391
540.90 0.7386
541.00 0.738
541.10 0.7375
541.20 0.737
541.30 0.7365
541.40 0.7359
541.50 0.7354
541.60 0.7349
541.70 0.7344
541.80 0.7338
541.90 0.7333
542.00 0.7328
542.10 0.7323
542.20 0.7318
542.30 0.7312
542.40 0.7307
542.50 0.7302
542.60 0.7297
542.70 0.7292
542.80 0.7286
542.90 0.7281
543.00 0.7276
543.10 0.7271
543.20 0.7266
543.30 0.7261
543.40 0.7255
543.50 0.725
543.60 0.7245
543.70 0.724
543.80 0.7235
543.90 0.723
544.00 0.7225
544.10 0.7219
544.20 0.7214
544.30 0.7209
544.40 0.7204
544.50 0.7199
544.60 0.7194
544.70 0.7189
544.80 0.7184
544.90 0.7179
545.00 0.7173
545.10 0.7168
545.20 0.7163
545.30 0.7158
545.40 0.7153
545.50 0.7148
545.60 0.7143
545.70 0.7138
545.80 0.7133
545.90 0.7128
546.00 0.7123
546.10 0.7118
546.20 0.7113
546.30 0.7108
546.40 0.7103
546.50 0.7098
546.60 0.7093
546.70 0.7088
546.80 0.7083
546.90 0.7078
547.00 0.7073
547.10 0.7068
547.20 0.7063
547.30 0.7058
547.40 0.7053
547.50 0.7048
547.60 0.7043
547.70 0.7038
547.80 0.7033
547.90 0.7028
548.00 0.7023
548.10 0.7018
548.20 0.7013
548.30 0.7008
548.40 0.7003
548.50 0.6998
548.60 0.6993
548.70 0.6988
548.80 0.6983
548.90 0.6979
549.00 0.6974
549.10 0.6969
549.20 0.6964
549.30 0.6959
549.40 0.6954
549.50 0.6949
549.60 0.6944
549.70 0.6939
549.80 0.6935
549.90 0.693
550.00 0.6925
550.10 0.692
550.20 0.6915
550.30 0.691
550.40 0.6905
550.50 0.6901
550.60 0.6896
550.70 0.6891
550.80 0.6886
550.90 0.6881
551.00 0.6876
551.10 0.6872
551.20 0.6867
551.30 0.6862
551.40 0.6857
551.50 0.6852
551.60 0.6848
551.70 0.6843
551.80 0.6838
551.90 0.6833
552.00 0.6828
552.10 0.6824
552.20 0.6819
552.30 0.6814
552.40 0.6809
552.50 0.6805
552.60 0.68
552.70 0.6795
552.80 0.679
552.90 0.6786
553.00 0.6781
553.10 0.6776
553.20 0.6771
553.30 0.6767
553.40 0.6762
553.50 0.6757
553.60 0.6752
553.70 0.6748
553.80 0.6743
553.90 0.6738
554.00 0.6734
554.10 0.6729
554.20 0.6724
554.30 0.672
554.40 0.6715
554.50 0.671
554.60 0.6706
554.70 0.6701
554.80 0.6696
554.90 0.6692
555.00 0.6687
555.10 0.6682
555.20 0.6678
555.30 0.6673
555.40 0.6668
555.50 0.6664
555.60 0.6659
555.70 0.6654
555.80 0.665
555.90 0.6645
556.00 0.6641
556.10 0.6636
556.20 0.6631
556.30 0.6627
556.40 0.6622
556.50 0.6618
556.60 0.6613
556.70 0.6608
556.80 0.6604
556.90 0.6599
557.00 0.6595
557.10 0.659
557.20 0.6585
557.30 0.6581
557.40 0.6576
557.50 0.6572
557.60 0.6567
557.70 0.6563
557.80 0.6558
557.90 0.6554
558.00 0.6549
558.10 0.6544
558.20 0.654
558.30 0.6535
558.40 0.6531
558.50 0.6526
558.60 0.6522
558.70 0.6517
558.80 0.6513
558.90 0.6508
559.00 0.6504
559.10 0.6499
559.20 0.6495
559.30 0.649
559.40 0.6486
559.50 0.6481
559.60 0.6477
559.70 0.6472
559.80 0.6468
559.90 0.6464
560.00 0.6459
560.10 0.6455
560.20 0.645
560.30 0.6446
560.40 0.6441
560.50 0.6437
560.60 0.6432
560.70 0.6428
560.80 0.6424
560.90 0.6419
561.00 0.6415
561.10 0.641
561.20 0.6406
561.30 0.6401
561.40 0.6397
561.50 0.6393
561.60 0.6388
561.70 0.6384
561.80 0.6379
561.90 0.6375
562.00 0.6371
562.10 0.6366
562.20 0.6362
562.30 0.6358
562.40 0.6353
562.50 0.6349
562.60 0.6345
562.70 0.634
562.80 0.6336
562.90 0.6331
563.00 0.6327
563.10 0.6323
563.20 0.6318
563.30 0.6314
563.40 0.631
563.50 0.6305
563.60 0.6301
563.70 0.6297
563.80 0.6292
563.90 0.6288
564.00 0.6284
564.10 0.628
564.20 0.6275
564.30 0.6271
564.40 0.6267
564.50 0.6262
564.60 0.6258
564.70 0.6254
564.80 0.6249
564.90 0.6245
565.00 0.6241
565.10 0.6237
565.20 0.6232
565.30 0.6228
565.40 0.6224
565.50 0.622
565.60 0.6215
565.70 0.6211
565.80 0.6207
565.90 0.6203
566.00 0.6198
566.10 0.6194
566.20 0.619
566.30 0.6186
566.40 0.6181
566.50 0.6177
566.60 0.6173
566.70 0.6169
566.80 0.6165
566.90 0.616
567.00 0.6156
567.10 0.6152
567.20 0.6148
567.30 0.6144
567.40 0.614
567.50 0.6135
567.60 0.6131
567.70 0.6127
567.80 0.6123
567.90 0.6119
568.00 0.6114
568.10 0.611
568.20 0.6106
568.30 0.6102
568.40 0.6098
568.50 0.6094
568.60 0.609
568.70 0.6085
568.80 0.6081
568.90 0.6077
569.00 0.6073
569.10 0.6069
569.20 0.6065
569.30 0.6061
569.40 0.6057
569.50 0.6052
569.60 0.6048
569.70 0.6044
569.80 0.604
569.90 0.6036
570.00 0.6032
570.10 0.6028
570.20 0.6024
570.30 0.602
570.40 0.6016
570.50 0.6012
570.60 0.6007
570.70 0.6003
570.80 0.5999
570.90 0.5995
571.00 0.5991
571.10 0.5987
571.20 0.5983
571.30 0.5979
571.40 0.5975
571.50 0.5971
571.60 0.5967
571.70 0.5963
571.80 0.5959
571.90 0.5955
572.00 0.5951
572.10 0.5947
572.20 0.5943
572.30 0.5939
572.40 0.5935
572.50 0.5931
572.60 0.5927
572.70 0.5923
572.80 0.5919
572.90 0.5915
573.00 0.5911
573.10 0.5907
573.20 0.5903
573.30 0.5899
573.40 0.5895
573.50 0.5891
573.60 0.5887
573.70 0.5883
573.80 0.5879
573.90 0.5875
574.00 0.5871
574.10 0.5867
574.20 0.5863
574.30 0.5859
574.40 0.5855
574.50 0.5851
574.60 0.5847
574.70 0.5843
574.80 0.584
574.90 0.5836
575.00 0.5832
575.10 0.5828
575.20 0.5824
575.30 0.582
575.40 0.5816
575.50 0.5812
575.60 0.5808
575.70 0.5804
575.80 0.58
575.90 0.5797
576.00 0.5793
576.10 0.5789
576.20 0.5785
576.30 0.5781
576.40 0.5777
576.50 0.5773
576.60 0.5769
576.70 0.5765
576.80 0.5762
576.90 0.5758
577.00 0.5754
577.10 0.575
577.20 0.5746
577.30 0.5742
577.40 0.5738
577.50 0.5735
577.60 0.5731
577.70 0.5727
577.80 0.5723
577.90 0.5719
578.00 0.5715
578.10 0.5712
578.20 0.5708
578.30 0.5704
578.40 0.57
578.50 0.5696
578.60 0.5693
578.70 0.5689
578.80 0.5685
578.90 0.5681
579.00 0.5677
579.10 0.5674
579.20 0.567
579.30 0.5666
579.40 0.5662
579.50 0.5658
579.60 0.5655
579.70 0.5651
579.80 0.5647
579.90 0.5643
580.00 0.564
580.10 0.5636
580.20 0.5632
580.30 0.5628
580.40 0.5625
580.50 0.5621
580.60 0.5617
580.70 0.5613
580.80 0.561
580.90 0.5606
581.00 0.5602
581.10 0.5598
581.20 0.5595
581.30 0.5591
581.40 0.5587
581.50 0.5584
581.60 0.558
581.70 0.5576
581.80 0.5572
581.90 0.5569
582.00 0.5565
582.10 0.5561
582.20 0.5558
582.30 0.5554
582.40 0.555
582.50 0.5547
582.60 0.5543
582.70 0.5539
582.80 0.5536
582.90 0.5532
583.00 0.5528
583.10 0.5525
583.20 0.5521
583.30 0.5517
583.40 0.5514
583.50 0.551
583.60 0.5506
583.70 0.5503
583.80 0.5499
583.90 0.5495
584.00 0.5492
584.10 0.5488
584.20 0.5484
584.30 0.5481
584.40 0.5477
584.50 0.5474
584.60 0.547
584.70 0.5466
584.80 0.5463
584.90 0.5459
585.00 0.5455
585.10 0.5452
585.20 0.5448
585.30 0.5445
585.40 0.5441
585.50 0.5437
585.60 0.5434
585.70 0.543
585.80 0.5427
585.90 0.5423
586.00 0.542
586.10 0.5416
586.20 0.5412
586.30 0.5409
586.40 0.5405
586.50 0.5402
586.60 0.5398
586.70 0.5395
586.80 0.5391
586.90 0.5387
587.00 0.5384
587.10 0.538
587.20 0.5377
587.30 0.5373
587.40 0.537
587.50 0.5366
587.60 0.5363
587.70 0.5359
587.80 0.5356
587.90 0.5352
588.00 0.5349
588.10 0.5345
588.20 0.5342
588.30 0.5338
588.40 0.5335
588.50 0.5331
588.60 0.5328
588.70 0.5324
588.80 0.5321
588.90 0.5317
589.00 0.5314
589.10 0.531
589.20 0.5307
589.30 0.5303
589.40 0.53
589.50 0.5296
589.60 0.5293
589.70 0.5289
589.80 0.5286
589.90 0.5282
590.00 0.5279
590.10 0.5275
590.20 0.5272
590.30 0.5268
590.40 0.5265
590.50 0.5262
590.60 0.5258
590.70 0.5255
590.80 0.5251
590.90 0.5248
591.00 0.5244
591.10 0.5241
591.20 0.5237
591.30 0.5234
591.40 0.5231
591.50 0.5227
591.60 0.5224
591.70 0.522
591.80 0.5217
591.90 0.5214
592.00 0.521
592.10 0.5207
592.20 0.5203
592.30 0.52
592.40 0.5197
592.50 0.5193
592.60 0.519
592.70 0.5186
592.80 0.5183
592.90 0.518
593.00 0.5176
593.10 0.5173
593.20 0.5169
593.30 0.5166
593.40 0.5163
593.50 0.5159
593.60 0.5156
593.70 0.5153
593.80 0.5149
593.90 0.5146
594.00 0.5143
594.10 0.5139
594.20 0.5136
594.30 0.5133
594.40 0.5129
594.50 0.5126
594.60 0.5123
594.70 0.5119
594.80 0.5116
594.90 0.5113
595.00 0.5109
595.10 0.5106
595.20 0.5103
595.30 0.5099
595.40 0.5096
595.50 0.5093
595.60 0.5089
595.70 0.5086
595.80 0.5083
595.90 0.5079
596.00 0.5076
596.10 0.5073
596.20 0.507
596.30 0.5066
596.40 0.5063
596.50 0.506
596.60 0.5056
596.70 0.5053
596.80 0.505
596.90 0.5047
597.00 0.5043
597.10 0.504
597.20 0.5037
597.30 0.5033
597.40 0.503
597.50 0.5027
597.60 0.5024
597.70 0.502
597.80 0.5017
597.90 0.5014
598.00 0.5011
598.10 0.5007
598.20 0.5004
598.30 0.5001
598.40 0.4998
598.50 0.4995
598.60 0.4991
598.70 0.4988
598.80 0.4985
598.90 0.4982
599.00 0.4978
599.10 0.4975
599.20 0.4972
599.30 0.4969
599.40 0.4966
599.50 0.4962
599.60 0.4959
599.70 0.4956
599.80 0.4953
599.90 0.495
600.00 0.4946
600.10 0.4943
600.20 0.494
600.30 0.4937
600.40 0.4934
600.50 0.493
600.60 0.4927
600.70 0.4924
600.80 0.4921
600.90 0.4918
601.00 0.4915
601.10 0.4911
601.20 0.4908
601.30 0.4905
601.40 0.4902
601.50 0.4899
601.60 0.4896
601.70 0.4893
601.80 0.4889
601.90 0.4886
602.00 0.4883
602.10 0.488
602.20 0.4877
602.30 0.4874
602.40 0.4871
602.50 0.4867
602.60 0.4864
602.70 0.4861
602.80 0.4858
602.90 0.4855
603.00 0.4852
603.10 0.4849
603.20 0.4846
603.30 0.4842
603.40 0.4839
603.50 0.4836
603.60 0.4833
603.70 0.483
603.80 0.4827
603.90 0.4824
604.00 0.4821
604.10 0.4818
604.20 0.4815
604.30 0.4812
604.40 0.4808
604.50 0.4805
604.60 0.4802
604.70 0.4799
604.80 0.4796
604.90 0.4793
605.00 0.479
605.10 0.4787
605.20 0.4784
605.30 0.4781
605.40 0.4778
605.50 0.4775
605.60 0.4772
605.70 0.4769
605.80 0.4766
605.90 0.4763
606.00 0.4759
606.10 0.4756
606.20 0.4753
606.30 0.475
606.40 0.4747
606.50 0.4744
606.60 0.4741
606.70 0.4738
606.80 0.4735
606.90 0.4732
607.00 0.4729
607.10 0.4726
607.20 0.4723
607.30 0.472
607.40 0.4717
607.50 0.4714
607.60 0.4711
607.70 0.4708
607.80 0.4705
607.90 0.4702
608.00 0.4699
608.10 0.4696
608.20 0.4693
608.30 0.469
608.40 0.4687
608.50 0.4684
608.60 0.4681
608.70 0.4678
608.80 0.4675
608.90 0.4672
609.00 0.4669
609.10 0.4666
609.20 0.4663
609.30 0.466
609.40 0.4658
609.50 0.4655
609.60 0.4652
609.70 0.4649
609.80 0.4646
609.90 0.4643
610.00 0.464
610.10 0.4637
610.20 0.4634
610.30 0.4631
610.40 0.4628
610.50 0.4625
610.60 0.4622
610.70 0.4619
610.80 0.4616
610.90 0.4613
611.00 0.461
611.10 0.4608
611.20 0.4605
611.30 0.4602
611.40 0.4599
611.50 0.4596
611.60 0.4593
611.70 0.459
611.80 0.4587
611.90 0.4584
612.00 0.4581
612.10 0.4578
612.20 0.4576
612.30 0.4573
612.40 0.457
612.50 0.4567
612.60 0.4564
612.70 0.4561
612.80 0.4558
612.90 0.4555
613.00 0.4552
613.10 0.455
613.20 0.4547
613.30 0.4544
613.40 0.4541
613.50 0.4538
613.60 0.4535
613.70 0.4532
613.80 0.453
613.90 0.4527
614.00 0.4524
614.10 0.4521
614.20 0.4518
614.30 0.4515
614.40 0.4512
614.50 0.451
614.60 0.4507
614.70 0.4504
614.80 0.4501
614.90 0.4498
615.00 0.4495
615.10 0.4493
615.20 0.449
615.30 0.4487
615.40 0.4484
615.50 0.4481
615.60 0.4478
615.70 0.4476
615.80 0.4473
615.90 0.447
616.00 0.4467
616.10 0.4464
616.20 0.4462
616.30 0.4459
616.40 0.4456
616.50 0.4453
616.60 0.445
616.70 0.4448
616.80 0.4445
616.90 0.4442
617.00 0.4439
617.10 0.4436
617.20 0.4434
617.30 0.4431
617.40 0.4428
617.50 0.4425
617.60 0.4423
617.70 0.442
617.80 0.4417
617.90 0.4414
618.00 0.4411
618.10 0.4409
618.20 0.4406
618.30 0.4403
618.40 0.44
618.50 0.4398
618.60 0.4395
618.70 0.4392
618.80 0.4389
618.90 0.4387
619.00 0.4384
619.10 0.4381
619.20 0.4378
619.30 0.4376
619.40 0.4373
619.50 0.437
619.60 0.4368
619.70 0.4365
619.80 0.4362
619.90 0.4359
620.00 0.4357
620.10 0.4354
620.20 0.4351
620.30 0.4348
620.40 0.4346
620.50 0.4343
620.60 0.434
620.70 0.4338
620.80 0.4335
620.90 0.4332
621.00 0.4329
621.10 0.4327
621.20 0.4324
621.30 0.4321
621.40 0.4319
621.50 0.4316
621.60 0.4313
621.70 0.4311
621.80 0.4308
621.90 0.4305
622.00 0.4303
622.10 0.43
622.20 0.4297
622.30 0.4295
622.40 0.4292
622.50 0.4289
622.60 0.4287
622.70 0.4284
622.80 0.4281
622.90 0.4279
623.00 0.4276
623.10 0.4273
623.20 0.4271
623.30 0.4268
623.40 0.4265
623.50 0.4263
623.60 0.426
623.70 0.4257
623.80 0.4255
623.90 0.4252
624.00 0.4249
624.10 0.4247
624.20 0.4244
624.30 0.4241
624.40 0.4239
624.50 0.4236
624.60 0.4234
624.70 0.4231
624.80 0.4228
624.90 0.4226
625.00 0.4223
625.10 0.422
625.20 0.4218
625.30 0.4215
625.40 0.4213
625.50 0.421
625.60 0.4207
625.70 0.4205
625.80 0.4202
625.90 0.42
626.00 0.4197
626.10 0.4194
626.20 0.4192
626.30 0.4189
626.40 0.4187
626.50 0.4184
626.60 0.4181
626.70 0.4179
626.80 0.4176
626.90 0.4174
627.00 0.4171
627.10 0.4169
627.20 0.4166
627.30 0.4163
627.40 0.4161
627.50 0.4158
627.60 0.4156
627.70 0.4153
627.80 0.4151
627.90 0.4148
628.00 0.4145
628.10 0.4143
628.20 0.414
628.30 0.4138
628.40 0.4135
628.50 0.4133
628.60 0.413
628.70 0.4128
628.80 0.4125
628.90 0.4122
629.00 0.412
629.10 0.4117
629.20 0.4115
629.30 0.4112
629.40 0.411
629.50 0.4107
629.60 0.4105
629.70 0.4102
629.80 0.41
629.90 0.4097
630.00 0.4095
630.10 0.4092
630.20 0.409
630.30 0.4087
630.40 0.4085
630.50 0.4082
630.60 0.408
630.70 0.4077
630.80 0.4075
630.90 0.4072
631.00 0.407
631.10 0.4067
631.20 0.4065
631.30 0.4062
631.40 0.406
631.50 0.4057
631.60 0.4055
631.70 0.4052
631.80 0.405
631.90 0.4047
632.00 0.4045
632.10 0.4042
632.20 0.404
632.30 0.4037
632.40 0.4035
632.50 0.4032
632.60 0.403
632.70 0.4027
632.80 0.4025
632.90 0.4022
633.00 0.402
633.10 0.4017
633.20 0.4015
633.30 0.4012
633.40 0.401
633.50 0.4008
633.60 0.4005
633.70 0.4003
633.80 0.4
633.90 0.3998
634.00 0.3995
634.10 0.3993
634.20 0.399
634.30 0.3988
634.40 0.3986
634.50 0.3983
634.60 0.3981
634.70 0.3978
634.80 0.3976
634.90 0.3973
635.00 0.3971
635.10 0.3968
635.20 0.3966
635.30 0.3964
635.40 0.3961
635.50 0.3959
635.60 0.3956
635.70 0.3954
635.80 0.3952
635.90 0.3949
636.00 0.3947
636.10 0.3944
636.20 0.3942
636.30 0.394
636.40 0.3937
636.50 0.3935
636.60 0.3932
636.70 0.393
636.80 0.3928
636.90 0.3925
637.00 0.3923
637.10 0.392
637.20 0.3918
637.30 0.3916
637.40 0.3913
637.50 0.3911
637.60 0.3908
637.70 0.3906
637.80 0.3904
637.90 0.3901
638.00 0.3899
638.10 0.3896
638.20 0.3894
638.30 0.3892
638.40 0.3889
638.50 0.3887
638.60 0.3885
638.70 0.3882
638.80 0.388
638.90 0.3878
639.00 0.3875
639.10 0.3873
639.20 0.387
639.30 0.3868
639.40 0.3866
639.50 0.3863
639.60 0.3861
639.70 0.3859
639.80 0.3856
639.90 0.3854
640.00 0.3852
640.10 0.3849
640.20 0.3847
640.30 0.3845
640.40 0.3842
640.50 0.384
640.60 0.3838
640.70 0.3835
640.80 0.3833
640.90 0.3831
641.00 0.3828
641.10 0.3826
641.20 0.3824
641.30 0.3821
641.40 0.3819
641.50 0.3817
641.60 0.3814
641.70 0.3812
641.80 0.381
641.90 0.3807
642.00 0.3805
642.10 0.3803
642.20 0.38
642.30 0.3798
642.40 0.3796
642.50 0.3793
642.60 0.3791
642.70 0.3789
642.80 0.3786
642.90 0.3784
643.00 0.3782
643.10 0.378
643.20 0.3777
643.30 0.3775
643.40 0.3773
643.50 0.377
643.60 0.3768
643.70 0.3766
643.80 0.3763
643.90 0.3761
644.00 0.3759
644.10 0.3757
644.20 0.3754
644.30 0.3752
644.40 0.375
644.50 0.3747
644.60 0.3745
644.70 0.3743
644.80 0.374
644.90 0.3738
645.00 0.3736
645.10 0.3734
645.20 0.3731
645.30 0.3729
645.40 0.3727
645.50 0.3724
645.60 0.3722
645.70 0.372
645.80 0.3718
645.90 0.3715
646.00 0.3713
646.10 0.3711
646.20 0.3708
646.30 0.3706
646.40 0.3704
646.50 0.3702
646.60 0.3699
646.70 0.3697
646.80 0.3695
646.90 0.3692
647.00 0.369
647.10 0.3688
647.20 0.3685
647.30 0.3683
647.40 0.3681
647.50 0.3679
647.60 0.3676
647.70 0.3674
647.80 0.3672
647.90 0.3669
648.00 0.3667
648.10 0.3665
648.20 0.3662
648.30 0.366
648.40 0.3658
648.50 0.3655
648.60 0.3653
648.70 0.3651
648.80 0.3648
648.90 0.3646
649.00 0.3644
649.10 0.3641
649.20 0.3639
649.30 0.3637
649.40 0.3634
649.50 0.3632
649.60 0.3629
649.70 0.3627
649.80 0.3624
649.90 0.3622
650.00 0.362
650.10 0.3617
650.20 0.3615
650.30 0.3612
650.40 0.361
650.50 0.3607
650.60 0.3604
650.70 0.3602
650.80 0.3599
650.90 0.3597
651.00 0.3594
651.10 0.3592
651.20 0.3589
651.30 0.3586
651.40 0.3583
651.50 0.358
651.60 0.3578
651.70 0.3575
651.80 0.3572
651.90 0.3569
652.00 0.3566
652.10 0.3563
652.20 0.356
652.30 0.3557
652.40 0.3553
652.50 0.3549
652.60 0.3546
652.70 0.3542
652.80 0.3538
652.90 0.3535
653.00 0.3531
653.10 0.3527
653.20 0.3523
653.30 0.3519
653.40 0.3514
653.50 0.3508
653.60 0.3502
653.70 0.3496
653.80 0.3491
653.90 0.3485
654.00 0.3479
654.10 0.3473
654.20 0.3468
654.30 0.3461
654.40 0.3452
654.50 0.3443
654.60 0.3434
654.70 0.3425
654.80 0.3415
654.90 0.3401
655.00 0.3388
655.10 0.3374
655.20 0.336
655.30 0.3345
655.40 0.3326
655.50 0.3306
655.60 0.3281
655.70 0.3254
655.80 0.3217
655.90 0.3173
656.00 0.3101
656.10 0.3023
656.20 0.3015
656.30 0.3144
656.40 0.2978
656.50 0.3047
656.60 0.3116
656.70 0.3178
656.80 0.3211
656.90 0.3242
657.00 0.3263
657.10 0.3283
657.20 0.3298
657.30 0.3312
657.40 0.3322
657.50 0.3331
657.60 0.3341
657.70 0.3351
657.80 0.3359
657.90 0.3364
658.00 0.3369
658.10 0.3374
658.20 0.3379
658.30 0.3384
658.40 0.3385
658.50 0.3387
658.60 0.3388
658.70 0.339
658.80 0.3391
658.90 0.3393
659.00 0.3395
659.10 0.3396
659.20 0.3398
659.30 0.3399
659.40 0.3398
659.50 0.3398
659.60 0.3397
659.70 0.3397
659.80 0.3397
659.90 0.3396
660.00 0.3396
660.10 0.3395
660.20 0.3395
660.30 0.3394
660.40 0.3393
660.50 0.3392
660.60 0.339
660.70 0.3389
660.80 0.3388
660.90 0.3387
661.00 0.3385
661.10 0.3384
661.20 0.3383
661.30 0.3382
661.40 0.338
661.50 0.3378
661.60 0.3377
661.70 0.3375
661.80 0.3374
661.90 0.3372
662.00 0.3371
662.10 0.3369
662.20 0.3367
662.30 0.3366
662.40 0.3364
662.50 0.3362
662.60 0.3361
662.70 0.3359
662.80 0.3357
662.90 0.3355
663.00 0.3354
663.10 0.3352
663.20 0.335
663.30 0.3348
663.40 0.3347
663.50 0.3345
663.60 0.3343
663.70 0.3341
663.80 0.3339
663.90 0.3338
664.00 0.3336
664.10 0.3334
664.20 0.3332
664.30 0.333
664.40 0.3329
664.50 0.3327
664.60 0.3325
664.70 0.3323
664.80 0.3321
664.90 0.3319
665.00 0.3318
665.10 0.3316
665.20 0.3314
665.30 0.3312
665.40 0.331
665.50 0.3308
665.60 0.3306
665.70 0.3305
665.80 0.3303
665.90 0.3301
666.00 0.3299
666.10 0.3297
666.20 0.3295
666.30 0.3293
666.40 0.3292
666.50 0.329
666.60 0.3288
666.70 0.3286
666.80 0.3284
666.90 0.3282
667.00 0.328
667.10 0.3279
667.20 0.3277
667.30 0.3275
667.40 0.3273
667.50 0.3271
667.60 0.3269
667.70 0.3267
667.80 0.3266
667.90 0.3264
668.00 0.3262
668.10 0.326
668.20 0.3258
668.30 0.3256
668.40 0.3254
668.50 0.3253
668.60 0.3251
668.70 0.3249
668.80 0.3247
668.90 0.3245
669.00 0.3243
669.10 0.3241
669.20 0.324
669.30 0.3238
669.40 0.3236
669.50 0.3234
669.60 0.3232
669.70 0.323
669.80 0.3228
669.90 0.3227
670.00 0.3225
670.10 0.3223
670.20 0.3221
670.30 0.3219
670.40 0.3217
670.50 0.3216
670.60 0.3214
670.70 0.3212
670.80 0.321
670.90 0.3208
671.00 0.3206
671.10 0.3204
671.20 0.3203
671.30 0.3201
671.40 0.3199
671.50 0.3197
671.60 0.3195
671.70 0.3193
671.80 0.3192
671.90 0.319
672.00 0.3188
672.10 0.3186
672.20 0.3184
672.30 0.3183
672.40 0.3181
672.50 0.3179
672.60 0.3177
672.70 0.3175
672.80 0.3173
672.90 0.3172
673.00 0.317
673.10 0.3168
673.20 0.3166
673.30 0.3164
673.40 0.3162
673.50 0.3161
673.60 0.3159
673.70 0.3157
673.80 0.3155
673.90 0.3153
674.00 0.3152
674.10 0.315
674.20 0.3148
674.30 0.3146
674.40 0.3144
674.50 0.3143
674.60 0.3141
674.70 0.3139
674.80 0.3137
674.90 0.3135
675.00 0.3134
675.10 0.3132
675.20 0.313
675.30 0.3128
675.40 0.3126
675.50 0.3125
675.60 0.3123
675.70 0.3121
675.80 0.3119
675.90 0.3118
676.00 0.3116
676.10 0.3114
676.20 0.3112
676.30 0.311
676.40 0.3109
676.50 0.3107
676.60 0.3105
676.70 0.3103
676.80 0.3102
676.90 0.31
677.00 0.3098
677.10 0.3096
677.20 0.3094
677.30 0.3093
677.40 0.3091
677.50 0.3089
677.60 0.3087
677.70 0.3086
677.80 0.3084
677.90 0.3082
678.00 0.308
678.10 0.3079
678.20 0.3077
678.30 0.3075
678.40 0.3073
678.50 0.3072
678.60 0.307
678.70 0.3068
678.80 0.3066
678.90 0.3065
679.00 0.3063
679.10 0.3061
679.20 0.3059
679.30 0.3058
679.40 0.3056
679.50 0.3054
679.60 0.3052
679.70 0.3051
679.80 0.3049
679.90 0.3047
680.00 0.3045
680.10 0.3044
680.20 0.3042
680.30 0.304
680.40 0.3038
680.50 0.3037
680.60 0.3035
680.70 0.3033
680.80 0.3032
680.90 0.303
681.00 0.3028
681.10 0.3026
681.20 0.3025
681.30 0.3023
681.40 0.3021
681.50 0.302
681.60 0.3018
681.70 0.3016
681.80 0.3014
681.90 0.3013
682.00 0.3011
682.10 0.3009
682.20 0.3008
682.30 0.3006
682.40 0.3004
682.50 0.3002
682.60 0.3001
682.70 0.2999
682.80 0.2997
682.90 0.2996
683.00 0.2994
683.10 0.2992
683.20 0.2991
683.30 0.2989
683.40 0.2987
683.50 0.2985
683.60 0.2984
683.70 0.2982
683.80 0.298
683.90 0.2979
684.00 0.2977
684.10 0.2975
684.20 0.2974
684.30 0.2972
684.40 0.297
684.50 0.2969
684.60 0.2967
684.70 0.2965
684.80 0.2964
684.90 0.2962
685.00 0.296
685.10 0.2959
685.20 0.2957
685.30 0.2955
685.40 0.2954
685.50 0.2952
685.60 0.295
685.70 0.2948
685.80 0.2947
685.90 0.2945
686.00 0.2943
686.10 0.2942
686.20 0.294
686.30 0.2939
686.40 0.2937
686.50 0.2935
686.60 0.2934
686.70 0.2932
686.80 0.293
686.90 0.2929
687.00 0.2927
687.10 0.2925
687.20 0.2924
687.30 0.2922
687.40 0.292
687.50 0.2919
687.60 0.2917
687.70 0.2915
687.80 0.2914
687.90 0.2912
688.00 0.291
688.10 0.2909
688.20 0.2907
688.30 0.2906
688.40 0.2904
688.50 0.2902
688.60 0.2901
688.70 0.2899
688.80 0.2897
688.90 0.2896
689.00 0.2894
689.10 0.2892
689.20 0.2891
689.30 0.2889
689.40 0.2888
689.50 0.2886
689.60 0.2884
689.70 0.2883
689.80 0.2881
689.90 0.288
690.00 0.2878
690.10 0.2876
690.20 0.2875
690.30 0.2873
690.40 0.2872
690.50 0.287
690.60 0.2868
690.70 0.2867
690.80 0.2865
690.90 0.2863
691.00 0.2862
691.10 0.286
691.20 0.2859
691.30 0.2857
691.40 0.2855
691.50 0.2854
691.60 0.2852
691.70 0.2851
691.80 0.2849
691.90 0.2847
692.00 0.2846
692.10 0.2844
692.20 0.2843
692.30 0.2841
692.40 0.284
692.50 0.2838
692.60 0.2836
692.70 0.2835
692.80 0.2833
692.90 0.2832
693.00 0.283
693.10 0.2828
693.20 0.2827
693.30 0.2825
693.40 0.2824
693.50 0.2822
693.60 0.282
693.70 0.2819
693.80 0.2817
693.90 0.2816
694.00 0.2814
694.10 0.2813
694.20 0.2811
694.30 0.2809
694.40 0.2808
694.50 0.2806
694.60 0.2805
694.70 0.2803
694.80 0.2802
694.90 0.28
695.00 0.2798
695.10 0.2797
695.20 0.2795
695.30 0.2794
695.40 0.2792
695.50 0.2791
695.60 0.2789
695.70 0.2788
695.80 0.2786
695.90 0.2784
696.00 0.2783
696.10 0.2781
696.20 0.278
696.30 0.2778
696.40 0.2777
696.50 0.2775
696.60 0.2774
696.70 0.2772
696.80 0.2771
696.90 0.2769
697.00 0.2767
697.10 0.2766
697.20 0.2764
697.30 0.2763
697.40 0.2761
697.50 0.276
697.60 0.2758
697.70 0.2757
697.80 0.2755
697.90 0.2754
698.00 0.2752
698.10 0.2751
698.20 0.2749
698.30 0.2748
698.40 0.2746
698.50 0.2744
698.60 0.2743
698.70 0.2741
698.80 0.274
698.90 0.2738
699.00 0.2737
699.10 0.2735
699.20 0.2734
699.30 0.2732
699.40 0.2731
699.50 0.2729
699.60 0.2728
699.70 0.2726
699.80 0.2725
699.90 0.2723
700.00 0.2722
700.10 0.272
700.20 0.2719
700.30 0.2717
700.40 0.2716
700.50 0.2714
700.60 0.2713
700.70 0.2711
700.80 0.271
700.90 0.2708
701.00 0.2707
701.10 0.2705
701.20 0.2704
701.30 0.2702
701.40 0.2701
701.50 0.2699
701.60 0.2698
701.70 0.2696
701.80 0.2695
701.90 0.2693
702.00 0.2692
702.10 0.269
702.20 0.2689
702.30 0.2687
702.40 0.2686
702.50 0.2684
702.60 0.2683
702.70 0.2681
702.80 0.268
702.90 0.2678
703.00 0.2677
703.10 0.2675
703.20 0.2674
703.30 0.2673
703.40 0.2671
703.50 0.267
703.60 0.2668
703.70 0.2667
703.80 0.2665
703.90 0.2664
704.00 0.2662
704.10 0.2661
704.20 0.2659
704.30 0.2658
704.40 0.2656
704.50 0.2655
704.60 0.2653
704.70 0.2652
704.80 0.265
704.90 0.2649
705.00 0.2648
705.10 0.2646
705.20 0.2645
705.30 0.2643
705.40 0.2642
705.50 0.264
705.60 0.2639
705.70 0.2637
705.80 0.2636
705.90 0.2634
706.00 0.2633
706.10 0.2632
706.20 0.263
706.30 0.2629
706.40 0.2627
706.50 0.2626
706.60 0.2624
706.70 0.2623
706.80 0.2622
706.90 0.262
707.00 0.2619
707.10 0.2617
707.20 0.2616
707.30 0.2614
707.40 0.2613
707.50 0.2611
707.60 0.261
707.70 0.2609
707.80 0.2607
707.90 0.2606
708.00 0.2604
708.10 0.2603
708.20 0.2601
708.30 0.26
708.40 0.2599
708.50 0.2597
708.60 0.2596
708.70 0.2594
708.80 0.2593
708.90 0.2591
709.00 0.259
709.10 0.2589
709.20 0.2587
709.30 0.2586
709.40 0.2584
709.50 0.2583
709.60 0.2582
709.70 0.258
709.80 0.2579
709.90 0.2577
710.00 0.2576
710.10 0.2574
710.20 0.2573
710.30 0.2572
710.40 0.257
710.50 0.2569
710.60 0.2567
710.70 0.2566
710.80 0.2565
710.90 0.2563
711.00 0.2562
711.10 0.256
711.20 0.2559
711.30 0.2558
711.40 0.2556
711.50 0.2555
711.60 0.2554
711.70 0.2552
711.80 0.2551
711.90 0.2549
712.00 0.2548
712.10 0.2547
712.20 0.2545
712.30 0.2544
712.40 0.2542
712.50 0.2541
712.60 0.254
712.70 0.2538
712.80 0.2537
712.90 0.2536
713.00 0.2534
713.10 0.2533
713.20 0.2531
713.30 0.253
713.40 0.2529
713.50 0.2527
713.60 0.2526
713.70 0.2524
713.80 0.2523
713.90 0.2522
714.00 0.252
714.10 0.2519
714.20 0.2518
714.30 0.2516
714.40 0.2515
714.50 0.2513
714.60 0.2512
714.70 0.2511
714.80 0.2509
714.90 0.2508
715.00 0.2507
715.10 0.2505
715.20 0.2504
715.30 0.2503
715.40 0.2501
715.50 0.25
715.60 0.2499
715.70 0.2497
715.80 0.2496
715.90 0.2494
716.00 0.2493
716.10 0.2492
716.20 0.249
716.30 0.2489
716.40 0.2488
716.50 0.2486
716.60 0.2485
716.70 0.2484
716.80 0.2482
716.90 0.2481
717.00 0.248
717.10 0.2478
717.20 0.2477
717.30 0.2476
717.40 0.2474
717.50 0.2473
717.60 0.2472
717.70 0.247
717.80 0.2469
717.90 0.2468
718.00 0.2466
718.10 0.2465
718.20 0.2464
718.30 0.2462
718.40 0.2461
718.50 0.246
718.60 0.2458
718.70 0.2457
718.80 0.2456
718.90 0.2454
719.00 0.2453
719.10 0.2452
719.20 0.245
719.30 0.2449
719.40 0.2448
719.50 0.2446
719.60 0.2445
719.70 0.2444
719.80 0.2442
719.90 0.2441
720.00 0.244
720.10 0.2438
720.20 0.2437
720.30 0.2436
720.40 0.2435
720.50 0.2433
720.60 0.2432
720.70 0.2431
720.80 0.2429
720.90 0.2428
721.00 0.2427
721.10 0.2425
721.20 0.2424
721.30 0.2423
721.40 0.2421
721.50 0.242
721.60 0.2419
721.70 0.2418
721.80 0.2416
721.90 0.2415
722.00 0.2414
722.10 0.2412
722.20 0.2411
722.30 0.241
722.40 0.2408
722.50 0.2407
722.60 0.2406
722.70 0.2405
722.80 0.2403
722.90 0.2402
723.00 0.2401
723.10 0.2399
723.20 0.2398
723.30 0.2397
723.40 0.2396
723.50 0.2394
723.60 0.2393
723.70 0.2392
723.80 0.239
723.90 0.2389
724.00 0.2388
724.10 0.2387
724.20 0.2385
724.30 0.2384
724.40 0.2383
724.50 0.2381
724.60 0.238
724.70 0.2379
724.80 0.2378
724.90 0.2376
725.00 0.2375
725.10 0.2374
725.20 0.2373
725.30 0.2371
725.40 0.237
725.50 0.2369
725.60 0.2367
725.70 0.2366
725.80 0.2365
725.90 0.2364
726.00 0.2362
726.10 0.2361
726.20 0.236
726.30 0.2359
726.40 0.2357
726.50 0.2356
726.60 0.2355
726.70 0.2354
726.80 0.2352
726.90 0.2351
727.00 0.235
727.10 0.2349
727.20 0.2347
727.30 0.2346
727.40 0.2345
727.50 0.2344
727.60 0.2342
727.70 0.2341
727.80 0.234
727.90 0.2339
728.00 0.2337
728.10 0.2336
728.20 0.2335
728.30 0.2334
728.40 0.2332
728.50 0.2331
728.60 0.233
728.70 0.2329
728.80 0.2327
728.90 0.2326
729.00 0.2325
729.10 0.2324
729.20 0.2322
729.30 0.2321
729.40 0.232
729.50 0.2319
729.60 0.2317
729.70 0.2316
729.80 0.2315
729.90 0.2314
730.00 0.2312
730.10 0.2311
730.20 0.231
730.30 0.2309
730.40 0.2308
730.50 0.2306
730.60 0.2305
730.70 0.2304
730.80 0.2303
730.90 0.2302
731.00 0.23
731.10 0.2299
731.20 0.2298
731.30 0.2297
731.40 0.2295
731.50 0.2294
731.60 0.2293
731.70 0.2292
731.80 0.2291
731.90 0.2289
732.00 0.2288
732.10 0.2287
732.20 0.2286
732.30 0.2285
732.40 0.2283
732.50 0.2282
732.60 0.2281
732.70 0.228
732.80 0.2279
732.90 0.2277
733.00 0.2276
733.10 0.2275
733.20 0.2274
733.30 0.2273
733.40 0.2271
733.50 0.227
733.60 0.2269
733.70 0.2268
733.80 0.2267
733.90 0.2265
734.00 0.2264
734.10 0.2263
734.20 0.2262
734.30 0.2261
734.40 0.2259
734.50 0.2258
734.60 0.2257
734.70 0.2256
734.80 0.2255
734.90 0.2253
735.00 0.2252
735.10 0.2251
735.20 0.225
735.30 0.2249
735.40 0.2248
735.50 0.2246
735.60 0.2245
735.70 0.2244
735.80 0.2243
735.90 0.2242
736.00 0.224
736.10 0.2239
736.20 0.2238
736.30 0.2237
736.40 0.2236
736.50 0.2234
736.60 0.2233
736.70 0.2232
736.80 0.2231
736.90 0.223
737.00 0.2229
737.10 0.2227
737.20 0.2226
737.30 0.2225
737.40 0.2224
737.50 0.2223
737.60 0.2222
737.70 0.222
737.80 0.2219
737.90 0.2218
738.00 0.2217
738.10 0.2216
738.20 0.2214
738.30 0.2213
738.40 0.2212
738.50 0.2211
738.60 0.221
738.70 0.2209
738.80 0.2207
738.90 0.2206
739.00 0.2205
739.10 0.2204
739.20 0.2203
739.30 0.2202
739.40 0.22
739.50 0.2199
739.60 0.2198
739.70 0.2197
739.80 0.2196
739.90 0.2195
740.00 0.2193
740.10 0.2192
740.20 0.2191
740.30 0.219
740.40 0.2189
740.50 0.2188
740.60 0.2187
740.70 0.2185
740.80 0.2184
740.90 0.2183
741.00 0.2182
741.10 0.2181
741.20 0.218
741.30 0.2179
741.40 0.2178
741.50 0.2176
741.60 0.2175
741.70 0.2174
741.80 0.2173
741.90 0.2172
742.00 0.2171
742.10 0.217
742.20 0.2168
742.30 0.2167
742.40 0.2166
742.50 0.2165
742.60 0.2164
742.70 0.2163
742.80 0.2162
742.90 0.2161
743.00 0.2159
743.10 0.2158
743.20 0.2157
743.30 0.2156
743.40 0.2155
743.50 0.2154
743.60 0.2153
743.70 0.2152
743.80 0.215
743.90 0.2149
744.00 0.2148
744.10 0.2147
744.20 0.2146
744.30 0.2145
744.40 0.2144
744.50 0.2143
744.60 0.2142
744.70 0.214
744.80 0.2139
744.90 0.2138
745.00 0.2137
745.10 0.2136
745.20 0.2135
745.30 0.2134
745.40 0.2133
745.50 0.2132
745.60 0.213
745.70 0.2129
745.80 0.2128
745.90 0.2127
746.00 0.2126
746.10 0.2125
746.20 0.2124
746.30 0.2123
746.40 0.2122
746.50 0.212
746.60 0.2119
746.70 0.2118
746.80 0.2117
746.90 0.2116
747.00 0.2115
747.10 0.2114
747.20 0.2113
747.30 0.2112
747.40 0.211
747.50 0.2109
747.60 0.2108
747.70 0.2107
747.80 0.2106
747.90 0.2105
748.00 0.2104
748.10 0.2103
748.20 0.2102
748.30 0.2101
748.40 0.2099
748.50 0.2098
748.60 0.2097
748.70 0.2096
748.80 0.2095
748.90 0.2094
749.00 0.2093
749.10 0.2092
749.20 0.2091
749.30 0.209
749.40 0.2089
749.50 0.2087
749.60 0.2086
749.70 0.2085
749.80 0.2084
749.90 0.2083
750.00 0.2082
750.10 0.2081
750.20 0.208
750.30 0.2079
750.40 0.2078
750.50 0.2077
750.60 0.2076
750.70 0.2075
750.80 0.2073
750.90 0.2072
751.00 0.2071
751.10 0.207
751.20 0.2069
751.30 0.2068
751.40 0.2067
751.50 0.2066
751.60 0.2065
751.70 0.2064
751.80 0.2063
751.90 0.2062
752.00 0.2061
752.10 0.206
752.20 0.2059
752.30 0.2058
752.40 0.2056
752.50 0.2055
752.60 0.2054
752.70 0.2053
752.80 0.2052
752.90 0.2051
753.00 0.205
753.10 0.2049
753.20 0.2048
753.30 0.2047
753.40 0.2046
753.50 0.2045
753.60 0.2044
753.70 0.2043
753.80 0.2042
753.90 0.2041
754.00 0.204
754.10 0.2039
754.20 0.2038
754.30 0.2037
754.40 0.2035
754.50 0.2034
754.60 0.2033
754.70 0.2032
754.80 0.2031
754.90 0.203
755.00 0.2029
755.10 0.2028
755.20 0.2027
755.30 0.2026
755.40 0.2025
755.50 0.2024
755.60 0.2023
755.70 0.2022
755.80 0.2021
755.90 0.202
756.00 0.2019
756.10 0.2018
756.20 0.2017
756.30 0.2016
756.40 0.2015
756.50 0.2014
756.60 0.2013
756.70 0.2011
756.80 0.201
756.90 0.2009
757.00 0.2008
757.10 0.2007
757.20 0.2006
757.30 0.2005
757.40 0.2004
757.50 0.2003
757.60 0.2002
757.70 0.2001
757.80 0.2
757.90 0.1999
758.00 0.1998
758.10 0.1997
758.20 0.1996
758.30 0.1995
758.40 0.1994
758.50 0.1993
758.60 0.1992
758.70 0.1991
758.80 0.199
758.90 0.1989
759.00 0.1988
759.10 0.1987
759.20 0.1986
759.30 0.1985
759.40 0.1984
759.50 0.1983
759.60 0.1982
759.70 0.1981
759.80 0.198
759.90 0.1979
760.00 0.1978
760.10 0.1977
760.20 0.1976
760.30 0.1975
760.40 0.1974
760.50 0.1973
760.60 0.1972
760.70 0.1971
760.80 0.197
760.90 0.1969
761.00 0.1968
761.10 0.1967
761.20 0.1966
761.30 0.1965
761.40 0.1964
761.50 0.1963
761.60 0.1962
761.70 0.1961
761.80 0.196
761.90 0.1959
762.00 0.1958
762.10 0.1957
762.20 0.1956
762.30 0.1955
762.40 0.1954
762.50 0.1953
762.60 0.1952
762.70 0.1951
762.80 0.195
762.90 0.1949
763.00 0.1948
763.10 0.1947
763.20 0.1946
763.30 0.1945
763.40 0.1944
763.50 0.1943
763.60 0.1942
763.70 0.1941
763.80 0.194
763.90 0.1939
764.00 0.1938
764.10 0.1937
764.20 0.1936
764.30 0.1935
764.40 0.1934
764.50 0.1933
764.60 0.1932
764.70 0.1931
764.80 0.193
764.90 0.1929
765.00 0.1928
765.10 0.1927
765.20 0.1926
765.30 0.1925
765.40 0.1924
765.50 0.1923
765.60 0.1922
765.70 0.1921
765.80 0.192
765.90 0.1919
766.00 0.1918
766.10 0.1917
766.20 0.1916
766.30 0.1915
766.40 0.1914
766.50 0.1913
766.60 0.1912
766.70 0.1911
766.80 0.191
766.90 0.1909
767.00 0.1909
767.10 0.1908
767.20 0.1907
767.30 0.1906
767.40 0.1905
767.50 0.1904
767.60 0.1903
767.70 0.1902
767.80 0.1901
767.90 0.19
768.00 0.1899
768.10 0.1898
768.20 0.1897
768.30 0.1896
768.40 0.1895
768.50 0.1894
768.60 0.1893
768.70 0.1892
768.80 0.1891
768.90 0.189
769.00 0.1889
769.10 0.1888
769.20 0.1887
769.30 0.1886
769.40 0.1885
769.50 0.1884
769.60 0.1883
769.70 0.1882
769.80 0.1882
769.90 0.1881
770.00 0.188
770.10 0.1879
770.20 0.1878
770.30 0.1877
770.40 0.1876
770.50 0.1875
770.60 0.1874
770.70 0.1873
770.80 0.1872
770.90 0.1871
771.00 0.187
771.10 0.1869
771.20 0.1868
771.30 0.1867
771.40 0.1866
771.50 0.1866
771.60 0.1865
771.70 0.1864
771.80 0.1863
771.90 0.1862
772.00 0.1861
772.10 0.186
772.20 0.1859
772.30 0.1858
772.40 0.1857
772.50 0.1856
772.60 0.1855
772.70 0.1854
772.80 0.1853
772.90 0.1852
773.00 0.1852
773.10 0.1851
773.20 0.185
773.30 0.1849
773.40 0.1848
773.50 0.1847
773.60 0.1846
773.70 0.1845
773.80 0.1844
773.90 0.1843
774.00 0.1842
774.10 0.1841
774.20 0.184
774.30 0.184
774.40 0.1839
774.50 0.1838
774.60 0.1837
774.70 0.1836
774.80 0.1835
774.90 0.1834
775.00 0.1833
775.10 0.1832
775.20 0.1831
775.30 0.183
775.40 0.1829
775.50 0.1829
775.60 0.1828
775.70 0.1827
775.80 0.1826
775.90 0.1825
776.00 0.1824
776.10 0.1823
776.20 0.1822
776.30 0.1821
776.40 0.182
776.50 0.1819
776.60 0.1818
776.70 0.1818
776.80 0.1817
776.90 0.1816
777.00 0.1815
777.10 0.1814
777.20 0.1813
777.30 0.1812
777.40 0.1811
777.50 0.181
777.60 0.1809
777.70 0.1808
777.80 0.1808
777.90 0.1807
778.00 0.1806
778.10 0.1805
778.20 0.1804
778.30 0.1803
778.40 0.1802
778.50 0.1801
778.60 0.18
778.70 0.1799
778.80 0.1798
778.90 0.1798
779.00 0.1797
779.10 0.1796
779.20 0.1795
779.30 0.1794
779.40 0.1793
779.50 0.1792
779.60 0.1791
779.70 0.179
779.80 0.1789
779.90 0.1789
780.00 0.1788
780.10 0.1787
780.20 0.1786
780.30 0.1785
780.40 0.1784
780.50 0.1783
780.60 0.1782
780.70 0.1781
780.80 0.1781
780.90 0.178
781.00 0.1779
781.10 0.1778
781.20 0.1777
781.30 0.1776
781.40 0.1775
781.50 0.1774
781.60 0.1774
781.70 0.1773
781.80 0.1772
781.90 0.1771
782.00 0.177
782.10 0.1769
782.20 0.1768
782.30 0.1767
782.40 0.1767
782.50 0.1766
782.60 0.1765
782.70 0.1764
782.80 0.1763
782.90 0.1762
783.00 0.1761
783.10 0.176
783.20 0.176
783.30 0.1759
783.40 0.1758
783.50 0.1757
783.60 0.1756
783.70 0.1755
783.80 0.1754
783.90 0.1753
784.00 0.1753
784.10 0.1752
784.20 0.1751
784.30 0.175
784.40 0.1749
784.50 0.1748
784.60 0.1747
784.70 0.1747
784.80 0.1746
784.90 0.1745
785.00 0.1744
785.10 0.1743
785.20 0.1742
785.30 0.1741
785.40 0.1741
785.50 0.174
785.60 0.1739
785.70 0.1738
785.80 0.1737
785.90 0.1736
786.00 0.1735
786.10 0.1734
786.20 0.1734
786.30 0.1733
786.40 0.1732
786.50 0.1731
786.60 0.173
786.70 0.1729
786.80 0.1728
786.90 0.1728
787.00 0.1727
787.10 0.1726
787.20 0.1725
787.30 0.1724
787.40 0.1723
787.50 0.1722
787.60 0.1722
787.70 0.1721
787.80 0.172
787.90 0.1719
788.00 0.1718
788.10 0.1717
788.20 0.1717
788.30 0.1716
788.40 0.1715
788.50 0.1714
788.60 0.1713
788.70 0.1712
788.80 0.1711
788.90 0.1711
789.00 0.171
789.10 0.1709
789.20 0.1708
789.30 0.1707
789.40 0.1706
789.50 0.1705
789.60 0.1705
789.70 0.1704
789.80 0.1703
789.90 0.1702
790.00 0.1701
790.10 0.17
790.20 0.17
790.30 0.1699
790.40 0.1698
790.50 0.1697
790.60 0.1696
790.70 0.1695
790.80 0.1695
790.90 0.1694
791.00 0.1693
791.10 0.1692
791.20 0.1691
791.30 0.169
791.40 0.169
791.50 0.1689
791.60 0.1688
791.70 0.1687
791.80 0.1686
791.90 0.1686
792.00 0.1685
792.10 0.1684
792.20 0.1683
792.30 0.1682
792.40 0.1681
792.50 0.1681
792.60 0.168
792.70 0.1679
792.80 0.1678
792.90 0.1677
793.00 0.1676
793.10 0.1676
793.20 0.1675
793.30 0.1674
793.40 0.1673
793.50 0.1672
793.60 0.1672
793.70 0.1671
793.80 0.167
793.90 0.1669
794.00 0.1668
794.10 0.1668
794.20 0.1667
794.30 0.1666
794.40 0.1665
794.50 0.1664
794.60 0.1663
794.70 0.1663
794.80 0.1662
794.90 0.1661
795.00 0.166
795.10 0.1659
795.20 0.1659
795.30 0.1658
795.40 0.1657
795.50 0.1656
795.60 0.1655
795.70 0.1655
795.80 0.1654
795.90 0.1653
796.00 0.1652
796.10 0.1651
796.20 0.165
796.30 0.165
796.40 0.1649
796.50 0.1648
796.60 0.1647
796.70 0.1646
796.80 0.1646
796.90 0.1645
797.00 0.1644
797.10 0.1643
797.20 0.1642
797.30 0.1642
797.40 0.1641
797.50 0.164
797.60 0.1639
797.70 0.1638
797.80 0.1638
797.90 0.1637
798.00 0.1636
798.10 0.1635
798.20 0.1634
798.30 0.1634
798.40 0.1633
798.50 0.1632
798.60 0.1631
798.70 0.163
798.80 0.163
798.90 0.1629
799.00 0.1628
799.10 0.1627
799.20 0.1626
799.30 0.1626
799.40 0.1625
799.50 0.1624
799.60 0.1623
799.70 0.1622
799.80 0.1622
799.90 0.1621
800.00 0.162
800.10 0.1619
800.20 0.1618
800.30 0.1618
800.40 0.1617
800.50 0.1616
800.60 0.1615
800.70 0.1615
800.80 0.1614
800.90 0.1613
801.00 0.1612
801.10 0.1611
801.20 0.1611
801.30 0.161
801.40 0.1609
801.50 0.1608
801.60 0.1608
801.70 0.1607
801.80 0.1606
801.90 0.1605
802.00 0.1604
802.10 0.1604
802.20 0.1603
802.30 0.1602
802.40 0.1601
802.50 0.1601
802.60 0.16
802.70 0.1599
802.80 0.1598
802.90 0.1598
803.00 0.1597
803.10 0.1596
803.20 0.1595
803.30 0.1594
803.40 0.1594
803.50 0.1593
803.60 0.1592
803.70 0.1591
803.80 0.1591
803.90 0.159
804.00 0.1589
804.10 0.1588
804.20 0.1588
804.30 0.1587
804.40 0.1586
804.50 0.1585
804.60 0.1584
804.70 0.1584
804.80 0.1583
804.90 0.1582
805.00 0.1581
805.10 0.1581
805.20 0.158
805.30 0.1579
805.40 0.1578
805.50 0.1578
805.60 0.1577
805.70 0.1576
805.80 0.1575
805.90 0.1575
806.00 0.1574
806.10 0.1573
806.20 0.1572
806.30 0.1571
806.40 0.1571
806.50 0.157
806.60 0.1569
806.70 0.1568
806.80 0.1568
806.90 0.1567
807.00 0.1566
807.10 0.1565
807.20 0.1565
807.30 0.1564
807.40 0.1563
807.50 0.1562
807.60 0.1562
807.70 0.1561
807.80 0.156
807.90 0.1559
808.00 0.1559
808.10 0.1558
808.20 0.1557
808.30 0.1556
808.40 0.1556
808.50 0.1555
808.60 0.1554
808.70 0.1553
808.80 0.1553
808.90 0.1552
809.00 0.1551
809.10 0.155
809.20 0.155
809.30 0.1549
809.40 0.1548
809.50 0.1547
809.60 0.1547
809.70 0.1546
809.80 0.1545
809.90 0.1544
810.00 0.1544
810.10 0.1543
810.20 0.1542
810.30 0.1541
810.40 0.1541
810.50 0.154
810.60 0.1539
810.70 0.1538
810.80 0.1538
810.90 0.1537
811.00 0.1536
811.10 0.1536
811.20 0.1535
811.30 0.1534
811.40 0.1533
811.50 0.1533
811.60 0.1532
811.70 0.1531
811.80 0.153
811.90 0.153
812.00 0.1529
812.10 0.1528
812.20 0.1527
812.30 0.1527
812.40 0.1526
812.50 0.1525
812.60 0.1525
812.70 0.1524
812.80 0.1523
812.90 0.1522
813.00 0.1522
813.10 0.1521
813.20 0.152
813.30 0.152
813.40 0.1519
813.50 0.1518
813.60 0.1517
813.70 0.1517
813.80 0.1516
813.90 0.1515
814.00 0.1514
814.10 0.1514
814.20 0.1513
814.30 0.1512
814.40 0.1512
814.50 0.1511
814.60 0.151
814.70 0.1509
814.80 0.1509
814.90 0.1508
815.00 0.1507
815.10 0.1507
815.20 0.1506
815.30 0.1505
815.40 0.1504
815.50 0.1504
815.60 0.1503
815.70 0.1502
815.80 0.1501
815.90 0.1501
816.00 0.15
816.10 0.1499
816.20 0.1499
816.30 0.1498
816.40 0.1497
816.50 0.1496
816.60 0.1496
816.70 0.1495
816.80 0.1494
816.90 0.1494
817.00 0.1493
817.10 0.1492
817.20 0.1491
817.30 0.1491
817.40 0.149
817.50 0.1489
817.60 0.1489
817.70 0.1488
817.80 0.1487
817.90 0.1486
818.00 0.1486
818.10 0.1485
818.20 0.1484
818.30 0.1484
818.40 0.1483
818.50 0.1482
818.60 0.1482
818.70 0.1481
818.80 0.148
818.90 0.1479
819.00 0.1479
819.10 0.1478
819.20 0.1477
819.30 0.1477
819.40 0.1476
819.50 0.1475
819.60 0.1474
819.70 0.1474
819.80 0.1473
819.90 0.1472
820.00 0.1472
820.10 0.1471
820.20 0.147
820.30 0.147
820.40 0.1469
820.50 0.1468
820.60 0.1467
820.70 0.1467
820.80 0.1466
820.90 0.1465
821.00 0.1465
821.10 0.1464
821.20 0.1463
821.30 0.1463
821.40 0.1462
821.50 0.1461
821.60 0.1461
821.70 0.146
821.80 0.1459
821.90 0.1458
822.00 0.1458
822.10 0.1457
822.20 0.1456
822.30 0.1456
822.40 0.1455
822.50 0.1454
822.60 0.1454
822.70 0.1453
822.80 0.1452
822.90 0.1452
823.00 0.1451
823.10 0.145
823.20 0.145
823.30 0.1449
823.40 0.1448
823.50 0.1447
823.60 0.1447
823.70 0.1446
823.80 0.1445
823.90 0.1445
824.00 0.1444
824.10 0.1443
824.20 0.1443
824.30 0.1442
824.40 0.1441
824.50 0.1441
824.60 0.144
824.70 0.1439
824.80 0.1439
824.90 0.1438
825.00 0.1437
825.10 0.1437
825.20 0.1436
825.30 0.1435
825.40 0.1435
825.50 0.1434
825.60 0.1433
825.70 0.1433
825.80 0.1432
825.90 0.1431
826.00 0.143
826.10 0.143
826.20 0.1429
826.30 0.1428
826.40 0.1428
826.50 0.1427
826.60 0.1426
826.70 0.1426
826.80 0.1425
826.90 0.1424
827.00 0.1424
827.10 0.1423
827.20 0.1422
827.30 0.1422
827.40 0.1421
827.50 0.142
827.60 0.142
827.70 0.1419
827.80 0.1418
827.90 0.1418
828.00 0.1417
828.10 0.1416
828.20 0.1416
828.30 0.1415
828.40 0.1414
828.50 0.1414
828.60 0.1413
828.70 0.1412
828.80 0.1412
828.90 0.1411
829.00 0.141
829.10 0.141
829.20 0.1409
829.30 0.1408
829.40 0.1408
829.50 0.1407
829.60 0.1406
829.70 0.1406
829.80 0.1405
829.90 0.1405
830.00 0.1404
830.10 0.1403
830.20 0.1403
830.30 0.1402
830.40 0.1401
830.50 0.1401
830.60 0.14
830.70 0.1399
830.80 0.1399
830.90 0.1398
831.00 0.1397
831.10 0.1397
831.20 0.1396
831.30 0.1395
831.40 0.1395
831.50 0.1394
831.60 0.1393
831.70 0.1393
831.80 0.1392
831.90 0.1391
832.00 0.1391
832.10 0.139
832.20 0.1389
832.30 0.1389
832.40 0.1388
832.50 0.1387
832.60 0.1387
832.70 0.1386
832.80 0.1386
832.90 0.1385
833.00 0.1384
833.10 0.1384
833.20 0.1383
833.30 0.1382
833.40 0.1382
833.50 0.1381
833.60 0.138
833.70 0.138
833.80 0.1379
833.90 0.1378
834.00 0.1378
834.10 0.1377
834.20 0.1377
834.30 0.1376
834.40 0.1375
834.50 0.1375
834.60 0.1374
834.70 0.1373
834.80 0.1373
834.90 0.1372
835.00 0.1371
835.10 0.1371
835.20 0.137
835.30 0.1369
835.40 0.1369
835.50 0.1368
835.60 0.1368
835.70 0.1367
835.80 0.1366
835.90 0.1366
836.00 0.1365
836.10 0.1364
836.20 0.1364
836.30 0.1363
836.40 0.1362
836.50 0.1362
836.60 0.1361
836.70 0.1361
836.80 0.136
836.90 0.1359
837.00 0.1359
837.10 0.1358
837.20 0.1357
837.30 0.1357
837.40 0.1356
837.50 0.1355
837.60 0.1355
837.70 0.1354
837.80 0.1354
837.90 0.1353
838.00 0.1352
838.10 0.1352
838.20 0.1351
838.30 0.135
838.40 0.135
838.50 0.1349
838.60 0.1349
838.70 0.1348
838.80 0.1347
838.90 0.1347
839.00 0.1346
839.10 0.1345
839.20 0.1345
839.30 0.1344
839.40 0.1344
839.50 0.1343
839.60 0.1342
839.70 0.1342
839.80 0.1341
839.90 0.134
840.00 0.134
840.10 0.1339
840.20 0.1339
840.30 0.1338
840.40 0.1337
840.50 0.1337
840.60 0.1336
840.70 0.1336
840.80 0.1335
840.90 0.1334
841.00 0.1334
841.10 0.1333
841.20 0.1332
841.30 0.1332
841.40 0.1331
841.50 0.1331
841.60 0.133
841.70 0.1329
841.80 0.1329
841.90 0.1328
842.00 0.1327
842.10 0.1327
842.20 0.1326
842.30 0.1326
842.40 0.1325
842.50 0.1324
842.60 0.1324
842.70 0.1323
842.80 0.1323
842.90 0.1322
843.00 0.1321
843.10 0.1321
843.20 0.132
843.30 0.132
843.40 0.1319
843.50 0.1318
843.60 0.1318
843.70 0.1317
843.80 0.1316
843.90 0.1316
844.00 0.1315
844.10 0.1315
844.20 0.1314
844.30 0.1313
844.40 0.1313
844.50 0.1312
844.60 0.1312
844.70 0.1311
844.80 0.131
844.90 0.131
845.00 0.1309
845.10 0.1309
845.20 0.1308
845.30 0.1307
845.40 0.1307
845.50 0.1306
845.60 0.1306
845.70 0.1305
845.80 0.1304
845.90 0.1304
846.00 0.1303
846.10 0.1303
846.20 0.1302
846.30 0.1301
846.40 0.1301
846.50 0.13
846.60 0.13
846.70 0.1299
846.80 0.1298
846.90 0.1298
847.00 0.1297
847.10 0.1297
847.20 0.1296
847.30 0.1295
847.40 0.1295
847.50 0.1294
847.60 0.1294
847.70 0.1293
847.80 0.1292
847.90 0.1292
848.00 0.1291
848.10 0.1291
848.20 0.129
848.30 0.1289
848.40 0.1289
848.50 0.1288
848.60 0.1288
848.70 0.1287
848.80 0.1287
848.90 0.1286
849.00 0.1285
849.10 0.1285
849.20 0.1284
849.30 0.1284
849.40 0.1283
849.50 0.1282
849.60 0.1282
849.70 0.1281
849.80 0.1281
849.90 0.128
850.00 0.1279
850.10 0.1279
850.20 0.1278
850.30 0.1278
850.40 0.1277
850.50 0.1277
850.60 0.1276
850.70 0.1275
850.80 0.1275
850.90 0.1274
851.00 0.1274
851.10 0.1273
851.20 0.1272
851.30 0.1272
851.40 0.1271
851.50 0.1271
851.60 0.127
851.70 0.127
851.80 0.1269
851.90 0.1268
852.00 0.1268
852.10 0.1267
852.20 0.1267
852.30 0.1266
852.40 0.1265
852.50 0.1265
852.60 0.1264
852.70 0.1264
852.80 0.1263
852.90 0.1263
853.00 0.1262
853.10 0.1261
853.20 0.1261
853.30 0.126
853.40 0.126
853.50 0.1259
853.60 0.1259
853.70 0.1258
853.80 0.1257
853.90 0.1257
854.00 0.1256
854.10 0.1256
854.20 0.1255
854.30 0.1255
854.40 0.1254
854.50 0.1253
854.60 0.1253
854.70 0.1252
854.80 0.1252
854.90 0.1251
855.00 0.1251
855.10 0.125
855.20 0.1249
855.30 0.1249
855.40 0.1248
855.50 0.1248
855.60 0.1247
855.70 0.1247
855.80 0.1246
855.90 0.1245
856.00 0.1245
856.10 0.1244
856.20 0.1244
856.30 0.1243
856.40 0.1243
856.50 0.1242
856.60 0.1241
856.70 0.1241
856.80 0.124
856.90 0.124
857.00 0.1239
857.10 0.1239
857.20 0.1238
857.30 0.1237
857.40 0.1237
857.50 0.1236
857.60 0.1236
857.70 0.1235
857.80 0.1235
857.90 0.1234
858.00 0.1234
858.10 0.1233
858.20 0.1232
858.30 0.1232
858.40 0.1231
858.50 0.1231
858.60 0.123
858.70 0.123
858.80 0.1229
858.90 0.1229
859.00 0.1228
859.10 0.1227
859.20 0.1227
859.30 0.1226
859.40 0.1226
859.50 0.1225
859.60 0.1225
859.70 0.1224
859.80 0.1224
859.90 0.1223
860.00 0.1222
860.10 0.1222
860.20 0.1221
860.30 0.1221
860.40 0.122
860.50 0.122
860.60 0.1219
860.70 0.1219
860.80 0.1218
860.90 0.1217
861.00 0.1217
861.10 0.1216
861.20 0.1216
861.30 0.1215
861.40 0.1215
861.50 0.1214
861.60 0.1214
861.70 0.1213
861.80 0.1213
861.90 0.1212
862.00 0.1211
862.10 0.1211
862.20 0.121
862.30 0.121
862.40 0.1209
862.50 0.1209
862.60 0.1208
862.70 0.1208
862.80 0.1207
862.90 0.1207
863.00 0.1206
863.10 0.1205
863.20 0.1205
863.30 0.1204
863.40 0.1204
863.50 0.1203
863.60 0.1203
863.70 0.1202
863.80 0.1202
863.90 0.1201
864.00 0.1201
864.10 0.12
864.20 0.1199
864.30 0.1199
864.40 0.1198
864.50 0.1198
864.60 0.1197
864.70 0.1197
864.80 0.1196
864.90 0.1196
865.00 0.1195
865.10 0.1195
865.20 0.1194
865.30 0.1194
865.40 0.1193
865.50 0.1192
865.60 0.1192
865.70 0.1191
865.80 0.1191
865.90 0.119
866.00 0.119
866.10 0.1189
866.20 0.1189
866.30 0.1188
866.40 0.1188
866.50 0.1187
866.60 0.1187
866.70 0.1186
866.80 0.1186
866.90 0.1185
867.00 0.1184
867.10 0.1184
867.20 0.1183
867.30 0.1183
867.40 0.1182
867.50 0.1182
867.60 0.1181
867.70 0.1181
867.80 0.118
867.90 0.118
868.00 0.1179
868.10 0.1179
868.20 0.1178
868.30 0.1178
868.40 0.1177
868.50 0.1177
868.60 0.1176
868.70 0.1175
868.80 0.1175
868.90 0.1174
869.00 0.1174
869.10 0.1173
869.20 0.1173
869.30 0.1172
869.40 0.1172
869.50 0.1171
869.60 0.1171
869.70 0.117
869.80 0.117
869.90 0.1169
870.00 0.1169
870.10 0.1168
870.20 0.1168
870.30 0.1167
870.40 0.1167
870.50 0.1166
870.60 0.1165
870.70 0.1165
870.80 0.1164
870.90 0.1164
871.00 0.1163
871.10 0.1163
871.20 0.1162
871.30 0.1162
871.40 0.1161
871.50 0.1161
871.60 0.116
871.70 0.116
871.80 0.1159
871.90 0.1159
872.00 0.1158
872.10 0.1158
872.20 0.1157
872.30 0.1157
872.40 0.1156
872.50 0.1156
872.60 0.1155
872.70 0.1155
872.80 0.1154
872.90 0.1154
873.00 0.1153
873.10 0.1153
873.20 0.1152
873.30 0.1152
873.40 0.1151
873.50 0.1151
873.60 0.115
873.70 0.1149
873.80 0.1149
873.90 0.1148
874.00 0.1148
874.10 0.1147
874.20 0.1147
874.30 0.1146
874.40 0.1146
874.50 0.1145
874.60 0.1145
874.70 0.1144
874.80 0.1144
874.90 0.1143
875.00 0.1143
875.10 0.1142
875.20 0.1142
875.30 0.1141
875.40 0.1141
875.50 0.114
875.60 0.114
875.70 0.1139
875.80 0.1139
875.90 0.1138
876.00 0.1138
876.10 0.1137
876.20 0.1137
876.30 0.1136
876.40 0.1136
876.50 0.1135
876.60 0.1135
876.70 0.1134
876.80 0.1134
876.90 0.1133
877.00 0.1133
877.10 0.1132
877.20 0.1132
877.30 0.1131
877.40 0.1131
877.50 0.113
877.60 0.113
877.70 0.1129
877.80 0.1129
877.90 0.1128
878.00 0.1128
878.10 0.1127
878.20 0.1127
878.30 0.1126
878.40 0.1126
878.50 0.1125
878.60 0.1125
878.70 0.1124
878.80 0.1124
878.90 0.1123
879.00 0.1123
879.10 0.1122
879.20 0.1122
879.30 0.1121
879.40 0.1121
879.50 0.112
879.60 0.112
879.70 0.1119
879.80 0.1119
879.90 0.1118
880.00 0.1118
880.10 0.1117
880.20 0.1117
880.30 0.1116
880.40 0.1116
880.50 0.1115
880.60 0.1115
880.70 0.1114
880.80 0.1114
880.90 0.1113
881.00 0.1113
881.10 0.1112
881.20 0.1112
881.30 0.1111
881.40 0.1111
881.50 0.111
881.60 0.111
881.70 0.1109
881.80 0.1109
881.90 0.1108
882.00 0.1108
882.10 0.1107
882.20 0.1107
882.30 0.1106
882.40 0.1106
882.50 0.1106
882.60 0.1105
882.70 0.1105
882.80 0.1104
882.90 0.1104
883.00 0.1103
883.10 0.1103
883.20 0.1102
883.30 0.1102
883.40 0.1101
883.50 0.1101
883.60 0.11
883.70 0.11
883.80 0.1099
883.90 0.1099
884.00 0.1098
884.10 0.1098
884.20 0.1097
884.30 0.1097
884.40 0.1096
884.50 0.1096
884.60 0.1095
884.70 0.1095
884.80 0.1094
884.90 0.1094
885.00 0.1094
885.10 0.1093
885.20 0.1093
885.30 0.1092
885.40 0.1092
885.50 0.1091
885.60 0.1091
885.70 0.109
885.80 0.109
885.90 0.1089
886.00 0.1089
886.10 0.1088
886.20 0.1088
886.30 0.1087
886.40 0.1087
886.50 0.1086
886.60 0.1086
886.70 0.1085
886.80 0.1085
886.90 0.1084
887.00 0.1084
887.10 0.1084
887.20 0.1083
887.30 0.1083
887.40 0.1082
887.50 0.1082
887.60 0.1081
887.70 0.1081
887.80 0.108
887.90 0.108
888.00 0.1079
888.10 0.1079
888.20 0.1078
888.30 0.1078
888.40 0.1077
888.50 0.1077
888.60 0.1076
888.70 0.1076
888.80 0.1075
888.90 0.1075
889.00 0.1075
889.10 0.1074
889.20 0.1074
889.30 0.1073
889.40 0.1073
889.50 0.1072
889.60 0.1072
889.70 0.1071
889.80 0.1071
889.90 0.107
890.00 0.107
890.10 0.1069
890.20 0.1069
890.30 0.1068
890.40 0.1068
890.50 0.1067
890.60 0.1067
890.70 0.1067
890.80 0.1066
890.90 0.1066
891.00 0.1065
891.10 0.1065
891.20 0.1064
891.30 0.1064
891.40 0.1063
891.50 0.1063
891.60 0.1062
891.70 0.1062
891.80 0.1061
891.90 0.1061
892.00 0.106
892.10 0.106
892.20 0.106
892.30 0.1059
892.40 0.1059
892.50 0.1058
892.60 0.1058
892.70 0.1057
892.80 0.1057
892.90 0.1056
893.00 0.1056
893.10 0.1055
893.20 0.1055
893.30 0.1054
893.40 0.1054
893.50 0.1054
893.60 0.1053
893.70 0.1053
893.80 0.1052
893.90 0.1052
894.00 0.1051
894.10 0.1051
894.20 0.105
894.30 0.105
894.40 0.1049
894.50 0.1049
894.60 0.1048
894.70 0.1048
894.80 0.1048
894.90 0.1047
895.00 0.1047
895.10 0.1046
895.20 0.1046
895.30 0.1045
895.40 0.1045
895.50 0.1044
895.60 0.1044
895.70 0.1043
895.80 0.1043
895.90 0.1043
896.00 0.1042
896.10 0.1042
896.20 0.1041
896.30 0.1041
896.40 0.104
896.50 0.104
896.60 0.1039
896.70 0.1039
896.80 0.1038
896.90 0.1038
897.00 0.1038
897.10 0.1037
897.20 0.1037
897.30 0.1036
897.40 0.1036
897.50 0.1035
897.60 0.1035
897.70 0.1034
897.80 0.1034
897.90 0.1034
898.00 0.1033
898.10 0.1033
898.20 0.1032
898.30 0.1032
898.40 0.1031
898.50 0.1031
898.60 0.103
898.70 0.103
898.80 0.103
898.90 0.1029
899.00 0.1029
899.10 0.1028
899.20 0.1028
899.30 0.1027
899.40 0.1027
899.50 0.1026
899.60 0.1026
899.70 0.1026
899.80 0.1025
899.90 0.1025
900.00 0.1024
900.10 0.1024
900.20 0.1023
900.30 0.1023
900.40 0.1023
900.50 0.1022
900.60 0.1022
900.70 0.1021
900.80 0.1021
900.90 0.102
901.00 0.102
901.10 0.1019
901.20 0.1019
901.30 0.1019
901.40 0.1018
901.50 0.1018
901.60 0.1017
901.70 0.1017
901.80 0.1016
901.90 0.1016
902.00 0.1016
902.10 0.1015
902.20 0.1015
902.30 0.1014
902.40 0.1014
902.50 0.1013
902.60 0.1013
902.70 0.1012
902.80 0.1012
902.90 0.1012
903.00 0.1011
903.10 0.1011
903.20 0.101
903.30 0.101
903.40 0.1009
903.50 0.1009
903.60 0.1009
903.70 0.1008
903.80 0.1008
903.90 0.1007
904.00 0.1007
904.10 0.1006
904.20 0.1006
904.30 0.1006
904.40 0.1005
904.50 0.1005
904.60 0.1004
904.70 0.1004
904.80 0.1003
904.90 0.1003
905.00 0.1003
905.10 0.1002
905.20 0.1002
905.30 0.1001
905.40 0.1001
905.50 0.1
905.60 0.09999
905.70 0.09995
905.80 0.09991
905.90 0.09986
906.00 0.09982
906.10 0.09978
906.20 0.09973
906.30 0.09969
906.40 0.09965
906.50 0.0996
906.60 0.09956
906.70 0.09952
906.80 0.09948
906.90 0.09943
907.00 0.09939
907.10 0.09935
907.20 0.0993
907.30 0.09926
907.40 0.09922
907.50 0.09918
907.60 0.09914
907.70 0.09909
907.80 0.09905
907.90 0.09901
908.00 0.09897
908.10 0.09892
908.20 0.09888
908.30 0.09884
908.40 0.0988
908.50 0.09876
908.60 0.09871
908.70 0.09867
908.80 0.09863
908.90 0.09859
909.00 0.09854
909.10 0.0985
909.20 0.09846
909.30 0.09842
909.40 0.09838
909.50 0.09833
909.60 0.09829
909.70 0.09825
909.80 0.09821
909.90 0.09817
910.00 0.09812
910.10 0.09808
910.20 0.09804
910.30 0.098
910.40 0.09796
910.50 0.09792
910.60 0.09787
910.70 0.09783
910.80 0.09779
910.90 0.09775
911.00 0.09771
911.10 0.09766
911.20 0.09762
911.30 0.09758
911.40 0.09754
911.50 0.0975
911.60 0.09746
911.70 0.09741
911.80 0.09737
911.90 0.09733
912.00 0.09729
912.10 0.09725
912.20 0.09721
912.30 0.09716
912.40 0.09712
912.50 0.09708
912.60 0.09704
912.70 0.097
912.80 0.09695
912.90 0.09691
913.00 0.09687
913.10 0.09683
913.20 0.09679
913.30 0.09674
913.40 0.0967
913.50 0.09666
913.60 0.09662
913.70 0.09658
913.80 0.09653
913.90 0.09649
914.00 0.09645
914.10 0.09641
914.20 0.09637
914.30 0.09632
914.40 0.09628
914.50 0.09624
914.60 0.0962
914.70 0.09616
914.80 0.09612
914.90 0.09607
915.00 0.09603
915.10 0.09599
915.20 0.09595
915.30 0.09591
915.40 0.09587
915.50 0.09582
915.60 0.09578
915.70 0.09574
915.80 0.0957
915.90 0.09566
916.00 0.09562
916.10 0.09558
916.20 0.09553
916.30 0.09549
916.40 0.09545
916.50 0.09541
916.60 0.09537
916.70 0.09533
916.80 0.09529
916.90 0.09524
917.00 0.0952
917.10 0.09516
917.20 0.09512
917.30 0.09508
917.40 0.09504
917.50 0.095
917.60 0.09496
917.70 0.09492
917.80 0.09488
917.90 0.09484
918.00 0.0948
918.10 0.09476
918.20 0.09472
918.30 0.09467
918.40 0.09463
918.50 0.09459
918.60 0.09455
918.70 0.09451
918.80 0.09447
918.90 0.09443
919.00 0.09439
919.10 0.09435
919.20 0.09431
919.30 0.09427
919.40 0.09423
919.50 0.09419
919.60 0.09415
919.70 0.09411
919.80 0.09407
919.90 0.09403
920.00 0.09399
920.10 0.09395
920.20 0.09391
920.30 0.09387
920.40 0.09383
920.50 0.09379
920.60 0.09375
920.70 0.09371
920.80 0.09367
920.90 0.09363
921.00 0.09359
921.10 0.09355
921.20 0.09351
921.30 0.09347
921.40 0.09343
921.50 0.09339
921.60 0.09335
921.70 0.09331
921.80 0.09327
921.90 0.09323
922.00 0.09319
922.10 0.09315
922.20 0.09311
922.30 0.09307
922.40 0.09303
922.50 0.09299
922.60 0.09295
922.70 0.09291
922.80 0.09288
922.90 0.09284
923.00 0.0928
923.10 0.09276
923.20 0.09272
923.30 0.09268
923.40 0.09264
923.50 0.0926
923.60 0.09257
923.70 0.09253
923.80 0.09249
923.90 0.09245
924.00 0.09241
924.10 0.09237
924.20 0.09233
924.30 0.0923
924.40 0.09226
924.50 0.09222
924.60 0.09218
924.70 0.09214
924.80 0.0921
924.90 0.09206
925.00 0.09203
925.10 0.09199
925.20 0.09195
925.30 0.09191
925.40 0.09187
925.50 0.09183
925.60 0.0918
925.70 0.09176
925.80 0.09172
925.90 0.09168
926.00 0.09164
926.10 0.0916
926.20 0.09157
926.30 0.09153
926.40 0.09149
926.50 0.09145
926.60 0.09141
926.70 0.09137
926.80 0.09134
926.90 0.0913
927.00 0.09126
927.10 0.09122
927.20 0.09119
927.30 0.09115
927.40 0.09111
927.50 0.09108
927.60 0.09104
927.70 0.091
927.80 0.09097
927.90 0.09093
928.00 0.09089
928.10 0.09086
928.20 0.09082
928.30 0.09078
928.40 0.09075
928.50 0.09071
928.60 0.09067
928.70 0.09064
928.80 0.0906
928.90 0.09056
929.00 0.09053
929.10 0.09049
929.20 0.09045
929.30 0.09042
929.40 0.09038
929.50 0.09034
929.60 0.09031
929.70 0.09027
929.80 0.09023
929.90 0.0902
930.00 0.09016
930.10 0.09012
930.20 0.09009
930.30 0.09005
930.40 0.09001
930.50 0.08998
930.60 0.08994
930.70 0.08991
930.80 0.08987
930.90 0.08983
931.00 0.0898
931.10 0.08976
931.20 0.08972
931.30 0.08969
931.40 0.08965
931.50 0.08961
931.60 0.08958
931.70 0.08954
931.80 0.08951
931.90 0.08947
932.00 0.08943
932.10 0.0894
932.20 0.08936
932.30 0.08932
932.40 0.08929
932.50 0.08925
932.60 0.08921
932.70 0.08918
932.80 0.08914
932.90 0.0891
933.00 0.08907
933.10 0.08903
933.20 0.089
933.30 0.08896
933.40 0.08892
933.50 0.08889
933.60 0.08885
933.70 0.08881
933.80 0.08878
933.90 0.08874
934.00 0.0887
934.10 0.08867
934.20 0.08863
934.30 0.0886
934.40 0.08856
934.50 0.08852
934.60 0.08849
934.70 0.08845
934.80 0.08841
934.90 0.08838
935.00 0.08834
935.10 0.0883
935.20 0.08827
935.30 0.08823
935.40 0.08819
935.50 0.08816
935.60 0.08812
935.70 0.08809
935.80 0.08805
935.90 0.08801
936.00 0.08798
936.10 0.08794
936.20 0.0879
936.30 0.08787
936.40 0.08783
936.50 0.08779
936.60 0.08776
936.70 0.08772
936.80 0.08769
936.90 0.08765
937.00 0.08761
937.10 0.08758
937.20 0.08754
937.30 0.0875
937.40 0.08747
937.50 0.08743
937.60 0.0874
937.70 0.08736
937.80 0.08732
937.90 0.08729
938.00 0.08725
938.10 0.08721
938.20 0.08718
938.30 0.08714
938.40 0.0871
938.50 0.08707
938.60 0.08703
938.70 0.087
938.80 0.08696
938.90 0.08692
939.00 0.08689
939.10 0.08685
939.20 0.08681
939.30 0.08678
939.40 0.08674
939.50 0.0867
939.60 0.08667
939.70 0.08663
939.80 0.0866
939.90 0.08656
940.00 0.08652
940.10 0.08649
940.20 0.08645
940.30 0.08642
940.40 0.08638
940.50 0.08634
940.60 0.08631
940.70 0.08627
940.80 0.08623
940.90 0.0862
941.00 0.08616
941.10 0.08612
941.20 0.08609
941.30 0.08605
941.40 0.08601
941.50 0.08598
941.60 0.08594
941.70 0.08591
941.80 0.08587
941.90 0.08583
942.00 0.0858
942.10 0.08576
942.20 0.08572
942.30 0.08569
942.40 0.08565
942.50 0.08562
942.60 0.08558
942.70 0.08554
942.80 0.08551
942.90 0.08547
943.00 0.08543
943.10 0.0854
943.20 0.08536
943.30 0.08532
943.40 0.08529
943.50 0.08525
943.60 0.08521
943.70 0.08518
943.80 0.08514
943.90 0.08511
944.00 0.08507
944.10 0.08503
944.20 0.085
944.30 0.08496
944.40 0.08492
944.50 0.08489
944.60 0.08485
944.70 0.08481
944.80 0.08478
944.90 0.08474
945.00 0.0847
945.10 0.08467
945.20 0.08463
945.30 0.08459
945.40 0.08456
945.50 0.08452
945.60 0.08448
945.70 0.08445
945.80 0.08441
945.90 0.08437
946.00 0.08434
946.10 0.0843
946.20 0.08426
946.30 0.08423
946.40 0.08419
946.50 0.08415
946.60 0.08412
946.70 0.08408
946.80 0.08404
946.90 0.08401
947.00 0.08397
947.10 0.08393
947.20 0.0839
947.30 0.08386
947.40 0.08382
947.50 0.08379
947.60 0.08375
947.70 0.08371
947.80 0.08367
947.90 0.08364
948.00 0.0836
948.10 0.08356
948.20 0.08353
948.30 0.08349
948.40 0.08345
948.50 0.08341
948.60 0.08338
948.70 0.08334
948.80 0.0833
948.90 0.08327
949.00 0.08323
949.10 0.08319
949.20 0.08316
949.30 0.08312
949.40 0.08308
949.50 0.08304
949.60 0.08301
949.70 0.08297
949.80 0.08293
949.90 0.0829
950.00 0.08286
950.10 0.08282
950.20 0.08278
950.30 0.08275
950.40 0.08271
950.50 0.08267
950.60 0.08264
950.70 0.0826
950.80 0.08256
950.90 0.08252
951.00 0.08249
951.10 0.08245
951.20 0.08241
951.30 0.08238
951.40 0.08234
951.50 0.0823
951.60 0.08227
951.70 0.08223
951.80 0.08219
951.90 0.08216
952.00 0.08212
952.10 0.08209
952.20 0.08205
952.30 0.08201
952.40 0.08198
952.50 0.08194
952.60 0.08191
952.70 0.08187
952.80 0.08184
952.90 0.0818
953.00 0.08177
953.10 0.08174
953.20 0.08171
953.30 0.08167
953.40 0.08164
953.50 0.08161
953.60 0.08158
953.70 0.08155
953.80 0.08152
953.90 0.08149
954.00 0.08146
954.10 0.08143
954.20 0.08141
954.30 0.08138
954.40 0.08136
954.50 0.08133
954.60 0.0813
954.70 0.08127
954.80 0.08123
954.90 0.08118
955.00 0.08114
955.10 0.0811
955.20 0.08106
955.30 0.08103
955.40 0.08099
955.50 0.08095
955.60 0.08092
955.70 0.08088
955.80 0.08085
955.90 0.08081
956.00 0.08078
956.10 0.08075
956.20 0.08072
956.30 0.08069
956.40 0.08065
956.50 0.08062
956.60 0.08059
956.70 0.08056
956.80 0.08053
956.90 0.08049
957.00 0.08046
957.10 0.08043
957.20 0.0804
957.30 0.08037
957.40 0.08034
957.50 0.08031
957.60 0.08028
957.70 0.08026
957.80 0.08023
957.90 0.0802
958.00 0.08017
958.10 0.08014
958.20 0.08011
958.30 0.08008
958.40 0.08005
958.50 0.08002
958.60 0.07999
958.70 0.07996
958.80 0.07993
958.90 0.0799
959.00 0.07987
959.10 0.07984
959.20 0.07982
959.30 0.07979
959.40 0.07976
959.50 0.07973
959.60 0.0797
959.70 0.07967
959.80 0.07964
959.90 0.07961
960.00 0.07958
960.10 0.07955
960.20 0.07952
960.30 0.07949
960.40 0.07946
960.50 0.07943
960.60 0.0794
960.70 0.07938
960.80 0.07935
960.90 0.07932
961.00 0.07929
961.10 0.07926
961.20 0.07923
961.30 0.0792
961.40 0.07917
961.50 0.07914
961.60 0.07911
961.70 0.07908
961.80 0.07905
961.90 0.07902
962.00 0.07899
962.10 0.07896
962.20 0.07893
962.30 0.0789
962.40 0.07887
962.50 0.07884
962.60 0.07881
962.70 0.07878
962.80 0.07876
962.90 0.07873
963.00 0.0787
963.10 0.07867
963.20 0.07864
963.30 0.07861
963.40 0.07858
963.50 0.07855
963.60 0.07852
963.70 0.07849
963.80 0.07846
963.90 0.07843
964.00 0.0784
964.10 0.07837
964.20 0.07834
964.30 0.07831
964.40 0.07828
964.50 0.07825
964.60 0.07822
964.70 0.07819
964.80 0.07816
964.90 0.07813
965.00 0.0781
965.10 0.07807
965.20 0.07804
965.30 0.07801
965.40 0.07798
965.50 0.07794
965.60 0.07791
965.70 0.07788
965.80 0.07785
965.90 0.07782
966.00 0.07779
966.10 0.07776
966.20 0.07773
966.30 0.0777
966.40 0.07767
966.50 0.07764
966.60 0.07761
966.70 0.07758
966.80 0.07755
966.90 0.07752
967.00 0.07749
967.10 0.07746
967.20 0.07743
967.30 0.0774
967.40 0.07737
967.50 0.07734
967.60 0.07731
967.70 0.07728
967.80 0.07725
967.90 0.07722
968.00 0.07719
968.10 0.07716
968.20 0.07713
968.30 0.0771
968.40 0.07707
968.50 0.07704
968.60 0.07701
968.70 0.07698
968.80 0.07695
968.90 0.07692
969.00 0.07689
969.10 0.07686
969.20 0.07683
969.30 0.0768
969.40 0.07677
969.50 0.07674
969.60 0.07671
969.70 0.07668
969.80 0.07665
969.90 0.07662
970.00 0.07659
970.10 0.07656
970.20 0.07653
970.30 0.0765
970.40 0.07647
970.50 0.07644
970.60 0.07641
970.70 0.07638
970.80 0.07635
970.90 0.07632
971.00 0.07628
971.10 0.07625
971.20 0.07622
971.30 0.07619
971.40 0.07616
971.50 0.07613
971.60 0.0761
971.70 0.07607
971.80 0.07604
971.90 0.07601
972.00 0.07598
972.10 0.07595
972.20 0.07592
972.30 0.07589
972.40 0.07586
972.50 0.07583
972.60 0.0758
972.70 0.07577
972.80 0.07574
972.90 0.07571
973.00 0.07568
973.10 0.07565
973.20 0.07562
973.30 0.07559
973.40 0.07556
973.50 0.07553
973.60 0.0755
973.70 0.07547
973.80 0.07544
973.90 0.07541
974.00 0.07538
974.10 0.07535
974.20 0.07532
974.30 0.07529
974.40 0.07526
974.50 0.07523
974.60 0.0752
974.70 0.07517
974.80 0.07514
974.90 0.07511
975.00 0.07508
975.10 0.07506
975.20 0.07503
975.30 0.075
975.40 0.07497
975.50 0.07494
975.60 0.07491
975.70 0.07488
975.80 0.07485
975.90 0.07482
976.00 0.07479
976.10 0.07476
976.20 0.07473
976.30 0.0747
976.40 0.07467
976.50 0.07464
976.60 0.07461
976.70 0.07458
976.80 0.07455
976.90 0.07452
977.00 0.07449
977.10 0.07446
977.20 0.07443
977.30 0.0744
977.40 0.07437
977.50 0.07434
977.60 0.07431
977.70 0.07428
977.80 0.07425
977.90 0.07422
978.00 0.07419
978.10 0.07416
978.20 0.07414
978.30 0.07411
978.40 0.07408
978.50 0.07405
978.60 0.07402
978.70 0.07399
978.80 0.07396
978.90 0.07393
979.00 0.0739
979.10 0.07387
979.20 0.07384
979.30 0.07381
979.40 0.07378
979.50 0.07375
979.60 0.07372
979.70 0.07369
979.80 0.07366
979.90 0.07363
980.00 0.07361
980.10 0.07358
980.20 0.07355
980.30 0.07352
980.40 0.07349
980.50 0.07346
980.60 0.07343
980.70 0.0734
980.80 0.07337
980.90 0.07334
981.00 0.07331
981.10 0.07328
981.20 0.07325
981.30 0.07323
981.40 0.0732
981.50 0.07317
981.60 0.07314
981.70 0.07311
981.80 0.07308
981.90 0.07305
982.00 0.07302
982.10 0.07299
982.20 0.07296
982.30 0.07293
982.40 0.0729
982.50 0.07288
982.60 0.07285
982.70 0.07282
982.80 0.07279
982.90 0.07276
983.00 0.07273
983.10 0.0727
983.20 0.07267
983.30 0.07264
983.40 0.07261
983.50 0.07258
983.60 0.07256
983.70 0.07253
983.80 0.0725
983.90 0.07247
984.00 0.07244
984.10 0.07241
984.20 0.07238
984.30 0.07235
984.40 0.07232
984.50 0.07229
984.60 0.07227
984.70 0.07224
984.80 0.07221
984.90 0.07218
985.00 0.07215
985.10 0.07212
985.20 0.07209
985.30 0.07206
985.40 0.07203
985.50 0.07201
985.60 0.07198
985.70 0.07195
985.80 0.07192
985.90 0.07189
986.00 0.07186
986.10 0.07183
986.20 0.0718
986.30 0.07178
986.40 0.07175
986.50 0.07172
986.60 0.07169
986.70 0.07166
986.80 0.07163
986.90 0.0716
987.00 0.07157
987.10 0.07155
987.20 0.07152
987.30 0.07149
987.40 0.07146
987.50 0.07143
987.60 0.0714
987.70 0.07137
987.80 0.07134
987.90 0.07132
988.00 0.07129
988.10 0.07126
988.20 0.07123
988.30 0.0712
988.40 0.07117
988.50 0.07114
988.60 0.07112
988.70 0.07109
988.80 0.07106
988.90 0.07103
989.00 0.071
989.10 0.07097
989.20 0.07094
989.30 0.07091
989.40 0.07089
989.50 0.07086
989.60 0.07083
989.70 0.0708
989.80 0.07077
989.90 0.07074
990.00 0.07071
990.10 0.07068
990.20 0.07066
990.30 0.07063
990.40 0.0706
990.50 0.07057
990.60 0.07054
990.70 0.07051
990.80 0.07048
990.90 0.07046
991.00 0.07043
991.10 0.0704
991.20 0.07037
991.30 0.07034
991.40 0.07031
991.50 0.07028
991.60 0.07025
991.70 0.07022
991.80 0.0702
991.90 0.07017
992.00 0.07014
992.10 0.07011
992.20 0.07008
992.30 0.07005
992.40 0.07002
992.50 0.06999
992.60 0.06997
992.70 0.06994
992.80 0.06991
992.90 0.06988
993.00 0.06985
993.10 0.06982
993.20 0.06979
993.30 0.06976
993.40 0.06973
993.50 0.0697
993.60 0.06967
993.70 0.06965
993.80 0.06962
993.90 0.06959
994.00 0.06956
994.10 0.06953
994.20 0.0695
994.30 0.06947
994.40 0.06944
994.50 0.06941
994.60 0.06938
994.70 0.06936
994.80 0.06933
994.90 0.0693
995.00 0.06927
995.10 0.06924
995.20 0.06921
995.30 0.06918
995.40 0.06915
995.50 0.06912
995.60 0.06909
995.70 0.06906
995.80 0.06903
995.90 0.069
996.00 0.06897
996.10 0.06894
996.20 0.06891
996.30 0.06888
996.40 0.06885
996.50 0.06882
996.60 0.06879
996.70 0.06876
996.80 0.06873
996.90 0.0687
997.00 0.06867
997.10 0.06864
997.20 0.06861
997.30 0.06858
997.40 0.06855
997.50 0.06852
997.60 0.06849
997.70 0.06846
997.80 0.06843
997.90 0.0684
998.00 0.06837
998.10 0.06833
998.20 0.0683
998.30 0.06827
998.40 0.06824
998.50 0.06821
998.60 0.06818
998.70 0.06815
998.80 0.06812
998.90 0.06808
999.00 0.06805
999.10 0.06802
999.20 0.06799
999.30 0.06796
999.40 0.06793
999.50 0.0679
999.60 0.06787
999.70 0.06783
999.80 0.0678
999.90 0.06777
1000.00 0.06773
1000.10 0.0677
1000.20 0.06767
1000.30 0.06764
1000.40 0.0676
1000.50 0.06757
1000.60 0.06754
1000.70 0.0675
1000.80 0.06747
1000.90 0.06744
1001.00 0.0674
1001.10 0.06737
1001.20 0.06734
1001.30 0.0673
1001.40 0.06727
1001.50 0.06724
1001.60 0.06721
1001.70 0.06717
1001.80 0.06714
1001.90 0.06711
1002.00 0.06707
1002.10 0.06704
1002.20 0.06701
1002.30 0.06698
1002.40 0.06695
1002.50 0.06691
1002.60 0.06688
1002.70 0.06685
1002.80 0.06682
1002.90 0.06679
1003.00 0.06676
1003.10 0.06672
1003.20 0.0667
1003.30 0.06667
1003.40 0.06664
1003.50 0.06662
1003.60 0.06659
1003.70 0.06656
1003.80 0.06654
1003.90 0.06652
1004.00 0.0665
1004.10 0.06649
1004.20 0.06647
1004.30 0.06646
1004.40 0.06646
1004.50 0.06646
1004.60 0.06647
1004.70 0.06647
1004.80 0.06647
1004.90 0.06645
1005.00 0.06643
1005.10 0.06638
1005.20 0.06633
1005.30 0.06627
1005.40 0.06622
1005.50 0.06618
1005.60 0.06614
1005.70 0.0661
1005.80 0.06606
1005.90 0.06602
1006.00 0.06599
1006.10 0.06595
1006.20 0.06592
1006.30 0.0659
1006.40 0.06587
1006.50 0.06585
1006.60 0.06583
1006.70 0.06581
1006.80 0.06578
1006.90 0.06576
1007.00 0.06574
1007.10 0.06572
1007.20 0.0657
1007.30 0.06568
1007.40 0.06566
1007.50 0.06564
1007.60 0.06562
1007.70 0.0656
1007.80 0.06558
1007.90 0.06556
1008.00 0.06555
1008.10 0.06553
1008.20 0.06551
1008.30 0.06549
1008.40 0.06547
1008.50 0.06545
1008.60 0.06543
1008.70 0.06541
1008.80 0.06539
1008.90 0.06538
1009.00 0.06536
1009.10 0.06534
1009.20 0.06532
1009.30 0.0653
1009.40 0.06528
1009.50 0.06526
1009.60 0.06524
1009.70 0.06522
1009.80 0.0652
1009.90 0.06518
1010.00 0.06516
1010.10 0.06514
1010.20 0.06512
1010.30 0.0651
1010.40 0.06508
1010.50 0.06506
1010.60 0.06504
1010.70 0.06502
1010.80 0.065
1010.90 0.06498
1011.00 0.06496
1011.10 0.06494
1011.20 0.06492
1011.30 0.0649
1011.40 0.06488
1011.50 0.06486
1011.60 0.06484
1011.70 0.06482
1011.80 0.0648
1011.90 0.06477
1012.00 0.06475
1012.10 0.06473
1012.20 0.06471
1012.30 0.06469
1012.40 0.06467
1012.50 0.06464
1012.60 0.06462
1012.70 0.0646
1012.80 0.06458
1012.90 0.06456
1013.00 0.06453
1013.10 0.06451
1013.20 0.06449
1013.30 0.06447
1013.40 0.06445
1013.50 0.06442
1013.60 0.0644
1013.70 0.06438
1013.80 0.06436
1013.90 0.06434
1014.00 0.06431
1014.10 0.06429
1014.20 0.06427
1014.30 0.06425
1014.40 0.06422
1014.50 0.0642
1014.60 0.06418
1014.70 0.06416
1014.80 0.06413
1014.90 0.06411
1015.00 0.06409
1015.10 0.06406
1015.20 0.06404
1015.30 0.06402
1015.40 0.06399
1015.50 0.06397
1015.60 0.06395
1015.70 0.06393
1015.80 0.0639
1015.90 0.06388
1016.00 0.06386
1016.10 0.06383
1016.20 0.06381
1016.30 0.06379
1016.40 0.06377
1016.50 0.06374
1016.60 0.06372
1016.70 0.0637
1016.80 0.06367
1016.90 0.06365
1017.00 0.06363
1017.10 0.0636
1017.20 0.06358
1017.30 0.06356
1017.40 0.06353
1017.50 0.06351
1017.60 0.06349
1017.70 0.06346
1017.80 0.06344
1017.90 0.06342
1018.00 0.06339
1018.10 0.06337
1018.20 0.06335
1018.30 0.06332
1018.40 0.0633
1018.50 0.06328
1018.60 0.06325
1018.70 0.06323
1018.80 0.06321
1018.90 0.06318
1019.00 0.06316
1019.10 0.06314
1019.20 0.06311
1019.30 0.06309
1019.40 0.06307
1019.50 0.06304
1019.60 0.06302
1019.70 0.063
1019.80 0.06297
1019.90 0.06295
1020.00 0.06293
1020.10 0.0629
1020.20 0.06288
1020.30 0.06286
1020.40 0.06283
1020.50 0.06281
1020.60 0.06279
1020.70 0.06276
1020.80 0.06274
1020.90 0.06272
1021.00 0.06269
1021.10 0.06267
1021.20 0.06265
1021.30 0.06262
1021.40 0.0626
1021.50 0.06258
1021.60 0.06255
1021.70 0.06253
1021.80 0.06251
1021.90 0.06248
1022.00 0.06246
1022.10 0.06243
1022.20 0.06241
1022.30 0.06239
1022.40 0.06236
1022.50 0.06234
1022.60 0.06232
1022.70 0.06229
1022.80 0.06227
1022.90 0.06225
1023.00 0.06222
1023.10 0.0622
1023.20 0.06218
1023.30 0.06215
1023.40 0.06213
1023.50 0.06211
1023.60 0.06208
1023.70 0.06206
1023.80 0.06204
1023.90 0.06201
1024.00 0.06199
1024.10 0.06197
1024.20 0.06194
1024.30 0.06192
1024.40 0.0619
1024.50 0.06187
1024.60 0.06185
1024.70 0.06183
1024.80 0.0618
1024.90 0.06178
1025.00 0.06176
1025.10 0.06173
1025.20 0.06171
1025.30 0.06169
1025.40 0.06166
1025.50 0.06164
1025.60 0.06162
1025.70 0.0616
1025.80 0.06157
1025.90 0.06155
1026.00 0.06153
1026.10 0.0615
1026.20 0.06148
1026.30 0.06146
1026.40 0.06143
1026.50 0.06141
1026.60 0.06139
1026.70 0.06136
1026.80 0.06134
1026.90 0.06132
1027.00 0.06129
1027.10 0.06127
1027.20 0.06125
1027.30 0.06123
1027.40 0.0612
1027.50 0.06118
1027.60 0.06116
1027.70 0.06113
1027.80 0.06111
1027.90 0.06109
1028.00 0.06106
1028.10 0.06104
1028.20 0.06102
1028.30 0.06099
1028.40 0.06097
1028.50 0.06095
1028.60 0.06093
1028.70 0.0609
1028.80 0.06088
1028.90 0.06086
1029.00 0.06083
1029.10 0.06081
1029.20 0.06079
1029.30 0.06077
1029.40 0.06074
1029.50 0.06072
1029.60 0.0607
1029.70 0.06067
1029.80 0.06065
1029.90 0.06063
1030.00 0.06061
1030.10 0.06058
1030.20 0.06056
1030.30 0.06054
1030.40 0.06051
1030.50 0.06049
1030.60 0.06047
1030.70 0.06045
1030.80 0.06042
1030.90 0.0604
1031.00 0.06038
1031.10 0.06035
1031.20 0.06033
1031.30 0.06031
1031.40 0.06029
1031.50 0.06026
1031.60 0.06024
1031.70 0.06022
1031.80 0.0602
1031.90 0.06017
1032.00 0.06015
1032.10 0.06013
1032.20 0.0601
1032.30 0.06008
1032.40 0.06006
1032.50 0.06004
1032.60 0.06001
1032.70 0.05999
1032.80 0.05997
1032.90 0.05995
1033.00 0.05992
1033.10 0.0599
1033.20 0.05988
1033.30 0.05986
1033.40 0.05983
1033.50 0.05981
1033.60 0.05979
1033.70 0.05977
1033.80 0.05974
1033.90 0.05972
1034.00 0.0597
1034.10 0.05968
1034.20 0.05965
1034.30 0.05963
1034.40 0.05961
1034.50 0.05959
1034.60 0.05956
1034.70 0.05954
1034.80 0.05952
1034.90 0.0595
1035.00 0.05948
1035.10 0.05945
1035.20 0.05943
1035.30 0.05941
1035.40 0.05939
1035.50 0.05936
1035.60 0.05934
1035.70 0.05932
1035.80 0.0593
1035.90 0.05927
1036.00 0.05925
1036.10 0.05923
1036.20 0.05921
1036.30 0.05918
1036.40 0.05916
1036.50 0.05914
1036.60 0.05912
1036.70 0.0591
1036.80 0.05907
1036.90 0.05905
1037.00 0.05903
1037.10 0.05901
1037.20 0.05898
1037.30 0.05896
1037.40 0.05894
1037.50 0.05892
1037.60 0.0589
1037.70 0.05887
1037.80 0.05885
1037.90 0.05883
1038.00 0.05881
1038.10 0.05879
1038.20 0.05876
1038.30 0.05874
1038.40 0.05872
1038.50 0.0587
1038.60 0.05868
1038.70 0.05865
1038.80 0.05863
1038.90 0.05861
1039.00 0.05859
1039.10 0.05857
1039.20 0.05854
1039.30 0.05852
1039.40 0.0585
1039.50 0.05848
1039.60 0.05846
1039.70 0.05843
1039.80 0.05841
1039.90 0.05839
1040.00 0.05837
1040.10 0.05835
1040.20 0.05833
1040.30 0.0583
1040.40 0.05828
1040.50 0.05826
1040.60 0.05824
1040.70 0.05822
1040.80 0.05819
1040.90 0.05817
1041.00 0.05815
1041.10 0.05813
1041.20 0.05811
1041.30 0.05808
1041.40 0.05806
1041.50 0.05804
1041.60 0.05802
1041.70 0.058
1041.80 0.05798
1041.90 0.05795
1042.00 0.05793
1042.10 0.05791
1042.20 0.05789
1042.30 0.05787
1042.40 0.05785
1042.50 0.05782
1042.60 0.0578
1042.70 0.05778
1042.80 0.05776
1042.90 0.05774
1043.00 0.05772
1043.10 0.0577
1043.20 0.05767
1043.30 0.05765
1043.40 0.05763
1043.50 0.05761
1043.60 0.05759
1043.70 0.05757
1043.80 0.05754
1043.90 0.05752
1044.00 0.0575
1044.10 0.05748
1044.20 0.05746
1044.30 0.05744
1044.40 0.05742
1044.50 0.05739
1044.60 0.05737
1044.70 0.05735
1044.80 0.05733
1044.90 0.05731
1045.00 0.05729
1045.10 0.05727
1045.20 0.05724
1045.30 0.05722
1045.40 0.0572
1045.50 0.05718
1045.60 0.05716
1045.70 0.05714
1045.80 0.05712
1045.90 0.05709
1046.00 0.05707
1046.10 0.05705
1046.20 0.05703
1046.30 0.05701
1046.40 0.05699
1046.50 0.05697
1046.60 0.05695
1046.70 0.05692
1046.80 0.0569
1046.90 0.05688
1047.00 0.05686
1047.10 0.05684
1047.20 0.05682
1047.30 0.0568
1047.40 0.05678
1047.50 0.05676
1047.60 0.05673
1047.70 0.05671
1047.80 0.05669
1047.90 0.05667
1048.00 0.05665
1048.10 0.05663
1048.20 0.05661
1048.30 0.05659
1048.40 0.05657
1048.50 0.05654
1048.60 0.05652
1048.70 0.0565
1048.80 0.05648
1048.90 0.05646
1049.00 0.05644
1049.10 0.05642
1049.20 0.0564
1049.30 0.05638
1049.40 0.05636
1049.50 0.05633
1049.60 0.05631
1049.70 0.05629
1049.80 0.05627
1049.90 0.05625
1050.00 0.05623
1050.10 0.05621
1050.20 0.05619
1050.30 0.05617
1050.40 0.05615
1050.50 0.05613
1050.60 0.0561
1050.70 0.05608
1050.80 0.05606
1050.90 0.05604
1051.00 0.05602
1051.10 0.056
1051.20 0.05598
1051.30 0.05596
1051.40 0.05594
1051.50 0.05592
1051.60 0.0559
1051.70 0.05588
1051.80 0.05585
1051.90 0.05583
1052.00 0.05581
1052.10 0.05579
1052.20 0.05577
1052.30 0.05575
1052.40 0.05573
1052.50 0.05571
1052.60 0.05569
1052.70 0.05567
1052.80 0.05565
1052.90 0.05563
1053.00 0.05561
1053.10 0.05559
1053.20 0.05557
1053.30 0.05554
1053.40 0.05552
1053.50 0.0555
1053.60 0.05548
1053.70 0.05546
1053.80 0.05544
1053.90 0.05542
1054.00 0.0554
1054.10 0.05538
1054.20 0.05536
1054.30 0.05534
1054.40 0.05532
1054.50 0.0553
1054.60 0.05528
1054.70 0.05526
1054.80 0.05524
1054.90 0.05522
1055.00 0.0552
1055.10 0.05518
1055.20 0.05516
1055.30 0.05513
1055.40 0.05511
1055.50 0.05509
1055.60 0.05507
1055.70 0.05505
1055.80 0.05503
1055.90 0.05501
1056.00 0.05499
1056.10 0.05497
1056.20 0.05495
1056.30 0.05493
1056.40 0.05491
1056.50 0.05489
1056.60 0.05487
1056.70 0.05485
1056.80 0.05483
1056.90 0.05481
1057.00 0.05479
1057.10 0.05477
1057.20 0.05475
1057.30 0.05473
1057.40 0.05471
1057.50 0.05469
1057.60 0.05467
1057.70 0.05465
1057.80 0.05463
1057.90 0.05461
1058.00 0.05459
1058.10 0.05457
1058.20 0.05455
1058.30 0.05453
1058.40 0.05451
1058.50 0.05449
1058.60 0.05447
1058.70 0.05445
1058.80 0.05443
1058.90 0.05441
1059.00 0.05439
1059.10 0.05437
1059.20 0.05435
1059.30 0.05433
1059.40 0.05431
1059.50 0.05429
1059.60 0.05426
1059.70 0.05424
1059.80 0.05422
1059.90 0.0542
1060.00 0.05418
1060.10 0.05416
1060.20 0.05414
1060.30 0.05412
1060.40 0.0541
1060.50 0.05408
1060.60 0.05406
1060.70 0.05404
1060.80 0.05403
1060.90 0.05401
1061.00 0.05399
1061.10 0.05397
1061.20 0.05395
1061.30 0.05393
1061.40 0.05391
1061.50 0.05389
1061.60 0.05387
1061.70 0.05385
1061.80 0.05383
1061.90 0.05381
1062.00 0.05379
1062.10 0.05377
1062.20 0.05375
1062.30 0.05373
1062.40 0.05371
1062.50 0.05369
1062.60 0.05367
1062.70 0.05365
1062.80 0.05363
1062.90 0.05361
1063.00 0.05359
1063.10 0.05357
1063.20 0.05355
1063.30 0.05353
1063.40 0.05351
1063.50 0.05349
1063.60 0.05347
1063.70 0.05345
1063.80 0.05343
1063.90 0.05341
1064.00 0.05339
1064.10 0.05337
1064.20 0.05335
1064.30 0.05333
1064.40 0.05331
1064.50 0.05329
1064.60 0.05327
1064.70 0.05325
1064.80 0.05323
1064.90 0.05322
1065.00 0.0532
1065.10 0.05318
1065.20 0.05316
1065.30 0.05314
1065.40 0.05312
1065.50 0.0531
1065.60 0.05308
1065.70 0.05306
1065.80 0.05304
1065.90 0.05302
1066.00 0.053
1066.10 0.05298
1066.20 0.05296
1066.30 0.05294
1066.40 0.05292
1066.50 0.0529
1066.60 0.05288
1066.70 0.05286
1066.80 0.05284
1066.90 0.05282
1067.00 0.05281
1067.10 0.05279
1067.20 0.05277
1067.30 0.05275
1067.40 0.05273
1067.50 0.05271
1067.60 0.05269
1067.70 0.05267
1067.80 0.05265
1067.90 0.05263
1068.00 0.05261
1068.10 0.05259
1068.20 0.05257
1068.30 0.05255
1068.40 0.05253
1068.50 0.05251
1068.60 0.0525
1068.70 0.05248
1068.80 0.05246
1068.90 0.05244
1069.00 0.05242
1069.10 0.0524
1069.20 0.05238
1069.30 0.05236
1069.40 0.05234
1069.50 0.05232
1069.60 0.0523
1069.70 0.05228
1069.80 0.05226
1069.90 0.05225
1070.00 0.05223
1070.10 0.05221
1070.20 0.05219
1070.30 0.05217
1070.40 0.05215
1070.50 0.05213
1070.60 0.05211
1070.70 0.05209
1070.80 0.05207
1070.90 0.05205
1071.00 0.05203
1071.10 0.05202
1071.20 0.052
1071.30 0.05198
1071.40 0.05196
1071.50 0.05194
1071.60 0.05192
1071.70 0.0519
1071.80 0.05188
1071.90 0.05186
1072.00 0.05184
1072.10 0.05182
1072.20 0.05181
1072.30 0.05179
1072.40 0.05177
1072.50 0.05175
1072.60 0.05173
1072.70 0.05171
1072.80 0.05169
1072.90 0.05167
1073.00 0.05165
1073.10 0.05163
1073.20 0.05161
1073.30 0.0516
1073.40 0.05158
1073.50 0.05156
1073.60 0.05154
1073.70 0.05152
1073.80 0.0515
1073.90 0.05148
1074.00 0.05146
1074.10 0.05144
1074.20 0.05142
1074.30 0.05141
1074.40 0.05139
1074.50 0.05137
1074.60 0.05135
1074.70 0.05133
1074.80 0.05131
1074.90 0.05129
1075.00 0.05127
1075.10 0.05125
1075.20 0.05124
1075.30 0.05122
1075.40 0.0512
1075.50 0.05118
1075.60 0.05116
1075.70 0.05114
1075.80 0.05112
1075.90 0.0511
1076.00 0.05108
1076.10 0.05106
1076.20 0.05105
1076.30 0.05103
1076.40 0.05101
1076.50 0.05099
1076.60 0.05097
1076.70 0.05095
1076.80 0.05093
1076.90 0.05091
1077.00 0.0509
1077.10 0.05088
1077.20 0.05086
1077.30 0.05084
1077.40 0.05082
1077.50 0.0508
1077.60 0.05078
1077.70 0.05076
1077.80 0.05074
1077.90 0.05072
1078.00 0.05071
1078.10 0.05069
1078.20 0.05067
1078.30 0.05065
1078.40 0.05063
1078.50 0.05061
1078.60 0.05059
1078.70 0.05057
1078.80 0.05055
1078.90 0.05054
1079.00 0.05052
1079.10 0.0505
1079.20 0.05048
1079.30 0.05046
1079.40 0.05044
1079.50 0.05042
1079.60 0.0504
1079.70 0.05038
1079.80 0.05037
1079.90 0.05035
1080.00 0.05033
1080.10 0.05031
1080.20 0.05029
1080.30 0.05027
1080.40 0.05025
1080.50 0.05023
1080.60 0.05021
1080.70 0.05019
1080.80 0.05017
1080.90 0.05016
1081.00 0.05014
1081.10 0.05012
1081.20 0.0501
1081.30 0.05008
1081.40 0.05006
1081.50 0.05004
1081.60 0.05002
1081.70 0.05
1081.80 0.04998
1081.90 0.04996
1082.00 0.04995
1082.10 0.04993
1082.20 0.04991
1082.30 0.04989
1082.40 0.04987
1082.50 0.04985
1082.60 0.04983
1082.70 0.04981
1082.80 0.04979
1082.90 0.04977
1083.00 0.04975
1083.10 0.04973
1083.20 0.04971
1083.30 0.04969
1083.40 0.04967
1083.50 0.04965
1083.60 0.04963
1083.70 0.04961
1083.80 0.04959
1083.90 0.04957
1084.00 0.04955
1084.10 0.04953
1084.20 0.04951
1084.30 0.04949
1084.40 0.04948
1084.50 0.04946
1084.60 0.04943
1084.70 0.04941
1084.80 0.04939
1084.90 0.04937
1085.00 0.04935
1085.10 0.04933
1085.20 0.04931
1085.30 0.04929
1085.40 0.04927
1085.50 0.04925
1085.60 0.04923
1085.70 0.04921
1085.80 0.04919
1085.90 0.04917
1086.00 0.04915
1086.10 0.04912
1086.20 0.0491
1086.30 0.04908
1086.40 0.04906
1086.50 0.04904
1086.60 0.04902
1086.70 0.049
1086.80 0.04898
1086.90 0.04896
1087.00 0.04893
1087.10 0.04891
1087.20 0.04889
1087.30 0.04887
1087.40 0.04884
1087.50 0.04882
1087.60 0.0488
1087.70 0.04878
1087.80 0.04875
1087.90 0.04873
1088.00 0.04871
1088.10 0.04868
1088.20 0.04866
1088.30 0.04864
1088.40 0.04862
1088.50 0.04859
1088.60 0.04857
1088.70 0.04854
1088.80 0.04852
1088.90 0.04849
1089.00 0.04847
1089.10 0.04844
1089.20 0.04842
1089.30 0.04839
1089.40 0.04837
1089.50 0.04834
1089.60 0.04832
1089.70 0.04829
1089.80 0.04827
1089.90 0.04824
1090.00 0.04822
1090.10 0.04819
1090.20 0.04817
1090.30 0.04814
1090.40 0.04812
1090.50 0.04809
1090.60 0.04807
1090.70 0.04804
1090.80 0.04802
1090.90 0.04799
1091.00 0.04797
1091.10 0.04794
1091.20 0.04792
1091.30 0.04789
1091.40 0.04787
1091.50 0.04784
1091.60 0.04782
1091.70 0.04779
1091.80 0.04777
1091.90 0.04774
1092.00 0.04772
1092.10 0.0477
1092.20 0.04768
1092.30 0.04767
1092.40 0.04765
1092.50 0.04763
1092.60 0.04761
1092.70 0.0476
1092.80 0.04759
1092.90 0.04759
1093.00 0.04758
1093.10 0.04758
1093.20 0.04758
1093.30 0.04759
1093.40 0.0476
1093.50 0.04762
1093.60 0.04767
1093.70 0.0477
1093.80 0.04772
1093.90 0.04771
1094.00 0.04764
1094.10 0.04756
1094.20 0.04749
1094.30 0.04743
1094.40 0.04739
1094.50 0.04736
1094.60 0.04733
1094.70 0.0473
1094.80 0.04727
1094.90 0.04723
1095.00 0.04721
1095.10 0.0472
1095.20 0.04718
1095.30 0.04717
1095.40 0.04716
1095.50 0.04715
1095.60 0.04714
1095.70 0.04712
1095.80 0.04711
1095.90 0.0471
1096.00 0.04709
1096.10 0.04707
1096.20 0.04706
1096.30 0.04705
1096.40 0.04704
1096.50 0.04703
1096.60 0.04702
1096.70 0.04701
1096.80 0.047
1096.90 0.047
1097.00 0.04699
1097.10 0.04698
1097.20 0.04697
1097.30 0.04696
1097.40 0.04695
1097.50 0.04694
1097.60 0.04694
1097.70 0.04693
1097.80 0.04692
1097.90 0.04691
1098.00 0.0469
1098.10 0.04689
1098.20 0.04688
1098.30 0.04687
1098.40 0.04687
1098.50 0.04686
1098.60 0.04685
1098.70 0.04683
1098.80 0.04682
1098.90 0.04681
1099.00 0.0468
1099.10 0.04679
1099.20 0.04678
1099.30 0.04677
1099.40 0.04676
1099.50 0.04675
1099.60 0.04673
1099.70 0.04672
1099.80 0.04671
1099.90 0.0467
1100.00 0.04669
1100.10 0.04668
1100.20 0.04667
1100.30 0.04666
1100.40 0.04665
1100.50 0.04663
1100.60 0.04662
1100.70 0.04661
1100.80 0.0466
1100.90 0.04658
1101.00 0.04657
1101.10 0.04656
1101.20 0.04654
1101.30 0.04653
1101.40 0.04652
1101.50 0.0465
1101.60 0.04649
1101.70 0.04648
1101.80 0.04646
1101.90 0.04645
1102.00 0.04644
1102.10 0.04642
1102.20 0.04641
1102.30 0.0464
1102.40 0.04638
1102.50 0.04637
1102.60 0.04636
1102.70 0.04634
1102.80 0.04633
1102.90 0.04631
1103.00 0.0463
1103.10 0.04628
1103.20 0.04627
1103.30 0.04626
1103.40 0.04624
1103.50 0.04623
1103.60 0.04621
1103.70 0.0462
1103.80 0.04618
1103.90 0.04617
1104.00 0.04615
1104.10 0.04614
1104.20 0.04612
1104.30 0.04611
1104.40 0.04609
1104.50 0.04608
1104.60 0.04606
1104.70 0.04605
1104.80 0.04603
1104.90 0.04602
1105.00 0.046
1105.10 0.04599
1105.20 0.04597
1105.30 0.04596
1105.40 0.04595
1105.50 0.04593
1105.60 0.04591
1105.70 0.0459
1105.80 0.04588
1105.90 0.04587
1106.00 0.04585
1106.10 0.04584
1106.20 0.04582
1106.30 0.04581
1106.40 0.04579
1106.50 0.04578
1106.60 0.04576
1106.70 0.04575
1106.80 0.04573
1106.90 0.04572
1107.00 0.0457
1107.10 0.04569
1107.20 0.04567
1107.30 0.04566
1107.40 0.04564
1107.50 0.04562
1107.60 0.04561
1107.70 0.04559
1107.80 0.04558
1107.90 0.04556
1108.00 0.04555
1108.10 0.04553
1108.20 0.04552
1108.30 0.0455
1108.40 0.04549
1108.50 0.04547
1108.60 0.04545
1108.70 0.04544
1108.80 0.04542
1108.90 0.04541
1109.00 0.04539
1109.10 0.04538
1109.20 0.04536
1109.30 0.04535
1109.40 0.04533
1109.50 0.04532
1109.60 0.0453
1109.70 0.04528
1109.80 0.04527
1109.90 0.04525
1110.00 0.04524
1110.10 0.04522
1110.20 0.04521
1110.30 0.04519
1110.40 0.04518
1110.50 0.04516
1110.60 0.04514
1110.70 0.04513
1110.80 0.04511
1110.90 0.0451
1111.00 0.04508
1111.10 0.04507
1111.20 0.04505
1111.30 0.04504
1111.40 0.04502
1111.50 0.04501
1111.60 0.04499
1111.70 0.04497
1111.80 0.04496
1111.90 0.04494
1112.00 0.04493
1112.10 0.04491
1112.20 0.0449
1112.30 0.04488
1112.40 0.04487
1112.50 0.04485
1112.60 0.04483
1112.70 0.04482
1112.80 0.0448
1112.90 0.04479
1113.00 0.04477
1113.10 0.04476
1113.20 0.04474
1113.30 0.04473
1113.40 0.04471
1113.50 0.0447
1113.60 0.04468
1113.70 0.04466
1113.80 0.04465
1113.90 0.04463
1114.00 0.04462
1114.10 0.0446
1114.20 0.04459
1114.30 0.04457
1114.40 0.04456
1114.50 0.04454
1114.60 0.04453
1114.70 0.04451
1114.80 0.04449
1114.90 0.04448
1115.00 0.04446
1115.10 0.04445
1115.20 0.04443
1115.30 0.04442
1115.40 0.0444
1115.50 0.04439
1115.60 0.04437
1115.70 0.04436
1115.80 0.04434
1115.90 0.04433
1116.00 0.04431
1116.10 0.04429
1116.20 0.04428
1116.30 0.04426
1116.40 0.04425
1116.50 0.04423
1116.60 0.04422
1116.70 0.0442
1116.80 0.04419
1116.90 0.04417
1117.00 0.04416
1117.10 0.04414
1117.20 0.04413
1117.30 0.04411
1117.40 0.0441
1117.50 0.04408
1117.60 0.04406
1117.70 0.04405
1117.80 0.04403
1117.90 0.04402
1118.00 0.044
1118.10 0.04399
1118.20 0.04397
1118.30 0.04396
1118.40 0.04394
1118.50 0.04393
1118.60 0.04391
1118.70 0.0439
1118.80 0.04388
1118.90 0.04387
1119.00 0.04385
1119.10 0.04384
1119.20 0.04382
1119.30 0.04381
1119.40 0.04379
1119.50 0.04378
1119.60 0.04376
1119.70 0.04374
1119.80 0.04373
1119.90 0.04371
1120.00 0.0437
1120.10 0.04368
1120.20 0.04367
1120.30 0.04365
1120.40 0.04364
1120.50 0.04362
1120.60 0.04361
1120.70 0.04359
1120.80 0.04358
1120.90 0.04356
1121.00 0.04355
1121.10 0.04353
1121.20 0.04352
1121.30 0.0435
1121.40 0.04349
1121.50 0.04347
1121.60 0.04346
1121.70 0.04344
1121.80 0.04343
1121.90 0.04341
1122.00 0.0434
1122.10 0.04338
1122.20 0.04337
1122.30 0.04335
1122.40 0.04334
1122.50 0.04332
1122.60 0.04331
1122.70 0.04329
1122.80 0.04328
1122.90 0.04326
1123.00 0.04325
1123.10 0.04323
1123.20 0.04322
1123.30 0.0432
1123.40 0.04319
1123.50 0.04317
1123.60 0.04316
1123.70 0.04314
1123.80 0.04313
1123.90 0.04311
1124.00 0.0431
1124.10 0.04308
1124.20 0.04307
1124.30 0.04305
1124.40 0.04304
1124.50 0.04302
1124.60 0.04301
1124.70 0.04299
1124.80 0.04298
1124.90 0.04296
1125.00 0.04295
1125.10 0.04293
1125.20 0.04292
1125.30 0.0429
1125.40 0.04289
1125.50 0.04287
1125.60 0.04286
1125.70 0.04284
1125.80 0.04283
1125.90 0.04281
1126.00 0.0428
1126.10 0.04279
1126.20 0.04277
1126.30 0.04276
1126.40 0.04274
1126.50 0.04273
1126.60 0.04271
1126.70 0.0427
1126.80 0.04268
1126.90 0.04267
1127.00 0.04265
1127.10 0.04264
1127.20 0.04262
1127.30 0.04261
1127.40 0.04259
1127.50 0.04258
1127.60 0.04256
1127.70 0.04255
1127.80 0.04253
1127.90 0.04252
1128.00 0.0425
1128.10 0.04249
1128.20 0.04248
1128.30 0.04246
1128.40 0.04245
1128.50 0.04243
1128.60 0.04242
1128.70 0.0424
1128.80 0.04239
1128.90 0.04237
1129.00 0.04236
1129.10 0.04234
1129.20 0.04233
1129.30 0.04231
1129.40 0.0423
1129.50 0.04229
1129.60 0.04227
1129.70 0.04226
1129.80 0.04224
1129.90 0.04223
1130.00 0.04221
1130.10 0.0422
1130.20 0.04218
1130.30 0.04217
1130.40 0.04215
1130.50 0.04214
1130.60 0.04212
1130.70 0.04211
1130.80 0.0421
1130.90 0.04208
1131.00 0.04207
1131.10 0.04205
1131.20 0.04204
1131.30 0.04202
1131.40 0.04201
1131.50 0.04199
1131.60 0.04198
1131.70 0.04197
1131.80 0.04195
1131.90 0.04194
1132.00 0.04192
1132.10 0.04191
1132.20 0.04189
1132.30 0.04188
1132.40 0.04186
1132.50 0.04185
1132.60 0.04184
1132.70 0.04182
1132.80 0.04181
1132.90 0.04179
1133.00 0.04178
1133.10 0.04176
1133.20 0.04175
1133.30 0.04173
1133.40 0.04172
1133.50 0.04171
1133.60 0.04169
1133.70 0.04168
1133.80 0.04166
1133.90 0.04165
1134.00 0.04163
1134.10 0.04162
1134.20 0.04161
1134.30 0.04159
1134.40 0.04158
1134.50 0.04156
1134.60 0.04155
1134.70 0.04153
1134.80 0.04152
1134.90 0.04151
1135.00 0.04149
1135.10 0.04148
1135.20 0.04146
1135.30 0.04145
1135.40 0.04143
1135.50 0.04142
1135.60 0.04141
1135.70 0.04139
1135.80 0.04138
1135.90 0.04136
1136.00 0.04135
1136.10 0.04133
1136.20 0.04132
1136.30 0.04131
1136.40 0.04129
1136.50 0.04128
1136.60 0.04126
1136.70 0.04125
1136.80 0.04124
1136.90 0.04122
1137.00 0.04121
1137.10 0.04119
1137.20 0.04118
1137.30 0.04116
1137.40 0.04115
1137.50 0.04114
1137.60 0.04112
1137.70 0.04111
1137.80 0.04109
1137.90 0.04108
1138.00 0.04107
1138.10 0.04105
1138.20 0.04104
1138.30 0.04102
1138.40 0.04101
1138.50 0.041
1138.60 0.04098
1138.70 0.04097
1138.80 0.04095
1138.90 0.04094
1139.00 0.04093
1139.10 0.04091
1139.20 0.0409
1139.30 0.04088
1139.40 0.04087
1139.50 0.04086
1139.60 0.04084
1139.70 0.04083
1139.80 0.04081
1139.90 0.0408
1140.00 0.04079
1140.10 0.04077
1140.20 0.04076
1140.30 0.04074
1140.40 0.04073
1140.50 0.04072
1140.60 0.0407
1140.70 0.04069
1140.80 0.04067
1140.90 0.04066
1141.00 0.04065
1141.10 0.04063
1141.20 0.04062
1141.30 0.0406
1141.40 0.04059
1141.50 0.04058
1141.60 0.04056
1141.70 0.04055
1141.80 0.04053
1141.90 0.04052
1142.00 0.04051
1142.10 0.04049
1142.20 0.04048
1142.30 0.04047
1142.40 0.04045
1142.50 0.04044
1142.60 0.04042
1142.70 0.04041
1142.80 0.0404
1142.90 0.04038
1143.00 0.04037
1143.10 0.04036
1143.20 0.04034
1143.30 0.04033
1143.40 0.04031
1143.50 0.0403
1143.60 0.04029
1143.70 0.04027
1143.80 0.04026
1143.90 0.04025
1144.00 0.04023
1144.10 0.04022
1144.20 0.0402
1144.30 0.04019
1144.40 0.04018
1144.50 0.04016
1144.60 0.04015
1144.70 0.04014
1144.80 0.04012
1144.90 0.04011
1145.00 0.04009
1145.10 0.04008
1145.20 0.04007
1145.30 0.04005
1145.40 0.04004
1145.50 0.04003
1145.60 0.04001
1145.70 0.04
1145.80 0.03998
1145.90 0.03997
1146.00 0.03996
1146.10 0.03994
1146.20 0.03993
1146.30 0.03992
1146.40 0.0399
1146.50 0.03989
1146.60 0.03988
1146.70 0.03986
1146.80 0.03985
1146.90 0.03983
1147.00 0.03982
1147.10 0.03981
1147.20 0.03979
1147.30 0.03978
1147.40 0.03977
1147.50 0.03975
1147.60 0.03974
1147.70 0.03973
1147.80 0.03971
1147.90 0.0397
1148.00 0.03969
1148.10 0.03967
1148.20 0.03966
1148.30 0.03965
1148.40 0.03963
1148.50 0.03962
1148.60 0.03961
1148.70 0.03959
1148.80 0.03958
1148.90 0.03957
1149.00 0.03955
1149.10 0.03954
1149.20 0.03952
1149.30 0.03951
1149.40 0.0395
1149.50 0.03948
1149.60 0.03947
1149.70 0.03946
1149.80 0.03944
1149.90 0.03943
1150.00 0.03942
1150.10 0.0394
1150.20 0.03939
1150.30 0.03938
1150.40 0.03936
1150.50 0.03935
1150.60 0.03934
1150.70 0.03932
1150.80 0.03931
1150.90 0.0393
1151.00 0.03928
1151.10 0.03927
1151.20 0.03926
1151.30 0.03924
1151.40 0.03923
1151.50 0.03922
1151.60 0.0392
1151.70 0.03919
1151.80 0.03918
1151.90 0.03916
1152.00 0.03915
1152.10 0.03914
1152.20 0.03912
1152.30 0.03911
1152.40 0.0391
1152.50 0.03908
1152.60 0.03907
1152.70 0.03906
1152.80 0.03904
1152.90 0.03903
1153.00 0.03902
1153.10 0.03901
1153.20 0.03899
1153.30 0.03898
1153.40 0.03897
1153.50 0.03895
1153.60 0.03894
1153.70 0.03893
1153.80 0.03891
1153.90 0.0389
1154.00 0.03889
1154.10 0.03887
1154.20 0.03886
1154.30 0.03885
1154.40 0.03883
1154.50 0.03882
1154.60 0.03881
1154.70 0.03879
1154.80 0.03878
1154.90 0.03877
1155.00 0.03876
1155.10 0.03874
1155.20 0.03873
1155.30 0.03872
1155.40 0.0387
1155.50 0.03869
1155.60 0.03868
1155.70 0.03866
1155.80 0.03865
1155.90 0.03864
1156.00 0.03862
1156.10 0.03861
1156.20 0.0386
1156.30 0.03858
1156.40 0.03857
1156.50 0.03856
1156.60 0.03855
1156.70 0.03853
1156.80 0.03852
1156.90 0.03851
1157.00 0.03849
1157.10 0.03848
1157.20 0.03847
1157.30 0.03845
1157.40 0.03844
1157.50 0.03843
1157.60 0.03842
1157.70 0.0384
1157.80 0.03839
1157.90 0.03838
1158.00 0.03836
1158.10 0.03835
1158.20 0.03834
1158.30 0.03833
1158.40 0.03831
1158.50 0.0383
1158.60 0.03829
1158.70 0.03827
1158.80 0.03826
1158.90 0.03825
1159.00 0.03823
1159.10 0.03822
1159.20 0.03821
1159.30 0.0382
1159.40 0.03818
1159.50 0.03817
1159.60 0.03816
1159.70 0.03814
1159.80 0.03813
1159.90 0.03812
1160.00 0.03811
1160.10 0.03809
1160.20 0.03808
1160.30 0.03807
1160.40 0.03805
1160.50 0.03804
1160.60 0.03803
1160.70 0.03802
1160.80 0.038
1160.90 0.03799
1161.00 0.03798
1161.10 0.03797
1161.20 0.03795
1161.30 0.03794
1161.40 0.03793
1161.50 0.03791
1161.60 0.0379
1161.70 0.03789
1161.80 0.03788
1161.90 0.03786
1162.00 0.03785
1162.10 0.03784
1162.20 0.03782
1162.30 0.03781
1162.40 0.0378
1162.50 0.03779
1162.60 0.03777
1162.70 0.03776
1162.80 0.03775
1162.90 0.03774
1163.00 0.03772
1163.10 0.03771
1163.20 0.0377
1163.30 0.03769
1163.40 0.03767
1163.50 0.03766
1163.60 0.03765
1163.70 0.03763
1163.80 0.03762
1163.90 0.03761
1164.00 0.0376
1164.10 0.03758
1164.20 0.03757
1164.30 0.03756
1164.40 0.03755
1164.50 0.03753
1164.60 0.03752
1164.70 0.03751
1164.80 0.0375
1164.90 0.03748
1165.00 0.03747
1165.10 0.03746
1165.20 0.03745
1165.30 0.03743
1165.40 0.03742
1165.50 0.03741
1165.60 0.0374
1165.70 0.03738
1165.80 0.03737
1165.90 0.03736
1166.00 0.03735
1166.10 0.03733
1166.20 0.03732
1166.30 0.03731
1166.40 0.0373
1166.50 0.03728
1166.60 0.03727
1166.70 0.03726
1166.80 0.03725
1166.90 0.03723
1167.00 0.03722
1167.10 0.03721
1167.20 0.0372
1167.30 0.03718
1167.40 0.03717
1167.50 0.03716
1167.60 0.03715
1167.70 0.03713
1167.80 0.03712
1167.90 0.03711
1168.00 0.0371
1168.10 0.03708
1168.20 0.03707
1168.30 0.03706
1168.40 0.03705
1168.50 0.03703
1168.60 0.03702
1168.70 0.03701
1168.80 0.037
1168.90 0.03698
1169.00 0.03697
1169.10 0.03696
1169.20 0.03695
1169.30 0.03694
1169.40 0.03692
1169.50 0.03691
1169.60 0.0369
1169.70 0.03689
1169.80 0.03687
1169.90 0.03686
1170.00 0.03685
1170.10 0.03684
1170.20 0.03682
1170.30 0.03681
1170.40 0.0368
1170.50 0.03679
1170.60 0.03678
1170.70 0.03676
1170.80 0.03675
1170.90 0.03674
1171.00 0.03673
1171.10 0.03671
1171.20 0.0367
1171.30 0.03669
1171.40 0.03668
1171.50 0.03666
1171.60 0.03665
1171.70 0.03664
1171.80 0.03663
1171.90 0.03662
1172.00 0.0366
1172.10 0.03659
1172.20 0.03658
1172.30 0.03657
1172.40 0.03655
1172.50 0.03654
1172.60 0.03653
1172.70 0.03652
1172.80 0.03651
1172.90 0.03649
1173.00 0.03648
1173.10 0.03647
1173.20 0.03646
1173.30 0.03645
1173.40 0.03643
1173.50 0.03642
1173.60 0.03641
1173.70 0.0364
1173.80 0.03639
1173.90 0.03637
1174.00 0.03636
1174.10 0.03635
1174.20 0.03634
1174.30 0.03632
1174.40 0.03631
1174.50 0.0363
1174.60 0.03629
1174.70 0.03628
1174.80 0.03626
1174.90 0.03625
1175.00 0.03624
1175.10 0.03623
1175.20 0.03622
1175.30 0.0362
1175.40 0.03619
1175.50 0.03618
1175.60 0.03617
1175.70 0.03616
1175.80 0.03614
1175.90 0.03613
1176.00 0.03612
1176.10 0.03611
1176.20 0.0361
1176.30 0.03608
1176.40 0.03607
1176.50 0.03606
1176.60 0.03605
1176.70 0.03604
1176.80 0.03602
1176.90 0.03601
1177.00 0.036
1177.10 0.03599
1177.20 0.03598
1177.30 0.03596
1177.40 0.03595
1177.50 0.03594
1177.60 0.03593
1177.70 0.03592
1177.80 0.0359
1177.90 0.03589
1178.00 0.03588
1178.10 0.03587
1178.20 0.03586
1178.30 0.03584
1178.40 0.03583
1178.50 0.03582
1178.60 0.03581
1178.70 0.0358
1178.80 0.03579
1178.90 0.03577
1179.00 0.03576
1179.10 0.03575
1179.20 0.03574
1179.30 0.03573
1179.40 0.03571
1179.50 0.0357
1179.60 0.03569
1179.70 0.03568
1179.80 0.03567
1179.90 0.03566
1180.00 0.03564
1180.10 0.03563
1180.20 0.03562
1180.30 0.03561
1180.40 0.0356
1180.50 0.03558
1180.60 0.03557
1180.70 0.03556
1180.80 0.03555
1180.90 0.03554
1181.00 0.03553
1181.10 0.03551
1181.20 0.0355
1181.30 0.03549
1181.40 0.03548
1181.50 0.03547
1181.60 0.03545
1181.70 0.03544
1181.80 0.03543
1181.90 0.03542
1182.00 0.03541
1182.10 0.0354
1182.20 0.03538
1182.30 0.03537
1182.40 0.03536
1182.50 0.03535
1182.60 0.03534
1182.70 0.03533
1182.80 0.03531
1182.90 0.0353
1183.00 0.03529
1183.10 0.03528
1183.20 0.03527
1183.30 0.03526
1183.40 0.03524
1183.50 0.03523
1183.60 0.03522
1183.70 0.03521
1183.80 0.0352
1183.90 0.03519
1184.00 0.03518
1184.10 0.03516
1184.20 0.03515
1184.30 0.03514
1184.40 0.03513
1184.50 0.03512
1184.60 0.03511
1184.70 0.03509
1184.80 0.03508
1184.90 0.03507
1185.00 0.03506
1185.10 0.03505
1185.20 0.03504
1185.30 0.03502
1185.40 0.03501
1185.50 0.035
1185.60 0.03499
1185.70 0.03498
1185.80 0.03497
1185.90 0.03496
1186.00 0.03494
1186.10 0.03493
1186.20 0.03492
1186.30 0.03491
1186.40 0.0349
1186.50 0.03489
1186.60 0.03487
1186.70 0.03486
1186.80 0.03485
1186.90 0.03484
1187.00 0.03483
1187.10 0.03482
1187.20 0.03481
1187.30 0.03479
1187.40 0.03478
1187.50 0.03477
1187.60 0.03476
1187.70 0.03475
1187.80 0.03474
1187.90 0.03473
1188.00 0.03471
1188.10 0.0347
1188.20 0.03469
1188.30 0.03468
1188.40 0.03467
1188.50 0.03466
1188.60 0.03465
1188.70 0.03463
1188.80 0.03462
1188.90 0.03461
1189.00 0.0346
1189.10 0.03459
1189.20 0.03458
1189.30 0.03457
1189.40 0.03456
1189.50 0.03454
1189.60 0.03453
1189.70 0.03452
1189.80 0.03451
1189.90 0.0345
1190.00 0.03449
1190.10 0.03448
1190.20 0.03446
1190.30 0.03445
1190.40 0.03444
1190.50 0.03443
1190.60 0.03442
1190.70 0.03441
1190.80 0.0344
1190.90 0.03439
1191.00 0.03437
1191.10 0.03436
1191.20 0.03435
1191.30 0.03434
1191.40 0.03433
1191.50 0.03432
1191.60 0.03431
1191.70 0.03429
1191.80 0.03428
1191.90 0.03427
1192.00 0.03426
1192.10 0.03425
1192.20 0.03424
1192.30 0.03423
1192.40 0.03422
1192.50 0.0342
1192.60 0.03419
1192.70 0.03418
1192.80 0.03417
1192.90 0.03416
1193.00 0.03415
1193.10 0.03414
1193.20 0.03413
1193.30 0.03412
1193.40 0.0341
1193.50 0.03409
1193.60 0.03408
1193.70 0.03407
1193.80 0.03406
1193.90 0.03405
1194.00 0.03404
1194.10 0.03403
1194.20 0.03402
1194.30 0.034
1194.40 0.03399
1194.50 0.03398
1194.60 0.03397
1194.70 0.03396
1194.80 0.03395
1194.90 0.03394
1195.00 0.03393
1195.10 0.03392
1195.20 0.0339
1195.30 0.03389
1195.40 0.03388
1195.50 0.03387
1195.60 0.03386
1195.70 0.03385
1195.80 0.03384
1195.90 0.03383
1196.00 0.03382
1196.10 0.0338
1196.20 0.03379
1196.30 0.03378
1196.40 0.03377
1196.50 0.03376
1196.60 0.03375
1196.70 0.03374
1196.80 0.03373
1196.90 0.03372
1197.00 0.0337
1197.10 0.03369
1197.20 0.03368
1197.30 0.03367
1197.40 0.03366
1197.50 0.03365
1197.60 0.03364
1197.70 0.03363
1197.80 0.03362
1197.90 0.03361
1198.00 0.0336
1198.10 0.03358
1198.20 0.03357
1198.30 0.03356
1198.40 0.03355
1198.50 0.03354
1198.60 0.03353
1198.70 0.03352
1198.80 0.03351
1198.90 0.0335
1199.00 0.03349
1199.10 0.03347
1199.20 0.03346
1199.30 0.03345
1199.40 0.03344
1199.50 0.03343
1199.60 0.03342
1199.70 0.03341
1199.80 0.0334
1199.90 0.03339
1200.00 0
