# Version 2.1 - nm, norm@500 to 1, cut digits, bergeron_4500_75.dat_4500
# Wavelength(nm)  Flambda(ergs/cm^s/s/nm)
300.00 0.2439
300.10 0.2443
300.20 0.2447
300.30 0.2451
300.40 0.2455
300.50 0.2459
300.60 0.2463
300.70 0.2467
300.80 0.2471
300.90 0.2475
301.00 0.2478
301.10 0.2482
301.20 0.2486
301.30 0.249
301.40 0.2494
301.50 0.2498
301.60 0.2502
301.70 0.2505
301.80 0.2509
301.90 0.2513
302.00 0.2517
302.10 0.2521
302.20 0.2525
302.30 0.2529
302.40 0.2533
302.50 0.2537
302.60 0.2541
302.70 0.2545
302.80 0.2549
302.90 0.2553
303.00 0.2557
303.10 0.256
303.20 0.2564
303.30 0.2568
303.40 0.2572
303.50 0.2576
303.60 0.258
303.70 0.2584
303.80 0.2588
303.90 0.2592
304.00 0.2596
304.10 0.26
304.20 0.2604
304.30 0.2608
304.40 0.2612
304.50 0.2616
304.60 0.262
304.70 0.2624
304.80 0.2628
304.90 0.2631
305.00 0.2635
305.10 0.2639
305.20 0.2643
305.30 0.2647
305.40 0.2651
305.50 0.2655
305.60 0.2659
305.70 0.2663
305.80 0.2667
305.90 0.2671
306.00 0.2675
306.10 0.2679
306.20 0.2683
306.30 0.2687
306.40 0.2691
306.50 0.2695
306.60 0.2699
306.70 0.2703
306.80 0.2707
306.90 0.2711
307.00 0.2715
307.10 0.2719
307.20 0.2723
307.30 0.2727
307.40 0.2731
307.50 0.2735
307.60 0.2739
307.70 0.2743
307.80 0.2747
307.90 0.2751
308.00 0.2755
308.10 0.2759
308.20 0.2763
308.30 0.2767
308.40 0.2771
308.50 0.2776
308.60 0.278
308.70 0.2784
308.80 0.2788
308.90 0.2792
309.00 0.2796
309.10 0.28
309.20 0.2804
309.30 0.2808
309.40 0.2812
309.50 0.2816
309.60 0.282
309.70 0.2824
309.80 0.2828
309.90 0.2832
310.00 0.2836
310.10 0.284
310.20 0.2844
310.30 0.2849
310.40 0.2853
310.50 0.2857
310.60 0.2861
310.70 0.2865
310.80 0.2869
310.90 0.2873
311.00 0.2877
311.10 0.2881
311.20 0.2885
311.30 0.289
311.40 0.2894
311.50 0.2898
311.60 0.2902
311.70 0.2906
311.80 0.291
311.90 0.2914
312.00 0.2918
312.10 0.2922
312.20 0.2926
312.30 0.293
312.40 0.2934
312.50 0.2938
312.60 0.2943
312.70 0.2947
312.80 0.2951
312.90 0.2955
313.00 0.2959
313.10 0.2963
313.20 0.2967
313.30 0.2972
313.40 0.2976
313.50 0.298
313.60 0.2984
313.70 0.2988
313.80 0.2992
313.90 0.2996
314.00 0.3
314.10 0.3004
314.20 0.3009
314.30 0.3013
314.40 0.3017
314.50 0.3021
314.60 0.3025
314.70 0.303
314.80 0.3034
314.90 0.3038
315.00 0.3042
315.10 0.3046
315.20 0.305
315.30 0.3055
315.40 0.3059
315.50 0.3063
315.60 0.3067
315.70 0.3071
315.80 0.3075
315.90 0.3079
316.00 0.3083
316.10 0.3088
316.20 0.3092
316.30 0.3096
316.40 0.31
316.50 0.3105
316.60 0.3109
316.70 0.3113
316.80 0.3117
316.90 0.3121
317.00 0.3126
317.10 0.313
317.20 0.3134
317.30 0.3138
317.40 0.3142
317.50 0.3147
317.60 0.3151
317.70 0.3155
317.80 0.3159
317.90 0.3163
318.00 0.3167
318.10 0.3172
318.20 0.3176
318.30 0.318
318.40 0.3184
318.50 0.3189
318.60 0.3193
318.70 0.3197
318.80 0.3201
318.90 0.3206
319.00 0.321
319.10 0.3214
319.20 0.3218
319.30 0.3222
319.40 0.3227
319.50 0.3231
319.60 0.3235
319.70 0.3239
319.80 0.3243
319.90 0.3248
320.00 0.3252
320.10 0.3256
320.20 0.326
320.30 0.3265
320.40 0.3269
320.50 0.3273
320.60 0.3277
320.70 0.3282
320.80 0.3286
320.90 0.329
321.00 0.3295
321.10 0.3299
321.20 0.3303
321.30 0.3307
321.40 0.3312
321.50 0.3316
321.60 0.332
321.70 0.3324
321.80 0.3328
321.90 0.3333
322.00 0.3337
322.10 0.3341
322.20 0.3346
322.30 0.335
322.40 0.3354
322.50 0.3358
322.60 0.3363
322.70 0.3367
322.80 0.3371
322.90 0.3376
323.00 0.338
323.10 0.3384
323.20 0.3389
323.30 0.3393
323.40 0.3397
323.50 0.3401
323.60 0.3406
323.70 0.341
323.80 0.3414
323.90 0.3418
324.00 0.3423
324.10 0.3427
324.20 0.3431
324.30 0.3436
324.40 0.344
324.50 0.3444
324.60 0.3449
324.70 0.3453
324.80 0.3457
324.90 0.3462
325.00 0.3466
325.10 0.347
325.20 0.3474
325.30 0.3479
325.40 0.3483
325.50 0.3487
325.60 0.3492
325.70 0.3496
325.80 0.35
325.90 0.3504
326.00 0.3509
326.10 0.3513
326.20 0.3517
326.30 0.3522
326.40 0.3526
326.50 0.353
326.60 0.3535
326.70 0.3539
326.80 0.3544
326.90 0.3548
327.00 0.3552
327.10 0.3557
327.20 0.3561
327.30 0.3565
327.40 0.357
327.50 0.3574
327.60 0.3578
327.70 0.3582
327.80 0.3587
327.90 0.3591
328.00 0.3595
328.10 0.36
328.20 0.3604
328.30 0.3609
328.40 0.3613
328.50 0.3617
328.60 0.3622
328.70 0.3626
328.80 0.363
328.90 0.3635
329.00 0.3639
329.10 0.3644
329.20 0.3648
329.30 0.3652
329.40 0.3657
329.50 0.3661
329.60 0.3665
329.70 0.3669
329.80 0.3674
329.90 0.3678
330.00 0.3682
330.10 0.3687
330.20 0.3691
330.30 0.3696
330.40 0.37
330.50 0.3704
330.60 0.3709
330.70 0.3713
330.80 0.3718
330.90 0.3722
331.00 0.3726
331.10 0.3731
331.20 0.3735
331.30 0.374
331.40 0.3744
331.50 0.3748
331.60 0.3753
331.70 0.3757
331.80 0.3761
331.90 0.3766
332.00 0.377
332.10 0.3774
332.20 0.3779
332.30 0.3783
332.40 0.3788
332.50 0.3792
332.60 0.3796
332.70 0.3801
332.80 0.3805
332.90 0.381
333.00 0.3814
333.10 0.3819
333.20 0.3823
333.30 0.3827
333.40 0.3832
333.50 0.3836
333.60 0.384
333.70 0.3845
333.80 0.3849
333.90 0.3853
334.00 0.3858
334.10 0.3862
334.20 0.3867
334.30 0.3871
334.40 0.3876
334.50 0.388
334.60 0.3884
334.70 0.3889
334.80 0.3893
334.90 0.3898
335.00 0.3902
335.10 0.3907
335.20 0.3911
335.30 0.3915
335.40 0.392
335.50 0.3924
335.60 0.3929
335.70 0.3933
335.80 0.3937
335.90 0.3942
336.00 0.3946
336.10 0.395
336.20 0.3955
336.30 0.3959
336.40 0.3964
336.50 0.3968
336.60 0.3973
336.70 0.3977
336.80 0.3982
336.90 0.3986
337.00 0.3991
337.10 0.3995
337.20 0.3999
337.30 0.4004
337.40 0.4008
337.50 0.4013
337.60 0.4017
337.70 0.4021
337.80 0.4026
337.90 0.403
338.00 0.4035
338.10 0.4039
338.20 0.4044
338.30 0.4048
338.40 0.4052
338.50 0.4057
338.60 0.4061
338.70 0.4066
338.80 0.407
338.90 0.4075
339.00 0.4079
339.10 0.4084
339.20 0.4088
339.30 0.4093
339.40 0.4097
339.50 0.4101
339.60 0.4106
339.70 0.411
339.80 0.4115
339.90 0.4119
340.00 0.4123
340.10 0.4128
340.20 0.4132
340.30 0.4137
340.40 0.4141
340.50 0.4146
340.60 0.415
340.70 0.4155
340.80 0.4159
340.90 0.4164
341.00 0.4168
341.10 0.4173
341.20 0.4177
341.30 0.4182
341.40 0.4186
341.50 0.419
341.60 0.4195
341.70 0.4199
341.80 0.4204
341.90 0.4208
342.00 0.4212
342.10 0.4217
342.20 0.4222
342.30 0.4226
342.40 0.4231
342.50 0.4235
342.60 0.424
342.70 0.4244
342.80 0.4249
342.90 0.4253
343.00 0.4257
343.10 0.4262
343.20 0.4266
343.30 0.4271
343.40 0.4275
343.50 0.428
343.60 0.4284
343.70 0.4289
343.80 0.4293
343.90 0.4298
344.00 0.4302
344.10 0.4306
344.20 0.4311
344.30 0.4316
344.40 0.432
344.50 0.4325
344.60 0.4329
344.70 0.4334
344.80 0.4338
344.90 0.4342
345.00 0.4347
345.10 0.4351
345.20 0.4356
345.30 0.436
345.40 0.4365
345.50 0.4369
345.60 0.4374
345.70 0.4378
345.80 0.4383
345.90 0.4387
346.00 0.4391
346.10 0.4396
346.20 0.44
346.30 0.4405
346.40 0.441
346.50 0.4414
346.60 0.4419
346.70 0.4423
346.80 0.4428
346.90 0.4432
347.00 0.4437
347.10 0.4441
347.20 0.4445
347.30 0.445
347.40 0.4454
347.50 0.4459
347.60 0.4463
347.70 0.4468
347.80 0.4472
347.90 0.4477
348.00 0.4481
348.10 0.4486
348.20 0.449
348.30 0.4495
348.40 0.4499
348.50 0.4504
348.60 0.4508
348.70 0.4513
348.80 0.4517
348.90 0.4522
349.00 0.4526
349.10 0.4531
349.20 0.4535
349.30 0.454
349.40 0.4544
349.50 0.4549
349.60 0.4553
349.70 0.4558
349.80 0.4562
349.90 0.4566
350.00 0.4571
350.10 0.4575
350.20 0.458
350.30 0.4584
350.40 0.4589
350.50 0.4594
350.60 0.4598
350.70 0.4603
350.80 0.4607
350.90 0.4612
351.00 0.4616
351.10 0.4621
351.20 0.4625
351.30 0.4629
351.40 0.4634
351.50 0.4638
351.60 0.4643
351.70 0.4647
351.80 0.4652
351.90 0.4656
352.00 0.4661
352.10 0.4665
352.20 0.467
352.30 0.4674
352.40 0.4679
352.50 0.4683
352.60 0.4688
352.70 0.4692
352.80 0.4697
352.90 0.4701
353.00 0.4706
353.10 0.471
353.20 0.4715
353.30 0.4719
353.40 0.4724
353.50 0.4728
353.60 0.4733
353.70 0.4737
353.80 0.4742
353.90 0.4746
354.00 0.4751
354.10 0.4755
354.20 0.476
354.30 0.4764
354.40 0.4769
354.50 0.4773
354.60 0.4778
354.70 0.4782
354.80 0.4787
354.90 0.4791
355.00 0.4796
355.10 0.48
355.20 0.4805
355.30 0.4809
355.40 0.4814
355.50 0.4818
355.60 0.4823
355.70 0.4827
355.80 0.4832
355.90 0.4836
356.00 0.4841
356.10 0.4845
356.20 0.485
356.30 0.4854
356.40 0.4859
356.50 0.4863
356.60 0.4868
356.70 0.4872
356.80 0.4877
356.90 0.4881
357.00 0.4886
357.10 0.489
357.20 0.4895
357.30 0.4899
357.40 0.4904
357.50 0.4908
357.60 0.4913
357.70 0.4917
357.80 0.4922
357.90 0.4926
358.00 0.493
358.10 0.4935
358.20 0.4939
358.30 0.4944
358.40 0.4949
358.50 0.4953
358.60 0.4958
358.70 0.4962
358.80 0.4967
358.90 0.4971
359.00 0.4976
359.10 0.498
359.20 0.4985
359.30 0.4989
359.40 0.4994
359.50 0.4998
359.60 0.5002
359.70 0.5007
359.80 0.5011
359.90 0.5016
360.00 0.502
360.10 0.5025
360.20 0.5029
360.30 0.5034
360.40 0.5038
360.50 0.5043
360.60 0.5047
360.70 0.5052
360.80 0.5056
360.90 0.5061
361.00 0.5065
361.10 0.507
361.20 0.5074
361.30 0.5079
361.40 0.5083
361.50 0.5088
361.60 0.5092
361.70 0.5097
361.80 0.5101
361.90 0.5106
362.00 0.511
362.10 0.5115
362.20 0.5119
362.30 0.5124
362.40 0.5128
362.50 0.5133
362.60 0.5137
362.70 0.5142
362.80 0.5146
362.90 0.5151
363.00 0.5155
363.10 0.516
363.20 0.5164
363.30 0.5169
363.40 0.5173
363.50 0.5178
363.60 0.5182
363.70 0.5187
363.80 0.5191
363.90 0.5195
364.00 0.52
364.10 0.5204
364.20 0.5209
364.30 0.5213
364.40 0.5218
364.50 0.5222
364.60 0.5227
364.70 0.5231
364.80 0.5236
364.90 0.524
365.00 0.5245
365.10 0.5249
365.20 0.5254
365.30 0.5258
365.40 0.5263
365.50 0.5267
365.60 0.5272
365.70 0.5276
365.80 0.5281
365.90 0.5285
366.00 0.5289
366.10 0.5294
366.20 0.5298
366.30 0.5303
366.40 0.5307
366.50 0.5312
366.60 0.5316
366.70 0.5321
366.80 0.5325
366.90 0.533
367.00 0.5334
367.10 0.5339
367.20 0.5343
367.30 0.5348
367.40 0.5352
367.50 0.5357
367.60 0.5361
367.70 0.5366
367.80 0.537
367.90 0.5374
368.00 0.5379
368.10 0.5383
368.20 0.5388
368.30 0.5392
368.40 0.5397
368.50 0.5401
368.60 0.5406
368.70 0.541
368.80 0.5415
368.90 0.5419
369.00 0.5424
369.10 0.5428
369.20 0.5433
369.30 0.5437
369.40 0.5442
369.50 0.5446
369.60 0.5451
369.70 0.5455
369.80 0.5459
369.90 0.5464
370.00 0.5468
370.10 0.5473
370.20 0.5477
370.30 0.5482
370.40 0.5486
370.50 0.5491
370.60 0.5495
370.70 0.55
370.80 0.5504
370.90 0.5509
371.00 0.5513
371.10 0.5518
371.20 0.5522
371.30 0.5526
371.40 0.5531
371.50 0.5535
371.60 0.554
371.70 0.5544
371.80 0.5549
371.90 0.5553
372.00 0.5557
372.10 0.5562
372.20 0.5566
372.30 0.5571
372.40 0.5575
372.50 0.558
372.60 0.5584
372.70 0.5589
372.80 0.5593
372.90 0.5598
373.00 0.5602
373.10 0.5606
373.20 0.5611
373.30 0.5615
373.40 0.562
373.50 0.5624
373.60 0.5629
373.70 0.5633
373.80 0.5637
373.90 0.5642
374.00 0.5646
374.10 0.5651
374.20 0.5655
374.30 0.566
374.40 0.5664
374.50 0.5669
374.60 0.5673
374.70 0.5677
374.80 0.5682
374.90 0.5686
375.00 0.5691
375.10 0.5695
375.20 0.57
375.30 0.5704
375.40 0.5708
375.50 0.5713
375.60 0.5717
375.70 0.5722
375.80 0.5726
375.90 0.573
376.00 0.5735
376.10 0.5739
376.20 0.5744
376.30 0.5748
376.40 0.5752
376.50 0.5757
376.60 0.5761
376.70 0.5766
376.80 0.577
376.90 0.5774
377.00 0.5779
377.10 0.5783
377.20 0.5788
377.30 0.5792
377.40 0.5797
377.50 0.5801
377.60 0.5805
377.70 0.581
377.80 0.5814
377.90 0.5819
378.00 0.5823
378.10 0.5827
378.20 0.5832
378.30 0.5836
378.40 0.5841
378.50 0.5845
378.60 0.5849
378.70 0.5854
378.80 0.5858
378.90 0.5863
379.00 0.5867
379.10 0.5871
379.20 0.5876
379.30 0.588
379.40 0.5885
379.50 0.5889
379.60 0.5893
379.70 0.5898
379.80 0.5902
379.90 0.5907
380.00 0.5911
380.10 0.5915
380.20 0.592
380.30 0.5924
380.40 0.5929
380.50 0.5933
380.60 0.5937
380.70 0.5942
380.80 0.5946
380.90 0.595
381.00 0.5955
381.10 0.5959
381.20 0.5964
381.30 0.5968
381.40 0.5972
381.50 0.5977
381.60 0.5981
381.70 0.5985
381.80 0.599
381.90 0.5994
382.00 0.5999
382.10 0.6003
382.20 0.6007
382.30 0.6012
382.40 0.6016
382.50 0.602
382.60 0.6025
382.70 0.6029
382.80 0.6034
382.90 0.6038
383.00 0.6042
383.10 0.6047
383.20 0.6051
383.30 0.6055
383.40 0.606
383.50 0.6064
383.60 0.6068
383.70 0.6073
383.80 0.6077
383.90 0.6081
384.00 0.6086
384.10 0.609
384.20 0.6095
384.30 0.6099
384.40 0.6103
384.50 0.6108
384.60 0.6112
384.70 0.6116
384.80 0.6121
384.90 0.6125
385.00 0.6129
385.10 0.6134
385.20 0.6138
385.30 0.6142
385.40 0.6147
385.50 0.6151
385.60 0.6155
385.70 0.616
385.80 0.6164
385.90 0.6168
386.00 0.6173
386.10 0.6177
386.20 0.6181
386.30 0.6186
386.40 0.619
386.50 0.6194
386.60 0.6199
386.70 0.6203
386.80 0.6207
386.90 0.6212
387.00 0.6216
387.10 0.622
387.20 0.6225
387.30 0.6229
387.40 0.6233
387.50 0.6238
387.60 0.6242
387.70 0.6246
387.80 0.6251
387.90 0.6255
388.00 0.6259
388.10 0.6263
388.20 0.6268
388.30 0.6272
388.40 0.6276
388.50 0.6281
388.60 0.6285
388.70 0.6289
388.80 0.6294
388.90 0.6298
389.00 0.6302
389.10 0.6307
389.20 0.6311
389.30 0.6315
389.40 0.6319
389.50 0.6324
389.60 0.6328
389.70 0.6332
389.80 0.6337
389.90 0.6341
390.00 0.6345
390.10 0.635
390.20 0.6354
390.30 0.6358
390.40 0.6362
390.50 0.6367
390.60 0.6371
390.70 0.6375
390.80 0.638
390.90 0.6384
391.00 0.6388
391.10 0.6392
391.20 0.6397
391.30 0.6401
391.40 0.6405
391.50 0.6409
391.60 0.6414
391.70 0.6418
391.80 0.6422
391.90 0.6427
392.00 0.6431
392.10 0.6435
392.20 0.6439
392.30 0.6444
392.40 0.6448
392.50 0.6452
392.60 0.6456
392.70 0.6461
392.80 0.6465
392.90 0.6469
393.00 0.6473
393.10 0.6478
393.20 0.6482
393.30 0.6486
393.40 0.649
393.50 0.6495
393.60 0.6499
393.70 0.6503
393.80 0.6507
393.90 0.6512
394.00 0.6516
394.10 0.652
394.20 0.6524
394.30 0.6529
394.40 0.6533
394.50 0.6537
394.60 0.6541
394.70 0.6546
394.80 0.655
394.90 0.6554
395.00 0.6558
395.10 0.6563
395.20 0.6567
395.30 0.6571
395.40 0.6575
395.50 0.6579
395.60 0.6584
395.70 0.6588
395.80 0.6592
395.90 0.6596
396.00 0.6601
396.10 0.6605
396.20 0.6609
396.30 0.6613
396.40 0.6617
396.50 0.6622
396.60 0.6626
396.70 0.663
396.80 0.6634
396.90 0.6638
397.00 0.6643
397.10 0.6647
397.20 0.6651
397.30 0.6655
397.40 0.666
397.50 0.6664
397.60 0.6668
397.70 0.6672
397.80 0.6676
397.90 0.6681
398.00 0.6685
398.10 0.6689
398.20 0.6693
398.30 0.6697
398.40 0.6701
398.50 0.6706
398.60 0.671
398.70 0.6714
398.80 0.6718
398.90 0.6722
399.00 0.6727
399.10 0.6731
399.20 0.6735
399.30 0.6739
399.40 0.6743
399.50 0.6747
399.60 0.6752
399.70 0.6756
399.80 0.676
399.90 0.6764
400.00 0.6768
400.10 0.6772
400.20 0.6777
400.30 0.6781
400.40 0.6785
400.50 0.6789
400.60 0.6793
400.70 0.6797
400.80 0.6802
400.90 0.6806
401.00 0.681
401.10 0.6814
401.20 0.6818
401.30 0.6822
401.40 0.6826
401.50 0.6831
401.60 0.6835
401.70 0.6839
401.80 0.6843
401.90 0.6847
402.00 0.6851
402.10 0.6855
402.20 0.686
402.30 0.6864
402.40 0.6868
402.50 0.6872
402.60 0.6876
402.70 0.688
402.80 0.6884
402.90 0.6888
403.00 0.6893
403.10 0.6897
403.20 0.6901
403.30 0.6905
403.40 0.6909
403.50 0.6913
403.60 0.6917
403.70 0.6921
403.80 0.6926
403.90 0.693
404.00 0.6934
404.10 0.6938
404.20 0.6942
404.30 0.6946
404.40 0.695
404.50 0.6954
404.60 0.6958
404.70 0.6962
404.80 0.6967
404.90 0.6971
405.00 0.6975
405.10 0.6979
405.20 0.6983
405.30 0.6987
405.40 0.6991
405.50 0.6995
405.60 0.6999
405.70 0.7003
405.80 0.7007
405.90 0.7012
406.00 0.7016
406.10 0.702
406.20 0.7024
406.30 0.7028
406.40 0.7032
406.50 0.7036
406.60 0.704
406.70 0.7044
406.80 0.7048
406.90 0.7052
407.00 0.7056
407.10 0.706
407.20 0.7064
407.30 0.7068
407.40 0.7073
407.50 0.7077
407.60 0.7081
407.70 0.7085
407.80 0.7089
407.90 0.7093
408.00 0.7097
408.10 0.7101
408.20 0.7105
408.30 0.7109
408.40 0.7113
408.50 0.7117
408.60 0.7121
408.70 0.7125
408.80 0.7129
408.90 0.7133
409.00 0.7137
409.10 0.7141
409.20 0.7145
409.30 0.7149
409.40 0.7153
409.50 0.7157
409.60 0.7161
409.70 0.7165
409.80 0.7169
409.90 0.7173
410.00 0.7176
410.10 0.718
410.20 0.7183
410.30 0.7188
410.40 0.7192
410.50 0.7197
410.60 0.7201
410.70 0.7205
410.80 0.7209
410.90 0.7213
411.00 0.7217
411.10 0.7221
411.20 0.7225
411.30 0.7229
411.40 0.7234
411.50 0.7237
411.60 0.7242
411.70 0.7246
411.80 0.725
411.90 0.7253
412.00 0.7258
412.10 0.7261
412.20 0.7265
412.30 0.7269
412.40 0.7273
412.50 0.7277
412.60 0.7281
412.70 0.7285
412.80 0.7289
412.90 0.7293
413.00 0.7297
413.10 0.7301
413.20 0.7305
413.30 0.7309
413.40 0.7313
413.50 0.7317
413.60 0.7321
413.70 0.7325
413.80 0.7329
413.90 0.7333
414.00 0.7337
414.10 0.7341
414.20 0.7345
414.30 0.7349
414.40 0.7353
414.50 0.7357
414.60 0.7361
414.70 0.7365
414.80 0.7368
414.90 0.7372
415.00 0.7376
415.10 0.738
415.20 0.7384
415.30 0.7388
415.40 0.7392
415.50 0.7396
415.60 0.74
415.70 0.7404
415.80 0.7408
415.90 0.7412
416.00 0.7416
416.10 0.7419
416.20 0.7423
416.30 0.7427
416.40 0.7431
416.50 0.7435
416.60 0.7439
416.70 0.7443
416.80 0.7447
416.90 0.7451
417.00 0.7455
417.10 0.7459
417.20 0.7462
417.30 0.7466
417.40 0.747
417.50 0.7474
417.60 0.7478
417.70 0.7482
417.80 0.7486
417.90 0.749
418.00 0.7494
418.10 0.7498
418.20 0.7501
418.30 0.7505
418.40 0.7509
418.50 0.7513
418.60 0.7517
418.70 0.7521
418.80 0.7525
418.90 0.7528
419.00 0.7532
419.10 0.7536
419.20 0.754
419.30 0.7544
419.40 0.7548
419.50 0.7552
419.60 0.7555
419.70 0.7559
419.80 0.7563
419.90 0.7567
420.00 0.7571
420.10 0.7575
420.20 0.7579
420.30 0.7582
420.40 0.7586
420.50 0.759
420.60 0.7594
420.70 0.7598
420.80 0.7602
420.90 0.7605
421.00 0.7609
421.10 0.7613
421.20 0.7617
421.30 0.7621
421.40 0.7625
421.50 0.7628
421.60 0.7632
421.70 0.7636
421.80 0.764
421.90 0.7644
422.00 0.7647
422.10 0.7651
422.20 0.7655
422.30 0.7659
422.40 0.7663
422.50 0.7667
422.60 0.767
422.70 0.7674
422.80 0.7678
422.90 0.7682
423.00 0.7686
423.10 0.7689
423.20 0.7693
423.30 0.7697
423.40 0.7701
423.50 0.7704
423.60 0.7708
423.70 0.7712
423.80 0.7716
423.90 0.772
424.00 0.7723
424.10 0.7727
424.20 0.7731
424.30 0.7735
424.40 0.7738
424.50 0.7742
424.60 0.7746
424.70 0.775
424.80 0.7754
424.90 0.7757
425.00 0.7761
425.10 0.7765
425.20 0.7769
425.30 0.7772
425.40 0.7776
425.50 0.778
425.60 0.7784
425.70 0.7787
425.80 0.7791
425.90 0.7795
426.00 0.7799
426.10 0.7802
426.20 0.7806
426.30 0.781
426.40 0.7814
426.50 0.7817
426.60 0.7821
426.70 0.7825
426.80 0.7828
426.90 0.7832
427.00 0.7836
427.10 0.784
427.20 0.7843
427.30 0.7847
427.40 0.7851
427.50 0.7854
427.60 0.7858
427.70 0.7862
427.80 0.7866
427.90 0.7869
428.00 0.7873
428.10 0.7877
428.20 0.788
428.30 0.7884
428.40 0.7888
428.50 0.7891
428.60 0.7895
428.70 0.7899
428.80 0.7902
428.90 0.7906
429.00 0.791
429.10 0.7914
429.20 0.7917
429.30 0.7921
429.40 0.7925
429.50 0.7928
429.60 0.7932
429.70 0.7936
429.80 0.7939
429.90 0.7943
430.00 0.7947
430.10 0.795
430.20 0.7954
430.30 0.7958
430.40 0.7961
430.50 0.7965
430.60 0.7969
430.70 0.7972
430.80 0.7976
430.90 0.7979
431.00 0.7983
431.10 0.7987
431.20 0.799
431.30 0.7994
431.40 0.7998
431.50 0.8001
431.60 0.8005
431.70 0.8009
431.80 0.8012
431.90 0.8016
432.00 0.8019
432.10 0.8023
432.20 0.8027
432.30 0.803
432.40 0.8034
432.50 0.8037
432.60 0.8041
432.70 0.8045
432.80 0.8048
432.90 0.8052
433.00 0.8055
433.10 0.8059
433.20 0.8062
433.30 0.8066
433.40 0.8069
433.50 0.8072
433.60 0.8075
433.70 0.8078
433.80 0.808
433.90 0.8082
434.00 0.8084
434.10 0.8087
434.20 0.8093
434.30 0.8099
434.40 0.8103
434.50 0.8108
434.60 0.8112
434.70 0.8116
434.80 0.812
434.90 0.8123
435.00 0.8127
435.10 0.8131
435.20 0.8134
435.30 0.8138
435.40 0.8141
435.50 0.8145
435.60 0.8149
435.70 0.8152
435.80 0.8156
435.90 0.8159
436.00 0.8163
436.10 0.8166
436.20 0.817
436.30 0.8174
436.40 0.8177
436.50 0.8181
436.60 0.8184
436.70 0.8188
436.80 0.8191
436.90 0.8195
437.00 0.8198
437.10 0.8202
437.20 0.8205
437.30 0.8209
437.40 0.8212
437.50 0.8216
437.60 0.8219
437.70 0.8223
437.80 0.8226
437.90 0.823
438.00 0.8234
438.10 0.8237
438.20 0.8241
438.30 0.8244
438.40 0.8248
438.50 0.8251
438.60 0.8255
438.70 0.8258
438.80 0.8262
438.90 0.8265
439.00 0.8268
439.10 0.8272
439.20 0.8275
439.30 0.8279
439.40 0.8282
439.50 0.8286
439.60 0.8289
439.70 0.8293
439.80 0.8296
439.90 0.83
440.00 0.8303
440.10 0.8307
440.20 0.831
440.30 0.8314
440.40 0.8317
440.50 0.8321
440.60 0.8324
440.70 0.8328
440.80 0.8331
440.90 0.8334
441.00 0.8338
441.10 0.8341
441.20 0.8345
441.30 0.8348
441.40 0.8352
441.50 0.8355
441.60 0.8359
441.70 0.8362
441.80 0.8365
441.90 0.8369
442.00 0.8372
442.10 0.8376
442.20 0.8379
442.30 0.8383
442.40 0.8386
442.50 0.8389
442.60 0.8393
442.70 0.8396
442.80 0.84
442.90 0.8403
443.00 0.8406
443.10 0.841
443.20 0.8413
443.30 0.8417
443.40 0.842
443.50 0.8423
443.60 0.8427
443.70 0.843
443.80 0.8434
443.90 0.8437
444.00 0.844
444.10 0.8444
444.20 0.8447
444.30 0.8451
444.40 0.8454
444.50 0.8457
444.60 0.8461
444.70 0.8464
444.80 0.8467
444.90 0.8471
445.00 0.8474
445.10 0.8478
445.20 0.8481
445.30 0.8484
445.40 0.8488
445.50 0.8491
445.60 0.8494
445.70 0.8498
445.80 0.8501
445.90 0.8504
446.00 0.8508
446.10 0.8511
446.20 0.8514
446.30 0.8518
446.40 0.8521
446.50 0.8524
446.60 0.8528
446.70 0.8531
446.80 0.8534
446.90 0.8538
447.00 0.8541
447.10 0.8544
447.20 0.8548
447.30 0.8551
447.40 0.8554
447.50 0.8558
447.60 0.8561
447.70 0.8564
447.80 0.8568
447.90 0.8571
448.00 0.8574
448.10 0.8578
448.20 0.8581
448.30 0.8584
448.40 0.8587
448.50 0.8591
448.60 0.8594
448.70 0.8597
448.80 0.8601
448.90 0.8604
449.00 0.8607
449.10 0.861
449.20 0.8614
449.30 0.8617
449.40 0.862
449.50 0.8623
449.60 0.8627
449.70 0.863
449.80 0.8633
449.90 0.8637
450.00 0.864
450.10 0.8643
450.20 0.8646
450.30 0.865
450.40 0.8653
450.50 0.8656
450.60 0.8659
450.70 0.8663
450.80 0.8666
450.90 0.8669
451.00 0.8672
451.10 0.8676
451.20 0.8679
451.30 0.8682
451.40 0.8685
451.50 0.8689
451.60 0.8692
451.70 0.8695
451.80 0.8698
451.90 0.8701
452.00 0.8705
452.10 0.8708
452.20 0.8711
452.30 0.8714
452.40 0.8717
452.50 0.8721
452.60 0.8724
452.70 0.8727
452.80 0.873
452.90 0.8734
453.00 0.8737
453.10 0.874
453.20 0.8743
453.30 0.8747
453.40 0.875
453.50 0.8753
453.60 0.8756
453.70 0.8759
453.80 0.8762
453.90 0.8766
454.00 0.8769
454.10 0.8772
454.20 0.8775
454.30 0.8778
454.40 0.8781
454.50 0.8784
454.60 0.8788
454.70 0.8791
454.80 0.8794
454.90 0.8797
455.00 0.88
455.10 0.8803
455.20 0.8807
455.30 0.881
455.40 0.8813
455.50 0.8816
455.60 0.8819
455.70 0.8822
455.80 0.8826
455.90 0.8829
456.00 0.8832
456.10 0.8835
456.20 0.8838
456.30 0.8841
456.40 0.8844
456.50 0.8847
456.60 0.8851
456.70 0.8854
456.80 0.8857
456.90 0.886
457.00 0.8863
457.10 0.8866
457.20 0.8869
457.30 0.8872
457.40 0.8875
457.50 0.8879
457.60 0.8882
457.70 0.8885
457.80 0.8888
457.90 0.8891
458.00 0.8894
458.10 0.8897
458.20 0.89
458.30 0.8903
458.40 0.8906
458.50 0.8909
458.60 0.8912
458.70 0.8916
458.80 0.8919
458.90 0.8922
459.00 0.8925
459.10 0.8928
459.20 0.8931
459.30 0.8934
459.40 0.8937
459.50 0.894
459.60 0.8943
459.70 0.8946
459.80 0.8949
459.90 0.8952
460.00 0.8955
460.10 0.8958
460.20 0.8961
460.30 0.8964
460.40 0.8967
460.50 0.897
460.60 0.8973
460.70 0.8977
460.80 0.898
460.90 0.8983
461.00 0.8986
461.10 0.8989
461.20 0.8992
461.30 0.8995
461.40 0.8998
461.50 0.9001
461.60 0.9004
461.70 0.9007
461.80 0.901
461.90 0.9013
462.00 0.9016
462.10 0.9019
462.20 0.9022
462.30 0.9025
462.40 0.9028
462.50 0.9031
462.60 0.9034
462.70 0.9036
462.80 0.9039
462.90 0.9042
463.00 0.9045
463.10 0.9048
463.20 0.9051
463.30 0.9055
463.40 0.9058
463.50 0.9061
463.60 0.9064
463.70 0.9067
463.80 0.907
463.90 0.9073
464.00 0.9076
464.10 0.9079
464.20 0.9082
464.30 0.9085
464.40 0.9088
464.50 0.9091
464.60 0.9094
464.70 0.9096
464.80 0.9099
464.90 0.9102
465.00 0.9105
465.10 0.9108
465.20 0.9111
465.30 0.9114
465.40 0.9117
465.50 0.912
465.60 0.9123
465.70 0.9125
465.80 0.9128
465.90 0.9131
466.00 0.9134
466.10 0.9137
466.20 0.914
466.30 0.9143
466.40 0.9146
466.50 0.9149
466.60 0.9152
466.70 0.9155
466.80 0.9158
466.90 0.9161
467.00 0.9163
467.10 0.9166
467.20 0.9169
467.30 0.9172
467.40 0.9175
467.50 0.9178
467.60 0.9181
467.70 0.9184
467.80 0.9187
467.90 0.919
468.00 0.9193
468.10 0.9195
468.20 0.9198
468.30 0.9201
468.40 0.9204
468.50 0.9207
468.60 0.921
468.70 0.9213
468.80 0.9216
468.90 0.9218
469.00 0.9221
469.10 0.9224
469.20 0.9227
469.30 0.923
469.40 0.9233
469.50 0.9235
469.60 0.9238
469.70 0.9241
469.80 0.9244
469.90 0.9246
470.00 0.9249
470.10 0.9252
470.20 0.9255
470.30 0.9258
470.40 0.9261
470.50 0.9263
470.60 0.9266
470.70 0.9269
470.80 0.9272
470.90 0.9275
471.00 0.9278
471.10 0.9281
471.20 0.9283
471.30 0.9286
471.40 0.9289
471.50 0.9292
471.60 0.9295
471.70 0.9297
471.80 0.93
471.90 0.9303
472.00 0.9306
472.10 0.9308
472.20 0.9311
472.30 0.9314
472.40 0.9317
472.50 0.9319
472.60 0.9322
472.70 0.9325
472.80 0.9328
472.90 0.933
473.00 0.9333
473.10 0.9336
473.20 0.9339
473.30 0.9341
473.40 0.9344
473.50 0.9347
473.60 0.935
473.70 0.9353
473.80 0.9355
473.90 0.9358
474.00 0.9361
474.10 0.9364
474.20 0.9367
474.30 0.9369
474.40 0.9372
474.50 0.9375
474.60 0.9377
474.70 0.938
474.80 0.9383
474.90 0.9385
475.00 0.9388
475.10 0.9391
475.20 0.9393
475.30 0.9396
475.40 0.9399
475.50 0.9402
475.60 0.9404
475.70 0.9407
475.80 0.941
475.90 0.9412
476.00 0.9415
476.10 0.9418
476.20 0.9421
476.30 0.9423
476.40 0.9426
476.50 0.9429
476.60 0.9431
476.70 0.9434
476.80 0.9437
476.90 0.944
477.00 0.9442
477.10 0.9445
477.20 0.9448
477.30 0.945
477.40 0.9453
477.50 0.9456
477.60 0.9458
477.70 0.9461
477.80 0.9464
477.90 0.9466
478.00 0.9469
478.10 0.9472
478.20 0.9474
478.30 0.9477
478.40 0.948
478.50 0.9482
478.60 0.9485
478.70 0.9487
478.80 0.949
478.90 0.9493
479.00 0.9495
479.10 0.9498
479.20 0.9501
479.30 0.9503
479.40 0.9506
479.50 0.9508
479.60 0.9511
479.70 0.9514
479.80 0.9516
479.90 0.9519
480.00 0.9522
480.10 0.9524
480.20 0.9527
480.30 0.9529
480.40 0.9532
480.50 0.9534
480.60 0.9537
480.70 0.954
480.80 0.9542
480.90 0.9545
481.00 0.9547
481.10 0.955
481.20 0.9552
481.30 0.9555
481.40 0.9558
481.50 0.956
481.60 0.9563
481.70 0.9566
481.80 0.9568
481.90 0.9571
482.00 0.9573
482.10 0.9576
482.20 0.9579
482.30 0.9581
482.40 0.9584
482.50 0.9586
482.60 0.9589
482.70 0.9591
482.80 0.9594
482.90 0.9596
483.00 0.9599
483.10 0.9601
483.20 0.9604
483.30 0.9606
483.40 0.9609
483.50 0.9611
483.60 0.9614
483.70 0.9616
483.80 0.9619
483.90 0.9621
484.00 0.9624
484.10 0.9626
484.20 0.9629
484.30 0.9631
484.40 0.9634
484.50 0.9636
484.60 0.9639
484.70 0.9641
484.80 0.9643
484.90 0.9646
485.00 0.9648
485.10 0.965
485.20 0.9652
485.30 0.9655
485.40 0.9657
485.50 0.9658
485.60 0.9659
485.70 0.966
485.80 0.9659
485.90 0.9657
486.00 0.9651
486.10 0.9643
486.20 0.9649
486.30 0.9662
486.40 0.9671
486.50 0.9678
486.60 0.9683
486.70 0.9687
486.80 0.9691
486.90 0.9694
487.00 0.9697
487.10 0.97
487.20 0.9702
487.30 0.9705
487.40 0.9708
487.50 0.971
487.60 0.9713
487.70 0.9715
487.80 0.9718
487.90 0.9721
488.00 0.9723
488.10 0.9726
488.20 0.9728
488.30 0.9731
488.40 0.9733
488.50 0.9736
488.60 0.9738
488.70 0.974
488.80 0.9743
488.90 0.9745
489.00 0.9748
489.10 0.975
489.20 0.9752
489.30 0.9755
489.40 0.9757
489.50 0.976
489.60 0.9762
489.70 0.9764
489.80 0.9767
489.90 0.9769
490.00 0.9772
490.10 0.9774
490.20 0.9776
490.30 0.9779
490.40 0.9781
490.50 0.9783
490.60 0.9786
490.70 0.9788
490.80 0.9791
490.90 0.9793
491.00 0.9795
491.10 0.9798
491.20 0.98
491.30 0.9802
491.40 0.9805
491.50 0.9807
491.60 0.9809
491.70 0.9812
491.80 0.9814
491.90 0.9816
492.00 0.9819
492.10 0.9821
492.20 0.9824
492.30 0.9826
492.40 0.9828
492.50 0.9831
492.60 0.9833
492.70 0.9835
492.80 0.9838
492.90 0.984
493.00 0.9842
493.10 0.9845
493.20 0.9847
493.30 0.9849
493.40 0.9852
493.50 0.9854
493.60 0.9856
493.70 0.9859
493.80 0.9861
493.90 0.9863
494.00 0.9865
494.10 0.9868
494.20 0.987
494.30 0.9872
494.40 0.9875
494.50 0.9877
494.60 0.9879
494.70 0.9882
494.80 0.9884
494.90 0.9886
495.00 0.9889
495.10 0.9891
495.20 0.9893
495.30 0.9896
495.40 0.9898
495.50 0.99
495.60 0.9902
495.70 0.9904
495.80 0.9907
495.90 0.9909
496.00 0.9911
496.10 0.9913
496.20 0.9916
496.30 0.9918
496.40 0.992
496.50 0.9922
496.60 0.9925
496.70 0.9927
496.80 0.9929
496.90 0.9932
497.00 0.9934
497.10 0.9936
497.20 0.9938
497.30 0.9941
497.40 0.9943
497.50 0.9945
497.60 0.9947
497.70 0.995
497.80 0.9952
497.90 0.9954
498.00 0.9956
498.10 0.9959
498.20 0.9961
498.30 0.9963
498.40 0.9965
498.50 0.9967
498.60 0.9969
498.70 0.9972
498.80 0.9974
498.90 0.9976
499.00 0.9978
499.10 0.998
499.20 0.9982
499.30 0.9985
499.40 0.9987
499.50 0.9989
499.60 0.9991
499.70 0.9993
499.80 0.9996
499.90 0.9998
500.00 1
500.10 1
500.20 1
500.30 1.001
500.40 1.001
500.50 1.001
500.60 1.001
500.70 1.002
500.80 1.002
500.90 1.002
501.00 1.002
501.10 1.002
501.20 1.003
501.30 1.003
501.40 1.003
501.50 1.003
501.60 1.003
501.70 1.004
501.80 1.004
501.90 1.004
502.00 1.004
502.10 1.005
502.20 1.005
502.30 1.005
502.40 1.005
502.50 1.005
502.60 1.006
502.70 1.006
502.80 1.006
502.90 1.006
503.00 1.006
503.10 1.007
503.20 1.007
503.30 1.007
503.40 1.007
503.50 1.008
503.60 1.008
503.70 1.008
503.80 1.008
503.90 1.008
504.00 1.009
504.10 1.009
504.20 1.009
504.30 1.009
504.40 1.009
504.50 1.01
504.60 1.01
504.70 1.01
504.80 1.01
504.90 1.01
505.00 1.011
505.10 1.011
505.20 1.011
505.30 1.011
505.40 1.011
505.50 1.012
505.60 1.012
505.70 1.012
505.80 1.012
505.90 1.012
506.00 1.013
506.10 1.013
506.20 1.013
506.30 1.013
506.40 1.014
506.50 1.014
506.60 1.014
506.70 1.014
506.80 1.014
506.90 1.015
507.00 1.015
507.10 1.015
507.20 1.015
507.30 1.015
507.40 1.016
507.50 1.016
507.60 1.016
507.70 1.016
507.80 1.016
507.90 1.017
508.00 1.017
508.10 1.017
508.20 1.017
508.30 1.017
508.40 1.018
508.50 1.018
508.60 1.018
508.70 1.018
508.80 1.018
508.90 1.019
509.00 1.019
509.10 1.019
509.20 1.019
509.30 1.019
509.40 1.019
509.50 1.02
509.60 1.02
509.70 1.02
509.80 1.02
509.90 1.02
510.00 1.021
510.10 1.021
510.20 1.021
510.30 1.021
510.40 1.021
510.50 1.022
510.60 1.022
510.70 1.022
510.80 1.022
510.90 1.022
511.00 1.023
511.10 1.023
511.20 1.023
511.30 1.023
511.40 1.023
511.50 1.024
511.60 1.024
511.70 1.024
511.80 1.024
511.90 1.024
512.00 1.025
512.10 1.025
512.20 1.025
512.30 1.025
512.40 1.025
512.50 1.026
512.60 1.026
512.70 1.026
512.80 1.026
512.90 1.026
513.00 1.026
513.10 1.027
513.20 1.027
513.30 1.027
513.40 1.027
513.50 1.027
513.60 1.028
513.70 1.028
513.80 1.028
513.90 1.028
514.00 1.028
514.10 1.029
514.20 1.029
514.30 1.029
514.40 1.029
514.50 1.029
514.60 1.029
514.70 1.03
514.80 1.03
514.90 1.03
515.00 1.03
515.10 1.03
515.20 1.031
515.30 1.031
515.40 1.031
515.50 1.031
515.60 1.031
515.70 1.032
515.80 1.032
515.90 1.032
516.00 1.032
516.10 1.032
516.20 1.032
516.30 1.033
516.40 1.033
516.50 1.033
516.60 1.033
516.70 1.033
516.80 1.034
516.90 1.034
517.00 1.034
517.10 1.034
517.20 1.034
517.30 1.034
517.40 1.035
517.50 1.035
517.60 1.035
517.70 1.035
517.80 1.035
517.90 1.036
518.00 1.036
518.10 1.036
518.20 1.036
518.30 1.036
518.40 1.036
518.50 1.037
518.60 1.037
518.70 1.037
518.80 1.037
518.90 1.037
519.00 1.037
519.10 1.038
519.20 1.038
519.30 1.038
519.40 1.038
519.50 1.038
519.60 1.039
519.70 1.039
519.80 1.039
519.90 1.039
520.00 1.039
520.10 1.039
520.20 1.04
520.30 1.04
520.40 1.04
520.50 1.04
520.60 1.04
520.70 1.04
520.80 1.041
520.90 1.041
521.00 1.041
521.10 1.041
521.20 1.041
521.30 1.042
521.40 1.042
521.50 1.042
521.60 1.042
521.70 1.042
521.80 1.042
521.90 1.043
522.00 1.043
522.10 1.043
522.20 1.043
522.30 1.043
522.40 1.043
522.50 1.044
522.60 1.044
522.70 1.044
522.80 1.044
522.90 1.044
523.00 1.044
523.10 1.045
523.20 1.045
523.30 1.045
523.40 1.045
523.50 1.045
523.60 1.045
523.70 1.046
523.80 1.046
523.90 1.046
524.00 1.046
524.10 1.046
524.20 1.046
524.30 1.047
524.40 1.047
524.50 1.047
524.60 1.047
524.70 1.047
524.80 1.047
524.90 1.048
525.00 1.048
525.10 1.048
525.20 1.048
525.30 1.048
525.40 1.048
525.50 1.049
525.60 1.049
525.70 1.049
525.80 1.049
525.90 1.049
526.00 1.049
526.10 1.05
526.20 1.05
526.30 1.05
526.40 1.05
526.50 1.05
526.60 1.05
526.70 1.051
526.80 1.051
526.90 1.051
527.00 1.051
527.10 1.051
527.20 1.051
527.30 1.051
527.40 1.052
527.50 1.052
527.60 1.052
527.70 1.052
527.80 1.052
527.90 1.052
528.00 1.053
528.10 1.053
528.20 1.053
528.30 1.053
528.40 1.053
528.50 1.053
528.60 1.054
528.70 1.054
528.80 1.054
528.90 1.054
529.00 1.054
529.10 1.054
529.20 1.054
529.30 1.055
529.40 1.055
529.50 1.055
529.60 1.055
529.70 1.055
529.80 1.055
529.90 1.056
530.00 1.056
530.10 1.056
530.20 1.056
530.30 1.056
530.40 1.056
530.50 1.056
530.60 1.057
530.70 1.057
530.80 1.057
530.90 1.057
531.00 1.057
531.10 1.057
531.20 1.058
531.30 1.058
531.40 1.058
531.50 1.058
531.60 1.058
531.70 1.058
531.80 1.058
531.90 1.059
532.00 1.059
532.10 1.059
532.20 1.059
532.30 1.059
532.40 1.059
532.50 1.06
532.60 1.06
532.70 1.06
532.80 1.06
532.90 1.06
533.00 1.06
533.10 1.06
533.20 1.061
533.30 1.061
533.40 1.061
533.50 1.061
533.60 1.061
533.70 1.061
533.80 1.061
533.90 1.062
534.00 1.062
534.10 1.062
534.20 1.062
534.30 1.062
534.40 1.062
534.50 1.062
534.60 1.063
534.70 1.063
534.80 1.063
534.90 1.063
535.00 1.063
535.10 1.063
535.20 1.063
535.30 1.064
535.40 1.064
535.50 1.064
535.60 1.064
535.70 1.064
535.80 1.064
535.90 1.064
536.00 1.065
536.10 1.065
536.20 1.065
536.30 1.065
536.40 1.065
536.50 1.065
536.60 1.065
536.70 1.066
536.80 1.066
536.90 1.066
537.00 1.066
537.10 1.066
537.20 1.066
537.30 1.066
537.40 1.067
537.50 1.067
537.60 1.067
537.70 1.067
537.80 1.067
537.90 1.067
538.00 1.067
538.10 1.068
538.20 1.068
538.30 1.068
538.40 1.068
538.50 1.068
538.60 1.068
538.70 1.068
538.80 1.069
538.90 1.069
539.00 1.069
539.10 1.069
539.20 1.069
539.30 1.069
539.40 1.069
539.50 1.069
539.60 1.07
539.70 1.07
539.80 1.07
539.90 1.07
540.00 1.07
540.10 1.07
540.20 1.07
540.30 1.071
540.40 1.071
540.50 1.071
540.60 1.071
540.70 1.071
540.80 1.071
540.90 1.071
541.00 1.072
541.10 1.072
541.20 1.072
541.30 1.072
541.40 1.072
541.50 1.072
541.60 1.072
541.70 1.072
541.80 1.073
541.90 1.073
542.00 1.073
542.10 1.073
542.20 1.073
542.30 1.073
542.40 1.073
542.50 1.073
542.60 1.074
542.70 1.074
542.80 1.074
542.90 1.074
543.00 1.074
543.10 1.074
543.20 1.074
543.30 1.075
543.40 1.075
543.50 1.075
543.60 1.075
543.70 1.075
543.80 1.075
543.90 1.075
544.00 1.075
544.10 1.076
544.20 1.076
544.30 1.076
544.40 1.076
544.50 1.076
544.60 1.076
544.70 1.076
544.80 1.076
544.90 1.077
545.00 1.077
545.10 1.077
545.20 1.077
545.30 1.077
545.40 1.077
545.50 1.077
545.60 1.077
545.70 1.078
545.80 1.078
545.90 1.078
546.00 1.078
546.10 1.078
546.20 1.078
546.30 1.078
546.40 1.078
546.50 1.078
546.60 1.079
546.70 1.079
546.80 1.079
546.90 1.079
547.00 1.079
547.10 1.079
547.20 1.079
547.30 1.079
547.40 1.08
547.50 1.08
547.60 1.08
547.70 1.08
547.80 1.08
547.90 1.08
548.00 1.08
548.10 1.08
548.20 1.081
548.30 1.081
548.40 1.081
548.50 1.081
548.60 1.081
548.70 1.081
548.80 1.081
548.90 1.081
549.00 1.082
549.10 1.082
549.20 1.082
549.30 1.082
549.40 1.082
549.50 1.082
549.60 1.082
549.70 1.082
549.80 1.082
549.90 1.083
550.00 1.083
550.10 1.083
550.20 1.083
550.30 1.083
550.40 1.083
550.50 1.083
550.60 1.083
550.70 1.083
550.80 1.084
550.90 1.084
551.00 1.084
551.10 1.084
551.20 1.084
551.30 1.084
551.40 1.084
551.50 1.084
551.60 1.084
551.70 1.085
551.80 1.085
551.90 1.085
552.00 1.085
552.10 1.085
552.20 1.085
552.30 1.085
552.40 1.085
552.50 1.085
552.60 1.086
552.70 1.086
552.80 1.086
552.90 1.086
553.00 1.086
553.10 1.086
553.20 1.086
553.30 1.086
553.40 1.086
553.50 1.087
553.60 1.087
553.70 1.087
553.80 1.087
553.90 1.087
554.00 1.087
554.10 1.087
554.20 1.087
554.30 1.087
554.40 1.088
554.50 1.088
554.60 1.088
554.70 1.088
554.80 1.088
554.90 1.088
555.00 1.088
555.10 1.088
555.20 1.088
555.30 1.089
555.40 1.089
555.50 1.089
555.60 1.089
555.70 1.089
555.80 1.089
555.90 1.089
556.00 1.089
556.10 1.089
556.20 1.089
556.30 1.09
556.40 1.09
556.50 1.09
556.60 1.09
556.70 1.09
556.80 1.09
556.90 1.09
557.00 1.09
557.10 1.09
557.20 1.091
557.30 1.091
557.40 1.091
557.50 1.091
557.60 1.091
557.70 1.091
557.80 1.091
557.90 1.091
558.00 1.091
558.10 1.091
558.20 1.092
558.30 1.092
558.40 1.092
558.50 1.092
558.60 1.092
558.70 1.092
558.80 1.092
558.90 1.092
559.00 1.092
559.10 1.092
559.20 1.093
559.30 1.093
559.40 1.093
559.50 1.093
559.60 1.093
559.70 1.093
559.80 1.093
559.90 1.093
560.00 1.093
560.10 1.093
560.20 1.093
560.30 1.094
560.40 1.094
560.50 1.094
560.60 1.094
560.70 1.094
560.80 1.094
560.90 1.094
561.00 1.094
561.10 1.094
561.20 1.094
561.30 1.095
561.40 1.095
561.50 1.095
561.60 1.095
561.70 1.095
561.80 1.095
561.90 1.095
562.00 1.095
562.10 1.095
562.20 1.095
562.30 1.095
562.40 1.096
562.50 1.096
562.60 1.096
562.70 1.096
562.80 1.096
562.90 1.096
563.00 1.096
563.10 1.096
563.20 1.096
563.30 1.096
563.40 1.097
563.50 1.097
563.60 1.097
563.70 1.097
563.80 1.097
563.90 1.097
564.00 1.097
564.10 1.097
564.20 1.097
564.30 1.097
564.40 1.097
564.50 1.097
564.60 1.098
564.70 1.098
564.80 1.098
564.90 1.098
565.00 1.098
565.10 1.098
565.20 1.098
565.30 1.098
565.40 1.098
565.50 1.098
565.60 1.098
565.70 1.099
565.80 1.099
565.90 1.099
566.00 1.099
566.10 1.099
566.20 1.099
566.30 1.099
566.40 1.099
566.50 1.099
566.60 1.099
566.70 1.099
566.80 1.099
566.90 1.1
567.00 1.1
567.10 1.1
567.20 1.1
567.30 1.1
567.40 1.1
567.50 1.1
567.60 1.1
567.70 1.1
567.80 1.1
567.90 1.1
568.00 1.1
568.10 1.101
568.20 1.101
568.30 1.101
568.40 1.101
568.50 1.101
568.60 1.101
568.70 1.101
568.80 1.101
568.90 1.101
569.00 1.101
569.10 1.101
569.20 1.102
569.30 1.102
569.40 1.102
569.50 1.102
569.60 1.102
569.70 1.102
569.80 1.102
569.90 1.102
570.00 1.102
570.10 1.102
570.20 1.102
570.30 1.102
570.40 1.102
570.50 1.103
570.60 1.103
570.70 1.103
570.80 1.103
570.90 1.103
571.00 1.103
571.10 1.103
571.20 1.103
571.30 1.103
571.40 1.103
571.50 1.103
571.60 1.103
571.70 1.103
571.80 1.104
571.90 1.104
572.00 1.104
572.10 1.104
572.20 1.104
572.30 1.104
572.40 1.104
572.50 1.104
572.60 1.104
572.70 1.104
572.80 1.104
572.90 1.104
573.00 1.104
573.10 1.105
573.20 1.105
573.30 1.105
573.40 1.105
573.50 1.105
573.60 1.105
573.70 1.105
573.80 1.105
573.90 1.105
574.00 1.105
574.10 1.105
574.20 1.105
574.30 1.105
574.40 1.105
574.50 1.106
574.60 1.106
574.70 1.106
574.80 1.106
574.90 1.106
575.00 1.106
575.10 1.106
575.20 1.106
575.30 1.106
575.40 1.106
575.50 1.106
575.60 1.106
575.70 1.106
575.80 1.106
575.90 1.107
576.00 1.107
576.10 1.107
576.20 1.107
576.30 1.107
576.40 1.107
576.50 1.107
576.60 1.107
576.70 1.107
576.80 1.107
576.90 1.107
577.00 1.107
577.10 1.107
577.20 1.107
577.30 1.107
577.40 1.108
577.50 1.108
577.60 1.108
577.70 1.108
577.80 1.108
577.90 1.108
578.00 1.108
578.10 1.108
578.20 1.108
578.30 1.108
578.40 1.108
578.50 1.108
578.60 1.108
578.70 1.108
578.80 1.108
578.90 1.109
579.00 1.109
579.10 1.109
579.20 1.109
579.30 1.109
579.40 1.109
579.50 1.109
579.60 1.109
579.70 1.109
579.80 1.109
579.90 1.109
580.00 1.109
580.10 1.109
580.20 1.109
580.30 1.109
580.40 1.109
580.50 1.11
580.60 1.11
580.70 1.11
580.80 1.11
580.90 1.11
581.00 1.11
581.10 1.11
581.20 1.11
581.30 1.11
581.40 1.11
581.50 1.11
581.60 1.11
581.70 1.11
581.80 1.11
581.90 1.11
582.00 1.11
582.10 1.111
582.20 1.111
582.30 1.111
582.40 1.111
582.50 1.111
582.60 1.111
582.70 1.111
582.80 1.111
582.90 1.111
583.00 1.111
583.10 1.111
583.20 1.111
583.30 1.111
583.40 1.111
583.50 1.111
583.60 1.111
583.70 1.111
583.80 1.112
583.90 1.112
584.00 1.112
584.10 1.112
584.20 1.112
584.30 1.112
584.40 1.112
584.50 1.112
584.60 1.112
584.70 1.112
584.80 1.112
584.90 1.112
585.00 1.112
585.10 1.112
585.20 1.112
585.30 1.112
585.40 1.112
585.50 1.112
585.60 1.113
585.70 1.113
585.80 1.113
585.90 1.113
586.00 1.113
586.10 1.113
586.20 1.113
586.30 1.113
586.40 1.113
586.50 1.113
586.60 1.113
586.70 1.113
586.80 1.113
586.90 1.113
587.00 1.113
587.10 1.113
587.20 1.113
587.30 1.113
587.40 1.113
587.50 1.114
587.60 1.114
587.70 1.114
587.80 1.114
587.90 1.114
588.00 1.114
588.10 1.114
588.20 1.114
588.30 1.114
588.40 1.114
588.50 1.114
588.60 1.114
588.70 1.114
588.80 1.114
588.90 1.114
589.00 1.114
589.10 1.114
589.20 1.114
589.30 1.114
589.40 1.114
589.50 1.114
589.60 1.115
589.70 1.115
589.80 1.115
589.90 1.115
590.00 1.115
590.10 1.115
590.20 1.115
590.30 1.115
590.40 1.115
590.50 1.115
590.60 1.115
590.70 1.115
590.80 1.115
590.90 1.115
591.00 1.115
591.10 1.115
591.20 1.115
591.30 1.115
591.40 1.115
591.50 1.115
591.60 1.115
591.70 1.115
591.80 1.116
591.90 1.116
592.00 1.116
592.10 1.116
592.20 1.116
592.30 1.116
592.40 1.116
592.50 1.116
592.60 1.116
592.70 1.116
592.80 1.116
592.90 1.116
593.00 1.116
593.10 1.116
593.20 1.116
593.30 1.116
593.40 1.116
593.50 1.116
593.60 1.116
593.70 1.116
593.80 1.116
593.90 1.116
594.00 1.116
594.10 1.117
594.20 1.117
594.30 1.117
594.40 1.117
594.50 1.117
594.60 1.117
594.70 1.117
594.80 1.117
594.90 1.117
595.00 1.117
595.10 1.117
595.20 1.117
595.30 1.117
595.40 1.117
595.50 1.117
595.60 1.117
595.70 1.117
595.80 1.117
595.90 1.117
596.00 1.117
596.10 1.117
596.20 1.117
596.30 1.117
596.40 1.117
596.50 1.117
596.60 1.117
596.70 1.118
596.80 1.118
596.90 1.118
597.00 1.118
597.10 1.118
597.20 1.118
597.30 1.118
597.40 1.118
597.50 1.118
597.60 1.118
597.70 1.118
597.80 1.118
597.90 1.118
598.00 1.118
598.10 1.118
598.20 1.118
598.30 1.118
598.40 1.118
598.50 1.118
598.60 1.118
598.70 1.118
598.80 1.118
598.90 1.118
599.00 1.118
599.10 1.118
599.20 1.118
599.30 1.118
599.40 1.118
599.50 1.119
599.60 1.119
599.70 1.119
599.80 1.119
599.90 1.119
600.00 1.119
600.10 1.119
600.20 1.119
600.30 1.119
600.40 1.119
600.50 1.119
600.60 1.119
600.70 1.119
600.80 1.119
600.90 1.119
601.00 1.119
601.10 1.119
601.20 1.119
601.30 1.119
601.40 1.119
601.50 1.119
601.60 1.119
601.70 1.119
601.80 1.119
601.90 1.119
602.00 1.119
602.10 1.119
602.20 1.119
602.30 1.119
602.40 1.119
602.50 1.119
602.60 1.119
602.70 1.119
602.80 1.119
602.90 1.12
603.00 1.12
603.10 1.12
603.20 1.12
603.30 1.12
603.40 1.12
603.50 1.12
603.60 1.12
603.70 1.12
603.80 1.12
603.90 1.12
604.00 1.12
604.10 1.12
604.20 1.12
604.30 1.12
604.40 1.12
604.50 1.12
604.60 1.12
604.70 1.12
604.80 1.12
604.90 1.12
605.00 1.12
605.10 1.12
605.20 1.12
605.30 1.12
605.40 1.12
605.50 1.12
605.60 1.12
605.70 1.12
605.80 1.12
605.90 1.12
606.00 1.12
606.10 1.12
606.20 1.12
606.30 1.12
606.40 1.12
606.50 1.12
606.60 1.12
606.70 1.12
606.80 1.12
606.90 1.121
607.00 1.121
607.10 1.121
607.20 1.121
607.30 1.121
607.40 1.121
607.50 1.121
607.60 1.121
607.70 1.121
607.80 1.121
607.90 1.121
608.00 1.121
608.10 1.121
608.20 1.121
608.30 1.121
608.40 1.121
608.50 1.121
608.60 1.121
608.70 1.121
608.80 1.121
608.90 1.121
609.00 1.121
609.10 1.121
609.20 1.121
609.30 1.121
609.40 1.121
609.50 1.121
609.60 1.121
609.70 1.121
609.80 1.121
609.90 1.121
610.00 1.121
610.10 1.121
610.20 1.121
610.30 1.121
610.40 1.121
610.50 1.121
610.60 1.121
610.70 1.121
610.80 1.121
610.90 1.121
611.00 1.121
611.10 1.121
611.20 1.121
611.30 1.121
611.40 1.121
611.50 1.121
611.60 1.121
611.70 1.121
611.80 1.121
611.90 1.121
612.00 1.121
612.10 1.121
612.20 1.121
612.30 1.121
612.40 1.122
612.50 1.122
612.60 1.122
612.70 1.122
612.80 1.122
612.90 1.122
613.00 1.122
613.10 1.122
613.20 1.122
613.30 1.122
613.40 1.122
613.50 1.122
613.60 1.122
613.70 1.122
613.80 1.122
613.90 1.122
614.00 1.122
614.10 1.122
614.20 1.122
614.30 1.122
614.40 1.122
614.50 1.122
614.60 1.122
614.70 1.122
614.80 1.122
614.90 1.122
615.00 1.122
615.10 1.122
615.20 1.122
615.30 1.122
615.40 1.122
615.50 1.122
615.60 1.122
615.70 1.122
615.80 1.122
615.90 1.122
616.00 1.122
616.10 1.122
616.20 1.122
616.30 1.122
616.40 1.122
616.50 1.122
616.60 1.122
616.70 1.122
616.80 1.122
616.90 1.122
617.00 1.122
617.10 1.122
617.20 1.122
617.30 1.122
617.40 1.122
617.50 1.122
617.60 1.122
617.70 1.122
617.80 1.122
617.90 1.122
618.00 1.122
618.10 1.122
618.20 1.122
618.30 1.122
618.40 1.122
618.50 1.122
618.60 1.122
618.70 1.122
618.80 1.122
618.90 1.122
619.00 1.122
619.10 1.122
619.20 1.122
619.30 1.122
619.40 1.122
619.50 1.122
619.60 1.122
619.70 1.122
619.80 1.122
619.90 1.122
620.00 1.122
620.10 1.122
620.20 1.122
620.30 1.122
620.40 1.122
620.50 1.122
620.60 1.122
620.70 1.122
620.80 1.122
620.90 1.122
621.00 1.122
621.10 1.122
621.20 1.122
621.30 1.122
621.40 1.122
621.50 1.122
621.60 1.122
621.70 1.122
621.80 1.122
621.90 1.122
622.00 1.122
622.10 1.122
622.20 1.122
622.30 1.122
622.40 1.122
622.50 1.122
622.60 1.122
622.70 1.122
622.80 1.122
622.90 1.122
623.00 1.122
623.10 1.122
623.20 1.122
623.30 1.122
623.40 1.122
623.50 1.122
623.60 1.122
623.70 1.122
623.80 1.122
623.90 1.122
624.00 1.122
624.10 1.122
624.20 1.122
624.30 1.122
624.40 1.122
624.50 1.122
624.60 1.122
624.70 1.122
624.80 1.122
624.90 1.122
625.00 1.122
625.10 1.122
625.20 1.122
625.30 1.122
625.40 1.122
625.50 1.122
625.60 1.122
625.70 1.122
625.80 1.122
625.90 1.122
626.00 1.122
626.10 1.122
626.20 1.122
626.30 1.122
626.40 1.122
626.50 1.122
626.60 1.122
626.70 1.122
626.80 1.122
626.90 1.122
627.00 1.122
627.10 1.122
627.20 1.122
627.30 1.122
627.40 1.122
627.50 1.122
627.60 1.122
627.70 1.122
627.80 1.122
627.90 1.122
628.00 1.122
628.10 1.122
628.20 1.122
628.30 1.122
628.40 1.122
628.50 1.122
628.60 1.122
628.70 1.122
628.80 1.122
628.90 1.122
629.00 1.122
629.10 1.122
629.20 1.122
629.30 1.122
629.40 1.122
629.50 1.122
629.60 1.122
629.70 1.122
629.80 1.122
629.90 1.122
630.00 1.122
630.10 1.122
630.20 1.122
630.30 1.122
630.40 1.122
630.50 1.122
630.60 1.122
630.70 1.122
630.80 1.122
630.90 1.122
631.00 1.122
631.10 1.122
631.20 1.122
631.30 1.122
631.40 1.122
631.50 1.122
631.60 1.122
631.70 1.122
631.80 1.122
631.90 1.122
632.00 1.122
632.10 1.122
632.20 1.122
632.30 1.122
632.40 1.122
632.50 1.122
632.60 1.122
632.70 1.122
632.80 1.122
632.90 1.122
633.00 1.122
633.10 1.122
633.20 1.122
633.30 1.122
633.40 1.122
633.50 1.122
633.60 1.122
633.70 1.122
633.80 1.122
633.90 1.122
634.00 1.122
634.10 1.122
634.20 1.122
634.30 1.121
634.40 1.121
634.50 1.121
634.60 1.121
634.70 1.121
634.80 1.121
634.90 1.121
635.00 1.121
635.10 1.121
635.20 1.121
635.30 1.121
635.40 1.121
635.50 1.121
635.60 1.121
635.70 1.121
635.80 1.121
635.90 1.121
636.00 1.121
636.10 1.121
636.20 1.121
636.30 1.121
636.40 1.121
636.50 1.121
636.60 1.121
636.70 1.121
636.80 1.121
636.90 1.121
637.00 1.121
637.10 1.121
637.20 1.121
637.30 1.121
637.40 1.121
637.50 1.121
637.60 1.121
637.70 1.121
637.80 1.121
637.90 1.121
638.00 1.121
638.10 1.121
638.20 1.121
638.30 1.121
638.40 1.121
638.50 1.121
638.60 1.121
638.70 1.121
638.80 1.121
638.90 1.121
639.00 1.121
639.10 1.121
639.20 1.121
639.30 1.121
639.40 1.121
639.50 1.121
639.60 1.121
639.70 1.121
639.80 1.121
639.90 1.121
640.00 1.121
640.10 1.121
640.20 1.121
640.30 1.12
640.40 1.12
640.50 1.12
640.60 1.12
640.70 1.12
640.80 1.12
640.90 1.12
641.00 1.12
641.10 1.12
641.20 1.12
641.30 1.12
641.40 1.12
641.50 1.12
641.60 1.12
641.70 1.12
641.80 1.12
641.90 1.12
642.00 1.12
642.10 1.12
642.20 1.12
642.30 1.12
642.40 1.12
642.50 1.12
642.60 1.12
642.70 1.12
642.80 1.12
642.90 1.12
643.00 1.12
643.10 1.12
643.20 1.12
643.30 1.12
643.40 1.12
643.50 1.12
643.60 1.12
643.70 1.12
643.80 1.12
643.90 1.12
644.00 1.12
644.10 1.12
644.20 1.12
644.30 1.12
644.40 1.12
644.50 1.12
644.60 1.12
644.70 1.119
644.80 1.119
644.90 1.119
645.00 1.119
645.10 1.119
645.20 1.119
645.30 1.119
645.40 1.119
645.50 1.119
645.60 1.119
645.70 1.119
645.80 1.119
645.90 1.119
646.00 1.119
646.10 1.119
646.20 1.119
646.30 1.119
646.40 1.119
646.50 1.119
646.60 1.119
646.70 1.119
646.80 1.119
646.90 1.119
647.00 1.119
647.10 1.119
647.20 1.119
647.30 1.119
647.40 1.119
647.50 1.119
647.60 1.119
647.70 1.119
647.80 1.119
647.90 1.119
648.00 1.119
648.10 1.119
648.20 1.119
648.30 1.118
648.40 1.118
648.50 1.118
648.60 1.118
648.70 1.118
648.80 1.118
648.90 1.118
649.00 1.118
649.10 1.118
649.20 1.118
649.30 1.118
649.40 1.118
649.50 1.118
649.60 1.118
649.70 1.118
649.80 1.118
649.90 1.118
650.00 1.118
650.10 1.118
650.20 1.118
650.30 1.118
650.40 1.118
650.50 1.118
650.60 1.118
650.70 1.118
650.80 1.118
650.90 1.118
651.00 1.118
651.10 1.118
651.20 1.118
651.30 1.118
651.40 1.117
651.50 1.117
651.60 1.117
651.70 1.117
651.80 1.117
651.90 1.117
652.00 1.117
652.10 1.117
652.20 1.117
652.30 1.117
652.40 1.117
652.50 1.117
652.60 1.117
652.70 1.117
652.80 1.117
652.90 1.117
653.00 1.117
653.10 1.117
653.20 1.117
653.30 1.117
653.40 1.117
653.50 1.117
653.60 1.117
653.70 1.117
653.80 1.116
653.90 1.116
654.00 1.116
654.10 1.116
654.20 1.116
654.30 1.116
654.40 1.116
654.50 1.116
654.60 1.116
654.70 1.116
654.80 1.116
654.90 1.116
655.00 1.115
655.10 1.115
655.20 1.115
655.30 1.115
655.40 1.115
655.50 1.114
655.60 1.114
655.70 1.113
655.80 1.112
655.90 1.111
656.00 1.109
656.10 1.106
656.20 1.103
656.30 1.101
656.40 1.104
656.50 1.107
656.60 1.109
656.70 1.111
656.80 1.112
656.90 1.113
657.00 1.113
657.10 1.114
657.20 1.114
657.30 1.114
657.40 1.114
657.50 1.114
657.60 1.114
657.70 1.115
657.80 1.115
657.90 1.115
658.00 1.115
658.10 1.115
658.20 1.115
658.30 1.115
658.40 1.115
658.50 1.115
658.60 1.115
658.70 1.115
658.80 1.115
658.90 1.115
659.00 1.115
659.10 1.115
659.20 1.115
659.30 1.114
659.40 1.114
659.50 1.114
659.60 1.114
659.70 1.114
659.80 1.114
659.90 1.114
660.00 1.114
660.10 1.114
660.20 1.114
660.30 1.114
660.40 1.114
660.50 1.114
660.60 1.114
660.70 1.114
660.80 1.114
660.90 1.114
661.00 1.114
661.10 1.114
661.20 1.114
661.30 1.114
661.40 1.114
661.50 1.114
661.60 1.114
661.70 1.114
661.80 1.114
661.90 1.114
662.00 1.114
662.10 1.113
662.20 1.113
662.30 1.113
662.40 1.113
662.50 1.113
662.60 1.113
662.70 1.113
662.80 1.113
662.90 1.113
663.00 1.113
663.10 1.113
663.20 1.113
663.30 1.113
663.40 1.113
663.50 1.113
663.60 1.113
663.70 1.113
663.80 1.113
663.90 1.113
664.00 1.113
664.10 1.113
664.20 1.113
664.30 1.112
664.40 1.112
664.50 1.112
664.60 1.112
664.70 1.112
664.80 1.112
664.90 1.112
665.00 1.112
665.10 1.112
665.20 1.112
665.30 1.112
665.40 1.112
665.50 1.112
665.60 1.112
665.70 1.112
665.80 1.112
665.90 1.112
666.00 1.112
666.10 1.112
666.20 1.112
666.30 1.112
666.40 1.112
666.50 1.111
666.60 1.111
666.70 1.111
666.80 1.111
666.90 1.111
667.00 1.111
667.10 1.111
667.20 1.111
667.30 1.111
667.40 1.111
667.50 1.111
667.60 1.111
667.70 1.111
667.80 1.111
667.90 1.111
668.00 1.111
668.10 1.111
668.20 1.111
668.30 1.111
668.40 1.111
668.50 1.111
668.60 1.11
668.70 1.11
668.80 1.11
668.90 1.11
669.00 1.11
669.10 1.11
669.20 1.11
669.30 1.11
669.40 1.11
669.50 1.11
669.60 1.11
669.70 1.11
669.80 1.11
669.90 1.11
670.00 1.11
670.10 1.11
670.20 1.11
670.30 1.11
670.40 1.11
670.50 1.11
670.60 1.109
670.70 1.109
670.80 1.109
670.90 1.109
671.00 1.109
671.10 1.109
671.20 1.109
671.30 1.109
671.40 1.109
671.50 1.109
671.60 1.109
671.70 1.109
671.80 1.109
671.90 1.109
672.00 1.109
672.10 1.109
672.20 1.109
672.30 1.109
672.40 1.109
672.50 1.108
672.60 1.108
672.70 1.108
672.80 1.108
672.90 1.108
673.00 1.108
673.10 1.108
673.20 1.108
673.30 1.108
673.40 1.108
673.50 1.108
673.60 1.108
673.70 1.108
673.80 1.108
673.90 1.108
674.00 1.108
674.10 1.108
674.20 1.108
674.30 1.108
674.40 1.107
674.50 1.107
674.60 1.107
674.70 1.107
674.80 1.107
674.90 1.107
675.00 1.107
675.10 1.107
675.20 1.107
675.30 1.107
675.40 1.107
675.50 1.107
675.60 1.107
675.70 1.107
675.80 1.107
675.90 1.107
676.00 1.107
676.10 1.107
676.20 1.106
676.30 1.106
676.40 1.106
676.50 1.106
676.60 1.106
676.70 1.106
676.80 1.106
676.90 1.106
677.00 1.106
677.10 1.106
677.20 1.106
677.30 1.106
677.40 1.106
677.50 1.106
677.60 1.106
677.70 1.106
677.80 1.106
677.90 1.106
678.00 1.105
678.10 1.105
678.20 1.105
678.30 1.105
678.40 1.105
678.50 1.105
678.60 1.105
678.70 1.105
678.80 1.105
678.90 1.105
679.00 1.105
679.10 1.105
679.20 1.105
679.30 1.105
679.40 1.105
679.50 1.105
679.60 1.105
679.70 1.104
679.80 1.104
679.90 1.104
680.00 1.104
680.10 1.104
680.20 1.104
680.30 1.104
680.40 1.104
680.50 1.104
680.60 1.104
680.70 1.104
680.80 1.104
680.90 1.104
681.00 1.104
681.10 1.104
681.20 1.104
681.30 1.103
681.40 1.103
681.50 1.103
681.60 1.103
681.70 1.103
681.80 1.103
681.90 1.103
682.00 1.103
682.10 1.103
682.20 1.103
682.30 1.103
682.40 1.103
682.50 1.103
682.60 1.103
682.70 1.103
682.80 1.103
682.90 1.103
683.00 1.102
683.10 1.102
683.20 1.102
683.30 1.102
683.40 1.102
683.50 1.102
683.60 1.102
683.70 1.102
683.80 1.102
683.90 1.102
684.00 1.102
684.10 1.102
684.20 1.102
684.30 1.102
684.40 1.102
684.50 1.102
684.60 1.101
684.70 1.101
684.80 1.101
684.90 1.101
685.00 1.101
685.10 1.101
685.20 1.101
685.30 1.101
685.40 1.101
685.50 1.101
685.60 1.101
685.70 1.101
685.80 1.101
685.90 1.101
686.00 1.101
686.10 1.101
686.20 1.1
686.30 1.1
686.40 1.1
686.50 1.1
686.60 1.1
686.70 1.1
686.80 1.1
686.90 1.1
687.00 1.1
687.10 1.1
687.20 1.1
687.30 1.1
687.40 1.1
687.50 1.1
687.60 1.1
687.70 1.099
687.80 1.099
687.90 1.099
688.00 1.099
688.10 1.099
688.20 1.099
688.30 1.099
688.40 1.099
688.50 1.099
688.60 1.099
688.70 1.099
688.80 1.099
688.90 1.099
689.00 1.099
689.10 1.099
689.20 1.098
689.30 1.098
689.40 1.098
689.50 1.098
689.60 1.098
689.70 1.098
689.80 1.098
689.90 1.098
690.00 1.098
690.10 1.098
690.20 1.098
690.30 1.098
690.40 1.098
690.50 1.098
690.60 1.097
690.70 1.097
690.80 1.097
690.90 1.097
691.00 1.097
691.10 1.097
691.20 1.097
691.30 1.097
691.40 1.097
691.50 1.097
691.60 1.097
691.70 1.097
691.80 1.097
691.90 1.097
692.00 1.097
692.10 1.096
692.20 1.096
692.30 1.096
692.40 1.096
692.50 1.096
692.60 1.096
692.70 1.096
692.80 1.096
692.90 1.096
693.00 1.096
693.10 1.096
693.20 1.096
693.30 1.096
693.40 1.096
693.50 1.096
693.60 1.095
693.70 1.095
693.80 1.095
693.90 1.095
694.00 1.095
694.10 1.095
694.20 1.095
694.30 1.095
694.40 1.095
694.50 1.095
694.60 1.095
694.70 1.095
694.80 1.095
694.90 1.095
695.00 1.094
695.10 1.094
695.20 1.094
695.30 1.094
695.40 1.094
695.50 1.094
695.60 1.094
695.70 1.094
695.80 1.094
695.90 1.094
696.00 1.094
696.10 1.094
696.20 1.094
696.30 1.094
696.40 1.093
696.50 1.093
696.60 1.093
696.70 1.093
696.80 1.093
696.90 1.093
697.00 1.093
697.10 1.093
697.20 1.093
697.30 1.093
697.40 1.093
697.50 1.093
697.60 1.093
697.70 1.093
697.80 1.092
697.90 1.092
698.00 1.092
698.10 1.092
698.20 1.092
698.30 1.092
698.40 1.092
698.50 1.092
698.60 1.092
698.70 1.092
698.80 1.092
698.90 1.092
699.00 1.092
699.10 1.091
699.20 1.091
699.30 1.091
699.40 1.091
699.50 1.091
699.60 1.091
699.70 1.091
699.80 1.091
699.90 1.091
700.00 1.091
700.10 1.091
700.20 1.091
700.30 1.091
700.40 1.091
700.50 1.09
700.60 1.09
700.70 1.09
700.80 1.09
700.90 1.09
701.00 1.09
701.10 1.09
701.20 1.09
701.30 1.09
701.40 1.09
701.50 1.09
701.60 1.09
701.70 1.09
701.80 1.089
701.90 1.089
702.00 1.089
702.10 1.089
702.20 1.089
702.30 1.089
702.40 1.089
702.50 1.089
702.60 1.089
702.70 1.089
702.80 1.089
702.90 1.089
703.00 1.089
703.10 1.088
703.20 1.088
703.30 1.088
703.40 1.088
703.50 1.088
703.60 1.088
703.70 1.088
703.80 1.088
703.90 1.088
704.00 1.088
704.10 1.088
704.20 1.088
704.30 1.088
704.40 1.087
704.50 1.087
704.60 1.087
704.70 1.087
704.80 1.087
704.90 1.087
705.00 1.087
705.10 1.087
705.20 1.087
705.30 1.087
705.40 1.087
705.50 1.087
705.60 1.086
705.70 1.086
705.80 1.086
705.90 1.086
706.00 1.086
706.10 1.086
706.20 1.086
706.30 1.086
706.40 1.086
706.50 1.086
706.60 1.086
706.70 1.086
706.80 1.086
706.90 1.085
707.00 1.085
707.10 1.085
707.20 1.085
707.30 1.085
707.40 1.085
707.50 1.085
707.60 1.085
707.70 1.085
707.80 1.085
707.90 1.085
708.00 1.085
708.10 1.084
708.20 1.084
708.30 1.084
708.40 1.084
708.50 1.084
708.60 1.084
708.70 1.084
708.80 1.084
708.90 1.084
709.00 1.084
709.10 1.084
709.20 1.084
709.30 1.084
709.40 1.083
709.50 1.083
709.60 1.083
709.70 1.083
709.80 1.083
709.90 1.083
710.00 1.083
710.10 1.083
710.20 1.083
710.30 1.083
710.40 1.083
710.50 1.083
710.60 1.082
710.70 1.082
710.80 1.082
710.90 1.082
711.00 1.082
711.10 1.082
711.20 1.082
711.30 1.082
711.40 1.082
711.50 1.082
711.60 1.082
711.70 1.082
711.80 1.081
711.90 1.081
712.00 1.081
712.10 1.081
712.20 1.081
712.30 1.081
712.40 1.081
712.50 1.081
712.60 1.081
712.70 1.081
712.80 1.081
712.90 1.081
713.00 1.08
713.10 1.08
713.20 1.08
713.30 1.08
713.40 1.08
713.50 1.08
713.60 1.08
713.70 1.08
713.80 1.08
713.90 1.08
714.00 1.08
714.10 1.08
714.20 1.08
714.30 1.079
714.40 1.079
714.50 1.079
714.60 1.079
714.70 1.079
714.80 1.079
714.90 1.079
715.00 1.079
715.10 1.079
715.20 1.079
715.30 1.079
715.40 1.078
715.50 1.078
715.60 1.078
715.70 1.078
715.80 1.078
715.90 1.078
716.00 1.078
716.10 1.078
716.20 1.078
716.30 1.078
716.40 1.078
716.50 1.078
716.60 1.077
716.70 1.077
716.80 1.077
716.90 1.077
717.00 1.077
717.10 1.077
717.20 1.077
717.30 1.077
717.40 1.077
717.50 1.077
717.60 1.077
717.70 1.077
717.80 1.076
717.90 1.076
718.00 1.076
718.10 1.076
718.20 1.076
718.30 1.076
718.40 1.076
718.50 1.076
718.60 1.076
718.70 1.076
718.80 1.076
718.90 1.075
719.00 1.075
719.10 1.075
719.20 1.075
719.30 1.075
719.40 1.075
719.50 1.075
719.60 1.075
719.70 1.075
719.80 1.075
719.90 1.075
720.00 1.075
720.10 1.074
720.20 1.074
720.30 1.074
720.40 1.074
720.50 1.074
720.60 1.074
720.70 1.074
720.80 1.074
720.90 1.074
721.00 1.074
721.10 1.074
721.20 1.073
721.30 1.073
721.40 1.073
721.50 1.073
721.60 1.073
721.70 1.073
721.80 1.073
721.90 1.073
722.00 1.073
722.10 1.073
722.20 1.073
722.30 1.072
722.40 1.072
722.50 1.072
722.60 1.072
722.70 1.072
722.80 1.072
722.90 1.072
723.00 1.072
723.10 1.072
723.20 1.072
723.30 1.072
723.40 1.071
723.50 1.071
723.60 1.071
723.70 1.071
723.80 1.071
723.90 1.071
724.00 1.071
724.10 1.071
724.20 1.071
724.30 1.071
724.40 1.071
724.50 1.071
724.60 1.07
724.70 1.07
724.80 1.07
724.90 1.07
725.00 1.07
725.10 1.07
725.20 1.07
725.30 1.07
725.40 1.07
725.50 1.07
725.60 1.07
725.70 1.069
725.80 1.069
725.90 1.069
726.00 1.069
726.10 1.069
726.20 1.069
726.30 1.069
726.40 1.069
726.50 1.069
726.60 1.069
726.70 1.068
726.80 1.068
726.90 1.068
727.00 1.068
727.10 1.068
727.20 1.068
727.30 1.068
727.40 1.068
727.50 1.068
727.60 1.068
727.70 1.068
727.80 1.067
727.90 1.067
728.00 1.067
728.10 1.067
728.20 1.067
728.30 1.067
728.40 1.067
728.50 1.067
728.60 1.067
728.70 1.067
728.80 1.067
728.90 1.066
729.00 1.066
729.10 1.066
729.20 1.066
729.30 1.066
729.40 1.066
729.50 1.066
729.60 1.066
729.70 1.066
729.80 1.066
729.90 1.066
730.00 1.065
730.10 1.065
730.20 1.065
730.30 1.065
730.40 1.065
730.50 1.065
730.60 1.065
730.70 1.065
730.80 1.065
730.90 1.065
731.00 1.065
731.10 1.064
731.20 1.064
731.30 1.064
731.40 1.064
731.50 1.064
731.60 1.064
731.70 1.064
731.80 1.064
731.90 1.064
732.00 1.064
732.10 1.063
732.20 1.063
732.30 1.063
732.40 1.063
732.50 1.063
732.60 1.063
732.70 1.063
732.80 1.063
732.90 1.063
733.00 1.063
733.10 1.062
733.20 1.062
733.30 1.062
733.40 1.062
733.50 1.062
733.60 1.062
733.70 1.062
733.80 1.062
733.90 1.062
734.00 1.062
734.10 1.062
734.20 1.061
734.30 1.061
734.40 1.061
734.50 1.061
734.60 1.061
734.70 1.061
734.80 1.061
734.90 1.061
735.00 1.061
735.10 1.061
735.20 1.06
735.30 1.06
735.40 1.06
735.50 1.06
735.60 1.06
735.70 1.06
735.80 1.06
735.90 1.06
736.00 1.06
736.10 1.06
736.20 1.06
736.30 1.059
736.40 1.059
736.50 1.059
736.60 1.059
736.70 1.059
736.80 1.059
736.90 1.059
737.00 1.059
737.10 1.059
737.20 1.059
737.30 1.058
737.40 1.058
737.50 1.058
737.60 1.058
737.70 1.058
737.80 1.058
737.90 1.058
738.00 1.058
738.10 1.058
738.20 1.058
738.30 1.057
738.40 1.057
738.50 1.057
738.60 1.057
738.70 1.057
738.80 1.057
738.90 1.057
739.00 1.057
739.10 1.057
739.20 1.057
739.30 1.057
739.40 1.056
739.50 1.056
739.60 1.056
739.70 1.056
739.80 1.056
739.90 1.056
740.00 1.056
740.10 1.056
740.20 1.056
740.30 1.056
740.40 1.055
740.50 1.055
740.60 1.055
740.70 1.055
740.80 1.055
740.90 1.055
741.00 1.055
741.10 1.055
741.20 1.055
741.30 1.055
741.40 1.054
741.50 1.054
741.60 1.054
741.70 1.054
741.80 1.054
741.90 1.054
742.00 1.054
742.10 1.054
742.20 1.054
742.30 1.054
742.40 1.053
742.50 1.053
742.60 1.053
742.70 1.053
742.80 1.053
742.90 1.053
743.00 1.053
743.10 1.053
743.20 1.053
743.30 1.053
743.40 1.052
743.50 1.052
743.60 1.052
743.70 1.052
743.80 1.052
743.90 1.052
744.00 1.052
744.10 1.052
744.20 1.052
744.30 1.052
744.40 1.051
744.50 1.051
744.60 1.051
744.70 1.051
744.80 1.051
744.90 1.051
745.00 1.051
745.10 1.051
745.20 1.051
745.30 1.051
745.40 1.05
745.50 1.05
745.60 1.05
745.70 1.05
745.80 1.05
745.90 1.05
746.00 1.05
746.10 1.05
746.20 1.05
746.30 1.05
746.40 1.049
746.50 1.049
746.60 1.049
746.70 1.049
746.80 1.049
746.90 1.049
747.00 1.049
747.10 1.049
747.20 1.049
747.30 1.049
747.40 1.048
747.50 1.048
747.60 1.048
747.70 1.048
747.80 1.048
747.90 1.048
748.00 1.048
748.10 1.048
748.20 1.048
748.30 1.048
748.40 1.047
748.50 1.047
748.60 1.047
748.70 1.047
748.80 1.047
748.90 1.047
749.00 1.047
749.10 1.047
749.20 1.047
749.30 1.047
749.40 1.046
749.50 1.046
749.60 1.046
749.70 1.046
749.80 1.046
749.90 1.046
750.00 1.046
750.10 1.046
750.20 1.046
750.30 1.046
750.40 1.045
750.50 1.045
750.60 1.045
750.70 1.045
750.80 1.045
750.90 1.045
751.00 1.045
751.10 1.045
751.20 1.045
751.30 1.044
751.40 1.044
751.50 1.044
751.60 1.044
751.70 1.044
751.80 1.044
751.90 1.044
752.00 1.044
752.10 1.044
752.20 1.044
752.30 1.043
752.40 1.043
752.50 1.043
752.60 1.043
752.70 1.043
752.80 1.043
752.90 1.043
753.00 1.043
753.10 1.043
753.20 1.042
753.30 1.042
753.40 1.042
753.50 1.042
753.60 1.042
753.70 1.042
753.80 1.042
753.90 1.042
754.00 1.042
754.10 1.042
754.20 1.041
754.30 1.041
754.40 1.041
754.50 1.041
754.60 1.041
754.70 1.041
754.80 1.041
754.90 1.041
755.00 1.041
755.10 1.04
755.20 1.04
755.30 1.04
755.40 1.04
755.50 1.04
755.60 1.04
755.70 1.04
755.80 1.04
755.90 1.04
756.00 1.04
756.10 1.039
756.20 1.039
756.30 1.039
756.40 1.039
756.50 1.039
756.60 1.039
756.70 1.039
756.80 1.039
756.90 1.039
757.00 1.038
757.10 1.038
757.20 1.038
757.30 1.038
757.40 1.038
757.50 1.038
757.60 1.038
757.70 1.038
757.80 1.038
757.90 1.038
758.00 1.037
758.10 1.037
758.20 1.037
758.30 1.037
758.40 1.037
758.50 1.037
758.60 1.037
758.70 1.037
758.80 1.037
758.90 1.036
759.00 1.036
759.10 1.036
759.20 1.036
759.30 1.036
759.40 1.036
759.50 1.036
759.60 1.036
759.70 1.036
759.80 1.036
759.90 1.035
760.00 1.035
760.10 1.035
760.20 1.035
760.30 1.035
760.40 1.035
760.50 1.035
760.60 1.035
760.70 1.035
760.80 1.034
760.90 1.034
761.00 1.034
761.10 1.034
761.20 1.034
761.30 1.034
761.40 1.034
761.50 1.034
761.60 1.034
761.70 1.033
761.80 1.033
761.90 1.033
762.00 1.033
762.10 1.033
762.20 1.033
762.30 1.033
762.40 1.033
762.50 1.033
762.60 1.032
762.70 1.032
762.80 1.032
762.90 1.032
763.00 1.032
763.10 1.032
763.20 1.032
763.30 1.032
763.40 1.032
763.50 1.032
763.60 1.031
763.70 1.031
763.80 1.031
763.90 1.031
764.00 1.031
764.10 1.031
764.20 1.031
764.30 1.031
764.40 1.031
764.50 1.03
764.60 1.03
764.70 1.03
764.80 1.03
764.90 1.03
765.00 1.03
765.10 1.03
765.20 1.03
765.30 1.03
765.40 1.029
765.50 1.029
765.60 1.029
765.70 1.029
765.80 1.029
765.90 1.029
766.00 1.029
766.10 1.029
766.20 1.029
766.30 1.028
766.40 1.028
766.50 1.028
766.60 1.028
766.70 1.028
766.80 1.028
766.90 1.028
767.00 1.028
767.10 1.028
767.20 1.028
767.30 1.027
767.40 1.027
767.50 1.027
767.60 1.027
767.70 1.027
767.80 1.027
767.90 1.027
768.00 1.027
768.10 1.027
768.20 1.026
768.30 1.026
768.40 1.026
768.50 1.026
768.60 1.026
768.70 1.026
768.80 1.026
768.90 1.026
769.00 1.026
769.10 1.025
769.20 1.025
769.30 1.025
769.40 1.025
769.50 1.025
769.60 1.025
769.70 1.025
769.80 1.025
769.90 1.025
770.00 1.024
770.10 1.024
770.20 1.024
770.30 1.024
770.40 1.024
770.50 1.024
770.60 1.024
770.70 1.024
770.80 1.024
770.90 1.023
771.00 1.023
771.10 1.023
771.20 1.023
771.30 1.023
771.40 1.023
771.50 1.023
771.60 1.023
771.70 1.023
771.80 1.022
771.90 1.022
772.00 1.022
772.10 1.022
772.20 1.022
772.30 1.022
772.40 1.022
772.50 1.022
772.60 1.022
772.70 1.021
772.80 1.021
772.90 1.021
773.00 1.021
773.10 1.021
773.20 1.021
773.30 1.021
773.40 1.021
773.50 1.021
773.60 1.02
773.70 1.02
773.80 1.02
773.90 1.02
774.00 1.02
774.10 1.02
774.20 1.02
774.30 1.02
774.40 1.02
774.50 1.019
774.60 1.019
774.70 1.019
774.80 1.019
774.90 1.019
775.00 1.019
775.10 1.019
775.20 1.019
775.30 1.019
775.40 1.018
775.50 1.018
775.60 1.018
775.70 1.018
775.80 1.018
775.90 1.018
776.00 1.018
776.10 1.018
776.20 1.018
776.30 1.017
776.40 1.017
776.50 1.017
776.60 1.017
776.70 1.017
776.80 1.017
776.90 1.017
777.00 1.017
777.10 1.017
777.20 1.016
777.30 1.016
777.40 1.016
777.50 1.016
777.60 1.016
777.70 1.016
777.80 1.016
777.90 1.016
778.00 1.016
778.10 1.015
778.20 1.015
778.30 1.015
778.40 1.015
778.50 1.015
778.60 1.015
778.70 1.015
778.80 1.015
778.90 1.015
779.00 1.014
779.10 1.014
779.20 1.014
779.30 1.014
779.40 1.014
779.50 1.014
779.60 1.014
779.70 1.014
779.80 1.014
779.90 1.013
780.00 1.013
780.10 1.013
780.20 1.013
780.30 1.013
780.40 1.013
780.50 1.013
780.60 1.013
780.70 1.012
780.80 1.012
780.90 1.012
781.00 1.012
781.10 1.012
781.20 1.012
781.30 1.012
781.40 1.012
781.50 1.012
781.60 1.011
781.70 1.011
781.80 1.011
781.90 1.011
782.00 1.011
782.10 1.011
782.20 1.011
782.30 1.011
782.40 1.011
782.50 1.01
782.60 1.01
782.70 1.01
782.80 1.01
782.90 1.01
783.00 1.01
783.10 1.01
783.20 1.01
783.30 1.009
783.40 1.009
783.50 1.009
783.60 1.009
783.70 1.009
783.80 1.009
783.90 1.009
784.00 1.009
784.10 1.009
784.20 1.008
784.30 1.008
784.40 1.008
784.50 1.008
784.60 1.008
784.70 1.008
784.80 1.008
784.90 1.008
785.00 1.008
785.10 1.007
785.20 1.007
785.30 1.007
785.40 1.007
785.50 1.007
785.60 1.007
785.70 1.007
785.80 1.007
785.90 1.006
786.00 1.006
786.10 1.006
786.20 1.006
786.30 1.006
786.40 1.006
786.50 1.006
786.60 1.006
786.70 1.006
786.80 1.005
786.90 1.005
787.00 1.005
787.10 1.005
787.20 1.005
787.30 1.005
787.40 1.005
787.50 1.005
787.60 1.005
787.70 1.004
787.80 1.004
787.90 1.004
788.00 1.004
788.10 1.004
788.20 1.004
788.30 1.004
788.40 1.004
788.50 1.004
788.60 1.003
788.70 1.003
788.80 1.003
788.90 1.003
789.00 1.003
789.10 1.003
789.20 1.003
789.30 1.003
789.40 1.002
789.50 1.002
789.60 1.002
789.70 1.002
789.80 1.002
789.90 1.002
790.00 1.002
790.10 1.002
790.20 1.002
790.30 1.001
790.40 1.001
790.50 1.001
790.60 1.001
790.70 1.001
790.80 1.001
790.90 1.001
791.00 1.001
791.10 1
791.20 1
791.30 1
791.40 1
791.50 1
791.60 0.9999
791.70 0.9998
791.80 0.9997
791.90 0.9996
792.00 0.9994
792.10 0.9993
792.20 0.9992
792.30 0.9991
792.40 0.999
792.50 0.9988
792.60 0.9987
792.70 0.9986
792.80 0.9985
792.90 0.9984
793.00 0.9983
793.10 0.9981
793.20 0.998
793.30 0.9979
793.40 0.9978
793.50 0.9977
793.60 0.9975
793.70 0.9974
793.80 0.9973
793.90 0.9972
794.00 0.9971
794.10 0.997
794.20 0.9968
794.30 0.9967
794.40 0.9966
794.50 0.9965
794.60 0.9964
794.70 0.9963
794.80 0.9961
794.90 0.996
795.00 0.9959
795.10 0.9958
795.20 0.9957
795.30 0.9955
795.40 0.9954
795.50 0.9953
795.60 0.9952
795.70 0.9951
795.80 0.995
795.90 0.9948
796.00 0.9947
796.10 0.9946
796.20 0.9945
796.30 0.9944
796.40 0.9943
796.50 0.9941
796.60 0.994
796.70 0.9939
796.80 0.9938
796.90 0.9937
797.00 0.9936
797.10 0.9934
797.20 0.9933
797.30 0.9932
797.40 0.9931
797.50 0.993
797.60 0.9929
797.70 0.9927
797.80 0.9926
797.90 0.9925
798.00 0.9924
798.10 0.9923
798.20 0.9922
798.30 0.992
798.40 0.9919
798.50 0.9918
798.60 0.9917
798.70 0.9916
798.80 0.9915
798.90 0.9913
799.00 0.9912
799.10 0.9911
799.20 0.991
799.30 0.9909
799.40 0.9908
799.50 0.9906
799.60 0.9905
799.70 0.9904
799.80 0.9903
799.90 0.9902
800.00 0.9901
800.10 0.9899
800.20 0.9898
800.30 0.9897
800.40 0.9896
800.50 0.9895
800.60 0.9893
800.70 0.9892
800.80 0.9891
800.90 0.989
801.00 0.9889
801.10 0.9887
801.20 0.9886
801.30 0.9885
801.40 0.9884
801.50 0.9882
801.60 0.9881
801.70 0.988
801.80 0.9879
801.90 0.9878
802.00 0.9876
802.10 0.9875
802.20 0.9874
802.30 0.9873
802.40 0.9872
802.50 0.987
802.60 0.9869
802.70 0.9868
802.80 0.9867
802.90 0.9866
803.00 0.9864
803.10 0.9863
803.20 0.9862
803.30 0.9861
803.40 0.986
803.50 0.9858
803.60 0.9857
803.70 0.9856
803.80 0.9855
803.90 0.9854
804.00 0.9852
804.10 0.9851
804.20 0.985
804.30 0.9849
804.40 0.9848
804.50 0.9846
804.60 0.9845
804.70 0.9844
804.80 0.9843
804.90 0.9842
805.00 0.984
805.10 0.9839
805.20 0.9838
805.30 0.9837
805.40 0.9836
805.50 0.9834
805.60 0.9833
805.70 0.9832
805.80 0.9831
805.90 0.983
806.00 0.9828
806.10 0.9827
806.20 0.9826
806.30 0.9825
806.40 0.9824
806.50 0.9822
806.60 0.9821
806.70 0.982
806.80 0.9819
806.90 0.9818
807.00 0.9816
807.10 0.9815
807.20 0.9814
807.30 0.9813
807.40 0.9812
807.50 0.981
807.60 0.9809
807.70 0.9808
807.80 0.9807
807.90 0.9806
808.00 0.9804
808.10 0.9803
808.20 0.9802
808.30 0.9801
808.40 0.98
808.50 0.9799
808.60 0.9797
808.70 0.9796
808.80 0.9795
808.90 0.9794
809.00 0.9793
809.10 0.9791
809.20 0.979
809.30 0.9789
809.40 0.9788
809.50 0.9787
809.60 0.9785
809.70 0.9784
809.80 0.9783
809.90 0.9782
810.00 0.9781
810.10 0.978
810.20 0.9778
810.30 0.9777
810.40 0.9776
810.50 0.9775
810.60 0.9773
810.70 0.9772
810.80 0.9771
810.90 0.977
811.00 0.9768
811.10 0.9767
811.20 0.9766
811.30 0.9765
811.40 0.9764
811.50 0.9762
811.60 0.9761
811.70 0.976
811.80 0.9759
811.90 0.9757
812.00 0.9756
812.10 0.9755
812.20 0.9754
812.30 0.9752
812.40 0.9751
812.50 0.975
812.60 0.9749
812.70 0.9748
812.80 0.9746
812.90 0.9745
813.00 0.9744
813.10 0.9743
813.20 0.9741
813.30 0.974
813.40 0.9739
813.50 0.9738
813.60 0.9737
813.70 0.9735
813.80 0.9734
813.90 0.9733
814.00 0.9732
814.10 0.973
814.20 0.9729
814.30 0.9728
814.40 0.9727
814.50 0.9726
814.60 0.9724
814.70 0.9723
814.80 0.9722
814.90 0.9721
815.00 0.9719
815.10 0.9718
815.20 0.9717
815.30 0.9716
815.40 0.9715
815.50 0.9713
815.60 0.9712
815.70 0.9711
815.80 0.971
815.90 0.9709
816.00 0.9707
816.10 0.9706
816.20 0.9705
816.30 0.9704
816.40 0.9702
816.50 0.9701
816.60 0.97
816.70 0.9699
816.80 0.9698
816.90 0.9696
817.00 0.9695
817.10 0.9694
817.20 0.9693
817.30 0.9692
817.40 0.969
817.50 0.9689
817.60 0.9688
817.70 0.9687
817.80 0.9686
817.90 0.9684
818.00 0.9683
818.10 0.9682
818.20 0.9681
818.30 0.9679
818.40 0.9678
818.50 0.9677
818.60 0.9676
818.70 0.9675
818.80 0.9673
818.90 0.9672
819.00 0.9671
819.10 0.967
819.20 0.9669
819.30 0.9667
819.40 0.9666
819.50 0.9665
819.60 0.9664
819.70 0.9663
819.80 0.9661
819.90 0.966
820.00 0.9659
820.10 0.9658
820.20 0.9657
820.30 0.9655
820.40 0.9654
820.50 0.9653
820.60 0.9652
820.70 0.9651
820.80 0.9649
820.90 0.9648
821.00 0.9647
821.10 0.9646
821.20 0.9644
821.30 0.9643
821.40 0.9642
821.50 0.9641
821.60 0.964
821.70 0.9638
821.80 0.9637
821.90 0.9636
822.00 0.9635
822.10 0.9633
822.20 0.9632
822.30 0.9631
822.40 0.963
822.50 0.9628
822.60 0.9627
822.70 0.9626
822.80 0.9625
822.90 0.9624
823.00 0.9622
823.10 0.9621
823.20 0.962
823.30 0.9619
823.40 0.9617
823.50 0.9616
823.60 0.9615
823.70 0.9614
823.80 0.9612
823.90 0.9611
824.00 0.961
824.10 0.9609
824.20 0.9607
824.30 0.9606
824.40 0.9605
824.50 0.9604
824.60 0.9602
824.70 0.9601
824.80 0.96
824.90 0.9599
825.00 0.9598
825.10 0.9596
825.20 0.9595
825.30 0.9594
825.40 0.9593
825.50 0.9591
825.60 0.959
825.70 0.9589
825.80 0.9588
825.90 0.9586
826.00 0.9585
826.10 0.9584
826.20 0.9583
826.30 0.9582
826.40 0.958
826.50 0.9579
826.60 0.9578
826.70 0.9577
826.80 0.9575
826.90 0.9574
827.00 0.9573
827.10 0.9572
827.20 0.957
827.30 0.9569
827.40 0.9568
827.50 0.9567
827.60 0.9565
827.70 0.9564
827.80 0.9563
827.90 0.9562
828.00 0.956
828.10 0.9559
828.20 0.9558
828.30 0.9557
828.40 0.9556
828.50 0.9554
828.60 0.9553
828.70 0.9552
828.80 0.9551
828.90 0.9549
829.00 0.9548
829.10 0.9547
829.20 0.9546
829.30 0.9544
829.40 0.9543
829.50 0.9542
829.60 0.9541
829.70 0.9539
829.80 0.9538
829.90 0.9537
830.00 0.9536
830.10 0.9535
830.20 0.9533
830.30 0.9532
830.40 0.9531
830.50 0.953
830.60 0.9528
830.70 0.9527
830.80 0.9526
830.90 0.9525
831.00 0.9523
831.10 0.9522
831.20 0.9521
831.30 0.952
831.40 0.9518
831.50 0.9517
831.60 0.9516
831.70 0.9515
831.80 0.9514
831.90 0.9512
832.00 0.9511
832.10 0.951
832.20 0.9509
832.30 0.9507
832.40 0.9506
832.50 0.9505
832.60 0.9504
832.70 0.9502
832.80 0.9501
832.90 0.95
833.00 0.9499
833.10 0.9497
833.20 0.9496
833.30 0.9495
833.40 0.9494
833.50 0.9492
833.60 0.9491
833.70 0.949
833.80 0.9489
833.90 0.9487
834.00 0.9486
834.10 0.9485
834.20 0.9484
834.30 0.9482
834.40 0.9481
834.50 0.948
834.60 0.9479
834.70 0.9477
834.80 0.9476
834.90 0.9475
835.00 0.9474
835.10 0.9472
835.20 0.9471
835.30 0.947
835.40 0.9469
835.50 0.9467
835.60 0.9466
835.70 0.9465
835.80 0.9464
835.90 0.9462
836.00 0.9461
836.10 0.946
836.20 0.9459
836.30 0.9457
836.40 0.9456
836.50 0.9455
836.60 0.9454
836.70 0.9452
836.80 0.9451
836.90 0.945
837.00 0.9449
837.10 0.9447
837.20 0.9446
837.30 0.9445
837.40 0.9444
837.50 0.9442
837.60 0.9441
837.70 0.944
837.80 0.9439
837.90 0.9437
838.00 0.9436
838.10 0.9435
838.20 0.9434
838.30 0.9432
838.40 0.9431
838.50 0.943
838.60 0.9429
838.70 0.9427
838.80 0.9426
838.90 0.9425
839.00 0.9424
839.10 0.9422
839.20 0.9421
839.30 0.942
839.40 0.9419
839.50 0.9417
839.60 0.9416
839.70 0.9415
839.80 0.9414
839.90 0.9412
840.00 0.9411
840.10 0.941
840.20 0.9409
840.30 0.9407
840.40 0.9406
840.50 0.9405
840.60 0.9404
840.70 0.9402
840.80 0.9401
840.90 0.94
841.00 0.9399
841.10 0.9397
841.20 0.9396
841.30 0.9395
841.40 0.9394
841.50 0.9392
841.60 0.9391
841.70 0.939
841.80 0.9389
841.90 0.9387
842.00 0.9386
842.10 0.9385
842.20 0.9384
842.30 0.9382
842.40 0.9381
842.50 0.938
842.60 0.9379
842.70 0.9377
842.80 0.9376
842.90 0.9375
843.00 0.9374
843.10 0.9372
843.20 0.9371
843.30 0.937
843.40 0.9368
843.50 0.9367
843.60 0.9366
843.70 0.9365
843.80 0.9363
843.90 0.9362
844.00 0.9361
844.10 0.936
844.20 0.9358
844.30 0.9357
844.40 0.9356
844.50 0.9355
844.60 0.9353
844.70 0.9352
844.80 0.9351
844.90 0.935
845.00 0.9348
845.10 0.9347
845.20 0.9346
845.30 0.9345
845.40 0.9343
845.50 0.9342
845.60 0.9341
845.70 0.934
845.80 0.9338
845.90 0.9337
846.00 0.9336
846.10 0.9335
846.20 0.9333
846.30 0.9332
846.40 0.9331
846.50 0.933
846.60 0.9328
846.70 0.9327
846.80 0.9326
846.90 0.9325
847.00 0.9323
847.10 0.9322
847.20 0.9321
847.30 0.9319
847.40 0.9318
847.50 0.9317
847.60 0.9316
847.70 0.9314
847.80 0.9313
847.90 0.9312
848.00 0.9311
848.10 0.9309
848.20 0.9308
848.30 0.9307
848.40 0.9306
848.50 0.9304
848.60 0.9303
848.70 0.9302
848.80 0.93
848.90 0.9299
849.00 0.9298
849.10 0.9297
849.20 0.9295
849.30 0.9294
849.40 0.9293
849.50 0.9292
849.60 0.929
849.70 0.9289
849.80 0.9288
849.90 0.9287
850.00 0.9285
850.10 0.9284
850.20 0.9283
850.30 0.9282
850.40 0.928
850.50 0.9279
850.60 0.9278
850.70 0.9277
850.80 0.9275
850.90 0.9274
851.00 0.9273
851.10 0.9272
851.20 0.927
851.30 0.9269
851.40 0.9268
851.50 0.9266
851.60 0.9265
851.70 0.9264
851.80 0.9263
851.90 0.9261
852.00 0.926
852.10 0.9259
852.20 0.9258
852.30 0.9256
852.40 0.9255
852.50 0.9254
852.60 0.9253
852.70 0.9251
852.80 0.925
852.90 0.9249
853.00 0.9248
853.10 0.9246
853.20 0.9245
853.30 0.9244
853.40 0.9242
853.50 0.9241
853.60 0.924
853.70 0.9239
853.80 0.9237
853.90 0.9236
854.00 0.9235
854.10 0.9234
854.20 0.9232
854.30 0.9231
854.40 0.923
854.50 0.9229
854.60 0.9227
854.70 0.9226
854.80 0.9225
854.90 0.9223
855.00 0.9222
855.10 0.9221
855.20 0.922
855.30 0.9218
855.40 0.9217
855.50 0.9216
855.60 0.9215
855.70 0.9213
855.80 0.9212
855.90 0.9211
856.00 0.921
856.10 0.9208
856.20 0.9207
856.30 0.9206
856.40 0.9205
856.50 0.9203
856.60 0.9202
856.70 0.9201
856.80 0.92
856.90 0.9198
857.00 0.9197
857.10 0.9196
857.20 0.9194
857.30 0.9193
857.40 0.9192
857.50 0.9191
857.60 0.9189
857.70 0.9188
857.80 0.9187
857.90 0.9186
858.00 0.9184
858.10 0.9183
858.20 0.9182
858.30 0.918
858.40 0.9179
858.50 0.9178
858.60 0.9177
858.70 0.9175
858.80 0.9174
858.90 0.9173
859.00 0.9172
859.10 0.917
859.20 0.9169
859.30 0.9168
859.40 0.9166
859.50 0.9165
859.60 0.9164
859.70 0.9163
859.80 0.9161
859.90 0.916
860.00 0.9159
860.10 0.9158
860.20 0.9156
860.30 0.9155
860.40 0.9154
860.50 0.9152
860.60 0.9151
860.70 0.915
860.80 0.9149
860.90 0.9147
861.00 0.9146
861.10 0.9145
861.20 0.9144
861.30 0.9142
861.40 0.9141
861.50 0.914
861.60 0.9139
861.70 0.9137
861.80 0.9136
861.90 0.9135
862.00 0.9134
862.10 0.9132
862.20 0.9131
862.30 0.913
862.40 0.9128
862.50 0.9127
862.60 0.9126
862.70 0.9125
862.80 0.9123
862.90 0.9122
863.00 0.9121
863.10 0.912
863.20 0.9118
863.30 0.9117
863.40 0.9116
863.50 0.9114
863.60 0.9113
863.70 0.9112
863.80 0.9111
863.90 0.9109
864.00 0.9108
864.10 0.9107
864.20 0.9106
864.30 0.9104
864.40 0.9103
864.50 0.9102
864.60 0.91
864.70 0.9099
864.80 0.9098
864.90 0.9097
865.00 0.9095
865.10 0.9094
865.20 0.9093
865.30 0.9092
865.40 0.909
865.50 0.9089
865.60 0.9088
865.70 0.9087
865.80 0.9085
865.90 0.9084
866.00 0.9083
866.10 0.9081
866.20 0.908
866.30 0.9079
866.40 0.9078
866.50 0.9076
866.60 0.9075
866.70 0.9074
866.80 0.9073
866.90 0.9071
867.00 0.907
867.10 0.9069
867.20 0.9068
867.30 0.9066
867.40 0.9065
867.50 0.9064
867.60 0.9062
867.70 0.9061
867.80 0.906
867.90 0.9059
868.00 0.9057
868.10 0.9056
868.20 0.9055
868.30 0.9053
868.40 0.9052
868.50 0.9051
868.60 0.905
868.70 0.9048
868.80 0.9047
868.90 0.9046
869.00 0.9045
869.10 0.9043
869.20 0.9042
869.30 0.9041
869.40 0.9039
869.50 0.9038
869.60 0.9037
869.70 0.9036
869.80 0.9034
869.90 0.9033
870.00 0.9032
870.10 0.9031
870.20 0.9029
870.30 0.9028
870.40 0.9027
870.50 0.9025
870.60 0.9024
870.70 0.9023
870.80 0.9022
870.90 0.902
871.00 0.9019
871.10 0.9018
871.20 0.9017
871.30 0.9015
871.40 0.9014
871.50 0.9013
871.60 0.9011
871.70 0.901
871.80 0.9009
871.90 0.9008
872.00 0.9006
872.10 0.9005
872.20 0.9004
872.30 0.9003
872.40 0.9001
872.50 0.9
872.60 0.8999
872.70 0.8997
872.80 0.8996
872.90 0.8995
873.00 0.8994
873.10 0.8992
873.20 0.8991
873.30 0.899
873.40 0.8988
873.50 0.8987
873.60 0.8986
873.70 0.8985
873.80 0.8983
873.90 0.8982
874.00 0.8981
874.10 0.898
874.20 0.8978
874.30 0.8977
874.40 0.8976
874.50 0.8974
874.60 0.8973
874.70 0.8972
874.80 0.8971
874.90 0.8969
875.00 0.8968
875.10 0.8967
875.20 0.8965
875.30 0.8964
875.40 0.8963
875.50 0.8962
875.60 0.896
875.70 0.8959
875.80 0.8958
875.90 0.8957
876.00 0.8955
876.10 0.8954
876.20 0.8953
876.30 0.8952
876.40 0.895
876.50 0.8949
876.60 0.8948
876.70 0.8946
876.80 0.8945
876.90 0.8944
877.00 0.8943
877.10 0.8941
877.20 0.894
877.30 0.8939
877.40 0.8937
877.50 0.8936
877.60 0.8935
877.70 0.8934
877.80 0.8932
877.90 0.8931
878.00 0.893
878.10 0.8929
878.20 0.8927
878.30 0.8926
878.40 0.8925
878.50 0.8923
878.60 0.8922
878.70 0.8921
878.80 0.892
878.90 0.8918
879.00 0.8917
879.10 0.8916
879.20 0.8914
879.30 0.8913
879.40 0.8912
879.50 0.8911
879.60 0.8909
879.70 0.8908
879.80 0.8907
879.90 0.8906
880.00 0.8904
880.10 0.8903
880.20 0.8902
880.30 0.89
880.40 0.8899
880.50 0.8898
880.60 0.8897
880.70 0.8895
880.80 0.8894
880.90 0.8893
881.00 0.8891
881.10 0.889
881.20 0.8889
881.30 0.8888
881.40 0.8886
881.50 0.8885
881.60 0.8884
881.70 0.8883
881.80 0.8881
881.90 0.888
882.00 0.8879
882.10 0.8878
882.20 0.8876
882.30 0.8875
882.40 0.8874
882.50 0.8872
882.60 0.8871
882.70 0.887
882.80 0.8869
882.90 0.8867
883.00 0.8866
883.10 0.8865
883.20 0.8863
883.30 0.8862
883.40 0.8861
883.50 0.886
883.60 0.8858
883.70 0.8857
883.80 0.8856
883.90 0.8854
884.00 0.8853
884.10 0.8852
884.20 0.8851
884.30 0.8849
884.40 0.8848
884.50 0.8847
884.60 0.8845
884.70 0.8844
884.80 0.8843
884.90 0.8842
885.00 0.884
885.10 0.8839
885.20 0.8838
885.30 0.8837
885.40 0.8835
885.50 0.8834
885.60 0.8833
885.70 0.8831
885.80 0.883
885.90 0.8829
886.00 0.8828
886.10 0.8826
886.20 0.8825
886.30 0.8824
886.40 0.8823
886.50 0.8821
886.60 0.882
886.70 0.8819
886.80 0.8817
886.90 0.8816
887.00 0.8815
887.10 0.8814
887.20 0.8812
887.30 0.8811
887.40 0.881
887.50 0.8809
887.60 0.8807
887.70 0.8806
887.80 0.8805
887.90 0.8803
888.00 0.8802
888.10 0.8801
888.20 0.88
888.30 0.8798
888.40 0.8797
888.50 0.8796
888.60 0.8794
888.70 0.8793
888.80 0.8792
888.90 0.8791
889.00 0.8789
889.10 0.8788
889.20 0.8787
889.30 0.8785
889.40 0.8784
889.50 0.8783
889.60 0.8782
889.70 0.878
889.80 0.8779
889.90 0.8778
890.00 0.8776
890.10 0.8775
890.20 0.8774
890.30 0.8773
890.40 0.8771
890.50 0.877
890.60 0.8769
890.70 0.8768
890.80 0.8766
890.90 0.8765
891.00 0.8764
891.10 0.8762
891.20 0.8761
891.30 0.876
891.40 0.8759
891.50 0.8757
891.60 0.8756
891.70 0.8755
891.80 0.8754
891.90 0.8752
892.00 0.8751
892.10 0.875
892.20 0.8748
892.30 0.8747
892.40 0.8746
892.50 0.8745
892.60 0.8743
892.70 0.8742
892.80 0.8741
892.90 0.874
893.00 0.8738
893.10 0.8737
893.20 0.8736
893.30 0.8734
893.40 0.8733
893.50 0.8732
893.60 0.8731
893.70 0.8729
893.80 0.8728
893.90 0.8727
894.00 0.8725
894.10 0.8724
894.20 0.8723
894.30 0.8722
894.40 0.872
894.50 0.8719
894.60 0.8718
894.70 0.8717
894.80 0.8715
894.90 0.8714
895.00 0.8713
895.10 0.8711
895.20 0.871
895.30 0.8709
895.40 0.8708
895.50 0.8706
895.60 0.8705
895.70 0.8704
895.80 0.8703
895.90 0.8701
896.00 0.87
896.10 0.8699
896.20 0.8697
896.30 0.8696
896.40 0.8695
896.50 0.8694
896.60 0.8692
896.70 0.8691
896.80 0.869
896.90 0.8689
897.00 0.8687
897.10 0.8686
897.20 0.8685
897.30 0.8683
897.40 0.8682
897.50 0.8681
897.60 0.868
897.70 0.8678
897.80 0.8677
897.90 0.8676
898.00 0.8675
898.10 0.8673
898.20 0.8672
898.30 0.8671
898.40 0.8669
898.50 0.8668
898.60 0.8667
898.70 0.8666
898.80 0.8664
898.90 0.8663
899.00 0.8662
899.10 0.866
899.20 0.8659
899.30 0.8658
899.40 0.8657
899.50 0.8655
899.60 0.8654
899.70 0.8653
899.80 0.8651
899.90 0.865
900.00 0.8649
900.10 0.8648
900.20 0.8646
900.30 0.8645
900.40 0.8644
900.50 0.8643
900.60 0.8641
900.70 0.864
900.80 0.8639
900.90 0.8637
901.00 0.8636
901.10 0.8635
901.20 0.8634
901.30 0.8632
901.40 0.8631
901.50 0.863
901.60 0.8629
901.70 0.8627
901.80 0.8626
901.90 0.8625
902.00 0.8623
902.10 0.8622
902.20 0.8621
902.30 0.862
902.40 0.8618
902.50 0.8617
902.60 0.8616
902.70 0.8614
902.80 0.8613
902.90 0.8612
903.00 0.8611
903.10 0.8609
903.20 0.8608
903.30 0.8607
903.40 0.8605
903.50 0.8604
903.60 0.8603
903.70 0.8601
903.80 0.86
903.90 0.8599
904.00 0.8598
904.10 0.8596
904.20 0.8595
904.30 0.8594
904.40 0.8592
904.50 0.8591
904.60 0.859
904.70 0.8589
904.80 0.8587
904.90 0.8586
905.00 0.8585
905.10 0.8583
905.20 0.8582
905.30 0.8581
905.40 0.858
905.50 0.8578
905.60 0.8577
905.70 0.8576
905.80 0.8574
905.90 0.8573
906.00 0.8572
906.10 0.8571
906.20 0.8569
906.30 0.8568
906.40 0.8567
906.50 0.8566
906.60 0.8564
906.70 0.8563
906.80 0.8562
906.90 0.856
907.00 0.8559
907.10 0.8558
907.20 0.8557
907.30 0.8555
907.40 0.8554
907.50 0.8553
907.60 0.8551
907.70 0.855
907.80 0.8549
907.90 0.8548
908.00 0.8546
908.10 0.8545
908.20 0.8544
908.30 0.8542
908.40 0.8541
908.50 0.854
908.60 0.8539
908.70 0.8537
908.80 0.8536
908.90 0.8535
909.00 0.8533
909.10 0.8532
909.20 0.8531
909.30 0.853
909.40 0.8528
909.50 0.8527
909.60 0.8526
909.70 0.8524
909.80 0.8523
909.90 0.8522
910.00 0.8521
910.10 0.8519
910.20 0.8518
910.30 0.8517
910.40 0.8515
910.50 0.8514
910.60 0.8513
910.70 0.8512
910.80 0.851
910.90 0.8509
911.00 0.8508
911.10 0.8507
911.20 0.8505
911.30 0.8504
911.40 0.8503
911.50 0.8501
911.60 0.85
911.70 0.8499
911.80 0.8498
911.90 0.8496
912.00 0.8495
912.10 0.8494
912.20 0.8492
912.30 0.8491
912.40 0.849
912.50 0.8489
912.60 0.8487
912.70 0.8486
912.80 0.8485
912.90 0.8484
913.00 0.8482
913.10 0.8481
913.20 0.848
913.30 0.8478
913.40 0.8477
913.50 0.8476
913.60 0.8475
913.70 0.8473
913.80 0.8472
913.90 0.8471
914.00 0.8469
914.10 0.8468
914.20 0.8467
914.30 0.8466
914.40 0.8464
914.50 0.8463
914.60 0.8462
914.70 0.8461
914.80 0.8459
914.90 0.8458
915.00 0.8457
915.10 0.8455
915.20 0.8454
915.30 0.8453
915.40 0.8452
915.50 0.845
915.60 0.8449
915.70 0.8448
915.80 0.8447
915.90 0.8445
916.00 0.8444
916.10 0.8443
916.20 0.8442
916.30 0.844
916.40 0.8439
916.50 0.8438
916.60 0.8436
916.70 0.8435
916.80 0.8434
916.90 0.8433
917.00 0.8431
917.10 0.843
917.20 0.8429
917.30 0.8428
917.40 0.8426
917.50 0.8425
917.60 0.8424
917.70 0.8422
917.80 0.8421
917.90 0.842
918.00 0.8419
918.10 0.8417
918.20 0.8416
918.30 0.8415
918.40 0.8413
918.50 0.8412
918.60 0.8411
918.70 0.841
918.80 0.8408
918.90 0.8407
919.00 0.8406
919.10 0.8405
919.20 0.8403
919.30 0.8402
919.40 0.8401
919.50 0.8399
919.60 0.8398
919.70 0.8397
919.80 0.8396
919.90 0.8394
920.00 0.8393
920.10 0.8392
920.20 0.839
920.30 0.8389
920.40 0.8388
920.50 0.8387
920.60 0.8385
920.70 0.8384
920.80 0.8383
920.90 0.8382
921.00 0.838
921.10 0.8379
921.20 0.8378
921.30 0.8377
921.40 0.8375
921.50 0.8374
921.60 0.8373
921.70 0.8371
921.80 0.837
921.90 0.8369
922.00 0.8368
922.10 0.8366
922.20 0.8365
922.30 0.8364
922.40 0.8363
922.50 0.8361
922.60 0.836
922.70 0.8359
922.80 0.8357
922.90 0.8356
923.00 0.8355
923.10 0.8354
923.20 0.8352
923.30 0.8351
923.40 0.835
923.50 0.8348
923.60 0.8347
923.70 0.8346
923.80 0.8345
923.90 0.8343
924.00 0.8342
924.10 0.8341
924.20 0.8339
924.30 0.8338
924.40 0.8337
924.50 0.8336
924.60 0.8334
924.70 0.8333
924.80 0.8332
924.90 0.8331
925.00 0.8329
925.10 0.8328
925.20 0.8327
925.30 0.8325
925.40 0.8324
925.50 0.8323
925.60 0.8322
925.70 0.832
925.80 0.8319
925.90 0.8318
926.00 0.8317
926.10 0.8315
926.20 0.8314
926.30 0.8313
926.40 0.8312
926.50 0.831
926.60 0.8309
926.70 0.8308
926.80 0.8306
926.90 0.8305
927.00 0.8304
927.10 0.8303
927.20 0.8301
927.30 0.83
927.40 0.8299
927.50 0.8298
927.60 0.8296
927.70 0.8295
927.80 0.8294
927.90 0.8292
928.00 0.8291
928.10 0.829
928.20 0.8289
928.30 0.8287
928.40 0.8286
928.50 0.8285
928.60 0.8283
928.70 0.8282
928.80 0.8281
928.90 0.828
929.00 0.8278
929.10 0.8277
929.20 0.8276
929.30 0.8275
929.40 0.8273
929.50 0.8272
929.60 0.8271
929.70 0.827
929.80 0.8268
929.90 0.8267
930.00 0.8266
930.10 0.8264
930.20 0.8263
930.30 0.8262
930.40 0.8261
930.50 0.8259
930.60 0.8258
930.70 0.8257
930.80 0.8256
930.90 0.8254
931.00 0.8253
931.10 0.8252
931.20 0.8251
931.30 0.8249
931.40 0.8248
931.50 0.8247
931.60 0.8245
931.70 0.8244
931.80 0.8243
931.90 0.8242
932.00 0.824
932.10 0.8239
932.20 0.8238
932.30 0.8237
932.40 0.8235
932.50 0.8234
932.60 0.8233
932.70 0.8232
932.80 0.823
932.90 0.8229
933.00 0.8228
933.10 0.8226
933.20 0.8225
933.30 0.8224
933.40 0.8223
933.50 0.8221
933.60 0.822
933.70 0.8219
933.80 0.8218
933.90 0.8216
934.00 0.8215
934.10 0.8214
934.20 0.8213
934.30 0.8211
934.40 0.821
934.50 0.8209
934.60 0.8208
934.70 0.8206
934.80 0.8205
934.90 0.8204
935.00 0.8202
935.10 0.8201
935.20 0.82
935.30 0.8199
935.40 0.8197
935.50 0.8196
935.60 0.8195
935.70 0.8194
935.80 0.8192
935.90 0.8191
936.00 0.819
936.10 0.8188
936.20 0.8187
936.30 0.8186
936.40 0.8185
936.50 0.8183
936.60 0.8182
936.70 0.8181
936.80 0.818
936.90 0.8178
937.00 0.8177
937.10 0.8176
937.20 0.8175
937.30 0.8173
937.40 0.8172
937.50 0.8171
937.60 0.8169
937.70 0.8168
937.80 0.8167
937.90 0.8166
938.00 0.8164
938.10 0.8163
938.20 0.8162
938.30 0.8161
938.40 0.8159
938.50 0.8158
938.60 0.8157
938.70 0.8156
938.80 0.8154
938.90 0.8153
939.00 0.8152
939.10 0.8151
939.20 0.8149
939.30 0.8148
939.40 0.8147
939.50 0.8146
939.60 0.8144
939.70 0.8143
939.80 0.8142
939.90 0.814
940.00 0.8139
940.10 0.8138
940.20 0.8137
940.30 0.8135
940.40 0.8134
940.50 0.8133
940.60 0.8132
940.70 0.813
940.80 0.8129
940.90 0.8128
941.00 0.8127
941.10 0.8125
941.20 0.8124
941.30 0.8123
941.40 0.8122
941.50 0.812
941.60 0.8119
941.70 0.8118
941.80 0.8116
941.90 0.8115
942.00 0.8114
942.10 0.8113
942.20 0.8111
942.30 0.811
942.40 0.8109
942.50 0.8108
942.60 0.8106
942.70 0.8105
942.80 0.8104
942.90 0.8103
943.00 0.8101
943.10 0.81
943.20 0.8099
943.30 0.8097
943.40 0.8096
943.50 0.8095
943.60 0.8094
943.70 0.8092
943.80 0.8091
943.90 0.809
944.00 0.8089
944.10 0.8087
944.20 0.8086
944.30 0.8085
944.40 0.8084
944.50 0.8082
944.60 0.8081
944.70 0.808
944.80 0.8079
944.90 0.8077
945.00 0.8076
945.10 0.8075
945.20 0.8074
945.30 0.8072
945.40 0.8071
945.50 0.807
945.60 0.8068
945.70 0.8067
945.80 0.8066
945.90 0.8065
946.00 0.8063
946.10 0.8062
946.20 0.8061
946.30 0.806
946.40 0.8058
946.50 0.8057
946.60 0.8056
946.70 0.8054
946.80 0.8053
946.90 0.8052
947.00 0.8051
947.10 0.8049
947.20 0.8048
947.30 0.8047
947.40 0.8046
947.50 0.8044
947.60 0.8043
947.70 0.8042
947.80 0.8041
947.90 0.8039
948.00 0.8038
948.10 0.8037
948.20 0.8036
948.30 0.8034
948.40 0.8033
948.50 0.8032
948.60 0.8031
948.70 0.8029
948.80 0.8028
948.90 0.8027
949.00 0.8026
949.10 0.8024
949.20 0.8023
949.30 0.8022
949.40 0.8021
949.50 0.8019
949.60 0.8018
949.70 0.8017
949.80 0.8015
949.90 0.8014
950.00 0.8013
950.10 0.8012
950.20 0.801
950.30 0.8009
950.40 0.8008
950.50 0.8007
950.60 0.8005
950.70 0.8004
950.80 0.8003
950.90 0.8002
951.00 0.8
951.10 0.7999
951.20 0.7998
951.30 0.7997
951.40 0.7995
951.50 0.7994
951.60 0.7993
951.70 0.7992
951.80 0.799
951.90 0.7989
952.00 0.7988
952.10 0.7987
952.20 0.7985
952.30 0.7984
952.40 0.7983
952.50 0.7982
952.60 0.798
952.70 0.7979
952.80 0.7978
952.90 0.7977
953.00 0.7975
953.10 0.7974
953.20 0.7973
953.30 0.7972
953.40 0.797
953.50 0.7969
953.60 0.7968
953.70 0.7967
953.80 0.7965
953.90 0.7964
954.00 0.7963
954.10 0.7962
954.20 0.796
954.30 0.7959
954.40 0.7958
954.50 0.7956
954.60 0.7955
954.70 0.7954
954.80 0.7953
954.90 0.7951
955.00 0.795
955.10 0.7949
955.20 0.7948
955.30 0.7946
955.40 0.7945
955.50 0.7944
955.60 0.7943
955.70 0.7941
955.80 0.794
955.90 0.7939
956.00 0.7938
956.10 0.7936
956.20 0.7935
956.30 0.7934
956.40 0.7933
956.50 0.7931
956.60 0.793
956.70 0.7929
956.80 0.7928
956.90 0.7926
957.00 0.7925
957.10 0.7924
957.20 0.7923
957.30 0.7921
957.40 0.792
957.50 0.7919
957.60 0.7918
957.70 0.7916
957.80 0.7915
957.90 0.7914
958.00 0.7912
958.10 0.7911
958.20 0.791
958.30 0.7909
958.40 0.7907
958.50 0.7906
958.60 0.7905
958.70 0.7904
958.80 0.7902
958.90 0.7901
959.00 0.79
959.10 0.7899
959.20 0.7897
959.30 0.7896
959.40 0.7895
959.50 0.7894
959.60 0.7892
959.70 0.7891
959.80 0.789
959.90 0.7889
960.00 0.7887
960.10 0.7886
960.20 0.7885
960.30 0.7884
960.40 0.7882
960.50 0.7881
960.60 0.788
960.70 0.7879
960.80 0.7877
960.90 0.7876
961.00 0.7875
961.10 0.7874
961.20 0.7873
961.30 0.7871
961.40 0.787
961.50 0.7869
961.60 0.7868
961.70 0.7866
961.80 0.7865
961.90 0.7864
962.00 0.7863
962.10 0.7861
962.20 0.786
962.30 0.7859
962.40 0.7858
962.50 0.7856
962.60 0.7855
962.70 0.7854
962.80 0.7853
962.90 0.7851
963.00 0.785
963.10 0.7849
963.20 0.7848
963.30 0.7846
963.40 0.7845
963.50 0.7844
963.60 0.7843
963.70 0.7841
963.80 0.784
963.90 0.7839
964.00 0.7838
964.10 0.7836
964.20 0.7835
964.30 0.7834
964.40 0.7833
964.50 0.7831
964.60 0.783
964.70 0.7829
964.80 0.7828
964.90 0.7826
965.00 0.7825
965.10 0.7824
965.20 0.7823
965.30 0.7821
965.40 0.782
965.50 0.7819
965.60 0.7818
965.70 0.7816
965.80 0.7815
965.90 0.7814
966.00 0.7813
966.10 0.7811
966.20 0.781
966.30 0.7809
966.40 0.7808
966.50 0.7806
966.60 0.7805
966.70 0.7804
966.80 0.7803
966.90 0.7801
967.00 0.78
967.10 0.7799
967.20 0.7798
967.30 0.7797
967.40 0.7795
967.50 0.7794
967.60 0.7793
967.70 0.7792
967.80 0.779
967.90 0.7789
968.00 0.7788
968.10 0.7787
968.20 0.7785
968.30 0.7784
968.40 0.7783
968.50 0.7782
968.60 0.778
968.70 0.7779
968.80 0.7778
968.90 0.7777
969.00 0.7775
969.10 0.7774
969.20 0.7773
969.30 0.7772
969.40 0.777
969.50 0.7769
969.60 0.7768
969.70 0.7767
969.80 0.7765
969.90 0.7764
970.00 0.7763
970.10 0.7762
970.20 0.776
970.30 0.7759
970.40 0.7758
970.50 0.7757
970.60 0.7755
970.70 0.7754
970.80 0.7753
970.90 0.7752
971.00 0.775
971.10 0.7749
971.20 0.7748
971.30 0.7747
971.40 0.7746
971.50 0.7744
971.60 0.7743
971.70 0.7742
971.80 0.7741
971.90 0.7739
972.00 0.7738
972.10 0.7737
972.20 0.7736
972.30 0.7734
972.40 0.7733
972.50 0.7732
972.60 0.7731
972.70 0.7729
972.80 0.7728
972.90 0.7727
973.00 0.7726
973.10 0.7724
973.20 0.7723
973.30 0.7722
973.40 0.7721
973.50 0.772
973.60 0.7718
973.70 0.7717
973.80 0.7716
973.90 0.7715
974.00 0.7713
974.10 0.7712
974.20 0.7711
974.30 0.771
974.40 0.7708
974.50 0.7707
974.60 0.7706
974.70 0.7705
974.80 0.7703
974.90 0.7702
975.00 0.7701
975.10 0.77
975.20 0.7698
975.30 0.7697
975.40 0.7696
975.50 0.7695
975.60 0.7694
975.70 0.7692
975.80 0.7691
975.90 0.769
976.00 0.7689
976.10 0.7687
976.20 0.7686
976.30 0.7685
976.40 0.7684
976.50 0.7682
976.60 0.7681
976.70 0.768
976.80 0.7679
976.90 0.7677
977.00 0.7676
977.10 0.7675
977.20 0.7674
977.30 0.7673
977.40 0.7671
977.50 0.767
977.60 0.7669
977.70 0.7668
977.80 0.7666
977.90 0.7665
978.00 0.7664
978.10 0.7663
978.20 0.7661
978.30 0.766
978.40 0.7659
978.50 0.7658
978.60 0.7656
978.70 0.7655
978.80 0.7654
978.90 0.7653
979.00 0.7652
979.10 0.765
979.20 0.7649
979.30 0.7648
979.40 0.7647
979.50 0.7645
979.60 0.7644
979.70 0.7643
979.80 0.7642
979.90 0.764
980.00 0.7639
980.10 0.7638
980.20 0.7637
980.30 0.7636
980.40 0.7634
980.50 0.7633
980.60 0.7632
980.70 0.7631
980.80 0.7629
980.90 0.7628
981.00 0.7627
981.10 0.7626
981.20 0.7624
981.30 0.7623
981.40 0.7622
981.50 0.7621
981.60 0.762
981.70 0.7618
981.80 0.7617
981.90 0.7616
982.00 0.7615
982.10 0.7613
982.20 0.7612
982.30 0.7611
982.40 0.761
982.50 0.7609
982.60 0.7607
982.70 0.7606
982.80 0.7605
982.90 0.7604
983.00 0.7602
983.10 0.7601
983.20 0.76
983.30 0.7599
983.40 0.7597
983.50 0.7596
983.60 0.7595
983.70 0.7594
983.80 0.7593
983.90 0.7591
984.00 0.759
984.10 0.7589
984.20 0.7588
984.30 0.7586
984.40 0.7585
984.50 0.7584
984.60 0.7583
984.70 0.7581
984.80 0.758
984.90 0.7579
985.00 0.7578
985.10 0.7577
985.20 0.7575
985.30 0.7574
985.40 0.7573
985.50 0.7572
985.60 0.757
985.70 0.7569
985.80 0.7568
985.90 0.7567
986.00 0.7565
986.10 0.7564
986.20 0.7563
986.30 0.7562
986.40 0.7561
986.50 0.7559
986.60 0.7558
986.70 0.7557
986.80 0.7556
986.90 0.7554
987.00 0.7553
987.10 0.7552
987.20 0.7551
987.30 0.755
987.40 0.7548
987.50 0.7547
987.60 0.7546
987.70 0.7545
987.80 0.7543
987.90 0.7542
988.00 0.7541
988.10 0.754
988.20 0.7539
988.30 0.7537
988.40 0.7536
988.50 0.7535
988.60 0.7534
988.70 0.7532
988.80 0.7531
988.90 0.753
989.00 0.7529
989.10 0.7528
989.20 0.7526
989.30 0.7525
989.40 0.7524
989.50 0.7523
989.60 0.7521
989.70 0.752
989.80 0.7519
989.90 0.7518
990.00 0.7517
990.10 0.7515
990.20 0.7514
990.30 0.7513
990.40 0.7512
990.50 0.751
990.60 0.7509
990.70 0.7508
990.80 0.7507
990.90 0.7506
991.00 0.7504
991.10 0.7503
991.20 0.7502
991.30 0.7501
991.40 0.75
991.50 0.7498
991.60 0.7497
991.70 0.7496
991.80 0.7495
991.90 0.7494
992.00 0.7492
992.10 0.7491
992.20 0.749
992.30 0.7489
992.40 0.7487
992.50 0.7486
992.60 0.7485
992.70 0.7484
992.80 0.7483
992.90 0.7481
993.00 0.748
993.10 0.7479
993.20 0.7478
993.30 0.7476
993.40 0.7475
993.50 0.7474
993.60 0.7473
993.70 0.7472
993.80 0.747
993.90 0.7469
994.00 0.7468
994.10 0.7467
994.20 0.7466
994.30 0.7464
994.40 0.7463
994.50 0.7462
994.60 0.7461
994.70 0.7459
994.80 0.7458
994.90 0.7457
995.00 0.7456
995.10 0.7455
995.20 0.7453
995.30 0.7452
995.40 0.7451
995.50 0.745
995.60 0.7449
995.70 0.7447
995.80 0.7446
995.90 0.7445
996.00 0.7444
996.10 0.7443
996.20 0.7441
996.30 0.744
996.40 0.7439
996.50 0.7438
996.60 0.7436
996.70 0.7435
996.80 0.7434
996.90 0.7433
997.00 0.7432
997.10 0.743
997.20 0.7429
997.30 0.7428
997.40 0.7427
997.50 0.7426
997.60 0.7424
997.70 0.7423
997.80 0.7422
997.90 0.7421
998.00 0.742
998.10 0.7418
998.20 0.7417
998.30 0.7416
998.40 0.7415
998.50 0.7414
998.60 0.7412
998.70 0.7411
998.80 0.741
998.90 0.7409
999.00 0.7408
999.10 0.7406
999.20 0.7405
999.30 0.7404
999.40 0.7403
999.50 0.7401
999.60 0.74
999.70 0.7399
999.80 0.7398
999.90 0.7397
1000.00 0.7395
1000.10 0.7394
1000.20 0.7393
1000.30 0.7392
1000.40 0.7391
1000.50 0.7389
1000.60 0.7388
1000.70 0.7387
1000.80 0.7386
1000.90 0.7385
1001.00 0.7383
1001.10 0.7382
1001.20 0.7381
1001.30 0.738
1001.40 0.7379
1001.50 0.7377
1001.60 0.7376
1001.70 0.7375
1001.80 0.7374
1001.90 0.7373
1002.00 0.7371
1002.10 0.737
1002.20 0.7369
1002.30 0.7368
1002.40 0.7366
1002.50 0.7365
1002.60 0.7364
1002.70 0.7363
1002.80 0.7362
1002.90 0.736
1003.00 0.7359
1003.10 0.7358
1003.20 0.7357
1003.30 0.7356
1003.40 0.7355
1003.50 0.7353
1003.60 0.7352
1003.70 0.7351
1003.80 0.735
1003.90 0.7349
1004.00 0.7347
1004.10 0.7346
1004.20 0.7345
1004.30 0.7344
1004.40 0.7343
1004.50 0.7341
1004.60 0.734
1004.70 0.7339
1004.80 0.7338
1004.90 0.7337
1005.00 0.7335
1005.10 0.7334
1005.20 0.7333
1005.30 0.7332
1005.40 0.7331
1005.50 0.7329
1005.60 0.7328
1005.70 0.7327
1005.80 0.7326
1005.90 0.7325
1006.00 0.7323
1006.10 0.7322
1006.20 0.7321
1006.30 0.732
1006.40 0.7319
1006.50 0.7317
1006.60 0.7316
1006.70 0.7315
1006.80 0.7314
1006.90 0.7313
1007.00 0.7311
1007.10 0.731
1007.20 0.7309
1007.30 0.7308
1007.40 0.7307
1007.50 0.7305
1007.60 0.7304
1007.70 0.7303
1007.80 0.7302
1007.90 0.7301
1008.00 0.7299
1008.10 0.7298
1008.20 0.7297
1008.30 0.7296
1008.40 0.7295
1008.50 0.7294
1008.60 0.7292
1008.70 0.7291
1008.80 0.729
1008.90 0.7289
1009.00 0.7288
1009.10 0.7286
1009.20 0.7285
1009.30 0.7284
1009.40 0.7283
1009.50 0.7282
1009.60 0.728
1009.70 0.7279
1009.80 0.7278
1009.90 0.7277
1010.00 0.7276
1010.10 0.7274
1010.20 0.7273
1010.30 0.7272
1010.40 0.7271
1010.50 0.727
1010.60 0.7268
1010.70 0.7267
1010.80 0.7266
1010.90 0.7265
1011.00 0.7264
1011.10 0.7262
1011.20 0.7261
1011.30 0.726
1011.40 0.7259
1011.50 0.7258
1011.60 0.7257
1011.70 0.7255
1011.80 0.7254
1011.90 0.7253
1012.00 0.7252
1012.10 0.7251
1012.20 0.7249
1012.30 0.7248
1012.40 0.7247
1012.50 0.7246
1012.60 0.7245
1012.70 0.7243
1012.80 0.7242
1012.90 0.7241
1013.00 0.724
1013.10 0.7239
1013.20 0.7237
1013.30 0.7236
1013.40 0.7235
1013.50 0.7234
1013.60 0.7233
1013.70 0.7232
1013.80 0.723
1013.90 0.7229
1014.00 0.7228
1014.10 0.7227
1014.20 0.7226
1014.30 0.7224
1014.40 0.7223
1014.50 0.7222
1014.60 0.7221
1014.70 0.722
1014.80 0.7219
1014.90 0.7217
1015.00 0.7216
1015.10 0.7215
1015.20 0.7214
1015.30 0.7213
1015.40 0.7211
1015.50 0.721
1015.60 0.7209
1015.70 0.7208
1015.80 0.7207
1015.90 0.7205
1016.00 0.7204
1016.10 0.7203
1016.20 0.7202
1016.30 0.7201
1016.40 0.72
1016.50 0.7198
1016.60 0.7197
1016.70 0.7196
1016.80 0.7195
1016.90 0.7194
1017.00 0.7192
1017.10 0.7191
1017.20 0.719
1017.30 0.7189
1017.40 0.7188
1017.50 0.7187
1017.60 0.7185
1017.70 0.7184
1017.80 0.7183
1017.90 0.7182
1018.00 0.7181
1018.10 0.7179
1018.20 0.7178
1018.30 0.7177
1018.40 0.7176
1018.50 0.7175
1018.60 0.7174
1018.70 0.7172
1018.80 0.7171
1018.90 0.717
1019.00 0.7169
1019.10 0.7168
1019.20 0.7166
1019.30 0.7165
1019.40 0.7164
1019.50 0.7163
1019.60 0.7162
1019.70 0.7161
1019.80 0.7159
1019.90 0.7158
1020.00 0.7157
1020.10 0.7156
1020.20 0.7155
1020.30 0.7153
1020.40 0.7152
1020.50 0.7151
1020.60 0.715
1020.70 0.7149
1020.80 0.7148
1020.90 0.7146
1021.00 0.7145
1021.10 0.7144
1021.20 0.7143
1021.30 0.7142
1021.40 0.7141
1021.50 0.7139
1021.60 0.7138
1021.70 0.7137
1021.80 0.7136
1021.90 0.7135
1022.00 0.7133
1022.10 0.7132
1022.20 0.7131
1022.30 0.713
1022.40 0.7129
1022.50 0.7128
1022.60 0.7126
1022.70 0.7125
1022.80 0.7124
1022.90 0.7123
1023.00 0.7122
1023.10 0.7121
1023.20 0.7119
1023.30 0.7118
1023.40 0.7117
1023.50 0.7116
1023.60 0.7115
1023.70 0.7114
1023.80 0.7112
1023.90 0.7111
1024.00 0.711
1024.10 0.7109
1024.20 0.7108
1024.30 0.7107
1024.40 0.7105
1024.50 0.7104
1024.60 0.7103
1024.70 0.7102
1024.80 0.7101
1024.90 0.71
1025.00 0.7098
1025.10 0.7097
1025.20 0.7096
1025.30 0.7095
1025.40 0.7094
1025.50 0.7092
1025.60 0.7091
1025.70 0.709
1025.80 0.7089
1025.90 0.7088
1026.00 0.7087
1026.10 0.7085
1026.20 0.7084
1026.30 0.7083
1026.40 0.7082
1026.50 0.7081
1026.60 0.708
1026.70 0.7078
1026.80 0.7077
1026.90 0.7076
1027.00 0.7075
1027.10 0.7074
1027.20 0.7073
1027.30 0.7071
1027.40 0.707
1027.50 0.7069
1027.60 0.7068
1027.70 0.7067
1027.80 0.7066
1027.90 0.7064
1028.00 0.7063
1028.10 0.7062
1028.20 0.7061
1028.30 0.706
1028.40 0.7059
1028.50 0.7057
1028.60 0.7056
1028.70 0.7055
1028.80 0.7054
1028.90 0.7053
1029.00 0.7052
1029.10 0.705
1029.20 0.7049
1029.30 0.7048
1029.40 0.7047
1029.50 0.7046
1029.60 0.7045
1029.70 0.7043
1029.80 0.7042
1029.90 0.7041
1030.00 0.704
1030.10 0.7039
1030.20 0.7038
1030.30 0.7036
1030.40 0.7035
1030.50 0.7034
1030.60 0.7033
1030.70 0.7032
1030.80 0.7031
1030.90 0.703
1031.00 0.7028
1031.10 0.7027
1031.20 0.7026
1031.30 0.7025
1031.40 0.7024
1031.50 0.7023
1031.60 0.7021
1031.70 0.702
1031.80 0.7019
1031.90 0.7018
1032.00 0.7017
1032.10 0.7016
1032.20 0.7014
1032.30 0.7013
1032.40 0.7012
1032.50 0.7011
1032.60 0.701
1032.70 0.7009
1032.80 0.7007
1032.90 0.7006
1033.00 0.7005
1033.10 0.7004
1033.20 0.7003
1033.30 0.7002
1033.40 0.7001
1033.50 0.6999
1033.60 0.6998
1033.70 0.6997
1033.80 0.6996
1033.90 0.6995
1034.00 0.6994
1034.10 0.6992
1034.20 0.6991
1034.30 0.699
1034.40 0.6989
1034.50 0.6988
1034.60 0.6987
1034.70 0.6986
1034.80 0.6984
1034.90 0.6983
1035.00 0.6982
1035.10 0.6981
1035.20 0.698
1035.30 0.6979
1035.40 0.6977
1035.50 0.6976
1035.60 0.6975
1035.70 0.6974
1035.80 0.6973
1035.90 0.6972
1036.00 0.6971
1036.10 0.6969
1036.20 0.6968
1036.30 0.6967
1036.40 0.6966
1036.50 0.6965
1036.60 0.6964
1036.70 0.6962
1036.80 0.6961
1036.90 0.696
1037.00 0.6959
1037.10 0.6958
1037.20 0.6957
1037.30 0.6956
1037.40 0.6954
1037.50 0.6953
1037.60 0.6952
1037.70 0.6951
1037.80 0.695
1037.90 0.6949
1038.00 0.6948
1038.10 0.6946
1038.20 0.6945
1038.30 0.6944
1038.40 0.6943
1038.50 0.6942
1038.60 0.6941
1038.70 0.6939
1038.80 0.6938
1038.90 0.6937
1039.00 0.6936
1039.10 0.6935
1039.20 0.6934
1039.30 0.6933
1039.40 0.6931
1039.50 0.693
1039.60 0.6929
1039.70 0.6928
1039.80 0.6927
1039.90 0.6926
1040.00 0.6925
1040.10 0.6923
1040.20 0.6922
1040.30 0.6921
1040.40 0.692
1040.50 0.6919
1040.60 0.6918
1040.70 0.6917
1040.80 0.6915
1040.90 0.6914
1041.00 0.6913
1041.10 0.6912
1041.20 0.6911
1041.30 0.691
1041.40 0.6909
1041.50 0.6907
1041.60 0.6906
1041.70 0.6905
1041.80 0.6904
1041.90 0.6903
1042.00 0.6902
1042.10 0.6901
1042.20 0.6899
1042.30 0.6898
1042.40 0.6897
1042.50 0.6896
1042.60 0.6895
1042.70 0.6894
1042.80 0.6893
1042.90 0.6891
1043.00 0.689
1043.10 0.6889
1043.20 0.6888
1043.30 0.6887
1043.40 0.6886
1043.50 0.6885
1043.60 0.6883
1043.70 0.6882
1043.80 0.6881
1043.90 0.688
1044.00 0.6879
1044.10 0.6878
1044.20 0.6877
1044.30 0.6875
1044.40 0.6874
1044.50 0.6873
1044.60 0.6872
1044.70 0.6871
1044.80 0.687
1044.90 0.6869
1045.00 0.6867
1045.10 0.6866
1045.20 0.6865
1045.30 0.6864
1045.40 0.6863
1045.50 0.6862
1045.60 0.6861
1045.70 0.686
1045.80 0.6858
1045.90 0.6857
1046.00 0.6856
1046.10 0.6855
1046.20 0.6854
1046.30 0.6853
1046.40 0.6852
1046.50 0.685
1046.60 0.6849
1046.70 0.6848
1046.80 0.6847
1046.90 0.6846
1047.00 0.6845
1047.10 0.6844
1047.20 0.6842
1047.30 0.6841
1047.40 0.684
1047.50 0.6839
1047.60 0.6838
1047.70 0.6837
1047.80 0.6836
1047.90 0.6835
1048.00 0.6833
1048.10 0.6832
1048.20 0.6831
1048.30 0.683
1048.40 0.6829
1048.50 0.6828
1048.60 0.6827
1048.70 0.6825
1048.80 0.6824
1048.90 0.6823
1049.00 0.6822
1049.10 0.6821
1049.20 0.682
1049.30 0.6819
1049.40 0.6818
1049.50 0.6816
1049.60 0.6815
1049.70 0.6814
1049.80 0.6813
1049.90 0.6812
1050.00 0.6811
1050.10 0.681
1050.20 0.6809
1050.30 0.6807
1050.40 0.6806
1050.50 0.6805
1050.60 0.6804
1050.70 0.6803
1050.80 0.6802
1050.90 0.6801
1051.00 0.68
1051.10 0.6798
1051.20 0.6797
1051.30 0.6796
1051.40 0.6795
1051.50 0.6794
1051.60 0.6793
1051.70 0.6792
1051.80 0.6791
1051.90 0.6789
1052.00 0.6788
1052.10 0.6787
1052.20 0.6786
1052.30 0.6785
1052.40 0.6784
1052.50 0.6783
1052.60 0.6782
1052.70 0.678
1052.80 0.6779
1052.90 0.6778
1053.00 0.6777
1053.10 0.6776
1053.20 0.6775
1053.30 0.6774
1053.40 0.6773
1053.50 0.6771
1053.60 0.677
1053.70 0.6769
1053.80 0.6768
1053.90 0.6767
1054.00 0.6766
1054.10 0.6765
1054.20 0.6764
1054.30 0.6762
1054.40 0.6761
1054.50 0.676
1054.60 0.6759
1054.70 0.6758
1054.80 0.6757
1054.90 0.6756
1055.00 0.6755
1055.10 0.6753
1055.20 0.6752
1055.30 0.6751
1055.40 0.675
1055.50 0.6749
1055.60 0.6748
1055.70 0.6747
1055.80 0.6746
1055.90 0.6745
1056.00 0.6743
1056.10 0.6742
1056.20 0.6741
1056.30 0.674
1056.40 0.6739
1056.50 0.6738
1056.60 0.6737
1056.70 0.6736
1056.80 0.6734
1056.90 0.6733
1057.00 0.6732
1057.10 0.6731
1057.20 0.673
1057.30 0.6729
1057.40 0.6728
1057.50 0.6727
1057.60 0.6726
1057.70 0.6724
1057.80 0.6723
1057.90 0.6722
1058.00 0.6721
1058.10 0.672
1058.20 0.6719
1058.30 0.6718
1058.40 0.6717
1058.50 0.6716
1058.60 0.6714
1058.70 0.6713
1058.80 0.6712
1058.90 0.6711
1059.00 0.671
1059.10 0.6709
1059.20 0.6708
1059.30 0.6707
1059.40 0.6706
1059.50 0.6704
1059.60 0.6703
1059.70 0.6702
1059.80 0.6701
1059.90 0.67
1060.00 0.6699
1060.10 0.6698
1060.20 0.6697
1060.30 0.6696
1060.40 0.6694
1060.50 0.6693
1060.60 0.6692
1060.70 0.6691
1060.80 0.669
1060.90 0.6689
1061.00 0.6688
1061.10 0.6687
1061.20 0.6686
1061.30 0.6684
1061.40 0.6683
1061.50 0.6682
1061.60 0.6681
1061.70 0.668
1061.80 0.6679
1061.90 0.6678
1062.00 0.6677
1062.10 0.6676
1062.20 0.6675
1062.30 0.6673
1062.40 0.6672
1062.50 0.6671
1062.60 0.667
1062.70 0.6669
1062.80 0.6668
1062.90 0.6667
1063.00 0.6666
1063.10 0.6665
1063.20 0.6663
1063.30 0.6662
1063.40 0.6661
1063.50 0.666
1063.60 0.6659
1063.70 0.6658
1063.80 0.6657
1063.90 0.6656
1064.00 0.6655
1064.10 0.6653
1064.20 0.6652
1064.30 0.6651
1064.40 0.665
1064.50 0.6649
1064.60 0.6648
1064.70 0.6647
1064.80 0.6646
1064.90 0.6645
1065.00 0.6644
1065.10 0.6642
1065.20 0.6641
1065.30 0.664
1065.40 0.6639
1065.50 0.6638
1065.60 0.6637
1065.70 0.6636
1065.80 0.6635
1065.90 0.6634
1066.00 0.6632
1066.10 0.6631
1066.20 0.663
1066.30 0.6629
1066.40 0.6628
1066.50 0.6627
1066.60 0.6626
1066.70 0.6625
1066.80 0.6624
1066.90 0.6623
1067.00 0.6621
1067.10 0.662
1067.20 0.6619
1067.30 0.6618
1067.40 0.6617
1067.50 0.6616
1067.60 0.6615
1067.70 0.6614
1067.80 0.6613
1067.90 0.6612
1068.00 0.6611
1068.10 0.6609
1068.20 0.6608
1068.30 0.6607
1068.40 0.6606
1068.50 0.6605
1068.60 0.6604
1068.70 0.6603
1068.80 0.6602
1068.90 0.6601
1069.00 0.66
1069.10 0.6598
1069.20 0.6597
1069.30 0.6596
1069.40 0.6595
1069.50 0.6594
1069.60 0.6593
1069.70 0.6592
1069.80 0.6591
1069.90 0.659
1070.00 0.6589
1070.10 0.6588
1070.20 0.6586
1070.30 0.6585
1070.40 0.6584
1070.50 0.6583
1070.60 0.6582
1070.70 0.6581
1070.80 0.658
1070.90 0.6579
1071.00 0.6578
1071.10 0.6577
1071.20 0.6576
1071.30 0.6574
1071.40 0.6573
1071.50 0.6572
1071.60 0.6571
1071.70 0.657
1071.80 0.6569
1071.90 0.6568
1072.00 0.6567
1072.10 0.6566
1072.20 0.6565
1072.30 0.6564
1072.40 0.6562
1072.50 0.6561
1072.60 0.656
1072.70 0.6559
1072.80 0.6558
1072.90 0.6557
1073.00 0.6556
1073.10 0.6555
1073.20 0.6554
1073.30 0.6553
1073.40 0.6552
1073.50 0.6551
1073.60 0.6549
1073.70 0.6548
1073.80 0.6547
1073.90 0.6546
1074.00 0.6545
1074.10 0.6544
1074.20 0.6543
1074.30 0.6542
1074.40 0.6541
1074.50 0.654
1074.60 0.6539
1074.70 0.6537
1074.80 0.6536
1074.90 0.6535
1075.00 0.6534
1075.10 0.6533
1075.20 0.6532
1075.30 0.6531
1075.40 0.653
1075.50 0.6529
1075.60 0.6528
1075.70 0.6527
1075.80 0.6526
1075.90 0.6524
1076.00 0.6523
1076.10 0.6522
1076.20 0.6521
1076.30 0.652
1076.40 0.6519
1076.50 0.6518
1076.60 0.6517
1076.70 0.6516
1076.80 0.6515
1076.90 0.6514
1077.00 0.6513
1077.10 0.6512
1077.20 0.651
1077.30 0.6509
1077.40 0.6508
1077.50 0.6507
1077.60 0.6506
1077.70 0.6505
1077.80 0.6504
1077.90 0.6503
1078.00 0.6502
1078.10 0.6501
1078.20 0.65
1078.30 0.6499
1078.40 0.6497
1078.50 0.6496
1078.60 0.6495
1078.70 0.6494
1078.80 0.6493
1078.90 0.6492
1079.00 0.6491
1079.10 0.649
1079.20 0.6489
1079.30 0.6488
1079.40 0.6487
1079.50 0.6486
1079.60 0.6484
1079.70 0.6483
1079.80 0.6482
1079.90 0.6481
1080.00 0.648
1080.10 0.6479
1080.20 0.6478
1080.30 0.6477
1080.40 0.6476
1080.50 0.6475
1080.60 0.6474
1080.70 0.6473
1080.80 0.6472
1080.90 0.647
1081.00 0.6469
1081.10 0.6468
1081.20 0.6467
1081.30 0.6466
1081.40 0.6465
1081.50 0.6464
1081.60 0.6463
1081.70 0.6462
1081.80 0.6461
1081.90 0.646
1082.00 0.6459
1082.10 0.6458
1082.20 0.6457
1082.30 0.6456
1082.40 0.6454
1082.50 0.6453
1082.60 0.6452
1082.70 0.6451
1082.80 0.645
1082.90 0.6449
1083.00 0.6448
1083.10 0.6447
1083.20 0.6446
1083.30 0.6445
1083.40 0.6444
1083.50 0.6443
1083.60 0.6442
1083.70 0.644
1083.80 0.6439
1083.90 0.6438
1084.00 0.6437
1084.10 0.6436
1084.20 0.6435
1084.30 0.6434
1084.40 0.6433
1084.50 0.6432
1084.60 0.6431
1084.70 0.643
1084.80 0.6429
1084.90 0.6428
1085.00 0.6427
1085.10 0.6426
1085.20 0.6424
1085.30 0.6423
1085.40 0.6422
1085.50 0.6421
1085.60 0.642
1085.70 0.6419
1085.80 0.6418
1085.90 0.6417
1086.00 0.6416
1086.10 0.6415
1086.20 0.6414
1086.30 0.6413
1086.40 0.6412
1086.50 0.6411
1086.60 0.641
1086.70 0.6409
1086.80 0.6408
1086.90 0.6406
1087.00 0.6405
1087.10 0.6404
1087.20 0.6403
1087.30 0.6402
1087.40 0.6401
1087.50 0.64
1087.60 0.6399
1087.70 0.6398
1087.80 0.6397
1087.90 0.6396
1088.00 0.6395
1088.10 0.6394
1088.20 0.6393
1088.30 0.6392
1088.40 0.639
1088.50 0.6389
1088.60 0.6388
1088.70 0.6387
1088.80 0.6386
1088.90 0.6385
1089.00 0.6384
1089.10 0.6383
1089.20 0.6382
1089.30 0.6381
1089.40 0.638
1089.50 0.6379
1089.60 0.6378
1089.70 0.6377
1089.80 0.6376
1089.90 0.6374
1090.00 0.6373
1090.10 0.6372
1090.20 0.6371
1090.30 0.637
1090.40 0.6369
1090.50 0.6368
1090.60 0.6367
1090.70 0.6366
1090.80 0.6365
1090.90 0.6364
1091.00 0.6363
1091.10 0.6362
1091.20 0.6361
1091.30 0.636
1091.40 0.6359
1091.50 0.6358
1091.60 0.6356
1091.70 0.6355
1091.80 0.6354
1091.90 0.6353
1092.00 0.6352
1092.10 0.6351
1092.20 0.635
1092.30 0.6349
1092.40 0.6348
1092.50 0.6347
1092.60 0.6346
1092.70 0.6345
1092.80 0.6344
1092.90 0.6343
1093.00 0.6342
1093.10 0.6341
1093.20 0.634
1093.30 0.6338
1093.40 0.6337
1093.50 0.6336
1093.60 0.6335
1093.70 0.6334
1093.80 0.6333
1093.90 0.6332
1094.00 0.6331
1094.10 0.633
1094.20 0.6329
1094.30 0.6328
1094.40 0.6327
1094.50 0.6326
1094.60 0.6325
1094.70 0.6324
1094.80 0.6323
1094.90 0.6322
1095.00 0.6321
1095.10 0.632
1095.20 0.6319
1095.30 0.6318
1095.40 0.6317
1095.50 0.6315
1095.60 0.6314
1095.70 0.6313
1095.80 0.6312
1095.90 0.6311
1096.00 0.631
1096.10 0.6309
1096.20 0.6308
1096.30 0.6307
1096.40 0.6306
1096.50 0.6305
1096.60 0.6304
1096.70 0.6303
1096.80 0.6302
1096.90 0.6301
1097.00 0.63
1097.10 0.6299
1097.20 0.6298
1097.30 0.6297
1097.40 0.6296
1097.50 0.6294
1097.60 0.6293
1097.70 0.6292
1097.80 0.6291
1097.90 0.629
1098.00 0.6289
1098.10 0.6288
1098.20 0.6287
1098.30 0.6286
1098.40 0.6285
1098.50 0.6284
1098.60 0.6283
1098.70 0.6282
1098.80 0.6281
1098.90 0.628
1099.00 0.6279
1099.10 0.6278
1099.20 0.6277
1099.30 0.6276
1099.40 0.6275
1099.50 0.6274
1099.60 0.6272
1099.70 0.6271
1099.80 0.627
1099.90 0.6269
1100.00 0.6268
1100.10 0.6267
1100.20 0.6266
1100.30 0.6265
1100.40 0.6264
1100.50 0.6263
1100.60 0.6262
1100.70 0.6261
1100.80 0.626
1100.90 0.6259
1101.00 0.6258
1101.10 0.6257
1101.20 0.6256
1101.30 0.6255
1101.40 0.6254
1101.50 0.6253
1101.60 0.6252
1101.70 0.6251
1101.80 0.625
1101.90 0.6249
1102.00 0.6248
1102.10 0.6247
1102.20 0.6245
1102.30 0.6244
1102.40 0.6243
1102.50 0.6242
1102.60 0.6241
1102.70 0.624
1102.80 0.6239
1102.90 0.6238
1103.00 0.6237
1103.10 0.6236
1103.20 0.6235
1103.30 0.6234
1103.40 0.6233
1103.50 0.6232
1103.60 0.6231
1103.70 0.623
1103.80 0.6229
1103.90 0.6228
1104.00 0.6227
1104.10 0.6226
1104.20 0.6225
1104.30 0.6224
1104.40 0.6223
1104.50 0.6222
1104.60 0.622
1104.70 0.6219
1104.80 0.6218
1104.90 0.6217
1105.00 0.6216
1105.10 0.6215
1105.20 0.6214
1105.30 0.6213
1105.40 0.6212
1105.50 0.6211
1105.60 0.621
1105.70 0.6209
1105.80 0.6208
1105.90 0.6207
1106.00 0.6206
1106.10 0.6205
1106.20 0.6204
1106.30 0.6203
1106.40 0.6202
1106.50 0.6201
1106.60 0.62
1106.70 0.6199
1106.80 0.6198
1106.90 0.6197
1107.00 0.6196
1107.10 0.6195
1107.20 0.6194
1107.30 0.6193
1107.40 0.6192
1107.50 0.619
1107.60 0.6189
1107.70 0.6188
1107.80 0.6187
1107.90 0.6186
1108.00 0.6185
1108.10 0.6184
1108.20 0.6183
1108.30 0.6182
1108.40 0.6181
1108.50 0.618
1108.60 0.6179
1108.70 0.6178
1108.80 0.6177
1108.90 0.6176
1109.00 0.6175
1109.10 0.6174
1109.20 0.6173
1109.30 0.6172
1109.40 0.6171
1109.50 0.617
1109.60 0.6169
1109.70 0.6168
1109.80 0.6167
1109.90 0.6166
1110.00 0.6165
1110.10 0.6164
1110.20 0.6163
1110.30 0.6162
1110.40 0.6161
1110.50 0.616
1110.60 0.6159
1110.70 0.6158
1110.80 0.6157
1110.90 0.6156
1111.00 0.6155
1111.10 0.6154
1111.20 0.6152
1111.30 0.6151
1111.40 0.615
1111.50 0.6149
1111.60 0.6148
1111.70 0.6147
1111.80 0.6146
1111.90 0.6145
1112.00 0.6144
1112.10 0.6143
1112.20 0.6142
1112.30 0.6141
1112.40 0.614
1112.50 0.6139
1112.60 0.6138
1112.70 0.6137
1112.80 0.6136
1112.90 0.6135
1113.00 0.6134
1113.10 0.6133
1113.20 0.6132
1113.30 0.6131
1113.40 0.613
1113.50 0.6129
1113.60 0.6128
1113.70 0.6127
1113.80 0.6126
1113.90 0.6125
1114.00 0.6124
1114.10 0.6123
1114.20 0.6122
1114.30 0.6121
1114.40 0.612
1114.50 0.6119
1114.60 0.6118
1114.70 0.6117
1114.80 0.6116
1114.90 0.6115
1115.00 0.6114
1115.10 0.6113
1115.20 0.6112
1115.30 0.6111
1115.40 0.611
1115.50 0.6109
1115.60 0.6108
1115.70 0.6107
1115.80 0.6105
1115.90 0.6104
1116.00 0.6103
1116.10 0.6102
1116.20 0.6101
1116.30 0.61
1116.40 0.6099
1116.50 0.6098
1116.60 0.6097
1116.70 0.6096
1116.80 0.6095
1116.90 0.6094
1117.00 0.6093
1117.10 0.6092
1117.20 0.6091
1117.30 0.609
1117.40 0.6089
1117.50 0.6088
1117.60 0.6087
1117.70 0.6086
1117.80 0.6085
1117.90 0.6084
1118.00 0.6083
1118.10 0.6082
1118.20 0.6081
1118.30 0.608
1118.40 0.6079
1118.50 0.6078
1118.60 0.6077
1118.70 0.6076
1118.80 0.6075
1118.90 0.6074
1119.00 0.6073
1119.10 0.6072
1119.20 0.6071
1119.30 0.607
1119.40 0.6069
1119.50 0.6068
1119.60 0.6067
1119.70 0.6066
1119.80 0.6065
1119.90 0.6064
1120.00 0.6063
1120.10 0.6062
1120.20 0.6061
1120.30 0.606
1120.40 0.6059
1120.50 0.6058
1120.60 0.6057
1120.70 0.6056
1120.80 0.6055
1120.90 0.6054
1121.00 0.6053
1121.10 0.6052
1121.20 0.6051
1121.30 0.605
1121.40 0.6049
1121.50 0.6048
1121.60 0.6047
1121.70 0.6046
1121.80 0.6045
1121.90 0.6044
1122.00 0.6043
1122.10 0.6042
1122.20 0.6041
1122.30 0.604
1122.40 0.6039
1122.50 0.6038
1122.60 0.6037
1122.70 0.6036
1122.80 0.6035
1122.90 0.6034
1123.00 0.6033
1123.10 0.6032
1123.20 0.6031
1123.30 0.603
1123.40 0.6029
1123.50 0.6028
1123.60 0.6027
1123.70 0.6026
1123.80 0.6025
1123.90 0.6024
1124.00 0.6023
1124.10 0.6022
1124.20 0.6021
1124.30 0.602
1124.40 0.6019
1124.50 0.6018
1124.60 0.6017
1124.70 0.6016
1124.80 0.6015
1124.90 0.6014
1125.00 0.6013
1125.10 0.6012
1125.20 0.6011
1125.30 0.601
1125.40 0.6009
1125.50 0.6008
1125.60 0.6007
1125.70 0.6006
1125.80 0.6005
1125.90 0.6004
1126.00 0.6003
1126.10 0.6002
1126.20 0.6001
1126.30 0.6
1126.40 0.5999
1126.50 0.5998
1126.60 0.5997
1126.70 0.5996
1126.80 0.5995
1126.90 0.5994
1127.00 0.5993
1127.10 0.5992
1127.20 0.5991
1127.30 0.599
1127.40 0.5988
1127.50 0.5987
1127.60 0.5986
1127.70 0.5985
1127.80 0.5984
1127.90 0.5983
1128.00 0.5983
1128.10 0.5982
1128.20 0.5981
1128.30 0.598
1128.40 0.5979
1128.50 0.5978
1128.60 0.5977
1128.70 0.5976
1128.80 0.5975
1128.90 0.5974
1129.00 0.5973
1129.10 0.5972
1129.20 0.5971
1129.30 0.597
1129.40 0.5969
1129.50 0.5968
1129.60 0.5967
1129.70 0.5966
1129.80 0.5965
1129.90 0.5964
1130.00 0.5963
1130.10 0.5962
1130.20 0.5961
1130.30 0.596
1130.40 0.5959
1130.50 0.5958
1130.60 0.5957
1130.70 0.5956
1130.80 0.5955
1130.90 0.5954
1131.00 0.5953
1131.10 0.5952
1131.20 0.5951
1131.30 0.595
1131.40 0.5949
1131.50 0.5948
1131.60 0.5947
1131.70 0.5946
1131.80 0.5945
1131.90 0.5944
1132.00 0.5943
1132.10 0.5942
1132.20 0.5941
1132.30 0.594
1132.40 0.5939
1132.50 0.5938
1132.60 0.5937
1132.70 0.5936
1132.80 0.5935
1132.90 0.5934
1133.00 0.5933
1133.10 0.5932
1133.20 0.5931
1133.30 0.593
1133.40 0.5929
1133.50 0.5928
1133.60 0.5927
1133.70 0.5926
1133.80 0.5925
1133.90 0.5924
1134.00 0.5923
1134.10 0.5922
1134.20 0.5921
1134.30 0.592
1134.40 0.5919
1134.50 0.5918
1134.60 0.5917
1134.70 0.5916
1134.80 0.5915
1134.90 0.5914
1135.00 0.5913
1135.10 0.5912
1135.20 0.5911
1135.30 0.591
1135.40 0.5909
1135.50 0.5908
1135.60 0.5907
1135.70 0.5906
1135.80 0.5905
1135.90 0.5904
1136.00 0.5903
1136.10 0.5902
1136.20 0.5901
1136.30 0.59
1136.40 0.5899
1136.50 0.5898
1136.60 0.5897
1136.70 0.5896
1136.80 0.5895
1136.90 0.5894
1137.00 0.5893
1137.10 0.5892
1137.20 0.5891
1137.30 0.589
1137.40 0.5889
1137.50 0.5888
1137.60 0.5887
1137.70 0.5886
1137.80 0.5885
1137.90 0.5884
1138.00 0.5883
1138.10 0.5882
1138.20 0.5882
1138.30 0.5881
1138.40 0.588
1138.50 0.5879
1138.60 0.5878
1138.70 0.5877
1138.80 0.5876
1138.90 0.5875
1139.00 0.5874
1139.10 0.5873
1139.20 0.5872
1139.30 0.5871
1139.40 0.587
1139.50 0.5869
1139.60 0.5868
1139.70 0.5867
1139.80 0.5866
1139.90 0.5865
1140.00 0.5864
1140.10 0.5863
1140.20 0.5862
1140.30 0.5861
1140.40 0.586
1140.50 0.5859
1140.60 0.5858
1140.70 0.5857
1140.80 0.5856
1140.90 0.5855
1141.00 0.5854
1141.10 0.5853
1141.20 0.5852
1141.30 0.5851
1141.40 0.585
1141.50 0.5849
1141.60 0.5848
1141.70 0.5847
1141.80 0.5846
1141.90 0.5845
1142.00 0.5844
1142.10 0.5843
1142.20 0.5842
1142.30 0.5841
1142.40 0.584
1142.50 0.5839
1142.60 0.5838
1142.70 0.5837
1142.80 0.5836
1142.90 0.5835
1143.00 0.5835
1143.10 0.5834
1143.20 0.5833
1143.30 0.5832
1143.40 0.5831
1143.50 0.583
1143.60 0.5829
1143.70 0.5828
1143.80 0.5827
1143.90 0.5826
1144.00 0.5825
1144.10 0.5824
1144.20 0.5823
1144.30 0.5822
1144.40 0.5821
1144.50 0.582
1144.60 0.5819
1144.70 0.5818
1144.80 0.5817
1144.90 0.5816
1145.00 0.5815
1145.10 0.5814
1145.20 0.5813
1145.30 0.5812
1145.40 0.5811
1145.50 0.581
1145.60 0.5809
1145.70 0.5808
1145.80 0.5807
1145.90 0.5806
1146.00 0.5805
1146.10 0.5804
1146.20 0.5803
1146.30 0.5802
1146.40 0.5801
1146.50 0.58
1146.60 0.5799
1146.70 0.5799
1146.80 0.5798
1146.90 0.5797
1147.00 0.5796
1147.10 0.5795
1147.20 0.5794
1147.30 0.5793
1147.40 0.5792
1147.50 0.5791
1147.60 0.579
1147.70 0.5789
1147.80 0.5788
1147.90 0.5787
1148.00 0.5786
1148.10 0.5785
1148.20 0.5784
1148.30 0.5783
1148.40 0.5782
1148.50 0.5781
1148.60 0.578
1148.70 0.5779
1148.80 0.5778
1148.90 0.5777
1149.00 0.5776
1149.10 0.5775
1149.20 0.5774
1149.30 0.5773
1149.40 0.5772
1149.50 0.5771
1149.60 0.577
1149.70 0.5769
1149.80 0.5768
1149.90 0.5768
1150.00 0.5767
1150.10 0.5766
1150.20 0.5765
1150.30 0.5764
1150.40 0.5763
1150.50 0.5762
1150.60 0.5761
1150.70 0.576
1150.80 0.5759
1150.90 0.5758
1151.00 0.5757
1151.10 0.5756
1151.20 0.5755
1151.30 0.5754
1151.40 0.5753
1151.50 0.5752
1151.60 0.5751
1151.70 0.575
1151.80 0.5749
1151.90 0.5748
1152.00 0.5747
1152.10 0.5746
1152.20 0.5745
1152.30 0.5744
1152.40 0.5743
1152.50 0.5742
1152.60 0.5742
1152.70 0.5741
1152.80 0.574
1152.90 0.5739
1153.00 0.5738
1153.10 0.5737
1153.20 0.5736
1153.30 0.5735
1153.40 0.5734
1153.50 0.5733
1153.60 0.5732
1153.70 0.5731
1153.80 0.573
1153.90 0.5729
1154.00 0.5728
1154.10 0.5727
1154.20 0.5726
1154.30 0.5725
1154.40 0.5724
1154.50 0.5723
1154.60 0.5722
1154.70 0.5721
1154.80 0.572
1154.90 0.5719
1155.00 0.5719
1155.10 0.5718
1155.20 0.5717
1155.30 0.5716
1155.40 0.5715
1155.50 0.5714
1155.60 0.5713
1155.70 0.5712
1155.80 0.5711
1155.90 0.571
1156.00 0.5709
1156.10 0.5708
1156.20 0.5707
1156.30 0.5706
1156.40 0.5705
1156.50 0.5704
1156.60 0.5703
1156.70 0.5702
1156.80 0.5701
1156.90 0.57
1157.00 0.5699
1157.10 0.5699
1157.20 0.5698
1157.30 0.5697
1157.40 0.5696
1157.50 0.5695
1157.60 0.5694
1157.70 0.5693
1157.80 0.5692
1157.90 0.5691
1158.00 0.569
1158.10 0.5689
1158.20 0.5688
1158.30 0.5687
1158.40 0.5686
1158.50 0.5685
1158.60 0.5684
1158.70 0.5683
1158.80 0.5682
1158.90 0.5681
1159.00 0.568
1159.10 0.5679
1159.20 0.5678
1159.30 0.5677
1159.40 0.5677
1159.50 0.5676
1159.60 0.5675
1159.70 0.5674
1159.80 0.5673
1159.90 0.5672
1160.00 0.5671
1160.10 0.567
1160.20 0.5669
1160.30 0.5668
1160.40 0.5667
1160.50 0.5666
1160.60 0.5665
1160.70 0.5664
1160.80 0.5663
1160.90 0.5662
1161.00 0.5661
1161.10 0.566
1161.20 0.5659
1161.30 0.5658
1161.40 0.5658
1161.50 0.5657
1161.60 0.5656
1161.70 0.5655
1161.80 0.5654
1161.90 0.5653
1162.00 0.5652
1162.10 0.5651
1162.20 0.565
1162.30 0.5649
1162.40 0.5648
1162.50 0.5647
1162.60 0.5646
1162.70 0.5645
1162.80 0.5644
1162.90 0.5643
1163.00 0.5642
1163.10 0.5641
1163.20 0.564
1163.30 0.564
1163.40 0.5639
1163.50 0.5638
1163.60 0.5637
1163.70 0.5636
1163.80 0.5635
1163.90 0.5634
1164.00 0.5633
1164.10 0.5632
1164.20 0.5631
1164.30 0.563
1164.40 0.5629
1164.50 0.5628
1164.60 0.5627
1164.70 0.5626
1164.80 0.5625
1164.90 0.5624
1165.00 0.5623
1165.10 0.5623
1165.20 0.5622
1165.30 0.5621
1165.40 0.562
1165.50 0.5619
1165.60 0.5618
1165.70 0.5617
1165.80 0.5616
1165.90 0.5615
1166.00 0.5614
1166.10 0.5613
1166.20 0.5612
1166.30 0.5611
1166.40 0.561
1166.50 0.5609
1166.60 0.5608
1166.70 0.5607
1166.80 0.5607
1166.90 0.5606
1167.00 0.5605
1167.10 0.5604
1167.20 0.5603
1167.30 0.5602
1167.40 0.5601
1167.50 0.56
1167.60 0.5599
1167.70 0.5598
1167.80 0.5597
1167.90 0.5596
1168.00 0.5595
1168.10 0.5594
1168.20 0.5593
1168.30 0.5592
1168.40 0.5592
1168.50 0.5591
1168.60 0.559
1168.70 0.5589
1168.80 0.5588
1168.90 0.5587
1169.00 0.5586
1169.10 0.5585
1169.20 0.5584
1169.30 0.5583
1169.40 0.5582
1169.50 0.5581
1169.60 0.558
1169.70 0.5579
1169.80 0.5578
1169.90 0.5577
1170.00 0.5577
1170.10 0.5576
1170.20 0.5575
1170.30 0.5574
1170.40 0.5573
1170.50 0.5572
1170.60 0.5571
1170.70 0.557
1170.80 0.5569
1170.90 0.5568
1171.00 0.5567
1171.10 0.5566
1171.20 0.5565
1171.30 0.5564
1171.40 0.5563
1171.50 0.5563
1171.60 0.5562
1171.70 0.5561
1171.80 0.556
1171.90 0.5559
1172.00 0.5558
1172.10 0.5557
1172.20 0.5556
1172.30 0.5555
1172.40 0.5554
1172.50 0.5553
1172.60 0.5552
1172.70 0.5551
1172.80 0.555
1172.90 0.5549
1173.00 0.5549
1173.10 0.5548
1173.20 0.5547
1173.30 0.5546
1173.40 0.5545
1173.50 0.5544
1173.60 0.5543
1173.70 0.5542
1173.80 0.5541
1173.90 0.554
1174.00 0.5539
1174.10 0.5538
1174.20 0.5537
1174.30 0.5536
1174.40 0.5535
1174.50 0.5535
1174.60 0.5534
1174.70 0.5533
1174.80 0.5532
1174.90 0.5531
1175.00 0.553
1175.10 0.5529
1175.20 0.5528
1175.30 0.5527
1175.40 0.5526
1175.50 0.5525
1175.60 0.5524
1175.70 0.5523
1175.80 0.5522
1175.90 0.5522
1176.00 0.5521
1176.10 0.552
1176.20 0.5519
1176.30 0.5518
1176.40 0.5517
1176.50 0.5516
1176.60 0.5515
1176.70 0.5514
1176.80 0.5513
1176.90 0.5512
1177.00 0.5511
1177.10 0.551
1177.20 0.551
1177.30 0.5509
1177.40 0.5508
1177.50 0.5507
1177.60 0.5506
1177.70 0.5505
1177.80 0.5504
1177.90 0.5503
1178.00 0.5502
1178.10 0.5501
1178.20 0.55
1178.30 0.5499
1178.40 0.5498
1178.50 0.5497
1178.60 0.5497
1178.70 0.5496
1178.80 0.5495
1178.90 0.5494
1179.00 0.5493
1179.10 0.5492
1179.20 0.5491
1179.30 0.549
1179.40 0.5489
1179.50 0.5488
1179.60 0.5487
1179.70 0.5486
1179.80 0.5485
1179.90 0.5485
1180.00 0.5484
1180.10 0.5483
1180.20 0.5482
1180.30 0.5481
1180.40 0.548
1180.50 0.5479
1180.60 0.5478
1180.70 0.5477
1180.80 0.5476
1180.90 0.5475
1181.00 0.5474
1181.10 0.5474
1181.20 0.5473
1181.30 0.5472
1181.40 0.5471
1181.50 0.547
1181.60 0.5469
1181.70 0.5468
1181.80 0.5467
1181.90 0.5466
1182.00 0.5465
1182.10 0.5464
1182.20 0.5463
1182.30 0.5462
1182.40 0.5462
1182.50 0.5461
1182.60 0.546
1182.70 0.5459
1182.80 0.5458
1182.90 0.5457
1183.00 0.5456
1183.10 0.5455
1183.20 0.5454
1183.30 0.5453
1183.40 0.5452
1183.50 0.5451
1183.60 0.5451
1183.70 0.545
1183.80 0.5449
1183.90 0.5448
1184.00 0.5447
1184.10 0.5446
1184.20 0.5445
1184.30 0.5444
1184.40 0.5443
1184.50 0.5442
1184.60 0.5441
1184.70 0.544
1184.80 0.544
1184.90 0.5439
1185.00 0.5438
1185.10 0.5437
1185.20 0.5436
1185.30 0.5435
1185.40 0.5434
1185.50 0.5433
1185.60 0.5432
1185.70 0.5431
1185.80 0.543
1185.90 0.5429
1186.00 0.5429
1186.10 0.5428
1186.20 0.5427
1186.30 0.5426
1186.40 0.5425
1186.50 0.5424
1186.60 0.5423
1186.70 0.5422
1186.80 0.5421
1186.90 0.542
1187.00 0.5419
1187.10 0.5419
1187.20 0.5418
1187.30 0.5417
1187.40 0.5416
1187.50 0.5415
1187.60 0.5414
1187.70 0.5413
1187.80 0.5412
1187.90 0.5411
1188.00 0.541
1188.10 0.5409
1188.20 0.5408
1188.30 0.5408
1188.40 0.5407
1188.50 0.5406
1188.60 0.5405
1188.70 0.5404
1188.80 0.5403
1188.90 0.5402
1189.00 0.5401
1189.10 0.54
1189.20 0.5399
1189.30 0.5398
1189.40 0.5398
1189.50 0.5397
1189.60 0.5396
1189.70 0.5395
1189.80 0.5394
1189.90 0.5393
1190.00 0.5392
1190.10 0.5391
1190.20 0.539
1190.30 0.5389
1190.40 0.5389
1190.50 0.5388
1190.60 0.5387
1190.70 0.5386
1190.80 0.5385
1190.90 0.5384
1191.00 0.5383
1191.10 0.5382
1191.20 0.5381
1191.30 0.538
1191.40 0.5379
1191.50 0.5379
1191.60 0.5378
1191.70 0.5377
1191.80 0.5376
1191.90 0.5375
1192.00 0.5374
1192.10 0.5373
1192.20 0.5372
1192.30 0.5371
1192.40 0.537
1192.50 0.537
1192.60 0.5369
1192.70 0.5368
1192.80 0.5367
1192.90 0.5366
1193.00 0.5365
1193.10 0.5364
1193.20 0.5363
1193.30 0.5362
1193.40 0.5361
1193.50 0.536
1193.60 0.536
1193.70 0.5359
1193.80 0.5358
1193.90 0.5357
1194.00 0.5356
1194.10 0.5355
1194.20 0.5354
1194.30 0.5353
1194.40 0.5352
1194.50 0.5351
1194.60 0.5351
1194.70 0.535
1194.80 0.5349
1194.90 0.5348
1195.00 0.5347
1195.10 0.5346
1195.20 0.5345
1195.30 0.5344
1195.40 0.5343
1195.50 0.5342
1195.60 0.5342
1195.70 0.5341
1195.80 0.534
1195.90 0.5339
1196.00 0.5338
1196.10 0.5337
1196.20 0.5336
1196.30 0.5335
1196.40 0.5334
1196.50 0.5333
1196.60 0.5333
1196.70 0.5332
1196.80 0.5331
1196.90 0.533
1197.00 0.5329
1197.10 0.5328
1197.20 0.5327
1197.30 0.5326
1197.40 0.5325
1197.50 0.5325
1197.60 0.5324
1197.70 0.5323
1197.80 0.5322
1197.90 0.5321
1198.00 0.532
1198.10 0.5319
1198.20 0.5318
1198.30 0.5317
1198.40 0.5316
1198.50 0.5316
1198.60 0.5315
1198.70 0.5314
1198.80 0.5313
1198.90 0.5312
1199.00 0.5311
1199.10 0.531
1199.20 0.5309
1199.30 0.5308
1199.40 0.5307
1199.50 0.5307
1199.60 0.5306
1199.70 0.5305
1199.80 0.5304
1199.90 0.5303
1200.00 0
