# Version 2.1 - nm, norm@500 to 1, cut digits
# Wavelength(nm)  Flambda(ergs/cm^s/s/nm)
300.00 1.406556e-95
300.10 1.406556e-95
300.20 1.406556e-95
300.30 1.406556e-95
300.40 1.406556e-95
300.50 1.406556e-95
300.60 1.406556e-95
300.70 1.406556e-95
300.80 1.406556e-95
300.90 1.406556e-95
301.00 1.406556e-95
301.10 1.406556e-95
301.20 1.406556e-95
301.30 1.406556e-95
301.40 1.406556e-95
301.50 1.406556e-95
301.60 1.406556e-95
301.70 1.406556e-95
301.80 1.406556e-95
301.90 1.406556e-95
302.00 1.406556e-95
302.10 1.406556e-95
302.20 1.406556e-95
302.30 1.406556e-95
302.40 1.406556e-95
302.50 1.406556e-95
302.60 1.406556e-95
302.70 1.406556e-95
302.80 1.406556e-95
302.90 1.406556e-95
303.00 1.406556e-95
303.10 1.406556e-95
303.20 1.406556e-95
303.30 1.406556e-95
303.40 1.406556e-95
303.50 1.406556e-95
303.60 1.406556e-95
303.70 1.406556e-95
303.80 1.406556e-95
303.90 1.406556e-95
304.00 1.406556e-95
304.10 1.406556e-95
304.20 1.406556e-95
304.30 1.406556e-95
304.40 1.406556e-95
304.50 1.406556e-95
304.60 1.406556e-95
304.70 1.406556e-95
304.80 1.406556e-95
304.90 1.406556e-95
305.00 1.406556e-95
305.10 1.406556e-95
305.20 1.406556e-95
305.30 1.406556e-95
305.40 1.406556e-95
305.50 1.406556e-95
305.60 1.406556e-95
305.70 1.406556e-95
305.80 1.406556e-95
305.90 1.406556e-95
306.00 1.406556e-95
306.10 1.406556e-95
306.20 1.406556e-95
306.30 1.406556e-95
306.40 1.406556e-95
306.50 1.406556e-95
306.60 1.406556e-95
306.70 1.406556e-95
306.80 1.406556e-95
306.90 1.406556e-95
307.00 1.406556e-95
307.10 1.406556e-95
307.20 1.406556e-95
307.30 1.406556e-95
307.40 1.406556e-95
307.50 1.406556e-95
307.60 1.406556e-95
307.70 1.406556e-95
307.80 1.406556e-95
307.90 1.406556e-95
308.00 1.406556e-95
308.10 1.406556e-95
308.20 1.406556e-95
308.30 1.406556e-95
308.40 1.406556e-95
308.50 1.406556e-95
308.60 1.406556e-95
308.70 1.406556e-95
308.80 1.406556e-95
308.90 1.406556e-95
309.00 1.406556e-95
309.10 1.406556e-95
309.20 1.406556e-95
309.30 1.406556e-95
309.40 1.406556e-95
309.50 1.406556e-95
309.60 1.406556e-95
309.70 1.406556e-95
309.80 1.406556e-95
309.90 1.406556e-95
310.00 1.406556e-95
310.10 1.406556e-95
310.20 1.406556e-95
310.30 1.406556e-95
310.40 1.406556e-95
310.50 1.406556e-95
310.60 1.406556e-95
310.70 1.406556e-95
310.80 1.406556e-95
310.90 1.406556e-95
311.00 1.406556e-95
311.10 1.406556e-95
311.20 1.406556e-95
311.30 1.406556e-95
311.40 1.406556e-95
311.50 1.406556e-95
311.60 1.406556e-95
311.70 1.406556e-95
311.80 1.406556e-95
311.90 1.406556e-95
312.00 1.406556e-95
312.10 1.406556e-95
312.20 1.406556e-95
312.30 1.406556e-95
312.40 1.406556e-95
312.50 1.406556e-95
312.60 1.406556e-95
312.70 1.406556e-95
312.80 1.406556e-95
312.90 1.406556e-95
313.00 1.406556e-95
313.10 1.406556e-95
313.20 1.406556e-95
313.30 1.406556e-95
313.40 1.406556e-95
313.50 1.406556e-95
313.60 1.406556e-95
313.70 1.406556e-95
313.80 1.406556e-95
313.90 1.406556e-95
314.00 1.406556e-95
314.10 1.406556e-95
314.20 1.406556e-95
314.30 1.406556e-95
314.40 1.406556e-95
314.50 1.406556e-95
314.60 1.406556e-95
314.70 1.406556e-95
314.80 1.406556e-95
314.90 1.406556e-95
315.00 1.406556e-95
315.10 1.406556e-95
315.20 1.406556e-95
315.30 1.406556e-95
315.40 1.406556e-95
315.50 1.406556e-95
315.60 1.406556e-95
315.70 1.406556e-95
315.80 1.406556e-95
315.90 1.406556e-95
316.00 1.406556e-95
316.10 1.406556e-95
316.20 1.406556e-95
316.30 1.406556e-95
316.40 1.406556e-95
316.50 1.406556e-95
316.60 1.406556e-95
316.70 1.406556e-95
316.80 1.406556e-95
316.90 1.406556e-95
317.00 1.406556e-95
317.10 1.406556e-95
317.20 1.406556e-95
317.30 1.406556e-95
317.40 1.406556e-95
317.50 1.406556e-95
317.60 1.406556e-95
317.70 1.406556e-95
317.80 1.406556e-95
317.90 1.406556e-95
318.00 1.406556e-95
318.10 1.406556e-95
318.20 1.406556e-95
318.30 1.406556e-95
318.40 1.406556e-95
318.50 1.406556e-95
318.60 1.406556e-95
318.70 1.406556e-95
318.80 1.406556e-95
318.90 1.406556e-95
319.00 1.406556e-95
319.10 1.406556e-95
319.20 1.406556e-95
319.30 1.406556e-95
319.40 1.406556e-95
319.50 1.406556e-95
319.60 1.406556e-95
319.70 1.406556e-95
319.80 1.406556e-95
319.90 1.406556e-95
320.00 1.406556e-95
320.10 1.406556e-95
320.20 1.406556e-95
320.30 1.406556e-95
320.40 1.406556e-95
320.50 1.406556e-95
320.60 1.406556e-95
320.70 1.406556e-95
320.80 1.406556e-95
320.90 1.406556e-95
321.00 1.406556e-95
321.10 1.406556e-95
321.20 1.406556e-95
321.30 1.406556e-95
321.40 1.406556e-95
321.50 1.406556e-95
321.60 1.406556e-95
321.70 1.406556e-95
321.80 1.406556e-95
321.90 1.406556e-95
322.00 1.406556e-95
322.10 1.406556e-95
322.20 1.406556e-95
322.30 1.406556e-95
322.40 1.406556e-95
322.50 1.406556e-95
322.60 1.406556e-95
322.70 1.406556e-95
322.80 1.406556e-95
322.90 1.406556e-95
323.00 1.406556e-95
323.10 1.406556e-95
323.20 1.406556e-95
323.30 1.406556e-95
323.40 1.406556e-95
323.50 1.406556e-95
323.60 1.406556e-95
323.70 1.406556e-95
323.80 1.406556e-95
323.90 1.406556e-95
324.00 1.406556e-95
324.10 1.406556e-95
324.20 1.406556e-95
324.30 1.406556e-95
324.40 1.406556e-95
324.50 1.406556e-95
324.60 1.406556e-95
324.70 1.406556e-95
324.80 1.406556e-95
324.90 1.406556e-95
325.00 1.406556e-95
325.10 1.406556e-95
325.20 1.406556e-95
325.30 1.406556e-95
325.40 1.406556e-95
325.50 1.406556e-95
325.60 1.406556e-95
325.70 1.406556e-95
325.80 1.406556e-95
325.90 1.406556e-95
326.00 1.406556e-95
326.10 1.406556e-95
326.20 1.406556e-95
326.30 1.406556e-95
326.40 1.406556e-95
326.50 1.406556e-95
326.60 1.406556e-95
326.70 1.406556e-95
326.80 1.406556e-95
326.90 1.406556e-95
327.00 1.406556e-95
327.10 1.406556e-95
327.20 1.406556e-95
327.30 1.406556e-95
327.40 1.406556e-95
327.50 1.406556e-95
327.60 1.406556e-95
327.70 1.406556e-95
327.80 1.406556e-95
327.90 1.406556e-95
328.00 1.406556e-95
328.10 1.406556e-95
328.20 1.406556e-95
328.30 1.406556e-95
328.40 1.406556e-95
328.50 1.406556e-95
328.60 1.406556e-95
328.70 1.406556e-95
328.80 1.406556e-95
328.90 1.406556e-95
329.00 1.406556e-95
329.10 1.406556e-95
329.20 1.406556e-95
329.30 1.406556e-95
329.40 1.406556e-95
329.50 1.406556e-95
329.60 1.406556e-95
329.70 1.406556e-95
329.80 1.406556e-95
329.90 1.406556e-95
330.00 1.406556e-95
330.10 1.406556e-95
330.20 1.406556e-95
330.30 1.406556e-95
330.40 1.406556e-95
330.50 1.406556e-95
330.60 1.406556e-95
330.70 1.406556e-95
330.80 1.406556e-95
330.90 1.406556e-95
331.00 1.406556e-95
331.10 1.406556e-95
331.20 1.406556e-95
331.30 1.406556e-95
331.40 1.406556e-95
331.50 1.406556e-95
331.60 1.406556e-95
331.70 1.406556e-95
331.80 1.406556e-95
331.90 1.406556e-95
332.00 1.406556e-95
332.10 1.406556e-95
332.20 1.406556e-95
332.30 1.406556e-95
332.40 1.406556e-95
332.50 1.406556e-95
332.60 1.406556e-95
332.70 1.406556e-95
332.80 1.406556e-95
332.90 1.406556e-95
333.00 1.406556e-95
333.10 1.406556e-95
333.20 1.406556e-95
333.30 1.406556e-95
333.40 1.406556e-95
333.50 1.406556e-95
333.60 1.406556e-95
333.70 1.406556e-95
333.80 1.406556e-95
333.90 1.406556e-95
334.00 1.406556e-95
334.10 1.406556e-95
334.20 1.406556e-95
334.30 1.406556e-95
334.40 1.406556e-95
334.50 1.406556e-95
334.60 1.406556e-95
334.70 1.406556e-95
334.80 1.406556e-95
334.90 1.406556e-95
335.00 1.406556e-95
335.10 1.406556e-95
335.20 1.406556e-95
335.30 1.406556e-95
335.40 1.406556e-95
335.50 1.406556e-95
335.60 1.406556e-95
335.70 1.406556e-95
335.80 1.406556e-95
335.90 1.406556e-95
336.00 1.406556e-95
336.10 1.406556e-95
336.20 1.406556e-95
336.30 1.406556e-95
336.40 1.406556e-95
336.50 1.406556e-95
336.60 1.406556e-95
336.70 1.406556e-95
336.80 1.406556e-95
336.90 1.406556e-95
337.00 1.406556e-95
337.10 1.406556e-95
337.20 1.406556e-95
337.30 1.406556e-95
337.40 1.406556e-95
337.50 1.406556e-95
337.60 1.406556e-95
337.70 1.406556e-95
337.80 1.406556e-95
337.90 1.406556e-95
338.00 1.406556e-95
338.10 1.406556e-95
338.20 1.406556e-95
338.30 1.406556e-95
338.40 1.406556e-95
338.50 1.406556e-95
338.60 1.406556e-95
338.70 1.406556e-95
338.80 1.406556e-95
338.90 1.406556e-95
339.00 1.406556e-95
339.10 1.406556e-95
339.20 1.406556e-95
339.30 1.406556e-95
339.40 1.406556e-95
339.50 1.406556e-95
339.60 1.406556e-95
339.70 1.406556e-95
339.80 1.406556e-95
339.90 1.406556e-95
340.00 1.406556e-95
340.10 1.406556e-95
340.20 1.406556e-95
340.30 1.406556e-95
340.40 1.406556e-95
340.50 1.406556e-95
340.60 1.406556e-95
340.70 1.406556e-95
340.80 1.406556e-95
340.90 1.406556e-95
341.00 1.406556e-95
341.10 1.406556e-95
341.20 1.406556e-95
341.30 1.406556e-95
341.40 1.406556e-95
341.50 1.406556e-95
341.60 1.406556e-95
341.70 1.406556e-95
341.80 1.406556e-95
341.90 1.406556e-95
342.00 1.406556e-95
342.10 1.406556e-95
342.20 1.406556e-95
342.30 1.406556e-95
342.40 1.406556e-95
342.50 1.406556e-95
342.60 1.406556e-95
342.70 1.406556e-95
342.80 1.406556e-95
342.90 1.406556e-95
343.00 1.406556e-95
343.10 1.406556e-95
343.20 1.406556e-95
343.30 1.406556e-95
343.40 1.406556e-95
343.50 1.406556e-95
343.60 1.406556e-95
343.70 1.406556e-95
343.80 1.406556e-95
343.90 1.406556e-95
344.00 1.406556e-95
344.10 1.406556e-95
344.20 1.406556e-95
344.30 1.406556e-95
344.40 1.406556e-95
344.50 1.406556e-95
344.60 1.406556e-95
344.70 1.406556e-95
344.80 1.406556e-95
344.90 1.406556e-95
345.00 1.406556e-95
345.10 1.406556e-95
345.20 1.406556e-95
345.30 1.406556e-95
345.40 1.406556e-95
345.50 1.406556e-95
345.60 1.406556e-95
345.70 1.406556e-95
345.80 1.406556e-95
345.90 1.406556e-95
346.00 1.406556e-95
346.10 1.406556e-95
346.20 1.406556e-95
346.30 1.406556e-95
346.40 1.406556e-95
346.50 1.406556e-95
346.60 1.406556e-95
346.70 1.406556e-95
346.80 1.406556e-95
346.90 1.406556e-95
347.00 1.406556e-95
347.10 1.406556e-95
347.20 1.406556e-95
347.30 1.406556e-95
347.40 1.406556e-95
347.50 1.406556e-95
347.60 1.406556e-95
347.70 1.406556e-95
347.80 1.406556e-95
347.90 1.406556e-95
348.00 1.406556e-95
348.10 1.406556e-95
348.20 1.406556e-95
348.30 1.406556e-95
348.40 1.406556e-95
348.50 1.406556e-95
348.60 1.406556e-95
348.70 1.406556e-95
348.80 1.406556e-95
348.90 1.406556e-95
349.00 1.406556e-95
349.10 1.406556e-95
349.20 1.406556e-95
349.30 1.406556e-95
349.40 1.406556e-95
349.50 1.406556e-95
349.60 1.406556e-95
349.70 1.406556e-95
349.80 1.406556e-95
349.90 1.406556e-95
350.00 1.406556e-95
350.10 1.406556e-95
350.20 1.406556e-95
350.30 1.406556e-95
350.40 1.406556e-95
350.50 1.406556e-95
350.60 1.406556e-95
350.70 1.406556e-95
350.80 1.406556e-95
350.90 1.406556e-95
351.00 1.406556e-95
351.10 1.406556e-95
351.20 1.406556e-95
351.30 1.406556e-95
351.40 1.406556e-95
351.50 1.406556e-95
351.60 1.406556e-95
351.70 1.406556e-95
351.80 1.406556e-95
351.90 1.406556e-95
352.00 1.406556e-95
352.10 1.406556e-95
352.20 1.406556e-95
352.30 1.406556e-95
352.40 1.406556e-95
352.50 1.406556e-95
352.60 1.406556e-95
352.70 1.406556e-95
352.80 1.406556e-95
352.90 1.406556e-95
353.00 1.406556e-95
353.10 1.406556e-95
353.20 1.406556e-95
353.30 1.406556e-95
353.40 1.406556e-95
353.50 1.406556e-95
353.60 1.406556e-95
353.70 1.406556e-95
353.80 1.406556e-95
353.90 1.406556e-95
354.00 1.406556e-95
354.10 1.406556e-95
354.20 1.406556e-95
354.30 1.406556e-95
354.40 1.406556e-95
354.50 1.406556e-95
354.60 1.406556e-95
354.70 1.406556e-95
354.80 1.406556e-95
354.90 1.406556e-95
355.00 1.406556e-95
355.10 1.406556e-95
355.20 1.406556e-95
355.30 1.406556e-95
355.40 1.406556e-95
355.50 1.406556e-95
355.60 1.406556e-95
355.70 1.406556e-95
355.80 1.406556e-95
355.90 1.406556e-95
356.00 1.406556e-95
356.10 1.406556e-95
356.20 1.406556e-95
356.30 1.406556e-95
356.40 1.406556e-95
356.50 1.406556e-95
356.60 1.406556e-95
356.70 1.406556e-95
356.80 1.406556e-95
356.90 1.406556e-95
357.00 1.406556e-95
357.10 1.406556e-95
357.20 1.406556e-95
357.30 1.406556e-95
357.40 1.406556e-95
357.50 1.406556e-95
357.60 1.406556e-95
357.70 1.406556e-95
357.80 1.406556e-95
357.90 1.406556e-95
358.00 1.406556e-95
358.10 1.406556e-95
358.20 1.406556e-95
358.30 1.406556e-95
358.40 1.406556e-95
358.50 1.406556e-95
358.60 1.406556e-95
358.70 1.406556e-95
358.80 1.406556e-95
358.90 1.406556e-95
359.00 1.406556e-95
359.10 1.406556e-95
359.20 1.406556e-95
359.30 1.406556e-95
359.40 1.406556e-95
359.50 1.406556e-95
359.60 1.406556e-95
359.70 1.406556e-95
359.80 1.406556e-95
359.90 1.406556e-95
360.00 1.406556e-95
360.10 1.406556e-95
360.20 1.406556e-95
360.30 1.406556e-95
360.40 1.406556e-95
360.50 1.406556e-95
360.60 1.406556e-95
360.70 1.406556e-95
360.80 1.406556e-95
360.90 1.406556e-95
361.00 1.406556e-95
361.10 1.406556e-95
361.20 1.406556e-95
361.30 1.406556e-95
361.40 1.406556e-95
361.50 1.406556e-95
361.60 1.406556e-95
361.70 1.406556e-95
361.80 1.406556e-95
361.90 1.406556e-95
362.00 1.406556e-95
362.10 1.406556e-95
362.20 1.406556e-95
362.30 1.406556e-95
362.40 1.406556e-95
362.50 1.406556e-95
362.60 1.406556e-95
362.70 1.406556e-95
362.80 1.406556e-95
362.90 1.406556e-95
363.00 1.406556e-95
363.10 1.406556e-95
363.20 1.406556e-95
363.30 1.406556e-95
363.40 1.406556e-95
363.50 1.406556e-95
363.60 1.406556e-95
363.70 1.406556e-95
363.80 1.406556e-95
363.90 1.406556e-95
364.00 1.406556e-95
364.10 1.406556e-95
364.20 1.406556e-95
364.30 1.406556e-95
364.40 1.406556e-95
364.50 1.406556e-95
364.60 1.406556e-95
364.70 1.406556e-95
364.80 1.406556e-95
364.90 1.406556e-95
365.00 1.406556e-95
365.10 1.406556e-95
365.20 1.406556e-95
365.30 1.406556e-95
365.40 1.406556e-95
365.50 1.406556e-95
365.60 1.406556e-95
365.70 1.406556e-95
365.80 1.406556e-95
365.90 1.406556e-95
366.00 1.406556e-95
366.10 1.406556e-95
366.20 1.406556e-95
366.30 1.406556e-95
366.40 1.406556e-95
366.50 1.406556e-95
366.60 1.406556e-95
366.70 1.406556e-95
366.80 1.406556e-95
366.90 1.406556e-95
367.00 1.406556e-95
367.10 1.406556e-95
367.20 1.406556e-95
367.30 1.406556e-95
367.40 1.406556e-95
367.50 1.406556e-95
367.60 1.406556e-95
367.70 1.406556e-95
367.80 1.406556e-95
367.90 1.406556e-95
368.00 1.406556e-95
368.10 1.406556e-95
368.20 1.406556e-95
368.30 1.406556e-95
368.40 1.406556e-95
368.50 1.406556e-95
368.60 1.406556e-95
368.70 1.406556e-95
368.80 1.406556e-95
368.90 1.406556e-95
369.00 1.406556e-95
369.10 1.406556e-95
369.20 1.406556e-95
369.30 1.406556e-95
369.40 1.406556e-95
369.50 1.406556e-95
369.60 1.406556e-95
369.70 1.406556e-95
369.80 1.406556e-95
369.90 1.406556e-95
370.00 1.406556e-95
370.10 1.406556e-95
370.20 1.406556e-95
370.30 1.406556e-95
370.40 1.406556e-95
370.50 1.406556e-95
370.60 1.406556e-95
370.70 1.406556e-95
370.80 1.406556e-95
370.90 1.406556e-95
371.00 1.406556e-95
371.10 1.406556e-95
371.20 1.406556e-95
371.30 1.406556e-95
371.40 1.406556e-95
371.50 1.406556e-95
371.60 1.406556e-95
371.70 1.406556e-95
371.80 1.406556e-95
371.90 1.406556e-95
372.00 1.406556e-95
372.10 1.406556e-95
372.20 1.406556e-95
372.30 1.406556e-95
372.40 1.406556e-95
372.50 1.406556e-95
372.60 1.406556e-95
372.70 1.406556e-95
372.80 1.406556e-95
372.90 1.406556e-95
373.00 1.406556e-95
373.10 1.406556e-95
373.20 1.406556e-95
373.30 1.406556e-95
373.40 1.406556e-95
373.50 1.406556e-95
373.60 1.406556e-95
373.70 1.406556e-95
373.80 1.406556e-95
373.90 1.406556e-95
374.00 1.406556e-95
374.10 1.406556e-95
374.20 1.406556e-95
374.30 1.406556e-95
374.40 1.406556e-95
374.50 1.406556e-95
374.60 1.406556e-95
374.70 1.406556e-95
374.80 1.406556e-95
374.90 1.406556e-95
375.00 1.406556e-95
375.10 1.406556e-95
375.20 1.406556e-95
375.30 1.406556e-95
375.40 1.406556e-95
375.50 1.406556e-95
375.60 1.406556e-95
375.70 1.406556e-95
375.80 1.406556e-95
375.90 1.406556e-95
376.00 1.406556e-95
376.10 1.406556e-95
376.20 1.406556e-95
376.30 1.406556e-95
376.40 1.406556e-95
376.50 1.406556e-95
376.60 1.406556e-95
376.70 1.406556e-95
376.80 1.406556e-95
376.90 1.406556e-95
377.00 1.406556e-95
377.10 1.406556e-95
377.20 1.406556e-95
377.30 1.406556e-95
377.40 1.406556e-95
377.50 1.406556e-95
377.60 1.406556e-95
377.70 1.406556e-95
377.80 1.406556e-95
377.90 1.406556e-95
378.00 1.406556e-95
378.10 1.406556e-95
378.20 1.406556e-95
378.30 1.406556e-95
378.40 1.406556e-95
378.50 1.406556e-95
378.60 1.406556e-95
378.70 1.406556e-95
378.80 1.406556e-95
378.90 1.406556e-95
379.00 1.406556e-95
379.10 1.406556e-95
379.20 1.406556e-95
379.30 1.406556e-95
379.40 1.406556e-95
379.50 1.406556e-95
379.60 1.406556e-95
379.70 1.406556e-95
379.80 1.406556e-95
379.90 1.406556e-95
380.00 1.406556e-95
380.10 1.406556e-95
380.20 1.406556e-95
380.30 1.406556e-95
380.40 1.406556e-95
380.50 1.406556e-95
380.60 1.406556e-95
380.70 1.406556e-95
380.80 1.406556e-95
380.90 1.406556e-95
381.00 1.406556e-95
381.10 1.406556e-95
381.20 1.406556e-95
381.30 1.406556e-95
381.40 1.406556e-95
381.50 1.406556e-95
381.60 1.406556e-95
381.70 1.406556e-95
381.80 1.406556e-95
381.90 1.406556e-95
382.00 1.406556e-95
382.10 1.406556e-95
382.20 1.406556e-95
382.30 1.406556e-95
382.40 1.406556e-95
382.50 1.406556e-95
382.60 1.406556e-95
382.70 1.406556e-95
382.80 1.406556e-95
382.90 1.406556e-95
383.00 1.406556e-95
383.10 1.406556e-95
383.20 1.406556e-95
383.30 1.406556e-95
383.40 1.406556e-95
383.50 1.406556e-95
383.60 1.406556e-95
383.70 1.406556e-95
383.80 1.406556e-95
383.90 1.406556e-95
384.00 1.406556e-95
384.10 1.406556e-95
384.20 1.406556e-95
384.30 1.406556e-95
384.40 1.406556e-95
384.50 1.406556e-95
384.60 1.406556e-95
384.70 1.406556e-95
384.80 1.406556e-95
384.90 1.406556e-95
385.00 1.406556e-95
385.10 1.406556e-95
385.20 1.406556e-95
385.30 1.406556e-95
385.40 1.406556e-95
385.50 1.406556e-95
385.60 1.406556e-95
385.70 1.406556e-95
385.80 1.406556e-95
385.90 1.406556e-95
386.00 1.406556e-95
386.10 1.406556e-95
386.20 1.406556e-95
386.30 1.406556e-95
386.40 1.406556e-95
386.50 1.406556e-95
386.60 1.406556e-95
386.70 1.406556e-95
386.80 1.406556e-95
386.90 1.406556e-95
387.00 1.406556e-95
387.10 1.406556e-95
387.20 1.406556e-95
387.30 1.406556e-95
387.40 1.406556e-95
387.50 1.406556e-95
387.60 1.406556e-95
387.70 1.406556e-95
387.80 1.406556e-95
387.90 1.406556e-95
388.00 1.406556e-95
388.10 1.406556e-95
388.20 1.406556e-95
388.30 1.406556e-95
388.40 1.406556e-95
388.50 1.406556e-95
388.60 1.406556e-95
388.70 1.406556e-95
388.80 1.406556e-95
388.90 1.406556e-95
389.00 1.406556e-95
389.10 1.406556e-95
389.20 1.406556e-95
389.30 1.406556e-95
389.40 1.406556e-95
389.50 1.406556e-95
389.60 1.406556e-95
389.70 1.406556e-95
389.80 1.406556e-95
389.90 1.406556e-95
390.00 1.406556e-95
390.10 1.406556e-95
390.20 1.406556e-95
390.30 1.406556e-95
390.40 1.406556e-95
390.50 1.406556e-95
390.60 1.406556e-95
390.70 1.406556e-95
390.80 1.406556e-95
390.90 1.406556e-95
391.00 1.406556e-95
391.10 1.406556e-95
391.20 1.406556e-95
391.30 1.406556e-95
391.40 1.406556e-95
391.50 1.406556e-95
391.60 1.406556e-95
391.70 1.406556e-95
391.80 1.406556e-95
391.90 1.406556e-95
392.00 1.406556e-95
392.10 1.406556e-95
392.20 1.406556e-95
392.30 1.406556e-95
392.40 1.406556e-95
392.50 1.406556e-95
392.60 1.406556e-95
392.70 1.406556e-95
392.80 1.406556e-95
392.90 1.406556e-95
393.00 1.406556e-95
393.10 1.406556e-95
393.20 1.406556e-95
393.30 1.406556e-95
393.40 1.406556e-95
393.50 1.406556e-95
393.60 1.406556e-95
393.70 1.406556e-95
393.80 1.406556e-95
393.90 1.406556e-95
394.00 1.406556e-95
394.10 1.406556e-95
394.20 1.406556e-95
394.30 1.406556e-95
394.40 1.406556e-95
394.50 1.406556e-95
394.60 1.406556e-95
394.70 1.406556e-95
394.80 1.406556e-95
394.90 1.406556e-95
395.00 0.005847218
395.10 0.01119867
395.20 0.01626821
395.30 0.02129774
395.40 0.02670747
395.50 0.03297599
395.60 0.04035571
395.70 0.04880302
395.80 0.05799448
395.90 0.06756393
396.00 0.07721316
396.10 0.08654589
396.20 0.09514564
396.30 0.1026573
396.40 0.1088674
396.50 0.1137695
396.60 0.1174832
396.70 0.1202886
396.80 0.1225397
396.90 0.124534
397.00 0.1265786
397.10 0.1290594
397.20 0.1323525
397.30 0.1365069
397.40 0.1412964
397.50 0.1465086
397.60 0.1519913
397.70 0.1576468
397.80 0.1633734
397.90 0.1690784
398.00 0.1747604
398.10 0.1804383
398.20 0.1861252
398.30 0.1919084
398.40 0.1978963
398.50 0.2041664
398.60 0.2107664
398.70 0.2176665
398.80 0.2247655
398.90 0.231963
399.00 0.2390987
399.10 0.2459739
399.20 0.2524489
399.30 0.25844
399.40 0.2639236
399.50 0.2690371
399.60 0.2740127
399.70 0.2789878
399.80 0.2840386
399.90 0.2891804
400.00 0.2943437
400.10 0.2995434
400.20 0.3048666
400.30 0.3103898
400.40 0.3162138
400.50 0.3223978
400.60 0.3288845
400.70 0.3354984
400.80 0.3419359
400.90 0.3477472
401.00 0.3525427
401.10 0.3561633
401.20 0.3586611
401.30 0.3602584
401.40 0.361184
401.50 0.3615419
401.60 0.3615419
401.70 0.3615419
401.80 0.3615419
401.90 0.3618638
402.00 0.3629141
402.10 0.3647997
402.20 0.3675867
402.30 0.3712625
402.40 0.3755989
402.50 0.3801843
402.60 0.3845156
402.70 0.3881522
402.80 0.3910695
402.90 0.39371
403.00 0.3965855
403.10 0.3998676
403.20 0.4033711
403.30 0.4068614
403.40 0.4102044
403.50 0.4134013
403.60 0.4164682
403.70 0.4193843
403.80 0.4222433
403.90 0.425321
404.00 0.4290507
404.10 0.4338725
404.20 0.4400056
404.30 0.4473256
404.40 0.4554086
404.50 0.4637481
404.60 0.4718844
404.70 0.4793921
404.80 0.4859889
404.90 0.4915274
405.00 0.4901527
405.10 0.4884188
405.20 0.4864592
405.30 0.4843779
405.40 0.4819786
405.50 0.4788361
405.60 0.4746371
405.70 0.4693539
405.80 0.4633475
405.90 0.4571297
406.00 0.4511223
406.10 0.4457938
406.20 0.441638
406.30 0.4391553
406.40 0.4386297
406.50 0.4399589
406.60 0.4428274
406.70 0.4467468
406.80 0.4512095
406.90 0.4557502
407.00 0.4598375
407.10 0.4629186
407.20 0.4645776
407.30 0.4648828
407.40 0.4643233
407.50 0.463411
407.60 0.4624367
407.70 0.4612827
407.80 0.4597037
407.90 0.4575154
408.00 0.4545331
408.10 0.4508124
408.20 0.4466375
408.30 0.4423946
408.40 0.4385329
408.50 0.4353918
408.60 0.4330548
408.70 0.4312841
408.80 0.4296451
408.90 0.4275954
409.00 0.42469
409.10 0.4207906
409.20 0.41601
409.30 0.4107612
409.40 0.4056647
409.50 0.4011225
409.60 0.3972953
409.70 0.3943728
409.80 0.3924868
409.90 0.391605
410.00 0.3915679
410.10 0.3920885
410.20 0.3928448
410.30 0.393576
410.40 0.3941229
410.50 0.3944702
410.60 0.3947497
410.70 0.395175
410.80 0.3959438
410.90 0.3971835
411.00 0.398801
411.10 0.4004468
411.20 0.4018331
411.30 0.4029834
411.40 0.4043026
411.50 0.4064483
411.60 0.4098901
411.70 0.4147933
411.80 0.4213917
411.90 0.4292154
412.00 0.4374653
412.10 0.4455318
412.20 0.452822
412.30 0.4590024
412.40 0.4642425
412.50 0.4690735
412.60 0.4741209
412.70 0.4799418
412.80 0.4866977
412.90 0.4940255
413.00 0.501341
413.10 0.5082305
413.20 0.51454
413.30 0.5201925
413.40 0.5250707
413.50 0.528953
413.60 0.5317274
413.70 0.5335319
413.80 0.5345881
413.90 0.5350905
414.00 0.5350667
414.10 0.5342905
414.20 0.532491
414.30 0.5295661
414.40 0.5256449
414.50 0.5209846
414.60 0.5158312
414.70 0.5104807
414.80 0.5052866
414.90 0.5006934
415.00 0.4971695
415.10 0.4949828
415.20 0.4942319
415.30 0.4948906
415.40 0.4967723
415.50 0.4996169
415.60 0.503141
415.70 0.50703
415.80 0.5109203
415.90 0.5144486
416.00 0.5174452
416.10 0.519859
416.20 0.5215431
416.30 0.5222774
416.40 0.5218836
416.50 0.5202888
416.60 0.5175451
416.70 0.5138489
416.80 0.5095619
416.90 0.5053609
417.00 0.5022407
417.10 0.5011433
417.20 0.5026126
417.30 0.5066263
417.40 0.5125984
417.50 0.5196138
417.60 0.5267411
417.70 0.5333356
417.80 0.5391374
417.90 0.5442183
418.00 0.5488248
418.10 0.5531511
418.20 0.5573751
418.30 0.5616082
418.40 0.5657997
418.50 0.5698484
418.60 0.5737047
418.70 0.577468
418.80 0.5813614
418.90 0.585744
419.00 0.5910044
419.10 0.5972066
419.20 0.6040051
419.30 0.6106836
419.40 0.6164519
419.50 0.6208799
419.60 0.6238573
419.70 0.625366
419.80 0.6254835
419.90 0.6244543
420.00 0.622637
420.10 0.6203974
420.20 0.6180021
420.30 0.6154759
420.40 0.6127158
420.50 0.6097212
420.60 0.6066167
420.70 0.6037559
420.80 0.6016504
420.90 0.6008483
421.00 0.6019104
421.10 0.6051221
421.20 0.6101958
421.30 0.6163878
421.40 0.6228093
421.50 0.6285992
421.60 0.6330435
421.70 0.6356929
421.80 0.6364123
421.90 0.6353897
422.00 0.6330031
422.10 0.6296218
422.20 0.6255759
422.30 0.6210556
422.40 0.616008
422.50 0.610421
422.60 0.6045154
422.70 0.5985465
422.80 0.5926307
422.90 0.5867936
423.00 0.5811386
423.10 0.5758961
423.20 0.5712957
423.30 0.567387
423.40 0.5641204
423.50 0.5615021
423.60 0.5595182
423.70 0.5580835
423.80 0.5570709
423.90 0.5562347
424.00 0.5552684
424.10 0.5540007
424.20 0.5524342
424.30 0.5507392
424.40 0.5491407
424.50 0.5478005
424.60 0.5468927
424.70 0.5465726
424.80 0.5468492
424.90 0.5475936
425.00 0.5485469
425.10 0.5493397
425.20 0.5494961
425.30 0.5485815
425.40 0.546471
425.50 0.543394
425.60 0.5398186
425.70 0.5362114
425.80 0.5327753
425.90 0.5294661
426.00 0.5261379
426.10 0.5227112
426.20 0.5193382
426.30 0.5162758
426.40 0.513858
426.50 0.5125036
426.60 0.5125379
426.70 0.5141278
426.80 0.5171565
426.90 0.5210061
427.00 0.5246183
427.10 0.5268889
427.20 0.5270912
427.30 0.5250372
427.40 0.5209454
427.50 0.515333
427.60 0.5089188
427.70 0.5024905
427.80 0.4967212
427.90 0.4919937
428.00 0.488484
428.10 0.4861388
428.20 0.4846118
428.30 0.4834364
428.40 0.4821411
428.50 0.4803156
428.60 0.4777607
428.70 0.4745684
428.80 0.4710006
428.90 0.4673493
429.00 0.4638919
429.10 0.4608979
429.20 0.4585957
429.30 0.4571588
429.40 0.4565971
429.50 0.4566777
429.60 0.4570334
429.70 0.4573555
429.80 0.4575357
429.90 0.4576855
430.00 0.4581187
430.10 0.4590706
430.20 0.4606702
430.30 0.462975
430.40 0.465802
430.50 0.4687111
430.60 0.4710752
430.70 0.4722074
430.80 0.4716141
430.90 0.4691612
431.00 0.4650197
431.10 0.4597493
431.20 0.4542171
431.30 0.4492033
431.40 0.4450529
431.50 0.4417793
431.60 0.4391826
431.70 0.4369579
431.80 0.4347758
431.90 0.4323618
432.00 0.4296402
432.10 0.4267304
432.20 0.4238555
432.30 0.4212304
432.40 0.4191383
432.50 0.4177848
432.60 0.4171453
432.70 0.417039
432.80 0.4172065
432.90 0.4173905
433.00 0.4174105
433.10 0.4171468
433.20 0.4166547
433.30 0.4162123
433.40 0.4161718
433.50 0.4168519
433.60 0.4184864
433.70 0.4211673
433.80 0.4247139
433.90 0.4286452
434.00 0.4323454
434.10 0.435325
434.20 0.4373933
434.30 0.4386692
434.40 0.4395356
434.50 0.440527
434.60 0.4421348
434.70 0.4446936
434.80 0.4482626
434.90 0.4524997
435.00 0.4568244
435.10 0.4606632
435.20 0.4636081
435.30 0.4655363
435.40 0.4666031
435.50 0.4671456
435.60 0.467508
435.70 0.46793
435.80 0.4685879
435.90 0.4695739
436.00 0.4708357
436.10 0.472228
436.20 0.4735057
436.30 0.4743824
436.40 0.4746043
436.50 0.4739809
436.60 0.4724482
436.70 0.4700464
436.80 0.4669108
436.90 0.4632684
437.00 0.4594428
437.10 0.4558314
437.20 0.4527743
437.30 0.450383
437.40 0.4485905
437.50 0.4472238
437.60 0.4461369
437.70 0.4453072
437.80 0.4447096
437.90 0.4443651
438.00 0.4443439
438.10 0.4447258
438.20 0.4455823
438.30 0.4469344
438.40 0.4488085
438.50 0.4512502
438.60 0.4541433
438.70 0.4572539
438.80 0.4603021
438.90 0.4628526
439.00 0.4643702
439.10 0.4644879
439.20 0.4632475
439.30 0.4610366
439.40 0.4584257
439.50 0.456039
439.60 0.4544729
439.70 0.4541236
439.80 0.454967
439.90 0.4565629
440.00 0.4582675
440.10 0.4595097
440.20 0.4598894
440.30 0.459328
440.40 0.4580449
440.50 0.4564075
440.60 0.4548564
440.70 0.4536985
440.80 0.453058
440.90 0.4529358
441.00 0.4532331
441.10 0.4537852
441.20 0.4544632
441.30 0.4552068
441.40 0.4560066
441.50 0.456918
441.60 0.4581011
441.70 0.4596344
441.80 0.4615882
441.90 0.4640554
442.00 0.4670289
442.10 0.4704678
442.20 0.4743417
442.30 0.4786338
442.40 0.4831905
442.50 0.4876976
442.60 0.4917966
442.70 0.4952403
442.80 0.4980239
442.90 0.5002562
443.00 0.5019749
443.10 0.5032704
443.20 0.5042547
443.30 0.505014
443.40 0.5055915
443.50 0.5059744
443.60 0.506057
443.70 0.5056008
443.80 0.5044729
443.90 0.5028291
444.00 0.501032
444.10 0.4994097
444.20 0.4980917
444.30 0.4969948
444.40 0.4958979
444.50 0.4944671
444.60 0.4923758
444.70 0.4894465
444.80 0.4857586
444.90 0.4817204
445.00 0.4779639
445.10 0.475196
445.20 0.4739846
445.30 0.4746177
445.40 0.4770052
445.50 0.4807014
445.60 0.4850995
445.70 0.4896195
445.80 0.4939037
445.90 0.4978688
446.00 0.5015436
446.10 0.5049393
446.20 0.5080503
446.30 0.5109061
446.40 0.5136125
446.50 0.5162971
446.60 0.5190288
446.70 0.521758
446.80 0.5244501
446.90 0.527112
447.00 0.529624
447.10 0.5317824
447.20 0.5333259
447.30 0.5341383
447.40 0.5344322
447.50 0.5346442
447.60 0.5352803
447.70 0.5366652
447.80 0.5388215
447.90 0.5415379
448.00 0.5444535
448.10 0.5470861
448.20 0.5488629
448.30 0.549329
448.40 0.5483602
448.50 0.5461359
448.60 0.5431374
448.70 0.539949
448.80 0.5371189
448.90 0.5352028
449.00 0.5346461
449.10 0.53575
449.20 0.5386047
449.30 0.5429586
449.40 0.5482245
449.50 0.5536941
449.60 0.5586867
449.70 0.5626128
449.80 0.5651978
449.90 0.5665752
450.00 0.5671352
450.10 0.5674632
450.20 0.5681568
450.30 0.5696324
450.40 0.572163
450.50 0.5758185
450.60 0.5804554
450.70 0.5858649
450.80 0.5918926
450.90 0.5984127
451.00 0.6053239
451.10 0.6125209
451.20 0.6197481
451.30 0.6266176
451.40 0.6327537
451.50 0.6378823
451.60 0.6418889
451.70 0.6449012
451.80 0.6471483
451.90 0.6488746
452.00 0.6503625
452.10 0.651886
452.20 0.6536236
452.30 0.6556395
452.40 0.6579475
452.50 0.6604944
452.60 0.6631749
452.70 0.6658287
452.80 0.6682607
452.90 0.670298
453.00 0.6718871
453.10 0.6730559
453.20 0.673858
453.30 0.6743627
453.40 0.6746664
453.50 0.6749514
453.60 0.6755
453.70 0.6766404
453.80 0.678593
453.90 0.6814757
454.00 0.6853964
454.10 0.690436
454.20 0.6966119
454.30 0.7038202
454.40 0.7117115
454.50 0.7197597
454.60 0.7274576
454.70 0.7343925
454.80 0.7402611
454.90 0.7448555
455.00 0.7480639
455.10 0.7498475
455.20 0.7502649
455.30 0.7495148
455.40 0.7478722
455.50 0.7456232
455.60 0.7430385
455.70 0.7404076
455.80 0.7380921
455.90 0.7364362
456.00 0.7356832
456.10 0.735966
456.20 0.7373395
456.30 0.7397321
456.40 0.7428411
456.50 0.7462691
456.60 0.7497575
456.70 0.7531847
456.80 0.7564101
456.90 0.7594097
457.00 0.7625083
457.10 0.766178
457.20 0.7707865
457.30 0.7764845
457.40 0.7831687
457.50 0.7905129
457.60 0.7979516
457.70 0.8048829
457.80 0.8109236
457.90 0.8159116
458.00 0.8198301
458.10 0.8229006
458.20 0.8256557
458.30 0.828656
458.40 0.832164
458.50 0.8361205
458.60 0.8402557
458.70 0.8442385
458.80 0.8476727
458.90 0.850158
459.00 0.8515291
459.10 0.8518271
459.20 0.8512003
459.30 0.8499561
459.40 0.8485756
459.50 0.8475168
459.60 0.8470962
459.70 0.8475325
459.80 0.8488653
459.90 0.8509538
460.00 0.8536106
460.10 0.8565839
460.20 0.8597307
460.30 0.8631267
460.40 0.8667279
460.50 0.8703031
460.60 0.8736167
460.70 0.8764003
460.80 0.8783138
460.90 0.879092
461.00 0.8785859
461.10 0.8767818
461.20 0.8739032
461.30 0.8703944
461.40 0.8667414
461.50 0.8633155
461.60 0.8602955
461.70 0.8576185
461.80 0.8552214
461.90 0.8531879
462.00 0.8516313
462.10 0.8506937
462.20 0.8505114
462.30 0.8510493
462.40 0.8520449
462.50 0.8531396
462.60 0.8539927
462.70 0.8542942
462.80 0.853837
462.90 0.8526736
463.00 0.8511049
463.10 0.8495381
463.20 0.8483894
463.30 0.8480154
463.40 0.8486885
463.50 0.8504238
463.60 0.8529433
463.70 0.8558431
463.80 0.8587064
463.90 0.8611173
464.00 0.8626174
464.10 0.8628809
464.20 0.8618092
464.30 0.8594712
464.40 0.8561318
464.50 0.8523724
464.60 0.8489827
464.70 0.8466228
464.80 0.8456643
464.90 0.8462492
465.00 0.848272
465.10 0.8514592
465.20 0.8555297
465.30 0.860072
465.40 0.8646605
465.50 0.8690016
465.60 0.8728889
465.70 0.8762301
465.80 0.879048
465.90 0.8814186
466.00 0.8833814
466.10 0.8849545
466.20 0.8861852
466.30 0.8871725
466.40 0.8881323
466.50 0.8893136
466.60 0.8908992
466.70 0.8931376
466.80 0.8962047
466.90 0.9000095
467.00 0.9042406
467.10 0.9084374
467.20 0.9121287
467.30 0.9149143
467.40 0.9165406
467.50 0.9170111
467.60 0.9165199
467.70 0.9153282
467.80 0.9136794
467.90 0.9117257
468.00 0.9095204
468.10 0.9069887
468.20 0.9040418
468.30 0.9007089
468.40 0.8971476
468.50 0.8936348
468.60 0.8904271
468.70 0.8877031
468.80 0.885667
468.90 0.8845067
469.00 0.8843409
469.10 0.8852156
469.20 0.8870513
469.30 0.8896902
469.40 0.8929244
469.50 0.8965893
469.60 0.9006203
469.70 0.9049226
469.80 0.9093569
469.90 0.9138249
470.00 0.918236
470.10 0.9224268
470.20 0.9260553
470.30 0.9286648
470.40 0.9299818
470.50 0.9300511
470.60 0.9291386
470.70 0.9276063
470.80 0.9257796
470.90 0.9237918
471.00 0.9216102
471.10 0.9192055
471.20 0.9165768
471.30 0.9137097
471.40 0.9106873
471.50 0.9076843
471.60 0.9048806
471.70 0.9024632
471.80 0.9004815
471.90 0.898702
472.00 0.8967372
472.10 0.8942192
472.20 0.8909624
472.30 0.8871104
472.40 0.8830751
472.50 0.8793044
472.60 0.8761565
472.70 0.8739141
472.80 0.8727089
472.90 0.8724744
473.00 0.872977
473.10 0.8738821
473.20 0.8748691
473.30 0.8757397
473.40 0.8763521
473.50 0.8765353
473.60 0.8760933
473.70 0.8748725
473.80 0.8728595
473.90 0.8702002
474.00 0.8672609
474.10 0.8645031
474.20 0.862282
474.30 0.8608702
474.40 0.8605728
474.50 0.8615118
474.60 0.8633608
474.70 0.8655445
474.80 0.8675224
474.90 0.8688681
475.00 0.8693777
475.10 0.8690024
475.20 0.8676821
475.30 0.8654924
475.40 0.8626021
475.50 0.8591147
475.60 0.8551653
475.70 0.8509313
475.80 0.8464649
475.90 0.8417638
476.00 0.8369948
476.10 0.8324146
476.20 0.8282356
476.30 0.8245903
476.40 0.8214492
476.50 0.8186178
476.60 0.8157696
476.70 0.8124768
476.80 0.8084351
476.90 0.8035993
477.00 0.7980254
477.10 0.7918259
477.20 0.7852573
477.30 0.7787101
477.40 0.7725536
477.50 0.7669728
477.60 0.7619767
477.70 0.7575231
477.80 0.7536648
477.90 0.7507053
478.00 0.749161
478.10 0.7494562
478.20 0.7516531
478.30 0.7554253
478.40 0.7602274
478.50 0.7654604
478.60 0.7705585
478.70 0.7749468
478.80 0.7781227
478.90 0.7798659
479.00 0.7802131
479.10 0.7793265
479.20 0.7773969
479.30 0.7744684
479.40 0.7704005
479.50 0.7650622
479.60 0.7584587
479.70 0.7508271
479.80 0.7426379
479.90 0.7343149
480.00 0.7260332
480.10 0.7178476
480.20 0.7097978
480.30 0.7019065
480.40 0.6942935
480.50 0.6871805
480.60 0.6809483
480.70 0.6762867
480.80 0.6741014
480.90 0.675236
481.00 0.6801245
481.10 0.6885849
481.20 0.6998463
481.30 0.7127848
481.40 0.7261758
481.50 0.7388826
481.60 0.7500098
481.70 0.7590268
481.80 0.7658422
481.90 0.7708666
482.00 0.7748002
482.10 0.7782119
482.20 0.7814068
482.30 0.7844766
482.40 0.7874632
482.50 0.7904637
482.60 0.7936091
482.70 0.7969864
482.80 0.8006195
482.90 0.8045106
483.00 0.8086555
483.10 0.8129914
483.20 0.8173386
483.30 0.8214201
483.40 0.8249464
483.50 0.8278092
483.60 0.8301666
483.70 0.8323327
483.80 0.834621
483.90 0.8372692
484.00 0.8403439
484.10 0.8437534
484.20 0.8473668
484.30 0.8509868
484.40 0.8542847
484.50 0.8569523
484.60 0.8589311
484.70 0.8604037
484.80 0.8616661
484.90 0.8630571
485.00 0.8648624
485.10 0.867324
485.20 0.8706847
485.30 0.8750656
485.40 0.8804588
485.50 0.8868369
485.60 0.8941231
485.70 0.9021204
485.80 0.9105581
485.90 0.9191103
486.00 0.9273745
486.10 0.9349629
486.20 0.9415705
486.30 0.9470327
486.40 0.951413
486.50 0.9549592
486.60 0.9580421
486.70 0.9610589
486.80 0.964363
486.90 0.968143
487.00 0.9723896
487.10 0.9770799
487.20 0.982271
487.30 0.9880438
487.40 0.9944286
487.50 1.001471
487.60 1.009296
487.70 1.017965
487.80 1.027283
487.90 1.03671
488.00 1.045465
488.10 1.052918
488.20 1.058742
488.30 1.0629
488.40 1.065673
488.50 1.06749
488.60 1.068861
488.70 1.07039
488.80 1.072682
488.90 1.076134
489.00 1.0808
489.10 1.086479
489.20 1.092879
489.30 1.099805
489.40 1.107247
489.50 1.115115
489.60 1.123095
489.70 1.13085
489.80 1.138058
489.90 1.14451
490.00 1.150125
490.10 1.154942
490.20 1.15912
490.30 1.162841
490.40 1.166187
490.50 1.169056
490.60 1.171113
490.70 1.171782
490.80 1.170303
490.90 1.166004
491.00 1.158649
491.10 1.148402
491.20 1.13582
491.30 1.121831
491.40 1.107544
491.50 1.094065
491.60 1.082357
491.70 1.073084
491.80 1.06651
491.90 1.062529
492.00 1.060679
492.10 1.060278
492.20 1.060573
492.30 1.060849
492.40 1.060461
492.50 1.059033
492.60 1.056528
492.70 1.053155
492.80 1.04933
492.90 1.04552
493.00 1.042084
493.10 1.039296
493.20 1.037351
493.30 1.036246
493.40 1.035831
493.50 1.035874
493.60 1.036103
493.70 1.036338
493.80 1.036575
493.90 1.036958
494.00 1.037751
494.10 1.039261
494.20 1.041688
494.30 1.045019
494.40 1.049033
494.50 1.053285
494.60 1.057197
494.70 1.060225
494.80 1.061903
494.90 1.061891
495.00 1.060072
495.10 1.056555
495.20 1.051669
495.30 1.045863
495.40 1.039596
495.50 1.033272
495.60 1.027218
495.70 1.021763
495.80 1.017275
495.90 1.014096
496.00 1.012387
496.10 1.012141
496.20 1.013305
496.30 1.015747
496.40 1.019197
496.50 1.023356
496.60 1.02787
496.70 1.032314
496.80 1.036267
496.90 1.03949
497.00 1.041998
497.10 1.043851
497.20 1.044936
497.30 1.044963
497.40 1.043709
497.50 1.041117
497.60 1.037283
497.70 1.032559
497.80 1.027543
497.90 1.022846
498.00 1.018954
498.10 1.016134
498.20 1.014383
498.30 1.013409
498.40 1.012739
498.50 1.011998
498.60 1.010989
498.70 1.009712
498.80 1.008279
498.90 1.006824
499.00 1.005491
499.10 1.004369
499.20 1.003464
499.30 1.00271
499.40 1.001998
499.50 1.001329
499.60 1.000816
499.70 1.000512
499.80 1.00035
499.90 1.000195
500.00 1
500.10 0.9998487
500.20 0.9999291
500.30 1.000506
500.40 1.001858
500.50 1.004286
500.60 1.008023
500.70 1.01311
500.80 1.019385
500.90 1.026555
501.00 1.034342
501.10 1.042673
501.20 1.051635
501.30 1.061249
501.40 1.071431
501.50 1.082002
501.60 1.09266
501.70 1.103067
501.80 1.112862
501.90 1.121626
502.00 1.129035
502.10 1.135105
502.20 1.140195
502.30 1.144756
502.40 1.14917
502.50 1.153658
502.60 1.158277
502.70 1.163009
502.80 1.167722
502.90 1.172207
503.00 1.176255
503.10 1.17957
503.20 1.181876
503.30 1.183167
503.40 1.183701
503.50 1.183825
503.60 1.183951
503.70 1.1845
503.80 1.185752
503.90 1.187707
504.00 1.19005
504.10 1.192198
504.20 1.193501
504.30 1.193511
504.40 1.19213
504.50 1.189729
504.60 1.187058
504.70 1.184961
504.80 1.184211
504.90 1.185321
505.00 1.188354
505.10 1.192959
505.20 1.198472
505.30 1.204132
505.40 1.209296
505.50 1.213551
505.60 1.216758
505.70 1.21899
505.80 1.220386
505.90 1.22105
506.00 1.221099
506.10 1.22065
506.20 1.219781
506.30 1.218625
506.40 1.217414
506.50 1.216404
506.60 1.215858
506.70 1.215984
506.80 1.216865
506.90 1.218478
507.00 1.220737
507.10 1.223504
507.20 1.226663
507.30 1.230204
507.40 1.234122
507.50 1.238299
507.60 1.242516
507.70 1.246458
507.80 1.249744
507.90 1.252113
508.00 1.253549
508.10 1.254236
508.20 1.254519
508.30 1.254839
508.40 1.255485
508.50 1.256487
508.60 1.257763
508.70 1.259225
508.80 1.260821
508.90 1.262611
509.00 1.264746
509.10 1.26741
509.20 1.270752
509.30 1.27471
509.40 1.278978
509.50 1.283173
509.60 1.286966
509.70 1.290153
509.80 1.292804
509.90 1.295199
510.00 1.297584
510.10 1.300034
510.20 1.302463
510.30 1.304683
510.40 1.306453
510.50 1.307563
510.60 1.307976
510.70 1.307898
510.80 1.307707
510.90 1.307862
511.00 1.30866
511.10 1.310077
511.20 1.31171
511.30 1.313007
511.40 1.313484
511.50 1.312768
511.60 1.310687
511.70 1.307289
511.80 1.302813
511.90 1.297605
512.00 1.292007
512.10 1.286248
512.20 1.280413
512.30 1.274549
512.40 1.26876
512.50 1.263164
512.60 1.257851
512.70 1.252847
512.80 1.248122
512.90 1.243607
513.00 1.239211
513.10 1.234931
513.20 1.230869
513.30 1.227154
513.40 1.223899
513.50 1.221299
513.60 1.219541
513.70 1.218602
513.80 1.218224
513.90 1.218115
514.00 1.218074
514.10 1.218014
514.20 1.217992
514.30 1.218204
514.40 1.218843
514.50 1.219928
514.60 1.221269
514.70 1.222561
514.80 1.223487
514.90 1.223829
515.00 1.223585
515.10 1.222906
515.20 1.222015
515.30 1.221112
515.40 1.220334
515.50 1.219672
515.60 1.21886
515.70 1.217551
515.80 1.215595
515.90 1.213118
516.00 1.210497
516.10 1.208269
516.20 1.206946
516.30 1.206893
516.40 1.208207
516.50 1.210689
516.60 1.21393
516.70 1.217406
516.80 1.22058
516.90 1.223057
517.00 1.224719
517.10 1.225664
517.20 1.226077
517.30 1.226241
517.40 1.226521
517.50 1.227316
517.60 1.228974
517.70 1.231647
517.80 1.235271
517.90 1.239638
518.00 1.244452
518.10 1.249484
518.20 1.254598
518.30 1.259735
518.40 1.264949
518.50 1.270383
518.60 1.276116
518.70 1.282037
518.80 1.287864
518.90 1.293131
519.00 1.297332
519.10 1.300049
519.20 1.301037
519.30 1.300382
519.40 1.298466
519.50 1.29579
519.60 1.292933
519.70 1.290485
519.80 1.288881
519.90 1.288421
520.00 1.289301
520.10 1.291541
520.20 1.294933
520.30 1.299195
520.40 1.304054
520.50 1.309202
520.60 1.314283
520.70 1.318886
520.80 1.322672
520.90 1.325468
521.00 1.327277
521.10 1.328341
521.20 1.329182
521.30 1.330335
521.40 1.332154
521.50 1.334907
521.60 1.338728
521.70 1.343575
521.80 1.349307
521.90 1.355748
522.00 1.362755
522.10 1.370287
522.20 1.378309
522.30 1.38672
522.40 1.395364
522.50 1.403973
522.60 1.412171
522.70 1.419677
522.80 1.42649
522.90 1.432922
523.00 1.439493
523.10 1.44671
523.20 1.454837
523.30 1.463855
523.40 1.473527
523.50 1.483399
523.60 1.492881
523.70 1.501426
523.80 1.5087
523.90 1.514647
524.00 1.519464
524.10 1.523553
524.20 1.527347
524.30 1.531186
524.40 1.535321
524.50 1.539874
524.60 1.544848
524.70 1.550196
524.80 1.555789
524.90 1.561417
525.00 1.566902
525.10 1.572232
525.20 1.577593
525.30 1.583337
525.40 1.589829
525.50 1.59731
525.60 1.605897
525.70 1.615413
525.80 1.625277
525.90 1.634731
526.00 1.642966
526.10 1.649264
526.20 1.653157
526.30 1.654516
526.40 1.653571
526.50 1.650796
526.60 1.646736
526.70 1.64198
526.80 1.637124
526.90 1.632584
527.00 1.628482
527.10 1.624794
527.20 1.621509
527.30 1.618556
527.40 1.615844
527.50 1.613319
527.60 1.610935
527.70 1.608664
527.80 1.606479
527.90 1.604305
528.00 1.601968
528.10 1.599173
528.20 1.595649
528.30 1.591344
528.40 1.586434
528.50 1.581212
528.60 1.576085
528.70 1.571527
528.80 1.567917
528.90 1.565477
529.00 1.564268
529.10 1.564182
529.20 1.56497
529.30 1.566366
529.40 1.568226
529.50 1.570518
529.60 1.573188
529.70 1.576126
529.80 1.579212
529.90 1.582273
530.00 1.585064
530.10 1.587428
530.20 1.589393
530.30 1.590983
530.40 1.592197
530.50 1.593142
530.60 1.594011
530.70 1.595006
530.80 1.596267
530.90 1.597852
531.00 1.599718
531.10 1.601663
531.20 1.603329
531.30 1.60446
531.40 1.605078
531.50 1.605366
531.60 1.605589
531.70 1.606037
531.80 1.606881
531.90 1.608119
532.00 1.609544
532.10 1.610768
532.20 1.611379
532.30 1.61107
532.40 1.609806
532.50 1.607998
532.60 1.606458
532.70 1.606052
532.80 1.607299
532.90 1.610186
533.00 1.614257
533.10 1.618899
533.20 1.623563
533.30 1.627836
533.40 1.631516
533.50 1.634655
533.60 1.637518
533.70 1.640495
533.80 1.643886
533.90 1.647806
534.00 1.652229
534.10 1.657007
534.20 1.661993
534.30 1.66708
534.40 1.672226
534.50 1.677501
534.60 1.683087
534.70 1.689187
534.80 1.695998
534.90 1.703706
535.00 1.712349
535.10 1.721697
535.20 1.731374
535.30 1.740947
535.40 1.74997
535.50 1.758133
535.60 1.765373
535.70 1.771947
535.80 1.778312
535.90 1.784882
536.00 1.791931
536.10 1.799599
536.20 1.807917
536.30 1.816735
536.40 1.82581
536.50 1.835052
536.60 1.844551
536.70 1.854404
536.80 1.8647
536.90 1.875528
537.00 1.886798
537.10 1.898198
537.20 1.909345
537.30 1.919921
537.40 1.929683
537.50 1.938425
537.60 1.946015
537.70 1.952539
537.80 1.958368
537.90 1.964011
538.00 1.969988
538.10 1.976768
538.20 1.984573
538.30 1.993275
538.40 2.002543
538.50 2.011916
538.60 2.020812
538.70 2.028676
538.80 2.035191
538.90 2.040341
539.00 2.04442
539.10 2.047953
539.20 2.051486
539.30 2.055413
539.40 2.059931
539.50 2.06503
539.60 2.070609
539.70 2.076469
539.80 2.082214
539.90 2.087369
540.00 2.091595
540.10 2.094726
540.20 2.096764
540.30 2.097976
540.40 2.098773
540.50 2.099422
540.60 2.1
540.70 2.100548
540.80 2.101108
540.90 2.101636
541.00 2.102039
541.10 2.102336
541.20 2.102749
541.30 2.103585
541.40 2.105022
541.50 2.107014
541.60 2.109292
541.70 2.111395
541.80 2.112837
541.90 2.113414
542.00 2.113313
542.10 2.112953
542.20 2.11283
542.30 2.113377
542.40 2.114744
542.50 2.116729
542.60 2.118864
542.70 2.120499
542.80 2.120994
542.90 2.11992
543.00 2.117122
543.10 2.112707
543.20 2.106988
543.30 2.10033
543.40 2.093038
543.50 2.08533
543.60 2.077348
543.70 2.06927
543.80 2.06139
543.90 2.053919
544.00 2.046864
544.10 2.040178
544.20 2.033769
544.30 2.027384
544.40 2.020612
544.50 2.012981
544.60 2.004047
544.70 1.993574
544.80 1.981631
544.90 1.968547
545.00 1.954831
545.10 1.941068
545.20 1.927703
545.30 1.914924
545.40 1.902638
545.50 1.890502
545.60 1.878151
545.70 1.865374
545.80 1.852179
545.90 1.838776
546.00 1.825571
546.10 1.812952
546.20 1.80111
546.30 1.790028
546.40 1.779421
546.50 1.768789
546.60 1.757584
546.70 1.745446
546.80 1.732303
546.90 1.718307
547.00 1.703735
547.10 1.688822
547.20 1.673709
547.30 1.658531
547.40 1.643355
547.50 1.628274
547.60 1.613489
547.70 1.599235
547.80 1.585686
547.90 1.572852
548.00 1.560592
548.10 1.548657
548.20 1.536866
548.30 1.525195
548.40 1.513671
548.50 1.502387
548.60 1.491442
548.70 1.480775
548.80 1.470285
548.90 1.459891
549.00 1.449431
549.10 1.438657
549.20 1.427448
549.30 1.415897
549.40 1.40419
549.50 1.392488
549.60 1.380805
549.70 1.369033
549.80 1.357131
549.90 1.345195
550.00 1.286192
550.10 1.274968
550.20 1.263404
550.30 1.250875
550.40 1.236967
550.50 1.221669
550.60 1.2054
550.70 1.188611
550.80 1.171784
550.90 1.155478
551.00 1.140166
551.10 1.125963
551.20 1.112749
551.30 1.100673
551.40 1.090199
551.50 1.081943
551.60 1.076296
551.70 1.072924
551.80 1.071039
551.90 1.069677
552.00 1.067746
552.10 1.064314
552.20 1.0589
552.30 1.051683
552.40 1.043574
552.50 1.035938
552.60 1.029783
552.70 1.025138
552.80 1.021258
552.90 1.017215
553.00 1.012337
553.10 1.00662
553.20 1.000463
553.30 0.9942425
553.40 0.9883961
553.50 0.9832258
553.60 0.9788181
553.70 0.9750275
553.80 0.9713982
553.90 0.9675799
554.00 0.9637154
554.10 0.9605428
554.20 0.9590659
554.30 0.9600863
554.40 0.9641537
554.50 0.971272
554.60 0.9810959
554.70 0.9932343
554.80 1.007069
554.90 1.022036
555.00 1.037737
555.10 1.053834
555.20 1.07234
555.30 1.099133
555.40 1.14169
555.50 1.206148
555.60 1.295482
555.70 1.40859
555.80 1.539619
555.90 1.678946
556.00 1.815187
556.10 1.937499
556.20 2.038062
556.30 2.113592
556.40 2.165895
556.50 2.201553
556.60 2.22856
556.70 2.252691
556.80 2.277237
556.90 2.303776
557.00 2.33247
557.10 2.362398
557.20 2.392569
557.30 2.422185
557.40 2.450613
557.50 2.477701
557.60 2.503665
557.70 2.52893
557.80 2.553829
557.90 2.578475
558.00 2.603022
558.10 2.627774
558.20 2.653233
558.30 2.679782
558.40 2.707406
558.50 2.735717
558.60 2.763694
558.70 2.78997
558.80 2.813451
558.90 2.833367
559.00 2.849341
559.10 2.861559
559.20 2.868657
559.30 2.86598
559.40 2.84734
559.50 2.807543
559.60 2.744052
559.70 2.658153
559.80 2.555496
559.90 2.445001
560.00 2.337316
560.10 2.242761
560.20 2.168703
560.30 2.117926
560.40 2.08836
560.50 2.073711
560.60 2.066838
560.70 2.063067
560.80 2.059901
560.90 2.056069
561.00 2.051346
561.10 2.046185
561.20 2.040917
561.30 2.035964
561.40 2.031854
561.50 2.028776
561.60 2.026754
561.70 2.025888
561.80 2.026431
561.90 2.028423
562.00 2.031457
562.10 2.034942
562.20 2.038299
562.30 2.041097
562.40 2.042937
562.50 2.043415
562.60 2.042463
562.70 2.040058
562.80 2.036087
562.90 2.030759
563.00 2.024662
563.10 2.0185
563.20 2.012612
563.30 2.006889
563.40 2.00118
563.50 1.995433
563.60 1.989803
563.70 1.984538
563.80 1.979572
563.90 1.974663
564.00 1.969661
564.10 1.964698
564.20 1.960267
564.30 1.957059
564.40 1.9559
564.50 1.957452
564.60 1.961891
564.70 1.969061
564.80 1.978567
564.90 1.989624
565.00 2.000996
565.10 2.011281
565.20 2.019961
565.30 2.027514
565.40 2.034733
565.50 2.042489
565.60 2.0514
565.70 2.061423
565.80 2.071793
565.90 2.081491
566.00 2.089705
566.10 2.095883
566.20 2.099663
566.30 2.100886
566.40 2.099773
566.50 2.096978
566.60 2.093287
566.70 2.089696
566.80 2.087305
566.90 2.086912
567.00 2.088953
567.10 2.093537
567.20 2.100454
567.30 2.109201
567.40 2.11906
567.50 2.129184
567.60 2.138754
567.70 2.147406
567.80 2.155702
567.90 2.164957
568.00 2.176445
568.10 2.190666
568.20 2.207301
568.30 2.225393
568.40 2.243278
568.50 2.259147
568.60 2.271687
568.70 2.280091
568.80 2.284253
568.90 2.284875
569.00 2.283357
569.10 2.281411
569.20 2.279873
569.30 2.278537
569.40 2.277051
569.50 2.275178
569.60 2.272976
569.70 2.271095
569.80 2.270773
569.90 2.273101
570.00 2.278432
570.10 2.286421
570.20 2.296027
570.30 2.305881
570.40 2.314763
570.50 2.321882
570.60 2.327244
570.70 2.331309
570.80 2.334506
570.90 2.337082
571.00 2.338955
571.10 2.339629
571.20 2.338314
571.30 2.334228
571.40 2.326772
571.50 2.315645
571.60 2.301079
571.70 2.283777
571.80 2.264697
571.90 2.244661
572.00 2.224323
572.10 2.20465
572.20 2.186769
572.30 2.171653
572.40 2.159973
572.50 2.151977
572.60 2.147579
572.70 2.146611
572.80 2.148813
572.90 2.153692
573.00 2.160351
573.10 2.16761
573.20 2.174585
573.30 2.181034
573.40 2.186925
573.50 2.192074
573.60 2.196056
573.70 2.198115
573.80 2.197348
573.90 2.193209
574.00 2.185863
574.10 2.17615
574.20 2.165623
574.30 2.156221
574.40 2.149852
574.50 2.147922
574.60 2.150713
574.70 2.157155
574.80 2.165422
574.90 2.173581
575.00 2.18008
575.10 2.184385
575.20 2.187152
575.30 2.189779
575.40 2.19389
575.50 2.200902
575.60 2.211584
575.70 2.225892
575.80 2.242952
575.90 2.261348
576.00 2.279375
576.10 2.295261
576.20 2.307579
576.30 2.315361
576.40 2.318347
576.50 2.316842
576.60 2.311411
576.70 2.302756
576.80 2.291712
576.90 2.279467
577.00 2.267372
577.10 2.256748
577.20 2.248519
577.30 2.242821
577.40 2.239384
577.50 2.237791
577.60 2.237455
577.70 2.237848
577.80 2.238636
577.90 2.239908
578.00 2.242116
578.10 2.245714
578.20 2.250952
578.30 2.257601
578.40 2.264908
578.50 2.271663
578.60 2.276761
578.70 2.279987
578.80 2.281774
578.90 2.282952
579.00 2.284716
579.10 2.288027
579.20 2.293084
579.30 2.299325
579.40 2.305821
579.50 2.311518
579.60 2.315048
579.70 2.315019
579.80 2.310653
579.90 2.301996
580.00 2.289767
580.10 2.27501
580.20 2.259118
580.30 2.243896
580.40 2.231081
580.50 2.222248
580.60 2.218818
580.70 2.221465
580.80 2.229601
580.90 2.241536
581.00 2.255219
581.10 2.268622
581.20 2.280061
581.30 2.288743
581.40 2.294871
581.50 2.299337
581.60 2.303328
581.70 2.30787
581.80 2.313513
581.90 2.320043
582.00 2.326448
582.10 2.331486
582.20 2.334202
582.30 2.334197
582.40 2.331832
582.50 2.328099
582.60 2.323916
582.70 2.31951
582.80 2.314599
582.90 2.308652
583.00 2.300903
583.10 2.290735
583.20 2.278184
583.30 2.263814
583.40 2.248329
583.50 2.232641
583.60 2.218065
583.70 2.205982
583.80 2.197137
583.90 2.191589
584.00 2.189227
584.10 2.189795
584.20 2.192552
584.30 2.196251
584.40 2.199415
584.50 2.200209
584.60 2.196454
584.70 2.186559
584.80 2.170241
584.90 2.14825
585.00 2.122006
585.10 2.093418
585.20 2.064506
585.30 2.036721
585.40 2.010405
585.50 1.985045
585.60 1.95976
585.70 1.933665
585.80 1.906136
585.90 1.877012
586.00 1.84661
586.10 1.815315
586.20 1.78326
586.30 1.750566
586.40 1.717115
586.50 1.68275
586.60 1.648057
586.70 1.614211
586.80 1.582507
586.90 1.553911
587.00 1.528812
587.10 1.506894
587.20 1.487324
587.30 1.469279
587.40 1.452181
587.50 1.435643
587.60 1.419511
587.70 1.403611
587.80 1.387831
587.90 1.371968
588.00 1.355367
588.10 1.337485
588.20 1.318252
588.30 1.298244
588.40 1.278641
588.50 1.260867
588.60 1.245998
588.70 1.234446
588.80 1.226202
588.90 1.22106
589.00 1.218605
589.10 1.217974
589.20 1.218002
589.30 1.217693
589.40 1.216342
589.50 1.213604
589.60 1.209682
589.70 1.205116
589.80 1.200432
589.90 1.196092
590.00 1.192783
590.10 1.191236
590.20 1.191698
590.30 1.193532
590.40 1.195548
590.50 1.196758
590.60 1.196364
590.70 1.194094
590.80 1.190652
590.90 1.187463
591.00 1.186255
591.10 1.18865
591.20 1.195624
591.30 1.207222
591.40 1.222233
591.50 1.238368
591.60 1.253296
591.70 1.265553
591.80 1.274867
591.90 1.282129
592.00 1.289102
592.10 1.297466
592.20 1.308296
592.30 1.321876
592.40 1.337572
592.50 1.354287
592.60 1.371161
592.70 1.387598
592.80 1.403289
592.90 1.418207
593.00 1.432291
593.10 1.445762
593.20 1.458976
593.30 1.472048
593.40 1.485276
593.50 1.499143
593.60 1.513942
593.70 1.529796
593.80 1.546794
593.90 1.564906
594.00 1.583882
594.10 1.603537
594.20 1.623939
594.30 1.645484
594.40 1.668758
594.50 1.693762
594.60 1.719741
594.70 1.745491
594.80 1.769608
594.90 1.790984
595.00 1.80897
595.10 1.823351
595.20 1.834457
595.30 1.8431
595.40 1.850578
595.50 1.858505
595.60 1.868181
595.70 1.880245
595.80 1.894556
595.90 1.91026
596.00 1.926136
596.10 1.940884
596.20 1.953281
596.30 1.962454
596.40 1.968192
596.50 1.970926
596.60 1.971574
596.70 1.97145
596.80 1.971729
596.90 1.973026
597.00 1.975533
597.10 1.979131
597.20 1.983599
597.30 1.988715
597.40 1.994216
597.50 2.000085
597.60 2.00652
597.70 2.013654
597.80 2.02153
597.90 2.03017
598.00 2.039427
598.10 2.048766
598.20 2.057514
598.30 2.065355
598.40 2.072364
598.50 2.078838
598.60 2.08537
598.70 2.092834
598.80 2.101852
598.90 2.112387
599.00 2.123884
599.10 2.135469
599.20 2.146011
599.30 2.154394
599.40 2.159927
599.50 2.162582
599.60 2.162983
599.70 2.162045
599.80 2.160748
599.90 2.160094
600.00 2.35579
600.10 2.372847
600.20 2.372007
600.30 2.361053
600.40 2.345678
600.50 2.320016
600.60 2.28691
600.70 2.260625
600.80 2.249285
600.90 2.251725
601.00 2.262655
601.10 2.270989
601.20 2.266415
601.30 2.247472
601.40 2.213792
601.50 2.167018
601.60 2.116724
601.70 2.073623
601.80 2.047923
601.90 2.046621
602.00 2.068574
602.10 2.10743
602.20 2.156106
602.30 2.199547
602.40 2.227611
602.50 2.242678
602.60 2.249895
602.70 2.25516
602.80 2.268915
602.90 2.301867
603.00 2.351935
603.10 2.4056
603.20 2.449273
603.30 2.476945
603.40 2.487691
603.50 2.490094
603.60 2.497245
603.70 2.521008
603.80 2.567642
603.90 2.630513
604.00 2.696728
604.10 2.751818
604.20 2.782295
604.30 2.779827
604.40 2.745623
604.50 2.685762
604.60 2.613504
604.70 2.545019
604.80 2.488361
604.90 2.442315
605.00 2.407072
605.10 2.383793
605.20 2.367028
605.30 2.364166
605.40 2.386061
605.50 2.424956
605.60 2.455535
605.70 2.46081
605.80 2.44483
605.90 2.418044
606.00 2.390633
606.10 2.372171
606.20 2.370575
606.30 2.385679
606.40 2.416337
606.50 2.469603
606.60 2.551156
606.70 2.650528
606.80 2.750141
606.90 2.84081
607.00 2.923575
607.10 2.993626
607.20 3.035416
607.30 3.039736
607.40 3.010801
607.50 2.961484
607.60 2.907508
607.70 2.868291
607.80 2.851941
607.90 2.849873
608.00 2.851751
608.10 2.850978
608.20 2.84482
608.30 2.832543
608.40 2.814321
608.50 2.788121
608.60 2.755235
608.70 2.724401
608.80 2.694368
608.90 2.656957
609.00 2.61413
609.10 2.575962
609.20 2.551526
609.30 2.543895
609.40 2.551345
609.50 2.567545
609.60 2.584884
609.70 2.602291
609.80 2.61814
609.90 2.632355
610.00 2.646459
610.10 2.650753
610.20 2.639947
610.30 2.622146
610.40 2.604933
610.50 2.589211
610.60 2.577337
610.70 2.579004
610.80 2.602616
610.90 2.647202
611.00 2.701767
611.10 2.750821
611.20 2.784209
611.30 2.800735
611.40 2.803046
611.50 2.800112
611.60 2.801123
611.70 2.805115
611.80 2.806328
611.90 2.805291
612.00 2.803841
612.10 2.795686
612.20 2.772179
612.30 2.732695
612.40 2.682531
612.50 2.621784
612.60 2.55231
612.70 2.478631
612.80 2.406074
612.90 2.343077
613.00 2.303513
613.10 2.300208
613.20 2.334479
613.30 2.395768
613.40 2.466296
613.50 2.529754
613.60 2.575011
613.70 2.591542
613.80 2.573584
613.90 2.527198
614.00 2.466422
614.10 2.406981
614.20 2.360717
614.30 2.33202
614.40 2.320002
614.50 2.322112
614.60 2.33264
614.70 2.341162
614.80 2.3445
614.90 2.343998
615.00 2.340227
615.10 2.343168
615.20 2.36171
615.30 2.391017
615.40 2.41796
615.50 2.43039
615.60 2.421829
615.70 2.393179
615.80 2.349798
615.90 2.299434
616.00 2.256436
616.10 2.236239
616.20 2.24369
616.30 2.277392
616.40 2.331122
616.50 2.384843
616.60 2.413422
616.70 2.406498
616.80 2.364749
616.90 2.295416
617.00 2.215237
617.10 2.14962
617.20 2.115914
617.30 2.117011
617.40 2.147019
617.50 2.190763
617.60 2.230734
617.70 2.248449
617.80 2.230604
617.90 2.177787
618.00 2.103871
618.10 2.023689
618.20 1.949223
618.30 1.896862
618.40 1.877482
618.50 1.883402
618.60 1.899232
618.70 1.915922
618.80 1.929063
618.90 1.93681
619.00 1.93955
619.10 1.936093
619.20 1.922873
619.30 1.898736
619.40 1.86709
619.50 1.835776
619.60 1.815465
619.70 1.811006
619.80 1.820375
619.90 1.842701
620.00 1.876585
620.10 1.914592
620.20 1.948151
620.30 1.969052
620.40 1.966636
620.50 1.93654
620.60 1.885846
620.70 1.831002
620.80 1.787225
620.90 1.76538
621.00 1.773668
621.10 1.808469
621.20 1.858536
621.30 1.911933
621.40 1.955883
621.50 1.977655
621.60 1.96909
621.70 1.929991
621.80 1.873756
621.90 1.826393
622.00 1.807547
622.10 1.815615
622.20 1.846966
622.30 1.903056
622.40 1.97452
622.50 2.04555
622.60 2.099482
622.70 2.123086
622.80 2.117407
622.90 2.096529
623.00 2.073762
623.10 2.056683
623.20 2.04749
623.30 2.044502
623.40 2.047782
623.50 2.061338
623.60 2.08079
623.70 2.092405
623.80 2.087387
623.90 2.065847
624.00 2.035077
624.10 2.001773
624.20 1.969495
624.30 1.941292
624.40 1.917487
624.50 1.902989
624.60 1.905005
624.70 1.92284
624.80 1.951066
624.90 1.98514
625.00 2.025423
625.10 2.073415
625.20 2.122774
625.30 2.159857
625.40 2.173947
625.50 2.164114
625.60 2.134679
625.70 2.093637
625.80 2.0557
625.90 2.032678
626.00 2.030985
626.10 2.054425
626.20 2.099549
626.30 2.158485
626.40 2.220849
626.50 2.272568
626.60 2.306612
626.70 2.324987
626.80 2.330482
626.90 2.32572
627.00 2.313166
627.10 2.294183
627.20 2.269725
627.30 2.246078
627.40 2.231053
627.50 2.228285
627.60 2.24617
627.70 2.294464
627.80 2.373007
627.90 2.471412
628.00 2.574867
628.10 2.674294
628.20 2.765621
628.30 2.835069
628.40 2.870162
628.50 2.870674
628.60 2.840077
628.70 2.785834
628.80 2.723643
628.90 2.671206
629.00 2.636287
629.10 2.62011
629.20 2.621329
629.30 2.641112
629.40 2.690948
629.50 2.786153
629.60 2.922112
629.70 3.084311
629.80 3.260881
629.90 3.432231
630.00 3.578181
630.10 3.678201
630.20 3.709064
630.30 3.664829
630.40 3.564796
630.50 3.435048
630.60 3.303882
630.70 3.196337
630.80 3.122775
630.90 3.075968
631.00 3.05204
631.10 3.056533
631.20 3.086026
631.30 3.131556
631.40 3.183739
631.50 3.242125
631.60 3.314608
631.70 3.396055
631.80 3.467043
631.90 3.513038
632.00 3.532315
632.10 3.532717
632.20 3.523865
632.30 3.513703
632.40 3.516065
632.50 3.5422
632.60 3.591947
632.70 3.659506
632.80 3.738515
632.90 3.817685
633.00 3.883543
633.10 3.931669
633.20 3.965708
633.30 3.990624
633.40 4.006486
633.50 4.012603
633.60 4.010442
633.70 4.001982
633.80 3.98539
633.90 3.958847
634.00 3.930312
634.10 3.909395
634.20 3.900358
634.30 3.903316
634.40 3.916373
634.50 3.937747
634.60 3.96548
634.70 3.99894
634.80 4.033786
634.90 4.061381
635.00 4.077764
635.10 4.08054
635.20 4.068918
635.30 4.049833
635.40 4.031753
635.50 4.020387
635.60 4.016156
635.70 4.018846
635.80 4.027972
635.90 4.03399
636.00 4.026155
636.10 3.998783
636.20 3.961299
636.30 3.930891
636.40 3.916139
636.50 3.926978
636.60 3.967353
636.70 4.028742
636.80 4.09923
636.90 4.170323
637.00 4.240178
637.10 4.302918
637.20 4.34979
637.30 4.384252
637.40 4.413677
637.50 4.438628
637.60 4.450719
637.70 4.43712
637.80 4.394901
637.90 4.327708
638.00 4.245776
638.10 4.166442
638.20 4.102957
638.30 4.059142
638.40 4.032014
638.50 4.018508
638.60 4.016381
638.70 4.022267
638.80 4.032674
638.90 4.044904
639.00 4.055496
639.10 4.068407
639.20 4.089825
639.30 4.122038
639.40 4.163461
639.50 4.208481
639.60 4.255001
639.70 4.302041
639.80 4.349841
639.90 4.400836
640.00 4.454023
640.10 4.502936
640.20 4.538878
640.30 4.552101
640.40 4.53891
640.50 4.501654
640.60 4.44394
640.70 4.36914
640.80 4.284275
640.90 4.200749
641.00 4.129055
641.10 4.081738
641.20 4.06356
641.30 4.070995
641.40 4.103342
641.50 4.157294
641.60 4.223361
641.70 4.294559
641.80 4.363608
641.90 4.417479
642.00 4.443226
642.10 4.436239
642.20 4.40474
642.30 4.360265
642.40 4.307883
642.50 4.250434
642.60 4.19654
642.70 4.152391
642.80 4.119546
642.90 4.097892
643.00 4.082435
643.10 4.065762
643.20 4.045655
643.30 4.026002
643.40 4.016431
643.50 4.026233
643.60 4.051087
643.70 4.081325
643.80 4.110727
643.90 4.132356
644.00 4.142625
644.10 4.146158
644.20 4.148752
644.30 4.155695
644.40 4.173974
644.50 4.206475
644.60 4.253029
644.70 4.312153
644.80 4.374024
644.90 4.425288
645.00 4.459062
645.10 4.472599
645.20 4.470984
645.30 4.464586
645.40 4.459565
645.50 4.455464
645.60 4.446164
645.70 4.428199
645.80 4.406068
645.90 4.390641
646.00 4.387902
646.10 4.396701
646.20 4.413882
646.30 4.434464
646.40 4.454934
646.50 4.475135
646.60 4.490826
646.70 4.492088
646.80 4.47304
646.90 4.439625
647.00 4.403741
647.10 4.374654
647.20 4.360116
647.30 4.363202
647.40 4.384913
647.50 4.424871
647.60 4.479775
647.70 4.54445
647.80 4.609455
647.90 4.665957
648.00 4.708709
648.10 4.737138
648.20 4.752034
648.30 4.752337
648.40 4.741385
648.50 4.727721
648.60 4.717504
648.70 4.713276
648.80 4.714928
648.90 4.721681
649.00 4.735649
649.10 4.760697
649.20 4.799332
649.30 4.847976
649.40 4.902809
649.50 4.966798
649.60 5.042471
649.70 5.125808
649.80 5.207327
649.90 5.275112
650.00 5.321174
650.10 5.340098
650.20 5.332711
650.30 5.311495
650.40 5.292019
650.50 5.286995
650.60 5.308649
650.70 5.361968
650.80 5.440368
650.90 5.53109
651.00 5.623423
651.10 5.713398
651.20 5.798428
651.30 5.876019
651.40 5.943722
651.50 6.004813
651.60 6.067189
651.70 6.134101
651.80 6.20346
651.90 6.271723
652.00 6.334751
652.10 6.393037
652.20 6.452734
652.30 6.520523
652.40 6.603069
652.50 6.705372
652.60 6.833279
652.70 6.991244
652.80 7.173075
652.90 7.361035
653.00 7.533211
653.10 7.66911
653.20 7.757457
653.30 7.806778
653.40 7.835148
653.50 7.857121
653.60 7.886059
653.70 7.93238
653.80 7.998794
653.90 8.077501
654.00 8.152607
654.10 8.206885
654.20 8.23521
654.30 8.242941
654.40 8.23269
654.50 8.204335
654.60 8.160685
654.70 8.10225
654.80 8.032198
654.90 7.954038
655.00 7.864604
655.10 7.776495
655.20 7.710798
655.30 7.682172
655.40 7.704158
655.50 7.77775
655.60 7.893872
655.70 8.055669
655.80 8.28012
655.90 8.580778
656.00 8.954591
656.10 9.36279
656.20 9.730495
656.30 9.995782
656.40 10.12139
656.50 10.07469
656.60 9.852291
656.70 9.488731
656.80 9.03615
656.90 8.562646
657.00 8.138063
657.10 7.806128
657.20 7.570772
657.30 7.410486
657.40 7.29204
657.50 7.186562
657.60 7.084824
657.70 6.980667
657.80 6.876094
657.90 6.781673
658.00 6.698299
658.10 6.624319
658.20 6.562719
658.30 6.5196
658.40 6.498696
658.50 6.499002
658.60 6.521196
658.70 6.5647
658.80 6.621095
658.90 6.680027
659.00 6.737594
659.10 6.79403
659.20 6.850366
659.30 6.90862
659.40 6.974752
659.50 7.05561
659.60 7.150268
659.70 7.249756
659.80 7.341608
659.90 7.411879
660.00 7.450563
660.10 7.456569
660.20 7.433326
660.30 7.388763
660.40 7.336873
660.50 7.289523
660.60 7.254663
660.70 7.241797
660.80 7.255828
660.90 7.290715
661.00 7.339196
661.10 7.397841
661.20 7.461864
661.30 7.519846
661.40 7.557918
661.50 7.565138
661.60 7.545758
661.70 7.51641
661.80 7.487376
661.90 7.464424
662.00 7.446832
662.10 7.423522
662.20 7.384861
662.30 7.329402
662.40 7.256762
662.50 7.167701
662.60 7.071834
662.70 6.991586
662.80 6.951363
662.90 6.963236
663.00 7.023351
663.10 7.116443
663.20 7.223076
663.30 7.325046
663.40 7.410849
663.50 7.473384
663.60 7.503694
663.70 7.495725
663.80 7.455717
663.90 7.400578
664.00 7.349099
664.10 7.315866
664.20 7.312206
664.30 7.345125
664.40 7.411216
664.50 7.495185
664.60 7.573284
664.70 7.618432
664.80 7.606234
664.90 7.529506
665.00 7.404302
665.10 7.259666
665.20 7.127921
665.30 7.03306
665.40 6.986977
665.50 6.990912
665.60 7.032109
665.70 7.089448
665.80 7.14114
665.90 7.172462
666.00 7.179837
666.10 7.171791
666.20 7.164441
666.30 7.169781
666.40 7.193875
666.50 7.238493
666.60 7.298318
666.70 7.365516
666.80 7.429441
666.90 7.47713
667.00 7.49953
667.10 7.498449
667.20 7.490046
667.30 7.492208
667.40 7.517572
667.50 7.568643
667.60 7.637502
667.70 7.70851
667.80 7.763624
667.90 7.789331
668.00 7.778872
668.10 7.73184
668.20 7.653241
668.30 7.557041
668.40 7.462646
668.50 7.382015
668.60 7.316499
668.70 7.267386
668.80 7.23617
668.90 7.220821
669.00 7.216106
669.10 7.219358
669.20 7.230738
669.30 7.24883
669.40 7.271098
669.50 7.291412
669.60 7.301871
669.70 7.300179
669.80 7.294125
669.90 7.299837
670.00 7.329101
670.10 7.38001
670.20 7.448523
670.30 7.53028
670.40 7.617115
670.50 7.702686
670.60 7.778323
670.70 7.835038
670.80 7.873566
670.90 7.906732
671.00 7.949378
671.10 8.001113
671.20 8.047202
671.30 8.071174
671.40 8.06099
671.50 8.013341
671.60 7.927478
671.70 7.81054
671.80 7.682571
671.90 7.560742
672.00 7.46126
672.10 7.400726
672.20 7.38317
672.30 7.396555
672.40 7.423875
672.50 7.453684
672.60 7.479201
672.70 7.494021
672.80 7.495955
672.90 7.489417
673.00 7.481017
673.10 7.477806
673.20 7.486674
673.30 7.514576
673.40 7.55997
673.50 7.612903
673.60 7.664748
673.70 7.71187
673.80 7.75541
673.90 7.801086
674.00 7.856433
674.10 7.926507
674.20 8.009276
674.30 8.092257
674.40 8.163635
674.50 8.217323
674.60 8.250244
674.70 8.26446
674.80 8.267051
674.90 8.263592
675.00 8.251634
675.10 8.229743
675.20 8.202999
675.30 8.174716
675.40 8.14534
675.50 8.115333
675.60 8.091263
675.70 8.088321
675.80 8.11592
675.90 8.169176
676.00 8.235199
676.10 8.302147
676.20 8.363794
676.30 8.418993
676.40 8.472499
676.50 8.526754
676.60 8.57856
676.70 8.623974
676.80 8.658056
676.90 8.673771
677.00 8.666608
677.10 8.640844
677.20 8.611268
677.30 8.59496
677.40 8.602035
677.50 8.634123
677.60 8.684859
677.70 8.74063
677.80 8.78088
677.90 8.784997
678.00 8.738392
678.10 8.636532
678.20 8.488465
678.30 8.316314
678.40 8.145301
678.50 7.994555
678.60 7.870585
678.70 7.779412
678.80 7.733928
678.90 7.735543
679.00 7.775739
679.10 7.844622
679.20 7.932923
679.30 8.030476
679.40 8.122833
679.50 8.196258
679.60 8.241201
679.70 8.25598
679.80 8.247017
679.90 8.223409
680.00 8.204424
680.10 8.20616
680.20 8.22669
680.30 8.261169
680.40 8.301067
680.50 8.332802
680.60 8.345646
680.70 8.335467
680.80 8.306425
680.90 8.266252
681.00 8.224266
681.10 8.191355
681.20 8.175549
681.30 8.177087
681.40 8.187932
681.50 8.199574
681.60 8.208606
681.70 8.211597
681.80 8.210236
681.90 8.213015
682.00 8.227025
682.10 8.258959
682.20 8.315364
682.30 8.399109
682.40 8.504316
682.50 8.612596
682.60 8.701182
682.70 8.755191
682.80 8.767698
682.90 8.738965
683.00 8.673776
683.10 8.58213
683.20 8.475207
683.30 8.365663
683.40 8.270971
683.50 8.199408
683.60 8.150583
683.70 8.121
683.80 8.106298
683.90 8.10573
684.00 8.118611
684.10 8.140208
684.20 8.16188
684.30 8.172881
684.40 8.168898
684.50 8.150259
684.60 8.115612
684.70 8.063244
684.80 7.991223
684.90 7.909657
685.00 7.83805
685.10 7.791067
685.20 7.774266
685.30 7.784628
685.40 7.817809
685.50 7.867338
685.60 7.920965
685.70 7.970638
685.80 8.016311
685.90 8.066664
686.00 8.129799
686.10 8.206295
686.20 8.293785
686.30 8.382086
686.40 8.454077
686.50 8.498298
686.60 8.508644
686.70 8.481776
686.80 8.421372
686.90 8.332327
687.00 8.226137
687.10 8.119447
687.20 8.024505
687.30 7.946008
687.40 7.892182
687.50 7.868024
687.60 7.866235
687.70 7.877362
687.80 7.894721
687.90 7.913445
688.00 7.930914
688.10 7.945831
688.20 7.952493
688.30 7.953083
688.40 7.954065
688.50 7.950772
688.60 7.936964
688.70 7.916197
688.80 7.894429
688.90 7.877774
689.00 7.875342
689.10 7.891613
689.20 7.921077
689.30 7.951719
689.40 7.973793
689.50 7.984304
689.60 7.982705
689.70 7.964609
689.80 7.927727
689.90 7.879396
690.00 7.829736
690.10 7.786601
690.20 7.757726
690.30 7.751231
690.40 7.77393
690.50 7.831487
690.60 7.924859
690.70 8.052242
690.80 8.208023
690.90 8.372135
691.00 8.523042
691.10 8.652671
691.20 8.752436
691.30 8.807976
691.40 8.806208
691.50 8.734397
691.60 8.594273
691.70 8.413512
691.80 8.232348
691.90 8.087221
692.00 8.01165
692.10 8.030029
692.20 8.145431
692.30 8.344405
692.40 8.595321
692.50 8.846293
692.60 9.052947
692.70 9.197154
692.80 9.279045
692.90 9.314748
693.00 9.327887
693.10 9.340252
693.20 9.370327
693.30 9.427754
693.40 9.506902
693.50 9.587609
693.60 9.647791
693.70 9.674859
693.80 9.673754
693.90 9.671467
694.00 9.69788
694.10 9.771176
694.20 9.907243
694.30 10.11652
694.40 10.39188
694.50 10.71037
694.60 11.03788
694.70 11.33888
694.80 11.58324
694.90 11.74727
695.00 11.81844
695.10 11.79579
695.20 11.68807
695.30 11.51142
695.40 11.29195
695.50 11.06751
695.60 10.87395
695.70 10.73698
695.80 10.67153
695.90 10.67351
696.00 10.72986
696.10 10.82426
696.20 10.93526
696.30 11.04653
696.40 11.14942
696.50 11.24184
696.60 11.32136
696.70 11.38077
696.80 11.41069
696.90 11.40247
697.00 11.35851
697.10 11.28961
697.20 11.21361
697.30 11.16209
697.40 11.1594
697.50 11.21189
697.60 11.31857
697.70 11.46652
697.80 11.62916
697.90 11.77628
698.00 11.88241
698.10 11.93836
698.20 11.95533
698.30 11.95266
698.40 11.94605
698.50 11.95174
698.60 11.98183
698.70 12.02801
698.80 12.0738
698.90 12.11032
699.00 12.13078
699.10 12.12777
699.20 12.09248
699.30 12.0209
699.40 11.92492
699.50 11.82348
699.60 11.7302
699.70 11.65779
699.80 11.61734
699.90 11.61402
700.00 11.64986
700.10 11.72418
700.20 11.83609
700.30 11.98174
700.40 12.1501
700.50 12.32867
700.60 12.51275
700.70 12.69996
700.80 12.876
700.90 13.02152
701.00 13.1285
701.10 13.19857
701.20 13.2386
701.30 13.25676
701.40 13.26134
701.50 13.26978
701.60 13.29899
701.70 13.35391
701.80 13.43177
701.90 13.52646
702.00 13.6285
702.10 13.72669
702.20 13.81511
702.30 13.89883
702.40 13.99023
702.50 14.10474
702.60 14.25437
702.70 14.44325
702.80 14.66837
702.90 14.9121
703.00 15.14624
703.10 15.35421
703.20 15.53631
703.30 15.6998
703.40 15.85134
703.50 15.99695
703.60 16.1483
703.70 16.3108
703.80 16.47763
703.90 16.63843
704.00 16.78624
704.10 16.91064
704.20 17.00043
704.30 17.05868
704.40 17.09669
704.50 17.12179
704.60 17.14173
704.70 17.16247
704.80 17.18648
704.90 17.20602
705.00 17.1831
705.10 17.06451
705.20 16.8024
705.30 16.36557
705.40 15.7551
705.50 15.01181
705.60 14.20209
705.70 13.39509
705.80 12.65907
705.90 12.05156
706.00 11.59593
706.10 11.28451
706.20 11.08653
706.30 10.96253
706.40 10.88999
706.50 10.86277
706.60 10.88367
706.70 10.95773
706.80 11.07944
706.90 11.23251
707.00 11.39866
707.10 11.56403
707.20 11.7131
707.30 11.83133
707.40 11.9189
707.50 11.98506
707.60 12.04217
707.70 12.10088
707.80 12.16879
707.90 12.25007
708.00 12.34188
708.10 12.43459
708.20 12.51245
708.30 12.55474
708.40 12.54096
708.50 12.4542
708.60 12.2964
708.70 12.0856
708.80 11.84039
708.90 11.58515
709.00 11.34696
709.10 11.15121
709.20 11.01226
709.30 10.93105
709.40 10.89613
709.50 10.88799
709.60 10.88994
709.70 10.8943
709.80 10.89817
709.90 10.90606
710.00 10.92541
710.10 10.95831
710.20 11.0068
710.30 11.07282
710.40 11.16254
710.50 11.2818
710.60 11.43038
710.70 11.59948
710.80 11.77595
710.90 11.93986
711.00 12.06588
711.10 12.13896
711.20 12.15842
711.30 12.13105
711.40 12.06972
711.50 11.99859
711.60 11.94653
711.70 11.9349
711.80 11.9716
711.90 12.05194
712.00 12.15944
712.10 12.26488
712.20 12.33276
712.30 12.33837
712.40 12.27683
712.50 12.15164
712.60 11.97078
712.70 11.75838
712.80 11.54717
712.90 11.36952
713.00 11.24743
713.10 11.18362
713.20 11.16853
713.30 11.18299
713.40 11.20471
713.50 11.21688
713.60 11.21291
713.70 11.19531
713.80 11.16844
713.90 11.13995
714.00 11.12314
714.10 11.12579
714.20 11.1473
714.30 11.17978
714.40 11.2191
714.50 11.26768
714.60 11.32436
714.70 11.38527
714.80 11.4439
714.90 11.49568
715.00 11.54045
715.10 11.57898
715.20 11.61878
715.30 11.67181
715.40 11.74139
715.50 11.82013
715.60 11.89684
715.70 11.96022
715.80 11.99374
715.90 11.9869
716.00 11.94251
716.10 11.8782
716.20 11.82082
716.30 11.79206
716.40 11.80459
716.50 11.86011
716.60 11.9442
716.70 12.03362
716.80 12.10956
716.90 12.164
717.00 12.20183
717.10 12.23596
717.20 12.28305
717.30 12.35422
717.40 12.44868
717.50 12.55395
717.60 12.65499
717.70 12.74248
717.80 12.81591
717.90 12.884
718.00 12.95873
718.10 13.0505
718.20 13.16447
718.30 13.29757
718.40 13.44014
718.50 13.57974
718.60 13.70265
718.70 13.79958
718.80 13.87029
718.90 13.91897
719.00 13.95469
719.10 13.98933
719.20 14.02492
719.30 14.05074
719.40 14.05264
719.50 14.02477
719.60 13.97069
719.70 13.8971
719.80 13.80731
719.90 13.70322
720.00 13.59761
720.10 13.50905
720.20 13.45006
720.30 13.42711
720.40 13.43548
720.50 13.46015
720.60 13.48756
720.70 13.5139
720.80 13.54547
720.90 13.58833
721.00 13.64375
721.10 13.71035
721.20 13.78478
721.30 13.86553
721.40 13.94665
721.50 14.01349
721.60 14.05803
721.70 14.08295
721.80 14.1003
721.90 14.12904
722.00 14.18579
722.10 14.28173
722.20 14.42222
722.30 14.59863
722.40 14.79132
722.50 14.97965
722.60 15.14604
722.70 15.27938
722.80 15.37115
722.90 15.42737
723.00 15.46938
723.10 15.52103
723.20 15.60114
723.30 15.71519
723.40 15.86699
723.50 16.06185
723.60 16.27922
723.70 16.47788
723.80 16.63027
723.90 16.73308
724.00 16.79442
724.10 16.82362
724.20 16.84031
724.30 16.87411
724.40 16.94811
724.50 17.06566
724.60 17.21672
724.70 17.39589
724.80 17.58901
724.90 17.76336
725.00 17.90102
725.10 18.01218
725.20 18.10819
725.30 18.19194
725.40 18.26821
725.50 18.33992
725.60 18.40911
725.70 18.47417
725.80 18.53349
725.90 18.59844
726.00 18.68103
726.10 18.78397
726.20 18.90698
726.30 19.0501
726.40 19.20565
726.50 19.35203
726.60 19.46444
726.70 19.52627
726.80 19.53392
726.90 19.50747
727.00 19.49452
727.10 19.53252
727.20 19.62698
727.30 19.76432
727.40 19.91526
727.50 20.04444
727.60 20.11957
727.70 20.12317
727.80 20.06762
727.90 19.99043
728.00 19.93403
728.10 19.9351
728.20 20.02751
728.30 20.21453
728.40 20.44437
728.50 20.66234
728.60 20.83885
728.70 20.95711
728.80 21.01978
728.90 21.04528
729.00 21.06971
729.10 21.13291
729.20 21.25329
729.30 21.43381
729.40 21.67516
729.50 21.96018
729.60 22.24348
729.70 22.48812
729.80 22.68557
729.90 22.84165
730.00 22.96753
730.10 23.08429
730.20 23.22149
730.30 23.4012
730.40 23.62607
730.50 23.88252
730.60 24.15037
730.70 24.40535
730.80 24.62674
730.90 24.82072
731.00 25.01941
731.10 25.24655
731.20 25.4954
731.30 25.75183
731.40 26.02204
731.50 26.31009
731.60 26.60313
731.70 26.88381
731.80 27.13663
731.90 27.34983
732.00 27.52272
732.10 27.66659
732.20 27.78702
732.30 27.87817
732.40 27.93185
732.50 27.93451
732.60 27.87813
732.70 27.76702
732.80 27.60816
732.90 27.41534
733.00 27.22127
733.10 27.07471
733.20 27.01995
733.30 27.08985
733.40 27.30601
733.50 27.67649
733.60 28.18758
733.70 28.79028
733.80 29.41166
733.90 29.98384
734.00 30.45249
734.10 30.75773
734.20 30.84437
734.30 30.70074
734.40 30.36317
734.50 29.90094
734.60 29.40443
734.70 28.96221
734.80 28.63458
734.90 28.43811
735.00 28.35383
735.10 28.34039
735.20 28.34342
735.30 28.3197
735.40 28.25853
735.50 28.18137
735.60 28.12393
735.70 28.11814
735.80 28.18372
735.90 28.32987
736.00 28.55673
736.10 28.8567
736.20 29.21949
736.30 29.63164
736.40 30.06998
736.50 30.50281
736.60 30.89928
736.70 31.23859
736.80 31.50875
736.90 31.69651
737.00 31.78093
737.10 31.73721
737.20 31.55562
737.30 31.25368
737.40 30.87287
737.50 30.46707
737.60 30.08608
737.70 29.76614
737.80 29.53253
737.90 29.40304
738.00 29.38083
738.10 29.44407
738.20 29.54942
738.30 29.66004
738.40 29.76848
738.50 29.89501
738.60 30.0686
738.70 30.30274
738.80 30.57392
738.90 30.82198
739.00 30.97403
739.10 30.97055
739.20 30.78673
739.30 30.43825
739.40 29.97863
739.50 29.49565
739.60 29.08554
739.70 28.81268
739.80 28.70889
739.90 28.77197
740.00 28.95667
740.10 29.1837
740.20 29.35882
740.30 29.41477
740.40 29.33339
740.50 29.14242
740.60 28.90533
740.70 28.69541
740.80 28.57265
740.90 28.56495
741.00 28.66818
741.10 28.86683
741.20 29.12088
741.30 29.35794
741.40 29.49324
741.50 29.46014
741.60 29.25031
741.70 28.90706
741.80 28.4948
741.90 28.08173
742.00 27.73055
742.10 27.49594
742.20 27.4026
742.30 27.44013
742.40 27.58102
742.50 27.78138
742.60 27.98873
742.70 28.16946
742.80 28.31803
742.90 28.43964
743.00 28.52909
743.10 28.563
743.20 28.52466
743.30 28.41914
743.40 28.26001
743.50 28.06354
743.60 27.86739
743.70 27.71712
743.80 27.63052
743.90 27.60061
744.00 27.603
744.10 27.59452
744.20 27.52495
744.30 27.35948
744.40 27.10354
744.50 26.80901
744.60 26.53945
744.70 26.34861
744.80 26.28037
744.90 26.35477
745.00 26.54889
745.10 26.80605
745.20 27.06114
745.30 27.26142
745.40 27.37733
745.50 27.39861
745.60 27.33475
745.70 27.21778
745.80 27.08863
745.90 26.98886
746.00 26.96117
746.10 27.03095
746.20 27.19548
746.30 27.42997
746.40 27.69508
746.50 27.95271
746.60 28.17518
746.70 28.34109
746.80 28.43832
746.90 28.47003
747.00 28.44753
747.10 28.37998
747.20 28.28296
747.30 28.17789
747.40 28.07466
747.50 27.97493
747.60 27.87943
747.70 27.79925
747.80 27.76359
747.90 27.79833
748.00 27.91574
748.10 28.10796
748.20 28.34944
748.30 28.61436
748.40 28.87742
748.50 29.11961
748.60 29.32775
748.70 29.48871
748.80 29.59235
748.90 29.63479
749.00 29.6188
749.10 29.54148
749.20 29.39988
749.30 29.20819
749.40 29.00153
749.50 28.83457
749.60 28.75865
749.70 28.79902
749.80 28.95504
749.90 29.19845
750.00 29.47271
750.10 29.71003
750.20 29.85945
750.30 29.90033
750.40 29.84922
750.50 29.76124
750.60 29.7007
750.70 29.71265
750.80 29.81186
750.90 29.97872
751.00 30.16503
751.10 30.32058
751.20 30.41738
751.30 30.44541
751.40 30.40898
751.50 30.32721
751.60 30.22751
751.70 30.14158
751.80 30.09688
751.90 30.11149
752.00 30.18409
752.10 30.29391
752.20 30.41148
752.30 30.50731
752.40 30.56487
752.50 30.57938
752.60 30.55957
752.70 30.53051
752.80 30.52563
752.90 30.56648
753.00 30.65117
753.10 30.76884
753.20 30.90318
753.30 31.02968
753.40 31.13907
753.50 31.24881
753.60 31.38717
753.70 31.57772
753.80 31.83914
753.90 32.17747
754.00 32.57349
754.10 32.98357
754.20 33.34628
754.30 33.60672
754.40 33.73749
754.50 33.73366
754.60 33.61028
754.70 33.40423
754.80 33.1623
754.90 32.92731
755.00 32.73859
755.10 32.62971
755.20 32.61257
755.30 32.67527
755.40 32.78835
755.50 32.92252
755.60 33.061
755.70 33.1934
755.80 33.31892
755.90 33.44144
756.00 33.55849
756.10 33.6561
756.20 33.71116
756.30 33.70228
756.40 33.6184
756.50 33.46917
756.60 33.28795
756.70 33.11587
756.80 32.9904
756.90 32.94821
757.00 33.01046
757.10 33.1575
757.20 33.33947
757.30 33.50461
757.40 33.60931
757.50 33.63135
757.60 33.58824
757.70 33.52839
757.80 33.50808
757.90 33.56797
758.00 33.71704
758.10 33.93027
758.20 34.14936
758.30 34.28082
758.40 34.21265
758.50 33.85667
758.60 33.16164
758.70 32.11981
758.80 30.78592
758.90 29.27137
759.00 27.71472
759.10 26.26189
759.20 25.04161
759.30 24.11805
759.40 23.4749
759.50 23.07954
759.60 22.90442
759.70 22.86818
759.80 22.87736
759.90 22.91394
760.00 22.98459
760.10 23.06328
760.20 23.13608
760.30 23.20812
760.40 23.28016
760.50 23.34739
760.60 23.40241
760.70 23.4567
760.80 23.54641
760.90 23.68295
761.00 23.85066
761.10 24.06596
761.20 24.34784
761.30 24.65408
761.40 24.94077
761.50 25.21344
761.60 25.47143
761.70 25.69254
761.80 25.8499
761.90 25.91036
762.00 25.85201
762.10 25.66483
762.20 25.34748
762.30 24.90897
762.40 24.35904
762.50 23.70182
762.60 22.94857
762.70 22.13086
762.80 21.29774
762.90 20.50761
763.00 19.81149
763.10 19.24079
763.20 18.80299
763.30 18.48639
763.40 18.26109
763.50 18.09103
763.60 17.94519
763.70 17.7933
763.80 17.60674
763.90 17.37237
764.00 17.09705
764.10 16.80562
764.20 16.52631
764.30 16.26908
764.40 16.03117
764.50 15.80665
764.60 15.5871
764.70 15.3563
764.80 15.08935
764.90 14.76
765.00 14.34487
765.10 13.83626
765.20 13.25226
765.30 12.63978
765.40 12.05664
765.50 11.52961
765.60 11.05487
765.70 10.6264
765.80 10.22916
765.90 9.821529
766.00 9.360442
766.10 8.827165
766.20 8.224323
766.30 7.581939
766.40 6.961027
766.50 6.432292
766.60 6.056762
766.70 5.871757
766.80 5.889267
766.90 6.107687
767.00 6.508384
767.10 7.039807
767.20 7.635928
767.30 8.245835
767.40 8.83055
767.50 9.364379
767.60 9.836701
767.70 10.2466
767.80 10.60487
767.90 10.92625
768.00 11.22745
768.10 11.51972
768.20 11.80174
768.30 12.05888
768.40 12.26286
768.50 12.38823
768.60 12.42303
768.70 12.37664
768.80 12.26697
768.90 12.10199
769.00 11.88296
769.10 11.60838
769.20 11.26831
769.30 10.85235
769.40 10.35374
769.50 9.771619
769.60 9.119684
769.70 8.44067
769.80 7.807619
769.90 7.300613
770.00 6.985277
770.10 6.897222
770.20 7.041691
770.30 7.402
770.40 7.944555
770.50 8.616363
770.60 9.363568
770.70 10.13824
770.80 10.88617
770.90 11.57343
771.00 12.19957
771.10 12.77586
771.20 13.3021
771.30 13.76591
771.40 14.15719
771.50 14.48316
771.60 14.76925
771.70 15.03698
771.80 15.30117
771.90 15.56765
772.00 15.83075
772.10 16.09547
772.20 16.38966
772.30 16.73664
772.40 17.13744
772.50 17.57814
772.60 18.04638
772.70 18.52982
772.80 19.01062
772.90 19.46003
773.00 19.84868
773.10 20.16921
773.20 20.43186
773.30 20.66578
773.40 20.90477
773.50 21.16305
773.60 21.43786
773.70 21.72106
773.80 21.9944
773.90 22.22485
774.00 22.37585
774.10 22.42481
774.20 22.36407
774.30 22.20849
774.40 22.00104
774.50 21.79895
774.60 21.65402
774.70 21.58633
774.80 21.58602
774.90 21.64158
775.00 21.73863
775.10 21.83811
775.20 21.89587
775.30 21.89656
775.40 21.855
775.50 21.80371
775.60 21.77178
775.70 21.76858
775.80 21.78689
775.90 21.81149
776.00 21.83058
776.10 21.84593
776.20 21.86344
776.30 21.87774
776.40 21.8886
776.50 21.92214
776.60 22.02376
776.70 22.22938
776.80 22.54749
776.90 22.95698
777.00 23.42428
777.10 23.91274
777.20 24.37071
777.30 24.73481
777.40 24.95073
777.50 25.00307
777.60 24.91407
777.70 24.72651
777.80 24.49428
777.90 24.26488
778.00 24.0623
778.10 23.88286
778.20 23.71095
778.30 23.5344
778.40 23.35026
778.50 23.16501
778.60 22.99886
778.70 22.89031
778.80 22.88564
778.90 23.01695
779.00 23.28192
779.10 23.64149
779.20 24.02921
779.30 24.36971
779.40 24.58366
779.50 24.58831
779.60 24.31318
779.70 23.73748
779.80 22.91967
779.90 21.9986
780.00 21.16354
780.10 20.60126
780.20 20.45228
780.30 20.79361
780.40 21.61686
780.50 22.80331
780.60 24.16483
780.70 25.49612
780.80 26.61698
780.90 27.42898
781.00 27.94064
781.10 28.23055
781.20 28.40702
781.30 28.56348
781.40 28.74861
781.50 28.97864
781.60 29.24084
781.70 29.4731
781.80 29.59257
781.90 29.57176
782.00 29.42738
782.10 29.1864
782.20 28.88609
782.30 28.5573
782.40 28.2171
782.50 27.87119
782.60 27.51628
782.70 27.15574
782.80 26.80668
782.90 26.48716
783.00 26.21668
783.10 26.02928
783.20 25.97993
783.30 26.09331
783.40 26.33961
783.50 26.67937
783.60 27.07853
783.70 27.49975
783.80 27.89762
783.90 28.24814
784.00 28.55173
784.10 28.81676
784.20 29.06377
784.30 29.31379
784.40 29.5686
784.50 29.80748
784.60 29.99741
784.70 30.12216
784.80 30.18877
784.90 30.18381
785.00 30.08039
785.10 29.88864
785.20 29.66415
785.30 29.47835
785.40 29.38755
785.50 29.42011
785.60 29.57157
785.70 29.80676
785.80 30.07726
785.90 30.33767
786.00 30.54858
786.10 30.66797
786.20 30.66121
786.30 30.53035
786.40 30.31515
786.50 30.06444
786.60 29.82338
786.70 29.61213
786.80 29.42409
786.90 29.25324
787.00 29.0925
787.10 28.94031
787.20 28.80939
787.30 28.7181
787.40 28.68357
787.50 28.72814
787.60 28.87468
787.70 29.13184
787.80 29.48471
787.90 29.90181
788.00 30.33756
788.10 30.74475
788.20 31.09515
788.30 31.3696
788.40 31.57791
788.50 31.75634
788.60 31.91992
788.70 32.07156
788.80 32.22472
788.90 32.38621
789.00 32.54598
789.10 32.68059
789.20 32.76125
789.30 32.75118
789.40 32.61136
789.50 32.31994
789.60 31.88728
789.70 31.35841
789.80 30.79141
789.90 30.25353
790.00 29.83668
790.10 29.62645
790.20 29.64974
790.30 29.86646
790.40 30.18601
790.50 30.49814
790.60 30.70576
790.70 30.75365
790.80 30.64153
790.90 30.40242
791.00 30.09724
791.10 29.81377
791.20 29.63998
791.30 29.62165
791.40 29.74543
791.50 29.94968
791.60 30.15441
791.70 30.29654
791.80 30.35097
791.90 30.33791
792.00 30.29202
792.10 30.23118
792.20 30.1644
792.30 30.11458
792.40 30.10271
792.50 30.13462
792.60 30.20681
792.70 30.31834
792.80 30.47312
792.90 30.6834
793.00 30.97965
793.10 31.3805
793.20 31.86111
793.30 32.35275
793.40 32.77303
793.50 33.05026
793.60 33.1287
793.70 32.98199
793.80 32.62195
793.90 32.09427
794.00 31.46222
794.10 30.79102
794.20 30.13884
794.30 29.52359
794.40 28.90584
794.50 28.23445
794.60 27.50689
794.70 26.78256
794.80 26.17015
794.90 25.80636
795.00 25.81137
795.10 26.24595
795.20 27.09133
795.30 28.24564
795.40 29.5469
795.50 30.80651
795.60 31.84387
795.70 32.54958
795.80 32.91472
795.90 33.00754
796.00 32.92444
796.10 32.75585
796.20 32.58876
796.30 32.503
796.40 32.5537
796.50 32.75546
796.60 33.08958
796.70 33.52222
796.80 34.00123
796.90 34.46379
797.00 34.85691
797.10 35.13349
797.20 35.24925
797.30 35.18194
797.40 34.95795
797.50 34.64106
797.60 34.28424
797.70 33.93044
797.80 33.62385
797.90 33.38883
798.00 33.21663
798.10 33.06876
798.20 32.89969
798.30 32.6768
798.40 32.3906
798.50 32.06134
798.60 31.74702
798.70 31.52597
798.80 31.45275
798.90 31.54708
799.00 31.79458
799.10 32.13551
799.20 32.49104
799.30 32.80101
799.40 33.03712
799.50 33.20099
799.60 33.31523
799.70 33.41085
799.80 33.5176
799.90 33.66332
800.00 33.8666
800.10 34.12252
800.20 34.41407
800.30 34.71644
800.40 35.01379
800.50 35.31217
800.60 35.61302
800.70 35.91646
800.80 36.23341
800.90 36.57691
801.00 36.95275
801.10 37.35635
801.20 37.78018
801.30 38.20978
801.40 38.61916
801.50 38.98376
801.60 39.27989
801.70 39.49548
801.80 39.64356
801.90 39.75033
802.00 39.86119
802.10 40.01826
802.20 40.24156
802.30 40.55342
802.40 40.97434
802.50 41.50601
802.60 42.1239
802.70 42.77513
802.80 43.38973
802.90 43.90902
803.00 44.29966
803.10 44.5498
803.20 44.66018
803.30 44.64518
803.40 44.52616
803.50 44.3428
803.60 44.15141
803.70 43.99256
803.80 43.88675
803.90 43.84583
804.00 43.88376
804.10 44.01379
804.20 44.23939
804.30 44.54409
804.40 44.89267
804.50 45.25832
804.60 45.64942
804.70 46.09386
804.80 46.61876
804.90 47.24431
805.00 47.97569
805.10 48.78205
805.20 49.60296
805.30 50.38172
805.40 51.06872
805.50 51.63521
805.60 52.08291
805.70 52.43177
805.80 52.7218
805.90 52.99274
806.00 53.25273
806.10 53.48814
806.20 53.67898
806.30 53.80803
806.40 53.86239
806.50 53.84926
806.60 53.80768
806.70 53.78643
806.80 53.82245
806.90 53.9321
807.00 54.12569
807.10 54.4176
807.20 54.814
807.30 55.30697
807.40 55.87686
807.50 56.50031
807.60 57.15431
807.70 57.81038
807.80 58.43904
807.90 59.02817
808.00 59.58338
808.10 60.11381
808.20 60.6231
808.30 61.10609
808.40 61.53786
808.50 61.87268
808.60 62.07972
808.70 62.17205
808.80 62.19724
808.90 62.20956
809.00 62.25242
809.10 62.35199
809.20 62.52008
809.30 62.73563
809.40 62.93807
809.50 63.06289
809.60 63.0759
809.70 62.98348
809.80 62.83831
809.90 62.72102
810.00 62.69428
810.10 62.77697
810.20 62.95113
810.30 63.19954
810.40 63.52816
810.50 63.94119
810.60 64.42068
810.70 64.93989
810.80 65.47887
810.90 66.02788
811.00 66.57292
811.10 67.07902
811.20 67.49264
811.30 67.77324
811.40 67.93266
811.50 68.04245
811.60 68.19743
811.70 68.46839
811.80 68.87772
811.90 69.41493
812.00 70.04521
812.10 70.7119
812.20 71.36639
812.30 71.97026
812.40 72.50224
812.50 72.97857
812.60 73.43721
812.70 73.91662
812.80 74.42
812.90 74.91454
813.00 75.37104
813.10 75.77252
813.20 76.11478
813.30 76.41988
813.40 76.73863
813.50 77.1199
813.60 77.56686
813.70 78.03103
813.80 78.42638
813.90 78.63497
814.00 78.55882
814.10 78.17621
814.20 77.54432
814.30 76.76524
814.40 75.95111
814.50 75.20519
814.60 74.6108
814.70 74.21514
814.80 74.02375
814.90 74.02063
815.00 74.1798
815.10 74.46782
815.20 74.85239
815.30 75.31942
815.40 75.85608
815.50 76.41607
815.60 76.93116
815.70 77.3491
815.80 77.66634
815.90 77.91958
816.00 78.16821
816.10 78.48021
816.20 78.90739
816.30 79.46705
816.40 80.14219
816.50 80.90819
816.60 81.74128
816.70 82.6058
816.80 83.4464
816.90 84.20826
817.00 84.85975
817.10 85.3841
817.20 85.75548
817.30 85.9344
817.40 85.86764
817.50 85.49414
817.60 84.74596
817.70 83.546
817.80 81.8144
817.90 79.47328
818.00 76.52085
818.10 73.10492
818.20 69.54315
818.30 66.27191
818.40 63.7337
818.50 62.25748
818.60 61.97241
818.70 62.77173
818.80 64.30571
818.90 66.03472
819.00 67.35173
819.10 67.74776
819.20 66.95429
819.30 65.04944
819.40 62.42848
819.50 59.65327
819.60 57.29606
819.70 55.81605
819.80 55.487
819.90 56.36709
820.00 58.30127
820.10 60.95233
820.20 63.88434
820.30 66.66208
820.40 68.95224
820.50 70.58272
820.60 71.56285
820.70 72.02593
820.80 72.14609
820.90 72.11886
821.00 72.12204
821.10 72.27197
821.20 72.6122
821.30 73.11038
821.40 73.68067
821.50 74.23528
821.60 74.72305
821.70 75.14722
821.80 75.55197
821.90 75.99753
822.00 76.52142
822.10 77.12218
822.20 77.77176
822.30 78.43351
822.40 79.08688
822.50 79.72693
822.60 80.35616
822.70 80.97653
822.80 81.57501
822.90 82.12035
823.00 82.58045
823.10 82.92217
823.20 83.12286
823.30 83.19216
823.40 83.17667
823.50 83.14938
823.60 83.19683
823.70 83.39506
823.80 83.78433
823.90 84.36179
824.00 85.07373
824.10 85.83344
824.20 86.55705
824.30 87.18176
824.40 87.66799
824.50 88.01622
824.60 88.23973
824.70 88.3189
824.80 88.21136
824.90 87.87092
825.00 87.26695
825.10 86.4111
825.20 85.35811
825.30 84.19441
825.40 83.04782
825.50 82.0817
825.60 81.45625
825.70 81.27886
825.80 81.5627
825.90 82.22124
826.00 83.11077
826.10 84.08055
826.20 84.99844
826.30 85.76454
826.40 86.30497
826.50 86.55833
826.60 86.49984
826.70 86.15596
826.80 85.57926
826.90 84.839
827.00 84.0189
827.10 83.21481
827.20 82.54119
827.30 82.11677
827.40 82.02261
827.50 82.26877
827.60 82.78053
827.70 83.41581
827.80 83.99921
827.90 84.36167
828.00 84.37949
828.10 84.01005
828.20 83.30467
828.30 82.3826
828.40 81.38119
828.50 80.39697
828.60 79.46991
828.70 78.57264
828.80 77.65848
828.90 76.72202
829.00 75.7959
829.10 74.93862
829.20 74.23066
829.30 73.75267
829.40 73.52944
829.50 73.50828
829.60 73.59204
829.70 73.66046
829.80 73.58685
829.90 73.29726
830.00 72.79128
830.10 72.14169
830.20 71.46362
830.30 70.85367
830.40 70.37809
830.50 70.08101
830.60 69.98966
830.70 70.09803
830.80 70.37418
830.90 70.77611
831.00 71.24009
831.10 71.7058
831.20 72.14964
831.30 72.57628
831.40 73.01153
831.50 73.50374
831.60 74.09843
831.70 74.81803
831.80 75.65907
831.90 76.59468
832.00 77.55384
832.10 78.43922
832.20 79.15225
832.30 79.60064
832.40 79.72873
832.50 79.5323
832.60 79.07535
832.70 78.49585
832.80 77.9599
832.90 77.59931
833.00 77.46653
833.10 77.53067
833.20 77.71418
833.30 77.90523
833.40 77.99646
833.50 77.9299
833.60 77.73287
833.70 77.51416
833.80 77.40677
833.90 77.51784
834.00 77.8644
834.10 78.35697
834.20 78.86318
834.30 79.26647
834.40 79.50882
834.50 79.59981
834.60 79.57666
834.70 79.48946
834.80 79.39695
834.90 79.34138
835.00 79.30562
835.10 79.2385
835.20 79.10754
835.30 78.90203
835.40 78.6482
835.50 78.4144
835.60 78.27989
835.70 78.29385
835.80 78.4527
835.90 78.71654
836.00 79.03639
836.10 79.35464
836.20 79.61235
836.30 79.7881
836.40 79.93156
836.50 80.13271
836.60 80.46012
836.70 80.92247
836.80 81.46762
836.90 81.99572
837.00 82.35717
837.10 82.39804
837.20 82.03582
837.30 81.29399
837.40 80.29036
837.50 79.21781
837.60 78.32974
837.70 77.87099
837.80 77.95091
837.90 78.48581
838.00 79.26743
838.10 80.07303
838.20 80.69026
838.30 80.91229
838.40 80.61398
838.50 79.79374
838.60 78.56698
838.70 77.14035
838.80 75.75514
838.90 74.63434
839.00 73.9055
839.10 73.57169
839.20 73.60971
839.30 74.01522
839.40 74.78852
839.50 75.88336
839.60 77.17281
839.70 78.53825
839.80 79.90775
839.90 81.22471
840.00 82.3992
840.10 83.31103
840.20 83.88394
840.30 84.11736
840.40 84.09017
840.50 83.93507
840.60 83.7696
840.70 83.6679
840.80 83.63076
840.90 83.64251
841.00 83.78706
841.10 84.16065
841.20 84.76487
841.30 85.5085
841.40 86.26426
841.50 86.89888
841.60 87.25341
841.70 87.18763
841.80 86.63015
841.90 85.62168
842.00 84.32323
842.10 82.97044
842.20 81.82819
842.30 81.09874
842.40 80.84341
842.50 81.01448
842.60 81.50076
842.70 82.12318
842.80 82.63003
842.90 82.78441
843.00 82.42233
843.10 81.39911
843.20 79.63592
843.30 77.19731
843.40 74.29369
843.50 71.26299
843.60 68.47722
843.70 66.23388
843.80 64.67776
843.90 63.75496
844.00 63.24922
844.10 62.88543
844.20 62.44264
844.30 61.77484
844.40 60.82561
844.50 59.69826
844.60 58.60741
844.70 57.74934
844.80 57.20914
844.90 56.91907
845.00 56.71348
845.10 56.40688
845.20 55.85636
845.30 55.01232
845.40 53.93189
845.50 52.76632
845.60 51.69682
845.70 50.8801
845.80 50.43148
845.90 50.38724
846.00 50.68856
846.10 51.20146
846.20 51.7643
846.30 52.23931
846.40 52.55022
846.50 52.68175
846.60 52.65663
846.70 52.52941
846.80 52.34283
846.90 52.11697
847.00 51.88166
847.10 51.66958
847.20 51.50269
847.30 51.40122
847.40 51.37514
847.50 51.41903
847.60 51.52955
847.70 51.69399
847.80 51.86164
847.90 51.97258
848.00 52.01565
848.10 52.0203
848.20 52.03374
848.30 52.11888
848.40 52.32649
848.50 52.67859
848.60 53.18224
848.70 53.84111
848.80 54.65406
848.90 55.57382
849.00 56.50402
849.10 57.35195
849.20 58.04918
849.30 58.54214
849.40 58.76994
849.50 58.69366
849.60 58.34949
849.70 57.83517
849.80 57.28615
849.90 56.88083
850.00 56.76361
850.10 56.93006
850.20 57.23793
850.30 57.53405
850.40 57.71478
850.50 57.70696
850.60 57.47602
850.70 57.04708
850.80 56.5173
850.90 56.02805
851.00 55.70194
851.10 55.58319
851.20 55.63083
851.30 55.70466
851.40 55.62239
851.50 55.27393
851.60 54.62797
851.70 53.68179
851.80 52.46918
851.90 51.10184
852.00 49.77134
852.10 48.7172
852.20 48.14326
852.30 48.14833
852.40 48.72598
852.50 49.79735
852.60 51.22249
852.70 52.8158
852.80 54.37928
852.90 55.75479
853.00 56.86362
853.10 57.71415
853.20 58.37857
853.30 58.94215
853.40 59.44966
853.50 59.88327
853.60 60.22369
853.70 60.50196
853.80 60.7672
853.90 61.04251
854.00 61.32316
854.10 61.60681
854.20 61.92768
854.30 62.3349
854.40 62.85286
854.50 63.47393
854.60 64.17841
854.70 64.93459
854.80 65.70369
854.90 66.44557
855.00 67.11366
855.10 67.65646
855.20 68.03051
855.30 68.2322
855.40 68.30066
855.50 68.27797
855.60 68.15992
855.70 67.91396
855.80 67.53881
855.90 67.08324
856.00 66.61509
856.10 66.2074
856.20 65.93671
856.30 65.87417
856.40 66.06022
856.50 66.46633
856.60 67.00794
856.70 67.57183
856.80 68.0369
856.90 68.31228
857.00 68.37636
857.10 68.26993
857.20 68.05886
857.30 67.81351
857.40 67.6054
857.50 67.49801
857.60 67.53666
857.70 67.72783
857.80 68.01428
857.90 68.31866
858.00 68.59088
858.10 68.80652
858.20 68.96697
858.30 69.10581
858.40 69.28065
858.50 69.5377
858.60 69.88616
858.70 70.29549
858.80 70.69322
858.90 70.99754
859.00 71.15074
859.10 71.13835
859.20 71.0162
859.30 70.88192
859.40 70.83139
859.50 70.93132
859.60 71.19339
859.70 71.58284
859.80 72.03833
859.90 72.49007
860.00 72.87488
860.10 73.16167
860.20 73.35964
860.30 73.49082
860.40 73.57519
860.50 73.61803
860.60 73.59018
860.70 73.43466
860.80 73.07068
860.90 72.42585
861.00 71.49328
861.10 70.31737
861.20 68.95406
861.30 67.47436
861.40 65.97249
861.50 64.54699
861.60 63.29341
861.70 62.2917
861.80 61.58429
861.90 61.15851
862.00 60.93968
862.10 60.82172
862.20 60.71482
862.30 60.54811
862.40 60.25758
862.50 59.79485
862.60 59.14675
862.70 58.36026
862.80 57.5365
862.90 56.78362
863.00 56.18008
863.10 55.7854
863.20 55.63353
863.30 55.73356
863.40 56.08064
863.50 56.63706
863.60 57.32372
863.70 58.04958
863.80 58.73746
863.90 59.3419
864.00 59.85293
864.10 60.26364
864.20 60.55814
864.30 60.74038
864.40 60.83774
864.50 60.87606
864.60 60.88496
864.70 60.90659
864.80 60.99788
864.90 61.23528
865.00 61.69071
865.10 62.39456
865.20 63.32065
865.30 64.3812
865.40 65.45768
865.50 66.44399
865.60 67.26923
865.70 67.89526
865.80 68.3067
865.90 68.51656
866.00 68.56039
866.10 68.48739
866.20 68.36287
866.30 68.25059
866.40 68.18249
866.50 68.14251
866.60 68.06587
866.70 67.90705
866.80 67.65485
866.90 67.31556
867.00 66.93121
867.10 66.58264
867.20 66.3782
867.30 66.42862
867.40 66.81466
867.50 67.54047
867.60 68.50685
867.70 69.5251
867.80 70.38114
867.90 70.91584
868.00 71.07313
868.10 70.884
868.20 70.45768
868.30 69.93701
868.40 69.43998
868.50 69.02969
868.60 68.70157
868.70 68.38084
868.80 67.93748
868.90 67.23846
869.00 66.18233
869.10 64.73466
869.20 62.94891
869.30 60.96301
869.40 58.98085
869.50 57.21331
869.60 55.81523
869.70 54.87775
869.80 54.42659
869.90 54.42547
870.00 54.78723
870.10 55.39557
870.20 56.13389
870.30 56.89807
870.40 57.60517
870.50 58.1804
870.60 58.56108
870.70 58.70219
870.80 58.5715
870.90 58.1596
871.00 57.48953
871.10 56.63818
871.20 55.73182
871.30 54.90783
871.40 54.28185
871.50 53.91977
871.60 53.82413
871.70 53.95201
871.80 54.2489
871.90 54.66398
872.00 55.14642
872.10 55.66545
872.20 56.22103
872.30 56.84606
872.40 57.61307
872.50 58.58046
872.60 59.74455
872.70 61.02669
872.80 62.29045
872.90 63.38784
873.00 64.19618
873.10 64.63438
873.20 64.67085
873.30 64.35058
873.40 63.79883
873.50 63.18344
873.60 62.6732
873.70 62.40014
873.80 62.42842
873.90 62.77962
874.00 63.45437
874.10 64.4244
874.20 65.62325
874.30 66.92039
874.40 68.12434
874.50 69.04756
874.60 69.56801
874.70 69.65154
874.80 69.3709
874.90 68.88528
875.00 68.40643
875.10 68.13969
875.20 68.21053
875.30 68.65212
875.40 69.43607
875.50 70.51098
875.60 71.83082
875.70 73.33253
875.80 74.92833
875.90 76.4582
876.00 77.68775
876.10 78.42555
876.20 78.5869
876.30 78.18569
876.40 77.29936
876.50 76.09445
876.60 74.87182
876.70 73.99614
876.80 73.75823
876.90 74.31419
877.00 75.66335
877.10 77.70163
877.20 80.26723
877.30 83.12468
877.40 85.95865
877.50 88.3883
877.60 90.02198
877.70 90.57697
877.80 89.98066
877.90 88.38973
878.00 86.13922
878.10 83.64772
878.20 81.36541
878.30 79.67354
878.40 78.77619
878.50 78.67214
878.60 79.19279
878.70 80.11288
878.80 81.24653
878.90 82.44613
879.00 83.56991
879.10 84.52183
879.20 85.32356
879.30 86.04858
879.40 86.73557
879.50 87.3702
879.60 87.84234
879.70 87.97086
879.80 87.5813
879.90 86.55723
880.00 84.89696
880.10 82.74609
880.20 80.35355
880.30 78.01952
880.40 76.06565
880.50 74.77308
880.60 74.3045
880.70 74.70631
880.80 75.92348
880.90 77.81487
881.00 80.23031
881.10 83.04567
881.20 86.14591
881.30 89.40103
881.40 92.63601
881.50 95.6386
881.60 98.17933
881.70 100.053
881.80 101.1327
881.90 101.3611
882.00 100.7924
882.10 99.61138
882.20 98.04569
882.30 96.336
882.40 94.7063
882.50 93.33411
882.60 92.36157
882.70 91.87598
882.80 91.8701
882.90 92.2412
883.00 92.88201
883.10 93.74666
883.20 94.81686
883.30 96.05658
883.40 97.38725
883.50 98.71764
883.60 100.0091
883.70 101.2684
883.80 102.4782
883.90 103.5532
884.00 104.3275
884.10 104.582
884.20 104.1313
884.30 102.8848
884.40 100.8699
884.50 98.2345
884.60 95.30412
884.70 92.59497
884.80 90.6584
884.90 89.93342
885.00 90.62247
885.10 92.601
885.20 95.44805
885.30 98.52822
885.40 101.1313
885.50 102.663
885.60 102.7557
885.70 101.3038
885.80 98.47672
885.90 94.68741
886.00 90.51795
886.10 86.61234
886.20 83.5398
886.30 81.62008
886.40 80.86964
886.50 81.05986
886.60 81.78552
886.70 82.53239
886.80 82.7691
886.90 82.09442
887.00 80.36596
887.10 77.75361
887.20 74.69024
887.30 71.78358
887.40 69.65579
887.50 68.73655
887.60 69.16781
887.70 70.80731
887.80 73.28252
887.90 76.10151
888.00 78.78946
888.10 80.96472
888.20 82.36072
888.30 82.93276
888.40 82.89472
888.50 82.59805
888.60 82.35832
888.70 82.37035
888.80 82.70034
888.90 83.28437
889.00 83.95207
889.10 84.46318
889.20 84.57175
889.30 84.08566
889.40 82.93259
889.50 81.26365
889.60 79.49177
889.70 78.10482
889.80 77.50702
889.90 77.96523
890.00 79.57642
890.10 82.20722
890.20 85.47877
890.30 88.88019
890.40 91.87402
890.50 94.00468
890.60 94.9972
890.70 94.80675
890.80 93.62276
890.90 91.8296
891.00 89.89799
891.10 88.26985
891.20 87.26678
891.30 87.07202
891.40 87.76807
891.50 89.33494
891.60 91.59527
891.70 94.25131
891.80 96.92024
891.90 99.18685
892.00 100.7104
892.10 101.2646
892.20 100.7874
892.30 99.38834
892.40 97.33342
892.50 94.99617
892.60 92.79677
892.70 91.15624
892.80 90.40716
892.90 90.72273
893.00 92.09909
893.10 94.31241
893.20 96.95728
893.30 99.51594
893.40 101.4502
893.50 102.3425
893.60 101.9638
893.70 100.334
893.80 97.7048
893.90 94.4451
894.00 90.95615
894.10 87.63806
894.20 84.84143
894.30 82.79677
894.40 81.61324
894.50 81.28491
894.60 81.70807
894.70 82.7164
894.80 84.08679
894.90 85.58915
895.00 87.03536
895.10 88.31229
895.20 89.45333
895.30 90.65423
895.40 92.15812
895.50 94.09246
895.60 96.3787
895.70 98.78907
895.80 101.0052
895.90 102.6642
896.00 103.4762
896.10 103.3084
896.20 102.2203
896.30 100.4543
896.40 98.37308
896.50 96.35206
896.60 94.67874
896.70 93.53148
896.80 92.98531
896.90 93.03674
897.00 93.64167
897.10 94.69962
897.20 96.08183
897.30 97.68521
897.40 99.40104
897.50 101.1057
897.60 102.6646
897.70 103.9304
897.80 104.7852
897.90 105.2047
898.00 105.2925
898.10 105.2665
898.20 105.4345
898.30 106.106
898.40 107.4482
898.50 109.3903
898.60 111.6121
898.70 113.621
898.80 114.9435
898.90 115.317
899.00 114.7227
899.10 113.3368
899.20 111.4629
899.30 109.4262
899.40 107.5435
899.50 106.0987
899.60 105.2178
899.70 104.819
899.80 104.8086
899.90 105.246
900.00 103.5864
900.10 102.6182
900.20 103.0538
900.30 104.4019
900.40 107.6628
900.50 113.0455
900.60 115.7746
900.70 116.6147
900.80 117.181
900.90 118.2519
901.00 115.4908
901.10 112.6262
901.20 108.9708
901.30 108.1596
901.40 108.9442
901.50 110.1311
901.60 110.6634
901.70 113.6152
901.80 116.7275
901.90 118.4646
902.00 117.666
902.10 115.8444
902.20 113.0038
902.30 109.6173
902.40 104.2745
902.50 99.30572
902.60 95.56291
902.70 91.02709
902.80 87.27014
902.90 86.59977
903.00 87.73689
903.10 90.33013
903.20 93.56531
903.30 97.96896
903.40 104.7154
903.50 111.9784
903.60 117.1837
903.70 121.175
903.80 125.0672
903.90 128.3977
904.00 128.534
904.10 126.7884
904.20 123.8327
904.30 120.879
904.40 118.0204
904.50 115.2336
904.60 113.1262
904.70 113.8087
904.80 114.1492
904.90 115.66
905.00 116.5164
905.10 116.1758
905.20 114.7094
905.30 113.2684
905.40 109.3327
905.50 106.8894
905.60 105.6721
905.70 105.7445
905.80 106.7123
905.90 107.2321
906.00 106.603
906.10 105.8032
906.20 104.1814
906.30 101.1163
906.40 99.97979
906.50 100.1552
906.60 101.6342
906.70 103.2521
906.80 104.6768
906.90 106.1508
907.00 107.2579
907.10 105.0202
907.20 102.3633
907.30 102.4201
907.40 104.4365
907.50 107.7762
907.60 111.173
907.70 115.2046
907.80 119.1884
907.90 123.293
908.00 124.8498
908.10 124.8466
908.20 123.8691
908.30 123.0401
908.40 121.4541
908.50 119.7329
908.60 117.543
908.70 115.0976
908.80 113.1581
908.90 113.0359
909.00 114.0974
909.10 115.5555
909.20 117.02
909.30 118.5047
909.40 119.9247
909.50 121.5011
909.60 122.269
909.70 122.4055
909.80 123.5633
909.90 125.2016
910.00 124.9977
910.10 124.7783
910.20 124.6019
910.30 124.4004
910.40 124.0454
910.50 123.0462
910.60 121.5096
910.70 120.6291
910.80 122.6442
910.90 123.3815
911.00 123.163
911.10 123.65
911.20 125.1989
911.30 125.6365
911.40 127.4327
911.50 126.9247
911.60 125.9747
911.70 128.8035
911.80 132.394
911.90 134.298
912.00 135.1698
912.10 136.7544
912.20 139.2609
912.30 142.4231
912.40 144.361
912.50 144.6151
912.60 143.414
912.70 142.2978
912.80 139.9481
912.90 135.7428
913.00 132.827
913.10 131.6489
913.20 132.0643
913.30 134.3655
913.40 137.0399
913.50 139.2647
913.60 140.7713
913.70 141.7494
913.80 140.9966
913.90 137.527
914.00 132.8165
914.10 128.2533
914.20 123.1882
914.30 118.023
914.40 116.913
914.50 118.5058
914.60 122.2925
914.70 126.1539
914.80 128.5017
914.90 129.2207
915.00 130.5104
915.10 130.8907
915.20 130.3634
915.30 130.7968
915.40 133.2957
915.50 137.0395
915.60 142.3183
915.70 148.1509
915.80 154.0137
915.90 157.138
916.00 157.9439
916.10 155.0156
916.20 150.3425
916.30 144.8103
916.40 139.6961
916.50 136.2599
916.60 137.0918
916.70 140.0783
916.80 144.0951
916.90 148.708
917.00 151.5221
917.10 152.724
917.20 152.685
917.30 151.5413
917.40 149.2101
917.50 146.5546
917.60 142.4266
917.70 139.4378
917.80 138.1663
917.90 138.6544
918.00 139.1869
918.10 140.3294
918.20 141.3122
918.30 142.8917
918.40 143.497
918.50 143.1634
918.60 142.9785
918.70 144.0751
918.80 146.2127
918.90 149.1417
919.00 154.9176
919.10 161.2874
919.20 166.9608
919.30 169.7811
919.40 169.9507
919.50 166.3751
919.60 162.4849
919.70 156.2244
919.80 152.794
919.90 152.2005
920.00 154.4018
920.10 157.4161
920.20 161.0704
920.30 163.4719
920.40 165.6039
920.50 165.3887
920.60 162.8535
920.70 158.9687
920.80 154.4594
920.90 148.0953
921.00 141.189
921.10 136.1636
921.20 133.561
921.30 132.4092
921.40 133.5065
921.50 136.0004
921.60 139.8153
921.70 143.5839
921.80 146.8949
921.90 149.6533
922.00 151.7765
922.10 152.1678
922.20 151.1915
922.30 149.0904
922.40 147.228
922.50 146.1938
922.60 144.5486
922.70 143.7089
922.80 143.048
922.90 141.8924
923.00 139.4653
923.10 136.1079
923.20 132.5057
923.30 131.4569
923.40 130.9895
923.50 131.2111
923.60 132.4277
923.70 134.0932
923.80 135.4689
923.90 136.4793
924.00 137.5747
924.10 140.1734
924.20 143.9675
924.30 149.08
924.40 152.5765
924.50 154.886
924.60 155.5171
924.70 154.0921
924.80 148.302
924.90 143.8741
925.00 138.3975
925.10 133.9513
925.20 130.5
925.30 129.0932
925.40 129.524
925.50 132.8338
925.60 136.1679
925.70 140.5322
925.80 144.4951
925.90 148.6339
926.00 150.4631
926.10 149.3321
926.20 145.9263
926.30 144.9192
926.40 143.5099
926.50 144.5553
926.60 145.9355
926.70 146.894
926.80 148.3365
926.90 150.5631
927.00 149.6764
927.10 147.5097
927.20 146.0541
927.30 143.9091
927.40 142.2248
927.50 140.297
927.60 137.0453
927.70 133.5106
927.80 130.6659
927.90 127.7353
928.00 125.426
928.10 124.7788
928.20 125.285
928.30 127.6757
928.40 131.1987
928.50 134.5177
928.60 136.1804
928.70 136.9095
928.80 135.0098
928.90 131.919
929.00 129.3849
929.10 128.2929
929.20 128.8313
929.30 130.6272
929.40 134.2069
929.50 136.5208
929.60 137.8204
929.70 138.4268
929.80 138.4545
929.90 137.4766
930.00 137.5723
930.10 138.1158
930.20 136.3836
930.30 134.5535
930.40 132.5277
930.50 130.5123
930.60 128.676
930.70 127.3961
930.80 126.6349
930.90 126.6958
931.00 128.2376
931.10 131.2442
931.20 134.4762
931.30 137.3798
931.40 141.4552
931.50 144.8477
931.60 144.8569
931.70 144.9223
931.80 144.1381
931.90 144.5185
932.00 145.0364
932.10 146.1734
932.20 146.1806
932.30 146.3202
932.40 145.3732
932.50 142.7949
932.60 140.6154
932.70 140.5547
932.80 141.0469
932.90 140.7325
933.00 141.8252
933.10 142.8525
933.20 142.5765
933.30 141.1813
933.40 139.474
933.50 137.3719
933.60 135.3573
933.70 134.2576
933.80 134.4741
933.90 134.7925
934.00 136.2079
934.10 138.7216
934.20 141.2274
934.30 143.0017
934.40 143.9164
934.50 144.8645
934.60 146.0143
934.70 147.2232
934.80 147.8753
934.90 148.3123
935.00 148.5839
935.10 146.3016
935.20 143.1888
935.30 140.0837
935.40 136.2452
935.50 131.8652
935.60 128.8957
935.70 128.8158
935.80 129.0439
935.90 132.3028
936.00 138.1142
936.10 143.8669
936.20 148.7897
936.30 152.9227
936.40 156.5282
936.50 157.7128
936.60 158.1328
936.70 155.9644
936.80 152.1642
936.90 148.3668
937.00 145.0898
937.10 143.0141
937.20 141.1677
937.30 140.3967
937.40 140.1208
937.50 140.6572
937.60 141.2818
937.70 141.8284
937.80 141.6997
937.90 140.438
938.00 139.3084
938.10 139.2497
938.20 139.9222
938.30 140.4725
938.40 140.8668
938.50 141.2504
938.60 142.0376
938.70 141.7528
938.80 141.4455
938.90 141.6936
939.00 143.3897
939.10 145.4036
939.20 148.0358
939.30 150.6452
939.40 152.9324
939.50 154.5682
939.60 156.1129
939.70 155.5573
939.80 152.3668
939.90 148.8886
940.00 144.7457
940.10 141.6134
940.20 139.0509
940.30 138.7535
940.40 139.2196
940.50 141.9336
940.60 146.0613
940.70 150.2229
940.80 153.6677
940.90 154.521
941.00 155.1436
941.10 155.5742
941.20 156.2693
941.30 155.6918
941.40 154.7284
941.50 153.8654
941.60 153.3287
941.70 152.7593
941.80 152.0755
941.90 150.2479
942.00 147.4051
942.10 145.1833
942.20 145.1172
942.30 145.7681
942.40 146.9417
942.50 147.6794
942.60 148.4054
942.70 150.182
942.80 153.8469
942.90 157.3831
943.00 160.4848
943.10 163.438
943.20 166.0461
943.30 168.3827
943.40 170.7066
943.50 172.9039
943.60 171.2732
943.70 169.3377
943.80 166.4876
943.90 164.4437
944.00 162.1288
944.10 159.6707
944.20 157.3026
944.30 155.2435
944.40 153.5944
944.50 151.9998
944.60 151.1068
944.70 149.7519
944.80 148.8358
944.90 149.7011
945.00 151.3825
945.10 152.9503
945.20 155.2945
945.30 157.851
945.40 159.95
945.50 160.715
945.60 161.0426
945.70 158.9628
945.80 156.1765
945.90 153.9808
946.00 151.8208
946.10 149.3213
946.20 147.9489
946.30 148.1736
946.40 148.5535
946.50 151.1469
946.60 155.1173
946.70 158.5861
946.80 160.9979
946.90 163.3725
947.00 164.9713
947.10 165.3256
947.20 165.4809
947.30 165.7771
947.40 166.4259
947.50 167.1919
947.60 168.096
947.70 168.3838
947.80 169.0744
947.90 169.9225
948.00 170.6204
948.10 170.621
948.20 171.0906
948.30 171.5892
948.40 172.3238
948.50 174.911
948.60 177.2547
948.70 179.0928
948.80 180.899
948.90 183.7146
949.00 185.5223
949.10 186.9234
949.20 186.9868
949.30 184.4387
949.40 181.7952
949.50 179.4478
949.60 178.253
949.70 177.2142
949.80 176.878
949.90 176.8328
950.00 177.3748
950.10 178.5312
950.20 179.6835
950.30 180.0201
950.40 179.3123
950.50 178.462
950.60 178.4317
950.70 179.4434
950.80 181.9231
950.90 183.7062
951.00 185.1086
951.10 185.7094
951.20 187.0141
951.30 187.9956
951.40 186.8853
951.50 184.2838
951.60 180.9462
951.70 177.1771
951.80 173.5649
951.90 170.6121
952.00 168.9059
952.10 167.43
952.20 168.9185
952.30 173.6363
952.40 178.9187
952.50 184.9991
952.60 190.8896
952.70 196.4218
952.80 197.4518
952.90 197.4711
953.00 195.6804
953.10 192.6943
953.20 189.3712
953.30 185.6731
953.40 183.2047
953.50 181.1429
953.60 181.5099
953.70 182.8883
953.80 184.0136
953.90 182.8122
954.00 181.588
954.10 181.1568
954.20 180.9466
954.30 180.735
954.40 181.2726
954.50 182.4767
954.60 183.9129
954.70 186.8722
954.80 190.1408
954.90 192.4284
955.00 192.4996
955.10 192.4968
955.20 191.4962
955.30 189.3324
955.40 188.3243
955.50 188.36
955.60 188.4239
955.70 188.6545
955.80 189.5337
955.90 190.38
956.00 190.9291
956.10 191.8294
956.20 192.1668
956.30 192.1255
956.40 192.465
956.50 192.6131
956.60 192.4553
956.70 192.2557
956.80 192.3524
956.90 192.322
957.00 192.4397
957.10 192.8657
957.20 193.1588
957.30 193.33
957.40 193.3315
957.50 193.3014
957.60 192.1587
957.70 190.0046
957.80 187.8543
957.90 185.862
958.00 184.0863
958.10 182.7854
958.20 182.2234
958.30 181.7439
958.40 181.9374
958.50 181.4519
958.60 180.7916
958.70 179.312
958.80 178.1651
958.90 176.2371
959.00 172.1945
959.10 167.7646
959.20 163.9068
959.30 161.843
959.40 160.3221
959.50 160.5811
959.60 161.1217
959.70 161.502
959.80 161.2867
959.90 161.5068
960.00 160.9939
960.10 159.8138
960.20 158.7679
960.30 159.243
960.40 159.8109
960.50 160.4539
960.60 164.1203
960.70 167.0751
960.80 169.7649
960.90 171.2095
961.00 171.7897
961.10 170.8123
961.20 169.6927
961.30 168.8585
961.40 166.7688
961.50 166.6258
961.60 166.7903
961.70 168.3498
961.80 170.2599
961.90 173.083
962.00 176.0546
962.10 178.5134
962.20 181.059
962.30 182.2078
962.40 183.0414
962.50 181.7596
962.60 180.3734
962.70 178.9721
962.80 177.9224
962.90 177.2826
963.00 176.5119
963.10 176.6687
963.20 177.1236
963.30 177.3096
963.40 175.5023
963.50 173.1518
963.60 168.5796
963.70 163.257
963.80 157.6663
963.90 152.3996
964.00 147.4545
964.10 143.7806
964.20 142.9045
964.30 142.5965
964.40 145.4496
964.50 147.3855
964.60 149.9566
964.70 154.0069
964.80 158.5632
964.90 161.8141
965.00 163.3932
965.10 164.701
965.20 164.4148
965.30 164.1205
965.40 163.6785
965.50 163.0195
965.60 162.6579
965.70 162.7022
965.80 164.5924
965.90 167.235
966.00 171.0897
966.10 172.8857
966.20 174.7437
966.30 177.5432
966.40 180.2793
966.50 182.585
966.60 184.2437
966.70 185.8374
966.80 185.9068
966.90 186.036
967.00 186.3072
967.10 186.9127
967.20 184.892
967.30 182.7075
967.40 180.5494
967.50 178.9306
967.60 176.9181
967.70 176.1837
967.80 176.0785
967.90 175.9241
968.00 176.1355
968.10 176.7124
968.20 178.59
968.30 179.8364
968.40 180.7495
968.50 180.4474
968.60 179.5269
968.70 178.3961
968.80 177.939
968.90 177.607
969.00 177.6549
969.10 178.466
969.20 179.6641
969.30 181.8602
969.40 184.3979
969.50 187.2034
969.60 189.5701
969.70 191.732
969.80 193.2952
969.90 194.3177
970.00 195.0173
970.10 194.3866
970.20 193.2502
970.30 191.724
970.40 189.5541
970.50 187.2102
970.60 184.2111
970.70 182.4748
970.80 181.0273
970.90 181.2055
971.00 183.0669
971.10 185.9843
971.20 190.3768
971.30 194.6559
971.40 199.8708
971.50 203.5383
971.60 206.6827
971.70 207.9989
971.80 207.8668
971.90 207.2265
972.00 205.8306
972.10 205.3728
972.20 203.9594
972.30 202.4452
972.40 201.2504
972.50 200.1471
972.60 197.7508
972.70 195.3724
972.80 193.3309
972.90 190.9344
973.00 188.492
973.10 186.6467
973.20 185.3577
973.30 185.2818
973.40 185.7656
973.50 186.2976
973.60 187.2971
973.70 188.0426
973.80 188.7339
973.90 189.4894
974.00 190.4856
974.10 189.9319
974.20 188.0381
974.30 185.9849
974.40 184.4324
974.50 182.9978
974.60 181.6423
974.70 180.6921
974.80 180.0052
974.90 180.2416
975.00 181.9884
975.10 184.1432
975.20 186.8157
975.30 188.9816
975.40 190.9945
975.50 192.3457
975.60 193.7408
975.70 195.2344
975.80 196.7091
975.90 197.9726
976.00 198.1197
976.10 198.1287
976.20 198.26
976.30 199.2952
976.40 199.9477
976.50 200.6177
976.60 201.2656
976.70 201.7739
976.80 202.0945
976.90 201.8361
977.00 201.3349
977.10 198.8687
977.20 196.8403
977.30 195.0885
977.40 194.7802
977.50 195.2179
977.60 196.4238
977.70 197.9411
977.80 198.8433
977.90 199.7007
978.00 199.8085
978.10 199.6757
978.20 197.3112
978.30 194.8707
978.40 192.2619
978.50 189.7722
978.60 187.9971
978.70 186.6775
978.80 185.9809
978.90 185.4385
979.00 186.279
979.10 189.0557
979.20 192.2584
979.30 196.6537
979.40 200.3508
979.50 204.1089
979.60 207.095
979.70 209.4529
979.80 211.2267
979.90 212.5302
980.00 213.648
980.10 213.4005
980.20 213.1236
980.30 212.8746
980.40 212.8029
980.50 212.8924
980.60 211.9188
980.70 210.1968
980.80 208.3921
980.90 207.3332
981.00 206.615
981.10 206.0014
981.20 205.4076
981.30 204.2797
981.40 203.31
981.50 203.8089
981.60 205.0975
981.70 205.5743
981.80 205.4468
981.90 205.3139
982.00 205.2955
982.10 204.9696
982.20 204.5499
982.30 203.9773
982.40 203.3679
982.50 203.523
982.60 204.2631
982.70 205.1286
982.80 206.9492
982.90 207.3698
983.00 207.5493
983.10 207.2351
983.20 206.9145
983.30 205.4995
983.40 204.0867
983.50 202.9636
983.60 201.5053
983.70 200.6661
983.80 200.1706
983.90 200.981
984.00 202.1369
984.10 203.7284
984.20 205.3466
984.30 206.6816
984.40 207.2256
984.50 205.9797
984.60 204.5641
984.70 203.5715
984.80 201.8274
984.90 199.7222
985.00 198.2421
985.10 198.1313
985.20 197.6997
985.30 198.2932
985.40 199.2743
985.50 200.4514
985.60 201.0615
985.70 202.196
985.80 204.1631
985.90 205.2548
986.00 206.2758
986.10 207.7475
986.20 209.5003
986.30 210.9042
986.40 211.9116
986.50 212.8268
986.60 213.1843
986.70 212.6817
986.80 211.0421
986.90 209.0147
987.00 207.8126
987.10 208.0365
987.20 209.9759
987.30 212.3527
987.40 216.4852
987.50 218.2408
987.60 219.9641
987.70 220.6984
987.80 220.0921
987.90 216.5644
988.00 213.2114
988.10 210.5445
988.20 208.795
988.30 209.9141
988.40 211.7316
988.50 215.1353
988.60 217.3521
988.70 220.0195
988.80 221.916
988.90 223.0204
989.00 222.3565
989.10 219.732
989.20 216.5403
989.30 210.6635
989.40 202.8091
989.50 193.3075
989.60 181.6745
989.70 170.0035
989.80 157.5541
989.90 146.8106
990.00 136.7125
990.10 129.376
990.20 123.0446
990.30 117.2383
990.40 112.1978
990.50 106.6459
990.60 100.8053
990.70 95.87447
990.80 91.50339
990.90 88.15962
991.00 86.49315
991.10 85.36936
991.20 85.54073
991.30 84.58991
991.40 83.52674
991.50 82.59761
991.60 81.86645
991.70 81.39528
991.80 81.45759
991.90 81.74072
992.00 83.13672
992.10 84.53782
992.20 86.02139
992.30 87.16946
992.40 87.73953
992.50 87.17893
992.60 87.96027
992.70 89.38335
992.80 91.4231
992.90 93.8612
993.00 96.80681
993.10 100.4446
993.20 103.0836
993.30 105.5653
993.40 107.627
993.50 109.5035
993.60 111.1217
993.70 114.0583
993.80 117.2888
993.90 121.4275
994.00 125.88
994.10 130.0832
994.20 133.3725
994.30 136.0577
994.40 137.0297
994.50 137.0435
994.60 136.9927
994.70 137.5113
994.80 138.3805
994.90 139.6784
995.00 142.0392
995.10 144.9232
995.20 148.4164
995.30 150.9756
995.40 153.0364
995.50 152.2675
995.60 149.7121
995.70 146.8105
995.80 143.2002
995.90 140.1194
996.00 136.7774
996.10 135.4714
996.20 135.654
996.30 140.2165
996.40 145.5068
996.50 151.048
996.60 156.8574
996.70 158.7576
996.80 158.506
996.90 154.841
997.00 150.1485
997.10 140.9129
997.20 132.4428
997.30 124.6517
997.40 118.661
997.50 115.9612
997.60 115.1468
997.70 117.4718
997.80 119.4501
997.90 123.1166
998.00 126.8609
998.10 130.2327
998.20 132.205
998.30 132.2479
998.40 131.6747
998.50 129.6926
998.60 128.3176
998.70 127.0199
998.80 126.0547
998.90 125.2844
999.00 124.5887
999.10 124.5274
999.20 124.6291
999.30 124.8909
999.40 123.9924
999.50 122.615
999.60 121.9551
999.70 122.7642
999.80 124.817
999.90 128.2408
1000.00 132.0304
1000.10 137.3129
1000.20 142.2151
1000.30 147.8973
1000.40 153.6696
1000.50 157.0268
1000.60 158.5275
1000.70 158.3562
1000.80 157.8385
1000.90 152.8643
1001.00 148.1926
1001.10 143.513
1001.20 139.4408
1001.30 137.371
1001.40 137.4006
1001.50 139.5082
1001.60 141.8433
1001.70 146.2932
1001.80 150.2012
1001.90 153.6552
1002.00 155.1971
1002.10 156.353
1002.20 157.2607
1002.30 158.2136
1002.40 159.6079
1002.50 161.8334
1002.60 164.0953
1002.70 166.24
1002.80 167.5151
1002.90 166.9031
1003.00 165.7154
1003.10 163.5014
1003.20 161.4566
1003.30 158.5584
1003.40 155.2794
1003.50 152.0538
1003.60 148.972
1003.70 147.543
1003.80 146.3646
1003.90 145.9236
1004.00 146.1351
1004.10 148.6703
1004.20 153.9091
1004.30 159.7646
1004.40 166.9063
1004.50 171.5936
1004.60 175.3455
1004.70 176.0776
1004.80 174.1508
1004.90 169.8298
1005.00 161.7987
1005.10 152.9235
1005.20 142.1401
1005.30 133.1241
1005.40 125.0369
1005.50 118.9596
1005.60 114.7171
1005.70 112.1342
1005.80 113.1742
1005.90 114.7064
1006.00 117.9069
1006.10 121.8719
1006.20 125.7158
1006.30 128.1333
1006.40 132.1897
1006.50 136.4317
1006.60 140.8666
1006.70 145.1257
1006.80 150.2251
1006.90 155.0249
1007.00 158.9348
1007.10 161.3563
1007.20 162.6454
1007.30 163.4723
1007.40 162.5026
1007.50 163.0154
1007.60 164.0545
1007.70 166.4944
1007.80 169.8291
1007.90 174.2234
1008.00 177.6338
1008.10 180.5372
1008.20 182.7992
1008.30 183.2506
1008.40 183.8456
1008.50 184.4476
1008.60 184.5226
1008.70 183.4655
1008.80 181.8554
1008.90 180.2923
1009.00 175.7978
1009.10 172.0389
1009.20 168.2692
1009.30 164.7132
1009.40 162.7217
1009.50 162.8621
1009.60 166.34
1009.70 171.1669
1009.80 179.4695
1009.90 187.1842
1010.00 194.9045
1010.10 203.9679
1010.20 211.2693
1010.30 217.1242
1010.40 219.6558
1010.50 220.2224
1010.60 216.5021
1010.70 211.1359
1010.80 205.6179
1010.90 197.6831
1011.00 189.3568
1011.10 181.3154
1011.20 174.2031
1011.30 167.8216
1011.40 162.2452
1011.50 157.9721
1011.60 154.1773
1011.70 151.1096
1011.80 151.0129
1011.90 151.9063
1012.00 155.8246
1012.10 161.2642
1012.20 168.8378
1012.30 177.0798
1012.40 184.4038
1012.50 191.7842
1012.60 197.2818
1012.70 201.9365
1012.80 203.759
1012.90 204.9744
1013.00 205.2376
1013.10 203.2591
1013.20 199.9086
1013.30 194.7012
1013.40 187.8702
1013.50 180.5305
1013.60 170.3571
1013.70 163.2224
1013.80 156.5031
1013.90 152.1595
1014.00 150.9297
1014.10 153.5667
1014.20 157.1616
1014.30 160.1241
1014.40 165.5221
1014.50 168.3502
1014.60 170.189
1014.70 170.1922
1014.80 171.7615
1014.90 173.2089
1015.00 175.427
1015.10 178.3834
1015.20 182.7965
1015.30 184.6239
1015.40 185.7261
1015.50 185.2928
1015.60 182.9168
1015.70 178.5485
1015.80 172.6929
1015.90 167.8782
1016.00 163.7401
1016.10 162.2159
1016.20 161.7153
1016.30 164.1031
1016.40 165.8972
1016.50 168.4732
1016.60 171.9603
1016.70 174.6667
1016.80 176.5125
1016.90 177.517
1017.00 178.2968
1017.10 176.5851
1017.20 178.3067
1017.30 180.8935
1017.40 184.8506
1017.50 187.7284
1017.60 192.3216
1017.70 195.867
1017.80 197.6132
1017.90 196.0542
1018.00 192.6896
1018.10 188.1097
1018.20 179.4053
1018.30 172.8361
1018.40 166.3636
1018.50 161.1974
1018.60 157.4417
1018.70 157.3946
1018.80 158.6451
1018.90 160.2858
1019.00 164.8032
1019.10 168.3421
1019.20 171.8511
1019.30 174.9312
1019.40 177.3606
1019.50 177.752
1019.60 177.6516
1019.70 177.7601
1019.80 176.7157
1019.90 176.4026
1020.00 176.6922
1020.10 178.4267
1020.20 180.4078
1020.30 182.6903
1020.40 185.2448
1020.50 187.8529
1020.60 191.2371
1020.70 192.545
1020.80 193.3346
1020.90 193.0581
1021.00 191.7551
1021.10 189.2206
1021.20 185.3124
1021.30 181.1978
1021.40 174.6442
1021.50 168.1386
1021.60 161.9234
1021.70 156.7133
1021.80 152.3151
1021.90 148.3326
1022.00 145.968
1022.10 145.2363
1022.20 146.8074
1022.30 149.7784
1022.40 153.0202
1022.50 158.4235
1022.60 162.9056
1022.70 167.4313
1022.80 171.458
1022.90 173.988
1023.00 174.1787
1023.10 172.9568
1023.20 171.709
1023.30 169.5805
1023.40 169.4866
1023.50 170.3007
1023.60 173.5722
1023.70 177.6386
1023.80 182.1986
1023.90 186.934
1024.00 191.4245
1024.10 196.2276
1024.20 198.7123
1024.30 200.368
1024.40 200.2767
1024.50 199.5283
1024.60 197.982
1024.70 195.0578
1024.80 191.5542
1024.90 186.6913
1025.00 182.364
1025.10 178.4288
1025.20 174.2924
1025.30 171.252
1025.40 168.9277
1025.50 167.993
1025.60 167.3063
1025.70 166.9771
1025.80 165.1294
1025.90 162.2381
1026.00 157.6217
1026.10 152.865
1026.20 147.5623
1026.30 141.8667
1026.40 139.7518
1026.50 140.355
1026.60 143.9235
1026.70 148.3033
1026.80 157.3694
1026.90 165.2021
1027.00 172.4332
1027.10 178.1325
1027.20 180.9507
1027.30 181.3655
1027.40 179.5342
1027.50 178.1578
1027.60 174.702
1027.70 170.2484
1027.80 165.69
1027.90 161.6255
1028.00 157.0323
1028.10 152.6132
1028.20 149.1532
1028.30 146.9683
1028.40 145.6459
1028.50 146.8461
1028.60 149.2055
1028.70 155.3434
1028.80 160.9436
1028.90 166.9545
1029.00 173.1901
1029.10 177.1887
1029.20 179.1683
1029.30 179.6622
1029.40 180.0031
1029.50 177.7281
1029.60 175.5027
1029.70 173.4957
1029.80 172.1296
1029.90 170.9067
1030.00 169.9042
1030.10 169.512
1030.20 169.5787
1030.30 170.3715
1030.40 171.9612
1030.50 174.0056
1030.60 177.7909
1030.70 180.4433
1030.80 182.804
1030.90 184.5969
1031.00 186.1067
1031.10 186.1654
1031.20 185.4381
1031.30 184.5923
1031.40 183.8832
1031.50 183.0958
1031.60 182.0093
1031.70 180.4083
1031.80 178.8993
1031.90 176.7782
1032.00 174.245
1032.10 171.6567
1032.20 169.0915
1032.30 167.1649
1032.40 165.8314
1032.50 166.5888
1032.60 169.6203
1032.70 173.4018
1032.80 178.5785
1032.90 184.5293
1033.00 194.1622
1033.10 201.5748
1033.20 208.0831
1033.30 212.5719
1033.40 212.8508
1033.50 209.9113
1033.60 203.5272
1033.70 197.2009
1033.80 187.4225
1033.90 179.0746
1034.00 172.0409
1034.10 169.3787
1034.20 169.1344
1034.30 170.6625
1034.40 174.6141
1034.50 177.8887
1034.60 181.8869
1034.70 184.7433
1034.80 186.7831
1034.90 185.5558
1035.00 184.0364
1035.10 181.9984
1035.20 179.2548
1035.30 177.7551
1035.40 176.7347
1035.50 177.0473
1035.60 178.1667
1035.70 181.275
1035.80 184.6034
1035.90 188.3059
1036.00 193.1634
1036.10 197.2621
1036.20 201.567
1036.30 205.7335
1036.40 209.5378
1036.50 212.3933
1036.60 214.9701
1036.70 217.1675
1036.80 217.3374
1036.90 219.212
1037.00 221.9197
1037.10 225.3163
1037.20 228.1073
1037.30 232.2437
1037.40 234.1357
1037.50 234.6327
1037.60 231.6145
1037.70 225.5626
1037.80 216.9889
1037.90 205.0207
1038.00 195.4666
1038.10 186.1367
1038.20 179.4458
1038.30 174.4408
1038.40 176.0346
1038.50 177.4079
1038.60 179.8842
1038.70 184.7912
1038.80 187.7668
1038.90 189.2051
1039.00 189.6123
1039.10 190.0953
1039.20 188.2229
1039.30 187.4832
1039.40 187.1152
1039.50 187.0822
1039.60 187.6017
1039.70 189.135
1039.80 191.4438
1039.90 193.4367
1040.00 195.9929
1040.10 198.6941
1040.20 201.4604
1040.30 204.7431
1040.40 208.0995
1040.50 211.2538
1040.60 214.0264
1040.70 216.6085
1040.80 218.3229
1040.90 217.721
1041.00 215.968
1041.10 211.4518
1041.20 206.6675
1041.30 201.636
1041.40 196.969
1041.50 194.7035
1041.60 194.7048
1041.70 197.245
1041.80 200.7385
1041.90 208.0982
1042.00 212.5292
1042.10 215.663
1042.20 215.7905
1042.30 213.4654
1042.40 208.5432
1042.50 201.7183
1042.60 195.0427
1042.70 185.3558
1042.80 179.3118
1042.90 175.0861
1043.00 174.5929
1043.10 176.0723
1043.20 180.7561
1043.30 188.8037
1043.40 196.6901
1043.50 207.4559
1043.60 216.7074
1043.70 224.5681
1043.80 227.9689
1043.90 230.9002
1044.00 232.4015
1044.10 231.4989
1044.20 230.2404
1044.30 229.1467
1044.40 228.1634
1044.50 227.2013
1044.60 225.925
1044.70 225.5963
1044.80 225.3957
1044.90 225.9504
1045.00 228.4966
1045.10 233.6634
1045.20 240.2117
1045.30 246.5687
1045.40 255.2453
1045.50 260.3107
1045.60 263.8262
1045.70 264.0158
1045.80 262.0862
1045.90 256.3904
1046.00 248.1429
1046.10 240.6659
1046.20 231.7745
1046.30 223.0557
1046.40 214.7608
1046.50 208.0824
1046.60 201.0089
1046.70 194.7196
1046.80 190.0197
1046.90 186.4111
1047.00 182.9862
1047.10 181.1883
1047.20 180.2773
1047.30 181.3196
1047.40 181.6455
1047.50 182.6858
1047.60 184.6102
1047.70 185.8497
1047.80 187.0393
1047.90 188.9514
1048.00 191.36
1048.10 193.1111
1048.20 196.4151
1048.30 200.4232
1048.40 205.5323
1048.50 209.9557
1048.60 214.2473
1048.70 217.7076
1048.80 220.4783
1048.90 222.0444
1049.00 223.102
1049.10 223.97
1049.20 224.2228
1049.30 222.9628
1049.40 221.6311
1049.50 220.0647
1049.60 218.2806
1049.70 214.4953
1049.80 212.5391
1049.90 211.3533
1050.00 210.4585
1050.10 211.1721
1050.20 213.0224
1050.30 215.467
1050.40 216.4984
1050.50 217.0441
1050.60 216.0406
1050.70 214.2965
1050.80 211.7209
1050.90 208.5964
1051.00 205.2168
1051.10 201.45
1051.20 197.7293
1051.30 193.1873
1051.40 189.0818
1051.50 185.5482
1051.60 182.0006
1051.70 179.3448
1051.80 177.3177
1051.90 176.8333
1052.00 177.4412
1052.10 179.0096
1052.20 181.6223
1052.30 184.623
1052.40 188.4865
1052.50 192.8728
1052.60 198.0784
1052.70 205.5958
1052.80 211.4314
1052.90 216.2101
1053.00 219.5682
1053.10 222.3365
1053.20 222.2765
1053.30 221.7014
1053.40 221.042
1053.50 219.7036
1053.60 217.9841
1053.70 216.6263
1053.80 215.8572
1053.90 215.3605
1054.00 214.786
1054.10 213.9494
1054.20 213.034
1054.30 212.7888
1054.40 211.1327
1054.50 209.0865
1054.60 206.4974
1054.70 203.965
1054.80 200.0587
1054.90 197.3
1055.00 195.8406
1055.10 196.5696
1055.20 197.5841
1055.30 199.4352
1055.40 202.585
1055.50 202.8814
1055.60 201.4567
1055.70 198.3054
1055.80 194.5752
1055.90 187.8144
1056.00 182.6523
1056.10 178.2558
1056.20 175.0758
1056.30 173.3961
1056.40 172.9557
1056.50 173.7924
1056.60 174.8125
1056.70 177.1034
1056.80 179.0073
1056.90 180.6335
1057.00 182.0182
1057.10 183.2374
1057.20 184.7161
1057.30 186.8127
1057.40 189.4931
1057.50 192.0865
1057.60 194.4648
1057.70 196.7228
1057.80 198.7231
1057.90 200.3446
1058.00 201.7758
1058.10 202.6094
1058.20 202.5872
1058.30 202.269
1058.40 202.0165
1058.50 201.9186
1058.60 199.5126
1058.70 196.8987
1058.80 194.1143
1058.90 191.1723
1059.00 189.0051
1059.10 187.3186
1059.20 185.8582
1059.30 184.3169
1059.40 185.5738
1059.50 187.2195
1059.60 188.918
1059.70 190.6145
1059.80 191.5793
1059.90 191.9251
1060.00 191.5852
1060.10 191.0565
1060.20 189.3593
1060.30 187.3867
1060.40 185.4185
1060.50 183.5937
1060.60 181.9997
1060.70 180.4352
1060.80 179.2622
1060.90 178.7823
1061.00 177.9956
1061.10 177.7343
1061.20 178.036
1061.30 181.4027
1061.40 183.8391
1061.50 186.5182
1061.60 189.58
1061.70 192.4349
1061.80 193.5854
1061.90 194.0101
1062.00 194.4649
1062.10 192.1665
1062.20 191.0622
1062.30 190.6365
1062.40 191.4221
1062.50 192.4784
1062.60 196.1791
1062.70 201.1836
1062.80 205.8713
1062.90 211.8586
1063.00 216.3852
1063.10 219.5369
1063.20 219.5781
1063.30 220.3115
1063.40 219.5694
1063.50 218.1542
1063.60 217.5455
1063.70 217.9309
1063.80 218.3362
1063.90 219.2771
1064.00 223.2713
1064.10 225.7994
1064.20 227.5602
1064.30 228.3466
1064.40 228.9308
1064.50 228.651
1064.60 228.5604
1064.70 228.6179
1064.80 227.9177
1064.90 226.7784
1065.00 226.1576
1065.10 225.784
1065.20 223.9016
1065.30 220.2229
1065.40 215.8854
1065.50 211.5705
1065.60 205.7113
1065.70 202.1222
1065.80 198.9895
1065.90 196.0238
1066.00 192.2962
1066.10 190.2694
1066.20 188.8088
1066.30 186.9734
1066.40 185.0057
1066.50 183.8853
1066.60 182.7438
1066.70 181.1629
1066.80 181.2431
1066.90 180.9717
1067.00 180.0768
1067.10 178.7216
1067.20 179.4698
1067.30 181.8027
1067.40 185.0874
1067.50 190.6573
1067.60 195.9077
1067.70 201.6204
1067.80 207.6129
1067.90 213.2475
1068.00 217.0174
1068.10 220.0613
1068.20 222.9326
1068.30 225.4444
1068.40 227.6547
1068.50 230.0468
1068.60 232.4793
1068.70 234.3482
1068.80 235.2359
1068.90 235.2458
1069.00 234.8276
1069.10 232.726
1069.20 230.5134
1069.30 227.9106
1069.40 224.2542
1069.50 219.2731
1069.60 214.3041
1069.70 210.3837
1069.80 207.4253
1069.90 206.2257
1070.00 206.2178
1070.10 206.5398
1070.20 207.1339
1070.30 207.8675
1070.40 208.5214
1070.50 208.3701
1070.60 207.3023
1070.70 207.2196
1070.80 208.3614
1070.90 209.9723
1071.00 212.0763
1071.10 215.0184
1071.20 217.3257
1071.30 218.9537
1071.40 220.4229
1071.50 222.5218
1071.60 224.4006
1071.70 226.2528
1071.80 228.9505
1071.90 230.7106
1072.00 231.7606
1072.10 231.7927
1072.20 231.4486
1072.30 229.2763
1072.40 226.7961
1072.50 224.5201
1072.60 222.6698
1072.70 222.0216
1072.80 222.121
1072.90 223.0066
1073.00 223.0116
1073.10 224.0241
1073.20 225.6
1073.30 227.2703
1073.40 226.7905
1073.50 226.3118
1073.60 225.8153
1073.70 225.4215
1073.80 225.7777
1073.90 227.704
1074.00 230.269
1074.10 232.4689
1074.20 235.6262
1074.30 239.5157
1074.40 243.1659
1074.50 245.4308
1074.60 247.2584
1074.70 248.7547
1074.80 249.2181
1074.90 248.4899
1075.00 246.6894
1075.10 243.5489
1075.20 239.4198
1075.30 232.925
1075.40 228.6305
1075.50 224.5178
1075.60 221.622
1075.70 220.8933
1075.80 223.8975
1075.90 227.0623
1076.00 229.8716
1076.10 233.879
1076.20 235.7351
1076.30 236.8482
1076.40 237.3712
1076.50 238.7391
1076.60 238.7896
1076.70 238.975
1076.80 239.7012
1076.90 241.4704
1077.00 242.7873
1077.10 243.8119
1077.20 244.1031
1077.30 243.0408
1077.40 241.4826
1077.50 240.1391
1077.60 239.2969
1077.70 237.5307
1077.80 236.4606
1077.90 236.1731
1078.00 237.4711
1078.10 238.4938
1078.20 239.9538
1078.30 241.0576
1078.40 241.2323
1078.50 240.3265
1078.60 238.9494
1078.70 237.0587
1078.80 233.5981
1078.90 229.7878
1079.00 225.8428
1079.10 221.7766
1079.20 217.7259
1079.30 213.3809
1079.40 210.3998
1079.50 208.3554
1079.60 207.5439
1079.70 208.2373
1079.80 209.9185
1079.90 212.546
1080.00 214.6488
1080.10 217.5802
1080.20 220.2791
1080.30 222.656
1080.40 225.3182
1080.50 228.8626
1080.60 232.3519
1080.70 235.4136
1080.80 237.8069
1080.90 239.4682
1081.00 240.8334
1081.10 242.2286
1081.20 242.7714
1081.30 243.5733
1081.40 244.8684
1081.50 247.2874
1081.60 250.5924
1081.70 254.074
1081.80 256.4326
1081.90 257.2862
1082.00 256.1956
1082.10 254.2655
1082.20 251.6495
1082.30 247.5709
1082.40 243.7082
1082.50 239.7047
1082.60 236.647
1082.70 235.3208
1082.80 235.4263
1082.90 236.2102
1083.00 237.6426
1083.10 241.0784
1083.20 244.4584
1083.30 248.9644
1083.40 254.165
1083.50 258.3035
1083.60 261.0919
1083.70 262.6962
1083.80 263.5566
1083.90 262.5982
1084.00 262.0207
1084.10 260.6751
1084.20 257.877
1084.30 253.9637
1084.40 249.8853
1084.50 246.6831
1084.60 244.2106
1084.70 240.8475
1084.80 237.7597
1084.90 235.6201
1085.00 235.2901
1085.10 235.954
1085.20 237.0482
1085.30 237.5876
1085.40 237.2965
1085.50 237.2257
1085.60 238.9618
1085.70 241.2575
1085.80 243.7782
1085.90 246.551
1086.00 250.9771
1086.10 256.0624
1086.20 260.5104
1086.30 264.8096
1086.40 267.4454
1086.50 268.6035
1086.60 266.866
1086.70 266.8287
1086.80 266.2635
1086.90 265.2488
1087.00 264.2688
1087.10 265.5447
1087.20 266.6785
1087.30 267.4408
1087.40 267.7144
1087.50 266.8157
1087.60 264.5539
1087.70 261.0093
1087.80 258.0139
1087.90 255.9818
1088.00 254.7497
1088.10 254.0203
1088.20 254.6625
1088.30 255.2597
1088.40 255.8305
1088.50 256.4107
1088.60 257.146
1088.70 257.111
1088.80 256.13
1088.90 254.5725
1089.00 253.2198
1089.10 252.2555
1089.20 250.7299
1089.30 248.2359
1089.40 247.4351
1089.50 248.0313
1089.60 249.5
1089.70 251.1157
1089.80 257.1067
1089.90 263.612
1090.00 270.0769
1090.10 276.0023
1090.20 279.9677
1090.30 282.12
1090.40 282.1635
1090.50 280.8793
1090.60 276.7484
1090.70 271.1591
1090.80 265.0617
1090.90 258.9311
1091.00 256.4468
1091.10 253.8252
1091.20 251.9746
1091.30 252.0322
1091.40 255.2401
1091.50 259.0202
1091.60 263.1553
1091.70 269.7351
1091.80 273.7547
1091.90 276.8591
1092.00 278.7711
1092.10 279.7532
1092.20 278.4123
1092.30 276.1958
1092.40 273.7458
1092.50 270.2528
1092.60 267.4256
1092.70 265.1744
1092.80 263.9298
1092.90 263.8758
1093.00 264.3876
1093.10 265.334
1093.20 266.4689
1093.30 267.4363
1093.40 267.4685
1093.50 266.8349
1093.60 265.3173
1093.70 263.9658
1093.80 263.1892
1093.90 262.8102
1094.00 262.5293
1094.10 264.7808
1094.20 266.3204
1094.30 266.7218
1094.40 264.6947
1094.50 262.0271
1094.60 257.9714
1094.70 254.334
1094.80 253.2271
1094.90 253.8102
1095.00 255.9662
1095.10 260.2236
1095.20 270.1986
1095.30 277.8211
1095.40 285.0409
1095.50 290.9039
1095.60 294.3962
1095.70 294.6491
1095.80 294.3029
1095.90 293.5387
1096.00 289.9542
1096.10 288.3587
1096.20 287.678
1096.30 287.709
1096.40 287.087
1096.50 287.6922
1096.60 286.9011
1096.70 284.3779
1096.80 279.0282
1096.90 273.6777
1097.00 267.1279
1097.10 259.1642
1097.20 253.6257
1097.30 249.5147
1097.40 247.3759
1097.50 246.8186
1097.60 250.9578
1097.70 254.6175
1097.80 258.782
1097.90 264.0999
1098.00 267.7057
1098.10 270.0162
1098.20 270.7808
1098.30 270.3693
1098.40 267.7599
1098.50 265.7653
1098.60 263.7886
1098.70 261.1163
1098.80 260.4457
1098.90 260.446
1099.00 261.4523
1099.10 263.4288
1099.20 267.1489
1099.30 270.0518
1099.40 272.3789
1099.50 274.6266
1099.60 276.4671
1099.70 278.2976
1099.80 279.7763
1099.90 280.3441
1100.00 279.7009
1100.10 278.7947
1100.20 277.7196
1100.30 275.5952
1100.40 273.2174
1100.50 270.6075
1100.60 267.9041
1100.70 265.7858
1100.80 264.4715
1100.90 263.6388
1101.00 263.1611
1101.10 264.3485
1101.20 265.5417
1101.30 266.9356
1101.40 268.5807
1101.50 269.8809
1101.60 270.8795
1101.70 271.4508
1101.80 271.6457
1101.90 269.21
1102.00 266.0294
1102.10 262.2722
1102.20 258.0443
1102.30 256.6697
1102.40 255.9642
1102.50 255.9361
1102.60 256.3788
1102.70 260.5567
1102.80 263.6238
1102.90 266.2803
1103.00 269.2287
1103.10 269.2403
1103.20 266.6753
1103.30 262.6591
1103.40 259.4845
1103.50 253.031
1103.60 247.3754
1103.70 243.1541
1103.80 241.9634
1103.90 241.9607
1104.00 243.712
1104.10 246.934
1104.20 249.8977
1104.30 252.6293
1104.40 254.9438
1104.50 256.9779
1104.60 258.9339
1104.70 259.8329
1104.80 260.9307
1104.90 262.2469
1105.00 262.8264
1105.10 260.5995
1105.20 256.8381
1105.30 252.1377
1105.40 244.3319
1105.50 238.6966
1105.60 234.0571
1105.70 230.4771
1105.80 228.4143
1105.90 229.4006
1106.00 231.4467
1106.10 233.2876
1106.20 236.1941
1106.30 238.0849
1106.40 239.707
1106.50 241.3208
1106.60 241.4191
1106.70 239.8815
1106.80 238.208
1106.90 237.7496
1107.00 235.5806
1107.10 234.0579
1107.20 233.4352
1107.30 234.4114
1107.40 235.1085
1107.50 236.5176
1107.60 237.7718
1107.70 237.6453
1107.80 238.7375
1107.90 241.6365
1108.00 245.1817
1108.10 247.4646
1108.20 250.6526
1108.30 255.3487
1108.40 260.9841
1108.50 265.4826
1108.60 267.948
1108.70 269.1145
1108.80 269.3747
1108.90 268.396
1109.00 267.6733
1109.10 266.3921
1109.20 264.8788
1109.30 265.2284
1109.40 267.3533
1109.50 269.6687
1109.60 271.7827
1109.70 274.9977
1109.80 275.765
1109.90 275.0853
1110.00 272.7268
1110.10 268.2643
1110.20 261.512
1110.30 255.149
1110.40 250.4165
1110.50 245.7404
1110.60 242.5707
1110.70 240.9236
1110.80 241.1625
1110.90 240.1441
1111.00 239.3412
1111.10 238.1988
1111.20 236.3211
1111.30 231.8887
1111.40 228.8209
1111.50 226.6145
1111.60 224.9555
1111.70 223.9959
1111.80 224.8725
1111.90 226.4464
1112.00 226.8481
1112.10 227.8309
1112.20 230.199
1112.30 233.1147
1112.40 235.2072
1112.50 238.1537
1112.60 241.5194
1112.70 245.1068
1112.80 248.4277
1112.90 252.8852
1113.00 256.0776
1113.10 257.9811
1113.20 259.2138
1113.30 259.4065
1113.40 258.8617
1113.50 257.497
1113.60 255.3877
1113.70 251.0914
1113.80 248.1709
1113.90 247.246
1114.00 246.6324
1114.10 248.2382
1114.20 251.4741
1114.30 256.1237
1114.40 259.98
1114.50 266.1713
1114.60 271.2238
1114.70 273.5753
1114.80 273.0265
1114.90 271.7607
1115.00 269.4249
1115.10 265.658
1115.20 262.6212
1115.30 259.8545
1115.40 258.4031
1115.50 258.9752
1115.60 260.6128
1115.70 261.9382
1115.80 263.0825
1115.90 264.143
1116.00 264.001
1116.10 262.7369
1116.20 260.7045
1116.30 258.4933
1116.40 256.9741
1116.50 255.573
1116.60 254.172
1116.70 252.643
1116.80 250.034
1116.90 247.2677
1117.00 244.0984
1117.10 239.9279
1117.20 234.3532
1117.30 229.5445
1117.40 225.7929
1117.50 223.3634
1117.60 223.1601
1117.70 224.4934
1117.80 227.0431
1117.90 230.5795
1118.00 234.6965
1118.10 240.0877
1118.20 245.3322
1118.30 250.5688
1118.40 254.3128
1118.50 257.7656
1118.60 260.9499
1118.70 260.5318
1118.80 259.5209
1118.90 258.3346
1119.00 255.9706
1119.10 252.7777
1119.20 250.8457
1119.30 249.2734
1119.40 248.6739
1119.50 248.258
1119.60 247.8585
1119.70 247.5046
1119.80 247.6211
1119.90 247.98
1120.00 248.5521
1120.10 249.1724
1120.20 249.764
1120.30 250.8916
1120.40 252.659
1120.50 255.0639
1120.60 257.6038
1120.70 260.5708
1120.80 261.9304
1120.90 263.0914
1121.00 263.3047
1121.10 263.279
1121.20 263.1185
1121.30 261.6024
1121.40 259.5108
1121.50 257.2986
1121.60 254.7467
1121.70 251.8223
1121.80 248.8653
1121.90 246.0406
1122.00 243.6855
1122.10 241.8351
1122.20 240.0669
1122.30 241.0978
1122.40 243.4394
1122.50 246.5636
1122.60 251.383
1122.70 256.7899
1122.80 262.0022
1122.90 265.8413
1123.00 267.8199
1123.10 267.5622
1123.20 266.5303
1123.30 262.4011
1123.40 258.8871
1123.50 255.4902
1123.60 252.314
1123.70 250.4682
1123.80 249.5773
1123.90 252.1134
1124.00 256.1951
1124.10 260.2887
1124.20 265.2788
1124.30 271.2183
1124.40 274.614
1124.50 277.4567
1124.60 277.7805
1124.70 276.6607
1124.80 275.2241
1124.90 268.8809
1125.00 262.6188
1125.10 256.7105
1125.20 252.4964
1125.30 250.0253
1125.40 249.6594
1125.50 250.7836
1125.60 254.0084
1125.70 258.0475
1125.80 262.0946
1125.90 266.1813
1126.00 268.6697
1126.10 270.7586
1126.20 270.1545
1126.30 269.4293
1126.40 268.8276
1126.50 268.9289
1126.60 269.7652
1126.70 271.5148
1126.80 273.5449
1126.90 275.9464
1127.00 276.7525
1127.10 277.3342
1127.20 276.6441
1127.30 273.7819
1127.40 270.307
1127.50 266.6506
1127.60 264.0214
1127.70 262.3591
1127.80 260.8326
1127.90 259.764
1128.00 259.7268
1128.10 259.8551
1128.20 260.2445
1128.30 260.8428
1128.40 261.4966
1128.50 262.4917
1128.60 262.7177
1128.70 262.7008
1128.80 262.891
1128.90 263.4523
1129.00 264.3428
1129.10 265.0721
1129.20 265.5562
1129.30 265.5884
1129.40 265.9318
1129.50 266.7826
1129.60 267.4702
1129.70 268.2222
1129.80 269.4465
1129.90 270.3867
1130.00 271.2271
1130.10 270.5421
1130.20 269.2445
1130.30 267.5467
1130.40 263.941
1130.50 259.4222
1130.60 255.7145
1130.70 252.5626
1130.80 250.3985
1130.90 249.4533
1131.00 248.8161
1131.10 250.47
1131.20 252.9157
1131.30 255.6541
1131.40 259.7564
1131.50 263.3086
1131.60 266.0243
1131.70 268.303
1131.80 270.203
1131.90 271.7508
1132.00 272.9081
1132.10 273.3402
1132.20 272.9779
1132.30 272.476
1132.40 270.9379
1132.50 270.3004
1132.60 270.0309
1132.70 269.1617
1132.80 267.5741
1132.90 265.2674
1133.00 263.4378
1133.10 261.7667
1133.20 259.4955
1133.30 257.0995
1133.40 254.4614
1133.50 251.9675
1133.60 249.4453
1133.70 246.5776
1133.80 244.0318
1133.90 241.6239
1134.00 236.7044
1134.10 231.3083
1134.20 225.9142
1134.30 221.8074
1134.40 218.9852
1134.50 217.7229
1134.60 217.8402
1134.70 220.6353
1134.80 224.942
1134.90 229.5179
1135.00 236.0812
1135.10 241.7646
1135.20 247.0527
1135.30 248.8118
1135.40 248.9305
1135.50 247.8814
1135.60 245.5987
1135.70 242.5702
1135.80 240.1697
1135.90 238.5401
1136.00 238.4757
1136.10 238.9558
1136.20 239.6118
1136.30 241.8896
1136.40 243.5987
1136.50 245.0402
1136.60 244.903
1136.70 244.1746
1136.80 243.0911
1136.90 240.7423
1137.00 237.4819
1137.10 234.2431
1137.20 231.3043
1137.30 229.0029
1137.40 225.7123
1137.50 222.3329
1137.60 218.7646
1137.70 213.2511
1137.80 206.7796
1137.90 197.0774
1138.00 187.8341
1138.10 180.2039
1138.20 172.3799
1138.30 165.2848
1138.40 162.4622
1138.50 161.8181
1138.60 165.8032
1138.70 171.8851
1138.80 178.5546
1138.90 190.6087
1139.00 200.4523
1139.10 209.2071
1139.20 215.8564
1139.30 220.519
1139.40 223.0764
1139.50 222.8546
1139.60 220.2553
1139.70 216.1807
1139.80 211.382
1139.90 205.0445
1140.00 197.6344
1140.10 189.9326
1140.20 179.7649
1140.30 170.9046
1140.40 162.7177
1140.50 154.7552
1140.60 148.9776
1140.70 146.2686
1140.80 146.6297
1140.90 149.8594
1141.00 155.9907
1141.10 164.1635
1141.20 176.8801
1141.30 188.4996
1141.40 200.0144
1141.50 211.588
1141.60 220.59
1141.70 228.2672
1141.80 233.8613
1141.90 238.7554
1142.00 243.3456
1142.10 246.6465
1142.20 248.876
1142.30 250.8
1142.40 252.5147
1142.50 253.7635
1142.60 255.7466
1142.70 257.7222
1142.80 258.4436
1142.90 258.5235
1143.00 258.2579
1143.10 257.5491
1143.20 256.4811
1143.30 255.0203
1143.40 253.3924
1143.50 251.6915
1143.60 250.2903
1143.70 248.9931
1143.80 247.9167
1143.90 246.7694
1144.00 245.6633
1144.10 245.2084
1144.20 244.9325
1144.30 244.753
1144.40 244.7281
1144.50 244.7572
1144.60 244.8165
1144.70 245.0332
1144.80 245.5238
1144.90 246.8946
1145.00 248.1949
1145.10 249.3456
1145.20 249.8055
1145.30 250.1673
1145.40 250.2471
1145.50 250.493
1145.60 250.8282
1145.70 250.7685
1145.80 250.8877
1145.90 251.4053
1146.00 252.5719
1146.10 254.26
1146.20 256.1274
1146.30 258.4804
1146.40 261.8652
1146.50 265.0035
1146.60 268.0451
1146.70 270.1666
1146.80 271.5319
1146.90 272.49
1147.00 272.1518
1147.10 271.3417
1147.20 270.2506
1147.30 269.0773
1147.40 267.9788
1147.50 267.6564
1147.60 267.7949
1147.70 268.8693
1147.80 270.9117
1147.90 273.0566
1148.00 275.2796
1148.10 276.7912
1148.20 277.9365
1148.30 277.7922
1148.40 277.0718
1148.50 275.9022
1148.60 275.2884
1148.70 275.2649
1148.80 276.2286
1148.90 277.4419
1149.00 279.1621
1149.10 280.4842
1149.20 281.7038
1149.30 282.1972
1149.40 281.8629
1149.50 281.1023
1149.60 279.4313
1149.70 277.9702
1149.80 277.0606
1149.90 276.5694
1150.00 276.5403
1150.10 277.411
1150.20 278.3756
1150.30 279.5225
1150.40 280.8191
1150.50 282.1188
1150.60 283.299
1150.70 283.5553
1150.80 283.3357
1150.90 283.756
1151.00 284.384
1151.10 285.1305
1151.20 285.5473
1151.30 285.6459
1151.40 285.2646
1151.50 284.5334
1151.60 283.1525
1151.70 281.8612
1151.80 280.5082
1151.90 278.5299
1152.00 275.7928
1152.10 272.6821
1152.20 268.5269
1152.30 264.4271
1152.40 260.6582
1152.50 257.519
1152.60 255.0437
1152.70 253.844
1152.80 253.2807
1152.90 253.8487
1153.00 255.3532
1153.10 257.0197
1153.20 259.4276
1153.30 260.9807
1153.40 262.1314
1153.50 262.916
1153.60 263.6856
1153.70 264.5143
1153.80 266.3009
1153.90 268.7129
1154.00 271.2992
1154.10 273.8385
1154.20 276.2978
1154.30 278.5746
1154.40 280.4958
1154.50 279.9106
1154.60 279.1963
1154.70 278.4241
1154.80 276.5457
1154.90 274.6198
1155.00 272.8438
1155.10 272.1057
1155.20 271.9126
1155.30 271.4436
1155.40 271.8172
1155.50 273.5658
1155.60 275.0162
1155.70 276.3554
1155.80 277.0775
1155.90 278.4289
1156.00 280.0501
1156.10 280.9839
1156.20 281.7557
1156.30 282.4335
1156.40 282.9866
1156.50 283.3364
1156.60 283.1527
1156.70 282.7643
1156.80 282.0557
1156.90 280.985
1157.00 279.7304
1157.10 277.5185
1157.20 275.0591
1157.30 272.4986
1157.40 270.36
1157.50 268.5447
1157.60 267.0541
1157.70 266.4898
1157.80 266.7145
1157.90 268.1122
1158.00 269.7871
1158.10 271.8613
1158.20 273.8127
1158.30 275.6344
1158.40 276.7947
1158.50 276.3099
1158.60 275.1853
1158.70 273.0589
1158.80 270.6899
1158.90 268.1455
1159.00 264.811
1159.10 261.1204
1159.20 257.5412
1159.30 254.0432
1159.40 250.6571
1159.50 248.6352
1159.60 246.7624
1159.70 245.4424
1159.80 244.3865
1159.90 243.4284
1160.00 244.2449
1160.10 245.5593
1160.20 247.2529
1160.30 249.9275
1160.40 252.9011
1160.50 255.4255
1160.60 257.4119
1160.70 258.7136
1160.80 260.671
1160.90 262.5434
1161.00 264.0754
1161.10 265.7949
1161.20 267.5768
1161.30 270.4013
1161.40 272.6501
1161.50 274.2686
1161.60 275.8743
1161.70 277.2306
1161.80 277.8929
1161.90 277.2518
1162.00 275.089
1162.10 273.7628
1162.20 272.4141
1162.30 270.9808
1162.40 270.4936
1162.50 270.289
1162.60 272.2473
1162.70 274.3523
1162.80 276.5311
1162.90 279.7948
1163.00 283.034
1163.10 285.0664
1163.20 286.1816
1163.30 286.2586
1163.40 284.8991
1163.50 282.8826
1163.60 278.6664
1163.70 274.7798
1163.80 270.986
1163.90 266.9142
1164.00 264.0585
1164.10 262.241
1164.20 262.7495
1164.30 264.277
1164.40 266.2984
1164.50 269.1219
1164.60 272.629
1164.70 273.8802
1164.80 274.6884
1164.90 274.1675
1165.00 272.7532
1165.10 271.0866
1165.20 266.5447
1165.30 262.6608
1165.40 259.2938
1165.50 256.3676
1165.60 254.2421
1165.70 253.6055
1165.80 254.6614
1165.90 257.2591
1166.00 259.5842
1166.10 262.2395
1166.20 265.7437
1166.30 267.9753
1166.40 269.8849
1166.50 270.4156
1166.60 270.5735
1166.70 270.4615
1166.80 268.9935
1166.90 267.2513
1167.00 265.6845
1167.10 263.938
1167.20 262.0758
1167.30 260.5934
1167.40 259.0653
1167.50 257.4304
1167.60 255.4345
1167.70 253.385
1167.80 251.5716
1167.90 249.4197
1168.00 247.0421
1168.10 244.1706
1168.20 240.4068
1168.30 235.2009
1168.40 228.8099
1168.50 221.2985
1168.60 211.9554
1168.70 201.5683
1168.80 188.9626
1168.90 178.0275
1169.00 167.3214
1169.10 156.1217
1169.20 148.4798
1169.30 143.0184
1169.40 142.9139
1169.50 145.1357
1169.60 149.5808
1169.70 158.4602
1169.80 170.3341
1169.90 181.6269
1170.00 193.6825
1170.10 207.1545
1170.20 218.7516
1170.30 229.7472
1170.40 237.7498
1170.50 244.7437
1170.60 251.1702
1170.70 254.8655
1170.80 257.6416
1170.90 259.7057
1171.00 260.7496
1171.10 261.1326
1171.20 261.3148
1171.30 261.4355
1171.40 261.4561
1171.50 261.7415
1171.60 261.9966
1171.70 261.8737
1171.80 261.6656
1171.90 261.4156
1172.00 260.9665
1172.10 260.5989
1172.20 260.3777
1172.30 260.4149
1172.40 260.6821
1172.50 261.3627
1172.60 262.4339
1172.70 264.0909
1172.80 265.4768
1172.90 266.8195
1173.00 268.0261
1173.10 268.6502
1173.20 269.0126
1173.30 268.4149
1173.40 267.4836
1173.50 266.2463
1173.60 264.6091
1173.70 262.9572
1173.80 261.9575
1173.90 261.0806
1174.00 260.3665
1174.10 260.5854
1174.20 261.1328
1174.30 262.9144
1174.40 264.6019
1174.50 266.2528
1174.60 267.4805
1174.70 267.9039
1174.80 267.4801
1174.90 265.9253
1175.00 263.7244
1175.10 260.9068
1175.20 257.4435
1175.30 253.2223
1175.40 250.0236
1175.50 247.1074
1175.60 245.1561
1175.70 243.3565
1175.80 241.6076
1175.90 240.5342
1176.00 239.0751
1176.10 237.2166
1176.20 234.751
1176.30 231.4571
1176.40 226.4131
1176.50 220.3267
1176.60 213.1097
1176.70 203.645
1176.80 193.247
1176.90 180.0493
1177.00 167.3152
1177.10 154.6924
1177.20 140.1455
1177.30 128.4721
1177.40 119.347
1177.50 114.1356
1177.60 111.4021
1177.70 111.8729
1177.80 116.9587
1177.90 126.2049
1178.00 136.7393
1178.10 148.4043
1178.20 162.9765
1178.30 175.8888
1178.40 188.3456
1178.50 199.2168
1178.60 209.1943
1178.70 218.4697
1178.80 225.3347
1178.90 231.0893
1179.00 235.7643
1179.10 239.1792
1179.20 241.5549
1179.30 243.3665
1179.40 244.795
1179.50 245.4094
1179.60 246.2662
1179.70 247.1931
1179.80 248.3949
1179.90 250.0424
1180.00 251.9871
1180.10 254.4555
1180.20 256.9493
1180.30 259.2912
1180.40 261.238
1180.50 262.7814
1180.60 263.284
1180.70 263.3624
1180.80 262.6529
1180.90 261.5822
1181.00 260.3753
1181.10 258.504
1181.20 256.7733
1181.30 255.1254
1181.40 253.6324
1181.50 252.4363
1181.60 251.6684
1181.70 251.6796
1181.80 252.2249
1181.90 253.204
1182.00 254.4225
1182.10 256.0154
1182.20 257.2405
1182.30 258.3408
1182.40 258.9657
1182.50 259.4247
1182.60 259.7983
1182.70 259.8194
1182.80 259.7803
1182.90 259.7061
1183.00 259.8573
1183.10 259.9281
1183.20 259.1268
1183.30 257.8447
1183.40 255.899
1183.50 254.0532
1183.60 252.0401
1183.70 249.2363
1183.80 247.7382
1183.90 246.7997
1184.00 247.9708
1184.10 249.4655
1184.20 251.182
1184.30 254.1452
1184.40 257.1589
1184.50 258.457
1184.60 258.8554
1184.70 258.1975
1184.80 257.1011
1184.90 255.5605
1185.00 252.4932
1185.10 250.8202
1185.20 249.6629
1185.30 249.719
1185.40 250.1766
1185.50 251.026
1185.60 253.1841
1185.70 255.634
1185.80 257.5798
1185.90 259.2971
1186.00 260.7754
1186.10 261.2067
1186.20 261.5008
1186.30 261.4042
1186.40 261.0084
1186.50 260.5068
1186.60 259.2008
1186.70 258.0719
1186.80 257.1
1186.90 255.9892
1187.00 255.0898
1187.10 254.8037
1187.20 254.8395
1187.30 255.1551
1187.40 255.5747
1187.50 256.2945
1187.60 257.7145
1187.70 257.742
1187.80 257.3602
1187.90 255.6835
1188.00 253.3843
1188.10 250.6155
1188.20 245.5998
1188.30 240.6845
1188.40 236.9746
1188.50 233.6165
1188.60 230.6844
1188.70 229.4836
1188.80 229.5768
1188.90 232.1816
1189.00 234.8247
1189.10 237.6358
1189.20 241.8987
1189.30 245.5633
1189.40 248.8455
1189.50 251.0995
1189.60 253.2409
1189.70 255.4754
1189.80 256.881
1189.90 257.652
1190.00 257.5766
1190.10 257.5186
1190.20 257.4888
1190.30 257.3484
1190.40 257.0225
1190.50 255.722
1190.60 254.6514
1190.70 253.7044
1190.80 253.4187
1190.90 253.5789
1191.00 254.2867
1191.10 255.441
1191.20 256.7781
1191.30 257.9347
1191.40 259.3198
1191.50 261.0077
1191.60 262.2941
1191.70 263.3929
1191.80 263.8206
1191.90 263.8116
1192.00 263.6065
1192.10 263.169
1192.20 262.9909
1192.30 263.1446
1192.40 263.0021
1192.50 262.7662
1192.60 262.6341
1192.70 262.6197
1192.80 262.738
1192.90 262.8563
1193.00 263.1098
1193.10 263.816
1193.20 263.3705
1193.30 262.4989
1193.40 260.6496
1193.50 258.6977
1193.60 256.6389
1193.70 253.1505
1193.80 249.3439
1193.90 245.917
1194.00 242.7426
1194.10 239.8131
1194.20 237.4496
1194.30 235.4485
1194.40 234.3794
1194.50 232.6208
1194.60 230.6401
1194.70 227.9981
1194.80 225.9836
1194.90 224.5036
1195.00 222.9433
1195.10 221.8169
1195.20 221.7495
1195.30 223.2077
1195.40 225.8269
1195.50 227.8537
1195.60 230.0136
1195.70 232.4438
1195.80 233.394
1195.90 233.8107
1196.00 232.118
1196.10 230.5263
1196.20 229.0078
1196.30 226.4331
1196.40 223.9825
1196.50 222.1345
1196.60 221.3103
1196.70 221.0417
1196.80 219.9713
1196.90 218.6457
1197.00 216.8856
1197.10 214.1498
1197.20 210.9956
1197.30 206.1675
1197.40 201.7761
1197.50 197.6411
1197.60 193.5783
1197.70 190.3031
1197.80 188.2471
1197.90 188.0211
1198.00 188.9695
1198.10 191.2299
1198.20 194.5057
1198.30 199.1835
1198.40 202.8932
1198.50 206.5046
1198.60 210.1043
1198.70 212.1306
1198.80 213.4165
1198.90 212.2694
1199.00 210.5113
1199.10 208.1385
1199.20 204.2031
1199.30 200.0492
1199.40 197.5744
1199.50 195.6094
1199.60 194.2192
1199.70 193.4894
1199.80 193.2499
1199.90 194.5594
1200.00 195.8042
1200.10 197.0237
1200.20 197.7175
1200.30 198.4377
1200.40 199.1854
1200.50 200.398
1200.60 201.871
1200.70 203.6848
1200.80 205.6582
1200.90 207.7726
1201.00 209.2656
1201.10 210.5353
1201.20 211.2308
1201.30 211.1635
1201.40 210.8141
1201.50 209.4338
1201.60 208.2102
1201.70 207.1202
1201.80 206.5515
1201.90 206.2866
1202.00 206.4454
1202.10 207.0157
1202.20 207.904
1202.30 208.9112
1202.40 209.5984
1202.50 209.6645
1202.60 208.8154
1202.70 207.7221
1202.80 206.2405
1202.90 205.2452
1203.00 204.5878
1203.10 204.351
1203.20 204.7878
1203.30 206.3486
1203.40 209.4705
1203.50 213.5718
1203.60 218.1794
1203.70 223.0479
1203.80 228.3243
1203.90 231.9928
1204.00 235.2324
1204.10 237.4032
1204.20 238.452
1204.30 238.8696
1204.40 236.5762
1204.50 234.3056
1204.60 232.4229
1204.70 230.6758
1204.80 229.2495
1204.90 229.1723
1205.00 229.9089
1205.10 231.6812
1205.20 233.9051
1205.30 236.4494
1205.40 240.071
1205.50 243.2906
1205.60 246.3296
1205.70 248.8001
1205.80 250.8651
1205.90 252.4562
1206.00 253.2144
1206.10 253.399
1206.20 252.6423
1206.30 251.4033
1206.40 249.6819
1206.50 247.8481
1206.60 245.6719
1206.70 242.5273
1206.80 240.7812
1206.90 239.5857
1207.00 240.3091
1207.10 241.6555
1207.20 243.6005
1207.30 247.0985
1207.40 250.8756
1207.50 254.2912
1207.60 258.1353
1207.70 262.2959
1207.80 265.3551
1207.90 267.6282
1208.00 268.2307
1208.10 268.0385
1208.20 267.5605
1208.30 266.0791
1208.40 263.6524
1208.50 260.4827
1208.60 255.5566
1208.70 250.443
1208.80 245.6418
1208.90 240.1571
1209.00 234.5115
1209.10 231.6583
1209.20 229.853
1209.30 229.832
1209.40 231.4811
1209.50 234.1135
1209.60 240.9763
1209.70 246.2003
1209.80 250.4199
1209.90 254.435
1210.00 257.1176
1210.10 257.6628
1210.20 254.14
1210.30 248.5562
1210.40 242.6214
1210.50 235.5254
1210.60 226.89
1210.70 220.5775
1210.80 214.7815
1210.90 210.2079
1211.00 207.0703
1211.10 204.64
1211.20 205.7599
1211.30 207.1097
1211.40 208.5681
1211.50 211.2912
1211.60 214.5089
1211.70 217.7376
1211.80 221.4451
1211.90 225.6509
1212.00 230.3744
1212.10 235.3034
1212.20 240.7837
1212.30 245.053
1212.40 248.8363
1212.50 250.758
1212.60 251.4249
1212.70 250.786
1212.80 247.385
1212.90 243.3509
1213.00 239.7319
1213.10 234.978
1213.20 229.3694
1213.30 227.3906
1213.40 226.8506
1213.50 229.513
1213.60 233.146
1213.70 237.3638
1213.80 245.3405
1213.90 252.1267
1214.00 257.9389
1214.10 262.6716
1214.20 266.6296
1214.30 269.3781
1214.40 269.6327
1214.50 268.3431
1214.60 267.6329
1214.70 266.8368
1214.80 265.8946
1214.90 265.3283
1215.00 264.9998
1215.10 265.7236
1215.20 265.7555
1215.30 265.3451
1215.40 264.388
1215.50 263.1431
1215.60 261.5276
1215.70 259.0828
1215.80 256.3785
1215.90 254.589
1216.00 253.1963
1216.10 252.3084
1216.20 252.3109
1216.30 252.6272
1216.40 253.8032
1216.50 255.2567
1216.60 256.8469
1216.70 259.1596
1216.80 261.1893
1216.90 262.8304
1217.00 264.2681
1217.10 265.4716
1217.20 266.0393
1217.30 266.0725
1217.40 265.5713
1217.50 265.6997
1217.60 265.7295
1217.70 265.4234
1217.80 265.6602
1217.90 266.1482
1218.00 268.2695
1218.10 270.3781
1218.20 272.4741
1218.30 275.1028
1218.40 277.3563
1218.50 278.1628
1218.60 277.7849
1218.70 276.4862
1218.80 275.5108
1218.90 273.9939
1219.00 271.3777
1219.10 269.0063
1219.20 266.8756
1219.30 266.5202
1219.40 266.3246
1219.50 266.2546
1219.60 266.2796
1219.70 266.2313
1219.80 265.9944
1219.90 265.4585
1220.00 264.7976
1220.10 264.6471
1220.20 264.5427
1220.30 264.5105
1220.40 264.343
1220.50 264.4191
1220.60 265.8893
1220.70 266.5768
1220.80 266.7845
1220.90 265.5745
1221.00 264.2219
1221.10 262.8392
1221.20 259.6822
1221.30 255.839
1221.40 252.6242
1221.50 249.5728
1221.60 246.7133
1221.70 244.4729
1221.80 242.7482
1221.90 242.6614
1222.00 242.3871
1222.10 242.0285
1222.20 242.6394
1222.30 243.4528
1222.40 244.5018
1222.50 245.0965
1222.60 245.9631
1222.70 248.3025
1222.80 251.5128
1222.90 255.527
1223.00 260.019
1223.10 265.1031
1223.20 271.6128
1223.30 276.8612
1223.40 281.6252
1223.50 285.388
1223.60 288.1426
1223.70 289.9666
1223.80 289.3911
1223.90 288.2648
1224.00 287.077
1224.10 284.9432
1224.20 282.2
1224.30 280.3667
1224.40 278.9521
1224.50 278.2816
1224.60 278.3018
1224.70 278.6436
1224.80 280.2322
1224.90 281.6606
1225.00 282.9728
1225.10 284.9883
1225.20 286.5021
1225.30 286.923
1225.40 286.3942
1225.50 285.3701
1225.60 284.3019
1225.70 282.5501
1225.80 279.8921
1225.90 278.8075
1226.00 278.0196
1226.10 277.5817
1226.20 277.916
1226.30 278.6662
1226.40 281.5282
1226.50 283.8887
1226.60 285.4349
1226.70 287.3199
1226.80 289.0198
1226.90 289.3058
1227.00 288.5891
1227.10 286.8286
1227.20 285.8706
1227.30 284.6525
1227.40 282.574
1227.50 281.5962
1227.60 281.1094
1227.70 282.6579
1227.80 284.0964
1227.90 285.4157
1228.00 287.6856
1228.10 289.9401
1228.20 291.4354
1228.30 292.0211
1228.40 291.8728
1228.50 290.7726
1228.60 289.0535
1228.70 286.0777
1228.80 283.2745
1228.90 280.52
1229.00 277.7909
1229.10 274.7462
1229.20 271.4431
1229.30 268.4698
1229.40 265.8792
1229.50 263.9969
1229.60 262.0072
1229.70 260.0916
1229.80 259.5645
1229.90 259.8321
1230.00 261.2918
1230.10 263.7718
1230.20 266.8415
1230.30 271.9117
1230.40 276.0955
1230.50 279.736
1230.60 282.823
1230.70 285.1858
1230.80 286.4711
1230.90 285.6662
1231.00 284.0342
1231.10 282.5424
1231.20 280.4876
1231.30 277.7979
1231.40 275.6396
1231.50 273.9375
1231.60 273.5338
1231.70 273.2043
1231.80 272.9086
1231.90 272.6516
1232.00 272.3354
1232.10 271.9496
1232.20 271.5947
1232.30 271.2875
1232.40 271.1104
1232.50 270.9158
1232.60 270.7069
1232.70 269.785
1232.80 268.859
1232.90 267.9239
1233.00 267.1257
1233.10 266.2616
1233.20 264.1439
1233.30 262.7033
1233.40 261.8629
1233.50 261.9061
1233.60 262.2076
1233.70 262.748
1233.80 264.2426
1233.90 266.1991
1234.00 266.5216
1234.10 266.7095
1234.20 266.6871
1234.30 266.6579
1234.40 266.3564
1234.50 264.6324
1234.60 263.7844
1234.70 263.5204
1234.80 264.2293
1234.90 265.232
1235.00 266.5906
1235.10 269.1524
1235.20 271.9967
1235.30 273.2562
1235.40 273.7948
1235.50 273.487
1235.60 272.7093
1235.70 271.4106
1235.80 268.5236
1235.90 266.3313
1236.00 264.4659
1236.10 263.832
1236.20 264.0536
1236.30 265.364
1236.40 268.2877
1236.50 271.4933
1236.60 273.9464
1236.70 276.6293
1236.80 279.5078
1236.90 280.311
1237.00 280.2118
1237.10 278.1983
1237.20 275.6796
1237.30 272.8774
1237.40 268.5459
1237.50 265.3554
1237.60 263.218
1237.70 261.9542
1237.80 261.2083
1237.90 261.3229
1238.00 263.3766
1238.10 266.5575
1238.20 267.9749
1238.30 269.2626
1238.40 270.3386
1238.50 269.1027
1238.60 266.7314
1238.70 260.8021
1238.80 254.9775
1238.90 249.2257
1239.00 241.3465
1239.10 234.2529
1239.20 228.8847
1239.30 225.5026
1239.40 223.2465
1239.50 222.5548
1239.60 223.4567
1239.70 226.2295
1239.80 228.4366
1239.90 230.6558
1240.00 233.1257
1240.10 234.2296
1240.20 234.6606
1240.30 232.7652
1240.40 231.1196
1240.50 229.7921
1240.60 228.4886
1240.70 227.619
1240.80 228.3546
1240.90 229.9147
1241.00 232.206
1241.10 234.2501
1241.20 236.6678
1241.30 239.9748
1241.40 241.362
1241.50 241.9146
1241.60 240.3388
1241.70 238.5664
1241.80 236.6051
1241.90 233.0107
1242.00 229.4964
1242.10 226.9882
1242.20 224.5271
1242.30 222.0634
1242.40 218.9766
1242.50 216.3772
1242.60 214.5731
1242.70 210.6175
1242.80 205.8361
1242.90 199.051
1243.00 192.4114
1243.10 185.8729
1243.20 177.4244
1243.30 170.3104
1243.40 165.864
1243.50 163.0698
1243.60 161.4458
1243.70 162.6847
1243.80 166.6762
1243.90 173.8989
1244.00 180.7738
1244.10 188.1554
1244.20 197.3633
1244.30 205.5523
1244.40 213.2396
1244.50 219.6531
1244.60 225.95
1244.70 232.0983
1244.80 237.2037
1244.90 241.853
1245.00 245.9586
1245.10 249.7191
1245.20 253.1856
1245.30 255.5647
1245.40 257.592
1245.50 258.8857
1245.60 259.3459
1245.70 259.4135
1245.80 258.1603
1245.90 257.1116
1246.00 256.2516
1246.10 253.9867
1246.20 251.9021
1246.30 250.866
1246.40 250.6704
1246.50 251.0316
1246.60 252.0468
1246.70 253.8839
1246.80 257.0066
1246.90 259.3752
1247.00 261.652
1247.10 264.2572
1247.20 266.1217
1247.30 267.4922
1247.40 266.545
1247.50 265.3544
1247.60 264.0466
1247.70 262.4195
1247.80 260.6695
1247.90 259.0063
1248.00 257.4249
1248.10 255.936
1248.20 255.0741
1248.30 254.3334
1248.40 253.7805
1248.50 253.5862
1248.60 253.572
1248.70 254.1189
1248.80 254.5321
1248.90 254.782
1249.00 255.5029
1249.10 256.2149
1249.20 256.4512
1249.30 256.3645
1249.40 256.024
1249.50 255.5771
1249.60 254.9136
1249.70 253.8126
1249.80 253.397
1249.90 253.2277
1250.00 253.3263
1250.10 253.1445
1250.20 252.7142
1250.30 252.8719
1250.40 252.9635
1250.50 252.6956
1250.60 251.8145
1250.70 250.5481
1250.80 248.7462
1250.90 246.7596
1251.00 244.507
1251.10 242.3008
1251.20 239.9745
1251.30 237.0608
1251.40 233.2086
1251.50 228.7564
1251.60 224.1173
1251.70 218.5925
1251.80 211.6386
1251.90 202.1337
1252.00 191.7853
1252.10 182.2784
1252.20 172.0049
1252.30 160.9337
1252.40 155.084
1252.50 151.0337
1252.60 150.621
1252.70 153.2878
1252.80 157.6822
1252.90 170.3367
1253.00 182.5059
1253.10 194.1054
1253.20 207.1429
1253.30 219.8159
1253.40 230.1395
1253.50 238.0379
1253.60 244.1801
1253.70 249.4252
1253.80 253.9389
1253.90 257.0945
1254.00 259.4786
1254.10 261.5576
1254.20 262.9944
1254.30 264.2793
1254.40 265.4398
1254.50 265.2021
1254.60 264.7704
1254.70 264.2939
1254.80 263.3119
1254.90 262.2141
1255.00 262.5782
1255.10 263.7689
1255.20 266.0557
1255.30 268.3125
1255.40 270.937
1255.50 274.9629
1255.60 278.7075
1255.70 282.2867
1255.80 284.5189
1255.90 285.9411
1256.00 286.1898
1256.10 285.335
1256.20 284.1338
1256.30 283.0372
1256.40 281.0726
1256.50 278.3069
1256.60 276.4378
1256.70 274.8662
1256.80 273.8831
1256.90 273.2083
1257.00 272.717
1257.10 273.1292
1257.20 273.3154
1257.30 273.2664
1257.40 273.7798
1257.50 274.5826
1257.60 275.9045
1257.70 277.1407
1257.80 278.3393
1257.90 280.093
1258.00 282.1305
1258.10 284.6311
1258.20 286.1337
1258.30 287.4125
1258.40 288.8368
1258.50 289.143
1258.60 288.6057
1258.70 286.1149
1258.80 283.4508
1258.90 280.7796
1259.00 276.5397
1259.10 271.7896
1259.20 268.3517
1259.30 265.6582
1259.40 263.8043
1259.50 263.4282
1259.60 263.8039
1259.70 265.9822
1259.80 268.0424
1259.90 270.0496
1260.00 272.8367
1260.10 275.5372
1260.20 278.1229
1260.30 279.7023
1260.40 281.0496
1260.50 282.604
1260.60 284.4505
1260.70 286.5265
1260.80 289.1408
1260.90 292.1987
1261.00 296.1237
1261.10 298.6429
1261.20 300.624
1261.30 302.207
1261.40 303.0924
1261.50 303.3339
1261.60 300.8552
1261.70 298.0602
1261.80 295.4859
1261.90 291.7029
1262.00 287.3522
1262.10 284.7566
1262.20 283.0932
1262.30 282.7169
1262.40 282.5188
1262.50 282.7661
1262.60 284.7572
1262.70 286.2677
1262.80 287.4577
1262.90 287.6584
1263.00 287.6316
1263.10 287.301
1263.20 286.3379
1263.30 285.1074
1263.40 283.6874
1263.50 282.4339
1263.60 281.3405
1263.70 280.089
1263.80 278.6894
1263.90 276.9441
1264.00 275.1468
1264.10 273.2966
1264.20 270.8811
1264.30 269.0581
1264.40 267.9034
1264.50 267.3015
1264.60 267.0894
1264.70 267.7269
1264.80 269.4728
1264.90 271.9534
1265.00 274.0042
1265.10 276.2292
1265.20 278.7506
1265.30 280.599
1265.40 282.2066
1265.50 283.501
1265.60 284.6128
1265.70 285.5753
1265.80 285.3318
1265.90 285.1246
1266.00 285.2041
1266.10 285.0103
1266.20 284.6662
1266.30 284.0748
1266.40 283.8871
1266.50 284.1734
1266.60 285.1079
1266.70 286.1107
1266.80 287.0178
1266.90 288.0642
1267.00 289.1983
1267.10 291.2643
1267.20 293.2988
1267.30 295.2897
1267.40 296.916
1267.50 298.374
1267.60 299.5534
1267.70 300.6497
1267.80 301.6781
1267.90 302.036
1268.00 301.6903
1268.10 299.9727
1268.20 297.8814
1268.30 295.7003
1268.40 293.9545
1268.50 292.2052
1268.60 290.4524
1268.70 289.8368
1268.80 289.6034
1268.90 289.9158
1269.00 290.9271
1269.10 292.3268
1269.20 293.6356
1269.30 294.2963
1269.40 294.0622
1269.50 293.3442
1269.60 292.2651
1269.70 290.0996
1269.80 287.9343
1269.90 285.7692
1270.00 283.7024
1270.10 281.7243
1270.20 279.8902
1270.30 278.7271
1270.40 278.0399
1270.50 278.827
1270.60 280.1348
1270.70 281.9428
1270.80 284.0518
1270.90 286.4989
1271.00 289.7479
1271.10 292.6516
1271.20 295.4018
1271.30 298.1774
1271.40 300.1674
1271.50 301.2349
1271.60 301.2259
1271.70 301.0548
1271.80 301.0684
1271.90 300.3689
1272.00 299.2165
1272.10 298.3791
1272.20 297.7956
1272.30 297.6262
1272.40 297.276
1272.50 296.903
1272.60 296.6896
1272.70 296.1636
1272.80 295.382
1272.90 294.6163
1273.00 294.0346
1273.10 293.8238
1273.20 293.2843
1273.30 292.5842
1273.40 291.7077
1273.50 290.6652
1273.60 289.4355
1273.70 287.5634
1273.80 285.3325
1273.90 282.2876
1274.00 279.9575
1274.10 278.0216
1274.20 276.5379
1274.30 275.968
1274.40 276.66
1274.50 279.4544
1274.60 282.6649
1274.70 285.304
1274.80 288.6794
1274.90 292.6103
1275.00 294.6328
1275.10 295.8577
1275.20 295.6489
1275.30 295.9408
1275.40 296.282
1275.50 295.6951
1275.60 295.9271
1275.70 296.9151
1275.80 299.0134
1275.90 300.8735
1276.00 301.8145
1276.10 303.2645
1276.20 304.8866
1276.30 305.099
1276.40 304.1865
1276.50 301.8424
1276.60 299.8886
1276.70 298.0934
1276.80 296.6154
1276.90 296.2395
1277.00 296.5681
1277.10 298.3716
1277.20 299.9363
1277.30 301.0621
1277.40 302.8442
1277.50 304.6894
1277.60 305.778
1277.70 305.4498
1277.80 303.865
1277.90 300.9501
1278.00 297.7239
1278.10 294.0278
1278.20 291.3892
1278.30 289.1629
1278.40 286.7124
1278.50 284.6917
1278.60 283.1367
1278.70 283.6712
1278.80 284.8728
1278.90 287.0552
1279.00 289.7922
1279.10 292.8337
1279.20 295.184
1279.30 297.8578
1279.40 301.0168
1279.50 303.4197
1279.60 305.289
1279.70 305.5884
1279.80 305.2434
1279.90 304.4121
1280.00 303.2033
1280.10 301.9827
1280.20 300.7772
1280.30 298.798
1280.40 296.5943
1280.50 294.8434
1280.60 293.0398
1280.70 291.1834
1280.80 289.8391
1280.90 288.5712
1281.00 287.3535
1281.10 286.3029
1281.20 285.398
1281.30 285.6994
1281.40 286.0111
1281.50 286.336
1281.60 286.9358
1281.70 287.5523
1281.80 288.0281
1281.90 288.7717
1282.00 289.6937
1282.10 291.1024
1282.20 292.4306
1282.30 293.6195
1282.40 294.5876
1282.50 295.4803
1282.60 296.3192
1282.70 296.7428
1282.80 296.8125
1282.90 296.3328
1283.00 295.8389
1283.10 295.4163
1283.20 295.1489
1283.30 294.9517
1283.40 294.7928
1283.50 294.4789
1283.60 293.9903
1283.70 293.4857
1283.80 293.0582
1283.90 292.8699
1284.00 292.5751
1284.10 292.2202
1284.20 291.8473
1284.30 291.8842
1284.40 292.5109
1284.50 293.1069
1284.60 293.733
1284.70 294.5203
1284.80 295.5578
1284.90 296.7842
1285.00 297.127
1285.10 297.4147
1285.20 297.6682
1285.30 296.8171
1285.40 295.3157
1285.50 291.8911
1285.60 288.4604
1285.70 285.0239
1285.80 280.956
1285.90 277.2005
1286.00 274.3816
1286.10 272.4573
1286.20 271.0678
1286.30 271.1545
1286.40 272.2395
1286.50 274.5448
1286.60 277.5898
1286.70 280.897
1286.80 284.5966
1286.90 287.7128
1287.00 290.4561
1287.10 294.2791
1287.20 297.3131
1287.30 299.0601
1287.40 298.8056
1287.50 297.7509
1287.60 295.633
1287.70 292.0631
1287.80 287.3054
1287.90 283.5997
1288.00 279.9935
1288.10 276.4304
1288.20 273.8949
1288.30 272.0591
1288.40 272.7428
1288.50 273.9591
1288.60 275.7524
1288.70 278.4751
1288.80 281.2009
1288.90 283.5405
1289.00 286.251
1289.10 289.1456
1289.20 291.5413
1289.30 293.6428
1289.40 295.3378
1289.50 295.9963
1289.60 296.1954
1289.70 295.53
1289.80 294.9666
1289.90 294.477
1290.00 291.9717
1290.10 289.7328
1290.20 288.0404
1290.30 287.008
1290.40 286.192
1290.50 285.3516
1290.60 284.9144
1290.70 284.8347
1290.80 284.6625
1290.90 284.7676
1291.00 285.5411
1291.10 285.9558
1291.20 286.1679
1291.30 285.9907
1291.40 286.1284
1291.50 286.6356
1291.60 286.8371
1291.70 287.116
1291.80 287.835
1291.90 288.6349
1292.00 289.4799
1292.10 290.0755
1292.20 291.1009
1292.30 292.7708
1292.40 293.314
1292.50 293.4437
1292.60 293.1378
1292.70 292.4671
1292.80 291.5099
1292.90 288.8204
1293.00 286.6784
1293.10 285.7947
1293.20 284.5307
1293.30 283.1721
1293.40 282.1863
1293.50 282.5685
1293.60 284.2651
1293.70 285.9371
1293.80 287.6998
1293.90 289.7043
1294.00 291.1305
1294.10 292.2036
1294.20 292.4125
1294.30 292.8566
1294.40 293.5997
1294.50 293.5449
1294.60 293.3799
1294.70 293.4151
1294.80 294.5251
1294.90 296.3223
1295.00 296.7474
1295.10 296.8571
1295.20 296.4953
1295.30 295.2836
1295.40 293.4945
1295.50 290.0834
1295.60 287.17
1295.70 284.6806
1295.80 281.0093
1295.90 277.7942
1296.00 275.7624
1296.10 275.6553
1296.20 276.31
1296.30 276.7192
1296.40 277.735
1296.50 279.3821
1296.60 280.793
1296.70 282.1355
1296.80 283.3972
1296.90 284.6227
1297.00 285.7773
1297.10 285.719
1297.20 285.7121
1297.30 285.7763
1297.40 286.3442
1297.50 286.9426
1297.60 287.1997
1297.70 287.3598
1297.80 287.4525
1297.90 288.1145
1298.00 288.7699
1298.10 289.3839
1298.20 290.6127
1298.30 292.0702
1298.40 293.6
1298.50 294.8903
1298.60 295.9594
1298.70 298.634
1298.80 301.0498
1298.90 302.4904
1299.00 303.3087
1299.10 303.8109
1299.20 303.6547
1299.30 303.0191
1299.40 301.8432
1299.50 300.8125
1299.60 299.3286
1299.70 296.4086
1299.80 293.8552
1299.90 291.524
