# Version 2.1 - nm, norm@500 to 1, cut digits
# Wavelength(nm)  Flambda(ergs/cm^s/s/nm)
300.00 1.407461e-95
300.10 1.407461e-95
300.20 1.407461e-95
300.30 1.407461e-95
300.40 1.407461e-95
300.50 1.407461e-95
300.60 1.407461e-95
300.70 1.407461e-95
300.80 1.407461e-95
300.90 1.407461e-95
301.00 1.407461e-95
301.10 1.407461e-95
301.20 1.407461e-95
301.30 1.407461e-95
301.40 1.407461e-95
301.50 1.407461e-95
301.60 1.407461e-95
301.70 1.407461e-95
301.80 1.407461e-95
301.90 1.407461e-95
302.00 1.407461e-95
302.10 1.407461e-95
302.20 1.407461e-95
302.30 1.407461e-95
302.40 1.407461e-95
302.50 1.407461e-95
302.60 1.407461e-95
302.70 1.407461e-95
302.80 1.407461e-95
302.90 1.407461e-95
303.00 1.407461e-95
303.10 1.407461e-95
303.20 1.407461e-95
303.30 1.407461e-95
303.40 1.407461e-95
303.50 1.407461e-95
303.60 1.407461e-95
303.70 1.407461e-95
303.80 1.407461e-95
303.90 1.407461e-95
304.00 1.407461e-95
304.10 1.407461e-95
304.20 1.407461e-95
304.30 1.407461e-95
304.40 1.407461e-95
304.50 1.407461e-95
304.60 1.407461e-95
304.70 1.407461e-95
304.80 1.407461e-95
304.90 1.407461e-95
305.00 1.407461e-95
305.10 1.407461e-95
305.20 1.407461e-95
305.30 1.407461e-95
305.40 1.407461e-95
305.50 1.407461e-95
305.60 1.407461e-95
305.70 1.407461e-95
305.80 1.407461e-95
305.90 1.407461e-95
306.00 1.407461e-95
306.10 1.407461e-95
306.20 1.407461e-95
306.30 1.407461e-95
306.40 1.407461e-95
306.50 1.407461e-95
306.60 1.407461e-95
306.70 1.407461e-95
306.80 1.407461e-95
306.90 1.407461e-95
307.00 1.407461e-95
307.10 1.407461e-95
307.20 1.407461e-95
307.30 1.407461e-95
307.40 1.407461e-95
307.50 1.407461e-95
307.60 1.407461e-95
307.70 1.407461e-95
307.80 1.407461e-95
307.90 1.407461e-95
308.00 1.407461e-95
308.10 1.407461e-95
308.20 1.407461e-95
308.30 1.407461e-95
308.40 1.407461e-95
308.50 1.407461e-95
308.60 1.407461e-95
308.70 1.407461e-95
308.80 1.407461e-95
308.90 1.407461e-95
309.00 1.407461e-95
309.10 1.407461e-95
309.20 1.407461e-95
309.30 1.407461e-95
309.40 1.407461e-95
309.50 1.407461e-95
309.60 1.407461e-95
309.70 1.407461e-95
309.80 1.407461e-95
309.90 1.407461e-95
310.00 1.407461e-95
310.10 1.407461e-95
310.20 1.407461e-95
310.30 1.407461e-95
310.40 1.407461e-95
310.50 1.407461e-95
310.60 1.407461e-95
310.70 1.407461e-95
310.80 1.407461e-95
310.90 1.407461e-95
311.00 1.407461e-95
311.10 1.407461e-95
311.20 1.407461e-95
311.30 1.407461e-95
311.40 1.407461e-95
311.50 1.407461e-95
311.60 1.407461e-95
311.70 1.407461e-95
311.80 1.407461e-95
311.90 1.407461e-95
312.00 1.407461e-95
312.10 1.407461e-95
312.20 1.407461e-95
312.30 1.407461e-95
312.40 1.407461e-95
312.50 1.407461e-95
312.60 1.407461e-95
312.70 1.407461e-95
312.80 1.407461e-95
312.90 1.407461e-95
313.00 1.407461e-95
313.10 1.407461e-95
313.20 1.407461e-95
313.30 1.407461e-95
313.40 1.407461e-95
313.50 1.407461e-95
313.60 1.407461e-95
313.70 1.407461e-95
313.80 1.407461e-95
313.90 1.407461e-95
314.00 1.407461e-95
314.10 1.407461e-95
314.20 1.407461e-95
314.30 1.407461e-95
314.40 1.407461e-95
314.50 1.407461e-95
314.60 1.407461e-95
314.70 1.407461e-95
314.80 1.407461e-95
314.90 1.407461e-95
315.00 1.407461e-95
315.10 1.407461e-95
315.20 1.407461e-95
315.30 1.407461e-95
315.40 1.407461e-95
315.50 1.407461e-95
315.60 1.407461e-95
315.70 1.407461e-95
315.80 1.407461e-95
315.90 1.407461e-95
316.00 1.407461e-95
316.10 1.407461e-95
316.20 1.407461e-95
316.30 1.407461e-95
316.40 1.407461e-95
316.50 1.407461e-95
316.60 1.407461e-95
316.70 1.407461e-95
316.80 1.407461e-95
316.90 1.407461e-95
317.00 1.407461e-95
317.10 1.407461e-95
317.20 1.407461e-95
317.30 1.407461e-95
317.40 1.407461e-95
317.50 1.407461e-95
317.60 1.407461e-95
317.70 1.407461e-95
317.80 1.407461e-95
317.90 1.407461e-95
318.00 1.407461e-95
318.10 1.407461e-95
318.20 1.407461e-95
318.30 1.407461e-95
318.40 1.407461e-95
318.50 1.407461e-95
318.60 1.407461e-95
318.70 1.407461e-95
318.80 1.407461e-95
318.90 1.407461e-95
319.00 1.407461e-95
319.10 1.407461e-95
319.20 1.407461e-95
319.30 1.407461e-95
319.40 1.407461e-95
319.50 1.407461e-95
319.60 1.407461e-95
319.70 1.407461e-95
319.80 1.407461e-95
319.90 1.407461e-95
320.00 1.407461e-95
320.10 1.407461e-95
320.20 1.407461e-95
320.30 1.407461e-95
320.40 1.407461e-95
320.50 1.407461e-95
320.60 1.407461e-95
320.70 1.407461e-95
320.80 1.407461e-95
320.90 1.407461e-95
321.00 1.407461e-95
321.10 1.407461e-95
321.20 1.407461e-95
321.30 1.407461e-95
321.40 1.407461e-95
321.50 1.407461e-95
321.60 1.407461e-95
321.70 1.407461e-95
321.80 1.407461e-95
321.90 1.407461e-95
322.00 1.407461e-95
322.10 1.407461e-95
322.20 1.407461e-95
322.30 1.407461e-95
322.40 1.407461e-95
322.50 1.407461e-95
322.60 1.407461e-95
322.70 1.407461e-95
322.80 1.407461e-95
322.90 1.407461e-95
323.00 1.407461e-95
323.10 1.407461e-95
323.20 1.407461e-95
323.30 1.407461e-95
323.40 1.407461e-95
323.50 1.407461e-95
323.60 1.407461e-95
323.70 1.407461e-95
323.80 1.407461e-95
323.90 1.407461e-95
324.00 1.407461e-95
324.10 1.407461e-95
324.20 1.407461e-95
324.30 1.407461e-95
324.40 1.407461e-95
324.50 1.407461e-95
324.60 1.407461e-95
324.70 1.407461e-95
324.80 1.407461e-95
324.90 1.407461e-95
325.00 1.407461e-95
325.10 1.407461e-95
325.20 1.407461e-95
325.30 1.407461e-95
325.40 1.407461e-95
325.50 1.407461e-95
325.60 1.407461e-95
325.70 1.407461e-95
325.80 1.407461e-95
325.90 1.407461e-95
326.00 1.407461e-95
326.10 1.407461e-95
326.20 1.407461e-95
326.30 1.407461e-95
326.40 1.407461e-95
326.50 1.407461e-95
326.60 1.407461e-95
326.70 1.407461e-95
326.80 1.407461e-95
326.90 1.407461e-95
327.00 1.407461e-95
327.10 1.407461e-95
327.20 1.407461e-95
327.30 1.407461e-95
327.40 1.407461e-95
327.50 1.407461e-95
327.60 1.407461e-95
327.70 1.407461e-95
327.80 1.407461e-95
327.90 1.407461e-95
328.00 1.407461e-95
328.10 1.407461e-95
328.20 1.407461e-95
328.30 1.407461e-95
328.40 1.407461e-95
328.50 1.407461e-95
328.60 1.407461e-95
328.70 1.407461e-95
328.80 1.407461e-95
328.90 1.407461e-95
329.00 1.407461e-95
329.10 1.407461e-95
329.20 1.407461e-95
329.30 1.407461e-95
329.40 1.407461e-95
329.50 1.407461e-95
329.60 1.407461e-95
329.70 1.407461e-95
329.80 1.407461e-95
329.90 1.407461e-95
330.00 1.407461e-95
330.10 1.407461e-95
330.20 1.407461e-95
330.30 1.407461e-95
330.40 1.407461e-95
330.50 1.407461e-95
330.60 1.407461e-95
330.70 1.407461e-95
330.80 1.407461e-95
330.90 1.407461e-95
331.00 1.407461e-95
331.10 1.407461e-95
331.20 1.407461e-95
331.30 1.407461e-95
331.40 1.407461e-95
331.50 1.407461e-95
331.60 1.407461e-95
331.70 1.407461e-95
331.80 1.407461e-95
331.90 1.407461e-95
332.00 1.407461e-95
332.10 1.407461e-95
332.20 1.407461e-95
332.30 1.407461e-95
332.40 1.407461e-95
332.50 1.407461e-95
332.60 1.407461e-95
332.70 1.407461e-95
332.80 1.407461e-95
332.90 1.407461e-95
333.00 1.407461e-95
333.10 1.407461e-95
333.20 1.407461e-95
333.30 1.407461e-95
333.40 1.407461e-95
333.50 1.407461e-95
333.60 1.407461e-95
333.70 1.407461e-95
333.80 1.407461e-95
333.90 1.407461e-95
334.00 1.407461e-95
334.10 1.407461e-95
334.20 1.407461e-95
334.30 1.407461e-95
334.40 1.407461e-95
334.50 1.407461e-95
334.60 1.407461e-95
334.70 1.407461e-95
334.80 1.407461e-95
334.90 1.407461e-95
335.00 1.407461e-95
335.10 1.407461e-95
335.20 1.407461e-95
335.30 1.407461e-95
335.40 1.407461e-95
335.50 1.407461e-95
335.60 1.407461e-95
335.70 1.407461e-95
335.80 1.407461e-95
335.90 1.407461e-95
336.00 1.407461e-95
336.10 1.407461e-95
336.20 1.407461e-95
336.30 1.407461e-95
336.40 1.407461e-95
336.50 1.407461e-95
336.60 1.407461e-95
336.70 1.407461e-95
336.80 1.407461e-95
336.90 1.407461e-95
337.00 1.407461e-95
337.10 1.407461e-95
337.20 1.407461e-95
337.30 1.407461e-95
337.40 1.407461e-95
337.50 1.407461e-95
337.60 1.407461e-95
337.70 1.407461e-95
337.80 1.407461e-95
337.90 1.407461e-95
338.00 1.407461e-95
338.10 1.407461e-95
338.20 1.407461e-95
338.30 1.407461e-95
338.40 1.407461e-95
338.50 1.407461e-95
338.60 1.407461e-95
338.70 1.407461e-95
338.80 1.407461e-95
338.90 1.407461e-95
339.00 1.407461e-95
339.10 1.407461e-95
339.20 1.407461e-95
339.30 1.407461e-95
339.40 1.407461e-95
339.50 1.407461e-95
339.60 1.407461e-95
339.70 1.407461e-95
339.80 1.407461e-95
339.90 1.407461e-95
340.00 1.407461e-95
340.10 1.407461e-95
340.20 1.407461e-95
340.30 1.407461e-95
340.40 1.407461e-95
340.50 1.407461e-95
340.60 1.407461e-95
340.70 1.407461e-95
340.80 1.407461e-95
340.90 1.407461e-95
341.00 1.407461e-95
341.10 1.407461e-95
341.20 1.407461e-95
341.30 1.407461e-95
341.40 1.407461e-95
341.50 1.407461e-95
341.60 1.407461e-95
341.70 1.407461e-95
341.80 1.407461e-95
341.90 1.407461e-95
342.00 1.407461e-95
342.10 1.407461e-95
342.20 1.407461e-95
342.30 1.407461e-95
342.40 1.407461e-95
342.50 1.407461e-95
342.60 1.407461e-95
342.70 1.407461e-95
342.80 1.407461e-95
342.90 1.407461e-95
343.00 1.407461e-95
343.10 1.407461e-95
343.20 1.407461e-95
343.30 1.407461e-95
343.40 1.407461e-95
343.50 1.407461e-95
343.60 1.407461e-95
343.70 1.407461e-95
343.80 1.407461e-95
343.90 1.407461e-95
344.00 1.407461e-95
344.10 1.407461e-95
344.20 1.407461e-95
344.30 1.407461e-95
344.40 1.407461e-95
344.50 1.407461e-95
344.60 1.407461e-95
344.70 1.407461e-95
344.80 1.407461e-95
344.90 1.407461e-95
345.00 1.407461e-95
345.10 1.407461e-95
345.20 1.407461e-95
345.30 1.407461e-95
345.40 1.407461e-95
345.50 1.407461e-95
345.60 1.407461e-95
345.70 1.407461e-95
345.80 1.407461e-95
345.90 1.407461e-95
346.00 1.407461e-95
346.10 1.407461e-95
346.20 1.407461e-95
346.30 1.407461e-95
346.40 1.407461e-95
346.50 1.407461e-95
346.60 1.407461e-95
346.70 1.407461e-95
346.80 1.407461e-95
346.90 1.407461e-95
347.00 1.407461e-95
347.10 1.407461e-95
347.20 1.407461e-95
347.30 1.407461e-95
347.40 1.407461e-95
347.50 1.407461e-95
347.60 1.407461e-95
347.70 1.407461e-95
347.80 1.407461e-95
347.90 1.407461e-95
348.00 1.407461e-95
348.10 1.407461e-95
348.20 1.407461e-95
348.30 1.407461e-95
348.40 1.407461e-95
348.50 1.407461e-95
348.60 1.407461e-95
348.70 1.407461e-95
348.80 1.407461e-95
348.90 1.407461e-95
349.00 1.407461e-95
349.10 1.407461e-95
349.20 1.407461e-95
349.30 1.407461e-95
349.40 1.407461e-95
349.50 1.407461e-95
349.60 1.407461e-95
349.70 1.407461e-95
349.80 1.407461e-95
349.90 1.407461e-95
350.00 1.407461e-95
350.10 1.407461e-95
350.20 1.407461e-95
350.30 1.407461e-95
350.40 1.407461e-95
350.50 1.407461e-95
350.60 1.407461e-95
350.70 1.407461e-95
350.80 1.407461e-95
350.90 1.407461e-95
351.00 1.407461e-95
351.10 1.407461e-95
351.20 1.407461e-95
351.30 1.407461e-95
351.40 1.407461e-95
351.50 1.407461e-95
351.60 1.407461e-95
351.70 1.407461e-95
351.80 1.407461e-95
351.90 1.407461e-95
352.00 1.407461e-95
352.10 1.407461e-95
352.20 1.407461e-95
352.30 1.407461e-95
352.40 1.407461e-95
352.50 1.407461e-95
352.60 1.407461e-95
352.70 1.407461e-95
352.80 1.407461e-95
352.90 1.407461e-95
353.00 1.407461e-95
353.10 1.407461e-95
353.20 1.407461e-95
353.30 1.407461e-95
353.40 1.407461e-95
353.50 1.407461e-95
353.60 1.407461e-95
353.70 1.407461e-95
353.80 1.407461e-95
353.90 1.407461e-95
354.00 1.407461e-95
354.10 1.407461e-95
354.20 1.407461e-95
354.30 1.407461e-95
354.40 1.407461e-95
354.50 1.407461e-95
354.60 1.407461e-95
354.70 1.407461e-95
354.80 1.407461e-95
354.90 1.407461e-95
355.00 1.407461e-95
355.10 1.407461e-95
355.20 1.407461e-95
355.30 1.407461e-95
355.40 1.407461e-95
355.50 1.407461e-95
355.60 1.407461e-95
355.70 1.407461e-95
355.80 1.407461e-95
355.90 1.407461e-95
356.00 1.407461e-95
356.10 1.407461e-95
356.20 1.407461e-95
356.30 1.407461e-95
356.40 1.407461e-95
356.50 1.407461e-95
356.60 1.407461e-95
356.70 1.407461e-95
356.80 1.407461e-95
356.90 1.407461e-95
357.00 1.407461e-95
357.10 1.407461e-95
357.20 1.407461e-95
357.30 1.407461e-95
357.40 1.407461e-95
357.50 1.407461e-95
357.60 1.407461e-95
357.70 1.407461e-95
357.80 1.407461e-95
357.90 1.407461e-95
358.00 1.407461e-95
358.10 1.407461e-95
358.20 1.407461e-95
358.30 1.407461e-95
358.40 1.407461e-95
358.50 1.407461e-95
358.60 1.407461e-95
358.70 1.407461e-95
358.80 1.407461e-95
358.90 1.407461e-95
359.00 1.407461e-95
359.10 1.407461e-95
359.20 1.407461e-95
359.30 1.407461e-95
359.40 1.407461e-95
359.50 1.407461e-95
359.60 1.407461e-95
359.70 1.407461e-95
359.80 1.407461e-95
359.90 1.407461e-95
360.00 1.407461e-95
360.10 1.407461e-95
360.20 1.407461e-95
360.30 1.407461e-95
360.40 1.407461e-95
360.50 1.407461e-95
360.60 1.407461e-95
360.70 1.407461e-95
360.80 1.407461e-95
360.90 1.407461e-95
361.00 1.407461e-95
361.10 1.407461e-95
361.20 1.407461e-95
361.30 1.407461e-95
361.40 1.407461e-95
361.50 1.407461e-95
361.60 1.407461e-95
361.70 1.407461e-95
361.80 1.407461e-95
361.90 1.407461e-95
362.00 1.407461e-95
362.10 1.407461e-95
362.20 1.407461e-95
362.30 1.407461e-95
362.40 1.407461e-95
362.50 1.407461e-95
362.60 1.407461e-95
362.70 1.407461e-95
362.80 1.407461e-95
362.90 1.407461e-95
363.00 1.407461e-95
363.10 1.407461e-95
363.20 1.407461e-95
363.30 1.407461e-95
363.40 1.407461e-95
363.50 1.407461e-95
363.60 1.407461e-95
363.70 1.407461e-95
363.80 1.407461e-95
363.90 1.407461e-95
364.00 1.407461e-95
364.10 1.407461e-95
364.20 1.407461e-95
364.30 1.407461e-95
364.40 1.407461e-95
364.50 1.407461e-95
364.60 1.407461e-95
364.70 1.407461e-95
364.80 1.407461e-95
364.90 1.407461e-95
365.00 1.407461e-95
365.10 1.407461e-95
365.20 1.407461e-95
365.30 1.407461e-95
365.40 1.407461e-95
365.50 1.407461e-95
365.60 1.407461e-95
365.70 1.407461e-95
365.80 1.407461e-95
365.90 1.407461e-95
366.00 1.407461e-95
366.10 1.407461e-95
366.20 1.407461e-95
366.30 1.407461e-95
366.40 1.407461e-95
366.50 1.407461e-95
366.60 1.407461e-95
366.70 1.407461e-95
366.80 1.407461e-95
366.90 1.407461e-95
367.00 1.407461e-95
367.10 1.407461e-95
367.20 1.407461e-95
367.30 1.407461e-95
367.40 1.407461e-95
367.50 1.407461e-95
367.60 1.407461e-95
367.70 1.407461e-95
367.80 1.407461e-95
367.90 1.407461e-95
368.00 1.407461e-95
368.10 1.407461e-95
368.20 1.407461e-95
368.30 1.407461e-95
368.40 1.407461e-95
368.50 1.407461e-95
368.60 1.407461e-95
368.70 1.407461e-95
368.80 1.407461e-95
368.90 1.407461e-95
369.00 1.407461e-95
369.10 1.407461e-95
369.20 1.407461e-95
369.30 1.407461e-95
369.40 1.407461e-95
369.50 1.407461e-95
369.60 1.407461e-95
369.70 1.407461e-95
369.80 1.407461e-95
369.90 1.407461e-95
370.00 1.407461e-95
370.10 1.407461e-95
370.20 1.407461e-95
370.30 1.407461e-95
370.40 1.407461e-95
370.50 1.407461e-95
370.60 1.407461e-95
370.70 1.407461e-95
370.80 1.407461e-95
370.90 1.407461e-95
371.00 1.407461e-95
371.10 1.407461e-95
371.20 1.407461e-95
371.30 1.407461e-95
371.40 1.407461e-95
371.50 1.407461e-95
371.60 1.407461e-95
371.70 1.407461e-95
371.80 1.407461e-95
371.90 1.407461e-95
372.00 1.407461e-95
372.10 1.407461e-95
372.20 1.407461e-95
372.30 1.407461e-95
372.40 1.407461e-95
372.50 1.407461e-95
372.60 1.407461e-95
372.70 1.407461e-95
372.80 1.407461e-95
372.90 1.407461e-95
373.00 1.407461e-95
373.10 1.407461e-95
373.20 1.407461e-95
373.30 1.407461e-95
373.40 1.407461e-95
373.50 1.407461e-95
373.60 1.407461e-95
373.70 1.407461e-95
373.80 1.407461e-95
373.90 1.407461e-95
374.00 1.407461e-95
374.10 1.407461e-95
374.20 1.407461e-95
374.30 1.407461e-95
374.40 1.407461e-95
374.50 1.407461e-95
374.60 1.407461e-95
374.70 1.407461e-95
374.80 1.407461e-95
374.90 1.407461e-95
375.00 1.407461e-95
375.10 1.407461e-95
375.20 1.407461e-95
375.30 1.407461e-95
375.40 1.407461e-95
375.50 1.407461e-95
375.60 1.407461e-95
375.70 1.407461e-95
375.80 1.407461e-95
375.90 1.407461e-95
376.00 1.407461e-95
376.10 1.407461e-95
376.20 1.407461e-95
376.30 1.407461e-95
376.40 1.407461e-95
376.50 1.407461e-95
376.60 1.407461e-95
376.70 1.407461e-95
376.80 1.407461e-95
376.90 1.407461e-95
377.00 1.407461e-95
377.10 1.407461e-95
377.20 1.407461e-95
377.30 1.407461e-95
377.40 1.407461e-95
377.50 1.407461e-95
377.60 1.407461e-95
377.70 1.407461e-95
377.80 1.407461e-95
377.90 1.407461e-95
378.00 1.407461e-95
378.10 1.407461e-95
378.20 1.407461e-95
378.30 1.407461e-95
378.40 1.407461e-95
378.50 1.407461e-95
378.60 1.407461e-95
378.70 1.407461e-95
378.80 1.407461e-95
378.90 1.407461e-95
379.00 1.407461e-95
379.10 1.407461e-95
379.20 1.407461e-95
379.30 1.407461e-95
379.40 1.407461e-95
379.50 1.407461e-95
379.60 1.407461e-95
379.70 1.407461e-95
379.80 1.407461e-95
379.90 1.407461e-95
380.00 1.407461e-95
380.10 1.407461e-95
380.20 1.407461e-95
380.30 1.407461e-95
380.40 1.407461e-95
380.50 1.407461e-95
380.60 1.407461e-95
380.70 1.407461e-95
380.80 1.407461e-95
380.90 1.407461e-95
381.00 1.407461e-95
381.10 1.407461e-95
381.20 1.407461e-95
381.30 1.407461e-95
381.40 1.407461e-95
381.50 1.407461e-95
381.60 1.407461e-95
381.70 1.407461e-95
381.80 1.407461e-95
381.90 1.407461e-95
382.00 1.407461e-95
382.10 1.407461e-95
382.20 1.407461e-95
382.30 1.407461e-95
382.40 1.407461e-95
382.50 1.407461e-95
382.60 1.407461e-95
382.70 1.407461e-95
382.80 1.407461e-95
382.90 1.407461e-95
383.00 1.407461e-95
383.10 1.407461e-95
383.20 1.407461e-95
383.30 1.407461e-95
383.40 1.407461e-95
383.50 1.407461e-95
383.60 1.407461e-95
383.70 1.407461e-95
383.80 1.407461e-95
383.90 1.407461e-95
384.00 1.407461e-95
384.10 1.407461e-95
384.20 1.407461e-95
384.30 1.407461e-95
384.40 1.407461e-95
384.50 1.407461e-95
384.60 1.407461e-95
384.70 1.407461e-95
384.80 1.407461e-95
384.90 1.407461e-95
385.00 1.407461e-95
385.10 1.407461e-95
385.20 1.407461e-95
385.30 1.407461e-95
385.40 1.407461e-95
385.50 1.407461e-95
385.60 1.407461e-95
385.70 1.407461e-95
385.80 1.407461e-95
385.90 1.407461e-95
386.00 1.407461e-95
386.10 1.407461e-95
386.20 1.407461e-95
386.30 1.407461e-95
386.40 1.407461e-95
386.50 1.407461e-95
386.60 1.407461e-95
386.70 1.407461e-95
386.80 1.407461e-95
386.90 1.407461e-95
387.00 1.407461e-95
387.10 1.407461e-95
387.20 1.407461e-95
387.30 1.407461e-95
387.40 1.407461e-95
387.50 1.407461e-95
387.60 1.407461e-95
387.70 1.407461e-95
387.80 1.407461e-95
387.90 1.407461e-95
388.00 1.407461e-95
388.10 1.407461e-95
388.20 1.407461e-95
388.30 1.407461e-95
388.40 1.407461e-95
388.50 1.407461e-95
388.60 1.407461e-95
388.70 1.407461e-95
388.80 1.407461e-95
388.90 1.407461e-95
389.00 1.407461e-95
389.10 1.407461e-95
389.20 1.407461e-95
389.30 1.407461e-95
389.40 1.407461e-95
389.50 1.407461e-95
389.60 1.407461e-95
389.70 1.407461e-95
389.80 1.407461e-95
389.90 1.407461e-95
390.00 1.407461e-95
390.10 1.407461e-95
390.20 1.407461e-95
390.30 1.407461e-95
390.40 1.407461e-95
390.50 1.407461e-95
390.60 1.407461e-95
390.70 1.407461e-95
390.80 1.407461e-95
390.90 1.407461e-95
391.00 1.407461e-95
391.10 1.407461e-95
391.20 1.407461e-95
391.30 1.407461e-95
391.40 1.407461e-95
391.50 1.407461e-95
391.60 1.407461e-95
391.70 1.407461e-95
391.80 1.407461e-95
391.90 1.407461e-95
392.00 1.407461e-95
392.10 1.407461e-95
392.20 1.407461e-95
392.30 1.407461e-95
392.40 1.407461e-95
392.50 1.407461e-95
392.60 1.407461e-95
392.70 1.407461e-95
392.80 1.407461e-95
392.90 1.407461e-95
393.00 1.407461e-95
393.10 1.407461e-95
393.20 1.407461e-95
393.30 1.407461e-95
393.40 1.407461e-95
393.50 1.407461e-95
393.60 1.407461e-95
393.70 1.407461e-95
393.80 1.407461e-95
393.90 1.407461e-95
394.00 1.407461e-95
394.10 1.407461e-95
394.20 1.407461e-95
394.30 1.407461e-95
394.40 1.407461e-95
394.50 1.407461e-95
394.60 1.407461e-95
394.70 1.407461e-95
394.80 1.407461e-95
394.90 1.407461e-95
395.00 0.005234514
395.10 0.009945428
395.20 0.01447188
395.30 0.01917428
395.40 0.02452899
395.50 0.03103598
395.60 0.03890579
395.70 0.0480113
395.80 0.05795883
395.90 0.06835735
396.00 0.07895229
396.10 0.08939213
396.20 0.09923797
396.30 0.1080309
396.40 0.1154049
396.50 0.1211773
396.60 0.1253125
396.70 0.1279813
396.80 0.1294775
396.90 0.1301329
397.00 0.1304438
397.10 0.1311221
397.20 0.1328711
397.30 0.1359211
397.40 0.140071
397.50 0.145051
397.60 0.1505846
397.70 0.1564052
397.80 0.1622726
397.90 0.1680012
398.00 0.1734955
398.10 0.1787193
398.20 0.1837681
398.30 0.188921
398.40 0.1944516
398.50 0.2005226
398.60 0.2072023
398.70 0.2143727
398.80 0.2217294
398.90 0.2289633
399.00 0.2358033
399.10 0.2420589
399.20 0.2476934
399.30 0.2527769
399.40 0.2574425
399.50 0.2619428
399.60 0.266533
399.70 0.2712395
399.80 0.2759421
399.90 0.2804263
400.00 0.2844617
400.10 0.2881066
400.20 0.2916651
400.30 0.2954699
400.40 0.2998341
400.50 0.3049662
400.60 0.310855
400.70 0.3172918
400.80 0.32391
400.90 0.3301521
401.00 0.3354728
401.10 0.3395561
401.20 0.3423494
401.30 0.3440313
401.40 0.3447381
401.50 0.3447381
401.60 0.3447381
401.70 0.3447381
401.80 0.3447381
401.90 0.3447381
402.00 0.3447381
402.10 0.3451823
402.20 0.3469621
402.30 0.3501765
402.40 0.35463
402.50 0.3598654
402.60 0.3652609
402.70 0.370207
402.80 0.3745553
402.90 0.3786776
403.00 0.3829537
403.10 0.3873821
403.20 0.3916673
403.30 0.3955751
403.40 0.39905
403.50 0.4021536
403.60 0.4049063
403.70 0.4072972
403.80 0.4094532
403.90 0.4116922
404.00 0.4145089
404.10 0.418408
404.20 0.4236588
404.30 0.4302019
404.40 0.437717
404.50 0.4457759
404.60 0.4539117
404.70 0.4616241
404.80 0.4685434
404.90 0.4744518
405.00 0.4740252
405.10 0.473165
405.20 0.471869
405.30 0.4701476
405.40 0.4677594
405.50 0.4642602
405.60 0.4594035
405.70 0.4532456
405.80 0.4461702
405.90 0.4386631
406.00 0.4310805
406.10 0.4238425
406.20 0.4174429
406.30 0.4124901
406.40 0.4095096
406.50 0.4086706
406.60 0.4098828
406.70 0.4128699
406.80 0.4172557
406.90 0.422509
407.00 0.4278241
407.10 0.4322069
407.20 0.4347843
407.30 0.4353471
407.40 0.4343296
407.50 0.4323001
407.60 0.4297066
407.70 0.4266897
407.80 0.4232342
407.90 0.419305
408.00 0.4147821
408.10 0.4096636
408.20 0.4046148
408.30 0.3994619
408.40 0.3939313
408.50 0.3888637
408.60 0.3846066
408.70 0.3810733
408.80 0.3779796
408.90 0.3748721
409.00 0.3712652
409.10 0.3668097
409.20 0.3613424
409.30 0.356259
409.40 0.3515933
409.50 0.347093
409.60 0.3425028
409.70 0.3377963
409.80 0.3342417
409.90 0.332287
410.00 0.3318476
410.10 0.332504
410.20 0.3336913
410.30 0.3348922
410.40 0.3357254
410.50 0.3360473
410.60 0.3359537
410.70 0.3356545
410.80 0.3353463
410.90 0.3351761
411.00 0.3351335
411.10 0.3349941
411.20 0.3345944
411.30 0.3340944
411.40 0.3341612
411.50 0.335451
411.60 0.3380039
411.70 0.3423516
411.80 0.3487577
411.90 0.3570905
412.00 0.3669765
412.10 0.3775139
412.20 0.3873057
412.30 0.3958774
412.40 0.4032288
412.50 0.4096965
412.60 0.4157641
412.70 0.4218953
412.80 0.428148
412.90 0.4341052
413.00 0.4393403
413.10 0.4437891
413.20 0.4476682
413.30 0.4511773
413.40 0.4543362
413.50 0.4569871
413.60 0.4590744
413.70 0.4607775
413.80 0.4623334
413.90 0.4638731
414.00 0.465238
414.10 0.465992
414.20 0.4656938
414.30 0.464039
414.40 0.4609118
414.50 0.4563682
414.60 0.4505469
414.70 0.4437645
414.80 0.4368451
414.90 0.4309367
415.00 0.4261288
415.10 0.4222781
415.20 0.419148
415.30 0.4176976
415.40 0.4177596
415.50 0.4189962
415.60 0.4209739
415.70 0.4232811
415.80 0.4255654
415.90 0.4275923
416.00 0.4293704
416.10 0.4309812
416.20 0.4323972
416.30 0.4334087
416.40 0.4336302
416.50 0.4326961
416.60 0.4303607
416.70 0.4265231
416.80 0.4214027
416.90 0.4157967
417.00 0.4109829
417.10 0.4082757
417.20 0.4085917
417.30 0.4121036
417.40 0.4182191
417.50 0.4259236
417.60 0.4340679
417.70 0.4416816
417.80 0.4482563
417.90 0.4538039
418.00 0.4587355
418.10 0.4635666
418.20 0.4682136
418.30 0.4732855
418.40 0.4793308
418.50 0.485636
418.60 0.4917889
418.70 0.4977246
418.80 0.5036042
418.90 0.5097585
419.00 0.5165935
419.10 0.5243176
419.20 0.532726
419.30 0.5399155
419.40 0.5454917
419.50 0.5495908
419.60 0.5525899
419.70 0.5549813
419.80 0.5561346
419.90 0.5561988
420.00 0.5556463
420.10 0.5548485
420.20 0.5540035
420.30 0.5530928
420.40 0.5519516
420.50 0.5504303
420.60 0.5485608
420.70 0.5467786
420.80 0.5457638
420.90 0.5462575
421.00 0.5489802
421.10 0.5542106
421.20 0.5614818
421.30 0.5698151
421.40 0.5781187
421.50 0.5854563
421.60 0.5911396
421.70 0.5947711
421.80 0.5962545
421.90 0.5958618
422.00 0.5940491
422.10 0.5911258
422.20 0.5872922
422.30 0.5826211
422.40 0.5770071
422.50 0.5705314
422.60 0.5636282
422.70 0.5568302
422.80 0.5504848
422.90 0.5447216
423.00 0.5396263
423.10 0.5353156
423.20 0.5318741
423.30 0.5291673
423.40 0.5269435
423.50 0.5250775
423.60 0.523491
423.70 0.5220394
423.80 0.5205508
423.90 0.5188195
424.00 0.5166908
424.10 0.5141742
424.20 0.5114309
424.30 0.508801
424.40 0.5066779
424.50 0.5053441
424.60 0.5050788
424.70 0.5060905
424.80 0.5079997
424.90 0.5100394
425.00 0.5124044
425.10 0.5151942
425.20 0.5182494
425.30 0.5200882
425.40 0.5205359
425.50 0.5198713
425.60 0.518677
425.70 0.5175425
425.80 0.5167142
425.90 0.5160259
426.00 0.5150914
426.10 0.5136188
426.20 0.5116189
426.30 0.5093356
426.40 0.5072565
426.50 0.5060401
426.60 0.506293
426.70 0.5084452
426.80 0.5124892
426.90 0.5177252
427.00 0.5228889
427.10 0.5265945
427.20 0.5278527
427.30 0.5263603
427.40 0.5223747
427.50 0.516539
427.60 0.5098205
427.70 0.503315
427.80 0.497891
427.90 0.493944
428.00 0.4914692
428.10 0.490092
428.20 0.4891544
428.30 0.4880399
428.40 0.4862582
428.50 0.483417
428.60 0.4793556
428.70 0.4742378
428.80 0.4684651
428.90 0.4625825
429.00 0.457109
429.10 0.4524105
429.20 0.4487397
429.30 0.4462711
429.40 0.4450238
429.50 0.4447538
429.60 0.4449736
429.70 0.4450844
429.80 0.4446222
429.90 0.4434995
430.00 0.4420811
430.10 0.4408532
430.20 0.44022
430.30 0.440354
430.40 0.4410557
430.50 0.4418729
430.60 0.4421439
430.70 0.4410675
430.80 0.4380043
430.90 0.4327283
431.00 0.4254643
431.10 0.4170529
431.20 0.408759
431.30 0.4016606
431.40 0.3961663
431.50 0.3921211
431.60 0.3890423
431.70 0.3863291
431.80 0.3834185
431.90 0.379844
432.00 0.375379
432.10 0.3701712
432.20 0.3646542
432.30 0.3593134
432.40 0.3547063
432.50 0.3512231
432.60 0.3489144
432.70 0.3476088
432.80 0.3470392
432.90 0.3469167
433.00 0.3469609
433.10 0.3469077
433.20 0.3466517
433.30 0.3463715
433.40 0.3464277
433.50 0.3471601
433.60 0.3488053
433.70 0.3514721
433.80 0.3549541
433.90 0.3586963
434.00 0.3620038
434.10 0.3643261
434.20 0.3654558
434.30 0.3655473
434.40 0.3650405
434.50 0.3645443
434.60 0.3645775
434.70 0.3654364
434.80 0.3671254
434.90 0.3692578
435.00 0.371243
435.10 0.3725586
435.20 0.3729547
435.30 0.372538
435.40 0.3716631
435.50 0.3708014
435.60 0.3702747
435.70 0.3701157
435.80 0.3702673
435.90 0.3706458
436.00 0.3711099
436.10 0.371501
436.20 0.3716041
436.30 0.371167
436.40 0.3699647
436.50 0.3678567
436.60 0.3648327
436.70 0.3609829
436.80 0.3565092
436.90 0.3516724
437.00 0.3468279
437.10 0.3424237
437.20 0.3387674
437.30 0.3358348
437.40 0.3333303
437.50 0.3308626
437.60 0.3281253
437.70 0.3250704
437.80 0.3218221
437.90 0.3186521
438.00 0.3159551
438.10 0.3141152
438.20 0.313386
438.30 0.3138107
438.40 0.315317
438.50 0.3178099
438.60 0.3210635
438.70 0.3247776
438.80 0.328631
438.90 0.3320878
439.00 0.3345065
439.10 0.335486
439.20 0.3350817
439.30 0.3337338
439.40 0.33198
439.50 0.330351
439.60 0.3294459
439.70 0.329779
439.80 0.3314848
439.90 0.3342308
440.00 0.3373687
440.10 0.3402007
440.20 0.3421523
440.30 0.3430826
440.40 0.3433094
440.50 0.343339
440.60 0.3437117
440.70 0.344793
440.80 0.3467707
440.90 0.3496504
441.00 0.3531748
441.10 0.3568835
441.20 0.3603437
441.30 0.3633304
441.40 0.3658477
441.50 0.3680847
441.60 0.3704278
441.70 0.3731641
441.80 0.3764409
441.90 0.3803311
442.00 0.3847808
442.10 0.3896763
442.20 0.3948906
442.30 0.4003534
442.40 0.4058868
442.50 0.4111928
442.60 0.4159572
442.70 0.419955
442.80 0.4231988
442.90 0.4258484
443.00 0.4280386
443.10 0.4299711
443.20 0.4318255
443.30 0.4336719
443.40 0.4354814
443.50 0.4371604
443.60 0.4385078
443.70 0.4392032
443.80 0.4391468
443.90 0.4385997
444.00 0.4380005
444.10 0.4376863
444.20 0.4376983
444.30 0.4378261
444.40 0.4377478
444.50 0.4370431
444.60 0.4353724
444.70 0.4326862
444.80 0.4292387
444.90 0.4255905
445.00 0.4224996
445.10 0.4207266
445.20 0.4207513
445.30 0.4226389
445.40 0.4260553
445.50 0.4303611
445.60 0.4349134
445.70 0.439266
445.80 0.4432379
445.90 0.4469544
446.00 0.4506694
446.10 0.4545381
446.20 0.4585987
446.30 0.4628723
446.40 0.4674154
446.50 0.4722323
446.60 0.4771862
446.70 0.4820067
446.80 0.4865121
446.90 0.4906825
447.00 0.4943857
447.10 0.4973804
447.20 0.4994661
447.30 0.5007224
447.40 0.5016333
447.50 0.5028781
447.60 0.5051315
447.70 0.5087224
447.80 0.5135276
447.90 0.5191248
448.00 0.5248996
448.10 0.5301328
448.20 0.534064
448.30 0.5361387
448.40 0.5362843
448.50 0.5348473
448.60 0.532474
448.70 0.5298554
448.80 0.5275861
448.90 0.5262448
449.00 0.5262775
449.10 0.5279502
449.20 0.5312781
449.30 0.5359291
449.40 0.5413433
449.50 0.5469532
449.60 0.5522092
449.70 0.5565602
449.80 0.5596879
449.90 0.5616375
450.00 0.5627155
450.10 0.5634714
450.20 0.5645108
450.30 0.5662672
450.40 0.5690293
450.50 0.5729206
450.60 0.5778537
450.70 0.5836056
450.80 0.5899492
450.90 0.5967016
451.00 0.6037706
451.10 0.6111281
451.20 0.618597
451.30 0.6258015
451.40 0.6323154
451.50 0.6377692
451.60 0.6419495
451.70 0.6449423
451.80 0.6470025
451.90 0.6484364
452.00 0.6496087
452.10 0.6508798
452.20 0.6524736
452.30 0.6544503
452.40 0.6568508
452.50 0.6596636
452.60 0.6627985
452.70 0.66609
452.80 0.6693033
452.90 0.6721976
453.00 0.6745955
453.10 0.6763518
453.20 0.677368
453.30 0.6776516
453.40 0.6773568
453.50 0.6768719
453.60 0.6768147
453.70 0.677817
453.80 0.6802106
453.90 0.684073
454.00 0.689406
454.10 0.6961628
454.20 0.7042569
454.30 0.7134819
454.40 0.7233787
454.50 0.7333591
454.60 0.7429164
454.70 0.7516372
454.80 0.759195
454.90 0.7652835
455.00 0.7695937
455.10 0.7719118
455.20 0.772214
455.30 0.7707557
455.40 0.7680202
455.50 0.7645715
455.60 0.7608791
455.70 0.7573107
455.80 0.7542365
455.90 0.751928
456.00 0.7504631
456.10 0.7498078
456.20 0.7499363
456.30 0.7508054
456.40 0.7522296
456.50 0.7539704
456.60 0.7559675
456.70 0.7582656
456.80 0.7607623
456.90 0.7633549
457.00 0.7662986
457.10 0.7701086
457.20 0.7752484
457.30 0.7819066
457.40 0.7899641
457.50 0.7990336
457.60 0.8084075
457.70 0.8172997
457.80 0.8251368
457.90 0.8315911
458.00 0.836547
458.10 0.8402081
458.20 0.8431723
458.30 0.8461327
458.40 0.8495072
458.50 0.8533573
458.60 0.8574974
458.70 0.8616437
458.80 0.8653823
458.90 0.8682582
459.00 0.8700355
459.10 0.8706833
459.20 0.8703256
459.30 0.8693151
459.40 0.8682174
459.50 0.8675481
459.60 0.8676418
459.70 0.8687281
459.80 0.8708588
459.90 0.8738687
460.00 0.8774872
460.10 0.8813694
460.20 0.8853025
460.30 0.8893057
460.40 0.8932725
460.50 0.8969024
460.60 0.8999323
460.70 0.9021281
460.80 0.9032054
460.90 0.9029509
461.00 0.9012838
461.10 0.8982929
461.20 0.8943505
461.30 0.8900564
461.40 0.8860248
461.50 0.8827229
461.60 0.880329
461.70 0.8786593
461.80 0.8774832
461.90 0.8767412
462.00 0.8764403
462.10 0.876655
462.20 0.8775072
462.30 0.8789992
462.40 0.880891
462.50 0.8828146
462.60 0.8843673
462.70 0.8850999
462.80 0.8846345
462.90 0.8828957
463.00 0.8802006
463.10 0.8771298
463.20 0.8743766
463.30 0.8726161
463.40 0.8723894
463.50 0.873794
463.60 0.8764212
463.70 0.8796197
463.80 0.8827196
463.90 0.8850924
464.00 0.8861333
464.10 0.8855074
464.20 0.8832258
464.30 0.8795061
464.40 0.8747579
464.50 0.8696854
464.60 0.8651471
464.70 0.861785
464.80 0.859928
464.90 0.8597675
465.00 0.8613249
465.10 0.864419
465.20 0.8688034
465.30 0.8740223
465.40 0.8795116
465.50 0.8848289
465.60 0.8897126
465.70 0.8940985
465.80 0.8980629
465.90 0.9017505
466.00 0.9052893
466.10 0.9087596
466.20 0.9121607
466.30 0.9154307
466.40 0.9185554
466.50 0.9215827
466.60 0.9245752
466.70 0.9277383
466.80 0.9312692
466.90 0.9351589
467.00 0.9392039
467.10 0.9429709
467.20 0.9459488
467.30 0.947717
467.40 0.9480264
467.50 0.9469231
467.60 0.9446756
467.70 0.94163
467.80 0.9381285
467.90 0.9344305
468.00 0.9307034
468.10 0.9270013
468.20 0.9233472
468.30 0.9197367
468.40 0.9161352
468.50 0.9126591
468.60 0.9094791
468.70 0.9066715
468.80 0.9043354
468.90 0.9025868
469.00 0.9015629
469.10 0.9014266
469.20 0.9022358
469.30 0.9039163
469.40 0.9062507
469.50 0.9090128
469.60 0.9121188
469.70 0.9155349
469.80 0.9192156
469.90 0.9231279
470.00 0.9272011
470.10 0.9312644
470.20 0.9349266
470.30 0.9376365
470.40 0.9390239
470.50 0.9390362
470.60 0.9378603
470.70 0.9358615
470.80 0.9334608
470.90 0.9309201
471.00 0.9282761
471.10 0.9254803
471.20 0.9224502
471.30 0.9190702
471.40 0.9153156
471.50 0.9112652
471.60 0.9070791
471.70 0.9030284
471.80 0.8992724
471.90 0.8956637
472.00 0.8918957
472.10 0.8876293
472.20 0.8826253
472.30 0.8769392
472.40 0.8709364
472.50 0.8650972
472.60 0.8599009
472.70 0.8558497
472.80 0.8533657
472.90 0.8526189
473.00 0.8534268
473.10 0.8552943
473.20 0.8576089
473.30 0.8598041
473.40 0.8613083
473.50 0.8615834
473.60 0.8602491
473.70 0.8571812
473.80 0.8525966
473.90 0.8470057
474.00 0.8411734
474.10 0.8358912
474.20 0.8317188
474.30 0.8290187
474.40 0.8281076
474.50 0.8290535
474.60 0.8313642
474.70 0.8342569
474.80 0.8370364
474.90 0.8391371
475.00 0.8402911
475.10 0.8404994
475.20 0.8397797
475.30 0.8382659
475.40 0.8361447
475.50 0.8334658
475.60 0.8302634
475.70 0.8266278
475.80 0.8225642
475.90 0.8180546
476.00 0.8132439
476.10 0.8083695
476.20 0.8036742
476.30 0.7994051
476.40 0.7956876
476.50 0.7924432
476.60 0.7893971
476.70 0.7861392
476.80 0.7823788
476.90 0.7780432
477.00 0.7730868
477.10 0.7675072
477.20 0.7614616
477.30 0.7552459
477.40 0.7492046
477.50 0.7435764
477.60 0.7384877
477.70 0.7340507
477.80 0.7304227
477.90 0.7279383
478.00 0.7271097
478.10 0.7283135
478.20 0.7315194
478.30 0.7363163
478.40 0.7420935
478.50 0.7481481
478.60 0.7537843
478.70 0.7583793
478.80 0.7615188
478.90 0.7631438
479.00 0.7634126
479.10 0.7625692
479.20 0.7608671
479.30 0.7583394
479.40 0.7547446
479.50 0.7497803
479.60 0.7432287
479.70 0.7351257
479.80 0.7258337
479.90 0.7157961
480.00 0.7053415
480.10 0.6947441
480.20 0.6842573
480.30 0.6741265
480.40 0.6647017
480.50 0.6563485
480.60 0.649474
480.70 0.6446869
480.80 0.6427304
480.90 0.6442715
481.00 0.6496176
481.10 0.658511
481.20 0.6701245
481.30 0.6833073
481.40 0.6968791
481.50 0.7097852
481.60 0.7211848
481.70 0.7305661
481.80 0.7378327
481.90 0.7433892
482.00 0.747911
482.10 0.7519773
482.20 0.7559682
482.30 0.7600463
482.40 0.7642576
482.50 0.7686187
482.60 0.7731153
482.70 0.7776499
482.80 0.7820558
482.90 0.786224
483.00 0.7901807
483.10 0.7939803
483.20 0.7975856
483.30 0.8009081
483.40 0.8038975
483.50 0.8066427
483.60 0.8093841
483.70 0.8124128
483.80 0.8159172
483.90 0.819947
484.00 0.8244034
484.10 0.8290414
484.20 0.8335662
484.30 0.8376371
484.40 0.8408048
484.50 0.8427112
484.60 0.8433961
484.70 0.8431996
484.80 0.8425593
484.90 0.8420187
485.00 0.8420463
485.10 0.842961
485.20 0.84507
485.30 0.8485591
485.40 0.8534217
485.50 0.8595592
485.60 0.8667905
485.70 0.8748037
485.80 0.8832211
485.90 0.8916302
486.00 0.899573
486.10 0.9066681
486.20 0.9126365
486.30 0.9172783
486.40 0.9206311
486.50 0.9230024
486.60 0.9248473
486.70 0.9266203
486.80 0.928725
486.90 0.9314222
487.00 0.9347653
487.10 0.9387577
487.20 0.9434453
487.30 0.9488456
487.40 0.9548465
487.50 0.9612973
487.60 0.9681699
487.70 0.975459
487.80 0.9830066
487.90 0.9903519
488.00 0.996782
488.10 1.001765
488.20 1.005117
488.30 1.006977
488.40 1.007811
488.50 1.008172
488.60 1.008591
488.70 1.009612
488.80 1.011701
488.90 1.015083
489.00 1.019631
489.10 1.024954
489.20 1.03059
489.30 1.036274
489.40 1.042121
489.50 1.048302
489.60 1.054791
489.70 1.061514
489.80 1.068313
489.90 1.075
490.00 1.081395
490.10 1.087383
490.20 1.092991
490.30 1.098245
490.40 1.103065
490.50 1.107255
490.60 1.110473
490.70 1.112184
490.80 1.111647
490.90 1.108138
491.00 1.101296
491.10 1.091123
491.20 1.078043
491.30 1.062928
491.40 1.046919
491.50 1.031215
491.60 1.016916
491.70 1.004908
491.80 0.9957671
491.90 0.9896639
492.00 0.9863004
492.10 0.985029
492.20 0.9849985
492.30 0.9852986
492.40 0.9850465
492.50 0.9836444
492.60 0.9809149
492.70 0.9770678
492.80 0.972622
492.90 0.9681605
493.00 0.9641408
493.10 0.9609151
493.20 0.9586971
493.30 0.9574479
493.40 0.9569745
493.50 0.9570027
493.60 0.9572364
493.70 0.9574906
493.80 0.9578082
493.90 0.9584153
494.00 0.9596212
494.10 0.9617329
494.20 0.9649268
494.30 0.9691845
494.40 0.9742991
494.50 0.9798029
494.60 0.9850457
494.70 0.9894277
494.80 0.9924511
494.90 0.9936934
495.00 0.992957
495.10 0.9903582
495.20 0.9862698
495.30 0.9811607
495.40 0.9754901
495.50 0.9696844
495.60 0.9640939
495.70 0.9590513
495.80 0.9549397
495.90 0.9521326
496.00 0.9508292
496.10 0.951042
496.20 0.952779
496.30 0.9560519
496.40 0.9607032
496.50 0.9664456
496.60 0.9728893
496.70 0.9795723
496.80 0.9860125
496.90 0.9918568
497.00 0.9969925
497.10 1.001351
497.20 1.004687
497.30 1.006679
497.40 1.007213
497.50 1.006407
497.60 1.004487
497.70 1.001869
497.80 0.999184
497.90 0.9970262
498.00 0.9957941
498.10 0.9955904
498.20 0.9962243
498.30 0.9972196
498.40 0.9979671
498.50 0.9980796
498.60 0.997496
498.70 0.9964089
498.80 0.9950938
498.90 0.993814
499.00 0.9928339
499.10 0.9923279
499.20 0.9923765
499.30 0.992985
499.40 0.9940074
499.50 0.9952928
499.60 0.9967405
499.70 0.9981587
499.80 0.9992854
499.90 0.9998997
500.00 1
500.10 0.9997552
500.20 0.9994606
500.30 0.999525
500.40 1.00036
500.50 1.002357
500.60 1.005754
500.70 1.010523
500.80 1.016466
500.90 1.023319
501.00 1.030886
501.10 1.039238
501.20 1.048597
501.30 1.05903
501.40 1.070343
501.50 1.08219
501.60 1.094121
501.70 1.105618
501.80 1.116128
501.90 1.125094
502.00 1.132171
502.10 1.13745
502.20 1.141428
502.30 1.144761
502.40 1.148068
502.50 1.151783
502.60 1.156082
502.70 1.160936
502.80 1.166069
502.90 1.171069
503.00 1.175525
503.10 1.179002
503.20 1.181183
503.30 1.182098
503.40 1.182062
503.50 1.181516
503.60 1.180998
503.70 1.181056
503.80 1.182038
503.90 1.183924
504.00 1.18631
504.10 1.188475
504.20 1.189665
504.30 1.189353
504.40 1.187369
504.50 1.184081
504.60 1.18032
504.70 1.177068
504.80 1.175219
504.90 1.175365
505.00 1.17756
505.10 1.18132
505.20 1.185766
505.30 1.189928
505.40 1.193044
505.50 1.194709
505.60 1.194899
505.70 1.19389
505.80 1.192098
505.90 1.189911
506.00 1.187681
506.10 1.185658
506.20 1.18393
506.30 1.182477
506.40 1.181268
506.50 1.180279
506.60 1.179535
506.70 1.179057
506.80 1.178828
506.90 1.178887
507.00 1.17937
507.10 1.180436
507.20 1.18222
507.30 1.184807
507.40 1.188106
507.50 1.191816
507.60 1.195549
507.70 1.198903
507.80 1.201503
507.90 1.203179
508.00 1.204055
508.10 1.204432
508.20 1.204758
508.30 1.205536
508.40 1.206995
508.50 1.208969
508.60 1.211138
508.70 1.213264
508.80 1.215261
508.90 1.217244
509.00 1.219488
509.10 1.222319
509.20 1.225939
509.30 1.23022
509.40 1.234747
509.50 1.239061
509.60 1.242802
509.70 1.24577
509.80 1.248089
509.90 1.250143
510.00 1.252294
510.10 1.254697
510.20 1.25728
510.30 1.259792
510.40 1.261844
510.50 1.263058
510.60 1.263372
510.70 1.263078
510.80 1.262643
510.90 1.262636
511.00 1.263461
511.10 1.265121
511.20 1.267173
511.30 1.269015
511.40 1.270137
511.50 1.270147
511.60 1.268889
511.70 1.266477
511.80 1.263247
511.90 1.259645
512.00 1.255973
512.10 1.252284
512.20 1.248473
512.30 1.244386
512.40 1.239943
512.50 1.235135
512.60 1.230034
512.70 1.224781
512.80 1.219563
512.90 1.214569
513.00 1.209947
513.10 1.205858
513.20 1.202447
513.30 1.199754
513.40 1.197773
513.50 1.196604
513.60 1.196342
513.70 1.196851
513.80 1.197761
513.90 1.198727
514.00 1.199558
514.10 1.200225
514.20 1.200886
514.30 1.201836
514.40 1.203354
514.50 1.205509
514.60 1.208105
514.70 1.210759
514.80 1.213034
514.90 1.214595
515.00 1.215359
515.10 1.215466
515.20 1.215203
515.30 1.214881
515.40 1.214772
515.50 1.214964
515.60 1.215206
515.70 1.215113
515.80 1.214421
515.90 1.213065
516.00 1.211238
516.10 1.209381
516.20 1.207977
516.30 1.207471
516.40 1.20817
516.50 1.210117
516.60 1.213096
516.70 1.216708
516.80 1.22049
516.90 1.224014
517.00 1.227004
517.10 1.229321
517.20 1.230941
517.30 1.232055
517.40 1.233047
517.50 1.234365
517.60 1.236416
517.70 1.239348
517.80 1.243008
517.90 1.24713
518.00 1.251461
518.10 1.255879
518.20 1.260289
518.30 1.264643
518.40 1.26908
518.50 1.273903
518.60 1.279377
518.70 1.285496
518.80 1.291984
518.90 1.298285
519.00 1.303703
519.10 1.307641
519.20 1.309765
519.30 1.310145
519.40 1.309186
519.50 1.307444
519.60 1.305581
519.70 1.30424
519.80 1.303839
519.90 1.304579
520.00 1.306502
520.10 1.309469
520.20 1.313166
520.30 1.317333
520.40 1.321894
520.50 1.32681
520.60 1.331888
520.70 1.336736
520.80 1.340937
520.90 1.344153
521.00 1.346224
521.10 1.347323
521.20 1.347994
521.30 1.348809
521.40 1.350165
521.50 1.352409
521.60 1.355764
521.70 1.360221
521.80 1.365591
521.90 1.371565
522.00 1.377931
522.10 1.384689
522.20 1.391899
522.30 1.39959
522.40 1.407719
522.50 1.416087
522.60 1.42433
522.70 1.432128
522.80 1.439427
522.90 1.446478
523.00 1.453727
523.10 1.461617
523.20 1.470384
523.30 1.48
523.40 1.490221
523.50 1.500554
523.60 1.510333
523.70 1.518938
523.80 1.525972
523.90 1.531322
524.00 1.535174
524.10 1.537997
524.20 1.540363
524.30 1.542816
524.40 1.545804
524.50 1.549574
524.60 1.554156
524.70 1.559476
524.80 1.565321
524.90 1.571317
525.00 1.577107
525.10 1.58252
525.20 1.587677
525.30 1.592975
525.40 1.598899
525.50 1.605873
525.60 1.614225
525.70 1.623914
525.80 1.634403
525.90 1.644906
526.00 1.654499
526.10 1.662258
526.20 1.667459
526.30 1.669698
526.40 1.668971
526.50 1.665645
526.60 1.660299
526.70 1.653699
526.80 1.646706
526.90 1.639987
527.00 1.633861
527.10 1.628447
527.20 1.623843
527.30 1.620024
527.40 1.616876
527.50 1.61427
527.60 1.612072
527.70 1.610202
527.80 1.608575
527.90 1.606978
528.00 1.605006
528.10 1.602112
528.20 1.597878
528.30 1.592263
528.40 1.585601
528.50 1.57842
528.60 1.571341
528.70 1.56499
528.80 1.559828
528.90 1.556092
529.00 1.553826
529.10 1.552845
529.20 1.552779
529.30 1.553273
529.40 1.554174
529.50 1.555473
529.60 1.557133
529.70 1.559071
529.80 1.561164
529.90 1.563199
530.00 1.564882
530.10 1.566061
530.20 1.566829
530.30 1.567287
530.40 1.567451
530.50 1.567443
530.60 1.567515
530.70 1.567945
530.80 1.568968
530.90 1.570701
531.00 1.573047
531.10 1.575618
531.20 1.57782
531.30 1.579229
531.40 1.579816
531.50 1.579771
531.60 1.579403
531.70 1.579097
531.80 1.579139
531.90 1.579622
532.00 1.580394
532.10 1.58103
532.20 1.580962
532.30 1.579726
532.40 1.57725
532.50 1.57402
532.60 1.570982
532.70 1.56914
532.80 1.569092
532.90 1.570867
533.00 1.574042
533.10 1.578013
533.20 1.582255
533.30 1.586407
533.40 1.590307
533.50 1.594039
533.60 1.597864
533.70 1.602089
533.80 1.60688
533.90 1.612245
534.00 1.618087
534.10 1.62419
534.20 1.630324
534.30 1.636295
534.40 1.642015
534.50 1.647605
534.60 1.653366
534.70 1.659622
534.80 1.666675
534.90 1.674841
535.00 1.684305
535.10 1.694948
535.20 1.706359
535.30 1.717892
535.40 1.728795
535.50 1.738446
535.60 1.74656
535.70 1.753335
535.80 1.759323
535.90 1.765124
536.00 1.771217
536.10 1.777958
536.20 1.785598
536.30 1.794136
536.40 1.803347
536.50 1.813044
536.60 1.823185
536.70 1.83372
536.80 1.844578
536.90 1.855731
537.00 1.867043
537.10 1.878198
537.20 1.888844
537.30 1.898712
537.40 1.907645
537.50 1.915557
537.60 1.922378
537.70 1.928192
537.80 1.933395
537.90 1.938592
538.00 1.944435
538.10 1.951545
538.20 1.960288
538.30 1.970566
538.40 1.98192
538.50 1.993632
538.60 2.004802
538.70 2.014588
538.80 2.022461
538.90 2.028281
539.00 2.03233
539.10 2.035264
539.20 2.037875
539.30 2.040835
539.40 2.044574
539.50 2.049237
539.60 2.054768
539.70 2.060928
539.80 2.067256
539.90 2.073226
540.00 2.078427
540.10 2.082598
540.20 2.085646
540.30 2.08776
540.40 2.089346
540.50 2.090683
540.60 2.09182
540.70 2.092739
540.80 2.093429
540.90 2.093857
541.00 2.094037
541.10 2.094158
541.20 2.094589
541.30 2.095674
541.40 2.097539
541.50 2.100056
541.60 2.102866
541.70 2.105436
541.80 2.107246
541.90 2.108125
542.00 2.108367
542.10 2.108568
542.20 2.109416
542.30 2.111392
542.40 2.114473
542.50 2.11821
542.60 2.121925
542.70 2.124852
542.80 2.126349
542.90 2.126027
543.00 2.123739
543.10 2.119577
543.20 2.11381
543.30 2.106711
543.40 2.098453
543.50 2.089152
543.60 2.078945
543.70 2.068177
543.80 2.057467
543.90 2.04734
544.00 2.038035
544.10 2.029663
544.20 2.022181
544.30 2.01527
544.40 2.008383
544.50 2.000851
544.60 1.991991
544.70 1.981372
544.80 1.96897
544.90 1.955091
545.00 1.940259
545.10 1.925124
545.20 1.910273
545.30 1.896088
545.40 1.882633
545.50 1.869608
545.60 1.85659
545.70 1.84327
545.80 1.829526
545.90 1.815449
546.00 1.801405
546.10 1.787837
546.20 1.775049
546.30 1.763155
546.40 1.752016
546.50 1.741231
546.60 1.730211
546.70 1.718434
546.80 1.705659
546.90 1.691938
547.00 1.677533
547.10 1.66267
547.20 1.647486
547.30 1.632174
547.40 1.616888
547.50 1.601802
547.60 1.587184
547.70 1.57328
547.80 1.560183
547.90 1.547786
548.00 1.535851
548.10 1.524074
548.20 1.512274
548.30 1.500466
548.40 1.488727
548.50 1.477195
548.60 1.466031
548.70 1.455225
548.80 1.444719
548.90 1.434486
549.00 1.424396
549.10 1.414204
549.20 1.403763
549.30 1.393092
549.40 1.382288
549.50 1.371461
549.60 1.360609
549.70 1.349642
549.80 1.338527
549.90 1.327381
550.00 1.230168
550.10 1.216668
550.20 1.202636
550.30 1.187736
550.40 1.171979
550.50 1.155758
550.60 1.13973
550.70 1.12424
550.80 1.109343
550.90 1.095151
551.00 1.081843
551.10 1.069345
551.20 1.057541
551.30 1.046752
551.40 1.037602
551.50 1.030812
551.60 1.026832
551.70 1.025292
551.80 1.025348
551.90 1.025993
552.00 1.026091
552.10 1.024682
552.20 1.021298
552.30 1.016163
552.40 1.010377
552.50 1.005654
552.60 1.003253
552.70 1.003191
552.80 1.004461
552.90 1.005779
553.00 1.006099
553.10 1.005006
553.20 1.002564
553.30 0.998931
553.40 0.9944202
553.50 0.9894897
553.60 0.9847299
553.70 0.9807766
553.80 0.9778739
553.90 0.9760281
554.00 0.9753641
554.10 0.9763341
554.20 0.9795365
554.30 0.9852845
554.40 0.9936513
554.50 1.004226
554.60 1.016356
554.70 1.029629
554.80 1.043765
554.90 1.058599
555.00 1.073941
555.10 1.089494
555.20 1.107695
555.30 1.135191
555.40 1.180098
555.50 1.248741
555.60 1.3436
555.70 1.462577
555.80 1.598541
555.90 1.740715
556.00 1.877058
556.10 1.996626
556.20 2.092032
556.30 2.161062
556.40 2.207006
556.50 2.237832
556.60 2.262083
556.70 2.285247
556.80 2.310015
556.90 2.337367
557.00 2.367157
557.10 2.398408
557.20 2.430098
557.30 2.461371
557.40 2.491485
557.50 2.520088
557.60 2.547115
557.70 2.572516
557.80 2.596122
557.90 2.61776
558.00 2.637698
558.10 2.656794
558.20 2.676242
558.30 2.697009
558.40 2.719436
558.50 2.743224
558.60 2.767384
558.70 2.790554
558.80 2.811536
558.90 2.829468
559.00 2.844015
559.10 2.855455
559.20 2.861987
559.30 2.85812
559.40 2.836914
559.50 2.792765
559.60 2.723391
559.70 2.630942
559.80 2.522351
559.90 2.407886
560.00 2.299137
560.10 2.206704
560.20 2.137452
560.30 2.092857
560.40 2.069122
560.50 2.058443
560.60 2.053199
560.70 2.049175
560.80 2.044647
560.90 2.039139
561.00 2.032981
561.10 2.026863
561.20 2.0211
561.30 2.016034
561.40 2.012194
561.50 2.00982
561.60 2.009017
561.70 2.01012
561.80 2.013601
561.90 2.019451
562.00 2.026866
562.10 2.034618
562.20 2.041646
562.30 2.047346
562.40 2.051401
562.50 2.053743
562.60 2.054709
562.70 2.054564
562.80 2.053233
562.90 2.05072
563.00 2.047245
563.10 2.043112
563.20 2.038356
563.30 2.0327
563.40 2.02618
563.50 2.019346
563.60 2.013054
563.70 2.008041
563.80 2.004408
563.90 2.001785
564.00 1.999654
564.10 1.997681
564.20 1.995999
564.30 1.995118
564.40 1.99577
564.50 1.998475
564.60 2.003237
564.70 2.009895
564.80 2.018258
564.90 2.027814
565.00 2.037599
565.10 2.046475
565.20 2.054243
565.30 2.061742
565.40 2.070086
565.50 2.080293
565.60 2.092799
565.70 2.107013
565.80 2.121498
565.90 2.134696
566.00 2.145496
566.10 2.153266
566.20 2.15752
566.30 2.157928
566.40 2.15467
566.50 2.148564
566.60 2.140682
566.70 2.132349
566.80 2.125032
566.90 2.119902
567.00 2.117742
567.10 2.118878
567.20 2.123117
567.30 2.129785
567.40 2.137776
567.50 2.145758
567.60 2.152625
567.70 2.158057
567.80 2.162838
567.90 2.168479
568.00 2.176348
568.10 2.186899
568.20 2.199662
568.30 2.213524
568.40 2.226732
568.50 2.237638
568.60 2.245338
568.70 2.249407
568.80 2.250024
568.90 2.248045
569.00 2.244808
569.10 2.241787
569.20 2.239406
569.30 2.236938
569.40 2.233584
569.50 2.228886
569.60 2.222976
569.70 2.216926
569.80 2.21265
569.90 2.211834
570.00 2.215146
570.10 2.222376
570.20 2.232489
570.30 2.24389
570.40 2.254962
570.50 2.264453
570.60 2.271938
570.70 2.277629
570.80 2.281867
570.90 2.284912
571.00 2.286784
571.10 2.287181
571.20 2.285562
571.30 2.281491
571.40 2.274688
571.50 2.264905
571.60 2.25217
571.70 2.236911
571.80 2.219838
571.90 2.201499
572.00 2.182328
572.10 2.163295
572.20 2.145715
572.30 2.130882
572.40 2.119829
572.50 2.112933
572.60 2.110024
572.70 2.110717
572.80 2.114352
572.90 2.119981
573.00 2.126324
573.10 2.131895
573.20 2.135685
573.30 2.137712
573.40 2.138442
573.50 2.138229
573.60 2.137189
573.70 2.134903
573.80 2.130545
573.90 2.123523
574.00 2.113955
574.10 2.102669
574.20 2.091302
574.30 2.082025
574.40 2.076923
574.50 2.077474
574.60 2.083943
574.70 2.095031
574.80 2.108534
574.90 2.122112
575.00 2.133787
575.10 2.142689
575.20 2.149262
575.30 2.154715
575.40 2.160495
575.50 2.167959
575.60 2.17798
575.70 2.190723
575.80 2.205628
575.90 2.221776
576.00 2.237997
576.10 2.252907
576.20 2.26532
576.30 2.274276
576.40 2.27928
576.50 2.280209
576.60 2.277121
576.70 2.270383
576.80 2.260794
576.90 2.249689
577.00 2.238679
577.10 2.229401
577.20 2.223067
577.30 2.219837
577.40 2.219177
577.50 2.22028
577.60 2.222056
577.70 2.223369
577.80 2.223367
577.90 2.221974
578.00 2.219779
578.10 2.217508
578.20 2.215809
578.30 2.215014
578.40 2.215043
578.50 2.215214
578.60 2.214573
578.70 2.212837
578.80 2.210209
578.90 2.207039
579.00 2.204067
579.10 2.202136
579.20 2.20157
579.30 2.202044
579.40 2.203018
579.50 2.203789
579.60 2.20301
579.70 2.199017
579.80 2.190571
579.90 2.177249
580.00 2.159551
580.10 2.138594
580.20 2.116136
580.30 2.094539
580.40 2.075997
580.50 2.062305
580.60 2.054944
580.70 2.054481
580.80 2.060043
580.90 2.06971
581.00 2.081365
581.10 2.093005
581.20 2.103009
581.30 2.110641
581.40 2.11612
581.50 2.120179
581.60 2.123773
581.70 2.127961
581.80 2.13361
581.90 2.140861
582.00 2.148865
582.10 2.156342
582.20 2.162187
582.30 2.165724
582.40 2.166911
582.50 2.166337
582.60 2.164653
582.70 2.162031
582.80 2.158433
582.90 2.153863
583.00 2.148022
583.10 2.140343
583.20 2.130566
583.30 2.118865
583.40 2.10567
583.50 2.092003
583.60 2.079563
583.70 2.070109
583.80 2.064654
583.90 2.063335
584.00 2.065904
584.10 2.07175
584.20 2.079422
584.30 2.086838
584.40 2.092052
584.50 2.093271
584.60 2.08862
584.70 2.076891
584.80 2.058227
584.90 2.033603
585.00 2.004503
585.10 1.972998
585.20 1.94138
585.30 1.911345
585.40 1.883444
585.50 1.857406
585.60 1.832569
585.70 1.808059
585.80 1.7829
585.90 1.756341
586.00 1.728199
586.10 1.698555
586.20 1.667356
586.30 1.634726
586.40 1.600682
586.50 1.565321
586.60 1.529731
586.70 1.495704
586.80 1.464934
586.90 1.438486
587.00 1.416725
587.10 1.399174
587.20 1.384772
587.30 1.372322
587.40 1.36054
587.50 1.348242
587.60 1.334731
587.70 1.319578
587.80 1.302709
587.90 1.284237
588.00 1.264026
588.10 1.242117
588.20 1.21909
588.30 1.196103
588.40 1.174694
588.50 1.156481
588.60 1.142463
588.70 1.132726
588.80 1.12697
588.90 1.124722
589.00 1.125149
589.10 1.126797
589.20 1.127957
589.30 1.127343
589.40 1.124183
589.50 1.118375
589.60 1.110768
589.70 1.102764
589.80 1.095667
589.90 1.090411
590.00 1.087757
590.10 1.088163
590.20 1.091295
590.30 1.095721
590.40 1.099576
590.50 1.101523
590.60 1.100529
590.70 1.096067
590.80 1.088764
590.90 1.080213
591.00 1.072428
591.10 1.067416
591.20 1.066567
591.30 1.0704
591.40 1.078302
591.50 1.088499
591.60 1.098946
591.70 1.108353
591.80 1.116474
591.90 1.123997
592.00 1.13236
592.10 1.142988
592.20 1.156734
592.30 1.17359
592.40 1.192604
592.50 1.212331
592.60 1.231784
592.70 1.250516
592.80 1.268332
592.90 1.285299
593.00 1.301518
593.10 1.317376
593.20 1.3333
593.30 1.349316
593.40 1.365576
593.50 1.382186
593.60 1.398838
593.70 1.41519
593.80 1.431146
593.90 1.446892
594.00 1.462704
594.10 1.478978
594.20 1.496318
594.30 1.515551
594.40 1.537461
594.50 1.561879
594.60 1.587756
594.70 1.613709
594.80 1.638202
594.90 1.660123
595.00 1.678993
595.10 1.694763
595.20 1.707876
595.30 1.719242
595.40 1.730141
595.50 1.742036
595.60 1.75603
595.70 1.772552
595.80 1.791315
595.90 1.81142
596.00 1.83144
596.10 1.84966
596.20 1.864573
596.30 1.875335
596.40 1.881885
596.50 1.884872
596.60 1.885418
596.70 1.884906
596.80 1.884639
596.90 1.88544
597.00 1.887758
597.10 1.891775
597.20 1.897465
597.30 1.904639
597.40 1.912985
597.50 1.922496
597.60 1.933281
597.70 1.94516
597.80 1.957884
597.90 1.971245
598.00 1.985023
598.10 1.998825
598.20 2.012184
598.30 2.02495
598.40 2.03727
598.50 2.049391
598.60 2.061747
598.70 2.074921
598.80 2.089107
598.90 2.103774
599.00 2.117872
599.10 2.130214
599.20 2.139661
599.30 2.145343
599.40 2.147
599.50 2.145155
599.60 2.141049
599.70 2.136169
599.80 2.131877
599.90 2.129341
600.00 2.393261
600.10 2.428997
600.20 2.446883
600.30 2.451185
600.40 2.4446
600.50 2.417242
600.60 2.372373
600.70 2.326321
600.80 2.286476
600.90 2.252596
601.00 2.221108
601.10 2.182225
601.20 2.131272
601.30 2.07363
601.40 2.013759
601.50 1.957224
601.60 1.917494
601.70 1.904642
601.80 1.922983
601.90 1.970994
602.00 2.035993
602.10 2.102905
602.20 2.163968
602.30 2.204586
602.40 2.218176
602.50 2.212516
602.60 2.19359
602.70 2.171631
602.80 2.165085
602.90 2.190429
603.00 2.247711
603.10 2.323893
603.20 2.402998
603.30 2.469792
603.40 2.511155
603.50 2.531655
603.60 2.546042
603.70 2.568337
603.80 2.607401
603.90 2.658776
604.00 2.713358
604.10 2.760465
604.20 2.787124
604.30 2.783705
604.40 2.747414
604.50 2.67693
604.60 2.578818
604.70 2.472389
604.80 2.380739
604.90 2.31462
605.00 2.275926
605.10 2.26421
605.20 2.272297
605.30 2.304175
605.40 2.362501
605.50 2.426473
605.60 2.459819
605.70 2.443539
605.80 2.389861
605.90 2.323622
606.00 2.271798
606.10 2.254814
606.20 2.277357
606.30 2.326239
606.40 2.390644
606.50 2.473551
606.60 2.576368
606.70 2.68543
606.80 2.783761
606.90 2.867027
607.00 2.94254
607.10 3.008009
607.20 3.045989
607.30 3.043271
607.40 3.002312
607.50 2.938542
607.60 2.872694
607.70 2.829916
607.80 2.819979
607.90 2.832386
608.00 2.854277
608.10 2.873978
608.20 2.884594
608.30 2.884808
608.40 2.875249
608.50 2.853295
608.60 2.818352
608.70 2.779286
608.80 2.733053
608.90 2.66855
609.00 2.590642
609.10 2.515583
609.20 2.458195
609.30 2.424929
609.40 2.416065
609.50 2.428006
609.60 2.452244
609.70 2.482933
609.80 2.513419
609.90 2.538898
610.00 2.557467
610.10 2.555975
610.20 2.529893
610.30 2.492324
610.40 2.453554
610.50 2.415994
610.60 2.386186
610.70 2.381036
610.80 2.412224
610.90 2.476219
611.00 2.557363
611.10 2.634148
611.20 2.69153
611.30 2.726379
611.40 2.742969
611.50 2.754904
611.60 2.772762
611.70 2.792978
611.80 2.80885
611.90 2.822971
612.00 2.836336
612.10 2.837493
612.20 2.815802
612.30 2.773633
612.40 2.718542
612.50 2.650341
612.60 2.57112
612.70 2.485908
612.80 2.399945
612.90 2.322931
613.00 2.274082
613.10 2.271391
613.20 2.316435
613.30 2.393369
613.40 2.479572
613.50 2.557456
613.60 2.615362
613.70 2.643852
613.80 2.639542
613.90 2.609813
614.00 2.565464
614.10 2.517891
614.20 2.476174
614.30 2.440538
614.40 2.408681
614.50 2.382041
614.60 2.361124
614.70 2.344366
614.80 2.337363
614.90 2.344132
615.00 2.359831
615.10 2.3842
615.20 2.416133
615.30 2.445033
615.40 2.45838
615.50 2.446817
615.60 2.406522
615.70 2.34558
615.80 2.276831
615.90 2.211918
616.00 2.167382
616.10 2.157309
616.20 2.182213
616.30 2.236891
616.40 2.314997
616.50 2.396185
616.60 2.45421
616.70 2.476722
616.80 2.457014
616.90 2.394595
617.00 2.304475
617.10 2.214731
617.20 2.147609
617.30 2.112425
617.40 2.111676
617.50 2.138733
617.60 2.180025
617.70 2.215182
617.80 2.224609
617.90 2.201671
618.00 2.153736
618.10 2.089263
618.20 2.018486
618.30 1.963744
618.40 1.94147
618.50 1.944774
618.60 1.956645
618.70 1.969039
618.80 1.98009
618.90 1.987182
619.00 1.990239
619.10 1.987891
619.20 1.976188
619.30 1.953215
619.40 1.92238
619.50 1.89278
619.60 1.875175
619.70 1.871855
619.80 1.878771
619.90 1.896033
620.00 1.924504
620.10 1.956611
620.20 1.982362
620.30 1.995642
620.40 1.988329
620.50 1.957818
620.60 1.911473
620.70 1.86585
620.80 1.834165
620.90 1.823441
621.00 1.841403
621.10 1.885589
621.20 1.94493
621.30 2.006402
621.40 2.057018
621.50 2.084353
621.60 2.080046
621.70 2.040264
621.80 1.975587
621.90 1.914948
622.00 1.881523
622.10 1.874514
622.20 1.891824
622.30 1.937632
622.40 2.003182
622.50 2.070961
622.60 2.121574
622.70 2.141749
622.80 2.135347
622.90 2.118969
623.00 2.103783
623.10 2.096232
623.20 2.097938
623.30 2.104373
623.40 2.115214
623.50 2.135759
623.60 2.162676
623.70 2.182133
623.80 2.185498
623.90 2.17187
624.00 2.14887
624.10 2.123705
624.20 2.09707
624.30 2.068717
624.40 2.040381
624.50 2.020158
624.60 2.01669
624.70 2.029633
624.80 2.053161
624.90 2.082751
625.00 2.116252
625.10 2.152885
625.20 2.185401
625.30 2.200662
625.40 2.190576
625.50 2.158265
625.60 2.111907
625.70 2.062974
625.80 2.028903
625.90 2.022608
626.00 2.049259
626.10 2.106654
626.20 2.181074
626.30 2.254959
626.40 2.315334
626.50 2.350783
626.60 2.35733
626.70 2.342664
626.80 2.31758
626.90 2.290668
627.00 2.268507
627.10 2.254008
627.20 2.24611
627.30 2.246915
627.40 2.258415
627.50 2.277572
627.60 2.31135
627.70 2.372678
627.80 2.46325
627.90 2.572374
628.00 2.68494
628.10 2.790834
628.20 2.882945
628.30 2.945647
628.40 2.967677
628.50 2.951992
628.60 2.907017
628.70 2.843422
628.80 2.777328
628.90 2.72859
629.00 2.70473
629.10 2.702025
629.20 2.713082
629.30 2.731992
629.40 2.764644
629.50 2.82953
629.60 2.926762
629.70 3.042447
629.80 3.167531
629.90 3.288558
630.00 3.392453
630.10 3.465206
630.20 3.488363
630.30 3.456353
630.40 3.383995
630.50 3.289298
630.60 3.191065
630.70 3.108833
630.80 3.054158
630.90 3.020593
631.00 3.00743
631.10 3.026362
631.20 3.075449
631.30 3.144443
631.40 3.220257
631.50 3.298232
631.60 3.383782
631.70 3.469194
631.80 3.533585
631.90 3.56417
632.00 3.564018
632.10 3.545907
632.20 3.522318
632.30 3.5006
632.40 3.492224
632.50 3.510713
632.60 3.561047
632.70 3.638623
632.80 3.735768
632.90 3.839495
633.00 3.934632
633.10 4.015339
633.20 4.082421
633.30 4.137468
633.40 4.178128
633.50 4.201266
633.60 4.204723
633.70 4.190873
633.80 4.16199
633.90 4.117495
634.00 4.06709
634.10 4.02355
634.20 3.992301
634.30 3.974434
634.40 3.969447
634.50 3.976956
634.60 3.996918
634.70 4.0302
634.80 4.06999
634.90 4.102108
635.00 4.120436
635.10 4.121635
635.20 4.104471
635.30 4.079437
635.40 4.058531
635.50 4.05044
635.60 4.058556
635.70 4.083109
635.80 4.120816
635.90 4.158701
636.00 4.181478
636.10 4.177963
636.20 4.154706
636.30 4.129685
636.40 4.111938
636.50 4.110517
636.60 4.129823
636.70 4.162159
636.80 4.19847
636.90 4.235009
637.00 4.275445
637.10 4.31873
637.20 4.359029
637.30 4.399306
637.40 4.444184
637.50 4.489296
637.60 4.520858
637.70 4.521804
637.80 4.485565
637.90 4.415012
638.00 4.322667
638.10 4.230152
638.20 4.152594
638.30 4.094592
638.40 4.053765
638.50 4.027471
638.60 4.01464
638.70 4.012015
638.80 4.015555
638.90 4.022495
639.00 4.028307
639.10 4.037893
639.20 4.061411
639.30 4.102548
639.40 4.157458
639.50 4.216814
639.60 4.277281
639.70 4.338707
639.80 4.402523
639.90 4.469875
640.00 4.536715
640.10 4.59587
640.20 4.639676
640.30 4.659307
640.40 4.651799
640.50 4.618426
640.60 4.560563
640.70 4.479643
640.80 4.381466
640.90 4.279591
641.00 4.188891
641.10 4.125823
641.20 4.098801
641.30 4.107695
641.40 4.152325
641.50 4.226118
641.60 4.315751
641.70 4.411863
641.80 4.50579
641.90 4.582748
642.00 4.627198
642.10 4.633247
642.20 4.609243
642.30 4.564985
642.40 4.502561
642.50 4.425113
642.60 4.343697
642.70 4.269197
642.80 4.210394
642.90 4.174039
643.00 4.157159
643.10 4.148716
643.20 4.141078
643.30 4.133489
643.40 4.132761
643.50 4.147795
643.60 4.174707
643.70 4.204328
643.80 4.231218
643.90 4.248472
644.00 4.253995
644.10 4.253345
644.20 4.250911
644.30 4.251712
644.40 4.264547
644.50 4.295467
644.60 4.347513
644.70 4.419886
644.80 4.500179
644.90 4.570447
645.00 4.619783
645.10 4.642558
645.20 4.644042
645.30 4.638371
645.40 4.634013
645.50 4.628962
645.60 4.615441
645.70 4.590068
645.80 4.559299
645.90 4.535833
646.00 4.525853
646.10 4.52874
646.20 4.541748
646.30 4.560436
646.40 4.58335
646.50 4.61187
646.60 4.63869
646.70 4.646376
646.80 4.62344
646.90 4.576081
647.00 4.519372
647.10 4.465045
647.20 4.422853
647.30 4.399993
647.40 4.401679
647.50 4.430164
647.60 4.482875
647.70 4.552339
647.80 4.624351
647.90 4.686948
648.00 4.73498
648.10 4.768861
648.20 4.789909
648.30 4.797935
648.40 4.798552
648.50 4.801765
648.60 4.812681
648.70 4.831199
648.80 4.855003
648.90 4.8808
649.00 4.908131
649.10 4.940373
649.20 4.980958
649.30 5.026716
649.40 5.074183
649.50 5.128656
649.60 5.19605
649.70 5.274715
649.80 5.355899
649.90 5.427554
650.00 5.480612
650.10 5.505788
650.20 5.499509
650.30 5.472314
650.40 5.441205
650.50 5.423327
650.60 5.435352
650.70 5.484492
650.80 5.564447
650.90 5.66017
651.00 5.757662
651.10 5.850831
651.20 5.93415
651.30 6.003473
651.40 6.056613
651.50 6.09756
651.60 6.136931
651.70 6.182406
651.80 6.235365
651.90 6.293472
652.00 6.35346
652.10 6.41716
652.20 6.488137
652.30 6.568117
652.40 6.660508
652.50 6.76688
652.60 6.892119
652.70 7.041451
652.80 7.210362
652.90 7.38776
653.00 7.559495
653.10 7.707554
653.20 7.819097
653.30 7.901122
653.40 7.968248
653.50 8.028844
653.60 8.092222
653.70 8.166861
653.80 8.253165
653.90 8.341825
654.00 8.418596
654.10 8.47002
654.20 8.493138
654.30 8.492846
654.40 8.471127
654.50 8.429652
654.60 8.375218
654.70 8.310376
654.80 8.239101
654.90 8.164898
655.00 8.083505
655.10 8.005336
655.20 7.946936
655.30 7.920208
655.40 7.937665
655.50 7.998328
655.60 8.092605
655.70 8.224075
655.80 8.410283
655.90 8.669542
656.00 9.005126
656.10 9.381852
656.20 9.725434
656.30 9.976167
656.40 10.1003
656.50 10.06752
656.60 9.876636
656.70 9.558704
656.80 9.155792
656.90 8.726891
657.00 8.337026
657.10 8.026523
657.20 7.795634
657.30 7.622455
657.40 7.481366
657.50 7.354862
657.60 7.243586
657.70 7.146643
657.80 7.066889
657.90 7.009892
658.00 6.964126
658.10 6.917323
658.20 6.866192
658.30 6.813312
658.40 6.761612
658.50 6.715689
658.60 6.690469
658.70 6.69996
658.80 6.740561
658.90 6.799263
659.00 6.870634
659.10 6.953043
659.20 7.041979
659.30 7.134339
659.40 7.234498
659.50 7.348088
659.60 7.471952
659.70 7.592571
659.80 7.694472
659.90 7.76323
660.00 7.787168
660.10 7.763354
660.20 7.697849
660.30 7.607053
660.40 7.512586
660.50 7.430473
660.60 7.373791
660.70 7.356999
660.80 7.384897
660.90 7.446358
661.00 7.527257
661.10 7.61997
661.20 7.718685
661.30 7.810636
661.40 7.880606
661.50 7.916459
661.60 7.921928
661.70 7.914384
661.80 7.904843
661.90 7.899325
662.00 7.893791
662.10 7.872631
662.20 7.824867
662.30 7.749939
662.40 7.650564
662.50 7.53129
662.60 7.40379
662.70 7.293228
662.80 7.228117
662.90 7.225538
663.00 7.286076
663.10 7.395276
663.20 7.530451
663.30 7.667763
663.40 7.790714
663.50 7.888789
663.60 7.94957
663.70 7.963663
663.80 7.935442
663.90 7.882914
664.00 7.828534
664.10 7.792171
664.20 7.79048
664.30 7.832638
664.40 7.914699
664.50 8.017727
664.60 8.112994
664.70 8.171231
664.80 8.166867
664.90 8.089294
665.00 7.951816
665.10 7.784955
665.20 7.62577
665.30 7.503365
665.40 7.434548
665.50 7.424725
665.60 7.464062
665.70 7.532403
665.80 7.604272
665.90 7.659854
666.00 7.692804
666.10 7.709147
666.20 7.722389
666.30 7.743569
666.40 7.779995
666.50 7.835675
666.60 7.905844
666.70 7.982131
666.80 8.052948
666.90 8.102622
667.00 8.117794
667.10 8.098368
667.20 8.063901
667.30 8.039113
667.40 8.04277
667.50 8.080498
667.60 8.147242
667.70 8.229702
667.80 8.308075
667.90 8.36254
668.00 8.378857
668.10 8.350484
668.20 8.279312
668.30 8.180493
668.40 8.078024
668.50 7.987004
668.60 7.908214
668.70 7.84266
668.80 7.793769
668.90 7.763881
669.00 7.751677
669.10 7.756781
669.20 7.779603
669.30 7.815677
669.40 7.858923
669.50 7.899327
669.60 7.923961
669.70 7.92626
669.80 7.912773
669.90 7.903376
670.00 7.917545
670.10 7.959618
670.20 8.028178
670.30 8.118828
670.40 8.221938
670.50 8.326864
670.60 8.418556
670.70 8.484393
670.80 8.523443
670.90 8.54847
671.00 8.575793
671.10 8.608123
671.20 8.636291
671.30 8.649558
671.40 8.638024
671.50 8.598443
671.60 8.530108
671.70 8.4381
671.80 8.337173
671.90 8.23895
672.00 8.156375
672.10 8.103884
672.20 8.085567
672.30 8.091641
672.40 8.108269
672.50 8.126682
672.60 8.138496
672.70 8.13418
672.80 8.11263
672.90 8.082134
673.00 8.052794
673.10 8.034273
673.20 8.03522
673.30 8.063194
673.40 8.115649
673.50 8.180467
673.60 8.246175
673.70 8.30682
673.80 8.362806
673.90 8.418897
674.00 8.482096
674.10 8.558241
674.20 8.647624
674.30 8.739234
674.40 8.820104
674.50 8.883177
674.60 8.926228
674.70 8.951818
674.80 8.966506
674.90 8.973952
675.00 8.968395
675.10 8.945329
675.20 8.908903
675.30 8.864874
675.40 8.817501
675.50 8.769915
675.60 8.729957
675.70 8.715641
675.80 8.739978
675.90 8.797914
676.00 8.87173
676.10 8.943815
676.20 9.006101
676.30 9.061234
676.40 9.117039
676.50 9.175264
676.60 9.230381
676.70 9.275729
676.80 9.304685
676.90 9.309548
677.00 9.285355
677.10 9.236709
677.20 9.181118
677.30 9.141984
677.40 9.13769
677.50 9.176298
677.60 9.253148
677.70 9.349152
677.80 9.433441
677.90 9.475626
678.00 9.454984
678.10 9.363714
678.20 9.210754
678.30 9.02114
678.40 8.825627
678.50 8.64993
678.60 8.506151
678.70 8.405079
678.80 8.361751
678.90 8.375298
679.00 8.430568
679.10 8.511245
679.20 8.606211
679.30 8.704231
679.40 8.785667
679.50 8.832782
679.60 8.838927
679.70 8.812433
679.80 8.770639
679.90 8.729067
680.00 8.709934
680.10 8.727825
680.20 8.775043
680.30 8.839755
680.40 8.905255
680.50 8.950012
680.60 8.958007
680.70 8.92476
680.80 8.862726
680.90 8.791607
681.00 8.728963
681.10 8.688546
681.20 8.677785
681.30 8.693605
681.40 8.722719
681.50 8.752918
681.60 8.779298
681.70 8.797611
681.80 8.809681
681.90 8.823317
682.00 8.843888
682.10 8.875736
682.20 8.92036
682.30 8.975734
682.40 9.035157
682.50 9.085781
682.60 9.115206
682.70 9.119816
682.80 9.102324
682.90 9.066888
683.00 9.015022
683.10 8.949075
683.20 8.871007
683.30 8.78535
683.40 8.703805
683.50 8.630151
683.60 8.565134
683.70 8.512947
683.80 8.477368
683.90 8.460567
684.00 8.460284
684.10 8.472254
684.20 8.487623
684.30 8.492105
684.40 8.48021
684.50 8.45405
684.60 8.415486
684.70 8.365542
684.80 8.303102
684.90 8.240813
685.00 8.197134
685.10 8.178212
685.20 8.181383
685.30 8.202626
685.40 8.242802
685.50 8.296957
685.60 8.351104
685.70 8.39736
685.80 8.434049
685.90 8.470053
686.00 8.516475
686.10 8.577275
686.20 8.653261
686.30 8.735258
686.40 8.807757
686.50 8.862093
686.60 8.891162
686.70 8.883581
686.80 8.831281
686.90 8.729789
687.00 8.588612
687.10 8.431276
687.20 8.28285
687.30 8.160731
687.40 8.082272
687.50 8.05579
687.60 8.071286
687.70 8.110742
687.80 8.156012
687.90 8.194274
688.00 8.217554
688.10 8.220691
688.20 8.20063
688.30 8.168714
688.40 8.138909
688.50 8.10941
688.60 8.074905
688.70 8.037468
688.80 8.000953
688.90 7.972086
689.00 7.964417
689.10 7.987968
689.20 8.036527
689.30 8.091594
689.40 8.138342
689.50 8.171082
689.60 8.184084
689.70 8.167692
689.80 8.118721
689.90 8.047365
690.00 7.970558
690.10 7.90595
690.20 7.869185
690.30 7.871432
690.40 7.915352
690.50 7.999049
690.60 8.119552
690.70 8.270954
690.80 8.442561
690.90 8.613401
691.00 8.763388
691.10 8.885749
691.20 8.974297
691.30 9.016756
691.40 8.998466
691.50 8.904754
691.60 8.740305
691.70 8.537273
691.80 8.338032
691.90 8.179426
692.00 8.095274
692.10 8.110655
692.20 8.227566
692.30 8.427548
692.40 8.674796
692.50 8.916978
692.60 9.111523
692.70 9.244067
692.80 9.318601
692.90 9.35262
693.00 9.367486
693.10 9.382687
693.20 9.418408
693.30 9.487412
693.40 9.583062
693.50 9.680079
693.60 9.751616
693.70 9.783738
693.80 9.781386
693.90 9.773474
694.00 9.792779
694.10 9.858279
694.20 9.986933
694.30 10.19055
694.40 10.46048
694.50 10.77285
694.60 11.09425
694.70 11.3883
694.80 11.62352
694.90 11.77674
695.00 11.83773
695.10 11.80772
695.20 11.69668
695.30 11.51922
695.40 11.30029
695.50 11.07863
695.60 10.89108
695.70 10.76405
695.80 10.71351
695.90 10.73327
696.00 10.80623
696.10 10.9139
696.20 11.03348
696.30 11.14675
696.40 11.24257
696.50 11.31911
696.60 11.37678
696.70 11.41269
696.80 11.42164
696.90 11.39779
697.00 11.34642
697.10 11.27947
697.20 11.21406
697.30 11.18253
697.40 11.2071
697.50 11.28743
697.60 11.41752
697.70 11.58296
697.80 11.75625
697.90 11.90475
698.00 12.00093
698.10 12.03611
698.20 12.02335
698.30 11.98448
698.40 11.94005
698.50 11.91388
698.60 11.92386
698.70 11.96165
698.80 12.00776
698.90 12.05119
699.00 12.08155
699.10 12.08654
699.20 12.05486
699.30 11.98157
699.40 11.87881
699.50 11.76637
699.60 11.65911
699.70 11.57258
699.80 11.51788
699.90 11.49804
700.00 11.51472
700.10 11.56882
700.20 11.66515
700.30 11.80682
700.40 11.98587
700.50 12.18875
700.60 12.40596
700.70 12.62982
700.80 12.84238
700.90 13.02073
701.00 13.15384
701.10 13.24157
701.20 13.28952
701.30 13.30665
701.40 13.30544
701.50 13.30707
701.60 13.32786
701.70 13.37093
701.80 13.4353
701.90 13.51808
702.00 13.61338
702.10 13.71205
702.20 13.8067
702.30 13.90059
702.40 14.00578
702.50 14.13684
702.60 14.30388
702.70 14.50758
702.80 14.74291
702.90 14.99208
703.00 15.22586
703.10 15.42726
703.20 15.59765
703.30 15.74792
703.40 15.88815
703.50 16.02663
703.60 16.1774
703.70 16.34682
703.80 16.52683
703.90 16.70368
704.00 16.86848
704.10 17.0102
704.20 17.11346
704.30 17.17729
704.40 17.21303
704.50 17.22897
704.60 17.23307
704.70 17.23367
704.80 17.23965
704.90 17.24951
705.00 17.23062
705.10 17.13561
705.20 16.92065
705.30 16.55596
705.40 16.04028
705.50 15.40746
705.60 14.71446
705.70 14.01819
705.80 13.37485
705.90 12.83645
706.00 12.42623
706.10 12.13744
706.20 11.94415
706.30 11.81649
706.40 11.74171
706.50 11.7193
706.60 11.75404
706.70 11.85119
706.80 12.00059
706.90 12.17641
707.00 12.35078
707.10 12.50823
707.20 12.63797
707.30 12.73199
707.40 12.80039
707.50 12.85998
707.60 12.92311
707.70 12.9965
707.80 13.08192
707.90 13.1765
708.00 13.26925
708.10 13.34377
708.20 13.38444
708.30 13.37782
708.40 13.31404
708.50 13.18482
708.60 12.99967
708.70 12.78208
708.80 12.5499
708.90 12.32435
709.00 12.12764
709.10 11.97945
709.20 11.88908
709.30 11.85278
709.40 11.85645
709.50 11.87873
709.60 11.90187
709.70 11.9193
709.80 11.92983
709.90 11.94075
710.00 11.96214
710.10 11.99706
710.20 12.0479
710.30 12.11739
710.40 12.2135
710.50 12.34144
710.60 12.49923
710.70 12.6765
710.80 12.85613
710.90 13.01402
711.00 13.12356
711.10 13.17169
711.20 13.16203
711.30 13.10605
711.40 13.02051
711.50 12.93359
711.60 12.87893
711.70 12.8796
711.80 12.93992
711.90 13.05013
712.00 13.18764
712.10 13.31777
712.20 13.40246
712.30 13.41588
712.40 13.35506
712.50 13.22645
712.60 13.04008
712.70 12.82302
712.80 12.61224
712.90 12.44165
713.00 12.33059
713.10 12.27893
713.20 12.27607
713.30 12.30137
713.40 12.32997
713.50 12.3438
713.60 12.33829
713.70 12.31943
713.80 12.29126
713.90 12.25931
714.00 12.23735
714.10 12.23388
714.20 12.24714
714.30 12.26947
714.40 12.29796
714.50 12.33722
714.60 12.39004
714.70 12.45537
714.80 12.52725
714.90 12.59883
715.00 12.66473
715.10 12.72154
715.20 12.77825
715.30 12.84924
715.40 12.93597
715.50 13.02781
715.60 13.10989
715.70 13.16639
715.80 13.18034
715.90 13.14353
716.00 13.06114
716.10 12.95574
716.20 12.86291
716.30 12.81325
716.40 12.82529
716.50 12.9021
716.60 13.02326
716.70 13.15447
716.80 13.26779
716.90 13.35045
717.00 13.40487
717.10 13.44401
717.20 13.48492
717.30 13.54083
717.40 13.61666
717.50 13.70426
717.60 13.78935
717.70 13.86373
717.80 13.92869
717.90 13.99377
718.00 14.07111
718.10 14.17126
718.20 14.29772
718.30 14.44286
718.40 14.59424
718.50 14.73787
718.60 14.85965
718.70 14.95189
718.80 15.01662
718.90 15.06415
719.00 15.10907
719.10 15.16365
719.20 15.22737
719.30 15.28352
719.40 15.31109
719.50 15.30051
719.60 15.25484
719.70 15.182
719.80 15.08679
719.90 14.97356
720.00 14.8591
720.10 14.76622
720.20 14.70928
720.30 14.69219
720.40 14.70773
720.50 14.73822
720.60 14.76804
720.70 14.79541
720.80 14.82619
720.90 14.86384
721.00 14.90951
721.10 14.96388
721.20 15.02634
721.30 15.09859
721.40 15.17709
721.50 15.24581
721.60 15.2947
721.70 15.32428
721.80 15.34215
721.90 15.36396
722.00 15.40563
722.10 15.47973
722.20 15.59878
722.30 15.76109
722.40 15.94841
722.50 16.13916
722.60 16.31336
722.70 16.45706
722.80 16.55857
722.90 16.62271
723.00 16.66963
723.10 16.72276
723.20 16.80583
723.30 16.92795
723.40 17.08959
723.50 17.29196
723.60 17.50958
723.70 17.69909
723.80 17.83679
723.90 17.92392
724.00 17.96971
724.10 17.98292
724.20 17.98507
724.30 18.00412
724.40 18.05959
724.50 18.15316
724.60 18.27157
724.70 18.40864
724.80 18.55692
724.90 18.69191
725.00 18.80409
725.10 18.91227
725.20 19.02908
725.30 19.15288
725.40 19.2851
725.50 19.42046
725.60 19.54651
725.70 19.64955
725.80 19.72272
725.90 19.77855
726.00 19.83358
726.10 19.89925
726.20 19.9854
726.30 20.10051
726.40 20.2432
726.50 20.39049
726.60 20.51151
726.70 20.58432
726.80 20.59902
726.90 20.57149
727.00 20.55391
727.10 20.59275
727.20 20.69545
727.30 20.84685
727.40 21.01494
727.50 21.1574
727.60 21.23284
727.70 21.21774
727.80 21.1252
727.90 20.99987
728.00 20.89971
728.10 20.87735
728.20 20.9767
728.30 21.20155
728.40 21.48506
728.50 21.75533
728.60 21.9715
728.70 22.10508
728.80 22.15179
728.90 22.13328
729.00 22.09928
729.10 22.10653
729.20 22.18423
729.30 22.34069
729.40 22.5751
729.50 22.86042
729.60 23.13726
729.70 23.35789
729.80 23.51112
729.90 23.60486
730.00 23.65459
730.10 23.68936
730.20 23.74978
730.30 23.8694
730.40 24.05905
730.50 24.3065
730.60 24.58532
730.70 24.86131
730.80 25.10173
730.90 25.30646
731.00 25.50896
731.10 25.73507
731.20 25.97693
731.30 26.22013
731.40 26.47265
731.50 26.74083
731.60 27.01432
731.70 27.27462
731.80 27.50473
731.90 27.69289
732.00 27.84281
732.10 27.97283
732.20 28.09442
732.30 28.20091
732.40 28.27681
732.50 28.30224
732.60 28.26097
732.70 28.14484
732.80 27.9556
732.90 27.70964
733.00 27.44653
733.10 27.22855
733.20 27.10988
733.30 27.12949
733.40 27.31466
733.50 27.67472
733.60 28.19014
733.70 28.80601
733.80 29.44747
733.90 30.04377
734.00 30.53859
734.10 30.86983
734.20 30.97829
734.30 30.85124
734.40 30.52578
734.50 30.06979
734.60 29.57258
734.70 29.12422
734.80 28.78578
734.90 28.57558
735.00 28.48048
735.10 28.46335
735.20 28.46696
735.30 28.44003
735.40 28.36996
735.50 28.28267
735.60 28.21617
735.70 28.19968
735.80 28.24844
735.90 28.3716
736.00 28.5732
736.10 28.84994
736.20 29.196
736.30 29.6011
736.40 30.03942
736.50 30.46961
736.60 30.85185
736.70 31.16332
736.80 31.3912
736.90 31.52526
737.00 31.55345
737.10 31.46186
737.20 31.25085
737.30 30.94418
737.40 30.58478
737.50 30.22425
737.60 29.90404
737.70 29.6449
737.80 29.45732
737.90 29.35097
738.00 29.32602
738.10 29.36218
738.20 29.42045
738.30 29.46842
738.40 29.5061
738.50 29.56604
738.60 29.69147
738.70 29.90538
738.80 30.1866
738.90 30.46848
739.00 30.66441
739.10 30.70328
739.20 30.55353
739.30 30.22527
739.40 29.77057
739.50 29.28021
739.60 28.85415
739.70 28.55693
739.80 28.4167
739.90 28.43049
740.00 28.55993
740.10 28.73888
740.20 28.88363
740.30 28.93448
740.40 28.87994
740.50 28.74696
740.60 28.58873
740.70 28.46499
740.80 28.42113
740.90 28.47105
741.00 28.60318
741.10 28.8057
741.20 29.04992
741.30 29.27419
741.40 29.39677
741.50 29.34951
741.60 29.12759
741.70 28.77981
741.80 28.37205
741.90 27.97089
742.00 27.63587
742.10 27.41668
742.20 27.33121
742.30 27.36321
742.40 27.48416
742.50 27.6524
742.60 27.82061
742.70 27.96339
742.80 28.08384
742.90 28.19205
743.00 28.28366
743.10 28.33433
743.20 28.32592
743.30 28.25911
743.40 28.14064
743.50 27.98119
743.60 27.81492
743.70 27.68722
743.80 27.61428
743.90 27.58888
744.00 27.58912
744.10 27.57233
744.20 27.49018
744.30 27.31042
744.40 27.04084
744.50 26.73604
744.60 26.45893
744.70 26.26126
744.80 26.18793
744.90 26.25971
745.00 26.45283
745.10 26.7075
745.20 26.95634
745.30 27.14552
745.40 27.24469
745.50 27.24569
745.60 27.16114
745.70 27.02608
745.80 26.88269
745.90 26.77231
746.00 26.74019
746.10 26.81555
746.20 26.99591
746.30 27.25087
746.40 27.53082
746.50 27.78966
746.60 27.9972
746.70 28.13299
746.80 28.18831
746.90 28.17123
747.00 28.09928
747.10 27.99024
747.20 27.86712
747.30 27.75304
747.40 27.65525
747.50 27.57009
747.60 27.49185
747.70 27.42843
747.80 27.40941
747.90 27.46024
748.00 27.59164
748.10 27.79559
748.20 28.04778
748.30 28.32385
748.40 28.59765
748.50 28.84657
748.60 29.05319
748.70 29.20172
748.80 29.2807
748.90 29.28784
749.00 29.22883
749.10 29.10225
749.20 28.909
749.30 28.67086
749.40 28.42781
749.50 28.23235
749.60 28.1315
749.70 28.14802
749.80 28.28026
749.90 28.50129
750.00 28.75931
750.10 28.99036
750.20 29.14371
750.30 29.19461
750.40 29.15488
750.50 29.07842
750.60 29.02644
750.70 29.03915
750.80 29.13034
750.90 29.28511
751.00 29.45958
751.10 29.60502
751.20 29.69821
751.30 29.73105
751.40 29.70203
751.50 29.62395
751.60 29.52077
751.70 29.42544
751.80 29.36907
751.90 29.36969
752.00 29.42358
752.10 29.50791
752.20 29.59481
752.30 29.65955
752.40 29.69049
752.50 29.6874
752.60 29.66023
752.70 29.63312
752.80 29.64018
752.90 29.70203
753.00 29.81144
753.10 29.9501
753.20 30.09488
753.30 30.22004
753.40 30.31887
753.50 30.40984
753.60 30.52208
753.70 30.67948
753.80 30.90413
753.90 31.20764
754.00 31.57299
754.10 31.95875
754.20 32.3031
754.30 32.54781
754.40 32.66373
754.50 32.64268
754.60 32.49486
754.70 32.25421
754.80 31.96768
754.90 31.68288
755.00 31.4455
755.10 31.29528
755.20 31.24523
755.30 31.2813
755.40 31.37327
755.50 31.48957
755.60 31.61127
755.70 31.72958
755.80 31.84673
755.90 31.96898
756.00 32.09479
756.10 32.20695
756.20 32.27756
756.30 32.28141
756.40 32.20406
756.50 32.05276
756.60 31.86339
756.70 31.67937
756.80 31.5367
756.90 31.47095
757.00 31.50703
757.10 31.63064
757.20 31.79375
757.30 31.94292
757.40 32.031
757.50 32.03403
757.60 31.97319
757.70 31.90286
757.80 31.87989
757.90 31.94272
758.00 32.09724
758.10 32.31413
758.20 32.53391
758.30 32.66831
758.40 32.61408
758.50 32.29412
758.60 31.67095
758.70 30.75041
758.80 29.59312
758.90 28.30499
759.00 27.00419
759.10 25.80591
759.20 24.81062
759.30 24.05691
759.40 23.50961
759.50 23.13304
759.60 22.91276
759.70 22.78984
759.80 22.69563
759.90 22.63111
760.00 22.61222
760.10 22.61533
760.20 22.63295
760.30 22.68096
760.40 22.76913
760.50 22.89194
760.60 23.02567
760.70 23.16289
760.80 23.32532
760.90 23.51353
761.00 23.70374
761.10 23.90821
761.20 24.14482
761.30 24.3741
761.40 24.5608
761.50 24.72467
761.60 24.87745
761.70 25.00312
761.80 25.07578
761.90 25.06352
762.00 24.95554
762.10 24.75204
762.20 24.44839
762.30 24.04242
762.40 23.53412
762.50 22.92199
762.60 22.21618
762.70 21.44959
762.80 20.67383
762.90 19.94807
763.00 19.32013
763.10 18.81625
763.20 18.43741
763.30 18.16806
763.40 17.9737
763.50 17.81396
763.60 17.66046
763.70 17.48769
763.80 17.26681
763.90 16.98171
764.00 16.63913
764.10 16.27118
764.20 15.91715
764.30 15.59606
764.40 15.30571
764.50 15.03385
764.60 14.76883
764.70 14.49379
764.80 14.18083
764.90 13.79999
765.00 13.32842
765.10 12.76323
765.20 12.1299
765.30 11.48278
765.40 10.88293
765.50 10.3534
765.60 9.884282
765.70 9.465698
765.80 9.08281
765.90 8.696028
766.00 8.26469
766.10 7.771858
766.20 7.221023
766.30 6.64323
766.40 6.097256
766.50 5.647995
766.60 5.346876
766.70 5.219546
766.80 5.269264
766.90 5.494201
767.00 5.881133
767.10 6.384011
767.20 6.943479
767.30 7.51698
767.40 8.072066
767.50 8.586138
767.60 9.048289
767.70 9.453898
767.80 9.809752
767.90 10.12775
768.00 10.42701
768.10 10.72221
768.20 11.01194
768.30 11.27757
768.40 11.48435
768.50 11.60565
768.60 11.63261
768.70 11.5802
768.80 11.47055
768.90 11.30961
769.00 11.0953
769.10 10.82632
769.20 10.49223
769.30 10.08376
769.40 9.596818
769.50 9.032986
769.60 8.408031
769.70 7.763639
769.80 7.169582
769.90 6.698053
770.00 6.404443
770.10 6.314655
770.20 6.431015
770.30 6.744567
770.40 7.23467
770.50 7.859017
770.60 8.571365
770.70 9.325916
770.80 10.06594
770.90 10.75243
771.00 11.3721
771.10 11.9269
771.20 12.41926
771.30 12.84672
771.40 13.21369
771.50 13.53985
771.60 13.85465
771.70 14.17442
771.80 14.50356
771.90 14.83736
772.00 15.16148
772.10 15.47548
772.20 15.80215
772.30 16.16559
772.40 16.58089
772.50 17.04677
772.60 17.55272
772.70 18.0815
772.80 18.60777
772.90 19.09328
773.00 19.50035
773.10 19.82144
773.20 20.07228
773.30 20.29
773.40 20.51616
773.50 20.76893
773.60 21.04806
773.70 21.34587
773.80 21.64211
773.90 21.9016
774.00 22.08709
774.10 22.17586
774.20 22.15809
774.30 22.04766
774.40 21.88732
774.50 21.7343
774.60 21.64201
774.70 21.63332
774.80 21.69724
774.90 21.81768
775.00 21.97093
775.10 22.1071
775.20 22.18142
775.30 22.18636
775.40 22.14255
775.50 22.08378
775.60 22.03742
775.70 22.01423
775.80 22.01495
775.90 22.0293
776.00 22.04636
776.10 22.06414
776.20 22.08451
776.30 22.1022
776.40 22.12187
776.50 22.17447
776.60 22.30312
776.70 22.53936
776.80 22.89173
776.90 23.3399
777.00 23.85001
777.10 24.38328
777.20 24.87916
777.30 25.26443
777.40 25.47713
777.50 25.49767
777.60 25.35501
777.70 25.10506
777.80 24.81441
777.90 24.54554
778.00 24.33244
778.10 24.17039
778.20 24.03548
778.30 23.90743
778.40 23.77643
778.50 23.63942
778.60 23.50956
778.70 23.42403
778.80 23.43136
778.90 23.57362
779.00 23.85819
779.10 24.24592
779.20 24.6649
779.30 25.0261
779.40 25.23293
779.50 25.18939
779.60 24.81788
779.70 24.09897
779.80 23.1023
779.90 21.98833
780.00 20.97379
780.10 20.27151
780.20 20.03938
780.30 20.35987
780.40 21.21808
780.50 22.48139
780.60 23.94444
780.70 25.38145
780.80 26.5924
780.90 27.46447
781.00 28.00098
781.10 28.28401
781.20 28.43102
781.30 28.54801
781.40 28.69276
781.50 28.88916
781.60 29.13428
781.70 29.37352
781.80 29.52436
781.90 29.55414
782.00 29.46838
782.10 29.28009
782.20 29.01649
782.30 28.70091
782.40 28.34965
782.50 27.97739
782.60 27.5953
782.70 27.21971
782.80 26.88061
782.90 26.60395
783.00 26.40924
783.10 26.31775
783.20 26.36302
783.30 26.55407
783.40 26.85414
783.50 27.22711
783.60 27.64604
783.70 28.08279
783.80 28.49671
783.90 28.86016
784.00 29.16797
784.10 29.42551
784.20 29.65375
784.30 29.87752
784.40 30.10064
784.50 30.3038
784.60 30.45985
784.70 30.5589
784.80 30.61208
784.90 30.60596
785.00 30.5128
785.10 30.33629
785.20 30.11952
785.30 29.92841
785.40 29.81685
785.50 29.81314
785.60 29.91863
785.70 30.10871
785.80 30.34866
785.90 30.60667
786.00 30.8535
786.10 31.04663
786.20 31.13995
786.30 31.11734
786.40 30.99469
786.50 30.80195
786.60 30.58046
786.70 30.35199
786.80 30.12096
786.90 29.90205
787.00 29.70216
787.10 29.5243
787.20 29.38164
787.30 29.28748
787.40 29.24783
787.50 29.27721
787.60 29.39838
787.70 29.62223
787.80 29.9362
787.90 30.31397
788.00 30.71304
788.10 31.08892
788.20 31.415
788.30 31.6684
788.40 31.85888
788.50 32.02501
788.60 32.18217
788.70 32.33589
788.80 32.50502
788.90 32.69771
789.00 32.89575
789.10 33.06599
789.20 33.17537
789.30 33.18634
789.40 33.06262
789.50 32.78715
789.60 32.37484
789.70 31.87344
789.80 31.34112
789.90 30.84313
790.00 30.46865
790.10 30.29826
790.20 30.35
790.30 30.57626
790.40 30.88682
790.50 31.17847
790.60 31.36866
790.70 31.41875
790.80 31.33612
790.90 31.15721
791.00 30.94131
791.10 30.76879
791.20 30.71528
791.30 30.80709
791.40 31.00982
791.50 31.24686
791.60 31.43922
791.70 31.5402
791.80 31.54704
791.90 31.49983
792.00 31.43706
792.10 31.36522
792.20 31.28182
792.30 31.1993
792.40 31.13164
792.50 31.08445
792.60 31.06136
792.70 31.07653
792.80 31.15295
792.90 31.32395
793.00 31.63088
793.10 32.08497
793.20 32.64034
793.30 33.20365
793.40 33.67393
793.50 33.97384
793.60 34.05209
793.70 33.88761
793.80 33.49668
793.90 32.93182
794.00 32.26111
794.10 31.55216
794.20 30.86307
794.30 30.20219
794.40 29.51459
794.50 28.73908
794.60 27.87596
794.70 26.99725
794.80 26.2347
794.90 25.75191
795.00 25.69135
795.10 26.12917
795.20 27.04973
795.30 28.33961
795.40 29.81485
795.50 31.25939
795.60 32.46369
795.70 33.30017
795.80 33.75632
795.90 33.90463
796.00 33.84989
796.10 33.69488
796.20 33.53761
796.30 33.45994
796.40 33.51045
796.50 33.69633
796.60 33.99786
796.70 34.38643
796.80 34.81843
796.90 35.23948
797.00 35.60559
797.10 35.87621
797.20 36.00961
797.30 35.98655
797.40 35.83425
797.50 35.60935
797.60 35.34711
797.70 35.07536
797.80 34.83205
797.90 34.63653
798.00 34.47613
798.10 34.31296
798.20 34.10912
798.30 33.84668
798.40 33.52893
798.50 33.1814
798.60 32.86119
798.70 32.63832
798.80 32.55995
798.90 32.64684
799.00 32.88761
799.10 33.21994
799.20 33.56104
799.30 33.85041
799.40 34.0644
799.50 34.21055
799.60 34.31458
799.70 34.40495
799.80 34.50449
799.90 34.63639
800.00 34.82197
800.10 35.06318
800.20 35.34447
800.30 35.63222
800.40 35.90444
800.50 36.17084
800.60 36.43783
800.70 36.71025
800.80 37.00104
800.90 37.32192
801.00 37.67732
801.10 38.0629
801.20 38.47627
801.30 38.90887
801.40 39.33174
801.50 39.71221
801.60 40.01677
801.70 40.22962
801.80 40.36657
801.90 40.45678
802.00 40.55763
802.10 40.7217
802.20 40.97207
802.30 41.32834
802.40 41.79447
802.50 42.35351
802.60 42.96918
802.70 43.58301
802.80 44.1272
802.90 44.55329
803.00 44.8434
803.10 45.0009
803.20 45.0374
803.30 44.973
803.40 44.82163
803.50 44.61181
803.60 44.39229
803.70 44.19969
803.80 44.05999
803.90 43.99074
804.00 44.01162
804.10 44.14032
804.20 44.3799
804.30 44.70933
804.40 45.08738
804.50 45.47963
804.60 45.88745
804.70 46.33647
804.80 46.8565
804.90 47.47301
805.00 48.19658
805.10 48.99646
805.20 49.81194
805.30 50.59227
805.40 51.29042
805.50 51.87374
805.60 52.33813
805.70 52.69532
805.80 52.97899
805.90 53.23019
806.00 53.46207
806.10 53.66698
806.20 53.82989
806.30 53.93634
806.40 53.97257
806.50 53.94404
806.60 53.88879
806.70 53.85103
806.80 53.85977
806.90 53.92712
807.00 54.06839
807.10 54.31289
807.20 54.67996
807.30 55.16667
807.40 55.75258
807.50 56.40581
807.60 57.09004
807.70 57.76492
807.80 58.39535
807.90 58.97236
808.00 59.50873
808.10 60.01817
808.20 60.50858
808.30 60.97675
808.40 61.39476
808.50 61.70846
808.60 61.87927
808.70 61.9182
808.80 61.87559
808.90 61.81395
809.00 61.78764
809.10 61.82971
809.20 61.95502
809.30 62.143
809.40 62.32714
809.50 62.43809
809.60 62.43752
809.70 62.32719
809.80 62.15904
809.90 62.01441
810.00 61.95858
810.10 62.01259
810.20 62.1601
810.30 62.38688
810.40 62.70197
810.50 63.11123
810.60 63.59342
810.70 64.11478
810.80 64.65097
810.90 65.1891
811.00 65.71165
811.10 66.1795
811.20 66.53523
811.30 66.74282
811.40 66.82532
811.50 66.86796
811.60 66.97672
811.70 67.22437
811.80 67.63027
811.90 68.18272
812.00 68.84341
812.10 69.54608
812.20 70.23133
812.30 70.85176
812.40 71.38585
812.50 71.86139
812.60 72.32847
812.70 72.82908
812.80 73.36026
812.90 73.87818
813.00 74.34693
813.10 74.74738
813.20 75.07333
813.30 75.34655
813.40 75.62187
813.50 75.95528
813.60 76.35662
813.70 76.78343
813.80 77.15125
813.90 77.33544
814.00 77.23005
814.10 76.81435
814.20 76.15478
814.30 75.35947
814.40 74.53764
814.50 73.78434
814.60 73.18109
814.70 72.78004
814.80 72.58992
814.90 72.5966
815.00 72.77657
815.10 73.09596
815.20 73.51718
815.30 74.02261
815.40 74.59658
815.50 75.18356
815.60 75.70312
815.70 76.0994
815.80 76.37946
815.90 76.60045
816.00 76.83534
816.10 77.15124
816.20 77.59418
816.30 78.17473
816.40 78.86695
816.50 79.6367
816.60 80.4519
816.70 81.2751
816.80 82.0574
816.90 82.75449
817.00 83.35075
817.10 83.84408
817.20 84.2115
817.30 84.40804
817.40 84.37367
817.50 84.04203
817.60 83.34471
817.70 82.20625
817.80 80.54783
817.90 78.28938
818.00 75.42759
818.10 72.10748
818.20 68.63419
818.30 65.42956
818.40 62.92641
818.50 61.44981
818.60 61.1297
818.70 61.86486
818.80 63.31698
818.90 64.96481
819.00 66.22289
819.10 66.59869
819.20 65.82911
819.30 63.99241
819.40 61.47508
819.50 58.82077
819.60 56.58831
819.70 55.22552
819.80 54.98972
819.90 55.92528
820.00 57.87989
820.10 60.53247
820.20 63.46558
820.30 66.25847
820.40 68.58064
820.50 70.25588
820.60 71.28943
820.70 71.80895
820.80 71.98284
820.90 72.0009
821.00 72.03185
821.10 72.18498
821.20 72.50619
821.30 72.97173
821.40 73.50355
821.50 74.01975
821.60 74.4743
821.70 74.87297
821.80 75.26052
821.90 75.69711
822.00 76.21699
822.10 76.80959
822.20 77.43374
822.30 78.04416
822.40 78.62651
822.50 79.18693
822.60 79.7354
822.70 80.28293
822.80 80.8252
822.90 81.3384
823.00 81.7934
823.10 82.15091
823.20 82.3764
823.30 82.46659
823.40 82.45762
823.50 82.41815
823.60 82.43939
823.70 82.60935
823.80 82.97472
823.90 83.53881
824.00 84.25628
824.10 85.04563
824.20 85.82153
824.30 86.50523
824.40 87.0391
824.50 87.41463
824.60 87.64819
824.70 87.72977
824.80 87.626
824.90 87.2969
825.00 86.7141
825.10 85.88419
825.20 84.85381
825.30 83.70178
825.40 82.55068
825.50 81.56293
825.60 80.90508
825.70 80.6996
825.80 80.96926
825.90 81.63183
826.00 82.54035
826.10 83.53314
826.20 84.46953
826.30 85.24535
826.40 85.78178
826.50 86.01511
826.60 85.92881
826.70 85.56371
826.80 84.98557
826.90 84.26678
827.00 83.48385
827.10 82.72115
827.20 82.08381
827.30 81.68436
827.40 81.60361
827.50 81.85894
827.60 82.38377
827.70 83.04692
827.80 83.68929
827.90 84.15148
828.00 84.30394
828.10 84.0892
828.20 83.53835
828.30 82.748
828.40 81.84252
828.50 80.91943
828.60 80.02997
828.70 79.15852
828.80 78.26064
828.90 77.32837
829.00 76.39242
829.10 75.50883
829.20 74.75496
829.30 74.21485
829.40 73.92439
829.50 73.84419
829.60 73.89168
829.70 73.96103
829.80 73.9258
829.90 73.697
830.00 73.25795
830.10 72.67282
830.20 72.05862
830.30 71.51353
830.40 71.10002
830.50 70.85572
830.60 70.80253
830.70 70.93174
830.80 71.20822
830.90 71.58735
831.00 72.00392
831.10 72.40062
831.20 72.76254
831.30 73.1089
831.40 73.4816
831.50 73.93723
831.60 74.52113
831.70 75.24928
831.80 76.10962
831.90 77.06787
832.00 78.04797
832.10 78.949
832.20 79.67139
832.30 80.12396
832.40 80.25214
832.50 80.05143
832.60 79.58799
832.70 79.0031
832.80 78.4625
832.90 78.09882
833.00 77.9673
833.10 78.04264
833.20 78.25742
833.30 78.50519
833.40 78.67074
833.50 78.67829
833.60 78.53929
833.70 78.34885
833.80 78.23282
833.90 78.3089
834.00 78.62011
834.10 79.11207
834.20 79.67669
834.30 80.19256
834.40 80.58113
834.50 80.82329
834.60 80.92203
834.70 80.89923
834.80 80.80407
834.90 80.69224
835.00 80.56557
835.10 80.39553
835.20 80.17477
835.30 79.90408
835.40 79.6058
835.50 79.33103
835.60 79.14206
835.70 79.08988
835.80 79.17908
835.90 79.37813
836.00 79.64587
836.10 79.93028
836.20 80.17319
836.30 80.3451
836.40 80.48952
836.50 80.69121
836.60 81.01131
836.70 81.45991
836.80 81.99268
836.90 82.51908
837.00 82.89634
837.10 82.96984
837.20 82.65508
837.30 81.97443
837.40 81.04157
837.50 80.04003
837.60 79.21756
837.70 78.8174
837.80 78.94578
837.90 79.52062
838.00 80.33698
838.10 81.17278
838.20 81.81387
838.30 82.04706
838.40 81.74622
838.50 80.91589
838.60 79.67734
838.70 78.24334
838.80 76.86291
838.90 75.76678
839.00 75.07425
839.10 74.76973
839.20 74.82067
839.30 75.21992
839.40 75.97272
839.50 77.0374
839.60 78.29395
839.70 79.64112
839.80 81.01391
839.90 82.34773
840.00 83.53609
840.10 84.44003
840.20 84.97078
840.30 85.12368
840.40 84.99451
840.50 84.74569
840.60 84.51096
840.70 84.37097
840.80 84.32895
840.90 84.36326
841.00 84.54298
841.10 84.94636
841.20 85.57
841.30 86.32043
841.40 87.06392
841.50 87.66971
841.60 87.99228
841.70 87.90666
841.80 87.34714
841.90 86.35441
842.00 85.09316
842.10 83.80099
842.20 82.73391
842.30 82.08208
842.40 81.89957
842.50 82.13473
842.60 82.67613
842.70 83.35824
842.80 83.95152
842.90 84.22768
843.00 84.01164
843.10 83.14071
843.20 81.51886
843.30 79.19751
843.40 76.37922
843.50 73.39251
843.60 70.60939
843.70 68.34544
843.80 66.76829
843.90 65.84095
844.00 65.35812
844.10 65.04836
844.20 64.6872
844.30 64.12121
844.40 63.28844
844.50 62.28881
844.60 61.32949
844.70 60.59073
844.80 60.14558
844.90 59.93162
845.00 59.79129
845.10 59.5382
845.20 59.02607
845.30 58.20254
845.40 57.12441
845.50 55.9477
845.60 54.85824
845.70 54.01908
845.80 53.55152
845.90 53.488
846.00 53.76311
846.10 54.24108
846.20 54.76082
846.30 55.1862
846.40 55.45056
846.50 55.55118
846.60 55.51258
846.70 55.38954
846.80 55.22225
846.90 55.02184
847.00 54.81177
847.10 54.62053
847.20 54.46142
847.30 54.34953
847.40 54.29968
847.50 54.31398
847.60 54.39043
847.70 54.51087
847.80 54.61601
847.90 54.6414
848.00 54.58558
848.10 54.48858
848.20 54.40022
848.30 54.38857
848.40 54.51453
848.50 54.80804
848.60 55.28309
848.70 55.94875
848.80 56.80271
848.90 57.79076
849.00 58.80785
849.10 59.74869
849.20 60.53057
849.30 61.09337
849.40 61.37234
849.50 61.32422
849.60 60.98672
849.70 60.45735
849.80 59.86934
849.90 59.41056
850.00 59.24481
850.10 59.38978
850.20 59.71729
850.30 60.07507
850.40 60.34813
850.50 60.44757
850.60 60.32126
850.70 59.97587
850.80 59.49644
850.90 59.02046
851.00 58.67581
851.10 58.52197
851.20 58.53928
851.30 58.59853
851.40 58.51502
851.50 58.16639
851.60 57.5008
851.70 56.49405
851.80 55.16773
851.90 53.63396
852.00 52.09938
852.10 50.83334
852.20 50.07421
852.30 49.95207
852.40 50.47974
852.50 51.58301
852.60 53.11432
852.70 54.87073
852.80 56.62422
852.90 58.17812
853.00 59.42538
853.10 60.36537
853.20 61.07329
853.30 61.6449
853.40 62.13662
853.50 62.53484
853.60 62.82599
853.70 63.05344
853.80 63.28102
853.90 63.54357
854.00 63.83893
854.10 64.16058
854.20 64.53696
854.30 65.01164
854.40 65.60495
854.50 66.30563
854.60 67.08356
854.70 67.88875
854.80 68.67209
854.90 69.39612
855.00 70.01866
855.10 70.4941
855.20 70.7849
855.30 70.8934
855.40 70.87047
855.50 70.77174
855.60 70.60263
855.70 70.33405
855.80 69.9608
855.90 69.5204
856.00 69.06873
856.10 68.67083
856.20 68.39561
856.30 68.3093
856.40 68.45667
856.50 68.81912
856.60 69.32452
856.70 69.87015
856.80 70.33685
856.90 70.63058
857.00 70.7255
857.10 70.65879
857.20 70.4899
857.30 70.27955
857.40 70.09475
857.50 70.00227
857.60 70.05723
857.70 70.27725
857.80 70.6037
857.90 70.9492
858.00 71.25828
858.10 71.5027
858.20 71.68015
858.30 71.82165
858.40 71.98211
858.50 72.20424
858.60 72.49853
858.70 72.84325
858.80 73.17856
858.90 73.43738
859.00 73.56729
859.10 73.54738
859.20 73.42903
859.30 73.30613
859.40 73.26335
859.50 73.35906
859.60 73.60697
859.70 73.97853
859.80 74.41773
859.90 74.86333
860.00 75.25876
860.10 75.57348
860.20 75.80727
860.30 75.96101
860.40 76.03528
860.50 76.02088
860.60 75.88359
860.70 75.57166
860.80 75.01173
860.90 74.14068
861.00 72.96095
861.10 71.52251
861.20 69.88918
861.30 68.14397
861.40 66.39737
861.50 64.76
861.60 63.33014
861.70 62.18496
861.80 61.35745
861.90 60.83034
862.00 60.52524
862.10 60.33319
862.20 60.17334
862.30 59.98325
862.40 59.69851
862.50 59.27063
862.60 58.68384
862.70 57.97236
862.80 57.21377
862.90 56.49373
863.00 55.88374
863.10 55.4574
863.20 55.27865
863.30 55.37746
863.40 55.75347
863.50 56.36629
863.60 57.12767
863.70 57.93012
863.80 58.67688
863.90 59.30725
864.00 59.8088
864.10 60.18259
864.20 60.42309
864.30 60.54878
864.40 60.60496
864.50 60.62317
864.60 60.62357
864.70 60.64544
864.80 60.75518
864.90 61.03596
865.00 61.55398
865.10 62.3278
865.20 63.32145
865.30 64.4437
865.40 65.58025
865.50 66.62693
865.60 67.50964
865.70 68.19583
865.80 68.6781
865.90 68.97002
866.00 69.09458
866.10 69.08103
866.20 68.97963
866.30 68.84575
866.40 68.71166
866.50 68.56871
866.60 68.35862
866.70 68.0417
866.80 67.61512
866.90 67.09731
867.00 66.54992
867.10 66.06954
867.20 65.77427
867.30 65.78136
867.40 66.1804
867.50 66.97921
867.60 68.06647
867.70 69.22567
867.80 70.20921
867.90 70.83547
868.00 71.04483
868.10 70.87174
868.20 70.42975
868.30 69.87859
868.40 69.3598
868.50 68.94941
868.60 68.64168
868.70 68.35489
868.80 67.95003
868.90 67.27775
869.00 66.21298
869.10 64.70644
869.20 62.80824
869.30 60.66212
869.40 58.48842
869.50 56.52507
869.60 54.95706
869.70 53.89616
869.80 53.37786
869.90 53.3659
870.00 53.76107
870.10 54.42733
870.20 55.22542
870.30 56.0314
870.40 56.75032
870.50 57.30138
870.60 57.62642
870.70 57.6971
870.80 57.50261
870.90 57.04631
871.00 56.34891
871.10 55.47955
871.20 54.55899
871.30 53.72161
871.40 53.08273
871.50 52.71111
871.60 52.6099
871.70 52.73257
871.80 53.02289
871.90 53.43343
872.00 53.92001
872.10 54.45651
872.20 55.04338
872.30 55.71218
872.40 56.53632
872.50 57.57409
872.60 58.81559
872.70 60.16953
872.80 61.48449
872.90 62.59908
873.00 63.383
873.10 63.75461
873.20 63.68747
873.30 63.24015
873.40 62.55854
873.50 61.83222
873.60 61.2492
873.70 60.95154
873.80 61.00053
873.90 61.40595
874.00 62.15001
874.10 63.18378
874.20 64.42269
874.30 65.72639
874.40 66.90602
874.50 67.78785
874.60 68.26821
874.70 68.32759
874.80 68.04746
874.90 67.58796
875.00 67.14905
875.10 66.9201
875.20 67.01545
875.30 67.45539
875.40 68.2048
875.50 69.22017
875.60 70.46661
875.70 71.89691
875.80 73.45226
875.90 74.98848
876.00 76.26553
876.10 77.07482
876.20 77.30521
876.30 76.94754
876.40 76.06042
876.50 74.80029
876.60 73.47761
876.70 72.48326
876.80 72.13467
876.90 72.60572
877.00 73.91606
877.10 75.97501
877.20 78.60695
877.30 81.55618
877.40 84.48102
877.50 86.97651
877.60 88.64592
877.70 89.19826
877.80 88.55432
877.90 86.8766
878.00 84.51156
878.10 81.89494
878.20 79.50253
878.30 77.74271
878.40 76.83366
878.50 76.76792
878.60 77.35496
878.70 78.34315
878.80 79.53544
878.90 80.78039
879.00 81.92885
879.10 82.89294
879.20 83.71441
879.30 84.48292
879.40 85.24484
879.50 85.9836
879.60 86.56917
879.70 86.79048
879.80 86.45104
879.90 85.42221
880.00 83.69852
880.10 81.43531
880.20 78.90585
880.30 76.43657
880.40 74.3658
880.50 72.97955
880.60 72.44624
880.70 72.8218
880.80 74.05214
880.90 75.99087
881.00 78.48922
881.10 81.42414
881.20 84.67123
881.30 88.08636
881.40 91.4788
881.50 94.61512
881.60 97.24383
881.70 99.1522
881.80 100.2234
881.90 100.415
882.00 99.78116
882.10 98.49444
882.20 96.77693
882.30 94.89171
882.40 93.09015
882.50 91.56728
882.60 90.47254
882.70 89.87786
882.80 89.76388
882.90 90.03858
883.00 90.61121
883.10 91.44053
883.20 92.50127
883.30 93.75802
883.40 95.14435
883.50 96.57482
883.60 98.0145
883.70 99.45431
883.80 100.8493
883.90 102.086
884.00 102.9753
884.10 103.2957
884.20 102.8651
884.30 101.5862
884.40 99.47681
884.50 96.68209
884.60 93.54001
884.70 90.59562
884.80 88.44047
884.90 87.56267
885.00 88.19346
885.10 90.20155
885.20 93.13985
885.30 96.34574
885.40 99.08822
885.50 100.7607
885.60 100.9918
885.70 99.68614
885.80 97.03498
885.90 93.47226
886.00 89.5821
886.10 85.98288
886.20 83.20662
886.30 81.53952
886.40 80.98021
886.50 81.30307
886.60 82.11668
886.70 82.91966
886.80 83.18191
886.90 82.50569
887.00 80.76271
887.10 78.12733
887.20 75.02709
887.30 72.07278
887.40 69.90606
887.50 68.97835
887.60 69.44518
887.70 71.16243
887.80 73.72954
887.90 76.60928
888.00 79.28132
888.10 81.33875
888.20 82.52485
888.30 82.83105
888.40 82.52429
888.50 82.01581
888.60 81.66108
888.70 81.668
888.80 82.09484
888.90 82.84968
889.00 83.70959
889.10 84.37477
889.20 84.56075
889.30 84.06879
889.40 82.84629
889.50 81.07319
889.60 79.19425
889.70 77.72138
889.80 77.05889
889.90 77.46412
890.00 79.03793
890.10 81.6543
890.20 84.9275
890.30 88.33324
890.40 91.32703
890.50 93.44674
890.60 94.41063
890.70 94.16972
890.80 92.91755
890.90 91.05384
891.00 89.0636
891.10 87.39635
891.20 86.37914
891.30 86.19385
891.40 86.91443
891.50 88.51177
891.60 90.80644
891.70 93.50785
891.80 96.23314
891.90 98.554
892.00 100.1115
892.10 100.6621
892.20 100.1333
892.30 98.63663
892.40 96.44902
892.50 93.96319
892.60 91.62791
892.70 89.8959
892.80 89.12984
892.90 89.5197
893.00 91.0558
893.10 93.48179
893.20 96.35254
893.30 99.1275
893.40 101.2529
893.50 102.2972
893.60 102.0153
893.70 100.4047
893.80 97.70047
893.90 94.2681
894.00 90.5169
894.10 86.87631
894.20 83.73747
894.30 81.3696
894.40 79.91838
894.50 79.41578
894.60 79.79067
894.70 80.88159
894.80 82.44096
894.90 84.19215
895.00 85.89296
895.10 87.38373
895.20 88.66587
895.30 89.93982
895.40 91.49036
895.50 93.48477
895.60 95.85345
895.70 98.36131
895.80 100.679
895.90 102.4135
896.00 103.2466
896.10 103.0333
896.20 101.8392
896.30 99.93491
896.40 97.72403
896.50 95.62813
896.60 93.9739
896.70 92.94529
896.80 92.58069
896.90 92.82584
897.00 93.60438
897.10 94.79456
897.20 96.24783
897.30 97.8638
897.40 99.54699
897.50 101.1922
897.60 102.681
897.70 103.8711
897.80 104.6497
897.90 105
898.00 105.0402
898.10 105.0012
898.20 105.1931
898.30 105.9129
898.40 107.3102
898.50 109.3079
898.60 111.5823
898.70 113.6222
898.80 114.9296
898.90 115.2283
899.00 114.5054
899.10 112.9638
899.20 110.942
899.30 108.792
899.40 106.833
899.50 105.3269
899.60 104.3715
899.70 103.8716
899.80 103.7265
899.90 103.9928
900.00 102.2782
900.10 101.6014
900.20 103.0316
900.30 105.102
900.40 109.9886
900.50 116.2906
900.60 117.5253
900.70 116.1531
900.80 114.8788
900.90 114.3618
901.00 111.281
901.10 108.0447
901.20 104.281
901.30 105.0824
901.40 107.7452
901.50 110.103
901.60 111.3509
901.70 114.2364
901.80 117.3628
901.90 119.5718
902.00 118.3571
902.10 116.1052
902.20 112.9577
902.30 109.247
902.40 104.3141
902.50 99.94265
902.60 96.389
902.70 91.42066
902.80 86.8735
902.90 86.21128
903.00 88.02368
903.10 91.00544
903.20 94.95074
903.30 99.67551
903.40 107.7838
903.50 116.3126
903.60 121.4852
903.70 124.7798
903.80 127.7671
903.90 129.9113
904.00 129.8804
904.10 127.1626
904.20 123.6375
904.30 120.683
904.40 118.0131
904.50 115.753
904.60 114.4889
904.70 115.0577
904.80 115.1131
904.90 115.9492
905.00 115.385
905.10 113.7504
905.20 111.5623
905.30 109.6137
905.40 106.2379
905.50 105.1023
905.60 104.7845
905.70 106.0973
905.80 108.1432
905.90 108.7998
906.00 107.7229
906.10 106.3388
906.20 103.7209
906.30 100.1402
906.40 99.68342
906.50 100.2836
906.60 101.9982
906.70 103.9687
906.80 105.8271
906.90 107.7596
907.00 109.4473
907.10 106.1485
907.20 102.5138
907.30 103.1562
907.40 106.3208
907.50 110.3939
907.60 114.5527
907.70 119.1326
907.80 123.6246
907.90 128.197
908.00 128.8934
908.10 127.7442
908.20 126.0533
908.30 124.611
908.40 122.6498
908.50 120.4857
908.60 118.0089
908.70 115.2932
908.80 112.8978
908.90 112.624
909.00 114.0861
909.10 115.8139
909.20 117.5514
909.30 119.3023
909.40 120.9517
909.50 122.6967
909.60 123.0773
909.70 122.3616
909.80 122.4538
909.90 123.2671
910.00 122.8515
910.10 122.6626
910.20 122.5202
910.30 122.3254
910.40 122.0063
910.50 121.0561
910.60 119.2994
910.70 117.9803
910.80 120.9662
910.90 123.0998
911.00 124.4518
911.10 126.2098
911.20 128.1082
911.30 128.3386
911.40 129.3306
911.50 126.8643
911.60 124.103
911.70 127.1792
911.80 131.8108
911.90 134.5836
912.00 135.7708
912.10 137.5484
912.20 140.7097
912.30 144.3084
912.40 145.8967
912.50 146.0997
912.60 145.5144
912.70 145.1611
912.80 143.5981
912.90 139.25
913.00 135.7621
913.10 134.662
913.20 134.7768
913.30 136.6357
913.40 139.0954
913.50 141.0337
913.60 141.894
913.70 142.4017
913.80 140.3604
913.90 136.4486
914.00 132.2082
914.10 128.3349
914.20 124.0837
914.30 119.6821
914.40 118.0523
914.50 120.3769
914.60 124.165
914.70 127.1228
914.80 128.7286
914.90 129.5981
915.00 131.3523
915.10 132.4157
915.20 132.117
915.30 132.4592
915.40 135.6052
915.50 139.9607
915.60 145.7103
915.70 152.2301
915.80 158.3024
915.90 160.2643
916.00 160.6795
916.10 155.9733
916.20 149.6749
916.30 143.1555
916.40 137.2033
916.50 133.4944
916.60 136.1916
916.70 140.3261
916.80 145.7386
916.90 151.5933
917.00 154.3922
917.10 154.9782
917.20 154.3225
917.30 152.0086
917.40 148.9026
917.50 145.3731
917.60 140.8612
917.70 138.7803
917.80 138.5959
917.90 139.6047
918.00 140.675
918.10 142.1423
918.20 143.3697
918.30 144.9953
918.40 144.9454
918.50 143.9453
918.60 143.8571
918.70 145.617
918.80 148.1788
918.90 151.9285
919.00 157.5773
919.10 163.4481
919.20 168.8185
919.30 170.5212
919.40 168.8268
919.50 164.5644
919.60 159.8295
919.70 153.5135
919.80 151.7942
919.90 152.2684
920.00 155.1786
920.10 159.0284
920.20 162.899
920.30 164.8891
920.40 166.6995
920.50 165.0063
920.60 161.7055
920.70 157.5776
920.80 153.0709
920.90 147.0833
921.00 140.2819
921.10 134.8189
921.20 132.9772
921.30 132.1034
921.40 134.036
921.50 137.3833
921.60 141.6015
921.70 145.7745
921.80 149.5855
921.90 152.5669
922.00 155.1245
922.10 155.2501
922.20 154.1441
922.30 152.3535
922.40 150.7905
922.50 149.6681
922.60 147.6286
922.70 146.1265
922.80 144.755
922.90 143.0552
923.00 139.8291
923.10 135.4495
923.20 131.6164
923.30 131.6159
923.40 132.0032
923.50 133.3706
923.60 135.4293
923.70 137.6041
923.80 139.4826
923.90 141.1522
924.00 142.9493
924.10 145.769
924.20 150.3577
924.30 155.826
924.40 158.3272
924.50 159.2651
924.60 158.0719
924.70 153.9901
924.80 147.1087
924.90 142.272
925.00 136.7356
925.10 133.0532
925.20 130.3635
925.30 130.079
925.40 132.1944
925.50 136.2343
925.60 140.3108
925.70 145.0745
925.80 149.0471
925.90 153.0448
926.00 153.3461
926.10 149.8364
926.20 145.4409
926.30 144.6457
926.40 143.5821
926.50 146.2444
926.60 149.2873
926.70 151.6089
926.80 153.9837
926.90 155.7153
927.00 152.7738
927.10 148.9784
927.20 146.2835
927.30 143.1285
927.40 140.9612
927.50 138.937
927.60 135.8703
927.70 132.3546
927.80 129.2937
927.90 126.104
928.00 123.3288
928.10 122.8568
928.20 123.5313
928.30 126.2273
928.40 130.6127
928.50 134.6184
928.60 136.138
928.70 137.0347
928.80 134.1683
928.90 130.1246
929.00 127.527
929.10 126.8444
929.20 127.5452
929.30 130.1336
929.40 133.9118
929.50 135.5873
929.60 136.4618
929.70 136.818
929.80 136.751
929.90 136.3788
930.00 137.6181
930.10 139.1561
930.20 137.2627
930.30 135.2651
930.40 132.9965
930.50 130.6687
930.60 128.4649
930.70 126.6396
930.80 125.2042
930.90 125.0027
931.00 125.7891
931.10 128.5029
931.20 131.6838
931.30 135.4134
931.40 140.9018
931.50 145.542
931.60 145.3801
931.70 145.3026
931.80 144.6584
931.90 146.1109
932.00 147.7701
932.10 149.5966
932.20 149.6873
932.30 149.8664
932.40 148.0649
932.50 143.8149
932.60 139.8309
932.70 138.7203
932.80 138.4395
932.90 137.6771
933.00 139.209
933.10 140.6973
933.20 140.8564
933.30 139.3359
933.40 137.6071
933.50 135.7291
933.60 133.9823
933.70 132.8458
933.80 133.2743
933.90 133.8556
934.00 135.345
934.10 138.4274
934.20 141.5045
934.30 143.5072
934.40 144.2196
934.50 144.9542
934.60 145.9639
934.70 147.0623
934.80 147.7882
934.90 148.3221
935.00 148.7457
935.10 147.1688
935.20 144.3455
935.30 141.5273
935.40 137.5963
935.50 132.8526
935.60 129.0499
935.70 128.8937
935.80 129.1997
935.90 131.8696
936.00 138.1807
936.10 144.4526
936.20 149.674
936.30 153.7101
936.40 157.3942
936.50 157.9026
936.60 157.2633
936.70 154.8973
936.80 150.7267
936.90 146.558
937.00 143.1261
937.10 141.497
937.20 140.021
937.30 139.7878
937.40 140.2978
937.50 141.3496
937.60 142.1188
937.70 142.7708
937.80 142.8376
937.90 141.2461
938.00 139.7428
938.10 139.3776
938.20 140.11
938.30 140.7609
938.40 141.288
938.50 141.7991
938.60 142.5795
938.70 141.6446
938.80 140.6743
938.90 140.4987
939.00 142.4966
939.10 144.7064
939.20 147.3064
939.30 149.872
939.40 152.2226
939.50 153.7674
939.60 155.1753
939.70 154.9312
939.80 150.8991
939.90 146.6749
940.00 142.5461
940.10 139.9342
940.20 137.7023
940.30 138.3345
940.40 140.1126
940.50 143.3904
940.60 148.1653
940.70 152.9858
940.80 156.6079
940.90 156.3403
941.00 155.9187
941.10 155.6178
941.20 155.7136
941.30 154.9606
941.40 154.3069
941.50 153.8038
941.60 153.5115
941.70 153.1357
941.80 152.6835
941.90 150.9495
942.00 147.6918
942.10 144.8483
942.20 144.6567
942.30 145.5412
942.40 146.7745
942.50 147.2082
942.60 147.6073
942.70 149.1777
942.80 153.5824
942.90 157.9012
943.00 161.7961
943.10 165.4682
943.20 168.91
943.30 172.1283
943.40 175.3274
943.50 178.1238
943.60 175.1482
943.70 171.9692
943.80 168.5749
943.90 166.3907
944.00 164.0257
944.10 161.711
944.20 159.5314
944.30 157.558
944.40 156.1141
944.50 154.7229
944.60 153.6847
944.70 151.9533
944.80 150.5146
944.90 150.9725
945.00 152.6553
945.10 154.2622
945.20 157.0952
945.30 160.2467
945.40 162.9992
945.50 163.7812
945.60 164.2715
945.70 162.8098
945.80 160.2876
945.90 158.1594
946.00 155.5293
946.10 152.3898
946.20 150.0022
946.30 149.7148
946.40 149.5971
946.50 151.2799
946.60 155.0294
946.70 158.4444
946.80 161.1218
946.90 163.7433
947.00 165.8474
947.10 166.497
947.20 166.8479
947.30 167.3174
947.40 168.3059
947.50 169.3726
947.60 170.2295
947.70 170.1615
947.80 170.3622
947.90 170.4355
948.00 170.2833
948.10 169.666
948.20 169.9362
948.30 170.2625
948.40 171.1819
948.50 174.8819
948.60 178.4196
948.70 181.5922
948.80 184.7171
948.90 188.5154
949.00 190.2849
949.10 191.4441
949.20 191.5296
949.30 187.7875
949.40 183.9819
949.50 180.9383
949.60 179.6246
949.70 178.415
949.80 178.1248
949.90 178.2713
950.00 178.8094
950.10 180.1237
950.20 181.4585
950.30 181.9891
950.40 180.9521
950.50 179.82
950.60 180.1393
950.70 182.0225
950.80 184.885
950.90 186.0132
951.00 186.5702
951.10 186.6567
951.20 187.8634
951.30 188.8544
951.40 187.7198
951.50 184.3469
951.60 180.483
951.70 176.585
951.80 172.9224
951.90 169.6997
952.00 168.202
952.10 166.9049
952.20 168.3897
952.30 174.7214
952.40 181.4298
952.50 188.499
952.60 195.2832
952.70 201.8283
952.80 201.7768
952.90 200.2081
953.00 197.3313
953.10 192.7503
953.20 187.9444
953.30 183.5168
953.40 180.935
953.50 178.6244
953.60 179.6464
953.70 182.1865
953.80 184.5578
953.90 183.4896
954.00 182.3275
954.10 181.7527
954.20 181.5096
954.30 181.2655
954.40 182.148
954.50 184.0307
954.60 186.0682
954.70 190.2966
954.80 194.9892
954.90 198.802
955.00 199.3128
955.10 199.7743
955.20 198.9234
955.30 196.3267
955.40 194.5009
955.50 193.4211
955.60 192.3834
955.70 191.457
955.80 191.4756
955.90 191.4879
956.00 191.405
956.10 191.849
956.20 191.9176
956.30 192.1217
956.40 192.8973
956.50 193.5452
956.60 193.8059
956.70 194.0038
956.80 194.3842
956.90 194.5683
957.00 194.8512
957.10 195.2629
957.20 195.475
957.30 195.6058
957.40 195.5619
957.50 195.4706
957.60 194.6369
957.70 192.4491
957.80 190.2568
957.90 188.2403
958.00 186.5486
958.10 185.1737
958.20 184.3829
958.30 183.7158
958.40 183.4976
958.50 182.0422
958.60 180.3317
958.70 178.1198
958.80 176.4072
958.90 174.1735
959.00 170.2855
959.10 165.8163
959.20 161.7287
959.30 160.0022
959.40 159.0906
959.50 159.3667
959.60 159.863
959.70 160.2525
959.80 160.4002
959.90 161.2015
960.00 161.5139
960.10 161.5423
960.20 161.7722
960.30 163.0168
960.40 163.9778
960.50 164.9419
960.60 167.8098
960.70 169.6096
960.80 171.2326
960.90 171.4353
961.00 170.3405
961.10 168.2066
961.20 166.6552
961.30 165.5323
961.40 163.6254
961.50 164.7493
961.60 166.0783
961.70 168.4754
961.80 171.3986
961.90 174.9309
962.00 177.8935
962.10 180.0864
962.20 182.3372
962.30 182.4712
962.40 182.2631
962.50 180.6235
962.60 178.8271
962.70 177.0206
962.80 175.7643
962.90 175.1234
963.00 174.3951
963.10 175.1176
963.20 176.2877
963.30 177.1728
963.40 175.0733
963.50 172.6117
963.60 168.3309
963.70 162.9241
963.80 157.3383
963.90 152.4455
964.00 148.0353
964.10 144.4732
964.20 144.8617
964.30 145.7861
964.40 148.6036
964.50 150.0442
964.60 151.9086
964.70 155.1989
964.80 159.2486
964.90 162.4276
965.00 163.5862
965.10 164.3376
965.20 164.0276
965.30 163.7327
965.40 163.3393
965.50 162.9531
965.60 163.0133
965.70 163.3443
965.80 166.1803
965.90 170.1453
966.00 174.919
966.10 176.4241
966.20 177.8917
966.30 179.9697
966.40 181.9525
966.50 183.6481
966.60 184.8486
966.70 185.9515
966.80 186.0375
966.90 186.6835
967.00 187.5307
967.10 188.3023
967.20 185.132
967.30 181.8526
967.40 178.9163
967.50 176.7895
967.60 174.4001
967.70 174.1479
967.80 174.8402
967.90 175.4996
968.00 176.7132
968.10 178.1707
968.20 180.2808
968.30 181.4437
968.40 182.3841
968.50 181.8018
968.60 180.2915
968.70 178.6407
968.80 178.0538
968.90 177.642
969.00 177.6049
969.10 178.7133
969.20 180.0799
969.30 182.3452
969.40 185.1232
969.50 188.0798
969.60 190.2575
969.70 192.1279
969.80 193.5813
969.90 194.2539
970.00 194.7111
970.10 194.0732
970.20 192.6764
970.30 191.0195
970.40 188.6964
970.50 186.1123
970.60 183.0912
970.70 182.0933
970.80 181.4051
970.90 182.1522
971.00 185.4257
971.10 189.4037
971.20 194.2749
971.30 198.976
971.40 204.3013
971.50 206.9535
971.60 208.8206
971.70 209.3643
971.80 207.7486
971.90 205.7939
972.00 203.7945
972.10 203.2031
972.20 201.9742
972.30 201.1951
972.40 200.8954
972.50 200.6567
972.60 198.4649
972.70 196.2276
972.80 194.1164
972.90 191.4724
973.00 188.7978
973.10 187.066
973.20 186.1692
973.30 186.0817
973.40 186.4788
973.50 186.9309
973.60 187.6659
973.70 188.0198
973.80 188.3376
973.90 188.8435
974.00 189.7108
974.10 189.5442
974.20 188.1583
974.30 186.5331
974.40 185.242
974.50 184.0916
974.60 182.994
974.70 182.2563
974.80 181.914
974.90 182.1876
975.00 183.9584
975.10 186.3416
975.20 189.07
975.30 190.9303
975.40 192.6163
975.50 193.8683
975.60 195.1862
975.70 196.5698
975.80 197.7907
975.90 198.6947
976.00 198.854
976.10 199.2441
976.20 199.8177
976.30 200.9763
976.40 201.5365
976.50 202.1084
976.60 202.6056
976.70 202.8933
976.80 203.0559
976.90 202.4722
977.00 201.5241
977.10 199.2652
977.20 197.9526
977.30 196.8738
977.40 196.9333
977.50 198.1127
977.60 199.8046
977.70 201.1486
977.80 201.5696
977.90 201.9606
978.00 201.2404
978.10 200.2164
978.20 197.6965
978.30 195.0626
978.40 192.3164
978.50 190.0468
978.60 188.8498
978.70 187.9566
978.80 187.7656
978.90 187.8062
979.00 188.7692
979.10 192.5245
979.20 196.5946
979.30 201.2339
979.40 204.8251
979.50 208.4571
979.60 210.8795
979.70 212.3589
979.80 213.4487
979.90 213.9621
980.00 214.3089
980.10 213.7402
980.20 213.1275
980.30 212.5335
980.40 212.1676
980.50 212.0436
980.60 211.2104
980.70 209.6711
980.80 208.0076
980.90 206.8528
981.00 206.1904
981.10 205.5978
981.20 204.7991
981.30 203.1987
981.40 201.704
981.50 202.31
981.60 204.1011
981.70 205.3507
981.80 205.8035
981.90 206.2184
982.00 206.6374
982.10 206.5948
982.20 206.4897
982.30 206.2506
982.40 205.9561
982.50 206.1717
982.60 207.0414
982.70 208.0607
982.80 209.5874
982.90 209.0128
983.00 208.2774
983.10 207.2092
983.20 206.1314
983.30 204.3235
983.40 203.0549
983.50 202.2211
983.60 201.1638
983.70 201.0599
983.80 201.1963
983.90 202.3159
984.00 203.9541
984.10 205.8829
984.20 207.5165
984.30 208.725
984.40 209.4059
984.50 207.5549
984.60 205.3908
984.70 203.3896
984.80 200.2603
984.90 196.8901
985.00 194.9097
985.10 194.9846
985.20 194.8456
985.30 196.3598
985.40 198.4557
985.50 200.6574
985.60 202.0063
985.70 203.7049
985.80 205.5828
985.90 206.1467
986.00 206.6634
986.10 207.8975
986.20 209.5534
986.30 210.9766
986.40 211.8445
986.50 212.6289
986.60 212.8271
986.70 211.7343
986.80 209.8831
986.90 208.5187
987.00 208.3931
987.10 209.2188
987.20 212.2642
987.30 215.8374
987.40 220.3368
987.50 221.2686
987.60 222.1789
987.70 221.6525
987.80 219.1138
987.90 214.6262
988.00 211.6558
988.10 209.7151
988.20 208.3865
988.30 211.3232
988.40 214.7258
988.50 218.7624
988.60 221.0172
988.70 223.5727
988.80 224.6635
988.90 224.5654
989.00 223.2876
989.10 219.3479
989.20 214.8625
989.30 208.2238
989.40 198.6169
989.50 187.9112
989.60 175.7543
989.70 163.5404
989.80 150.8074
989.90 140.8748
990.00 131.8416
990.10 124.7138
990.20 119.0945
990.30 113.8256
990.40 108.8171
990.50 103.041
990.60 97.07235
990.70 92.61668
990.80 89.00123
990.90 86.07109
991.00 85.58404
991.10 85.51417
991.20 85.97952
991.30 84.7605
991.40 83.46653
991.50 82.46376
991.60 81.75814
991.70 81.22595
991.80 81.44366
991.90 81.87821
992.00 83.0559
992.10 84.24127
992.20 85.48164
992.30 86.11951
992.40 85.88981
992.50 84.90585
992.60 86.34016
992.70 88.73769
992.80 91.56045
992.90 94.98111
993.00 98.74032
993.10 102.5511
993.20 104.8626
993.30 107.0692
993.40 108.7327
993.50 110.1185
993.60 111.3318
993.70 114.5508
993.80 118.0505
993.90 122.2299
994.00 126.8803
994.10 131.3644
994.20 134.6932
994.30 137.1152
994.40 138.3943
994.50 138.615
994.60 138.7006
994.70 139.2022
994.80 140.23
994.90 141.5437
995.00 143.8698
995.10 146.9811
995.20 150.4987
995.30 152.3756
995.40 153.5041
995.50 152.7305
995.60 149.3233
995.70 145.6851
995.80 141.7634
995.90 138.6364
996.00 135.3353
996.10 135.2543
996.20 137.4076
996.30 142.4827
996.40 148.1045
996.50 153.9005
996.60 159.1108
996.70 158.4534
996.80 156.3606
996.90 151.1675
997.00 144.4322
997.10 134.6663
997.20 127.2457
997.30 120.7657
997.40 115.7582
997.50 115.6901
997.60 116.8798
997.70 119.9865
997.80 122.5729
997.90 126.2854
998.00 129.3896
998.10 131.9346
998.20 133.546
998.30 132.3101
998.40 130.6313
998.50 128.2096
998.60 126.699
998.70 125.24
998.80 124.2273
998.90 123.5072
999.00 122.8368
999.10 123.1077
999.20 123.5647
999.30 123.9303
999.40 122.5543
999.50 120.8589
999.60 120.7284
999.70 122.8028
999.80 125.7069
999.90 130.3231
1000.00 135.4216
1000.10 141.4921
1000.20 146.9916
1000.30 153.0116
1000.40 157.9588
1000.50 159.2809
1000.60 159.3647
1000.70 157.7723
1000.80 155.66
1000.90 150.5747
1001.00 146.1391
1001.10 141.717
1001.20 138.2867
1001.30 137.8617
1001.40 138.8374
1001.50 141.4405
1001.60 144.3851
1001.70 148.7405
1001.80 151.9464
1001.90 154.7213
1002.00 156.1638
1002.10 157.0269
1002.20 157.7245
1002.30 158.7534
1002.40 160.4448
1002.50 162.6908
1002.60 164.7479
1002.70 166.6557
1002.80 167.9007
1002.90 166.3132
1003.00 164.3416
1003.10 161.7613
1003.20 159.4351
1003.30 156.5396
1003.40 153.4729
1003.50 150.4864
1003.60 147.5958
1003.70 147.1783
1003.80 147.0001
1003.90 147.4952
1004.00 148.9695
1004.10 151.994
1004.20 157.4258
1004.30 163.7835
1004.40 170.9991
1004.50 174.3264
1004.60 176.601
1004.70 176.5002
1004.80 172.4084
1004.90 166.7195
1005.00 158.0026
1005.10 148.0187
1005.20 136.7618
1005.30 128.7464
1005.40 122.0752
1005.50 116.8085
1005.60 114.2958
1005.70 112.8902
1005.80 114.1128
1005.90 116.0742
1006.00 119.1486
1006.10 122.5534
1006.20 125.7763
1006.30 128.0478
1006.40 132.8686
1006.50 137.9062
1006.60 143.0262
1006.70 147.8824
1006.80 153.2991
1006.90 157.6449
1007.00 160.6549
1007.10 162.6721
1007.20 163.2437
1007.30 163.3756
1007.40 162.5102
1007.50 163.8699
1007.60 165.5807
1007.70 168.8122
1007.80 173.3868
1007.90 178.6682
1008.00 182.146
1008.10 184.8825
1008.20 187.1283
1008.30 186.6563
1008.40 186.2801
1008.50 185.6823
1008.60 184.2933
1008.70 182.1492
1008.80 179.7059
1008.90 177.3333
1009.00 173.0051
1009.10 169.937
1009.20 166.9198
1009.30 164.4347
1009.40 164.2978
1009.50 165.5832
1009.60 170.3635
1009.70 177.1687
1009.80 186.2926
1009.90 193.982
1010.00 201.4617
1010.10 209.6178
1010.20 215.1292
1010.30 219.6756
1010.40 220.7689
1010.50 218.9128
1010.60 214.1969
1010.70 208.2665
1010.80 202.1918
1010.90 194.4948
1011.00 186.2102
1011.10 178.1155
1011.20 170.9547
1011.30 164.8906
1011.40 159.3636
1011.50 155.4151
1011.60 152.1845
1011.70 149.4391
1011.80 151.1142
1011.90 153.6055
1012.00 158.5152
1012.10 165.7083
1012.20 174.325
1012.30 182.4889
1012.40 189.2749
1012.50 196.0986
1012.60 200.0879
1012.70 203.2143
1012.80 204.3689
1012.90 204.6123
1013.00 204.2205
1013.10 201.4345
1013.20 196.5892
1013.30 190.5051
1013.40 182.5003
1013.50 173.8619
1013.60 163.4386
1013.70 157.5763
1013.80 151.9912
1013.90 149.3284
1014.00 151.3393
1014.10 155.9298
1014.20 160.2217
1014.30 163.5645
1014.40 168.532
1014.50 169.5574
1014.60 169.7808
1014.70 169.1921
1014.80 170.954
1014.90 172.6346
1015.00 175.552
1015.10 179.5776
1015.20 184.5748
1015.30 185.4934
1015.40 185.5128
1015.50 184.2221
1015.60 180.0154
1015.70 174.4796
1015.80 168.6618
1015.90 164.4064
1016.00 160.6023
1016.10 160.553
1016.20 161.8568
1016.30 165.0614
1016.40 167.375
1016.50 170.2102
1016.60 173.3026
1016.70 175.2231
1016.80 176.5695
1016.90 177.0067
1017.00 177.1066
1017.10 175.5444
1017.20 179.1998
1017.30 183.5865
1017.40 188.571
1017.50 191.9355
1017.60 196.4443
1017.70 198.3447
1017.80 197.5444
1017.90 194.5392
1018.00 189.1998
1018.10 182.8657
1018.20 174.1193
1018.30 168.5778
1018.40 163.1008
1018.50 159.4972
1018.60 158.0105
1018.70 158.9979
1018.80 161.1109
1018.90 163.5663
1019.00 167.8793
1019.10 170.7236
1019.20 173.548
1019.30 175.7675
1019.40 177.0105
1019.50 176.8939
1019.60 176.8028
1019.70 177.0251
1019.80 176.4783
1019.90 177.0291
1020.00 178.0008
1020.10 180.0125
1020.20 182.3944
1020.30 184.9773
1020.40 187.801
1020.50 190.7051
1020.60 194.127
1020.70 194.3607
1020.80 194.0026
1020.90 192.7454
1021.00 189.9476
1021.10 186.3282
1021.20 181.6336
1021.30 176.6292
1021.40 169.9978
1021.50 163.9155
1021.60 158.1728
1021.70 153.1594
1021.80 149.3647
1021.90 145.8472
1022.00 144.2796
1022.10 145.163
1022.20 147.5825
1022.30 151.3565
1022.40 155.5002
1022.50 161.0858
1022.60 165.2886
1022.70 169.5128
1022.80 172.8943
1022.90 174.0293
1023.00 173.6039
1023.10 172.2036
1023.20 170.7645
1023.30 168.7378
1023.40 169.8203
1023.50 171.7032
1023.60 175.3911
1023.70 180.2722
1023.80 185.4825
1023.90 190.6056
1024.00 195.3612
1024.10 200.3252
1024.20 201.7598
1024.30 202.1762
1024.40 201.3595
1024.50 199.5567
1024.60 197.2214
1024.70 193.6313
1024.80 189.1716
1024.90 183.8051
1025.00 179.6203
1025.10 176.0337
1025.20 172.3317
1025.30 170.2746
1025.40 168.6952
1025.50 168.1402
1025.60 167.9575
1025.70 168.0132
1025.80 165.6362
1025.90 161.6929
1026.00 156.5987
1026.10 151.354
1026.20 145.7407
1026.30 140.7573
1026.40 141.1484
1026.50 143.3527
1026.60 148.298
1026.70 154.4611
1026.80 163.7504
1026.90 170.6044
1027.00 176.7501
1027.10 181.4827
1027.20 181.8909
1027.30 180.6958
1027.40 178.3003
1027.50 176.5877
1027.60 173.4879
1027.70 169.3513
1027.80 165.0145
1027.90 160.9839
1028.00 156.1598
1028.10 151.452
1028.20 147.9564
1028.30 146.3747
1028.40 145.3685
1028.50 147.8402
1028.60 152.0518
1028.70 158.7841
1028.80 164.7092
1028.90 170.8897
1029.00 176.5647
1029.10 178.8818
1029.20 179.852
1029.30 179.6688
1029.40 179.2558
1029.50 177.0978
1029.60 175.2299
1029.70 173.5461
1029.80 172.3143
1029.90 171.2975
1030.00 170.4277
1030.10 170.3043
1030.20 170.8697
1030.30 171.9195
1030.40 174.0325
1030.50 176.5986
1030.60 180.244
1030.70 182.1889
1030.80 183.9392
1030.90 185.1597
1031.00 185.9553
1031.10 185.7829
1031.20 184.8558
1031.30 183.7463
1031.40 182.7279
1031.50 181.5921
1031.60 180.2561
1031.70 178.6098
1031.80 177.1016
1031.90 175.1851
1032.00 172.9249
1032.10 170.582
1032.20 168.2545
1032.30 166.8847
1032.40 165.9696
1032.50 166.9535
1032.60 171.3505
1032.70 176.2479
1032.80 182.7479
1032.90 190.4099
1033.00 200.5282
1033.10 206.8551
1033.20 212.0717
1033.30 215.4623
1033.40 212.534
1033.50 207.4587
1033.60 200.1205
1033.70 192.8691
1033.80 183.3149
1033.90 176.7195
1034.00 171.7424
1034.10 169.7438
1034.20 171.3745
1034.30 174.1874
1034.40 178.3263
1034.50 181.4492
1034.60 185.0547
1034.70 186.688
1034.80 187.0954
1034.90 185.3235
1035.00 183.113
1035.10 180.5438
1035.20 177.8496
1035.30 177.0226
1035.40 176.5152
1035.50 177.7533
1035.60 180.2022
1035.70 183.978
1035.80 187.9398
1035.90 192.1576
1036.00 197.0253
1036.10 200.7541
1036.20 204.6205
1036.30 208.1267
1036.40 211.0892
1036.50 213.4189
1036.60 215.4922
1036.70 217.2913
1036.80 217.8615
1036.90 220.9906
1037.00 224.6753
1037.10 228.5101
1037.20 231.4358
1037.30 235.2589
1037.40 235.3394
1037.50 233.4804
1037.60 229.2764
1037.70 220.519
1037.80 210.0538
1037.90 198.1869
1038.00 189.9432
1038.10 181.8492
1038.20 177.6242
1038.30 175.9295
1038.40 178.6369
1038.50 180.8431
1038.60 183.75
1038.70 187.8504
1038.80 189.0517
1038.90 189.2275
1039.00 188.784
1039.10 188.4542
1039.20 186.5532
1039.30 186.595
1039.40 187.1453
1039.50 187.988
1039.60 189.66
1039.70 192.0083
1039.80 194.6752
1039.90 196.8681
1040.00 199.4366
1040.10 202.1056
1040.20 204.8192
1040.30 207.8799
1040.40 211.0511
1040.50 214.0875
1040.60 216.7837
1040.70 219.1941
1040.80 221.0255
1040.90 219.6617
1041.00 216.6416
1041.10 211.7781
1041.20 206.5123
1041.30 201.0723
1041.40 196.579
1041.50 195.6905
1041.60 196.3141
1041.70 199.6851
1041.80 204.4871
1041.90 211.8682
1042.00 214.6477
1042.10 216.1662
1042.20 215.2302
1042.30 210.6131
1042.40 204.2634
1042.50 196.7594
1042.60 189.4795
1042.70 180.1907
1042.80 176.7786
1042.90 175.4956
1043.00 176.8853
1043.10 181.2358
1043.20 187.7239
1043.30 196.3664
1043.40 204.7669
1043.50 215.0882
1043.60 222.4594
1043.70 228.1103
1043.80 230.7822
1043.90 232.7493
1044.00 233.7625
1044.10 233.0323
1044.20 231.7683
1044.30 230.614
1044.40 229.5667
1044.50 228.554
1044.60 227.3315
1044.70 227.5316
1044.80 227.8766
1044.90 229.2498
1045.00 233.6123
1045.10 239.723
1045.20 246.5679
1045.30 253.1256
1045.40 261.2307
1045.50 263.7699
1045.60 264.7181
1045.70 263.1357
1045.80 258.3723
1045.90 251.0967
1046.00 242.666
1046.10 235.3919
1046.20 227.1743
1046.30 219.4238
1046.40 212.0673
1046.50 205.7643
1046.60 198.8684
1046.70 192.4956
1046.80 187.7408
1046.90 184.6243
1047.00 181.6302
1047.10 181.0326
1047.20 181.6437
1047.30 183.5577
1047.40 184.3964
1047.50 185.7056
1047.60 187.3599
1047.70 187.9861
1047.80 188.5791
1047.90 190.275
1048.00 192.7162
1048.10 194.7188
1048.20 199.0577
1048.30 203.9949
1048.40 209.5146
1048.50 214.005
1048.60 218.4075
1048.70 221.6326
1048.80 223.8225
1048.90 225.2089
1049.00 225.9314
1049.10 226.461
1049.20 226.3915
1049.30 224.0516
1049.40 221.6638
1049.50 218.9768
1049.60 215.9631
1049.70 211.6144
1049.80 210.329
1049.90 210.172
1050.00 210.2796
1050.10 212.8015
1050.20 216.0817
1050.30 219.0955
1050.40 219.9882
1050.50 220.5569
1050.60 218.9281
1050.70 216.2321
1050.80 212.9813
1050.90 208.9066
1051.00 204.6476
1051.10 200.1452
1051.20 195.712
1051.30 190.7309
1051.40 186.7273
1051.50 183.5821
1051.60 180.4276
1051.70 178.6118
1051.80 177.3073
1051.90 177.2596
1052.00 178.8514
1052.10 181.084
1052.20 184.35
1052.30 188.1984
1052.40 192.6224
1052.50 197.7598
1052.60 203.5294
1052.70 210.65
1052.80 215.2463
1052.90 219.1374
1053.00 221.7099
1053.10 223.397
1053.20 223.1974
1053.30 222.7076
1053.40 222.1814
1053.50 221.189
1053.60 219.6245
1053.70 218.3013
1053.80 217.4931
1053.90 217.0937
1054.00 216.6424
1054.10 215.8194
1054.20 214.8424
1054.30 214.3125
1054.40 211.6648
1054.50 208.7079
1054.60 205.4062
1054.70 202.1897
1054.80 198.0567
1054.90 196.1853
1055.00 196.264
1055.10 197.8027
1055.20 199.7324
1055.30 202.2477
1055.40 205.0712
1055.50 203.6118
1055.60 201.0043
1055.70 196.7622
1055.80 191.6511
1055.90 184.5182
1056.00 180.0351
1056.10 176.4584
1056.20 173.8478
1056.30 173.4891
1056.40 173.9572
1056.50 175.3879
1056.60 177.0941
1056.70 179.6479
1056.80 181.4038
1056.90 182.7748
1057.00 183.9789
1057.10 184.9348
1057.20 186.0637
1057.30 187.8556
1057.40 190.5238
1057.50 193.1339
1057.60 195.4443
1057.70 197.5902
1057.80 199.5642
1057.90 200.9696
1058.00 202.2349
1058.10 202.8507
1058.20 202.1822
1058.30 201.3162
1058.40 200.6649
1058.50 200.2456
1058.60 198.2867
1058.70 196.0351
1058.80 193.6487
1058.90 191.3088
1059.00 190.1317
1059.10 189.2752
1059.20 188.5021
1059.30 187.6073
1059.40 188.5793
1059.50 189.904
1059.60 191.2873
1059.70 192.5938
1059.80 192.802
1059.90 192.5974
1060.00 191.8213
1060.10 190.7617
1060.20 188.9227
1060.30 186.8557
1060.40 184.7754
1060.50 182.7967
1060.60 181.1644
1060.70 179.5518
1060.80 178.4981
1060.90 178.4847
1061.00 178.2666
1061.10 178.9136
1061.20 180.2132
1061.30 183.5574
1061.40 185.5055
1061.50 187.583
1061.60 189.8521
1061.70 191.8107
1061.80 192.6323
1061.90 193.003
1062.00 193.4189
1062.10 191.9982
1062.20 192.3698
1062.30 193.3298
1062.40 195.1508
1062.50 197.378
1062.60 201.3693
1062.70 205.9662
1062.80 210.0874
1062.90 215.0756
1063.00 217.7897
1063.10 219.2818
1063.20 218.7702
1063.30 219.2977
1063.40 218.8409
1063.50 218.422
1063.60 219.2134
1063.70 220.6681
1063.80 222.0063
1063.90 223.6538
1064.00 227.2873
1064.10 228.7202
1064.20 229.6412
1064.30 229.8214
1064.40 229.698
1064.50 228.9983
1064.60 228.7858
1064.70 228.8581
1064.80 228.4248
1064.90 227.3325
1065.00 226.5708
1065.10 225.5087
1065.20 222.1818
1065.30 217.6567
1065.40 212.7544
1065.50 207.9124
1065.60 202.0402
1065.70 199.5753
1065.80 197.6488
1065.90 195.6749
1066.00 192.5576
1066.10 190.5747
1066.20 188.6443
1066.30 186.1512
1066.40 183.5698
1066.50 182.2673
1066.60 181.1181
1066.70 179.8646
1066.80 181.1044
1066.90 182.1097
1067.00 182.4095
1067.10 182.0183
1067.20 183.0304
1067.30 186.159
1067.40 190.2946
1067.50 195.9407
1067.60 201.1073
1067.70 206.5822
1067.80 212.0759
1067.90 217.0324
1068.00 220.745
1068.10 223.7564
1068.20 226.5459
1068.30 229.0956
1068.40 231.1928
1068.50 233.4061
1068.60 235.4636
1068.70 236.6751
1068.80 237.2321
1068.90 236.774
1069.00 235.7319
1069.10 233.5669
1069.20 231.235
1069.30 228.6326
1069.40 225.0337
1069.50 219.4464
1069.60 213.8673
1069.70 209.8567
1069.80 207.2902
1069.90 205.8969
1070.00 206.247
1070.10 207.0116
1070.20 207.9765
1070.30 209.1511
1070.40 210.2724
1070.50 210.2314
1070.60 208.8149
1070.70 208.0554
1070.80 209.0428
1070.90 210.6366
1071.00 212.604
1071.10 215.8294
1071.20 218.6313
1071.30 220.9023
1071.40 222.9348
1071.50 225.3874
1071.60 227.4021
1071.70 229.2621
1071.80 231.6862
1071.90 232.703
1072.00 233.2381
1072.10 232.9599
1072.20 232.1167
1072.30 230.054
1072.40 228.0105
1072.50 226.2469
1072.60 224.7672
1072.70 225.0919
1072.80 226.0024
1072.90 227.2181
1073.00 227.1121
1073.10 227.6781
1073.20 228.7124
1073.30 229.8883
1073.40 229.6298
1073.50 229.373
1073.60 229.1044
1073.70 229.0235
1073.80 230.0682
1073.90 232.1604
1074.00 234.4086
1074.10 236.1088
1074.20 238.4476
1074.30 241.8255
1074.40 245.1991
1074.50 247.6168
1074.60 249.3782
1074.70 250.9187
1074.80 251.1348
1074.90 249.5624
1075.00 247.2747
1075.10 243.1213
1075.20 237.8918
1075.30 231.1028
1075.40 227.6163
1075.50 224.2511
1075.60 222.548
1075.70 224.0979
1075.80 228.1378
1075.90 231.5914
1076.00 234.4006
1076.10 238.0089
1076.20 238.3884
1076.30 238.1576
1076.40 237.7681
1076.50 238.6466
1076.60 238.6462
1076.70 239.2756
1076.80 240.6897
1076.90 242.7996
1077.00 244.2307
1077.10 245.4104
1077.20 245.8531
1077.30 244.2642
1077.40 242.3445
1077.50 240.9697
1077.60 240.3474
1077.70 239.1088
1077.80 238.9469
1077.90 239.4603
1078.00 241.003
1078.10 242.1325
1078.20 243.5537
1078.30 244.1762
1078.40 243.4041
1078.50 241.9112
1078.60 239.8224
1078.70 237.2867
1078.80 233.6917
1078.90 229.5718
1079.00 225.362
1079.10 221.0784
1079.20 216.818
1079.30 212.3613
1079.40 210.0056
1079.50 208.8884
1079.60 208.5938
1079.70 210.5578
1079.80 213.2195
1079.90 216.3424
1080.00 218.6776
1080.10 221.5656
1080.20 223.8863
1080.30 225.7057
1080.40 227.7155
1080.50 231.0495
1080.60 234.4284
1080.70 237.374
1080.80 239.3164
1080.90 240.7705
1081.00 242.0542
1081.10 243.3832
1081.20 244.1434
1081.30 245.2927
1081.40 246.8152
1081.50 249.2078
1081.60 252.9302
1081.70 256.7703
1081.80 258.8346
1081.90 258.64
1082.00 257.1484
1082.10 254.5188
1082.20 251.2492
1082.30 247.0174
1082.40 243.1095
1082.50 239.1078
1082.60 236.6219
1082.70 236.7348
1082.80 237.8028
1082.90 239.7107
1083.00 242.2252
1083.10 246.0762
1083.20 249.8433
1083.30 254.3616
1083.40 258.9454
1083.50 261.9348
1083.60 264.0237
1083.70 264.6166
1083.80 264.2805
1083.90 262.7311
1084.00 261.7534
1084.10 260.2872
1084.20 257.5584
1084.30 253.1557
1084.40 248.6429
1084.50 245.4961
1084.60 243.4757
1084.70 240.861
1084.80 238.6596
1084.90 237.1282
1085.00 236.9736
1085.10 238.3109
1085.20 239.9352
1085.30 240.5501
1085.40 239.9185
1085.50 239.4338
1085.60 241.6575
1085.70 244.6539
1085.80 247.8239
1085.90 251.3722
1086.00 256.0234
1086.10 260.745
1086.20 264.51
1086.30 268.1759
1086.40 269.3572
1086.50 269.018
1086.60 266.8064
1086.70 267.1467
1086.80 267.1349
1086.90 266.8388
1087.00 266.5949
1087.10 267.8559
1087.20 268.5715
1087.30 268.8074
1087.40 268.7172
1087.50 266.8676
1087.60 264.0783
1087.70 260.6115
1087.80 257.969
1087.90 255.969
1088.00 254.9433
1088.10 254.5591
1088.20 255.0898
1088.30 255.5529
1088.40 255.9943
1088.50 256.4763
1088.60 257.1913
1088.70 257.3923
1088.80 256.4358
1088.90 254.6087
1089.00 252.9182
1089.10 251.8107
1089.20 250.395
1089.30 248.5632
1089.40 249.2729
1089.50 250.9145
1089.60 253.2384
1089.70 255.7829
1089.80 261.2462
1089.90 267.3293
1090.00 273.4729
1090.10 279.1336
1090.20 281.8524
1090.30 283.3618
1090.40 282.7565
1090.50 280.1585
1090.60 275.6614
1090.70 269.2391
1090.80 262.0697
1090.90 254.9089
1091.00 253.2212
1091.10 251.4418
1091.20 250.9256
1091.30 253.2735
1091.40 257.723
1091.50 262.4933
1091.60 267.4647
1091.70 274.0668
1091.80 276.8264
1091.90 278.8391
1092.00 279.7978
1092.10 279.3611
1092.20 277.3746
1092.30 274.6525
1092.40 271.6556
1092.50 267.9628
1092.60 265.2695
1092.70 263.0433
1092.80 261.7066
1092.90 262.1569
1093.00 262.9847
1093.10 264.2625
1093.20 265.8262
1093.30 267.278
1093.40 267.3264
1093.50 266.7476
1093.60 265.598
1093.70 264.6975
1093.80 264.1807
1093.90 263.9907
1094.00 263.948
1094.10 265.5947
1094.20 266.0618
1094.30 265.5219
1094.40 263.334
1094.50 260.1845
1094.60 256.1091
1094.70 253.4996
1094.80 254.6882
1094.90 257.0043
1095.00 261.5071
1095.10 267.9718
1095.20 278.2508
1095.30 284.9988
1095.40 291.438
1095.50 296.125
1095.60 297.2534
1095.70 296.2209
1095.80 294.8424
1095.90 293.2195
1096.00 289.7152
1096.10 289.1962
1096.20 289.4317
1096.30 289.9793
1096.40 289.5469
1096.50 289.933
1096.60 287.9004
1096.70 283.4452
1096.80 277.1045
1096.90 270.7626
1097.00 263.6205
1097.10 255.9204
1097.20 251.8603
1097.30 248.7525
1097.40 248.0949
1097.50 249.7715
1097.60 254.5811
1097.70 258.6711
1097.80 262.9916
1097.90 267.9228
1098.00 270.2843
1098.10 271.7816
1098.20 271.5662
1098.30 269.5855
1098.40 266.1386
1098.50 263.711
1098.60 261.5323
1098.70 258.9412
1098.80 259.3544
1098.90 260.2152
1099.00 262.1639
1099.10 265.5689
1099.20 270.1369
1099.30 273.2988
1099.40 275.6128
1099.50 277.8739
1099.60 279.5237
1099.70 281.1563
1099.80 282.2589
1099.90 281.9943
1100.00 280.9219
1100.10 279.6762
1100.20 278.3196
1100.30 276.2629
1100.40 273.8258
1100.50 271.2104
1100.60 268.6624
1100.70 266.9927
1100.80 265.8593
1100.90 265.2371
1101.00 265.0271
1101.10 265.9278
1101.20 266.8372
1101.30 267.8814
1101.40 269.0425
1101.50 269.6859
1101.60 270.128
1101.70 270.0366
1101.80 269.4025
1101.90 267.0135
1102.00 263.5064
1102.10 259.4291
1102.20 255.2447
1102.30 255.343
1102.40 255.8876
1102.50 257.1351
1102.60 259.0892
1102.70 263.5352
1102.80 266.1496
1102.90 268.0449
1103.00 270.085
1103.10 267.717
1103.20 263.6301
1103.30 258.9209
1103.40 255.475
1103.50 249.8418
1103.60 245.744
1103.70 243.1675
1103.80 242.6127
1103.90 243.8409
1104.00 246.2914
1104.10 249.6473
1104.20 252.6154
1104.30 255.4288
1104.40 257.6557
1104.50 259.4723
1104.60 261.2368
1104.70 261.4149
1104.80 261.6166
1104.90 261.8104
1105.00 260.8984
1105.10 258.1143
1105.20 253.7259
1105.30 248.1533
1105.40 240.5092
1105.50 236.1227
1105.60 232.7979
1105.70 230.3858
1105.80 230.251
1105.90 232.1502
1106.00 234.6016
1106.10 236.7267
1106.20 239.5627
1106.30 240.8742
1106.40 241.739
1106.50 242.5031
1106.60 240.9924
1106.70 238.3905
1106.80 236.3189
1106.90 236.0713
1107.00 234.6825
1107.10 234.3234
1107.20 234.8211
1107.30 236.383
1107.40 237.5259
1107.50 239.1439
1107.60 240.1167
1107.70 239.017
1107.80 238.7303
1107.90 241.0427
1108.00 244.6047
1108.10 247.3247
1108.20 251.4031
1108.30 256.5358
1108.40 261.962
1108.50 265.6816
1108.60 268.0451
1108.70 268.7818
1108.80 268.3405
1108.90 267.0728
1109.00 266.1892
1109.10 264.9621
1109.20 263.9446
1109.30 265.7231
1109.40 268.686
1109.50 271.5172
1109.60 273.9553
1109.70 277.1279
1109.80 276.6264
1109.90 274.7117
1110.00 271.4148
1110.10 264.9598
1110.20 256.9774
1110.30 250.3218
1110.40 246.1121
1110.50 241.9399
1110.60 240.029
1110.70 239.5525
1110.80 240.2553
1110.90 239.0708
1111.00 238.0301
1111.10 236.3871
1111.20 233.6406
1111.30 229.1899
1111.40 226.8531
1111.50 225.6318
1111.60 224.7757
1111.70 224.9694
1111.80 226.3879
1111.90 227.8325
1112.00 227.5176
1112.10 227.5903
1112.20 229.6944
1112.30 232.8141
1112.40 235.3846
1112.50 239.2371
1112.60 243.4146
1112.70 247.6659
1112.80 251.5172
1112.90 256.1267
1113.00 258.6701
1113.10 259.3934
1113.20 259.6692
1113.30 258.384
1113.40 256.4886
1113.50 253.9005
1113.60 250.1947
1113.70 245.03
1113.80 242.415
1113.90 242.7633
1114.00 243.3193
1114.10 247.2064
1114.20 252.6151
1114.30 258.868
1114.40 263.9302
1114.50 270.5501
1114.60 274.7407
1114.70 275.0044
1114.80 273.3333
1114.90 270.5861
1115.00 266.9257
1115.10 262.3496
1115.20 258.8692
1115.30 255.5689
1115.40 254.1371
1115.50 255.7423
1115.60 258.0583
1115.70 259.8967
1115.80 261.4934
1115.90 263.0341
1116.00 262.7699
1116.10 261.7571
1116.20 260.1649
1116.30 258.304
1116.40 256.9048
1116.50 255.6394
1116.60 254.4077
1116.70 253.0906
1116.80 250.1524
1116.90 247.0518
1117.00 243.404
1117.10 238.2534
1117.20 232.1661
1117.30 227.4037
1117.40 223.9859
1117.50 221.4499
1117.60 222.2557
1117.70 224.3638
1117.80 227.4764
1117.90 232.0701
1118.00 237.051
1118.10 242.7596
1118.20 248.2479
1118.30 253.731
1118.40 257.1834
1118.50 260.1989
1118.60 262.8113
1118.70 261.3783
1118.80 259.4395
1118.90 257.2376
1119.00 254.25
1119.10 250.9248
1119.20 249.4923
1119.30 248.2998
1119.40 247.7561
1119.50 247.4881
1119.60 247.2444
1119.70 247.0311
1119.80 247.5239
1119.90 248.3805
1120.00 249.3793
1120.10 250.3943
1120.20 251.3663
1120.30 252.6959
1120.40 254.5387
1120.50 257.3387
1120.60 260.2286
1120.70 263.4034
1120.80 264.1656
1120.90 264.6297
1121.00 264.4616
1121.10 263.9427
1121.20 263.2214
1121.30 261.5958
1121.40 259.5246
1121.50 257.2723
1121.60 254.7934
1121.70 252.0623
1121.80 249.2822
1121.90 246.5903
1122.00 244.2117
1122.10 242.5907
1122.20 241.0931
1122.30 241.4627
1122.40 243.7274
1122.50 247.1668
1122.60 251.7371
1122.70 256.6119
1122.80 261.1946
1122.90 264.8612
1123.00 267.0795
1123.10 265.9412
1123.20 264.2865
1123.30 260.5656
1123.40 257.7679
1123.50 255.1461
1123.60 252.6715
1123.70 252.184
1123.80 253.1298
1123.90 256.3617
1124.00 260.6296
1124.10 264.9155
1124.20 269.7994
1124.30 275.1569
1124.40 276.6963
1124.50 277.8668
1124.60 277.3569
1124.70 274.6804
1124.80 271.5283
1124.90 265.1029
1125.00 259.1073
1125.10 253.6429
1125.20 249.3085
1125.30 246.9257
1125.40 247.7027
1125.50 249.4737
1125.60 252.6818
1125.70 257.1121
1125.80 261.5477
1125.90 266.0097
1126.00 268.0728
1126.10 269.5361
1126.20 269.203
1126.30 268.91
1126.40 268.8026
1126.50 269.1641
1126.60 270.327
1126.70 272.8607
1126.80 275.5814
1126.90 278.5088
1127.00 279.0415
1127.10 279.4246
1127.20 278.9593
1127.30 275.2336
1127.40 270.5884
1127.50 265.8221
1127.60 262.6145
1127.70 260.8582
1127.80 259.1924
1127.90 258.1502
1128.00 258.6561
1128.10 259.2724
1128.20 260.0645
1128.30 261.1703
1128.40 262.3132
1128.50 263.6837
1128.60 263.8998
1128.70 263.7513
1128.80 263.741
1128.90 264.2639
1129.00 265.2811
1129.10 266.1908
1129.20 266.8113
1129.30 266.7536
1129.40 266.9035
1129.50 267.3919
1129.60 267.6353
1129.70 267.9217
1129.80 268.5231
1129.90 268.6981
1130.00 268.7233
1130.10 267.7308
1130.20 266.0091
1130.30 263.6865
1130.40 260.0913
1130.50 256.1004
1130.60 253.3271
1130.70 250.9245
1130.80 249.1809
1130.90 249.2667
1131.00 249.5788
1131.10 251.4192
1131.20 254.448
1131.30 257.9163
1131.40 262.2944
1131.50 265.6616
1131.60 267.7733
1131.70 269.5934
1131.80 271.0782
1131.90 272.0342
1132.00 272.7298
1132.10 272.9416
1132.20 271.961
1132.30 270.8668
1132.40 269.0814
1132.50 268.6478
1132.60 268.7663
1132.70 268.4849
1132.80 267.2134
1132.90 264.8625
1133.00 262.8299
1133.10 260.7701
1133.20 257.8094
1133.30 254.7655
1133.40 251.5601
1133.50 248.571
1133.60 245.5681
1133.70 242.3347
1133.80 239.5844
1133.90 237.0411
1134.00 232.8224
1134.10 228.2872
1134.20 223.755
1134.30 220.0816
1134.40 217.5903
1134.50 217.4403
1134.60 218.2106
1134.70 220.7674
1134.80 225.5927
1134.90 230.6782
1135.00 237.0895
1135.10 242.1799
1135.20 246.677
1135.30 248.8199
1135.40 249.1034
1135.50 247.6341
1135.60 245.3418
1135.70 242.6748
1135.80 240.9505
1135.90 239.7405
1136.00 239.5746
1136.10 240.2261
1136.20 241.0239
1136.30 242.9036
1136.40 243.9298
1136.50 244.5543
1136.60 244.1256
1136.70 243.0791
1136.80 241.4998
1136.90 239.0763
1137.00 236.0487
1137.10 233.0535
1137.20 230.2584
1137.30 227.8886
1137.40 224.0339
1137.50 220.0579
1137.60 215.9559
1137.70 208.9342
1137.80 200.4745
1137.90 189.8597
1138.00 180.525
1138.10 173.6115
1138.20 166.5687
1138.30 160.7419
1138.40 161.3281
1138.50 163.3674
1138.60 168.4948
1138.70 176.7696
1138.80 185.5883
1138.90 197.9991
1139.00 207.092
1139.10 214.5507
1139.20 220.6048
1139.30 224.0624
1139.40 224.3601
1139.50 222.8039
1139.60 219.4273
1139.70 213.8364
1139.80 207.7624
1139.90 200.6619
1140.00 191.9515
1140.10 182.958
1140.20 172.3195
1140.30 163.6433
1140.40 155.978
1140.50 148.4624
1140.60 144.1824
1140.70 144.5082
1140.80 146.882
1140.90 151.6303
1141.00 160.7338
1141.10 171.1992
1141.20 184.6957
1141.30 196.5454
1141.40 208.2348
1141.50 219.9634
1141.60 227.8321
1141.70 233.7123
1141.80 238.2029
1141.90 242.0504
1142.00 245.4416
1142.10 247.9727
1142.20 249.7407
1142.30 251.0499
1142.40 252.2195
1142.50 253.0784
1142.60 255.0393
1142.70 257.0558
1142.80 258.2357
1142.90 258.4526
1143.00 258.151
1143.10 257.5537
1143.20 256.4984
1143.30 254.8537
1143.40 253.0974
1143.50 251.3365
1143.60 250.0257
1143.70 248.7842
1143.80 247.69
1143.90 246.4893
1144.00 245.3095
1144.10 244.5642
1144.20 244.0875
1144.30 243.7555
1144.40 243.5266
1144.50 243.3505
1144.60 243.2199
1144.70 243.1941
1144.80 243.4807
1144.90 245.0884
1145.00 246.6491
1145.10 248.11
1145.20 248.534
1145.30 248.8285
1145.40 248.9349
1145.50 249.2906
1145.60 249.7804
1145.70 250.0068
1145.80 250.574
1145.90 251.7391
1146.00 253.3373
1146.10 255.3096
1146.20 257.5513
1146.30 260.1168
1146.40 263.3706
1146.50 266.2544
1146.60 269.0509
1146.70 271.2336
1146.80 272.2813
1146.90 272.7178
1147.00 272.2895
1147.10 271.3903
1147.20 270.0694
1147.30 268.6936
1147.40 267.4819
1147.50 267.4352
1147.60 267.6959
1147.70 268.5808
1147.80 270.9188
1147.90 273.405
1148.00 275.9432
1148.10 277.4139
1148.20 278.3346
1148.30 278.3951
1148.40 277.811
1148.50 276.5528
1148.60 275.6654
1148.70 275.3286
1148.80 276.4734
1148.90 277.7848
1149.00 279.4343
1149.10 280.4864
1149.20 281.4372
1149.30 281.9035
1149.40 281.1276
1149.50 279.7118
1149.60 277.6886
1149.70 276.125
1149.80 275.3892
1149.90 274.9326
1150.00 274.9271
1150.10 276.2721
1150.20 277.6798
1150.30 279.2091
1150.40 280.9631
1150.50 282.7315
1150.60 284.4202
1150.70 284.7223
1150.80 284.3099
1150.90 284.3245
1151.00 284.5491
1151.10 284.9516
1151.20 285.1341
1151.30 285.0224
1151.40 284.1903
1151.50 283.1249
1151.60 281.626
1151.70 280.2616
1151.80 278.8625
1151.90 277.0463
1152.00 274.0913
1152.10 270.5755
1152.20 266.363
1152.30 262.3872
1152.40 258.9082
1152.50 255.8493
1152.60 253.4511
1152.70 252.9677
1152.80 252.9089
1152.90 253.6046
1153.00 255.7061
1153.10 257.9744
1153.20 260.7373
1153.30 262.2171
1153.40 263.093
1153.50 263.7247
1153.60 264.3836
1153.70 265.1313
1153.80 266.518
1153.90 268.3538
1154.00 270.4512
1154.10 272.5173
1154.20 274.53
1154.30 276.2688
1154.40 277.7589
1154.50 277.577
1154.60 277.2014
1154.70 276.7388
1154.80 275.5382
1154.90 274.4042
1155.00 273.4952
1155.10 273.2786
1155.20 273.3715
1155.30 273.0504
1155.40 273.2914
1155.50 274.4497
1155.60 275.1604
1155.70 275.7811
1155.80 275.9901
1155.90 277.1438
1156.00 278.7024
1156.10 279.8024
1156.20 280.7302
1156.30 281.5167
1156.40 282.2202
1156.50 282.6767
1156.60 282.3326
1156.70 281.8518
1156.80 281.1575
1156.90 279.9198
1157.00 278.5467
1157.10 276.535
1157.20 274.1519
1157.30 271.617
1157.40 269.3635
1157.50 267.5563
1157.60 266.2364
1157.70 265.5344
1157.80 265.6187
1157.90 267.4635
1158.00 269.4934
1158.10 271.7895
1158.20 273.9014
1158.30 275.9236
1158.40 277.5046
1158.50 276.6164
1158.60 274.7678
1158.70 272.2511
1158.80 269.4427
1158.90 266.371
1159.00 262.7723
1159.10 258.9638
1159.20 255.3224
1159.30 251.7351
1159.40 248.2225
1159.50 246.7575
1159.60 245.4151
1159.70 244.4415
1159.80 243.8644
1159.90 243.4339
1160.00 244.1873
1160.10 245.5766
1160.20 247.535
1160.30 250.1479
1160.40 252.8419
1160.50 254.8617
1160.60 256.5226
1160.70 257.7268
1160.80 259.9152
1160.90 262.0468
1161.00 263.9514
1161.10 266.1373
1161.20 268.417
1161.30 271.3921
1161.40 273.4575
1161.50 274.5767
1161.60 275.6874
1161.70 276.4285
1161.80 276.1278
1161.90 274.9575
1162.00 272.7793
1162.10 271.8566
1162.20 270.919
1162.30 269.9249
1162.40 270.3509
1162.50 271.2011
1162.60 273.4941
1162.70 275.9516
1162.80 278.5199
1162.90 281.8119
1163.00 284.7153
1163.10 285.8073
1163.20 286.2875
1163.30 286.038
1163.40 283.6324
1163.50 280.7884
1163.60 276.4771
1163.70 272.6604
1163.80 268.9832
1163.90 265.1204
1164.00 263.0853
1164.10 262.6086
1164.20 263.6835
1164.30 265.6064
1164.40 268.2706
1164.50 271.4699
1164.60 275.0261
1164.70 275.1965
1164.80 275.0713
1164.90 274.0595
1165.00 271.7067
1165.10 268.9993
1165.20 264.3739
1165.30 260.7359
1165.40 257.8739
1165.50 255.3059
1165.60 253.8299
1165.70 254.5887
1165.80 256.4766
1165.90 259.376
1166.00 261.8661
1166.10 264.5766
1166.20 267.8533
1166.30 269.2199
1166.40 270.1388
1166.50 270.1377
1166.60 269.5772
1166.70 268.6116
1166.80 266.7414
1166.90 264.7603
1167.00 263.0424
1167.10 261.2046
1167.20 259.321
1167.30 258.0074
1167.40 256.6633
1167.50 255.2479
1167.60 253.2908
1167.70 251.2406
1167.80 249.3479
1167.90 246.9471
1168.00 244.2076
1168.10 241.1386
1168.20 236.8268
1168.30 230.3505
1168.40 223.0837
1168.50 214.8806
1168.60 203.9283
1168.70 192.2795
1168.80 179.1507
1168.90 168.5294
1169.00 158.2876
1169.10 147.7166
1169.20 142.4855
1169.30 140.5273
1169.40 142.1428
1169.50 146.3989
1169.60 153.9923
1169.70 164.5436
1169.80 177.0203
1169.90 188.6249
1170.00 200.7382
1170.10 213.7964
1170.20 224.0406
1170.30 233.6903
1170.40 241.3434
1170.50 247.4825
1170.60 252.7699
1170.70 256.2354
1170.80 258.6919
1170.90 260.0798
1171.00 260.7871
1171.10 261.024
1171.20 260.9594
1171.30 260.8539
1171.40 260.6815
1171.50 260.9066
1171.60 261.1334
1171.70 261.108
1171.80 260.9548
1171.90 260.7386
1172.00 260.3897
1172.10 260.1835
1172.20 260.197
1172.30 260.3829
1172.40 260.798
1172.50 261.8337
1172.60 263.1299
1172.70 264.8169
1172.80 266.0972
1172.90 267.3341
1173.00 268.4803
1173.10 268.7522
1173.20 268.6313
1173.30 267.87
1173.40 266.6774
1173.50 265.0255
1173.60 263.107
1173.70 261.3232
1173.80 260.5183
1173.90 259.7953
1174.00 259.181
1174.10 259.9671
1174.20 261.0047
1174.30 262.8657
1174.40 264.5854
1174.50 266.2503
1174.60 267.6327
1174.70 267.8266
1174.80 266.749
1174.90 264.9168
1175.00 262.5
1175.10 259.1577
1175.20 255.3847
1175.30 251.106
1175.40 248.3621
1175.50 245.8153
1175.60 243.9122
1175.70 242.2369
1175.80 240.6375
1175.90 239.4887
1176.00 237.7496
1176.10 235.4111
1176.20 232.6675
1176.30 228.8586
1176.40 222.4229
1176.50 215.2918
1176.60 207.3682
1176.70 196.071
1176.80 184.1512
1176.90 170.3637
1177.00 157.2719
1177.10 144.3635
1177.20 130.1716
1177.30 120.2927
1177.40 114.2386
1177.50 110.7954
1177.60 110.0965
1177.70 114.2071
1177.80 121.3964
1177.90 131.4176
1178.00 143.3724
1178.10 156.0814
1178.20 170.7297
1178.30 182.8866
1178.40 194.415
1178.50 204.8856
1178.60 214.0149
1178.70 222.0903
1178.80 228.5577
1178.90 233.8608
1179.00 237.5435
1179.10 240.3856
1179.20 242.4936
1179.30 243.7548
1179.40 244.7604
1179.50 245.223
1179.60 246.0494
1179.70 246.961
1179.80 248.0561
1179.90 249.8201
1180.00 252.0302
1180.10 254.5896
1180.20 257.0978
1180.30 259.378
1180.40 261.3946
1180.50 263.0348
1180.60 263.1127
1180.70 262.9076
1180.80 262.177
1180.90 260.9041
1181.00 259.4954
1181.10 257.6434
1181.20 256.0027
1181.30 254.4861
1181.40 253.0729
1181.50 252.086
1181.60 251.7418
1181.70 251.9173
1181.80 252.5129
1181.90 253.7599
1182.00 255.1665
1182.10 256.8228
1182.20 257.9271
1182.30 258.9142
1182.40 259.584
1182.50 260.0049
1182.60 260.2976
1182.70 260.3552
1182.80 260.3513
1182.90 260.2947
1183.00 260.3886
1183.10 260.2691
1183.20 258.8405
1183.30 257.0913
1183.40 254.8993
1183.50 252.8573
1183.60 250.7091
1183.70 248.0333
1183.80 247.3174
1183.90 247.4414
1184.00 248.9726
1184.10 250.8773
1184.20 253.115
1184.30 256.1843
1184.40 258.8838
1184.50 259.0085
1184.60 258.5329
1184.70 257.3527
1184.80 255.5143
1184.90 253.3682
1185.00 250.2037
1185.10 249.1319
1185.20 248.8342
1185.30 249.346
1185.40 250.4395
1185.50 252.1214
1185.60 254.6762
1185.70 257.2856
1185.80 259.1383
1185.90 260.8386
1186.00 262.3707
1186.10 262.3313
1186.20 262.2004
1186.30 261.8089
1186.40 260.9682
1186.50 259.9824
1186.60 258.46
1186.70 257.2033
1186.80 256.1824
1186.90 255.0687
1187.00 254.305
1187.10 254.4619
1187.20 254.8335
1187.30 255.3964
1187.40 256.1154
1187.50 257.0347
1187.60 258.4211
1187.70 257.7174
1187.80 256.4682
1187.90 254.3552
1188.00 251.3078
1188.10 247.5555
1188.20 242.3044
1188.30 237.6152
1188.40 234.7352
1188.50 232.09
1188.60 229.8716
1188.70 230.2519
1188.80 231.4954
1188.90 234.4145
1189.00 237.3909
1189.10 240.485
1189.20 244.5475
1189.30 247.7122
1189.40 250.3028
1189.50 252.2076
1189.60 254.0828
1189.70 256.0978
1189.80 257.5598
1189.90 258.4931
1190.00 258.1561
1190.10 257.8305
1190.20 257.5238
1190.30 257.0512
1190.40 256.4435
1190.50 255.1856
1190.60 254.2726
1190.70 253.5453
1190.80 253.2591
1190.90 253.5877
1191.00 254.7382
1191.10 256.1865
1191.20 257.7261
1191.30 258.9945
1191.40 260.4154
1191.50 262.0383
1191.60 263.0586
1191.70 263.9284
1191.80 264.3507
1191.90 264.1174
1192.00 263.5897
1192.10 262.907
1192.20 262.6236
1192.30 262.8384
1192.40 262.8556
1192.50 262.8334
1192.60 262.967
1192.70 263.1791
1192.80 263.4798
1192.90 263.7803
1193.00 264.171
1193.10 264.8638
1193.20 263.8278
1193.30 262.1522
1193.40 259.8245
1193.50 257.3426
1193.60 254.7004
1193.70 251.1045
1193.80 247.4076
1193.90 244.2804
1194.00 241.3217
1194.10 238.536
1194.20 236.5999
1194.30 234.9057
1194.40 233.8331
1194.50 231.7256
1194.60 229.3078
1194.70 226.4488
1194.80 224.5317
1194.90 223.4168
1195.00 222.2485
1195.10 221.748
1195.20 222.8369
1195.30 224.9437
1195.40 227.7934
1195.50 229.754
1195.60 231.8033
1195.70 234.0329
1195.80 234.0412
1195.90 233.4227
1196.00 231.397
1196.10 229.523
1196.20 227.7587
1196.30 225.2899
1196.40 223.1628
1196.50 221.9401
1196.60 221.4005
1196.70 221.1488
1196.80 219.6935
1196.90 218.0681
1197.00 216.1529
1197.10 212.773
1197.20 208.9924
1197.30 204.0952
1197.40 199.8534
1197.50 195.9965
1197.60 192.1878
1197.70 189.5545
1197.80 188.7513
1197.90 189.1688
1198.00 190.5628
1198.10 193.9263
1198.20 197.9671
1198.30 202.9432
1198.40 206.4663
1198.50 209.8439
1198.60 213.2136
1198.70 214.2219
1198.80 214.1188
1198.90 212.3927
1199.00 209.8562
1199.10 206.3969
1199.20 201.8953
1199.30 197.5981
1199.40 195.821
1199.50 194.384
1199.60 193.3305
1199.70 193.2683
1199.80 193.5561
1199.90 194.8773
1200.00 196.1012
1200.10 197.2874
1200.20 198.1228
1200.30 198.9978
1200.40 199.9141
1200.50 201.1405
1200.60 202.6354
1200.70 204.6418
1200.80 206.7547
1200.90 208.9564
1201.00 210.2254
1201.10 211.3454
1201.20 212.0824
1201.30 211.6744
1201.40 210.8883
1201.50 209.4144
1201.60 208.1759
1201.70 207.1378
1201.80 206.4475
1201.90 206.1113
1202.00 206.4109
1202.10 206.9851
1202.20 207.7777
1202.30 208.7486
1202.40 209.5061
1202.50 209.8494
1202.60 208.8187
1202.70 207.4577
1202.80 205.8375
1202.90 204.9474
1203.00 204.5645
1203.10 204.4621
1203.20 205.3138
1203.30 207.8524
1203.40 211.4325
1203.50 215.7182
1203.60 220.7637
1203.70 225.9832
1203.80 231.4749
1203.90 234.5531
1204.00 237.1447
1204.10 239.0234
1204.20 239.218
1204.30 238.4651
1204.40 235.9038
1204.50 233.5733
1204.60 231.825
1204.70 230.1672
1204.80 228.9376
1204.90 229.7331
1205.00 231.0714
1205.10 233.1007
1205.20 235.8077
1205.30 238.7569
1205.40 242.4247
1205.50 245.4891
1205.60 248.2824
1205.70 250.6965
1205.80 252.5167
1205.90 253.6255
1206.00 254.1787
1206.10 254.1279
1206.20 252.6641
1206.30 250.8786
1206.40 248.7713
1206.50 246.4953
1206.60 243.989
1206.70 240.8367
1206.80 239.7834
1206.90 239.5072
1207.00 240.5109
1207.10 242.4499
1207.20 245.2874
1207.30 249.1609
1207.40 253.109
1207.50 256.5146
1207.60 260.206
1207.70 264.0801
1207.80 266.3011
1207.90 267.9977
1208.00 268.5799
1208.10 267.9693
1208.20 267.0024
1208.30 265.3662
1208.40 262.3108
1208.50 258.1405
1208.60 252.7984
1208.70 247.4539
1208.80 242.5784
1208.90 237.2469
1209.00 232.0384
1209.10 231.0212
1209.20 230.7031
1209.30 231.5752
1209.40 234.9541
1209.50 239.2347
1209.60 246.3373
1209.70 250.9803
1209.80 254.1156
1209.90 257.1146
1210.00 258.1323
1210.10 255.942
1210.20 251.0379
1210.30 244.7114
1210.40 237.858
1210.50 230.2298
1210.60 221.5748
1210.70 216.4064
1210.80 211.7741
1210.90 207.9573
1211.00 206.2959
1211.10 205.696
1211.20 207.4646
1211.30 209.4548
1211.40 211.608
1211.50 214.6049
1211.60 217.934
1211.70 221.2796
1211.80 224.9446
1211.90 228.942
1212.00 233.7166
1212.10 238.6461
1212.20 243.9435
1212.30 247.4232
1212.40 250.2052
1212.50 251.7452
1212.60 251.402
1212.70 249.0987
1212.80 244.9528
1212.90 240.5062
1213.00 236.6827
1213.10 232.1021
1213.20 227.0132
1213.30 227.3723
1213.40 228.6913
1213.50 232.1466
1213.60 237.0586
1213.70 242.5759
1213.80 250.6007
1213.90 256.8386
1214.00 261.6145
1214.10 265.6703
1214.20 268.7346
1214.30 269.9837
1214.40 269.569
1214.50 268.1663
1214.60 267.6332
1214.70 267.0429
1214.80 266.355
1214.90 266.2316
1215.00 266.322
1215.10 267.1145
1215.20 266.8685
1215.30 265.9585
1215.40 264.6838
1215.50 263.0277
1215.60 260.8154
1215.70 258.0499
1215.80 255.2354
1215.90 253.7941
1216.00 252.6174
1216.10 251.7775
1216.20 252.274
1216.30 253.0624
1216.40 254.4242
1216.50 256.2027
1216.60 258.1863
1216.70 260.6519
1216.80 262.6741
1216.90 264.1131
1217.00 265.4163
1217.10 266.4308
1217.20 266.4909
1217.30 266.1946
1217.40 265.5417
1217.50 265.8338
1217.60 266.0764
1217.70 266.0949
1217.80 266.9282
1217.90 268.0966
1218.00 270.3545
1218.10 272.5935
1218.20 274.8134
1218.30 277.3888
1218.40 279.2899
1218.50 279.0192
1218.60 277.9584
1218.70 276.2917
1218.80 275.1102
1218.90 273.5675
1219.00 271.2914
1219.10 269.3828
1219.20 267.6889
1219.30 267.1794
1219.40 266.9097
1219.50 266.8284
1219.60 266.8106
1219.70 266.6698
1219.80 266.2459
1219.90 265.6225
1220.00 264.9578
1220.10 265.0592
1220.20 265.1914
1220.30 265.3717
1220.40 265.3491
1220.50 265.4706
1220.60 266.522
1220.70 266.3987
1220.80 265.5553
1220.90 263.7661
1221.00 261.8658
1221.10 259.9202
1221.20 256.791
1221.30 253.2966
1221.40 250.7453
1221.50 248.303
1221.60 245.9888
1221.70 244.6037
1221.80 243.6076
1221.90 243.7041
1222.00 243.5192
1222.10 243.2079
1222.20 243.5433
1222.30 244.1745
1222.40 245.1592
1222.50 245.8409
1222.60 247.0503
1222.70 250.4704
1222.80 254.4715
1222.90 259.0088
1223.00 264.2633
1223.10 269.9209
1223.20 276.5295
1223.30 281.2449
1223.40 285.2866
1223.50 288.6604
1223.60 290.5209
1223.70 290.9846
1223.80 289.8476
1223.90 288.3232
1224.00 286.7064
1224.10 284.4586
1224.20 281.8442
1224.30 280.5955
1224.40 279.626
1224.50 279.153
1224.60 279.7167
1224.70 280.6213
1224.80 282.3577
1224.90 283.8535
1225.00 285.175
1225.10 286.9656
1225.20 287.9309
1225.30 287.2558
1225.40 285.9471
1225.50 284.303
1225.60 282.5926
1225.70 280.4263
1225.80 277.6554
1225.90 277.2461
1226.00 277.2136
1226.10 277.4145
1226.20 278.7746
1226.30 280.7589
1226.40 284.152
1226.50 286.7188
1226.60 288.0634
1226.70 289.6341
1226.80 290.8225
1226.90 289.8888
1227.00 288.2862
1227.10 285.9873
1227.20 284.8929
1227.30 283.6602
1227.40 281.8535
1227.50 281.699
1227.60 282.229
1227.70 284.1168
1227.80 285.8395
1227.90 287.3833
1228.00 289.5611
1228.10 291.5177
1228.20 292.3349
1228.30 292.5453
1228.40 292.2498
1228.50 290.5256
1228.60 288.3885
1228.70 285.4131
1228.80 282.6968
1228.90 280.0513
1229.00 277.4226
1229.10 274.3202
1229.20 270.83
1229.30 267.5599
1229.40 264.823
1229.50 263.1493
1229.60 261.404
1229.70 259.8226
1229.80 260.3251
1229.90 261.3579
1230.00 263.1859
1230.10 266.5452
1230.20 270.4481
1230.30 275.6855
1230.40 279.5924
1230.50 282.6839
1230.60 285.4061
1230.70 287.0708
1230.80 287.1182
1230.90 285.7712
1231.00 283.8948
1231.10 282.2288
1231.20 280.1872
1231.30 277.722
1231.40 276.0545
1231.50 274.7299
1231.60 274.2714
1231.70 273.9243
1231.80 273.6276
1231.90 273.3566
1232.00 272.9968
1232.10 272.5326
1232.20 272.0891
1232.30 271.7097
1232.40 271.5257
1232.50 271.3301
1232.60 271.1249
1232.70 269.8495
1232.80 268.5713
1232.90 267.2871
1233.00 266.2083
1233.10 265.1215
1233.20 263.1985
1233.30 262.2916
1233.40 262.2858
1233.50 262.8694
1233.60 263.7107
1233.70 264.9107
1233.80 266.7472
1233.90 268.7892
1234.00 268.3787
1234.10 267.8784
1234.20 267.2378
1234.30 266.5871
1234.40 265.7536
1234.50 263.9711
1234.60 263.5035
1234.70 263.9125
1234.80 264.9705
1234.90 266.3988
1235.00 268.3614
1235.10 271.1267
1235.20 273.8653
1235.30 274.2251
1235.40 274.1041
1235.50 273.4184
1235.60 272.0273
1235.70 270.2499
1235.80 267.413
1235.90 265.6187
1236.00 264.3151
1236.10 263.833
1236.20 264.635
1236.30 267.0712
1236.40 270.5836
1236.50 274.1173
1236.60 276.5216
1236.70 279.0792
1236.80 281.7673
1236.90 281.3405
1237.00 280.2763
1237.10 277.9351
1237.20 274.8356
1237.30 271.4066
1237.40 266.9575
1237.50 264.2208
1237.60 263.0649
1237.70 262.4918
1237.80 262.5572
1237.90 263.9142
1238.00 266.5648
1238.10 269.8734
1238.20 270.5353
1238.30 271.1105
1238.40 271.5445
1238.50 268.5085
1238.60 264.292
1238.70 257.7018
1238.80 251.2689
1238.90 244.9452
1239.00 237.2023
1239.10 230.7928
1239.20 226.973
1239.30 224.4782
1239.40 222.9294
1239.50 223.7287
1239.60 225.5911
1239.70 228.7015
1239.80 230.963
1239.90 233.1801
1240.00 235.5644
1240.10 235.8983
1240.20 235.2223
1240.30 232.9943
1240.40 231.1414
1240.50 229.7657
1240.60 228.4061
1240.70 227.6917
1240.80 229.3867
1240.90 231.6317
1241.00 234.3645
1241.10 236.7263
1241.20 239.3308
1241.30 242.5287
1241.40 242.8451
1241.50 242.0422
1241.60 239.8195
1241.70 237.3017
1241.80 234.5004
1241.90 230.6096
1242.00 227.0985
1242.10 225.0974
1242.20 223.1277
1242.30 221.1289
1242.40 218.1949
1242.50 215.586
1242.60 213.5076
1242.70 208.1999
1242.80 201.9475
1242.90 194.3585
1243.00 186.9878
1243.10 179.7687
1243.20 171.2755
1243.30 164.9238
1243.40 162.5761
1243.50 161.3305
1243.60 161.2223
1243.70 165.4112
1243.80 171.4363
1243.90 179.617
1244.00 187.2755
1244.10 195.2399
1244.20 204.4225
1244.30 212.076
1244.40 218.9763
1244.50 225.0268
1244.60 230.9023
1244.70 236.5549
1244.80 241.5117
1244.90 246.0438
1245.00 249.7596
1245.10 253.2453
1245.20 256.5349
1245.30 258.1922
1245.40 259.5964
1245.50 260.5112
1245.60 260.1749
1245.70 259.345
1245.80 257.6341
1245.90 256.23
1246.00 255.1091
1246.10 253.051
1246.20 251.4704
1246.30 251.4635
1246.40 252.0172
1246.50 252.9773
1246.60 254.9188
1246.70 257.4086
1246.80 260.7561
1246.90 262.9717
1247.00 264.9973
1247.10 267.242
1247.20 268.3747
1247.30 268.7661
1247.40 267.6114
1247.50 266.2369
1247.60 264.6864
1247.70 262.9229
1247.80 261.0893
1247.90 259.3857
1248.00 257.7367
1248.10 256.1495
1248.20 255.5033
1248.30 254.9897
1248.40 254.6013
1248.50 254.7512
1248.60 255.1619
1248.70 255.9469
1248.80 256.5314
1248.90 256.8707
1249.00 257.5243
1249.10 258.0599
1249.20 257.8817
1249.30 257.488
1249.40 256.9251
1249.50 256.2023
1249.60 255.3341
1249.70 254.1741
1249.80 254.0429
1249.90 254.2564
1250.00 254.6486
1250.10 254.6201
1250.20 254.2185
1250.30 254.2092
1250.40 254.0273
1250.50 253.3059
1250.60 252.1754
1250.70 250.7543
1250.80 248.5295
1250.90 246.1813
1251.00 243.6558
1251.10 241.1999
1251.20 238.6713
1251.30 235.7508
1251.40 231.4218
1251.50 226.1921
1251.60 220.8378
1251.70 214.1623
1251.80 205.3418
1251.90 194.8195
1252.00 183.8583
1252.10 174.1603
1252.20 163.951
1252.30 153.2094
1252.40 150.3051
1252.50 148.9799
1252.60 150.0813
1252.70 155.8048
1252.80 163.8345
1252.90 177.3745
1253.00 190.186
1253.10 202.1424
1253.20 215.0581
1253.30 227.1454
1253.40 235.7064
1253.50 242.6496
1253.60 248.4212
1253.70 252.8463
1253.80 256.7835
1253.90 259.8147
1254.00 261.688
1254.10 263.1764
1254.20 264.2363
1254.30 265.0682
1254.40 265.7134
1254.50 265.4259
1254.60 264.9914
1254.70 264.4896
1254.80 263.6506
1254.90 262.8549
1255.00 264.2533
1255.10 266.2032
1255.20 268.8842
1255.30 271.5204
1255.40 274.3978
1255.50 278.2101
1255.60 281.6
1255.70 284.7418
1255.80 286.9849
1255.90 288.0354
1256.00 287.3244
1256.10 285.8772
1256.20 284.2168
1256.30 282.7134
1256.40 280.631
1256.50 278.0141
1256.60 276.743
1256.70 275.718
1256.80 275.0856
1256.90 274.9159
1257.00 274.9738
1257.10 275.6343
1257.20 275.9556
1257.30 275.9239
1257.40 276.2674
1257.50 276.956
1257.60 278.4237
1257.70 279.8342
1257.80 281.2339
1257.90 283.4668
1258.00 285.8891
1258.10 288.6203
1258.20 289.8535
1258.30 290.7294
1258.40 291.7023
1258.50 290.997
1258.60 289.0254
1258.70 285.7508
1258.80 282.3575
1258.90 278.9537
1259.00 274.5034
1259.10 269.848
1259.20 267.162
1259.30 264.9727
1259.40 263.3434
1259.50 263.9322
1259.60 265.1748
1259.70 267.62
1259.80 269.8878
1259.90 272.0695
1260.00 274.7715
1260.10 277.3434
1260.20 279.743
1260.30 281.4712
1260.40 283.0878
1260.50 285.0153
1260.60 287.1377
1260.70 289.4131
1260.80 292.4965
1260.90 295.8897
1261.00 299.8613
1261.10 301.7228
1261.20 302.8135
1261.30 303.6387
1261.40 303.4167
1261.50 302.2282
1261.60 299.2252
1261.70 296.0863
1261.80 293.2785
1261.90 289.6645
1262.00 285.7652
1262.10 284.5003
1262.20 283.8573
1262.30 284.0729
1262.40 284.5559
1262.50 285.3665
1262.60 287.3403
1262.70 288.5927
1262.80 289.3641
1262.90 289.4756
1263.00 289.28
1263.10 288.6284
1263.20 287.5548
1263.30 286.2749
1263.40 284.7106
1263.50 283.2574
1263.60 281.911
1263.70 280.3273
1263.80 278.6333
1263.90 276.7086
1264.00 274.7062
1264.10 272.6488
1264.20 270.2144
1264.30 268.6694
1264.40 268.1274
1264.50 267.9542
1264.60 268.2648
1264.70 269.8505
1264.80 272.1757
1264.90 274.9873
1265.00 277.1539
1265.10 279.4366
1265.20 281.9171
1265.30 283.3874
1265.40 284.5389
1265.50 285.4813
1265.60 286.1498
1265.70 286.5941
1265.80 286.234
1265.90 286.0157
1266.00 286.2277
1266.10 286.2575
1266.20 286.164
1266.30 285.6993
1266.40 285.5039
1266.50 285.6247
1266.60 286.7185
1266.70 287.9385
1266.80 289.0947
1266.90 290.4599
1267.00 291.949
1267.10 294.0597
1267.20 296.1231
1267.30 298.1211
1267.40 299.8759
1267.50 301.4639
1267.60 302.6336
1267.70 303.7479
1267.80 304.8169
1267.90 304.8794
1268.00 304.4492
1268.10 303.1039
1268.20 301.1976
1268.30 299.1161
1268.40 297.325
1268.50 295.5286
1268.60 293.7269
1268.70 292.6839
1268.80 292.0728
1268.90 292.2808
1269.00 292.9551
1269.10 293.8845
1269.20 294.6775
1269.30 295.0382
1269.40 294.8019
1269.50 293.8394
1269.60 292.5474
1269.70 290.5306
1269.80 288.5142
1269.90 286.4981
1270.00 284.5476
1270.10 282.7267
1270.20 281.122
1270.30 279.9649
1270.40 279.3254
1270.50 280.899
1270.60 282.8198
1270.70 285.0743
1270.80 287.7807
1270.90 290.7345
1271.00 294.2232
1271.10 297.1936
1271.20 299.9322
1271.30 302.6878
1271.40 304.264
1271.50 304.4556
1271.60 303.9292
1271.70 303.3433
1271.80 303.0346
1271.90 302.2501
1272.00 301.1663
1272.10 300.5552
1272.20 300.1134
1272.30 299.9478
1272.40 299.5109
1272.50 299.0162
1272.60 298.628
1272.70 297.7707
1272.80 296.5295
1272.90 295.299
1273.00 294.3436
1273.10 293.9449
1273.20 293.3269
1273.30 292.5855
1273.40 291.5792
1273.50 290.4621
1273.60 289.2202
1273.70 287.014
1273.80 284.4954
1273.90 281.4338
1274.00 279.4451
1274.10 278.0403
1274.20 276.9373
1274.30 277.2057
1274.40 279.3681
1274.50 282.9331
1274.60 286.6565
1274.70 289.5222
1274.80 292.8792
1274.90 296.6067
1275.00 297.4698
1275.10 297.7516
1275.20 297.0771
1275.30 297.1539
1275.40 297.4104
1275.50 297.0478
1275.60 297.9143
1275.70 299.9156
1275.80 302.6574
1275.90 304.9274
1276.00 305.8179
1276.10 307.0479
1276.20 308.3177
1276.30 307.4715
1276.40 305.8749
1276.50 303.3234
1276.60 301.3575
1276.70 299.5595
1276.80 297.9731
1276.90 298.0408
1277.00 299.166
1277.10 301.2752
1277.20 303.0007
1277.30 304.0675
1277.40 305.5722
1277.50 306.9987
1277.60 307.2897
1277.70 306.6355
1277.80 305.143
1277.90 301.6541
1278.00 297.8741
1278.10 293.7805
1278.20 291.2741
1278.30 289.403
1278.40 287.3823
1278.50 286.0067
1278.60 285.3301
1278.70 286.0474
1278.80 287.4823
1278.90 290.3892
1279.00 293.6663
1279.10 297.1285
1279.20 299.5534
1279.30 302.1941
1279.40 305.1584
1279.50 306.9878
1279.60 308.3037
1279.70 308.5723
1279.80 307.8735
1279.90 306.4449
1280.00 304.7645
1280.10 303.0829
1280.20 301.4239
1280.30 299.2488
1280.40 296.9754
1280.50 295.3817
1280.60 293.7529
1280.70 292.0888
1280.80 291.1934
1280.90 290.3964
1281.00 289.6329
1281.10 289.1202
1281.20 288.7733
1281.30 289.2311
1281.40 289.7044
1281.50 290.1975
1281.60 290.874
1281.70 291.5285
1281.80 291.9719
1281.90 292.5939
1282.00 293.335
1282.10 294.8064
1282.20 296.2283
1282.30 297.5573
1282.40 298.5549
1282.50 299.4471
1282.60 300.3035
1282.70 300.5364
1282.80 300.2382
1282.90 299.5736
1283.00 298.9274
1283.10 298.3883
1283.20 297.9527
1283.30 297.5672
1283.40 297.2391
1283.50 296.8076
1283.60 296.2595
1283.70 295.6876
1283.80 295.1649
1283.90 294.8017
1284.00 294.2788
1284.10 293.6658
1284.20 293.0409
1284.30 293.0311
1284.40 293.9065
1284.50 294.7615
1284.60 295.668
1284.70 296.8166
1284.80 298.1321
1284.90 299.5735
1285.00 299.6888
1285.10 299.7366
1285.20 299.7617
1285.30 298.1288
1285.40 295.7384
1285.50 292.0651
1285.60 288.3826
1285.70 284.6915
1285.80 280.5792
1285.90 276.9942
1286.00 274.8151
1286.10 273.2326
1286.20 272.0856
1286.30 273.1543
1286.40 274.889
1286.50 277.4377
1286.60 281.0967
1286.70 285.057
1286.80 289.279
1286.90 292.6254
1287.00 295.412
1287.10 298.9189
1287.20 301.2416
1287.30 301.6324
1287.40 300.688
1287.50 299.041
1287.60 295.7981
1287.70 291.5866
1287.80 286.5828
1287.90 283.1579
1288.00 279.8655
1288.10 276.6018
1288.20 274.8806
1288.30 273.9761
1288.40 274.7523
1288.50 276.328
1288.60 278.7699
1288.70 281.8317
1288.80 284.7824
1288.90 287.1536
1289.00 289.772
1289.10 292.5005
1289.20 294.4801
1289.30 296.2633
1289.40 297.7755
1289.50 297.7317
1289.60 297.1788
1289.70 296.0491
1289.80 295.0725
1289.90 294.2068
1290.00 291.9964
1290.10 290.22
1290.20 289.2639
1290.30 288.7482
1290.40 288.3738
1290.50 287.9627
1290.60 287.8205
1290.70 287.9169
1290.80 287.8745
1290.90 288.0095
1291.00 288.5903
1291.10 288.6327
1291.20 288.3991
1291.30 287.9058
1291.40 287.8851
1291.50 288.4191
1291.60 288.7491
1291.70 289.2404
1291.80 290.3922
1291.90 291.598
1292.00 292.8317
1292.10 293.6913
1292.20 294.8374
1292.30 296.4136
1292.40 296.2985
1292.50 295.6426
1292.60 294.6961
1292.70 293.2021
1292.80 291.2779
1292.90 288.1982
1293.00 286.0005
1293.10 285.6913
1293.20 285.1285
1293.30 284.541
1293.40 284.513
1293.50 285.3976
1293.60 287.1591
1293.70 288.8837
1293.80 290.6659
1293.90 292.6095
1294.00 293.685
1294.10 294.2765
1294.20 294.2917
1294.30 294.6596
1294.40 295.4765
1294.50 295.7611
1294.60 296.0165
1294.70 296.5725
1294.80 297.8454
1294.90 299.5768
1295.00 299.2487
1295.10 298.6987
1295.20 297.8341
1295.30 295.6938
1295.40 292.9446
1295.50 289.1133
1295.60 286.0291
1295.70 283.5813
1295.80 280.345
1295.90 277.8564
1296.00 277.144
1296.10 277.7155
1296.20 278.775
1296.30 279.4661
1296.40 280.5617
1296.50 282.0785
1296.60 283.2408
1296.70 284.3254
1296.80 285.3561
1296.90 286.3323
1297.00 287.2443
1297.10 287.3472
1297.20 287.5273
1297.30 287.814
1297.40 288.4368
1297.50 289.0131
1297.60 289.0772
1297.70 289.0765
1297.80 289.0309
1297.90 289.8398
1298.00 290.6589
1298.10 291.4505
1298.20 293.1647
1298.30 295.2117
1298.40 297.3069
1298.50 299.0426
1298.60 300.4464
1298.70 302.9212
1298.80 304.8911
1298.90 305.3973
1299.00 305.4884
1299.10 305.3272
1299.20 304.1777
1299.30 302.7085
1299.40 300.8787
1299.50 299.267
1299.60 297.3744
1299.70 294.5237
1299.80 292.2234
1299.90 290.2588
