# Version 2.1 - nm, norm@500 to 1, cut digits
# Wavelength(nm)  Flambda(ergs/cm^s/s/nm)
300.00 1.408366e-95
300.10 1.408366e-95
300.20 1.408366e-95
300.30 1.408366e-95
300.40 1.408366e-95
300.50 1.408366e-95
300.60 1.408366e-95
300.70 1.408366e-95
300.80 1.408366e-95
300.90 1.408366e-95
301.00 1.408366e-95
301.10 1.408366e-95
301.20 1.408366e-95
301.30 1.408366e-95
301.40 1.408366e-95
301.50 1.408366e-95
301.60 1.408366e-95
301.70 1.408366e-95
301.80 1.408366e-95
301.90 1.408366e-95
302.00 1.408366e-95
302.10 1.408366e-95
302.20 1.408366e-95
302.30 1.408366e-95
302.40 1.408366e-95
302.50 1.408366e-95
302.60 1.408366e-95
302.70 1.408366e-95
302.80 1.408366e-95
302.90 1.408366e-95
303.00 1.408366e-95
303.10 1.408366e-95
303.20 1.408366e-95
303.30 1.408366e-95
303.40 1.408366e-95
303.50 1.408366e-95
303.60 1.408366e-95
303.70 1.408366e-95
303.80 1.408366e-95
303.90 1.408366e-95
304.00 1.408366e-95
304.10 1.408366e-95
304.20 1.408366e-95
304.30 1.408366e-95
304.40 1.408366e-95
304.50 1.408366e-95
304.60 1.408366e-95
304.70 1.408366e-95
304.80 1.408366e-95
304.90 1.408366e-95
305.00 1.408366e-95
305.10 1.408366e-95
305.20 1.408366e-95
305.30 1.408366e-95
305.40 1.408366e-95
305.50 1.408366e-95
305.60 1.408366e-95
305.70 1.408366e-95
305.80 1.408366e-95
305.90 1.408366e-95
306.00 1.408366e-95
306.10 1.408366e-95
306.20 1.408366e-95
306.30 1.408366e-95
306.40 1.408366e-95
306.50 1.408366e-95
306.60 1.408366e-95
306.70 1.408366e-95
306.80 1.408366e-95
306.90 1.408366e-95
307.00 1.408366e-95
307.10 1.408366e-95
307.20 1.408366e-95
307.30 1.408366e-95
307.40 1.408366e-95
307.50 1.408366e-95
307.60 1.408366e-95
307.70 1.408366e-95
307.80 1.408366e-95
307.90 1.408366e-95
308.00 1.408366e-95
308.10 1.408366e-95
308.20 1.408366e-95
308.30 1.408366e-95
308.40 1.408366e-95
308.50 1.408366e-95
308.60 1.408366e-95
308.70 1.408366e-95
308.80 1.408366e-95
308.90 1.408366e-95
309.00 1.408366e-95
309.10 1.408366e-95
309.20 1.408366e-95
309.30 1.408366e-95
309.40 1.408366e-95
309.50 1.408366e-95
309.60 1.408366e-95
309.70 1.408366e-95
309.80 1.408366e-95
309.90 1.408366e-95
310.00 1.408366e-95
310.10 1.408366e-95
310.20 1.408366e-95
310.30 1.408366e-95
310.40 1.408366e-95
310.50 1.408366e-95
310.60 1.408366e-95
310.70 1.408366e-95
310.80 1.408366e-95
310.90 1.408366e-95
311.00 1.408366e-95
311.10 1.408366e-95
311.20 1.408366e-95
311.30 1.408366e-95
311.40 1.408366e-95
311.50 1.408366e-95
311.60 1.408366e-95
311.70 1.408366e-95
311.80 1.408366e-95
311.90 1.408366e-95
312.00 1.408366e-95
312.10 1.408366e-95
312.20 1.408366e-95
312.30 1.408366e-95
312.40 1.408366e-95
312.50 1.408366e-95
312.60 1.408366e-95
312.70 1.408366e-95
312.80 1.408366e-95
312.90 1.408366e-95
313.00 1.408366e-95
313.10 1.408366e-95
313.20 1.408366e-95
313.30 1.408366e-95
313.40 1.408366e-95
313.50 1.408366e-95
313.60 1.408366e-95
313.70 1.408366e-95
313.80 1.408366e-95
313.90 1.408366e-95
314.00 1.408366e-95
314.10 1.408366e-95
314.20 1.408366e-95
314.30 1.408366e-95
314.40 1.408366e-95
314.50 1.408366e-95
314.60 1.408366e-95
314.70 1.408366e-95
314.80 1.408366e-95
314.90 1.408366e-95
315.00 1.408366e-95
315.10 1.408366e-95
315.20 1.408366e-95
315.30 1.408366e-95
315.40 1.408366e-95
315.50 1.408366e-95
315.60 1.408366e-95
315.70 1.408366e-95
315.80 1.408366e-95
315.90 1.408366e-95
316.00 1.408366e-95
316.10 1.408366e-95
316.20 1.408366e-95
316.30 1.408366e-95
316.40 1.408366e-95
316.50 1.408366e-95
316.60 1.408366e-95
316.70 1.408366e-95
316.80 1.408366e-95
316.90 1.408366e-95
317.00 1.408366e-95
317.10 1.408366e-95
317.20 1.408366e-95
317.30 1.408366e-95
317.40 1.408366e-95
317.50 1.408366e-95
317.60 1.408366e-95
317.70 1.408366e-95
317.80 1.408366e-95
317.90 1.408366e-95
318.00 1.408366e-95
318.10 1.408366e-95
318.20 1.408366e-95
318.30 1.408366e-95
318.40 1.408366e-95
318.50 1.408366e-95
318.60 1.408366e-95
318.70 1.408366e-95
318.80 1.408366e-95
318.90 1.408366e-95
319.00 1.408366e-95
319.10 1.408366e-95
319.20 1.408366e-95
319.30 1.408366e-95
319.40 1.408366e-95
319.50 1.408366e-95
319.60 1.408366e-95
319.70 1.408366e-95
319.80 1.408366e-95
319.90 1.408366e-95
320.00 1.408366e-95
320.10 1.408366e-95
320.20 1.408366e-95
320.30 1.408366e-95
320.40 1.408366e-95
320.50 1.408366e-95
320.60 1.408366e-95
320.70 1.408366e-95
320.80 1.408366e-95
320.90 1.408366e-95
321.00 1.408366e-95
321.10 1.408366e-95
321.20 1.408366e-95
321.30 1.408366e-95
321.40 1.408366e-95
321.50 1.408366e-95
321.60 1.408366e-95
321.70 1.408366e-95
321.80 1.408366e-95
321.90 1.408366e-95
322.00 1.408366e-95
322.10 1.408366e-95
322.20 1.408366e-95
322.30 1.408366e-95
322.40 1.408366e-95
322.50 1.408366e-95
322.60 1.408366e-95
322.70 1.408366e-95
322.80 1.408366e-95
322.90 1.408366e-95
323.00 1.408366e-95
323.10 1.408366e-95
323.20 1.408366e-95
323.30 1.408366e-95
323.40 1.408366e-95
323.50 1.408366e-95
323.60 1.408366e-95
323.70 1.408366e-95
323.80 1.408366e-95
323.90 1.408366e-95
324.00 1.408366e-95
324.10 1.408366e-95
324.20 1.408366e-95
324.30 1.408366e-95
324.40 1.408366e-95
324.50 1.408366e-95
324.60 1.408366e-95
324.70 1.408366e-95
324.80 1.408366e-95
324.90 1.408366e-95
325.00 1.408366e-95
325.10 1.408366e-95
325.20 1.408366e-95
325.30 1.408366e-95
325.40 1.408366e-95
325.50 1.408366e-95
325.60 1.408366e-95
325.70 1.408366e-95
325.80 1.408366e-95
325.90 1.408366e-95
326.00 1.408366e-95
326.10 1.408366e-95
326.20 1.408366e-95
326.30 1.408366e-95
326.40 1.408366e-95
326.50 1.408366e-95
326.60 1.408366e-95
326.70 1.408366e-95
326.80 1.408366e-95
326.90 1.408366e-95
327.00 1.408366e-95
327.10 1.408366e-95
327.20 1.408366e-95
327.30 1.408366e-95
327.40 1.408366e-95
327.50 1.408366e-95
327.60 1.408366e-95
327.70 1.408366e-95
327.80 1.408366e-95
327.90 1.408366e-95
328.00 1.408366e-95
328.10 1.408366e-95
328.20 1.408366e-95
328.30 1.408366e-95
328.40 1.408366e-95
328.50 1.408366e-95
328.60 1.408366e-95
328.70 1.408366e-95
328.80 1.408366e-95
328.90 1.408366e-95
329.00 1.408366e-95
329.10 1.408366e-95
329.20 1.408366e-95
329.30 1.408366e-95
329.40 1.408366e-95
329.50 1.408366e-95
329.60 1.408366e-95
329.70 1.408366e-95
329.80 1.408366e-95
329.90 1.408366e-95
330.00 1.408366e-95
330.10 1.408366e-95
330.20 1.408366e-95
330.30 1.408366e-95
330.40 1.408366e-95
330.50 1.408366e-95
330.60 1.408366e-95
330.70 1.408366e-95
330.80 1.408366e-95
330.90 1.408366e-95
331.00 1.408366e-95
331.10 1.408366e-95
331.20 1.408366e-95
331.30 1.408366e-95
331.40 1.408366e-95
331.50 1.408366e-95
331.60 1.408366e-95
331.70 1.408366e-95
331.80 1.408366e-95
331.90 1.408366e-95
332.00 1.408366e-95
332.10 1.408366e-95
332.20 1.408366e-95
332.30 1.408366e-95
332.40 1.408366e-95
332.50 1.408366e-95
332.60 1.408366e-95
332.70 1.408366e-95
332.80 1.408366e-95
332.90 1.408366e-95
333.00 1.408366e-95
333.10 1.408366e-95
333.20 1.408366e-95
333.30 1.408366e-95
333.40 1.408366e-95
333.50 1.408366e-95
333.60 1.408366e-95
333.70 1.408366e-95
333.80 1.408366e-95
333.90 1.408366e-95
334.00 1.408366e-95
334.10 1.408366e-95
334.20 1.408366e-95
334.30 1.408366e-95
334.40 1.408366e-95
334.50 1.408366e-95
334.60 1.408366e-95
334.70 1.408366e-95
334.80 1.408366e-95
334.90 1.408366e-95
335.00 1.408366e-95
335.10 1.408366e-95
335.20 1.408366e-95
335.30 1.408366e-95
335.40 1.408366e-95
335.50 1.408366e-95
335.60 1.408366e-95
335.70 1.408366e-95
335.80 1.408366e-95
335.90 1.408366e-95
336.00 1.408366e-95
336.10 1.408366e-95
336.20 1.408366e-95
336.30 1.408366e-95
336.40 1.408366e-95
336.50 1.408366e-95
336.60 1.408366e-95
336.70 1.408366e-95
336.80 1.408366e-95
336.90 1.408366e-95
337.00 1.408366e-95
337.10 1.408366e-95
337.20 1.408366e-95
337.30 1.408366e-95
337.40 1.408366e-95
337.50 1.408366e-95
337.60 1.408366e-95
337.70 1.408366e-95
337.80 1.408366e-95
337.90 1.408366e-95
338.00 1.408366e-95
338.10 1.408366e-95
338.20 1.408366e-95
338.30 1.408366e-95
338.40 1.408366e-95
338.50 1.408366e-95
338.60 1.408366e-95
338.70 1.408366e-95
338.80 1.408366e-95
338.90 1.408366e-95
339.00 1.408366e-95
339.10 1.408366e-95
339.20 1.408366e-95
339.30 1.408366e-95
339.40 1.408366e-95
339.50 1.408366e-95
339.60 1.408366e-95
339.70 1.408366e-95
339.80 1.408366e-95
339.90 1.408366e-95
340.00 1.408366e-95
340.10 1.408366e-95
340.20 1.408366e-95
340.30 1.408366e-95
340.40 1.408366e-95
340.50 1.408366e-95
340.60 1.408366e-95
340.70 1.408366e-95
340.80 1.408366e-95
340.90 1.408366e-95
341.00 1.408366e-95
341.10 1.408366e-95
341.20 1.408366e-95
341.30 1.408366e-95
341.40 1.408366e-95
341.50 1.408366e-95
341.60 1.408366e-95
341.70 1.408366e-95
341.80 1.408366e-95
341.90 1.408366e-95
342.00 1.408366e-95
342.10 1.408366e-95
342.20 1.408366e-95
342.30 1.408366e-95
342.40 1.408366e-95
342.50 1.408366e-95
342.60 1.408366e-95
342.70 1.408366e-95
342.80 1.408366e-95
342.90 1.408366e-95
343.00 1.408366e-95
343.10 1.408366e-95
343.20 1.408366e-95
343.30 1.408366e-95
343.40 1.408366e-95
343.50 1.408366e-95
343.60 1.408366e-95
343.70 1.408366e-95
343.80 1.408366e-95
343.90 1.408366e-95
344.00 1.408366e-95
344.10 1.408366e-95
344.20 1.408366e-95
344.30 1.408366e-95
344.40 1.408366e-95
344.50 1.408366e-95
344.60 1.408366e-95
344.70 1.408366e-95
344.80 1.408366e-95
344.90 1.408366e-95
345.00 1.408366e-95
345.10 1.408366e-95
345.20 1.408366e-95
345.30 1.408366e-95
345.40 1.408366e-95
345.50 1.408366e-95
345.60 1.408366e-95
345.70 1.408366e-95
345.80 1.408366e-95
345.90 1.408366e-95
346.00 1.408366e-95
346.10 1.408366e-95
346.20 1.408366e-95
346.30 1.408366e-95
346.40 1.408366e-95
346.50 1.408366e-95
346.60 1.408366e-95
346.70 1.408366e-95
346.80 1.408366e-95
346.90 1.408366e-95
347.00 1.408366e-95
347.10 1.408366e-95
347.20 1.408366e-95
347.30 1.408366e-95
347.40 1.408366e-95
347.50 1.408366e-95
347.60 1.408366e-95
347.70 1.408366e-95
347.80 1.408366e-95
347.90 1.408366e-95
348.00 1.408366e-95
348.10 1.408366e-95
348.20 1.408366e-95
348.30 1.408366e-95
348.40 1.408366e-95
348.50 1.408366e-95
348.60 1.408366e-95
348.70 1.408366e-95
348.80 1.408366e-95
348.90 1.408366e-95
349.00 1.408366e-95
349.10 1.408366e-95
349.20 1.408366e-95
349.30 1.408366e-95
349.40 1.408366e-95
349.50 1.408366e-95
349.60 1.408366e-95
349.70 1.408366e-95
349.80 1.408366e-95
349.90 1.408366e-95
350.00 1.408366e-95
350.10 1.408366e-95
350.20 1.408366e-95
350.30 1.408366e-95
350.40 1.408366e-95
350.50 1.408366e-95
350.60 1.408366e-95
350.70 1.408366e-95
350.80 1.408366e-95
350.90 1.408366e-95
351.00 1.408366e-95
351.10 1.408366e-95
351.20 1.408366e-95
351.30 1.408366e-95
351.40 1.408366e-95
351.50 1.408366e-95
351.60 1.408366e-95
351.70 1.408366e-95
351.80 1.408366e-95
351.90 1.408366e-95
352.00 1.408366e-95
352.10 1.408366e-95
352.20 1.408366e-95
352.30 1.408366e-95
352.40 1.408366e-95
352.50 1.408366e-95
352.60 1.408366e-95
352.70 1.408366e-95
352.80 1.408366e-95
352.90 1.408366e-95
353.00 1.408366e-95
353.10 1.408366e-95
353.20 1.408366e-95
353.30 1.408366e-95
353.40 1.408366e-95
353.50 1.408366e-95
353.60 1.408366e-95
353.70 1.408366e-95
353.80 1.408366e-95
353.90 1.408366e-95
354.00 1.408366e-95
354.10 1.408366e-95
354.20 1.408366e-95
354.30 1.408366e-95
354.40 1.408366e-95
354.50 1.408366e-95
354.60 1.408366e-95
354.70 1.408366e-95
354.80 1.408366e-95
354.90 1.408366e-95
355.00 1.408366e-95
355.10 1.408366e-95
355.20 1.408366e-95
355.30 1.408366e-95
355.40 1.408366e-95
355.50 1.408366e-95
355.60 1.408366e-95
355.70 1.408366e-95
355.80 1.408366e-95
355.90 1.408366e-95
356.00 1.408366e-95
356.10 1.408366e-95
356.20 1.408366e-95
356.30 1.408366e-95
356.40 1.408366e-95
356.50 1.408366e-95
356.60 1.408366e-95
356.70 1.408366e-95
356.80 1.408366e-95
356.90 1.408366e-95
357.00 1.408366e-95
357.10 1.408366e-95
357.20 1.408366e-95
357.30 1.408366e-95
357.40 1.408366e-95
357.50 1.408366e-95
357.60 1.408366e-95
357.70 1.408366e-95
357.80 1.408366e-95
357.90 1.408366e-95
358.00 1.408366e-95
358.10 1.408366e-95
358.20 1.408366e-95
358.30 1.408366e-95
358.40 1.408366e-95
358.50 1.408366e-95
358.60 1.408366e-95
358.70 1.408366e-95
358.80 1.408366e-95
358.90 1.408366e-95
359.00 1.408366e-95
359.10 1.408366e-95
359.20 1.408366e-95
359.30 1.408366e-95
359.40 1.408366e-95
359.50 1.408366e-95
359.60 1.408366e-95
359.70 1.408366e-95
359.80 1.408366e-95
359.90 1.408366e-95
360.00 1.408366e-95
360.10 1.408366e-95
360.20 1.408366e-95
360.30 1.408366e-95
360.40 1.408366e-95
360.50 1.408366e-95
360.60 1.408366e-95
360.70 1.408366e-95
360.80 1.408366e-95
360.90 1.408366e-95
361.00 1.408366e-95
361.10 1.408366e-95
361.20 1.408366e-95
361.30 1.408366e-95
361.40 1.408366e-95
361.50 1.408366e-95
361.60 1.408366e-95
361.70 1.408366e-95
361.80 1.408366e-95
361.90 1.408366e-95
362.00 1.408366e-95
362.10 1.408366e-95
362.20 1.408366e-95
362.30 1.408366e-95
362.40 1.408366e-95
362.50 1.408366e-95
362.60 1.408366e-95
362.70 1.408366e-95
362.80 1.408366e-95
362.90 1.408366e-95
363.00 1.408366e-95
363.10 1.408366e-95
363.20 1.408366e-95
363.30 1.408366e-95
363.40 1.408366e-95
363.50 1.408366e-95
363.60 1.408366e-95
363.70 1.408366e-95
363.80 1.408366e-95
363.90 1.408366e-95
364.00 1.408366e-95
364.10 1.408366e-95
364.20 1.408366e-95
364.30 1.408366e-95
364.40 1.408366e-95
364.50 1.408366e-95
364.60 1.408366e-95
364.70 1.408366e-95
364.80 1.408366e-95
364.90 1.408366e-95
365.00 1.408366e-95
365.10 1.408366e-95
365.20 1.408366e-95
365.30 1.408366e-95
365.40 1.408366e-95
365.50 1.408366e-95
365.60 1.408366e-95
365.70 1.408366e-95
365.80 1.408366e-95
365.90 1.408366e-95
366.00 1.408366e-95
366.10 1.408366e-95
366.20 1.408366e-95
366.30 1.408366e-95
366.40 1.408366e-95
366.50 1.408366e-95
366.60 1.408366e-95
366.70 1.408366e-95
366.80 1.408366e-95
366.90 1.408366e-95
367.00 1.408366e-95
367.10 1.408366e-95
367.20 1.408366e-95
367.30 1.408366e-95
367.40 1.408366e-95
367.50 1.408366e-95
367.60 1.408366e-95
367.70 1.408366e-95
367.80 1.408366e-95
367.90 1.408366e-95
368.00 1.408366e-95
368.10 1.408366e-95
368.20 1.408366e-95
368.30 1.408366e-95
368.40 1.408366e-95
368.50 1.408366e-95
368.60 1.408366e-95
368.70 1.408366e-95
368.80 1.408366e-95
368.90 1.408366e-95
369.00 1.408366e-95
369.10 1.408366e-95
369.20 1.408366e-95
369.30 1.408366e-95
369.40 1.408366e-95
369.50 1.408366e-95
369.60 1.408366e-95
369.70 1.408366e-95
369.80 1.408366e-95
369.90 1.408366e-95
370.00 1.408366e-95
370.10 1.408366e-95
370.20 1.408366e-95
370.30 1.408366e-95
370.40 1.408366e-95
370.50 1.408366e-95
370.60 1.408366e-95
370.70 1.408366e-95
370.80 1.408366e-95
370.90 1.408366e-95
371.00 1.408366e-95
371.10 1.408366e-95
371.20 1.408366e-95
371.30 1.408366e-95
371.40 1.408366e-95
371.50 1.408366e-95
371.60 1.408366e-95
371.70 1.408366e-95
371.80 1.408366e-95
371.90 1.408366e-95
372.00 1.408366e-95
372.10 1.408366e-95
372.20 1.408366e-95
372.30 1.408366e-95
372.40 1.408366e-95
372.50 1.408366e-95
372.60 1.408366e-95
372.70 1.408366e-95
372.80 1.408366e-95
372.90 1.408366e-95
373.00 1.408366e-95
373.10 1.408366e-95
373.20 1.408366e-95
373.30 1.408366e-95
373.40 1.408366e-95
373.50 1.408366e-95
373.60 1.408366e-95
373.70 1.408366e-95
373.80 1.408366e-95
373.90 1.408366e-95
374.00 1.408366e-95
374.10 1.408366e-95
374.20 1.408366e-95
374.30 1.408366e-95
374.40 1.408366e-95
374.50 1.408366e-95
374.60 1.408366e-95
374.70 1.408366e-95
374.80 1.408366e-95
374.90 1.408366e-95
375.00 1.408366e-95
375.10 1.408366e-95
375.20 1.408366e-95
375.30 1.408366e-95
375.40 1.408366e-95
375.50 1.408366e-95
375.60 1.408366e-95
375.70 1.408366e-95
375.80 1.408366e-95
375.90 1.408366e-95
376.00 1.408366e-95
376.10 1.408366e-95
376.20 1.408366e-95
376.30 1.408366e-95
376.40 1.408366e-95
376.50 1.408366e-95
376.60 1.408366e-95
376.70 1.408366e-95
376.80 1.408366e-95
376.90 1.408366e-95
377.00 1.408366e-95
377.10 1.408366e-95
377.20 1.408366e-95
377.30 1.408366e-95
377.40 1.408366e-95
377.50 1.408366e-95
377.60 1.408366e-95
377.70 1.408366e-95
377.80 1.408366e-95
377.90 1.408366e-95
378.00 1.408366e-95
378.10 1.408366e-95
378.20 1.408366e-95
378.30 1.408366e-95
378.40 1.408366e-95
378.50 1.408366e-95
378.60 1.408366e-95
378.70 1.408366e-95
378.80 1.408366e-95
378.90 1.408366e-95
379.00 1.408366e-95
379.10 1.408366e-95
379.20 1.408366e-95
379.30 1.408366e-95
379.40 1.408366e-95
379.50 1.408366e-95
379.60 1.408366e-95
379.70 1.408366e-95
379.80 1.408366e-95
379.90 1.408366e-95
380.00 1.408366e-95
380.10 1.408366e-95
380.20 1.408366e-95
380.30 1.408366e-95
380.40 1.408366e-95
380.50 1.408366e-95
380.60 1.408366e-95
380.70 1.408366e-95
380.80 1.408366e-95
380.90 1.408366e-95
381.00 1.408366e-95
381.10 1.408366e-95
381.20 1.408366e-95
381.30 1.408366e-95
381.40 1.408366e-95
381.50 1.408366e-95
381.60 1.408366e-95
381.70 1.408366e-95
381.80 1.408366e-95
381.90 1.408366e-95
382.00 1.408366e-95
382.10 1.408366e-95
382.20 1.408366e-95
382.30 1.408366e-95
382.40 1.408366e-95
382.50 1.408366e-95
382.60 1.408366e-95
382.70 1.408366e-95
382.80 1.408366e-95
382.90 1.408366e-95
383.00 1.408366e-95
383.10 1.408366e-95
383.20 1.408366e-95
383.30 1.408366e-95
383.40 1.408366e-95
383.50 1.408366e-95
383.60 1.408366e-95
383.70 1.408366e-95
383.80 1.408366e-95
383.90 1.408366e-95
384.00 1.408366e-95
384.10 1.408366e-95
384.20 1.408366e-95
384.30 1.408366e-95
384.40 1.408366e-95
384.50 1.408366e-95
384.60 1.408366e-95
384.70 1.408366e-95
384.80 1.408366e-95
384.90 1.408366e-95
385.00 1.408366e-95
385.10 1.408366e-95
385.20 1.408366e-95
385.30 1.408366e-95
385.40 1.408366e-95
385.50 1.408366e-95
385.60 1.408366e-95
385.70 1.408366e-95
385.80 1.408366e-95
385.90 1.408366e-95
386.00 1.408366e-95
386.10 1.408366e-95
386.20 1.408366e-95
386.30 1.408366e-95
386.40 1.408366e-95
386.50 1.408366e-95
386.60 1.408366e-95
386.70 1.408366e-95
386.80 1.408366e-95
386.90 1.408366e-95
387.00 1.408366e-95
387.10 1.408366e-95
387.20 1.408366e-95
387.30 1.408366e-95
387.40 1.408366e-95
387.50 1.408366e-95
387.60 1.408366e-95
387.70 1.408366e-95
387.80 1.408366e-95
387.90 1.408366e-95
388.00 1.408366e-95
388.10 1.408366e-95
388.20 1.408366e-95
388.30 1.408366e-95
388.40 1.408366e-95
388.50 1.408366e-95
388.60 1.408366e-95
388.70 1.408366e-95
388.80 1.408366e-95
388.90 1.408366e-95
389.00 1.408366e-95
389.10 1.408366e-95
389.20 1.408366e-95
389.30 1.408366e-95
389.40 1.408366e-95
389.50 1.408366e-95
389.60 1.408366e-95
389.70 1.408366e-95
389.80 1.408366e-95
389.90 1.408366e-95
390.00 1.408366e-95
390.10 1.408366e-95
390.20 1.408366e-95
390.30 1.408366e-95
390.40 1.408366e-95
390.50 1.408366e-95
390.60 1.408366e-95
390.70 1.408366e-95
390.80 1.408366e-95
390.90 1.408366e-95
391.00 1.408366e-95
391.10 1.408366e-95
391.20 1.408366e-95
391.30 1.408366e-95
391.40 1.408366e-95
391.50 1.408366e-95
391.60 1.408366e-95
391.70 1.408366e-95
391.80 1.408366e-95
391.90 1.408366e-95
392.00 1.408366e-95
392.10 1.408366e-95
392.20 1.408366e-95
392.30 1.408366e-95
392.40 1.408366e-95
392.50 1.408366e-95
392.60 1.408366e-95
392.70 1.408366e-95
392.80 1.408366e-95
392.90 1.408366e-95
393.00 1.408366e-95
393.10 1.408366e-95
393.20 1.408366e-95
393.30 1.408366e-95
393.40 1.408366e-95
393.50 1.408366e-95
393.60 1.408366e-95
393.70 1.408366e-95
393.80 1.408366e-95
393.90 1.408366e-95
394.00 1.408366e-95
394.10 1.408366e-95
394.20 1.408366e-95
394.30 1.408366e-95
394.40 1.408366e-95
394.50 1.408366e-95
394.60 1.408366e-95
394.70 1.408366e-95
394.80 1.408366e-95
394.90 1.408366e-95
395.00 0.004621023
395.10 0.008690576
395.20 0.01267324
395.30 0.01704809
395.40 0.02234771
395.50 0.02909348
395.60 0.037454
395.70 0.04721856
395.80 0.05792314
395.90 0.0691518
396.00 0.08069366
396.10 0.09224202
396.20 0.1033356
396.30 0.1134114
396.40 0.1219508
396.50 0.1285947
396.60 0.1331518
396.70 0.135684
396.80 0.1364243
396.90 0.1364243
397.00 0.1364243
397.10 0.1364243
397.20 0.1366271
397.30 0.1385714
397.40 0.1420809
397.50 0.1468283
397.60 0.1524128
397.70 0.1583989
397.80 0.1644071
397.90 0.1701594
398.00 0.1754659
398.10 0.180235
398.20 0.1846447
398.30 0.1891665
398.40 0.1942392
398.50 0.200111
398.60 0.2068705
398.70 0.2143115
398.80 0.2219263
398.90 0.2291965
399.00 0.2357406
399.10 0.2413758
399.20 0.2461686
399.30 0.2503432
399.40 0.25419
399.50 0.2580763
399.60 0.2622805
399.70 0.2667181
399.80 0.271072
399.90 0.2748979
400.00 0.2778039
400.10 0.2798919
400.20 0.2816834
400.30 0.2837675
400.40 0.2866702
400.50 0.290749
400.60 0.2960392
400.70 0.3022986
400.80 0.3090977
400.90 0.3157712
401.00 0.3216178
401.10 0.3261643
401.20 0.3292535
401.30 0.3310201
401.40 0.3315078
401.50 0.3315078
401.60 0.3315078
401.70 0.3315078
401.80 0.3315078
401.90 0.3315078
402.00 0.3315078
402.10 0.3315078
402.20 0.332279
402.30 0.3350315
402.40 0.3396022
402.50 0.3454886
402.60 0.3519495
402.70 0.3582067
402.80 0.3639879
402.90 0.369594
403.00 0.3752724
403.10 0.3808487
403.20 0.3859166
403.30 0.3902424
403.40 0.3938493
403.50 0.3968595
403.60 0.3992977
403.70 0.4011626
403.80 0.4026148
403.90 0.404014
404.00 0.4059164
404.10 0.4088918
404.20 0.4132591
404.30 0.4190243
404.40 0.4259708
404.50 0.4337488
404.60 0.441884
404.70 0.4498013
404.80 0.4570436
404.90 0.4633224
405.00 0.4638451
405.10 0.4638597
405.20 0.4632281
405.30 0.4618671
405.40 0.45949
405.50 0.4556337
405.60 0.4501184
405.70 0.4430847
405.80 0.4349389
405.90 0.4261409
406.00 0.4169809
406.10 0.4078311
406.20 0.3991849
406.30 0.3917587
406.40 0.3863201
406.50 0.38331
406.60 0.3828639
406.70 0.3849176
406.80 0.3892263
406.90 0.394508
407.00 0.3996273
407.10 0.404187
407.20 0.4076839
407.30 0.4085047
407.40 0.4070286
407.50 0.4038804
407.60 0.3996657
407.70 0.3947834
407.80 0.3894492
407.90 0.3837768
408.00 0.3784703
408.10 0.3737011
408.20 0.3692914
408.30 0.3647696
408.40 0.359697
408.50 0.3538252
408.60 0.3476454
408.70 0.3423474
408.80 0.337797
408.90 0.3336303
409.00 0.329321
409.10 0.3243087
409.20 0.3195159
409.30 0.3153413
409.40 0.3114945
409.50 0.3076082
409.60 0.303404
409.70 0.2989664
409.80 0.2946125
409.90 0.2915834
410.00 0.2907414
410.10 0.2915337
410.20 0.2931524
410.30 0.2948237
410.40 0.2959435
410.50 0.29624
410.60 0.295773
410.70 0.2947483
410.80 0.2933617
410.90 0.2917798
411.00 0.2900749
411.10 0.288148
411.20 0.28596
411.30 0.2841934
411.40 0.2837057
411.50 0.2837801
411.60 0.285443
411.70 0.2892345
411.80 0.2954481
411.90 0.3039682
412.00 0.3144408
412.10 0.3264534
412.20 0.3387499
412.30 0.3497161
412.40 0.3591815
412.50 0.3672881
412.60 0.3743772
412.70 0.380819
412.80 0.3865679
412.90 0.3911527
413.00 0.3943047
413.10 0.3963098
413.20 0.3977554
413.30 0.3991181
413.40 0.4005556
413.50 0.4019735
413.60 0.4033729
413.70 0.4049743
413.80 0.4070307
413.90 0.4096089
414.00 0.4123644
414.10 0.4146505
414.20 0.4158556
414.30 0.4154725
414.40 0.4131402
414.50 0.4087137
414.60 0.4022236
414.70 0.3943064
414.80 0.3870641
414.90 0.3807852
415.00 0.3756415
415.10 0.3715573
415.20 0.3682063
415.30 0.3651924
415.40 0.3634323
415.50 0.3630588
415.60 0.3634882
415.70 0.3642116
415.80 0.3648877
415.90 0.3654113
416.00 0.3659694
416.10 0.3667761
416.20 0.3679237
416.30 0.3692128
416.40 0.3700502
416.50 0.3697778
416.60 0.3678513
416.70 0.3638719
416.80 0.3588229
416.90 0.3535412
417.00 0.3484218
417.10 0.3441027
417.20 0.3432639
417.30 0.3462733
417.40 0.3525324
417.50 0.3609271
417.60 0.3700896
417.70 0.3787238
417.80 0.3860725
417.90 0.3920874
418.00 0.3965854
418.10 0.4001728
418.20 0.4037293
418.30 0.408099
418.40 0.4138714
418.50 0.4213113
418.60 0.4297637
418.70 0.4378746
418.80 0.445743
418.90 0.4536713
419.00 0.4620829
419.10 0.4713307
419.20 0.4799894
419.30 0.4869472
419.40 0.4919434
419.50 0.4951411
419.60 0.4970122
419.70 0.4982319
419.80 0.4995511
419.90 0.50071
420.00 0.5014241
420.10 0.5020698
420.20 0.5027771
420.30 0.503484
420.40 0.5039638
420.50 0.5039176
420.60 0.5032848
420.70 0.5025825
420.80 0.5026598
420.90 0.5044511
421.00 0.5088365
421.10 0.5160882
421.20 0.5255598
421.30 0.5356513
421.40 0.5451398
421.50 0.5540271
421.60 0.560951
421.70 0.5655658
421.80 0.5678143
421.90 0.5680521
422.00 0.5668141
422.10 0.5643495
422.20 0.5607285
422.30 0.5559063
422.40 0.5497253
422.50 0.5423596
422.60 0.5344577
422.70 0.5268294
422.80 0.5200538
422.90 0.5143646
423.00 0.5098299
423.10 0.5064521
423.20 0.504171
423.30 0.5026676
423.40 0.5014881
423.50 0.5003753
423.60 0.4991866
423.70 0.4977182
423.80 0.4957529
423.90 0.4931255
424.00 0.4898329
424.10 0.4860657
424.20 0.482144
424.30 0.4785781
424.40 0.4759298
424.50 0.4746022
424.60 0.4749804
424.70 0.4770265
424.80 0.4791657
424.90 0.481556
425.00 0.4843848
425.10 0.4877413
425.20 0.4915377
425.30 0.4955853
425.40 0.4985944
425.50 0.5003454
425.60 0.5015351
425.70 0.5028766
425.80 0.5046595
425.90 0.5065955
426.00 0.5080578
426.10 0.5085418
426.20 0.5079167
426.30 0.5064135
426.40 0.5046736
426.50 0.5035953
426.60 0.5040672
426.70 0.5067824
426.80 0.5109371
426.90 0.5158304
427.00 0.5211572
427.10 0.5262997
427.20 0.5286151
427.30 0.5276851
427.40 0.5238059
427.50 0.5177466
427.60 0.5107235
427.70 0.5041405
427.80 0.4990623
427.90 0.4958969
428.00 0.4944583
428.10 0.4940502
428.20 0.4937027
428.30 0.4926493
428.40 0.4903807
428.50 0.4865224
428.60 0.4809525
428.70 0.4739068
428.80 0.4659263
428.90 0.4578096
429.00 0.4503173
429.10 0.4439122
429.20 0.4388711
429.30 0.4353694
429.40 0.4334356
429.50 0.4328146
429.60 0.4328982
429.70 0.4327976
429.80 0.431692
429.90 0.4297364
430.00 0.4269582
430.10 0.4235475
430.20 0.4206788
430.30 0.4186392
430.40 0.4172128
430.50 0.4159354
430.60 0.4141107
430.70 0.4108228
430.80 0.4053329
430.90 0.3984502
431.00 0.3899231
431.10 0.3800516
431.20 0.3696789
431.30 0.3604933
431.40 0.3536534
431.50 0.3488355
431.60 0.3452741
431.70 0.3420718
431.80 0.3384317
431.90 0.3336954
432.00 0.3274847
432.10 0.3199759
432.20 0.3118133
432.30 0.3037533
432.40 0.296628
432.50 0.2910124
432.60 0.2870324
432.70 0.2845258
432.80 0.2832184
432.90 0.2827889
433.00 0.2828572
433.10 0.2830148
433.20 0.2829953
433.30 0.2828775
433.40 0.2830304
433.50 0.2838152
433.60 0.2854711
433.70 0.2881238
433.80 0.2915412
433.90 0.2950939
434.00 0.2980083
434.10 0.2996724
434.20 0.2998623
434.30 0.298768
434.40 0.2968861
434.50 0.2949004
434.60 0.293357
434.70 0.2925138
434.80 0.2923205
434.90 0.2923454
435.00 0.2919881
435.10 0.2907773
435.20 0.2886213
435.30 0.2858566
435.40 0.2830376
435.50 0.2807698
435.60 0.279353
435.70 0.2786122
435.80 0.2782568
435.90 0.2780269
436.00 0.2776923
436.10 0.2770811
436.20 0.2760081
436.30 0.2742555
436.40 0.272057
436.50 0.269774
436.60 0.2671177
436.70 0.263796
436.80 0.2596412
436.90 0.254748
437.00 0.2494211
437.10 0.2442233
437.20 0.2399669
437.30 0.2364923
437.40 0.2332749
437.50 0.2297048
437.60 0.2261956
437.70 0.2230406
437.80 0.2200962
437.90 0.2171667
438.00 0.2141074
438.10 0.210928
438.20 0.208611
438.30 0.2081071
438.40 0.2092452
438.50 0.2117893
438.60 0.2154039
438.70 0.2197222
438.80 0.224382
438.90 0.2287461
439.00 0.2320672
439.10 0.2339096
439.20 0.2343424
439.30 0.2338587
439.40 0.232963
439.50 0.2320927
439.60 0.2318496
439.70 0.2328659
439.80 0.2354351
439.90 0.2388917
440.00 0.2429706
440.10 0.2473943
440.20 0.2509198
440.30 0.2533438
440.40 0.2550824
440.50 0.2567813
440.60 0.2590801
440.70 0.2624036
440.80 0.2669564
440.90 0.2716218
441.00 0.2765142
441.10 0.2816985
441.20 0.2872579
441.30 0.2924906
441.40 0.2967277
441.50 0.3002918
441.60 0.3037965
441.70 0.3077373
441.80 0.3123389
441.90 0.3176539
442.00 0.3235817
442.10 0.3299357
442.20 0.3364921
442.30 0.3431272
442.40 0.3496384
442.50 0.3557445
442.60 0.3611749
442.70 0.3657277
442.80 0.3694323
442.90 0.3724998
443.00 0.3751618
443.10 0.3777322
443.20 0.380458
443.30 0.3833927
443.40 0.386436
443.50 0.3894127
443.60 0.3920265
443.70 0.3938751
443.80 0.3948916
443.90 0.3954425
444.00 0.3960428
444.10 0.3970383
444.20 0.398382
444.30 0.3997361
444.40 0.4006776
444.50 0.4007
444.60 0.40022
444.70 0.3990171
444.80 0.3970711
444.90 0.394656
445.00 0.3922317
445.10 0.3914549
445.20 0.3927172
445.30 0.395861
445.40 0.4003075
445.50 0.4052236
445.60 0.4099305
445.70 0.4141155
445.80 0.4177746
445.90 0.4212423
446.00 0.4249974
446.10 0.4293399
446.20 0.4343512
446.30 0.4400444
446.40 0.4459967
446.50 0.451637
446.60 0.4569553
446.70 0.4618916
446.80 0.4665539
446.90 0.4710954
447.00 0.4754534
447.10 0.4792854
447.20 0.4819141
447.30 0.4836148
447.40 0.4851435
447.50 0.4874224
447.60 0.4904143
447.70 0.4940862
447.80 0.4985857
447.90 0.5039979
448.00 0.5103187
448.10 0.5172706
448.20 0.5233589
448.30 0.5270444
448.40 0.5283059
448.50 0.5276571
448.60 0.5259098
448.70 0.5238617
448.80 0.5221539
448.90 0.5213883
449.00 0.5220111
449.10 0.5242533
449.20 0.528055
449.30 0.5330035
449.40 0.5385661
449.50 0.5443166
449.60 0.5498362
449.70 0.5546128
449.80 0.5582838
449.90 0.5608065
450.00 0.5624031
450.10 0.5635874
450.20 0.564973
450.30 0.5670106
450.40 0.5700045
450.50 0.5741319
450.60 0.5793615
450.70 0.5854563
450.80 0.5921162
450.90 0.5991012
451.00 0.6063283
451.10 0.6138465
451.20 0.6215573
451.30 0.6290973
451.40 0.6359895
451.50 0.6417688
451.60 0.6461231
451.70 0.6490964
451.80 0.6509695
451.90 0.6521106
452.00 0.6529669
452.10 0.6539852
452.20 0.6554351
452.30 0.6573725
452.40 0.6598657
452.50 0.6629445
452.60 0.6665346
452.70 0.6704646
452.80 0.6744602
452.90 0.6782126
453.00 0.6814203
453.10 0.6837649
453.20 0.6849956
453.30 0.6850577
453.40 0.6841635
453.50 0.6829079
453.60 0.6822441
453.70 0.683108
453.80 0.6859432
453.90 0.6907865
454.00 0.6975338
454.10 0.7060099
454.20 0.7160248
454.30 0.7272689
454.40 0.7391738
454.50 0.7510889
454.60 0.7617384
454.70 0.7710078
454.80 0.7789959
454.90 0.7857377
455.00 0.7911511
455.10 0.7940045
455.20 0.7941913
455.30 0.7920239
455.40 0.7881942
455.50 0.7835443
455.60 0.7787426
455.70 0.7742356
455.80 0.7704017
455.90 0.7674398
456.00 0.7652621
456.10 0.7636673
456.20 0.7625492
456.30 0.7618928
456.40 0.7616303
456.50 0.7616816
456.60 0.7621855
456.70 0.7633531
456.80 0.7651202
456.90 0.7673052
457.00 0.7700937
457.10 0.7740442
457.20 0.779716
457.30 0.7873356
457.40 0.7967682
457.50 0.8075654
457.60 0.8188768
457.70 0.8297325
457.80 0.8393682
457.90 0.8472907
458.00 0.8532854
458.10 0.8575379
458.20 0.8607114
458.30 0.8636319
458.40 0.8668727
458.50 0.8706162
458.60 0.8747612
458.70 0.8790713
458.80 0.8831148
458.90 0.8863817
459.00 0.8885657
459.10 0.8895636
459.20 0.8894754
459.30 0.888699
459.40 0.8878844
459.50 0.8876051
459.60 0.8882138
459.70 0.8899509
459.80 0.8928806
459.90 0.8968131
460.00 0.9013945
460.10 0.9061868
460.20 0.9109071
460.30 0.9155184
460.40 0.9198512
460.50 0.923536
460.60 0.9262817
460.70 0.9278889
460.80 0.928129
460.90 0.9268404
461.00 0.924011
461.10 0.9198317
461.20 0.9148241
461.30 0.9097436
461.40 0.9053331
461.50 0.9021554
461.60 0.9003882
461.70 0.8997273
461.80 0.8997736
461.90 0.9003249
462.00 0.9012812
462.10 0.9026496
462.20 0.9045377
462.30 0.906985
462.40 0.9097742
462.50 0.9125278
462.60 0.9147809
462.70 0.9159453
462.80 0.9154716
462.90 0.9131567
463.00 0.9093337
463.10 0.904757
463.20 0.9003972
463.30 0.8972484
463.40 0.8961208
463.50 0.8971943
463.60 0.8999294
463.70 0.9034269
463.80 0.9067636
463.90 0.9090984
464.00 0.9096794
464.10 0.9081629
464.20 0.90467
464.30 0.8995668
464.40 0.8934081
464.50 0.8870207
464.60 0.8813324
464.70 0.8769668
464.80 0.87421
464.90 0.8733033
465.00 0.8743945
465.10 0.8773955
465.20 0.8820942
465.30 0.8879905
465.40 0.8943818
465.50 0.9006766
465.60 0.9065581
465.70 0.9119898
465.80 0.9171023
465.90 0.9221085
466.00 0.9272253
466.10 0.9325953
466.20 0.9381697
466.30 0.9437252
466.40 0.9490177
466.50 0.9538933
466.60 0.9582945
466.70 0.9623836
466.80 0.9663788
466.90 0.9703535
467.00 0.9742121
467.10 0.9775489
467.20 0.9798125
467.30 0.9805618
467.40 0.9795527
467.50 0.9768735
467.60 0.9728674
467.70 0.9679657
467.80 0.9626091
467.90 0.9571646
468.00 0.9519138
468.10 0.9470397
468.20 0.9426774
468.30 0.9387889
468.40 0.9351473
468.50 0.931708
468.60 0.9285555
468.70 0.9256643
468.80 0.9230279
468.90 0.9206901
469.00 0.9188072
469.10 0.9176586
469.20 0.9174398
469.30 0.9181608
469.40 0.9195943
469.50 0.9214523
469.60 0.923632
469.70 0.926161
469.80 0.9290869
469.90 0.9324429
470.00 0.9361778
470.10 0.9401133
470.20 0.9438094
470.30 0.9466198
470.40 0.9480777
470.50 0.9480329
470.60 0.9465933
470.70 0.9441273
470.80 0.9411518
470.90 0.9380575
471.00 0.9349506
471.10 0.9317633
471.20 0.9283311
471.30 0.9244375
471.40 0.9199498
471.50 0.9148507
471.60 0.9092804
471.70 0.9035943
471.80 0.8980617
471.90 0.8926216
472.00 0.887048
472.10 0.881031
472.20 0.8742774
472.30 0.8667549
472.40 0.858782
472.50 0.8508717
472.60 0.8436244
472.70 0.837762
472.80 0.8339977
472.90 0.832738
473.00 0.8338514
473.10 0.8366825
473.20 0.8403264
473.30 0.843848
473.40 0.8462452
473.50 0.8466122
473.60 0.8443846
473.70 0.8394671
473.80 0.8323077
473.90 0.8237814
474.00 0.8150524
474.10 0.8072425
474.20 0.8011162
474.30 0.7971262
474.40 0.7956006
474.50 0.7965534
474.60 0.7993264
474.70 0.802929
474.80 0.8065111
474.90 0.8093678
475.00 0.8111671
475.10 0.8119598
475.20 0.8118413
475.30 0.8110044
475.40 0.8096532
475.50 0.8077838
475.60 0.8053294
475.70 0.802293
475.80 0.7986328
475.90 0.794315
476.00 0.7894625
476.10 0.7842935
476.20 0.7790812
476.30 0.7741874
476.40 0.7698928
476.50 0.7662349
476.60 0.7629906
476.70 0.7597678
476.80 0.7562888
476.90 0.7524542
477.00 0.7481161
477.10 0.7431572
477.20 0.7376352
477.30 0.7317516
477.40 0.7258256
477.50 0.7201499
477.60 0.7149683
477.70 0.7105481
477.80 0.7071506
477.90 0.7051421
478.00 0.7050302
478.10 0.7071437
478.20 0.7113598
478.30 0.7171827
478.40 0.7239363
478.50 0.7308134
478.60 0.7369885
478.70 0.7417904
478.80 0.7448935
478.90 0.7464002
479.00 0.7465905
479.10 0.7457903
479.20 0.7443159
479.30 0.7421896
479.40 0.7390685
479.50 0.7344787
479.60 0.727979
479.70 0.7194042
479.80 0.7090078
479.90 0.6972536
480.00 0.6846232
480.10 0.6716107
480.20 0.658684
480.30 0.6463106
480.40 0.6350718
480.50 0.6254767
480.60 0.6179591
480.70 0.6130463
480.80 0.6113191
480.90 0.6132671
481.00 0.6190714
481.10 0.6283983
481.20 0.6403644
481.30 0.6537918
481.40 0.6675448
481.50 0.6806505
481.60 0.6923227
481.70 0.7020687
481.80 0.7097872
481.90 0.7158764
482.00 0.7209873
482.10 0.7257089
482.20 0.7304968
482.30 0.7355846
482.40 0.7410222
482.50 0.7467456
482.60 0.7525952
482.70 0.7582886
482.80 0.7634682
482.90 0.7679138
483.00 0.771682
483.10 0.7749446
483.20 0.7778072
483.30 0.7803697
483.40 0.7828214
483.50 0.785449
483.60 0.7885748
483.70 0.7924673
483.80 0.7971893
483.90 0.8026025
484.00 0.8084425
484.10 0.8143105
484.20 0.8197478
484.30 0.8242702
484.40 0.8273075
484.50 0.8284517
484.60 0.8278411
484.70 0.8259735
484.80 0.8234279
484.90 0.8209533
485.00 0.8192008
485.10 0.8185666
485.20 0.8194223
485.30 0.8220185
485.40 0.8263499
485.50 0.8322463
485.60 0.8394228
485.70 0.8474519
485.80 0.8558488
485.90 0.8641146
486.00 0.8717358
486.10 0.8783368
486.20 0.8836653
486.30 0.8874857
486.40 0.8898095
486.50 0.8910044
486.60 0.8916097
486.70 0.8921374
486.80 0.8930412
486.90 0.894654
487.00 0.8970925
487.10 0.9003862
487.20 0.9045697
487.30 0.9095969
487.40 0.9152134
487.50 0.9210719
487.60 0.9269904
487.70 0.9328982
487.80 0.9386727
487.90 0.9439342
488.00 0.9480363
488.10 0.9505464
488.20 0.9514234
488.30 0.9509816
488.40 0.9498755
488.50 0.9487769
488.60 0.948244
488.70 0.9487565
488.80 0.950641
488.90 0.9539534
489.00 0.9583833
489.10 0.9633509
489.20 0.9682209
489.30 0.9726603
489.40 0.9769121
489.50 0.9814039
489.60 0.9863997
489.70 0.9920898
489.80 0.9984776
489.90 1.005401
490.00 1.012575
490.10 1.019737
490.20 1.026777
490.30 1.033566
490.40 1.039862
490.50 1.045375
490.60 1.049754
490.70 1.05251
490.80 1.052917
490.90 1.050196
491.00 1.04387
491.10 1.033771
491.20 1.020192
491.30 1.00395
491.40 0.9862162
491.50 0.9682842
491.60 0.9513903
491.70 0.9366437
491.80 0.9249326
491.90 0.9167052
492.00 0.9118262
492.10 0.909683
492.20 0.9093266
492.30 0.9096508
492.40 0.9095346
492.50 0.9081584
492.60 0.9052048
492.70 0.9008827
492.80 0.8958149
492.90 0.8907012
493.00 0.8860972
493.10 0.8824338
493.20 0.8799418
493.30 0.8785488
493.40 0.8780166
493.50 0.8780304
493.60 0.8782686
493.70 0.8785421
493.80 0.8789402
493.90 0.8797711
494.00 0.8813908
494.10 0.8841048
494.20 0.8880667
494.30 0.8932519
494.40 0.8994691
494.50 0.9062265
494.60 0.9128013
494.70 0.9185389
494.80 0.92291
494.90 0.9254081
495.00 0.925756
495.10 0.9240765
495.20 0.9207865
495.30 0.9163748
495.40 0.9113013
495.50 0.9060147
495.60 0.9008884
495.70 0.8962593
495.80 0.8925241
495.90 0.8900892
496.00 0.889192
496.10 0.8898646
496.20 0.892175
496.30 0.8962795
496.40 0.9021341
496.50 0.9094624
496.60 0.9178381
496.70 0.9267627
496.80 0.9356934
496.90 0.9441623
497.00 0.9519294
497.10 0.9587957
497.20 0.9643856
497.30 0.9683456
497.40 0.9706696
497.50 0.9716518
497.60 0.9716482
497.70 0.9711399
497.80 0.9707882
497.90 0.9711733
498.00 0.9726039
498.10 0.9750205
498.20 0.9780426
498.30 0.9810094
498.40 0.9831758
498.50 0.9841436
498.60 0.9839852
498.70 0.9830885
498.80 0.9818916
498.90 0.980787
499.00 0.98016
499.10 0.980271
499.20 0.9812751
499.30 0.983248
499.40 0.986007
499.50 0.9892492
499.60 0.9926594
499.70 0.9958022
499.80 0.9982195
499.90 0.9996045
500.00 1
500.10 0.9996617
500.20 0.9989916
500.30 0.998543
500.40 0.998859
500.50 1.000426
500.60 1.003483
500.70 1.007933
500.80 1.013544
500.90 1.020079
501.00 1.027426
501.10 1.035798
501.20 1.045556
501.30 1.056809
501.40 1.069254
501.50 1.082378
501.60 1.095584
501.70 1.108174
501.80 1.119399
501.90 1.128567
502.00 1.135312
502.10 1.139798
502.20 1.142664
502.30 1.144765
502.40 1.146964
502.50 1.149906
502.60 1.153884
502.70 1.158861
502.80 1.164414
502.90 1.16993
503.00 1.174795
503.10 1.178433
503.20 1.18049
503.30 1.181029
503.40 1.180422
503.50 1.179204
503.60 1.178041
503.70 1.177608
503.80 1.17832
503.90 1.180137
504.00 1.182565
504.10 1.184747
504.20 1.185824
504.30 1.18519
504.40 1.182602
504.50 1.178426
504.60 1.173573
504.70 1.169165
504.80 1.166215
504.90 1.165396
505.00 1.166753
505.10 1.169667
505.20 1.173044
505.30 1.175706
505.40 1.176772
505.50 1.175843
505.60 1.173011
505.70 1.168757
505.80 1.163773
505.90 1.158732
506.00 1.15422
506.10 1.150621
506.20 1.148033
506.30 1.146283
506.40 1.145076
506.50 1.144109
506.60 1.143165
506.70 1.142083
506.80 1.140742
506.90 1.139244
507.00 1.13795
507.10 1.137313
507.20 1.137719
507.30 1.139353
507.40 1.142031
507.50 1.145273
507.60 1.148522
507.70 1.151287
507.80 1.153199
507.90 1.154181
508.00 1.154497
508.10 1.154563
508.20 1.154934
508.30 1.156171
508.40 1.158442
508.50 1.16139
508.60 1.164453
508.70 1.167244
508.80 1.169644
508.90 1.17182
509.00 1.174172
509.10 1.177171
509.20 1.181069
509.30 1.185673
509.40 1.190459
509.50 1.194893
509.60 1.198581
509.70 1.201329
509.80 1.203316
509.90 1.205029
510.00 1.206946
510.10 1.209302
510.20 1.212039
510.30 1.214843
510.40 1.217177
510.50 1.218495
510.60 1.21871
510.70 1.218201
510.80 1.217521
510.90 1.217352
511.00 1.218203
511.10 1.220107
511.20 1.222579
511.30 1.224967
511.40 1.226734
511.50 1.227472
511.60 1.227036
511.70 1.225612
511.80 1.223631
511.90 1.221636
512.00 1.219892
512.10 1.218277
512.20 1.216491
512.30 1.214184
512.40 1.21109
512.50 1.20707
512.60 1.202182
512.70 1.19668
512.80 1.190968
512.90 1.185493
513.00 1.180645
513.10 1.176748
513.20 1.173989
513.30 1.17232
513.40 1.171614
513.50 1.171877
513.60 1.173113
513.70 1.175072
513.80 1.177272
513.90 1.179315
514.00 1.181017
514.10 1.182414
514.20 1.183758
514.30 1.185446
514.40 1.187846
514.50 1.191072
514.60 1.194923
514.70 1.198942
514.80 1.202567
514.90 1.20535
515.00 1.207122
515.10 1.208017
515.20 1.208383
515.30 1.208642
515.40 1.209203
515.50 1.210249
515.60 1.211548
515.70 1.212672
515.80 1.213246
515.90 1.213012
516.00 1.21198
516.10 1.210495
516.20 1.20901
516.30 1.208049
516.40 1.208133
516.50 1.209544
516.60 1.21226
516.70 1.21601
516.80 1.2204
516.90 1.224974
517.00 1.229291
517.10 1.232983
517.20 1.235811
517.30 1.237877
517.40 1.239581
517.50 1.241423
517.60 1.243868
517.70 1.247058
517.80 1.250755
517.90 1.254632
518.00 1.25848
518.10 1.262282
518.20 1.265986
518.30 1.269557
518.40 1.273216
518.50 1.277428
518.60 1.282642
518.70 1.28896
518.80 1.296111
518.90 1.303446
519.00 1.310084
519.10 1.315244
519.20 1.318504
519.30 1.31992
519.40 1.319919
519.50 1.319113
519.60 1.318244
519.70 1.318013
519.80 1.318815
519.90 1.320757
520.00 1.323725
520.10 1.327419
520.20 1.331422
520.30 1.335495
520.40 1.339757
520.50 1.344442
520.60 1.349515
520.70 1.354608
520.80 1.359226
520.90 1.362861
521.00 1.365196
521.10 1.36633
521.20 1.36683
521.30 1.367308
521.40 1.368199
521.50 1.369934
521.60 1.372821
521.70 1.376889
521.80 1.381896
521.90 1.387404
522.00 1.393128
522.10 1.399108
522.20 1.405507
522.30 1.412477
522.40 1.420089
522.50 1.428216
522.60 1.436505
522.70 1.444595
522.80 1.452381
522.90 1.460052
523.00 1.467979
523.10 1.476544
523.20 1.485951
523.30 1.496165
523.40 1.506937
523.50 1.51773
523.60 1.527807
523.70 1.536472
523.80 1.543267
523.90 1.548019
524.00 1.550906
524.10 1.55246
524.20 1.553397
524.30 1.554461
524.40 1.556301
524.50 1.559286
524.60 1.563476
524.70 1.568768
524.80 1.574864
524.90 1.58123
525.00 1.587324
525.10 1.592821
525.20 1.597773
525.30 1.602625
525.40 1.60798
525.50 1.614448
525.60 1.622564
525.70 1.632426
525.80 1.643542
525.90 1.655095
526.00 1.666046
526.10 1.67527
526.20 1.681779
526.30 1.684899
526.40 1.684391
526.50 1.680513
526.60 1.673879
526.70 1.665434
526.80 1.656299
526.90 1.6474
527.00 1.639246
527.10 1.632104
527.20 1.626179
527.30 1.621494
527.40 1.617909
527.50 1.615221
527.60 1.613211
527.70 1.611742
527.80 1.610674
527.90 1.609654
528.00 1.608047
528.10 1.605055
528.20 1.60011
528.30 1.593184
528.40 1.584766
528.50 1.575624
528.60 1.566591
528.70 1.558445
528.80 1.551728
528.90 1.546695
529.00 1.543371
529.10 1.541494
529.20 1.540573
529.30 1.540163
529.40 1.540104
529.50 1.540408
529.60 1.541058
529.70 1.541993
529.80 1.543094
529.90 1.544101
530.00 1.544674
530.10 1.544666
530.20 1.544236
530.30 1.54356
530.40 1.542673
530.50 1.541711
530.60 1.540984
530.70 1.54085
530.80 1.541633
530.90 1.543514
531.00 1.546341
531.10 1.54954
531.20 1.552279
531.30 1.553965
531.40 1.554522
531.50 1.554144
531.60 1.553183
531.70 1.552122
531.80 1.55136
531.90 1.551088
532.00 1.551206
532.10 1.551253
532.20 1.550505
532.30 1.548341
532.40 1.544653
532.50 1.539997
532.60 1.535461
532.70 1.532182
532.80 1.530835
532.90 1.531497
533.00 1.533774
533.10 1.537073
533.20 1.540894
533.30 1.544924
533.40 1.549045
533.50 1.55337
533.60 1.55816
533.70 1.563634
533.80 1.569826
533.90 1.576638
534.00 1.583902
534.10 1.59133
534.20 1.598614
534.30 1.605471
534.40 1.611766
534.50 1.61767
534.60 1.623607
534.70 1.630019
534.80 1.637315
534.90 1.645939
535.00 1.656224
535.10 1.668165
535.20 1.681311
535.30 1.694808
535.40 1.707593
535.50 1.718733
535.60 1.727723
535.70 1.7347
535.80 1.74031
535.90 1.74534
536.00 1.750476
536.10 1.75629
536.20 1.763251
536.30 1.771508
536.40 1.780855
536.50 1.791007
536.60 1.801791
536.70 1.813009
536.80 1.824429
536.90 1.835909
537.00 1.847263
537.10 1.858172
537.20 1.868317
537.30 1.877476
537.40 1.885578
537.50 1.892659
537.60 1.898711
537.70 1.903813
537.80 1.908389
537.90 1.913141
538.00 1.918849
538.10 1.926291
538.20 1.935972
538.30 1.947827
538.40 1.96127
538.50 1.975325
538.60 1.988771
538.70 2.000482
538.80 2.009714
538.90 2.016206
539.00 2.020224
539.10 2.022559
539.20 2.024248
539.30 2.026238
539.40 2.029198
539.50 2.033423
539.60 2.038907
539.70 2.045367
539.80 2.052279
539.90 2.059065
540.00 2.065243
540.10 2.070454
540.20 2.074513
540.30 2.077531
540.40 2.079907
540.50 2.081932
540.60 2.08363
540.70 2.08492
540.80 2.08574
540.90 2.086067
541.00 2.086023
541.10 2.085971
541.20 2.086418
541.30 2.087753
541.40 2.090047
541.50 2.093089
541.60 2.096432
541.70 2.099469
541.80 2.101649
541.90 2.102828
542.00 2.103414
542.10 2.104177
542.20 2.105999
542.30 2.109405
542.40 2.114203
542.50 2.119693
542.60 2.124989
542.70 2.129211
542.80 2.131712
542.90 2.132141
543.00 2.130365
543.10 2.126455
543.20 2.120641
543.30 2.1131
543.40 2.103874
543.50 2.092979
543.60 2.080544
543.70 2.067083
543.80 2.053539
543.90 2.040753
544.00 2.029196
544.10 2.019134
544.20 2.010578
544.30 2.003139
544.40 1.996137
544.50 1.988706
544.60 1.97992
544.70 1.969154
544.80 1.956293
544.90 1.941617
545.00 1.925667
545.10 1.909159
545.20 1.89282
545.30 1.877229
545.40 1.862603
545.50 1.848688
545.60 1.835001
545.70 1.821137
545.80 1.806844
545.90 1.792092
546.00 1.777208
546.10 1.76269
546.20 1.748954
546.30 1.736248
546.40 1.724576
546.50 1.713638
546.60 1.702803
546.70 1.691388
546.80 1.678981
546.90 1.665536
547.00 1.651297
547.10 1.636485
547.20 1.621229
547.30 1.605784
547.40 1.590387
547.50 1.575297
547.60 1.560846
547.70 1.547291
547.80 1.534648
547.90 1.522688
548.00 1.511079
548.10 1.49946
548.20 1.48765
548.30 1.475706
548.40 1.46375
548.50 1.451971
548.60 1.440588
548.70 1.429641
548.80 1.419121
548.90 1.409049
549.00 1.399329
549.10 1.38972
549.20 1.380047
549.30 1.370257
549.40 1.360358
549.50 1.350408
549.60 1.340388
549.70 1.330225
549.80 1.3199
549.90 1.309544
550.00 1.174072
550.10 1.158293
550.20 1.141791
550.30 1.124516
550.40 1.106907
550.50 1.089762
550.60 1.073975
550.70 1.059787
550.80 1.046821
550.90 1.034748
551.00 1.023445
551.10 1.012655
551.20 1.002262
551.30 0.992762
551.40 0.9849379
551.50 0.9796162
551.60 0.9773053
551.70 0.9775989
551.80 0.9795981
551.90 0.9822529
552.00 0.9843828
552.10 0.9849984
552.20 0.9836468
552.30 0.980598
552.40 0.9771375
552.50 0.9753298
552.60 0.9766888
552.70 0.981216
552.80 0.9876432
552.90 0.9943288
553.00 0.9998544
553.10 1.003389
553.20 1.004669
553.30 1.003625
553.40 1.000452
553.50 0.9957616
553.60 0.9906494
553.70 0.9865331
553.80 0.9843579
553.90 0.9844872
554.00 0.9870278
554.10 0.9921457
554.20 1.000033
554.30 1.010515
554.40 1.023187
554.50 1.037223
554.60 1.051661
554.70 1.06607
554.80 1.080508
554.90 1.095209
555.00 1.110191
555.10 1.125199
555.20 1.143096
555.30 1.171296
555.40 1.218555
555.50 1.291389
555.60 1.391779
555.70 1.516633
555.80 1.65754
555.90 1.802563
556.00 1.939009
556.10 2.05583
556.20 2.146071
556.30 2.208593
556.40 2.24817
556.50 2.274157
556.60 2.29565
556.70 2.317846
556.80 2.342835
556.90 2.371001
557.00 2.401889
557.10 2.434465
557.20 2.467675
557.30 2.500608
557.40 2.532409
557.50 2.56253
557.60 2.590621
557.70 2.616159
557.80 2.638469
557.90 2.657096
558.00 2.672418
558.10 2.685851
558.20 2.699281
558.30 2.714258
558.40 2.731482
558.50 2.75074
558.60 2.771079
558.70 2.791139
558.80 2.809618
558.90 2.825565
559.00 2.838683
559.10 2.849343
559.20 2.855308
559.30 2.850251
559.40 2.826475
559.50 2.777967
559.60 2.702703
559.70 2.603695
559.80 2.489164
559.90 2.370723
560.00 2.260909
560.10 2.170602
560.20 2.106162
560.30 2.067756
560.40 2.049858
560.50 2.043155
560.60 2.039543
560.70 2.035265
560.80 2.029374
560.90 2.022188
561.00 2.014593
561.10 2.007516
561.20 2.001258
561.30 1.996078
561.40 1.99251
561.50 1.990839
561.60 1.991257
561.70 1.994332
561.80 2.000754
561.90 2.010468
562.00 2.022269
562.10 2.034293
562.20 2.044998
562.30 2.053603
562.40 2.059876
562.50 2.064084
562.60 2.066971
562.70 2.069089
562.80 2.070401
562.90 2.070707
563.00 2.069857
563.10 2.067757
563.20 2.064133
563.30 2.058543
563.40 2.051211
563.50 2.04329
563.60 2.036336
563.70 2.031574
563.80 2.029276
563.90 2.028941
564.00 2.029685
564.10 2.030708
564.20 2.031777
564.30 2.033226
564.40 2.035691
564.50 2.039552
564.60 2.044636
564.70 2.050782
564.80 2.058001
564.90 2.066053
565.00 2.074248
565.10 2.081715
565.20 2.088569
565.30 2.096014
565.40 2.105484
565.50 2.118146
565.60 2.134252
565.70 2.152661
565.80 2.171268
565.90 2.187969
566.00 2.20136
566.10 2.210722
566.20 2.215452
566.30 2.215043
566.40 2.209637
566.50 2.200217
566.60 2.188138
566.70 2.175056
566.80 2.162808
566.90 2.152934
567.00 2.146568
567.10 2.144253
567.20 2.145809
567.30 2.150395
567.40 2.156516
567.50 2.162352
567.60 2.166513
567.70 2.168722
567.80 2.169983
567.90 2.172006
568.00 2.176251
568.10 2.183126
568.20 2.192014
568.30 2.201641
568.40 2.210165
568.50 2.216101
568.60 2.218954
568.70 2.218683
568.80 2.215751
568.90 2.211167
569.00 2.20621
569.10 2.202112
569.20 2.198887
569.30 2.195286
569.40 2.190061
569.50 2.182534
569.60 2.172911
569.70 2.162687
569.80 2.154452
569.90 2.150489
570.00 2.151779
570.10 2.158248
570.20 2.168869
570.30 2.181818
570.40 2.195084
570.50 2.206949
570.60 2.216561
570.70 2.22388
570.80 2.229161
570.90 2.232675
571.00 2.234547
571.10 2.234666
571.20 2.232743
571.30 2.228687
571.40 2.222537
571.50 2.214099
571.60 2.203199
571.70 2.189984
571.80 2.174921
571.90 2.158282
572.00 2.140279
572.10 2.121887
572.20 2.104608
572.30 2.090059
572.40 2.079632
572.50 2.073838
572.60 2.07242
572.70 2.074777
572.80 2.079846
572.90 2.086226
573.00 2.092253
573.10 2.096135
573.20 2.096735
573.30 2.094334
573.40 2.089897
573.50 2.084316
573.60 2.078246
573.70 2.07161
573.80 2.063656
573.90 2.053747
574.00 2.041954
574.10 2.029092
574.20 2.016886
574.30 2.007732
574.40 2.003901
574.50 2.006935
574.60 2.017087
574.70 2.032827
574.80 2.051573
574.90 2.070577
575.00 2.087435
575.10 2.100938
575.20 2.111322
575.30 2.119606
575.40 2.127056
575.50 2.134973
575.60 2.144332
575.70 2.15551
575.80 2.168257
575.90 2.182154
576.00 2.196564
576.10 2.210499
576.20 2.223007
576.30 2.233139
576.40 2.240163
576.50 2.24353
576.60 2.242788
576.70 2.237969
576.80 2.229835
576.90 2.219872
577.00 2.209948
577.10 2.20202
577.20 2.197583
577.30 2.196824
577.40 2.198943
577.50 2.202746
577.60 2.206638
577.70 2.208871
577.80 2.208079
577.90 2.204017
578.00 2.197414
578.10 2.189266
578.20 2.180622
578.30 2.172373
578.40 2.165113
578.50 2.158693
578.60 2.152305
578.70 2.145601
578.80 2.138551
578.90 2.131028
579.00 2.123315
579.10 2.116134
579.20 2.109939
579.30 2.104637
579.40 2.100083
579.50 2.095921
579.60 2.090828
579.70 2.082866
579.80 2.070334
579.90 2.052342
580.00 2.029167
580.10 2.002003
580.20 1.972971
580.30 1.944989
580.40 1.920713
580.50 1.902157
580.60 1.890858
580.70 1.887281
580.80 1.890266
580.90 1.897663
581.00 1.907287
581.10 1.917162
581.20 1.925729
581.30 1.932309
581.40 1.93714
581.50 1.940791
581.60 1.943988
581.70 1.947821
581.80 1.953476
581.90 1.961449
582.00 1.971053
582.10 1.980973
582.20 1.98995
582.30 1.997034
582.40 2.001778
582.50 2.004366
582.60 2.005186
582.70 2.00435
582.80 2.002067
582.90 1.998874
583.00 1.994945
583.10 1.989758
583.20 1.982759
583.30 1.973729
583.40 1.962828
583.50 1.951183
583.60 1.940882
583.70 1.934061
583.80 1.932
583.90 1.934916
584.00 1.942422
584.10 1.953553
584.20 1.966146
584.30 1.977284
584.40 1.984551
584.50 1.986195
584.60 1.980648
584.70 1.967083
584.80 1.946069
584.90 1.918808
585.00 1.886848
585.10 1.852422
585.20 1.818095
585.30 1.785807
585.40 1.756319
585.50 1.729602
585.60 1.705214
585.70 1.682292
585.80 1.659505
585.90 1.635515
586.00 1.609636
586.10 1.581645
586.20 1.551303
586.30 1.518737
586.40 1.4841
586.50 1.447741
586.60 1.411253
586.70 1.377046
586.80 1.34721
586.90 1.322913
587.00 1.304493
587.10 1.291316
587.20 1.282089
587.30 1.27524
587.40 1.268781
587.50 1.260729
587.60 1.249841
587.70 1.235438
587.80 1.217477
587.90 1.196394
588.00 1.172566
588.10 1.146626
588.20 1.119799
588.30 1.09383
588.40 1.070612
588.50 1.051961
588.60 1.038794
588.70 1.030874
588.80 1.027609
588.90 1.028261
589.00 1.031572
589.10 1.035503
589.20 1.037796
589.30 1.036877
589.40 1.031905
589.50 1.023022
589.60 1.011727
589.70 1.000281
589.80 0.9907681
589.90 0.9845944
590.00 0.9825968
590.10 0.9849575
590.20 0.9907623
590.30 0.9977843
590.40 1.003481
590.50 1.006166
590.60 1.004572
590.70 0.9979141
590.80 0.9867444
590.90 0.972825
591.00 0.9584546
591.10 0.9460253
591.20 0.9373436
591.30 0.9334011
591.40 0.9341857
591.50 0.9384375
591.60 0.9443968
591.70 0.9509494
591.80 0.9578775
591.90 0.9656608
592.00 0.9754177
592.10 0.9883123
592.20 1.004978
592.30 1.025114
592.40 1.04745
592.50 1.070193
592.60 1.092227
592.70 1.113258
592.80 1.133202
592.90 1.15222
593.00 1.170575
593.10 1.188825
593.20 1.207461
593.30 1.226427
593.40 1.245722
593.50 1.265078
593.60 1.283586
593.70 1.300436
593.80 1.315349
593.90 1.328726
594.00 1.341369
594.10 1.354259
594.20 1.368532
594.30 1.385451
594.40 1.405995
594.50 1.429826
594.60 1.455602
594.70 1.481757
594.80 1.506627
594.90 1.529094
595.00 1.548848
595.10 1.566009
595.20 1.581132
595.30 1.595224
595.40 1.609549
595.50 1.625416
595.60 1.643735
595.70 1.664719
595.80 1.687941
595.90 1.712453
596.00 1.736622
596.10 1.75832
596.20 1.775751
596.30 1.788104
596.40 1.795467
596.50 1.798709
596.60 1.799151
596.70 1.79825
596.80 1.797436
596.90 1.797742
597.00 1.799871
597.10 1.804305
597.20 1.81122
597.30 1.820454
597.40 1.831649
597.50 1.844808
597.60 1.859949
597.70 1.876578
597.80 1.894155
597.90 1.912245
598.00 1.930549
598.10 1.94882
598.20 1.966796
598.30 1.984493
598.40 2.002131
598.50 2.019907
598.60 2.038094
598.70 2.056985
598.80 2.076344
598.90 2.09515
599.00 2.111852
599.10 2.124952
599.20 2.133304
599.30 2.13628
599.40 2.134057
599.50 2.127706
599.60 2.119087
599.70 2.110261
599.80 2.102969
599.90 2.098549
600.00 2.43078
600.10 2.48522
600.20 2.521856
600.30 2.541433
600.40 2.543651
600.50 2.514592
600.60 2.457946
600.70 2.392101
600.80 2.323715
600.90 2.253469
601.00 2.179508
601.10 2.093347
601.20 1.995955
601.30 1.899565
601.40 1.813469
601.50 1.747159
601.60 1.718008
601.70 1.735443
601.80 1.797883
601.90 1.895269
602.00 2.003369
602.10 2.098374
602.20 2.17184
602.30 2.209632
602.40 2.208729
602.50 2.182315
602.60 2.137212
602.70 2.087995
602.80 2.061122
602.90 2.078847
603.00 2.143352
603.10 2.242081
603.20 2.356663
603.30 2.462631
603.40 2.53465
603.50 2.573269
603.60 2.594901
603.70 2.615726
603.80 2.647212
603.90 2.687075
604.00 2.730011
604.10 2.769123
604.20 2.791959
604.30 2.787589
604.40 2.749208
604.50 2.668086
604.60 2.544087
604.70 2.399665
604.80 2.272979
604.90 2.18676
605.00 2.14461
605.10 2.144473
605.20 2.177444
605.30 2.244105
605.40 2.338911
605.50 2.427992
605.60 2.464109
605.70 2.426246
605.80 2.334821
605.90 2.229079
606.00 2.15281
606.10 2.137307
606.20 2.184018
606.30 2.266724
606.40 2.364918
606.50 2.477505
606.60 2.601613
606.70 2.720377
606.80 2.817424
606.90 2.893277
607.00 2.961531
607.10 3.02241
607.20 3.056575
607.30 3.046811
607.40 2.993811
607.50 2.915571
607.60 2.837836
607.70 2.791491
607.80 2.787976
607.90 2.814878
608.00 2.856806
608.10 2.897007
608.20 2.924419
608.30 2.93714
608.40 2.936256
608.50 2.918552
608.60 2.88155
608.70 2.834242
608.80 2.771788
608.90 2.680158
609.00 2.567124
609.10 2.455125
609.20 2.364743
609.30 2.30581
609.40 2.280612
609.50 2.288286
609.60 2.319434
609.70 2.363421
609.80 2.408565
609.90 2.445322
610.00 2.468361
610.10 2.461075
610.20 2.419698
610.30 2.362336
610.40 2.30198
610.50 2.242555
610.60 2.194788
610.70 2.182814
610.80 2.221586
610.90 2.305015
611.00 2.412773
611.10 2.517325
611.20 2.598732
611.30 2.651927
611.40 2.682815
611.50 2.709639
611.60 2.744363
611.70 2.780826
611.80 2.811375
611.90 2.840674
612.00 2.868873
612.10 2.879354
612.20 2.859481
612.30 2.814623
612.40 2.754601
612.50 2.678935
612.60 2.589954
612.70 2.493194
612.80 2.393808
612.90 2.302758
613.00 2.244614
613.10 2.242536
613.20 2.298368
613.30 2.390967
613.40 2.492865
613.50 2.585193
613.60 2.655766
613.70 2.696229
613.80 2.705585
613.90 2.692534
614.00 2.664633
614.10 2.628945
614.20 2.59178
614.30 2.549196
614.40 2.497474
614.50 2.442046
614.60 2.389645
614.70 2.347574
614.80 2.330216
614.90 2.344266
615.00 2.379462
615.10 2.425285
615.20 2.470626
615.30 2.499118
615.40 2.498852
615.50 2.463265
615.60 2.391194
615.70 2.29792
615.80 2.203771
615.90 2.12429
616.00 2.078214
616.10 2.078278
616.20 2.120658
616.30 2.196338
616.40 2.29885
616.50 2.407542
616.60 2.495051
616.70 2.547036
616.80 2.549399
616.90 2.493902
617.00 2.393827
617.10 2.279925
617.20 2.179344
617.30 2.107833
617.40 2.076287
617.50 2.086636
617.60 2.12925
617.70 2.181873
617.80 2.218607
617.90 2.225586
618.00 2.203665
618.10 2.154922
618.20 2.087839
618.30 2.030711
618.40 2.00554
618.50 2.006226
618.60 2.014133
618.70 2.022223
618.80 2.031183
618.90 2.037619
619.00 2.040994
619.10 2.039756
619.20 2.029571
619.30 2.007763
619.40 1.977741
619.50 1.949857
619.60 1.934961
619.70 1.932782
619.80 1.937242
619.90 1.949433
620.00 1.972484
620.10 1.998683
620.20 2.016617
620.30 2.022265
620.40 2.01005
620.50 1.979123
620.60 1.937133
620.70 1.900744
620.80 1.881165
620.90 1.881575
621.00 1.909225
621.10 1.962809
621.20 2.031435
621.30 2.100993
621.40 2.158283
621.50 2.191188
621.60 2.191145
621.70 2.150678
621.80 2.077549
621.90 2.003617
622.00 1.955595
622.10 1.933488
622.20 1.936739
622.30 1.972251
622.40 2.031881
622.50 2.096404
622.60 2.143695
622.70 2.160436
622.80 2.15331
622.90 2.141437
623.00 2.133842
623.10 2.135833
623.20 2.14845
623.30 2.16432
623.40 2.182733
623.50 2.210276
623.60 2.244668
623.70 2.271976
623.80 2.283736
623.90 2.278029
624.00 2.262809
624.10 2.245794
624.20 2.224809
624.30 2.196305
624.40 2.163432
624.50 2.137478
624.60 2.128518
624.70 2.136563
624.80 2.155387
624.90 2.180488
625.00 2.207197
625.10 2.232457
625.20 2.248109
625.30 2.241519
625.40 2.207227
625.50 2.15241
625.60 2.089106
625.70 2.032272
625.80 2.002072
625.90 2.012525
626.00 2.067557
626.10 2.15895
626.20 2.262704
626.30 2.351558
626.40 2.40994
626.50 2.4291
626.60 2.408114
626.70 2.360363
626.80 2.304661
626.90 2.255571
627.00 2.223791
627.10 2.213781
627.20 2.222464
627.30 2.247753
627.40 2.285812
627.50 2.326923
627.60 2.376614
627.70 2.450992
627.80 2.553608
627.90 2.673466
628.00 2.795154
628.10 2.907524
628.20 3.000421
628.30 3.056368
628.40 3.065318
628.50 3.033415
628.60 2.974043
628.70 2.901085
628.80 2.831081
628.90 2.786048
629.00 2.77326
629.10 2.784046
629.20 2.804952
629.30 2.822988
629.40 2.838434
629.50 2.872964
629.60 2.931417
629.70 3.000528
629.80 3.074061
629.90 3.1447
630.00 3.206487
630.10 3.251936
630.20 3.267378
630.30 3.247609
630.40 3.202961
630.50 3.14336
630.60 3.078104
630.70 3.021216
630.80 2.985453
630.90 2.965146
631.00 2.962763
631.10 2.996153
631.20 3.064859
631.30 3.157346
631.40 3.256822
631.50 3.354411
631.60 3.453044
631.70 3.542428
631.80 3.600213
631.90 3.615368
632.00 3.595761
632.10 3.559115
632.20 3.520769
632.30 3.487481
632.40 3.468352
632.50 3.479185
632.60 3.530108
632.70 3.617714
632.80 3.733016
632.90 3.861332
633.00 3.985787
633.10 4.099117
633.20 4.199285
633.30 4.2845
633.40 4.349992
633.50 4.390173
633.60 4.399255
633.70 4.380006
633.80 4.338817
633.90 4.276347
634.00 4.204043
634.10 4.137852
634.20 4.084361
634.30 4.045644
634.40 4.02259
634.50 4.016216
634.60 4.028397
634.70 4.0615
634.80 4.106241
634.90 4.142886
635.00 4.163163
635.10 4.162782
635.20 4.140069
635.30 4.10908
635.40 4.085344
635.50 4.080531
635.60 4.101011
635.70 4.147455
635.80 4.21378
635.90 4.283571
636.00 4.337
636.10 4.357374
636.20 4.348363
636.30 4.328736
636.40 4.307988
636.50 4.294292
636.60 4.292501
636.70 4.295748
636.80 4.297838
636.90 4.299778
637.00 4.310758
637.10 4.334563
637.20 4.368279
637.30 4.41438
637.40 4.47473
637.50 4.540028
637.60 4.591087
637.70 4.606597
637.80 4.576346
637.90 4.502427
638.00 4.399656
638.10 4.293943
638.20 4.202295
638.30 4.130088
638.40 4.075545
638.50 4.036445
638.60 4.012897
638.70 4.00175
638.80 3.998413
638.90 4.000057
639.00 4.001083
639.10 4.007339
639.20 4.032961
639.30 4.083033
639.40 4.151446
639.50 4.225159
639.60 4.29959
639.70 4.375421
639.80 4.455273
639.90 4.539003
640.00 4.619514
640.10 4.688924
640.20 4.740603
640.30 4.766652
640.40 4.764834
640.50 4.735347
640.60 4.677336
640.70 4.590288
640.80 4.478781
640.90 4.358534
641.00 4.248803
641.10 4.169965
641.20 4.134088
641.30 4.144442
641.40 4.201371
641.50 4.295031
641.60 4.408261
641.70 4.529318
641.80 4.648155
641.90 4.74823
642.00 4.811406
642.10 4.830508
642.20 4.81401
642.30 4.769969
642.40 4.697489
642.50 4.600016
642.60 4.491043
642.70 4.386153
642.80 4.30136
642.90 4.250284
643.00 4.23198
643.10 4.231777
643.20 4.236625
643.30 4.241114
643.40 4.24924
643.50 4.269515
643.60 4.298485
643.70 4.32749
643.80 4.351864
643.90 4.364738
644.00 4.365509
644.10 4.360671
644.20 4.3532
644.30 4.347853
644.40 4.355237
644.50 4.384573
644.60 4.442119
644.70 4.527758
644.80 4.626495
644.90 4.715794
645.00 4.78071
645.10 4.812735
645.20 4.817322
645.30 4.812379
645.40 4.808685
645.50 4.802683
645.60 4.784937
645.70 4.752145
645.80 4.712726
645.90 4.681211
646.00 4.663981
646.10 4.660949
646.20 4.669778
646.30 4.68657
646.40 4.711932
646.50 4.748782
646.60 4.786744
646.70 4.800863
646.80 4.774033
646.90 4.712712
647.00 4.635151
647.10 4.555553
647.20 4.485671
647.30 4.436831
647.40 4.418466
647.50 4.435465
647.60 4.48598
647.70 4.560237
647.80 4.639266
647.90 4.707966
648.00 4.761285
648.10 4.800624
648.20 4.827833
648.30 4.843591
648.40 4.855793
648.50 4.875903
648.60 4.90798
648.70 4.949273
648.80 4.995258
648.90 5.040125
649.00 5.080836
649.10 5.120281
649.20 5.162819
649.30 5.205686
649.40 5.245776
649.50 5.290723
649.60 5.349826
649.70 5.423814
649.80 5.504662
649.90 5.580192
650.00 5.640255
650.10 5.671692
650.20 5.666522
650.30 5.63334
650.40 5.590582
650.50 5.559834
650.60 5.562218
650.70 5.607173
650.80 5.688687
650.90 5.789416
651.00 5.892073
651.10 5.98844
651.20 6.070046
651.30 6.13109
651.40 6.169649
651.50 6.190428
651.60 6.206763
651.70 6.230772
651.80 6.267311
651.90 6.31525
652.00 6.372193
652.10 6.441313
652.20 6.523585
652.30 6.615773
652.40 6.718021
652.50 6.828467
652.60 6.951035
652.70 7.091722
652.80 7.247698
652.90 7.414519
653.00 7.585812
653.10 7.746048
653.20 7.880817
653.30 7.995588
653.40 8.101519
653.50 8.200788
653.60 8.298651
653.70 8.401644
653.80 8.507863
653.90 8.606489
654.00 8.684927
654.10 8.733494
654.20 8.751397
654.30 8.743072
654.40 8.709871
654.50 8.655259
654.60 8.590028
654.70 8.51877
654.80 8.44627
654.90 8.376029
655.00 8.302688
655.10 8.234471
655.20 8.183377
655.30 8.158551
655.40 8.171472
655.50 8.219191
655.60 8.291594
655.70 8.392698
655.80 8.540612
655.90 8.75842
656.00 9.055725
656.10 9.400938
656.20 9.720366
656.30 9.956527
656.40 10.07918
656.50 10.06035
656.60 9.901014
656.70 9.628768
656.80 9.275588
656.90 8.891347
657.00 8.536246
657.10 8.247201
657.20 8.020785
657.30 7.834696
657.40 7.670935
657.50 7.523378
657.60 7.402553
657.70 7.312833
657.80 7.257931
657.90 7.238405
658.00 7.230295
658.10 7.210705
658.20 7.170055
658.30 7.107403
658.40 7.024866
658.50 6.932655
658.60 6.85996
658.70 6.835394
658.80 6.860182
658.90 6.918652
659.00 7.003846
659.10 7.11226
659.20 7.233839
659.30 7.360348
659.40 7.494578
659.50 7.640943
659.60 7.79405
659.70 7.935827
659.80 8.04779
659.90 8.115034
660.00 8.124206
660.10 8.070532
660.20 7.962713
660.30 7.825624
660.40 7.688525
660.50 7.571604
660.60 7.493071
660.70 7.47235
660.80 7.514132
660.90 7.602202
661.00 7.715559
661.10 7.842386
661.20 7.975837
661.30 8.101801
661.40 8.203709
661.50 8.268232
661.60 8.298581
661.70 8.31287
661.80 8.322847
661.90 8.334786
662.00 8.341324
662.10 8.322319
662.20 8.26544
662.30 8.171017
662.40 8.044873
662.50 7.895347
662.60 7.736173
662.70 7.595258
662.80 7.505226
662.90 7.488178
663.00 7.549139
663.10 7.674469
663.20 7.838222
663.30 8.010922
663.40 8.171069
663.50 8.304729
663.60 8.396019
663.70 8.432204
663.80 8.415784
663.90 8.365872
664.00 8.308586
664.10 8.269088
664.20 8.26937
664.30 8.320779
664.40 8.418831
664.50 8.540941
664.60 8.653399
664.70 8.724742
664.80 8.72822
664.90 8.649802
665.00 8.500035
665.10 8.31092
665.20 8.12426
665.30 7.974275
665.40 7.882694
665.50 7.859097
665.60 7.896572
665.70 7.975928
665.80 8.068
665.90 8.147872
666.00 8.206432
666.10 8.247194
666.20 8.281054
666.30 8.318096
666.40 8.366869
666.50 8.433625
666.60 8.514152
666.70 8.599538
666.80 8.677256
666.90 8.728918
667.00 8.736853
667.10 8.699059
667.20 8.638494
667.30 8.586722
667.40 8.568643
667.50 8.593012
667.60 8.657638
667.70 8.751565
667.80 8.853227
667.90 8.936486
668.00 8.979613
668.10 8.969924
668.20 8.906189
668.30 8.804747
668.40 8.694194
668.50 8.592772
668.60 8.50069
668.70 8.418675
668.80 8.352086
668.90 8.30764
669.00 8.287937
669.10 8.294897
669.20 8.329174
669.30 8.383254
669.40 8.447504
669.50 8.508023
669.60 8.546852
669.70 8.553147
669.80 8.532216
669.90 8.507691
670.00 8.506747
670.10 8.539972
670.20 8.608579
670.30 8.708133
670.40 8.827539
670.50 8.951845
670.60 9.059612
670.70 9.134585
670.80 9.174157
670.90 9.191034
671.00 9.203014
671.10 9.215914
671.20 9.226139
671.30 9.228687
671.40 9.215802
671.50 9.184298
671.60 9.133513
671.70 9.066469
671.80 8.992618
671.90 8.91803
672.00 8.852385
672.10 8.807947
672.20 8.788868
672.30 8.787621
672.40 8.793543
672.50 8.800546
672.60 8.798639
672.70 8.775163
672.80 8.730099
672.90 8.675614
673.00 8.625307
673.10 8.591456
673.20 8.584471
673.30 8.612517
673.40 8.672043
673.50 8.748761
673.60 8.828351
673.70 8.902537
673.80 8.970983
673.90 9.037503
674.00 9.108565
674.10 9.190789
674.20 9.286793
674.30 9.387043
674.40 9.477418
674.50 9.549888
674.60 9.603082
674.70 9.640062
674.80 9.666862
674.90 9.685226
675.00 9.686077
675.10 9.661836
675.20 9.615716
675.30 9.555921
675.40 9.490528
675.50 9.425338
675.60 9.369472
675.70 9.343768
675.80 9.364839
675.90 9.427461
676.00 9.509079
676.10 9.58631
676.20 9.649234
676.30 9.704302
676.40 9.762409
676.50 9.824609
676.60 9.88304
676.70 9.928323
676.80 9.952145
676.90 9.946143
677.00 9.904899
677.10 9.833342
677.20 9.751701
677.30 9.689713
677.40 9.674035
677.50 9.719171
677.60 9.822169
677.70 9.958457
677.80 10.08684
677.90 10.16714
678.00 10.1725
678.10 10.09183
678.20 9.933973
678.30 9.726873
678.40 9.506829
678.50 9.306148
678.60 9.142536
678.70 9.031552
678.80 8.990382
678.90 9.015877
679.00 9.086239
679.10 9.178726
679.20 9.280366
679.30 9.378854
679.40 9.449354
679.50 9.470125
679.60 9.437422
679.70 9.369603
679.80 9.294935
679.90 9.235375
680.00 9.216094
680.10 9.250161
680.20 9.324101
680.30 9.419086
680.40 9.510222
680.50 9.568016
680.60 9.571156
680.70 9.514812
680.80 9.419744
680.90 9.317638
681.00 9.234309
681.10 9.186376
681.20 9.180667
681.30 9.210788
681.40 9.258194
681.50 9.306974
681.60 9.350724
681.70 9.384379
681.80 9.409897
681.90 9.434406
682.00 9.461546
682.10 9.493308
682.20 9.526135
682.30 9.5531
682.40 9.566682
682.50 9.559575
682.60 9.529763
682.70 9.484912
682.80 9.43738
682.90 9.395233
683.00 9.356708
683.10 9.316491
683.20 9.267317
683.30 9.205578
683.40 9.137196
683.50 9.061448
683.60 8.980218
683.70 8.905399
683.80 8.848915
683.90 8.815861
684.00 8.802397
684.10 8.804727
684.20 8.813786
684.30 8.81174
684.40 8.791922
684.50 8.758232
684.60 8.715747
684.70 8.668228
684.80 8.615383
684.90 8.572396
685.00 8.556679
685.10 8.565855
685.20 8.589025
685.30 8.621161
685.40 8.668342
685.50 8.727129
685.60 8.781796
685.70 8.824631
685.80 8.852325
685.90 8.873961
686.00 8.903648
686.10 8.948734
686.20 9.0132
686.30 9.088885
686.40 9.161892
686.50 9.226355
686.60 9.274173
686.70 9.285904
686.80 9.241718
686.90 9.127762
687.00 8.951554
687.10 8.743507
687.20 8.541528
687.30 8.37573
687.40 8.272608
687.50 8.243797
687.60 8.276602
687.70 8.344423
687.80 8.41764
687.90 8.475464
688.00 8.504564
688.10 8.495905
688.20 8.449086
688.30 8.384623
688.40 8.32399
688.50 8.268253
688.60 8.213023
688.70 8.158894
688.80 8.107613
688.90 8.066519
689.00 8.053607
689.10 8.084446
689.20 8.152125
689.30 8.231649
689.40 8.303103
689.50 8.3581
689.60 8.385723
689.70 8.371037
689.80 8.30996
689.90 8.215549
690.00 8.111562
690.10 8.025453
690.20 7.980788
690.30 7.991787
690.40 8.056956
690.50 8.166827
690.60 8.314497
690.70 8.489947
690.80 8.677402
690.90 8.854977
691.00 9.004044
691.10 9.119126
691.20 9.196443
691.30 9.225804
691.40 9.19097
691.50 9.075331
691.60 8.886525
691.70 8.661193
691.80 8.443852
691.90 8.271749
692.00 8.179006
692.10 8.191385
692.20 8.309807
692.30 8.510799
692.40 8.754374
692.50 8.987755
692.60 9.170174
692.70 9.291041
692.80 9.358208
692.90 9.39054
693.00 9.407135
693.10 9.425177
693.20 9.466551
693.30 9.547146
693.40 9.659321
693.50 9.772668
693.60 9.855574
693.70 9.892757
693.80 9.889156
693.90 9.875613
694.00 9.8878
694.10 9.945493
694.20 10.06672
694.30 10.26468
694.40 10.52918
694.50 10.83541
694.60 11.15069
694.70 11.43778
694.80 11.66386
694.90 11.80624
695.00 11.85703
695.10 11.81967
695.20 11.70531
695.30 11.52702
695.40 11.30864
695.50 11.08976
695.60 10.90824
695.70 10.79114
695.80 10.75554
695.90 10.79311
696.00 10.8827
696.10 11.00366
696.20 11.13182
696.30 11.2471
696.40 11.33583
696.50 11.39648
696.60 11.43228
696.70 11.44464
696.80 11.43259
696.90 11.3931
697.00 11.33432
697.10 11.26931
697.20 11.21452
697.30 11.203
697.40 11.25487
697.50 11.36306
697.60 11.5166
697.70 11.69955
697.80 11.88351
697.90 12.03339
698.00 12.1196
698.10 12.13399
698.20 12.09145
698.30 12.01633
698.40 11.93405
698.50 11.87596
698.60 11.86582
698.70 11.89521
698.80 11.94162
698.90 11.99199
699.00 12.03226
699.10 12.04526
699.20 12.0172
699.30 11.94219
699.40 11.83264
699.50 11.70919
699.60 11.58792
699.70 11.48727
699.80 11.41829
699.90 11.38191
700.00 11.37941
700.10 11.41327
700.20 11.49399
700.30 11.63167
700.40 11.82143
700.50 12.04865
700.60 12.29902
700.70 12.55959
700.80 12.80871
700.90 13.01993
701.00 13.17922
701.10 13.28463
701.20 13.3405
701.30 13.35661
701.40 13.34959
701.50 13.3444
701.60 13.35676
701.70 13.38798
701.80 13.43883
701.90 13.50969
702.00 13.59824
702.10 13.6974
702.20 13.79828
702.30 13.90235
702.40 14.02135
702.50 14.16898
702.60 14.35346
702.70 14.572
702.80 14.81755
702.90 15.07215
703.00 15.30559
703.10 15.50041
703.20 15.65907
703.30 15.79611
703.40 15.925
703.50 16.05635
703.60 16.20654
703.70 16.38289
703.80 16.57609
703.90 16.769
704.00 16.95082
704.10 17.1099
704.20 17.22663
704.30 17.29606
704.40 17.32952
704.50 17.33628
704.60 17.32452
704.70 17.30496
704.80 17.2929
704.90 17.29305
705.00 17.27821
705.10 17.2068
705.20 17.03905
705.30 16.7466
705.40 16.32583
705.50 15.80363
705.60 15.22749
705.70 14.64209
705.80 14.09154
705.90 13.62235
706.00 13.25759
706.10 12.99147
706.20 12.80287
706.30 12.67154
706.40 12.59452
706.50 12.57692
706.60 12.62553
706.70 12.7458
706.80 12.92294
706.90 13.12152
707.00 13.30413
707.10 13.45365
707.20 13.56404
707.30 13.63382
707.40 13.683
707.50 13.73602
707.60 13.80518
707.70 13.89327
707.80 13.99623
707.90 14.10413
708.00 14.19781
708.10 14.25413
708.20 14.25756
708.30 14.20195
708.40 14.08812
708.50 13.91638
708.60 13.70384
708.70 13.47945
708.80 13.26032
708.90 13.0645
709.00 12.90933
709.10 12.80877
709.20 12.76703
709.30 12.77569
709.40 12.81802
709.50 12.87073
709.60 12.9151
709.70 12.94561
709.80 12.96281
709.90 12.97678
710.00 13.0002
710.10 13.03714
710.20 13.09033
710.30 13.1633
710.40 13.2658
710.50 13.40245
710.60 13.56945
710.70 13.7549
710.80 13.9377
710.90 14.08957
711.00 14.1826
711.10 14.20576
711.20 14.16694
711.30 14.0823
711.40 13.97252
711.50 13.86978
711.60 13.81254
711.70 13.82551
711.80 13.90949
711.90 14.04961
712.00 14.21717
712.10 14.37201
712.20 14.47352
712.30 14.49478
712.40 14.43468
712.50 14.30265
712.60 14.11075
712.70 13.88904
712.80 13.67868
712.90 13.51516
713.00 13.41514
713.10 13.37565
713.20 13.38504
713.30 13.4212
713.40 13.45667
713.50 13.47217
713.60 13.46511
713.70 13.445
713.80 13.41552
713.90 13.38011
714.00 13.35301
714.10 13.34339
714.20 13.3484
714.30 13.36056
714.40 13.3782
714.50 13.40813
714.60 13.45708
714.70 13.52684
714.80 13.61199
714.90 13.7034
715.00 13.79046
715.10 13.86556
715.20 13.9392
715.30 14.0282
715.40 14.13209
715.50 14.23705
715.60 14.3245
715.70 14.3741
715.80 14.36846
715.90 14.30164
716.00 14.18121
716.10 14.03466
716.20 13.90633
716.30 13.83576
716.40 13.84731
716.50 13.94543
716.60 14.10371
716.70 14.27676
716.80 14.42751
716.90 14.53842
717.00 14.60946
717.10 14.65362
717.20 14.68834
717.30 14.72896
717.40 14.78614
717.50 14.85605
717.60 14.92517
717.70 14.98642
717.80 15.0429
717.90 15.10497
718.00 15.18492
718.10 15.29347
718.20 15.43243
718.30 15.58963
718.40 15.74981
718.50 15.89749
718.60 16.01814
718.70 16.10569
718.80 16.16443
718.90 16.21081
719.00 16.26494
719.10 16.33948
719.20 16.43138
719.30 16.51788
719.40 16.57117
719.50 16.57789
719.60 16.54065
719.70 16.46856
719.80 16.36792
719.90 16.24554
720.00 16.12221
720.10 16.025
720.20 15.97013
720.30 15.95889
720.40 15.98162
720.50 16.01793
720.60 16.05016
720.70 16.07858
720.80 16.10855
720.90 16.14099
721.00 16.1769
721.10 16.21901
721.20 16.2695
721.30 16.33323
721.40 16.4091
721.50 16.47972
721.60 16.53296
721.70 16.56721
721.80 16.5856
721.90 16.60047
722.00 16.62705
722.10 16.67928
722.20 16.77685
722.30 16.92506
722.40 17.10699
722.50 17.30017
722.60 17.48219
722.70 17.63626
722.80 17.74753
722.90 17.8196
723.00 17.87143
723.10 17.92603
723.20 18.01207
723.30 18.14228
723.40 18.31376
723.50 18.52366
723.60 18.74153
723.70 18.92187
723.80 19.04486
723.90 19.11628
724.00 19.14651
724.10 19.1437
724.20 19.13131
724.30 19.13558
724.40 19.17249
724.50 19.24207
724.60 19.32777
724.70 19.42269
724.80 19.52607
724.90 19.62166
725.00 19.70833
725.10 19.81351
725.20 19.95117
725.30 20.11507
725.40 20.3033
725.50 20.5024
725.60 20.68537
725.70 20.82645
725.80 20.91348
725.90 20.96016
726.00 20.98762
726.10 21.01597
726.20 21.0652
726.30 21.15227
726.40 21.28208
726.50 21.4303
726.60 21.55993
726.70 21.64372
726.80 21.66549
726.90 21.63688
727.00 21.61467
727.10 21.65434
727.20 21.76529
727.30 21.93078
727.40 22.11604
727.50 22.27179
727.60 22.34753
727.70 22.31372
727.80 22.18415
727.90 22.01061
728.00 21.86662
728.10 21.82082
728.20 21.92712
728.30 22.18985
728.40 22.52708
728.50 22.84973
728.60 23.10561
728.70 23.25452
728.80 23.28527
728.90 23.22268
729.00 23.13017
729.10 23.08139
729.20 23.11637
729.30 23.24873
729.40 23.47621
729.50 23.76182
729.60 24.03219
729.70 24.22878
729.80 24.33774
729.90 24.36905
730.00 24.34254
730.10 24.2952
730.20 24.27874
730.30 24.3382
730.40 24.49259
730.50 24.73103
730.60 25.02083
730.70 25.31785
730.80 25.57733
730.90 25.79283
731.00 25.99913
731.10 26.22422
731.20 26.45908
731.30 26.68903
731.40 26.92384
731.50 27.17213
731.60 27.42604
731.70 27.66592
731.80 27.87331
731.90 28.0364
732.00 28.16332
732.10 28.27947
732.20 28.40222
732.30 28.52406
732.40 28.62221
732.50 28.67044
732.60 28.6443
732.70 28.52314
732.80 28.30349
732.90 28.00432
733.00 27.67208
733.10 27.38258
733.20 27.19992
733.30 27.16919
733.40 27.32332
733.50 27.67294
733.60 28.1927
733.70 28.82176
733.80 29.48333
733.90 30.10377
734.00 30.6248
734.10 30.98207
734.20 31.11238
734.30 31.00193
734.40 30.68861
734.50 30.23887
734.60 29.74095
734.70 29.28644
734.80 28.93717
734.90 28.71322
735.00 28.60729
735.10 28.58646
735.20 28.59066
735.30 28.56052
735.40 28.48154
735.50 28.38411
735.60 28.30853
735.70 28.28133
735.80 28.31324
735.90 28.41338
736.00 28.5897
736.10 28.84316
736.20 29.17248
736.30 29.57052
736.40 30.00882
736.50 30.43637
736.60 30.80435
736.70 31.08796
736.80 31.27349
736.90 31.35378
737.00 31.32567
737.10 31.18617
737.20 30.94568
737.30 30.63429
737.40 30.29631
737.50 29.98112
737.60 29.72178
737.70 29.52349
737.80 29.38201
737.90 29.29883
738.00 29.27115
738.10 29.28018
738.20 29.29131
738.30 29.27656
738.40 29.24338
738.50 29.23665
738.60 29.31386
738.70 29.50751
738.80 29.79879
738.90 30.11452
739.00 30.3544
739.10 30.43567
739.20 30.32002
739.30 30.01202
739.40 29.56225
739.50 29.0645
739.60 28.62246
739.70 28.30084
739.80 28.12414
739.90 28.08857
740.00 28.16268
740.10 28.29349
740.20 28.40782
740.30 28.45357
740.40 28.42591
740.50 28.35098
740.60 28.27172
740.70 28.23428
740.80 28.26941
740.90 28.37702
741.00 28.53809
741.10 28.74449
741.20 28.97886
741.30 29.19035
741.40 29.30017
741.50 29.23874
741.60 29.00471
741.70 28.6524
741.80 28.24914
741.90 27.85991
742.00 27.54108
742.10 27.33732
742.20 27.25973
742.30 27.2862
742.40 27.38718
742.50 27.52326
742.60 27.65227
742.70 27.75706
742.80 27.84934
742.90 27.94414
743.00 28.03791
743.10 28.10536
743.20 28.12692
743.30 28.09888
743.40 28.02111
743.50 27.89873
743.60 27.76237
743.70 27.65727
743.80 27.59803
743.90 27.57713
744.00 27.57521
744.10 27.55012
744.20 27.45537
744.30 27.2613
744.40 26.97806
744.50 26.66299
744.60 26.37831
744.70 26.1738
744.80 26.09536
744.90 26.16453
745.00 26.35664
745.10 26.60881
745.20 26.85141
745.30 27.02947
745.40 27.11188
745.50 27.09258
745.60 26.9873
745.70 26.83412
745.80 26.67649
745.90 26.55549
746.00 26.51892
746.10 26.59988
746.20 26.79609
746.30 27.07154
746.40 27.36635
746.50 27.62641
746.60 27.81898
746.70 27.92462
746.80 27.93797
746.90 27.87204
747.00 27.75058
747.10 27.59999
747.20 27.45075
747.30 27.32763
747.40 27.23531
747.50 27.16474
747.60 27.10378
747.70 27.05713
747.80 27.05477
747.90 27.12171
748.00 27.26712
748.10 27.48282
748.20 27.74572
748.30 28.03296
748.40 28.31753
748.50 28.57317
748.60 28.77828
748.70 28.91435
748.80 28.96865
748.90 28.94044
749.00 28.83836
749.10 28.66245
749.20 28.41749
749.30 28.13284
749.40 27.85335
749.50 27.62935
749.60 27.50355
749.70 27.49619
749.80 27.60461
749.90 27.80323
750.00 28.04499
750.10 28.26977
750.20 28.42704
750.30 28.48799
750.40 28.45965
750.50 28.39471
750.60 28.35131
750.70 28.36477
750.80 28.44794
750.90 28.5906
751.00 28.75323
751.10 28.88853
751.20 28.97812
751.30 29.01577
751.40 28.99416
751.50 28.9198
751.60 28.81311
751.70 28.70837
751.80 28.64033
751.90 28.62694
752.00 28.6621
752.10 28.7209
752.20 28.77709
752.30 28.8107
752.40 28.81499
752.50 28.79428
752.60 28.75973
752.70 28.73456
752.80 28.75359
752.90 28.83646
753.00 28.97064
753.10 29.1303
753.20 29.28554
753.30 29.40935
753.40 29.49762
753.50 29.56978
753.60 29.65588
753.70 29.78009
753.80 29.9679
753.90 30.23655
754.00 30.5712
754.10 30.93262
754.20 31.25858
754.30 31.48753
754.40 31.58859
754.50 31.55031
754.60 31.37801
754.70 31.1027
754.80 30.77153
754.90 30.43685
755.00 30.15074
755.10 29.95913
755.20 29.87613
755.30 29.88554
755.40 29.95638
755.50 30.05478
755.60 30.15967
755.70 30.26388
755.80 30.37265
755.90 30.49463
756.00 30.6292
756.10 30.75595
756.20 30.84211
756.30 30.85871
756.40 30.78789
756.50 30.63453
756.60 30.437
756.70 30.24102
756.80 30.08113
756.90 29.99179
757.00 30.00167
757.10 30.10182
757.20 30.24605
757.30 30.37922
757.40 30.45065
757.50 30.43464
757.60 30.35606
757.70 30.27524
757.80 30.2496
757.90 30.31538
758.00 30.47535
758.10 30.69591
758.20 30.91639
758.30 31.05373
758.40 31.01346
758.50 30.72956
758.60 30.17834
758.70 29.37924
758.80 28.39879
758.90 27.33736
759.00 26.29275
759.10 25.34934
759.20 24.57932
759.30 23.99569
759.40 23.54437
759.50 23.1866
759.60 22.9211
759.70 22.71139
759.80 22.51367
759.90 22.34791
760.00 22.23937
760.10 22.1668
760.20 22.12917
760.30 22.15313
760.40 22.25745
760.50 22.43591
760.60 22.64845
760.70 22.8687
760.80 23.10393
760.90 23.34389
761.00 23.55664
761.10 23.75026
761.20 23.94154
761.30 24.09376
761.40 24.18035
761.50 24.23526
761.60 24.28271
761.70 24.31281
761.80 24.30067
761.90 24.21559
762.00 24.05792
762.10 23.83808
762.20 23.54814
762.30 23.17475
762.40 22.70815
762.50 22.14116
762.60 21.48284
762.70 20.76744
762.80 20.04912
762.90 19.38781
763.00 18.82814
763.10 18.39115
763.20 18.07136
763.30 17.84932
763.40 17.68594
763.50 17.53652
763.60 17.37537
763.70 17.18169
763.80 16.92644
763.90 16.59055
764.00 16.18063
764.10 15.73604
764.20 15.30722
764.30 14.92218
764.40 14.57931
764.50 14.26006
764.60 13.94952
764.70 13.63016
764.80 13.27114
764.90 12.83874
765.00 12.31066
765.10 11.68883
765.20 11.00608
765.30 10.32428
765.40 9.70771
765.50 9.175662
765.60 8.712186
765.70 8.303501
765.80 7.934987
765.90 7.569079
766.00 7.167529
766.10 6.715194
766.20 6.216432
766.30 5.703312
766.40 5.232374
766.50 4.862689
766.60 4.636076
766.70 4.566496
766.80 4.648463
766.90 4.879926
767.00 5.253076
767.10 5.72737
767.20 6.250138
767.30 6.787188
767.40 7.312607
767.50 7.806895
767.60 8.258862
767.70 8.660175
767.80 9.013613
767.90 9.328217
768.00 9.625532
768.10 9.923682
768.20 10.22112
768.30 10.49526
768.40 10.70484
768.50 10.82206
768.60 10.84118
768.70 10.78273
768.80 10.6731
768.90 10.5162
769.00 10.30662
769.10 10.04325
769.20 9.715138
769.30 9.314187
769.40 8.838922
769.50 8.293402
769.60 7.695461
769.70 7.085735
769.80 6.530723
769.90 6.094717
770.00 5.822861
770.10 5.731337
770.20 5.819552
770.30 6.086288
770.40 6.523871
770.50 7.100696
770.60 7.778142
770.70 8.512544
770.80 9.244645
770.90 9.930387
771.00 10.54357
771.10 11.07685
771.20 11.53528
771.30 11.92634
771.40 12.26898
771.50 12.59532
771.60 12.93887
771.70 13.31075
771.80 13.70492
771.90 14.10613
772.00 14.49134
772.10 14.85469
772.20 15.21389
772.30 15.59382
772.40 16.02362
772.50 16.51471
772.60 17.05842
772.70 17.63261
772.80 18.2044
772.90 18.72606
773.00 19.15158
773.10 19.47323
773.20 19.71224
773.30 19.91374
773.40 20.12706
773.50 20.3743
773.60 20.65775
773.70 20.9702
773.80 21.28937
773.90 21.57793
774.00 21.79796
774.10 21.92658
774.20 21.95185
774.30 21.88662
774.40 21.77346
774.50 21.66956
774.60 21.62999
774.70 21.68036
774.80 21.8086
774.90 21.994
775.00 22.20353
775.10 22.37643
775.20 22.46733
775.30 22.47653
775.40 22.43046
775.50 22.36421
775.60 22.30341
775.70 22.2602
775.80 22.24331
775.90 22.24739
776.00 22.26242
776.10 22.28263
776.20 22.30585
776.30 22.32695
776.40 22.35544
776.50 22.42714
776.60 22.58284
776.70 22.84974
776.80 23.23641
776.90 23.72331
777.00 24.27629
777.10 24.85443
777.20 25.38826
777.30 25.79474
777.40 26.00421
777.50 25.99291
777.60 25.79652
777.70 25.4841
777.80 25.13495
777.90 24.82655
778.00 24.60294
778.10 24.45829
778.20 24.36042
778.30 24.28095
778.40 24.20315
778.50 24.11444
778.60 24.02093
778.70 23.95844
778.80 23.97778
778.90 24.13102
779.00 24.4352
779.10 24.85112
779.20 25.3014
779.30 25.68333
779.40 25.88303
779.50 25.79123
779.60 25.32323
779.70 24.46092
779.80 23.28516
779.90 21.97804
780.00 20.7838
780.10 19.94134
780.20 19.62595
780.30 19.92556
780.40 20.81878
780.50 22.15906
780.60 23.72376
780.70 25.26664
780.80 26.56778
780.90 27.49999
781.00 28.0614
781.10 28.33755
781.20 28.45505
781.30 28.53252
781.40 28.63684
781.50 28.79955
781.60 29.02758
781.70 29.27381
781.80 29.45607
781.90 29.53649
782.00 29.50945
782.10 29.37391
782.20 29.14706
782.30 28.8447
782.40 28.48237
782.50 28.08373
782.60 27.67442
782.70 27.28377
782.80 26.95463
782.90 26.72089
783.00 26.60204
783.10 26.6066
783.20 26.74662
783.30 27.01541
783.40 27.36933
783.50 27.77554
783.60 28.21429
783.70 28.66658
783.80 29.09657
783.90 29.47296
784.00 29.78501
784.10 30.03504
784.20 30.24448
784.30 30.44198
784.40 30.63337
784.50 30.80075
784.60 30.92288
784.70 30.9962
784.80 31.03594
784.90 31.02866
785.00 30.94577
785.10 30.78451
785.20 30.57546
785.30 30.37906
785.40 30.24671
785.50 30.20668
785.60 30.26615
785.70 30.41105
785.80 30.62041
785.90 30.87602
786.00 31.15882
786.10 31.42577
786.20 31.61929
786.30 31.70508
786.40 31.67511
786.50 31.54041
786.60 31.33852
786.70 31.0928
786.80 30.81874
786.90 30.55169
787.00 30.3126
787.10 30.10906
787.20 29.95464
787.30 29.85759
787.40 29.81281
787.50 29.82698
787.60 29.92275
787.70 30.11326
787.80 30.38826
787.90 30.72666
788.00 31.08901
788.10 31.43353
788.20 31.73526
788.30 31.96758
788.40 32.14022
788.50 32.29403
788.60 32.44476
788.70 32.60055
788.80 32.78569
788.90 33.00962
789.00 33.24597
789.10 33.45189
789.20 33.59003
789.30 33.62206
789.40 33.51446
789.50 33.25496
789.60 32.86302
789.70 32.38913
789.80 31.89153
789.90 31.43349
790.00 31.10143
790.10 30.97095
790.20 31.05115
790.30 31.28696
790.40 31.58853
790.50 31.85968
790.60 32.03241
790.70 32.08471
790.80 32.03161
790.90 31.91297
791.00 31.78646
791.10 31.72503
791.20 31.79197
791.30 31.99405
791.40 32.27583
791.50 32.54571
791.60 32.72569
791.70 32.78546
791.80 32.74466
791.90 32.66324
792.00 32.58359
792.10 32.50073
792.20 32.40068
792.30 32.28541
792.40 32.1619
792.50 32.03551
792.60 31.917
792.70 31.83569
792.80 31.83366
792.90 31.96533
793.00 32.28296
793.10 32.79034
793.20 33.42057
793.30 34.05565
793.40 34.57599
793.50 34.89862
793.60 34.97666
793.70 34.7944
793.80 34.37253
793.90 33.77045
794.00 33.06102
794.10 32.31429
794.20 31.58823
794.30 30.88167
794.40 30.12412
794.50 29.24437
794.60 28.24551
794.70 27.21221
794.80 26.29933
794.90 25.69739
795.00 25.57117
795.10 26.01224
795.20 27.00807
795.30 28.43369
795.40 30.08315
795.50 31.71285
795.60 33.08432
795.70 34.05172
795.80 34.59901
795.90 34.80287
796.00 34.77652
796.10 34.63511
796.20 34.48768
796.30 34.41812
796.40 34.46842
796.50 34.63842
796.60 34.9073
796.70 35.25175
796.80 35.63668
796.90 36.01617
797.00 36.35524
797.10 36.61988
797.20 36.77094
797.30 36.79219
797.40 36.71168
797.50 36.57889
797.60 36.41134
797.70 36.22175
797.80 36.04181
797.90 35.88584
798.00 35.73725
798.10 35.55877
798.20 35.32011
798.30 35.01807
798.40 34.66871
798.50 34.3029
798.60 33.9768
798.70 33.75211
798.80 33.66858
798.90 33.74802
799.00 33.98205
799.10 34.30577
799.20 34.63242
799.30 34.90117
799.40 35.09299
799.50 35.22141
799.60 35.31522
799.70 35.40032
799.80 35.49266
799.90 35.61072
800.00 35.77856
800.10 36.00505
800.20 36.27608
800.30 36.54918
800.40 36.79624
800.50 37.03061
800.60 37.26371
800.70 37.50507
800.80 37.76966
800.90 38.06789
801.00 38.40282
801.10 38.77036
801.20 39.17326
801.30 39.60885
801.40 40.04525
801.50 40.44159
801.60 40.75459
801.70 40.96469
801.80 41.09051
801.90 41.16414
802.00 41.25496
802.10 41.42604
802.20 41.70353
802.30 42.10427
802.40 42.61566
802.50 43.2021
802.60 43.81556
802.70 44.39193
802.80 44.86562
802.90 45.19839
803.00 45.38783
803.10 45.45257
803.20 45.41509
803.30 45.30125
803.40 45.11747
803.50 44.88118
803.60 44.63348
803.70 44.40708
803.80 44.23345
803.90 44.13584
804.00 44.13964
804.10 44.26702
804.20 44.52059
804.30 44.87478
804.40 45.28234
804.50 45.70123
804.60 46.12579
804.70 46.57939
804.80 47.09454
804.90 47.702
805.00 48.41776
805.10 49.21115
805.20 50.02119
805.30 50.8031
805.40 51.51239
805.50 52.11258
805.60 52.59368
805.70 52.95921
805.80 53.23651
805.90 53.46795
806.00 53.67167
806.10 53.84604
806.20 53.981
806.30 54.06482
806.40 54.0829
806.50 54.03895
806.60 53.97
806.70 53.91572
806.80 53.89714
806.90 53.92212
807.00 54.01102
807.10 54.20804
807.20 54.54576
807.30 55.02618
807.40 55.62813
807.50 56.31119
807.60 57.02569
807.70 57.7194
807.80 58.3516
807.90 58.91648
808.00 59.43398
808.10 59.92241
808.20 60.3939
808.30 60.84725
808.40 61.25147
808.50 61.54403
808.60 61.67857
808.70 61.66402
808.80 61.55352
808.90 61.41783
809.00 61.32227
809.10 61.30675
809.20 61.38922
809.30 61.54961
809.40 61.71542
809.50 61.81248
809.60 61.79832
809.70 61.67007
809.80 61.47888
809.90 61.30689
810.00 61.22193
810.10 61.24722
810.20 61.36805
810.30 61.57317
810.40 61.87472
810.50 62.2802
810.60 62.76511
810.70 63.28861
810.80 63.82201
810.90 64.34923
811.00 64.84928
811.10 65.27882
811.20 65.57659
811.30 65.71108
811.40 65.71656
811.50 65.69195
811.60 65.75445
811.70 65.97874
811.80 66.38122
811.90 66.94893
812.00 67.64007
812.10 68.37876
812.20 69.0948
812.30 69.73183
812.40 70.26803
812.50 70.74277
812.60 71.21831
812.70 71.74014
812.80 72.29916
812.90 72.84048
813.00 73.3215
813.10 73.72092
813.20 74.03054
813.30 74.27184
813.40 74.50368
813.50 74.78916
813.60 75.14483
813.70 75.53422
813.80 75.87449
813.90 76.03422
814.00 75.89956
814.10 75.45074
814.20 74.76345
814.30 73.9519
814.40 73.12235
814.50 72.36167
814.60 71.74953
814.70 71.34308
814.80 71.15425
814.90 71.17074
815.00 71.37153
815.10 71.72235
815.20 72.18026
815.30 72.72413
815.40 73.33545
815.50 73.94945
815.60 74.4735
815.70 74.84809
815.80 75.09092
815.90 75.27963
816.00 75.50076
816.10 75.82055
816.20 76.27928
816.30 76.88074
816.40 77.59007
816.50 78.36357
816.60 79.16085
816.70 79.94268
816.80 80.66662
816.90 81.29885
817.00 81.83981
817.10 82.30207
817.20 82.66552
817.30 82.87972
817.40 82.87778
817.50 82.58805
817.60 81.94165
817.70 80.86477
817.80 79.27963
817.90 77.10395
818.00 74.33293
818.10 71.10876
818.20 67.72406
818.30 64.58613
818.40 62.11807
818.50 60.6411
818.60 60.28592
818.70 60.95682
818.80 62.32698
818.90 63.89353
819.00 65.0926
819.10 65.44814
819.20 64.70248
819.30 62.93402
819.40 60.52046
819.50 57.98719
819.60 55.87966
819.70 54.63424
819.80 54.4918
819.90 55.4829
820.00 57.45797
820.10 60.11207
820.20 63.04627
820.30 65.85434
820.40 68.20858
820.50 69.92861
820.60 71.01566
820.70 71.59168
820.80 71.81938
820.90 71.8828
821.00 71.94155
821.10 72.09787
821.20 72.40005
821.30 72.83292
821.40 73.32621
821.50 73.80393
821.60 74.22523
821.70 74.59836
821.80 74.96869
821.90 75.3963
822.00 75.91217
822.10 76.4966
822.20 77.09528
822.30 77.65431
822.40 78.16556
822.50 78.64624
822.60 79.11384
822.70 79.58844
822.80 80.07442
822.90 80.55545
823.00 81.00534
823.10 81.37866
823.20 81.62899
823.30 81.74008
823.40 81.73764
823.50 81.68597
823.60 81.68099
823.70 81.82263
823.80 82.16408
823.90 82.71478
824.00 83.43777
824.10 84.2568
824.20 85.08505
824.30 85.82783
824.40 86.4094
824.50 86.81226
824.60 87.05589
824.70 87.13989
824.80 87.03989
824.90 86.72215
825.00 86.16054
825.10 85.3566
825.20 84.34885
825.30 83.20852
825.40 82.05289
825.50 81.0435
825.60 80.3532
825.70 80.11959
825.80 80.37506
825.90 81.04166
826.00 81.9692
826.10 82.98502
826.20 83.93993
826.30 84.7255
826.40 85.25791
826.50 85.4712
826.60 85.35704
826.70 84.9707
826.80 84.39111
826.90 83.69383
827.00 82.94812
827.10 82.22685
827.20 81.62585
827.30 81.25139
827.40 81.18407
827.50 81.44858
827.60 81.98649
827.70 82.67755
827.80 83.37897
827.90 83.94102
828.00 84.2283
828.10 84.16846
828.20 83.77233
828.30 83.11388
828.40 82.30445
828.50 81.44256
828.60 80.59076
828.70 79.74516
828.80 78.86358
828.90 77.93549
829.00 76.98971
829.10 76.07977
829.20 75.27994
829.30 74.67763
829.40 74.31985
829.50 74.18054
829.60 74.19171
829.70 74.26198
829.80 74.26518
829.90 74.09727
830.00 73.72524
830.10 73.20464
830.20 72.65438
830.30 72.17424
830.40 71.82289
830.50 71.63142
830.60 71.61644
830.70 71.76653
830.80 72.04332
830.90 72.39965
831.00 72.76872
831.10 73.09635
831.20 73.37624
831.30 73.6422
831.40 73.95228
831.50 74.37127
831.60 74.94437
831.70 75.6811
831.80 76.56074
831.90 77.54168
832.00 78.54274
832.10 79.45944
832.20 80.19119
832.30 80.64796
832.40 80.77622
832.50 80.57123
832.60 80.1013
832.70 79.51102
832.80 78.96575
832.90 78.59897
833.00 78.46871
833.10 78.55528
833.20 78.80136
833.30 79.10592
833.40 79.34588
833.50 79.42765
833.60 79.34675
833.70 79.18462
833.80 79.05993
833.90 79.10098
834.00 79.37679
834.10 79.86814
834.20 80.49125
834.30 81.11984
834.40 81.65481
834.50 82.04834
834.60 82.26913
834.70 82.31081
834.80 82.213
834.90 82.04483
835.00 81.82715
835.10 81.55405
835.20 81.24336
835.30 80.90741
835.40 80.56462
835.50 80.24885
835.60 80.00535
835.70 79.88693
835.80 79.9064
835.90 80.04057
836.00 80.25614
836.10 80.50665
836.20 80.73476
836.30 80.90282
836.40 81.04821
836.50 81.25044
836.60 81.56322
836.70 81.99804
836.80 82.51842
836.90 83.04311
837.00 83.43621
837.10 83.54237
837.20 83.27515
837.30 82.65575
837.40 81.79374
837.50 80.86331
837.60 80.10652
837.70 79.76502
837.80 79.94193
837.90 80.55675
838.00 81.4079
838.10 82.27394
838.20 82.93893
838.30 83.18329
838.40 82.87992
838.50 82.03949
838.60 80.78912
838.70 79.34775
838.80 77.9721
838.90 76.90069
839.00 76.2445
839.10 75.96931
839.20 76.03319
839.30 76.42616
839.40 77.15845
839.50 78.19292
839.60 79.41654
839.70 80.74541
839.80 82.12149
839.90 83.47221
840.00 84.67445
840.10 85.57049
840.20 86.05901
840.30 86.13129
840.40 85.90002
840.50 85.55735
840.60 85.25327
840.70 85.07495
840.80 85.02805
840.90 85.08494
841.00 85.29988
841.10 85.73308
841.20 86.37617
841.30 87.13341
841.40 87.86461
841.50 88.44153
841.60 88.7321
841.70 88.62662
841.80 88.06504
841.90 87.08809
842.00 85.86408
842.10 84.63261
842.20 83.6408
842.30 83.06668
842.40 82.95709
842.50 83.25641
842.60 83.85302
842.70 84.5949
842.80 85.27471
842.90 85.67281
843.00 85.60301
843.10 84.88454
843.20 83.40423
843.30 81.20028
843.40 78.46744
843.50 75.52478
843.60 72.7443
843.70 70.45971
843.80 68.86151
843.90 67.92962
844.00 67.46972
844.10 67.21408
844.20 66.93465
844.30 66.4706
844.40 65.75443
844.50 64.8827
844.60 64.05508
844.70 63.43578
844.80 63.0858
844.90 62.94804
845.00 62.87306
845.10 62.67355
845.20 62.19985
845.30 61.39687
845.40 60.32103
845.50 59.13317
845.60 58.02373
845.70 57.16209
845.80 56.67559
845.90 56.59275
846.00 56.84161
846.10 57.28461
846.20 57.76119
846.30 58.13689
846.40 58.35463
846.50 58.4243
846.60 58.37222
846.70 58.25335
846.80 58.10538
846.90 57.93046
847.00 57.74566
847.10 57.57528
847.20 57.42395
847.30 57.30163
847.40 57.22799
847.50 57.21265
847.60 57.25499
847.70 57.33138
847.80 57.37392
847.90 57.31364
848.00 57.15881
848.10 56.96004
848.20 56.76975
848.30 56.66119
848.40 56.70539
848.50 56.94023
848.60 57.38665
848.70 58.0591
848.80 58.95413
848.90 60.01056
849.00 61.11465
849.10 62.14852
849.20 63.01515
849.30 63.64788
849.40 63.97809
849.50 63.95816
849.60 63.62734
849.70 63.08291
849.80 62.45586
849.90 61.94355
850.00 61.72919
850.10 61.85266
850.20 62.19984
850.30 62.61935
850.40 62.98487
850.50 63.1917
850.60 63.17017
850.70 62.90843
850.80 62.47943
850.90 62.01672
851.00 61.65352
851.10 61.46453
851.20 61.45146
851.30 61.49613
851.40 61.41138
851.50 61.06257
851.60 60.37733
851.70 59.30993
851.80 57.86975
851.90 56.16933
852.00 54.43042
852.10 52.9522
852.20 52.00764
852.30 51.75812
852.40 52.23576
852.50 53.37097
852.60 55.00859
852.70 56.9283
852.80 58.87205
852.90 60.60456
853.00 61.99045
853.10 63.01999
853.20 63.77148
853.30 64.35113
853.40 64.82704
853.50 65.18982
853.60 65.43165
853.70 65.60821
853.80 65.79806
853.90 66.04785
854.00 66.35793
854.10 66.71764
854.20 67.1496
854.30 67.69184
854.40 68.36057
854.50 69.14097
854.60 69.99245
854.70 70.8467
854.80 71.6443
854.90 72.35046
855.00 72.92739
855.10 73.3354
855.20 73.54283
855.30 73.55803
855.40 73.4436
855.50 73.26872
855.60 73.04849
855.70 72.75727
855.80 72.38591
855.90 71.96069
856.00 71.52554
856.10 71.13743
856.20 70.85767
856.30 70.74757
856.40 70.85622
856.50 71.17493
856.60 71.64407
856.70 72.17143
856.80 72.63976
856.90 72.95187
857.00 73.07766
857.10 73.05073
857.20 72.92407
857.30 72.74876
857.40 72.58731
857.50 72.50975
857.60 72.58104
857.70 72.82995
857.80 73.19645
857.90 73.58312
858.00 73.92911
858.10 74.20236
858.20 74.39683
858.30 74.54098
858.40 74.68705
858.50 74.87421
858.60 75.11427
858.70 75.39428
858.80 75.66711
858.90 75.88036
859.00 75.98694
859.10 75.95951
859.20 75.84495
859.30 75.73345
859.40 75.69844
859.50 75.78992
859.60 76.02367
859.70 76.3773
859.80 76.8002
859.90 77.23963
860.00 77.64572
860.10 77.98838
860.20 78.25804
860.30 78.43438
860.40 78.49854
860.50 78.42681
860.60 78.17995
860.70 77.71141
860.80 76.95528
860.90 75.85772
861.00 74.43051
861.10 72.72919
861.20 70.8255
861.30 68.81445
861.40 66.82281
861.50 64.97328
861.60 63.36691
861.70 62.07808
861.80 61.13032
861.90 60.50174
862.00 60.11027
862.10 59.84404
862.20 59.63117
862.30 59.41766
862.40 59.13871
862.50 58.74575
862.60 58.22035
862.70 57.58396
862.80 56.89062
862.90 56.20346
863.00 55.58702
863.10 55.12899
863.20 54.92331
863.30 55.0209
863.40 55.42589
863.50 56.09517
863.60 56.93138
863.70 57.81051
863.80 58.61623
863.90 59.27255
864.00 59.76461
864.10 60.10144
864.20 60.28788
864.30 60.35694
864.40 60.37187
864.50 60.36995
864.60 60.36185
864.70 60.38396
864.80 60.51216
864.90 60.83638
865.00 61.41707
865.10 62.26095
865.20 63.32226
865.30 64.50628
865.40 65.70297
865.50 66.8101
865.60 67.75035
865.70 68.4968
865.80 69.04998
865.90 69.42405
866.00 69.62946
866.10 69.67544
866.20 69.59717
866.30 69.44167
866.40 69.24151
866.50 68.99546
866.60 68.65175
866.70 68.17653
866.80 67.57533
866.90 66.87877
867.00 66.16815
867.10 65.55578
867.20 65.16956
867.30 65.13328
867.40 65.54533
867.50 66.41723
867.60 67.62552
867.70 68.92586
867.80 70.03705
867.90 70.755
868.00 71.0165
868.10 70.85948
868.20 70.40179
868.30 69.82009
868.40 69.27953
868.50 68.86903
868.60 68.58171
868.70 68.32891
868.80 67.9626
868.90 67.31709
869.00 66.24366
869.10 64.67818
869.20 62.66738
869.30 60.36084
869.40 57.99535
869.50 55.83594
869.60 54.09779
869.70 52.91331
869.80 52.32778
869.90 52.30497
870.00 52.73358
870.10 53.45784
870.20 54.31578
870.30 55.16362
870.40 55.89438
870.50 56.42122
870.60 56.69055
870.70 56.69072
870.80 56.43235
870.90 55.93159
871.00 55.20683
871.10 54.31943
871.20 53.38465
871.30 52.53387
871.40 51.88207
871.50 51.5009
871.60 51.39412
871.70 51.51156
871.80 51.79529
871.90 52.20129
872.00 52.69202
872.10 53.24602
872.20 53.86421
872.30 54.57684
872.40 55.45818
872.50 56.56643
872.60 57.88544
872.70 59.31128
872.80 60.6775
872.90 61.8093
873.00 62.56877
873.10 62.87372
873.20 62.70282
873.30 62.12829
873.40 61.31665
873.50 60.47926
873.60 59.82337
873.70 59.50107
873.80 59.57082
873.90 60.03051
874.00 60.84397
874.10 61.94157
874.20 63.22058
874.30 64.53085
874.40 65.68613
874.50 66.52651
874.60 66.96673
874.70 67.00193
874.80 66.72232
874.90 66.28898
875.00 65.89005
875.10 65.69895
875.20 65.81882
875.30 66.25713
875.40 66.97194
875.50 67.9277
875.60 69.10064
875.70 70.45945
875.80 71.97429
875.90 73.51687
876.00 74.84147
876.10 75.72236
876.20 76.02187
876.30 75.70779
876.40 74.8199
876.50 73.50446
876.60 72.0816
876.70 70.96844
876.80 70.50901
876.90 70.89504
877.00 72.16653
877.10 74.24617
877.20 76.94453
877.30 79.98565
877.40 83.00148
877.50 85.5629
877.60 87.26809
877.70 87.81778
877.80 87.12613
877.90 85.36152
878.00 82.88179
878.10 80.13991
878.20 77.63725
878.30 75.8094
878.40 74.88863
878.50 74.86125
878.60 75.51476
878.70 76.57115
878.80 77.82216
878.90 79.1125
879.00 80.28567
879.10 81.26196
879.20 82.10319
879.30 82.91524
879.40 83.7522
879.50 84.59522
879.60 85.29436
879.70 85.60858
879.80 85.31931
879.90 84.28574
880.00 82.49853
880.10 80.12284
880.20 77.4563
880.30 74.85157
880.40 72.66376
880.50 71.18371
880.60 70.5856
880.70 70.93488
880.80 72.17839
880.90 74.16452
881.00 76.74589
881.10 79.80051
881.20 83.19466
881.30 86.77
881.40 90.3201
881.50 93.59031
881.60 96.30713
881.70 98.2502
881.80 99.31303
881.90 99.46766
882.00 98.76857
882.10 97.37607
882.20 95.50653
882.30 93.44555
882.40 91.47192
882.50 89.79817
882.60 88.58107
882.70 87.87716
882.80 87.65495
882.90 87.83314
883.00 88.33748
883.10 89.13143
883.20 90.18269
883.30 91.4565
883.40 92.89856
883.50 94.42924
883.60 96.01729
883.70 97.63789
883.80 99.21836
883.90 100.6169
884.00 101.6212
884.10 102.0077
884.20 101.5972
884.30 100.2859
884.40 98.08189
884.50 95.12767
884.60 91.77362
884.70 88.5937
884.80 86.21969
884.90 85.18887
885.00 85.76133
885.10 87.799
885.20 90.82867
885.30 94.16045
885.40 97.04252
885.50 98.8559
885.60 99.22562
885.70 98.06638
885.80 95.59137
885.90 92.25553
886.00 88.64505
886.10 85.3526
886.20 82.87302
886.30 81.45885
886.40 81.09093
886.50 81.54658
886.60 82.44826
886.70 83.30742
886.80 83.59526
886.90 82.91749
887.00 81.15996
887.10 78.50153
887.20 75.36437
887.30 72.36235
887.40 70.15665
887.50 69.22045
887.60 69.72291
887.70 71.518
887.80 74.17714
887.90 77.1177
888.00 79.77381
888.10 81.71325
888.20 82.68919
888.30 82.7292
888.40 82.15338
888.50 81.43282
888.60 80.96294
888.70 80.96475
888.80 81.48857
888.90 82.41444
889.00 83.46679
889.10 84.28624
889.20 84.54974
889.30 84.05189
889.40 82.75988
889.50 80.88249
889.60 78.89635
889.70 77.33744
889.80 76.61019
889.90 76.96236
890.00 78.49874
890.10 81.10066
890.20 84.37552
890.30 87.78558
890.40 90.77933
890.50 92.88809
890.60 93.82331
890.70 93.53188
890.80 92.21143
890.90 90.27707
891.00 88.22813
891.10 86.52173
891.20 85.49035
891.30 85.31454
891.40 86.05969
891.50 87.68753
891.60 90.01658
891.70 92.76344
891.80 95.54515
891.90 97.92034
892.00 99.51189
892.10 100.0588
892.20 99.4784
892.30 97.88396
892.40 95.56348
892.50 92.92889
892.60 90.45755
892.70 88.63394
892.80 87.85087
892.90 88.31512
893.00 90.01117
893.10 92.65011
893.20 95.74702
893.30 98.73855
893.40 101.0554
893.50 102.2518
893.60 102.0669
893.70 100.4755
893.80 97.69613
893.90 94.09088
894.00 90.07709
894.10 86.11359
894.20 82.63209
894.30 79.94059
894.40 78.22134
894.50 77.54425
894.60 77.8708
894.70 79.04442
894.80 80.79301
894.90 82.79335
895.00 84.74909
895.10 86.45398
895.20 87.87741
895.30 89.22448
895.40 90.82174
895.50 92.8763
895.60 95.32753
895.70 97.93301
895.80 100.3523
895.90 102.1624
896.00 103.0168
896.10 102.758
896.20 101.4576
896.30 99.41486
896.40 97.07415
896.50 94.90327
896.60 93.26816
896.70 92.35835
896.80 92.17555
896.90 92.61466
897.00 93.56703
897.10 94.88962
897.20 96.41405
897.30 98.04262
897.40 99.69312
897.50 101.2787
897.60 102.6973
897.70 103.8117
897.80 104.5139
897.90 104.7951
898.00 104.7875
898.10 104.7356
898.20 104.9515
898.30 105.7195
898.40 107.1719
898.50 109.2254
898.60 111.5525
898.70 113.6234
898.80 114.9157
898.90 115.1395
899.00 114.2879
899.10 112.5904
899.20 110.4204
899.30 108.1569
899.40 106.1217
899.50 104.5541
899.60 103.5242
899.70 102.923
899.80 102.6431
899.90 102.7379
900.00 100.9683
900.10 100.5832
900.20 103.0094
900.30 105.8031
900.40 112.3174
900.50 119.5399
900.60 119.2783
900.70 115.691
900.80 112.5737
900.90 110.4667
901.00 107.0657
901.10 103.4574
901.20 99.58517
901.30 102.0013
901.40 106.5448
901.50 110.0749
901.60 112.0393
901.70 114.8584
901.80 117.999
901.90 120.6805
902.00 119.0491
902.10 116.3663
902.20 112.9116
902.30 108.8762
902.40 104.3538
902.50 100.5804
902.60 97.21615
902.70 91.81474
902.80 86.47635
902.90 85.82229
903.00 88.31085
903.10 91.68162
903.20 96.33794
903.30 101.3843
903.40 110.8562
903.50 120.6524
903.60 125.7922
903.70 128.3893
903.80 130.4704
903.90 131.4268
904.00 131.2285
904.10 127.5372
904.20 123.4421
904.30 120.4866
904.40 118.0058
904.50 116.2731
904.60 115.8534
904.70 116.3083
904.80 116.0783
904.90 116.2388
905.00 114.2522
905.10 111.322
905.20 108.4112
905.30 105.9543
905.40 103.1392
905.50 103.3129
905.60 103.8958
905.70 106.4504
905.80 109.5759
905.90 110.3695
906.00 108.8443
906.10 106.8751
906.20 103.2598
906.30 99.16278
906.40 99.38666
906.50 100.4121
906.60 102.3626
906.70 104.6862
906.80 106.9789
906.90 109.3704
907.00 111.6395
907.10 107.2783
907.20 102.6646
907.30 103.8933
907.40 108.2076
907.50 113.0149
907.60 117.9368
907.70 123.0658
907.80 128.0664
907.90 133.1073
908.00 132.9423
908.10 130.6456
908.20 128.2403
908.30 126.184
908.40 123.847
908.50 121.2395
908.60 118.4755
908.70 115.4891
908.80 112.6373
908.90 112.2116
909.00 114.0747
909.10 116.0726
909.20 118.0834
909.30 120.101
909.40 121.98
909.50 123.8938
909.60 123.8866
909.70 122.3177
909.80 121.3429
909.90 121.3301
910.00 120.7025
910.10 120.5441
910.20 120.4359
910.30 120.2477
910.40 119.9646
910.50 119.0635
910.60 117.0863
910.70 115.328
910.80 119.2861
910.90 122.8177
911.00 125.7423
911.10 128.7729
911.20 131.0212
911.30 131.0441
911.40 131.231
911.50 126.8037
911.60 122.2289
911.70 125.5528
911.80 131.2269
911.90 134.8695
912.00 136.3726
912.10 138.3435
912.20 142.1603
912.30 146.196
912.40 147.4343
912.50 147.5861
912.60 147.6175
912.70 148.0281
912.80 147.2528
912.90 142.7616
913.00 138.7008
913.10 137.6789
913.20 137.4928
913.30 138.9087
913.40 141.1535
913.50 142.8049
913.60 143.018
913.70 143.0548
913.80 139.7233
913.90 135.3688
914.00 131.5992
914.10 128.4166
914.20 124.9804
914.30 121.3434
914.40 119.1932
914.50 122.2504
914.60 126.0398
914.70 128.0929
914.80 128.9558
914.90 129.976
915.00 132.1952
915.10 133.9427
915.20 133.8729
915.30 134.1237
915.40 137.9176
915.50 142.8857
915.60 149.1067
915.70 156.3146
915.80 162.5967
915.90 163.3946
916.00 163.4187
916.10 156.9322
916.20 149.0064
916.30 141.4987
916.40 134.7074
916.50 130.7253
916.60 135.2902
916.70 140.5743
916.80 147.3843
916.90 154.4822
917.00 157.2659
917.10 157.2352
917.20 155.9621
917.30 152.4766
917.40 148.5948
917.50 144.19
917.60 139.2937
917.70 138.1219
917.80 139.0259
917.90 140.5562
918.00 142.1651
918.10 143.9575
918.20 145.43
918.30 147.1016
918.40 146.3957
918.50 144.7281
918.60 144.7367
918.70 147.1608
918.80 150.1474
918.90 154.7188
919.00 160.2404
919.10 165.6115
919.20 170.6786
919.30 171.2623
919.40 167.7016
919.50 162.7513
919.60 157.1707
919.70 150.7991
919.80 150.7931
919.90 152.3363
920.00 155.9564
920.10 160.6429
920.20 164.7299
920.30 166.3082
920.40 167.7964
920.50 164.6234
920.60 160.556
920.70 156.1848
920.80 151.6806
920.90 146.0701
921.00 139.3737
921.10 133.4724
921.20 132.3927
921.30 131.7972
921.40 134.5662
921.50 138.7679
921.60 143.3899
921.70 147.968
921.80 152.2795
921.90 155.4842
922.00 158.4769
922.10 158.3363
922.20 157.1005
922.30 155.6208
922.40 154.3576
922.50 153.1469
922.60 150.7126
922.70 148.5472
922.80 146.4642
922.90 144.2195
923.00 140.1933
923.10 134.7903
923.20 130.726
923.30 131.7751
923.40 133.0181
923.50 135.533
923.60 138.4347
923.70 141.1196
923.80 143.5015
923.90 145.8312
924.00 148.3308
924.10 151.3719
924.20 156.7562
924.30 162.5806
924.40 164.0853
924.50 163.6498
924.60 160.63
924.70 153.888
924.80 145.9139
924.90 140.6678
925.00 135.0716
925.10 132.154
925.20 130.2269
925.30 131.066
925.40 134.8683
925.50 139.6392
925.60 144.459
925.70 149.6226
925.80 153.605
925.90 157.4613
926.00 156.2328
926.10 150.3415
926.20 144.9549
926.30 144.3718
926.40 143.6544
926.50 147.9358
926.60 152.6434
926.70 156.3299
926.80 159.6382
926.90 160.874
927.00 155.8752
927.10 150.4491
927.20 146.5131
927.30 142.3469
927.40 139.6959
927.50 137.5753
927.60 134.6937
927.70 131.197
927.80 127.9197
927.90 124.4706
928.00 121.2288
928.10 120.9322
928.20 121.7754
928.30 124.7771
928.40 130.0261
928.50 134.7192
928.60 136.0954
928.70 137.16
928.80 133.3257
928.90 128.328
929.00 125.6667
929.10 125.394
929.20 126.2575
929.30 129.6392
929.40 133.6164
929.50 134.6527
929.60 135.1014
929.70 135.2071
929.80 135.0453
929.90 135.2796
930.00 137.6639
930.10 140.1977
930.20 138.143
930.30 135.9776
930.40 133.4658
930.50 130.8253
930.60 128.2534
930.70 125.8821
930.80 123.7716
930.90 123.3073
931.00 123.3374
931.10 125.758
931.20 128.8879
931.30 133.4445
931.40 140.3478
931.50 146.2372
931.60 145.904
931.70 145.6834
931.80 145.1793
931.90 147.7054
932.00 150.5072
932.10 153.0242
932.20 153.1986
932.30 153.4172
932.40 150.7601
932.50 144.8362
932.60 139.0454
932.70 136.8834
932.80 135.8287
932.90 134.6178
933.00 136.5894
933.10 138.5392
933.20 139.1342
933.30 137.4881
933.40 135.7378
933.50 134.0841
933.60 132.6054
933.70 131.4322
933.80 132.0729
933.90 132.9175
934.00 134.4809
934.10 138.1328
934.20 141.7819
934.30 144.0132
934.40 144.5231
934.50 145.0441
934.60 145.9134
934.70 146.9012
934.80 147.7011
934.90 148.332
935.00 148.9077
935.10 148.0371
935.20 145.5036
935.30 142.9727
935.40 138.9492
935.50 133.8414
935.60 129.2044
935.70 128.9716
935.80 129.3557
935.90 131.4359
936.00 138.2473
936.10 145.039
936.20 150.5596
936.30 154.4985
936.40 158.2614
936.50 158.0926
936.60 156.3927
936.70 153.8288
936.80 149.2874
936.90 144.747
937.00 141.1598
937.10 139.978
937.20 138.8728
937.30 139.1781
937.40 140.475
937.50 142.0429
937.60 142.9568
937.70 143.7145
937.80 143.9769
937.90 142.0553
938.00 140.1777
938.10 139.5056
938.20 140.2981
938.30 141.0497
938.40 141.7098
938.50 142.3486
938.60 143.1221
938.70 141.5363
938.80 139.9021
938.90 139.3023
939.00 141.6023
939.10 144.0083
939.20 146.5759
939.30 149.0977
939.40 151.512
939.50 152.9656
939.60 154.2366
939.70 154.3044
939.80 149.4294
939.90 144.4584
940.00 140.3437
940.10 138.2528
940.20 136.352
940.30 137.9149
940.40 141.0068
940.50 144.849
940.60 150.2719
940.70 155.7523
940.80 159.552
940.90 158.1619
941.00 156.6949
941.10 155.6613
941.20 155.1573
941.30 154.2285
941.40 153.8848
941.50 153.7421
941.60 153.6945
941.70 153.5125
941.80 153.2923
941.90 151.652
942.00 147.9788
942.10 144.5128
942.20 144.1956
942.30 145.3141
942.40 146.607
942.50 146.7364
942.60 146.8083
942.70 148.1722
942.80 153.3176
942.90 158.4201
943.00 163.1091
943.10 167.501
943.20 171.7776
943.30 175.8786
943.40 179.9542
943.50 183.3505
943.60 179.0281
943.70 174.6041
943.80 170.6649
943.90 168.3402
944.00 165.925
944.10 163.7539
944.20 161.7631
944.30 159.8755
944.40 158.637
944.50 157.4495
944.60 156.266
944.70 154.1576
944.80 152.1956
944.90 152.2456
945.00 153.9297
945.10 155.5759
945.20 158.8982
945.30 162.6456
945.40 166.0523
945.50 166.8514
945.60 167.5045
945.70 166.6617
945.80 164.4039
945.90 162.3433
946.00 159.2426
946.10 155.4622
946.20 152.058
946.30 151.258
946.40 150.6421
946.50 151.413
946.60 154.9414
946.70 158.3024
946.80 161.2459
946.90 164.1147
947.00 166.7246
947.10 167.6698
947.20 168.2166
947.30 168.8597
947.40 170.1883
947.50 171.556
947.60 172.3658
947.70 171.9416
947.80 171.6518
947.90 170.9491
948.00 169.9458
948.10 168.7097
948.20 168.7804
948.30 168.9341
948.40 170.0386
948.50 174.8529
948.60 179.5859
948.70 184.0949
948.80 188.5402
948.90 193.3224
949.00 195.0537
949.10 195.9706
949.20 196.0782
949.30 191.1407
949.40 186.1714
949.50 182.4306
949.60 180.998
949.70 179.6174
949.80 179.3731
949.90 179.7115
950.00 180.2459
950.10 181.7182
950.20 183.2359
950.30 183.9607
950.40 182.594
950.50 181.1797
950.60 181.849
950.70 184.6048
950.80 187.8507
950.90 188.3233
951.00 188.0336
951.10 187.6052
951.20 188.7138
951.30 189.7144
951.40 188.5554
951.50 184.4101
951.60 180.0191
951.70 175.992
951.80 172.279
951.90 168.7861
952.00 167.4971
952.10 166.3791
952.20 167.8602
952.30 175.8079
952.40 183.9442
952.50 192.0034
952.60 199.6824
952.70 207.2418
952.80 206.1073
952.90 202.9488
953.00 198.9844
953.10 192.8063
953.20 186.5157
953.30 181.3577
953.40 178.6623
953.50 176.1026
953.60 177.7805
953.70 181.4838
953.80 185.1026
953.90 184.1678
954.00 183.068
954.10 182.3493
954.20 182.0733
954.30 181.7968
954.40 183.0245
954.50 185.5867
954.60 188.2264
954.70 193.7255
954.80 199.8439
954.90 205.1838
955.00 206.1348
955.10 207.0611
955.20 206.3602
955.30 203.33
955.40 200.6854
955.50 198.4887
955.60 196.3481
955.70 194.2632
955.80 193.4199
955.90 192.5973
956.00 191.8815
956.10 191.8687
956.20 191.6681
956.30 192.1179
956.40 193.3302
956.50 194.4786
956.60 195.1583
956.70 195.7541
956.80 196.4185
956.90 196.8175
957.00 197.2659
957.10 197.6631
957.20 197.7942
957.30 197.8846
957.40 197.7952
957.50 197.6425
957.60 197.1184
957.70 194.8967
957.80 192.6625
957.90 190.6216
958.00 189.0141
958.10 187.5651
958.20 186.5451
958.30 185.6902
958.40 185.0599
958.50 182.6332
958.60 179.8712
958.70 176.926
958.80 174.647
958.90 172.1072
959.00 168.3741
959.10 163.8655
959.20 159.5478
959.30 158.159
959.40 157.8575
959.50 158.1507
959.60 158.6028
959.70 159.0013
959.80 159.5126
959.90 160.8959
960.00 162.0345
960.10 163.273
960.20 164.7804
960.30 166.7955
960.40 168.1502
960.50 169.4357
960.60 171.5041
960.70 172.1474
960.80 172.7023
960.90 171.6614
961.00 168.8894
961.10 165.5975
961.20 163.6139
961.30 162.2019
961.40 160.478
961.50 162.8703
961.60 165.3653
961.70 168.6011
961.80 172.5388
961.90 176.7812
962.00 179.7348
962.10 181.6615
962.20 183.6171
962.30 182.7349
962.40 181.4839
962.50 179.486
962.60 177.2788
962.70 175.0667
962.80 173.6035
962.90 172.9613
963.00 172.2754
963.10 173.5646
963.20 175.4507
963.30 177.0358
963.40 174.6439
963.50 172.0708
963.60 168.0819
963.70 162.5907
963.80 157.0099
963.90 152.4914
964.00 148.6169
964.10 145.1666
964.20 146.8214
964.30 148.9799
964.40 151.7616
964.50 152.7064
964.60 153.8632
964.70 156.3925
964.80 159.935
964.90 163.0418
965.00 163.7794
965.10 163.9737
965.20 163.6399
965.30 163.3444
965.40 162.9996
965.50 162.8866
965.60 163.3692
965.70 163.9873
965.80 167.7702
965.90 173.0594
966.00 178.7532
966.10 179.9671
966.20 181.0437
966.30 182.3993
966.40 183.6278
966.50 184.7126
966.60 185.4542
966.70 186.0657
966.80 186.1684
966.90 187.3319
967.00 188.7558
967.10 189.6938
967.20 185.3724
967.30 180.9965
967.40 177.281
967.50 174.6456
967.60 171.8788
967.70 172.1095
967.80 173.6002
967.90 175.0745
968.00 177.2916
968.10 179.6308
968.20 181.9738
968.30 183.0529
968.40 184.0208
968.50 183.158
968.60 181.057
968.70 178.8857
968.80 178.1687
968.90 177.677
969.00 177.5548
969.10 178.9609
969.20 180.4962
969.30 182.8309
969.40 185.8494
969.50 188.9573
969.60 190.9458
969.70 192.5242
969.80 193.8677
969.90 194.19
970.00 194.4045
970.10 193.7594
970.20 192.1018
970.30 190.314
970.40 187.8377
970.50 185.0131
970.60 181.9698
970.70 181.7114
970.80 181.7833
970.90 183.1
971.00 187.7875
971.10 192.8274
971.20 198.178
971.30 203.3016
971.40 208.7376
971.50 210.3732
971.60 210.9613
971.70 210.7315
971.80 207.6303
971.90 204.3594
972.00 201.7558
972.10 201.0306
972.20 199.9865
972.30 199.9434
972.40 200.5399
972.50 201.167
972.60 199.1799
972.70 197.0839
972.80 194.9029
972.90 192.011
973.00 189.1039
973.10 187.4858
973.20 186.9818
973.30 186.8826
973.40 187.1929
973.50 187.5649
973.60 188.0352
973.70 187.997
973.80 187.9407
973.90 188.1968
974.00 188.9351
974.10 189.1561
974.20 188.2786
974.30 187.0821
974.40 186.0526
974.50 185.1867
974.60 184.3473
974.70 183.8226
974.80 183.8253
974.90 184.1361
975.00 185.9309
975.10 188.5427
975.20 191.3273
975.30 192.8816
975.40 194.2402
975.50 195.3929
975.60 196.6334
975.70 197.9068
975.80 198.8737
975.90 199.4178
976.00 199.5893
976.10 200.3609
976.20 201.3774
976.30 202.6595
976.40 203.1273
976.50 203.601
976.60 203.9473
976.70 204.0142
976.80 204.0184
976.90 203.1091
977.00 201.7136
977.10 199.6623
977.20 199.0663
977.30 198.6613
977.40 199.0892
977.50 201.0112
977.60 203.1897
977.70 204.3602
977.80 204.2993
977.90 204.2234
978.00 202.6742
978.10 200.7577
978.20 198.0824
978.30 195.2547
978.40 192.3709
978.50 190.3218
978.60 189.7036
978.70 189.2374
978.80 189.5526
978.90 190.1768
979.00 191.2626
979.10 195.9978
979.20 200.9364
979.30 205.82
979.40 209.3053
979.50 212.8109
979.60 214.6689
979.70 215.2687
979.80 215.6736
979.90 215.3959
980.00 214.9706
980.10 214.0803
980.20 213.1314
980.30 212.1918
980.40 211.5314
980.50 211.1937
980.60 210.5011
980.70 209.1447
980.80 207.6227
980.90 206.3717
981.00 205.7653
981.10 205.1937
981.20 204.1898
981.30 202.1164
981.40 200.0959
981.50 200.809
981.60 203.1034
981.70 205.1268
981.80 206.1606
981.90 207.1241
982.00 207.9811
982.10 208.2222
982.20 208.432
982.30 208.5268
982.40 208.5477
982.50 208.8238
982.60 209.8232
982.70 210.9966
982.80 212.2291
982.90 210.658
983.00 209.0065
983.10 207.1833
983.20 205.3473
983.30 203.1461
983.40 202.0218
983.50 201.4777
983.60 200.8218
983.70 201.4542
983.80 202.2233
983.90 203.6526
984.00 205.7737
984.10 208.0402
984.20 209.6892
984.30 210.7711
984.40 211.5891
984.50 209.1322
984.60 206.2186
984.70 203.2074
984.80 198.6911
984.90 194.0544
985.00 191.573
985.10 191.8339
985.20 191.9877
985.30 194.4239
985.40 197.6361
985.50 200.8638
985.60 202.9522
985.70 205.2157
985.80 207.0044
985.90 207.0397
986.00 207.0515
986.10 208.0476
986.20 209.6066
986.30 211.0492
986.40 211.7773
986.50 212.4308
986.60 212.4694
986.70 210.7857
986.80 208.7225
986.90 208.022
987.00 208.9743
987.10 210.4026
987.20 214.5554
987.30 219.3265
987.40 224.1934
987.50 224.3003
987.60 224.3965
987.70 222.6078
987.80 218.1342
987.90 212.6855
988.00 210.0982
988.10 208.8847
988.20 207.9774
988.30 212.7341
988.40 217.7238
988.50 222.394
988.60 224.687
988.70 227.1305
988.80 227.4145
988.90 226.1123
989.00 224.2199
989.10 218.9633
989.20 213.1824
989.30 205.781
989.40 194.4193
989.50 182.5078
989.60 169.8265
989.70 157.0691
989.80 144.0519
989.90 134.9312
990.00 126.9644
990.10 120.0455
990.20 115.1394
990.30 110.4085
990.40 105.432
990.50 99.43145
990.60 93.33455
990.70 89.35469
990.80 86.49585
990.90 83.97988
991.00 84.67375
991.10 85.65917
991.20 86.41888
991.30 84.93131
991.40 83.40625
991.50 82.32973
991.60 81.64968
991.70 81.0564
991.80 81.42971
991.90 82.01588
992.00 82.97498
992.10 83.94433
992.20 84.94119
992.30 85.0682
992.40 84.03771
992.50 82.62985
992.60 84.71796
992.70 88.0912
992.80 91.69797
992.90 96.10246
993.00 100.6763
993.10 104.6602
993.20 106.6438
993.30 108.575
993.40 109.8399
993.50 110.7342
993.60 111.5422
993.70 115.0439
993.80 118.8132
993.90 123.0334
994.00 127.882
994.10 132.6474
994.20 136.0156
994.30 138.1741
994.40 139.7607
994.50 140.1886
994.60 140.4108
994.70 140.8953
994.80 142.0819
994.90 143.4115
995.00 145.7027
995.10 149.0415
995.20 152.5837
995.30 153.7773
995.40 153.9725
995.50 153.1942
995.60 148.934
995.70 144.5583
995.80 140.3247
995.90 137.1516
996.00 133.8913
996.10 135.0368
996.20 139.1634
996.30 144.7518
996.40 150.7056
996.50 156.7567
996.60 161.367
996.70 158.1487
996.80 154.2123
996.90 147.4892
997.00 138.7086
997.10 128.4116
997.20 122.0419
997.30 116.8748
997.40 112.8517
997.50 115.4187
997.60 118.615
997.70 122.5045
997.80 125.6997
997.90 129.4583
998.00 131.9216
998.10 133.6387
998.20 134.8887
998.30 132.3723
998.40 129.5866
998.50 126.7246
998.60 125.0784
998.70 123.4579
998.80 122.3976
998.90 121.7277
999.00 121.0827
999.10 121.6862
999.20 122.4989
999.30 122.9685
999.40 121.1144
999.50 119.1005
999.60 119.5
999.70 122.8414
999.80 126.5979
999.90 132.4081
1000.00 138.8171
1000.10 145.6766
1000.20 151.7743
1000.30 158.1324
1000.40 162.2535
1000.50 161.538
1000.60 160.2029
1000.70 157.1876
1000.80 153.4786
1000.90 148.2821
1001.00 144.083
1001.10 139.9187
1001.20 137.131
1001.30 138.3531
1001.40 140.276
1001.50 143.3753
1001.60 146.9302
1001.70 151.1909
1001.80 153.6939
1001.90 155.7887
1002.00 157.1317
1002.10 157.7017
1002.20 158.1888
1002.30 159.2938
1002.40 161.2829
1002.50 163.5493
1002.60 165.4014
1002.70 167.0721
1002.80 168.2868
1002.90 165.7224
1003.00 162.9659
1003.10 160.019
1003.20 157.411
1003.30 154.5183
1003.40 151.6641
1003.50 148.917
1003.60 146.2178
1003.70 146.8131
1003.80 147.6364
1003.90 149.0687
1004.00 151.8076
1004.10 155.322
1004.20 160.9471
1004.30 167.8075
1004.40 175.0971
1004.50 177.0627
1004.60 177.8582
1004.70 176.9233
1004.80 170.6638
1004.90 163.6052
1005.00 154.2015
1005.10 143.1076
1005.20 131.3767
1005.30 124.3631
1005.40 119.1097
1005.50 114.6547
1005.60 113.874
1005.70 113.6472
1005.80 115.0527
1005.90 117.4439
1006.00 120.3919
1006.10 123.2357
1006.20 125.837
1006.30 127.9622
1006.40 133.5484
1006.50 139.3826
1006.60 145.1886
1006.70 150.6426
1006.80 156.3771
1006.90 160.2682
1007.00 162.3773
1007.10 163.9896
1007.20 163.8428
1007.30 163.2787
1007.40 162.5177
1007.50 164.7255
1007.60 167.1089
1007.70 171.1331
1007.80 176.949
1007.90 183.1187
1008.00 186.664
1008.10 189.2335
1008.20 191.4629
1008.30 190.0664
1008.40 188.7178
1008.50 186.9185
1008.60 184.0637
1008.70 180.8311
1008.80 177.5536
1008.90 174.3704
1009.00 170.2087
1009.10 167.8325
1009.20 165.5685
1009.30 164.1558
1009.40 165.876
1009.50 168.3077
1009.60 174.3922
1009.70 183.1783
1009.80 193.1244
1009.90 200.7886
1010.00 208.0273
1010.10 215.275
1010.20 218.994
1010.30 222.2302
1010.40 221.8834
1010.50 217.6015
1010.60 211.8887
1010.70 205.3935
1010.80 198.7614
1010.90 191.3024
1011.00 183.0595
1011.10 174.9116
1011.20 167.702
1011.30 161.9558
1011.40 156.4782
1011.50 152.8548
1011.60 150.1893
1011.70 147.7664
1011.80 151.2156
1011.90 155.3068
1012.00 161.2093
1012.10 170.1581
1012.20 179.8192
1012.30 187.9049
1012.40 194.1523
1012.50 200.4185
1012.60 202.8976
1012.70 204.4937
1012.80 204.9796
1012.90 204.2498
1013.00 203.2022
1013.10 199.6075
1013.20 193.2655
1013.30 186.3037
1013.40 177.1236
1013.50 167.1847
1013.60 156.5113
1013.70 151.923
1013.80 147.4734
1013.90 146.4936
1014.00 151.7494
1014.10 158.2958
1014.20 163.2858
1014.30 167.0093
1014.40 171.5457
1014.50 170.7663
1014.60 169.3721
1014.70 168.1906
1014.80 170.1455
1014.90 172.0596
1015.00 175.6772
1015.10 180.7732
1015.20 186.3554
1015.30 186.364
1015.40 185.2993
1015.50 183.1499
1015.60 177.1102
1015.70 170.4055
1015.80 164.6256
1015.90 160.9301
1016.00 157.4605
1016.10 158.8879
1016.20 161.9985
1016.30 166.021
1016.40 168.8547
1016.50 171.9494
1016.60 174.6465
1016.70 175.7802
1016.80 176.6266
1016.90 176.4958
1017.00 175.9149
1017.10 174.5024
1017.20 180.0941
1017.30 186.2829
1017.40 192.2962
1017.50 196.148
1017.60 200.5724
1017.70 200.8255
1017.80 197.4755
1017.90 193.0223
1018.00 185.7055
1018.10 177.6149
1018.20 168.8265
1018.30 164.314
1018.40 159.8338
1018.50 157.7947
1018.60 158.5801
1018.70 160.6034
1018.80 163.5799
1018.90 166.851
1019.00 170.9593
1019.10 173.1081
1019.20 175.247
1019.30 176.605
1019.40 176.66
1019.50 176.0348
1019.60 175.9529
1019.70 176.2891
1019.80 176.2406
1019.90 177.6564
1020.00 179.3112
1020.10 181.6004
1020.20 184.3836
1020.30 187.2673
1020.40 190.3605
1020.50 193.5611
1020.60 197.0207
1020.70 196.1786
1020.80 194.6714
1020.90 192.4324
1021.00 188.1377
1021.10 183.432
1021.20 177.95
1021.30 172.0548
1021.40 165.3455
1021.50 159.687
1021.60 154.4173
1021.70 149.601
1021.80 146.4104
1021.90 143.3586
1022.00 142.5891
1022.10 145.0895
1022.20 148.3586
1022.30 152.9367
1022.40 157.9833
1022.50 163.7514
1022.60 167.6747
1022.70 171.5969
1022.80 174.3325
1022.90 174.0707
1023.00 173.0283
1023.10 171.4494
1023.20 169.8187
1023.30 167.8941
1023.40 170.1544
1023.50 173.1075
1023.60 177.2123
1023.70 182.9091
1023.80 188.7706
1023.90 194.282
1024.00 199.3029
1024.10 204.4282
1024.20 204.8113
1024.30 203.9869
1024.40 202.4438
1024.50 199.585
1024.60 196.4599
1024.70 192.203
1024.80 186.7859
1024.90 180.9152
1025.00 176.873
1025.10 173.6356
1025.20 170.3684
1025.30 169.296
1025.40 168.4625
1025.50 168.2877
1025.60 168.6095
1025.70 169.0507
1025.80 166.1437
1025.90 161.1469
1026.00 155.5743
1026.10 149.841
1026.20 143.9168
1026.30 139.6464
1026.40 142.5467
1026.50 146.3542
1026.60 152.6782
1026.70 160.6268
1026.80 170.1395
1026.90 176.0137
1027.00 181.0725
1027.10 184.8373
1027.20 182.8323
1027.30 180.0252
1027.40 177.0648
1027.50 175.0155
1027.60 172.2722
1027.70 168.4531
1027.80 164.3381
1027.90 160.3415
1028.00 155.2863
1028.10 150.2892
1028.20 146.758
1028.30 145.7804
1028.40 145.0907
1028.50 148.8356
1028.60 154.9018
1028.70 162.2292
1028.80 168.4798
1028.90 174.83
1029.00 179.9435
1029.10 180.577
1029.20 180.5367
1029.30 179.6754
1029.40 178.5076
1029.50 176.4667
1029.60 174.9567
1029.70 173.5965
1029.80 172.4992
1029.90 171.6887
1030.00 170.9518
1030.10 171.0977
1030.20 172.1624
1030.30 173.4695
1030.40 176.1064
1030.50 179.195
1030.60 182.7003
1030.70 183.9367
1030.80 185.0758
1030.90 185.7233
1031.00 185.8038
1031.10 185.3999
1031.20 184.2729
1031.30 182.8992
1031.40 181.5712
1031.50 180.0865
1031.60 178.5007
1031.70 176.809
1031.80 175.3016
1031.90 173.59
1032.00 171.6031
1032.10 169.5059
1032.20 167.4165
1032.30 166.6042
1032.40 166.108
1032.50 167.3185
1032.60 173.0829
1032.70 179.0976
1032.80 186.9226
1032.90 196.298
1033.00 206.9023
1033.10 212.1422
1033.20 216.0654
1033.30 218.3564
1033.40 212.2168
1033.50 205.003
1033.60 196.7095
1033.70 188.5318
1033.80 179.2019
1033.90 174.3614
1034.00 171.4435
1034.10 170.1094
1034.20 173.6174
1034.30 177.7169
1034.40 182.0433
1034.50 185.0142
1034.60 188.2266
1034.70 188.6351
1034.80 187.4082
1034.90 185.0908
1035.00 182.1885
1035.10 179.0873
1035.20 176.4427
1035.30 176.2891
1035.40 176.2955
1035.50 178.4602
1035.60 182.2404
1035.70 186.6845
1035.80 191.2805
1035.90 196.0142
1036.00 200.8921
1036.10 204.2506
1036.20 207.6779
1036.30 210.523
1036.40 212.6427
1036.50 214.4458
1036.60 216.0149
1036.70 217.4153
1036.80 218.3864
1036.90 222.7714
1037.00 227.4345
1037.10 231.7079
1037.20 234.7685
1037.30 238.2781
1037.40 236.5446
1037.50 232.3266
1037.60 226.9353
1037.70 215.469
1037.80 203.1098
1037.90 191.3443
1038.00 184.4128
1038.10 177.5562
1038.20 175.8003
1038.30 177.4202
1038.40 181.2425
1038.50 184.2827
1038.60 187.6209
1038.70 190.9135
1038.80 190.3383
1038.90 189.25
1039.00 187.9546
1039.10 186.8111
1039.20 184.8814
1039.30 185.7057
1039.40 187.1755
1039.50 188.895
1039.60 191.721
1039.70 194.8853
1039.80 197.9108
1039.90 200.3038
1040.00 202.8848
1040.10 205.5214
1040.20 208.1823
1040.30 211.0207
1040.40 214.0065
1040.50 216.9249
1040.60 219.5447
1040.70 221.783
1040.80 223.7317
1040.90 221.605
1041.00 217.3161
1041.10 212.1048
1041.20 206.3569
1041.30 200.5079
1041.40 196.1886
1041.50 196.6787
1041.60 197.9254
1041.70 202.1284
1041.80 208.2406
1041.90 215.6431
1042.00 216.769
1042.10 216.67
1042.20 214.6692
1042.30 207.7571
1042.40 199.9781
1042.50 191.7941
1042.60 183.9091
1042.70 175.019
1042.80 174.2421
1042.90 175.9056
1043.00 179.1806
1043.10 186.4059
1043.20 194.7007
1043.30 203.9388
1043.40 212.8541
1043.50 222.7304
1043.60 228.2188
1043.70 231.6571
1043.80 233.5991
1043.90 234.6008
1044.00 235.1251
1044.10 234.5678
1044.20 233.298
1044.30 232.0832
1044.40 230.9718
1044.50 229.9083
1044.60 228.7399
1044.70 229.4694
1044.80 230.3606
1044.90 232.5535
1045.00 238.7346
1045.10 245.7903
1045.20 252.9322
1045.30 259.6909
1045.40 267.2238
1045.50 267.2335
1045.60 265.611
1045.70 262.2544
1045.80 254.6537
1045.90 245.7961
1046.00 237.1821
1046.10 230.1111
1046.20 222.5681
1046.30 215.7872
1046.40 209.3703
1046.50 203.4433
1046.60 196.7251
1046.70 190.2687
1046.80 185.4591
1046.90 182.8352
1047.00 180.2725
1047.10 180.8767
1047.20 183.0117
1047.30 185.7987
1047.40 187.1508
1047.50 188.7294
1047.60 190.1131
1047.70 190.1253
1047.80 190.1208
1047.90 191.6004
1048.00 194.0742
1048.10 196.3286
1048.20 201.7038
1048.30 207.5713
1048.40 213.5021
1048.50 218.0596
1048.60 222.5732
1048.70 225.5626
1048.80 227.1711
1048.90 228.3776
1049.00 228.7645
1049.10 228.9551
1049.20 228.5631
1049.30 225.1418
1049.40 221.6965
1049.50 217.8875
1049.60 213.6426
1049.70 208.7298
1049.80 208.1161
1049.90 208.9891
1050.00 210.1004
1050.10 214.433
1050.20 219.1449
1050.30 222.7286
1050.40 223.4825
1050.50 224.0742
1050.60 221.8194
1050.70 218.1701
1050.80 214.2433
1050.90 209.2172
1051.00 204.0776
1051.10 198.8387
1051.20 193.6921
1051.30 188.2714
1051.40 184.3698
1051.50 181.6136
1051.60 178.8526
1051.70 177.8778
1051.80 177.2968
1051.90 177.6865
1052.00 180.2635
1052.10 183.1611
1052.20 187.0812
1052.30 191.7784
1052.40 196.7636
1052.50 202.6532
1052.60 208.9875
1052.70 215.7107
1052.80 219.066
1052.90 222.0685
1053.00 223.8543
1053.10 224.4589
1053.20 224.1195
1053.30 223.7152
1053.40 223.3223
1053.50 222.6762
1053.60 221.267
1053.70 219.9784
1053.80 219.1311
1053.90 218.8291
1054.00 218.5012
1054.10 217.6918
1054.20 216.6531
1054.30 215.8382
1054.40 212.1976
1054.50 208.3287
1054.60 204.3137
1054.70 200.4121
1054.80 196.0521
1054.90 195.0691
1055.00 196.688
1055.10 199.0374
1055.20 201.8836
1055.30 205.0638
1055.40 207.5606
1055.50 204.3432
1055.60 200.5513
1055.70 195.217
1055.80 188.7231
1055.90 181.2178
1056.00 177.4144
1056.10 174.6586
1056.20 172.6183
1056.30 173.5823
1056.40 174.9599
1056.50 176.9855
1056.60 179.3785
1056.70 182.1957
1056.80 183.8034
1056.90 184.9189
1057.00 185.9422
1057.10 186.6343
1057.20 187.413
1057.30 188.8999
1057.40 191.5558
1057.50 194.1827
1057.60 196.425
1057.70 198.4587
1057.80 200.4063
1057.90 201.5954
1058.00 202.6945
1058.10 203.0924
1058.20 201.7767
1058.30 200.3622
1058.40 199.3116
1058.50 198.5706
1058.60 197.0592
1058.70 195.1703
1058.80 193.1825
1058.90 191.4453
1059.00 191.2596
1059.10 191.2343
1059.20 191.1493
1059.30 190.902
1059.40 191.5887
1059.50 192.592
1059.60 193.6596
1059.70 194.5756
1059.80 194.0264
1059.90 193.2705
1060.00 192.0576
1060.10 190.4665
1060.20 188.4854
1060.30 186.3241
1060.40 184.1315
1060.50 181.9987
1060.60 180.3281
1060.70 178.6672
1060.80 177.733
1060.90 178.1866
1061.00 178.5379
1061.10 180.0943
1061.20 182.3932
1061.30 185.715
1061.40 187.1739
1061.50 188.6492
1061.60 190.1245
1061.70 191.1857
1061.80 191.678
1061.90 191.9946
1062.00 192.3716
1062.10 191.8297
1062.20 193.679
1062.30 196.0265
1062.40 198.8843
1062.50 202.284
1062.60 206.5663
1062.70 210.7549
1062.80 214.3089
1062.90 218.2967
1063.00 219.196
1063.10 219.0264
1063.20 217.9614
1063.30 218.2826
1063.40 218.1114
1063.50 218.69
1063.60 220.8835
1063.70 223.4088
1063.80 225.6811
1063.90 228.0362
1064.00 231.3084
1064.10 231.6447
1064.20 231.7248
1064.30 231.298
1064.40 230.4662
1064.50 229.346
1064.60 229.0115
1064.70 229.0985
1064.80 228.9326
1064.90 227.8873
1065.00 226.9846
1065.10 225.2331
1065.20 220.4599
1065.30 215.0872
1065.40 209.6194
1065.50 204.2497
1065.60 198.3644
1065.70 197.0251
1065.80 196.3064
1065.90 195.3255
1066.00 192.8192
1066.10 190.8805
1066.20 188.4796
1066.30 185.3279
1066.40 182.1321
1066.50 180.6472
1066.60 179.4903
1066.70 178.5647
1066.80 180.9656
1066.90 183.2491
1067.00 184.7451
1067.10 185.3193
1067.20 186.5956
1067.30 190.5208
1067.40 195.5085
1067.50 201.2309
1067.60 206.3135
1067.70 211.5504
1067.80 216.5447
1067.90 220.8222
1068.00 224.4774
1068.10 227.4563
1068.20 230.1639
1068.30 232.7516
1068.40 234.7355
1068.50 236.7697
1068.60 238.4517
1068.70 239.005
1068.80 239.2309
1068.90 238.3042
1069.00 236.6374
1069.10 234.4088
1069.20 231.9576
1069.30 229.3555
1069.40 225.8142
1069.50 219.62
1069.60 213.4298
1069.70 209.329
1069.80 207.1548
1069.90 205.5676
1070.00 206.2763
1070.10 207.4839
1070.20 208.8203
1070.30 210.4363
1070.40 212.0257
1070.50 212.0951
1070.60 210.3293
1070.70 208.8923
1070.80 209.7249
1070.90 211.3018
1071.00 213.1324
1071.10 216.6415
1071.20 219.9386
1071.30 222.8533
1071.40 225.4499
1071.50 228.2567
1071.60 230.4075
1071.70 232.2754
1071.80 234.4254
1071.90 234.6979
1072.00 234.7176
1072.10 234.1285
1072.20 232.7857
1072.30 230.8327
1072.40 229.2265
1072.50 227.9759
1072.60 226.8673
1072.70 228.1661
1072.80 229.8889
1072.90 231.4351
1073.00 231.2178
1073.10 231.3369
1073.20 231.8287
1073.30 232.5096
1073.40 232.4728
1073.50 232.4381
1073.60 232.3978
1073.70 232.6302
1073.80 234.3643
1073.90 236.6225
1074.00 238.5535
1074.10 239.7533
1074.20 241.2727
1074.30 244.1383
1074.40 247.2349
1074.50 249.8056
1074.60 251.5008
1074.70 253.0854
1074.80 253.0539
1074.90 250.6363
1075.00 247.8608
1075.10 242.6931
1075.20 236.3619
1075.30 229.2783
1075.40 226.6008
1075.50 223.9839
1075.60 223.4752
1075.70 227.3065
1075.80 232.3836
1075.90 236.1264
1076.00 238.9354
1076.10 242.1442
1076.20 241.0451
1076.30 239.4688
1076.40 238.1655
1076.50 238.5539
1076.60 238.5027
1076.70 239.5766
1076.80 241.6795
1076.90 244.1306
1077.00 245.676
1077.10 247.0109
1077.20 247.6053
1077.30 245.4892
1077.40 243.2075
1077.50 241.8014
1077.60 241.3993
1077.70 240.6888
1077.80 241.4364
1077.90 242.7517
1078.00 244.5394
1078.10 245.7758
1078.20 247.1582
1078.30 247.2988
1078.40 245.5787
1078.50 243.498
1078.60 240.6965
1078.70 237.5151
1078.80 233.7854
1078.90 229.3555
1079.00 224.8806
1079.10 220.3792
1079.20 215.9089
1079.30 211.3404
1079.40 209.6109
1079.50 209.4222
1079.60 209.645
1079.70 212.8812
1079.80 216.5248
1079.90 220.1437
1080.00 222.7116
1080.10 225.5561
1080.20 227.4981
1080.30 228.7594
1080.40 230.1159
1080.50 233.2392
1080.60 236.5076
1080.70 239.3369
1080.80 240.8278
1080.90 242.0745
1081.00 243.2767
1081.10 244.5393
1081.20 245.5173
1081.30 247.0143
1081.40 248.7646
1081.50 251.1307
1081.60 255.2709
1081.70 259.4701
1081.80 261.2397
1081.90 259.9955
1082.00 258.1025
1082.10 254.7725
1082.20 250.8483
1082.30 246.4631
1082.40 242.5101
1082.50 238.5101
1082.60 236.5967
1082.70 238.1506
1082.80 240.1823
1082.90 243.2156
1083.00 246.8136
1083.10 251.0803
1083.20 255.2351
1083.30 259.7658
1083.40 263.7319
1083.50 265.5709
1083.60 266.9593
1083.70 266.5395
1083.80 265.0054
1083.90 262.8642
1084.00 261.4857
1084.10 259.8988
1084.20 257.2394
1084.30 252.3467
1084.40 247.3989
1084.50 244.3076
1084.60 242.7398
1084.70 240.8746
1084.80 239.5608
1084.90 238.6382
1085.00 238.6593
1085.10 240.6708
1085.20 242.8259
1085.30 243.5165
1085.40 242.5439
1085.50 241.6448
1085.60 244.3566
1085.70 248.0548
1085.80 251.8747
1085.90 256.1995
1086.00 261.0761
1086.10 265.4337
1086.20 268.5149
1086.30 271.5464
1086.40 271.2714
1086.50 269.4331
1086.60 266.7467
1086.70 267.4652
1086.80 268.0074
1086.90 268.4309
1087.00 268.924
1087.10 270.17
1087.20 270.4671
1087.30 270.1758
1087.40 269.7213
1087.50 266.9195
1087.60 263.6022
1087.70 260.2131
1087.80 257.9239
1087.90 255.9562
1088.00 255.1372
1088.10 255.0985
1088.20 255.5176
1088.30 255.8465
1088.40 256.1583
1088.50 256.542
1088.60 257.2366
1088.70 257.674
1088.80 256.742
1088.90 254.6449
1089.00 252.6162
1089.10 251.3652
1089.20 250.0597
1089.30 248.8909
1089.40 251.113
1089.50 253.8013
1089.60 256.9816
1089.70 260.4561
1089.80 265.391
1089.90 271.0514
1090.00 276.8733
1090.10 282.2689
1090.20 283.7396
1090.30 284.6051
1090.40 283.3503
1090.50 279.4367
1090.60 274.573
1090.70 267.3166
1090.80 259.0739
1090.90 250.8815
1091.00 249.9913
1091.10 249.0553
1091.20 249.8752
1091.30 254.5165
1091.40 260.2092
1091.50 265.9709
1091.60 271.7796
1091.70 278.4042
1091.80 279.902
1091.90 280.8216
1092.00 280.826
1092.10 278.9684
1092.20 276.3356
1092.30 273.1072
1092.40 269.5626
1092.50 265.6699
1092.60 263.1106
1092.70 260.9095
1092.80 259.4805
1092.90 260.4358
1093.00 261.58
1093.10 263.1896
1093.20 265.1826
1093.30 267.1196
1093.40 267.184
1093.50 266.6601
1093.60 265.879
1093.70 265.4302
1093.80 265.1734
1093.90 265.1728
1094.00 265.3686
1094.10 266.4097
1094.20 265.8029
1094.30 264.3206
1094.40 261.9715
1094.50 258.3396
1094.60 254.2444
1094.70 252.6642
1094.80 256.1513
1094.90 260.2025
1095.00 267.055
1095.10 275.7301
1095.20 286.3135
1095.30 292.1857
1095.40 297.8434
1095.50 301.3527
1095.60 300.1143
1095.70 297.7947
1095.80 295.3827
1095.90 292.8999
1096.00 289.4758
1096.10 290.0347
1096.20 291.1876
1096.30 292.2525
1096.40 292.0098
1096.50 292.1767
1096.60 288.9009
1096.70 282.5113
1096.80 275.1783
1096.90 267.8437
1097.00 260.1085
1097.10 252.6724
1097.20 250.0927
1097.30 247.9894
1097.40 248.8148
1097.50 252.7282
1097.60 258.209
1097.70 262.7299
1097.80 267.2065
1097.90 271.7506
1098.00 272.8661
1098.10 273.5493
1098.20 272.3526
1098.30 268.8007
1098.40 264.5152
1098.50 261.6541
1098.60 259.2731
1098.70 256.7632
1098.80 258.2617
1098.90 259.9842
1099.00 262.8764
1099.10 267.7117
1099.20 273.1288
1099.30 276.5499
1099.40 278.8509
1099.50 281.1253
1099.60 282.5842
1099.70 284.0188
1099.80 284.7447
1099.90 283.6466
1100.00 282.1443
1100.10 280.5589
1100.20 278.9203
1100.30 276.9315
1100.40 274.4351
1100.50 271.8141
1100.60 269.4216
1100.70 268.2011
1100.80 267.2489
1100.90 266.8375
1101.00 266.8955
1101.10 267.5092
1101.20 268.1344
1101.30 268.8285
1101.40 269.5049
1101.50 269.4905
1101.60 269.3755
1101.70 268.6206
1101.80 267.1563
1101.90 264.8141
1102.00 260.9801
1102.10 256.5823
1102.20 252.4415
1102.30 254.0145
1102.40 255.8109
1102.50 258.3357
1102.60 261.8032
1102.70 266.5174
1102.80 268.6788
1102.90 269.8118
1103.00 270.9423
1103.10 266.1917
1103.20 260.581
1103.30 255.1779
1103.40 251.4603
1103.50 246.6484
1103.60 244.1106
1103.70 243.1809
1103.80 243.2627
1103.90 245.7235
1104.00 248.8742
1104.10 252.3641
1104.20 255.3367
1104.30 258.2319
1104.40 260.371
1104.50 261.9699
1104.60 263.5427
1104.70 262.9988
1104.80 262.3034
1104.90 261.3734
1105.00 258.968
1105.10 255.6259
1105.20 250.6098
1105.30 244.1639
1105.40 236.6815
1105.50 233.5456
1105.60 231.5371
1105.70 230.2944
1105.80 232.09
1105.90 234.9034
1106.00 237.7605
1106.10 240.1703
1106.20 242.9357
1106.30 243.6671
1106.40 243.7735
1106.50 243.6868
1106.60 240.5651
1106.70 236.8975
1106.80 234.4273
1106.90 234.3908
1107.00 233.7833
1107.10 234.5892
1107.20 236.2087
1107.30 238.3571
1107.40 239.9465
1107.50 241.7736
1107.60 242.4646
1107.70 240.3905
1107.80 238.7232
1107.90 240.4482
1108.00 244.0271
1108.10 247.1846
1108.20 252.1546
1108.30 257.7244
1108.40 262.9411
1108.50 265.881
1108.60 268.1423
1108.70 268.4487
1108.80 267.305
1108.90 265.7479
1109.00 264.7031
1109.10 263.5302
1109.20 263.0091
1109.30 266.2185
1109.40 270.0204
1109.50 273.3681
1109.60 276.1307
1109.70 279.2608
1109.80 277.489
1109.90 274.3376
1110.00 270.1011
1110.10 261.6512
1110.20 252.437
1110.30 245.4884
1110.40 241.8021
1110.50 238.1346
1110.60 237.484
1110.70 238.1797
1110.80 239.3468
1110.90 237.9961
1111.00 236.7173
1111.10 234.5732
1111.20 230.9567
1111.30 226.4876
1111.40 224.8828
1111.50 224.6479
1111.60 224.5957
1111.70 225.944
1111.80 227.9052
1111.90 229.2203
1112.00 228.1879
1112.10 227.3493
1112.20 229.1891
1112.30 232.5131
1112.40 235.5623
1112.50 240.3218
1112.60 245.3122
1112.70 250.2283
1112.80 254.6106
1112.90 259.3723
1113.00 261.2659
1113.10 260.8075
1113.20 260.1252
1113.30 257.3602
1113.40 254.1124
1113.50 250.2994
1113.60 244.995
1113.70 238.9608
1113.80 236.6518
1113.90 238.2749
1114.00 240.002
1114.10 246.1734
1114.20 253.7576
1114.30 261.6158
1114.40 267.8856
1114.50 274.9346
1114.60 278.2621
1114.70 276.4353
1114.80 273.6405
1114.90 269.4099
1115.00 264.4233
1115.10 259.0368
1115.20 255.1123
1115.30 251.2779
1115.40 249.8656
1115.50 252.5053
1115.60 255.5005
1115.70 257.8526
1115.80 259.9022
1115.90 261.9237
1116.00 261.5372
1116.10 260.7761
1116.20 259.6245
1116.30 258.1145
1116.40 256.8355
1116.50 255.7058
1116.60 254.6436
1116.70 253.5388
1116.80 250.2709
1116.90 246.8355
1117.00 242.7086
1117.10 236.5768
1117.20 229.9763
1117.30 225.2602
1117.40 222.1765
1117.50 219.5341
1117.60 221.35
1117.70 224.234
1117.80 227.9102
1117.90 233.5625
1118.00 239.4086
1118.10 245.435
1118.20 251.1674
1118.30 256.8972
1118.40 260.0577
1118.50 262.6353
1118.60 264.675
1118.70 262.2258
1118.80 259.3581
1118.90 256.1392
1119.00 252.5273
1119.10 249.0697
1119.20 248.1372
1119.30 247.3248
1119.40 246.8371
1119.50 246.7172
1119.60 246.6295
1119.70 246.557
1119.80 247.4265
1119.90 248.7815
1120.00 250.2075
1120.10 251.6178
1120.20 252.9707
1120.30 254.5024
1120.40 256.4209
1120.50 259.6163
1120.60 262.8567
1120.70 266.2397
1120.80 266.4037
1120.90 266.17
1121.00 265.62
1121.10 264.6071
1121.20 263.3244
1121.30 261.5892
1121.40 259.5385
1121.50 257.246
1121.60 254.8402
1121.70 252.3026
1121.80 249.6996
1121.90 247.1407
1122.00 244.7386
1122.10 243.3473
1122.20 242.1205
1122.30 241.828
1122.40 244.0158
1122.50 247.7708
1122.60 252.0916
1122.70 256.4336
1122.80 260.3859
1122.90 263.8798
1123.00 266.3381
1123.10 264.3181
1123.20 262.0398
1123.30 258.7277
1123.40 256.6473
1123.50 254.8015
1123.60 253.0295
1123.70 253.902
1123.80 256.6868
1123.90 260.6155
1124.00 265.0698
1124.10 269.5482
1124.20 274.3257
1124.30 279.1006
1124.40 278.7813
1124.50 278.2774
1124.60 276.9328
1124.70 272.6975
1124.80 267.8276
1124.90 261.3201
1125.00 255.5913
1125.10 250.5712
1125.20 246.1166
1125.30 243.8221
1125.40 245.7435
1125.50 248.1622
1125.60 251.3535
1125.70 256.1754
1125.80 261.0001
1125.90 265.8379
1126.00 267.475
1126.10 268.312
1126.20 268.2502
1126.30 268.3901
1126.40 268.7776
1126.50 269.3996
1126.60 270.8895
1126.70 274.2082
1126.80 277.6205
1126.90 281.0745
1127.00 281.3336
1127.10 281.5177
1127.20 281.2774
1127.30 276.6873
1127.40 270.8702
1127.50 264.9926
1127.60 261.2058
1127.70 259.3553
1127.80 257.5501
1127.90 256.5343
1128.00 257.5839
1128.10 258.6888
1128.20 259.8843
1128.30 261.4983
1128.40 263.1308
1128.50 264.8772
1128.60 265.0834
1128.70 264.8031
1128.80 264.592
1128.90 265.0766
1129.00 266.2207
1129.10 267.3109
1129.20 268.068
1129.30 267.9203
1129.40 267.8765
1129.50 268.002
1129.60 267.8006
1129.70 267.6208
1129.80 267.5985
1129.90 267.0073
1130.00 266.2162
1130.10 264.9159
1130.20 262.7695
1130.30 259.8214
1130.40 256.2365
1130.50 252.7743
1130.60 250.9366
1130.70 249.2843
1130.80 247.9617
1130.90 249.0799
1131.00 250.3425
1131.10 252.3697
1131.20 255.9823
1131.30 260.1814
1131.40 264.8356
1131.50 268.0176
1131.60 269.5245
1131.70 270.8856
1131.80 271.9545
1131.90 272.318
1132.00 272.5513
1132.10 272.5425
1132.20 270.9428
1132.30 269.2556
1132.40 267.2225
1132.50 266.993
1132.60 267.5002
1132.70 267.8072
1132.80 266.8522
1132.90 264.4571
1133.00 262.2213
1133.10 259.7721
1133.20 256.1211
1133.30 252.4285
1133.40 248.6551
1133.50 245.1702
1133.60 241.6859
1133.70 238.0863
1133.80 235.1312
1133.90 232.4525
1134.00 228.9355
1134.10 225.2622
1134.20 221.593
1134.30 218.3535
1134.40 216.1935
1134.50 217.1573
1134.60 218.5816
1134.70 220.8996
1134.80 226.2444
1134.90 231.84
1135.00 238.099
1135.10 242.5958
1135.20 246.3008
1135.30 248.8281
1135.40 249.2766
1135.50 247.3864
1135.60 245.0845
1135.70 242.7796
1135.80 241.7324
1135.90 240.9425
1136.00 240.675
1136.10 241.4981
1136.20 242.4378
1136.30 243.9189
1136.40 244.2612
1136.50 244.0676
1136.60 243.3471
1136.70 241.9822
1136.80 239.9064
1136.90 237.4081
1137.00 234.6136
1137.10 231.8623
1137.20 229.2112
1137.30 226.7728
1137.40 222.3533
1137.50 217.78
1137.60 213.1435
1137.70 204.6118
1137.80 194.1614
1137.90 182.6327
1138.00 173.2065
1138.10 167.0107
1138.20 160.7501
1138.30 156.1933
1138.40 160.1924
1138.50 164.9187
1138.60 171.1899
1138.70 181.6603
1138.80 192.6311
1138.90 205.399
1139.00 213.7403
1139.10 219.9012
1139.20 225.3593
1139.30 227.6104
1139.40 225.6455
1139.50 222.7531
1139.60 218.5983
1139.70 211.489
1139.80 204.1382
1139.90 196.2737
1140.00 186.2612
1140.10 175.9744
1140.20 164.8645
1140.30 156.3727
1140.40 149.2297
1140.50 142.1614
1140.60 139.381
1140.70 142.7455
1140.80 147.1346
1140.90 153.4036
1141.00 165.4831
1141.10 178.2439
1141.20 192.5213
1141.30 204.6016
1141.40 216.4658
1141.50 228.3496
1141.60 235.0835
1141.70 239.1644
1141.80 242.5501
1141.90 245.3496
1142.00 247.5403
1142.10 249.3007
1142.20 250.6064
1142.30 251.3001
1142.40 251.924
1142.50 252.3924
1142.60 254.3312
1142.70 256.3886
1142.80 258.0275
1142.90 258.3816
1143.00 258.0439
1143.10 257.5583
1143.20 256.5158
1143.30 254.6868
1143.40 252.802
1143.50 250.9811
1143.60 249.7607
1143.70 248.575
1143.80 247.463
1143.90 246.2089
1144.00 244.9553
1144.10 243.9192
1144.20 243.2414
1144.30 242.7567
1144.40 242.3235
1144.50 241.9421
1144.60 241.6212
1144.70 241.3527
1144.80 241.435
1144.90 243.2799
1145.00 245.1013
1145.10 246.8728
1145.20 247.2608
1145.30 247.488
1145.40 247.621
1145.50 248.0866
1145.60 248.7313
1145.70 249.2442
1145.80 250.2599
1145.90 252.0734
1146.00 254.1036
1146.10 256.3606
1146.20 258.9769
1146.30 261.7553
1146.40 264.878
1146.50 267.507
1146.60 270.0581
1146.70 272.302
1146.80 273.0317
1146.90 272.9459
1147.00 272.4275
1147.10 271.439
1147.20 269.888
1147.30 268.3094
1147.40 266.9844
1147.50 267.2136
1147.60 267.5966
1147.70 268.292
1147.80 270.9259
1147.90 273.7538
1148.00 276.6077
1148.10 278.0374
1148.20 278.7332
1148.30 278.9987
1148.40 278.5511
1148.50 277.2043
1148.60 276.0429
1148.70 275.3923
1148.80 276.7186
1148.90 278.1282
1149.00 279.7069
1149.10 280.4885
1149.20 281.1702
1149.30 281.6095
1149.40 280.3914
1149.50 278.3194
1149.60 275.9436
1149.70 274.2774
1149.80 273.7157
1149.90 273.2936
1150.00 273.3118
1150.10 275.1317
1150.20 276.9831
1150.30 278.8952
1150.40 281.1073
1150.50 283.3451
1150.60 285.543
1150.70 285.8908
1150.80 285.2854
1150.90 284.8937
1151.00 284.7144
1151.10 284.7724
1151.20 284.7203
1151.30 284.398
1151.40 283.1146
1151.50 281.7145
1151.60 280.0974
1151.70 278.6599
1151.80 277.2147
1151.90 275.5608
1152.00 272.3877
1152.10 268.4663
1152.20 264.1962
1152.30 260.3446
1152.40 257.156
1152.50 254.1774
1152.60 251.8565
1152.70 252.0903
1152.80 252.5365
1152.90 253.3603
1153.00 256.0594
1153.10 258.9303
1153.20 262.0487
1153.30 263.4551
1153.40 264.0559
1153.50 264.5345
1153.60 265.0826
1153.70 265.7491
1153.80 266.7354
1153.90 267.9942
1154.00 269.6022
1154.10 271.1944
1154.20 272.76
1154.30 273.96
1154.40 275.0185
1154.50 275.2404
1154.60 275.2039
1154.70 275.0513
1154.80 274.5294
1154.90 274.1883
1155.00 274.1474
1155.10 274.4529
1155.20 274.8323
1155.30 274.6593
1155.40 274.7675
1155.50 275.3347
1155.60 275.3048
1155.70 275.2061
1155.80 274.9013
1155.90 275.857
1156.00 277.3529
1156.10 278.6193
1156.20 279.7033
1156.30 280.5988
1156.40 281.4528
1156.50 282.0162
1156.60 281.5114
1156.70 280.9382
1156.80 280.2582
1156.90 278.8531
1157.00 277.3614
1157.10 275.5503
1157.20 273.2435
1157.30 270.7342
1157.40 268.3658
1157.50 266.5667
1157.60 265.4176
1157.70 264.5777
1157.80 264.5215
1157.90 266.8141
1158.00 269.1992
1158.10 271.7176
1158.20 273.9902
1158.30 276.2132
1158.40 278.2155
1158.50 276.9233
1158.60 274.3499
1158.70 271.4421
1158.80 268.1938
1158.90 264.5943
1159.00 260.731
1159.10 256.8044
1159.20 253.1007
1159.30 249.4241
1159.40 245.7848
1159.50 244.8773
1159.60 244.0661
1159.70 243.4393
1159.80 243.3416
1159.90 243.4394
1160.00 244.1296
1160.10 245.5939
1160.20 247.8175
1160.30 250.3685
1160.40 252.7826
1160.50 254.2972
1160.60 255.6322
1160.70 256.7388
1160.80 259.1584
1160.90 261.5496
1161.00 263.8272
1161.10 266.4801
1161.20 269.2582
1161.30 272.3842
1161.40 274.266
1161.50 274.8853
1161.60 275.5004
1161.70 275.6253
1161.80 274.3603
1161.90 272.6603
1162.00 270.4665
1162.10 269.948
1162.20 269.4219
1162.30 268.8677
1162.40 270.2081
1162.50 272.1144
1162.60 274.7425
1162.70 277.553
1162.80 280.5112
1162.90 283.8315
1163.00 286.3987
1163.10 286.5492
1163.20 286.3935
1163.30 285.8172
1163.40 282.3641
1163.50 278.6916
1163.60 274.2851
1163.70 270.5384
1163.80 266.9777
1163.90 263.3243
1164.00 262.1108
1164.10 262.9766
1164.20 264.6187
1164.30 266.9375
1164.40 270.2453
1164.50 273.8209
1164.60 277.4264
1164.70 276.5145
1164.80 275.4547
1164.90 273.9513
1165.00 270.6588
1165.10 266.9093
1165.20 262.2002
1165.30 258.8086
1165.40 256.4521
1165.50 254.2428
1165.60 253.4171
1165.70 255.5732
1165.80 258.2942
1165.90 261.4955
1166.00 264.151
1166.10 266.9166
1166.20 269.9657
1166.30 270.4661
1166.40 270.393
1166.50 269.8596
1166.60 268.5797
1166.70 266.7594
1166.80 264.4864
1166.90 262.2661
1167.00 260.3969
1167.10 258.4677
1167.20 256.5626
1167.30 255.4181
1167.40 254.2582
1167.50 253.0627
1167.60 251.1444
1167.70 249.0935
1167.80 247.1213
1167.90 244.4713
1168.00 241.3694
1168.10 238.1026
1168.20 233.2422
1168.30 225.4939
1168.40 217.3501
1168.50 208.4545
1168.60 195.8909
1168.70 182.9788
1168.80 169.3262
1168.90 159.0191
1169.00 149.2422
1169.10 139.3006
1169.20 136.4835
1169.30 138.0331
1169.40 141.3706
1169.50 147.6637
1169.60 158.4094
1169.70 170.635
1169.80 183.7151
1169.90 195.6318
1170.00 207.803
1170.10 220.4469
1170.20 229.3365
1170.30 237.6385
1170.40 244.9416
1170.50 250.2248
1170.60 254.3717
1170.70 257.607
1170.80 259.7435
1170.90 260.4543
1171.00 260.8246
1171.10 260.9152
1171.20 260.6036
1171.30 260.2714
1171.40 259.9059
1171.50 260.0707
1171.60 260.2691
1171.70 260.3413
1171.80 260.2431
1171.90 260.0608
1172.00 259.8121
1172.10 259.7675
1172.20 260.0161
1172.30 260.3509
1172.40 260.914
1172.50 262.3052
1172.60 263.8268
1172.70 265.5439
1172.80 266.7183
1172.90 267.8494
1173.00 268.9351
1173.10 268.8544
1173.20 268.2496
1173.30 267.3244
1173.40 265.8701
1173.50 263.8033
1173.60 261.6029
1173.70 259.687
1173.80 259.0772
1173.90 258.5084
1174.00 257.9939
1174.10 259.3479
1174.20 260.8764
1174.30 262.8169
1174.40 264.5689
1174.50 266.2477
1174.60 267.7852
1174.70 267.7493
1174.80 266.0169
1174.90 263.907
1175.00 261.2741
1175.10 257.4064
1175.20 253.3232
1175.30 248.987
1175.40 246.6985
1175.50 244.5216
1175.60 242.6667
1175.70 241.1157
1175.80 239.6661
1175.90 238.4419
1176.00 236.4225
1176.10 233.6032
1176.20 230.5813
1176.30 226.2568
1176.40 218.4276
1176.50 210.2504
1176.60 201.6193
1176.70 188.4872
1176.80 175.0436
1176.90 160.6655
1177.00 147.2158
1177.10 134.0214
1177.20 120.1848
1177.30 112.1027
1177.40 109.1237
1177.50 107.4509
1177.60 108.7893
1177.70 116.5444
1177.80 125.8398
1177.90 136.637
1178.00 150.014
1178.10 163.7683
1178.20 178.4929
1178.30 189.8935
1178.40 200.4922
1178.50 210.5617
1178.60 218.8417
1178.70 225.7155
1178.80 231.7849
1178.90 236.6358
1179.00 239.325
1179.10 241.5936
1179.20 243.4335
1179.30 244.1436
1179.40 244.7258
1179.50 245.0363
1179.60 245.8323
1179.70 246.7287
1179.80 247.7168
1179.90 249.5976
1180.00 252.0734
1180.10 254.724
1180.20 257.2466
1180.30 259.4649
1180.40 261.5514
1180.50 263.2885
1180.60 262.9412
1180.70 262.4523
1180.80 261.7004
1180.90 260.2252
1181.00 258.6144
1181.10 256.7818
1181.20 255.2311
1181.30 253.846
1181.40 252.5126
1181.50 251.7352
1181.60 251.8152
1181.70 252.1553
1181.80 252.8014
1181.90 254.3164
1182.00 255.9113
1182.10 257.6312
1182.20 258.6146
1182.30 259.4883
1182.40 260.2032
1182.50 260.5859
1182.60 260.7976
1182.70 260.8916
1182.80 260.9231
1182.90 260.8842
1183.00 260.9205
1183.10 260.6105
1183.20 258.5539
1183.30 256.3369
1183.40 253.8983
1183.50 251.6599
1183.60 249.3763
1183.70 246.8288
1183.80 246.896
1183.90 248.0838
1184.00 249.9757
1184.10 252.291
1184.20 255.0505
1184.30 258.2261
1184.40 260.611
1184.50 259.5607
1184.60 258.21
1184.70 256.5068
1184.80 253.9253
1184.90 251.1731
1185.00 247.9112
1185.10 247.4415
1185.20 248.0045
1185.30 248.9724
1185.40 250.7028
1185.50 253.2182
1185.60 256.1702
1185.70 258.9393
1185.80 260.6989
1185.90 262.3822
1186.00 263.968
1186.10 263.4574
1186.20 262.9009
1186.30 262.214
1186.40 260.9279
1186.50 259.4572
1186.60 257.7182
1186.70 256.3336
1186.80 255.2635
1186.90 254.147
1187.00 253.5192
1187.10 254.1196
1187.20 254.8275
1187.30 255.638
1187.40 256.6568
1187.50 257.7758
1187.60 259.1286
1187.70 257.6927
1187.80 255.575
1187.90 253.0251
1188.00 249.2286
1188.10 244.4916
1188.20 239.0047
1188.30 234.542
1188.40 232.493
1188.50 230.5615
1188.60 229.0578
1188.70 231.0213
1188.80 233.4166
1188.90 236.6502
1189.00 239.9603
1189.10 243.3378
1189.20 247.1997
1189.30 249.8638
1189.40 251.762
1189.50 253.317
1189.60 254.9257
1189.70 256.721
1189.80 258.2396
1189.90 259.3353
1190.00 258.7362
1190.10 258.1429
1190.20 257.5589
1190.30 256.7537
1190.40 255.8637
1190.50 254.6485
1190.60 253.8934
1190.70 253.386
1190.80 253.0993
1190.90 253.5965
1191.00 255.1903
1191.10 256.9331
1191.20 258.6752
1191.30 260.0557
1191.40 261.5124
1191.50 263.0703
1191.60 263.824
1191.70 264.4647
1191.80 264.8814
1191.90 264.4236
1192.00 263.5728
1192.10 262.6446
1192.20 262.2559
1192.30 262.5318
1192.40 262.7088
1192.50 262.9007
1192.60 263.3004
1192.70 263.7393
1192.80 264.2226
1192.90 264.7056
1193.00 265.2337
1193.10 265.913
1193.20 264.2856
1193.30 261.8051
1193.40 258.9982
1193.50 255.9858
1193.60 252.7595
1193.70 249.0559
1193.80 245.4688
1193.90 242.6417
1194.00 239.899
1194.10 237.2572
1194.20 235.7492
1194.30 234.3621
1194.40 233.286
1194.50 230.8292
1194.60 227.9737
1194.70 224.8975
1194.80 223.0779
1194.90 222.3287
1195.00 221.5527
1195.10 221.6789
1195.20 223.9258
1195.30 226.6819
1195.40 229.7624
1195.50 231.6566
1195.60 233.5953
1195.70 235.6241
1195.80 234.6893
1195.90 233.0342
1196.00 230.6751
1196.10 228.5184
1196.20 226.5081
1196.30 224.1453
1196.40 222.342
1196.50 221.7455
1196.60 221.4907
1196.70 221.256
1196.80 219.4155
1196.90 217.4898
1197.00 215.4191
1197.10 211.3944
1197.20 206.9867
1197.30 202.0202
1197.40 197.9283
1197.50 194.3498
1197.60 190.7955
1197.70 188.805
1197.80 189.2561
1197.90 190.318
1198.00 192.1582
1198.10 196.6262
1198.20 201.433
1198.30 206.7078
1198.40 210.0439
1198.50 213.1874
1198.60 216.327
1198.70 216.3159
1198.80 214.822
1198.90 212.5161
1199.00 209.2002
1199.10 204.6532
1199.20 199.5847
1199.30 195.1438
1199.40 194.0653
1199.50 193.1571
1199.60 192.4406
1199.70 193.0469
1199.80 193.8627
1199.90 195.1956
1200.00 196.3987
1200.10 197.5514
1200.20 198.5286
1200.30 199.5587
1200.40 200.6438
1200.50 201.884
1200.60 203.4008
1200.70 205.6001
1200.80 207.8526
1200.90 210.1417
1201.00 211.1864
1201.10 212.1565
1201.20 212.935
1201.30 212.186
1201.40 210.9626
1201.50 209.3951
1201.60 208.1415
1201.70 207.1555
1201.80 206.3434
1201.90 205.9357
1202.00 206.3764
1202.10 206.9544
1202.20 207.6512
1202.30 208.5859
1202.40 209.4138
1202.50 210.0344
1202.60 208.822
1202.70 207.1929
1202.80 205.4341
1202.90 204.6492
1203.00 204.5411
1203.10 204.5734
1203.20 205.8405
1203.30 209.3583
1203.40 213.3971
1203.50 217.8673
1203.60 223.3513
1203.70 228.9223
1203.80 234.6296
1203.90 237.1166
1204.00 239.0595
1204.10 240.6458
1204.20 239.9849
1204.30 238.0602
1204.40 235.2305
1204.50 232.8401
1204.60 231.2264
1204.70 229.6579
1204.80 228.6254
1204.90 230.2946
1205.00 232.2355
1205.10 234.522
1205.20 237.7128
1205.30 241.0673
1205.40 244.7814
1205.50 247.6904
1205.60 250.2377
1205.70 252.5953
1205.80 254.1704
1205.90 254.7963
1206.00 255.1442
1206.10 254.8576
1206.20 252.6859
1206.30 250.3532
1206.40 247.8595
1206.50 245.1408
1206.60 242.304
1206.70 239.144
1206.80 238.7844
1206.90 239.4285
1207.00 240.7131
1207.10 243.2454
1207.20 246.9765
1207.30 251.2258
1207.40 255.3453
1207.50 258.7408
1207.60 262.2793
1207.70 265.8666
1207.80 267.2483
1207.90 268.3677
1208.00 268.9295
1208.10 267.9
1208.20 266.4436
1208.30 264.6523
1208.40 260.9676
1208.50 255.7953
1208.60 250.0367
1208.70 244.461
1208.80 239.5111
1208.90 234.333
1209.00 229.5621
1209.10 230.3833
1209.20 231.5542
1209.30 233.3207
1209.40 238.4316
1209.50 244.3625
1209.60 251.7053
1209.70 255.7664
1209.80 257.8161
1209.90 259.7976
1210.00 259.1483
1210.10 254.219
1210.20 247.9319
1210.30 240.8617
1210.40 233.0883
1210.50 224.9275
1210.60 216.2528
1210.70 212.2299
1210.80 208.7629
1210.90 205.7038
1211.00 205.5204
1211.10 206.7535
1211.20 209.1714
1211.30 211.8028
1211.40 214.6517
1211.50 217.9227
1211.60 221.3634
1211.70 224.8261
1211.80 228.4486
1211.90 232.2374
1212.00 237.063
1212.10 241.9932
1212.20 247.1075
1212.30 249.7965
1212.40 251.5758
1212.50 252.7338
1212.60 251.3791
1212.70 247.4092
1212.80 242.5175
1212.90 237.6578
1213.00 233.6296
1213.10 229.2226
1213.20 224.6539
1213.30 227.3541
1213.40 230.5344
1213.50 234.7836
1213.60 240.9762
1213.70 247.7947
1213.80 255.8676
1213.90 261.5565
1214.00 265.2948
1214.10 268.6728
1214.20 270.8424
1214.30 270.5901
1214.40 269.5053
1214.50 267.9892
1214.60 267.6336
1214.70 267.2492
1214.80 266.8161
1214.90 267.136
1215.00 267.646
1215.10 268.5072
1215.20 267.9829
1215.30 266.5727
1215.40 264.98
1215.50 262.9123
1215.60 260.1023
1215.70 257.0157
1215.80 254.0909
1215.90 252.9981
1216.00 252.0378
1216.10 251.246
1216.20 252.2371
1216.30 253.4982
1216.40 255.0461
1216.50 257.1499
1216.60 259.5274
1216.70 262.1461
1216.80 264.1608
1216.90 265.3973
1217.00 266.566
1217.10 267.3912
1217.20 266.9432
1217.30 266.3168
1217.40 265.512
1217.50 265.9681
1217.60 266.4237
1217.70 266.7673
1217.80 268.1979
1217.90 270.0475
1218.00 272.4423
1218.10 274.8117
1218.20 277.1558
1218.30 279.6777
1218.40 281.226
1218.50 279.8767
1218.60 278.1321
1218.70 276.0969
1218.80 274.709
1218.90 273.1405
1219.00 271.205
1219.10 269.7597
1219.20 268.5033
1219.30 267.8395
1219.40 267.4956
1219.50 267.403
1219.60 267.3423
1219.70 267.1088
1219.80 266.4976
1219.90 265.7866
1220.00 265.1181
1220.10 265.4718
1220.20 265.8409
1220.30 266.234
1220.40 266.3564
1220.50 266.5233
1220.60 267.1556
1220.70 266.2204
1220.80 264.3245
1220.90 261.9554
1221.00 259.5066
1221.10 256.9975
1221.20 253.8961
1221.30 250.7508
1221.40 248.864
1221.50 247.0316
1221.60 245.2633
1221.70 244.7347
1221.80 244.4681
1221.90 244.7482
1222.00 244.6528
1222.10 244.3888
1222.20 244.4483
1222.30 244.897
1222.40 245.8174
1222.50 246.5862
1222.60 248.139
1222.70 252.6411
1222.80 257.4339
1222.90 262.495
1223.00 268.513
1223.10 274.7449
1223.20 281.4526
1223.30 285.6343
1223.40 288.9527
1223.50 291.937
1223.60 292.9023
1223.70 292.0039
1223.80 290.3047
1223.90 288.3817
1224.00 286.3354
1224.10 283.9733
1224.20 281.4878
1224.30 280.8245
1224.40 280.3008
1224.50 280.0256
1224.60 281.1334
1224.70 282.6016
1224.80 284.4859
1224.90 286.0492
1225.00 287.38
1225.10 288.9456
1225.20 289.3616
1225.30 287.589
1225.40 285.4994
1225.50 283.2345
1225.60 280.8812
1225.70 278.2997
1225.80 275.4158
1225.90 275.6826
1226.00 276.4065
1226.10 277.2472
1226.20 279.6344
1226.30 282.8543
1226.40 286.7791
1226.50 289.5525
1226.60 290.6954
1226.70 291.9513
1226.80 292.6276
1226.90 290.4726
1227.00 287.9829
1227.10 285.1448
1227.20 283.9139
1227.30 282.6666
1227.40 281.1321
1227.50 281.802
1227.60 283.3502
1227.70 285.5776
1227.80 287.5848
1227.90 289.3533
1228.00 291.4391
1228.10 293.0974
1228.20 293.2356
1228.30 293.0702
1228.40 292.6273
1228.50 290.2783
1228.60 287.7227
1228.70 284.7477
1228.80 282.1184
1228.90 279.5819
1229.00 277.0539
1229.10 273.8937
1229.20 270.2162
1229.30 266.6489
1229.40 263.7655
1229.50 262.3007
1229.60 260.8
1229.70 259.5532
1229.80 261.0868
1229.90 262.8857
1230.00 265.0824
1230.10 269.3223
1230.20 274.0594
1230.30 279.4642
1230.40 283.0939
1230.50 285.6356
1230.60 287.9926
1230.70 288.9582
1230.80 287.7661
1230.90 285.8764
1231.00 283.7552
1231.10 281.9148
1231.20 279.8864
1231.30 277.6461
1231.40 276.47
1231.50 275.5233
1231.60 275.01
1231.70 274.6453
1231.80 274.3474
1231.90 274.0625
1232.00 273.6591
1232.10 273.1164
1232.20 272.584
1232.30 272.1324
1232.40 271.9416
1232.50 271.7449
1232.60 271.5435
1232.70 269.9141
1232.80 268.2833
1232.90 266.6495
1233.00 265.2897
1233.10 263.98
1233.20 262.2519
1233.30 261.8795
1233.40 262.7093
1233.50 263.834
1233.60 265.2158
1233.70 267.0762
1233.80 269.255
1233.90 271.3827
1234.00 270.2382
1234.10 269.0488
1234.20 267.7892
1234.30 266.5162
1234.40 265.15
1234.50 263.309
1234.60 263.2223
1234.70 264.3051
1234.80 265.7126
1234.90 267.5671
1235.00 270.1345
1235.10 273.1035
1235.20 275.7363
1235.30 275.1953
1235.40 274.4137
1235.50 273.3497
1235.60 271.3444
1235.70 269.0877
1235.80 266.3009
1235.90 264.9052
1236.00 264.1641
1236.10 263.834
1236.20 265.2171
1236.30 268.7806
1236.40 272.8825
1236.50 276.7448
1236.60 279.1002
1236.70 281.5323
1236.80 284.0297
1236.90 282.3712
1237.00 280.3408
1237.10 277.6715
1237.20 273.9905
1237.30 269.934
1237.40 265.367
1237.50 263.0848
1237.60 262.9116
1237.70 263.03
1237.80 263.9078
1237.90 266.5088
1238.00 269.7571
1238.10 273.1937
1238.20 273.0989
1238.30 272.9608
1238.40 272.752
1238.50 267.9136
1238.60 261.8493
1238.70 254.5976
1238.80 247.5555
1238.90 240.6591
1239.00 233.0528
1239.10 227.3282
1239.20 225.0589
1239.30 223.4524
1239.40 222.6119
1239.50 224.9041
1239.60 227.7283
1239.70 231.1768
1239.80 233.4926
1239.90 235.7076
1240.00 238.0063
1240.10 237.5692
1240.20 235.7847
1240.30 233.2237
1240.40 231.1631
1240.50 229.7392
1240.60 228.3234
1240.70 227.7645
1240.80 230.4201
1240.90 233.3509
1241.00 236.5257
1241.10 239.2056
1241.20 241.9973
1241.30 245.0859
1241.40 244.3301
1241.50 242.17
1241.60 239.2996
1241.70 236.0355
1241.80 232.393
1241.90 228.2055
1242.00 224.6976
1242.10 223.2042
1242.20 221.7265
1242.30 220.1933
1242.40 217.4122
1242.50 214.7937
1242.60 212.4408
1242.70 205.7793
1242.80 198.0539
1242.90 189.6599
1243.00 181.5571
1243.10 173.6566
1243.20 165.1187
1243.30 159.5303
1243.40 159.2839
1243.50 159.589
1243.60 160.9985
1243.70 168.1412
1243.80 176.2026
1243.90 185.3425
1244.00 193.7857
1244.10 202.3335
1244.20 211.4908
1244.30 218.608
1244.40 224.7203
1244.50 230.4075
1244.60 235.861
1244.70 241.0172
1244.80 245.8252
1244.90 250.2399
1245.00 253.5656
1245.10 256.7761
1245.20 259.8885
1245.30 260.8232
1245.40 261.6034
1245.50 262.1388
1245.60 261.005
1245.70 259.2765
1245.80 257.1072
1245.90 255.3472
1246.00 253.9652
1246.10 252.1142
1246.20 251.0381
1246.30 252.0617
1246.40 253.3658
1246.50 254.9254
1246.60 257.7945
1246.70 260.9379
1246.80 264.5105
1246.90 266.5729
1247.00 268.3469
1247.10 270.2306
1247.20 270.6307
1247.30 270.0417
1247.40 268.6792
1247.50 267.1205
1247.60 265.327
1247.70 263.427
1247.80 261.5095
1247.90 259.7655
1248.00 258.0489
1248.10 256.3632
1248.20 255.933
1248.30 255.6467
1248.40 255.4232
1248.50 255.9177
1248.60 256.7539
1248.70 257.7774
1248.80 258.5333
1248.90 258.9621
1249.00 259.5482
1249.10 259.9074
1249.20 259.3141
1249.30 258.613
1249.40 257.8272
1249.50 256.8282
1249.60 255.7551
1249.70 254.536
1249.80 254.6895
1249.90 255.2864
1250.00 255.9727
1250.10 256.0976
1250.20 255.7248
1250.30 255.5482
1250.40 255.0925
1250.50 253.917
1250.60 252.5368
1250.70 250.9608
1250.80 248.3124
1250.90 245.6023
1251.00 242.8035
1251.10 240.0977
1251.20 237.3665
1251.30 234.4392
1251.40 229.6327
1251.50 223.6246
1251.60 217.5541
1251.70 209.7263
1251.80 199.0368
1251.90 187.4959
1252.00 175.9212
1252.10 166.0318
1252.20 155.8866
1252.30 145.4751
1252.40 145.5201
1252.50 146.9234
1252.60 149.5408
1252.70 158.325
1252.80 169.9947
1252.90 184.4212
1253.00 197.8759
1253.10 210.1897
1253.20 222.9834
1253.30 234.4844
1253.40 241.2805
1253.50 247.2673
1253.60 252.6678
1253.70 256.2718
1253.80 259.6318
1253.90 262.5384
1254.00 263.9002
1254.10 264.7972
1254.20 265.4798
1254.30 265.8581
1254.40 265.9874
1254.50 265.6501
1254.60 265.2127
1254.70 264.6856
1254.80 263.9897
1254.90 263.4964
1255.00 265.9305
1255.10 268.6406
1255.20 271.7165
1255.30 274.7325
1255.40 277.863
1255.50 281.4614
1255.60 284.4962
1255.70 287.2
1255.80 289.4542
1255.90 290.1324
1256.00 288.4604
1256.10 286.4201
1256.20 284.3
1256.30 282.3892
1256.40 280.1888
1256.50 277.721
1256.60 277.0485
1256.70 276.5709
1256.80 276.2896
1256.90 276.6258
1257.00 277.2335
1257.10 278.1426
1257.20 278.5993
1257.30 278.5849
1257.40 278.7582
1257.50 279.3324
1257.60 280.9461
1257.70 282.5311
1257.80 284.1323
1257.90 286.8451
1258.00 289.6526
1258.10 292.6147
1258.20 293.5781
1258.30 294.0505
1258.40 294.5715
1258.50 292.8533
1258.60 289.4457
1258.70 285.3862
1258.80 281.2628
1258.90 277.1254
1259.00 272.4645
1259.10 267.9039
1259.20 265.9708
1259.30 264.2862
1259.40 262.8819
1259.50 264.4368
1259.60 266.5475
1259.70 269.2598
1259.80 271.7355
1259.90 274.0919
1260.00 276.7087
1260.10 279.1519
1260.20 281.3651
1260.30 283.2424
1260.40 285.1287
1260.50 287.4298
1260.60 289.8283
1260.70 292.3034
1260.80 295.8565
1260.90 299.5853
1261.00 303.6036
1261.10 304.8067
1261.20 305.0058
1261.30 305.0721
1261.40 303.7414
1261.50 301.1212
1261.60 297.5931
1261.70 294.1098
1261.80 291.0683
1261.90 287.6235
1262.00 284.1761
1262.10 284.2437
1262.20 284.6224
1262.30 285.4307
1262.40 286.5956
1262.50 287.9702
1262.60 289.9267
1262.70 290.9207
1262.80 291.273
1262.90 291.2952
1263.00 290.9306
1263.10 289.9574
1263.20 288.7732
1263.30 287.444
1263.40 285.7352
1263.50 284.082
1263.60 282.4822
1263.70 280.5659
1263.80 278.5771
1263.90 276.4729
1264.00 274.2649
1264.10 272.0002
1264.20 269.5469
1264.30 268.2803
1264.40 268.3517
1264.50 268.6078
1264.60 269.4416
1264.70 271.9768
1264.80 274.882
1264.90 278.0252
1265.00 280.3076
1265.10 282.6481
1265.20 285.0876
1265.30 286.1794
1265.40 286.8741
1265.50 287.4643
1265.60 287.6888
1265.70 287.6143
1265.80 287.1373
1265.90 286.908
1266.00 287.2527
1266.10 287.5062
1266.20 287.6637
1266.30 287.3259
1266.40 287.1228
1266.50 287.0779
1266.60 288.3311
1266.70 289.7686
1266.80 291.1743
1266.90 292.8588
1267.00 294.7032
1267.10 296.8588
1267.20 298.9511
1267.30 300.9562
1267.40 302.8396
1267.50 304.5578
1267.60 305.7178
1267.70 306.85
1267.80 307.9597
1267.90 307.7264
1268.00 307.2117
1268.10 306.2391
1268.20 304.5181
1268.30 302.5363
1268.40 300.6999
1268.50 298.8562
1268.60 297.0056
1268.70 295.5346
1268.80 294.5453
1268.90 294.6489
1269.00 294.9858
1269.10 295.4443
1269.20 295.7208
1269.30 295.7811
1269.40 295.5426
1269.50 294.3352
1269.60 292.83
1269.70 290.9622
1269.80 289.0949
1269.90 287.228
1270.00 285.3938
1270.10 283.7304
1270.20 282.3554
1270.30 281.2043
1270.40 280.6126
1270.50 282.9735
1270.60 285.5082
1270.70 288.2099
1270.80 291.5144
1270.90 294.9755
1271.00 298.7043
1271.10 301.7414
1271.20 304.4684
1271.30 307.2039
1271.40 308.3658
1271.50 307.6806
1271.60 306.636
1271.70 305.6347
1271.80 305.0033
1271.90 304.1338
1272.00 303.1186
1272.10 302.734
1272.20 302.4341
1272.30 302.2724
1272.40 301.7487
1272.50 301.1321
1272.60 300.5689
1272.70 299.3798
1272.80 297.6785
1272.90 295.9826
1273.00 294.6529
1273.10 294.0661
1273.20 293.3696
1273.30 292.5868
1273.40 291.4505
1273.50 290.2587
1273.60 289.0045
1273.70 286.4638
1273.80 283.6572
1273.90 280.5789
1274.00 278.932
1274.10 278.0591
1274.20 277.3371
1274.30 278.4449
1274.40 282.0797
1274.50 286.4162
1274.60 290.6531
1274.70 293.7459
1274.80 297.0843
1274.90 300.6082
1275.00 300.3104
1275.10 299.648
1275.20 298.5071
1275.30 298.3687
1275.40 298.5403
1275.50 298.4022
1275.60 299.9041
1275.70 302.9198
1275.80 306.3062
1275.90 308.9866
1276.00 309.8264
1276.10 310.8362
1276.20 311.7533
1276.30 309.8471
1276.40 307.5656
1276.50 304.8062
1276.60 302.8284
1276.70 301.0275
1276.80 299.3325
1276.90 299.8444
1277.00 301.7673
1277.10 304.1825
1277.20 306.0691
1277.30 307.0768
1277.40 308.3037
1277.50 309.3111
1277.60 308.8033
1277.70 307.8227
1277.80 306.4227
1277.90 302.359
1278.00 298.0244
1278.10 293.5329
1278.20 291.1589
1278.30 289.6434
1278.40 288.053
1278.50 287.3234
1278.60 287.5263
1278.70 288.4266
1278.80 290.0951
1278.90 293.7276
1279.00 297.5453
1279.10 301.4289
1279.20 303.9284
1279.30 306.5359
1279.40 309.3053
1279.50 310.5606
1279.60 311.3223
1279.70 311.5601
1279.80 310.5071
1279.90 308.4804
1280.00 306.3277
1280.10 304.1845
1280.20 302.0715
1280.30 299.7001
1280.40 297.357
1280.50 295.9207
1280.60 294.4669
1280.70 292.9954
1280.80 292.5495
1280.90 292.224
1281.00 291.9153
1281.10 291.9411
1281.20 292.1529
1281.30 292.7673
1281.40 293.4025
1281.50 294.064
1281.60 294.8172
1281.70 295.5098
1281.80 295.9207
1281.90 296.421
1282.00 296.9809
1282.10 298.5152
1282.20 300.0309
1282.30 301.5001
1282.40 302.5272
1282.50 303.419
1282.60 304.2928
1282.70 304.3349
1282.80 303.6684
1282.90 302.8185
1283.00 302.0199
1283.10 301.3642
1283.20 300.7602
1283.30 300.186
1283.40 299.6885
1283.50 299.1393
1283.60 298.5317
1283.70 297.8923
1283.80 297.2742
1283.90 296.736
1284.00 295.9846
1284.10 295.1133
1284.20 294.236
1284.30 294.1794
1284.40 295.3039
1284.50 296.4182
1284.60 297.6056
1284.70 299.1158
1284.80 300.7096
1284.90 302.3664
1285.00 302.2539
1285.10 302.0616
1285.20 301.8579
1285.30 299.4421
1285.40 296.1617
1285.50 292.2393
1285.60 288.3048
1285.70 284.3587
1285.80 280.2019
1285.90 276.7877
1286.00 275.249
1286.10 274.009
1286.20 273.1047
1286.30 275.1566
1286.40 277.5418
1286.50 280.3342
1286.60 284.608
1286.70 289.2222
1286.80 293.9674
1286.90 297.5442
1287.00 300.3742
1287.10 303.5646
1287.20 305.1751
1287.30 304.208
1287.40 302.5729
1287.50 300.3327
1287.60 295.9634
1287.70 291.1095
1287.80 285.8592
1287.90 282.7156
1288.00 279.7373
1288.10 276.7734
1288.20 275.8675
1288.30 275.8955
1288.40 276.7644
1288.50 278.7001
1288.60 281.7913
1288.70 285.1926
1288.80 288.3686
1288.90 290.7712
1289.00 293.2976
1289.10 295.8597
1289.20 297.4226
1289.30 298.8872
1289.40 300.2162
1289.50 299.4694
1289.60 298.1634
1289.70 296.5688
1289.80 295.1785
1289.90 293.9362
1290.00 292.0211
1290.10 290.7078
1290.20 290.4891
1290.30 290.4906
1290.40 290.5583
1290.50 290.5771
1290.60 290.7304
1290.70 291.0031
1290.80 291.0907
1290.90 291.2555
1291.00 291.6434
1291.10 291.313
1291.20 290.6331
1291.30 289.8234
1291.40 289.6441
1291.50 290.2049
1291.60 290.6636
1291.70 291.3675
1291.80 292.9527
1291.90 294.5649
1292.00 296.1879
1292.10 297.3117
1292.20 298.5788
1292.30 300.0611
1292.40 299.2869
1292.50 297.8443
1292.60 296.2563
1292.70 293.9379
1292.80 291.0456
1292.90 287.5751
1293.00 285.3216
1293.10 285.5878
1293.20 285.7271
1293.30 285.9117
1293.40 286.8428
1293.50 288.2305
1293.60 290.0568
1293.70 291.834
1293.80 293.6358
1293.90 295.5184
1294.00 296.2428
1294.10 296.3522
1294.20 296.1732
1294.30 296.4649
1294.40 297.3557
1294.50 297.9801
1294.60 298.6565
1294.70 299.7339
1294.80 301.17
1294.90 302.8355
1295.00 301.7532
1295.10 300.5426
1295.20 299.1746
1295.30 296.1045
1295.40 292.3939
1295.50 288.1419
1295.60 284.8866
1295.70 282.4805
1295.80 279.6799
1295.90 277.9187
1296.00 278.5274
1296.10 279.7785
1296.20 281.2433
1296.30 282.2164
1296.40 283.3921
1296.50 284.7784
1296.60 285.6917
1296.70 286.518
1296.80 287.3174
1296.90 288.0442
1297.00 288.7133
1297.10 288.9776
1297.20 289.3449
1297.30 289.8544
1297.40 290.532
1297.50 291.0862
1297.60 290.957
1297.70 290.7954
1297.80 290.6113
1297.90 291.5672
1298.00 292.5504
1298.10 293.5197
1298.20 295.7201
1298.30 298.3573
1298.40 301.0186
1298.50 303.2002
1298.60 304.9391
1298.70 307.2138
1298.80 308.7374
1298.90 308.3079
1299.00 307.6708
1299.10 306.8454
1299.20 304.7014
1299.30 302.3974
1299.40 299.913
1299.50 297.7196
1299.60 295.4176
1299.70 292.6364
1299.80 290.5895
1299.90 288.992
