# Version 2.1 - nm, norm@500 to 1, cut digits
# Wavelength(nm)  Flambda(ergs/cm^s/s/nm)
300.00 1.402802e-95
300.10 1.402802e-95
300.20 1.402802e-95
300.30 1.402802e-95
300.40 1.402802e-95
300.50 1.402802e-95
300.60 1.402802e-95
300.70 1.402802e-95
300.80 1.402802e-95
300.90 1.402802e-95
301.00 1.402802e-95
301.10 1.402802e-95
301.20 1.402802e-95
301.30 1.402802e-95
301.40 1.402802e-95
301.50 1.402802e-95
301.60 1.402802e-95
301.70 1.402802e-95
301.80 1.402802e-95
301.90 1.402802e-95
302.00 1.402802e-95
302.10 1.402802e-95
302.20 1.402802e-95
302.30 1.402802e-95
302.40 1.402802e-95
302.50 1.402802e-95
302.60 1.402802e-95
302.70 1.402802e-95
302.80 1.402802e-95
302.90 1.402802e-95
303.00 1.402802e-95
303.10 1.402802e-95
303.20 1.402802e-95
303.30 1.402802e-95
303.40 1.402802e-95
303.50 1.402802e-95
303.60 1.402802e-95
303.70 1.402802e-95
303.80 1.402802e-95
303.90 1.402802e-95
304.00 1.402802e-95
304.10 1.402802e-95
304.20 1.402802e-95
304.30 1.402802e-95
304.40 1.402802e-95
304.50 1.402802e-95
304.60 1.402802e-95
304.70 1.402802e-95
304.80 1.402802e-95
304.90 1.402802e-95
305.00 1.402802e-95
305.10 1.402802e-95
305.20 1.402802e-95
305.30 1.402802e-95
305.40 1.402802e-95
305.50 1.402802e-95
305.60 1.402802e-95
305.70 1.402802e-95
305.80 1.402802e-95
305.90 1.402802e-95
306.00 1.402802e-95
306.10 1.402802e-95
306.20 1.402802e-95
306.30 1.402802e-95
306.40 1.402802e-95
306.50 1.402802e-95
306.60 1.402802e-95
306.70 1.402802e-95
306.80 1.402802e-95
306.90 1.402802e-95
307.00 1.402802e-95
307.10 1.402802e-95
307.20 1.402802e-95
307.30 1.402802e-95
307.40 1.402802e-95
307.50 1.402802e-95
307.60 1.402802e-95
307.70 1.402802e-95
307.80 1.402802e-95
307.90 1.402802e-95
308.00 1.402802e-95
308.10 1.402802e-95
308.20 1.402802e-95
308.30 1.402802e-95
308.40 1.402802e-95
308.50 1.402802e-95
308.60 1.402802e-95
308.70 1.402802e-95
308.80 1.402802e-95
308.90 1.402802e-95
309.00 1.402802e-95
309.10 1.402802e-95
309.20 1.402802e-95
309.30 1.402802e-95
309.40 1.402802e-95
309.50 1.402802e-95
309.60 1.402802e-95
309.70 1.402802e-95
309.80 1.402802e-95
309.90 1.402802e-95
310.00 1.402802e-95
310.10 1.402802e-95
310.20 1.402802e-95
310.30 1.402802e-95
310.40 1.402802e-95
310.50 1.402802e-95
310.60 1.402802e-95
310.70 1.402802e-95
310.80 1.402802e-95
310.90 1.402802e-95
311.00 1.402802e-95
311.10 1.402802e-95
311.20 1.402802e-95
311.30 1.402802e-95
311.40 1.402802e-95
311.50 1.402802e-95
311.60 1.402802e-95
311.70 1.402802e-95
311.80 1.402802e-95
311.90 1.402802e-95
312.00 1.402802e-95
312.10 1.402802e-95
312.20 1.402802e-95
312.30 1.402802e-95
312.40 1.402802e-95
312.50 1.402802e-95
312.60 1.402802e-95
312.70 1.402802e-95
312.80 1.402802e-95
312.90 1.402802e-95
313.00 1.402802e-95
313.10 1.402802e-95
313.20 1.402802e-95
313.30 1.402802e-95
313.40 1.402802e-95
313.50 1.402802e-95
313.60 1.402802e-95
313.70 1.402802e-95
313.80 1.402802e-95
313.90 1.402802e-95
314.00 1.402802e-95
314.10 1.402802e-95
314.20 1.402802e-95
314.30 1.402802e-95
314.40 1.402802e-95
314.50 1.402802e-95
314.60 1.402802e-95
314.70 1.402802e-95
314.80 1.402802e-95
314.90 1.402802e-95
315.00 1.402802e-95
315.10 1.402802e-95
315.20 1.402802e-95
315.30 1.402802e-95
315.40 1.402802e-95
315.50 1.402802e-95
315.60 1.402802e-95
315.70 1.402802e-95
315.80 1.402802e-95
315.90 1.402802e-95
316.00 1.402802e-95
316.10 1.402802e-95
316.20 1.402802e-95
316.30 1.402802e-95
316.40 1.402802e-95
316.50 1.402802e-95
316.60 1.402802e-95
316.70 1.402802e-95
316.80 1.402802e-95
316.90 1.402802e-95
317.00 1.402802e-95
317.10 1.402802e-95
317.20 1.402802e-95
317.30 1.402802e-95
317.40 1.402802e-95
317.50 1.402802e-95
317.60 1.402802e-95
317.70 1.402802e-95
317.80 1.402802e-95
317.90 1.402802e-95
318.00 1.402802e-95
318.10 1.402802e-95
318.20 1.402802e-95
318.30 1.402802e-95
318.40 1.402802e-95
318.50 1.402802e-95
318.60 1.402802e-95
318.70 1.402802e-95
318.80 1.402802e-95
318.90 1.402802e-95
319.00 1.402802e-95
319.10 1.402802e-95
319.20 1.402802e-95
319.30 1.402802e-95
319.40 1.402802e-95
319.50 1.402802e-95
319.60 1.402802e-95
319.70 1.402802e-95
319.80 1.402802e-95
319.90 1.402802e-95
320.00 1.402802e-95
320.10 1.402802e-95
320.20 1.402802e-95
320.30 1.402802e-95
320.40 1.402802e-95
320.50 1.402802e-95
320.60 1.402802e-95
320.70 1.402802e-95
320.80 1.402802e-95
320.90 1.402802e-95
321.00 1.402802e-95
321.10 1.402802e-95
321.20 1.402802e-95
321.30 1.402802e-95
321.40 1.402802e-95
321.50 1.402802e-95
321.60 1.402802e-95
321.70 1.402802e-95
321.80 1.402802e-95
321.90 1.402802e-95
322.00 1.402802e-95
322.10 1.402802e-95
322.20 1.402802e-95
322.30 1.402802e-95
322.40 1.402802e-95
322.50 1.402802e-95
322.60 1.402802e-95
322.70 1.402802e-95
322.80 1.402802e-95
322.90 1.402802e-95
323.00 1.402802e-95
323.10 1.402802e-95
323.20 1.402802e-95
323.30 1.402802e-95
323.40 1.402802e-95
323.50 1.402802e-95
323.60 1.402802e-95
323.70 1.402802e-95
323.80 1.402802e-95
323.90 1.402802e-95
324.00 1.402802e-95
324.10 1.402802e-95
324.20 1.402802e-95
324.30 1.402802e-95
324.40 1.402802e-95
324.50 1.402802e-95
324.60 1.402802e-95
324.70 1.402802e-95
324.80 1.402802e-95
324.90 1.402802e-95
325.00 1.402802e-95
325.10 1.402802e-95
325.20 1.402802e-95
325.30 1.402802e-95
325.40 1.402802e-95
325.50 1.402802e-95
325.60 1.402802e-95
325.70 1.402802e-95
325.80 1.402802e-95
325.90 1.402802e-95
326.00 1.402802e-95
326.10 1.402802e-95
326.20 1.402802e-95
326.30 1.402802e-95
326.40 1.402802e-95
326.50 1.402802e-95
326.60 1.402802e-95
326.70 1.402802e-95
326.80 1.402802e-95
326.90 1.402802e-95
327.00 1.402802e-95
327.10 1.402802e-95
327.20 1.402802e-95
327.30 1.402802e-95
327.40 1.402802e-95
327.50 1.402802e-95
327.60 1.402802e-95
327.70 1.402802e-95
327.80 1.402802e-95
327.90 1.402802e-95
328.00 1.402802e-95
328.10 1.402802e-95
328.20 1.402802e-95
328.30 1.402802e-95
328.40 1.402802e-95
328.50 1.402802e-95
328.60 1.402802e-95
328.70 1.402802e-95
328.80 1.402802e-95
328.90 1.402802e-95
329.00 1.402802e-95
329.10 1.402802e-95
329.20 1.402802e-95
329.30 1.402802e-95
329.40 1.402802e-95
329.50 1.402802e-95
329.60 1.402802e-95
329.70 1.402802e-95
329.80 1.402802e-95
329.90 1.402802e-95
330.00 1.402802e-95
330.10 1.402802e-95
330.20 1.402802e-95
330.30 1.402802e-95
330.40 1.402802e-95
330.50 1.402802e-95
330.60 1.402802e-95
330.70 1.402802e-95
330.80 1.402802e-95
330.90 1.402802e-95
331.00 1.402802e-95
331.10 1.402802e-95
331.20 1.402802e-95
331.30 1.402802e-95
331.40 1.402802e-95
331.50 1.402802e-95
331.60 1.402802e-95
331.70 1.402802e-95
331.80 1.402802e-95
331.90 1.402802e-95
332.00 1.402802e-95
332.10 1.402802e-95
332.20 1.402802e-95
332.30 1.402802e-95
332.40 1.402802e-95
332.50 1.402802e-95
332.60 1.402802e-95
332.70 1.402802e-95
332.80 1.402802e-95
332.90 1.402802e-95
333.00 1.402802e-95
333.10 1.402802e-95
333.20 1.402802e-95
333.30 1.402802e-95
333.40 1.402802e-95
333.50 1.402802e-95
333.60 1.402802e-95
333.70 1.402802e-95
333.80 1.402802e-95
333.90 1.402802e-95
334.00 1.402802e-95
334.10 1.402802e-95
334.20 1.402802e-95
334.30 1.402802e-95
334.40 1.402802e-95
334.50 1.402802e-95
334.60 1.402802e-95
334.70 1.402802e-95
334.80 1.402802e-95
334.90 1.402802e-95
335.00 1.402802e-95
335.10 1.402802e-95
335.20 1.402802e-95
335.30 1.402802e-95
335.40 1.402802e-95
335.50 1.402802e-95
335.60 1.402802e-95
335.70 1.402802e-95
335.80 1.402802e-95
335.90 1.402802e-95
336.00 1.402802e-95
336.10 1.402802e-95
336.20 1.402802e-95
336.30 1.402802e-95
336.40 1.402802e-95
336.50 1.402802e-95
336.60 1.402802e-95
336.70 1.402802e-95
336.80 1.402802e-95
336.90 1.402802e-95
337.00 1.402802e-95
337.10 1.402802e-95
337.20 1.402802e-95
337.30 1.402802e-95
337.40 1.402802e-95
337.50 1.402802e-95
337.60 1.402802e-95
337.70 1.402802e-95
337.80 1.402802e-95
337.90 1.402802e-95
338.00 1.402802e-95
338.10 1.402802e-95
338.20 1.402802e-95
338.30 1.402802e-95
338.40 1.402802e-95
338.50 1.402802e-95
338.60 1.402802e-95
338.70 1.402802e-95
338.80 1.402802e-95
338.90 1.402802e-95
339.00 1.402802e-95
339.10 1.402802e-95
339.20 1.402802e-95
339.30 1.402802e-95
339.40 1.402802e-95
339.50 1.402802e-95
339.60 1.402802e-95
339.70 1.402802e-95
339.80 1.402802e-95
339.90 1.402802e-95
340.00 1.402802e-95
340.10 1.402802e-95
340.20 1.402802e-95
340.30 1.402802e-95
340.40 1.402802e-95
340.50 1.402802e-95
340.60 1.402802e-95
340.70 1.402802e-95
340.80 1.402802e-95
340.90 1.402802e-95
341.00 1.402802e-95
341.10 1.402802e-95
341.20 1.402802e-95
341.30 1.402802e-95
341.40 1.402802e-95
341.50 1.402802e-95
341.60 1.402802e-95
341.70 1.402802e-95
341.80 1.402802e-95
341.90 1.402802e-95
342.00 1.402802e-95
342.10 1.402802e-95
342.20 1.402802e-95
342.30 1.402802e-95
342.40 1.402802e-95
342.50 1.402802e-95
342.60 1.402802e-95
342.70 1.402802e-95
342.80 1.402802e-95
342.90 1.402802e-95
343.00 1.402802e-95
343.10 1.402802e-95
343.20 1.402802e-95
343.30 1.402802e-95
343.40 1.402802e-95
343.50 1.402802e-95
343.60 1.402802e-95
343.70 1.402802e-95
343.80 1.402802e-95
343.90 1.402802e-95
344.00 1.402802e-95
344.10 1.402802e-95
344.20 1.402802e-95
344.30 1.402802e-95
344.40 1.402802e-95
344.50 1.402802e-95
344.60 1.402802e-95
344.70 1.402802e-95
344.80 1.402802e-95
344.90 1.402802e-95
345.00 1.402802e-95
345.10 1.402802e-95
345.20 1.402802e-95
345.30 1.402802e-95
345.40 1.402802e-95
345.50 1.402802e-95
345.60 1.402802e-95
345.70 1.402802e-95
345.80 1.402802e-95
345.90 1.402802e-95
346.00 1.402802e-95
346.10 1.402802e-95
346.20 1.402802e-95
346.30 1.402802e-95
346.40 1.402802e-95
346.50 1.402802e-95
346.60 1.402802e-95
346.70 1.402802e-95
346.80 1.402802e-95
346.90 1.402802e-95
347.00 1.402802e-95
347.10 1.402802e-95
347.20 1.402802e-95
347.30 1.402802e-95
347.40 1.402802e-95
347.50 1.402802e-95
347.60 1.402802e-95
347.70 1.402802e-95
347.80 1.402802e-95
347.90 1.402802e-95
348.00 1.402802e-95
348.10 1.402802e-95
348.20 1.402802e-95
348.30 1.402802e-95
348.40 1.402802e-95
348.50 1.402802e-95
348.60 1.402802e-95
348.70 1.402802e-95
348.80 1.402802e-95
348.90 1.402802e-95
349.00 1.402802e-95
349.10 1.402802e-95
349.20 1.402802e-95
349.30 1.402802e-95
349.40 1.402802e-95
349.50 1.402802e-95
349.60 1.402802e-95
349.70 1.402802e-95
349.80 1.402802e-95
349.90 1.402802e-95
350.00 1.402802e-95
350.10 1.402802e-95
350.20 1.402802e-95
350.30 1.402802e-95
350.40 1.402802e-95
350.50 1.402802e-95
350.60 1.402802e-95
350.70 1.402802e-95
350.80 1.402802e-95
350.90 1.402802e-95
351.00 1.402802e-95
351.10 1.402802e-95
351.20 1.402802e-95
351.30 1.402802e-95
351.40 1.402802e-95
351.50 1.402802e-95
351.60 1.402802e-95
351.70 1.402802e-95
351.80 1.402802e-95
351.90 1.402802e-95
352.00 1.402802e-95
352.10 1.402802e-95
352.20 1.402802e-95
352.30 1.402802e-95
352.40 1.402802e-95
352.50 1.402802e-95
352.60 1.402802e-95
352.70 1.402802e-95
352.80 1.402802e-95
352.90 1.402802e-95
353.00 1.402802e-95
353.10 1.402802e-95
353.20 1.402802e-95
353.30 1.402802e-95
353.40 1.402802e-95
353.50 1.402802e-95
353.60 1.402802e-95
353.70 1.402802e-95
353.80 1.402802e-95
353.90 1.402802e-95
354.00 1.402802e-95
354.10 1.402802e-95
354.20 1.402802e-95
354.30 1.402802e-95
354.40 1.402802e-95
354.50 1.402802e-95
354.60 1.402802e-95
354.70 1.402802e-95
354.80 1.402802e-95
354.90 1.402802e-95
355.00 1.402802e-95
355.10 1.402802e-95
355.20 1.402802e-95
355.30 1.402802e-95
355.40 1.402802e-95
355.50 1.402802e-95
355.60 1.402802e-95
355.70 1.402802e-95
355.80 1.402802e-95
355.90 1.402802e-95
356.00 1.402802e-95
356.10 1.402802e-95
356.20 1.402802e-95
356.30 1.402802e-95
356.40 1.402802e-95
356.50 1.402802e-95
356.60 1.402802e-95
356.70 1.402802e-95
356.80 1.402802e-95
356.90 1.402802e-95
357.00 1.402802e-95
357.10 1.402802e-95
357.20 1.402802e-95
357.30 1.402802e-95
357.40 1.402802e-95
357.50 1.402802e-95
357.60 1.402802e-95
357.70 1.402802e-95
357.80 1.402802e-95
357.90 1.402802e-95
358.00 1.402802e-95
358.10 1.402802e-95
358.20 1.402802e-95
358.30 1.402802e-95
358.40 1.402802e-95
358.50 1.402802e-95
358.60 1.402802e-95
358.70 1.402802e-95
358.80 1.402802e-95
358.90 1.402802e-95
359.00 1.402802e-95
359.10 1.402802e-95
359.20 1.402802e-95
359.30 1.402802e-95
359.40 1.402802e-95
359.50 1.402802e-95
359.60 1.402802e-95
359.70 1.402802e-95
359.80 1.402802e-95
359.90 1.402802e-95
360.00 1.402802e-95
360.10 1.402802e-95
360.20 1.402802e-95
360.30 1.402802e-95
360.40 1.402802e-95
360.50 1.402802e-95
360.60 1.402802e-95
360.70 1.402802e-95
360.80 1.402802e-95
360.90 1.402802e-95
361.00 1.402802e-95
361.10 1.402802e-95
361.20 1.402802e-95
361.30 1.402802e-95
361.40 1.402802e-95
361.50 1.402802e-95
361.60 1.402802e-95
361.70 1.402802e-95
361.80 1.402802e-95
361.90 1.402802e-95
362.00 1.402802e-95
362.10 1.402802e-95
362.20 1.402802e-95
362.30 1.402802e-95
362.40 1.402802e-95
362.50 1.402802e-95
362.60 1.402802e-95
362.70 1.402802e-95
362.80 1.402802e-95
362.90 1.402802e-95
363.00 1.402802e-95
363.10 1.402802e-95
363.20 1.402802e-95
363.30 1.402802e-95
363.40 1.402802e-95
363.50 1.402802e-95
363.60 1.402802e-95
363.70 1.402802e-95
363.80 1.402802e-95
363.90 1.402802e-95
364.00 1.402802e-95
364.10 1.402802e-95
364.20 1.402802e-95
364.30 1.402802e-95
364.40 1.402802e-95
364.50 1.402802e-95
364.60 1.402802e-95
364.70 1.402802e-95
364.80 1.402802e-95
364.90 1.402802e-95
365.00 1.402802e-95
365.10 1.402802e-95
365.20 1.402802e-95
365.30 1.402802e-95
365.40 1.402802e-95
365.50 1.402802e-95
365.60 1.402802e-95
365.70 1.402802e-95
365.80 1.402802e-95
365.90 1.402802e-95
366.00 1.402802e-95
366.10 1.402802e-95
366.20 1.402802e-95
366.30 1.402802e-95
366.40 1.402802e-95
366.50 1.402802e-95
366.60 1.402802e-95
366.70 1.402802e-95
366.80 1.402802e-95
366.90 1.402802e-95
367.00 1.402802e-95
367.10 1.402802e-95
367.20 1.402802e-95
367.30 1.402802e-95
367.40 1.402802e-95
367.50 1.402802e-95
367.60 1.402802e-95
367.70 1.402802e-95
367.80 1.402802e-95
367.90 1.402802e-95
368.00 1.402802e-95
368.10 1.402802e-95
368.20 1.402802e-95
368.30 1.402802e-95
368.40 1.402802e-95
368.50 1.402802e-95
368.60 1.402802e-95
368.70 1.402802e-95
368.80 1.402802e-95
368.90 1.402802e-95
369.00 1.402802e-95
369.10 1.402802e-95
369.20 1.402802e-95
369.30 1.402802e-95
369.40 1.402802e-95
369.50 1.402802e-95
369.60 1.402802e-95
369.70 1.402802e-95
369.80 1.402802e-95
369.90 1.402802e-95
370.00 1.402802e-95
370.10 1.402802e-95
370.20 1.402802e-95
370.30 1.402802e-95
370.40 1.402802e-95
370.50 1.402802e-95
370.60 1.402802e-95
370.70 1.402802e-95
370.80 1.402802e-95
370.90 1.402802e-95
371.00 1.402802e-95
371.10 1.402802e-95
371.20 1.402802e-95
371.30 1.402802e-95
371.40 1.402802e-95
371.50 1.402802e-95
371.60 1.402802e-95
371.70 1.402802e-95
371.80 1.402802e-95
371.90 1.402802e-95
372.00 1.402802e-95
372.10 1.402802e-95
372.20 1.402802e-95
372.30 1.402802e-95
372.40 1.402802e-95
372.50 1.402802e-95
372.60 1.402802e-95
372.70 1.402802e-95
372.80 1.402802e-95
372.90 1.402802e-95
373.00 1.402802e-95
373.10 1.402802e-95
373.20 1.402802e-95
373.30 1.402802e-95
373.40 1.402802e-95
373.50 1.402802e-95
373.60 1.402802e-95
373.70 1.402802e-95
373.80 1.402802e-95
373.90 1.402802e-95
374.00 1.402802e-95
374.10 1.402802e-95
374.20 1.402802e-95
374.30 1.402802e-95
374.40 1.402802e-95
374.50 1.402802e-95
374.60 1.402802e-95
374.70 1.402802e-95
374.80 1.402802e-95
374.90 1.402802e-95
375.00 1.402802e-95
375.10 1.402802e-95
375.20 1.402802e-95
375.30 1.402802e-95
375.40 1.402802e-95
375.50 1.402802e-95
375.60 1.402802e-95
375.70 1.402802e-95
375.80 1.402802e-95
375.90 1.402802e-95
376.00 1.402802e-95
376.10 1.402802e-95
376.20 1.402802e-95
376.30 1.402802e-95
376.40 1.402802e-95
376.50 1.402802e-95
376.60 1.402802e-95
376.70 1.402802e-95
376.80 1.402802e-95
376.90 1.402802e-95
377.00 1.402802e-95
377.10 1.402802e-95
377.20 1.402802e-95
377.30 1.402802e-95
377.40 1.402802e-95
377.50 1.402802e-95
377.60 1.402802e-95
377.70 1.402802e-95
377.80 1.402802e-95
377.90 1.402802e-95
378.00 1.402802e-95
378.10 1.402802e-95
378.20 1.402802e-95
378.30 1.402802e-95
378.40 1.402802e-95
378.50 1.402802e-95
378.60 1.402802e-95
378.70 1.402802e-95
378.80 1.402802e-95
378.90 1.402802e-95
379.00 1.402802e-95
379.10 1.402802e-95
379.20 1.402802e-95
379.30 1.402802e-95
379.40 1.402802e-95
379.50 1.402802e-95
379.60 1.402802e-95
379.70 1.402802e-95
379.80 1.402802e-95
379.90 1.402802e-95
380.00 1.402802e-95
380.10 1.402802e-95
380.20 1.402802e-95
380.30 1.402802e-95
380.40 1.402802e-95
380.50 1.402802e-95
380.60 1.402802e-95
380.70 1.402802e-95
380.80 1.402802e-95
380.90 1.402802e-95
381.00 1.402802e-95
381.10 1.402802e-95
381.20 1.402802e-95
381.30 1.402802e-95
381.40 1.402802e-95
381.50 1.402802e-95
381.60 1.402802e-95
381.70 1.402802e-95
381.80 1.402802e-95
381.90 1.402802e-95
382.00 1.402802e-95
382.10 1.402802e-95
382.20 1.402802e-95
382.30 1.402802e-95
382.40 1.402802e-95
382.50 1.402802e-95
382.60 1.402802e-95
382.70 1.402802e-95
382.80 1.402802e-95
382.90 1.402802e-95
383.00 1.402802e-95
383.10 1.402802e-95
383.20 1.402802e-95
383.30 1.402802e-95
383.40 1.402802e-95
383.50 1.402802e-95
383.60 1.402802e-95
383.70 1.402802e-95
383.80 1.402802e-95
383.90 1.402802e-95
384.00 1.402802e-95
384.10 1.402802e-95
384.20 1.402802e-95
384.30 1.402802e-95
384.40 1.402802e-95
384.50 1.402802e-95
384.60 1.402802e-95
384.70 1.402802e-95
384.80 1.402802e-95
384.90 1.402802e-95
385.00 1.402802e-95
385.10 1.402802e-95
385.20 1.402802e-95
385.30 1.402802e-95
385.40 1.402802e-95
385.50 1.402802e-95
385.60 1.402802e-95
385.70 1.402802e-95
385.80 1.402802e-95
385.90 1.402802e-95
386.00 1.402802e-95
386.10 1.402802e-95
386.20 1.402802e-95
386.30 1.402802e-95
386.40 1.402802e-95
386.50 1.402802e-95
386.60 1.402802e-95
386.70 1.402802e-95
386.80 1.402802e-95
386.90 1.402802e-95
387.00 1.402802e-95
387.10 1.402802e-95
387.20 1.402802e-95
387.30 1.402802e-95
387.40 1.402802e-95
387.50 1.402802e-95
387.60 1.402802e-95
387.70 1.402802e-95
387.80 1.402802e-95
387.90 1.402802e-95
388.00 1.402802e-95
388.10 1.402802e-95
388.20 1.402802e-95
388.30 1.402802e-95
388.40 1.402802e-95
388.50 1.402802e-95
388.60 1.402802e-95
388.70 1.402802e-95
388.80 1.402802e-95
388.90 1.402802e-95
389.00 1.402802e-95
389.10 1.402802e-95
389.20 1.402802e-95
389.30 1.402802e-95
389.40 1.402802e-95
389.50 1.402802e-95
389.60 1.402802e-95
389.70 1.402802e-95
389.80 1.402802e-95
389.90 1.402802e-95
390.00 1.402802e-95
390.10 1.402802e-95
390.20 1.402802e-95
390.30 1.402802e-95
390.40 1.402802e-95
390.50 1.402802e-95
390.60 1.402802e-95
390.70 1.402802e-95
390.80 1.402802e-95
390.90 1.402802e-95
391.00 1.402802e-95
391.10 1.402802e-95
391.20 1.402802e-95
391.30 1.402802e-95
391.40 1.402802e-95
391.50 1.402802e-95
391.60 1.402802e-95
391.70 1.402802e-95
391.80 1.402802e-95
391.90 1.402802e-95
392.00 1.402802e-95
392.10 1.402802e-95
392.20 1.402802e-95
392.30 1.402802e-95
392.40 1.402802e-95
392.50 1.402802e-95
392.60 1.402802e-95
392.70 1.402802e-95
392.80 1.402802e-95
392.90 1.402802e-95
393.00 1.402802e-95
393.10 1.402802e-95
393.20 1.402802e-95
393.30 1.402802e-95
393.40 1.402802e-95
393.50 1.402802e-95
393.60 1.402802e-95
393.70 1.402802e-95
393.80 1.402802e-95
393.90 1.402802e-95
394.00 1.402802e-95
394.10 1.402802e-95
394.20 1.402802e-95
394.30 1.402802e-95
394.40 1.402802e-95
394.50 1.402802e-95
394.60 1.402802e-95
394.70 1.402802e-95
394.80 1.402802e-95
394.90 1.402802e-95
395.00 0.003988341
395.10 0.00739997
395.20 0.01082236
395.30 0.01485065
395.40 0.02007103
395.50 0.02702381
395.60 0.03583503
395.70 0.04621162
395.80 0.05762158
395.90 0.06962606
396.00 0.08205871
396.10 0.09465891
396.20 0.1069451
396.30 0.1182533
396.40 0.1279151
396.50 0.1353969
396.60 0.1403538
396.70 0.142738
396.80 0.142738
396.90 0.142738
397.00 0.142738
397.10 0.142738
397.20 0.142738
397.30 0.1435712
397.40 0.1464263
397.50 0.1509202
397.60 0.1565299
397.70 0.1626533
397.80 0.1687743
397.90 0.1745237
398.00 0.1796186
398.10 0.1839127
398.20 0.1876652
398.30 0.1915372
398.40 0.1961302
398.50 0.2017764
398.60 0.2085845
398.70 0.216261
398.80 0.2240981
398.90 0.2313712
399.00 0.2375901
399.10 0.2425811
399.20 0.2465131
399.30 0.2497627
399.40 0.2527756
399.50 0.2560321
399.60 0.2598324
399.70 0.2639816
399.80 0.2679679
399.90 0.27112
400.00 0.2728871
400.10 0.2734138
400.20 0.2734359
400.30 0.2737955
400.40 0.2752282
400.50 0.2782385
400.60 0.2829077
400.70 0.2889616
400.80 0.2959098
400.90 0.3029825
401.00 0.3093263
401.10 0.3143138
401.20 0.3176837
401.30 0.3195266
401.40 0.3197937
401.50 0.3197937
401.60 0.3197937
401.70 0.3197937
401.80 0.3197937
401.90 0.3197937
402.00 0.3197937
402.10 0.3197937
402.20 0.3197937
402.30 0.3220731
402.40 0.3267396
402.50 0.3332478
402.60 0.340741
402.70 0.3482762
402.80 0.355459
402.90 0.3625182
403.00 0.3695683
403.10 0.3762629
403.20 0.3820877
403.30 0.3868103
403.40 0.3905323
403.50 0.3934356
403.60 0.395549
403.70 0.3968811
403.80 0.3976251
403.90 0.398181
404.00 0.3991634
404.10 0.4012044
404.20 0.4046711
404.30 0.4096345
404.40 0.4159824
404.50 0.4234446
404.60 0.431542
404.70 0.4396271
404.80 0.447158
404.90 0.4537772
405.00 0.4552436
405.10 0.4561301
405.20 0.4561636
405.30 0.4551681
405.40 0.4528129
405.50 0.4486184
405.60 0.442472
405.70 0.4345978
405.80 0.4254225
405.90 0.4153782
406.00 0.4046882
406.10 0.3936748
406.20 0.3828291
406.30 0.3729718
406.40 0.3651083
406.50 0.3599482
406.60 0.3578513
406.70 0.3589651
406.80 0.3631608
406.90 0.3677933
407.00 0.3723843
407.10 0.3764232
407.20 0.3794815
407.30 0.3805555
407.40 0.3786292
407.50 0.3743804
407.60 0.3687707
407.70 0.3626473
407.80 0.3565262
407.90 0.3507768
408.00 0.345682
408.10 0.3413879
408.20 0.3376353
408.30 0.3337633
408.40 0.3291703
408.50 0.3235241
408.60 0.3167161
408.70 0.3096834
408.80 0.303702
408.90 0.2984989
409.00 0.2935093
409.10 0.2885183
409.20 0.2845863
409.30 0.2813367
409.40 0.2783238
409.50 0.2750674
409.60 0.271267
409.70 0.2671179
409.80 0.2631316
409.90 0.2599794
410.00 0.25874
410.10 0.2596641
410.20 0.2617054
410.30 0.2638378
410.40 0.2652381
410.50 0.265508
410.60 0.2646708
410.70 0.2629277
410.80 0.2604728
410.90 0.257491
411.00 0.2541372
411.10 0.2504376
411.20 0.2470678
411.30 0.2452249
411.40 0.2449577
411.50 0.2449577
411.60 0.2457258
411.70 0.2489455
411.80 0.2549387
411.90 0.2636065
412.00 0.2746157
412.10 0.2876006
412.20 0.3020996
412.30 0.3154019
412.40 0.3269308
412.50 0.3366336
412.60 0.3447084
412.70 0.3514303
412.80 0.3566506
412.90 0.3598464
413.00 0.3609078
413.10 0.3604679
413.20 0.3594815
413.30 0.3586988
413.40 0.3584139
413.50 0.3585963
413.60 0.3593037
413.70 0.3607965
413.80 0.3633422
413.90 0.3669437
414.00 0.3710725
414.10 0.3748752
414.20 0.377573
414.30 0.3784591
414.40 0.3769299
414.50 0.3726403
414.60 0.3655135
414.70 0.3574284
414.80 0.3498975
414.90 0.3432783
415.00 0.3378235
415.10 0.3335253
415.20 0.3300695
415.30 0.3270367
415.40 0.3241715
415.50 0.3221951
415.60 0.3210793
415.70 0.3202208
415.80 0.3192909
415.90 0.3183138
416.00 0.3176533
416.10 0.3176549
416.20 0.3185297
416.30 0.3200896
416.40 0.3215371
416.50 0.3219254
416.60 0.3204152
416.70 0.3169171
416.80 0.3127214
416.90 0.3080889
417.00 0.3034979
417.10 0.299459
417.20 0.2974731
417.30 0.2999678
417.40 0.3063412
417.50 0.3153852
417.60 0.325319
417.70 0.3343351
417.80 0.3413601
417.90 0.3461789
418.00 0.3492558
418.10 0.3514823
418.20 0.3539356
418.30 0.3575853
418.40 0.3630593
418.50 0.3705958
418.60 0.3800417
418.70 0.3902834
418.80 0.4000978
418.90 0.4097579
419.00 0.4197023
419.10 0.429873
419.20 0.4385746
419.30 0.4452695
419.40 0.4496647
419.50 0.4519495
419.60 0.4526876
419.70 0.452734
419.80 0.4530683
419.90 0.454379
420.00 0.4563523
420.10 0.4584337
420.20 0.4606849
420.30 0.4630008
420.40 0.465094
420.50 0.4665184
420.60 0.467121
420.70 0.4674983
420.80 0.4686637
420.90 0.47174
421.00 0.4777625
421.10 0.4869955
421.20 0.4980261
421.30 0.5086457
421.40 0.5185007
421.50 0.5277545
421.60 0.535883
421.70 0.5414567
421.80 0.5444574
421.90 0.5453227
422.00 0.5446632
422.10 0.5426669
422.20 0.5392745
422.30 0.5343239
422.40 0.527606
422.50 0.5193872
422.60 0.5105261
422.70 0.5021054
422.80 0.4949322
422.90 0.4893428
423.00 0.4853876
423.10 0.4829551
423.20 0.4818411
423.30 0.481544
423.40 0.4814106
423.50 0.4810537
423.60 0.4802671
423.70 0.4787886
423.80 0.4763573
423.90 0.4728487
424.00 0.4684111
424.10 0.4634149
424.20 0.4583366
424.30 0.4538543
424.40 0.4506946
424.50 0.4493793
424.60 0.4503971
424.70 0.452538
424.80 0.4548967
424.90 0.4576253
425.00 0.4609034
425.10 0.4648094
425.20 0.4692272
425.30 0.473932
425.40 0.4787773
425.50 0.4829277
425.60 0.4864882
425.70 0.4902913
425.80 0.4946686
425.90 0.4992113
426.00 0.5030556
426.10 0.5054877
426.20 0.5062357
426.30 0.5055168
426.40 0.5041231
426.50 0.5031874
426.60 0.5038752
426.70 0.5065349
426.80 0.510022
426.90 0.5142493
427.00 0.518905
427.10 0.5235891
427.20 0.5269476
427.30 0.5265824
427.40 0.522827
427.50 0.5165727
427.60 0.5092781
427.70 0.5026483
427.80 0.4979379
427.90 0.4955662
428.00 0.495167
428.10 0.4957267
428.20 0.4959689
428.30 0.4949812
428.40 0.4922376
428.50 0.4873833
428.60 0.4803356
428.70 0.4714007
428.80 0.4612564
428.90 0.4509502
429.00 0.4414803
429.10 0.4334036
429.20 0.4270198
429.30 0.4225045
429.40 0.4198954
429.50 0.4189274
429.60 0.4188749
429.70 0.4188285
429.80 0.4184942
429.90 0.4171835
430.00 0.4146826
430.10 0.4111504
430.20 0.4068358
430.30 0.4026392
430.40 0.3990983
430.50 0.3957391
430.60 0.391834
430.70 0.3871458
430.80 0.3814871
430.90 0.3743199
431.00 0.3653074
431.10 0.3547865
431.20 0.3437558
431.30 0.3331363
431.40 0.3249866
431.50 0.3194207
431.60 0.3153946
431.70 0.3117196
431.80 0.3073691
431.90 0.3014965
432.00 0.2935745
432.10 0.2838067
432.20 0.2730449
432.30 0.2624137
432.40 0.2529363
432.50 0.2452211
432.60 0.2395935
432.70 0.2359015
432.80 0.2338646
432.90 0.2331312
433.00 0.2332232
433.10 0.2335902
433.20 0.2338065
433.30 0.2338511
433.40 0.2340998
433.50 0.234933
433.60 0.2365921
433.70 0.2392186
433.80 0.2425558
433.90 0.2459034
434.00 0.2484126
434.10 0.2494131
434.20 0.2486655
434.30 0.2472983
434.40 0.2456394
434.50 0.243782
434.60 0.2417936
434.70 0.2396527
434.80 0.2375842
434.90 0.2355085
435.00 0.2328181
435.10 0.2290948
435.20 0.224677
435.30 0.2199722
435.40 0.2152284
435.50 0.2115697
435.60 0.2092722
435.70 0.2079549
435.80 0.2070959
435.90 0.2062608
436.00 0.2051316
436.10 0.203524
436.20 0.2012837
436.30 0.1989917
436.40 0.1971397
436.50 0.1953654
436.60 0.1933278
436.70 0.1906681
436.80 0.187181
436.90 0.1829537
437.00 0.1782981
437.10 0.173614
437.20 0.1691832
437.30 0.1651842
437.40 0.1616375
437.50 0.1586027
437.60 0.1559635
437.70 0.1535772
437.80 0.1512626
437.90 0.1488156
438.00 0.1461378
438.10 0.1433516
438.20 0.1406561
438.30 0.139229
438.40 0.1399948
438.50 0.1425784
438.60 0.146536
438.70 0.1514368
438.80 0.1568788
438.90 0.1621273
439.00 0.1663324
439.10 0.1690264
439.20 0.1702916
439.30 0.1706714
439.40 0.1706351
439.50 0.170525
439.60 0.1709427
439.70 0.1723708
439.80 0.1743815
439.90 0.1770643
440.00 0.1804424
440.10 0.1843941
440.20 0.1887029
440.30 0.1926045
440.40 0.195842
440.50 0.1991968
440.60 0.2034048
440.70 0.2081589
440.80 0.2130329
440.90 0.2181713
441.00 0.2236702
441.10 0.2295411
441.20 0.2358009
441.30 0.2426439
441.40 0.2485756
441.50 0.2534462
441.60 0.2580925
441.70 0.2632157
441.80 0.2691165
441.90 0.2758273
442.00 0.2832011
442.10 0.2909795
442.20 0.2988435
442.30 0.3065143
442.40 0.3138455
442.50 0.3207208
442.60 0.3267902
442.70 0.3318751
442.80 0.336022
442.90 0.3394919
443.00 0.3426121
443.10 0.3458064
443.20 0.3493881
443.30 0.3533942
443.40 0.357653
443.50 0.3619096
443.60 0.3657736
443.70 0.368763
443.80 0.3708442
443.90 0.372487
444.00 0.37428
444.10 0.3765763
444.20 0.3792412
444.30 0.3809072
444.40 0.3812761
444.50 0.3812761
444.60 0.3812761
444.70 0.3812761
444.80 0.3809859
444.90 0.380333
445.00 0.3797452
445.10 0.3799649
445.20 0.3821831
445.30 0.386177
445.40 0.3916298
445.50 0.3971317
445.60 0.4019709
445.70 0.4059696
445.80 0.4093002
445.90 0.412504
446.00 0.4162819
446.10 0.4210766
446.20 0.4270125
446.30 0.4333308
446.40 0.4393312
446.50 0.4450936
446.60 0.4505105
446.70 0.4554192
446.80 0.4598857
446.90 0.4640765
447.00 0.4679397
447.10 0.4713077
447.20 0.4740613
447.30 0.4761972
447.40 0.4779682
447.50 0.4796498
447.60 0.4817409
447.70 0.4846226
447.80 0.4884834
447.90 0.4934571
448.00 0.4995642
448.10 0.5064838
448.20 0.5135007
448.30 0.5187747
448.40 0.5211424
448.50 0.5212823
448.60 0.5201669
448.70 0.5186969
448.80 0.5175566
448.90 0.5173683
449.00 0.5185765
449.10 0.521376
449.20 0.5256324
449.30 0.5308546
449.40 0.5365396
449.50 0.5424038
449.60 0.5481609
449.70 0.5533396
449.80 0.5575354
449.90 0.5606176
450.00 0.5627237
450.10 0.5643296
450.20 0.566054
450.30 0.5683625
450.40 0.5715736
450.50 0.5759175
450.60 0.5814185
450.70 0.5878271
450.80 0.5947716
450.90 0.6019565
451.00 0.6093079
451.10 0.6169517
451.20 0.6248682
451.30 0.632708
451.40 0.6399456
451.50 0.6460229
451.60 0.6505306
451.70 0.6534707
451.80 0.6551488
451.90 0.6559927
452.00 0.6565302
452.10 0.6572918
452.20 0.6585917
452.30 0.660481
452.40 0.6630552
452.50 0.666385
452.60 0.6704122
452.70 0.6749605
452.80 0.6797176
452.90 0.6843079
453.00 0.6883081
453.10 0.6912283
453.20 0.692667
453.30 0.6925081
453.40 0.6910207
453.50 0.6890026
453.60 0.6877373
453.70 0.6884593
453.80 0.6917217
453.90 0.6975203
454.00 0.7056462
454.10 0.715797
454.20 0.7276803
454.30 0.7408853
454.40 0.754737
454.50 0.7676687
454.60 0.7789475
454.70 0.7886071
454.80 0.7968374
454.90 0.8036773
455.00 0.8090042
455.10 0.8123779
455.20 0.8124489
455.30 0.8095846
455.40 0.8046819
455.50 0.7988561
455.60 0.792971
455.70 0.7875492
455.80 0.7829756
455.90 0.7793761
456.00 0.776498
456.10 0.7739742
456.20 0.7716188
456.30 0.7694449
456.40 0.7675024
456.50 0.7658695
456.60 0.764883
456.70 0.7649184
456.80 0.7659501
456.90 0.767719
457.00 0.77034
457.10 0.7744123
457.20 0.7805883
457.30 0.7891312
457.40 0.7998909
457.50 0.8123604
457.60 0.8255512
457.70 0.8383139
457.80 0.8496981
457.90 0.8590475
458.00 0.8660501
458.10 0.8708725
458.20 0.87424
458.30 0.8771073
458.40 0.8801999
458.50 0.8838201
458.60 0.8879509
458.70 0.8924045
458.80 0.8967333
458.90 0.9003749
459.00 0.9029542
459.10 0.9042966
459.20 0.9044773
459.30 0.9039379
459.40 0.9034091
459.50 0.9035198
459.60 0.9046389
459.70 0.9070167
459.80 0.9107293
459.90 0.9155633
460.00 0.9210835
460.10 0.9267607
460.20 0.9322441
460.30 0.9374403
460.40 0.9421179
460.50 0.9458404
460.60 0.9482903
460.70 0.9493036
460.80 0.9487081
460.90 0.9463948
461.00 0.9424198
461.10 0.9370753
461.20 0.931029
461.30 0.9251881
461.40 0.9204201
461.50 0.9173808
461.60 0.9162465
461.70 0.9165939
461.80 0.9178584
461.90 0.9196962
462.00 0.9219011
462.10 0.9244132
462.20 0.9273251
462.30 0.9307133
462.40 0.934384
462.50 0.9379523
462.60 0.9408931
462.70 0.9424825
462.80 0.9420028
462.90 0.9391243
463.00 0.9341947
463.10 0.928138
463.20 0.9221971
463.30 0.917679
463.40 0.9156587
463.50 0.9163972
463.60 0.9192272
463.70 0.9230067
463.80 0.9265641
463.90 0.9288503
464.00 0.9289703
464.10 0.9265732
464.20 0.9218889
464.30 0.9154302
464.40 0.9078938
464.50 0.9002253
464.60 0.8934169
464.70 0.8880712
464.80 0.8844303
464.90 0.8827839
465.00 0.8834056
465.10 0.8862999
465.20 0.8912903
465.30 0.8978348
465.40 0.9050957
465.50 0.9123359
465.60 0.9191848
465.70 0.925634
465.80 0.9318672
465.90 0.9381647
466.00 0.9448309
466.10 0.9520695
466.20 0.9597845
466.30 0.9675925
466.40 0.9750212
466.50 0.9817167
466.60 0.9875017
466.70 0.9924949
466.80 0.9969345
466.90 1.000976
467.00 1.004631
467.10 1.007523
467.20 1.009065
467.30 1.008795
467.40 1.006476
467.50 1.002239
467.60 0.9964985
467.70 0.9897693
467.80 0.9825883
467.90 0.9754281
468.00 0.9686826
468.10 0.9626629
468.20 0.9576148
468.30 0.9534671
468.40 0.9498022
468.50 0.9464153
468.60 0.9433048
468.70 0.9403435
468.80 0.9374199
468.90 0.9345057
469.00 0.9317751
469.10 0.9296229
469.20 0.9283806
469.30 0.9281418
469.40 0.9286708
469.50 0.9296192
469.60 0.9308658
469.70 0.9324988
469.80 0.9346592
469.90 0.9374453
470.00 0.9408259
470.10 0.9446159
470.20 0.9483288
470.30 0.9512264
470.40 0.9527478
470.50 0.9526463
470.60 0.9509505
470.70 0.9480302
470.80 0.9444956
470.90 0.9408638
471.00 0.9373096
471.10 0.9337467
471.20 0.9299297
471.30 0.925542
471.40 0.9203443
471.50 0.9142233
471.60 0.9072989
471.70 0.900009
471.80 0.8927311
471.90 0.8854905
472.00 0.8781429
472.10 0.8704087
472.20 0.8619424
472.30 0.8526242
472.40 0.8427243
472.50 0.8327861
472.60 0.8235278
472.70 0.8158872
472.80 0.810864
472.90 0.8090988
473.00 0.8105117
473.10 0.8142903
473.20 0.8192424
473.30 0.8240697
473.40 0.827346
473.50 0.8278029
473.60 0.8246951
473.70 0.8179568
473.80 0.8082639
473.90 0.7968511
474.00 0.785275
474.10 0.7749817
474.20 0.7669362
474.30 0.7616787
474.40 0.7595477
474.50 0.7605031
474.60 0.7637242
474.70 0.7680177
474.80 0.7723833
474.90 0.7759803
475.00 0.7784145
475.10 0.779786
475.20 0.7802674
475.30 0.7801089
475.40 0.7795314
475.50 0.7784775
475.60 0.7767798
475.70 0.7743545
475.80 0.7711132
475.90 0.7670064
476.00 0.7621345
476.10 0.7566956
476.20 0.750992
476.30 0.7454981
476.40 0.7406479
476.50 0.7365948
476.60 0.7331679
476.70 0.7299947
476.80 0.7268123
476.90 0.7234945
477.00 0.7197928
477.10 0.7154752
477.20 0.7105003
477.30 0.7049747
477.40 0.6991909
477.50 0.6934939
477.60 0.6882437
477.70 0.6838604
477.80 0.6807083
477.90 0.6791833
478.00 0.6797861
478.10 0.6827967
478.20 0.6880004
478.30 0.6948191
478.40 0.7025148
478.50 0.7101802
478.60 0.7168641
478.70 0.7218501
478.80 0.7249026
478.90 0.7262845
479.00 0.7263957
479.10 0.7256422
479.20 0.7244017
479.30 0.7226851
479.40 0.7200504
479.50 0.715855
479.60 0.7094369
479.70 0.7004311
479.80 0.6889818
479.90 0.6755967
480.00 0.6612118
480.10 0.6461868
480.20 0.6309575
480.30 0.6164059
480.40 0.6034107
480.50 0.5926219
480.60 0.5844978
480.70 0.5794823
480.80 0.5779914
480.90 0.5803361
481.00 0.5865704
481.10 0.5962866
481.20 0.6085492
481.30 0.6221586
481.40 0.6360291
481.50 0.6492734
481.60 0.6611639
481.70 0.6712287
481.80 0.679362
481.90 0.6859543
482.00 0.6916287
482.10 0.6969819
482.20 0.7025423
482.30 0.7086129
482.40 0.7152478
482.50 0.7223028
482.60 0.729474
482.70 0.7362961
482.80 0.7422232
482.90 0.7469249
483.00 0.7504879
483.10 0.7532003
483.20 0.7553094
483.30 0.7571027
483.40 0.7590073
483.50 0.7615056
483.60 0.7650001
483.70 0.7697356
483.80 0.7756496
483.90 0.7824167
484.00 0.7896089
484.10 0.7966759
484.20 0.8029978
484.30 0.8079494
484.40 0.8108428
484.50 0.8112221
484.60 0.8093231
484.70 0.8057983
484.80 0.8013655
484.90 0.7969746
485.00 0.793456
485.10 0.791281
485.20 0.7908836
485.30 0.7925779
485.40 0.7963599
485.50 0.801989
485.60 0.8090779
485.70 0.817086
485.80 0.8254239
485.90 0.8335091
486.00 0.8407745
486.10 0.8468529
486.20 0.851519
486.30 0.8545032
486.40 0.8557908
486.50 0.8558077
486.60 0.8551748
486.70 0.8544587
486.80 0.8541616
486.90 0.8546862
487.00 0.8562118
487.10 0.858794
487.20 0.8624558
487.30 0.8670881
487.40 0.8722958
487.50 0.877537
487.60 0.8824775
487.70 0.8869812
487.80 0.8909621
487.90 0.8941224
488.00 0.8958855
488.10 0.8959191
488.20 0.8943251
488.30 0.8915919
488.40 0.8885563
488.50 0.8860087
488.60 0.8845292
488.70 0.8845321
488.80 0.8862048
488.90 0.8894325
489.00 0.8937245
489.10 0.8983145
489.20 0.9023989
489.30 0.9055779
489.40 0.9082196
489.50 0.9110072
489.60 0.9144916
489.70 0.9191263
489.80 0.9250753
489.90 0.9321763
490.00 0.939739
490.10 0.9477026
490.20 0.9560674
490.30 0.9643555
490.40 0.9720925
490.50 0.978899
490.60 0.9844155
490.70 0.9881995
490.80 0.9895451
490.90 0.9876242
491.00 0.98184
491.10 0.9718607
491.20 0.9578481
491.30 0.9405561
491.40 0.9217767
491.50 0.9030569
491.60 0.8852005
491.70 0.8688966
491.80 0.8546773
491.90 0.8443704
492.00 0.8380035
492.10 0.8350011
492.20 0.8343216
492.30 0.8346682
492.40 0.8346882
492.50 0.8333441
492.60 0.8301807
492.70 0.825405
492.80 0.8197405
492.90 0.8140003
493.00 0.808835
493.10 0.8047521
493.20 0.8019986
493.30 0.8004686
493.40 0.7998803
493.50 0.7998796
493.60 0.8001212
493.70 0.8004127
493.80 0.8008891
493.90 0.8019393
494.00 0.803964
494.10 0.8072658
494.20 0.811975
494.30 0.8180609
494.40 0.8253484
494.50 0.8333242
494.60 0.8411964
494.70 0.8482588
494.80 0.8539531
494.90 0.8576914
495.00 0.8591183
495.10 0.8583628
495.20 0.8558837
495.30 0.8521875
495.40 0.8477322
495.50 0.8429872
495.60 0.8383472
495.70 0.8341515
495.80 0.8308086
495.90 0.8287558
496.00 0.8282676
496.10 0.8293954
496.20 0.8322668
496.30 0.8371813
496.40 0.8442083
496.50 0.8530835
496.60 0.8633463
496.70 0.8744643
496.80 0.8858361
496.90 0.8968822
497.00 0.9072363
497.10 0.9165707
497.20 0.9243816
497.30 0.9302847
497.40 0.9343821
497.50 0.9371422
497.60 0.9390484
497.70 0.9406447
497.80 0.9426206
497.90 0.9455383
498.00 0.9496163
498.10 0.9546334
498.20 0.9600219
498.30 0.9649401
498.40 0.9685107
498.50 0.9703266
498.60 0.9705927
498.70 0.9698899
498.80 0.9688162
498.90 0.9678913
499.00 0.9676192
499.10 0.9683447
499.20 0.9702965
499.30 0.9736202
499.40 0.9780973
499.50 0.983275
499.60 0.9886255
499.70 0.9934728
499.80 0.9971653
499.90 0.9993121
500.00 1
500.10 0.99957
500.20 0.9985288
500.30 0.9975709
500.40 0.9973686
500.50 0.9984985
500.60 1.001202
500.70 1.005314
500.80 1.010569
500.90 1.016757
501.00 1.023852
501.10 1.032206
501.20 1.042316
501.30 1.054335
501.40 1.067259
501.50 1.080246
501.60 1.093115
501.70 1.105632
501.80 1.117519
501.90 1.126845
502.00 1.133229
502.10 1.136904
502.20 1.138648
502.30 1.139513
502.40 1.140597
502.50 1.142754
502.60 1.146395
502.70 1.151472
502.80 1.157418
502.90 1.163422
503.00 1.168672
503.10 1.172454
503.20 1.174378
503.30 1.174539
503.40 1.173367
503.50 1.171485
503.60 1.169685
503.70 1.168763
503.80 1.169203
503.90 1.170942
504.00 1.173402
504.10 1.175592
504.20 1.176551
504.30 1.175597
504.40 1.172421
504.50 1.167378
504.60 1.16146
504.70 1.155918
504.80 1.151886
504.90 1.150109
505.00 1.150624
505.10 1.152682
505.20 1.154977
505.30 1.156131
505.40 1.15515
505.50 1.151639
505.60 1.145809
505.70 1.138341
505.80 1.130197
505.90 1.122335
506.00 1.11557
506.10 1.110416
506.20 1.106983
506.30 1.104945
506.40 1.103745
506.50 1.102804
506.60 1.101666
506.70 1.099987
506.80 1.097543
506.90 1.094502
507.00 1.091442
507.10 1.089109
507.20 1.08814
507.30 1.088816
507.40 1.090865
507.50 1.093625
507.60 1.096376
507.70 1.098541
507.80 1.099759
507.90 1.100046
508.00 1.099802
508.10 1.099558
508.20 1.099971
508.30 1.101659
508.40 1.10473
508.50 1.108635
508.60 1.112576
508.70 1.116015
508.80 1.118806
508.90 1.121164
509.00 1.123614
509.10 1.126766
509.20 1.130923
509.30 1.135828
509.40 1.140851
509.50 1.145383
509.60 1.149003
509.70 1.151519
509.80 1.153166
509.90 1.15453
510.00 1.156205
510.10 1.158504
510.20 1.161382
510.30 1.164464
510.40 1.167069
510.50 1.168485
510.60 1.168599
510.70 1.167878
510.80 1.166957
510.90 1.166627
511.00 1.167501
511.10 1.169639
511.20 1.172519
511.30 1.175439
511.40 1.177842
511.50 1.179301
511.60 1.179687
511.70 1.179254
511.80 1.178527
511.90 1.178143
512.00 1.178329
512.10 1.178788
512.20 1.179029
512.30 1.178506
512.40 1.17677
512.50 1.173555
512.60 1.168901
512.70 1.163176
512.80 1.156998
512.90 1.15107
513.00 1.146018
513.10 1.14233
513.20 1.140233
513.30 1.139592
513.40 1.140161
513.50 1.141851
513.60 1.144574
513.70 1.14797
513.80 1.151445
513.90 1.154552
514.00 1.157115
514.10 1.159231
514.20 1.16125
514.30 1.163668
514.40 1.166934
514.50 1.171213
514.60 1.176297
514.70 1.181658
514.80 1.186613
514.90 1.1906
515.00 1.19337
515.10 1.195045
515.20 1.196037
515.30 1.196874
515.40 1.1981
515.50 1.199993
515.60 1.202338
515.70 1.20467
515.80 1.206503
515.90 1.207389
516.00 1.207154
516.10 1.206046
516.20 1.204486
516.30 1.203078
516.40 1.202549
516.50 1.203418
516.60 1.20586
516.70 1.20973
516.80 1.214707
516.90 1.220304
517.00 1.225926
517.10 1.23097
517.20 1.234991
517.30 1.237995
517.40 1.240402
517.50 1.242757
517.60 1.245583
517.70 1.249016
517.80 1.252732
517.90 1.256348
518.00 1.259696
518.10 1.262867
518.20 1.265852
518.30 1.268625
518.40 1.271491
518.50 1.275075
518.60 1.280006
518.70 1.286493
518.80 1.294271
518.90 1.302604
519.00 1.310427
519.10 1.316782
519.20 1.321159
519.30 1.323601
519.40 1.324556
519.50 1.324686
519.60 1.324813
519.70 1.325688
519.80 1.327686
519.90 1.330818
520.00 1.334812
520.10 1.339214
520.20 1.343504
520.30 1.347464
520.40 1.351409
520.50 1.355841
520.60 1.360888
520.70 1.366201
520.80 1.371212
520.90 1.375249
521.00 1.377835
521.10 1.379
521.20 1.379327
521.30 1.379466
521.40 1.379891
521.50 1.381111
521.60 1.383517
521.70 1.387179
521.80 1.391802
521.90 1.396819
522.00 1.401876
522.10 1.407056
522.20 1.412616
522.30 1.418836
522.40 1.425897
522.50 1.433748
522.60 1.442043
522.70 1.450387
522.80 1.458623
522.90 1.466876
523.00 1.475442
523.10 1.48464
523.20 1.494642
523.30 1.505407
523.40 1.516677
523.50 1.527881
523.60 1.538207
523.70 1.546893
523.80 1.553417
523.90 1.557553
524.00 1.559463
524.10 1.559745
524.20 1.559253
524.30 1.558929
524.40 1.559617
524.50 1.561806
524.60 1.565585
524.70 1.570825
524.80 1.577145
524.90 1.583849
525.00 1.590218
525.10 1.595774
525.20 1.600499
525.30 1.604884
525.40 1.609648
525.50 1.61558
525.60 1.623424
525.70 1.633414
525.80 1.645103
525.90 1.657649
526.00 1.669905
526.10 1.680545
526.20 1.688329
526.30 1.692313
526.40 1.692026
526.50 1.687615
526.60 1.679729
526.70 1.669482
526.80 1.658256
526.90 1.647223
527.00 1.637086
527.10 1.628254
527.20 1.62104
527.30 1.615513
527.40 1.61151
527.50 1.608753
527.60 1.606938
527.70 1.605876
527.80 1.60537
527.90 1.604929
528.00 1.603694
528.10 1.600618
528.20 1.594986
528.30 1.586785
528.40 1.576657
528.50 1.565603
528.60 1.554662
528.70 1.544765
528.80 1.536529
528.90 1.530226
529.00 1.525863
529.10 1.523101
529.20 1.521332
529.30 1.520025
529.40 1.519008
529.50 1.518319
529.60 1.517959
529.70 1.517891
529.80 1.517997
529.90 1.517975
530.00 1.51744
530.10 1.516249
530.20 1.514627
530.30 1.512824
530.40 1.510893
530.50 1.508984
530.60 1.507465
530.70 1.506768
530.80 1.507309
530.90 1.50933
531.00 1.512623
531.10 1.516433
531.20 1.519693
531.30 1.521648
531.40 1.522173
531.50 1.521464
531.60 1.519918
531.70 1.518109
531.80 1.51655
531.90 1.515527
532.00 1.514991
532.10 1.514451
532.20 1.513029
532.30 1.50995
532.40 1.505071
532.50 1.499016
532.60 1.493006
532.70 1.488309
532.80 1.485675
532.90 1.485225
533.00 1.486597
533.10 1.489212
533.20 1.492594
533.30 1.496484
533.40 1.500807
533.50 1.505703
533.60 1.511431
533.70 1.518126
533.80 1.525686
533.90 1.53391
534.00 1.542556
534.10 1.551272
534.20 1.559668
534.30 1.567377
534.40 1.574216
534.50 1.580406
534.60 1.586491
534.70 1.593029
534.80 1.600533
534.90 1.609575
535.00 1.620632
535.10 1.63381
535.20 1.648626
535.30 1.664018
535.40 1.67862
535.50 1.691194
535.60 1.701014
535.70 1.708161
535.80 1.713369
535.90 1.717607
536.00 1.721766
536.10 1.726628
536.20 1.73288
536.30 1.740819
536.40 1.75026
536.50 1.760819
536.60 1.772194
536.70 1.784041
536.80 1.79597
536.90 1.807722
537.00 1.819066
537.10 1.829679
537.20 1.839277
537.30 1.847688
537.40 1.854926
537.50 1.861146
537.60 1.866404
537.70 1.870773
537.80 1.874703
537.90 1.878989
538.00 1.884536
538.10 1.892274
538.20 1.902846
538.30 1.916219
538.40 1.931683
538.50 1.948007
538.60 1.963661
538.70 1.977236
538.80 1.987781
538.90 1.994913
539.00 1.998881
539.10 2.000608
539.20 2.001369
539.30 2.002385
539.40 2.004555
539.50 2.008324
539.60 2.013735
539.70 2.020465
539.80 2.027927
539.90 2.035496
540.00 2.042618
540.10 2.048843
540.20 2.053891
540.30 2.057796
540.40 2.060948
540.50 2.063651
540.60 2.065899
540.70 2.067553
540.80 2.068498
540.90 2.068725
541.00 2.068458
541.10 2.068231
541.20 2.068693
541.30 2.07027
541.40 2.072982
541.50 2.076534
541.60 2.080392
541.70 2.083881
541.80 2.086418
541.90 2.087894
542.00 2.088819
542.10 2.090138
542.20 2.092921
542.30 2.097739
542.40 2.104224
542.50 2.111436
542.60 2.118286
542.70 2.123778
542.80 2.127268
542.90 2.128445
543.00 2.127186
543.10 2.123546
543.20 2.11771
543.30 2.109765
543.40 2.099617
543.50 2.087182
543.60 2.072583
543.70 2.056501
543.80 2.040194
543.90 2.024817
544.00 2.011067
544.10 1.999368
544.20 1.989781
544.30 1.981851
544.40 1.974766
544.50 1.967468
544.60 1.958796
544.70 1.947934
544.80 1.934675
544.90 1.919273
545.00 1.902282
545.10 1.88448
545.20 1.866733
545.30 1.849811
545.40 1.834086
545.50 1.819347
545.60 1.805058
545.70 1.790715
545.80 1.77594
545.90 1.760584
546.00 1.74493
546.10 1.729531
546.20 1.714915
546.30 1.701456
546.40 1.689308
546.50 1.678267
546.60 1.667666
546.70 1.656664
546.80 1.644681
546.90 1.631573
547.00 1.617565
547.10 1.602871
547.20 1.587614
547.30 1.572107
547.40 1.55667
547.50 1.541646
547.60 1.527427
547.70 1.514283
547.80 1.50215
547.90 1.49068
548.00 1.479449
548.10 1.468041
548.20 1.456276
548.30 1.444252
548.40 1.432135
548.50 1.420162
548.60 1.408614
548.70 1.397578
548.80 1.38709
548.90 1.377225
549.00 1.367918
549.10 1.358935
549.20 1.350073
549.30 1.341206
549.40 1.332253
549.50 1.323222
549.60 1.314079
549.70 1.304765
549.80 1.295273
549.90 1.285753
550.00 1.112769
550.10 1.094792
550.20 1.075903
550.30 1.056341
550.40 1.036968
550.50 1.01898
550.60 1.003506
550.70 0.99068
550.80 0.9796993
550.90 0.969792
551.00 0.9605412
551.10 0.9515015
551.20 0.942563
551.30 0.9343916
551.40 0.927925
551.50 0.9240911
551.60 0.9234543
551.70 0.9255744
551.80 0.9295012
551.90 0.9341472
552.00 0.9382919
552.10 0.9409232
552.20 0.9416036
552.30 0.9406474
552.40 0.939521
552.50 0.9406277
552.60 0.9457277
552.70 0.9548079
552.80 0.9663454
552.90 0.9783503
553.00 0.9890385
553.10 0.9971706
553.20 1.002153
553.30 1.003696
553.40 1.00187
553.50 0.9974402
553.60 0.9920002
553.70 0.9877403
553.80 0.9863002
553.90 0.9883974
554.00 0.9941204
554.10 1.003349
554.20 1.01587
554.30 1.031022
554.40 1.047926
554.50 1.065348
554.60 1.082019
554.70 1.097495
554.80 1.112168
554.90 1.126669
555.00 1.141223
555.10 1.155619
555.20 1.17313
555.30 1.201903
555.40 1.251289
555.50 1.327966
555.60 1.433408
555.70 1.563546
555.80 1.708731
555.90 1.855928
556.00 1.991851
556.10 2.105397
556.20 2.190076
556.30 2.245825
556.40 2.278875
556.50 2.299918
556.60 2.318565
556.70 2.339692
556.80 2.364788
556.90 2.393636
557.00 2.425477
557.10 2.459224
557.20 2.493797
557.30 2.528232
557.40 2.561569
557.50 2.593064
557.60 2.622087
557.70 2.647643
557.80 2.66856
557.90 2.6841
558.00 2.694752
558.10 2.702479
558.20 2.709849
558.30 2.718986
558.40 2.730945
558.50 2.7456
558.60 2.762037
558.70 2.778904
558.80 2.794805
558.90 2.808699
559.00 2.820333
559.10 2.830167
559.20 2.83554
559.30 2.829319
559.40 2.80309
559.50 2.750463
559.60 2.669673
559.70 2.564583
559.80 2.444657
559.90 2.322797
560.00 2.212425
560.10 2.124651
560.20 2.065303
560.30 2.033243
560.40 2.021246
560.50 2.018535
560.60 2.016565
560.70 2.012056
560.80 2.004833
560.90 1.996007
561.00 1.987015
561.10 1.979014
561.20 1.972292
561.30 1.967022
561.40 1.963741
561.50 1.962779
561.60 1.964411
561.70 1.969438
561.80 1.978762
561.90 1.992282
562.00 2.008401
562.10 2.024628
562.20 2.038947
562.30 2.050409
562.40 2.058864
562.50 2.064913
562.60 2.069701
562.70 2.074065
562.80 2.078005
562.90 2.081119
563.00 2.08289
563.10 2.082824
563.20 2.080346
563.30 2.074848
563.40 2.06674
563.50 2.057772
563.60 2.050189
563.70 2.0457
563.80 2.044744
563.90 2.046691
564.00 2.050297
564.10 2.054299
564.20 2.058106
564.30 2.06187
564.40 2.066133
564.50 2.071126
564.60 2.076508
564.70 2.082117
564.80 2.088161
564.90 2.094678
565.00 2.101251
565.10 2.107279
565.20 2.11319
565.30 2.120548
565.40 2.131096
565.50 2.146147
565.60 2.165767
565.70 2.188273
565.80 2.210902
565.90 2.231019
566.00 2.246929
566.10 2.257836
566.20 2.263018
566.30 2.261798
566.40 2.254276
566.50 2.241596
566.60 2.225388
566.70 2.207635
566.80 2.190527
566.90 2.175971
567.00 2.165442
567.10 2.159696
567.20 2.158573
567.30 2.161063
567.40 2.165291
567.50 2.168962
567.60 2.170406
567.70 2.169392
567.80 2.16714
567.90 2.165547
568.00 2.166161
568.10 2.169342
568.20 2.174324
568.30 2.179686
568.40 2.183503
568.50 2.184459
568.60 2.182469
568.70 2.177872
568.80 2.171416
568.90 2.164257
569.00 2.157608
569.10 2.152455
569.20 2.148404
569.30 2.14369
569.40 2.136625
569.50 2.126313
569.60 2.113034
569.70 2.098696
569.80 2.086553
569.90 2.079471
570.00 2.078741
570.10 2.084422
570.20 2.0955
570.30 2.109933
570.40 2.125324
570.50 2.139501
570.60 2.151189
570.70 2.160096
570.80 2.166393
570.90 2.170358
571.00 2.172221
571.10 2.172062
571.20 2.169845
571.30 2.165823
571.40 2.160353
571.50 2.153294
571.60 2.144272
571.70 2.133156
571.80 2.120166
571.90 2.105297
572.00 2.088541
572.10 2.070873
572.20 2.053972
572.30 2.039774
572.40 2.030019
572.50 2.02535
572.60 2.025424
572.70 2.029428
572.80 2.035903
572.90 2.043003
573.00 2.048686
573.10 2.050866
573.20 2.048285
573.30 2.041482
573.40 2.031916
573.50 2.02101
573.60 2.009955
573.70 1.999014
573.80 1.987512
573.90 1.974771
574.00 1.960814
574.10 1.946442
574.20 1.933455
574.30 1.924466
574.40 1.921919
574.50 1.927414
574.60 1.94119
574.70 1.961494
574.80 1.985379
574.90 2.009704
575.00 2.03165
575.10 2.049679
575.20 2.063813
575.30 2.07488
575.40 2.083961
575.50 2.092292
575.60 2.100948
575.70 2.110515
575.80 2.121052
575.90 2.132642
576.00 2.145183
576.10 2.15808
576.20 2.170626
576.30 2.181883
576.40 2.190889
576.50 2.196669
576.60 2.198268
576.70 2.195385
576.80 2.188739
576.90 2.17996
577.00 2.171165
577.10 2.164617
577.20 2.162091
577.30 2.163799
577.40 2.168679
577.50 2.175154
577.60 2.181137
577.70 2.184278
577.80 2.182701
577.90 2.175998
578.00 2.165032
578.10 2.151063
578.20 2.135537
578.30 2.119897
578.40 2.105407
578.50 2.092445
578.60 2.08036
578.70 2.068734
578.80 2.057311
578.90 2.045483
579.00 2.033079
579.10 2.0207
579.20 2.008922
579.30 1.997888
579.40 1.987845
579.50 1.978785
579.60 1.969416
579.70 1.957534
579.80 1.940988
579.90 1.918424
580.00 1.889897
580.10 1.85667
580.20 1.821219
580.30 1.787003
580.40 1.757122
580.50 1.733803
580.60 1.718633
580.70 1.711969
580.80 1.712372
580.90 1.717471
581.00 1.725028
581.10 1.733097
581.20 1.740193
581.30 1.745694
581.40 1.749857
581.50 1.753085
581.60 1.755871
581.70 1.759332
581.80 1.764968
581.90 1.773623
582.00 1.784778
582.10 1.797088
582.20 1.809146
582.30 1.819732
582.40 1.827998
582.50 1.833728
582.60 1.837038
582.70 1.837987
582.80 1.837024
582.90 1.83522
583.00 1.833213
583.10 1.830533
583.20 1.826336
583.30 1.820011
583.40 1.811446
583.50 1.801869
583.60 1.793747
583.70 1.789582
583.80 1.790914
583.90 1.798037
584.00 1.810429
584.10 1.826776
584.20 1.844216
584.30 1.859013
584.40 1.868293
584.50 1.870353
584.60 1.863938
584.70 1.848605
584.80 1.825345
584.90 1.795582
585.00 1.760918
585.10 1.72374
585.20 1.68687
585.30 1.652484
585.40 1.62155
585.50 1.594278
585.60 1.57045
585.70 1.549215
585.80 1.528899
585.90 1.507578
586.00 1.484074
586.10 1.457859
586.20 1.428511
586.30 1.396158
586.40 1.361088
586.50 1.323903
586.60 1.286687
586.70 1.252456
586.80 1.22369
586.90 1.201647
587.00 1.186643
587.10 1.177884
587.20 1.173857
587.30 1.172624
587.40 1.1715
587.50 1.167717
587.60 1.159493
587.70 1.145902
587.80 1.126936
587.90 1.103347
588.00 1.076025
588.10 1.046186
588.20 1.015696
588.30 0.9868731
588.40 0.9619594
588.50 0.9429557
588.60 0.9306992
588.70 0.9246261
588.80 0.9238592
588.90 0.9273971
589.00 0.9335676
589.10 0.9397553
589.20 0.9431675
589.30 0.9419493
589.40 0.9351934
589.50 0.9232878
589.60 0.9083675
589.70 0.8935438
589.80 0.8816665
589.90 0.8746062
590.00 0.8732722
590.10 0.8775704
590.20 0.8860131
590.30 0.8955899
590.40 0.9030954
590.50 0.906504
590.60 0.9043186
590.70 0.8955033
590.80 0.8805313
590.90 0.861325
591.00 0.8404571
591.10 0.8206925
591.20 0.8042436
591.30 0.7925699
591.40 0.7862567
591.50 0.7845633
591.60 0.7860228
591.70 0.7897005
591.80 0.7954073
591.90 0.8034146
592.00 0.8145152
592.10 0.8296098
592.20 0.8491087
592.30 0.8724222
592.40 0.8979666
592.50 0.9236107
592.60 0.9481173
592.70 0.9713426
592.80 0.9933161
592.90 1.014289
593.00 1.034691
593.10 1.05524
593.20 1.076495
593.30 1.098312
593.40 1.120544
593.50 1.142549
593.60 1.162821
593.70 1.18009
593.80 1.193895
593.90 1.204849
594.00 1.214276
594.10 1.223734
594.20 1.234885
594.30 1.24942
594.40 1.268508
594.50 1.291644
594.60 1.317201
594.70 1.343438
594.80 1.368569
594.90 1.391477
595.00 1.412022
595.10 1.430489
595.20 1.447547
595.30 1.464292
595.40 1.481964
595.50 1.501719
595.60 1.524263
595.70 1.5496
595.80 1.577159
595.90 1.605949
596.00 1.634144
596.10 1.659207
596.20 1.679068
596.30 1.692951
596.40 1.701089
596.50 1.70457
596.60 1.704908
596.70 1.703624
596.80 1.702269
596.90 1.702078
597.00 1.704009
597.10 1.70884
597.20 1.716944
597.30 1.728188
597.40 1.742171
597.50 1.758905
597.60 1.778318
597.70 1.799606
597.80 1.82194
597.90 1.844658
598.00 1.86739
598.10 1.890031
598.20 1.912526
598.30 1.935057
598.40 1.957915
598.50 1.981244
598.60 2.005161
598.70 2.029663
598.80 2.05409
598.90 2.076933
599.00 2.096155
599.10 2.10995
599.20 2.117171
599.30 2.117437
599.40 2.111357
599.50 2.100543
599.60 2.087467
599.70 2.074747
599.80 2.0645
599.90 2.058222
600.00 2.457012
600.10 2.529844
600.20 2.585001
600.30 2.619712
600.40 2.630692
600.50 2.600073
600.60 2.531949
600.70 2.44668
600.80 2.35016
600.90 2.24399
601.00 2.128036
601.10 1.995151
601.20 1.85192
601.30 1.717353
601.40 1.605514
601.50 1.529767
601.60 1.511293
601.70 1.558834
601.80 1.664941
601.90 1.811092
602.00 1.961654
602.10 2.084223
602.20 2.169713
602.30 2.204514
602.40 2.189171
602.50 2.142192
602.60 2.071207
602.70 1.995047
602.80 1.948039
602.90 1.958089
603.00 2.029497
603.10 2.150244
603.20 2.29966
603.30 2.444184
603.40 2.546427
603.50 2.602929
603.60 2.631683
603.70 2.650947
603.80 2.674734
603.90 2.702941
604.00 2.734071
604.10 2.765036
604.20 2.783957
604.30 2.778659
604.40 2.738371
604.50 2.64702
604.60 2.497789
604.70 2.316162
604.80 2.155138
604.90 2.049282
605.00 2.003881
605.10 2.015285
605.20 2.072906
605.30 2.17393
605.40 2.304659
605.50 2.418357
605.60 2.457069
605.70 2.397868
605.80 2.269242
605.90 2.124613
606.00 2.02433
606.10 2.010374
606.20 2.08096
606.30 2.196996
606.40 2.328417
606.50 2.470068
606.60 2.614827
606.70 2.742717
606.80 2.838038
606.90 2.906154
607.00 2.966859
607.10 3.022885
607.20 3.053091
607.30 3.036348
607.40 2.971591
607.50 2.879287
607.60 2.790062
607.70 2.740375
607.80 2.743277
607.90 2.784501
608.00 2.846208
608.10 2.906656
608.20 2.950683
608.30 2.975812
608.40 2.983578
608.50 2.970191
608.60 2.931306
608.70 2.876
608.80 2.797667
608.90 2.679419
609.00 2.531895
609.10 2.383593
609.20 2.260742
609.30 2.176496
609.40 2.135134
609.50 2.138521
609.60 2.176412
609.70 2.233453
609.80 2.292997
609.90 2.340826
610.00 2.368215
610.10 2.355188
610.20 2.298756
610.30 2.22193
610.40 2.140337
610.50 2.059391
610.60 1.993946
610.70 1.975224
610.80 2.021379
610.90 2.123794
611.00 2.257581
611.10 2.389328
611.20 2.494307
611.30 2.565544
611.40 2.61054
611.50 2.65208
611.60 2.703457
611.70 2.755943
611.80 2.800982
611.90 2.845274
612.00 2.888128
612.10 2.907853
612.20 2.889885
612.30 2.842553
612.40 2.77789
612.50 2.695132
612.60 2.596833
612.70 2.489007
612.80 2.376699
612.90 2.272078
613.00 2.204935
613.10 2.203479
613.20 2.269807
613.30 2.377593
613.40 2.494667
613.50 2.600968
613.60 2.68384
613.70 2.736051
613.80 2.758985
613.90 2.762616
614.00 2.751238
614.10 2.727558
614.20 2.695102
614.30 2.645788
614.40 2.574504
614.50 2.490638
614.60 2.407099
614.70 2.339991
614.80 2.312393
614.90 2.333635
615.00 2.3881
615.10 2.455098
615.20 2.513593
615.30 2.541548
615.40 2.527714
615.50 2.468347
615.60 2.364937
615.70 2.239865
615.80 2.120832
615.90 2.027196
616.00 1.979797
616.10 1.989964
616.20 2.049567
616.30 2.145833
616.40 2.2722
616.50 2.407806
616.60 2.524299
616.70 2.605421
616.80 2.62977
616.90 2.581428
617.00 2.471891
617.10 2.334435
617.20 2.200966
617.30 2.093576
617.40 2.031481
617.50 2.025129
617.60 2.068865
617.70 2.138655
617.80 2.202436
617.90 2.239201
618.00 2.24331
618.10 2.210469
618.20 2.147374
618.30 2.088133
618.40 2.060189
618.50 2.058261
618.60 2.062181
618.70 2.065946
618.80 2.072779
618.90 2.078532
619.00 2.082208
619.10 2.082082
619.20 2.073457
619.30 2.052911
619.40 2.023836
619.50 1.997791
619.60 1.985663
619.70 1.984632
619.80 1.986624
619.90 1.993705
620.00 2.011248
620.10 2.031438
620.20 2.041498
620.30 2.039515
620.40 2.022468
620.50 1.99127
620.60 1.953813
620.70 1.926793
620.80 1.919371
620.90 1.930878
621.00 1.968056
621.10 2.03076
621.20 2.108325
621.30 2.185623
621.40 2.249302
621.50 2.287607
621.60 2.291814
621.70 2.250851
621.80 2.169633
621.90 2.082792
622.00 2.020441
622.10 1.983389
622.20 1.972612
622.30 1.9977
622.40 2.051154
622.50 2.112137
622.60 2.155899
622.70 2.16914
622.80 2.161325
622.90 2.153998
623.00 2.154004
623.10 2.165494
623.20 2.18893
623.30 2.214131
623.40 2.240006
623.50 2.274397
623.60 2.316081
623.70 2.351089
623.80 2.371162
623.90 2.373376
624.00 2.365981
624.10 2.357166
624.20 2.341908
624.30 2.313386
624.40 2.276142
624.50 2.244593
624.60 2.230202
624.70 2.233328
624.80 2.247377
624.90 2.267888
625.00 2.287706
625.10 2.301514
625.20 2.300286
625.30 2.271947
625.40 2.213687
625.50 2.136689
625.60 2.056787
625.70 1.992339
625.80 1.966136
625.90 1.993233
626.00 2.076299
626.10 2.201158
626.20 2.333673
626.30 2.437038
626.40 2.493167
626.50 2.496003
626.60 2.447671
626.70 2.367165
626.80 2.281202
626.90 2.210232
627.00 2.169011
627.10 2.163522
627.20 2.188691
627.30 2.238267
627.40 2.302622
627.50 2.365425
627.60 2.430748
627.70 2.517793
627.80 2.631941
627.90 2.761946
628.00 2.892168
628.10 3.010477
628.20 3.10373
628.30 3.152688
628.40 3.14856
628.50 3.100639
628.60 3.02719
628.70 2.945234
628.80 2.871657
628.90 2.830522
629.00 2.828829
629.10 2.853011
629.20 2.883638
629.30 2.90072
629.40 2.898946
629.50 2.903061
629.60 2.922596
629.70 2.94497
629.80 2.966784
629.90 2.986877
630.00 3.006412
630.10 3.024439
630.20 3.032121
630.30 3.024643
630.40 3.007818
630.50 2.983471
630.60 2.951381
630.70 2.920016
630.80 2.903266
630.90 2.896267
631.00 2.904639
631.10 2.952284
631.20 3.04023
631.30 3.155708
631.40 3.278311
631.50 3.395
631.60 3.506221
631.70 3.599152
631.80 3.650087
631.90 3.649795
632.00 3.610888
632.10 3.555935
632.20 3.503057
632.30 3.45839
632.40 3.428633
632.50 3.431785
632.60 3.483061
632.70 3.580261
632.80 3.713132
632.90 3.865366
633.00 4.018469
633.10 4.163794
633.20 4.296478
633.30 4.411371
633.40 4.501311
633.50 4.558294
633.60 4.572941
633.70 4.5484
633.80 4.495135
633.90 4.415036
634.00 4.321238
634.10 4.232775
634.20 4.157362
634.30 4.09804
634.40 4.057084
634.50 4.036903
634.60 4.041273
634.70 4.074045
634.80 4.123515
634.90 4.164506
635.00 4.186631
635.10 4.184678
635.20 4.156538
635.30 4.119755
635.40 4.093307
635.50 4.091784
635.60 4.124494
635.70 4.192542
635.80 4.287086
635.90 4.388359
636.00 4.472092
636.10 4.516181
636.20 4.52141
636.30 4.50725
636.40 4.483606
636.50 4.457739
636.60 4.43493
636.70 4.409169
636.80 4.377142
636.90 4.344589
637.00 4.326158
637.10 4.330438
637.20 4.35744
637.30 4.409133
637.40 4.484628
637.50 4.569745
637.60 4.640001
637.70 4.669955
637.80 4.645811
637.90 4.568878
638.00 4.456188
638.10 4.337806
638.20 4.232535
638.30 4.146501
638.40 4.078537
638.50 4.026853
638.60 3.992731
638.70 3.973142
638.80 3.962967
638.90 3.959324
639.00 3.955576
639.10 3.958484
639.20 3.986085
639.30 4.044833
639.40 4.126391
639.50 4.214073
639.60 4.302081
639.70 4.39192
639.80 4.48739
639.90 4.587058
640.00 4.680825
640.10 4.760137
640.20 4.819427
640.30 4.851753
640.40 4.855614
640.50 4.830137
640.60 4.772244
640.70 4.679488
640.80 4.555207
640.90 4.417201
641.00 4.289006
641.10 4.194811
641.20 4.150273
641.30 4.162035
641.40 4.230961
641.50 4.343993
641.60 4.480221
641.70 4.625585
641.80 4.768703
641.90 4.89136
642.00 4.97291
642.10 5.004935
642.20 4.995992
642.30 4.95237
642.40 4.870201
642.50 4.753217
642.60 4.617279
642.70 4.482581
642.80 4.372272
642.90 4.306759
643.00 4.287119
643.10 4.29513
643.20 4.3124
643.30 4.328908
643.40 4.34582
643.50 4.371225
643.60 4.402115
643.70 4.430373
643.80 4.452127
643.90 4.460576
644.00 4.456607
644.10 4.447617
644.20 4.435161
644.30 4.423711
644.40 4.425626
644.50 4.45325
644.60 4.516013
644.70 4.614481
644.80 4.731148
644.90 4.839005
645.00 4.919151
645.10 4.960249
645.20 4.967907
645.30 4.963712
645.40 4.960698
645.50 4.953775
645.60 4.931898
645.70 4.891864
645.80 4.844005
645.90 4.804612
646.00 4.780235
646.10 4.771316
646.20 4.77594
646.30 4.790766
646.40 4.81845
646.50 4.863433
646.60 4.912327
646.70 4.932793
646.80 4.902206
646.90 4.827251
647.00 4.729262
647.10 4.624842
647.20 4.527682
647.30 4.453173
647.40 4.414908
647.50 4.420379
647.60 4.468474
647.70 4.547169
647.80 4.632828
647.90 4.707295
648.00 4.765639
648.10 4.810238
648.20 4.843461
648.30 4.866855
648.40 4.890546
648.50 4.927406
648.60 4.980426
648.70 5.044229
648.80 5.112111
648.90 5.175777
649.00 5.229637
649.10 5.27608
649.20 5.320369
649.30 5.360159
649.40 5.392713
649.50 5.427959
649.60 5.478527
649.70 5.547512
649.80 5.627655
649.90 5.706701
650.00 5.773469
650.10 5.811001
650.20 5.806961
650.30 5.767964
650.40 5.713792
650.50 5.670358
650.60 5.663122
650.70 5.7037
650.80 5.786392
650.90 5.891649
651.00 5.998983
651.10 6.098095
651.20 6.177618
651.30 6.230131
651.40 6.253979
651.50 6.254561
651.60 6.247862
651.70 6.250367
651.80 6.270372
651.90 6.307956
652.00 6.361603
652.10 6.435808
652.20 6.528959
652.30 6.632891
652.40 6.744494
652.50 6.858494
652.60 6.977836
652.70 7.109262
652.80 7.251628
652.90 7.407142
653.00 7.577208
653.10 7.748844
653.20 7.906143
653.30 8.053025
653.40 8.197147
653.50 8.334504
653.60 8.466288
653.70 8.597069
653.80 8.72265
653.90 8.830756
654.00 8.910495
654.10 8.95599
654.20 8.968615
654.30 8.952321
654.40 8.907829
654.50 8.840374
654.60 8.764681
654.70 8.687355
654.80 8.613968
654.90 8.547997
655.00 8.483019
655.10 8.425035
655.20 8.381458
655.30 8.358639
655.40 8.366981
655.50 8.401579
655.60 8.451849
655.70 8.522224
655.80 8.631292
655.90 8.806785
656.00 9.064573
656.10 9.376791
656.20 9.670678
656.30 9.891231
656.40 10.01185
656.50 10.00701
656.60 9.879844
656.70 9.654384
656.80 9.352394
656.90 9.014429
657.00 8.695607
657.10 8.429278
657.20 8.208359
657.30 8.010258
657.40 7.824651
657.50 7.656789
657.60 7.527
657.70 7.444892
657.80 7.41501
657.90 7.432922
658.00 7.462382
658.10 7.470003
658.20 7.439988
658.30 7.367882
658.40 7.254991
658.50 7.117067
658.60 6.997388
658.70 6.938992
658.80 6.947904
658.90 7.005875
659.00 7.104454
659.10 7.23829
659.20 7.391846
659.30 7.551809
659.40 7.719381
659.50 7.897741
659.60 8.079291
659.70 8.241505
659.80 8.362983
659.90 8.428409
660.00 8.422821
660.10 8.339634
660.20 8.190134
660.30 8.007535
660.40 7.828576
660.50 7.677499
660.60 7.577549
660.70 7.553006
660.80 7.608434
660.90 7.72262
661.00 7.867808
661.10 8.028053
661.20 8.195511
661.30 8.354798
661.40 8.488071
661.50 8.580873
661.60 8.63588
661.70 8.671864
661.80 8.701249
661.90 8.730531
662.00 8.749072
662.10 8.732301
662.20 8.666598
662.30 8.55318
662.40 8.400933
662.50 8.221943
662.60 8.031931
662.70 7.861411
662.80 7.746954
662.90 7.715562
663.00 7.776665
663.10 7.917495
663.20 8.10898
663.30 8.316158
663.40 8.512642
663.50 8.681157
663.60 8.802435
663.70 8.860473
663.80 8.855891
663.90 8.808815
664.00 8.748896
664.10 8.706455
664.20 8.708701
664.30 8.769095
664.40 8.882633
664.50 9.023202
664.60 9.152279
664.70 9.236356
664.80 9.247636
664.90 9.168734
665.00 9.007407
665.10 8.79698
665.20 8.583792
665.30 8.407008
665.40 8.293159
665.50 8.255941
665.60 8.291387
665.70 8.381358
665.80 8.493145
665.90 8.596859
666.00 8.680675
666.10 8.745588
666.20 8.799843
666.30 8.852524
666.40 8.913379
666.50 8.990868
666.60 9.081349
666.70 9.175413
666.80 9.259652
666.90 9.313058
667.00 9.313743
667.10 9.257815
667.20 9.171517
667.30 9.093087
667.40 9.053428
667.50 9.06437
667.60 9.126587
667.70 9.231512
667.80 9.35592
667.90 9.467496
668.00 9.537146
668.10 9.546123
668.20 9.490093
668.30 9.386504
668.40 9.2684
668.50 9.157075
668.60 9.052169
668.70 8.954124
668.80 8.870202
668.90 8.81145
669.00 8.784363
669.10 8.79314
669.20 8.838677
669.30 8.910456
669.40 8.995345
669.50 9.075636
669.60 9.128433
669.70 9.138683
669.80 9.110429
669.90 9.070939
670.00 9.054934
670.10 9.079189
670.20 9.147528
670.30 9.2555
670.40 9.390599
670.50 9.53365
670.60 9.656944
670.70 9.740677
670.80 9.780588
670.90 9.789265
671.00 9.785898
671.10 9.779373
671.20 9.771667
671.30 9.76352
671.40 9.749347
671.50 9.726039
671.60 9.692979
671.70 9.651124
671.80 9.604599
671.90 9.553911
672.00 9.50544
672.10 9.469233
672.20 9.449483
672.30 9.440944
672.40 9.436169
672.50 9.431767
672.60 9.416193
672.70 9.373728
672.80 9.305434
672.90 9.22729
673.00 9.156317
673.10 9.107342
673.20 9.092485
673.30 9.120473
673.40 9.186773
673.50 9.274999
673.60 9.36806
673.70 9.455401
673.80 9.535951
673.90 9.61256
674.00 9.691132
674.10 9.779037
674.20 9.8812
674.30 9.989602
674.40 10.08904
674.50 10.17054
674.60 10.2336
674.70 10.28176
674.80 10.32051
674.90 10.34967
675.00 10.35691
675.10 10.3316
675.20 10.27603
675.30 10.2008
675.40 10.11775
675.50 10.03531
675.60 9.963846
675.70 9.926909
675.80 9.944628
675.90 10.01163
676.00 10.10065
676.10 10.18266
676.20 10.24593
676.30 10.30068
676.40 10.36081
676.50 10.42669
676.60 10.48816
676.70 10.53316
676.80 10.55176
676.90 10.53496
677.00 10.47691
677.10 10.38284
677.20 10.27562
677.30 10.19113
677.40 10.16418
677.50 10.21562
677.60 10.3442
677.70 10.52002
677.80 10.69176
677.90 10.80969
678.00 10.84093
678.10 10.7712
678.20 10.60918
678.30 10.3856
678.40 10.14212
678.50 9.91746
678.60 9.73483
678.70 9.614477
678.80 9.575648
678.90 9.612934
679.00 9.698015
679.10 9.801849
679.20 9.909674
679.30 10.00818
679.40 10.06745
679.50 10.06187
679.60 9.990599
679.70 9.881902
679.80 9.774813
679.90 9.697598
680.00 9.678258
680.10 9.728291
680.20 9.828525
680.30 9.953246
680.40 10.06951
680.50 10.14004
680.60 10.13832
680.70 10.05922
680.80 9.931662
680.90 9.799141
681.00 9.695577
681.10 9.640374
681.20 9.639726
681.30 9.683962
681.40 9.749383
681.50 9.816457
681.60 9.87732
681.70 9.926111
681.80 9.964916
681.90 10.00015
682.00 10.03371
682.10 10.06524
682.20 10.08616
682.30 10.08469
682.40 10.05252
682.50 9.987902
682.60 9.899187
682.70 9.805243
682.80 9.727991
682.90 9.679347
683.00 9.654295
683.10 9.63991
683.20 9.619759
683.30 9.582141
683.40 9.527194
683.50 9.449707
683.60 9.35269
683.70 9.255658
683.80 9.178597
683.90 9.129496
684.00 9.102957
684.10 9.095667
684.20 9.098395
684.30 9.089853
684.40 9.062229
684.50 9.021188
684.60 8.97499
684.70 8.930107
684.80 8.887067
684.90 8.863516
685.00 8.875741
685.10 8.91288
685.20 8.955876
685.30 8.998722
685.40 9.052668
685.50 9.115801
685.60 9.170736
685.70 9.209965
685.80 9.228565
685.90 9.235783
686.00 9.248654
686.10 9.277869
686.20 9.330558
686.30 9.399605
686.40 9.472783
686.50 9.547045
686.60 9.613328
686.70 9.644253
686.80 9.608358
686.90 9.482502
687.00 9.272187
687.10 9.014553
687.20 8.760125
687.30 8.551555
687.40 8.424324
687.50 8.393325
687.60 8.443232
687.70 8.539012
687.80 8.639746
687.90 8.716803
688.00 8.75157
688.10 8.731195
688.20 8.657922
688.30 8.561314
688.40 8.470234
688.50 8.388601
688.60 8.312969
688.70 8.242452
688.80 8.17669
688.90 8.123597
689.00 8.105519
689.10 8.143481
689.20 8.229905
689.30 8.33344
689.40 8.429191
689.50 8.506118
689.60 8.548187
689.70 8.535269
689.80 8.462406
689.90 8.34545
690.00 8.21485
690.10 8.107707
690.20 8.055373
690.30 8.075045
690.40 8.161093
690.50 8.296547
690.60 8.470615
690.70 8.669229
690.80 8.871617
690.90 9.05509
691.00 9.202556
691.10 9.309855
691.20 9.375623
691.30 9.391795
691.40 9.340632
691.50 9.203669
691.60 8.991453
691.70 8.74493
691.80 8.510547
691.90 8.325782
692.00 8.224903
692.10 8.234232
692.20 8.353617
692.30 8.554692
692.40 8.793488
692.50 9.017025
692.60 9.186521
692.70 9.295194
692.80 9.354711
692.90 9.385213
693.00 9.403455
693.10 9.424245
693.20 9.471063
693.30 9.562842
693.40 9.690972
693.50 9.820074
693.60 9.91393
693.70 9.955987
693.80 9.951157
693.90 9.932064
694.00 9.937101
694.10 9.986749
694.20 10.10003
694.30 10.29142
694.40 10.54929
694.50 10.84801
694.60 11.15574
694.70 11.43458
694.80 11.6505
694.90 11.78144
695.00 11.82183
695.10 11.77731
695.20 11.66015
695.30 11.48186
695.40 11.26503
695.50 11.04993
695.60 10.87525
695.70 10.7686
695.80 10.74804
695.90 10.80318
696.00 10.90895
696.10 11.04259
696.20 11.17871
696.30 11.29547
696.40 11.37674
696.50 11.42126
696.60 11.43509
696.70 11.42393
696.80 11.39101
696.90 11.3361
697.00 11.27022
697.10 11.20744
697.20 11.16347
697.30 11.17196
697.40 11.2508
697.50 11.38627
697.60 11.56246
697.70 11.76203
697.80 11.95577
697.90 12.10634
698.00 12.18223
698.10 12.17583
698.20 12.10381
698.30 11.9929
698.40 11.87326
698.50 11.78364
698.60 11.75347
698.70 11.77436
698.80 11.82088
698.90 11.87791
699.00 11.92788
699.10 11.94881
699.20 11.92448
699.30 11.8481
699.40 11.73229
699.50 11.59843
699.60 11.46376
699.70 11.34949
699.80 11.2666
699.90 11.21391
700.00 11.19229
700.10 11.20582
700.20 11.27062
700.30 11.40369
700.40 11.60325
700.50 11.85368
700.60 12.13596
700.70 12.43192
700.80 12.71634
700.90 12.95935
701.00 13.144
701.10 13.26655
701.20 13.33006
701.30 13.34506
701.40 13.3323
701.50 13.32034
701.60 13.32423
701.70 13.3435
701.80 13.38064
701.90 13.4393
702.00 13.5207
702.10 13.61989
702.20 13.72652
702.30 13.84027
702.40 13.97248
702.50 14.13594
702.60 14.33696
702.70 14.56928
702.80 14.82389
702.90 15.08275
703.00 15.31476
703.10 15.50213
703.20 15.64838
703.30 15.7716
703.40 15.8886
703.50 16.01225
703.60 16.16117
703.70 16.34361
703.80 16.54907
703.90 16.75711
704.00 16.95506
704.10 17.13069
704.20 17.26032
704.30 17.335
704.40 17.36604
704.50 17.36363
704.60 17.33612
704.70 17.29656
704.80 17.26656
704.90 17.25704
705.00 17.24629
705.10 17.19873
705.20 17.07881
705.30 16.85971
705.40 16.53547
705.50 16.12591
705.60 15.66889
705.70 15.19669
705.80 14.74115
705.90 14.3431
706.00 14.02533
706.10 13.78302
706.20 13.59996
706.30 13.46557
706.40 13.38668
706.50 13.37396
706.60 13.43615
706.70 13.57891
706.80 13.78288
706.90 14.00325
707.00 14.19324
707.10 14.33416
707.20 14.42475
707.30 14.47005
707.40 14.49986
707.50 14.54609
707.60 14.62094
707.70 14.72328
707.80 14.84324
707.90 14.96392
708.00 15.05811
708.10 15.09602
708.20 15.06232
708.30 14.95814
708.40 14.79495
708.50 14.58161
708.60 14.34275
708.70 14.11262
708.80 13.9075
708.90 13.74221
709.00 13.62915
709.10 13.57651
709.20 13.58344
709.30 13.63689
709.40 13.71754
709.50 13.80035
709.60 13.86568
709.70 13.90908
709.80 13.93285
709.90 13.94978
710.00 13.97513
710.10 14.01391
710.20 14.06921
710.30 14.14531
710.40 14.25371
710.50 14.3984
710.60 14.57381
710.70 14.76657
710.80 14.95168
710.90 15.09686
711.00 15.17301
711.10 15.17117
711.20 15.10346
711.30 14.99066
711.40 14.85721
711.50 14.73919
711.60 14.67962
711.70 14.70481
711.80 14.81198
711.90 14.98126
712.00 15.17801
712.10 15.35676
712.20 15.47458
712.30 15.50355
712.40 15.44445
712.50 15.3096
712.60 15.11309
712.70 14.88775
712.80 14.67878
712.90 14.52305
713.00 14.4345
713.10 14.40732
713.20 14.42887
713.30 14.47568
713.40 14.51785
713.50 14.53493
713.60 14.52637
713.70 14.5051
713.80 14.47445
713.90 14.43576
714.00 14.40365
714.10 14.38796
714.20 14.38471
714.30 14.38669
714.40 14.39343
714.50 14.41392
714.60 14.4588
714.70 14.53265
714.80 14.63063
714.90 14.74138
715.00 14.84913
715.10 14.94212
715.20 15.03231
715.30 15.13883
715.40 15.25935
715.50 15.3769
715.60 15.46931
715.70 15.51182
715.80 15.48667
715.90 15.39025
716.00 15.23245
716.10 15.04557
716.20 14.88244
716.30 14.79134
716.40 14.80235
716.50 14.92127
716.60 15.11581
716.70 15.32978
716.80 15.51714
716.90 15.65571
717.00 15.74297
717.10 15.79193
717.20 15.82033
717.30 15.84552
717.40 15.88386
717.50 15.93581
717.60 15.9887
717.70 16.03657
717.80 16.08434
717.90 16.14312
718.00 16.22531
718.10 16.34173
718.20 16.49252
718.30 16.66102
718.40 16.82924
718.50 16.98027
718.60 17.09924
718.70 17.18171
718.80 17.23422
718.90 17.27923
719.00 17.34229
719.10 17.43639
719.20 17.55594
719.30 17.67231
719.40 17.75097
719.50 17.77492
719.60 17.74624
719.70 17.67523
719.80 17.56964
719.90 17.4387
720.00 17.3071
720.10 17.20603
720.20 17.15347
720.30 17.14812
720.40 17.17791
720.50 17.21986
720.60 17.25434
720.70 17.28366
720.80 17.31269
720.90 17.3398
721.00 17.3658
721.10 17.39551
721.20 17.43383
721.30 17.48877
721.40 17.56169
721.50 17.63387
721.60 17.69121
721.70 17.72995
721.80 17.74877
721.90 17.75666
722.00 17.76806
722.10 17.79826
722.20 17.87399
722.30 18.00744
722.40 18.18319
722.50 18.37789
722.60 18.56687
722.70 18.73057
722.80 18.85105
722.90 18.93069
723.00 18.98718
723.10 19.043
723.20 19.1316
723.30 19.26928
723.40 19.44979
723.50 19.66622
723.60 19.88333
723.70 20.05371
723.80 20.16148
723.90 20.21691
724.00 20.23149
724.10 20.21273
724.20 20.18589
724.30 20.17543
724.40 20.19367
724.50 20.23901
724.60 20.29172
724.70 20.3442
724.80 20.40235
724.90 20.45823
725.00 20.51907
725.10 20.62078
725.20 20.77858
725.30 20.9817
725.40 21.2249
725.50 21.4866
725.60 21.72548
725.70 21.90381
725.80 22.00426
725.90 22.04162
726.00 22.04146
726.10 22.03249
726.20 22.0447
726.30 22.10341
726.40 22.2198
726.50 22.36825
726.60 22.50587
726.70 22.60023
726.80 22.62895
726.90 22.59938
727.00 22.57265
727.10 22.61298
727.20 22.73164
727.30 22.9104
727.40 23.11194
727.50 23.28022
727.60 23.35592
727.70 23.3036
727.80 23.13771
727.90 22.91693
728.00 22.72992
728.10 22.66096
728.20 22.77369
728.30 23.07297
728.40 23.46221
728.50 23.83557
728.60 24.12987
728.70 24.29337
728.80 24.30806
728.90 24.20183
729.00 24.05144
729.10 23.94704
729.20 23.93927
729.30 24.04701
729.40 24.26652
729.50 24.55112
729.60 24.81381
729.70 24.98553
729.80 25.04986
729.90 25.01881
730.00 24.91643
730.10 24.78748
730.20 24.69446
730.30 24.69369
730.40 24.81222
730.50 25.04059
730.60 25.34
730.70 25.65662
730.80 25.9339
730.90 26.15915
731.00 26.36829
731.10 26.59132
731.20 26.81813
731.30 27.03382
731.40 27.2499
731.50 27.47722
731.60 27.71046
731.70 27.92889
731.80 28.11266
731.90 28.25002
732.00 28.35344
732.10 28.45522
732.20 28.57858
732.30 28.71515
732.40 28.83504
732.50 28.90576
732.60 28.89482
732.70 28.76921
732.80 28.52025
732.90 28.16942
733.00 27.76982
733.10 27.41036
733.20 27.16476
733.30 27.08399
733.40 27.20648
733.50 27.54409
733.60 28.06579
733.70 28.70511
733.80 29.38369
733.90 30.02534
734.00 30.57009
734.10 30.95168
734.20 31.10316
734.30 31.00976
734.40 30.70997
734.50 30.26852
734.60 29.77219
734.70 29.31364
734.80 28.95518
734.90 28.71856
735.00 28.60231
735.10 28.57789
735.20 28.58267
735.30 28.54946
735.40 28.46196
735.50 28.35486
735.60 28.2706
735.70 28.23283
735.80 28.24782
735.90 28.32455
736.00 28.47485
736.10 28.70396
736.20 29.01507
736.30 29.40425
736.40 29.84052
736.50 30.26348
736.60 30.61556
736.70 30.87008
736.80 31.01256
736.90 31.0389
737.00 30.9548
737.10 30.76817
737.20 30.49942
737.30 30.18475
737.40 29.86968
737.50 29.60112
737.60 29.40363
737.70 29.26692
737.80 29.17203
737.90 29.11231
738.00 29.08203
738.10 29.064
738.20 29.0281
738.30 28.9509
738.40 28.84724
738.50 28.77409
738.60 28.80288
738.70 28.97545
738.80 29.27542
738.90 29.62344
739.00 29.90602
739.10 30.02918
739.20 29.94806
739.30 29.66166
739.40 29.21886
739.50 28.71604
739.60 28.2601
739.70 27.91565
739.80 27.7034
739.90 27.6188
740.00 27.63742
740.10 27.71965
740.20 27.80315
740.30 27.84359
740.40 27.84285
740.50 27.82613
740.60 27.82593
740.70 27.87467
740.80 27.98839
740.90 28.15299
741.00 28.34217
741.10 28.55149
741.20 28.77497
741.30 28.97273
741.40 29.06934
741.50 28.99407
741.60 28.74905
741.70 28.39384
741.80 27.99692
741.90 27.62136
742.00 27.32012
742.10 27.13268
742.20 27.06331
742.30 27.08414
742.40 27.16475
742.50 27.26816
742.60 27.35751
742.70 27.42396
742.80 27.48774
742.90 27.56873
743.00 27.66422
743.10 27.74809
743.20 27.79942
743.30 27.81015
743.40 27.7733
743.50 27.68844
743.60 27.58252
743.70 27.50042
743.80 27.45509
743.90 27.43878
744.00 27.43473
744.10 27.40146
744.20 27.29459
744.30 27.08715
744.40 26.7916
744.50 26.46774
744.60 26.17682
744.70 25.96643
744.80 25.88327
744.90 25.94951
745.00 26.13974
745.10 26.38827
745.20 26.62353
745.30 26.78968
745.40 26.855
745.50 26.81556
745.60 26.69011
745.70 26.51958
745.80 26.34847
745.90 26.21744
746.00 26.17661
746.10 26.26278
746.20 26.47388
746.30 26.76849
746.40 27.07675
746.50 27.33683
746.60 27.51361
746.70 27.58871
746.80 27.56017
746.90 27.44585
747.00 27.2756
747.10 27.08429
747.20 26.9097
747.30 26.77815
747.40 26.69168
747.50 26.63598
747.60 26.59253
747.70 26.56282
747.80 26.57707
747.90 26.65976
748.00 26.81846
748.10 27.04488
748.20 27.31726
748.30 27.61431
748.40 27.9083
748.50 28.16947
748.60 28.37212
748.70 28.49516
748.80 28.52461
748.90 28.46129
749.00 28.31675
749.10 28.09249
749.20 27.7971
749.30 27.46741
749.40 27.15289
749.50 26.90147
749.60 26.75138
749.70 26.72025
749.80 26.80444
749.90 26.9798
750.00 27.20425
750.10 27.42175
750.20 27.5822
750.30 27.65289
750.40 27.63602
750.50 27.58288
750.60 27.54822
750.70 27.56237
750.80 27.63716
750.90 27.7671
751.00 27.91717
751.10 28.04176
751.20 28.12734
751.30 28.16962
751.40 28.1555
751.50 28.08517
751.60 27.97549
751.70 27.86185
751.80 27.78248
751.90 27.75519
752.00 27.77151
752.10 27.8046
752.20 27.82992
752.30 27.83235
752.40 27.81006
752.50 27.77188
752.60 27.73014
752.70 27.70703
752.80 27.73789
752.90 27.84135
753.00 27.99959
753.10 28.17945
753.20 28.3444
753.30 28.46629
753.40 28.54363
753.50 28.59672
753.60 28.65636
753.70 28.74692
753.80 28.89716
753.90 29.12983
754.00 29.43234
754.10 29.76783
754.20 30.07398
754.30 30.28617
754.40 30.37195
754.50 30.31667
754.60 30.12076
754.70 29.81219
754.80 29.43803
754.90 29.05517
755.00 28.72182
755.10 28.48983
755.20 28.37437
755.30 28.35715
755.40 28.40662
755.50 28.48672
755.60 28.57439
755.70 28.66406
755.80 28.76397
755.90 28.88512
756.00 29.02781
756.10 29.16851
756.20 29.26978
756.30 29.29902
756.40 29.23504
756.50 29.08032
756.60 28.87556
756.70 28.66856
756.80 28.49224
756.90 28.37981
757.00 28.36352
757.10 28.43983
757.20 28.56457
757.30 28.68118
757.40 28.73571
757.50 28.7008
757.60 28.60488
757.70 28.51399
757.80 28.4858
757.90 28.55422
758.00 28.71889
758.10 28.94208
758.20 29.16224
758.30 29.30189
758.40 29.27572
758.50 29.02907
758.60 28.55209
758.70 27.87771
758.80 27.078
758.90 26.2474
759.00 25.46293
759.10 24.77789
759.20 24.23593
759.30 23.82449
759.40 23.4709
759.50 23.13352
759.60 22.82417
759.70 22.52891
759.80 22.22893
759.90 21.96302
760.00 21.76562
760.10 21.61796
760.20 21.52544
760.30 21.52531
760.40 21.64525
760.50 21.87836
760.60 22.16848
760.70 22.47047
760.80 22.77719
760.90 23.06761
761.00 23.30184
761.10 23.48377
761.20 23.62898
761.30 23.7037
761.40 23.69012
761.50 23.63619
761.60 23.57843
761.70 23.51313
761.80 23.41654
761.90 23.25927
762.00 23.0528
762.10 22.81767
762.20 22.54273
762.30 22.20354
762.40 21.78063
762.50 21.26124
762.60 20.65329
762.70 19.99218
762.80 19.33441
762.90 18.74037
763.00 18.25132
763.10 17.88302
763.20 17.62354
763.30 17.44967
763.40 17.31793
763.50 17.17948
763.60 17.01143
763.70 16.7978
763.80 16.50947
763.90 16.12449
764.00 15.64934
764.10 15.13042
764.20 14.62901
764.30 14.182
764.40 13.78837
764.50 13.42335
764.60 13.06885
764.70 12.70681
764.80 12.30351
764.90 11.82172
765.00 11.23975
765.10 10.5643
765.20 9.835451
765.30 9.122212
765.40 8.4918
765.50 7.959692
765.60 7.503962
765.70 7.107021
765.80 6.754525
765.90 6.411103
766.00 6.041086
766.10 5.63119
766.20 5.18662
766.30 4.740316
766.40 4.346327
766.50 4.057653
766.60 3.90634
766.70 3.894638
766.80 4.00837
766.90 4.245275
767.00 4.602975
767.10 5.046603
767.20 5.530392
767.30 6.028644
767.40 6.522081
767.50 6.994382
767.60 7.434123
767.70 7.829311
767.80 8.178719
767.90 8.488498
768.00 8.782509
768.10 9.082226
768.20 9.385983
768.30 9.66734
768.40 9.878745
768.50 9.991373
768.60 10.00258
768.70 9.938394
768.80 9.82928
768.90 9.677128
769.00 9.473217
769.10 9.216648
769.20 8.896012
769.30 8.504387
769.40 8.042946
769.50 7.518183
769.60 6.949912
769.70 6.377538
769.80 5.863989
769.90 5.46539
770.00 5.216465
770.10 5.123632
770.20 5.183391
770.30 5.402239
770.40 5.785466
770.50 6.312278
770.60 6.951828
770.70 7.662775
770.80 8.38362
770.90 9.06546
771.00 9.669358
771.10 10.17875
771.20 10.60125
771.30 10.95424
771.40 11.27105
771.50 11.59608
771.60 11.96671
771.70 12.38882
771.80 12.846
771.90 13.31254
772.00 13.75687
772.10 14.16775
772.20 14.55771
772.30 14.95233
772.40 15.39462
772.50 15.90858
772.60 16.48743
772.70 17.10423
772.80 17.71877
772.90 18.27406
773.00 18.71601
773.10 19.03674
773.20 19.26287
773.30 19.44728
773.40 19.64682
773.50 19.88741
773.60 20.17387
773.70 20.49948
773.80 20.84003
773.90 21.15624
774.00 21.40969
774.10 21.57744
774.20 21.64549
774.30 21.62562
774.40 21.55998
774.50 21.50553
774.60 21.51868
774.70 21.62769
774.80 21.81944
774.90 22.06874
775.00 22.33341
775.10 22.54212
775.20 22.64913
775.30 22.66253
775.40 22.61443
775.50 22.54101
775.60 22.46609
775.70 22.40314
775.80 22.36877
775.90 22.3626
776.00 22.37552
776.10 22.39808
776.20 22.42404
776.30 22.44842
776.40 22.48558
776.50 22.57598
776.60 22.75793
776.70 23.05416
776.80 23.47325
776.90 23.99651
777.00 24.58969
777.10 25.20989
777.20 25.77909
777.30 26.20484
777.40 26.41014
777.50 26.36715
777.60 26.11811
777.70 25.74486
777.80 25.33901
777.90 24.99263
778.00 24.75955
778.10 24.63293
778.20 24.57242
778.30 24.54173
778.40 24.51732
778.50 24.47715
778.60 24.4203
778.70 24.38106
778.80 24.41228
778.90 24.57575
779.00 24.8981
779.10 25.34021
779.20 25.81961
779.30 26.22045
779.40 26.41212
779.50 26.27265
779.60 25.71062
779.70 24.70934
779.80 23.36049
779.90 21.86686
780.00 20.49899
780.10 19.52068
780.20 19.12377
780.30 19.4012
780.40 20.32521
780.50 21.73604
780.60 23.39488
780.70 25.03618
780.80 26.42124
780.90 27.40912
781.00 27.99276
781.10 28.26078
781.20 28.34834
781.30 28.38606
781.40 28.44961
781.50 28.578
781.60 28.78794
781.70 29.04
781.80 29.25274
781.90 29.38327
782.00 29.41486
782.10 29.33252
782.20 29.14335
782.30 28.85556
782.40 28.48386
782.50 28.06075
782.60 27.62619
782.70 27.22232
782.80 26.90464
782.90 26.71474
783.00 26.67205
783.10 26.77232
783.20 27.00612
783.30 27.35118
783.40 27.75714
783.50 28.19462
783.60 28.65109
783.70 29.1168
783.80 29.56083
783.90 29.94839
784.00 30.26322
784.10 30.50463
784.20 30.69437
784.30 30.86478
784.40 31.02366
784.50 31.15462
784.60 31.24237
784.70 31.28972
784.80 31.31588
784.90 31.30747
785.00 31.2352
785.10 31.08988
785.20 30.8895
785.30 30.68871
785.40 30.53624
785.50 30.46021
785.60 30.47353
785.70 30.57273
785.80 30.75064
785.90 31.0027
786.00 31.32004
786.10 31.65935
786.20 31.95186
786.30 32.14528
786.40 32.20783
786.50 32.1316
786.60 31.95015
786.70 31.68837
786.80 31.37268
786.90 31.05889
787.00 30.78182
787.10 30.55361
787.20 30.38818
787.30 30.2887
787.40 30.23902
787.50 30.23797
787.60 30.30798
787.70 30.46438
787.80 30.69929
787.90 30.99688
788.00 31.32096
788.10 31.63265
788.20 31.90873
788.30 32.11898
788.40 32.27304
788.50 32.41386
788.60 32.55749
788.70 32.71464
788.80 32.91487
788.90 33.16891
789.00 33.44236
789.10 33.6829
789.20 33.84906
789.30 33.90193
789.40 33.81091
789.50 33.56851
789.60 33.19868
789.70 32.75438
789.80 32.29368
789.90 31.87755
790.00 31.5893
790.10 31.49918
790.20 31.6074
790.30 31.85165
790.40 32.14287
790.50 32.39234
790.60 32.54687
790.70 32.60113
790.80 32.57769
790.90 32.51969
791.00 32.48285
791.10 32.53242
791.20 32.7191
791.30 33.03016
791.40 33.38943
791.50 33.6908
791.60 33.85762
791.70 33.87605
791.80 33.78794
791.90 33.67281
792.00 33.57669
792.10 33.48322
792.20 33.36706
792.30 33.21967
792.40 33.04106
792.50 32.83631
792.60 32.62325
792.70 32.44615
792.80 32.36594
792.90 32.45779
793.00 32.78462
793.10 33.34281
793.20 34.04476
793.30 34.74844
793.40 35.31629
793.50 35.66008
793.60 35.73756
793.70 35.5384
793.80 35.08765
793.90 34.45123
794.00 33.70647
794.10 32.9255
794.20 32.16594
794.30 31.41708
794.40 30.59331
794.50 29.6137
794.60 28.48413
794.70 27.30151
794.80 26.24299
794.90 25.52505
795.00 25.33397
795.10 25.77624
795.20 26.84253
795.30 28.3969
795.40 30.21241
795.50 32.01919
795.60 33.55096
795.70 34.64442
795.80 35.28002
795.90 35.53832
796.00 35.5404
796.10 35.41319
796.20 35.27624
796.30 35.21507
796.40 35.26494
796.50 35.41832
796.60 35.65344
796.70 35.95232
796.80 36.28858
796.90 36.6249
797.00 36.93546
797.10 37.19292
797.20 37.3609
797.30 37.42621
797.40 37.41762
797.50 37.37725
797.60 37.30485
797.70 37.19802
797.80 37.08206
797.90 36.96623
798.00 36.83009
798.10 36.63717
798.20 36.3649
798.30 36.02478
798.40 35.64553
798.50 35.26316
798.60 34.93269
798.70 34.70721
798.80 34.61892
798.90 34.69058
799.00 34.91681
799.10 35.23047
799.20 35.54122
799.30 35.78818
799.40 35.95704
799.50 36.06718
799.60 36.15037
799.70 36.22984
799.80 36.31456
799.90 36.41829
800.00 36.56769
800.10 36.77846
800.20 37.03801
800.30 37.29526
800.40 37.51611
800.50 37.71749
800.60 37.91573
800.70 38.12503
800.80 38.36229
800.90 38.63658
801.00 38.94957
801.10 39.29744
801.20 39.68805
801.30 40.12463
801.40 40.5725
801.50 40.98285
801.60 41.30283
801.70 41.50922
801.80 41.62336
801.90 41.68013
802.00 41.76054
802.10 41.93782
802.20 42.24105
802.30 42.68427
802.40 43.23843
802.50 43.84949
802.60 44.45793
802.70 44.99432
802.80 45.39558
802.90 45.6338
803.00 45.72204
803.10 45.69403
803.20 45.58299
803.30 45.42039
803.40 45.20516
803.50 44.94355
803.60 44.66891
803.70 44.40987
803.80 44.20321
803.90 44.07778
804.00 44.06455
804.10 44.19002
804.20 44.45637
804.30 44.83361
804.40 45.26871
804.50 45.71223
804.60 46.15152
804.70 46.60762
804.80 47.11553
804.90 47.71119
805.00 48.41587
805.10 49.19914
805.20 50.00004
805.30 50.77993
805.40 51.49709
805.50 52.11132
805.60 52.60686
805.70 52.97904
805.80 53.24872
805.90 53.4594
806.00 53.63411
806.10 53.77725
806.20 53.88372
806.30 53.9446
806.40 53.94451
806.50 53.88539
806.60 53.80312
806.70 53.7326
806.80 53.68688
806.90 53.66953
807.00 53.70582
807.10 53.85461
807.20 54.16151
807.30 54.63348
807.40 55.24865
807.50 55.95829
807.60 56.69968
807.70 57.40898
807.80 58.04004
807.90 58.59023
808.00 59.08656
808.10 59.55179
808.20 60.00228
808.30 60.43876
808.40 60.82739
808.50 61.09754
808.60 61.1953
808.70 61.12753
808.80 60.94987
808.90 60.74098
809.00 60.57684
809.10 60.50399
809.20 60.5434
809.30 60.67554
809.40 60.82232
809.50 60.9051
809.60 60.87746
809.70 60.73192
809.80 60.51867
809.90 60.32019
810.00 60.20658
810.10 60.20314
810.20 60.29682
810.30 60.47941
810.40 60.76607
810.50 61.16593
810.60 61.65131
810.70 62.17455
810.80 62.70271
810.90 63.21665
811.00 63.69197
811.10 64.08135
811.20 64.32
811.30 64.38101
811.40 64.30969
811.50 64.21817
811.60 64.23426
811.70 64.43427
811.80 64.83147
811.90 65.41179
812.00 66.1301
812.10 66.9013
812.20 67.64475
812.30 68.29539
812.40 68.83123
812.50 69.30299
812.60 69.78478
812.70 70.32537
812.80 70.90956
812.90 71.47173
813.00 71.96277
813.10 72.35932
813.20 72.65124
813.30 72.85963
813.40 73.04705
813.50 73.28346
813.60 73.59198
813.70 73.9423
813.80 74.25353
813.90 74.38817
814.00 74.22494
814.10 73.74517
814.20 73.0334
814.30 72.20939
814.40 71.37596
814.50 70.61141
814.60 69.99324
814.70 69.58327
814.80 69.39659
814.90 69.42278
815.00 69.64341
815.10 70.02393
815.20 70.51631
815.30 71.096
815.40 71.74174
815.50 72.37985
815.60 72.90596
815.70 73.25721
815.80 73.46182
815.90 73.61748
816.00 73.82389
816.10 74.1461
816.20 74.61845
816.30 75.23799
816.40 75.96111
816.50 76.7348
816.60 77.51056
816.70 78.24758
816.80 78.91001
816.90 79.47469
817.00 79.95806
817.10 80.38724
817.20 80.74506
817.30 80.97587
817.40 81.00626
817.50 80.75964
817.60 80.16696
817.70 79.1564
817.80 77.65157
817.90 75.56839
818.00 72.90054
818.10 69.78681
818.20 66.50596
818.30 63.4489
818.40 61.02716
818.50 59.5566
818.60 59.16808
818.70 59.77188
818.80 61.05404
818.90 62.53238
819.00 63.66715
819.10 64.00086
819.20 63.28246
819.30 61.59013
819.40 59.29108
819.50 56.89009
819.60 54.91674
819.70 53.79403
819.80 53.7453
819.90 54.78721
820.00 56.77359
820.10 59.41702
820.20 62.33885
820.30 65.14914
820.40 67.52452
820.50 69.28132
820.60 70.41669
820.70 71.04638
820.80 71.32666
820.90 71.43499
821.00 71.52118
821.10 71.67997
821.20 71.96179
821.30 72.3601
821.40 72.81273
821.50 73.24992
821.60 73.63614
821.70 73.98211
821.80 74.33357
821.90 74.75026
822.00 75.25977
822.10 75.83336
822.20 76.40391
822.30 76.90916
822.40 77.34719
822.50 77.74619
822.60 78.13104
822.70 78.53078
822.80 78.95843
822.90 79.40518
823.00 79.84791
823.10 80.23527
823.20 80.50921
823.30 80.64062
823.40 80.6447
823.50 80.58111
823.60 80.55001
823.70 80.66277
823.80 80.97882
823.90 81.51364
824.00 82.23883
824.10 83.08367
824.20 83.9603
824.30 84.75854
824.40 85.38498
824.50 85.81324
824.60 86.06578
824.70 86.15181
824.80 86.05603
824.90 85.75106
825.00 85.21316
825.10 84.4388
825.20 83.45823
825.30 82.33478
825.40 81.17996
825.50 80.15363
825.60 79.43415
825.70 79.17359
825.80 79.41374
825.90 80.08129
826.00 81.02353
826.10 82.05765
826.20 83.02664
826.30 83.8183
826.40 84.34426
826.50 84.5366
826.60 84.3952
826.70 83.98946
826.80 83.4111
826.90 82.73844
827.00 82.03326
827.10 81.3566
827.20 80.79457
827.30 80.44674
827.40 80.39311
827.50 80.66556
827.60 81.21405
827.70 81.92975
827.80 82.68679
827.90 83.34579
828.00 83.76612
828.10 83.86094
828.20 83.62085
828.30 83.09688
828.40 82.3869
828.50 81.58997
828.60 80.77961
828.70 79.96367
828.80 79.10238
828.90 78.18272
829.00 77.23148
829.10 76.29946
829.20 75.45749
829.30 74.79594
829.40 74.37272
829.50 74.17513
829.60 74.15005
829.70 74.22092
829.80 74.26241
829.90 74.15595
830.00 73.85242
830.10 73.39854
830.20 72.91454
830.30 72.50134
830.40 72.21355
830.50 72.07563
830.60 72.09879
830.70 72.269
830.80 72.54484
830.90 72.87679
831.00 73.19684
831.10 73.4541
831.20 73.65095
831.30 73.83557
831.40 74.08181
831.50 74.46237
831.60 75.02207
831.70 75.76395
831.80 76.6588
831.90 77.65784
832.00 78.6752
832.10 79.60331
832.20 80.34103
832.30 80.79987
832.40 80.92764
832.50 80.71933
832.60 80.24507
832.70 79.65213
832.80 79.10472
832.90 78.73653
833.00 78.60813
833.10 78.70548
833.20 78.98163
833.30 79.34141
833.40 79.65443
833.50 79.80979
833.60 79.78717
833.70 79.654
833.80 79.52125
833.90 79.52721
834.00 79.76646
834.10 80.25496
834.20 80.93349
834.30 81.67155
834.40 82.34998
834.50 82.89257
834.60 83.23399
834.70 83.33975
834.80 83.23974
834.90 83.0162
835.00 82.7088
835.10 82.33423
835.20 81.93535
835.30 81.53589
835.40 81.15032
835.50 80.79511
835.60 80.49839
835.70 80.31451
835.80 80.26437
835.90 80.33327
836.00 80.49584
836.10 80.71143
836.20 80.92372
836.30 81.08718
836.40 81.23287
836.50 81.4347
836.60 81.73875
836.70 82.15784
836.80 82.66349
836.90 83.18407
837.00 83.59114
837.10 83.72938
837.20 83.51075
837.30 82.95524
837.40 82.16782
837.50 81.31254
837.60 80.62468
837.70 80.34323
837.80 80.56768
837.90 81.21953
838.00 82.10145
838.10 82.99365
838.20 83.6794
838.30 83.93378
838.40 83.62927
838.50 82.78264
838.60 81.52624
838.70 80.08413
838.80 78.71957
838.90 77.6777
839.00 77.06076
839.10 76.81606
839.20 76.89255
839.30 77.27746
839.40 77.98593
839.50 78.98555
839.60 80.17072
839.70 81.47525
839.80 82.8483
839.90 84.20965
840.00 85.42021
840.10 86.30426
840.20 86.74846
840.30 86.74004
840.40 86.40808
840.50 85.97344
840.60 85.60163
840.70 85.38593
840.80 85.33437
840.90 85.41351
841.00 85.66256
841.10 86.1235
841.20 86.78302
841.30 87.54357
841.40 88.25917
841.50 88.80467
841.60 89.062
841.70 88.93721
841.80 88.37617
841.90 87.41942
842.00 86.23816
842.10 85.07284
842.20 84.16059
842.30 83.66658
842.40 83.63016
842.50 83.99207
842.60 84.64094
842.70 85.439
842.80 86.20194
842.90 86.71974
843.00 86.79601
843.10 86.23281
843.20 84.90036
843.30 82.82354
843.40 80.18841
843.50 77.30317
843.60 74.5381
843.70 72.24342
843.80 70.63158
843.90 69.69944
844.00 69.26452
844.10 69.06398
844.20 68.86729
844.30 68.50698
844.40 67.91032
844.50 67.17005
844.60 66.4775
844.70 65.98012
844.80 65.72659
844.90 65.66542
845.00 65.65592
845.10 65.51072
845.20 65.0775
845.30 64.29868
845.40 63.23007
845.50 62.03655
845.60 60.9123
845.70 60.03221
845.80 59.52905
845.90 59.42735
846.00 59.64891
846.10 60.05502
846.20 60.48638
846.30 60.81084
846.40 60.98112
846.50 61.01962
846.60 60.95433
846.70 60.84018
846.80 60.71214
846.90 60.56342
847.00 60.40466
847.10 60.25586
847.20 60.11298
847.30 59.98083
847.40 59.88382
847.50 59.839
847.60 59.84715
847.70 59.87927
847.80 59.85924
847.90 59.71386
848.00 59.46105
848.10 59.16175
848.20 58.87075
848.30 58.6661
848.40 58.62861
848.50 58.80389
848.60 59.21971
848.70 59.89585
848.80 60.82771
848.90 61.94743
849.00 63.13317
849.10 64.25502
849.20 65.20214
849.30 65.90166
849.40 66.28142
849.50 66.28968
849.60 65.96704
849.70 65.41009
849.80 64.74702
849.90 64.1837
850.00 63.92189
850.10 64.02336
850.20 64.38855
850.30 64.86766
850.40 65.32365
850.50 65.63657
850.60 65.71956
850.70 65.5424
850.80 65.16563
850.90 64.71829
851.00 64.33824
851.10 64.11511
851.20 64.07182
851.30 64.10175
851.40 64.01614
851.50 63.66876
851.60 62.96708
851.70 61.84413
851.80 60.29708
851.90 58.43838
852.00 56.50379
852.10 54.82089
852.20 53.69585
852.30 53.32053
852.40 53.7461
852.50 54.90793
852.60 56.64399
852.70 58.71765
852.80 60.8421
852.90 62.74468
853.00 64.26235
853.10 65.37644
853.20 66.1679
853.30 66.7529
853.40 67.21087
853.50 67.53665
853.60 67.72822
853.70 67.85324
853.80 68.00463
853.90 68.24054
854.00 68.56388
854.10 68.95986
854.20 69.44524
854.30 70.05231
854.40 70.79316
854.50 71.64943
854.60 72.5703
854.70 73.46953
854.80 74.27768
854.90 74.96279
855.00 75.49161
855.10 75.83053
855.20 75.95391
855.30 75.87605
855.40 75.67095
855.50 75.42097
855.60 75.15081
855.70 74.83835
855.80 74.47059
855.90 74.06246
856.00 73.64576
856.10 73.2692
856.20 72.9862
856.30 72.85289
856.40 72.92244
856.50 73.19611
856.60 73.62696
856.70 74.13367
856.80 74.60148
856.90 74.93047
857.00 75.08646
857.10 75.09929
857.20 75.01531
857.30 74.87573
857.40 74.73829
857.50 74.67595
857.60 74.76321
857.70 75.03977
857.80 75.44449
857.90 75.87043
858.00 76.25162
858.10 76.55233
858.20 76.76287
858.30 76.90902
858.40 77.04007
858.50 77.19152
858.60 77.37642
858.70 77.59066
858.80 77.79994
858.90 77.96681
859.00 78.04965
859.10 78.01485
859.20 77.9046
859.30 77.80496
859.40 77.77785
859.50 77.8647
859.60 78.08326
859.70 78.4174
859.80 78.82211
859.90 79.25338
860.00 79.66822
860.10 80.03717
860.20 80.34134
860.30 80.53939
860.40 80.59317
860.50 80.46464
860.60 80.10971
860.70 79.48722
860.80 78.53901
860.90 77.22073
861.00 75.55342
861.10 73.5979
861.20 71.4335
861.30 69.16671
861.40 66.93998
861.50 64.8875
861.60 63.11258
861.70 61.68648
861.80 60.62322
861.90 59.89641
862.00 59.42064
862.10 59.0817
862.20 58.81696
862.30 58.58109
862.40 58.3092
862.50 57.95283
862.60 57.49103
862.70 56.93241
862.80 56.3073
862.90 55.65606
863.00 55.03603
863.10 54.54851
863.20 54.31693
863.30 54.41286
863.40 54.84487
863.50 55.56736
863.60 56.4743
863.70 57.42582
863.80 58.28661
863.90 58.96578
864.00 59.44612
864.10 59.74457
864.20 59.87626
864.30 59.88856
864.40 59.86233
864.50 59.84034
864.60 59.82381
864.70 59.84606
864.80 59.99208
864.90 60.3581
865.00 60.99858
865.10 61.90842
865.20 63.03228
865.30 64.27244
865.40 65.52358
865.50 66.68586
865.60 67.67916
865.70 68.48222
865.80 69.10355
865.90 69.55778
866.00 69.84283
866.10 69.94792
866.20 69.89308
866.30 69.71674
866.40 69.45165
866.50 69.10397
866.60 68.62865
866.70 67.99784
866.80 67.22537
866.90 66.35385
867.00 65.48379
867.10 64.74268
867.20 64.26759
867.30 64.18824
867.40 64.61136
867.50 65.55212
867.60 66.87549
867.70 68.31052
867.80 69.54386
867.90 70.34988
868.00 70.66214
868.10 70.52186
868.20 70.05063
868.30 69.44117
868.40 68.88138
868.50 68.47266
868.60 68.207
868.70 67.98924
868.80 67.66303
868.90 67.04717
869.00 65.97005
869.10 64.35301
869.20 62.23921
869.30 59.78338
869.40 57.2376
869.50 54.89269
869.60 52.99294
869.70 51.69073
869.80 51.04088
869.90 51.00736
870.00 51.46734
870.10 52.24608
870.20 53.15973
870.30 54.04539
870.40 54.78459
870.50 55.2849
870.60 55.49746
870.70 55.42734
870.80 55.10649
870.90 54.56372
871.00 53.81501
871.10 52.91371
871.20 51.96905
871.30 51.10882
871.40 50.44714
871.50 50.05819
871.60 49.94635
871.70 50.05805
871.80 50.33391
871.90 50.73352
872.00 51.22612
872.10 51.79502
872.20 52.4416
872.30 53.19464
872.40 54.12895
872.50 55.30234
872.60 56.69255
872.70 58.1835
872.80 59.59454
872.90 60.73831
873.00 61.46991
873.10 61.70701
873.20 61.43349
873.30 60.73482
873.40 59.7973
873.50 58.85306
873.60 58.12754
873.70 57.78217
873.80 57.87228
873.90 58.38396
874.00 59.26286
874.10 60.41904
874.20 61.73214
874.30 63.04294
874.40 64.16865
874.50 64.96385
874.60 65.36205
874.70 65.37298
874.80 65.09517
874.90 64.6899
875.00 64.33264
875.10 64.18014
875.20 64.32391
875.30 64.75857
875.40 65.43562
875.50 66.32758
875.60 67.42188
875.70 68.70319
875.80 70.17071
875.90 71.71253
876.00 73.07846
876.10 74.02665
876.20 74.39368
876.30 74.12449
876.40 73.2399
876.50 71.87538
876.60 70.35921
876.70 69.13274
876.80 68.56496
876.90 68.86447
877.00 70.09139
877.10 72.1821
877.20 74.93428
877.30 78.05303
877.40 81.14569
877.50 83.76107
877.60 85.49409
877.70 86.0386
877.80 85.30259
877.90 83.45947
878.00 80.87683
878.10 78.02268
878.20 75.42162
878.30 73.53436
878.40 72.60615
878.50 72.61713
878.60 73.33389
878.70 74.45339
878.80 75.75719
878.90 77.08684
879.00 78.27926
879.10 79.26322
879.20 80.12028
879.30 80.972
879.40 81.8799
879.50 82.82297
879.60 83.6321
879.70 84.03747
879.80 83.79955
879.90 82.76598
880.00 80.92369
880.10 78.44679
880.20 75.65585
880.30 72.92811
880.40 70.63368
880.50 69.06694
880.60 68.40697
880.70 68.72846
880.80 69.97939
880.90 72.00364
881.00 74.65591
881.10 77.81582
881.20 81.34094
881.30 85.05954
881.40 88.75048
881.50 92.13913
881.60 94.93128
881.70 96.90001
881.80 97.94959
881.90 98.06673
882.00 97.30579
882.10 95.81425
882.20 93.80177
882.30 91.57508
882.40 89.439
882.50 87.62256
882.60 86.2891
882.70 85.47954
882.80 85.15048
882.90 85.23165
883.00 85.66563
883.10 86.42068
883.20 87.45767
883.30 88.74263
883.40 90.23361
883.50 91.85713
883.60 93.58578
883.70 95.37913
883.80 97.13716
883.90 98.69058
884.00 99.80506
884.10 100.2555
884.20 99.867
884.30 98.52933
884.40 96.24119
884.50 93.14157
884.60 89.59165
884.70 86.19158
884.80 83.61034
884.90 82.43174
885.00 82.94342
885.10 85.00123
885.20 88.10805
885.30 91.55
885.40 94.55796
885.50 96.50346
885.60 97.00965
885.70 96.00165
885.80 93.71359
885.90 90.6192
886.00 87.30403
886.10 84.33247
886.20 82.15996
886.30 81.00439
886.40 80.82891
886.50 81.41482
886.60 82.40014
886.70 83.31136
886.80 83.62335
886.90 82.94716
887.00 81.18321
887.10 78.51401
887.20 75.35446
887.30 72.31867
887.40 70.08425
887.50 69.14389
887.60 69.67955
887.70 71.54399
887.80 74.28263
887.90 77.27031
888.00 79.89834
888.10 81.71129
888.20 82.47327
888.30 82.2478
888.40 81.40645
888.50 80.47782
888.60 79.89532
888.70 79.89202
888.80 80.5101
888.90 81.60218
889.00 82.84151
889.10 83.81097
889.20 84.15051
889.30 83.64908
889.40 82.29372
889.50 80.321
889.60 78.23715
889.70 76.59964
889.80 75.81117
889.90 76.10885
890.00 77.60087
890.10 80.17644
890.20 83.4379
890.30 86.83662
890.40 89.81659
890.50 91.90473
890.60 92.80709
890.70 92.46664
890.80 91.0842
890.90 89.08832
891.00 86.99028
891.10 85.25269
891.20 84.21193
891.30 84.04638
891.40 84.81258
891.50 86.46336
891.60 88.81599
891.70 91.59551
891.80 94.4207
891.90 96.83912
892.00 98.45727
892.10 98.99807
892.20 98.36885
892.30 96.68429
892.40 94.24204
892.50 91.47128
892.60 88.87567
892.70 86.96915
892.80 86.17272
892.90 86.70899
893.00 88.55666
893.10 91.39573
893.20 94.70383
893.30 97.89747
893.40 100.3944
893.50 101.737
893.60 101.6496
893.70 100.0847
893.80 97.24317
893.90 93.48217
894.00 89.2251
894.10 84.95795
894.20 81.15091
894.30 78.14923
894.40 76.17071
894.50 75.32283
894.60 75.5997
894.70 76.85036
894.80 78.77951
894.90 81.019
895.00 83.21983
895.10 85.13031
895.20 86.68801
895.30 88.10179
895.40 89.73828
895.50 91.84335
895.60 94.3656
895.70 97.05641
895.80 99.56592
895.90 101.4431
896.00 102.3146
896.10 102.0116
896.20 100.6114
896.30 98.44001
896.40 95.98064
896.50 93.74501
896.60 92.13646
896.70 91.34923
896.80 91.34848
896.90 91.9789
897.00 93.10014
897.10 94.54864
897.20 96.13698
897.30 97.77063
897.40 99.38098
897.50 100.9
897.60 102.242
897.70 103.2758
897.80 103.8987
897.90 104.1096
898.00 104.0545
898.10 103.9899
898.20 104.2287
898.30 105.0413
898.40 106.542
898.50 108.6416
898.60 111.0105
898.70 113.1029
898.80 114.3741
898.90 114.5222
899.00 113.5462
899.10 111.7011
899.20 109.3934
899.30 107.0273
899.40 104.9254
899.50 103.3038
899.60 102.2043
899.70 101.5049
899.80 101.0918
899.90 101.0155
900.00 99.19905
900.10 99.10658
900.20 102.5143
900.30 106.016
900.40 114.1228
900.50 122.2296
900.60 120.4777
900.70 114.6991
900.80 109.7592
900.90 106.0772
901.00 102.3728
901.10 98.41016
901.20 94.44757
901.30 98.46193
901.40 104.859
901.50 109.5414
901.60 112.2109
901.70 114.9509
901.80 118.0911
901.90 121.2313
902.00 119.1921
902.10 116.0921
902.20 112.3471
902.30 108.0067
902.40 103.9142
902.50 100.7542
902.60 97.59415
902.70 91.7859
902.80 85.68341
902.90 85.04049
903.00 88.19153
903.10 91.93456
903.20 97.27817
903.30 102.6218
903.40 113.4094
903.50 124.4239
903.60 129.5074
903.70 131.3973
903.80 132.5657
903.90 132.3338
904.00 131.9696
904.10 127.325
904.20 122.6804
904.30 119.7377
904.40 117.4567
904.50 116.2576
904.60 116.6813
904.70 117.0207
904.80 116.5072
904.90 115.9937
905.00 112.5985
905.10 108.3904
905.20 104.7726
905.30 101.8205
905.40 99.57714
905.50 101.055
905.60 102.5329
905.70 106.3136
905.80 110.5007
905.90 111.4271
906.00 109.4621
906.10 106.9189
906.20 102.3261
906.30 97.73328
906.40 98.63449
906.50 100.0791
906.60 102.2558
906.70 104.9206
906.80 107.6357
906.90 110.4737
907.00 113.3117
907.10 107.9116
907.20 102.3434
907.30 104.1509
907.40 109.5913
907.50 115.1084
907.60 120.768
907.70 126.4207
907.80 131.9055
907.90 137.3902
908.00 136.3672
908.10 132.9373
908.20 129.8312
908.30 127.1723
908.40 124.4716
908.50 121.434
908.60 118.3964
908.70 115.154
908.80 111.8603
908.90 111.2852
909.00 113.5396
909.10 115.7975
909.20 118.0715
909.30 120.3455
909.40 122.4448
909.50 124.518
909.60 124.1243
909.70 121.7123
909.80 119.6785
909.90 118.8424
910.00 118.0063
910.10 117.8792
910.20 117.8054
910.30 117.6248
910.40 117.3787
910.50 116.5307
910.60 114.3429
910.70 112.155
910.80 117.0638
910.90 121.9726
911.00 126.4511
911.10 130.7362
911.20 133.323
911.30 133.1389
911.40 132.5224
911.50 126.1611
911.60 119.7998
911.70 123.3552
911.80 130.0423
911.90 134.5352
912.00 136.3462
912.10 138.5006
912.20 142.9533
912.30 147.4061
912.40 148.2898
912.50 148.39
912.60 149.0358
912.70 150.2058
912.80 150.2192
912.90 145.6061
913.00 140.993
913.10 140.0537
913.20 139.5685
913.30 140.5364
913.40 142.5566
913.50 143.9145
913.60 143.4816
913.70 143.0488
913.80 138.4467
913.90 133.671
914.00 130.3878
914.10 127.9083
914.20 125.3001
914.30 122.442
914.40 119.7829
914.50 123.5563
914.60 127.3297
914.70 128.4716
914.80 128.59
914.90 129.7557
915.00 132.4284
915.10 134.8496
915.20 135.0082
915.30 135.1667
915.40 139.5891
915.50 145.1449
915.60 151.8071
915.70 159.6678
915.80 166.1301
915.90 165.7642
916.00 165.3984
916.10 157.1673
916.20 147.6558
916.30 139.1976
916.40 131.6011
916.50 127.365
916.60 133.7706
916.70 140.1761
916.80 148.3477
916.90 156.6522
917.00 159.408
917.10 158.7628
917.20 156.8801
917.30 152.2428
917.40 147.6055
917.50 142.3486
917.60 137.0917
917.70 136.8315
917.80 138.8162
917.90 140.8592
918.00 142.9974
918.10 145.1056
918.20 146.8156
918.30 148.5255
918.40 147.1689
918.50 144.8438
918.60 144.9488
918.70 148.0238
918.80 151.42
918.90 156.7894
919.00 162.1589
919.10 167.0072
919.20 171.7488
919.30 171.2144
919.40 165.8099
919.50 160.1968
919.60 153.799
919.70 147.4012
919.80 149.1029
919.90 151.7045
920.00 156.0154
920.10 161.5143
920.20 165.7984
920.30 166.9588
920.40 168.1193
920.50 163.4858
920.60 158.6731
920.70 154.0793
920.80 149.5983
920.90 144.3894
921.00 137.8285
921.10 131.5174
921.20 131.2021
921.30 130.8868
921.40 134.4766
921.50 139.5107
921.60 144.514
921.70 149.4748
921.80 154.2653
921.90 157.6778
922.00 161.0904
922.10 160.6853
922.20 159.3257
922.30 158.1626
922.40 157.204
922.50 155.9109
922.60 153.0943
922.70 150.2777
922.80 147.4951
922.90 144.7177
923.00 139.9126
923.10 133.5144
923.20 129.2383
923.30 131.3286
923.40 133.4189
923.50 137.0657
923.60 140.7945
923.70 143.9754
923.80 146.8481
923.90 149.8249
924.00 153.0133
924.10 156.261
924.20 162.4137
924.30 168.5663
924.40 169.0709
924.50 167.2685
924.60 162.442
924.70 153.0795
924.80 144.053
924.90 138.4229
925.00 132.7928
925.10 130.6509
925.20 129.4927
925.30 131.4479
925.40 136.9139
925.50 142.3916
925.60 147.93
925.70 153.4685
925.80 157.4424
925.90 161.1402
926.00 158.3926
926.10 150.1544
926.20 143.8049
926.30 143.4358
926.40 143.0668
926.50 148.9422
926.60 155.2875
926.70 160.3174
926.80 164.541
926.90 165.277
927.00 158.2505
927.10 151.224
927.20 146.0691
927.30 140.9142
927.40 137.7934
927.50 135.5864
927.60 132.9026
927.70 129.4408
927.80 125.9629
927.90 122.271
928.00 118.5792
928.10 118.4587
928.20 119.4661
928.30 122.7587
928.40 128.8443
928.50 134.2011
928.60 135.4281
928.70 136.655
928.80 131.8737
928.90 125.9479
929.00 123.2355
929.10 123.3727
929.20 124.3942
929.30 128.5512
929.40 132.7083
929.50 133.1027
929.60 133.1251
929.70 132.9806
929.80 132.725
929.90 133.5628
930.00 137.0774
930.10 140.5921
930.20 138.386
930.30 136.0633
930.40 133.3207
930.50 130.3806
930.60 127.4537
930.70 124.5491
930.80 121.7754
930.90 121.0514
931.00 120.3274
931.10 122.4448
931.20 125.5093
931.30 130.8694
931.40 139.1511
931.50 146.2585
931.60 145.7561
931.70 145.3939
931.80 145.0317
931.90 148.6164
932.00 152.5442
932.10 155.7378
932.20 155.9948
932.30 156.2517
932.40 152.7541
932.50 145.189
932.60 137.624
932.70 134.4241
932.80 132.6028
932.90 130.9504
933.00 133.3513
933.10 135.7521
933.20 136.7787
933.30 135.0151
933.40 133.2514
933.50 131.8288
933.60 130.6242
933.70 129.4197
933.80 130.269
933.90 131.3722
934.00 133.0022
934.10 137.2048
934.20 141.4073
934.30 143.8563
934.40 144.1619
934.50 144.4676
934.60 145.193
934.70 146.066
934.80 146.9359
934.90 147.6607
935.00 148.3854
935.10 148.2228
935.20 145.9898
935.30 143.7568
935.40 139.6595
935.50 134.2122
935.60 128.765
935.70 128.4571
935.80 128.9172
935.90 130.4001
936.00 137.6788
936.10 144.9575
936.20 150.7507
936.30 154.5749
936.40 158.399
936.50 157.556
936.60 154.8068
936.70 152.0575
936.80 147.1674
936.90 142.2772
937.00 138.5518
937.10 137.8212
937.20 137.0907
937.30 137.9313
937.40 140.0065
937.50 142.0817
937.60 143.1356
937.70 143.9951
937.80 144.4514
937.90 142.2094
938.00 139.9675
938.10 138.9927
938.20 139.8412
938.30 140.6898
938.40 141.4794
938.50 142.2426
938.60 143.0057
938.70 140.7784
938.80 138.49
938.90 137.4702
939.00 140.0607
939.10 142.6513
939.20 145.1749
939.30 147.6414
939.40 150.1079
939.50 151.464
939.60 152.5927
939.70 152.9711
939.80 147.2784
939.90 141.5858
940.00 137.5041
940.10 135.9421
940.20 134.3801
940.30 136.8634
940.40 141.2506
940.50 145.6377
940.60 151.6816
940.70 157.7945
940.80 161.7536
940.90 159.2512
941.00 156.7489
941.10 154.99
941.20 153.8903
941.30 152.7906
941.40 152.7575
941.50 152.9746
941.60 153.1712
941.70 153.1832
941.80 153.1952
941.90 151.6558
942.00 147.5853
942.10 143.5149
942.20 143.0738
942.30 144.4204
942.40 145.7669
942.50 145.5924
942.60 145.3377
942.70 146.4895
942.80 152.3496
942.90 158.2097
943.00 163.6688
943.10 168.7578
943.20 173.8469
943.30 178.8089
943.40 183.7393
943.50 187.7178
943.60 182.0732
943.70 176.4285
943.80 171.9643
943.90 169.5102
944.00 167.0561
944.10 165.0381
944.20 163.2446
944.30 161.4511
944.40 160.4232
944.50 159.4441
944.60 158.1211
944.70 155.6466
944.80 153.1721
944.90 152.8153
945.00 154.493
945.10 156.1708
945.20 159.9656
945.30 164.2896
945.40 168.3328
945.50 169.1452
945.60 169.9577
945.70 169.7355
945.80 167.7517
945.90 165.7678
946.00 162.2123
946.10 157.8106
946.20 153.4088
946.30 152.1016
946.40 150.9918
946.50 150.8504
946.60 154.1422
946.70 157.434
946.80 160.6291
946.90 163.7312
947.00 166.8333
947.10 168.0689
947.20 168.8083
947.30 169.6215
947.40 171.283
947.50 172.9444
947.60 173.7035
947.70 172.9261
947.80 172.1488
947.90 170.6761
948.00 168.829
948.10 166.9819
948.20 166.8533
948.30 166.8343
948.40 168.1182
948.50 174.021
948.60 179.9238
948.70 185.744
948.80 191.4848
948.90 197.2257
949.00 198.9109
949.10 199.5822
949.20 199.7114
949.30 193.6051
949.40 187.4988
949.50 183.0803
949.60 181.5356
949.70 179.9909
949.80 179.7936
949.90 180.3218
950.00 180.85
950.10 182.473
950.20 184.1659
950.30 185.081
950.40 183.392
950.50 181.703
950.60 182.718
950.70 186.331
950.80 189.9439
950.90 189.7609
951.00 188.6288
951.10 187.6891
951.20 188.6947
951.30 189.7004
951.40 188.5224
951.50 183.6262
951.60 178.7301
951.70 174.5929
951.80 170.8467
951.90 167.1005
952.00 166.0255
952.10 165.091
952.20 166.5615
952.30 176.0835
952.40 185.6055
952.50 194.6146
952.60 203.1501
952.70 211.6857
952.80 209.4771
952.90 204.7483
953.00 199.7183
953.10 191.9768
953.20 184.2353
953.30 178.373
953.40 175.5768
953.50 172.7805
953.60 175.1043
953.70 179.95
953.80 184.7957
953.90 183.9981
954.00 182.9653
954.10 182.1066
954.20 181.799
954.30 181.4914
954.40 183.0576
954.50 186.2853
954.60 189.513
954.70 196.2534
954.80 203.7648
954.90 210.6023
955.00 211.9876
955.10 213.3729
955.20 212.8248
955.30 209.3763
955.40 205.9279
955.50 202.628
955.60 199.398
955.70 196.1679
955.80 194.4696
955.90 192.8186
956.00 191.4753
956.10 191.0073
956.20 190.5393
956.30 191.2318
956.40 192.8738
956.50 194.5158
956.60 195.61
956.70 196.5998
956.80 197.5442
956.90 198.1554
957.00 198.7667
957.10 199.1478
957.20 199.1975
957.30 199.2472
957.40 199.1129
957.50 198.8997
957.60 198.6864
957.70 196.4412
957.80 194.1755
957.90 192.1196
958.00 190.6034
958.10 189.0873
958.20 187.8435
958.30 186.8054
958.40 185.7672
958.50 182.3837
958.60 178.5862
958.70 174.9238
958.80 172.0906
958.90 169.2575
959.00 165.6959
959.10 161.1687
959.20 156.6415
959.30 155.5956
959.40 155.9036
959.50 156.2125
959.60 156.6184
959.70 157.0242
959.80 157.8954
959.90 159.8524
960.00 161.8094
960.10 164.2482
960.20 167.022
960.30 169.7957
960.40 171.5365
960.50 173.1365
960.60 174.3986
960.70 173.8863
960.80 173.374
960.90 171.0984
961.00 166.6675
961.10 162.2366
961.20 159.8313
961.30 158.1376
961.40 156.6041
961.50 160.2497
961.60 163.8953
961.70 167.9522
961.80 172.8829
961.90 177.8136
962.00 180.7446
962.10 182.3971
962.20 184.0496
962.30 182.1586
962.40 179.8738
962.50 177.5279
962.60 174.9216
962.70 172.3153
962.80 170.6526
962.90 170.0122
963.00 169.3717
963.10 171.2197
963.20 173.8109
963.30 176.0862
963.40 173.4139
963.50 170.7415
963.60 167.0619
963.70 161.5118
963.80 155.9616
963.90 151.8369
964.00 148.514
964.10 145.1912
964.20 148.1005
964.30 151.4789
964.40 154.2122
964.50 154.6585
964.60 155.1047
964.70 156.8639
964.80 159.8846
964.90 162.9054
965.00 163.2199
965.10 162.858
965.20 162.5021
965.30 162.2073
965.40 161.9125
965.50 162.0723
965.60 162.9737
965.70 163.8751
965.80 168.5844
965.90 175.1691
966.00 181.7539
966.10 182.672
966.20 183.354
966.30 183.9832
966.40 184.4543
966.50 184.9254
966.60 185.2063
966.70 185.3251
966.80 185.444
966.90 187.1178
967.00 189.1101
967.10 190.2095
967.20 184.7608
967.30 179.3121
967.40 174.8371
967.50 171.7069
967.60 168.5767
967.70 169.2875
967.80 171.5672
967.90 173.8469
968.00 177.0541
968.10 180.2612
968.20 182.8256
968.30 183.8163
968.40 184.807
968.50 183.6687
968.60 180.9885
968.70 178.3084
968.80 177.465
968.90 176.8961
969.00 176.6895
969.10 178.3859
969.20 180.0823
969.30 182.4753
969.40 185.7198
969.50 188.9642
969.60 190.755
969.70 192.0351
969.80 193.2629
969.90 193.2346
970.00 193.2062
970.10 192.5569
970.20 190.6469
970.30 188.7369
970.40 186.1193
970.50 183.0679
970.60 180.0165
970.70 180.4964
970.80 181.3256
970.90 183.2039
971.00 189.2792
971.10 195.3544
971.20 201.1582
971.30 206.6794
971.40 212.2006
971.50 212.8154
971.60 212.1261
971.70 211.1265
971.80 206.5589
971.90 201.9913
972.00 198.7973
972.10 197.9421
972.20 197.0869
972.30 197.7776
972.40 199.2647
972.50 200.7517
972.60 198.9779
972.70 197.0323
972.80 194.7918
972.90 191.6662
973.00 188.5406
973.10 187.0433
973.20 186.933
973.30 186.8227
973.40 187.0451
973.50 187.3356
973.60 187.5398
973.70 187.111
973.80 186.6822
973.90 186.6881
974.00 187.2944
974.10 187.9006
974.20 187.534
974.30 186.7701
974.40 186.0062
974.50 185.4279
974.60 184.8496
974.70 184.5395
974.80 184.8861
974.90 185.2326
975.00 187.043
975.10 189.8707
975.20 192.6985
975.30 193.9407
975.40 194.9668
975.50 196.0152
975.60 197.173
975.70 198.3307
975.80 199.0399
975.90 199.2228
976.00 199.4056
976.10 200.5539
976.20 202.0072
976.30 203.4065
976.40 203.7801
976.50 204.1537
976.60 204.3481
976.70 204.1945
976.80 204.0409
976.90 202.8112
977.00 200.9762
977.10 199.1411
977.20 199.2623
977.30 199.5306
977.40 200.3237
977.50 202.9771
977.60 205.6305
977.70 206.6228
977.80 206.0818
977.90 205.5408
978.00 203.1725
978.10 200.3754
978.20 197.5573
978.30 194.5496
978.40 191.5419
978.50 189.7218
978.60 189.6834
978.70 189.6449
978.80 190.4632
978.90 191.6664
979.00 192.8695
979.10 198.5596
979.20 204.3412
979.30 209.4457
979.40 212.8094
979.50 216.173
979.60 217.46
979.70 217.1804
979.80 216.9008
979.90 215.8358
980.00 214.643
980.10 213.4363
980.20 212.1566
980.30 210.877
980.40 209.926
980.50 209.3767
980.60 208.8275
980.70 207.6597
980.80 206.2856
980.90 204.9446
981.00 204.3966
981.10 203.8486
981.20 202.6448
981.30 200.1095
981.40 197.5743
981.50 198.391
981.60 201.1763
981.70 203.9617
981.80 205.5699
981.90 207.0757
982.00 208.3653
982.10 208.888
982.20 209.4108
982.30 209.8378
982.40 210.173
982.50 210.5081
982.60 211.6323
982.70 212.9538
982.80 213.8874
982.90 211.3304
983.00 208.7734
983.10 206.2061
983.20 203.6229
983.30 201.0396
983.40 200.0644
983.50 199.8115
983.60 199.5587
983.70 200.922
983.80 202.3183
983.90 204.0496
984.00 206.6423
984.10 209.2351
984.20 210.8919
984.30 211.8426
984.40 212.7933
984.50 209.7439
984.60 206.0968
984.70 202.0927
984.80 196.2148
984.90 190.3369
985.00 187.3676
985.10 187.8127
985.20 188.2577
985.30 191.6016
985.40 195.9116
985.50 200.147
985.60 202.9631
985.70 205.7791
985.80 207.4706
985.90 206.9791
986.00 206.4875
986.10 207.2419
986.20 208.6971
986.30 210.1523
986.40 210.7378
986.50 211.2578
986.60 211.1372
986.70 208.8723
986.80 206.6073
986.90 206.5717
987.00 208.5941
987.10 210.6164
987.20 215.8538
987.30 221.797
987.40 227.0077
987.50 226.292
987.60 225.5763
987.70 222.5377
987.80 216.1561
987.90 209.7746
988.00 207.581
988.10 207.0978
988.20 206.6147
988.30 213.1635
988.40 219.7122
988.50 224.9925
988.60 227.313
988.70 229.6335
988.80 229.112
988.90 226.6157
989.00 224.1194
989.10 217.5744
989.20 210.529
989.30 202.4013
989.40 189.3428
989.50 176.2843
989.60 163.1384
989.70 149.8979
989.80 136.6574
989.90 128.3878
990.00 121.5203
990.10 114.8414
990.20 110.6685
990.30 106.4957
990.40 101.574
990.50 95.37725
990.60 89.18054
990.70 85.69318
990.80 83.60156
990.90 81.50994
991.00 83.37765
991.10 85.41033
991.20 86.45994
991.30 84.71154
991.40 82.96315
991.50 81.81808
991.60 81.16664
991.70 80.5152
991.80 81.04188
991.90 81.77647
992.00 82.51331
992.10 83.2629
992.20 84.01248
992.30 83.62974
992.40 81.80583
992.50 79.98193
992.60 82.71209
992.70 87.04233
992.80 91.41395
992.90 96.77878
993.00 102.1436
993.10 106.2818
993.20 107.9295
993.30 109.5772
993.40 110.4391
993.50 110.8394
993.60 111.2397
993.70 115.0071
993.80 119.0278
993.90 123.2693
994.00 128.2931
994.10 133.3169
994.20 136.709
994.30 138.5949
994.40 140.4808
994.50 141.1132
994.60 141.4705
994.70 141.9358
994.80 143.2752
994.90 144.6146
995.00 146.8605
995.10 150.4108
995.20 153.9612
995.30 154.4682
995.40 153.7323
995.50 152.9528
995.60 147.8621
995.70 142.7713
995.80 138.2465
995.90 135.0419
996.00 131.8373
996.10 134.2
996.20 140.2744
996.30 146.3487
996.40 152.606
996.50 158.8836
996.60 162.8748
996.70 157.1189
996.80 151.363
996.90 143.1459
997.00 132.3669
997.10 121.588
997.20 116.2949
997.30 112.46
997.40 109.4365
997.50 114.6181
997.60 119.7997
997.70 124.4515
997.80 128.2389
997.90 132.0262
998.00 133.8394
998.10 134.7234
998.20 135.6075
998.30 131.8265
998.40 127.9503
998.50 124.6627
998.60 122.8887
998.70 121.1147
998.80 120.0119
998.90 119.3951
999.00 118.7784
999.10 119.7105
999.20 120.8741
999.30 121.4451
999.40 119.1231
999.50 116.801
999.60 117.727
999.70 122.3158
999.80 126.9046
999.90 133.8781
1000.00 141.5639
1000.10 149.1783
1000.20 155.8443
1000.30 162.5102
1000.40 165.7889
1000.50 163.0458
1000.60 160.3028
1000.70 155.8831
1000.80 150.5996
1000.90 145.3162
1001.00 141.3721
1001.10 137.4838
1001.20 135.3495
1001.30 138.2076
1001.40 141.0656
1001.50 144.6454
1001.60 148.7921
1001.70 152.9389
1001.80 154.7298
1001.90 156.1373
1002.00 157.3749
1002.10 157.6501
1002.20 157.9253
1002.30 159.101
1002.40 161.3775
1002.50 163.654
1002.60 165.2931
1002.70 166.7198
1002.80 167.8988
1002.90 164.3727
1003.00 160.8465
1003.10 157.5476
1003.20 154.6708
1003.30 151.794
1003.40 149.1648
1003.50 146.6689
1003.60 144.173
1003.70 145.775
1003.80 147.5926
1003.90 149.9525
1004.00 153.9391
1004.10 157.9257
1004.20 163.7177
1004.30 171.0476
1004.40 178.3775
1004.50 178.977
1004.60 178.2944
1004.70 176.5326
1004.80 168.1413
1004.90 159.7499
1005.00 149.705
1005.10 137.5555
1005.20 125.4061
1005.30 119.4232
1005.40 115.607
1005.50 111.9814
1005.60 112.9306
1005.70 113.8798
1005.80 115.4611
1005.90 118.2697
1006.00 121.0782
1006.10 123.3499
1006.20 125.3196
1006.30 127.2893
1006.40 133.6128
1006.50 140.2141
1006.60 146.6771
1006.70 152.702
1006.80 158.7268
1006.90 162.147
1007.00 163.3484
1007.10 164.5497
1007.20 163.6876
1007.30 162.4324
1007.40 161.779
1007.50 164.8218
1007.60 167.8646
1007.70 172.6603
1007.80 179.687
1007.90 186.7136
1008.00 190.3099
1008.10 192.701
1008.20 194.904
1008.30 192.5924
1008.40 190.2809
1008.50 187.2923
1008.60 182.9897
1008.70 178.687
1008.80 174.5931
1008.90 170.6166
1009.00 166.6401
1009.10 164.9642
1009.20 163.4615
1009.30 163.124
1009.40 166.6872
1009.50 170.2504
1009.60 177.6067
1009.70 188.3268
1009.80 199.0468
1009.90 206.6506
1010.00 213.616
1010.10 219.925
1010.20 221.8405
1010.30 223.756
1010.40 221.9754
1010.50 215.2953
1010.60 208.6152
1010.70 201.5868
1010.80 194.4295
1010.90 187.2421
1011.00 179.0786
1011.10 170.915
1011.20 163.6901
1011.30 158.287
1011.40 152.8839
1011.50 149.601
1011.60 147.5109
1011.70 145.4208
1011.80 150.6223
1011.90 156.2893
1012.00 163.1541
1012.10 173.8118
1012.20 184.4695
1012.30 192.4402
1012.40 198.122
1012.50 203.8038
1012.60 204.7663
1012.70 204.8298
1012.80 204.6469
1012.90 202.9505
1013.00 201.2541
1013.10 196.87
1013.20 189.0653
1013.30 181.2606
1013.40 170.9513
1013.50 159.7619
1013.60 148.8882
1013.70 145.5908
1013.80 142.2934
1013.90 142.9956
1014.00 151.4614
1014.10 159.9272
1014.20 165.5899
1014.30 169.6758
1014.40 173.7617
1014.50 171.187
1014.60 168.187
1014.70 166.4202
1014.80 168.5583
1014.90 170.6964
1015.00 174.9952
1015.10 181.1348
1015.20 187.2744
1015.30 186.376
1015.40 184.2355
1015.50 181.2403
1015.60 173.4013
1015.70 165.5623
1015.80 159.8467
1015.90 156.7263
1016.00 153.6059
1016.10 156.4987
1016.20 161.3958
1016.30 166.215
1016.40 169.5541
1016.50 172.8932
1016.60 175.1841
1016.70 175.5283
1016.80 175.8725
1016.90 175.176
1017.00 173.9193
1017.10 172.6626
1017.20 180.1585
1017.30 188.115
1017.40 195.1261
1017.50 199.4459
1017.60 203.7657
1017.70 202.3759
1017.80 196.5
1017.90 190.624
1018.00 181.37
1018.10 171.566
1018.20 162.776
1018.30 159.3098
1018.40 155.8437
1018.50 155.3733
1018.60 158.4196
1018.70 161.466
1018.80 165.2896
1018.90 169.3586
1019.00 173.244
1019.10 174.6898
1019.20 176.1356
1019.30 176.6286
1019.40 175.4994
1019.50 174.3701
1019.60 174.2978
1019.70 174.7461
1019.80 175.1943
1019.90 177.4659
1020.00 179.7938
1020.10 182.3491
1020.20 185.5194
1020.30 188.6897
1020.40 192.0373
1020.50 195.5187
1020.60 199.0001
1020.70 197.0897
1020.80 194.4441
1020.90 191.2367
1021.00 185.4699
1021.10 179.7031
1021.20 173.4615
1021.30 166.7053
1021.40 159.9492
1021.50 154.7392
1021.60 149.9653
1021.70 145.3673
1021.80 142.7936
1021.90 140.22
1022.00 140.2493
1022.10 144.3501
1022.20 148.4508
1022.30 153.8093
1022.40 159.7328
1022.50 165.6563
1022.60 169.2828
1022.70 172.8862
1022.80 174.9653
1022.90 173.3127
1023.00 171.66
1023.10 169.9104
1023.20 168.0963
1023.30 166.2821
1023.40 169.7061
1023.50 173.7122
1023.60 178.2137
1023.70 184.6974
1023.80 191.181
1023.90 197.054
1024.00 202.3164
1024.10 207.5788
1024.20 206.9121
1024.30 204.8547
1024.40 202.5949
1024.50 198.6968
1024.60 194.7988
1024.70 189.8969
1024.80 183.5504
1024.90 177.204
1025.00 173.3226
1025.10 170.4481
1025.20 167.6293
1025.30 167.5431
1025.40 167.457
1025.50 167.6619
1025.60 168.4851
1025.70 169.3084
1025.80 165.8865
1025.90 159.8627
1026.00 153.839
1026.10 147.6449
1026.20 141.438
1026.30 137.898
1026.40 143.2859
1026.50 148.6738
1026.60 156.3427
1026.70 166.0345
1026.80 175.7263
1026.90 180.5968
1027.00 184.5491
1027.10 187.3319
1027.20 182.931
1027.30 178.5301
1027.40 175.0203
1027.50 172.6449
1027.60 170.2694
1027.70 166.7843
1027.80 162.9093
1027.90 158.9649
1028.00 153.7025
1028.10 148.4402
1028.20 144.8897
1028.30 144.5186
1028.40 144.1475
1028.50 149.1442
1028.60 157.0311
1028.70 164.918
1028.80 171.4641
1028.90 177.9544
1029.00 182.4849
1029.10 181.4375
1029.20 180.39
1029.30 178.8569
1029.40 176.9421
1029.50 175.0273
1029.60 173.881
1029.70 172.8496
1029.80 171.8913
1029.90 171.2903
1030.00 170.6892
1030.10 171.1027
1030.20 172.6603
1030.30 174.2178
1030.40 177.3647
1030.50 180.9599
1030.60 184.3095
1030.70 184.8341
1030.80 185.3588
1030.90 185.4321
1031.00 184.7995
1031.10 184.1668
1031.20 182.8456
1031.30 181.2151
1031.40 179.5845
1031.50 177.7589
1031.60 175.9314
1031.70 174.2022
1031.80 172.7026
1031.90 171.203
1032.00 169.4976
1032.10 167.655
1032.20 165.8124
1032.30 165.5595
1032.40 165.4832
1032.50 166.9141
1032.60 174.0148
1032.70 181.1155
1032.80 190.2252
1032.90 201.2653
1033.00 212.3053
1033.10 216.4376
1033.20 219.0536
1033.30 220.2382
1033.40 210.9262
1033.50 201.6141
1033.60 192.4065
1033.70 183.343
1033.80 174.2796
1033.90 171.2104
1034.00 170.3583
1034.10 169.6927
1034.20 175.0556
1034.30 180.4185
1034.40 184.912
1034.50 187.7179
1034.60 190.5237
1034.70 189.7096
1034.80 186.8593
1034.90 184.009
1035.00 180.4303
1035.10 176.8133
1035.20 174.2302
1035.30 174.7486
1035.40 175.267
1035.50 178.3453
1035.60 183.435
1035.70 188.5247
1035.80 193.7318
1035.90 198.9579
1036.00 203.8237
1036.10 206.7976
1036.20 209.7715
1036.30 211.9446
1036.40 213.2146
1036.50 214.4846
1036.60 215.544
1036.70 216.5405
1036.80 217.9067
1036.90 223.5234
1037.00 229.1401
1037.10 233.8312
1037.20 237.0121
1037.30 240.193
1037.40 236.6596
1037.50 230.1097
1037.60 223.5598
1037.70 209.4462
1037.80 195.2562
1037.90 183.6456
1038.00 178.0538
1038.10 172.4621
1038.20 173.175
1038.30 178.0911
1038.40 183.0073
1038.50 186.8646
1038.60 190.6173
1038.70 193.0898
1038.80 190.7466
1038.90 188.4034
1039.00 186.2649
1039.10 184.3155
1039.20 182.3661
1039.30 183.9665
1039.40 186.3461
1039.50 188.9316
1039.60 192.8947
1039.70 196.8579
1039.80 200.2269
1039.90 202.8084
1040.00 205.3899
1040.10 207.9822
1040.20 210.5783
1040.30 213.1821
1040.40 215.9694
1040.50 218.7567
1040.60 221.2883
1040.70 223.3449
1040.80 225.4015
1040.90 222.5243
1041.00 216.9904
1041.10 211.4564
1041.20 205.2544
1041.30 199.0245
1041.40 194.8985
1041.50 196.7605
1041.60 198.6225
1041.70 203.6354
1041.80 211.0254
1041.90 218.4153
1042.00 217.8878
1042.10 216.1772
1042.20 213.1243
1042.30 203.9565
1042.40 194.7887
1042.50 185.9645
1042.60 177.5126
1042.70 169.0607
1042.80 170.9139
1042.90 175.5065
1043.00 180.6455
1043.10 190.7029
1043.20 200.7603
1043.30 210.5496
1043.40 219.937
1043.50 229.3244
1043.60 232.9111
1043.70 234.1284
1043.80 235.334
1043.90 235.3688
1044.00 235.4036
1044.10 235.021
1044.20 233.7514
1044.30 232.4818
1044.40 231.3117
1044.50 230.2025
1044.60 229.0933
1044.70 230.347
1044.80 231.7786
1044.90 234.7783
1045.00 242.7436
1045.10 250.7089
1045.20 258.114
1045.30 265.042
1045.40 271.9699
1045.50 269.4585
1045.60 265.2814
1045.70 260.1717
1045.80 249.778
1045.90 239.3843
1046.00 230.6272
1046.10 223.7912
1046.20 216.9551
1046.30 211.1717
1046.40 205.7208
1046.50 200.1957
1046.60 193.6856
1046.70 187.1755
1046.80 182.3333
1046.90 180.2123
1047.00 178.0914
1047.10 179.8907
1047.20 183.5349
1047.30 187.179
1047.40 189.0368
1047.50 190.8764
1047.60 191.9842
1047.70 191.3843
1047.80 190.7844
1047.90 192.0415
1048.00 194.5365
1048.10 197.0315
1048.20 203.4148
1048.30 210.1826
1048.40 216.4959
1048.50 221.0994
1048.60 225.7029
1048.70 228.4438
1048.80 229.4654
1048.90 230.487
1049.00 230.5377
1049.10 230.3896
1049.20 229.6779
1049.30 225.1945
1049.40 220.7111
1049.50 215.8013
1049.60 210.3487
1049.70 204.8962
1049.80 204.9548
1049.90 206.8504
1050.00 208.9571
1050.10 215.0744
1050.20 221.1917
1050.30 225.327
1050.40 225.9389
1050.50 226.5509
1050.60 223.6825
1050.70 219.0999
1050.80 214.5174
1050.90 208.5661
1051.00 202.5724
1051.10 196.6235
1051.20 190.7895
1051.30 184.9555
1051.40 181.1735
1051.50 178.8175
1051.60 176.4615
1051.70 176.3295
1051.80 176.4723
1051.90 177.2959
1052.00 180.8431
1052.10 184.3902
1052.20 188.9443
1052.30 194.4659
1052.40 199.9875
1052.50 206.5997
1052.60 213.4678
1052.70 219.7641
1052.80 221.8671
1052.90 223.9701
1053.00 224.9637
1053.10 224.4865
1053.20 224.0094
1053.30 223.6921
1053.40 223.4338
1053.50 223.136
1053.60 221.8879
1053.70 220.6398
1053.80 219.7573
1053.90 219.5539
1054.00 219.3504
1054.10 218.5583
1054.20 217.463
1054.30 216.3676
1054.40 211.7542
1054.50 206.9942
1054.60 202.2865
1054.70 197.7201
1054.80 193.1538
1054.90 193.0609
1055.00 196.2074
1055.10 199.3539
1055.20 203.1005
1055.30 206.929
1055.40 209.0886
1055.50 204.1337
1055.60 199.1789
1055.70 192.7804
1055.80 184.9383
1055.90 177.0962
1056.00 173.9878
1056.10 172.0628
1056.20 170.6001
1056.30 172.878
1056.40 175.1559
1056.50 177.7651
1056.60 180.8317
1056.70 183.8984
1056.80 185.351
1056.90 186.2067
1057.00 187.0452
1057.10 187.4712
1057.20 187.8973
1057.30 189.0732
1057.40 191.7048
1057.50 194.3364
1057.60 196.5005
1057.70 198.413
1057.80 200.3255
1057.90 201.2933
1058.00 202.2218
1058.10 202.4007
1058.20 200.446
1058.30 198.4913
1058.40 197.0475
1058.50 195.9892
1058.60 194.9308
1058.70 193.4122
1058.80 191.8307
1058.90 190.7023
1059.00 191.5056
1059.10 192.3088
1059.20 192.91
1059.30 193.3092
1059.40 193.7084
1059.50 194.3867
1059.60 195.1347
1059.70 195.6573
1059.80 194.3556
1059.90 193.0539
1060.00 191.4112
1060.10 189.2977
1060.20 187.1841
1060.30 184.9386
1060.40 182.6442
1060.50 180.3676
1060.60 178.6664
1060.70 176.9652
1060.80 176.1542
1060.90 177.0713
1061.00 177.9884
1061.10 180.4442
1061.20 183.7283
1061.30 187.0125
1061.40 187.9774
1061.50 188.8456
1061.60 189.523
1061.70 189.6848
1061.80 189.8466
1061.90 190.1079
1062.00 190.4444
1062.10 190.7809
1062.20 194.0946
1062.30 197.8142
1062.40 201.6922
1062.50 206.2448
1062.60 210.7974
1062.70 214.5599
1062.80 217.5323
1062.90 220.5047
1063.00 219.5911
1063.10 217.766
1063.20 216.1543
1063.30 216.2685
1063.40 216.3828
1063.50 217.953
1063.60 221.5337
1063.70 225.1145
1063.80 228.3074
1063.90 231.3568
1064.00 234.254
1064.10 233.4957
1064.20 232.7375
1064.30 231.7077
1064.40 230.1736
1064.50 228.6394
1064.60 228.1847
1064.70 228.2861
1064.80 228.3874
1064.90 227.3939
1065.00 226.3547
1065.10 223.9241
1065.20 217.7313
1065.30 211.5385
1065.40 205.5322
1065.50 199.6611
1065.60 193.7899
1065.70 193.5786
1065.80 194.0669
1065.90 194.0804
1066.00 192.1945
1066.10 190.3087
1066.20 187.4499
1066.30 183.6563
1066.40 179.8627
1066.50 178.2029
1066.60 177.0436
1066.70 176.4491
1066.80 179.9962
1066.90 183.5433
1067.00 186.2247
1067.10 187.7584
1067.20 189.2921
1067.30 193.9933
1067.40 199.8073
1067.50 205.5795
1067.60 210.5551
1067.70 215.5307
1067.80 220.0042
1067.90 223.5854
1068.00 227.1666
1068.10 230.0994
1068.20 232.713
1068.30 235.3266
1068.40 237.1885
1068.50 239.035
1068.60 240.335
1068.70 240.2297
1068.80 240.1245
1068.90 238.7351
1069.00 236.4533
1069.10 234.1715
1069.20 231.6126
1069.30 229.0228
1069.40 225.5551
1069.50 218.7845
1069.60 212.0138
1069.70 207.8418
1069.80 206.0687
1069.90 204.2955
1070.00 205.3583
1070.10 207.002
1070.20 208.7023
1070.30 210.7509
1070.40 212.7995
1070.50 212.9787
1070.60 210.873
1070.70 208.7672
1070.80 209.4418
1070.90 210.9944
1071.00 212.6804
1071.10 216.456
1071.20 220.2316
1071.30 223.7746
1071.40 226.9214
1071.50 230.0683
1071.60 232.3449
1071.70 234.212
1071.80 236.0791
1071.90 235.6085
1072.00 235.1144
1072.10 234.2181
1072.20 232.3835
1072.30 230.5489
1072.40 229.3859
1072.50 228.6523
1072.60 227.9187
1072.70 230.1824
1072.80 232.7068
1072.90 234.5753
1073.00 234.2483
1073.10 233.9212
1073.20 233.8702
1073.30 234.0545
1073.40 234.2388
1073.50 234.4257
1073.60 234.6131
1073.70 235.1567
1073.80 237.5699
1073.90 239.9832
1074.00 241.5892
1074.10 242.2848
1074.20 242.9805
1074.30 245.3224
1074.40 248.1286
1074.50 250.84
1074.60 252.4614
1074.70 254.0827
1074.80 253.8047
1074.90 250.5557
1075.00 247.3067
1075.10 241.1519
1075.20 233.7517
1075.30 226.4069
1075.40 224.548
1075.50 222.6892
1075.60 223.3732
1075.70 229.4607
1075.80 235.5482
1075.90 239.5621
1076.00 242.358
1076.10 245.1539
1076.20 242.5861
1076.30 239.6759
1076.40 237.4679
1076.50 237.3661
1076.60 237.2644
1076.70 238.7764
1076.80 241.5563
1076.90 244.3361
1077.00 245.9883
1077.10 247.4719
1077.20 248.2147
1077.30 245.5828
1077.40 242.9508
1077.50 241.5199
1077.60 241.3392
1077.70 241.1584
1077.80 242.809
1077.90 244.9175
1078.00 246.9411
1078.10 248.2785
1078.20 249.6158
1078.30 249.2755
1078.40 246.6184
1078.50 243.9614
1078.60 240.4624
1078.70 236.652
1078.80 232.8052
1078.90 228.0867
1079.00 223.3682
1079.10 218.6704
1079.20 214.0114
1079.30 209.3523
1079.40 208.255
1079.50 208.9925
1079.60 209.73
1079.70 214.2194
1079.80 218.8249
1079.90 222.9215
1080.00 225.7096
1080.10 228.4977
1080.20 230.0533
1080.30 230.7525
1080.40 231.4516
1080.50 234.3506
1080.60 237.4939
1080.70 240.1943
1080.80 241.2284
1080.90 242.2625
1081.00 243.378
1081.10 244.5685
1081.20 245.7591
1081.30 247.596
1081.40 249.5651
1081.50 251.8939
1081.60 256.4317
1081.70 260.9695
1081.80 262.4372
1081.90 260.1527
1082.00 257.8681
1082.10 253.8554
1082.20 249.2969
1082.30 244.7789
1082.40 240.799
1082.50 236.8192
1082.60 235.4852
1082.70 238.4681
1082.80 241.451
1082.90 245.5921
1083.00 250.2535
1083.10 254.9149
1083.20 259.4371
1083.30 263.9592
1083.40 267.2915
1083.50 267.9754
1083.60 268.6593
1083.70 267.2321
1083.80 264.5109
1083.90 261.7897
1084.00 260.0182
1084.10 258.3182
1084.20 255.7401
1084.30 250.3815
1084.40 245.0229
1084.50 242.0012
1084.60 240.8916
1084.70 239.782
1084.80 239.3588
1084.90 239.0474
1085.00 239.2435
1085.10 241.9178
1085.20 244.592
1085.30 245.3548
1085.40 244.0468
1085.50 242.7388
1085.60 245.9247
1085.70 250.3052
1085.80 254.7556
1085.90 259.8344
1086.00 264.9133
1086.10 268.8879
1086.20 271.2734
1086.30 273.6589
1086.40 271.9336
1086.50 268.6096
1086.60 265.4623
1086.70 266.5543
1086.80 267.6463
1086.90 268.785
1087.00 270.0104
1087.10 271.2358
1087.20 271.1143
1087.30 270.2989
1087.40 269.4836
1087.50 265.7455
1087.60 261.9171
1087.70 258.6212
1087.80 256.6947
1087.90 254.7681
1088.00 254.1588
1088.10 254.4647
1088.20 254.7707
1088.30 254.9643
1088.40 255.1455
1088.50 255.4295
1088.60 256.1005
1088.70 256.7715
1088.80 255.8682
1088.90 253.5116
1089.00 251.1551
1089.10 249.767
1089.20 248.5772
1089.30 248.0746
1089.40 251.7939
1089.50 255.5132
1089.60 259.5323
1089.70 263.9178
1089.80 268.3034
1089.90 273.5165
1090.00 278.991
1090.10 284.0976
1090.20 284.3175
1090.30 284.5374
1090.40 282.6409
1090.50 277.4341
1090.60 272.2273
1090.70 264.173
1090.80 254.8983
1090.90 245.7154
1091.00 245.6242
1091.10 245.5331
1091.20 247.6809
1091.30 254.5865
1091.40 261.4922
1091.50 268.2157
1091.60 274.8322
1091.70 281.4487
1091.80 281.682
1091.90 281.5079
1092.00 280.5611
1092.10 277.2961
1092.20 274.031
1092.30 270.3129
1092.40 266.2388
1092.50 262.1646
1092.60 259.7506
1092.70 257.5846
1092.80 256.0703
1092.90 257.5245
1093.00 258.9787
1093.10 260.9117
1093.20 263.3234
1093.30 265.7351
1093.40 265.8152
1093.50 265.3484
1093.60 264.9381
1093.70 264.9416
1093.80 264.9451
1093.90 265.1332
1094.00 265.5659
1094.10 265.9987
1094.20 264.3242
1094.30 261.9094
1094.40 259.4105
1094.50 255.3144
1094.60 251.2184
1094.70 250.6713
1094.80 256.4333
1094.90 262.1953
1095.00 271.3583
1095.10 282.1965
1095.20 293.0346
1095.30 298.0071
1095.40 302.8599
1095.50 305.1793
1095.60 301.5876
1095.70 297.9959
1095.80 294.5648
1095.90 291.2364
1096.00 287.908
1096.10 289.5386
1096.20 291.6006
1096.30 293.1762
1096.40 293.1237
1096.50 293.0713
1096.60 288.5715
1096.70 280.2831
1096.80 271.9948
1096.90 263.7045
1097.00 255.4138
1097.10 248.2748
1097.20 247.1824
1097.30 246.09
1097.40 248.3897
1097.50 254.5145
1097.60 260.6393
1097.70 265.5687
1097.80 270.1805
1097.90 274.3179
1098.00 274.1864
1098.10 274.0549
1098.20 271.8857
1098.30 266.7842
1098.40 261.6826
1098.50 258.4025
1098.60 255.8308
1098.70 253.4134
1098.80 255.9867
1098.90 258.56
1099.00 262.3795
1099.10 268.618
1099.20 274.8566
1099.30 278.5204
1099.40 280.7977
1099.50 283.0751
1099.60 284.337
1099.70 285.5675
1099.80 285.9148
1099.90 283.991
1100.00 282.0672
1100.10 280.1503
1100.20 278.2382
1100.30 276.3262
1100.40 273.782
1100.50 271.1677
1100.60 268.9412
1100.70 268.1739
1100.80 267.4067
1100.90 267.2073
1101.00 267.5321
1101.10 267.8568
1101.20 268.1961
1101.30 268.538
1101.40 268.7282
1101.50 268.0584
1101.60 267.3885
1101.70 265.9758
1101.80 263.6908
1101.90 261.4059
1102.00 257.2637
1102.10 252.5667
1102.20 248.4883
1102.30 251.524
1102.40 254.5598
1102.50 258.346
1102.60 263.3059
1102.70 268.2659
1102.80 269.9657
1102.90 270.3339
1103.00 270.5526
1103.10 263.449
1103.20 256.3454
1103.30 250.2755
1103.40 246.3042
1103.50 242.333
1103.60 241.3616
1103.70 242.0776
1103.80 242.7936
1103.90 246.4716
1104.00 250.3055
1104.10 253.9131
1104.20 256.8765
1104.30 259.8399
1104.40 261.8818
1104.50 263.2562
1104.60 264.6307
1104.70 263.3699
1104.80 261.7833
1104.90 259.7376
1105.00 255.8547
1105.10 251.9719
1105.20 246.3531
1105.30 239.0664
1105.40 231.7796
1105.50 229.9045
1105.60 229.2172
1105.70 229.1458
1105.80 232.8572
1105.90 236.5687
1106.00 239.8171
1106.10 242.4995
1106.20 245.182
1106.30 245.3319
1106.40 244.682
1106.50 243.7477
1106.60 239.0346
1106.70 234.3216
1106.80 231.4656
1106.90 231.6396
1107.00 231.8135
1107.10 233.7768
1107.20 236.507
1107.30 239.2302
1107.40 241.2573
1107.50 243.2844
1107.60 243.6913
1107.70 240.6556
1107.80 237.6198
1107.90 238.7515
1108.00 242.3307
1108.10 245.9099
1108.20 251.7457
1108.30 257.7256
1108.40 262.7095
1108.50 264.8587
1108.60 267.0078
1108.70 266.884
1108.80 265.0455
1108.90 263.207
1109.00 262.0065
1109.10 260.893
1109.20 260.869
1109.30 265.4897
1109.40 270.1104
1109.50 273.9575
1109.60 277.0309
1109.70 280.1042
1109.80 277.0744
1109.90 272.7049
1110.00 267.5515
1110.10 257.1519
1110.20 246.7523
1110.30 239.5436
1110.40 236.396
1110.50 233.2483
1110.60 233.8569
1110.70 235.7176
1110.80 237.3423
1110.90 235.8321
1111.00 234.3218
1111.10 231.688
1111.20 227.2211
1111.30 222.7541
1111.40 221.8864
1111.50 222.6356
1111.60 223.3849
1111.70 225.8779
1111.80 228.371
1111.90 229.551
1112.00 227.8081
1112.10 226.0652
1112.20 227.6331
1112.30 231.1454
1112.40 234.6577
1112.50 240.2994
1112.60 246.0771
1112.70 251.6332
1112.80 256.5247
1112.90 261.4162
1113.00 262.6533
1113.10 261.0192
1113.20 259.3851
1113.30 255.1579
1113.40 250.5771
1113.50 245.5608
1113.60 238.6876
1113.70 231.8144
1113.80 229.821
1113.90 232.7072
1114.00 235.5935
1114.10 244.0133
1114.20 253.731
1114.30 263.1532
1114.40 270.5976
1114.50 278.042
1114.60 280.494
1114.70 276.592
1114.80 272.6901
1114.90 267.0004
1115.00 260.7149
1115.10 254.5456
1115.20 250.1964
1115.30 245.8472
1115.40 244.4609
1115.50 248.1194
1115.60 251.7779
1115.70 254.6312
1115.80 257.1227
1115.90 259.6142
1116.00 259.1076
1116.10 258.6009
1116.20 257.8937
1116.30 256.7403
1116.40 255.5869
1116.50 254.5978
1116.60 253.7095
1116.70 252.8212
1116.80 249.2398
1116.90 245.4865
1117.00 240.9011
1117.10 233.8193
1117.20 226.7376
1117.30 222.0893
1117.40 219.3528
1117.50 216.6164
1117.60 219.4309
1117.70 223.0749
1117.80 227.2961
1117.90 233.9775
1118.00 240.659
1118.10 246.9744
1118.20 252.9238
1118.30 258.8733
1118.40 261.7283
1118.50 263.8575
1118.60 265.3171
1118.70 261.8664
1118.80 258.0859
1118.90 253.8682
1119.00 249.6506
1119.10 246.0769
1119.20 245.6471
1119.30 245.2174
1119.40 244.7877
1119.50 244.816
1119.60 244.8841
1119.70 244.9522
1119.80 246.1933
1119.90 248.0387
1120.00 249.8841
1120.10 251.6818
1120.20 253.4081
1120.30 255.1343
1120.40 257.1194
1120.50 260.6942
1120.60 264.2691
1120.70 267.8439
1120.80 267.4111
1120.90 266.4829
1121.00 265.5547
1121.10 264.0543
1121.20 262.2178
1121.30 260.3813
1121.40 258.3604
1121.50 256.0385
1121.60 253.7166
1121.70 251.3836
1121.80 248.969
1121.90 246.5544
1122.00 244.1399
1122.10 242.9839
1122.20 242.0328
1122.30 241.0817
1122.40 243.1827
1122.50 247.235
1122.60 251.2874
1122.70 255.0784
1122.80 258.3842
1122.90 261.6899
1123.00 264.3761
1123.10 261.4867
1123.20 258.5972
1123.30 255.7077
1123.40 254.3518
1123.50 253.2881
1123.60 252.2243
1123.70 254.4484
1123.80 259.0534
1123.90 263.6584
1124.00 268.2781
1124.10 272.9277
1124.20 277.5773
1124.30 281.7496
1124.40 279.5792
1124.50 277.4088
1124.60 275.2385
1124.70 269.4689
1124.80 262.9094
1124.90 256.3498
1125.00 250.9133
1125.10 246.3591
1125.20 241.805
1125.30 239.6091
1125.40 242.6622
1125.50 245.7154
1125.60 248.8754
1125.70 254.0655
1125.80 259.2557
1125.90 264.4459
1126.00 265.651
1126.10 265.8599
1126.20 266.0688
1126.30 266.6395
1126.40 267.5184
1126.50 268.3973
1126.60 270.2062
1126.70 274.2921
1126.80 278.3781
1126.90 282.341
1127.00 282.3261
1127.10 282.3112
1127.20 282.2963
1127.30 276.8655
1127.40 269.9072
1127.50 262.949
1127.60 258.6023
1127.70 256.6664
1127.80 254.7305
1127.90 253.7457
1128.00 255.3325
1128.10 256.9193
1128.20 258.5113
1128.30 260.6244
1128.40 262.7374
1128.50 264.8505
1128.60 265.0458
1128.70 264.6355
1128.80 264.2252
1128.90 264.6694
1129.00 265.9346
1129.10 267.1999
1129.20 268.0896
1129.30 267.8529
1129.40 267.6161
1129.50 267.3794
1129.60 266.7357
1129.70 266.0919
1129.80 265.4482
1129.90 264.096
1130.00 262.4949
1130.10 260.8939
1130.20 258.3339
1130.30 254.7759
1130.40 251.2179
1130.50 248.2985
1130.60 247.4017
1130.70 246.5048
1130.80 245.6079
1130.90 247.75
1131.00 249.954
1131.10 252.1581
1131.20 256.3361
1131.30 261.2442
1131.40 266.1523
1131.50 269.1351
1131.60 270.0323
1131.70 270.9295
1131.80 271.579
1131.90 271.3504
1132.00 271.1218
1132.10 270.8931
1132.20 268.6838
1132.30 266.4132
1132.40 264.1427
1132.50 264.1176
1132.60 265.0098
1132.70 265.902
1132.80 265.2668
1132.90 262.8387
1133.00 260.4105
1133.10 257.5846
1133.20 253.2624
1133.30 248.9401
1133.40 244.6178
1133.50 240.6548
1133.60 236.7067
1133.70 232.7586
1133.80 229.6131
1133.90 226.8116
1134.00 224.0101
1134.10 221.2128
1134.20 218.4206
1134.30 215.6285
1134.40 213.8087
1134.50 215.8781
1134.60 217.9475
1134.70 220.017
1134.80 225.8549
1134.90 231.9333
1135.00 238.0118
1135.10 241.8962
1135.20 244.7949
1135.30 247.6936
1135.40 248.3044
1135.50 246.0036
1135.60 243.7027
1135.70 241.7691
1135.80 241.4016
1135.90 241.034
1136.00 240.6665
1136.10 241.6568
1136.20 242.7338
1136.30 243.8108
1136.40 243.47
1136.50 242.4619
1136.60 241.4537
1136.70 239.7778
1136.80 237.2165
1136.90 234.6553
1137.00 232.1059
1137.10 229.6104
1137.20 227.1149
1137.30 224.6194
1137.40 219.6573
1137.50 214.5095
1137.60 209.3617
1137.70 199.364
1137.80 186.9775
1137.90 174.591
1138.00 165.1169
1138.10 159.6648
1138.20 154.2126
1138.30 150.9424
1138.40 158.3249
1138.50 165.7075
1138.60 173.09
1138.70 185.7007
1138.80 198.766
1138.90 211.8312
1139.00 219.385
1139.10 224.2241
1139.20 229.0632
1139.30 230.1014
1139.40 225.8905
1139.50 221.6796
1139.60 216.7681
1139.70 208.1783
1139.80 199.5885
1139.90 190.9986
1140.00 179.7345
1140.10 168.2058
1140.20 156.6772
1140.30 148.4082
1140.40 141.8184
1140.50 135.2286
1140.60 133.9554
1140.70 140.3331
1140.80 146.7108
1140.90 154.4665
1141.00 169.4566
1141.10 184.4468
1141.20 199.437
1141.30 211.6915
1141.40 223.6755
1141.50 235.6595
1141.60 241.2314
1141.70 243.5003
1141.80 245.7691
1141.90 247.5112
1142.00 248.4953
1142.10 249.4795
1142.20 250.3185
1142.30 250.3956
1142.40 250.4726
1142.50 250.5497
1142.60 252.4575
1142.70 254.5463
1142.80 256.6351
1142.90 257.1243
1143.00 256.7522
1143.10 256.3801
1143.20 255.3552
1143.30 253.3509
1143.40 251.3467
1143.50 249.4744
1143.60 248.3497
1143.70 247.225
1143.80 246.1003
1143.90 244.7987
1144.00 243.4774
1144.10 242.1562
1144.20 241.2812
1144.30 240.6464
1144.40 240.0117
1144.50 239.4273
1144.60 238.9182
1144.70 238.4091
1144.80 238.2873
1144.90 240.3602
1145.00 242.4331
1145.10 244.506
1145.20 244.8564
1145.30 245.0154
1145.40 245.1744
1145.50 245.7475
1145.60 246.5435
1145.70 247.3394
1145.80 248.7976
1145.90 251.2491
1146.00 253.7005
1146.10 256.2309
1146.20 259.2086
1146.30 262.1863
1146.40 265.164
1146.50 267.5271
1146.60 269.8218
1146.70 272.1165
1146.80 272.5258
1146.90 271.9199
1147.00 271.314
1147.10 270.2411
1147.20 268.4678
1147.30 266.6944
1147.40 265.2626
1147.50 265.7658
1147.60 266.2689
1147.70 266.7721
1147.80 269.6889
1147.90 272.8444
1148.00 275.9999
1148.10 277.382
1148.20 277.8506
1148.30 278.3192
1148.40 278.0097
1148.50 276.5806
1148.60 275.1515
1148.70 274.1912
1148.80 275.6922
1148.90 277.1932
1149.00 278.6942
1149.10 279.2027
1149.20 279.613
1149.30 280.0233
1149.40 278.37
1149.50 275.6536
1149.60 272.9373
1149.70 271.1765
1149.80 270.7908
1149.90 270.4051
1150.00 270.4467
1150.10 272.7317
1150.20 275.0167
1150.30 277.3017
1150.40 279.9601
1150.50 282.6554
1150.60 285.3507
1150.70 285.7425
1150.80 284.9476
1150.90 284.1528
1151.00 283.5718
1151.10 283.2862
1151.20 283.0005
1151.30 282.4698
1151.40 280.7424
1151.50 279.0151
1151.60 277.2877
1151.70 275.7838
1151.80 274.2994
1151.90 272.8149
1152.00 269.4388
1152.10 265.1311
1152.20 260.8234
1152.30 257.1134
1152.40 254.2286
1152.50 251.3439
1152.60 249.1106
1152.70 250.0581
1152.80 251.0057
1152.90 251.9533
1153.00 255.2358
1153.10 258.694
1153.20 262.1523
1153.30 263.4792
1153.40 263.803
1153.50 264.1269
1153.60 264.562
1153.70 265.1445
1153.80 265.7271
1153.90 266.4051
1154.00 267.5178
1154.10 268.6306
1154.20 269.7433
1154.30 270.4009
1154.40 271.0243
1154.50 271.6476
1154.60 271.9492
1154.70 272.1063
1154.80 272.2634
1154.90 272.7141
1155.00 273.5386
1155.10 274.3631
1155.20 275.0262
1155.30 275.0016
1155.40 274.977
1155.50 274.9524
1155.60 274.1845
1155.70 273.3692
1155.80 272.5538
1155.90 273.3078
1156.00 274.7343
1156.10 276.1608
1156.20 277.3954
1156.30 278.3954
1156.40 279.3954
1156.50 280.0629
1156.60 279.4002
1156.70 278.7375
1156.80 278.0749
1156.90 276.5095
1157.00 274.9065
1157.10 273.3035
1157.20 271.0834
1157.30 268.6112
1157.40 266.139
1157.50 264.3562
1157.60 263.3828
1157.70 262.4093
1157.80 262.2132
1157.90 264.9415
1158.00 267.6698
1158.10 270.3982
1158.20 272.8205
1158.30 275.2335
1158.40 277.6464
1158.50 275.9575
1158.60 272.6734
1158.70 269.3894
1158.80 265.7175
1158.90 261.6083
1159.00 257.4991
1159.10 253.4728
1159.20 249.7241
1159.30 245.9753
1159.40 242.2265
1159.50 241.879
1159.60 241.6008
1159.70 241.3226
1159.80 241.703
1159.90 242.327
1160.00 242.951
1160.10 244.4834
1160.20 246.9611
1160.30 249.4387
1160.40 251.5628
1160.50 252.5668
1160.60 253.5709
1160.70 254.575
1160.80 257.214
1160.90 259.8529
1161.00 262.4919
1161.10 265.5981
1161.20 268.8602
1161.30 272.1222
1161.40 273.8123
1161.50 273.9306
1161.60 274.0488
1161.70 273.559
1161.80 271.3388
1161.90 269.1186
1162.00 266.9194
1162.10 266.806
1162.20 266.6927
1162.30 266.5793
1162.40 268.8249
1162.50 271.775
1162.60 274.7252
1162.70 277.8746
1162.80 281.2079
1162.90 284.5411
1163.00 286.7615
1163.10 285.9728
1163.20 285.184
1163.30 284.2846
1163.40 279.8033
1163.50 275.322
1163.60 270.8407
1163.70 267.181
1163.80 263.753
1163.90 260.3249
1164.00 259.936
1164.10 262.1358
1164.20 264.3356
1164.30 267.0384
1164.40 270.9725
1164.50 274.9067
1164.60 278.5447
1164.70 276.5583
1164.80 274.5719
1164.90 272.5855
1165.00 268.3715
1165.10 263.6006
1165.20 258.8297
1165.30 255.6991
1165.40 253.8575
1165.50 252.0158
1165.60 251.8421
1165.70 255.3808
1165.80 258.9196
1165.90 262.4073
1166.00 265.2153
1166.10 268.0233
1166.20 270.8313
1166.30 270.4662
1166.40 269.4047
1166.50 268.3431
1166.60 266.3522
1166.70 263.6883
1166.80 261.0244
1166.90 258.5758
1167.00 256.5644
1167.10 254.553
1167.20 252.6353
1167.30 251.6644
1167.40 250.6935
1167.50 249.7227
1167.60 247.8518
1167.70 245.8096
1167.80 243.7673
1167.90 240.8811
1168.00 237.4322
1168.10 233.9833
1168.20 228.5984
1168.30 219.6179
1168.40 210.6374
1168.50 201.0925
1168.60 186.9805
1168.70 172.8686
1168.80 158.7567
1168.90 148.81
1169.00 139.5414
1169.10 130.2728
1169.20 129.8747
1169.30 134.9133
1169.40 139.9519
1169.50 148.2463
1169.60 162.0844
1169.70 175.9225
1169.80 189.5442
1169.90 201.7172
1170.00 213.8901
1170.10 226.0631
1170.20 233.5616
1170.30 240.4824
1170.40 247.4032
1170.50 251.8089
1170.60 254.8001
1170.70 257.7912
1170.80 259.5989
1170.90 259.6316
1171.00 259.6643
1171.10 259.6087
1171.20 259.0522
1171.30 258.4958
1171.40 257.9393
1171.50 258.0432
1171.60 258.2125
1171.70 258.3817
1171.80 258.3386
1171.90 258.191
1172.00 258.0433
1172.10 258.16
1172.20 258.6417
1172.30 259.1234
1172.40 259.8315
1172.50 261.5707
1172.60 263.3099
1172.70 265.0491
1172.80 266.1126
1172.90 267.133
1173.00 268.1535
1173.10 267.7216
1173.20 266.6373
1173.30 265.553
1173.40 263.8446
1173.50 261.3736
1173.60 258.9026
1173.70 256.8638
1173.80 256.4512
1173.90 256.0386
1174.00 255.6261
1174.10 257.5399
1174.20 259.5506
1174.30 261.5614
1174.40 263.3376
1174.50 265.0225
1174.60 266.7074
1174.70 266.4426
1174.80 264.0657
1174.90 261.6887
1175.00 258.8525
1175.10 254.4789
1175.20 250.1052
1175.30 245.7316
1175.40 243.9076
1175.50 242.1093
1175.60 240.311
1175.70 238.8911
1175.80 237.5973
1175.90 236.3036
1176.00 234.014
1176.10 230.7286
1176.20 227.4432
1176.30 222.6246
1176.40 213.4424
1176.50 204.2602
1176.60 194.9636
1176.70 180.063
1176.80 165.1623
1176.90 150.2617
1177.00 136.5169
1177.10 123.0981
1177.20 109.6792
1177.30 103.4251
1177.40 103.5246
1177.50 103.624
1177.60 106.9867
1177.70 118.3387
1177.80 129.6907
1177.90 141.2117
1178.00 155.9447
1178.10 170.6778
1178.20 185.4108
1178.30 196.0051
1178.40 205.6286
1178.50 215.2521
1178.60 222.6475
1178.70 228.2923
1178.80 233.937
1178.90 238.3151
1179.00 240.0016
1179.10 241.6882
1179.20 243.2524
1179.30 243.41
1179.40 243.5675
1179.50 243.7251
1179.60 244.487
1179.70 245.3641
1179.80 246.2411
1179.90 248.2296
1180.00 250.9589
1180.10 253.6882
1180.20 256.2135
1180.30 258.36
1180.40 260.5066
1180.50 262.3323
1180.60 261.5628
1180.70 260.7933
1180.80 260.0237
1180.90 258.3535
1181.00 256.5487
1181.10 254.7439
1181.20 253.2901
1181.30 252.0424
1181.40 250.7947
1181.50 250.2295
1181.60 250.7321
1181.70 251.2346
1181.80 251.928
1181.90 253.7033
1182.00 255.4786
1182.10 257.2539
1182.20 258.1123
1182.30 258.8689
1182.40 259.6254
1182.50 259.9684
1182.60 260.0983
1182.70 260.2283
1182.80 260.2948
1182.90 260.2736
1183.00 260.2525
1183.10 259.7541
1183.20 257.081
1183.30 254.4079
1183.40 251.7348
1183.50 249.3108
1183.60 246.9028
1183.70 244.4948
1183.80 245.3423
1183.90 247.5849
1184.00 249.8276
1184.10 252.5414
1184.20 255.8083
1184.30 259.0752
1184.40 261.1358
1184.50 258.9191
1184.60 256.7024
1184.70 254.4857
1184.80 251.1757
1184.90 247.8318
1185.00 244.4879
1185.10 244.6204
1185.20 246.0386
1185.30 247.4568
1185.40 249.814
1185.50 253.1485
1185.60 256.483
1185.70 259.3985
1185.80 261.0571
1185.90 262.7157
1186.00 264.348
1186.10 263.3699
1186.20 262.3918
1186.30 261.4137
1186.40 259.6895
1186.50 257.7424
1186.60 255.7953
1186.70 254.2897
1186.80 253.1755
1186.90 252.0613
1187.00 251.5718
1187.10 252.6116
1187.20 253.6514
1187.30 254.7048
1187.40 256.0178
1187.50 257.3308
1187.60 258.6438
1187.70 256.4847
1187.80 253.5111
1187.90 250.5376
1188.00 246.0118
1188.10 240.3151
1188.20 234.6184
1188.30 230.4019
1188.40 229.1906
1188.50 227.9793
1188.60 227.1949
1188.70 230.7272
1188.80 234.2595
1188.90 237.7918
1189.00 241.4193
1189.10 245.0637
1189.20 248.708
1189.30 250.8609
1189.40 252.0602
1189.50 253.2595
1189.60 254.5952
1189.70 256.1632
1189.80 257.7312
1189.90 258.9839
1190.00 258.1263
1190.10 257.2687
1190.20 256.4112
1190.30 255.2781
1190.40 254.1109
1190.50 252.9438
1190.60 252.3495
1190.70 252.0636
1190.80 251.7778
1190.90 252.4407
1191.00 254.469
1191.10 256.4973
1191.20 258.4334
1191.30 259.9192
1191.40 261.405
1191.50 262.8908
1191.60 263.3754
1191.70 263.7847
1191.80 264.194
1191.90 263.5145
1192.00 262.3457
1192.10 261.1769
1192.20 260.6851
1192.30 261.0207
1192.40 261.3562
1192.50 261.7605
1192.60 262.4235
1192.70 263.0865
1192.80 263.7495
1192.90 264.4122
1193.00 265.0749
1193.10 265.7376
1193.20 263.5283
1193.30 260.2569
1193.40 256.9854
1193.50 253.458
1193.60 249.6642
1193.70 245.8704
1193.80 242.4091
1193.90 239.8942
1194.00 237.3793
1194.10 234.8932
1194.20 233.8187
1194.30 232.7441
1194.40 231.6696
1194.50 228.8758
1194.60 225.5973
1194.70 222.3187
1194.80 220.6046
1194.90 220.2232
1195.00 219.8419
1195.10 220.5921
1195.20 223.9828
1195.30 227.3734
1195.40 230.6698
1195.50 232.4892
1195.60 234.3087
1195.70 236.1281
1195.80 234.2575
1195.90 231.5769
1196.00 228.8964
1196.10 226.4677
1196.20 224.2214
1196.30 221.9752
1196.40 220.503
1196.50 220.5333
1196.60 220.5636
1196.70 220.3468
1196.80 218.1307
1196.90 215.9147
1197.00 213.6986
1197.10 209.0496
1197.20 204.037
1197.30 199.0244
1197.40 195.1006
1197.50 191.8162
1197.60 188.5317
1197.70 187.1909
1197.80 188.8901
1197.90 190.5894
1198.00 192.8659
1198.10 198.4142
1198.20 203.9624
1198.30 209.5107
1198.40 212.6452
1198.50 215.5409
1198.60 218.4367
1198.70 217.4096
1198.80 214.5364
1198.90 211.6632
1199.00 207.5857
1199.10 201.9754
1199.20 196.3651
1199.30 191.8015
1199.40 191.4243
1199.50 191.0472
1199.60 190.6701
1199.70 191.9398
1199.80 193.2781
1199.90 194.6164
1200.00 195.7933
1200.10 196.9074
1200.20 198.0214
1200.30 199.2013
1200.40 200.4496
1200.50 201.698
1200.60 203.2296
1200.70 205.611
1200.80 207.9924
1200.90 210.3581
1201.00 211.1744
1201.10 211.9908
1201.20 212.8071
1201.30 211.7215
1201.40 210.0678
1201.50 208.4142
1201.60 207.1515
1201.70 206.2218
1201.80 205.2921
1201.90 204.8151
1202.00 205.3943
1202.10 205.9735
1202.20 206.5715
1202.30 207.4658
1202.40 208.3601
1202.50 209.2544
1202.60 207.8664
1202.70 205.9775
1202.80 204.0886
1202.90 203.4123
1203.00 203.5786
1203.10 203.7449
1203.20 205.4202
1203.30 209.8977
1203.40 214.3753
1203.50 219.0089
1203.60 224.9047
1203.70 230.8005
1203.80 236.6963
1203.90 238.5828
1204.00 239.8702
1204.10 241.1577
1204.20 239.6473
1204.30 236.5633
1204.40 233.4793
1204.50 231.04
1204.60 229.5679
1204.70 228.0957
1204.80 227.2643
1204.90 229.7967
1205.00 232.3292
1205.10 234.8617
1205.20 238.52
1205.30 242.2631
1205.40 246.0062
1205.50 248.747
1205.60 251.0374
1205.70 253.3279
1205.80 254.6514
1205.90 254.7931
1206.00 254.9349
1206.10 254.4146
1206.20 251.5473
1206.30 248.6799
1206.40 245.8126
1206.50 242.6651
1206.60 239.5119
1206.70 236.3587
1206.80 236.6922
1206.90 238.2507
1207.00 239.8092
1207.10 242.9212
1207.20 247.5258
1207.30 252.1304
1207.40 256.4016
1207.50 259.7714
1207.60 263.1413
1207.70 266.4263
1207.80 266.9652
1207.90 267.5041
1208.00 268.0431
1208.10 266.6008
1208.20 264.6631
1208.30 262.7254
1208.40 258.4304
1208.50 252.2832
1208.60 246.1359
1208.70 240.3554
1208.80 235.354
1208.90 230.3526
1209.00 226.0398
1209.10 228.6895
1209.20 231.3392
1209.30 233.9889
1209.40 240.8026
1209.50 248.3511
1209.60 255.8996
1209.70 259.3622
1209.80 260.3205
1209.90 261.2787
1210.00 258.9709
1210.10 251.3343
1210.20 243.6977
1210.30 235.9186
1210.40 227.2642
1210.50 218.6098
1210.60 209.9553
1210.70 207.0927
1210.80 204.803
1210.90 202.5132
1211.00 203.8038
1211.10 206.8579
1211.20 209.9121
1211.30 213.1705
1211.40 216.6997
1211.50 220.2289
1211.60 223.765
1211.70 227.3285
1211.80 230.8919
1211.90 234.4554
1212.00 239.3098
1212.10 244.218
1212.20 249.1262
1212.30 251.0148
1212.40 251.7866
1212.50 252.5584
1212.60 250.2019
1212.70 244.5892
1212.80 238.9765
1212.90 233.7276
1213.00 229.5138
1213.10 225.3
1213.20 221.2709
1213.30 226.2918
1213.40 231.3127
1213.50 236.3337
1213.60 243.7744
1213.70 251.8583
1213.80 259.9422
1213.90 265.0578
1214.00 267.7447
1214.10 270.4316
1214.20 271.6995
1214.30 269.9518
1214.40 268.2042
1214.50 266.5822
1214.60 266.4049
1214.70 266.2277
1214.80 266.0504
1214.90 266.8107
1215.00 267.7365
1215.10 268.6623
1215.20 267.863
1215.30 265.9607
1215.40 264.0584
1215.50 261.5898
1215.60 258.1972
1215.70 254.8046
1215.80 251.7833
1215.90 251.043
1216.00 250.3027
1216.10 249.5624
1216.20 251.0421
1216.30 252.7684
1216.40 254.4947
1216.50 256.9131
1216.60 259.6723
1216.70 262.4316
1216.80 264.4296
1216.90 265.4586
1217.00 266.4877
1217.10 267.1205
1217.20 266.1681
1217.30 265.2156
1217.40 264.2632
1217.50 264.8806
1217.60 265.5465
1217.70 266.2124
1217.80 268.2318
1217.90 270.7519
1218.00 273.272
1218.10 275.7606
1218.20 278.2177
1218.30 280.6747
1218.40 281.8643
1218.50 279.4462
1218.60 277.0281
1218.70 274.6349
1218.80 273.0478
1218.90 271.4606
1219.00 269.8735
1219.10 268.8966
1219.20 268.082
1219.30 267.2674
1219.40 266.8511
1219.50 266.7478
1219.60 266.6445
1219.70 266.3199
1219.80 265.5248
1219.90 264.7297
1220.00 264.0605
1220.10 264.664
1220.20 265.2675
1220.30 265.8709
1220.40 266.1373
1220.50 266.3487
1220.60 266.5602
1220.70 264.8201
1220.80 261.884
1220.90 258.9478
1221.00 255.9636
1221.10 252.9043
1221.20 249.8449
1221.30 247.0621
1221.40 245.846
1221.50 244.63
1221.60 243.4139
1221.70 243.7414
1221.80 244.2032
1221.90 244.6649
1222.00 244.6592
1222.10 244.4435
1222.20 244.2278
1222.30 244.4926
1222.40 245.3447
1222.50 246.1968
1222.60 248.0846
1222.70 253.6445
1222.80 259.2044
1222.90 264.7644
1223.00 271.5157
1223.10 278.2913
1223.20 285.0669
1223.30 288.6975
1223.40 291.2798
1223.50 293.8621
1223.60 293.9307
1223.70 291.6789
1223.80 289.4271
1223.90 287.1157
1224.00 284.6507
1224.10 282.1856
1224.20 279.84
1224.30 279.7631
1224.40 279.6862
1224.50 279.6093
1224.60 281.2544
1224.70 283.2775
1224.80 285.3006
1224.90 286.924
1225.00 288.2581
1225.10 289.5921
1225.20 289.4588
1225.30 286.6005
1225.40 283.7421
1225.50 280.8688
1225.60 277.8855
1225.70 274.9022
1225.80 271.9189
1225.90 272.8584
1226.00 274.3329
1226.10 275.8073
1226.20 279.2072
1226.30 283.6439
1226.40 288.0806
1226.50 291.0472
1226.60 291.9837
1226.70 292.9202
1226.80 293.0829
1226.90 289.7205
1227.00 286.3582
1227.10 282.9958
1227.20 281.6343
1227.30 280.3782
1227.40 279.1221
1227.50 280.6106
1227.60 283.1664
1227.70 285.7222
1227.80 288.0038
1227.90 289.9881
1228.00 291.9725
1228.10 293.326
1228.20 292.7867
1228.30 292.2475
1228.40 291.6598
1228.50 288.6988
1228.60 285.7379
1228.70 282.7769
1228.80 280.2464
1228.90 277.8302
1229.00 275.4141
1229.10 272.2108
1229.20 268.3636
1229.30 264.5163
1229.40 261.5002
1229.50 260.2503
1229.60 259.0004
1229.70 258.0928
1229.80 260.647
1229.90 263.2012
1230.00 265.7554
1230.10 270.8534
1230.20 276.4002
1230.30 281.947
1230.40 285.2838
1230.50 287.2659
1230.60 289.248
1230.70 289.5125
1230.80 287.0905
1230.90 284.6685
1231.00 282.3131
1231.10 280.3072
1231.20 278.3013
1231.30 276.2954
1231.40 275.6146
1231.50 275.0489
1231.60 274.4832
1231.70 274.1026
1231.80 273.8051
1231.90 273.5076
1232.00 273.0625
1232.10 272.444
1232.20 271.8256
1232.30 271.3041
1232.40 271.1073
1232.50 270.9105
1232.60 270.7137
1232.70 268.739
1232.80 266.7643
1232.90 264.7896
1233.00 263.156
1233.10 261.63
1233.20 260.1041
1233.30 260.2661
1233.40 261.925
1233.50 263.5839
1233.60 265.4981
1233.70 268.008
1233.80 270.518
1233.90 272.7213
1234.00 270.8506
1234.10 268.9799
1234.20 267.1091
1234.30 265.2217
1234.40 263.3308
1234.50 261.4399
1234.60 261.7332
1234.70 263.4827
1234.80 265.2321
1234.90 267.5029
1235.00 270.6613
1235.10 273.8197
1235.20 276.3349
1235.30 274.8986
1235.40 273.4622
1235.50 272.0259
1235.60 269.4178
1235.70 266.6937
1235.80 263.9696
1235.90 262.9776
1236.00 262.8005
1236.10 262.6235
1236.20 264.5794
1236.30 269.2501
1236.40 273.9207
1236.50 278.0927
1236.60 280.3886
1236.70 282.6845
1236.80 284.9804
1236.90 282.1019
1237.00 279.1178
1237.10 276.1337
1237.20 271.8901
1237.30 267.2266
1237.40 262.5631
1237.50 260.7444
1237.60 261.5515
1237.70 262.3586
1237.80 264.0421
1237.90 267.8711
1238.00 271.7
1238.10 275.2484
1238.20 274.3999
1238.30 273.5514
1238.40 272.703
1238.50 266.0903
1238.60 258.2124
1238.70 250.3345
1238.80 242.7176
1238.90 235.2822
1239.00 227.8467
1239.10 222.8312
1239.20 222.1176
1239.30 221.404
1239.40 221.2732
1239.50 225.0429
1239.60 228.8126
1239.70 232.5823
1239.80 234.9417
1239.90 237.1444
1240.00 239.3471
1240.10 238.1436
1240.20 235.2625
1240.30 232.3814
1240.40 230.1232
1240.50 228.6579
1240.60 227.1926
1240.70 226.7912
1240.80 230.392
1240.90 233.9928
1241.00 237.5937
1241.10 240.5782
1241.20 243.5437
1241.30 246.5092
1241.40 244.6882
1241.50 241.1854
1241.60 237.6825
1241.70 233.6895
1241.80 229.2254
1241.90 224.7614
1242.00 221.2727
1242.10 220.2922
1242.20 219.3118
1242.30 218.2496
1242.40 215.6337
1242.50 213.0178
1242.60 210.4019
1242.70 202.4216
1242.80 193.2638
1242.90 184.1059
1243.00 175.3107
1243.10 166.7674
1243.20 158.2241
1243.30 153.4221
1243.40 155.2712
1243.50 157.1204
1243.60 160.0362
1243.70 170.0901
1243.80 180.144
1243.90 190.1979
1244.00 199.3844
1244.10 208.4744
1244.20 217.5645
1244.30 224.1145
1244.40 229.4134
1244.50 234.7122
1244.60 239.7202
1244.70 244.3579
1244.80 248.9957
1244.90 253.273
1245.00 256.1945
1245.10 259.116
1245.20 262.0376
1245.30 262.2477
1245.40 262.4024
1245.50 262.5572
1245.60 260.6338
1245.70 258.0176
1245.80 255.4014
1245.90 253.2948
1246.00 251.6588
1246.10 250.0227
1246.20 249.4544
1246.30 251.5004
1246.40 253.5464
1246.50 255.6964
1246.60 259.4769
1246.70 263.2573
1246.80 267.0377
1246.90 268.938
1247.00 270.4532
1247.10 271.9684
1247.20 271.6364
1247.30 270.073
1247.40 268.5096
1247.50 266.7745
1247.60 264.7471
1247.70 262.7197
1247.80 260.7275
1247.90 258.9513
1248.00 257.1751
1248.10 255.399
1248.20 255.186
1248.30 255.1277
1248.40 255.0694
1248.50 255.9051
1248.60 257.1616
1248.70 258.418
1248.80 259.3413
1248.90 259.8575
1249.00 260.3736
1249.10 260.5552
1249.20 259.551
1249.30 258.5467
1249.40 257.5425
1249.50 256.2728
1249.60 255.0003
1249.70 253.7279
1249.80 254.1645
1249.90 255.1407
1250.00 256.1169
1250.10 256.3942
1250.20 256.0518
1250.30 255.7093
1250.40 254.9828
1250.50 253.3601
1250.60 251.7374
1250.70 250.0142
1250.80 246.9558
1250.90 243.8974
1251.00 240.8391
1251.10 237.8965
1251.20 234.9759
1251.30 232.0554
1251.40 226.795
1251.50 220.0386
1251.60 213.2822
1251.70 204.342
1251.80 191.8388
1251.90 179.3355
1252.00 167.2025
1252.10 157.1678
1252.20 147.1331
1252.30 137.0984
1252.40 140.0827
1252.50 144.1991
1252.60 148.3155
1252.70 160.1099
1252.80 175.3539
1252.90 190.5978
1253.00 204.6317
1253.10 217.2451
1253.20 229.8586
1253.30 240.7223
1253.40 245.7282
1253.50 250.7341
1253.60 255.7401
1253.70 258.5092
1253.80 261.2783
1253.90 264.0475
1254.00 264.8933
1254.10 265.1966
1254.20 265.5
1254.30 265.4245
1254.40 265.039
1254.50 264.6536
1254.60 264.2154
1254.70 263.6654
1254.80 263.1154
1254.90 262.9258
1255.00 266.3811
1255.10 269.8363
1255.20 273.2916
1255.30 276.6723
1255.40 280.0409
1255.50 283.4094
1255.60 286.0764
1255.70 288.3312
1255.80 290.586
1255.90 290.8901
1256.00 288.268
1256.10 285.646
1256.20 283.0773
1256.30 280.7694
1256.40 278.4614
1256.50 276.1535
1256.60 276.0808
1256.70 276.1509
1256.80 276.2209
1256.90 277.0598
1257.00 278.2126
1257.10 279.3654
1257.20 279.9548
1257.30 279.9577
1257.40 279.9606
1257.50 280.4183
1257.60 282.17
1257.70 283.9217
1257.80 285.7163
1257.90 288.8949
1258.00 292.0735
1258.10 295.2521
1258.20 295.9423
1258.30 296.0104
1258.40 296.0785
1258.50 293.3586
1258.60 288.5355
1258.70 283.7123
1258.80 278.8802
1258.90 274.0307
1259.00 269.1811
1259.10 264.7359
1259.20 263.5622
1259.30 262.3885
1259.40 261.2147
1259.50 263.7255
1259.60 266.6916
1259.70 269.6578
1259.80 272.3293
1259.90 274.8491
1260.00 277.3688
1260.10 279.6725
1260.20 281.6898
1260.30 283.7071
1260.40 285.8535
1260.50 288.5163
1260.60 291.1791
1260.70 293.8419
1260.80 297.8467
1260.90 301.8931
1261.00 305.9394
1261.10 306.4806
1261.20 305.7903
1261.30 305.1
1261.40 302.6703
1261.50 298.635
1261.60 294.5998
1261.70 290.7892
1261.80 287.5289
1261.90 284.2685
1262.00 281.2874
1262.10 282.6827
1262.20 284.0779
1262.30 285.4732
1262.40 287.3125
1262.50 289.2428
1262.60 291.1731
1262.70 291.9051
1262.80 291.838
1262.90 291.771
1263.00 291.2397
1263.10 289.9506
1263.20 288.6616
1263.30 287.2892
1263.40 285.4442
1263.50 283.5993
1263.60 281.7544
1263.70 279.5152
1263.80 277.2418
1263.90 274.9684
1264.00 272.5656
1264.10 270.1047
1264.20 267.6438
1264.30 266.6604
1264.40 267.3431
1264.50 268.0257
1264.60 269.3773
1264.70 272.8472
1264.80 276.3171
1264.90 279.7762
1265.00 282.1637
1265.10 284.5511
1265.20 286.9386
1265.30 287.6481
1265.40 287.8843
1265.50 288.1206
1265.60 287.9017
1265.70 287.3104
1265.80 286.7191
1265.90 286.4798
1266.00 286.9552
1266.10 287.4306
1266.20 287.8375
1266.30 287.6277
1266.40 287.4178
1266.50 287.208
1266.60 288.6143
1266.70 290.2621
1266.80 291.9099
1266.90 293.9048
1267.00 296.0951
1267.10 298.2854
1267.20 300.397
1267.30 302.3999
1267.40 304.4029
1267.50 306.2428
1267.60 307.3878
1267.70 308.5329
1267.80 309.6779
1267.90 309.1509
1268.00 308.5543
1268.10 307.9577
1268.20 306.4292
1268.30 304.5559
1268.40 302.6827
1268.50 300.8005
1268.60 298.9096
1268.70 297.0188
1268.80 295.6571
1268.90 295.6561
1269.00 295.6551
1269.10 295.6422
1269.20 295.4027
1269.30 295.1632
1269.40 294.9237
1269.50 293.4778
1269.60 291.767
1269.70 290.0563
1269.80 288.3461
1269.90 286.6364
1270.00 284.9267
1270.10 283.4279
1270.20 282.2881
1270.30 281.1483
1270.40 280.6069
1270.50 283.7418
1270.60 286.8767
1270.70 290.0116
1270.80 293.8971
1270.90 297.848
1271.00 301.7989
1271.10 304.8886
1271.20 307.5915
1271.30 310.2944
1271.40 311.0381
1271.50 309.4819
1271.60 307.9258
1271.70 306.515
1271.80 305.5649
1271.90 304.6147
1272.00 303.6725
1272.10 303.5154
1272.20 303.3584
1272.30 303.2013
1272.40 302.5934
1272.50 301.8583
1272.60 301.1232
1272.70 299.6088
1272.80 297.4567
1272.90 295.3047
1273.00 293.6082
1273.10 292.8366
1273.20 292.065
1273.30 291.2445
1273.40 289.9839
1273.50 288.7232
1273.60 287.4625
1273.70 284.6001
1273.80 281.5192
1273.90 278.4383
1274.00 277.1398
1274.10 276.8009
1274.20 276.462
1274.30 278.4014
1274.40 283.487
1274.50 288.5725
1274.60 293.3019
1274.70 296.6066
1274.80 299.9113
1274.90 303.216
1275.00 301.7626
1275.10 300.1621
1275.20 298.5615
1275.30 298.2092
1275.40 298.2955
1275.50 298.3818
1275.60 300.5101
1275.70 304.5231
1275.80 308.5362
1275.90 311.6134
1276.00 312.399
1276.10 313.1846
1276.20 313.7458
1276.30 310.792
1276.40 307.8382
1276.50 304.8844
1276.60 302.9037
1276.70 301.1083
1276.80 299.3129
1276.90 300.2652
1277.00 302.9743
1277.10 305.6834
1277.20 307.7218
1277.30 308.6661
1277.40 309.6104
1277.50 310.1954
1277.60 308.8939
1277.70 307.5925
1277.80 306.2911
1277.90 301.6732
1278.00 296.8056
1278.10 291.9381
1278.20 289.7071
1278.30 288.5529
1278.40 287.3988
1278.50 287.3164
1278.60 288.3949
1278.70 289.4734
1278.80 291.3671
1278.90 295.7061
1279.00 300.0451
1279.10 304.3308
1279.20 306.8933
1279.30 309.4557
1279.40 312.0181
1279.50 312.6954
1279.60 312.9013
1279.70 313.1072
1279.80 311.7061
1279.90 309.0925
1280.00 306.479
1280.10 303.8856
1280.20 301.3297
1280.30 298.7738
1280.40 296.3718
1280.50 295.0991
1280.60 293.8263
1280.70 292.5535
1280.80 292.5576
1280.90 292.7036
1281.00 292.8496
1281.10 293.4121
1281.20 294.1798
1281.30 294.9475
1281.40 295.7409
1281.50 296.5672
1281.60 297.3935
1281.70 298.1209
1281.80 298.4976
1281.90 298.8743
1282.00 299.2509
1282.10 300.8409
1282.20 302.4432
1282.30 304.0454
1282.40 305.0971
1282.50 305.9844
1282.60 306.8717
1282.70 306.7233
1282.80 305.6927
1282.90 304.6622
1283.00 303.7153
1283.10 302.9463
1283.20 302.1773
1283.30 301.4178
1283.40 300.7537
1283.50 300.0896
1283.60 299.4256
1283.70 298.7218
1283.80 298.0115
1283.90 297.3012
1284.00 296.3257
1284.10 295.2009
1284.20 294.076
1284.30 293.9731
1284.40 295.3407
1284.50 296.7082
1284.60 298.1701
1284.70 300.0339
1284.80 301.8977
1284.90 303.7616
1285.00 303.4226
1285.10 302.9918
1285.20 302.561
1285.30 299.3761
1285.40 295.2235
1285.50 291.071
1285.60 286.9033
1285.70 282.7212
1285.80 278.5391
1285.90 275.3108
1286.00 274.4176
1286.10 273.5245
1286.20 272.8663
1286.30 275.8888
1286.40 278.9114
1286.50 281.9339
1286.60 286.8008
1286.70 292.0456
1286.80 297.2903
1286.90 301.0805
1287.00 303.9408
1287.10 306.801
1287.20 307.6943
1287.30 305.3782
1287.40 303.0621
1287.50 300.241
1287.60 294.7691
1287.70 289.2972
1287.80 283.8253
1287.90 280.9765
1288.00 278.325
1288.10 275.6735
1288.20 275.5843
1288.30 276.5417
1288.40 277.499
1288.50 279.7844
1288.60 283.5086
1288.70 287.2328
1288.80 290.6187
1288.90 293.0417
1289.00 295.4646
1289.10 297.8491
1289.20 298.9895
1289.30 300.1299
1289.40 301.2703
1289.50 299.8261
1289.60 297.7755
1289.70 295.725
1289.80 293.9288
1289.90 292.3167
1290.00 290.7047
1290.10 289.8591
1290.20 290.3762
1290.30 290.8934
1290.40 291.4014
1290.50 291.8485
1290.60 292.2956
1290.70 292.7428
1290.80 292.9595
1290.90 293.1533
1291.00 293.3472
1291.10 292.6467
1291.20 291.5252
1291.30 290.4038
1291.40 290.0673
1291.50 290.6521
1291.60 291.237
1291.70 292.1497
1291.80 294.1595
1291.90 296.1693
1292.00 298.1729
1292.10 299.5548
1292.20 300.9367
1292.30 302.3186
1292.40 300.891
1292.50 298.671
1292.60 296.451
1292.70 293.3216
1292.80 289.4776
1292.90 285.6336
1293.00 283.3348
1293.10 284.1732
1293.20 285.0116
1293.30 285.9649
1293.40 287.8476
1293.50 289.7303
1293.60 291.613
1293.70 293.4345
1293.80 295.2475
1293.90 297.0606
1294.00 297.4318
1294.10 297.0601
1294.20 296.6885
1294.30 296.9029
1294.40 297.8632
1294.50 298.8234
1294.60 299.9164
1294.70 301.5085
1294.80 303.1006
1294.90 304.6927
1295.00 302.8638
1295.10 301.0003
1295.20 299.1368
1295.30 295.1541
1295.40 290.5023
1295.50 285.8505
1295.60 282.4398
1295.70 280.0862
1295.80 277.7326
1295.90 276.7046
1296.00 278.6272
1296.10 280.5498
1296.20 282.4118
1296.30 283.6617
1296.40 284.9117
1296.50 286.1616
1296.60 286.8226
1296.70 287.3878
1296.80 287.9529
1296.90 288.4277
1297.00 288.8516
1297.10 289.2755
1297.20 289.8277
1297.30 290.5569
1297.40 291.2862
1297.50 291.8158
1297.60 291.4945
1297.70 291.1732
1297.80 290.8519
1297.90 291.9501
1298.00 293.0922
1298.10 294.2342
1298.20 296.909
1298.30 300.1224
1298.40 303.3357
1298.50 305.9518
1298.60 308.0167
1298.70 310.0816
1298.80 311.1532
1298.90 309.7932
1299.00 308.4331
1299.10 306.9495
1299.20 303.8241
1299.30 300.6987
1299.40 297.5733
1299.50 294.8101
1299.60 292.1108
1299.70 289.4115
1299.80 287.6267
1299.90 286.4023
