# Version 2.1 - nm, norm@500 to 1, cut digits
# Wavelength(nm)  Flambda(ergs/cm^s/s/nm)
300.00 1.326954e-95
300.10 1.326954e-95
300.20 1.326954e-95
300.30 1.326954e-95
300.40 1.326954e-95
300.50 1.326954e-95
300.60 1.326954e-95
300.70 1.326954e-95
300.80 1.326954e-95
300.90 1.326954e-95
301.00 1.326954e-95
301.10 1.326954e-95
301.20 1.326954e-95
301.30 1.326954e-95
301.40 1.326954e-95
301.50 1.326954e-95
301.60 1.326954e-95
301.70 1.326954e-95
301.80 1.326954e-95
301.90 1.326954e-95
302.00 1.326954e-95
302.10 1.326954e-95
302.20 1.326954e-95
302.30 1.326954e-95
302.40 1.326954e-95
302.50 1.326954e-95
302.60 1.326954e-95
302.70 1.326954e-95
302.80 1.326954e-95
302.90 1.326954e-95
303.00 1.326954e-95
303.10 1.326954e-95
303.20 1.326954e-95
303.30 1.326954e-95
303.40 1.326954e-95
303.50 1.326954e-95
303.60 1.326954e-95
303.70 1.326954e-95
303.80 1.326954e-95
303.90 1.326954e-95
304.00 1.326954e-95
304.10 1.326954e-95
304.20 1.326954e-95
304.30 1.326954e-95
304.40 1.326954e-95
304.50 1.326954e-95
304.60 1.326954e-95
304.70 1.326954e-95
304.80 1.326954e-95
304.90 1.326954e-95
305.00 1.326954e-95
305.10 1.326954e-95
305.20 1.326954e-95
305.30 1.326954e-95
305.40 1.326954e-95
305.50 1.326954e-95
305.60 1.326954e-95
305.70 1.326954e-95
305.80 1.326954e-95
305.90 1.326954e-95
306.00 1.326954e-95
306.10 1.326954e-95
306.20 1.326954e-95
306.30 1.326954e-95
306.40 1.326954e-95
306.50 1.326954e-95
306.60 1.326954e-95
306.70 1.326954e-95
306.80 1.326954e-95
306.90 1.326954e-95
307.00 1.326954e-95
307.10 1.326954e-95
307.20 1.326954e-95
307.30 1.326954e-95
307.40 1.326954e-95
307.50 1.326954e-95
307.60 1.326954e-95
307.70 1.326954e-95
307.80 1.326954e-95
307.90 1.326954e-95
308.00 1.326954e-95
308.10 1.326954e-95
308.20 1.326954e-95
308.30 1.326954e-95
308.40 1.326954e-95
308.50 1.326954e-95
308.60 1.326954e-95
308.70 1.326954e-95
308.80 1.326954e-95
308.90 1.326954e-95
309.00 1.326954e-95
309.10 1.326954e-95
309.20 1.326954e-95
309.30 1.326954e-95
309.40 1.326954e-95
309.50 1.326954e-95
309.60 1.326954e-95
309.70 1.326954e-95
309.80 1.326954e-95
309.90 1.326954e-95
310.00 1.326954e-95
310.10 1.326954e-95
310.20 1.326954e-95
310.30 1.326954e-95
310.40 1.326954e-95
310.50 1.326954e-95
310.60 1.326954e-95
310.70 1.326954e-95
310.80 1.326954e-95
310.90 1.326954e-95
311.00 1.326954e-95
311.10 1.326954e-95
311.20 1.326954e-95
311.30 1.326954e-95
311.40 1.326954e-95
311.50 1.326954e-95
311.60 1.326954e-95
311.70 1.326954e-95
311.80 1.326954e-95
311.90 1.326954e-95
312.00 1.326954e-95
312.10 1.326954e-95
312.20 1.326954e-95
312.30 1.326954e-95
312.40 1.326954e-95
312.50 1.326954e-95
312.60 1.326954e-95
312.70 1.326954e-95
312.80 1.326954e-95
312.90 1.326954e-95
313.00 1.326954e-95
313.10 1.326954e-95
313.20 1.326954e-95
313.30 1.326954e-95
313.40 1.326954e-95
313.50 1.326954e-95
313.60 1.326954e-95
313.70 1.326954e-95
313.80 1.326954e-95
313.90 1.326954e-95
314.00 1.326954e-95
314.10 1.326954e-95
314.20 1.326954e-95
314.30 1.326954e-95
314.40 1.326954e-95
314.50 1.326954e-95
314.60 1.326954e-95
314.70 1.326954e-95
314.80 1.326954e-95
314.90 1.326954e-95
315.00 1.326954e-95
315.10 1.326954e-95
315.20 1.326954e-95
315.30 1.326954e-95
315.40 1.326954e-95
315.50 1.326954e-95
315.60 1.326954e-95
315.70 1.326954e-95
315.80 1.326954e-95
315.90 1.326954e-95
316.00 1.326954e-95
316.10 1.326954e-95
316.20 1.326954e-95
316.30 1.326954e-95
316.40 1.326954e-95
316.50 1.326954e-95
316.60 1.326954e-95
316.70 1.326954e-95
316.80 1.326954e-95
316.90 1.326954e-95
317.00 1.326954e-95
317.10 1.326954e-95
317.20 1.326954e-95
317.30 1.326954e-95
317.40 1.326954e-95
317.50 1.326954e-95
317.60 1.326954e-95
317.70 1.326954e-95
317.80 1.326954e-95
317.90 1.326954e-95
318.00 1.326954e-95
318.10 1.326954e-95
318.20 1.326954e-95
318.30 1.326954e-95
318.40 1.326954e-95
318.50 1.326954e-95
318.60 1.326954e-95
318.70 1.326954e-95
318.80 1.326954e-95
318.90 1.326954e-95
319.00 1.326954e-95
319.10 1.326954e-95
319.20 1.326954e-95
319.30 1.326954e-95
319.40 1.326954e-95
319.50 1.326954e-95
319.60 1.326954e-95
319.70 1.326954e-95
319.80 1.326954e-95
319.90 1.326954e-95
320.00 1.326954e-95
320.10 1.326954e-95
320.20 1.326954e-95
320.30 1.326954e-95
320.40 1.326954e-95
320.50 1.326954e-95
320.60 1.326954e-95
320.70 1.326954e-95
320.80 1.326954e-95
320.90 1.326954e-95
321.00 1.326954e-95
321.10 1.326954e-95
321.20 1.326954e-95
321.30 1.326954e-95
321.40 1.326954e-95
321.50 1.326954e-95
321.60 1.326954e-95
321.70 1.326954e-95
321.80 1.326954e-95
321.90 1.326954e-95
322.00 1.326954e-95
322.10 1.326954e-95
322.20 1.326954e-95
322.30 1.326954e-95
322.40 1.326954e-95
322.50 1.326954e-95
322.60 1.326954e-95
322.70 1.326954e-95
322.80 1.326954e-95
322.90 1.326954e-95
323.00 1.326954e-95
323.10 1.326954e-95
323.20 1.326954e-95
323.30 1.326954e-95
323.40 1.326954e-95
323.50 1.326954e-95
323.60 1.326954e-95
323.70 1.326954e-95
323.80 1.326954e-95
323.90 1.326954e-95
324.00 1.326954e-95
324.10 1.326954e-95
324.20 1.326954e-95
324.30 1.326954e-95
324.40 1.326954e-95
324.50 1.326954e-95
324.60 1.326954e-95
324.70 1.326954e-95
324.80 1.326954e-95
324.90 1.326954e-95
325.00 1.326954e-95
325.10 1.326954e-95
325.20 1.326954e-95
325.30 1.326954e-95
325.40 1.326954e-95
325.50 1.326954e-95
325.60 1.326954e-95
325.70 1.326954e-95
325.80 1.326954e-95
325.90 1.326954e-95
326.00 1.326954e-95
326.10 1.326954e-95
326.20 1.326954e-95
326.30 1.326954e-95
326.40 1.326954e-95
326.50 1.326954e-95
326.60 1.326954e-95
326.70 1.326954e-95
326.80 1.326954e-95
326.90 1.326954e-95
327.00 1.326954e-95
327.10 1.326954e-95
327.20 1.326954e-95
327.30 1.326954e-95
327.40 1.326954e-95
327.50 1.326954e-95
327.60 1.326954e-95
327.70 1.326954e-95
327.80 1.326954e-95
327.90 1.326954e-95
328.00 1.326954e-95
328.10 1.326954e-95
328.20 1.326954e-95
328.30 1.326954e-95
328.40 1.326954e-95
328.50 1.326954e-95
328.60 1.326954e-95
328.70 1.326954e-95
328.80 1.326954e-95
328.90 1.326954e-95
329.00 1.326954e-95
329.10 1.326954e-95
329.20 1.326954e-95
329.30 1.326954e-95
329.40 1.326954e-95
329.50 1.326954e-95
329.60 1.326954e-95
329.70 1.326954e-95
329.80 1.326954e-95
329.90 1.326954e-95
330.00 1.326954e-95
330.10 1.326954e-95
330.20 1.326954e-95
330.30 1.326954e-95
330.40 1.326954e-95
330.50 1.326954e-95
330.60 1.326954e-95
330.70 1.326954e-95
330.80 1.326954e-95
330.90 1.326954e-95
331.00 1.326954e-95
331.10 1.326954e-95
331.20 1.326954e-95
331.30 1.326954e-95
331.40 1.326954e-95
331.50 1.326954e-95
331.60 1.326954e-95
331.70 1.326954e-95
331.80 1.326954e-95
331.90 1.326954e-95
332.00 1.326954e-95
332.10 1.326954e-95
332.20 1.326954e-95
332.30 1.326954e-95
332.40 1.326954e-95
332.50 1.326954e-95
332.60 1.326954e-95
332.70 1.326954e-95
332.80 1.326954e-95
332.90 1.326954e-95
333.00 1.326954e-95
333.10 1.326954e-95
333.20 1.326954e-95
333.30 1.326954e-95
333.40 1.326954e-95
333.50 1.326954e-95
333.60 1.326954e-95
333.70 1.326954e-95
333.80 1.326954e-95
333.90 1.326954e-95
334.00 1.326954e-95
334.10 1.326954e-95
334.20 1.326954e-95
334.30 1.326954e-95
334.40 1.326954e-95
334.50 1.326954e-95
334.60 1.326954e-95
334.70 1.326954e-95
334.80 1.326954e-95
334.90 1.326954e-95
335.00 1.326954e-95
335.10 1.326954e-95
335.20 1.326954e-95
335.30 1.326954e-95
335.40 1.326954e-95
335.50 1.326954e-95
335.60 1.326954e-95
335.70 1.326954e-95
335.80 1.326954e-95
335.90 1.326954e-95
336.00 1.326954e-95
336.10 1.326954e-95
336.20 1.326954e-95
336.30 1.326954e-95
336.40 1.326954e-95
336.50 1.326954e-95
336.60 1.326954e-95
336.70 1.326954e-95
336.80 1.326954e-95
336.90 1.326954e-95
337.00 1.326954e-95
337.10 1.326954e-95
337.20 1.326954e-95
337.30 1.326954e-95
337.40 1.326954e-95
337.50 1.326954e-95
337.60 1.326954e-95
337.70 1.326954e-95
337.80 1.326954e-95
337.90 1.326954e-95
338.00 1.326954e-95
338.10 1.326954e-95
338.20 1.326954e-95
338.30 1.326954e-95
338.40 1.326954e-95
338.50 1.326954e-95
338.60 1.326954e-95
338.70 1.326954e-95
338.80 1.326954e-95
338.90 1.326954e-95
339.00 1.326954e-95
339.10 1.326954e-95
339.20 1.326954e-95
339.30 1.326954e-95
339.40 1.326954e-95
339.50 1.326954e-95
339.60 1.326954e-95
339.70 1.326954e-95
339.80 1.326954e-95
339.90 1.326954e-95
340.00 1.326954e-95
340.10 1.326954e-95
340.20 1.326954e-95
340.30 1.326954e-95
340.40 1.326954e-95
340.50 1.326954e-95
340.60 1.326954e-95
340.70 1.326954e-95
340.80 1.326954e-95
340.90 1.326954e-95
341.00 1.326954e-95
341.10 1.326954e-95
341.20 1.326954e-95
341.30 1.326954e-95
341.40 1.326954e-95
341.50 1.326954e-95
341.60 1.326954e-95
341.70 1.326954e-95
341.80 1.326954e-95
341.90 1.326954e-95
342.00 1.326954e-95
342.10 1.326954e-95
342.20 1.326954e-95
342.30 1.326954e-95
342.40 1.326954e-95
342.50 1.326954e-95
342.60 1.326954e-95
342.70 1.326954e-95
342.80 1.326954e-95
342.90 1.326954e-95
343.00 1.326954e-95
343.10 1.326954e-95
343.20 1.326954e-95
343.30 1.326954e-95
343.40 1.326954e-95
343.50 1.326954e-95
343.60 1.326954e-95
343.70 1.326954e-95
343.80 1.326954e-95
343.90 1.326954e-95
344.00 1.326954e-95
344.10 1.326954e-95
344.20 1.326954e-95
344.30 1.326954e-95
344.40 1.326954e-95
344.50 1.326954e-95
344.60 1.326954e-95
344.70 1.326954e-95
344.80 1.326954e-95
344.90 1.326954e-95
345.00 1.326954e-95
345.10 1.326954e-95
345.20 1.326954e-95
345.30 1.326954e-95
345.40 1.326954e-95
345.50 1.326954e-95
345.60 1.326954e-95
345.70 1.326954e-95
345.80 1.326954e-95
345.90 1.326954e-95
346.00 1.326954e-95
346.10 1.326954e-95
346.20 1.326954e-95
346.30 1.326954e-95
346.40 1.326954e-95
346.50 1.326954e-95
346.60 1.326954e-95
346.70 1.326954e-95
346.80 1.326954e-95
346.90 1.326954e-95
347.00 1.326954e-95
347.10 1.326954e-95
347.20 1.326954e-95
347.30 1.326954e-95
347.40 1.326954e-95
347.50 1.326954e-95
347.60 1.326954e-95
347.70 1.326954e-95
347.80 1.326954e-95
347.90 1.326954e-95
348.00 1.326954e-95
348.10 1.326954e-95
348.20 1.326954e-95
348.30 1.326954e-95
348.40 1.326954e-95
348.50 1.326954e-95
348.60 1.326954e-95
348.70 1.326954e-95
348.80 1.326954e-95
348.90 1.326954e-95
349.00 1.326954e-95
349.10 1.326954e-95
349.20 1.326954e-95
349.30 1.326954e-95
349.40 1.326954e-95
349.50 1.326954e-95
349.60 1.326954e-95
349.70 1.326954e-95
349.80 1.326954e-95
349.90 1.326954e-95
350.00 1.326954e-95
350.10 1.326954e-95
350.20 1.326954e-95
350.30 1.326954e-95
350.40 1.326954e-95
350.50 1.326954e-95
350.60 1.326954e-95
350.70 1.326954e-95
350.80 1.326954e-95
350.90 1.326954e-95
351.00 1.326954e-95
351.10 1.326954e-95
351.20 1.326954e-95
351.30 1.326954e-95
351.40 1.326954e-95
351.50 1.326954e-95
351.60 1.326954e-95
351.70 1.326954e-95
351.80 1.326954e-95
351.90 1.326954e-95
352.00 1.326954e-95
352.10 1.326954e-95
352.20 1.326954e-95
352.30 1.326954e-95
352.40 1.326954e-95
352.50 1.326954e-95
352.60 1.326954e-95
352.70 1.326954e-95
352.80 1.326954e-95
352.90 1.326954e-95
353.00 1.326954e-95
353.10 1.326954e-95
353.20 1.326954e-95
353.30 1.326954e-95
353.40 1.326954e-95
353.50 1.326954e-95
353.60 1.326954e-95
353.70 1.326954e-95
353.80 1.326954e-95
353.90 1.326954e-95
354.00 1.326954e-95
354.10 1.326954e-95
354.20 1.326954e-95
354.30 1.326954e-95
354.40 1.326954e-95
354.50 1.326954e-95
354.60 1.326954e-95
354.70 1.326954e-95
354.80 1.326954e-95
354.90 1.326954e-95
355.00 1.326954e-95
355.10 1.326954e-95
355.20 1.326954e-95
355.30 1.326954e-95
355.40 1.326954e-95
355.50 1.326954e-95
355.60 1.326954e-95
355.70 1.326954e-95
355.80 1.326954e-95
355.90 1.326954e-95
356.00 1.326954e-95
356.10 1.326954e-95
356.20 1.326954e-95
356.30 1.326954e-95
356.40 1.326954e-95
356.50 1.326954e-95
356.60 1.326954e-95
356.70 1.326954e-95
356.80 1.326954e-95
356.90 1.326954e-95
357.00 1.326954e-95
357.10 1.326954e-95
357.20 1.326954e-95
357.30 1.326954e-95
357.40 1.326954e-95
357.50 1.326954e-95
357.60 1.326954e-95
357.70 1.326954e-95
357.80 1.326954e-95
357.90 1.326954e-95
358.00 1.326954e-95
358.10 1.326954e-95
358.20 1.326954e-95
358.30 1.326954e-95
358.40 1.326954e-95
358.50 1.326954e-95
358.60 1.326954e-95
358.70 1.326954e-95
358.80 1.326954e-95
358.90 1.326954e-95
359.00 1.326954e-95
359.10 1.326954e-95
359.20 1.326954e-95
359.30 1.326954e-95
359.40 1.326954e-95
359.50 1.326954e-95
359.60 1.326954e-95
359.70 1.326954e-95
359.80 1.326954e-95
359.90 1.326954e-95
360.00 1.326954e-95
360.10 1.326954e-95
360.20 1.326954e-95
360.30 1.326954e-95
360.40 1.326954e-95
360.50 1.326954e-95
360.60 1.326954e-95
360.70 1.326954e-95
360.80 1.326954e-95
360.90 1.326954e-95
361.00 1.326954e-95
361.10 1.326954e-95
361.20 1.326954e-95
361.30 1.326954e-95
361.40 1.326954e-95
361.50 1.326954e-95
361.60 1.326954e-95
361.70 1.326954e-95
361.80 1.326954e-95
361.90 1.326954e-95
362.00 1.326954e-95
362.10 1.326954e-95
362.20 1.326954e-95
362.30 1.326954e-95
362.40 1.326954e-95
362.50 1.326954e-95
362.60 1.326954e-95
362.70 1.326954e-95
362.80 1.326954e-95
362.90 1.326954e-95
363.00 1.326954e-95
363.10 1.326954e-95
363.20 1.326954e-95
363.30 1.326954e-95
363.40 1.326954e-95
363.50 1.326954e-95
363.60 1.326954e-95
363.70 1.326954e-95
363.80 1.326954e-95
363.90 1.326954e-95
364.00 1.326954e-95
364.10 1.326954e-95
364.20 1.326954e-95
364.30 1.326954e-95
364.40 1.326954e-95
364.50 1.326954e-95
364.60 1.326954e-95
364.70 1.326954e-95
364.80 1.326954e-95
364.90 1.326954e-95
365.00 1.326954e-95
365.10 1.326954e-95
365.20 1.326954e-95
365.30 1.326954e-95
365.40 1.326954e-95
365.50 1.326954e-95
365.60 1.326954e-95
365.70 1.326954e-95
365.80 1.326954e-95
365.90 1.326954e-95
366.00 1.326954e-95
366.10 1.326954e-95
366.20 1.326954e-95
366.30 1.326954e-95
366.40 1.326954e-95
366.50 1.326954e-95
366.60 1.326954e-95
366.70 1.326954e-95
366.80 1.326954e-95
366.90 1.326954e-95
367.00 1.326954e-95
367.10 1.326954e-95
367.20 1.326954e-95
367.30 1.326954e-95
367.40 1.326954e-95
367.50 1.326954e-95
367.60 1.326954e-95
367.70 1.326954e-95
367.80 1.326954e-95
367.90 1.326954e-95
368.00 1.326954e-95
368.10 1.326954e-95
368.20 1.326954e-95
368.30 1.326954e-95
368.40 1.326954e-95
368.50 1.326954e-95
368.60 1.326954e-95
368.70 1.326954e-95
368.80 1.326954e-95
368.90 1.326954e-95
369.00 1.326954e-95
369.10 1.326954e-95
369.20 1.326954e-95
369.30 1.326954e-95
369.40 1.326954e-95
369.50 1.326954e-95
369.60 1.326954e-95
369.70 1.326954e-95
369.80 1.326954e-95
369.90 1.326954e-95
370.00 1.326954e-95
370.10 1.326954e-95
370.20 1.326954e-95
370.30 1.326954e-95
370.40 1.326954e-95
370.50 1.326954e-95
370.60 1.326954e-95
370.70 1.326954e-95
370.80 1.326954e-95
370.90 1.326954e-95
371.00 1.326954e-95
371.10 1.326954e-95
371.20 1.326954e-95
371.30 1.326954e-95
371.40 1.326954e-95
371.50 1.326954e-95
371.60 1.326954e-95
371.70 1.326954e-95
371.80 1.326954e-95
371.90 1.326954e-95
372.00 1.326954e-95
372.10 1.326954e-95
372.20 1.326954e-95
372.30 1.326954e-95
372.40 1.326954e-95
372.50 1.326954e-95
372.60 1.326954e-95
372.70 1.326954e-95
372.80 1.326954e-95
372.90 1.326954e-95
373.00 1.326954e-95
373.10 1.326954e-95
373.20 1.326954e-95
373.30 1.326954e-95
373.40 1.326954e-95
373.50 1.326954e-95
373.60 1.326954e-95
373.70 1.326954e-95
373.80 1.326954e-95
373.90 1.326954e-95
374.00 1.326954e-95
374.10 1.326954e-95
374.20 1.326954e-95
374.30 1.326954e-95
374.40 1.326954e-95
374.50 1.326954e-95
374.60 1.326954e-95
374.70 1.326954e-95
374.80 1.326954e-95
374.90 1.326954e-95
375.00 1.326954e-95
375.10 1.326954e-95
375.20 1.326954e-95
375.30 1.326954e-95
375.40 1.326954e-95
375.50 1.326954e-95
375.60 1.326954e-95
375.70 1.326954e-95
375.80 1.326954e-95
375.90 1.326954e-95
376.00 1.326954e-95
376.10 1.326954e-95
376.20 1.326954e-95
376.30 1.326954e-95
376.40 1.326954e-95
376.50 1.326954e-95
376.60 1.326954e-95
376.70 1.326954e-95
376.80 1.326954e-95
376.90 1.326954e-95
377.00 1.326954e-95
377.10 1.326954e-95
377.20 1.326954e-95
377.30 1.326954e-95
377.40 1.326954e-95
377.50 1.326954e-95
377.60 1.326954e-95
377.70 1.326954e-95
377.80 1.326954e-95
377.90 1.326954e-95
378.00 1.326954e-95
378.10 1.326954e-95
378.20 1.326954e-95
378.30 1.326954e-95
378.40 1.326954e-95
378.50 1.326954e-95
378.60 1.326954e-95
378.70 1.326954e-95
378.80 1.326954e-95
378.90 1.326954e-95
379.00 1.326954e-95
379.10 1.326954e-95
379.20 1.326954e-95
379.30 1.326954e-95
379.40 1.326954e-95
379.50 1.326954e-95
379.60 1.326954e-95
379.70 1.326954e-95
379.80 1.326954e-95
379.90 1.326954e-95
380.00 1.326954e-95
380.10 1.326954e-95
380.20 1.326954e-95
380.30 1.326954e-95
380.40 1.326954e-95
380.50 1.326954e-95
380.60 1.326954e-95
380.70 1.326954e-95
380.80 1.326954e-95
380.90 1.326954e-95
381.00 1.326954e-95
381.10 1.326954e-95
381.20 1.326954e-95
381.30 1.326954e-95
381.40 1.326954e-95
381.50 1.326954e-95
381.60 1.326954e-95
381.70 1.326954e-95
381.80 1.326954e-95
381.90 1.326954e-95
382.00 1.326954e-95
382.10 1.326954e-95
382.20 1.326954e-95
382.30 1.326954e-95
382.40 1.326954e-95
382.50 1.326954e-95
382.60 1.326954e-95
382.70 1.326954e-95
382.80 1.326954e-95
382.90 1.326954e-95
383.00 1.326954e-95
383.10 1.326954e-95
383.20 1.326954e-95
383.30 1.326954e-95
383.40 1.326954e-95
383.50 1.326954e-95
383.60 1.326954e-95
383.70 1.326954e-95
383.80 1.326954e-95
383.90 1.326954e-95
384.00 1.326954e-95
384.10 1.326954e-95
384.20 1.326954e-95
384.30 1.326954e-95
384.40 1.326954e-95
384.50 1.326954e-95
384.60 1.326954e-95
384.70 1.326954e-95
384.80 1.326954e-95
384.90 1.326954e-95
385.00 1.326954e-95
385.10 1.326954e-95
385.20 1.326954e-95
385.30 1.326954e-95
385.40 1.326954e-95
385.50 1.326954e-95
385.60 1.326954e-95
385.70 1.326954e-95
385.80 1.326954e-95
385.90 1.326954e-95
386.00 1.326954e-95
386.10 1.326954e-95
386.20 1.326954e-95
386.30 1.326954e-95
386.40 1.326954e-95
386.50 1.326954e-95
386.60 1.326954e-95
386.70 1.326954e-95
386.80 1.326954e-95
386.90 1.326954e-95
387.00 1.326954e-95
387.10 1.326954e-95
387.20 1.326954e-95
387.30 1.326954e-95
387.40 1.326954e-95
387.50 1.326954e-95
387.60 1.326954e-95
387.70 1.326954e-95
387.80 1.326954e-95
387.90 1.326954e-95
388.00 1.326954e-95
388.10 1.326954e-95
388.20 1.326954e-95
388.30 1.326954e-95
388.40 1.326954e-95
388.50 1.326954e-95
388.60 1.326954e-95
388.70 1.326954e-95
388.80 1.326954e-95
388.90 1.326954e-95
389.00 1.326954e-95
389.10 1.326954e-95
389.20 1.326954e-95
389.30 1.326954e-95
389.40 1.326954e-95
389.50 1.326954e-95
389.60 1.326954e-95
389.70 1.326954e-95
389.80 1.326954e-95
389.90 1.326954e-95
390.00 1.326954e-95
390.10 1.326954e-95
390.20 1.326954e-95
390.30 1.326954e-95
390.40 1.326954e-95
390.50 1.326954e-95
390.60 1.326954e-95
390.70 1.326954e-95
390.80 1.326954e-95
390.90 1.326954e-95
391.00 1.326954e-95
391.10 1.326954e-95
391.20 1.326954e-95
391.30 1.326954e-95
391.40 1.326954e-95
391.50 1.326954e-95
391.60 1.326954e-95
391.70 1.326954e-95
391.80 1.326954e-95
391.90 1.326954e-95
392.00 1.326954e-95
392.10 1.326954e-95
392.20 1.326954e-95
392.30 1.326954e-95
392.40 1.326954e-95
392.50 1.326954e-95
392.60 1.326954e-95
392.70 1.326954e-95
392.80 1.326954e-95
392.90 1.326954e-95
393.00 1.326954e-95
393.10 1.326954e-95
393.20 1.326954e-95
393.30 1.326954e-95
393.40 1.326954e-95
393.50 1.326954e-95
393.60 1.326954e-95
393.70 1.326954e-95
393.80 1.326954e-95
393.90 1.326954e-95
394.00 1.326954e-95
394.10 1.326954e-95
394.20 1.326954e-95
394.30 1.326954e-95
394.40 1.326954e-95
394.50 1.326954e-95
394.60 1.326954e-95
394.70 1.326954e-95
394.80 1.326954e-95
394.90 1.326954e-95
395.00 0.007200058
395.10 0.01367872
395.20 0.01976569
395.30 0.02582633
395.40 0.03220027
395.50 0.03919409
395.60 0.04695793
395.70 0.05540334
395.80 0.06428628
395.90 0.07352165
396.00 0.08340643
396.10 0.09427911
396.20 0.1061813
396.30 0.1187556
396.40 0.1313126
396.50 0.142946
396.60 0.1527065
396.70 0.1598518
396.80 0.163973
396.90 0.1650877
397.00 0.1650877
397.10 0.1650877
397.20 0.1650877
397.30 0.1650877
397.40 0.1660318
397.50 0.1687383
397.60 0.1729454
397.70 0.178043
397.80 0.1833524
397.90 0.1883622
398.00 0.1927496
398.10 0.1964407
398.20 0.1997806
398.30 0.2034562
398.40 0.2080694
398.50 0.2139168
398.60 0.2209139
398.70 0.228536
398.80 0.2359901
398.90 0.2425353
399.00 0.2476397
399.10 0.251141
399.20 0.2532921
399.30 0.2545549
399.40 0.2554357
399.50 0.2564336
399.60 0.2579046
399.70 0.2598487
399.80 0.2619585
399.90 0.2636873
400.00 0.2646158
400.10 0.2648236
400.20 0.2648236
400.30 0.2648236
400.40 0.2653499
400.50 0.266962
400.60 0.2698841
400.70 0.2741378
400.80 0.279632
400.90 0.2860209
401.00 0.2927273
401.10 0.2991506
401.20 0.3048597
401.30 0.309716
401.40 0.3134998
401.50 0.3157892
401.60 0.3163576
401.70 0.3163576
401.80 0.3163576
401.90 0.3163576
402.00 0.3163576
402.10 0.3163576
402.20 0.3175542
402.30 0.3212391
402.40 0.3273745
402.50 0.3354507
402.60 0.3446178
402.70 0.3539106
402.80 0.3628067
402.90 0.3713777
403.00 0.3796747
403.10 0.3873189
403.20 0.3937642
403.30 0.3987391
403.40 0.4022603
403.50 0.4044678
403.60 0.4054149
403.70 0.4054149
403.80 0.4054149
403.90 0.4054149
404.00 0.4057892
404.10 0.4078623
404.20 0.4118283
404.30 0.4174354
404.40 0.424256
404.50 0.4318897
404.60 0.4399169
404.70 0.4478066
404.80 0.455119
404.90 0.4615857
405.00 0.4599013
405.10 0.4582617
405.20 0.456979
405.30 0.4563507
405.40 0.4563815
405.50 0.4568881
405.60 0.4577848
405.70 0.4589339
405.80 0.4600636
405.90 0.460693
406.00 0.4600275
406.10 0.4573414
406.20 0.4523367
406.30 0.4454853
406.40 0.437977
406.50 0.4312193
406.60 0.4264461
406.70 0.4246619
406.80 0.4265496
406.90 0.4320441
407.00 0.4388492
407.10 0.4453304
407.20 0.4510363
407.30 0.4557022
407.40 0.4582839
407.50 0.4579461
407.60 0.4550629
407.70 0.4504459
407.80 0.4451364
407.90 0.4401267
408.00 0.4357393
408.10 0.4320481
408.20 0.4287083
408.30 0.4250326
408.40 0.4207612
408.50 0.4166404
408.60 0.4127949
408.70 0.4092264
408.80 0.4059205
408.90 0.4028213
409.00 0.3997715
409.10 0.3964033
409.20 0.3942523
409.30 0.3929894
409.40 0.3921086
409.50 0.3911108
409.60 0.3896397
409.70 0.3882593
409.80 0.3890218
409.90 0.3921094
410.00 0.3972638
410.10 0.4037473
410.20 0.4106028
410.30 0.4173496
410.40 0.423381
410.50 0.42835
410.60 0.4322621
410.70 0.4351114
410.80 0.4368196
410.90 0.4373747
411.00 0.4369297
411.10 0.4356728
411.20 0.4338435
411.30 0.4319897
411.40 0.4312763
411.50 0.4330864
411.60 0.4382446
411.70 0.4458396
411.80 0.4552917
411.90 0.4662417
412.00 0.4782489
412.10 0.4910072
412.20 0.5030604
412.30 0.5129806
412.40 0.5207075
412.50 0.5265719
412.60 0.5310775
412.70 0.5345631
412.80 0.5368454
412.90 0.5373571
413.00 0.5359058
413.10 0.533132
413.20 0.5301996
413.30 0.5281672
413.40 0.527625
413.50 0.5287774
413.60 0.5317369
413.70 0.5362691
413.80 0.5414494
413.90 0.5471909
414.00 0.5528933
414.10 0.5569064
414.20 0.5587224
414.30 0.5582663
414.40 0.5556716
414.50 0.5512262
414.60 0.5452288
414.70 0.5382128
414.80 0.5309443
414.90 0.5244776
415.00 0.518986
415.10 0.5148726
415.20 0.5117759
415.30 0.5092334
415.40 0.5068488
415.50 0.5040905
415.60 0.5002943
415.70 0.495203
415.80 0.4890738
415.90 0.4825183
416.00 0.4763845
416.10 0.4713643
416.20 0.4678641
416.30 0.4657933
416.40 0.4644174
416.50 0.4627987
416.60 0.4601191
416.70 0.4556622
416.80 0.4496534
416.90 0.4430442
417.00 0.436239
417.10 0.4297578
417.20 0.4256414
417.30 0.4249393
417.40 0.4274651
417.50 0.4326439
417.60 0.4394869
417.70 0.4466948
417.80 0.4530599
417.90 0.4578167
418.00 0.4612167
418.10 0.4638783
418.20 0.4665908
418.30 0.4700388
418.40 0.4742302
418.50 0.4782295
418.60 0.4818942
418.70 0.4854322
418.80 0.4892432
418.90 0.4937248
419.00 0.4992346
419.10 0.5060685
419.20 0.5122352
419.30 0.5173244
419.40 0.52111
419.50 0.523646
419.60 0.52523
419.70 0.5258285
419.80 0.5244425
419.90 0.5220468
420.00 0.5196089
420.10 0.5178287
420.20 0.517078
420.30 0.5173984
420.40 0.5184575
420.50 0.5195967
420.60 0.5202895
420.70 0.520694
420.80 0.5214508
420.90 0.5232828
421.00 0.5268055
421.10 0.5321424
421.20 0.5386898
421.30 0.5452947
421.40 0.5507571
421.50 0.5543471
421.60 0.5558051
421.70 0.5552495
421.80 0.5530839
421.90 0.5500316
422.00 0.5467664
422.10 0.543357
422.20 0.5394948
422.30 0.5347966
422.40 0.5289212
422.50 0.5219161
422.60 0.5143854
422.70 0.5073895
422.80 0.5019773
422.90 0.4987659
423.00 0.4979328
423.10 0.4992421
423.20 0.5020774
423.30 0.5054727
423.40 0.5084108
423.50 0.5101599
423.60 0.5102424
423.70 0.5083432
423.80 0.5044319
423.90 0.4988513
424.00 0.4927746
424.10 0.4866884
424.20 0.4812617
424.30 0.4776002
424.40 0.4761699
424.50 0.4769899
424.60 0.4799807
424.70 0.4849034
424.80 0.4911882
424.90 0.4978603
425.00 0.5046788
425.10 0.510744
425.20 0.5154793
425.30 0.5184954
425.40 0.5198208
425.50 0.5198684
425.60 0.5193857
425.70 0.5191986
425.80 0.5197474
425.90 0.5207965
426.00 0.5216415
426.10 0.521732
426.20 0.5208832
426.30 0.5192202
426.40 0.51728
426.50 0.5158851
426.60 0.5159105
426.70 0.5179971
426.80 0.5216232
426.90 0.525678
427.00 0.5298359
427.10 0.5337649
427.20 0.5357145
427.30 0.534961
427.40 0.5318941
427.50 0.5271193
427.60 0.5215378
427.70 0.5162873
427.80 0.5122675
427.90 0.5098263
428.00 0.5087848
428.10 0.508555
428.20 0.508317
428.30 0.5074813
428.40 0.5057517
428.50 0.5028477
428.60 0.4986458
428.70 0.4933802
428.80 0.4875885
428.90 0.4819964
429.00 0.4771663
429.10 0.4732946
429.20 0.4703937
429.30 0.4684636
429.40 0.4675333
429.50 0.4674574
429.60 0.4678266
429.70 0.4679202
429.80 0.466909
429.90 0.4644881
430.00 0.4608432
430.10 0.4563722
430.20 0.4517778
430.30 0.4473909
430.40 0.4432498
430.50 0.4393224
430.60 0.4353767
430.70 0.4307909
430.80 0.4247846
430.90 0.4168844
431.00 0.4071262
431.10 0.3966229
431.20 0.3863045
431.30 0.3776945
431.40 0.3713045
431.50 0.36689
431.60 0.3637411
431.70 0.3610515
431.80 0.3580722
431.90 0.354065
432.00 0.3484922
432.10 0.3414168
432.20 0.3335271
432.30 0.3256647
432.40 0.3186676
432.50 0.3130718
432.60 0.3089822
432.70 0.3062033
432.80 0.3043529
432.90 0.3029876
433.00 0.3016059
433.10 0.2997489
433.20 0.2972288
433.30 0.2942631
433.40 0.2914087
433.50 0.2892111
433.60 0.2880614
433.70 0.2882771
433.80 0.2898535
433.90 0.292273
434.00 0.2941838
434.10 0.2950773
434.20 0.294722
434.30 0.2932324
434.40 0.2904369
434.50 0.2864285
434.60 0.2814081
434.70 0.2764842
434.80 0.2719294
434.90 0.26755
435.00 0.2629567
435.10 0.2577849
435.20 0.2520175
435.30 0.2461116
435.40 0.240766
435.50 0.2366708
435.60 0.2344751
435.70 0.2338585
435.80 0.2341579
435.90 0.2348006
436.00 0.2353533
436.10 0.2354951
436.20 0.2349317
436.30 0.2333835
436.40 0.231651
436.50 0.2297888
436.60 0.2274557
436.70 0.224465
436.80 0.2208389
436.90 0.216784
437.00 0.2126261
437.10 0.2086972
437.20 0.2057168
437.30 0.2037582
437.40 0.2021354
437.50 0.2002095
437.60 0.1976241
437.70 0.1951862
437.80 0.1928409
437.90 0.1905252
438.00 0.1881667
438.10 0.1863883
438.20 0.1864509
438.30 0.1884799
438.40 0.1923549
438.50 0.1979021
438.60 0.2048232
438.70 0.2127153
438.80 0.2211221
438.90 0.2293024
439.00 0.2365065
439.10 0.2423894
439.20 0.2469918
439.30 0.2505733
439.40 0.2533469
439.50 0.2555192
439.60 0.2574421
439.70 0.2595776
439.80 0.2622257
439.90 0.2652354
440.00 0.2682994
440.10 0.2710699
440.20 0.2729253
440.30 0.2738511
440.40 0.2744853
440.50 0.2756605
440.60 0.2780799
440.70 0.2821553
440.80 0.2880785
440.90 0.2957717
441.00 0.3047575
441.10 0.3138637
441.20 0.3226495
441.30 0.3302869
441.40 0.3366374
441.50 0.3419322
441.60 0.3467778
441.70 0.3516448
441.80 0.3566521
441.90 0.3617851
442.00 0.3670179
442.10 0.3723932
442.20 0.3778959
442.30 0.3834604
442.40 0.3888478
442.50 0.3937761
442.60 0.3980576
442.70 0.4016055
442.80 0.4045487
442.90 0.4071487
443.00 0.4097473
443.10 0.4127875
443.20 0.416512
443.30 0.4208217
443.40 0.4254642
443.50 0.430155
443.60 0.4345722
443.70 0.4383715
443.80 0.4415751
443.90 0.4446711
444.00 0.4482582
444.10 0.4526879
444.20 0.457575
444.30 0.4616959
444.40 0.4647859
444.50 0.4665755
444.60 0.4669194
444.70 0.4660469
444.80 0.4642729
444.90 0.4619803
445.00 0.4597309
445.10 0.458112
445.20 0.4587704
445.30 0.4619326
445.40 0.4667834
445.50 0.4722617
445.60 0.4772406
445.70 0.4814109
445.80 0.4849838
445.90 0.4885959
446.00 0.4930064
446.10 0.4986672
446.20 0.5057222
446.30 0.5141227
446.40 0.5225353
446.50 0.5301485
446.60 0.5364638
446.70 0.5411615
446.80 0.5444701
446.90 0.5469269
447.00 0.5489524
447.10 0.5509155
447.20 0.5525633
447.30 0.5539587
447.40 0.5557934
447.50 0.5587802
447.60 0.5633855
447.70 0.5687506
447.80 0.5747921
447.90 0.5815335
448.00 0.5890413
448.10 0.5964778
448.20 0.6020661
448.30 0.6052121
448.40 0.6060322
448.50 0.605055
448.60 0.6029762
448.70 0.6004357
448.80 0.5978918
448.90 0.5957656
449.00 0.5943373
449.10 0.5936923
449.20 0.5938101
449.30 0.594612
449.40 0.5960783
449.50 0.5983131
449.60 0.6013344
449.70 0.6048456
449.80 0.6084843
449.90 0.6121334
450.00 0.6159066
450.10 0.6200829
450.20 0.6249663
450.30 0.6306411
450.40 0.6368813
450.50 0.6433023
450.60 0.6494836
450.70 0.6550577
450.80 0.6598594
450.90 0.6640082
451.00 0.6679708
451.10 0.6725055
451.20 0.6782033
451.30 0.6851097
451.40 0.6927843
451.50 0.7005318
451.60 0.7076429
451.70 0.7137115
451.80 0.7187748
451.90 0.7231621
452.00 0.7273195
452.10 0.731639
452.20 0.7363251
452.30 0.7415177
452.40 0.7474718
452.50 0.7543075
452.60 0.7618651
452.70 0.7697961
452.80 0.7776247
452.90 0.7848158
453.00 0.7908335
453.10 0.7951617
453.20 0.7974176
453.30 0.797597
453.40 0.7961125
453.50 0.7938289
453.60 0.791988
453.70 0.7917064
453.80 0.7934736
453.90 0.7972977
454.00 0.8029958
454.10 0.8102953
454.20 0.8190188
454.30 0.8290801
454.40 0.8402997
454.50 0.8524107
454.60 0.8651402
454.70 0.8771975
454.80 0.8881708
454.90 0.8979799
455.00 0.9065511
455.10 0.91394
455.20 0.9189251
455.30 0.9212664
455.40 0.9216236
455.50 0.9209304
455.60 0.9198014
455.70 0.9184438
455.80 0.9168779
455.90 0.9149901
456.00 0.9125762
456.10 0.9095124
456.20 0.9059237
456.30 0.9021777
456.40 0.8987771
456.50 0.8963382
456.60 0.8956389
456.70 0.8971988
456.80 0.9007328
456.90 0.9053879
457.00 0.9104177
457.10 0.9154159
457.20 0.9203677
457.30 0.9254632
457.40 0.9309337
457.50 0.9369697
457.60 0.9434838
457.70 0.9502425
457.80 0.9569886
457.90 0.9633503
458.00 0.9688721
458.10 0.9733148
458.20 0.9768669
458.30 0.9799086
458.40 0.9828011
458.50 0.9857861
458.60 0.9888551
458.70 0.9918307
458.80 0.9943767
458.90 0.9961547
459.00 0.9971149
459.10 0.9973629
459.20 0.9969823
459.30 0.9961852
459.40 0.9953996
459.50 0.9950415
459.60 0.9954899
459.70 0.9971825
459.80 1.000409
459.90 1.005069
460.00 1.010716
460.10 1.016719
460.20 1.022568
460.30 1.028031
460.40 1.032817
460.50 1.036489
460.60 1.038883
460.70 1.040115
460.80 1.040317
460.90 1.039569
461.00 1.037838
461.10 1.035077
461.20 1.031562
461.30 1.027985
461.40 1.025191
461.50 1.023891
461.60 1.024402
461.70 1.026407
461.80 1.029246
461.90 1.03237
462.00 1.035338
462.10 1.037861
462.20 1.039802
462.30 1.041016
462.40 1.041349
462.50 1.040761
462.60 1.039221
462.70 1.036506
462.80 1.032389
462.90 1.026999
463.00 1.020909
463.10 1.015094
463.20 1.010758
463.30 1.008918
463.40 1.010116
463.50 1.014062
463.60 1.019684
463.70 1.025624
463.80 1.030623
463.90 1.033646
464.00 1.033956
464.10 1.031463
464.20 1.026661
464.30 1.020216
464.40 1.012819
464.50 1.005225
464.60 0.9981692
464.70 0.9921306
464.80 0.9872913
464.90 0.9837922
465.00 0.9816999
465.10 0.9808917
465.20 0.9811673
465.30 0.9821199
465.40 0.9831862
465.50 0.9839908
465.60 0.9845495
465.70 0.9852235
465.80 0.9865713
465.90 0.989042
466.00 0.9928247
466.10 0.9978509
466.20 1.003681
466.30 1.009632
466.40 1.015124
466.50 1.019891
466.60 1.023883
466.70 1.027308
466.80 1.030572
466.90 1.034168
467.00 1.03853
467.10 1.043627
467.20 1.048922
467.30 1.053747
467.40 1.057504
467.50 1.059822
467.60 1.060599
467.70 1.059827
467.80 1.057484
467.90 1.053578
468.00 1.048335
468.10 1.042264
468.20 1.036061
468.30 1.03011
468.40 1.024299
468.50 1.01866
468.60 1.0135
468.70 1.009053
468.80 1.005486
468.90 1.002913
469.00 1.001472
469.10 1.00138
469.20 1.002809
469.30 1.005737
469.40 1.009755
469.50 1.014237
469.60 1.018656
469.70 1.022648
469.80 1.026017
469.90 1.028642
470.00 1.030424
470.10 1.031352
470.20 1.031314
470.30 1.030039
470.40 1.027479
470.50 1.023964
470.60 1.019926
470.70 1.015811
470.80 1.01205
470.90 1.008815
471.00 1.005876
471.10 1.002779
471.20 0.9989784
471.30 0.9938909
471.40 0.9871432
471.50 0.9786747
471.60 0.9688035
471.70 0.9583442
471.80 0.9481671
471.90 0.9387122
472.00 0.930106
472.10 0.9222024
472.20 0.9147145
472.30 0.9074899
472.40 0.9005657
472.50 0.8940967
472.60 0.888382
472.70 0.8839719
472.80 0.8814656
472.90 0.8811567
473.00 0.8828101
473.10 0.885581
473.20 0.8883574
473.30 0.8902002
473.40 0.8903511
473.50 0.888335
473.60 0.8841231
473.70 0.8781194
473.80 0.8710776
473.90 0.8639097
474.00 0.8575109
474.10 0.8524978
474.20 0.8490554
474.30 0.8470978
474.40 0.8465635
474.50 0.8473809
474.60 0.8491397
474.70 0.8512883
474.80 0.85356
474.90 0.8558778
475.00 0.8583303
475.10 0.8611066
475.20 0.8642024
475.30 0.8674828
475.40 0.8706607
475.50 0.8731661
475.60 0.8743868
475.70 0.8739189
475.80 0.8715714
475.90 0.8674889
476.00 0.8621268
476.10 0.8560501
476.20 0.8498921
476.30 0.8443347
476.40 0.8398459
476.50 0.8364275
476.60 0.8337661
476.70 0.8314238
476.80 0.8290149
476.90 0.8262266
477.00 0.8226766
477.10 0.8180925
477.20 0.8124096
477.30 0.8056828
477.40 0.7981641
477.50 0.790235
477.60 0.7823481
477.70 0.7750917
477.80 0.7691238
477.90 0.7652674
478.00 0.7643238
478.10 0.7665555
478.20 0.771521
478.30 0.7783652
478.40 0.7861137
478.50 0.7936585
478.60 0.7999385
478.70 0.8042183
478.80 0.8062778
478.90 0.8063713
479.00 0.8048522
479.10 0.8020834
479.20 0.798465
479.30 0.7940796
479.40 0.7886173
479.50 0.7817109
479.60 0.7731166
479.70 0.7628437
479.80 0.7511442
479.90 0.7384469
480.00 0.7252663
480.10 0.7121274
480.20 0.6996035
480.30 0.6883741
480.40 0.6791668
480.50 0.6724222
480.60 0.6683004
480.70 0.6668412
480.80 0.6679957
480.90 0.6716597
481.00 0.6776055
481.10 0.685386
481.20 0.6943655
481.30 0.7038966
481.40 0.7134239
481.50 0.7224592
481.60 0.7305164
481.70 0.737177
481.80 0.7422892
481.90 0.7461511
482.00 0.7492893
482.10 0.7522505
482.20 0.755546
482.30 0.7594786
482.40 0.7641769
482.50 0.7696242
482.60 0.7756139
482.70 0.7817027
482.80 0.787389
482.90 0.7924208
483.00 0.7968468
483.10 0.8007919
483.20 0.8042688
483.30 0.807248
483.40 0.8098234
483.50 0.8122481
483.60 0.8148053
483.70 0.8178028
483.80 0.8213869
483.90 0.8254831
484.00 0.8299657
484.10 0.8346446
484.20 0.8392275
484.30 0.8433129
484.40 0.8463697
484.50 0.8480116
484.60 0.848323
484.70 0.8475875
484.80 0.845942
484.90 0.8435879
485.00 0.8408035
485.10 0.8377943
485.20 0.8350056
485.30 0.8331311
485.40 0.832815
485.50 0.8345571
485.60 0.8386423
485.70 0.8449674
485.80 0.8530344
485.90 0.8620809
486.00 0.8712568
486.10 0.8798659
486.20 0.8873491
486.30 0.8931733
486.40 0.8970521
486.50 0.8991311
486.60 0.899792
486.70 0.8994538
486.80 0.8986351
486.90 0.8979108
487.00 0.89782
487.10 0.8989326
487.20 0.901758
487.30 0.9064566
487.40 0.9126774
487.50 0.9197447
487.60 0.9270255
487.70 0.9340704
487.80 0.9405698
487.90 0.9460529
488.00 0.9498635
488.10 0.9517057
488.20 0.9517775
488.30 0.9506631
488.40 0.9491968
488.50 0.9480952
488.60 0.9478813
488.70 0.9489302
488.80 0.9513678
488.90 0.9550591
489.00 0.9596488
489.10 0.964536
489.20 0.9689947
489.30 0.9726896
489.40 0.9760376
489.50 0.9796777
489.60 0.9839495
489.70 0.9890292
489.80 0.9949674
489.90 1.001626
490.00 1.008662
490.10 1.015777
490.20 1.022797
490.30 1.029408
490.40 1.035206
490.50 1.03989
490.60 1.043251
490.70 1.045059
490.80 1.044832
490.90 1.041995
491.00 1.036317
491.10 1.027861
491.20 1.016906
491.30 1.00399
491.40 0.989933
491.50 0.9756375
491.60 0.961972
491.70 0.9498313
491.80 0.9400035
491.90 0.9329148
492.00 0.9285201
492.10 0.9263483
492.20 0.9255971
492.30 0.9252645
492.40 0.9242023
492.50 0.9214277
492.60 0.9165728
492.70 0.9100349
492.80 0.9027106
492.90 0.8955251
493.00 0.889226
493.10 0.8843783
493.20 0.8812161
493.30 0.8795906
493.40 0.8791143
493.50 0.8792917
493.60 0.8796264
493.70 0.8797479
493.80 0.8796945
493.90 0.8798872
494.00 0.8807952
494.10 0.8827564
494.20 0.8858651
494.30 0.8900178
494.40 0.8950206
494.50 0.9004925
494.60 0.9058989
494.70 0.9107831
494.80 0.9148288
494.90 0.9177708
495.00 0.9195816
495.10 0.9205864
495.20 0.921193
495.30 0.9216042
495.40 0.921761
495.50 0.9214951
495.60 0.9206685
495.70 0.9193088
495.80 0.9176614
495.90 0.9160268
496.00 0.9146204
496.10 0.913607
496.20 0.9133323
496.30 0.9142915
496.40 0.9167624
496.50 0.9207744
496.60 0.9261843
496.70 0.9326782
496.80 0.9397643
496.90 0.9468849
497.00 0.9535494
497.10 0.9591989
497.20 0.9631749
497.30 0.965118
497.40 0.9652373
497.50 0.9641089
497.60 0.9623442
497.70 0.96051
497.80 0.959204
497.90 0.9589144
498.00 0.9598872
498.10 0.9620345
498.20 0.9649293
498.30 0.9678692
498.40 0.9701388
498.50 0.971477
498.60 0.9720968
498.70 0.9724238
498.80 0.9728628
498.90 0.9737256
499.00 0.9752331
499.10 0.9774852
499.20 0.9805061
499.30 0.9842387
499.40 0.9883302
499.50 0.9923024
499.60 0.9958228
499.70 0.9985953
499.80 1.000321
499.90 1.000772
500.00 1
500.10 0.9981729
500.20 0.9955375
500.30 0.9925329
500.40 0.9896346
500.50 0.9873192
500.60 0.985926
500.70 0.9855636
500.80 0.9863546
500.90 0.9885127
501.00 0.9922715
501.10 0.9979598
501.20 1.005899
501.30 1.016094
501.40 1.028067
501.50 1.041145
501.60 1.0546
501.70 1.067558
501.80 1.079137
501.90 1.088578
502.00 1.095491
502.10 1.100018
502.20 1.102738
502.30 1.104433
502.40 1.105977
502.50 1.108123
502.60 1.111199
502.70 1.115093
502.80 1.119302
502.90 1.123188
503.00 1.126209
503.10 1.128008
503.20 1.128616
503.30 1.128453
503.40 1.128091
503.50 1.128113
503.60 1.129064
503.70 1.131307
503.80 1.134785
503.90 1.138954
504.00 1.143021
504.10 1.146184
504.20 1.147928
504.30 1.14804
504.40 1.146573
504.50 1.143996
504.60 1.14111
504.70 1.138827
504.80 1.137937
504.90 1.138837
505.00 1.141309
505.10 1.14462
505.20 1.147744
505.30 1.149687
505.40 1.149789
505.50 1.147782
505.60 1.143761
505.70 1.138177
505.80 1.131715
505.90 1.125152
506.00 1.119223
506.10 1.114458
506.20 1.111089
506.30 1.108992
506.40 1.107848
506.50 1.107216
506.60 1.106661
506.70 1.105904
506.80 1.104812
506.90 1.103448
507.00 1.10211
507.10 1.101246
507.20 1.101266
507.30 1.102301
507.40 1.104067
507.50 1.106026
507.60 1.107609
507.70 1.108428
507.80 1.108311
507.90 1.107407
508.00 1.106215
508.10 1.10529
508.20 1.105224
508.30 1.106601
508.40 1.109535
508.50 1.113446
508.60 1.11746
508.70 1.120885
508.80 1.123408
508.90 1.1251
509.00 1.126348
509.10 1.127696
509.20 1.129568
509.30 1.132056
509.40 1.135001
509.50 1.138167
509.60 1.141312
509.70 1.144198
509.80 1.146872
509.90 1.149724
510.00 1.15316
510.10 1.157392
510.20 1.162322
510.30 1.167542
510.40 1.172436
510.50 1.176361
510.60 1.17911
510.70 1.180886
510.80 1.181966
510.90 1.18271
511.00 1.183403
511.10 1.18406
511.20 1.184372
511.30 1.183959
511.40 1.182578
511.50 1.180073
511.60 1.176518
511.70 1.172303
511.80 1.167997
511.90 1.164228
512.00 1.161312
512.10 1.159182
512.20 1.15766
512.30 1.156531
512.40 1.155518
512.50 1.154323
512.60 1.152749
512.70 1.150713
512.80 1.148253
512.90 1.145502
513.00 1.142638
513.10 1.139862
513.20 1.137323
513.30 1.13506
513.40 1.133167
513.50 1.131875
513.60 1.131359
513.70 1.131551
513.80 1.132156
513.90 1.132917
514.00 1.133663
514.10 1.134264
514.20 1.134747
514.30 1.13538
514.40 1.136477
514.50 1.138207
514.60 1.140548
514.70 1.143248
514.80 1.145886
514.90 1.14807
515.00 1.149533
515.10 1.150166
515.20 1.150099
515.30 1.149597
515.40 1.149043
515.50 1.148783
515.60 1.148856
515.70 1.149093
515.80 1.149294
515.90 1.149196
516.00 1.148687
516.10 1.147947
516.20 1.147248
516.30 1.146998
516.40 1.147738
516.50 1.149881
516.60 1.153562
516.70 1.158555
516.80 1.16442
516.90 1.170769
517.00 1.177311
517.10 1.183734
517.20 1.18982
517.30 1.195699
517.40 1.201704
517.50 1.208121
517.60 1.215139
517.70 1.222597
517.80 1.229969
517.90 1.236703
518.00 1.242443
518.10 1.247167
518.20 1.250952
518.30 1.253894
518.40 1.256359
518.50 1.259043
518.60 1.262657
518.70 1.26754
518.80 1.273555
518.90 1.280082
519.00 1.286182
519.10 1.290964
519.20 1.293873
519.30 1.294812
519.40 1.294074
519.50 1.292285
519.60 1.290325
519.70 1.289086
519.80 1.289167
519.90 1.290797
520.00 1.293819
520.10 1.297708
520.20 1.301798
520.30 1.305674
520.40 1.309268
520.50 1.31267
520.60 1.315779
520.70 1.318331
520.80 1.320218
520.90 1.321451
521.00 1.322163
521.10 1.322666
521.20 1.323408
521.30 1.324656
521.40 1.326464
521.50 1.328948
521.60 1.332189
521.70 1.336109
521.80 1.34059
521.90 1.345544
522.00 1.351083
522.10 1.357481
522.20 1.364837
522.30 1.373001
522.40 1.381689
522.50 1.390521
522.60 1.399033
522.70 1.406857
522.80 1.41391
522.90 1.420443
523.00 1.426961
523.10 1.434034
523.20 1.441975
523.30 1.45068
523.40 1.459706
523.50 1.468363
523.60 1.475901
523.70 1.481729
523.80 1.485523
523.90 1.487208
524.00 1.487082
524.10 1.485853
524.20 1.48437
524.30 1.483465
524.40 1.483794
524.50 1.485538
524.60 1.488429
524.70 1.492108
524.80 1.496201
524.90 1.500227
525.00 1.503766
525.10 1.506636
525.20 1.509059
525.30 1.511658
525.40 1.515164
525.50 1.520305
525.60 1.527784
525.70 1.537788
525.80 1.549796
525.90 1.562944
526.00 1.576123
526.10 1.588028
526.20 1.597419
526.30 1.60337
526.40 1.605365
526.50 1.603405
526.60 1.597954
526.70 1.589953
526.80 1.580647
526.90 1.571068
527.00 1.56178
527.10 1.55315
527.20 1.545487
527.30 1.538928
527.40 1.533561
527.50 1.529462
527.60 1.52663
527.70 1.524989
527.80 1.524315
527.90 1.524086
528.00 1.523421
528.10 1.521254
528.20 1.516754
528.30 1.509688
528.40 1.500502
528.50 1.490077
528.60 1.479455
528.70 1.469673
528.80 1.461523
528.90 1.455466
529.00 1.451701
529.10 1.45009
529.20 1.450177
529.30 1.45143
529.40 1.453507
529.50 1.456145
529.60 1.459028
529.70 1.461928
529.80 1.464655
529.90 1.466971
530.00 1.468749
530.10 1.470169
530.20 1.471639
530.30 1.473457
530.40 1.475714
530.50 1.478552
530.60 1.482186
530.70 1.486754
530.80 1.492194
530.90 1.498237
531.00 1.504405
531.10 1.510013
531.20 1.514385
531.30 1.517258
531.40 1.518847
531.50 1.519549
531.60 1.519865
531.70 1.520306
531.80 1.521039
531.90 1.521772
532.00 1.521935
532.10 1.520828
532.20 1.517816
532.30 1.512706
532.40 1.50599
532.50 1.498731
532.60 1.492344
532.70 1.488137
532.80 1.486908
532.90 1.488742
533.00 1.493035
533.10 1.498845
533.20 1.505343
533.30 1.512055
533.40 1.518861
533.50 1.525889
533.60 1.53336
533.70 1.541386
533.80 1.54994
533.90 1.558947
534.00 1.568221
534.10 1.577411
534.20 1.586118
534.30 1.593938
534.40 1.600615
534.50 1.606298
534.60 1.611482
534.70 1.616669
534.80 1.622286
534.90 1.628788
535.00 1.636614
535.10 1.645947
535.20 1.656451
535.30 1.667367
535.40 1.677769
535.50 1.686761
535.60 1.693639
535.70 1.69825
535.80 1.701022
535.90 1.702654
536.00 1.703875
536.10 1.705372
536.20 1.707781
536.30 1.711522
536.40 1.716766
536.50 1.723588
536.60 1.732091
536.70 1.742135
536.80 1.753294
536.90 1.765112
537.00 1.77706
537.10 1.788495
537.20 1.798836
537.30 1.807665
537.40 1.814781
537.50 1.820246
537.60 1.824213
537.70 1.826948
537.80 1.829019
537.90 1.831207
538.00 1.834374
538.10 1.839441
538.20 1.847128
538.30 1.85763
538.40 1.870525
538.50 1.884818
538.60 1.899132
538.70 1.912046
538.80 1.92246
538.90 1.929771
539.00 1.933977
539.10 1.935819
539.20 1.936548
539.30 1.93747
539.40 1.93963
539.50 1.943623
539.60 1.949525
539.70 1.956868
539.80 1.964828
539.90 1.972532
540.00 1.979195
540.10 1.984198
540.20 1.987227
540.30 1.988374
540.40 1.98812
540.50 1.986874
540.60 1.984733
540.70 1.981767
540.80 1.978144
540.90 1.97407
541.00 1.96989
541.10 1.966156
541.20 1.963498
541.30 1.962357
541.40 1.962834
541.50 1.964712
541.60 1.967463
541.70 1.970419
541.80 1.973088
541.90 1.975456
542.00 1.978038
542.10 1.981587
542.20 1.986838
542.30 1.994044
542.40 2.002615
542.50 2.011465
542.60 2.019397
542.70 2.025366
542.80 2.02868
542.90 2.029084
543.00 2.02672
543.10 2.022026
543.20 2.01559
543.30 2.007839
543.40 1.998885
543.50 1.988702
543.60 1.977312
543.70 1.965089
543.80 1.952834
543.90 1.941278
544.00 1.930874
544.10 1.921891
544.20 1.914335
544.30 1.907848
544.40 1.901798
544.50 1.895409
544.60 1.887844
544.70 1.878523
544.80 1.867349
544.90 1.854612
545.00 1.840829
545.10 1.826647
545.20 1.812721
545.30 1.799544
545.40 1.787192
545.50 1.775298
545.60 1.763407
545.70 1.751234
545.80 1.738667
545.90 1.725791
546.00 1.712985
546.10 1.70079
546.20 1.689686
546.30 1.679877
546.40 1.671215
546.50 1.663235
546.60 1.655184
546.70 1.646361
546.80 1.636455
546.90 1.62561
547.00 1.614257
547.10 1.602712
547.20 1.591129
547.30 1.579686
547.40 1.568437
547.50 1.55739
547.60 1.546651
547.70 1.536401
547.80 1.526678
547.90 1.517352
548.00 1.508219
548.10 1.499025
548.20 1.489676
548.30 1.480207
548.40 1.470625
548.50 1.461024
548.60 1.451547
548.70 1.44222
548.80 1.433138
548.90 1.424556
549.00 1.41662
549.10 1.409183
549.20 1.402005
549.30 1.394884
549.40 1.387581
549.50 1.379803
549.60 1.371217
549.70 1.361602
549.80 1.350988
549.90 1.339717
550.00 1.16512
550.10 1.155361
550.20 1.145711
550.30 1.135124
550.40 1.123189
550.50 1.110209
550.60 1.09709
550.70 1.084437
550.80 1.072234
550.90 1.060449
551.00 1.04917
551.10 1.038391
551.20 1.028417
551.30 1.020034
551.40 1.014111
551.50 1.011492
551.60 1.012587
551.70 1.016829
551.80 1.023266
551.90 1.030869
552.00 1.038335
552.10 1.044498
552.20 1.048869
552.30 1.051735
552.40 1.054353
552.50 1.058575
552.60 1.065461
552.70 1.074621
552.80 1.084716
552.90 1.09426
553.00 1.102079
553.10 1.107586
553.20 1.110747
553.30 1.111773
553.40 1.111183
553.50 1.109785
553.60 1.108551
553.70 1.108561
553.80 1.110362
553.90 1.113863
554.00 1.118817
554.10 1.125121
554.20 1.13275
554.30 1.141536
554.40 1.151394
554.50 1.161996
554.60 1.172684
554.70 1.183087
554.80 1.193294
554.90 1.20347
555.00 1.213219
555.10 1.222635
555.20 1.235367
555.30 1.259047
555.40 1.302808
555.50 1.373332
555.60 1.472404
555.70 1.596654
555.80 1.737137
555.90 1.881185
556.00 2.015639
556.10 2.129437
556.20 2.215786
556.30 2.273964
556.40 2.309769
556.50 2.332979
556.60 2.352559
556.70 2.373976
556.80 2.399142
556.90 2.428026
557.00 2.459774
557.10 2.492862
557.20 2.52581
557.30 2.557447
557.40 2.586729
557.50 2.612938
557.60 2.635832
557.70 2.655279
557.80 2.671075
557.90 2.683113
558.00 2.692165
558.10 2.700134
558.20 2.709063
558.30 2.720218
558.40 2.733758
558.50 2.748906
558.60 2.764604
558.70 2.779899
558.80 2.794303
558.90 2.808066
559.00 2.82226
559.10 2.837283
559.20 2.849736
559.30 2.852235
559.40 2.835537
559.50 2.791991
559.60 2.71876
559.70 2.61903
559.80 2.50197
559.90 2.38052
560.00 2.268525
560.10 2.17803
560.20 2.116085
560.30 2.08256
560.40 2.070595
560.50 2.070038
560.60 2.072506
560.70 2.073427
560.80 2.071289
560.90 2.066149
561.00 2.058853
561.10 2.050664
561.20 2.042474
561.30 2.035372
561.40 2.030736
561.50 2.029293
561.60 2.031269
561.70 2.037081
561.80 2.047158
561.90 2.061114
562.00 2.077161
562.10 2.092777
562.20 2.106146
562.30 2.116666
562.40 2.124502
562.50 2.130349
562.60 2.135129
562.70 2.139237
562.80 2.142287
562.90 2.143776
563.00 2.14334
563.10 2.140662
563.20 2.135388
563.30 2.127211
563.40 2.116893
563.50 2.106525
563.60 2.098358
563.70 2.093716
563.80 2.092649
563.90 2.094264
564.00 2.097141
564.10 2.099739
564.20 2.100993
564.30 2.100573
564.40 2.098729
564.50 2.095885
564.60 2.092343
564.70 2.088741
564.80 2.086103
564.90 2.085136
565.00 2.086
565.10 2.088511
565.20 2.092874
565.30 2.099644
565.40 2.109275
565.50 2.122068
565.60 2.137622
565.70 2.154505
565.80 2.170818
565.90 2.18496
566.00 2.196001
566.10 2.203683
566.20 2.207918
566.30 2.208669
566.40 2.20643
566.50 2.20229
566.60 2.197566
566.70 2.193774
566.80 2.192236
566.90 2.193574
567.00 2.197944
567.10 2.204918
567.20 2.2134
567.30 2.222068
567.40 2.229656
567.50 2.235057
567.60 2.237669
567.70 2.237975
567.80 2.237395
567.90 2.23762
568.00 2.23977
568.10 2.243813
568.20 2.249015
568.30 2.254372
568.40 2.258462
568.50 2.260405
568.60 2.260667
568.70 2.260341
568.80 2.260743
568.90 2.263182
569.00 2.268476
569.10 2.276611
569.20 2.286123
569.30 2.29439
569.40 2.298978
569.50 2.298486
569.60 2.292813
569.70 2.283231
569.80 2.272144
569.90 2.261888
570.00 2.253863
570.10 2.24861
570.20 2.245787
570.30 2.244281
570.40 2.242837
570.50 2.240524
570.60 2.237135
570.70 2.23307
570.80 2.228732
570.90 2.224079
571.00 2.218769
571.10 2.21269
571.20 2.206051
571.30 2.199328
571.40 2.192638
571.50 2.185304
571.60 2.176482
571.70 2.165658
571.80 2.152832
571.90 2.138091
572.00 2.121514
572.10 2.103871
572.20 2.086513
572.30 2.071104
572.40 2.05916
572.50 2.051067
572.60 2.046047
572.70 2.042773
572.80 2.039549
572.90 2.034677
573.00 2.026769
573.10 2.01489
573.20 1.998977
573.30 1.980363
573.40 1.96106
573.50 1.942819
573.60 1.926729
573.70 1.912793
573.80 1.900169
573.90 1.888032
574.00 1.876329
574.10 1.865674
574.20 1.857212
574.30 1.852527
574.40 1.852962
574.50 1.859253
574.60 1.87121
574.70 1.887189
574.80 1.904879
574.90 1.922322
575.00 1.938137
575.10 1.951892
575.20 1.96405
575.30 1.975175
575.40 1.985577
575.50 1.995613
575.60 2.005723
575.70 2.016097
575.80 2.026568
575.90 2.037061
576.00 2.047507
576.10 2.057646
576.20 2.067241
576.30 2.075947
576.40 2.083493
576.50 2.089503
576.60 2.093407
576.70 2.095069
576.80 2.095299
576.90 2.09556
577.00 2.09726
577.10 2.101508
577.20 2.108842
577.30 2.11848
577.40 2.128777
577.50 2.13809
577.60 2.144869
577.70 2.147795
577.80 2.146179
577.90 2.140621
578.00 2.1326
578.10 2.123649
578.20 2.115016
578.30 2.107418
578.40 2.101243
578.50 2.096198
578.60 2.091294
578.70 2.085993
578.80 2.079985
578.90 2.072649
579.00 2.063659
579.10 2.053154
579.20 2.041339
579.30 2.028541
579.40 2.015761
579.50 2.004027
579.60 1.993179
579.70 1.982047
579.80 1.96922
579.90 1.95364
580.00 1.935018
580.10 1.913672
580.20 1.890753
580.30 1.868137
580.40 1.847477
580.50 1.830079
580.60 1.817136
580.70 1.809096
580.80 1.804828
580.90 1.802367
581.00 1.800203
581.10 1.797534
581.20 1.794187
581.30 1.79078
581.40 1.788425
581.50 1.787957
581.60 1.789882
581.70 1.794773
581.80 1.803004
581.90 1.81421
582.00 1.827053
582.10 1.839691
582.20 1.850799
582.30 1.859892
582.40 1.866899
582.50 1.871981
582.60 1.875257
582.70 1.87652
582.80 1.875803
582.90 1.873559
583.00 1.869967
583.10 1.864676
583.20 1.857339
583.30 1.847667
583.40 1.835353
583.50 1.820982
583.60 1.806249
583.70 1.793256
583.80 1.783667
583.90 1.778376
584.00 1.777826
584.10 1.781787
584.20 1.788602
584.30 1.795749
584.40 1.801087
584.50 1.803179
584.60 1.800793
584.70 1.793022
584.80 1.779943
584.90 1.761998
585.00 1.739568
585.10 1.713315
585.20 1.684382
585.30 1.653948
585.40 1.622893
585.50 1.592229
585.60 1.563078
585.70 1.536156
585.80 1.511415
585.90 1.487926
586.00 1.464513
586.10 1.44018
586.20 1.413731
586.30 1.384161
586.40 1.351152
586.50 1.315453
586.60 1.279404
586.70 1.246381
586.80 1.219371
586.90 1.200086
587.00 1.188943
587.10 1.18518
587.20 1.187196
587.30 1.192997
587.40 1.200276
587.50 1.206722
587.60 1.210692
587.70 1.211038
587.80 1.206931
587.90 1.197905
588.00 1.183726
588.10 1.164735
588.20 1.142151
588.30 1.117969
588.40 1.094665
588.50 1.074621
588.60 1.059102
588.70 1.048083
588.80 1.041144
588.90 1.037817
589.00 1.037266
589.10 1.03811
589.20 1.038766
589.30 1.038107
589.40 1.035455
589.50 1.030618
589.60 1.024382
589.70 1.018166
589.80 1.013158
589.90 1.010087
590.00 1.009517
590.10 1.011736
590.20 1.016199
590.30 1.021279
590.40 1.024859
590.50 1.025223
590.60 1.020773
590.70 1.010234
590.80 0.9937003
590.90 0.9728085
591.00 0.9501207
591.10 0.9283186
591.20 0.909558
591.30 0.8952162
591.40 0.8855369
591.50 0.8794179
591.60 0.8751628
591.70 0.8714013
591.80 0.8676711
591.90 0.864566
592.00 0.8636601
592.10 0.8668339
592.20 0.8754514
592.30 0.8897499
592.40 0.9086702
592.50 0.9303904
592.60 0.9533695
592.70 0.9766226
592.80 0.9993822
592.90 1.021156
593.00 1.041616
593.10 1.060962
593.20 1.079812
593.30 1.098497
593.40 1.117213
593.50 1.135743
593.60 1.153287
593.70 1.169148
593.80 1.183075
593.90 1.195445
594.00 1.207111
594.10 1.219222
594.20 1.233214
594.30 1.250745
594.40 1.273052
594.50 1.299873
594.60 1.329716
594.70 1.360617
594.80 1.390511
594.90 1.417827
595.00 1.441626
595.10 1.4614
595.20 1.477365
595.30 1.490645
595.40 1.502951
595.50 1.515988
595.60 1.530776
595.70 1.547585
595.80 1.566336
595.90 1.586603
596.00 1.607121
596.10 1.625892
596.20 1.64117
596.30 1.65206
596.40 1.658391
596.50 1.660637
596.60 1.659706
596.70 1.656666
596.80 1.652608
596.90 1.648567
597.00 1.645831
597.10 1.645646
597.20 1.648486
597.30 1.653967
597.40 1.6614
597.50 1.670403
597.60 1.680459
597.70 1.690627
597.80 1.700377
597.90 1.709848
598.00 1.719731
598.10 1.730921
598.20 1.744144
598.30 1.759779
598.40 1.777574
598.50 1.796741
598.60 1.816472
598.70 1.836152
598.80 1.854836
598.90 1.871156
599.00 1.883756
599.10 1.891855
599.20 1.895263
599.30 1.894189
599.40 1.889398
599.50 1.882327
599.60 1.875096
599.70 1.869931
599.80 1.868532
599.90 1.871819
600.00 2.045325
600.10 2.16688
600.20 2.30071
600.30 2.429841
600.40 2.531518
600.50 2.574183
600.60 2.550554
600.70 2.479067
600.80 2.371273
600.90 2.237077
601.00 2.088989
601.10 1.935749
601.20 1.791942
601.30 1.674189
601.40 1.588253
601.50 1.53416
601.60 1.520174
601.70 1.551021
601.80 1.627328
601.90 1.742807
602.00 1.872096
602.10 1.982587
602.20 2.058624
602.30 2.085536
602.40 2.061234
602.50 2.001507
602.60 1.917746
602.70 1.829275
602.80 1.765431
602.90 1.753444
603.00 1.804027
603.10 1.906699
603.20 2.034804
603.30 2.154356
603.40 2.237008
603.50 2.285799
603.60 2.31899
603.70 2.349426
603.80 2.386192
603.90 2.428664
604.00 2.471947
604.10 2.510135
604.20 2.534688
604.30 2.535981
604.40 2.502038
604.50 2.423133
604.60 2.300506
604.70 2.158853
604.80 2.045481
604.90 1.988995
605.00 1.991893
605.10 2.051965
605.20 2.157481
605.30 2.29645
605.40 2.446255
605.50 2.561527
605.60 2.593671
605.70 2.525795
605.80 2.385048
605.90 2.218486
606.00 2.082425
606.10 2.018314
606.20 2.02566
606.30 2.075743
606.40 2.148373
606.50 2.239424
606.60 2.342057
606.70 2.443036
606.80 2.535592
606.90 2.622737
607.00 2.70978
607.10 2.78934
607.20 2.841556
607.30 2.847692
607.40 2.804076
607.50 2.725586
607.60 2.639231
607.70 2.582513
607.80 2.574711
607.90 2.609483
608.00 2.675405
608.10 2.75154
608.20 2.817644
608.30 2.868799
608.40 2.908899
608.50 2.930238
608.60 2.915527
608.70 2.864051
608.80 2.772733
608.90 2.635029
609.00 2.466072
609.10 2.293425
609.20 2.142097
609.30 2.027851
609.40 1.957037
609.50 1.929737
609.60 1.93875
609.70 1.972445
609.80 2.012797
609.90 2.048125
610.00 2.079643
610.10 2.096097
610.20 2.085639
610.30 2.055525
610.40 2.014371
610.50 1.965373
610.60 1.921835
610.70 1.911042
610.80 1.951384
610.90 2.040028
611.00 2.154022
611.10 2.259559
611.20 2.336211
611.30 2.386208
611.40 2.42217
611.50 2.464809
611.60 2.530454
611.70 2.613394
611.80 2.698817
611.90 2.778529
612.00 2.837923
612.10 2.849083
612.20 2.795158
612.30 2.689745
612.40 2.561566
612.50 2.432719
612.60 2.320866
612.70 2.231775
612.80 2.163653
612.90 2.121068
613.00 2.118641
613.10 2.167211
613.20 2.257743
613.30 2.363409
613.40 2.463729
613.50 2.556056
613.60 2.637889
613.70 2.696735
613.80 2.723521
613.90 2.721276
614.00 2.693953
614.10 2.650073
614.20 2.59975
614.30 2.536875
614.40 2.455618
614.50 2.365349
614.60 2.278892
614.70 2.211687
614.80 2.178358
614.90 2.178794
615.00 2.198614
615.10 2.229504
615.20 2.265209
615.30 2.292499
615.40 2.30111
615.50 2.28107
615.60 2.224206
615.70 2.141409
615.80 2.051509
615.90 1.971677
616.00 1.926261
616.10 1.929519
616.20 1.978511
616.30 2.067786
616.40 2.191239
616.50 2.322795
616.60 2.429352
616.70 2.496333
616.80 2.511664
616.90 2.466578
617.00 2.370534
617.10 2.253814
617.20 2.145677
617.30 2.060798
617.40 2.006759
617.50 1.985992
617.60 1.99427
617.70 2.016266
617.80 2.035338
617.90 2.046507
618.00 2.054401
618.10 2.055633
618.20 2.046377
618.30 2.043796
618.40 2.065147
618.50 2.102533
618.60 2.135613
618.70 2.157871
618.80 2.174133
618.90 2.185366
619.00 2.187107
619.10 2.171237
619.20 2.133626
619.30 2.079706
619.40 2.021918
619.50 1.973269
619.60 1.944485
619.70 1.936173
619.80 1.941788
619.90 1.9593
620.00 1.986694
620.10 2.010976
620.20 2.020381
620.30 2.013639
620.40 1.9957
620.50 1.978902
620.60 1.973117
620.70 1.987035
620.80 2.018003
620.90 2.055416
621.00 2.096959
621.10 2.13576
621.20 2.157632
621.30 2.150331
621.40 2.114288
621.50 2.057683
621.60 1.984365
621.70 1.896522
621.80 1.807591
621.90 1.743675
622.00 1.722688
622.10 1.736368
622.20 1.778937
622.30 1.85548
622.40 1.9565
622.50 2.058838
622.60 2.13644
622.70 2.177026
622.80 2.184682
622.90 2.174436
623.00 2.159029
623.10 2.146845
623.20 2.136937
623.30 2.123641
623.40 2.111936
623.50 2.115123
623.60 2.139702
623.70 2.17715
623.80 2.217641
623.90 2.255113
624.00 2.291059
624.10 2.323199
624.20 2.339562
624.30 2.326776
624.40 2.281929
624.50 2.218986
624.60 2.159389
624.70 2.11701
624.80 2.09685
624.90 2.102233
625.00 2.128024
625.10 2.168131
625.20 2.212595
625.30 2.246099
625.40 2.259122
625.50 2.253293
625.60 2.24115
625.70 2.23854
625.80 2.257195
625.90 2.301131
626.00 2.366559
626.10 2.438254
626.20 2.490282
626.30 2.499664
626.40 2.46149
626.50 2.383651
626.60 2.283781
626.70 2.188803
626.80 2.123035
626.90 2.09743
627.00 2.108953
627.10 2.150228
627.20 2.212611
627.30 2.289175
627.40 2.370547
627.50 2.441214
627.60 2.503983
627.70 2.574911
627.80 2.656388
627.90 2.73872
628.00 2.812184
628.10 2.872817
628.20 2.920311
628.30 2.948141
628.40 2.950053
628.50 2.926712
628.60 2.881768
628.70 2.818407
628.80 2.744955
628.90 2.684268
629.00 2.649016
629.10 2.636579
629.20 2.64327
629.30 2.66416
629.40 2.694794
629.50 2.741365
629.60 2.788091
629.70 2.810195
629.80 2.809715
629.90 2.796966
630.00 2.78753
630.10 2.794839
630.20 2.820117
630.30 2.859727
630.40 2.913468
630.50 2.973261
630.60 3.024981
630.70 3.059173
630.80 3.079081
630.90 3.08412
631.00 3.090472
631.10 3.126285
631.20 3.194102
631.30 3.283339
631.40 3.374153
631.50 3.452896
631.60 3.519537
631.70 3.566821
631.80 3.576948
631.90 3.544427
632.00 3.483407
632.10 3.416127
632.20 3.358062
632.30 3.315737
632.40 3.300008
632.50 3.326949
632.60 3.399563
632.70 3.505971
632.80 3.633238
632.90 3.764406
633.00 3.883836
633.10 3.985984
633.20 4.070967
633.30 4.138073
633.40 4.184805
633.50 4.208769
633.60 4.206024
633.70 4.183648
633.80 4.153399
633.90 4.117884
634.00 4.085874
634.10 4.06616
634.20 4.056632
634.30 4.052013
634.40 4.045828
634.50 4.037218
634.60 4.034255
634.70 4.047903
634.80 4.076427
634.90 4.107951
635.00 4.141319
635.10 4.174875
635.20 4.199513
635.30 4.215721
635.40 4.229543
635.50 4.244547
635.60 4.256774
635.70 4.262431
635.80 4.266618
635.90 4.263486
636.00 4.237459
636.10 4.181725
636.20 4.1145
636.30 4.062997
636.40 4.034548
636.50 4.031087
636.60 4.052068
636.70 4.084745
636.80 4.114056
636.90 4.13368
637.00 4.152746
637.10 4.177533
637.20 4.198376
637.30 4.213937
637.40 4.234199
637.50 4.262861
637.60 4.290987
637.70 4.303507
637.80 4.290768
637.90 4.250401
638.00 4.196398
638.10 4.151211
638.20 4.125653
638.30 4.121147
638.40 4.131412
638.50 4.147258
638.60 4.16407
638.70 4.179774
638.80 4.19178
638.90 4.195923
639.00 4.18327
639.10 4.159848
639.20 4.147255
639.30 4.15709
639.40 4.183207
639.50 4.216365
639.60 4.259241
639.70 4.316624
639.80 4.391231
639.90 4.483296
640.00 4.584403
640.10 4.68056
640.20 4.75923
640.30 4.806606
640.40 4.815838
640.50 4.785341
640.60 4.715177
640.70 4.6082
640.80 4.472437
640.90 4.325815
641.00 4.188189
641.10 4.080258
641.20 4.019269
641.30 4.013473
641.40 4.065207
641.50 4.167865
641.60 4.3064
641.70 4.468762
641.80 4.640275
641.90 4.793651
642.00 4.89751
642.10 4.934122
642.20 4.906607
642.30 4.826307
642.40 4.70693
642.50 4.568707
642.60 4.435425
642.70 4.330441
642.80 4.273173
642.90 4.270527
643.00 4.309162
643.10 4.360082
643.20 4.397601
643.30 4.413014
643.40 4.412129
643.50 4.408052
643.60 4.406885
643.70 4.406337
643.80 4.401592
643.90 4.388798
644.00 4.371939
644.10 4.354366
644.20 4.332832
644.30 4.311355
644.40 4.301944
644.50 4.31629
644.60 4.364217
644.70 4.447351
644.80 4.554557
644.90 4.664755
645.00 4.757117
645.10 4.815676
645.20 4.840238
645.30 4.842103
645.40 4.826576
645.50 4.791742
645.60 4.737778
645.70 4.670374
645.80 4.604247
645.90 4.556792
646.00 4.536083
646.10 4.542853
646.20 4.573524
646.30 4.625423
646.40 4.701175
646.50 4.802177
646.60 4.909424
646.70 4.986198
646.80 5.00688
646.90 4.972811
647.00 4.899509
647.10 4.804098
647.20 4.703975
647.30 4.617518
647.40 4.561741
647.50 4.548227
647.60 4.579136
647.70 4.641137
647.80 4.70806
647.90 4.759313
648.00 4.788197
648.10 4.79963
648.20 4.801424
648.30 4.800273
648.40 4.809116
648.50 4.838711
648.60 4.889553
648.70 4.956981
648.80 5.033088
648.90 5.106774
649.00 5.167975
649.10 5.216863
649.20 5.258841
649.30 5.293793
649.40 5.323278
649.50 5.354366
649.60 5.392792
649.70 5.435445
649.80 5.474877
649.90 5.507523
650.00 5.530568
650.10 5.5365
650.20 5.524587
650.30 5.50454
650.40 5.490549
650.50 5.495909
650.60 5.530423
650.70 5.595081
650.80 5.680856
650.90 5.77627
651.00 5.871003
651.10 5.960705
651.20 6.038069
651.30 6.096515
651.40 6.135357
651.50 6.158619
651.60 6.174147
651.70 6.18877
651.80 6.206116
651.90 6.226338
652.00 6.251553
652.10 6.290846
652.20 6.349499
652.30 6.423531
652.40 6.509218
652.50 6.604655
652.60 6.716997
652.70 6.853094
652.80 7.008814
652.90 7.17726
653.00 7.346003
653.10 7.49647
653.20 7.61398
653.30 7.704029
653.40 7.779951
653.50 7.847288
653.60 7.914375
653.70 7.989578
653.80 8.075763
653.90 8.170848
654.00 8.26894
654.10 8.360208
654.20 8.437158
654.30 8.495944
654.40 8.533313
654.50 8.546168
654.60 8.537148
654.70 8.507224
654.80 8.460291
654.90 8.399026
655.00 8.317911
655.10 8.22566
655.20 8.13567
655.30 8.057751
655.40 8.003862
655.50 7.977705
655.60 7.98318
655.70 8.039346
655.80 8.165371
655.90 8.372965
656.00 8.661619
656.10 8.997528
656.20 9.312287
656.30 9.550639
656.40 9.682221
656.50 9.685009
656.60 9.564771
656.70 9.347769
656.80 9.059608
656.90 8.739025
657.00 8.432195
657.10 8.163676
657.20 7.932405
657.30 7.72991
657.40 7.55128
657.50 7.396553
657.60 7.273732
657.70 7.184317
657.80 7.132361
657.90 7.120552
658.00 7.12859
658.10 7.13457
658.20 7.125435
658.30 7.095876
658.40 7.044356
658.50 6.975573
658.60 6.913323
658.70 6.884343
658.80 6.891708
658.90 6.922015
659.00 6.973471
659.10 7.05544
659.20 7.167923
659.30 7.301273
659.40 7.450568
659.50 7.613741
659.60 7.782764
659.70 7.937595
659.80 8.053115
659.90 8.109193
660.00 8.093828
660.10 8.009808
660.20 7.876899
660.30 7.728641
660.40 7.596639
660.50 7.496918
660.60 7.441965
660.70 7.450298
660.80 7.527445
660.90 7.653208
661.00 7.79776
661.10 7.938363
661.20 8.064113
661.30 8.16577
661.40 8.234802
661.50 8.265458
661.60 8.266194
661.70 8.261708
661.80 8.270647
661.90 8.298714
662.00 8.333659
662.10 8.345244
662.20 8.309071
662.30 8.218473
662.40 8.078666
662.50 7.906977
662.60 7.729095
662.70 7.577469
662.80 7.485392
662.90 7.479135
663.00 7.567473
663.10 7.731541
663.20 7.933415
663.30 8.134866
663.40 8.309251
663.50 8.442605
663.60 8.523818
663.70 8.547374
663.80 8.524772
663.90 8.477431
664.00 8.430612
664.10 8.413313
664.20 8.448316
664.30 8.538982
664.40 8.668564
664.50 8.809324
664.60 8.931967
664.70 9.013758
664.80 9.034116
664.90 8.978471
665.00 8.854207
665.10 8.68854
665.20 8.516132
665.30 8.367703
665.40 8.2656
665.50 8.220325
665.60 8.228464
665.70 8.275122
665.80 8.335729
665.90 8.390444
666.00 8.43189
666.10 8.460291
666.20 8.483625
666.30 8.512302
666.40 8.554553
666.50 8.61769
666.60 8.703163
666.70 8.807541
666.80 8.919182
666.90 9.014409
667.00 9.065173
667.10 9.061002
667.20 9.019469
667.30 8.969935
667.40 8.938358
667.50 8.936466
667.60 8.966245
667.70 9.023231
667.80 9.096488
667.90 9.168792
668.00 9.217831
668.10 9.224401
668.20 9.182454
668.30 9.106255
668.40 9.024254
668.50 8.95306
668.60 8.888232
668.70 8.82445
668.80 8.763279
668.90 8.710256
669.00 8.670598
669.10 8.650344
669.20 8.652709
669.30 8.674821
669.40 8.71422
669.50 8.764279
669.60 8.811593
669.70 8.8424
669.80 8.851501
669.90 8.851831
670.00 8.862705
670.10 8.888042
670.20 8.927703
670.30 8.983391
670.40 9.052986
670.50 9.131623
670.60 9.207639
670.70 9.27221
670.80 9.324064
670.90 9.371298
671.00 9.42293
671.10 9.477553
671.20 9.52967
671.30 9.57282
671.40 9.597694
671.50 9.599565
671.60 9.575303
671.70 9.52717
671.80 9.466709
671.90 9.400189
672.00 9.33625
672.10 9.286236
672.20 9.255615
672.30 9.240475
672.40 9.232575
672.50 9.226272
672.60 9.210211
672.70 9.168605
672.80 9.099249
672.90 9.016081
673.00 8.935763
673.10 8.873903
673.20 8.843764
673.30 8.85815
673.40 8.918176
673.50 9.009998
673.60 9.116598
673.70 9.225978
673.80 9.332875
673.90 9.435005
674.00 9.53241
674.10 9.627899
674.20 9.725925
674.30 9.820541
674.40 9.897248
674.50 9.947423
674.60 9.974072
674.70 9.987418
674.80 9.998856
674.90 10.01218
675.00 10.01894
675.10 10.01196
675.20 9.994952
675.30 9.971684
675.40 9.939552
675.50 9.892787
675.60 9.830713
675.70 9.771898
675.80 9.744121
675.90 9.755965
676.00 9.791676
676.10 9.830849
676.20 9.868866
676.30 9.91944
676.40 9.997266
676.50 10.09816
676.60 10.19957
676.70 10.28093
676.80 10.33298
676.90 10.35045
677.00 10.32715
677.10 10.26123
677.20 10.16861
677.30 10.08424
677.40 10.04639
677.50 10.07839
677.60 10.1776
677.70 10.31428
677.80 10.44298
677.90 10.52476
678.00 10.53787
678.10 10.47259
678.20 10.33267
678.30 10.13882
678.40 9.926267
678.50 9.732657
678.60 9.577411
678.70 9.47124
678.80 9.426388
678.90 9.441944
679.00 9.501662
679.10 9.585004
679.20 9.678125
679.30 9.766248
679.40 9.822584
679.50 9.824859
679.60 9.770576
679.70 9.683321
679.80 9.59508
679.90 9.527053
680.00 9.500406
680.10 9.524368
680.20 9.584599
680.30 9.6616
680.40 9.732738
680.50 9.776872
680.60 9.782023
680.70 9.745479
680.80 9.682017
680.90 9.614261
681.00 9.559925
681.10 9.527578
681.20 9.521089
681.30 9.537161
681.40 9.563148
681.50 9.591131
681.60 9.62053
681.70 9.649463
681.80 9.680135
681.90 9.715844
682.00 9.752362
682.10 9.785147
682.20 9.811662
682.30 9.829969
682.40 9.835082
682.50 9.820258
682.60 9.783284
682.70 9.730896
682.80 9.677128
682.90 9.633127
683.00 9.59633
683.10 9.557973
683.20 9.508459
683.30 9.440364
683.40 9.357109
683.50 9.260554
683.60 9.156195
683.70 9.06005
683.80 8.988146
683.90 8.947488
684.00 8.934748
684.10 8.945845
684.20 8.969244
684.30 8.982199
684.40 8.973801
684.50 8.944375
684.60 8.897557
684.70 8.840537
684.80 8.77771
684.90 8.723694
685.00 8.689947
685.10 8.671333
685.20 8.661258
685.30 8.662825
685.40 8.686707
685.50 8.730236
685.60 8.777229
685.70 8.81616
685.80 8.841522
685.90 8.863193
686.00 8.89293
686.10 8.933653
686.20 8.988058
686.30 9.050512
686.40 9.112732
686.50 9.172283
686.60 9.222857
686.70 9.245924
686.80 9.218757
686.90 9.124825
687.00 8.970876
687.10 8.787763
687.20 8.612185
687.30 8.472189
687.40 8.392931
687.50 8.385597
687.60 8.433933
687.70 8.506162
687.80 8.56808
687.90 8.598146
688.00 8.585908
688.10 8.528187
688.20 8.437995
688.30 8.349215
688.40 8.290354
688.50 8.264915
688.60 8.265355
688.70 8.279225
688.80 8.287679
688.90 8.278451
689.00 8.259706
689.10 8.245744
689.20 8.236469
689.30 8.221367
689.40 8.199175
689.50 8.176706
689.60 8.153709
689.70 8.122774
689.80 8.076362
689.90 8.016413
690.00 7.954854
690.10 7.909349
690.20 7.898555
690.30 7.933829
690.40 8.010981
690.50 8.119746
690.60 8.255009
690.70 8.407987
690.80 8.562524
690.90 8.702421
691.00 8.81277
691.10 8.885249
691.20 8.922216
691.30 8.923059
691.40 8.873822
691.50 8.759111
691.60 8.588433
691.70 8.396008
691.80 8.220583
691.90 8.097414
692.00 8.060335
692.10 8.12853
692.20 8.28823
692.30 8.500699
692.40 8.723335
692.50 8.916794
692.60 9.054168
692.70 9.133205
692.80 9.170583
692.90 9.188533
693.00 9.204633
693.10 9.23301
693.20 9.288897
693.30 9.380936
693.40 9.493831
693.50 9.593998
693.60 9.660483
693.70 9.691197
693.80 9.692348
693.90 9.68726
694.00 9.705745
694.10 9.766996
694.20 9.889924
694.30 10.09212
694.40 10.36922
694.50 10.69676
694.60 11.03696
694.70 11.34015
694.80 11.5583
694.90 11.66233
695.00 11.64395
695.10 11.51339
695.20 11.3017
695.30 11.04426
695.40 10.77967
695.50 10.55416
695.60 10.40296
695.70 10.34109
695.80 10.36825
695.90 10.46153
696.00 10.58847
696.10 10.72493
696.20 10.85587
696.30 10.97284
696.40 11.06998
696.50 11.1463
696.60 11.19837
696.70 11.2217
696.80 11.21211
696.90 11.16606
697.00 11.09622
697.10 11.01937
697.20 10.94944
697.30 10.91652
697.40 10.94291
697.50 11.02368
697.60 11.14511
697.70 11.28784
697.80 11.42304
697.90 11.52041
698.00 11.55834
698.10 11.53572
698.20 11.47238
698.30 11.39176
698.40 11.31372
698.50 11.26487
698.60 11.26732
698.70 11.31103
698.80 11.36865
698.90 11.42253
699.00 11.45525
699.10 11.44819
699.20 11.39463
699.30 11.30173
699.40 11.19017
699.50 11.08113
699.60 10.98766
699.70 10.92515
699.80 10.89968
699.90 10.90273
700.00 10.92645
700.10 10.96874
700.20 11.04063
700.30 11.15618
700.40 11.31731
700.50 11.51841
700.60 11.74813
700.70 11.98931
700.80 12.21885
700.90 12.41166
701.00 12.55294
701.10 12.63958
701.20 12.67402
701.30 12.66834
701.40 12.64654
701.50 12.63507
701.60 12.64789
701.70 12.68622
701.80 12.75171
701.90 12.8447
702.00 12.95976
702.10 13.08453
702.20 13.20332
702.30 13.31268
702.40 13.42273
702.50 13.54552
702.60 13.6929
702.70 13.87021
702.80 14.07224
702.90 14.28603
703.00 14.49054
703.10 14.67131
703.20 14.82654
703.30 14.96212
703.40 15.08533
703.50 15.20744
703.60 15.35016
703.70 15.52732
703.80 15.73356
703.90 15.95275
704.00 16.16883
704.10 16.36032
704.20 16.50075
704.30 16.57933
704.40 16.60505
704.50 16.59081
704.60 16.54919
704.70 16.49659
704.80 16.45439
704.90 16.43131
705.00 16.40744
705.10 16.34973
705.20 16.22606
705.30 16.01314
705.40 15.70887
705.50 15.33784
705.60 14.94016
705.70 14.54883
705.80 14.18988
705.90 13.88965
706.00 13.65998
706.10 13.49604
706.20 13.38493
706.30 13.3144
706.40 13.28193
706.50 13.28881
706.60 13.34017
706.70 13.44695
706.80 13.6008
706.90 13.76941
707.00 13.91877
707.10 14.03352
707.20 14.1097
707.30 14.15046
707.40 14.18024
707.50 14.22082
707.60 14.27759
707.70 14.34747
707.80 14.42069
707.90 14.48444
708.00 14.52237
708.10 14.51535
708.20 14.45155
708.30 14.33167
708.40 14.1645
708.50 13.96209
708.60 13.75206
708.70 13.5652
708.80 13.41156
708.90 13.29821
709.00 13.23044
709.10 13.21142
709.20 13.24053
709.30 13.30619
709.40 13.38871
709.50 13.46267
709.60 13.51014
709.70 13.53237
709.80 13.542
709.90 13.55817
710.00 13.59463
710.10 13.65192
710.20 13.72894
710.30 13.82484
710.40 13.94347
710.50 14.08411
710.60 14.23781
710.70 14.39093
710.80 14.52213
710.90 14.61205
711.00 14.6521
711.10 14.64217
711.20 14.5894
711.30 14.50768
711.40 14.41576
711.50 14.34161
711.60 14.31724
711.70 14.36123
711.80 14.46845
711.90 14.61919
712.00 14.78562
712.10 14.9355
712.20 15.03743
712.30 15.06486
712.40 15.01529
712.50 14.90293
712.60 14.74278
712.70 14.56048
712.80 14.39225
712.90 14.26818
713.00 14.19806
713.10 14.17537
713.20 14.18953
713.30 14.22284
713.40 14.2511
713.50 14.25538
713.60 14.23517
713.70 14.20463
713.80 14.1682
713.90 14.12743
714.00 14.09761
714.10 14.0916
714.20 14.10687
714.30 14.13537
714.40 14.17483
714.50 14.228
714.60 14.29624
714.70 14.37816
714.80 14.46987
714.90 14.56653
715.00 14.65917
715.10 14.73967
715.20 14.81911
715.30 14.91284
715.40 15.01568
715.50 15.11117
715.60 15.18148
715.70 15.20847
715.80 15.18219
715.90 15.10507
716.00 14.98828
716.10 14.85704
716.20 14.75212
716.30 14.71089
716.40 14.75594
716.50 14.88769
716.60 15.07108
716.70 15.2554
716.80 15.4064
716.90 15.51317
717.00 15.57936
717.10 15.61769
717.20 15.64233
717.30 15.66408
717.40 15.69306
717.50 15.72993
717.60 15.76191
717.70 15.77895
717.80 15.78484
717.90 15.7965
718.00 15.83543
718.10 15.91808
718.20 16.04467
718.30 16.19505
718.40 16.34832
718.50 16.48902
718.60 16.60454
718.70 16.69062
718.80 16.75253
718.90 16.80729
719.00 16.8754
719.10 16.96757
719.20 17.07744
719.30 17.17827
719.40 17.23816
719.50 17.24595
719.60 17.2115
719.70 17.14985
719.80 17.07269
719.90 16.99121
720.00 16.92505
720.10 16.89347
720.20 16.90041
720.30 16.93394
720.40 16.97737
720.50 17.01287
720.60 17.02887
720.70 17.03238
720.80 17.03734
720.90 17.0482
721.00 17.06438
721.10 17.08976
721.20 17.13058
721.30 17.19177
721.40 17.26883
721.50 17.34388
721.60 17.40624
721.70 17.45443
721.80 17.48776
721.90 17.51106
722.00 17.53407
722.10 17.56902
722.20 17.633
722.30 17.73132
722.40 17.85549
722.50 17.99523
722.60 18.13707
722.70 18.26991
722.80 18.3834
722.90 18.47918
723.00 18.56385
723.10 18.64464
723.20 18.7404
723.30 18.85977
723.40 19.00051
723.50 19.16854
723.60 19.35173
723.70 19.52369
723.80 19.66483
723.90 19.76685
724.00 19.83509
724.10 19.87326
724.20 19.88819
724.30 19.88787
724.40 19.88314
724.50 19.8812
724.60 19.87407
724.70 19.86622
724.80 19.87255
724.90 19.89032
725.00 19.92275
725.10 19.99508
725.20 20.12625
725.30 20.31369
725.40 20.54008
725.50 20.77659
725.60 20.99097
725.70 21.15933
725.80 21.27135
725.90 21.33545
726.00 21.3663
726.10 21.37877
726.20 21.38904
726.30 21.41244
726.40 21.46005
726.50 21.5204
726.60 21.57051
726.70 21.59675
726.80 21.59257
726.90 21.57198
727.00 21.58567
727.10 21.67761
727.20 21.84961
727.30 22.07617
727.40 22.31008
727.50 22.49265
727.60 22.57161
727.70 22.52195
727.80 22.3653
727.90 22.16613
728.00 22.00856
728.10 21.96387
728.20 22.07904
728.30 22.34441
728.40 22.67063
728.50 22.96509
728.60 23.1672
728.70 23.23549
728.80 23.1703
728.90 23.01377
729.00 22.84421
729.10 22.74723
729.20 22.76747
729.30 22.90646
729.40 23.14347
729.50 23.42925
729.60 23.68558
729.70 23.85646
729.80 23.93111
729.90 23.92034
730.00 23.84735
730.10 23.75051
730.20 23.68191
730.30 23.68787
730.40 23.78667
730.50 23.97177
730.60 24.22153
730.70 24.50221
730.80 24.77322
730.90 25.0231
731.00 25.27346
731.10 25.53974
731.20 25.81114
731.30 26.06759
731.40 26.298
731.50 26.50088
731.60 26.67457
731.70 26.8118
731.80 26.91167
731.90 26.97402
732.00 27.00972
732.10 27.04489
732.20 27.10212
732.30 27.18481
732.40 27.28046
732.50 27.36099
732.60 27.37821
732.70 27.28706
732.80 27.0764
732.90 26.76529
733.00 26.40169
733.10 26.06252
733.20 25.8171
733.30 25.72253
733.40 25.82825
733.50 26.15896
733.60 26.69396
733.70 27.36049
733.80 28.06074
733.90 28.70254
734.00 29.21713
734.10 29.54176
734.20 29.62471
734.30 29.46501
734.40 29.10632
734.50 28.61917
734.60 28.09643
734.70 27.62828
734.80 27.26814
734.90 27.03135
735.00 26.91238
735.10 26.88894
735.20 26.91242
735.30 26.92299
735.40 26.90225
735.50 26.8732
735.60 26.85999
735.70 26.86937
735.80 26.90229
735.90 26.96473
736.00 27.06623
736.10 27.22113
736.20 27.44684
736.30 27.74888
736.40 28.1102
736.50 28.48611
736.60 28.82136
736.70 29.0849
736.80 29.25316
736.90 29.3056
737.00 29.23739
737.10 29.05693
737.20 28.78653
737.30 28.4629
737.40 28.13025
737.50 27.83232
737.60 27.59852
737.70 27.43586
737.80 27.3339
737.90 27.28163
738.00 27.27204
738.10 27.28534
738.20 27.2899
738.30 27.26227
738.40 27.21097
738.50 27.17581
738.60 27.21114
738.70 27.35884
738.80 27.61337
738.90 27.91043
739.00 28.15577
739.10 28.26741
739.20 28.19771
739.30 27.93817
739.40 27.5283
739.50 27.05497
739.60 26.62119
739.70 26.29923
739.80 26.12076
739.90 26.08561
740.00 26.16677
740.10 26.31242
740.20 26.45105
740.30 26.53435
740.40 26.55641
740.50 26.53566
740.60 26.50475
740.70 26.49675
740.80 26.5326
740.90 26.61026
741.00 26.71165
741.10 26.83266
741.20 26.97198
741.30 27.10414
741.40 27.17272
741.50 27.12382
741.60 26.95669
741.70 26.71035
741.80 26.42854
741.90 26.15186
742.00 25.91608
742.10 25.75177
742.20 25.66867
742.30 25.65338
742.40 25.69308
742.50 25.77084
742.60 25.85971
742.70 25.94587
742.80 26.03704
742.90 26.13766
743.00 26.23542
743.10 26.30508
743.20 26.32938
743.30 26.30282
743.40 26.22463
743.50 26.10614
743.60 25.98399
743.70 25.90426
743.80 25.87833
743.90 25.89378
744.00 25.92835
744.10 25.9387
744.20 25.875
744.30 25.70512
744.40 25.43605
744.50 25.1157
744.60 24.79958
744.70 24.54101
744.80 24.39675
744.90 24.40018
745.00 24.53507
745.10 24.7433
745.20 24.95801
745.30 25.11896
745.40 25.18603
745.50 25.15279
745.60 25.03833
745.70 24.88149
745.80 24.7276
745.90 24.62078
746.00 24.60695
746.10 24.71329
746.20 24.92912
746.30 25.20824
746.40 25.48462
746.50 25.7069
746.60 25.85232
746.70 25.91747
746.80 25.90995
746.90 25.84285
747.00 25.73815
747.10 25.6232
747.20 25.52149
747.30 25.44501
747.40 25.39077
747.50 25.34416
747.60 25.29397
747.70 25.25628
747.80 25.26959
747.90 25.35856
748.00 25.52787
748.10 25.76517
748.20 26.03815
748.30 26.30986
748.40 26.54646
748.50 26.72512
748.60 26.83174
748.70 26.85741
748.80 26.80059
748.90 26.67732
749.00 26.51331
749.10 26.31608
749.20 26.08928
749.30 25.85333
749.40 25.63337
749.50 25.45417
749.60 25.34498
749.70 25.32801
749.80 25.40291
749.90 25.5493
750.00 25.73867
750.10 25.93252
750.20 26.09109
750.30 26.18463
750.40 26.20739
750.50 26.19033
750.60 26.17049
750.70 26.17001
750.80 26.20194
750.90 26.27017
751.00 26.35479
751.10 26.42854
751.20 26.49237
751.30 26.54682
751.40 26.57461
751.50 26.5627
751.60 26.51137
751.70 26.44354
751.80 26.39238
751.90 26.3808
752.00 26.40953
752.10 26.45815
752.20 26.50635
752.30 26.5412
752.40 26.5599
752.50 26.56366
752.60 26.55101
752.70 26.52965
752.80 26.52277
752.90 26.54915
753.00 26.60716
753.10 26.68357
753.20 26.75879
753.30 26.81481
753.40 26.85131
753.50 26.88757
753.60 26.94612
753.70 27.03517
753.80 27.16416
753.90 27.34336
754.00 27.56114
754.10 27.79215
754.20 27.99717
754.30 28.13462
754.40 28.18242
754.50 28.12604
754.60 27.96105
754.70 27.70552
754.80 27.39582
754.90 27.08117
755.00 26.81398
755.10 26.64246
755.20 26.5835
755.30 26.61761
755.40 26.70773
755.50 26.81634
755.60 26.91853
755.70 27.00615
755.80 27.0877
755.90 27.17598
756.00 27.2733
756.10 27.36316
756.20 27.41872
756.30 27.41596
756.40 27.33722
756.50 27.18703
756.60 27.00892
756.70 26.85031
756.80 26.73872
756.90 26.69332
757.00 26.73006
757.10 26.83445
757.20 26.95851
757.30 27.05312
757.40 27.08054
757.50 27.02951
757.60 26.93192
757.70 26.84624
757.80 26.82488
757.90 26.89387
758.00 27.04222
758.10 27.23126
758.20 27.40623
758.30 27.50009
758.40 27.4412
758.50 27.18721
758.60 26.73579
758.70 26.11945
758.80 25.40032
758.90 24.65505
759.00 23.94962
759.10 23.33421
759.20 22.85069
759.30 22.49976
759.40 22.23056
759.50 22.00456
759.60 21.82135
759.70 21.66249
759.80 21.50582
759.90 21.37113
760.00 21.26897
760.10 21.17215
760.20 21.08286
760.30 21.03461
760.40 21.05962
760.50 21.16662
760.60 21.32216
760.70 21.48967
760.80 21.65597
760.90 21.80599
761.00 21.9172
761.10 21.99957
761.20 22.06823
761.30 22.10108
761.40 22.09224
761.50 22.07625
761.60 22.07005
761.70 22.06152
761.80 22.01717
761.90 21.89617
762.00 21.69982
762.10 21.45085
762.20 21.1579
762.30 20.81954
762.40 20.42931
762.50 19.97569
762.60 19.45546
762.70 18.88646
762.80 18.30558
762.90 17.75846
763.00 17.28077
763.10 16.891
763.20 16.58682
763.30 16.35602
763.40 16.16992
763.50 15.99303
763.60 15.80906
763.70 15.60141
763.80 15.3383
763.90 14.99434
764.00 14.57011
764.10 14.09929
764.20 13.6301
764.30 13.19567
764.40 12.79939
764.50 12.42371
764.60 12.05875
764.70 11.69963
764.80 11.32366
764.90 10.89765
765.00 10.39749
765.10 9.821529
765.20 9.196243
765.30 8.571121
765.40 7.995639
765.50 7.483903
765.60 7.024329
765.70 6.609942
765.80 6.236747
765.90 5.882307
766.00 5.523707
766.10 5.151096
766.20 4.766055
766.30 4.392733
766.40 4.067295
766.50 3.827383
766.60 3.701536
766.70 3.697887
766.80 3.810757
766.90 4.03855
767.00 4.375406
767.10 4.789075
767.20 5.23905
767.30 5.702766
767.40 6.162633
767.50 6.601501
767.60 7.008533
767.70 7.37493
767.80 7.702489
767.90 8.000511
768.00 8.290313
768.10 8.587883
768.20 8.888018
768.30 9.165479
768.40 9.377405
768.50 9.493283
768.60 9.504985
768.70 9.432704
768.80 9.306637
768.90 9.139015
769.00 8.9306
769.10 8.680777
769.20 8.379146
769.30 8.018333
769.40 7.597719
769.50 7.12281
769.60 6.610318
769.70 6.092517
769.80 5.622856
769.90 5.253579
770.00 5.019749
770.10 4.929368
770.20 4.976861
770.30 5.163858
770.40 5.491346
770.50 5.942592
770.60 6.499277
770.70 7.14282
770.80 7.833604
770.90 8.525174
771.00 9.176887
771.10 9.765524
771.20 10.28276
771.30 10.71968
771.40 11.0772
771.50 11.37497
771.60 11.64081
771.70 11.89451
771.80 12.15738
771.90 12.45463
772.00 12.79563
772.10 13.17872
772.20 13.60521
772.30 14.08728
772.40 14.63846
772.50 15.24491
772.60 15.86756
772.70 16.46718
772.80 17.01502
772.90 17.47798
773.00 17.82999
773.10 18.0786
773.20 18.25145
773.30 18.39421
773.40 18.55553
773.50 18.76044
773.60 19.01467
773.70 19.30853
773.80 19.61889
773.90 19.91367
774.00 20.16379
774.10 20.35193
774.20 20.46253
774.30 20.49899
774.40 20.49418
774.50 20.49551
774.60 20.54778
774.70 20.6754
774.80 20.87009
774.90 21.1086
775.00 21.35595
775.10 21.55086
775.20 21.65159
775.30 21.66626
775.40 21.62552
775.50 21.56288
775.60 21.50324
775.70 21.46334
775.80 21.45413
775.90 21.46725
776.00 21.49191
776.10 21.51772
776.20 21.53655
776.30 21.5468
776.40 21.56339
776.50 21.62929
776.60 21.78623
776.70 22.05476
776.80 22.43921
776.90 22.91925
777.00 23.45851
777.10 24.0097
777.20 24.49859
777.30 24.84674
777.40 24.99104
777.50 24.90965
777.60 24.65121
777.70 24.30162
777.80 23.94844
777.90 23.6745
778.00 23.52195
778.10 23.47437
778.20 23.4845
778.30 23.50833
778.40 23.51603
778.50 23.48771
778.60 23.42999
778.70 23.38468
778.80 23.41308
778.90 23.57793
779.00 23.89465
779.10 24.31559
779.20 24.75521
779.30 25.09987
779.40 25.22684
779.50 25.02645
779.60 24.41985
779.70 23.39909
779.80 22.06202
779.90 20.6079
780.00 19.29594
780.10 18.37352
780.20 18.01692
780.30 18.30571
780.40 19.20357
780.50 20.5535
780.60 22.12608
780.70 23.66323
780.80 24.93937
780.90 25.82727
781.00 26.32536
781.10 26.52486
781.20 26.557
781.30 26.55217
781.40 26.59588
781.50 26.73737
781.60 26.99468
781.70 27.32217
781.80 27.63122
781.90 27.86389
782.00 27.99122
782.10 27.99288
782.20 27.86778
782.30 27.62708
782.40 27.29366
782.50 26.90291
782.60 26.4962
782.70 26.11431
782.80 25.80692
782.90 25.60881
783.00 25.53147
783.10 25.57769
783.20 25.75479
783.30 26.05016
783.40 26.41228
783.50 26.80881
783.60 27.23003
783.70 27.66459
783.80 28.08484
783.90 28.46274
784.00 28.79023
784.10 29.07173
784.20 29.32196
784.30 29.56172
784.40 29.79363
784.50 29.99332
784.60 30.12368
784.70 30.17183
784.80 30.16875
784.90 30.13065
785.00 30.03996
785.10 29.88703
785.20 29.69543
785.30 29.5208
785.40 29.40421
785.50 29.36056
785.60 29.39528
785.70 29.50179
785.80 29.67031
785.90 29.89354
786.00 30.16594
786.10 30.45452
786.20 30.68929
786.30 30.80939
786.40 30.80312
786.50 30.69356
786.60 30.52152
786.70 30.30639
786.80 30.06043
786.90 29.81774
787.00 29.58858
787.10 29.3657
787.20 29.15556
787.30 28.97121
787.40 28.82196
787.50 28.73028
787.60 28.73737
787.70 28.87797
787.80 29.14854
787.90 29.5179
788.00 29.92904
788.10 30.31918
788.20 30.64594
788.30 30.87406
788.40 31.01721
788.50 31.12418
788.60 31.21457
788.70 31.30428
788.80 31.42814
788.90 31.6069
789.00 31.82208
789.10 32.02514
789.20 32.17126
789.30 32.22058
789.40 32.14643
789.50 31.94485
789.60 31.63232
789.70 31.2473
789.80 30.83097
789.90 30.4307
790.00 30.12353
790.10 29.97887
790.20 30.00735
790.30 30.16657
790.40 30.39063
790.50 30.61467
790.60 30.79184
790.70 30.89928
790.80 30.93798
790.90 30.94003
791.00 30.95205
791.10 31.02762
791.20 31.19874
791.30 31.44918
791.40 31.72378
791.50 31.94268
791.60 32.05299
791.70 32.0464
791.80 31.95095
791.90 31.82498
792.00 31.70823
792.10 31.59971
792.20 31.48343
792.30 31.34454
792.40 31.17664
792.50 30.98298
792.60 30.79181
792.70 30.6559
792.80 30.63399
792.90 30.79014
793.00 31.16611
793.10 31.74786
793.20 32.45552
793.30 33.15953
793.40 33.72811
793.50 34.07007
793.60 34.14023
793.70 33.93437
793.80 33.48831
793.90 32.87099
794.00 32.15679
794.10 31.41199
794.20 30.68183
794.30 29.95172
794.40 29.14967
794.50 28.21639
794.60 27.17029
794.70 26.10924
794.80 25.19777
794.90 24.62845
795.00 24.56078
795.10 25.07168
795.20 26.12801
795.30 27.58994
795.40 29.24782
795.50 30.85811
795.60 32.19085
795.70 33.11409
795.80 33.62683
795.90 33.82455
796.00 33.82424
796.10 33.72575
796.20 33.6246
796.30 33.59533
796.40 33.66573
796.50 33.82151
796.60 34.03521
796.70 34.28518
796.80 34.5472
796.90 34.79503
797.00 35.01295
797.10 35.18714
797.20 35.29214
797.30 35.30827
797.40 35.26182
797.50 35.20672
797.60 35.15476
797.70 35.09588
797.80 35.03858
797.90 34.98449
798.00 34.91358
798.10 34.79133
798.20 34.5911
798.30 34.31665
798.40 33.99279
798.50 33.65438
798.60 33.35492
798.70 33.15314
798.80 33.08281
798.90 33.15272
799.00 33.3537
799.10 33.63926
799.20 33.93714
799.30 34.19303
799.40 34.38494
799.50 34.51664
799.60 34.61112
799.70 34.69006
799.80 34.77072
799.90 34.87291
800.00 35.02077
800.10 35.22309
800.20 35.46568
800.30 35.71072
800.40 35.92221
800.50 36.09984
800.60 36.25322
800.70 36.39383
800.80 36.54577
800.90 36.73572
801.00 36.98154
801.10 37.29026
801.20 37.6598
801.30 38.07139
801.40 38.48023
801.50 38.83459
801.60 39.08525
801.70 39.21634
801.80 39.25698
801.90 39.24674
802.00 39.26121
802.10 39.37426
802.20 39.61832
802.30 40.01086
802.40 40.53468
802.50 41.14071
802.60 41.77178
802.70 42.36093
802.80 42.83858
802.90 43.16479
803.00 43.34009
803.10 43.38456
803.20 43.31917
803.30 43.16885
803.40 42.94033
803.50 42.65268
803.60 42.35277
803.70 42.07814
803.80 41.86169
803.90 41.72887
804.00 41.70857
804.10 41.83006
804.20 42.09564
804.30 42.46646
804.40 42.87779
804.50 43.27388
804.60 43.6364
804.70 43.98719
804.80 44.37996
804.90 44.87104
805.00 45.49173
805.10 46.2215
805.20 47.00614
805.30 47.80042
805.40 48.54681
805.50 49.18356
805.60 49.6795
805.70 50.01906
805.80 50.2163
805.90 50.32194
806.00 50.38219
806.10 50.4235
806.20 50.445
806.30 50.4365
806.40 50.39258
806.50 50.32296
806.60 50.25997
806.70 50.23186
806.80 50.24901
806.90 50.31386
807.00 50.43664
807.10 50.65721
807.20 51.01519
807.30 51.51231
807.40 52.11763
807.50 52.7807
807.60 53.44406
807.70 54.05491
807.80 54.57929
807.90 55.02449
808.00 55.42514
808.10 55.80964
808.20 56.19395
808.30 56.57473
808.40 56.92265
808.50 57.17494
808.60 57.27098
808.70 57.2005
808.80 57.00476
808.90 56.75526
809.00 56.53149
809.10 56.3901
809.20 56.36274
809.30 56.44246
809.40 56.56466
809.50 56.65593
809.60 56.66652
809.70 56.57818
809.80 56.42396
809.90 56.27438
810.00 56.19839
810.10 56.22633
810.20 56.35487
810.30 56.57799
810.40 56.89767
810.50 57.30583
810.60 57.76362
810.70 58.21876
810.80 58.64059
810.90 59.02436
811.00 59.37078
811.10 59.66159
811.20 59.85688
811.30 59.94077
811.40 59.94997
811.50 59.9715
811.60 60.10419
811.70 60.40147
811.80 60.8547
811.90 61.42493
812.00 62.05351
812.10 62.66052
812.20 63.18935
812.30 63.61043
812.40 63.93315
812.50 64.22864
812.60 64.58119
812.70 65.03971
812.80 65.58516
812.90 66.14573
813.00 66.65152
813.10 67.05317
813.20 67.33278
813.30 67.52478
813.40 67.70744
813.50 67.9605
813.60 68.30853
813.70 68.71068
813.80 69.07308
813.90 69.25199
814.00 69.12195
814.10 68.65615
814.20 67.93037
814.30 67.07093
814.40 66.19673
814.50 65.40343
814.60 64.78577
814.70 64.41294
814.80 64.29425
814.90 64.39702
815.00 64.67657
815.10 65.08482
815.20 65.57494
815.30 66.12581
815.40 66.72256
815.50 67.30828
815.60 67.80109
815.70 68.14296
815.80 68.34719
815.90 68.49448
816.00 68.67367
816.10 68.94723
816.20 69.35249
816.30 69.88761
816.40 70.50796
816.50 71.16381
816.60 71.81547
816.70 72.43084
816.80 72.98174
816.90 73.45734
817.00 73.87887
817.10 74.27811
817.20 74.65302
817.30 74.95708
817.40 75.10551
817.50 74.99377
817.60 74.52624
817.70 73.63075
817.80 72.24966
817.90 70.32283
818.00 67.85575
818.10 64.98414
818.20 61.97373
818.30 59.18935
818.40 57.00992
818.50 55.71629
818.60 55.41627
818.70 56.01689
818.80 57.22839
818.90 58.61067
819.00 59.66939
819.10 59.98694
819.20 59.34149
819.30 57.80793
819.40 55.71892
819.50 53.54056
819.60 51.76317
819.70 50.77129
819.80 50.7616
819.90 51.74925
820.00 53.60219
820.10 56.05264
820.20 58.74537
820.30 61.32006
820.40 63.49086
820.50 65.10567
820.60 66.16691
820.70 66.77663
820.80 67.07657
820.90 67.22223
821.00 67.33453
821.10 67.48308
821.20 67.70878
821.30 68.00983
821.40 68.33664
821.50 68.63621
821.60 68.89097
821.70 69.13069
821.80 69.40741
821.90 69.77191
822.00 70.23878
822.10 70.76955
822.20 71.29332
822.30 71.74768
822.40 72.13506
822.50 72.49268
822.60 72.8485
822.70 73.22077
822.80 73.61546
822.90 74.02968
823.00 74.44238
823.10 74.80336
823.20 75.05671
823.30 75.17376
823.40 75.17383
823.50 75.12157
823.60 75.10919
823.70 75.22677
823.80 75.5143
823.90 75.97121
824.00 76.56594
824.10 77.24652
824.20 77.9511
824.30 78.60583
824.40 79.15959
824.50 79.60834
824.60 79.97292
824.70 80.23635
824.80 80.33965
824.90 80.21631
825.00 79.82534
825.10 79.16459
825.20 78.27053
825.30 77.21944
825.40 76.13797
825.50 75.18961
825.60 74.54692
825.70 74.34326
825.80 74.59564
825.90 75.21186
826.00 76.03854
826.10 76.91609
826.20 77.7201
826.30 78.36602
826.40 78.78728
826.50 78.93757
826.60 78.83378
826.70 78.54615
826.80 78.14639
826.90 77.6821
827.00 77.17824
827.10 76.66683
827.20 76.22047
827.30 75.93631
827.40 75.89535
827.50 76.13289
827.60 76.61332
827.70 77.24227
827.80 77.90115
827.90 78.45872
828.00 78.78473
828.10 78.80623
828.20 78.52075
828.30 77.98149
828.40 77.29668
828.50 76.57349
828.60 75.87839
828.70 75.20841
828.80 74.51472
828.90 73.76743
829.00 72.97546
829.10 72.18158
829.20 71.45572
829.30 70.88185
829.40 70.51895
829.50 70.36467
829.60 70.37796
829.70 70.49382
829.80 70.59227
829.90 70.54514
830.00 70.29043
830.10 69.85991
830.20 69.35374
830.30 68.87195
830.40 68.48024
830.50 68.21785
830.60 68.11345
830.70 68.17564
830.80 68.38265
830.90 68.69166
831.00 69.04202
831.10 69.3786
831.20 69.67798
831.30 69.95944
831.40 70.26923
831.50 70.65468
831.60 71.14599
831.70 71.7501
831.80 72.45936
831.90 73.24906
832.00 74.0555
832.10 74.79507
832.20 75.38427
832.30 75.74393
832.40 75.82048
832.50 75.60752
832.60 75.17173
832.70 74.64282
832.80 74.16397
832.90 73.85459
833.00 73.7766
833.10 73.91857
833.20 74.22294
833.30 74.59463
833.40 74.92055
833.50 75.10926
833.60 75.14871
833.70 75.10212
833.80 75.0631
833.90 75.12774
834.00 75.34613
834.10 75.71581
834.20 76.2144
834.30 76.78036
834.40 77.33527
834.50 77.81816
834.60 78.17201
834.70 78.35861
834.80 78.37809
834.90 78.26306
835.00 78.01681
835.10 77.64237
835.20 77.19052
835.30 76.72128
835.40 76.29411
835.50 75.95909
835.60 75.73182
835.70 75.61698
835.80 75.60891
835.90 75.69203
836.00 75.84926
836.10 76.05581
836.20 76.2786
836.30 76.49416
836.40 76.7352
836.50 77.05264
836.60 77.45957
836.70 77.93924
836.80 78.44871
836.90 78.91436
837.00 79.21963
837.10 79.24361
837.20 78.93091
837.30 78.31343
837.40 77.49845
837.50 76.64573
837.60 75.96698
837.70 75.67244
837.80 75.85123
837.90 76.43291
838.00 77.24023
838.10 78.06758
838.20 78.70958
838.30 78.9623
838.40 78.70562
838.50 77.94458
838.60 76.79603
838.70 75.4641
838.80 74.18656
838.90 73.1866
839.00 72.57567
839.10 72.32915
839.20 72.40902
839.30 72.80688
839.40 73.51713
839.50 74.48742
839.60 75.63262
839.70 76.90253
839.80 78.24972
839.90 79.60176
840.00 80.82225
840.10 81.73424
840.20 82.225
840.30 82.2781
840.40 82.00513
840.50 81.60256
840.60 81.22324
840.70 80.95684
840.80 80.8261
840.90 80.82429
841.00 80.9746
841.10 81.28751
841.20 81.74587
841.30 82.27812
841.40 82.79045
841.50 83.21193
841.60 83.45592
841.70 83.4314
841.80 83.06781
841.90 82.36745
842.00 81.44109
842.10 80.47217
842.20 79.66078
842.30 79.15374
842.40 79.00042
842.50 79.1661
842.60 79.5648
842.70 80.11156
842.80 80.68988
842.90 81.13684
843.00 81.28493
843.10 80.94753
843.20 79.97411
843.30 78.33814
843.40 76.16272
843.50 73.68517
843.60 71.21334
843.70 69.05617
843.80 67.42283
843.90 66.36926
844.00 65.80415
844.10 65.51524
844.20 65.27676
844.30 64.92405
844.40 64.37991
844.50 63.71201
844.60 63.07664
844.70 62.59614
844.80 62.28989
844.90 62.09161
845.00 61.90132
845.10 61.612
845.20 61.14284
845.30 60.46637
845.40 59.62236
845.50 58.72526
845.60 57.91708
845.70 57.31915
845.80 57.00909
845.90 56.98109
846.00 57.16588
846.10 57.46737
846.20 57.79005
846.30 58.05704
846.40 58.24183
846.50 58.35732
846.60 58.40454
846.70 58.40362
846.80 58.3687
846.90 58.29202
847.00 58.1793
847.10 58.04744
847.20 57.90374
847.30 57.76399
847.40 57.64941
847.50 57.56681
847.60 57.52911
847.70 57.53762
847.80 57.52714
847.90 57.41015
848.00 57.17681
848.10 56.86596
848.20 56.53588
848.30 56.27339
848.40 56.15769
848.50 56.23317
848.60 56.52708
848.70 57.06108
848.80 57.83396
848.90 58.79545
849.00 59.8468
849.10 60.873
849.20 61.77931
849.30 62.50238
849.40 62.97183
849.50 63.12294
849.60 62.95356
849.70 62.52057
849.80 61.93448
849.90 61.38309
850.00 61.05333
850.10 61.02012
850.20 61.23816
850.30 61.61218
850.40 62.04121
850.50 62.42476
850.60 62.66552
850.70 62.70216
850.80 62.55296
850.90 62.30277
851.00 62.05116
851.10 61.86044
851.20 61.74283
851.30 61.62242
851.40 61.37464
851.50 60.90895
851.60 60.16151
851.70 59.06996
851.80 57.61138
851.90 55.86
852.00 54.01289
852.10 52.37134
852.20 51.23514
852.30 50.80748
852.40 51.16239
852.50 52.25496
852.60 53.93518
852.70 55.96787
852.80 58.06147
852.90 59.93747
853.00 61.41872
853.10 62.47709
853.20 63.18834
853.30 63.65571
853.40 63.95811
853.50 64.11247
853.60 64.14472
853.70 64.14385
853.80 64.20872
853.90 64.39193
854.00 64.69578
854.10 65.10168
854.20 65.60028
854.30 66.18029
854.40 66.82306
854.50 67.50451
854.60 68.20463
854.70 68.90913
854.80 69.61226
854.90 70.30751
855.00 70.95452
855.10 71.48448
855.20 71.83368
855.30 71.98342
855.40 71.96583
855.50 71.82864
855.60 71.59681
855.70 71.28269
855.80 70.91222
855.90 70.52209
856.00 70.1378
856.10 69.78485
856.20 69.4991
856.30 69.32746
856.40 69.31972
856.50 69.48853
856.60 69.80439
856.70 70.20571
856.80 70.5995
856.90 70.89215
857.00 71.03901
857.10 71.05057
857.20 70.95452
857.30 70.78203
857.40 70.5908
857.50 70.45876
857.60 70.46343
857.70 70.64797
857.80 70.96704
857.90 71.33362
858.00 71.69083
858.10 72.00117
858.20 72.24588
858.30 72.43976
858.40 72.62388
858.50 72.82548
858.60 73.04555
858.70 73.2661
858.80 73.44888
858.90 73.5558
859.00 73.55044
859.10 73.42197
859.20 73.23511
859.30 73.08624
859.40 73.04648
859.50 73.15853
859.60 73.4211
859.70 73.79793
859.80 74.22653
859.90 74.64293
860.00 74.99541
860.10 75.25957
860.20 75.43186
860.30 75.50556
860.40 75.48146
860.50 75.3406
860.60 75.03523
860.70 74.51145
860.80 73.69412
860.90 72.52292
861.00 71.01951
861.10 69.24231
861.20 67.25247
861.30 65.1413
861.40 63.04148
861.50 61.08904
861.60 59.39791
861.70 58.04319
861.80 57.03773
861.90 56.35413
862.00 55.91484
862.10 55.61152
862.20 55.37323
862.30 55.14756
862.40 54.86837
862.50 54.48714
862.60 53.99774
862.70 53.43584
862.80 52.85937
862.90 52.32049
863.00 51.86326
863.10 51.55403
863.20 51.46957
863.30 51.64131
863.40 52.04862
863.50 52.6401
863.60 53.33565
863.70 54.04145
863.80 54.67314
863.90 55.18594
864.00 55.58881
864.10 55.90094
864.20 56.12481
864.30 56.28201
864.40 56.42185
864.50 56.57352
864.60 56.73891
864.70 56.93867
864.80 57.23263
864.90 57.69509
865.00 58.37059
865.10 59.24601
865.20 60.25497
865.30 61.30652
865.40 62.31854
865.50 63.22546
865.60 63.99012
865.70 64.62736
865.80 65.16301
865.90 65.59683
866.00 65.89981
866.10 66.04239
866.20 66.0323
866.30 65.89836
866.40 65.65876
866.50 65.32111
866.60 64.87073
866.70 64.30357
866.80 63.64014
866.90 62.91926
867.00 62.21607
867.10 61.61146
867.20 61.18735
867.30 61.04754
867.40 61.30594
867.50 62.00019
867.60 63.03199
867.70 64.18335
867.80 65.20018
867.90 65.89329
868.00 66.20165
868.10 66.14796
868.20 65.81208
868.30 65.33542
868.40 64.8657
868.50 64.49254
868.60 64.22926
868.70 64.00589
868.80 63.67727
868.90 63.07796
869.00 62.06068
869.10 60.55595
869.20 58.60025
869.30 56.32536
869.40 53.93861
869.50 51.70066
869.60 49.85807
869.70 48.56898
869.80 47.89069
869.90 47.8008
870.00 48.20136
870.10 48.93854
870.20 49.83913
870.30 50.73619
870.40 51.49494
870.50 52.01787
870.60 52.25646
870.70 52.21294
870.80 51.91665
870.90 51.39528
871.00 50.67175
871.10 49.81276
871.20 48.93257
871.30 48.14828
871.40 47.55592
871.50 47.21033
871.60 47.10794
871.70 47.20536
871.80 47.45699
871.90 47.82318
872.00 48.26899
872.10 48.77935
872.20 49.3696
872.30 50.0776
872.40 50.96052
872.50 52.05033
872.60 53.31199
872.70 54.63196
872.80 55.84468
872.90 56.79469
873.00 57.37435
873.10 57.52564
873.20 57.24224
873.30 56.60159
873.40 55.76151
873.50 54.92132
873.60 54.27845
873.70 53.97235
873.80 54.05396
873.90 54.51779
874.00 55.32036
874.10 56.39317
874.20 57.64095
874.30 58.91256
874.40 60.01913
874.50 60.8025
874.60 61.18598
874.70 61.17533
874.80 60.86934
874.90 60.4266
875.00 60.00964
875.10 59.76606
875.20 59.79429
875.30 60.10657
875.40 60.67205
875.50 61.4573
875.60 62.42066
875.70 63.53082
875.80 64.78585
875.90 66.11686
876.00 67.34663
876.10 68.27854
876.20 68.75926
876.30 68.7101
876.40 68.10772
876.50 67.04303
876.60 65.79504
876.70 64.75184
876.80 64.25501
876.90 64.51371
877.00 65.61116
877.10 67.50745
877.20 70.02253
877.30 72.86856
877.40 75.64887
877.50 77.94825
877.60 79.42994
877.70 79.86895
877.80 79.24651
877.90 77.7466
878.00 75.66873
878.10 73.37563
878.20 71.27403
878.30 69.72358
878.40 68.91106
878.50 68.80929
878.60 69.22766
878.70 69.93825
878.80 70.81897
878.90 71.7909
879.00 72.73863
879.10 73.59926
879.20 74.41098
879.30 75.24145
879.40 76.1159
879.50 76.99682
879.60 77.72047
879.70 78.04187
879.80 77.75365
879.90 76.74157
880.00 75.02909
880.10 72.79845
880.20 70.33378
880.30 67.9522
880.40 65.96481
880.50 64.61732
880.60 64.06309
880.70 64.37331
880.80 65.51386
880.90 67.35612
881.00 69.77341
881.10 72.66153
881.20 75.89858
881.30 79.33231
881.40 82.75793
881.50 85.91489
881.60 88.52614
881.70 90.37333
881.80 91.34843
881.90 91.42931
882.00 90.66116
882.10 89.16023
882.20 87.11856
882.30 84.83812
882.40 82.63087
882.50 80.75313
882.60 79.42603
882.70 78.76586
882.80 78.75076
882.90 79.26988
883.00 80.17456
883.10 81.31163
883.20 82.54828
883.30 83.79807
883.40 85.01957
883.50 86.21486
883.60 87.45209
883.70 88.78616
883.80 90.20521
883.90 91.59319
884.00 92.70375
884.10 93.24569
884.20 92.9845
884.30 91.76994
884.40 89.58919
884.50 86.6086
884.60 83.2036
884.70 79.95055
884.80 77.47983
884.90 76.31714
885.00 76.71042
885.10 78.53121
885.20 81.33657
885.30 84.48066
885.40 87.25929
885.50 89.09365
885.60 89.63661
885.70 88.81822
885.80 86.84465
885.90 84.13976
886.00 81.24078
886.10 78.66414
886.20 76.80334
886.30 75.83071
886.40 75.69635
886.50 76.1954
886.60 77.01306
886.70 77.74379
886.80 77.94255
886.90 77.28028
887.00 75.6737
887.10 73.29282
887.20 70.51163
887.30 67.86683
887.40 65.93984
887.50 65.15734
887.60 65.6913
887.70 67.42756
887.80 69.97998
887.90 72.80008
888.00 75.33201
888.10 77.14992
888.20 78.00757
888.30 77.94409
888.40 77.33101
888.50 76.68881
888.60 76.43344
888.70 76.76832
888.80 77.67627
888.90 78.93974
889.00 80.19706
889.10 81.04336
889.20 81.14211
889.30 80.31114
889.40 78.58656
889.50 76.26602
889.60 73.91111
889.70 72.09471
889.80 71.16776
889.90 71.30999
890.00 72.60302
890.10 74.94396
890.20 77.98294
890.30 81.23201
890.40 84.16833
890.50 86.32155
890.60 87.38792
890.70 87.28042
890.80 86.14544
890.90 84.34694
891.00 82.3558
891.10 80.63102
891.20 79.54189
891.30 79.293
891.40 79.92619
891.50 81.36326
891.60 83.41181
891.70 85.8104
891.80 88.23913
891.90 90.34404
892.00 91.81163
892.10 92.40312
892.20 92.01457
892.30 90.70924
892.40 88.70168
892.50 86.33241
892.60 84.0268
892.70 82.23161
892.80 81.34031
892.90 81.60452
893.00 83.06121
893.10 85.47229
893.20 88.38667
893.30 91.25944
893.40 93.53855
893.50 94.79828
893.60 94.78117
893.70 93.42348
893.80 90.88833
893.90 87.48486
894.00 83.58748
894.10 79.64987
894.20 76.12803
894.30 73.36672
894.40 71.59053
894.50 70.90235
894.60 71.27151
894.70 72.52187
894.80 74.34289
894.90 76.3534
895.00 78.21232
895.10 79.72259
895.20 80.8849
895.30 81.92687
895.40 83.20108
895.50 84.95662
895.60 87.19534
895.70 89.73571
895.80 92.26538
895.90 94.34296
896.00 95.56519
896.10 95.69983
896.20 94.74872
896.30 92.95951
896.40 90.73935
896.50 88.53281
896.60 86.72934
896.70 85.58747
896.80 85.18574
896.90 85.4817
897.00 86.38297
897.10 87.71706
897.20 89.27413
897.30 90.92539
897.40 92.58206
897.50 94.15622
897.60 95.53614
897.70 96.59253
897.80 97.24819
897.90 97.52295
898.00 97.54942
898.10 97.54727
898.20 97.80032
898.30 98.56012
898.40 99.93412
898.50 101.843
898.60 103.9905
898.70 105.8895
898.80 107.0524
898.90 107.2131
899.00 106.3784
899.10 104.7668
899.20 102.717
899.30 100.5629
899.40 98.58083
899.50 96.97508
899.60 95.80496
899.70 94.98642
899.80 94.45845
899.90 94.31651
900.00 92.94193
900.10 92.87196
900.20 95.45072
900.30 98.1006
900.40 104.2354
900.50 110.3702
900.60 109.0445
900.70 104.6715
900.80 100.9333
900.90 98.14694
901.00 95.34363
901.10 92.34495
901.20 89.34628
901.30 92.38413
901.40 97.2251
901.50 100.7685
901.60 102.7886
901.70 104.8621
901.80 107.2384
901.90 109.6147
902.00 108.0716
902.10 105.7257
902.20 102.8917
902.30 99.60709
902.40 96.5101
902.50 94.11877
902.60 91.72744
902.70 87.33207
902.80 82.71404
902.90 82.22752
903.00 84.61205
903.10 87.44457
903.20 91.48832
903.30 95.53208
903.40 103.6956
903.50 112.0307
903.60 115.8776
903.70 117.3078
903.80 118.192
903.90 118.0165
904.00 117.7408
904.10 114.2261
904.20 110.7114
904.30 108.4844
904.40 106.7583
904.50 105.8509
904.60 106.1716
904.70 106.4284
904.80 106.0398
904.90 105.6512
905.00 103.0819
905.10 99.89743
905.20 97.15969
905.30 94.92568
905.40 93.22806
905.50 94.34644
905.60 95.46482
905.70 98.32585
905.80 101.4944
905.90 102.1955
906.00 100.7084
906.10 98.78389
906.20 95.30831
906.30 91.83272
906.40 92.51471
906.50 93.60789
906.60 95.25512
906.70 97.2717
906.80 99.3263
906.90 101.474
907.00 103.6216
907.10 99.53514
907.20 95.32141
907.30 96.68923
907.40 100.8062
907.50 104.9812
907.60 109.2642
907.70 113.5418
907.80 117.6923
907.90 121.8429
908.00 121.0688
908.10 118.4732
908.20 116.1227
908.30 114.1105
908.40 112.0668
908.50 109.7681
908.60 107.4695
908.70 105.0157
908.80 102.5233
908.90 102.0881
909.00 103.7941
909.10 105.5027
909.20 107.2236
909.30 108.9444
909.40 110.533
909.50 112.1019
909.60 111.804
909.70 109.9787
909.80 108.4396
909.90 107.8069
910.00 107.1743
910.10 107.078
910.20 107.0222
910.30 106.8855
910.40 106.6993
910.50 106.0576
910.60 104.4019
910.70 102.7463
910.80 106.461
910.90 110.1757
911.00 113.5648
911.10 116.8075
911.20 118.765
911.30 118.6257
911.40 118.1592
911.50 113.3453
911.60 108.5314
911.70 111.222
911.80 116.2824
911.90 119.6824
912.00 121.0528
912.10 122.6832
912.20 126.0528
912.30 129.4224
912.40 130.0911
912.50 130.1669
912.60 130.6557
912.70 131.5411
912.80 131.5512
912.90 128.0602
913.00 124.5693
913.10 123.8585
913.20 123.4913
913.30 124.2238
913.40 125.7525
913.50 126.7801
913.60 126.4526
913.70 126.125
913.80 122.6424
913.90 119.0284
914.00 116.5438
914.10 114.6675
914.20 112.6938
914.30 110.5309
914.40 108.5186
914.50 111.3742
914.60 114.2297
914.70 115.0938
914.80 115.1834
914.90 116.0655
915.00 118.0881
915.10 119.9203
915.20 120.0403
915.30 120.1603
915.40 123.5069
915.50 127.7112
915.60 132.7528
915.70 138.7014
915.80 143.5917
915.90 143.3148
916.00 143.0379
916.10 136.8091
916.20 129.6113
916.30 123.2106
916.40 117.462
916.50 114.2564
916.60 119.1038
916.70 123.9511
916.80 130.1349
916.90 136.4193
917.00 138.5047
917.10 138.0165
917.20 136.5918
917.30 133.0825
917.40 129.5733
917.50 125.5952
917.60 121.617
917.70 121.4201
917.80 122.922
917.90 124.468
918.00 126.0861
918.10 127.6815
918.20 128.9755
918.30 130.2695
918.40 129.2429
918.50 127.4834
918.60 127.5628
918.70 129.8898
918.80 132.4599
918.90 136.5232
919.00 140.5865
919.10 144.2554
919.20 147.8436
919.30 147.4392
919.40 143.3494
919.50 139.1017
919.60 134.2602
919.70 129.4187
919.80 130.7064
919.90 132.6751
920.00 135.9374
920.10 140.0987
920.20 143.3406
920.30 144.2188
920.40 145.097
920.50 141.5906
920.60 137.9486
920.70 134.4723
920.80 131.0813
920.90 127.1395
921.00 122.1746
921.10 117.3987
921.20 117.1601
921.30 116.9215
921.40 119.6381
921.50 123.4476
921.60 127.2338
921.70 130.9879
921.80 134.613
921.90 137.1955
922.00 139.7779
922.10 139.4713
922.20 138.4425
922.30 137.5623
922.40 136.8369
922.50 135.8584
922.60 133.7269
922.70 131.5954
922.80 129.4898
922.90 127.3879
923.00 123.7517
923.10 118.9099
923.20 115.674
923.30 117.2558
923.40 118.8376
923.50 121.5974
923.60 124.4191
923.70 126.8262
923.80 129.0001
923.90 131.2528
924.00 133.6656
924.10 136.1233
924.20 140.7793
924.30 145.4353
924.40 145.8171
924.50 144.4531
924.60 140.8007
924.70 133.7157
924.80 126.8849
924.90 122.6244
925.00 118.3639
925.10 116.7429
925.20 115.8665
925.30 117.3461
925.40 121.4825
925.50 125.6276
925.60 129.8189
925.70 134.0101
925.80 137.0173
925.90 139.8156
926.00 137.7364
926.10 131.5022
926.20 126.6972
926.30 126.4179
926.40 126.1386
926.50 130.5848
926.60 135.3866
926.70 139.1929
926.80 142.3891
926.90 142.9461
927.00 137.6288
927.10 132.3115
927.20 128.4106
927.30 124.5097
927.40 122.148
927.50 120.4779
927.60 118.4469
927.70 115.8272
927.80 113.1954
927.90 110.4016
928.00 107.6077
928.10 107.5166
928.20 108.2789
928.30 110.7706
928.40 115.3758
928.50 119.4295
928.60 120.3581
928.70 121.2866
928.80 117.6683
928.90 113.184
929.00 111.1314
929.10 111.2352
929.20 112.0082
929.30 115.1541
929.40 118.2999
929.50 118.5984
929.60 118.6153
929.70 118.506
929.80 118.3126
929.90 118.9465
930.00 121.6062
930.10 124.2659
930.20 122.5965
930.30 120.8388
930.40 118.7633
930.50 116.5384
930.60 114.3235
930.70 112.1255
930.80 110.0265
930.90 109.4786
931.00 108.9307
931.10 110.533
931.20 112.8521
931.30 116.9083
931.40 123.1755
931.50 128.554
931.60 128.1737
931.70 127.8997
931.80 127.6256
931.90 130.3382
932.00 133.3106
932.10 135.7274
932.20 135.9218
932.30 136.1162
932.40 133.4694
932.50 127.7446
932.60 122.0198
932.70 119.5983
932.80 118.2201
932.90 116.9696
933.00 118.7865
933.10 120.6033
933.20 121.3802
933.30 120.0455
933.40 118.7109
933.50 117.6343
933.60 116.7228
933.70 115.8113
933.80 116.454
933.90 117.2888
934.00 118.5223
934.10 121.7026
934.20 124.8829
934.30 126.7361
934.40 126.9674
934.50 127.1987
934.60 127.7476
934.70 128.4082
934.80 129.0666
934.90 129.615
935.00 130.1635
935.10 130.0404
935.20 128.3506
935.30 126.6608
935.40 123.5602
935.50 119.438
935.60 115.3158
935.70 115.0828
935.80 115.431
935.90 116.5531
936.00 122.0613
936.10 127.5694
936.20 131.9534
936.30 134.8473
936.40 137.7412
936.50 137.1033
936.60 135.0228
936.70 132.9423
936.80 129.2417
936.90 125.5411
937.00 122.7219
937.10 122.1691
937.20 121.6162
937.30 122.2524
937.40 123.8228
937.50 125.3931
937.60 126.1907
937.70 126.8411
937.80 127.1864
937.90 125.4898
938.00 123.7933
938.10 123.0556
938.20 123.6977
938.30 124.3398
938.40 124.9374
938.50 125.5149
938.60 126.0924
938.70 124.4069
938.80 122.6752
938.90 121.9034
939.00 123.8638
939.10 125.8242
939.20 127.7339
939.30 129.6004
939.40 131.467
939.50 132.4932
939.60 133.3473
939.70 133.6337
939.80 129.3258
939.90 125.0179
940.00 121.9291
940.10 120.747
940.20 119.565
940.30 121.4443
940.40 124.7642
940.50 128.0841
940.60 132.6578
940.70 137.2837
940.80 140.2798
940.90 138.3861
941.00 136.4925
941.10 135.1614
941.20 134.3292
941.30 133.4971
941.40 133.472
941.50 133.6363
941.60 133.7851
941.70 133.7942
941.80 133.8032
941.90 132.6383
942.00 129.558
942.10 126.4777
942.20 126.1439
942.30 127.1629
942.40 128.1819
942.50 128.0498
942.60 127.8572
942.70 128.7288
942.80 133.1633
942.90 137.5979
943.00 141.7291
943.10 145.5802
943.20 149.4313
943.30 153.1863
943.40 156.9173
943.50 159.9281
943.60 155.6565
943.70 151.3849
943.80 148.0067
943.90 146.1496
944.00 144.2924
944.10 142.7653
944.20 141.4081
944.30 140.0509
944.40 139.273
944.50 138.5321
944.60 137.5309
944.70 135.6583
944.80 133.7858
944.90 133.5158
945.00 134.7854
945.10 136.055
945.20 138.9267
945.30 142.1989
945.40 145.2585
945.50 145.8733
945.60 146.4882
945.70 146.32
945.80 144.8188
945.90 143.3175
946.00 140.6269
946.10 137.2959
946.20 133.9649
946.30 132.9757
946.40 132.1359
946.50 132.0289
946.60 134.5199
946.70 137.011
946.80 139.4288
946.90 141.7763
947.00 144.1238
947.10 145.0588
947.20 145.6184
947.30 146.2338
947.40 147.4911
947.50 148.7484
947.60 149.3228
947.70 148.7345
947.80 148.1463
947.90 147.0318
948.00 145.6341
948.10 144.2363
948.20 144.1389
948.30 144.1246
948.40 145.0961
948.50 149.563
948.60 154.03
948.70 158.4344
948.80 162.7787
948.90 167.1231
949.00 168.3984
949.10 168.9064
949.20 169.0041
949.30 164.3832
949.40 159.7623
949.50 156.4186
949.60 155.2497
949.70 154.0808
949.80 153.9315
949.90 154.3312
950.00 154.7309
950.10 155.9591
950.20 157.2402
950.30 157.9326
950.40 156.6545
950.50 155.3764
950.60 156.1445
950.70 158.8786
950.80 161.6127
950.90 161.4741
951.00 160.6174
951.10 159.9063
951.20 160.6674
951.30 161.4284
951.40 160.5369
951.50 156.8318
951.60 153.1267
951.70 149.9959
951.80 147.1609
951.90 144.326
952.00 143.5125
952.10 142.8054
952.20 143.9182
952.30 151.1239
952.40 158.3296
952.50 165.1472
952.60 171.6064
952.70 178.0656
952.80 176.3943
952.90 172.8158
953.00 169.0094
953.10 163.151
953.20 157.2927
953.30 152.8564
953.40 150.7404
953.50 148.6243
953.60 150.3829
953.70 154.0498
953.80 157.7167
953.90 157.1132
954.00 156.3316
954.10 155.6818
954.20 155.4491
954.30 155.2163
954.40 156.4014
954.50 158.844
954.60 161.2866
954.70 166.3873
954.80 172.0715
954.90 177.2458
955.00 178.2941
955.10 179.3424
955.20 178.9276
955.30 176.3181
955.40 173.7085
955.50 171.2113
955.60 168.767
955.70 166.3226
955.80 165.0374
955.90 163.7881
956.00 162.7715
956.10 162.4173
956.20 162.0632
956.30 162.5873
956.40 163.8299
956.50 165.0724
956.60 165.9004
956.70 166.6495
956.80 167.3641
956.90 167.8267
957.00 168.2893
957.10 168.5776
957.20 168.6153
957.30 168.6529
957.40 168.5512
957.50 168.3899
957.60 168.2285
957.70 166.5295
957.80 164.8149
957.90 163.2591
958.00 162.1118
958.10 160.9644
958.20 160.0232
958.30 159.2376
958.40 158.452
958.50 155.8915
958.60 153.0178
958.70 150.2462
958.80 148.1023
958.90 145.9583
959.00 143.2631
959.10 139.8371
959.20 136.4112
959.30 135.6198
959.40 135.8528
959.50 136.0866
959.60 136.3937
959.70 136.7009
959.80 137.3601
959.90 138.8411
960.00 140.322
960.10 142.1676
960.20 144.2666
960.30 146.3656
960.40 147.683
960.50 148.8937
960.60 149.8488
960.70 149.4611
960.80 149.0735
960.90 147.3514
961.00 143.9984
961.10 140.6453
961.20 138.8251
961.30 137.5434
961.40 136.3829
961.50 139.1417
961.60 141.9005
961.70 144.9705
961.80 148.7018
961.90 152.4331
962.00 154.6511
962.10 155.9017
962.20 157.1522
962.30 155.7211
962.40 153.9922
962.50 152.2169
962.60 150.2446
962.70 148.2723
962.80 147.014
962.90 146.5294
963.00 146.0448
963.10 147.4432
963.20 149.404
963.30 151.1259
963.40 149.1036
963.50 147.0813
963.60 144.2968
963.70 140.0968
963.80 135.8967
963.90 132.7754
964.00 130.2608
964.10 127.7462
964.20 129.9479
964.30 132.5044
964.40 134.5729
964.50 134.9106
964.60 135.2483
964.70 136.5795
964.80 138.8655
964.90 141.1514
965.00 141.3894
965.10 141.1155
965.20 140.8462
965.30 140.6231
965.40 140.4
965.50 140.521
965.60 141.2031
965.70 141.8852
965.80 145.4489
965.90 150.4319
966.00 155.4149
966.10 156.1097
966.20 156.6257
966.30 157.1019
966.40 157.4584
966.50 157.8149
966.60 158.0275
966.70 158.1174
966.80 158.2073
966.90 159.474
967.00 160.9817
967.10 161.8136
967.20 157.6904
967.30 153.5671
967.40 150.1807
967.50 147.8119
967.60 145.4431
967.70 145.981
967.80 147.7062
967.90 149.4313
968.00 151.8583
968.10 154.2853
968.20 156.2259
968.30 156.9756
968.40 157.7253
968.50 156.8639
968.60 154.8357
968.70 152.8076
968.80 152.1693
968.90 151.7388
969.00 151.5825
969.10 152.8662
969.20 154.1499
969.30 155.9608
969.40 158.416
969.50 160.8712
969.60 162.2265
969.70 163.1952
969.80 164.1243
969.90 164.1028
970.00 164.0814
970.10 163.59
970.20 162.1447
970.30 160.6993
970.40 158.7184
970.50 156.4092
970.60 154.1001
970.70 154.4633
970.80 155.0908
970.90 156.5122
971.00 161.1096
971.10 165.707
971.20 170.099
971.30 174.2771
971.40 178.4553
971.50 178.9206
971.60 178.3989
971.70 177.6425
971.80 174.186
971.90 170.7295
972.00 168.3124
972.10 167.6653
972.20 167.0181
972.30 167.5408
972.40 168.6661
972.50 169.7914
972.60 168.449
972.70 166.9768
972.80 165.2813
972.90 162.916
973.00 160.5507
973.10 159.4176
973.20 159.3342
973.30 159.2507
973.40 159.419
973.50 159.6388
973.60 159.7933
973.70 159.4688
973.80 159.1444
973.90 159.1488
974.00 159.6076
974.10 160.0664
974.20 159.789
974.30 159.2109
974.40 158.6328
974.50 158.1952
974.60 157.7576
974.70 157.5229
974.80 157.7852
974.90 158.0474
975.00 159.4174
975.10 161.5573
975.20 163.6971
975.30 164.6372
975.40 165.4137
975.50 166.2071
975.60 167.0832
975.70 167.9593
975.80 168.496
975.90 168.6344
976.00 168.7727
976.10 169.6417
976.20 170.7415
976.30 171.8004
976.40 172.0831
976.50 172.3659
976.60 172.5129
976.70 172.3967
976.80 172.2805
976.90 171.3499
977.00 169.9613
977.10 168.5726
977.20 168.6643
977.30 168.8673
977.40 169.4675
977.50 171.4755
977.60 173.4834
977.70 174.2343
977.80 173.8249
977.90 173.4155
978.00 171.6233
978.10 169.5067
978.20 167.3741
978.30 165.098
978.40 162.8219
978.50 161.4446
978.60 161.4155
978.70 161.3864
978.80 162.0056
978.90 162.9161
979.00 163.8266
979.10 168.1325
979.20 172.5077
979.30 176.3706
979.40 178.916
979.50 181.4614
979.60 182.4353
979.70 182.2237
979.80 182.0121
979.90 181.2062
980.00 180.3036
980.10 179.3904
980.20 178.422
980.30 177.4536
980.40 176.734
980.50 176.3183
980.60 175.9027
980.70 175.019
980.80 173.9792
980.90 172.9644
981.00 172.5497
981.10 172.135
981.20 171.224
981.30 169.3054
981.40 167.3869
981.50 168.0049
981.60 170.1127
981.70 172.2206
981.80 173.4375
981.90 174.5771
982.00 175.5529
982.10 175.9485
982.20 176.3441
982.30 176.6673
982.40 176.9209
982.50 177.1745
982.60 178.0253
982.70 179.0253
982.80 179.7317
982.90 177.7967
983.00 175.8617
983.10 173.919
983.20 171.9641
983.30 170.0093
983.40 169.2713
983.50 169.0799
983.60 168.8886
983.70 169.9203
983.80 170.9769
983.90 172.2871
984.00 174.2491
984.10 176.2111
984.20 177.4649
984.30 178.1844
984.40 178.9038
984.50 176.5962
984.60 173.8362
984.70 170.8062
984.80 166.3581
984.90 161.9101
985.00 159.663
985.10 159.9998
985.20 160.3366
985.30 162.8671
985.40 166.1287
985.50 169.3338
985.60 171.4648
985.70 173.5959
985.80 174.8759
985.90 174.5039
986.00 174.1319
986.10 174.7028
986.20 175.804
986.30 176.9053
986.40 177.3483
986.50 177.7418
986.60 177.6506
986.70 175.9366
986.80 174.2226
986.90 174.1957
987.00 175.7261
987.10 177.2564
987.20 181.2198
987.30 185.7173
987.40 189.6605
987.50 189.1189
987.60 188.5773
987.70 186.2778
987.80 181.4486
987.90 176.6195
988.00 174.9594
988.10 174.5938
988.20 174.2282
988.30 179.1839
988.40 184.1396
988.50 188.1355
988.60 189.8915
988.70 191.6475
988.80 191.2529
988.90 189.3639
989.00 187.4748
989.10 182.5219
989.20 177.1903
989.30 171.0397
989.40 161.1578
989.50 151.2758
989.60 141.3277
989.70 131.308
989.80 121.2883
989.90 115.0304
990.00 109.8334
990.10 104.7792
990.20 101.6214
990.30 98.46361
990.40 94.73914
990.50 90.04981
990.60 85.36048
990.70 82.72144
990.80 81.13862
990.90 79.5558
991.00 80.96918
991.10 82.5074
991.20 83.30168
991.30 81.97859
991.40 80.65551
991.50 79.78898
991.60 79.296
991.70 78.80303
991.80 79.20159
991.90 79.75749
992.00 80.31509
992.10 80.88233
992.20 81.44958
992.30 81.15994
992.40 79.77971
992.50 78.39948
992.60 80.46552
992.70 83.7424
992.80 87.0506
992.90 91.11041
993.00 95.17022
993.10 98.30177
993.20 99.54867
993.30 100.7956
993.40 101.4478
993.50 101.7507
993.60 102.0537
993.70 104.9046
993.80 107.9473
993.90 111.157
994.00 114.9587
994.10 118.7605
994.20 121.3274
994.30 122.7545
994.40 124.1817
994.50 124.6603
994.60 124.9307
994.70 125.2828
994.80 126.2964
994.90 127.3099
995.00 129.0095
995.10 131.6962
995.20 134.3829
995.30 134.7666
995.40 134.2097
995.50 133.6198
995.60 129.7674
995.70 125.9151
995.80 122.4909
995.90 120.0658
996.00 117.6407
996.10 119.4288
996.20 124.0255
996.30 128.6222
996.40 133.3574
996.50 138.1079
996.60 141.1282
996.70 136.7725
996.80 132.4168
996.90 126.1985
997.00 118.0416
997.10 109.8847
997.20 105.8791
997.30 102.9771
997.40 100.6891
997.50 104.6103
997.60 108.5314
997.70 112.0516
997.80 114.9177
997.90 117.7837
998.00 119.1558
998.10 119.8248
998.20 120.4939
998.30 117.6326
998.40 114.6993
998.50 112.2114
998.60 110.8689
998.70 109.5265
998.80 108.6919
998.90 108.2252
999.00 107.7585
999.10 108.4639
999.20 109.3444
999.30 109.7765
999.40 108.0193
999.50 106.2621
999.60 106.9629
999.70 110.4354
999.80 113.908
999.90 119.1851
1000.00 125.0013
1000.10 130.7635
1000.20 135.8079
1000.30 140.8523
1000.40 143.3335
1000.50 141.2577
1000.60 139.1819
1000.70 135.8373
1000.80 131.8391
1000.90 127.8409
1001.00 124.8562
1001.10 121.9137
1001.20 120.2986
1001.30 122.4614
1001.40 124.6243
1001.50 127.3332
1001.60 130.4712
1001.70 133.6093
1001.80 134.9646
1001.90 136.0296
1002.00 136.9662
1002.10 137.1744
1002.20 137.3827
1002.30 138.2725
1002.40 139.9952
1002.50 141.7179
1002.60 142.9583
1002.70 144.0379
1002.80 144.9302
1002.90 142.2617
1003.00 139.5933
1003.10 137.0969
1003.20 134.9199
1003.30 132.7429
1003.40 130.7533
1003.50 128.8645
1003.60 126.9757
1003.70 128.188
1003.80 129.5635
1003.90 131.3494
1004.00 134.3662
1004.10 137.383
1004.20 141.7661
1004.30 147.313
1004.40 152.8598
1004.50 153.3135
1004.60 152.7969
1004.70 151.4637
1004.80 145.1136
1004.90 138.7635
1005.00 131.1621
1005.10 121.968
1005.20 112.774
1005.30 108.2465
1005.40 105.3586
1005.50 102.6149
1005.60 103.3332
1005.70 104.0515
1005.80 105.2482
1005.90 107.3735
1006.00 109.4989
1006.10 111.218
1006.20 112.7085
1006.30 114.1991
1006.40 118.9843
1006.50 123.9799
1006.60 128.8707
1006.70 133.43
1006.80 137.9893
1006.90 140.5775
1007.00 141.4866
1007.10 142.3957
1007.20 141.7433
1007.30 140.7935
1007.40 140.299
1007.50 142.6016
1007.60 144.9043
1007.70 148.5334
1007.80 153.8508
1007.90 159.1681
1008.00 161.8896
1008.10 163.6991
1008.20 165.3662
1008.30 163.6169
1008.40 161.8676
1008.50 159.6061
1008.60 156.3501
1008.70 153.094
1008.80 149.996
1008.90 146.9868
1009.00 143.9776
1009.10 142.7094
1009.20 141.5722
1009.30 141.3168
1009.40 144.0132
1009.50 146.7097
1009.60 152.2766
1009.70 160.3889
1009.80 168.5012
1009.90 174.2553
1010.00 179.5264
1010.10 184.3007
1010.20 185.7502
1010.30 187.1998
1010.40 185.8523
1010.50 180.7972
1010.60 175.742
1010.70 170.4233
1010.80 165.0071
1010.90 159.5681
1011.00 153.3904
1011.10 147.2127
1011.20 141.7452
1011.30 137.6564
1011.40 133.5676
1011.50 131.0834
1011.60 129.5017
1011.70 127.92
1011.80 131.8563
1011.90 136.1447
1012.00 141.3396
1012.10 149.4047
1012.20 157.4699
1012.30 163.5017
1012.40 167.8014
1012.50 172.1011
1012.60 172.8294
1012.70 172.8775
1012.80 172.7391
1012.90 171.4553
1013.00 170.1716
1013.10 166.8539
1013.20 160.9478
1013.30 155.0416
1013.40 147.2401
1013.50 138.7726
1013.60 130.5439
1013.70 128.0487
1013.80 125.5534
1013.90 126.0847
1014.00 132.4912
1014.10 138.8976
1014.20 143.1828
1014.30 146.2749
1014.40 149.3669
1014.50 147.4184
1014.60 145.1482
1014.70 143.8112
1014.80 145.4292
1014.90 147.0472
1015.00 150.3003
1015.10 154.9464
1015.20 159.5925
1015.30 158.9126
1015.40 157.2929
1015.50 155.0263
1015.60 149.0941
1015.70 143.162
1015.80 138.8368
1015.90 136.4754
1016.00 134.1141
1016.10 136.3031
1016.20 140.009
1016.30 143.6559
1016.40 146.1828
1016.50 148.7096
1016.60 150.4432
1016.70 150.7037
1016.80 150.9642
1016.90 150.4371
1017.00 149.4861
1017.10 148.5351
1017.20 154.2076
1017.30 160.2287
1017.40 165.5342
1017.50 168.8032
1017.60 172.0722
1017.70 171.0205
1017.80 166.5739
1017.90 162.1273
1018.00 155.1244
1018.10 147.7052
1018.20 141.0535
1018.30 138.4305
1018.40 135.8075
1018.50 135.4515
1018.60 137.7568
1018.70 140.0621
1018.80 142.9556
1018.90 146.0348
1019.00 148.9751
1019.10 150.0692
1019.20 151.1633
1019.30 151.5364
1019.40 150.6818
1019.50 149.8272
1019.60 149.7725
1019.70 150.1118
1019.80 150.451
1019.90 152.17
1020.00 153.9316
1020.10 155.8654
1020.20 158.2645
1020.30 160.6636
1020.40 163.1968
1020.50 165.8314
1020.60 168.4659
1020.70 167.0202
1020.80 165.0182
1020.90 162.591
1021.00 158.227
1021.10 153.863
1021.20 149.1396
1021.30 144.027
1021.40 138.9143
1021.50 134.9717
1021.60 131.359
1021.70 127.8795
1021.80 125.9319
1021.90 123.9843
1022.00 124.0065
1022.10 127.1098
1022.20 130.213
1022.30 134.268
1022.40 138.7505
1022.50 143.2331
1022.60 145.9775
1022.70 148.7043
1022.80 150.2777
1022.90 149.027
1023.00 147.7764
1023.10 146.4524
1023.20 145.0796
1023.30 143.7067
1023.40 146.2978
1023.50 149.3294
1023.60 152.7359
1023.70 157.6424
1023.80 162.5488
1023.90 166.9932
1024.00 170.9755
1024.10 174.9578
1024.20 174.4533
1024.30 172.8964
1024.40 171.1862
1024.50 168.2364
1024.60 165.2865
1024.70 161.5771
1024.80 156.7744
1024.90 151.9718
1025.00 149.0346
1025.10 146.8593
1025.20 144.7262
1025.30 144.661
1025.40 144.5958
1025.50 144.7508
1025.60 145.3738
1025.70 145.9968
1025.80 143.4073
1025.90 138.8489
1026.00 134.2904
1026.10 129.6031
1026.20 124.9061
1026.30 122.2271
1026.40 126.3044
1026.50 130.3817
1026.60 136.1851
1026.70 143.5193
1026.80 150.8535
1026.90 154.5393
1027.00 157.5301
1027.10 159.636
1027.20 156.3056
1027.30 152.9753
1027.40 150.3193
1027.50 148.5217
1027.60 146.7241
1027.70 144.0867
1027.80 141.1543
1027.90 138.1695
1028.00 134.1872
1028.10 130.2049
1028.20 127.5181
1028.30 127.2373
1028.40 126.9565
1028.50 130.7376
1028.60 136.706
1028.70 142.6744
1028.80 147.6282
1028.90 152.5396
1029.00 155.9681
1029.10 155.1754
1029.20 154.3828
1029.30 153.2226
1029.40 151.7736
1029.50 150.3246
1029.60 149.4571
1029.70 148.6766
1029.80 147.9515
1029.90 147.4966
1030.00 147.0417
1030.10 147.3546
1030.20 148.5333
1030.30 149.712
1030.40 152.0934
1030.50 154.8141
1030.60 157.3488
1030.70 157.7459
1030.80 158.1429
1030.90 158.1984
1031.00 157.7196
1031.10 157.2409
1031.20 156.241
1031.30 155.0071
1031.40 153.7732
1031.50 152.3917
1031.60 151.0087
1031.70 149.7002
1031.80 148.5654
1031.90 147.4306
1032.00 146.14
1032.10 144.7456
1032.20 143.3513
1032.30 143.1599
1032.40 143.1021
1032.50 144.1849
1032.60 149.5584
1032.70 154.9318
1032.80 161.8255
1032.90 170.18
1033.00 178.5345
1033.10 181.6616
1033.20 183.6413
1033.30 184.5377
1033.40 177.4909
1033.50 170.444
1033.60 163.4762
1033.70 156.6175
1033.80 149.7588
1033.90 147.4362
1034.00 146.7914
1034.10 146.2876
1034.20 150.346
1034.30 154.4044
1034.40 157.8048
1034.50 159.9281
1034.60 162.0514
1034.70 161.4353
1034.80 159.2784
1034.90 157.1214
1035.00 154.4133
1035.10 151.6762
1035.20 149.7214
1035.30 150.1137
1035.40 150.506
1035.50 152.8355
1035.60 156.6871
1035.70 160.5387
1035.80 164.4791
1035.90 168.4339
1036.00 172.1161
1036.10 174.3666
1036.20 176.6171
1036.30 178.2616
1036.40 179.2226
1036.50 180.1837
1036.60 180.9854
1036.70 181.7395
1036.80 182.7733
1036.90 187.0237
1037.00 191.2742
1037.10 194.8241
1037.20 197.2313
1037.30 199.6384
1037.40 196.9645
1037.50 192.0079
1037.60 187.0513
1037.70 176.3709
1037.80 165.6327
1037.90 156.8464
1038.00 152.6149
1038.10 148.3834
1038.20 148.9229
1038.30 152.6431
1038.40 156.3634
1038.50 159.2824
1038.60 162.1222
1038.70 163.9933
1038.80 162.2201
1038.90 160.4469
1039.00 158.8286
1039.10 157.3534
1039.20 155.8782
1039.30 157.0893
1039.40 158.89
1039.50 160.8466
1039.60 163.8457
1039.70 166.8448
1039.80 169.3943
1039.90 171.3478
1040.00 173.3013
1040.10 175.2631
1040.20 177.2277
1040.30 179.198
1040.40 181.3073
1040.50 183.4166
1040.60 185.3323
1040.70 186.8887
1040.80 188.445
1040.90 186.2677
1041.00 182.0799
1041.10 177.8922
1041.20 173.1988
1041.30 168.4844
1041.40 165.362
1041.50 166.7711
1041.60 168.1801
1041.70 171.9736
1041.80 177.5659
1041.90 183.1582
1042.00 182.759
1042.10 181.4646
1042.20 179.1543
1042.30 172.2166
1042.40 165.2789
1042.50 158.6012
1042.60 152.2053
1042.70 145.8094
1042.80 147.2118
1042.90 150.6872
1043.00 154.5761
1043.10 162.187
1043.20 169.7979
1043.30 177.2059
1043.40 184.3098
1043.50 191.4136
1043.60 194.1278
1043.70 195.0491
1043.80 195.9614
1043.90 195.9877
1044.00 196.0141
1044.10 195.7245
1044.20 194.7638
1044.30 193.803
1044.40 192.9175
1044.50 192.0781
1044.60 191.2387
1044.70 192.1875
1044.80 193.2708
1044.90 195.5408
1045.00 201.5685
1045.10 207.5962
1045.20 213.2
1045.30 218.4427
1045.40 223.6854
1045.50 221.7849
1045.60 218.6239
1045.70 214.7572
1045.80 206.8918
1045.90 199.0265
1046.00 192.3995
1046.10 187.2264
1046.20 182.0533
1046.30 177.6767
1046.40 173.5517
1046.50 169.3706
1046.60 164.4441
1046.70 159.5177
1046.80 155.8533
1046.90 154.2483
1047.00 152.6433
1047.10 154.005
1047.20 156.7627
1047.30 159.5203
1047.40 160.9262
1047.50 162.3183
1047.60 163.1567
1047.70 162.7027
1047.80 162.2487
1047.90 163.2
1048.00 165.0881
1048.10 166.9762
1048.20 171.8067
1048.30 176.9282
1048.40 181.7058
1048.50 185.1894
1048.60 188.6731
1048.70 190.7473
1048.80 191.5203
1048.90 192.2934
1049.00 192.3318
1049.10 192.2197
1049.20 191.6811
1049.30 188.2883
1049.40 184.8955
1049.50 181.1801
1049.60 177.0539
1049.70 172.9277
1049.80 172.9721
1049.90 174.4066
1050.00 176.0008
1050.10 180.63
1050.20 185.2592
1050.30 188.3886
1050.40 188.8517
1050.50 189.3148
1050.60 187.1441
1050.70 183.6763
1050.80 180.2085
1050.90 175.7049
1051.00 171.1692
1051.10 166.6674
1051.20 162.2525
1051.30 157.8377
1051.40 154.9757
1051.50 153.1928
1051.60 151.4099
1051.70 151.31
1051.80 151.4181
1051.90 152.0414
1052.00 154.7256
1052.10 157.4099
1052.20 160.8562
1052.30 165.0346
1052.40 169.2131
1052.50 174.2169
1052.60 179.4143
1052.70 184.1789
1052.80 185.7704
1052.90 187.3618
1053.00 188.1137
1053.10 187.7526
1053.20 187.3915
1053.30 187.1514
1053.40 186.956
1053.50 186.7306
1053.60 185.7861
1053.70 184.8416
1053.80 184.1738
1053.90 184.0199
1054.00 183.8659
1054.10 183.2665
1054.20 182.4376
1054.30 181.6087
1054.40 178.1175
1054.50 174.5154
1054.60 170.9528
1054.70 167.4973
1054.80 164.0417
1054.90 163.9714
1055.00 166.3525
1055.10 168.7336
1055.20 171.5689
1055.30 174.466
1055.40 176.1003
1055.50 172.3507
1055.60 168.6012
1055.70 163.7591
1055.80 157.8247
1055.90 151.8902
1056.00 149.5379
1056.10 148.0812
1056.20 146.9743
1056.30 148.6981
1056.40 150.4219
1056.50 152.3964
1056.60 154.717
1056.70 157.0377
1056.80 158.137
1056.90 158.7845
1057.00 159.4191
1057.10 159.7415
1057.20 160.0639
1057.30 160.9538
1057.40 162.9452
1057.50 164.9366
1057.60 166.5743
1057.70 168.0216
1057.80 169.4688
1057.90 170.2013
1058.00 170.9039
1058.10 171.0393
1058.20 169.5601
1058.30 168.0808
1058.40 166.9883
1058.50 166.1874
1058.60 165.3865
1058.70 164.2372
1058.80 163.0405
1058.90 162.1866
1059.00 162.7944
1059.10 163.4023
1059.20 163.8573
1059.30 164.1593
1059.40 164.4614
1059.50 164.9747
1059.60 165.5408
1059.70 165.9363
1059.80 164.9512
1059.90 163.9661
1060.00 162.723
1060.10 161.1236
1060.20 159.5242
1060.30 157.8249
1060.40 156.0886
1060.50 154.3658
1060.60 153.0784
1060.70 151.7911
1060.80 151.1774
1060.90 151.8714
1061.00 152.5654
1061.10 154.4238
1061.20 156.9091
1061.30 159.3944
1061.40 160.1245
1061.50 160.7815
1061.60 161.2942
1061.70 161.4166
1061.80 161.539
1061.90 161.7368
1062.00 161.9914
1062.10 162.246
1062.20 164.7536
1062.30 167.5685
1062.40 170.5031
1062.50 173.9483
1062.60 177.3935
1062.70 180.2407
1062.80 182.49
1062.90 184.7394
1063.00 184.048
1063.10 182.6669
1063.20 181.4472
1063.30 181.5337
1063.40 181.6201
1063.50 182.8084
1063.60 185.5181
1063.70 188.2278
1063.80 190.644
1063.90 192.9517
1064.00 195.1441
1064.10 194.5703
1064.20 193.9965
1064.30 193.2172
1064.40 192.0562
1064.50 190.8953
1064.60 190.5512
1064.70 190.6279
1064.80 190.7046
1064.90 189.9527
1065.00 189.1663
1065.10 187.327
1065.20 182.6406
1065.30 177.9542
1065.40 173.409
1065.50 168.9661
1065.60 164.5231
1065.70 164.3632
1065.80 164.7327
1065.90 164.7429
1066.00 163.3158
1066.10 161.8887
1066.20 159.7253
1066.30 156.8545
1066.40 153.9838
1066.50 152.7277
1066.60 151.8504
1066.70 151.4005
1066.80 154.0848
1066.90 156.7691
1067.00 158.7982
1067.10 159.9588
1067.20 161.1194
1067.30 164.677
1067.40 169.0768
1067.50 173.4448
1067.60 177.21
1067.70 180.9753
1067.80 184.3607
1067.90 187.0707
1068.00 189.7807
1068.10 192.0001
1068.20 193.978
1068.30 195.9558
1068.40 197.3647
1068.50 198.7621
1068.60 199.7458
1068.70 199.6662
1068.80 199.5866
1068.90 198.5351
1069.00 196.8084
1069.10 195.0816
1069.20 193.1452
1069.30 191.1854
1069.40 188.5613
1069.50 183.4376
1069.60 178.3139
1069.70 175.1568
1069.80 173.815
1069.90 172.4731
1070.00 173.2774
1070.10 174.5212
1070.20 175.808
1070.30 177.3582
1070.40 178.9085
1070.50 179.0441
1070.60 177.4506
1070.70 175.8571
1070.80 176.3676
1070.90 177.5425
1071.00 178.8184
1071.10 181.6755
1071.20 184.5327
1071.30 187.2138
1071.40 189.5952
1071.50 191.9766
1071.60 193.6994
1071.70 195.1123
1071.80 196.5252
1071.90 196.1691
1072.00 195.7952
1072.10 195.1169
1072.20 193.7286
1072.30 192.3403
1072.40 191.4602
1072.50 190.905
1072.60 190.3499
1072.70 192.0629
1072.80 193.9733
1072.90 195.3873
1073.00 195.1397
1073.10 194.8922
1073.20 194.8537
1073.30 194.9931
1073.40 195.1326
1073.50 195.274
1073.60 195.4159
1073.70 195.8272
1073.80 197.6534
1073.90 199.4796
1074.00 200.6949
1074.10 201.2214
1074.20 201.7478
1074.30 203.52
1074.40 205.6436
1074.50 207.6955
1074.60 208.9224
1074.70 210.1494
1074.80 209.9389
1074.90 207.4803
1075.00 205.0216
1075.10 200.364
1075.20 194.7639
1075.30 189.2058
1075.40 187.7991
1075.50 186.3925
1075.60 186.9101
1075.70 191.5168
1075.80 196.1235
1075.90 199.1609
1076.00 201.2767
1076.10 203.3925
1076.20 201.4493
1076.30 199.2471
1076.40 197.5762
1076.50 197.4992
1076.60 197.4222
1076.70 198.5664
1076.80 200.67
1076.90 202.7737
1077.00 204.0239
1077.10 205.1467
1077.20 205.7088
1077.30 203.7171
1077.40 201.7253
1077.50 200.6425
1077.60 200.5057
1077.70 200.369
1077.80 201.6181
1077.90 203.2136
1078.00 204.745
1078.10 205.757
1078.20 206.769
1078.30 206.5115
1078.40 204.5008
1078.50 202.4901
1078.60 199.8423
1078.70 196.9588
1078.80 194.0477
1078.90 190.477
1079.00 186.9063
1079.10 183.3513
1079.20 179.8256
1079.30 176.2999
1079.40 175.4695
1079.50 176.0276
1079.60 176.5857
1079.70 179.983
1079.80 183.4682
1079.90 186.5683
1080.00 188.6781
1080.10 190.788
1080.20 191.9652
1080.30 192.4943
1080.40 193.0234
1080.50 195.2172
1080.60 197.5959
1080.70 199.6394
1080.80 200.4219
1080.90 201.2045
1081.00 202.0486
1081.10 202.9496
1081.20 203.8505
1081.30 205.2405
1081.40 206.7307
1081.50 208.493
1081.60 211.927
1081.70 215.3609
1081.80 216.4716
1081.90 214.7428
1082.00 213.014
1082.10 209.9773
1082.20 206.5277
1082.30 203.1087
1082.40 200.097
1082.50 197.0853
1082.60 196.0758
1082.70 198.3331
1082.80 200.5904
1082.90 203.7242
1083.00 207.2517
1083.10 210.7792
1083.20 214.2012
1083.30 217.6233
1083.40 220.145
1083.50 220.6626
1083.60 221.1801
1083.70 220.1001
1083.80 218.0408
1083.90 215.9816
1084.00 214.641
1084.10 213.3546
1084.20 211.4036
1084.30 207.3485
1084.40 203.2934
1084.50 201.0068
1084.60 200.1671
1084.70 199.3274
1084.80 199.0071
1084.90 198.7715
1085.00 198.9199
1085.10 200.9436
1085.20 202.9673
1085.30 203.5445
1085.40 202.5547
1085.50 201.5649
1085.60 203.9759
1085.70 207.2908
1085.80 210.6585
1085.90 214.502
1086.00 218.3454
1086.10 221.3531
1086.20 223.1583
1086.30 224.9635
1086.40 223.6579
1086.50 221.1425
1086.60 218.7608
1086.70 219.5872
1086.80 220.4136
1086.90 221.2753
1087.00 222.2026
1087.10 223.1299
1087.20 223.0379
1087.30 222.4209
1087.40 221.8039
1087.50 218.9751
1087.60 216.078
1087.70 213.5838
1087.80 212.1259
1087.90 210.668
1088.00 210.2069
1088.10 210.4384
1088.20 210.67
1088.30 210.8165
1088.40 210.9536
1088.50 211.1685
1088.60 211.6763
1088.70 212.1841
1088.80 211.5005
1088.90 209.7172
1089.00 207.9339
1089.10 206.8834
1089.20 205.9831
1089.30 205.6028
1089.40 208.4173
1089.50 211.2319
1089.60 214.2733
1089.70 217.5921
1089.80 220.9108
1089.90 224.8558
1090.00 228.9986
1090.10 232.863
1090.20 233.0294
1090.30 233.1958
1090.40 231.7607
1090.50 227.8204
1090.60 223.8802
1090.70 217.7851
1090.80 210.7665
1090.90 203.8174
1091.00 203.7485
1091.10 203.6795
1091.20 205.3048
1091.30 210.5306
1091.40 215.7564
1091.50 220.8444
1091.60 225.8514
1091.70 230.8584
1091.80 231.035
1091.90 230.9033
1092.00 230.1867
1092.10 227.716
1092.20 225.2452
1092.30 222.4315
1092.40 219.3484
1092.50 216.2653
1092.60 214.4385
1092.70 212.7994
1092.80 211.6534
1092.90 212.7539
1093.00 213.8544
1093.10 215.3171
1093.20 217.1422
1093.30 218.9672
1093.40 219.0279
1093.50 218.6746
1093.60 218.3641
1093.70 218.3668
1093.80 218.3694
1093.90 218.5118
1094.00 218.8392
1094.10 219.1667
1094.20 217.8996
1094.30 216.0722
1094.40 214.1811
1094.50 211.0815
1094.60 207.9818
1094.70 207.5678
1094.80 211.9281
1094.90 216.2885
1095.00 223.2226
1095.10 231.4243
1095.20 239.626
1095.30 243.3889
1095.40 247.0612
1095.50 248.8165
1095.60 246.0984
1095.70 243.3804
1095.80 240.784
1095.90 238.2652
1096.00 235.7464
1096.10 236.9805
1096.20 238.5408
1096.30 239.7331
1096.40 239.6935
1096.50 239.6538
1096.60 236.2486
1096.70 229.9764
1096.80 223.7042
1096.90 217.4306
1097.00 211.1566
1097.10 205.7543
1097.20 204.9276
1097.30 204.1009
1097.40 205.8412
1097.50 210.4761
1097.60 215.111
1097.70 218.8414
1097.80 222.3313
1097.90 225.4622
1098.00 225.3627
1098.10 225.2633
1098.20 223.6217
1098.30 219.7611
1098.40 215.9005
1098.50 213.4184
1098.60 211.4722
1098.70 209.6429
1098.80 211.5902
1098.90 213.5375
1099.00 216.4279
1099.10 221.1489
1099.20 225.8699
1099.30 228.6424
1099.40 230.3658
1099.50 232.0892
1099.60 233.0441
1099.70 233.9753
1099.80 234.2381
1099.90 232.7823
1100.00 231.3265
1100.10 229.8759
1100.20 228.4289
1100.30 226.982
1100.40 225.0567
1100.50 223.0783
1100.60 221.3934
1100.70 220.8128
1100.80 220.2322
1100.90 220.0813
1101.00 220.3271
1101.10 220.5729
1101.20 220.8296
1101.30 221.0883
1101.40 221.2323
1101.50 220.7254
1101.60 220.2185
1101.70 219.1494
1101.80 217.4203
1101.90 215.6912
1102.00 212.5565
1102.10 209.0021
1102.20 205.9158
1102.30 208.2131
1102.40 210.5104
1102.50 213.3756
1102.60 217.129
1102.70 220.8824
1102.80 222.1688
1102.90 222.4474
1103.00 222.6129
1103.10 217.2373
1103.20 211.8616
1103.30 207.2682
1103.40 204.263
1103.50 201.2578
1103.60 200.5227
1103.70 201.0645
1103.80 201.6064
1103.90 204.3897
1104.00 207.291
1104.10 210.021
1104.20 212.2635
1104.30 214.5061
1104.40 216.0513
1104.50 217.0914
1104.60 218.1315
1104.70 217.1774
1104.80 215.9768
1104.90 214.4286
1105.00 211.4903
1105.10 208.552
1105.20 204.3
1105.30 198.7858
1105.40 193.2716
1105.50 191.8526
1105.60 191.3325
1105.70 191.2785
1105.80 194.0871
1105.90 196.8957
1106.00 199.3539
1106.10 201.3838
1106.20 203.4138
1106.30 203.5272
1106.40 203.0354
1106.50 202.3284
1106.60 198.7618
1106.70 195.1952
1106.80 193.034
1106.90 193.1656
1107.00 193.2973
1107.10 194.783
1107.20 196.849
1107.30 198.9098
1107.40 200.4438
1107.50 201.9778
1107.60 202.2857
1107.70 199.9885
1107.80 197.6912
1107.90 198.5476
1108.00 201.2561
1108.10 203.9646
1108.20 208.3809
1108.30 212.9061
1108.40 216.6776
1108.50 218.304
1108.60 219.9304
1108.70 219.8367
1108.80 218.4454
1108.90 217.0541
1109.00 216.1456
1109.10 215.303
1109.20 215.2848
1109.30 218.7815
1109.40 222.2782
1109.50 225.1895
1109.60 227.5153
1109.70 229.841
1109.80 227.5482
1109.90 224.2416
1110.00 220.3418
1110.10 212.472
1110.20 204.6021
1110.30 199.147
1110.40 196.765
1110.50 194.3831
1110.60 194.8436
1110.70 196.2517
1110.80 197.4812
1110.90 196.3383
1111.00 195.1954
1111.10 193.2023
1111.20 189.822
1111.30 186.4416
1111.40 185.7849
1111.50 186.3519
1111.60 186.9189
1111.70 188.8055
1111.80 190.6922
1111.90 191.5851
1112.00 190.2662
1112.10 188.9473
1112.20 190.1338
1112.30 192.7917
1112.40 195.4496
1112.50 199.7189
1112.60 204.0912
1112.70 208.2957
1112.80 211.9973
1112.90 215.6989
1113.00 216.6351
1113.10 215.3985
1113.20 214.1619
1113.30 210.963
1113.40 207.4965
1113.50 203.7004
1113.60 198.4992
1113.70 193.2979
1113.80 191.7894
1113.90 193.9736
1114.00 196.1578
1114.10 202.5294
1114.20 209.8832
1114.30 217.0134
1114.40 222.6469
1114.50 228.2805
1114.60 230.136
1114.70 227.1832
1114.80 224.2304
1114.90 219.9248
1115.00 215.1683
1115.10 210.4996
1115.20 207.2084
1115.30 203.9172
1115.40 202.8681
1115.50 205.6367
1115.60 208.4052
1115.70 210.5644
1115.80 212.4499
1115.90 214.3353
1116.00 213.9519
1116.10 213.5685
1116.20 213.0333
1116.30 212.1605
1116.40 211.2876
1116.50 210.5392
1116.60 209.8669
1116.70 209.1947
1116.80 206.4845
1116.90 203.6442
1117.00 200.1742
1117.10 194.8152
1117.20 189.4561
1117.30 185.9385
1117.40 183.8677
1117.50 181.7969
1117.60 183.9268
1117.70 186.6844
1117.80 189.8787
1117.90 194.9349
1118.00 199.991
1118.10 204.7702
1118.20 209.2724
1118.30 213.7746
1118.40 215.9351
1118.50 217.5464
1118.60 218.651
1118.70 216.0396
1118.80 213.1787
1118.90 209.9871
1119.00 206.7954
1119.10 204.091
1119.20 203.7658
1119.30 203.4406
1119.40 203.1154
1119.50 203.1368
1119.60 203.1883
1119.70 203.2399
1119.80 204.1791
1119.90 205.5756
1120.00 206.9721
1120.10 208.3325
1120.20 209.6388
1120.30 210.9452
1120.40 212.4473
1120.50 215.1526
1120.60 217.8579
1120.70 220.5631
1120.80 220.2356
1120.90 219.5332
1121.00 218.8308
1121.10 217.6953
1121.20 216.3056
1121.30 214.9158
1121.40 213.3865
1121.50 211.6294
1121.60 209.8723
1121.70 208.1068
1121.80 206.2796
1121.90 204.4524
1122.00 202.6252
1122.10 201.7504
1122.20 201.0306
1122.30 200.3109
1122.40 201.9008
1122.50 204.9674
1122.60 208.034
1122.70 210.9029
1122.80 213.4045
1122.90 215.9061
1123.00 217.9389
1123.10 215.7523
1123.20 213.5657
1123.30 211.3791
1123.40 210.353
1123.50 209.548
1123.60 208.743
1123.70 210.4261
1123.80 213.9109
1123.90 217.3957
1124.00 220.8916
1124.10 224.4102
1124.20 227.9288
1124.30 231.0861
1124.40 229.4437
1124.50 227.8013
1124.60 226.1589
1124.70 221.7928
1124.80 216.8289
1124.90 211.865
1125.00 207.7509
1125.10 204.3046
1125.20 200.8582
1125.30 199.1965
1125.40 201.507
1125.50 203.8174
1125.60 206.2087
1125.70 210.1364
1125.80 214.064
1125.90 217.9916
1126.00 218.9036
1126.10 219.0617
1126.20 219.2198
1126.30 219.6516
1126.40 220.3167
1126.50 220.9818
1126.60 222.3507
1126.70 225.4427
1126.80 228.5347
1126.90 231.5337
1127.00 231.5224
1127.10 231.5111
1127.20 231.4998
1127.30 227.3902
1127.40 222.1245
1127.50 216.8589
1127.60 213.5696
1127.70 212.1046
1127.80 210.6396
1127.90 209.8943
1128.00 211.0951
1128.10 212.2959
1128.20 213.5007
1128.30 215.0997
1128.40 216.6988
1128.50 218.2978
1128.60 218.4456
1128.70 218.1351
1128.80 217.8246
1128.90 218.1608
1129.00 219.1182
1129.10 220.0757
1129.20 220.749
1129.30 220.5699
1129.40 220.3907
1129.50 220.2116
1129.60 219.7244
1129.70 219.2373
1129.80 218.7501
1129.90 217.7269
1130.00 216.5153
1130.10 215.3037
1130.20 213.3664
1130.30 210.6739
1130.40 207.9814
1130.50 205.7722
1130.60 205.0935
1130.70 204.4148
1130.80 203.7361
1130.90 205.3571
1131.00 207.025
1131.10 208.6929
1131.20 211.8546
1131.30 215.5688
1131.40 219.2829
1131.50 221.5402
1131.60 222.2191
1131.70 222.8981
1131.80 223.3896
1131.90 223.2166
1132.00 223.0436
1132.10 222.8706
1132.20 221.1987
1132.30 219.4804
1132.40 217.7622
1132.50 217.7433
1132.60 218.4184
1132.70 219.0935
1132.80 218.6129
1132.90 216.7754
1133.00 214.9379
1133.10 212.7994
1133.20 209.5286
1133.30 206.2577
1133.40 202.9868
1133.50 199.9878
1133.60 197.0001
1133.70 194.0125
1133.80 191.6321
1133.90 189.5121
1134.00 187.392
1134.10 185.2752
1134.20 183.1623
1134.30 181.0493
1134.40 179.6722
1134.50 181.2382
1134.60 182.8042
1134.70 184.3703
1134.80 188.7881
1134.90 193.3879
1135.00 197.9878
1135.10 200.9273
1135.20 203.1208
1135.30 205.3144
1135.40 205.7767
1135.50 204.0355
1135.60 202.2943
1135.70 200.8311
1135.80 200.553
1135.90 200.2748
1136.00 199.9967
1136.10 200.7461
1136.20 201.5612
1136.30 202.3762
1136.40 202.1182
1136.50 201.3553
1136.60 200.5925
1136.70 199.3242
1136.80 197.386
1136.90 195.4478
1137.00 193.5185
1137.10 191.6301
1137.20 189.7416
1137.30 187.8531
1137.40 184.0981
1137.50 180.2025
1137.60 176.307
1137.70 168.7413
1137.80 159.3678
1137.90 149.9944
1138.00 142.825
1138.10 138.6991
1138.20 134.5732
1138.30 132.0984
1138.40 137.6851
1138.50 143.2719
1138.60 148.8586
1138.70 158.4016
1138.80 168.2887
1138.90 178.1758
1139.00 183.892
1139.10 187.554
1139.20 191.216
1139.30 192.0016
1139.40 188.815
1139.50 185.6285
1139.60 181.9117
1139.70 175.4114
1139.80 168.9111
1139.90 162.4108
1140.00 153.8867
1140.10 145.1625
1140.20 136.4382
1140.30 130.1807
1140.40 125.1939
1140.50 120.2071
1140.60 119.2437
1140.70 124.0699
1140.80 128.8962
1140.90 134.7653
1141.00 146.109
1141.10 157.4528
1141.20 168.7965
1141.30 178.07
1141.40 187.1389
1141.50 196.2077
1141.60 200.4242
1141.70 202.1411
1141.80 203.8581
1141.90 205.1764
1142.00 205.9211
1142.10 206.6659
1142.20 207.3008
1142.30 207.3591
1142.40 207.4175
1142.50 207.4758
1142.60 208.9195
1142.70 210.5002
1142.80 212.0809
1142.90 212.4511
1143.00 212.1695
1143.10 211.8879
1143.20 211.1123
1143.30 209.5956
1143.40 208.0789
1143.50 206.662
1143.60 205.8109
1143.70 204.9598
1143.80 204.1087
1143.90 203.1237
1144.00 202.1239
1144.10 201.124
1144.20 200.4619
1144.30 199.9815
1144.40 199.5012
1144.50 199.0589
1144.60 198.6737
1144.70 198.2884
1144.80 198.1963
1144.90 199.7649
1145.00 201.3336
1145.10 202.9022
1145.20 203.1674
1145.30 203.2877
1145.40 203.4081
1145.50 203.8417
1145.60 204.4441
1145.70 205.0464
1145.80 206.1499
1145.90 208.005
1146.00 209.8602
1146.10 211.775
1146.20 214.0284
1146.30 216.2817
1146.40 218.5351
1146.50 220.3233
1146.60 222.0598
1146.70 223.7963
1146.80 224.1061
1146.90 223.6476
1147.00 223.1891
1147.10 222.3772
1147.20 221.0352
1147.30 219.6932
1147.40 218.6097
1147.50 218.9905
1147.60 219.3712
1147.70 219.752
1147.80 221.9593
1147.90 224.3472
1148.00 226.7351
1148.10 227.781
1148.20 228.1356
1148.30 228.4902
1148.40 228.256
1148.50 227.1745
1148.60 226.0931
1148.70 225.3664
1148.80 226.5023
1148.90 227.6381
1149.00 228.774
1149.10 229.1588
1149.20 229.4693
1149.30 229.7798
1149.40 228.5286
1149.50 226.473
1149.60 224.4175
1149.70 223.085
1149.80 222.7931
1149.90 222.5013
1150.00 222.5327
1150.10 224.2619
1150.20 225.9911
1150.30 227.7202
1150.40 229.732
1150.50 231.7716
1150.60 233.8113
1150.70 234.1078
1150.80 233.5063
1150.90 232.9047
1151.00 232.4651
1151.10 232.2489
1151.20 232.0328
1151.30 231.6312
1151.40 230.324
1151.50 229.0168
1151.60 227.7097
1151.70 226.5716
1151.80 225.4482
1151.90 224.3248
1152.00 221.77
1152.10 218.5102
1152.20 215.2504
1152.30 212.4428
1152.40 210.2598
1152.50 208.0767
1152.60 206.3867
1152.70 207.1038
1152.80 207.8209
1152.90 208.5379
1153.00 211.0219
1153.10 213.639
1153.20 216.256
1153.30 217.2601
1153.40 217.5052
1153.50 217.7502
1153.60 218.0795
1153.70 218.5204
1153.80 218.9612
1153.90 219.4743
1154.00 220.3163
1154.10 221.1584
1154.20 222.0004
1154.30 222.4981
1154.40 222.9698
1154.50 223.4415
1154.60 223.6698
1154.70 223.7886
1154.80 223.9075
1154.90 224.2486
1155.00 224.8725
1155.10 225.4964
1155.20 225.9983
1155.30 225.9796
1155.40 225.961
1155.50 225.9424
1155.60 225.3613
1155.70 224.7443
1155.80 224.1273
1155.90 224.6978
1156.00 225.7773
1156.10 226.8568
1156.20 227.7911
1156.30 228.5479
1156.40 229.3046
1156.50 229.8097
1156.60 229.3083
1156.70 228.8068
1156.80 228.3053
1156.90 227.1207
1157.00 225.9076
1157.10 224.6946
1157.20 223.0145
1157.30 221.1437
1157.40 219.2729
1157.50 217.9238
1157.60 217.1871
1157.70 216.4505
1157.80 216.3021
1157.90 218.3667
1158.00 220.4314
1158.10 222.496
1158.20 224.3291
1158.30 226.1551
1158.40 227.9811
1158.50 226.703
1158.60 224.2178
1158.70 221.7326
1158.80 218.9539
1158.90 215.8443
1159.00 212.7347
1159.10 209.6878
1159.20 206.851
1159.30 204.0141
1159.40 201.1773
1159.50 200.9142
1159.60 200.7037
1159.70 200.4932
1159.80 200.7811
1159.90 201.2533
1160.00 201.7255
1160.10 202.8851
1160.20 204.7601
1160.30 206.6351
1160.40 208.2424
1160.50 209.0022
1160.60 209.7621
1160.70 210.5219
1160.80 212.5189
1160.90 214.5159
1161.00 216.513
1161.10 218.8636
1161.20 221.3321
1161.30 223.8007
1161.40 225.0797
1161.50 225.1691
1161.60 225.2586
1161.70 224.888
1161.80 223.2078
1161.90 221.5277
1162.00 219.8635
1162.10 219.7777
1162.20 219.6919
1162.30 219.6061
1162.40 221.3054
1162.50 223.5379
1162.60 225.7705
1162.70 228.1537
1162.80 230.6762
1162.90 233.1986
1163.00 234.8788
1163.10 234.282
1163.20 233.6851
1163.30 233.0045
1163.40 229.6133
1163.50 226.2221
1163.60 222.8309
1163.70 220.0614
1163.80 217.4673
1163.90 214.8731
1164.00 214.5788
1164.10 216.2435
1164.20 217.9082
1164.30 219.9535
1164.40 222.9307
1164.50 225.9078
1164.60 228.6609
1164.70 227.1577
1164.80 225.6544
1164.90 224.1512
1165.00 220.9623
1165.10 217.3519
1165.20 213.7416
1165.30 211.3726
1165.40 209.9789
1165.50 208.5852
1165.60 208.4538
1165.70 211.1317
1165.80 213.8097
1165.90 216.4489
1166.00 218.5739
1166.10 220.6988
1166.20 222.8238
1166.30 222.5475
1166.40 221.7442
1166.50 220.9408
1166.60 219.4342
1166.70 217.4183
1166.80 215.4024
1166.90 213.5495
1167.00 212.0274
1167.10 210.5053
1167.20 209.054
1167.30 208.3193
1167.40 207.5846
1167.50 206.8499
1167.60 205.4342
1167.70 203.8887
1167.80 202.3432
1167.90 200.1591
1168.00 197.5492
1168.10 194.9392
1168.20 190.8642
1168.30 184.0683
1168.40 177.2723
1168.50 170.0493
1168.60 159.3701
1168.70 148.691
1168.80 138.0119
1168.90 130.4848
1169.00 123.4708
1169.10 116.4568
1169.20 116.1556
1169.30 119.9685
1169.40 123.7814
1169.50 130.0582
1169.60 140.5301
1169.70 151.002
1169.80 161.3102
1169.90 170.522
1170.00 179.7338
1170.10 188.9457
1170.20 194.6201
1170.30 199.8574
1170.40 205.0946
1170.50 208.4287
1170.60 210.6922
1170.70 212.9557
1170.80 214.3237
1170.90 214.3485
1171.00 214.3732
1171.10 214.3311
1171.20 213.91
1171.30 213.4889
1171.40 213.0678
1171.50 213.1465
1171.60 213.2746
1171.70 213.4026
1171.80 213.37
1171.90 213.2583
1172.00 213.1465
1172.10 213.2348
1172.20 213.5994
1172.30 213.9639
1172.40 214.4998
1172.50 215.8159
1172.60 217.132
1172.70 218.4481
1172.80 219.2529
1172.90 220.0251
1173.00 220.7973
1173.10 220.4705
1173.20 219.65
1173.30 218.8294
1173.40 217.5367
1173.50 215.6667
1173.60 213.7968
1173.70 212.2539
1173.80 211.9417
1173.90 211.6295
1174.00 211.3173
1174.10 212.7656
1174.20 214.2872
1174.30 215.8088
1174.40 217.1529
1174.50 218.428
1174.60 219.7031
1174.70 219.5027
1174.80 217.7039
1174.90 215.9052
1175.00 213.7589
1175.10 210.4492
1175.20 207.1394
1175.30 203.8297
1175.40 202.4494
1175.50 201.0885
1175.60 199.7277
1175.70 198.6532
1175.80 197.6741
1175.90 196.6951
1176.00 194.9625
1176.10 192.4763
1176.20 189.9901
1176.30 186.3436
1176.40 179.395
1176.50 172.4464
1176.60 165.4113
1176.70 154.1353
1176.80 142.8593
1176.90 131.5833
1177.00 121.182
1177.10 111.0274
1177.20 100.8728
1177.30 96.13999
1177.40 96.21526
1177.50 96.29053
1177.60 98.83523
1177.70 107.4258
1177.80 116.0163
1177.90 124.7348
1178.00 135.8839
1178.10 147.0331
1178.20 158.1822
1178.30 166.1994
1178.40 173.482
1178.50 180.7645
1178.60 186.361
1178.70 190.6326
1178.80 194.9042
1178.90 198.2173
1179.00 199.4936
1179.10 200.7699
1179.20 201.9536
1179.30 202.0728
1179.40 202.192
1179.50 202.3113
1179.60 202.8879
1179.70 203.5516
1179.80 204.2153
1179.90 205.72
1180.00 207.7854
1180.10 209.8508
1180.20 211.7618
1180.30 213.3862
1180.40 215.0106
1180.50 216.3922
1180.60 215.8099
1180.70 215.2275
1180.80 214.6452
1180.90 213.3813
1181.00 212.0155
1181.10 210.6497
1181.20 209.5495
1181.30 208.6053
1181.40 207.6611
1181.50 207.2335
1181.60 207.6138
1181.70 207.9941
1181.80 208.5188
1181.90 209.8623
1182.00 211.2057
1182.10 212.5491
1182.20 213.1987
1182.30 213.7713
1182.40 214.3438
1182.50 214.6033
1182.60 214.7016
1182.70 214.8
1182.80 214.8503
1182.90 214.8343
1183.00 214.8183
1183.10 214.4411
1183.20 212.4183
1183.30 210.3954
1183.40 208.3726
1183.50 206.5383
1183.60 204.716
1183.70 202.8938
1183.80 203.5351
1183.90 205.2322
1184.00 206.9293
1184.10 208.983
1184.20 211.4552
1184.30 213.9274
1184.40 215.4867
1184.50 213.8093
1184.60 212.1318
1184.70 210.4543
1184.80 207.9495
1184.90 205.419
1185.00 202.8885
1185.10 202.9888
1185.20 204.062
1185.30 205.1353
1185.40 206.9191
1185.50 209.4424
1185.60 211.9657
1185.70 214.172
1185.80 215.4272
1185.90 216.6823
1186.00 217.9176
1186.10 217.1774
1186.20 216.4372
1186.30 215.6971
1186.40 214.3923
1186.50 212.9188
1186.60 211.4454
1186.70 210.306
1186.80 209.4628
1186.90 208.6197
1187.00 208.2492
1187.10 209.0361
1187.20 209.823
1187.30 210.6202
1187.40 211.6138
1187.50 212.6074
1187.60 213.601
1187.70 211.9671
1187.80 209.7168
1187.90 207.4666
1188.00 204.0418
1188.10 199.7308
1188.20 195.4199
1188.30 192.2291
1188.40 191.3124
1188.50 190.3957
1188.60 189.8021
1188.70 192.4752
1188.80 195.1482
1188.90 197.8213
1189.00 200.5664
1189.10 203.3243
1189.20 206.0821
1189.30 207.7113
1189.40 208.6188
1189.50 209.5264
1189.60 210.5372
1189.70 211.7238
1189.80 212.9104
1189.90 213.8583
1190.00 213.2093
1190.10 212.5604
1190.20 211.9114
1190.30 211.054
1190.40 210.1707
1190.50 209.2875
1190.60 208.8378
1190.70 208.6214
1190.80 208.4051
1190.90 208.9068
1191.00 210.4417
1191.10 211.9766
1191.20 213.4417
1191.30 214.5661
1191.40 215.6905
1191.50 216.8148
1191.60 217.1816
1191.70 217.4913
1191.80 217.8011
1191.90 217.2868
1192.00 216.4023
1192.10 215.5179
1192.20 215.1457
1192.30 215.3996
1192.40 215.6536
1192.50 215.9595
1192.60 216.4612
1192.70 216.963
1192.80 217.4647
1192.90 217.9662
1193.00 218.4676
1193.10 218.9691
1193.20 217.2973
1193.30 214.8216
1193.40 212.346
1193.50 209.6766
1193.60 206.8057
1193.70 203.9348
1193.80 201.3154
1193.90 199.4123
1194.00 197.5092
1194.10 195.6278
1194.20 194.8147
1194.30 194.0015
1194.40 193.1883
1194.50 191.0742
1194.60 188.5931
1194.70 186.1121
1194.80 184.815
1194.90 184.5264
1195.00 184.2378
1195.10 184.8055
1195.20 187.3714
1195.30 189.9372
1195.40 192.4318
1195.50 193.8086
1195.60 195.1854
1195.70 196.5623
1195.80 195.1467
1195.90 193.1182
1196.00 191.0897
1196.10 189.2518
1196.20 187.552
1196.30 185.8522
1196.40 184.7381
1196.50 184.761
1196.60 184.7839
1196.70 184.6199
1196.80 182.9429
1196.90 181.2659
1197.00 179.5889
1197.10 176.0708
1197.20 172.2775
1197.30 168.4843
1197.40 165.5149
1197.50 163.0295
1197.60 160.544
1197.70 159.5293
1197.80 160.8152
1197.90 162.1011
1198.00 163.8239
1198.10 168.0225
1198.20 172.2211
1198.30 176.4197
1198.40 178.7917
1198.50 180.9831
1198.60 183.1744
1198.70 182.3972
1198.80 180.2229
1198.90 178.0486
1199.00 174.963
1199.10 170.7174
1199.20 166.4719
1199.30 163.0183
1199.40 162.733
1199.50 162.4476
1199.60 162.1622
1199.70 163.123
1199.80 164.1358
1199.90 165.1486
1200.00 166.0391
1200.10 166.8822
1200.20 167.7253
1200.30 168.6181
1200.40 169.5628
1200.50 170.5075
1200.60 171.6665
1200.70 173.4686
1200.80 175.2707
1200.90 177.061
1201.00 177.6787
1201.10 178.2965
1201.20 178.9142
1201.30 178.0927
1201.40 176.8413
1201.50 175.5899
1201.60 174.6344
1201.70 173.9309
1201.80 173.2273
1201.90 172.8663
1202.00 173.3046
1202.10 173.7429
1202.20 174.1955
1202.30 174.8723
1202.40 175.549
1202.50 176.2258
1202.60 175.1754
1202.70 173.746
1202.80 172.3166
1202.90 171.8048
1203.00 171.9306
1203.10 172.0565
1203.20 173.3242
1203.30 176.7126
1203.40 180.101
1203.50 183.6074
1203.60 188.0691
1203.70 192.5307
1203.80 196.9923
1203.90 198.4199
1204.00 199.3942
1204.10 200.3684
1204.20 199.2255
1204.30 196.8917
1204.40 194.5579
1204.50 192.7119
1204.60 191.5979
1204.70 190.4838
1204.80 189.8547
1204.90 191.7711
1205.00 193.6875
1205.10 195.6039
1205.20 198.3724
1205.30 201.205
1205.40 204.0375
1205.50 206.1116
1205.60 207.8449
1205.70 209.5782
1205.80 210.5797
1205.90 210.687
1206.00 210.7942
1206.10 210.4005
1206.20 208.2307
1206.30 206.0608
1206.40 203.891
1206.50 201.5091
1206.60 199.123
1206.70 196.7368
1206.80 196.9892
1206.90 198.1685
1207.00 199.3479
1207.10 201.7029
1207.20 205.1874
1207.30 208.6719
1207.40 211.9041
1207.50 214.4543
1207.60 217.0044
1207.70 219.4903
1207.80 219.8981
1207.90 220.306
1208.00 220.7138
1208.10 219.6223
1208.20 218.156
1208.30 216.6897
1208.40 213.4395
1208.50 208.7876
1208.60 204.1357
1208.70 199.7613
1208.80 195.9765
1208.90 192.1917
1209.00 188.9281
1209.10 190.9332
1209.20 192.9384
1209.30 194.9435
1209.40 200.0997
1209.50 205.812
1209.60 211.5243
1209.70 214.1446
1209.80 214.8697
1209.90 215.5949
1210.00 213.8485
1210.10 208.0695
1210.20 202.2906
1210.30 196.4038
1210.40 189.8546
1210.50 183.3054
1210.60 176.7562
1210.70 174.5899
1210.80 172.8572
1210.90 171.1244
1211.00 172.1011
1211.10 174.4123
1211.20 176.7235
1211.30 179.1892
1211.40 181.86
1211.50 184.5307
1211.60 187.2066
1211.70 189.9032
1211.80 192.5999
1211.90 195.2965
1212.00 198.97
1212.10 202.6843
1212.20 206.3985
1212.30 207.8278
1212.40 208.4118
1212.50 208.9959
1212.60 207.2126
1212.70 202.9652
1212.80 198.7179
1212.90 194.7457
1213.00 191.557
1213.10 188.3682
1213.20 185.3192
1213.30 189.1187
1213.40 192.9183
1213.50 196.7179
1213.60 202.3486
1213.70 208.466
1213.80 214.5835
1213.90 218.4547
1214.00 220.488
1214.10 222.5213
1214.20 223.4807
1214.30 222.1582
1214.40 220.8357
1214.50 219.6083
1214.60 219.4741
1214.70 219.34
1214.80 219.2059
1214.90 219.7812
1215.00 220.4818
1215.10 221.1824
1215.20 220.5775
1215.30 219.138
1215.40 217.6984
1215.50 215.8303
1215.60 213.263
1215.70 210.6957
1215.80 208.4093
1215.90 207.8491
1216.00 207.2889
1216.10 206.7286
1216.20 207.8484
1216.30 209.1548
1216.40 210.4611
1216.50 212.2912
1216.60 214.3793
1216.70 216.4673
1216.80 217.9793
1216.90 218.758
1217.00 219.5368
1217.10 220.0157
1217.20 219.2949
1217.30 218.5741
1217.40 217.8534
1217.50 218.3206
1217.60 218.8245
1217.70 219.3284
1217.80 220.8567
1217.90 222.7637
1218.00 224.6708
1218.10 226.554
1218.20 228.4134
1218.30 230.2727
1218.40 231.1729
1218.50 229.343
1218.60 227.5132
1218.70 225.7022
1218.80 224.5011
1218.90 223.3
1219.00 222.0989
1219.10 221.3597
1219.20 220.7433
1219.30 220.1268
1219.40 219.8118
1219.50 219.7336
1219.60 219.6554
1219.70 219.4098
1219.80 218.8081
1219.90 218.2064
1220.00 217.7
1220.10 218.1567
1220.20 218.6134
1220.30 219.07
1220.40 219.2716
1220.50 219.4316
1220.60 219.5917
1220.70 218.2749
1220.80 216.0529
1220.90 213.831
1221.00 211.5727
1221.10 209.2576
1221.20 206.9424
1221.30 204.8365
1221.40 203.9163
1221.50 202.9961
1221.60 202.0758
1221.70 202.3237
1221.80 202.6731
1221.90 203.0225
1222.00 203.0182
1222.10 202.8549
1222.20 202.6917
1222.30 202.8921
1222.40 203.5369
1222.50 204.1817
1222.60 205.6103
1222.70 209.8178
1222.80 214.0252
1222.90 218.2327
1223.00 223.3417
1223.10 228.4691
1223.20 233.5965
1223.30 236.3439
1223.40 238.2981
1223.50 240.2522
1223.60 240.3041
1223.70 238.6001
1223.80 236.8961
1223.90 235.1469
1224.00 233.2815
1224.10 231.4161
1224.20 229.6411
1224.30 229.5829
1224.40 229.5247
1224.50 229.4665
1224.60 230.7114
1224.70 232.2424
1224.80 233.7734
1224.90 235.0019
1225.00 236.0114
1225.10 237.0209
1225.20 236.92
1225.30 234.757
1225.40 232.594
1225.50 230.4196
1225.60 228.162
1225.70 225.9044
1225.80 223.6468
1225.90 224.3578
1226.00 225.4736
1226.10 226.5893
1226.20 229.1622
1226.30 232.5196
1226.40 235.8771
1226.50 238.1221
1226.60 238.8308
1226.70 239.5395
1226.80 239.6626
1226.90 237.1181
1227.00 234.5736
1227.10 232.0292
1227.20 230.9989
1227.30 230.0483
1227.40 229.0978
1227.50 230.2242
1227.60 232.1583
1227.70 234.0924
1227.80 235.8189
1227.90 237.3206
1228.00 238.8223
1228.10 239.8465
1228.20 239.4384
1228.30 239.0303
1228.40 238.5856
1228.50 236.3449
1228.60 234.1042
1228.70 231.8636
1228.80 229.9486
1228.90 228.1202
1229.00 226.2918
1229.10 223.8677
1229.20 220.9563
1229.30 218.045
1229.40 215.7625
1229.50 214.8167
1229.60 213.8708
1229.70 213.184
1229.80 215.1169
1229.90 217.0497
1230.00 218.9826
1230.10 222.8405
1230.20 227.038
1230.30 231.2356
1230.40 233.7606
1230.50 235.2605
1230.60 236.7605
1230.70 236.9607
1230.80 235.1278
1230.90 233.295
1231.00 231.5125
1231.10 229.9946
1231.20 228.4767
1231.30 226.9587
1231.40 226.4435
1231.50 226.0154
1231.60 225.5873
1231.70 225.2993
1231.80 225.0742
1231.90 224.8491
1232.00 224.5122
1232.10 224.0442
1232.20 223.5762
1232.30 223.1816
1232.40 223.0326
1232.50 222.8837
1232.60 222.7348
1232.70 221.2404
1232.80 219.7461
1232.90 218.2517
1233.00 217.0155
1233.10 215.8608
1233.20 214.706
1233.30 214.8286
1233.40 216.084
1233.50 217.3393
1233.60 218.7879
1233.70 220.6873
1233.80 222.5867
1233.90 224.2541
1234.00 222.8384
1234.10 221.4227
1234.20 220.007
1234.30 218.5787
1234.40 217.1478
1234.50 215.7169
1234.60 215.9389
1234.70 217.2628
1234.80 218.5866
1234.90 220.305
1235.00 222.6951
1235.10 225.0853
1235.20 226.9886
1235.30 225.9016
1235.40 224.8147
1235.50 223.7278
1235.60 221.7541
1235.70 219.6927
1235.80 217.6312
1235.90 216.8805
1236.00 216.7465
1236.10 216.6126
1236.20 218.0927
1236.30 221.6272
1236.40 225.1617
1236.50 228.3188
1236.60 230.0562
1236.70 231.7936
1236.80 233.531
1236.90 231.3527
1237.00 229.0945
1237.10 226.8364
1237.20 223.625
1237.30 220.0959
1237.40 216.5669
1237.50 215.1905
1237.60 215.8013
1237.70 216.4121
1237.80 217.6861
1237.90 220.5836
1238.00 223.4812
1238.10 226.1664
1238.20 225.5243
1238.30 224.8822
1238.40 224.2401
1238.50 219.2361
1238.60 213.2745
1238.70 207.3129
1238.80 201.5489
1238.90 195.9222
1239.00 190.2954
1239.10 186.4999
1239.20 185.9599
1239.30 185.4199
1239.40 185.3209
1239.50 188.1736
1239.60 191.0263
1239.70 193.879
1239.80 195.6645
1239.90 197.3314
1240.00 198.9983
1240.10 198.0875
1240.20 195.9073
1240.30 193.727
1240.40 192.0182
1240.50 190.9093
1240.60 189.8004
1240.70 189.4966
1240.80 192.2215
1240.90 194.9465
1241.00 197.6714
1241.10 199.9299
1241.20 202.1741
1241.30 204.4182
1241.40 203.0401
1241.50 200.3894
1241.60 197.7386
1241.70 194.7169
1241.80 191.3387
1241.90 187.9606
1242.00 185.3206
1242.10 184.5786
1242.20 183.8366
1242.30 183.0328
1242.40 181.0533
1242.50 179.0737
1242.60 177.0942
1242.70 171.0551
1242.80 164.125
1242.90 157.1948
1243.00 150.539
1243.10 144.0739
1243.20 137.6088
1243.30 133.9749
1243.40 135.3743
1243.50 136.7736
1243.60 138.9801
1243.70 146.5884
1243.80 154.1966
1243.90 161.8049
1244.00 168.7567
1244.10 175.6355
1244.20 182.5144
1244.30 187.4711
1244.40 191.481
1244.50 195.4908
1244.60 199.2806
1244.70 202.7902
1244.80 206.2998
1244.90 209.5366
1245.00 211.7475
1245.10 213.9583
1245.20 216.1692
1245.30 216.3282
1245.40 216.4453
1245.50 216.5624
1245.60 215.1068
1245.70 213.127
1245.80 211.1472
1245.90 209.5531
1246.00 208.3151
1246.10 207.077
1246.20 206.6469
1246.30 208.1952
1246.40 209.7435
1246.50 211.3705
1246.60 214.2314
1246.70 217.0922
1246.80 219.953
1246.90 221.391
1247.00 222.5376
1247.10 223.6842
1247.20 223.433
1247.30 222.2499
1247.40 221.0668
1247.50 219.7538
1247.60 218.2196
1247.70 216.6854
1247.80 215.1778
1247.90 213.8337
1248.00 212.4895
1248.10 211.1454
1248.20 210.9843
1248.30 210.9402
1248.40 210.896
1248.50 211.5284
1248.60 212.4793
1248.70 213.4301
1248.80 214.1288
1248.90 214.5194
1249.00 214.91
1249.10 215.0474
1249.20 214.2875
1249.30 213.5275
1249.40 212.7675
1249.50 211.8067
1249.60 210.8438
1249.70 209.8809
1249.80 210.2112
1249.90 210.95
1250.00 211.6887
1250.10 211.8986
1250.20 211.6394
1250.30 211.3803
1250.40 210.8305
1250.50 209.6025
1250.60 208.3745
1250.70 207.0705
1250.80 204.7561
1250.90 202.4417
1251.00 200.1273
1251.10 197.9005
1251.20 195.6904
1251.30 193.4803
1251.40 189.4995
1251.50 184.3867
1251.60 179.2738
1251.70 172.5084
1251.80 163.0466
1251.90 153.5848
1252.00 144.4032
1252.10 136.8095
1252.20 129.2158
1252.30 121.6221
1252.40 123.8804
1252.50 126.9955
1252.60 130.1106
1252.70 139.0359
1252.80 150.5717
1252.90 162.1075
1253.00 172.7276
1253.10 182.2727
1253.20 191.8179
1253.30 200.0389
1253.40 203.8271
1253.50 207.6154
1253.60 211.4036
1253.70 213.4991
1253.80 215.5946
1253.90 217.6901
1254.00 218.3302
1254.10 218.5598
1254.20 218.7893
1254.30 218.7322
1254.40 218.4405
1254.50 218.1488
1254.60 217.8172
1254.70 217.401
1254.80 216.9848
1254.90 216.8413
1255.00 219.4561
1255.10 222.0708
1255.20 224.6856
1255.30 227.2439
1255.40 229.7931
1255.50 232.3422
1255.60 234.3604
1255.70 236.0667
1255.80 237.7731
1255.90 238.0032
1256.00 236.0189
1256.10 234.0347
1256.20 232.0909
1256.30 230.3444
1256.40 228.5978
1256.50 226.8513
1256.60 226.7963
1256.70 226.8493
1256.80 226.9024
1256.90 227.5371
1257.00 228.4095
1257.10 229.2819
1257.20 229.7279
1257.30 229.7301
1257.40 229.7324
1257.50 230.0787
1257.60 231.4043
1257.70 232.7299
1257.80 234.0879
1257.90 236.4933
1258.00 238.8987
1258.10 241.3041
1258.20 241.8264
1258.30 241.8779
1258.40 241.9295
1258.50 239.8712
1258.60 236.2213
1258.70 232.5714
1258.80 228.9147
1258.90 225.2449
1259.00 221.575
1259.10 218.2111
1259.20 217.3229
1259.30 216.4347
1259.40 215.5465
1259.50 217.4465
1259.60 219.6911
1259.70 221.9357
1259.80 223.9574
1259.90 225.8642
1260.00 227.771
1260.10 229.5143
1260.20 231.0409
1260.30 232.5675
1260.40 234.1918
1260.50 236.2068
1260.60 238.2219
1260.70 240.2369
1260.80 243.2676
1260.90 246.3296
1261.00 249.3917
1261.10 249.8012
1261.20 249.2788
1261.30 248.7564
1261.40 246.9178
1261.50 243.8641
1261.60 240.8105
1261.70 237.9268
1261.80 235.4596
1261.90 232.9923
1262.00 230.7364
1262.10 231.7922
1262.20 232.8481
1262.30 233.904
1262.40 235.2959
1262.50 236.7566
1262.60 238.2174
1262.70 238.7712
1262.80 238.7205
1262.90 238.6698
1263.00 238.2677
1263.10 237.2922
1263.20 236.3168
1263.30 235.2782
1263.40 233.882
1263.50 232.4859
1263.60 231.0898
1263.70 229.3953
1263.80 227.6749
1263.90 225.9545
1264.00 224.1362
1264.10 222.274
1264.20 220.4117
1264.30 219.6675
1264.40 220.1841
1264.50 220.7006
1264.60 221.7235
1264.70 224.3493
1264.80 226.9751
1264.90 229.5928
1265.00 231.3995
1265.10 233.2062
1265.20 235.0129
1265.30 235.5498
1265.40 235.7286
1265.50 235.9073
1265.60 235.7417
1265.70 235.2942
1265.80 234.8468
1265.90 234.6657
1266.00 235.0255
1266.10 235.3852
1266.20 235.6931
1266.30 235.5343
1266.40 235.3755
1266.50 235.2167
1266.60 236.281
1266.70 237.5279
1266.80 238.7749
1266.90 240.2846
1267.00 241.942
1267.10 243.5995
1267.20 245.1974
1267.30 246.7132
1267.40 248.2289
1267.50 249.6213
1267.60 250.4878
1267.70 251.3542
1267.80 252.2207
1267.90 251.822
1268.00 251.3705
1268.10 250.919
1268.20 249.7623
1268.30 248.3447
1268.40 246.9272
1268.50 245.5028
1268.60 244.0719
1268.70 242.641
1268.80 241.6105
1268.90 241.6098
1269.00 241.6091
1269.10 241.5993
1269.20 241.4181
1269.30 241.2368
1269.40 241.0556
1269.50 239.9614
1269.60 238.6668
1269.70 237.3722
1269.80 236.078
1269.90 234.7842
1270.00 233.4904
1270.10 232.3562
1270.20 231.4936
1270.30 230.6311
1270.40 230.2214
1270.50 232.5937
1270.60 234.966
1270.70 237.3383
1270.80 240.2787
1270.90 243.2685
1271.00 246.2583
1271.10 248.5965
1271.20 250.6419
1271.30 252.6872
1271.40 253.25
1271.50 252.0724
1271.60 250.8948
1271.70 249.8273
1271.80 249.1082
1271.90 248.3892
1272.00 247.6762
1272.10 247.5573
1272.20 247.4385
1272.30 247.3196
1272.40 246.8596
1272.50 246.3033
1272.60 245.747
1272.70 244.601
1272.80 242.9724
1272.90 241.3439
1273.00 240.0601
1273.10 239.4762
1273.20 238.8923
1273.30 238.2714
1273.40 237.3174
1273.50 236.3634
1273.60 235.4093
1273.70 233.2432
1273.80 230.9118
1273.90 228.5804
1274.00 227.5977
1274.10 227.3412
1274.20 227.0848
1274.30 228.5524
1274.40 232.4009
1274.50 236.2493
1274.60 239.8283
1274.70 242.3291
1274.80 244.8299
1274.90 247.3307
1275.00 246.2309
1275.10 245.0197
1275.20 243.8085
1275.30 243.5419
1275.40 243.6072
1275.50 243.6725
1275.60 245.283
1275.70 248.3199
1275.80 251.3568
1275.90 253.6854
1276.00 254.2799
1276.10 254.8744
1276.20 255.2991
1276.30 253.0639
1276.40 250.8286
1276.50 248.5933
1276.60 247.0944
1276.70 245.7357
1276.80 244.3771
1276.90 245.0977
1277.00 247.1478
1277.10 249.1979
1277.20 250.7405
1277.30 251.4551
1277.40 252.1696
1277.50 252.6123
1277.60 251.6275
1277.70 250.6426
1277.80 249.6578
1277.90 246.1632
1278.00 242.4797
1278.10 238.7962
1278.20 237.1079
1278.30 236.2345
1278.40 235.3611
1278.50 235.2988
1278.60 236.1149
1278.70 236.9311
1278.80 238.3641
1278.90 241.6477
1279.00 244.9312
1279.10 248.1744
1279.20 250.1135
1279.30 252.0526
1279.40 253.9917
1279.50 254.5042
1279.60 254.66
1279.70 254.8159
1279.80 253.7556
1279.90 251.7778
1280.00 249.8
1280.10 247.8375
1280.20 245.9033
1280.30 243.9691
1280.40 242.1515
1280.50 241.1883
1280.60 240.2251
1280.70 239.262
1280.80 239.2651
1280.90 239.3755
1281.00 239.486
1281.10 239.9117
1281.20 240.4926
1281.30 241.0736
1281.40 241.674
1281.50 242.2993
1281.60 242.9246
1281.70 243.475
1281.80 243.7601
1281.90 244.0451
1282.00 244.3302
1282.10 245.5334
1282.20 246.7459
1282.30 247.9584
1282.40 248.7543
1282.50 249.4257
1282.60 250.0972
1282.70 249.9849
1282.80 249.205
1282.90 248.4251
1283.00 247.7086
1283.10 247.1266
1283.20 246.5447
1283.30 245.9699
1283.40 245.4674
1283.50 244.9649
1283.60 244.4623
1283.70 243.9297
1283.80 243.3923
1283.90 242.8548
1284.00 242.1165
1284.10 241.2653
1284.20 240.4141
1284.30 240.3362
1284.40 241.3711
1284.50 242.406
1284.60 243.5123
1284.70 244.9227
1284.80 246.3332
1284.90 247.7436
1285.00 247.487
1285.10 247.161
1285.20 246.835
1285.30 244.4249
1285.40 241.2825
1285.50 238.14
1285.60 234.9862
1285.70 231.8214
1285.80 228.6566
1285.90 226.2136
1286.00 225.5377
1286.10 224.8618
1286.20 224.3637
1286.30 226.651
1286.40 228.9383
1286.50 231.2256
1286.60 234.9086
1286.70 238.8776
1286.80 242.8465
1286.90 245.7147
1287.00 247.8792
1287.10 250.0437
1287.20 250.7196
1287.30 248.9669
1287.40 247.2142
1287.50 245.0794
1287.60 240.9386
1287.70 236.7978
1287.80 232.6569
1287.90 230.5011
1288.00 228.4946
1288.10 226.4881
1288.20 226.4206
1288.30 227.1451
1288.40 227.8695
1288.50 229.599
1288.60 232.4173
1288.70 235.2355
1288.80 237.7978
1288.90 239.6313
1289.00 241.4649
1289.10 243.2694
1289.20 244.1324
1289.30 244.9954
1289.40 245.8584
1289.50 244.7654
1289.60 243.2137
1289.70 241.662
1289.80 240.3027
1289.90 239.0828
1290.00 237.8629
1290.10 237.223
1290.20 237.6143
1290.30 238.0056
1290.40 238.3901
1290.50 238.7284
1290.60 239.0668
1290.70 239.4052
1290.80 239.5691
1290.90 239.7159
1291.00 239.8626
1291.10 239.3324
1291.20 238.4838
1291.30 237.6352
1291.40 237.3805
1291.50 237.8231
1291.60 238.2657
1291.70 238.9563
1291.80 240.4773
1291.90 241.9982
1292.00 243.5144
1292.10 244.5601
1292.20 245.6059
1292.30 246.6516
1292.40 245.5713
1292.50 243.8913
1292.60 242.2114
1292.70 239.8432
1292.80 236.9343
1292.90 234.0254
1293.00 232.2857
1293.10 232.9202
1293.20 233.5546
1293.30 234.276
1293.40 235.7008
1293.50 237.1255
1293.60 238.5502
1293.70 239.9286
1293.80 241.3006
1293.90 242.6727
1294.00 242.9535
1294.10 242.6723
1294.20 242.3911
1294.30 242.5533
1294.40 243.28
1294.50 244.0067
1294.60 244.8338
1294.70 246.0386
1294.80 247.2434
1294.90 248.4482
1295.00 247.0642
1295.10 245.654
1295.20 244.2438
1295.30 241.23
1295.40 237.7097
1295.50 234.1895
1295.60 231.6084
1295.70 229.8274
1295.80 228.0463
1295.90 227.2684
1296.00 228.7233
1296.10 230.1782
1296.20 231.5873
1296.30 232.5331
1296.40 233.479
1296.50 234.4249
1296.60 234.9251
1296.70 235.3528
1296.80 235.7805
1296.90 236.1397
1297.00 236.4605
1297.10 236.7813
1297.20 237.1992
1297.30 237.751
1297.40 238.3029
1297.50 238.7037
1297.60 238.4605
1297.70 238.2174
1297.80 237.9743
1297.90 238.8053
1298.00 239.6696
1298.10 240.5338
1298.20 242.558
1298.30 244.9896
1298.40 247.4213
1298.50 249.401
1298.60 250.9636
1298.70 252.5262
1298.80 253.3372
1298.90 252.308
1299.00 251.2788
1299.10 250.156
1299.20 247.7909
1299.30 245.4258
1299.40 243.0606
1299.50 240.9696
1299.60 238.9269
1299.70 236.8843
1299.80 235.5336
1299.90 234.607
