# Version 2.1 - nm, norm@500 to 1, cut digits
# Wavelength(nm)  Flambda(ergs/cm^s/s/nm)
300.00 1.188148e-95
300.10 1.188148e-95
300.20 1.188148e-95
300.30 1.188148e-95
300.40 1.188148e-95
300.50 1.188148e-95
300.60 1.188148e-95
300.70 1.188148e-95
300.80 1.188148e-95
300.90 1.188148e-95
301.00 1.188148e-95
301.10 1.188148e-95
301.20 1.188148e-95
301.30 1.188148e-95
301.40 1.188148e-95
301.50 1.188148e-95
301.60 1.188148e-95
301.70 1.188148e-95
301.80 1.188148e-95
301.90 1.188148e-95
302.00 1.188148e-95
302.10 1.188148e-95
302.20 1.188148e-95
302.30 1.188148e-95
302.40 1.188148e-95
302.50 1.188148e-95
302.60 1.188148e-95
302.70 1.188148e-95
302.80 1.188148e-95
302.90 1.188148e-95
303.00 1.188148e-95
303.10 1.188148e-95
303.20 1.188148e-95
303.30 1.188148e-95
303.40 1.188148e-95
303.50 1.188148e-95
303.60 1.188148e-95
303.70 1.188148e-95
303.80 1.188148e-95
303.90 1.188148e-95
304.00 1.188148e-95
304.10 1.188148e-95
304.20 1.188148e-95
304.30 1.188148e-95
304.40 1.188148e-95
304.50 1.188148e-95
304.60 1.188148e-95
304.70 1.188148e-95
304.80 1.188148e-95
304.90 1.188148e-95
305.00 1.188148e-95
305.10 1.188148e-95
305.20 1.188148e-95
305.30 1.188148e-95
305.40 1.188148e-95
305.50 1.188148e-95
305.60 1.188148e-95
305.70 1.188148e-95
305.80 1.188148e-95
305.90 1.188148e-95
306.00 1.188148e-95
306.10 1.188148e-95
306.20 1.188148e-95
306.30 1.188148e-95
306.40 1.188148e-95
306.50 1.188148e-95
306.60 1.188148e-95
306.70 1.188148e-95
306.80 1.188148e-95
306.90 1.188148e-95
307.00 1.188148e-95
307.10 1.188148e-95
307.20 1.188148e-95
307.30 1.188148e-95
307.40 1.188148e-95
307.50 1.188148e-95
307.60 1.188148e-95
307.70 1.188148e-95
307.80 1.188148e-95
307.90 1.188148e-95
308.00 1.188148e-95
308.10 1.188148e-95
308.20 1.188148e-95
308.30 1.188148e-95
308.40 1.188148e-95
308.50 1.188148e-95
308.60 1.188148e-95
308.70 1.188148e-95
308.80 1.188148e-95
308.90 1.188148e-95
309.00 1.188148e-95
309.10 1.188148e-95
309.20 1.188148e-95
309.30 1.188148e-95
309.40 1.188148e-95
309.50 1.188148e-95
309.60 1.188148e-95
309.70 1.188148e-95
309.80 1.188148e-95
309.90 1.188148e-95
310.00 1.188148e-95
310.10 1.188148e-95
310.20 1.188148e-95
310.30 1.188148e-95
310.40 1.188148e-95
310.50 1.188148e-95
310.60 1.188148e-95
310.70 1.188148e-95
310.80 1.188148e-95
310.90 1.188148e-95
311.00 1.188148e-95
311.10 1.188148e-95
311.20 1.188148e-95
311.30 1.188148e-95
311.40 1.188148e-95
311.50 1.188148e-95
311.60 1.188148e-95
311.70 1.188148e-95
311.80 1.188148e-95
311.90 1.188148e-95
312.00 1.188148e-95
312.10 1.188148e-95
312.20 1.188148e-95
312.30 1.188148e-95
312.40 1.188148e-95
312.50 1.188148e-95
312.60 1.188148e-95
312.70 1.188148e-95
312.80 1.188148e-95
312.90 1.188148e-95
313.00 1.188148e-95
313.10 1.188148e-95
313.20 1.188148e-95
313.30 1.188148e-95
313.40 1.188148e-95
313.50 1.188148e-95
313.60 1.188148e-95
313.70 1.188148e-95
313.80 1.188148e-95
313.90 1.188148e-95
314.00 1.188148e-95
314.10 1.188148e-95
314.20 1.188148e-95
314.30 1.188148e-95
314.40 1.188148e-95
314.50 1.188148e-95
314.60 1.188148e-95
314.70 1.188148e-95
314.80 1.188148e-95
314.90 1.188148e-95
315.00 1.188148e-95
315.10 1.188148e-95
315.20 1.188148e-95
315.30 1.188148e-95
315.40 1.188148e-95
315.50 1.188148e-95
315.60 1.188148e-95
315.70 1.188148e-95
315.80 1.188148e-95
315.90 1.188148e-95
316.00 1.188148e-95
316.10 1.188148e-95
316.20 1.188148e-95
316.30 1.188148e-95
316.40 1.188148e-95
316.50 1.188148e-95
316.60 1.188148e-95
316.70 1.188148e-95
316.80 1.188148e-95
316.90 1.188148e-95
317.00 1.188148e-95
317.10 1.188148e-95
317.20 1.188148e-95
317.30 1.188148e-95
317.40 1.188148e-95
317.50 1.188148e-95
317.60 1.188148e-95
317.70 1.188148e-95
317.80 1.188148e-95
317.90 1.188148e-95
318.00 1.188148e-95
318.10 1.188148e-95
318.20 1.188148e-95
318.30 1.188148e-95
318.40 1.188148e-95
318.50 1.188148e-95
318.60 1.188148e-95
318.70 1.188148e-95
318.80 1.188148e-95
318.90 1.188148e-95
319.00 1.188148e-95
319.10 1.188148e-95
319.20 1.188148e-95
319.30 1.188148e-95
319.40 1.188148e-95
319.50 1.188148e-95
319.60 1.188148e-95
319.70 1.188148e-95
319.80 1.188148e-95
319.90 1.188148e-95
320.00 1.188148e-95
320.10 1.188148e-95
320.20 1.188148e-95
320.30 1.188148e-95
320.40 1.188148e-95
320.50 1.188148e-95
320.60 1.188148e-95
320.70 1.188148e-95
320.80 1.188148e-95
320.90 1.188148e-95
321.00 1.188148e-95
321.10 1.188148e-95
321.20 1.188148e-95
321.30 1.188148e-95
321.40 1.188148e-95
321.50 1.188148e-95
321.60 1.188148e-95
321.70 1.188148e-95
321.80 1.188148e-95
321.90 1.188148e-95
322.00 1.188148e-95
322.10 1.188148e-95
322.20 1.188148e-95
322.30 1.188148e-95
322.40 1.188148e-95
322.50 1.188148e-95
322.60 1.188148e-95
322.70 1.188148e-95
322.80 1.188148e-95
322.90 1.188148e-95
323.00 1.188148e-95
323.10 1.188148e-95
323.20 1.188148e-95
323.30 1.188148e-95
323.40 1.188148e-95
323.50 1.188148e-95
323.60 1.188148e-95
323.70 1.188148e-95
323.80 1.188148e-95
323.90 1.188148e-95
324.00 1.188148e-95
324.10 1.188148e-95
324.20 1.188148e-95
324.30 1.188148e-95
324.40 1.188148e-95
324.50 1.188148e-95
324.60 1.188148e-95
324.70 1.188148e-95
324.80 1.188148e-95
324.90 1.188148e-95
325.00 1.188148e-95
325.10 1.188148e-95
325.20 1.188148e-95
325.30 1.188148e-95
325.40 1.188148e-95
325.50 1.188148e-95
325.60 1.188148e-95
325.70 1.188148e-95
325.80 1.188148e-95
325.90 1.188148e-95
326.00 1.188148e-95
326.10 1.188148e-95
326.20 1.188148e-95
326.30 1.188148e-95
326.40 1.188148e-95
326.50 1.188148e-95
326.60 1.188148e-95
326.70 1.188148e-95
326.80 1.188148e-95
326.90 1.188148e-95
327.00 1.188148e-95
327.10 1.188148e-95
327.20 1.188148e-95
327.30 1.188148e-95
327.40 1.188148e-95
327.50 1.188148e-95
327.60 1.188148e-95
327.70 1.188148e-95
327.80 1.188148e-95
327.90 1.188148e-95
328.00 1.188148e-95
328.10 1.188148e-95
328.20 1.188148e-95
328.30 1.188148e-95
328.40 1.188148e-95
328.50 1.188148e-95
328.60 1.188148e-95
328.70 1.188148e-95
328.80 1.188148e-95
328.90 1.188148e-95
329.00 1.188148e-95
329.10 1.188148e-95
329.20 1.188148e-95
329.30 1.188148e-95
329.40 1.188148e-95
329.50 1.188148e-95
329.60 1.188148e-95
329.70 1.188148e-95
329.80 1.188148e-95
329.90 1.188148e-95
330.00 1.188148e-95
330.10 1.188148e-95
330.20 1.188148e-95
330.30 1.188148e-95
330.40 1.188148e-95
330.50 1.188148e-95
330.60 1.188148e-95
330.70 1.188148e-95
330.80 1.188148e-95
330.90 1.188148e-95
331.00 1.188148e-95
331.10 1.188148e-95
331.20 1.188148e-95
331.30 1.188148e-95
331.40 1.188148e-95
331.50 1.188148e-95
331.60 1.188148e-95
331.70 1.188148e-95
331.80 1.188148e-95
331.90 1.188148e-95
332.00 1.188148e-95
332.10 1.188148e-95
332.20 1.188148e-95
332.30 1.188148e-95
332.40 1.188148e-95
332.50 1.188148e-95
332.60 1.188148e-95
332.70 1.188148e-95
332.80 1.188148e-95
332.90 1.188148e-95
333.00 1.188148e-95
333.10 1.188148e-95
333.20 1.188148e-95
333.30 1.188148e-95
333.40 1.188148e-95
333.50 1.188148e-95
333.60 1.188148e-95
333.70 1.188148e-95
333.80 1.188148e-95
333.90 1.188148e-95
334.00 1.188148e-95
334.10 1.188148e-95
334.20 1.188148e-95
334.30 1.188148e-95
334.40 1.188148e-95
334.50 1.188148e-95
334.60 1.188148e-95
334.70 1.188148e-95
334.80 1.188148e-95
334.90 1.188148e-95
335.00 1.188148e-95
335.10 1.188148e-95
335.20 1.188148e-95
335.30 1.188148e-95
335.40 1.188148e-95
335.50 1.188148e-95
335.60 1.188148e-95
335.70 1.188148e-95
335.80 1.188148e-95
335.90 1.188148e-95
336.00 1.188148e-95
336.10 1.188148e-95
336.20 1.188148e-95
336.30 1.188148e-95
336.40 1.188148e-95
336.50 1.188148e-95
336.60 1.188148e-95
336.70 1.188148e-95
336.80 1.188148e-95
336.90 1.188148e-95
337.00 1.188148e-95
337.10 1.188148e-95
337.20 1.188148e-95
337.30 1.188148e-95
337.40 1.188148e-95
337.50 1.188148e-95
337.60 1.188148e-95
337.70 1.188148e-95
337.80 1.188148e-95
337.90 1.188148e-95
338.00 1.188148e-95
338.10 1.188148e-95
338.20 1.188148e-95
338.30 1.188148e-95
338.40 1.188148e-95
338.50 1.188148e-95
338.60 1.188148e-95
338.70 1.188148e-95
338.80 1.188148e-95
338.90 1.188148e-95
339.00 1.188148e-95
339.10 1.188148e-95
339.20 1.188148e-95
339.30 1.188148e-95
339.40 1.188148e-95
339.50 1.188148e-95
339.60 1.188148e-95
339.70 1.188148e-95
339.80 1.188148e-95
339.90 1.188148e-95
340.00 1.188148e-95
340.10 1.188148e-95
340.20 1.188148e-95
340.30 1.188148e-95
340.40 1.188148e-95
340.50 1.188148e-95
340.60 1.188148e-95
340.70 1.188148e-95
340.80 1.188148e-95
340.90 1.188148e-95
341.00 1.188148e-95
341.10 1.188148e-95
341.20 1.188148e-95
341.30 1.188148e-95
341.40 1.188148e-95
341.50 1.188148e-95
341.60 1.188148e-95
341.70 1.188148e-95
341.80 1.188148e-95
341.90 1.188148e-95
342.00 1.188148e-95
342.10 1.188148e-95
342.20 1.188148e-95
342.30 1.188148e-95
342.40 1.188148e-95
342.50 1.188148e-95
342.60 1.188148e-95
342.70 1.188148e-95
342.80 1.188148e-95
342.90 1.188148e-95
343.00 1.188148e-95
343.10 1.188148e-95
343.20 1.188148e-95
343.30 1.188148e-95
343.40 1.188148e-95
343.50 1.188148e-95
343.60 1.188148e-95
343.70 1.188148e-95
343.80 1.188148e-95
343.90 1.188148e-95
344.00 1.188148e-95
344.10 1.188148e-95
344.20 1.188148e-95
344.30 1.188148e-95
344.40 1.188148e-95
344.50 1.188148e-95
344.60 1.188148e-95
344.70 1.188148e-95
344.80 1.188148e-95
344.90 1.188148e-95
345.00 1.188148e-95
345.10 1.188148e-95
345.20 1.188148e-95
345.30 1.188148e-95
345.40 1.188148e-95
345.50 1.188148e-95
345.60 1.188148e-95
345.70 1.188148e-95
345.80 1.188148e-95
345.90 1.188148e-95
346.00 1.188148e-95
346.10 1.188148e-95
346.20 1.188148e-95
346.30 1.188148e-95
346.40 1.188148e-95
346.50 1.188148e-95
346.60 1.188148e-95
346.70 1.188148e-95
346.80 1.188148e-95
346.90 1.188148e-95
347.00 1.188148e-95
347.10 1.188148e-95
347.20 1.188148e-95
347.30 1.188148e-95
347.40 1.188148e-95
347.50 1.188148e-95
347.60 1.188148e-95
347.70 1.188148e-95
347.80 1.188148e-95
347.90 1.188148e-95
348.00 1.188148e-95
348.10 1.188148e-95
348.20 1.188148e-95
348.30 1.188148e-95
348.40 1.188148e-95
348.50 1.188148e-95
348.60 1.188148e-95
348.70 1.188148e-95
348.80 1.188148e-95
348.90 1.188148e-95
349.00 1.188148e-95
349.10 1.188148e-95
349.20 1.188148e-95
349.30 1.188148e-95
349.40 1.188148e-95
349.50 1.188148e-95
349.60 1.188148e-95
349.70 1.188148e-95
349.80 1.188148e-95
349.90 1.188148e-95
350.00 1.188148e-95
350.10 1.188148e-95
350.20 1.188148e-95
350.30 1.188148e-95
350.40 1.188148e-95
350.50 1.188148e-95
350.60 1.188148e-95
350.70 1.188148e-95
350.80 1.188148e-95
350.90 1.188148e-95
351.00 1.188148e-95
351.10 1.188148e-95
351.20 1.188148e-95
351.30 1.188148e-95
351.40 1.188148e-95
351.50 1.188148e-95
351.60 1.188148e-95
351.70 1.188148e-95
351.80 1.188148e-95
351.90 1.188148e-95
352.00 1.188148e-95
352.10 1.188148e-95
352.20 1.188148e-95
352.30 1.188148e-95
352.40 1.188148e-95
352.50 1.188148e-95
352.60 1.188148e-95
352.70 1.188148e-95
352.80 1.188148e-95
352.90 1.188148e-95
353.00 1.188148e-95
353.10 1.188148e-95
353.20 1.188148e-95
353.30 1.188148e-95
353.40 1.188148e-95
353.50 1.188148e-95
353.60 1.188148e-95
353.70 1.188148e-95
353.80 1.188148e-95
353.90 1.188148e-95
354.00 1.188148e-95
354.10 1.188148e-95
354.20 1.188148e-95
354.30 1.188148e-95
354.40 1.188148e-95
354.50 1.188148e-95
354.60 1.188148e-95
354.70 1.188148e-95
354.80 1.188148e-95
354.90 1.188148e-95
355.00 1.188148e-95
355.10 1.188148e-95
355.20 1.188148e-95
355.30 1.188148e-95
355.40 1.188148e-95
355.50 1.188148e-95
355.60 1.188148e-95
355.70 1.188148e-95
355.80 1.188148e-95
355.90 1.188148e-95
356.00 1.188148e-95
356.10 1.188148e-95
356.20 1.188148e-95
356.30 1.188148e-95
356.40 1.188148e-95
356.50 1.188148e-95
356.60 1.188148e-95
356.70 1.188148e-95
356.80 1.188148e-95
356.90 1.188148e-95
357.00 1.188148e-95
357.10 1.188148e-95
357.20 1.188148e-95
357.30 1.188148e-95
357.40 1.188148e-95
357.50 1.188148e-95
357.60 1.188148e-95
357.70 1.188148e-95
357.80 1.188148e-95
357.90 1.188148e-95
358.00 1.188148e-95
358.10 1.188148e-95
358.20 1.188148e-95
358.30 1.188148e-95
358.40 1.188148e-95
358.50 1.188148e-95
358.60 1.188148e-95
358.70 1.188148e-95
358.80 1.188148e-95
358.90 1.188148e-95
359.00 1.188148e-95
359.10 1.188148e-95
359.20 1.188148e-95
359.30 1.188148e-95
359.40 1.188148e-95
359.50 1.188148e-95
359.60 1.188148e-95
359.70 1.188148e-95
359.80 1.188148e-95
359.90 1.188148e-95
360.00 1.188148e-95
360.10 1.188148e-95
360.20 1.188148e-95
360.30 1.188148e-95
360.40 1.188148e-95
360.50 1.188148e-95
360.60 1.188148e-95
360.70 1.188148e-95
360.80 1.188148e-95
360.90 1.188148e-95
361.00 1.188148e-95
361.10 1.188148e-95
361.20 1.188148e-95
361.30 1.188148e-95
361.40 1.188148e-95
361.50 1.188148e-95
361.60 1.188148e-95
361.70 1.188148e-95
361.80 1.188148e-95
361.90 1.188148e-95
362.00 1.188148e-95
362.10 1.188148e-95
362.20 1.188148e-95
362.30 1.188148e-95
362.40 1.188148e-95
362.50 1.188148e-95
362.60 1.188148e-95
362.70 1.188148e-95
362.80 1.188148e-95
362.90 1.188148e-95
363.00 1.188148e-95
363.10 1.188148e-95
363.20 1.188148e-95
363.30 1.188148e-95
363.40 1.188148e-95
363.50 1.188148e-95
363.60 1.188148e-95
363.70 1.188148e-95
363.80 1.188148e-95
363.90 1.188148e-95
364.00 1.188148e-95
364.10 1.188148e-95
364.20 1.188148e-95
364.30 1.188148e-95
364.40 1.188148e-95
364.50 1.188148e-95
364.60 1.188148e-95
364.70 1.188148e-95
364.80 1.188148e-95
364.90 1.188148e-95
365.00 1.188148e-95
365.10 1.188148e-95
365.20 1.188148e-95
365.30 1.188148e-95
365.40 1.188148e-95
365.50 1.188148e-95
365.60 1.188148e-95
365.70 1.188148e-95
365.80 1.188148e-95
365.90 1.188148e-95
366.00 1.188148e-95
366.10 1.188148e-95
366.20 1.188148e-95
366.30 1.188148e-95
366.40 1.188148e-95
366.50 1.188148e-95
366.60 1.188148e-95
366.70 1.188148e-95
366.80 1.188148e-95
366.90 1.188148e-95
367.00 1.188148e-95
367.10 1.188148e-95
367.20 1.188148e-95
367.30 1.188148e-95
367.40 1.188148e-95
367.50 1.188148e-95
367.60 1.188148e-95
367.70 1.188148e-95
367.80 1.188148e-95
367.90 1.188148e-95
368.00 1.188148e-95
368.10 1.188148e-95
368.20 1.188148e-95
368.30 1.188148e-95
368.40 1.188148e-95
368.50 1.188148e-95
368.60 1.188148e-95
368.70 1.188148e-95
368.80 1.188148e-95
368.90 1.188148e-95
369.00 1.188148e-95
369.10 1.188148e-95
369.20 1.188148e-95
369.30 1.188148e-95
369.40 1.188148e-95
369.50 1.188148e-95
369.60 1.188148e-95
369.70 1.188148e-95
369.80 1.188148e-95
369.90 1.188148e-95
370.00 1.188148e-95
370.10 1.188148e-95
370.20 1.188148e-95
370.30 1.188148e-95
370.40 1.188148e-95
370.50 1.188148e-95
370.60 1.188148e-95
370.70 1.188148e-95
370.80 1.188148e-95
370.90 1.188148e-95
371.00 1.188148e-95
371.10 1.188148e-95
371.20 1.188148e-95
371.30 1.188148e-95
371.40 1.188148e-95
371.50 1.188148e-95
371.60 1.188148e-95
371.70 1.188148e-95
371.80 1.188148e-95
371.90 1.188148e-95
372.00 1.188148e-95
372.10 1.188148e-95
372.20 1.188148e-95
372.30 1.188148e-95
372.40 1.188148e-95
372.50 1.188148e-95
372.60 1.188148e-95
372.70 1.188148e-95
372.80 1.188148e-95
372.90 1.188148e-95
373.00 1.188148e-95
373.10 1.188148e-95
373.20 1.188148e-95
373.30 1.188148e-95
373.40 1.188148e-95
373.50 1.188148e-95
373.60 1.188148e-95
373.70 1.188148e-95
373.80 1.188148e-95
373.90 1.188148e-95
374.00 1.188148e-95
374.10 1.188148e-95
374.20 1.188148e-95
374.30 1.188148e-95
374.40 1.188148e-95
374.50 1.188148e-95
374.60 1.188148e-95
374.70 1.188148e-95
374.80 1.188148e-95
374.90 1.188148e-95
375.00 1.188148e-95
375.10 1.188148e-95
375.20 1.188148e-95
375.30 1.188148e-95
375.40 1.188148e-95
375.50 1.188148e-95
375.60 1.188148e-95
375.70 1.188148e-95
375.80 1.188148e-95
375.90 1.188148e-95
376.00 1.188148e-95
376.10 1.188148e-95
376.20 1.188148e-95
376.30 1.188148e-95
376.40 1.188148e-95
376.50 1.188148e-95
376.60 1.188148e-95
376.70 1.188148e-95
376.80 1.188148e-95
376.90 1.188148e-95
377.00 1.188148e-95
377.10 1.188148e-95
377.20 1.188148e-95
377.30 1.188148e-95
377.40 1.188148e-95
377.50 1.188148e-95
377.60 1.188148e-95
377.70 1.188148e-95
377.80 1.188148e-95
377.90 1.188148e-95
378.00 1.188148e-95
378.10 1.188148e-95
378.20 1.188148e-95
378.30 1.188148e-95
378.40 1.188148e-95
378.50 1.188148e-95
378.60 1.188148e-95
378.70 1.188148e-95
378.80 1.188148e-95
378.90 1.188148e-95
379.00 1.188148e-95
379.10 1.188148e-95
379.20 1.188148e-95
379.30 1.188148e-95
379.40 1.188148e-95
379.50 1.188148e-95
379.60 1.188148e-95
379.70 1.188148e-95
379.80 1.188148e-95
379.90 1.188148e-95
380.00 1.188148e-95
380.10 1.188148e-95
380.20 1.188148e-95
380.30 1.188148e-95
380.40 1.188148e-95
380.50 1.188148e-95
380.60 1.188148e-95
380.70 1.188148e-95
380.80 1.188148e-95
380.90 1.188148e-95
381.00 1.188148e-95
381.10 1.188148e-95
381.20 1.188148e-95
381.30 1.188148e-95
381.40 1.188148e-95
381.50 1.188148e-95
381.60 1.188148e-95
381.70 1.188148e-95
381.80 1.188148e-95
381.90 1.188148e-95
382.00 1.188148e-95
382.10 1.188148e-95
382.20 1.188148e-95
382.30 1.188148e-95
382.40 1.188148e-95
382.50 1.188148e-95
382.60 1.188148e-95
382.70 1.188148e-95
382.80 1.188148e-95
382.90 1.188148e-95
383.00 1.188148e-95
383.10 1.188148e-95
383.20 1.188148e-95
383.30 1.188148e-95
383.40 1.188148e-95
383.50 1.188148e-95
383.60 1.188148e-95
383.70 1.188148e-95
383.80 1.188148e-95
383.90 1.188148e-95
384.00 1.188148e-95
384.10 1.188148e-95
384.20 1.188148e-95
384.30 1.188148e-95
384.40 1.188148e-95
384.50 1.188148e-95
384.60 1.188148e-95
384.70 1.188148e-95
384.80 1.188148e-95
384.90 1.188148e-95
385.00 1.188148e-95
385.10 1.188148e-95
385.20 1.188148e-95
385.30 1.188148e-95
385.40 1.188148e-95
385.50 1.188148e-95
385.60 1.188148e-95
385.70 1.188148e-95
385.80 1.188148e-95
385.90 1.188148e-95
386.00 1.188148e-95
386.10 1.188148e-95
386.20 1.188148e-95
386.30 1.188148e-95
386.40 1.188148e-95
386.50 1.188148e-95
386.60 1.188148e-95
386.70 1.188148e-95
386.80 1.188148e-95
386.90 1.188148e-95
387.00 1.188148e-95
387.10 1.188148e-95
387.20 1.188148e-95
387.30 1.188148e-95
387.40 1.188148e-95
387.50 1.188148e-95
387.60 1.188148e-95
387.70 1.188148e-95
387.80 1.188148e-95
387.90 1.188148e-95
388.00 1.188148e-95
388.10 1.188148e-95
388.20 1.188148e-95
388.30 1.188148e-95
388.40 1.188148e-95
388.50 1.188148e-95
388.60 1.188148e-95
388.70 1.188148e-95
388.80 1.188148e-95
388.90 1.188148e-95
389.00 1.188148e-95
389.10 1.188148e-95
389.20 1.188148e-95
389.30 1.188148e-95
389.40 1.188148e-95
389.50 1.188148e-95
389.60 1.188148e-95
389.70 1.188148e-95
389.80 1.188148e-95
389.90 1.188148e-95
390.00 1.188148e-95
390.10 1.188148e-95
390.20 1.188148e-95
390.30 1.188148e-95
390.40 1.188148e-95
390.50 1.188148e-95
390.60 1.188148e-95
390.70 1.188148e-95
390.80 1.188148e-95
390.90 1.188148e-95
391.00 1.188148e-95
391.10 1.188148e-95
391.20 1.188148e-95
391.30 1.188148e-95
391.40 1.188148e-95
391.50 1.188148e-95
391.60 1.188148e-95
391.70 1.188148e-95
391.80 1.188148e-95
391.90 1.188148e-95
392.00 1.188148e-95
392.10 1.188148e-95
392.20 1.188148e-95
392.30 1.188148e-95
392.40 1.188148e-95
392.50 1.188148e-95
392.60 1.188148e-95
392.70 1.188148e-95
392.80 1.188148e-95
392.90 1.188148e-95
393.00 1.188148e-95
393.10 1.188148e-95
393.20 1.188148e-95
393.30 1.188148e-95
393.40 1.188148e-95
393.50 1.188148e-95
393.60 1.188148e-95
393.70 1.188148e-95
393.80 1.188148e-95
393.90 1.188148e-95
394.00 1.188148e-95
394.10 1.188148e-95
394.20 1.188148e-95
394.30 1.188148e-95
394.40 1.188148e-95
394.50 1.188148e-95
394.60 1.188148e-95
394.70 1.188148e-95
394.80 1.188148e-95
394.90 1.188148e-95
395.00 0.01258459
395.10 0.02420829
395.20 0.03476161
395.30 0.04421784
395.40 0.05249628
395.50 0.05950522
395.60 0.06543445
395.70 0.07054282
395.80 0.07507599
395.90 0.07954873
396.00 0.08504062
396.10 0.09290235
396.20 0.1040614
396.30 0.1186826
396.40 0.1360463
396.50 0.1546218
396.60 0.1724437
396.70 0.1875986
396.80 0.1986964
396.90 0.2051096
397.00 0.2069904
397.10 0.2069904
397.20 0.2069904
397.30 0.2069904
397.40 0.2069904
397.50 0.2069904
397.60 0.2087889
397.70 0.2121091
397.80 0.2160024
397.90 0.2197202
398.00 0.2228749
398.10 0.2255161
398.20 0.2281309
398.30 0.2314453
398.40 0.2360567
398.50 0.2421996
398.60 0.2494624
398.70 0.2569332
398.80 0.2636806
398.90 0.2689417
399.00 0.2721183
399.10 0.273069
399.20 0.273069
399.30 0.273069
399.40 0.273069
399.50 0.273069
399.60 0.273069
399.70 0.273069
399.80 0.273069
399.90 0.273069
400.00 0.273069
400.10 0.273069
400.20 0.273069
400.30 0.273069
400.40 0.273069
400.50 0.273069
400.60 0.273069
400.70 0.2742402
400.80 0.2772286
400.90 0.2824095
401.00 0.289678
401.10 0.2984836
401.20 0.3081107
401.30 0.3180338
401.40 0.3277452
401.50 0.3366381
401.60 0.3441322
401.70 0.3498209
401.80 0.353577
401.90 0.3557335
402.00 0.3572143
402.10 0.3591836
402.20 0.3628
402.30 0.3688372
402.40 0.3774131
402.50 0.3880827
402.60 0.4000139
402.70 0.4122118
402.80 0.4239411
402.90 0.4350062
403.00 0.445351
403.10 0.4545443
403.20 0.4619906
403.30 0.4673542
403.40 0.4705079
403.50 0.4715195
403.60 0.4715195
403.70 0.4715195
403.80 0.4715195
403.90 0.4715195
404.00 0.4715195
404.10 0.4736311
404.20 0.4784118
404.30 0.4850658
404.40 0.4926341
404.50 0.500499
404.60 0.5083447
404.70 0.5158421
404.80 0.5227275
404.90 0.5288855
405.00 0.521877
405.10 0.5159709
405.20 0.5124684
405.30 0.5124672
405.40 0.5165397
405.50 0.5250058
405.60 0.5378261
405.70 0.5542517
405.80 0.5728289
405.90 0.5915341
406.00 0.6078548
406.10 0.6192959
406.20 0.6242244
406.30 0.6225183
406.40 0.61567
406.50 0.6062588
406.60 0.5969891
406.70 0.5903095
406.80 0.5882451
406.90 0.5917382
407.00 0.6003603
407.10 0.6109282
407.20 0.6210748
407.30 0.6303773
407.40 0.6382751
407.50 0.6442229
407.60 0.6463222
407.70 0.6453017
407.80 0.6428399
407.90 0.6403134
408.00 0.6388344
408.10 0.6392193
408.20 0.6415813
408.30 0.6452215
408.40 0.6493259
408.50 0.653311
408.60 0.6566475
408.70 0.6589748
408.80 0.660227
408.90 0.6607158
409.00 0.6609757
409.10 0.6613198
409.20 0.6613198
409.30 0.6613198
409.40 0.6621312
409.50 0.6653089
409.60 0.6715626
409.70 0.6812008
409.80 0.693795
409.90 0.7083149
410.00 0.7237609
410.10 0.7392771
410.20 0.754197
410.30 0.7680986
410.40 0.780915
410.50 0.7930367
410.60 0.8049031
410.70 0.8155095
410.80 0.8242566
410.90 0.8307989
411.00 0.8352847
411.10 0.8381753
411.20 0.8399704
411.30 0.8414097
411.40 0.8436128
411.50 0.8476586
411.60 0.8542461
411.70 0.8635049
411.80 0.8749865
411.90 0.8875608
412.00 0.8996845
412.10 0.9099903
412.20 0.9174045
412.30 0.9215182
412.40 0.9227447
412.50 0.9220613
412.60 0.9204859
412.70 0.9184621
412.80 0.9157497
412.90 0.9117106
413.00 0.9060143
413.10 0.8993084
413.20 0.8931025
413.30 0.8889689
413.40 0.887995
413.50 0.8907816
413.60 0.8964972
413.70 0.9038862
413.80 0.9122288
413.90 0.9206091
414.00 0.928274
414.10 0.9326124
414.20 0.9329205
414.30 0.9301944
414.40 0.9258148
414.50 0.9211402
414.60 0.9171023
414.70 0.9145311
414.80 0.9142343
414.90 0.9165511
415.00 0.9211715
415.10 0.9268715
415.20 0.93187
415.30 0.9346121
415.40 0.9342509
415.50 0.9301899
415.60 0.9218826
415.70 0.9096606
415.80 0.8947717
415.90 0.8788177
416.00 0.8634599
416.10 0.8499721
416.20 0.8390881
416.30 0.830883
416.40 0.8247351
416.50 0.8197293
416.60 0.8150897
416.70 0.8100666
416.80 0.8037674
416.90 0.7958866
417.00 0.7871104
417.10 0.7784417
417.20 0.7707483
417.30 0.7646363
417.40 0.7606247
417.50 0.7592157
417.60 0.7604283
417.70 0.7635082
417.80 0.7672744
417.90 0.770698
418.00 0.7729431
418.10 0.7732947
418.20 0.7714486
418.30 0.7675734
418.40 0.7617617
418.50 0.7542483
418.60 0.7459576
418.70 0.7381123
418.80 0.731724
418.90 0.7273986
419.00 0.7253536
419.10 0.7255444
419.20 0.7273695
419.30 0.729699
419.40 0.7316109
419.50 0.7313751
419.60 0.7281259
419.70 0.721531
419.80 0.7123629
419.90 0.7021254
420.00 0.6922342
420.10 0.6839263
420.20 0.6780962
420.30 0.6750338
420.40 0.6743329
420.50 0.6749803
420.60 0.6758203
420.70 0.676268
420.80 0.6763266
420.90 0.6760366
421.00 0.6752973
421.10 0.6739927
421.20 0.6718946
421.30 0.6683501
421.40 0.6626622
421.50 0.6547034
421.60 0.6448504
421.70 0.6339164
421.80 0.6230162
421.90 0.6133515
422.00 0.6056976
422.10 0.5999211
422.20 0.595293
422.30 0.5910588
422.40 0.5866564
422.50 0.5817617
422.60 0.5765433
422.70 0.5720154
422.80 0.5696284
422.90 0.5704702
423.00 0.5749324
423.10 0.5825697
423.20 0.5920732
423.30 0.6016968
423.40 0.6098149
423.50 0.615118
423.60 0.616672
423.70 0.614075
423.80 0.6076872
423.90 0.5993069
424.00 0.591642
424.10 0.585192
424.20 0.5801032
424.30 0.5778609
424.40 0.5793711
424.50 0.5838019
424.60 0.5901117
424.70 0.5971292
424.80 0.6035452
424.90 0.6083705
425.00 0.6110017
425.10 0.6112088
425.20 0.6089825
425.30 0.6046801
425.40 0.5988418
425.50 0.5919389
425.60 0.5846111
425.70 0.5776664
425.80 0.5717255
425.90 0.5668484
426.00 0.562606
426.10 0.5587291
426.20 0.5551821
426.30 0.5519328
426.40 0.549082
426.50 0.54692
426.60 0.545823
426.70 0.5458991
426.80 0.5469982
426.90 0.5487038
427.00 0.5502597
427.10 0.5509796
427.20 0.5505275
427.30 0.5491221
427.40 0.5472453
427.50 0.5450137
427.60 0.5423775
427.70 0.5395045
427.80 0.5366857
427.90 0.534146
428.00 0.5320246
428.10 0.530459
428.20 0.5294094
428.30 0.5288376
428.40 0.5288394
428.50 0.5292616
428.60 0.5299132
428.70 0.5309041
428.80 0.5325307
428.90 0.5349674
429.00 0.5380347
429.10 0.5413163
429.20 0.5443378
429.30 0.546802
429.40 0.5487226
429.50 0.5501586
429.60 0.5512392
429.70 0.5520172
429.80 0.5522514
429.90 0.5517193
430.00 0.5502648
430.10 0.547691
430.20 0.5439612
430.30 0.5392861
430.40 0.5341607
430.50 0.5293011
430.60 0.5253175
430.70 0.5222769
430.80 0.5196533
430.90 0.5168675
431.00 0.513454
431.10 0.5093346
431.20 0.5049345
431.30 0.5008192
431.40 0.4974597
431.50 0.4950299
431.60 0.4933913
431.70 0.492392
431.80 0.4917585
431.90 0.4909426
432.00 0.4893924
432.10 0.486933
432.20 0.4839701
432.30 0.481032
432.40 0.4785025
432.50 0.4765403
432.60 0.4750878
432.70 0.4738773
432.80 0.4723571
432.90 0.4699322
433.00 0.4660647
433.10 0.4604547
433.20 0.453319
433.30 0.4452771
433.40 0.4371883
433.50 0.4298737
433.60 0.4239749
433.70 0.4201051
433.80 0.4186866
433.90 0.4188483
434.00 0.4188483
434.10 0.4188483
434.20 0.4188483
434.30 0.4171628
434.40 0.4124638
434.50 0.4048509
434.60 0.3962123
434.70 0.3872812
434.80 0.3785502
434.90 0.3703025
435.00 0.3625213
435.10 0.3549361
435.20 0.3473883
435.30 0.3400036
435.40 0.3338521
435.50 0.3293411
435.60 0.3273347
435.70 0.3279098
435.80 0.3301691
435.90 0.3333103
436.00 0.3367078
436.10 0.339812
436.20 0.3420935
436.30 0.3431109
436.40 0.3427152
436.50 0.3410398
436.60 0.3383525
436.70 0.3350707
436.80 0.3316726
436.90 0.3284899
437.00 0.3259195
437.10 0.3245454
437.20 0.3247296
437.30 0.3262426
437.40 0.328512
437.50 0.3312198
437.60 0.3342838
437.70 0.3376482
437.80 0.3413617
437.90 0.3456689
438.00 0.3507364
438.10 0.3565687
438.20 0.3633244
438.30 0.3711922
438.40 0.3803038
438.50 0.3908282
438.60 0.4027155
438.70 0.4156133
438.80 0.428977
438.90 0.4420601
439.00 0.4542883
439.10 0.4655273
439.20 0.4757469
439.30 0.484724
439.40 0.4922361
439.50 0.4982577
439.60 0.5027155
439.70 0.5055847
439.80 0.5069078
439.90 0.5066975
440.00 0.5051052
440.10 0.5024005
440.20 0.498783
440.30 0.4946603
440.40 0.49088
440.50 0.4883537
440.60 0.4877246
440.70 0.4892822
440.80 0.4930119
440.90 0.4986783
441.00 0.5059691
441.10 0.5142127
441.20 0.5225775
441.30 0.5304775
441.40 0.5374883
441.50 0.5434603
441.60 0.5486058
441.70 0.5530012
441.80 0.5564558
441.90 0.5588762
442.00 0.5604415
442.10 0.5617043
442.20 0.5631641
442.30 0.5649443
442.40 0.5667855
442.50 0.5683773
442.60 0.5695969
442.70 0.5705136
442.80 0.5713948
442.90 0.572501
443.00 0.5741959
443.10 0.5769515
443.20 0.5808886
443.30 0.5856791
443.40 0.5909355
443.50 0.5963254
443.60 0.6016454
443.70 0.606787
443.80 0.6118672
443.90 0.6174007
444.00 0.6237399
444.10 0.6310189
444.20 0.6390588
444.30 0.6473062
444.40 0.6549816
444.50 0.6612322
444.60 0.6639693
444.70 0.6629307
444.80 0.6586571
444.90 0.6536047
445.00 0.6485582
445.10 0.6445187
445.20 0.6422434
445.30 0.6434622
445.40 0.6470836
445.50 0.6521877
445.60 0.6573644
445.70 0.6617931
445.80 0.6657485
445.90 0.6700242
446.00 0.6754721
446.10 0.6825559
446.20 0.6914517
446.30 0.7020205
446.40 0.7133329
446.50 0.7237009
446.60 0.7313607
446.70 0.7354179
446.80 0.7363041
446.90 0.7357557
447.00 0.7350436
447.10 0.7337986
447.20 0.7328759
447.30 0.7330059
447.40 0.7343137
447.50 0.7367482
447.60 0.7400386
447.70 0.7436976
447.80 0.747294
447.90 0.7505949
448.00 0.7535501
448.10 0.7559149
448.20 0.7570182
448.30 0.7565348
448.40 0.754727
448.50 0.7518649
448.60 0.7481703
448.70 0.7438362
448.80 0.7389346
448.90 0.7335422
449.00 0.727659
449.10 0.721184
449.20 0.7142904
449.30 0.7075981
449.40 0.7019067
449.50 0.6979761
449.60 0.6963393
449.70 0.6969987
449.80 0.6996653
449.90 0.7042464
450.00 0.7108142
450.10 0.719312
450.20 0.7295088
450.30 0.7408419
450.40 0.7521646
450.50 0.7620543
450.60 0.7693398
450.70 0.7734571
450.80 0.7745915
450.90 0.773565
451.00 0.7717564
451.10 0.770989
451.20 0.7728841
451.30 0.7781556
451.40 0.7865108
451.50 0.7970274
451.60 0.8084932
451.70 0.819814
451.80 0.8305724
451.90 0.8409278
452.00 0.851185
452.10 0.8614978
452.20 0.8718837
452.30 0.8826316
452.40 0.8942648
452.50 0.906986
452.60 0.9204653
452.70 0.9340647
452.80 0.9470356
452.90 0.9585765
453.00 0.9679648
453.10 0.9746445
453.20 0.9782671
453.30 0.9790182
453.40 0.9775501
453.50 0.9748345
453.60 0.9720329
453.70 0.9700535
453.80 0.9692743
453.90 0.9697238
454.00 0.9712648
454.10 0.9736775
454.20 0.9769808
454.30 0.9816384
454.40 0.988312
454.50 0.9974871
454.60 1.009283
454.70 1.023334
454.80 1.038868
454.90 1.053631
455.00 1.067631
455.10 1.081082
455.20 1.094179
455.30 1.10532
455.40 1.114585
455.50 1.122591
455.60 1.129528
455.70 1.135065
455.80 1.138606
455.90 1.139633
456.00 1.138024
456.10 1.134069
456.20 1.128419
456.30 1.122039
456.40 1.116195
456.50 1.11241
456.60 1.112203
456.70 1.116333
456.80 1.124078
456.90 1.133086
457.00 1.141055
457.10 1.14715
457.20 1.14999
457.30 1.149206
457.40 1.145674
457.50 1.140765
457.60 1.135918
457.70 1.132454
457.80 1.131291
457.90 1.132542
458.00 1.135512
458.10 1.139277
458.20 1.143114
458.30 1.146428
458.40 1.148959
458.50 1.150845
458.60 1.152091
458.70 1.15254
458.80 1.152046
458.90 1.150653
459.00 1.148863
459.10 1.147256
459.20 1.145927
459.30 1.1447
459.40 1.143485
459.50 1.142336
459.60 1.141645
459.70 1.142163
459.80 1.14454
459.90 1.14887
460.00 1.154688
460.10 1.161197
460.20 1.167619
460.30 1.173492
460.40 1.178424
460.50 1.181982
460.60 1.184262
460.70 1.185855
460.80 1.187406
460.90 1.189317
461.00 1.191401
461.10 1.193038
461.20 1.193837
461.30 1.194122
461.40 1.194695
461.50 1.196352
461.60 1.199645
461.70 1.204443
461.80 1.209927
461.90 1.215205
462.00 1.219442
462.10 1.221965
462.20 1.222245
462.30 1.219768
462.40 1.214442
462.50 1.20682
462.60 1.197702
462.70 1.187716
462.80 1.177469
462.90 1.167866
463.00 1.159859
463.10 1.154498
463.20 1.152915
463.30 1.155625
463.40 1.162267
463.50 1.171615
463.60 1.181923
463.70 1.191475
463.80 1.198878
463.90 1.203125
464.00 1.203755
464.10 1.20112
464.20 1.196155
464.30 1.189783
464.40 1.18268
464.50 1.175271
464.60 1.167851
464.70 1.160686
464.80 1.153854
464.90 1.147244
465.00 1.140571
465.10 1.133497
465.20 1.125783
465.30 1.117256
465.40 1.107821
465.50 1.097718
465.60 1.087616
465.70 1.078502
465.80 1.071564
465.90 1.067533
466.00 1.066401
466.10 1.067641
466.20 1.070233
466.30 1.072992
466.40 1.075159
466.50 1.076623
466.60 1.077547
466.70 1.078288
466.80 1.079536
466.90 1.082351
467.00 1.087875
467.10 1.096666
467.20 1.108278
467.30 1.121696
467.40 1.135717
467.50 1.149122
467.60 1.160934
467.70 1.170258
467.80 1.17613
467.90 1.177765
468.00 1.175108
468.10 1.168997
468.20 1.160885
468.30 1.151928
468.40 1.142527
468.50 1.133116
468.60 1.124524
468.70 1.117596
468.80 1.112967
468.90 1.110992
469.00 1.111747
469.10 1.115145
469.20 1.121088
469.30 1.129357
469.40 1.139254
469.50 1.149688
469.60 1.159446
469.70 1.167402
469.80 1.172793
469.90 1.175124
470.00 1.174184
470.10 1.170256
470.20 1.163865
470.30 1.155533
470.40 1.146079
470.50 1.136807
470.60 1.128834
470.70 1.122728
470.80 1.118613
470.90 1.116075
471.00 1.1142
471.10 1.111918
471.20 1.108174
471.30 1.10194
471.40 1.092619
471.50 1.08024
471.60 1.065454
471.70 1.049707
471.80 1.034698
471.90 1.021566
472.00 1.010894
472.10 1.002766
472.20 0.9969932
472.30 0.9933712
472.40 0.9915418
472.50 0.9909996
472.60 0.991332
472.70 0.9924288
472.80 0.9942056
472.90 0.9963659
473.00 0.9984138
473.10 0.9994563
473.20 0.9985254
473.30 0.9952982
473.40 0.9901537
473.50 0.9839642
473.60 0.9779148
473.70 0.973202
473.80 0.970706
473.90 0.9707845
474.00 0.9732057
474.10 0.977176
474.20 0.9815578
474.30 0.9852052
474.40 0.98738
474.50 0.9879573
474.60 0.9872252
474.70 0.9857237
474.80 0.9844309
474.90 0.9845637
475.00 0.9870281
475.10 0.9921623
475.20 0.9996629
475.30 1.008743
475.40 1.018258
475.50 1.026773
475.60 1.032928
475.70 1.035779
475.80 1.034964
475.90 1.030955
476.00 1.024804
476.10 1.017694
476.20 1.010814
476.30 1.005192
476.40 1.001351
476.50 0.9990343
476.60 0.9976902
476.70 0.9967738
476.80 0.9956937
476.90 0.9938241
477.00 0.9905589
477.10 0.9855588
477.20 0.9787208
477.30 0.9700114
477.40 0.9596124
477.50 0.9479638
477.60 0.9356718
477.70 0.9236052
477.80 0.9129136
477.90 0.9051379
478.00 0.9015821
478.10 0.902477
478.20 0.9070006
478.30 0.9138346
478.40 0.9216123
478.50 0.9288939
478.60 0.9344409
478.70 0.9374914
478.80 0.9378525
478.90 0.9357628
479.00 0.9314941
479.10 0.9253328
479.20 0.9177146
479.30 0.9088424
479.40 0.8986328
479.50 0.8871879
479.60 0.8749738
479.70 0.8626343
479.80 0.850602
479.90 0.8392131
480.00 0.828778
480.10 0.8195034
480.20 0.8117784
480.30 0.806264
480.40 0.8035448
480.50 0.8037033
480.60 0.8063935
480.70 0.8109699
480.80 0.8165965
480.90 0.8224668
481.00 0.8278777
481.10 0.8323187
481.20 0.8356671
481.30 0.8382154
481.40 0.8403113
481.50 0.8421465
481.60 0.8436475
481.70 0.8444897
481.80 0.8444444
481.90 0.843651
482.00 0.8424687
482.10 0.8413549
482.20 0.8407881
482.30 0.8410685
482.40 0.8424497
482.50 0.8451313
482.60 0.849073
482.70 0.8538722
482.80 0.8591065
482.90 0.8646581
483.00 0.8705117
483.10 0.876514
483.20 0.882281
483.30 0.8872458
483.40 0.8909375
483.50 0.8932187
483.60 0.8941682
483.70 0.8941984
483.80 0.8938078
483.90 0.893348
484.00 0.8932054
484.10 0.8938027
484.20 0.8954041
484.30 0.8979904
484.40 0.9013003
484.50 0.9050681
484.60 0.9091216
484.70 0.9131167
484.80 0.9162057
484.90 0.9173201
485.00 0.915801
485.10 0.9114021
485.20 0.9045845
485.30 0.8966789
485.40 0.8894235
485.50 0.8845675
485.60 0.8835327
485.70 0.8869577
485.80 0.8945031
485.90 0.9051076
486.00 0.9174482
486.10 0.9302773
486.20 0.9424746
486.30 0.9530643
486.40 0.9613022
486.50 0.9668582
486.60 0.9697057
486.70 0.9700101
486.80 0.9683144
486.90 0.96548
487.00 0.9626518
487.10 0.9612665
487.20 0.9626528
487.30 0.9674273
487.40 0.9753159
487.50 0.9854216
487.60 0.9966101
487.70 1.007905
487.80 1.01862
487.90 1.027995
488.00 1.035245
488.10 1.040136
488.20 1.043029
488.30 1.044666
488.40 1.045869
488.50 1.047226
488.60 1.049157
488.70 1.05197
488.80 1.055684
488.90 1.060132
489.00 1.06519
489.10 1.070543
489.20 1.075601
489.30 1.080141
489.40 1.08466
489.50 1.089715
489.60 1.095288
489.70 1.101082
489.80 1.106955
489.90 1.11277
490.00 1.118253
490.10 1.12331
490.20 1.127878
490.30 1.131596
490.40 1.134064
490.50 1.135119
490.60 1.134801
490.70 1.133247
490.80 1.130359
490.90 1.125993
491.00 1.120537
491.10 1.114727
491.20 1.109039
491.30 1.103634
491.40 1.098689
491.50 1.094286
491.60 1.090445
491.70 1.087322
491.80 1.08501
491.90 1.083428
492.00 1.082408
492.10 1.08166
492.20 1.080793
492.30 1.079313
492.40 1.076426
492.50 1.07125
492.60 1.063567
492.70 1.054095
492.80 1.044016
492.90 1.034438
493.00 1.026267
493.10 1.020162
493.20 1.016332
493.30 1.014557
493.40 1.014274
493.50 1.014752
493.60 1.015242
493.70 1.015074
493.80 1.014124
493.90 1.012862
494.00 1.011872
494.10 1.011547
494.20 1.01192
494.30 1.012766
494.40 1.013859
494.50 1.015047
494.60 1.016235
494.70 1.017391
494.80 1.018613
494.90 1.020183
495.00 1.02263
495.10 1.026609
495.20 1.032438
495.30 1.039803
495.40 1.047772
495.50 1.055095
495.60 1.060735
495.70 1.06419
495.80 1.065427
495.90 1.064514
496.00 1.061563
496.10 1.056931
496.20 1.051329
496.30 1.04558
496.40 1.040314
496.50 1.036057
496.60 1.033204
496.70 1.031814
496.80 1.031585
496.90 1.032001
497.00 1.032364
497.10 1.031727
497.20 1.029176
497.30 1.024396
497.40 1.017775
497.50 1.010069
497.60 1.002099
497.70 0.9944682
497.80 0.9876132
497.90 0.9818926
498.00 0.9775978
498.10 0.974867
498.20 0.9735151
498.30 0.9730811
498.40 0.9731289
498.50 0.9736476
498.60 0.9748619
498.70 0.9769306
498.80 0.9799288
498.90 0.9838131
499.00 0.9883234
499.10 0.993144
499.20 0.9979525
499.30 1.002349
499.40 1.005755
499.50 1.007654
499.60 1.008047
499.70 1.007284
499.80 1.005663
499.90 1.00324
500.00 1
500.10 0.9958207
500.20 0.990505
500.30 0.9840569
500.40 0.9766142
500.50 0.9684805
500.60 0.9601578
500.70 0.9522187
500.80 0.9454422
500.90 0.9407569
501.00 0.9388356
501.10 0.9399645
501.20 0.9441656
501.30 0.9511889
501.40 0.9604566
501.50 0.9713023
501.60 0.9830225
501.70 0.9947597
501.80 1.005725
501.90 1.015288
502.00 1.023043
502.10 1.028977
502.20 1.033329
502.30 1.036417
502.40 1.038729
502.50 1.040839
502.60 1.042934
502.70 1.044794
502.80 1.046027
502.90 1.046297
503.00 1.045517
503.10 1.043945
503.20 1.042317
503.30 1.041607
503.40 1.042621
503.50 1.045868
503.60 1.051471
503.70 1.059057
503.80 1.067655
503.90 1.075906
504.00 1.082665
504.10 1.087452
504.20 1.090513
504.30 1.092428
504.40 1.09387
504.50 1.095489
504.60 1.097761
504.70 1.101015
504.80 1.105455
504.90 1.110884
505.00 1.116652
505.10 1.12206
505.20 1.126563
505.30 1.129828
505.40 1.131763
505.50 1.132319
505.60 1.131396
505.70 1.129045
505.80 1.125481
505.90 1.121173
506.00 1.116706
506.10 1.112635
506.20 1.109402
506.30 1.107222
506.40 1.106181
506.50 1.106077
506.60 1.106513
506.70 1.107324
506.80 1.10853
506.90 1.110018
507.00 1.111608
507.10 1.113241
507.20 1.114934
507.30 1.116569
507.40 1.117843
507.50 1.118427
507.60 1.11802
507.70 1.116554
507.80 1.114175
507.90 1.111262
508.00 1.108474
508.10 1.106403
508.20 1.105527
508.30 1.106365
508.40 1.109044
508.50 1.112935
508.60 1.11704
508.70 1.120415
508.80 1.122464
508.90 1.123015
509.00 1.122216
509.10 1.120499
509.20 1.118484
509.30 1.116861
509.40 1.116262
509.50 1.11709
509.60 1.119407
509.70 1.122897
509.80 1.127289
509.90 1.132638
510.00 1.139031
510.10 1.146505
510.20 1.154873
510.30 1.163675
510.40 1.172407
510.50 1.180551
510.60 1.187742
510.70 1.193735
510.80 1.198196
510.90 1.200754
511.00 1.201135
511.10 1.199278
511.20 1.195237
511.30 1.189181
511.40 1.181403
511.50 1.172202
511.60 1.161996
511.70 1.151409
511.80 1.141075
511.90 1.1316
512.00 1.123453
512.10 1.116953
512.20 1.112458
512.30 1.11031
512.40 1.110529
512.50 1.112764
512.60 1.116422
512.70 1.12065
512.80 1.124508
512.90 1.127159
513.00 1.128023
513.10 1.126814
513.20 1.123547
513.30 1.118552
513.40 1.112504
513.50 1.106171
513.60 1.100172
513.70 1.094936
513.80 1.090674
513.90 1.087456
514.00 1.085119
514.10 1.083147
514.20 1.081024
514.30 1.078629
514.40 1.076044
514.50 1.073442
514.60 1.071117
514.70 1.069291
514.80 1.067982
514.90 1.067096
515.00 1.066332
515.10 1.065197
515.20 1.063337
515.30 1.06057
515.40 1.057003
515.50 1.0531
515.60 1.049324
515.70 1.04601
515.80 1.043445
515.90 1.041682
516.00 1.04071
516.10 1.040601
516.20 1.041364
516.30 1.043078
516.40 1.045962
516.50 1.050247
516.60 1.055998
516.70 1.062854
516.80 1.070179
516.90 1.07775
517.00 1.085801
517.10 1.094508
517.20 1.104046
517.30 1.11475
517.40 1.126803
517.50 1.140052
517.60 1.154116
517.70 1.168334
517.80 1.181841
517.90 1.193805
518.00 1.203553
518.10 1.210869
518.20 1.215982
518.30 1.219187
518.40 1.220953
518.50 1.222093
518.60 1.223448
518.70 1.225574
518.80 1.228557
518.90 1.231972
519.00 1.235108
519.10 1.237186
519.20 1.237586
519.30 1.235972
519.40 1.232372
519.50 1.227346
519.60 1.221867
519.70 1.217057
519.80 1.213889
519.90 1.212963
520.00 1.214314
520.10 1.217302
520.20 1.221023
520.30 1.224726
520.40 1.227699
520.50 1.229328
520.60 1.229131
520.70 1.226988
520.80 1.223566
520.90 1.22004
521.00 1.217572
521.10 1.216951
521.20 1.218388
521.30 1.221505
521.40 1.225643
521.50 1.230249
521.60 1.234878
521.70 1.239205
521.80 1.24341
521.90 1.248219
522.00 1.25453
522.10 1.262944
522.20 1.273285
522.30 1.284678
522.40 1.296055
522.50 1.306481
522.60 1.315291
522.70 1.322174
522.80 1.32717
522.90 1.330737
523.00 1.333735
523.10 1.337153
523.20 1.34154
523.30 1.346689
523.40 1.351843
523.50 1.35612
523.60 1.358874
523.70 1.359817
523.80 1.358957
523.90 1.356478
524.00 1.352904
524.10 1.349122
524.20 1.345975
524.30 1.344093
524.40 1.343811
524.50 1.344788
524.60 1.346152
524.70 1.347158
524.80 1.347447
524.90 1.346905
525.00 1.345621
525.10 1.343921
525.20 1.342425
525.30 1.341976
525.40 1.343326
525.50 1.347086
525.60 1.353889
525.70 1.363838
525.80 1.376294
525.90 1.39036
526.00 1.405
526.10 1.418954
526.20 1.430994
526.30 1.440233
526.40 1.446077
526.50 1.448282
526.60 1.447002
526.70 1.442865
526.80 1.436885
526.90 1.429844
527.00 1.422065
527.10 1.413845
527.20 1.405481
527.30 1.397226
527.40 1.38959
527.50 1.383249
527.60 1.378716
527.70 1.376106
527.80 1.375153
527.90 1.375285
528.00 1.37559
528.10 1.374981
528.20 1.372434
528.30 1.367346
528.40 1.359824
528.50 1.350549
528.60 1.340549
528.70 1.331038
528.80 1.323097
528.90 1.317502
529.00 1.314781
529.10 1.315132
529.20 1.318362
529.30 1.323942
529.40 1.331244
529.50 1.339497
529.60 1.347853
529.70 1.355757
529.80 1.362901
529.90 1.369159
530.00 1.374843
530.10 1.380675
530.20 1.387373
530.30 1.395308
530.40 1.404644
530.50 1.415501
530.60 1.427835
530.70 1.441285
530.80 1.454982
530.90 1.467792
531.00 1.47878
531.10 1.487392
531.20 1.493614
531.30 1.498019
531.40 1.501399
531.50 1.504484
531.60 1.507952
531.70 1.512203
531.80 1.516811
531.90 1.520515
532.00 1.521858
532.10 1.519801
532.20 1.514117
532.30 1.505608
532.40 1.495831
532.50 1.486589
532.60 1.479614
532.70 1.476268
532.80 1.47743
532.90 1.48312
533.00 1.492325
533.10 1.503506
533.20 1.51523
533.30 1.52667
533.40 1.537629
533.50 1.548214
533.60 1.558578
533.70 1.568799
533.80 1.57897
533.90 1.589233
534.00 1.599499
534.10 1.60942
534.20 1.618587
534.30 1.626533
534.40 1.632883
534.50 1.637665
534.60 1.64128
534.70 1.644138
534.80 1.646515
534.90 1.648664
535.00 1.650957
535.10 1.653704
535.20 1.656822
535.30 1.660069
535.40 1.663276
535.50 1.666132
535.60 1.667972
535.70 1.668253
535.80 1.666875
535.90 1.66408
536.00 1.660315
536.10 1.656099
536.20 1.651979
536.30 1.64858
536.40 1.646674
536.50 1.647112
536.60 1.650683
536.70 1.657595
536.80 1.667365
536.90 1.679201
537.00 1.692081
537.10 1.704817
537.20 1.716338
537.30 1.725804
537.40 1.732661
537.50 1.736805
537.60 1.738553
537.70 1.738499
537.80 1.737405
537.90 1.73602
538.00 1.735133
538.10 1.735635
538.20 1.738376
538.30 1.743934
538.40 1.752374
538.50 1.763115
538.60 1.775051
538.70 1.786744
538.80 1.796854
538.90 1.804412
539.00 1.808987
539.10 1.811011
539.20 1.811678
539.30 1.812436
539.40 1.814561
539.50 1.818901
539.60 1.825591
539.70 1.833916
539.80 1.842656
539.90 1.85053
540.00 1.856362
540.10 1.859258
540.20 1.858843
540.30 1.855308
540.40 1.849288
540.50 1.841363
540.60 1.831801
540.70 1.821032
540.80 1.809699
540.90 1.798373
541.00 1.787597
541.10 1.777951
541.20 1.770029
541.30 1.764292
541.40 1.760978
541.50 1.760007
541.60 1.76086
541.70 1.762889
541.80 1.765761
541.90 1.769625
542.00 1.774991
542.10 1.782292
542.20 1.791683
542.30 1.802877
542.40 1.814916
542.50 1.82647
542.60 1.836176
542.70 1.842904
542.80 1.845895
542.90 1.844987
543.00 1.840769
543.10 1.834325
543.20 1.826922
543.30 1.81956
543.40 1.812698
543.50 1.806411
543.60 1.800545
543.70 1.794955
543.80 1.789659
543.90 1.784666
544.00 1.78001
544.10 1.775696
544.20 1.771641
544.30 1.767649
544.40 1.7634
544.50 1.7586
544.60 1.752968
544.70 1.746329
544.80 1.738776
544.90 1.730652
545.00 1.722412
545.10 1.714472
545.20 1.707124
545.30 1.700395
545.40 1.693853
545.50 1.686871
545.60 1.679135
545.70 1.670732
545.80 1.662003
545.90 1.653429
546.00 1.645547
546.10 1.638874
546.20 1.633805
546.30 1.630255
546.40 1.627567
546.50 1.624834
546.60 1.621165
546.70 1.616102
546.80 1.609791
546.90 1.602864
547.00 1.596095
547.10 1.589974
547.20 1.584706
547.30 1.580238
547.40 1.576169
547.50 1.571945
547.60 1.567185
547.70 1.561916
547.80 1.556352
547.90 1.550729
548.00 1.545222
548.10 1.53985
548.20 1.534665
548.30 1.5296
548.40 1.524386
548.50 1.518877
548.60 1.512983
548.70 1.506624
548.80 1.499993
548.90 1.493651
549.00 1.4881
549.10 1.483339
549.20 1.479072
549.30 1.474963
549.40 1.47051
549.50 1.464915
549.60 1.45734
549.70 1.447292
549.80 1.434859
549.90 1.420709
550.00 1.244736
550.10 1.248977
550.20 1.255049
550.30 1.259749
550.40 1.260506
550.50 1.256111
550.60 1.247083
550.70 1.234822
550.80 1.220644
550.90 1.20577
551.00 1.191144
551.10 1.1775
551.20 1.165852
551.30 1.157174
551.40 1.152218
551.50 1.151679
551.60 1.155698
551.70 1.1635
551.80 1.174141
551.90 1.186692
552.00 1.199728
552.10 1.211824
552.20 1.222414
552.30 1.231732
552.40 1.240672
552.50 1.250138
552.60 1.259998
552.70 1.269222
552.80 1.276793
552.90 1.282094
553.00 1.284993
553.10 1.28601
553.20 1.286063
553.30 1.286204
553.40 1.287711
553.50 1.291461
553.60 1.29736
553.70 1.304605
553.80 1.311881
553.90 1.317734
554.00 1.321344
554.10 1.322646
554.20 1.32193
554.30 1.319864
554.40 1.317708
554.50 1.316675
554.60 1.317146
554.70 1.318874
554.80 1.321435
554.90 1.324206
555.00 1.325738
555.10 1.326648
555.20 1.331184
555.30 1.346053
555.40 1.379945
555.50 1.439497
555.60 1.527008
555.70 1.640318
555.80 1.771743
555.90 1.909335
556.00 2.040255
556.10 2.153595
556.20 2.2421
556.30 2.30394
556.40 2.344136
556.50 2.370835
556.60 2.391846
556.70 2.413584
556.80 2.438675
556.90 2.467394
557.00 2.498738
557.10 2.530453
557.20 2.560392
557.30 2.587043
557.40 2.609227
557.50 2.626279
557.60 2.638612
557.70 2.64756
557.80 2.654559
557.90 2.660569
558.00 2.666842
558.10 2.675159
558.20 2.686658
558.30 2.701144
558.40 2.717259
558.50 2.733123
558.60 2.747447
558.70 2.759959
558.80 2.771715
558.90 2.78515
559.00 2.803571
559.10 2.827267
559.20 2.851617
559.30 2.868867
559.40 2.868444
559.50 2.840619
559.60 2.780762
559.70 2.690889
559.80 2.579595
559.90 2.459783
560.00 2.345909
560.10 2.251511
560.20 2.185647
560.30 2.1499
560.40 2.138083
560.50 2.14118
560.60 2.151145
560.70 2.161259
560.80 2.167752
560.90 2.168895
561.00 2.164529
561.10 2.156084
561.20 2.145471
561.30 2.135323
561.40 2.128427
561.50 2.12618
561.60 2.128722
561.70 2.135818
561.80 2.147096
561.90 2.161679
562.00 2.177481
562.10 2.191941
562.20 2.203596
562.30 2.212439
562.40 2.219165
562.50 2.224624
562.60 2.229352
562.70 2.232996
562.80 2.234514
562.90 2.233238
563.00 2.229068
563.10 2.221986
563.20 2.212017
563.30 2.199364
563.40 2.185383
563.50 2.172724
563.60 2.163631
563.70 2.158765
563.80 2.15752
563.90 2.158561
564.00 2.16018
564.10 2.160379
564.20 2.157297
564.30 2.149793
564.40 2.137621
564.50 2.121523
564.60 2.10289
564.70 2.083715
564.80 2.066388
564.90 2.052753
565.00 2.043939
565.10 2.040473
565.20 2.04218
565.30 2.0479
565.40 2.055902
565.50 2.064773
565.60 2.073317
565.70 2.080545
565.80 2.086032
565.90 2.089942
566.00 2.092647
566.10 2.094806
566.20 2.097405
566.30 2.101489
566.40 2.108217
566.50 2.118577
566.60 2.133342
566.70 2.153229
566.80 2.17808
566.90 2.206328
567.00 2.235903
567.10 2.264369
567.20 2.289058
567.30 2.308123
567.40 2.321344
567.50 2.329633
567.60 2.334203
567.70 2.336743
567.80 2.338999
567.90 2.342303
568.00 2.347039
568.10 2.35251
568.20 2.358043
568.30 2.36335
568.40 2.367872
568.50 2.371471
568.60 2.375546
568.70 2.382458
568.80 2.394474
568.90 2.413153
569.00 2.438637
569.10 2.469218
569.20 2.501631
569.30 2.531821
569.40 2.556116
569.50 2.572262
569.60 2.579518
569.70 2.578067
569.80 2.568853
569.90 2.553302
570.00 2.53298
570.10 2.509246
570.20 2.482898
570.30 2.454402
570.40 2.424453
570.50 2.394225
570.60 2.365323
570.70 2.339313
570.80 2.316995
570.90 2.297778
571.00 2.280359
571.10 2.264301
571.20 2.250222
571.30 2.238975
571.40 2.230271
571.50 2.222527
571.60 2.214115
571.70 2.20387
571.80 2.191421
571.90 2.177011
572.00 2.160866
572.10 2.143403
572.20 2.125406
572.30 2.108065
572.40 2.092504
572.50 2.078675
572.60 2.065065
572.70 2.049487
572.80 2.029859
572.90 2.004744
573.00 1.973877
573.10 1.938274
573.20 1.899903
573.30 1.861425
573.40 1.825778
573.50 1.795254
573.60 1.770758
573.70 1.751857
573.80 1.737432
573.90 1.726412
574.00 1.718619
574.10 1.714343
574.20 1.713613
574.30 1.716254
574.40 1.721738
574.50 1.729329
574.60 1.73811
574.70 1.746638
574.80 1.753697
574.90 1.759347
575.00 1.764652
575.10 1.771063
575.20 1.779777
575.30 1.790914
575.40 1.803472
575.50 1.816319
575.60 1.828812
575.70 1.840474
575.80 1.850751
575.90 1.859306
576.00 1.866121
576.10 1.871509
576.20 1.876031
576.30 1.880346
576.40 1.885362
576.50 1.891715
576.60 1.899491
576.70 1.908842
576.80 1.920714
576.90 1.936289
577.00 1.955753
577.10 1.978256
577.20 2.002236
577.30 2.025231
577.40 2.044626
577.50 2.058673
577.60 2.066747
577.70 2.069287
577.80 2.067616
577.90 2.064042
578.00 2.06107
578.10 2.06069
578.20 2.063802
578.30 2.069885
578.40 2.077844
578.50 2.086248
578.60 2.093547
578.70 2.099003
578.80 2.102214
578.90 2.102544
579.00 2.099406
579.10 2.092161
579.20 2.080374
579.30 2.064686
579.40 2.047368
579.50 2.031196
579.60 2.017929
579.70 2.008153
579.80 2.001726
579.90 1.998097
580.00 1.9964
580.10 1.995344
580.20 1.993834
580.30 1.991045
580.40 1.986164
580.50 1.97893
580.60 1.969863
580.70 1.959553
580.80 1.947407
580.90 1.932157
581.00 1.913545
581.10 1.892706
581.20 1.871693
581.30 1.853225
581.40 1.839846
581.50 1.833121
581.60 1.833573
581.70 1.840848
581.80 1.85341
581.90 1.868851
582.00 1.884453
582.10 1.897549
582.20 1.906962
582.30 1.913454
582.40 1.918272
582.50 1.922219
582.60 1.925413
582.70 1.927196
582.80 1.926902
582.90 1.923932
583.00 1.91768
583.10 1.908007
583.20 1.895408
583.30 1.880144
583.40 1.861574
583.50 1.839192
583.60 1.813377
583.70 1.785529
583.80 1.757517
583.90 1.731237
584.00 1.708767
584.10 1.691717
584.20 1.680482
584.30 1.674612
584.40 1.673233
584.50 1.675361
584.60 1.679821
584.70 1.68492
584.80 1.689189
584.90 1.691401
585.00 1.68987
585.10 1.682329
585.20 1.667064
585.30 1.643561
585.40 1.612542
585.50 1.576371
585.60 1.53843
585.70 1.502083
585.80 1.470041
585.90 1.443061
586.00 1.419984
586.10 1.399028
586.20 1.377697
586.30 1.35307
586.40 1.323811
586.50 1.290907
586.60 1.257114
586.70 1.226393
586.80 1.202571
586.90 1.188107
587.00 1.18359
587.10 1.18832
587.20 1.200556
587.30 1.218229
587.40 1.239683
587.50 1.263408
587.60 1.288003
587.70 1.311957
587.80 1.333051
587.90 1.348764
588.00 1.356959
588.10 1.356494
588.20 1.347478
588.30 1.331344
588.40 1.310949
588.50 1.289299
588.60 1.268374
588.70 1.249062
588.80 1.231721
588.90 1.216792
589.00 1.204859
589.10 1.196644
589.20 1.192626
589.30 1.19292
589.40 1.197241
589.50 1.204416
589.60 1.212938
589.70 1.22135
589.80 1.228019
589.90 1.23173
590.00 1.232459
590.10 1.231137
590.20 1.228825
590.30 1.226246
590.40 1.223149
590.50 1.218355
590.60 1.210101
590.70 1.196725
590.80 1.177675
590.90 1.15409
591.00 1.128496
591.10 1.103412
591.20 1.080882
591.30 1.062132
591.40 1.046825
591.50 1.033257
591.60 1.019355
591.70 1.003021
591.80 0.9833341
591.90 0.961429
592.00 0.9401915
592.10 0.9231471
592.20 0.913265
592.30 0.9121812
592.40 0.9197335
592.50 0.9346378
592.60 0.9548505
592.70 0.9779698
592.80 1.001884
592.90 1.024843
593.00 1.045243
593.10 1.062401
593.20 1.077031
593.30 1.090266
593.40 1.102878
593.50 1.115378
593.60 1.128165
593.70 1.141518
593.80 1.155544
593.90 1.170216
594.00 1.185584
594.10 1.202095
594.20 1.22079
594.30 1.243259
594.40 1.270846
594.50 1.303701
594.60 1.340572
594.70 1.379135
594.80 1.416862
594.90 1.451435
595.00 1.480559
595.10 1.502393
595.20 1.516384
595.30 1.523692
595.40 1.526811
595.50 1.528366
595.60 1.5299
595.70 1.532134
595.80 1.535817
595.90 1.541488
596.00 1.548843
596.10 1.556811
596.20 1.564205
596.30 1.569941
596.40 1.573161
596.50 1.573297
596.60 1.570226
596.70 1.564234
596.80 1.555629
596.90 1.545099
597.00 1.534476
597.10 1.525796
597.20 1.519698
597.30 1.515373
597.40 1.511653
597.50 1.507489
597.60 1.501616
597.70 1.49287
597.80 1.481226
597.90 1.468184
598.00 1.456224
598.10 1.447929
598.20 1.445345
598.30 1.449174
598.40 1.458256
598.50 1.470222
598.60 1.482711
598.70 1.494068
598.80 1.502878
598.90 1.50802
599.00 1.509308
599.10 1.507695
599.20 1.504614
599.30 1.501279
599.40 1.498712
599.50 1.498035
599.60 1.500761
599.70 1.508433
599.80 1.522035
599.90 1.541498
600.00 1.332033
600.10 1.535177
600.20 1.801235
600.30 2.089304
600.40 2.343828
600.50 2.510301
600.60 2.562229
600.70 2.514646
600.80 2.388593
600.90 2.207965
601.00 2.006595
601.10 1.820067
601.20 1.6764
601.30 1.588047
601.40 1.546658
601.50 1.529668
601.60 1.523394
601.70 1.52572
601.80 1.550954
601.90 1.613578
602.00 1.705825
602.10 1.794998
602.20 1.854428
602.30 1.867769
602.40 1.82848
602.50 1.747621
602.60 1.642869
602.70 1.534234
602.80 1.442367
602.90 1.393143
603.00 1.408055
603.10 1.479312
603.20 1.570319
603.30 1.646639
603.40 1.695461
603.50 1.730812
603.60 1.77126
603.70 1.820383
603.80 1.87885
603.90 1.945157
604.00 2.00869
604.10 2.058817
604.20 2.092719
604.30 2.105165
604.40 2.082234
604.50 2.025028
604.60 1.948419
604.70 1.875584
604.80 1.843815
604.90 1.8714
605.00 1.95609
605.10 2.098136
605.20 2.283966
605.30 2.486132
605.40 2.667086
605.50 2.784126
605.60 2.804896
605.70 2.722849
605.80 2.562668
605.90 2.360247
606.00 2.164637
606.10 2.016063
606.20 1.916227
606.30 1.854198
606.40 1.826674
606.50 1.831301
606.60 1.861774
606.70 1.916385
606.80 2.003536
606.90 2.122239
607.00 2.25322
607.10 2.372026
607.20 2.46112
607.30 2.505964
607.40 2.498501
607.50 2.44402
607.60 2.363198
607.70 2.295012
607.80 2.269139
607.90 2.29271
608.00 2.36526
608.10 2.467376
608.20 2.570362
608.30 2.665207
608.40 2.759768
608.50 2.839765
608.60 2.866118
608.70 2.821531
608.80 2.708926
608.90 2.539336
609.00 2.335388
609.10 2.122843
609.20 1.924454
609.30 1.760276
609.40 1.640125
609.50 1.561054
609.60 1.521079
609.70 1.514964
609.80 1.522492
609.90 1.536368
610.00 1.574636
610.10 1.640901
610.20 1.708402
610.30 1.757653
610.40 1.785321
610.50 1.790822
610.60 1.784733
610.70 1.787454
610.80 1.817637
610.90 1.882263
611.00 1.961841
611.10 2.022159
611.20 2.05023
611.30 2.063858
611.40 2.084235
611.50 2.128403
611.60 2.217709
611.70 2.351592
611.80 2.50476
611.90 2.643852
612.00 2.7308
612.10 2.727364
612.20 2.61295
612.30 2.409972
612.40 2.175195
612.50 1.969278
612.60 1.835336
612.70 1.778672
612.80 1.78593
612.90 1.848761
613.00 1.955981
613.10 2.088916
613.20 2.219744
613.30 2.320998
613.40 2.392157
613.50 2.460094
613.60 2.53953
613.70 2.609158
613.80 2.642261
613.90 2.630078
614.00 2.57596
614.10 2.498202
614.20 2.418006
614.30 2.332646
614.40 2.235127
614.50 2.134713
614.60 2.043986
614.70 1.977139
614.80 1.934362
614.90 1.899551
615.00 1.860529
615.10 1.830014
615.20 1.826834
615.30 1.852785
615.40 1.89935
615.50 1.946084
615.60 1.968511
615.70 1.95797
615.80 1.918119
615.90 1.862293
616.00 1.820588
616.10 1.812117
616.20 1.842755
616.30 1.919492
616.40 2.037048
616.50 2.160722
616.60 2.249618
616.70 2.292124
616.80 2.292059
616.90 2.252837
617.00 2.180398
617.10 2.099714
617.20 2.035329
617.30 1.989242
617.40 1.949271
617.50 1.904246
617.60 1.852394
617.70 1.793258
617.80 1.736447
617.90 1.704169
618.00 1.718415
618.10 1.777357
618.20 1.859374
618.30 1.952793
618.40 2.05748
618.50 2.161174
618.60 2.243391
618.70 2.296802
618.80 2.328911
618.90 2.349339
619.00 2.347787
619.10 2.305373
619.20 2.218953
619.30 2.108918
619.40 2.00294
619.50 1.916379
619.60 1.859605
619.70 1.839025
619.80 1.850733
619.90 1.885778
620.00 1.929645
620.10 1.96067
620.20 1.968894
620.30 1.954142
620.40 1.934832
620.50 1.942558
620.60 1.990471
620.70 2.073626
620.80 2.169386
620.90 2.25039
621.00 2.299004
621.10 2.297012
621.20 2.224373
621.30 2.07382
621.40 1.869131
621.50 1.652194
621.60 1.44812
621.70 1.281548
621.80 1.180244
621.90 1.155659
622.00 1.204904
622.10 1.304416
622.20 1.437021
622.30 1.600131
622.40 1.780941
622.50 1.952535
622.60 2.086859
622.70 2.17345
622.80 2.207255
622.90 2.192144
623.00 2.150747
623.10 2.098554
623.20 2.032241
623.30 1.953836
623.40 1.878563
623.50 1.828865
623.60 1.824279
623.70 1.865569
623.80 1.940333
623.90 2.037236
624.00 2.146321
624.10 2.247588
624.20 2.317388
624.30 2.331358
624.40 2.273981
624.50 2.158348
624.60 2.022635
624.70 1.903503
624.80 1.825552
624.90 1.805268
625.00 1.840975
625.10 1.92532
625.20 2.046839
625.30 2.184842
625.40 2.318513
625.50 2.433287
625.60 2.536021
625.70 2.638182
625.80 2.73268
625.90 2.804799
626.00 2.839839
626.10 2.820918
626.20 2.736202
626.30 2.586305
626.40 2.388684
626.50 2.17479
626.60 1.98839
626.70 1.869637
626.80 1.83859
626.90 1.890031
627.00 1.990813
627.10 2.110983
627.20 2.23592
627.30 2.357605
627.40 2.46717
627.50 2.550608
627.60 2.608563
627.70 2.651637
627.80 2.677137
627.90 2.678073
628.00 2.654818
628.10 2.617279
628.20 2.586889
628.30 2.578714
628.40 2.590841
628.50 2.60932
628.60 2.613012
628.70 2.581643
628.80 2.508974
628.90 2.415638
629.00 2.323813
629.10 2.249441
629.20 2.215533
629.30 2.242712
629.40 2.328007
629.50 2.446133
629.60 2.538557
629.70 2.560032
629.80 2.521788
629.90 2.453507
630.00 2.395069
630.10 2.384164
630.20 2.439052
630.30 2.55812
630.40 2.730979
630.50 2.932838
630.60 3.126126
630.70 3.271104
630.80 3.352953
630.90 3.378346
631.00 3.381227
631.10 3.396717
631.20 3.429909
631.30 3.474002
631.40 3.510259
631.50 3.52411
631.60 3.514715
631.70 3.484308
631.80 3.425229
631.90 3.338365
632.00 3.240361
632.10 3.152724
632.20 3.086324
632.30 3.048295
632.40 3.056452
632.50 3.123482
632.60 3.231677
632.70 3.352854
632.80 3.469638
632.90 3.564102
633.00 3.62556
633.10 3.653774
633.20 3.657291
633.30 3.642926
633.40 3.616103
633.50 3.583946
633.60 3.551761
633.70 3.533226
633.80 3.542203
633.90 3.582487
634.00 3.655393
634.10 3.752291
634.20 3.854443
634.30 3.942526
634.40 3.995288
634.50 4.006347
634.60 3.990985
634.70 3.972133
634.80 3.964951
634.90 3.980195
635.00 4.032347
635.10 4.125795
635.20 4.239643
635.30 4.34549
635.40 4.42742
635.50 4.470305
635.60 4.447739
635.70 4.347663
635.80 4.198758
635.90 4.018791
636.00 3.807037
636.10 3.582638
636.20 3.393202
636.30 3.278843
636.40 3.242476
636.50 3.276998
636.60 3.371994
636.70 3.503407
636.80 3.636396
636.90 3.744253
637.00 3.826688
637.10 3.88602
637.20 3.896269
637.30 3.850503
637.40 3.777046
637.50 3.709852
637.60 3.666392
637.70 3.649281
637.80 3.65596
637.90 3.677848
638.00 3.723681
638.10 3.802835
638.20 3.912506
638.30 4.046142
638.40 4.188843
638.50 4.318958
638.60 4.42192
638.70 4.497287
638.80 4.546776
638.90 4.564073
639.00 4.536435
639.10 4.468592
639.20 4.38801
639.30 4.314912
639.40 4.246912
639.50 4.18745
639.60 4.153539
639.70 4.155495
639.80 4.194182
639.90 4.272652
640.00 4.385408
640.10 4.50935
640.20 4.620238
640.30 4.692738
640.40 4.710999
640.50 4.672236
640.60 4.58183
640.70 4.451594
640.80 4.297437
640.90 4.137361
641.00 3.984828
641.10 3.854469
641.20 3.766087
641.30 3.730595
641.40 3.752803
641.50 3.837089
641.60 3.978454
641.70 4.168348
641.80 4.386627
641.90 4.590848
642.00 4.731688
642.10 4.775786
642.20 4.717024
642.30 4.575218
642.40 4.393739
642.50 4.220614
642.60 4.092869
642.70 4.039035
642.80 4.072063
642.90 4.175932
643.00 4.312981
643.10 4.436192
643.20 4.50772
643.30 4.521159
643.40 4.490132
643.50 4.436146
643.60 4.380684
643.70 4.331345
643.80 4.281749
643.90 4.233069
644.00 4.194505
644.10 4.16253
644.20 4.125785
644.30 4.08749
644.40 4.058968
644.50 4.050709
644.60 4.073131
644.70 4.129645
644.80 4.219989
644.90 4.333296
645.00 4.445632
645.10 4.533313
645.20 4.58632
645.30 4.598436
645.40 4.561832
645.50 4.47999
645.60 4.372091
645.70 4.258849
645.80 4.162291
645.90 4.101547
646.00 4.087212
646.10 4.120505
646.20 4.195063
646.30 4.309359
646.40 4.465946
646.50 4.661057
646.60 4.866317
646.70 5.037878
646.80 5.145246
646.90 5.180701
647.00 5.149787
647.10 5.070382
647.20 4.966017
647.30 4.859994
647.40 4.774986
647.50 4.729417
647.60 4.730973
647.70 4.764215
647.80 4.798876
647.90 4.810408
648.00 4.789164
648.10 4.744326
648.20 4.692864
648.30 4.650145
648.40 4.633767
648.50 4.650825
648.60 4.697583
648.70 4.770626
648.80 4.860075
648.90 4.95016
649.00 5.02332
649.10 5.07597
649.20 5.113706
649.30 5.140191
649.40 5.164249
649.50 5.188052
649.60 5.205612
649.70 5.203325
649.80 5.173489
649.90 5.127281
650.00 5.07608
650.10 5.028437
650.20 5.003281
650.30 5.015491
650.40 5.069672
650.50 5.157647
650.60 5.262616
650.70 5.36756
650.80 5.457892
650.90 5.535889
651.00 5.608539
651.10 5.681604
651.20 5.754709
651.30 5.822752
651.40 5.886689
651.50 5.948191
651.60 6.001247
651.70 6.036285
651.80 6.048992
651.90 6.039648
652.00 6.016501
652.10 5.996348
652.20 5.996107
652.30 6.018915
652.40 6.060034
652.50 6.123284
652.60 6.222895
652.70 6.365847
652.80 6.542976
652.90 6.732017
653.00 6.897205
653.10 7.010642
653.20 7.059837
653.30 7.052914
653.40 7.012717
653.50 6.96092
653.60 6.917889
653.70 6.898362
653.80 6.917142
653.90 6.989429
654.00 7.117845
654.10 7.285942
654.20 7.471256
654.30 7.656771
654.40 7.832517
654.50 7.981316
654.60 8.085308
654.70 8.135913
654.80 8.134156
654.90 8.081339
655.00 7.97352
655.10 7.823942
655.20 7.65603
655.30 7.485376
655.40 7.326492
655.50 7.19762
655.60 7.127171
655.70 7.158831
655.80 7.3126
655.90 7.572958
656.00 7.911651
656.10 8.285081
656.20 8.632747
656.30 8.899395
656.40 9.048523
656.50 9.064216
656.60 8.956647
656.70 8.755661
656.80 8.493168
656.90 8.20452
657.00 7.920391
657.10 7.650253
657.20 7.403244
657.30 7.194881
657.40 7.029459
657.50 6.898188
657.60 6.788125
657.70 6.687027
657.80 6.598082
657.90 6.53602
658.00 6.507706
658.10 6.51086
658.20 6.537167
658.30 6.579911
658.40 6.632752
658.50 6.681626
658.60 6.717142
658.70 6.738219
658.80 6.742906
658.90 6.726114
659.00 6.697345
659.10 6.690815
659.20 6.732848
659.30 6.820077
659.40 6.937252
659.50 7.073429
659.60 7.219917
659.70 7.361036
659.80 7.465566
659.90 7.505374
660.00 7.473566
660.10 7.388787
660.20 7.285015
660.30 7.196085
660.40 7.144654
660.50 7.132704
660.60 7.154403
660.70 7.218359
660.80 7.331698
660.90 7.476093
661.00 7.618443
661.10 7.724681
661.20 7.7788
661.30 7.782043
661.40 7.741718
661.50 7.666861
661.60 7.575658
661.70 7.502653
661.80 7.476887
661.90 7.502678
662.00 7.565137
662.10 7.624667
662.20 7.638798
662.30 7.58756
662.40 7.469915
662.50 7.311929
662.60 7.155978
662.70 7.03754
662.80 6.984087
662.90 7.020457
663.00 7.154242
663.10 7.356399
663.20 7.574302
663.30 7.764485
663.40 7.900079
663.50 7.972833
663.60 7.985544
663.70 7.950509
663.80 7.897557
663.90 7.850134
664.00 7.825869
664.10 7.851295
664.20 7.941514
664.30 8.082756
664.40 8.238507
664.50 8.378495
664.60 8.489287
664.70 8.566568
664.80 8.602147
664.90 8.586331
665.00 8.525817
665.10 8.437261
665.20 8.335273
665.30 8.236031
665.40 8.15462
665.50 8.096048
665.60 8.057867
665.70 8.030792
665.80 8.004231
665.90 7.975516
666.00 7.944868
666.10 7.911197
666.20 7.88197
666.30 7.869764
666.40 7.880169
666.50 7.918504
666.60 7.994828
666.70 8.115867
666.80 8.273058
666.90 8.438389
667.00 8.573587
667.10 8.657123
667.20 8.691745
667.30 8.691545
667.40 8.673903
667.50 8.650286
667.60 8.624884
667.70 8.600219
667.80 8.58626
667.90 8.591474
668.00 8.605219
668.10 8.60766
668.20 8.589895
668.30 8.560687
668.40 8.540482
668.50 8.537823
668.60 8.541389
668.70 8.536144
668.80 8.513987
668.90 8.471083
669.00 8.410438
669.10 8.341162
669.20 8.270376
669.30 8.208182
669.40 8.170218
669.50 8.168676
669.60 8.206334
669.70 8.271725
669.80 8.344034
669.90 8.411815
670.00 8.468133
670.10 8.495109
670.20 8.48588
670.30 8.45257
670.40 8.41066
670.50 8.379571
670.60 8.374908
670.70 8.406518
670.80 8.478198
670.90 8.590379
671.00 8.734776
671.10 8.892555
671.20 9.045606
671.30 9.175315
671.40 9.26614
671.50 9.310649
671.60 9.301479
671.70 9.243087
671.80 9.159488
671.90 9.066667
672.00 8.977023
672.10 8.904012
672.20 8.855213
672.30 8.829006
672.40 8.815877
672.50 8.806401
672.60 8.789639
672.70 8.749814
672.80 8.679197
672.90 8.588168
673.00 8.492644
673.10 8.409437
673.20 8.353647
673.30 8.344877
673.40 8.393811
673.50 8.491007
673.60 8.619715
673.70 8.765577
673.80 8.916272
673.90 9.06084
674.00 9.18939
674.10 9.296982
674.20 9.387238
674.30 9.457765
674.40 9.495378
674.50 9.492092
674.60 9.45686
674.70 9.411125
674.80 9.37621
674.90 9.362594
675.00 9.368506
675.10 9.392627
675.20 9.441064
675.30 9.506006
675.40 9.56038
675.50 9.574403
675.60 9.52872
675.70 9.4333
675.80 9.328671
675.90 9.246982
676.00 9.192113
676.10 9.158427
676.20 9.153365
676.30 9.196474
676.40 9.303665
676.50 9.463093
676.60 9.631383
676.70 9.773686
676.80 9.881998
676.90 9.957375
677.00 9.993125
677.10 9.975411
677.20 9.908247
677.30 9.82472
677.40 9.768711
677.50 9.767532
677.60 9.816199
677.70 9.885537
677.80 9.940309
677.90 9.960231
678.00 9.942527
678.10 9.885292
678.20 9.783887
678.30 9.641919
678.40 9.483406
678.50 9.343898
678.60 9.236246
678.70 9.154925
678.80 9.10022
678.90 9.078845
679.00 9.095137
679.10 9.143118
679.20 9.210605
679.30 9.280462
679.40 9.33138
679.50 9.346942
679.60 9.321862
679.70 9.271606
679.80 9.215981
679.90 9.164047
680.00 9.12523
680.10 9.104843
680.20 9.09684
680.30 9.092405
680.40 9.086543
680.50 9.08563
680.60 9.102368
680.70 9.138207
680.80 9.183814
680.90 9.226293
681.00 9.255771
681.10 9.262392
681.20 9.24606
681.30 9.214298
681.40 9.173283
681.50 9.134828
681.60 9.110702
681.70 9.10577
681.80 9.122426
681.90 9.158666
682.00 9.199907
682.10 9.23456
682.20 9.27035
682.30 9.32202
682.40 9.390251
682.50 9.459887
682.60 9.510848
682.70 9.52926
682.80 9.515693
682.90 9.479899
683.00 9.423489
683.10 9.344825
683.20 9.245956
683.30 9.126763
683.40 8.996205
683.50 8.868099
683.60 8.752115
683.70 8.65822
683.80 8.595612
683.90 8.569573
684.00 8.580307
684.10 8.622464
684.20 8.680697
684.30 8.729966
684.40 8.7542
684.50 8.744682
684.60 8.697178
684.70 8.62004
684.80 8.524184
684.90 8.418979
685.00 8.307619
685.10 8.194708
685.20 8.09481
685.30 8.026439
685.40 7.99921
685.50 8.009192
685.60 8.042364
685.70 8.08049
685.80 8.117107
685.90 8.163093
686.00 8.22117
686.10 8.281071
686.20 8.337961
686.30 8.38876
686.40 8.431932
686.50 8.466101
686.60 8.48967
686.70 8.499247
686.80 8.487076
686.90 8.447952
687.00 8.390681
687.10 8.33523
687.20 8.294587
687.30 8.271843
687.40 8.274464
687.50 8.307276
687.60 8.352576
687.70 8.384347
687.80 8.38003
687.90 8.330262
688.00 8.238496
688.10 8.11796
688.20 7.999811
688.30 7.92498
688.40 7.921155
688.50 7.991105
688.60 8.120404
688.70 8.277116
688.80 8.411224
688.90 8.476372
689.00 8.456643
689.10 8.354833
689.20 8.18352
689.30 7.967567
689.40 7.745755
689.50 7.55509
689.60 7.42205
689.70 7.360836
689.80 7.359592
689.90 7.396678
690.00 7.452551
690.10 7.511812
690.20 7.571468
690.30 7.632898
690.40 7.694381
690.50 7.757091
690.60 7.825565
690.70 7.900049
690.80 7.972324
690.90 8.037319
691.00 8.083935
691.10 8.096866
691.20 8.084758
691.30 8.059626
691.40 8.014034
691.50 7.937911
691.60 7.838925
691.70 7.739636
691.80 7.665449
691.90 7.64758
692.00 7.718863
692.10 7.886245
692.20 8.112993
692.30 8.343112
692.40 8.536642
692.50 8.677645
692.60 8.759536
692.70 8.787757
692.80 8.78734
692.90 8.783888
693.00 8.796234
693.10 8.837243
693.20 8.908057
693.30 8.99982
693.40 9.086031
693.50 9.136402
693.60 9.156006
693.70 9.167265
693.80 9.178541
693.90 9.197216
694.00 9.238337
694.10 9.318767
694.20 9.457087
694.30 9.675998
694.40 9.983524
694.50 10.35734
694.60 10.7499
694.70 11.09197
694.80 11.31221
694.90 11.36985
695.00 11.25205
695.10 10.97676
695.20 10.6066
695.30 10.21707
695.40 9.873638
695.50 9.632239
695.60 9.522001
695.70 9.536453
695.80 9.644251
695.90 9.801392
696.00 9.963217
696.10 10.1034
696.20 10.22455
696.30 10.34094
696.40 10.46424
696.50 10.59384
696.60 10.71026
696.70 10.79183
696.80 10.82184
696.90 10.79115
697.00 10.71517
697.10 10.61506
697.20 10.5017
697.30 10.39891
697.40 10.33623
697.50 10.32372
697.60 10.35144
697.70 10.39677
697.80 10.43176
697.90 10.43825
698.00 10.41158
698.10 10.36168
698.20 10.3135
698.30 10.28485
698.40 10.27786
698.50 10.29847
698.60 10.35613
698.70 10.43819
698.80 10.51417
698.90 10.5623
699.00 10.56551
699.10 10.51109
699.20 10.40845
699.30 10.28828
699.40 10.1848
699.50 10.11865
699.60 10.0957
699.70 10.12135
699.80 10.19333
699.90 10.29079
700.00 10.39114
700.10 10.4818
700.20 10.56514
700.30 10.65013
700.40 10.74492
700.50 10.86088
700.60 10.99976
700.70 11.14627
700.80 11.28106
700.90 11.38734
701.00 11.45407
701.10 11.47919
701.20 11.46413
701.30 11.42344
701.40 11.38651
701.50 11.37595
701.60 11.40382
701.70 11.47414
701.80 11.58714
701.90 11.73756
702.00 11.90873
702.10 12.07586
702.20 12.21434
702.30 12.3154
702.40 12.38705
702.50 12.43999
702.60 12.49539
702.70 12.57812
702.80 12.68951
702.90 12.82528
703.00 12.98163
703.10 13.14979
703.20 13.31905
703.30 13.47451
703.40 13.60728
703.50 13.72582
703.60 13.85692
703.70 14.02376
703.80 14.22972
703.90 14.46611
704.00 14.71121
704.10 14.92809
704.20 15.0857
704.30 15.17028
704.40 15.18678
704.50 15.15262
704.60 15.08742
704.70 15.01316
704.80 14.95062
704.90 14.90474
705.00 14.85883
705.10 14.78436
705.20 14.6553
705.30 14.45451
705.40 14.18646
705.50 13.88357
705.60 13.5895
705.70 13.33822
705.80 13.14567
705.90 13.01348
706.00 12.93484
706.10 12.90493
706.20 12.91656
706.30 12.95475
706.40 13.00119
706.50 13.04119
706.60 13.07382
706.70 13.11881
706.80 13.18656
706.90 13.26618
707.00 13.34556
707.10 13.41508
707.20 13.46625
707.30 13.49902
707.40 13.5285
707.50 13.55921
707.60 13.58491
707.70 13.59927
707.80 13.59274
707.90 13.55953
708.00 13.50188
708.10 13.41881
708.20 13.30452
708.30 13.15897
708.40 12.98636
708.50 12.80402
708.60 12.64446
708.70 12.53239
708.80 12.46713
708.90 12.44264
709.00 12.45213
709.10 12.49019
709.20 12.55666
709.30 12.64251
709.40 12.72755
709.50 12.78592
709.60 12.80278
709.70 12.78896
709.80 12.77456
709.90 12.78934
710.00 12.84432
710.10 12.93253
710.20 13.04574
710.30 13.17443
710.40 13.30946
710.50 13.44215
710.60 13.55789
710.70 13.64267
710.80 13.68152
710.90 13.67714
711.00 13.65571
711.10 13.63215
711.20 13.60511
711.30 13.57669
711.40 13.55582
711.50 13.55655
711.60 13.59199
711.70 13.6675
711.80 13.77398
711.90 13.89213
712.00 14.00592
712.10 14.10572
712.20 14.17994
712.30 14.20454
712.40 14.17151
712.50 14.0981
712.60 14.00081
712.70 13.89283
712.80 13.79492
712.90 13.72545
713.00 13.68708
713.10 13.67219
713.20 13.67373
713.30 13.6839
713.40 13.68837
713.50 13.67094
713.60 13.63114
713.70 13.58515
713.80 13.53921
713.90 13.49524
714.00 13.46953
714.10 13.47997
714.20 13.52648
714.30 13.5997
714.40 13.69426
714.50 13.80238
714.60 13.90967
714.70 14.00461
714.80 14.08499
714.90 14.15704
715.00 14.22335
715.10 14.28207
715.20 14.3427
715.30 14.41403
715.40 14.4861
715.50 14.54348
715.60 14.57581
715.70 14.57631
715.80 14.5483
715.90 14.50448
716.00 14.45807
716.10 14.4221
716.20 14.41661
716.30 14.46019
716.40 14.56255
716.50 14.71498
716.60 14.87808
716.70 15.01073
716.80 15.09898
716.90 15.15103
717.00 15.18102
717.10 15.20105
717.20 15.21912
717.30 15.23487
717.40 15.24777
717.50 15.25881
717.60 15.25513
717.70 15.21981
717.80 15.15471
717.90 15.08646
718.00 15.05181
718.10 15.07661
718.20 15.16122
718.30 15.27974
718.40 15.40649
718.50 15.52859
718.60 15.63736
718.70 15.72889
718.80 15.80626
718.90 15.8771
719.00 15.95324
719.10 16.04143
719.20 16.13404
719.30 16.20777
719.40 16.23539
719.50 16.21573
719.60 16.17177
719.70 16.12648
719.80 16.09808
719.90 16.10101
720.00 16.1462
720.10 16.23259
720.20 16.34026
720.30 16.43942
720.40 16.50561
720.50 16.5299
720.60 16.51445
720.70 16.47425
720.80 16.43837
720.90 16.42164
721.00 16.42104
721.10 16.43889
721.20 16.48362
721.30 16.55492
721.40 16.63839
721.50 16.71773
721.60 16.78812
721.70 16.85194
721.80 16.90958
721.90 16.95881
722.00 17.00131
722.10 17.04403
722.20 17.08762
722.30 17.12565
722.40 17.1615
722.50 17.20703
722.60 17.26792
722.70 17.34745
722.80 17.44821
722.90 17.5706
723.00 17.70233
723.10 17.8248
723.20 17.93192
723.30 18.01937
723.40 18.09164
723.50 18.17637
723.60 18.30069
723.70 18.47398
723.80 18.67057
723.90 18.85069
724.00 19.00931
724.10 19.14361
724.20 19.22917
724.30 19.24605
724.40 19.20243
724.50 19.12042
724.60 19.01198
724.70 18.90199
724.80 18.8205
724.90 18.77358
725.00 18.75764
725.10 18.77962
725.20 18.86467
725.30 19.02409
725.40 19.22024
725.50 19.41223
725.60 19.58346
725.70 19.73361
725.80 19.86436
725.90 19.97324
726.00 20.05641
726.10 20.10509
726.20 20.11199
726.30 20.07538
726.40 20.00613
726.50 19.91677
726.60 19.81826
726.70 19.7289
726.80 19.66902
726.90 19.66379
727.00 19.74584
727.10 19.9245
727.20 20.18551
727.30 20.49129
727.40 20.77823
727.50 20.98357
727.60 21.06744
727.70 21.02267
727.80 20.88289
727.90 20.72187
728.00 20.61541
728.10 20.61217
728.20 20.73058
728.30 20.93644
728.40 21.15337
728.50 21.31189
728.60 21.35627
728.70 21.26273
728.80 21.06273
728.90 20.82221
729.00 20.62151
729.10 20.53785
729.20 20.60537
729.30 20.79623
729.40 21.06104
729.50 21.34659
729.60 21.59017
729.70 21.75828
729.80 21.84981
729.90 21.87348
730.00 21.85087
730.10 21.80919
730.20 21.78247
730.30 21.7998
730.40 21.86438
730.50 21.97476
730.60 22.13847
730.70 22.35607
730.80 22.61437
730.90 22.90403
731.00 23.22226
731.10 23.55972
731.20 23.90456
731.30 24.22805
731.40 24.48094
731.50 24.64085
731.60 24.71231
731.70 24.71092
731.80 24.66789
731.90 24.60269
732.00 24.52339
732.10 24.44545
732.20 24.39023
732.30 24.381
732.40 24.43484
732.50 24.53136
732.60 24.59615
732.70 24.56409
732.80 24.41994
732.90 24.17855
733.00 23.87875
733.10 23.57659
733.20 23.33339
733.30 23.21617
733.40 23.29265
733.50 23.6091
733.60 24.16248
733.70 24.86992
733.80 25.60143
733.90 26.2385
734.00 26.69797
734.10 26.92361
734.20 26.88981
734.30 26.61906
734.40 26.16338
734.50 25.6026
734.60 25.0392
734.70 24.55843
734.80 24.19824
734.90 23.963
735.00 23.84035
735.10 23.81874
735.20 23.87373
735.30 23.95838
735.40 24.0509
735.50 24.15428
735.60 24.26155
735.70 24.3507
735.80 24.41374
735.90 24.45149
736.00 24.46953
736.10 24.49753
736.20 24.57681
736.30 24.72889
736.40 24.96045
736.50 25.25373
736.60 25.55786
736.70 25.83463
736.80 26.04526
736.90 26.14148
737.00 26.10072
737.10 25.93213
737.20 25.66103
737.30 25.32474
737.40 24.9649
737.50 24.61952
737.60 24.32603
737.70 24.1207
737.80 24.00754
737.90 23.96831
738.00 23.99382
738.10 24.0601
738.20 24.13317
738.30 24.18974
738.40 24.22752
738.50 24.25699
738.60 24.30312
738.70 24.40753
738.80 24.58313
738.90 24.79155
739.00 24.9719
739.10 25.06316
739.20 25.01333
739.30 24.80133
739.40 24.4504
739.50 24.03072
739.60 23.63784
739.70 23.35651
739.80 23.23664
739.90 23.28553
740.00 23.47198
740.10 23.72395
740.20 23.95489
740.30 24.11015
740.40 24.17065
740.50 24.14324
740.60 24.06054
740.70 23.95649
740.80 23.86017
740.90 23.78993
741.00 23.74183
741.10 23.71231
741.20 23.70797
741.30 23.72799
741.40 23.74854
741.50 23.7447
741.60 23.71082
741.70 23.65082
741.80 23.56617
741.90 23.45915
742.00 23.3361
742.10 23.21223
742.20 23.10653
742.30 23.03018
742.40 23.00026
742.50 23.03396
742.60 23.12135
742.70 23.24021
742.80 23.37707
742.90 23.51015
743.00 23.61099
743.10 23.65604
743.20 23.63437
743.30 23.54487
743.40 23.39722
743.50 23.22271
743.60 23.07402
743.70 22.99893
743.80 23.00606
743.90 23.07518
744.00 23.1749
744.10 23.25907
744.20 23.26899
744.30 23.16405
744.40 22.94193
744.50 22.63002
744.60 22.27367
744.70 21.93549
744.80 21.68887
744.90 21.58588
745.00 21.62597
745.10 21.7643
745.20 21.94254
745.30 22.09343
745.40 22.16293
745.50 22.14044
745.60 22.0455
745.70 21.91307
745.80 21.78954
745.90 21.72456
746.00 21.7566
746.10 21.89629
746.20 22.11844
746.30 22.36914
746.40 22.58937
746.50 22.74587
746.60 22.83706
746.70 22.88485
746.80 22.91299
746.90 22.92638
747.00 22.93356
747.10 22.94884
747.20 22.97138
747.30 22.9888
747.40 22.98957
747.50 22.95872
747.60 22.8975
747.70 22.84658
747.80 22.85819
747.90 22.95711
748.00 23.14308
748.10 23.39696
748.20 23.66883
748.30 23.89552
748.40 24.03306
748.50 24.07056
748.60 24.01367
748.70 23.8742
748.80 23.6717
748.90 23.44781
749.00 23.25212
749.10 23.10219
749.20 22.99335
749.30 22.91802
749.40 22.85997
749.50 22.80449
749.60 22.76545
749.70 22.77258
749.80 22.83117
749.90 22.92733
750.00 23.05582
750.10 23.20808
750.20 23.36223
750.30 23.49377
750.40 23.58347
750.50 23.62769
750.60 23.63308
750.70 23.60782
750.80 23.56691
750.90 23.53007
751.00 23.50317
751.10 23.49023
751.20 23.51672
751.30 23.59136
751.40 23.68992
751.50 23.77707
751.60 23.82498
751.70 23.83527
751.80 23.8323
751.90 23.8474
752.00 23.89696
752.10 23.9715
752.20 24.05806
752.30 24.14757
752.40 24.23557
752.50 24.31033
752.60 24.34706
752.70 24.32883
752.80 24.25807
752.90 24.15369
753.00 24.04146
753.10 23.94203
753.20 23.86468
753.30 23.80867
753.40 23.7757
753.50 23.78318
753.60 23.83943
753.70 23.92523
753.80 24.0172
753.90 24.10445
754.00 24.17701
754.10 24.22923
754.20 24.26134
754.30 24.27112
754.40 24.2542
754.50 24.19642
754.60 24.08508
754.70 23.92138
754.80 23.72329
754.90 23.52662
755.00 23.37358
755.10 23.30583
755.20 23.34306
755.30 23.46382
755.40 23.62212
755.50 23.77816
755.60 23.90418
755.70 23.98762
755.80 24.03745
755.90 24.06935
756.00 24.08907
756.10 24.09212
756.20 24.0698
756.30 24.01286
756.40 23.90973
756.50 23.76838
756.60 23.63681
756.70 23.5614
756.80 23.56032
756.90 23.62882
757.00 23.75513
757.10 23.90625
757.20 24.02819
757.30 24.08479
757.40 24.06609
757.50 23.98816
757.60 23.88848
757.70 23.8123
757.80 23.80266
757.90 23.87211
758.00 23.99165
758.10 24.12137
758.20 24.21842
758.30 24.23397
758.40 24.12013
758.50 23.8557
758.60 23.45108
758.70 22.93785
758.80 22.36081
758.90 21.76587
759.00 21.19984
759.10 20.70717
759.20 20.3264
759.30 20.0807
759.40 19.95656
759.50 19.92097
759.60 19.95288
759.70 20.0263
759.80 20.11361
759.90 20.20225
760.00 20.26222
760.10 20.25227
760.20 20.16914
760.30 20.03977
760.40 19.90377
760.50 19.79629
760.60 19.72267
760.70 19.66107
760.80 19.58821
760.90 19.49923
761.00 19.40118
761.10 19.31426
761.20 19.25271
761.30 19.21438
761.40 19.21363
761.50 19.26205
761.60 19.34324
761.70 19.43092
761.80 19.47543
761.90 19.41679
762.00 19.23913
762.10 18.96864
762.20 18.64745
762.30 18.31314
762.40 17.98132
762.50 17.64263
762.60 17.27504
762.70 16.86649
762.80 16.42038
762.90 15.95701
763.00 15.50225
763.10 15.07917
763.20 14.70162
763.30 14.37619
763.40 14.09946
763.50 13.85882
763.60 13.64932
763.70 13.45341
763.80 13.23507
763.90 12.96325
764.00 12.62861
764.10 12.24291
764.20 11.83195
764.30 11.42221
764.40 11.02453
764.50 10.63372
764.60 10.25386
764.70 9.902508
764.80 9.575732
764.90 9.247554
765.00 8.889861
765.10 8.486902
765.20 8.041911
765.30 7.57092
765.40 7.092964
765.50 6.619718
765.60 6.157206
765.70 5.716491
765.80 5.311134
765.90 4.940789
766.00 4.604318
766.10 4.297763
766.20 4.016558
766.30 3.76977
766.40 3.562986
766.50 3.40754
766.60 3.325811
766.70 3.335833
766.80 3.446363
766.90 3.65695
767.00 3.955877
767.10 4.315579
767.20 4.704772
767.30 5.10638
767.40 5.505803
767.50 5.884623
767.60 6.23308
767.70 6.547856
767.80 6.835856
767.90 7.111644
768.00 7.392063
768.10 7.68368
768.20 7.975343
768.30 8.244049
768.40 8.455208
768.50 8.57569
768.60 8.58814
768.70 8.502709
768.80 8.348903
768.90 8.15638
769.00 7.941958
769.10 7.705504
769.20 7.438414
769.30 7.132603
769.40 6.78442
769.50 6.397655
769.60 5.983637
769.70 5.562309
769.80 5.170646
769.90 4.853913
770.00 4.647472
770.10 4.561946
770.20 4.588294
770.30 4.719879
770.40 4.9504
770.50 5.270129
770.60 5.682116
770.70 6.206473
770.80 6.840961
770.90 7.543634
771.00 8.271273
771.10 8.989574
771.20 9.663273
771.30 10.23896
771.40 10.66265
771.50 10.91195
771.60 10.99819
771.70 10.96465
771.80 10.8963
771.90 10.90449
772.00 11.06778
772.10 11.40082
772.20 11.88587
772.30 12.51233
772.40 13.24368
772.50 14.0021
772.60 14.69408
772.70 15.25996
772.80 15.69052
772.90 15.9935
773.00 16.19042
773.10 16.3149
773.20 16.39616
773.30 16.46725
773.40 16.56259
773.50 16.70546
773.60 16.90312
773.70 17.1409
773.80 17.39771
773.90 17.6539
774.00 17.89644
774.10 18.11765
774.20 18.29946
774.30 18.43108
774.40 18.52933
774.50 18.62514
774.60 18.74326
774.70 18.90142
774.80 19.09957
774.90 19.31797
775.00 19.53405
775.10 19.70405
775.20 19.79337
775.30 19.81008
775.40 19.78214
775.50 19.73822
775.60 19.70494
775.70 19.70439
775.80 19.73788
775.90 19.78358
776.00 19.82792
776.10 19.85903
776.20 19.86566
776.30 19.85187
776.40 19.8335
776.50 19.8574
776.60 19.97073
776.70 20.19024
776.80 20.51304
776.90 20.91614
777.00 21.35986
777.10 21.78985
777.20 22.13889
777.30 22.35289
777.40 22.39274
777.50 22.24692
777.60 21.97457
777.70 21.66779
777.80 21.40657
777.90 21.25746
778.00 21.24251
778.10 21.32919
778.20 21.45892
778.30 21.57491
778.40 21.63695
778.50 21.62892
778.60 21.57017
778.70 21.51495
778.80 21.53833
778.90 21.70425
779.00 22.00897
779.10 22.39078
779.20 22.75959
779.30 23.00641
779.40 23.02279
779.50 22.72074
779.60 22.04338
779.70 20.99755
779.80 19.69082
779.90 18.31497
780.00 17.10791
780.10 16.28735
780.20 16.00183
780.30 16.3076
780.40 17.15418
780.50 18.39045
780.60 19.80466
780.70 21.15344
780.80 22.23515
780.90 22.94675
781.00 23.29605
781.10 23.37795
781.20 23.31596
781.30 23.2391
781.40 23.24885
781.50 23.41144
781.60 23.74699
781.70 24.19968
781.80 24.66949
781.90 25.07337
782.00 25.36189
782.10 25.50581
782.20 25.49024
782.30 25.33118
782.40 25.06518
782.50 24.73229
782.60 24.37593
782.70 24.03424
782.80 23.74667
782.90 23.53619
783.00 23.40075
783.10 23.35507
783.20 23.43476
783.30 23.64364
783.40 23.92869
783.50 24.25277
783.60 24.61097
783.70 24.98938
783.80 25.36611
783.90 25.7247
784.00 26.07107
784.10 26.4183
784.20 26.76905
784.30 27.12442
784.40 27.47826
784.50 27.7928
784.60 27.99431
784.70 28.04345
784.80 27.99089
784.90 27.90278
785.00 27.7816
785.10 27.61695
785.20 27.44172
785.30 27.31278
785.40 27.25787
785.50 27.2694
785.60 27.34011
785.70 27.45817
785.80 27.60947
785.90 27.78214
786.00 27.97626
786.10 28.17669
786.20 28.31181
786.30 28.30678
786.40 28.18398
786.50 28.01881
786.60 27.86406
786.70 27.72961
786.80 27.60369
786.90 27.48332
787.00 27.3371
787.10 27.125
787.20 26.84076
787.30 26.51406
787.40 26.19731
787.50 25.95284
787.60 25.85329
787.70 25.96602
787.80 26.29489
787.90 26.78295
788.00 27.33837
788.10 27.85834
788.20 28.26843
788.30 28.52506
788.40 28.64861
788.50 28.6974
788.60 28.69689
788.70 28.67168
788.80 28.66519
788.90 28.71505
789.00 28.82984
789.10 28.96785
789.20 29.07887
789.30 29.1218
789.40 29.0768
789.50 28.94593
789.60 28.7329
789.70 28.45128
789.80 28.11337
789.90 27.74309
790.00 27.40624
790.10 27.17031
790.20 27.0635
790.30 27.07746
790.40 27.18601
790.50 27.36522
790.60 27.57934
790.70 27.77604
790.80 27.91969
790.90 28.02346
791.00 28.11815
791.10 28.23719
791.20 28.38063
791.30 28.52643
791.40 28.65544
791.50 28.73294
791.60 28.74668
791.70 28.69776
791.80 28.59061
791.90 28.44725
792.00 28.29647
792.10 28.16329
792.20 28.04774
792.30 27.92431
792.40 27.77585
792.50 27.60251
792.60 27.44991
792.70 27.3848
792.80 27.46184
792.90 27.72568
793.00 28.18198
793.10 28.79912
793.20 29.51093
793.30 30.21003
793.40 30.77541
793.50 31.11162
793.60 31.16882
793.70 30.95324
793.80 30.5186
793.90 29.93843
794.00 29.28155
794.10 28.60382
794.20 27.92913
794.30 27.23646
794.40 26.47745
794.50 25.62991
794.60 24.73333
794.70 23.88648
794.80 23.2312
794.90 22.91806
795.00 23.05997
795.10 23.68315
795.20 24.71438
795.30 26.00836
795.40 27.38633
795.50 28.65125
795.60 29.63647
795.70 30.26418
795.80 30.5648
795.90 30.65835
796.00 30.65402
796.10 30.60495
796.20 30.56522
796.30 30.59022
796.40 30.69484
796.50 30.85348
796.60 31.02924
796.70 31.19439
796.80 31.32862
796.90 31.42464
797.00 31.48392
797.10 31.51569
797.20 31.5132
797.30 31.4459
797.40 31.33568
797.50 31.25604
797.60 31.23912
797.70 31.26193
797.80 31.30445
797.90 31.35536
798.00 31.39547
798.10 31.39392
798.20 31.31726
798.30 31.1562
798.40 30.92869
798.50 30.66736
798.60 30.42279
798.70 30.2627
798.80 30.22335
798.90 30.28975
799.00 30.44638
799.10 30.68215
799.20 30.95589
799.30 31.22492
799.40 31.4544
799.50 31.62159
799.60 31.73445
799.70 31.8119
799.80 31.88504
799.90 31.98382
800.00 32.12793
800.10 32.31436
800.20 32.52631
800.30 32.74878
800.40 32.94277
800.50 33.0788
800.60 33.15499
800.70 33.17813
800.80 33.18438
800.90 33.22995
801.00 33.36009
801.10 33.6001
801.20 33.93105
801.30 34.29712
801.40 34.63666
801.50 34.89343
801.60 35.02471
801.70 35.02722
801.80 34.94303
801.90 34.81936
802.00 34.72204
802.10 34.72538
802.20 34.86732
802.30 35.17095
802.40 35.6393
802.50 36.23212
802.60 36.89662
802.70 37.57053
802.80 38.1739
802.90 38.6466
803.00 38.96801
803.10 39.13491
803.20 39.14737
803.30 39.01904
803.40 38.76976
803.50 38.44025
803.60 38.09986
803.70 37.80096
803.80 37.56961
803.90 37.42529
804.00 37.39319
804.10 37.50697
804.20 37.76918
804.30 38.12626
804.40 38.4941
804.50 38.80678
804.60 39.03643
804.70 39.2061
804.80 39.40077
804.90 39.71088
805.00 40.18446
805.10 40.81794
805.20 41.56892
805.30 42.38141
805.40 43.17152
805.50 43.84146
805.60 44.33419
805.70 44.61587
805.80 44.68888
805.90 44.61576
806.00 44.48163
806.10 44.35014
806.20 44.22753
806.30 44.10157
806.40 43.98374
806.50 43.89687
806.60 43.86704
806.70 43.91099
806.80 44.03452
806.90 44.2381
807.00 44.50642
807.10 44.84686
807.20 45.28858
807.30 45.82444
807.40 46.4084
807.50 46.98739
807.60 47.51342
807.70 47.95276
807.80 48.29234
807.90 48.55622
808.00 48.7917
808.10 49.03643
808.20 49.30565
808.30 49.58913
808.40 49.86536
808.50 50.08546
808.60 50.17783
808.70 50.10332
808.80 49.87847
808.90 49.56209
809.00 49.23905
809.10 48.98268
809.20 48.84241
809.30 48.8327
809.40 48.91234
809.50 49.01728
809.60 49.09254
809.70 49.10177
809.80 49.04875
809.90 48.98319
810.00 48.9715
810.10 49.05238
810.20 49.23898
810.30 49.52901
810.40 49.90214
810.50 50.32121
810.60 50.72869
810.70 51.06494
810.80 51.30334
810.90 51.46362
811.00 51.589
811.10 51.71057
811.20 51.83089
811.30 51.95289
811.40 52.09843
811.50 52.31127
811.60 52.64045
811.70 53.10021
811.80 53.64481
811.90 54.19352
812.00 54.66521
812.10 54.98936
812.20 55.15051
812.30 55.17946
812.40 55.13864
812.50 55.13324
812.60 55.26413
812.70 55.58007
812.80 56.05563
812.90 56.60915
813.00 57.13599
813.10 57.54314
813.20 57.79973
813.30 57.96246
813.40 58.13563
813.50 58.41496
813.60 58.8272
813.70 59.31402
813.80 59.76027
813.90 60.01279
814.00 59.93997
814.10 59.50149
814.20 58.75759
814.30 57.84482
814.40 56.90835
814.50 56.07254
814.60 55.46055
814.70 55.15352
814.80 55.15095
814.90 55.38262
815.00 55.75982
815.10 56.21188
815.20 56.69434
815.30 57.19211
815.40 57.70122
815.50 58.19363
815.60 58.62621
815.70 58.94952
815.80 59.15153
815.90 59.2835
816.00 59.41517
816.10 59.60419
816.20 59.89264
816.30 60.28062
816.40 60.72204
816.50 61.17318
816.60 61.60954
816.70 62.01408
816.80 62.37175
816.90 62.69274
817.00 63.00626
817.10 63.35166
817.20 63.7526
817.30 64.17837
817.40 64.52562
817.50 64.64323
817.60 64.39133
817.70 63.69773
817.80 62.53701
817.90 60.89002
818.00 58.78222
818.10 56.34309
818.20 53.81422
818.30 51.5134
818.40 49.7614
818.50 48.77752
818.60 48.62975
818.70 49.22032
818.80 50.3027
818.90 51.5115
819.00 52.43318
819.10 52.72088
819.20 52.20401
819.30 50.95133
819.40 49.23437
819.50 47.45008
819.60 46.01847
819.70 45.25592
819.80 45.31246
819.90 46.20052
820.00 47.81298
820.10 49.91747
820.20 52.20118
820.30 54.35673
820.40 56.16411
820.50 57.52583
820.60 58.45323
820.70 59.02438
820.80 59.35529
820.90 59.56305
821.00 59.7187
821.10 59.84875
821.20 59.97764
821.30 60.11159
821.40 60.22273
821.50 60.28685
821.60 60.31695
821.70 60.37481
821.80 60.52278
821.90 60.79601
822.00 61.18701
822.10 61.64114
822.20 62.08159
822.30 62.44621
822.40 62.74478
822.50 63.0295
822.60 63.33338
822.70 63.65624
822.80 63.99204
822.90 64.3479
823.00 64.70653
823.10 65.02003
823.20 65.23653
823.30 65.32833
823.40 65.3216
823.50 65.28896
823.60 65.30838
823.70 65.4332
823.80 65.67019
823.90 65.99157
824.00 66.36069
824.10 66.7577
824.20 67.16536
824.30 67.5719
824.40 67.99823
824.50 68.47821
824.60 69.02974
824.70 69.59163
824.80 70.03137
824.90 70.21665
825.00 70.07762
825.10 69.61447
825.20 68.8739
825.30 67.95354
825.40 67.00476
825.50 66.19586
825.60 65.68825
825.70 65.58255
825.80 65.85368
825.90 66.37817
826.00 67.00265
826.10 67.60816
826.20 68.12645
826.30 68.52045
826.40 68.76108
826.50 68.83896
826.60 68.79969
826.70 68.71438
826.80 68.62029
826.90 68.51256
827.00 68.35364
827.10 68.12614
827.20 67.87922
827.30 67.70511
827.40 67.68592
827.50 67.86249
827.60 68.22389
827.70 68.701
827.80 69.18846
827.90 69.56988
828.00 69.73358
828.10 69.63071
828.20 69.27056
828.30 68.70962
828.40 68.07275
828.50 67.48011
828.60 66.98565
828.70 66.56813
828.80 66.16375
828.90 65.71426
829.00 65.19826
829.10 64.64456
829.20 64.12104
829.30 63.70013
829.40 63.44226
829.50 63.36254
829.60 63.44073
829.70 63.63191
829.80 63.82606
829.90 63.87979
830.00 63.70978
830.10 63.32218
830.20 62.78238
830.30 62.18815
830.40 61.62345
830.50 61.15227
830.60 60.83259
830.70 60.71132
830.80 60.80012
830.90 61.06786
831.00 61.46684
831.10 61.93516
831.20 62.4059
831.30 62.8492
831.40 63.26425
831.50 63.65499
831.60 64.02661
831.70 64.39264
831.80 64.78201
831.90 65.21097
832.00 65.65385
832.10 66.06828
832.20 66.40128
832.30 66.59014
832.40 66.57934
832.50 66.36017
832.60 65.99292
832.70 65.5766
832.80 65.21762
832.90 65.01024
833.00 65.01826
833.10 65.23471
833.20 65.58451
833.30 65.97349
833.40 66.31873
833.50 66.56247
833.60 66.70675
833.70 66.80719
833.80 66.92724
833.90 67.0908
834.00 67.27216
834.10 67.43769
834.20 67.62757
834.30 67.8976
834.40 68.23897
834.50 68.61696
834.60 68.98913
834.70 69.31121
834.80 69.53295
834.90 69.60261
835.00 69.46186
835.10 69.09058
835.20 68.55251
835.30 67.9687
835.40 67.47439
835.50 67.17616
835.60 67.06832
835.70 67.07132
835.80 67.13458
835.90 67.24113
836.00 67.3881
836.10 67.57773
836.20 67.81656
836.30 68.11871
836.40 68.5194
836.50 69.0302
836.60 69.60825
836.70 70.18681
836.80 70.69878
836.90 71.06775
837.00 71.19822
837.10 71.02845
837.20 70.55882
837.30 69.84119
837.40 68.98585
837.50 68.1441
837.60 67.48608
837.70 67.17165
837.80 67.2717
837.90 67.72998
838.00 68.40465
838.10 69.11574
838.20 69.67861
838.30 69.92656
838.40 69.75291
838.50 69.14276
838.60 68.18584
838.70 67.05093
838.80 65.93073
838.90 65.00952
839.00 64.41355
839.10 64.16585
839.20 64.25084
839.30 64.66753
839.40 65.37526
839.50 66.28833
839.60 67.35691
839.70 68.55829
839.80 69.85119
839.90 71.17695
840.00 72.40478
840.10 73.357
840.20 73.9228
840.30 74.07969
840.40 73.90881
840.50 73.56368
840.60 73.1746
840.70 72.82438
840.80 72.56052
840.90 72.4216
841.00 72.40346
841.10 72.46319
841.20 72.57724
841.30 72.71861
841.40 72.88261
841.50 73.09073
841.60 73.31023
841.70 73.45577
841.80 73.42948
841.90 73.16887
842.00 72.68151
842.10 72.05282
842.20 71.4186
842.30 70.89342
842.40 70.54329
842.50 70.37527
842.60 70.34708
842.70 70.4639
842.80 70.72499
842.90 71.04845
843.00 71.31704
843.10 71.36477
843.20 71.00711
843.30 70.13065
843.40 68.75088
843.50 66.98324
843.60 65.02737
843.70 63.1199
843.80 61.46286
843.90 60.2118
844.00 59.43054
844.10 58.99418
844.20 58.68676
844.30 58.34966
844.40 57.89872
844.50 57.3586
844.60 56.82504
844.70 56.37688
844.80 55.98369
844.90 55.55471
845.00 55.05964
845.10 54.52845
845.20 54.00204
845.30 53.50422
845.40 53.04723
845.50 52.65924
845.60 52.39277
845.70 52.27744
845.80 52.29689
845.90 52.39397
846.00 52.51503
846.10 52.63695
846.20 52.77302
846.30 52.94059
846.40 53.14851
846.50 53.39354
846.60 53.63096
846.70 53.82186
846.80 53.94495
846.90 53.99089
847.00 53.95705
847.10 53.85493
847.20 53.71095
847.30 53.55941
847.40 53.41596
847.50 53.26998
847.60 53.15493
847.70 53.12335
847.80 53.12914
847.90 53.06116
848.00 52.86263
848.10 52.53463
848.20 52.14092
848.30 51.78249
848.40 51.53522
848.50 51.44104
848.60 51.52615
848.70 51.81522
848.80 52.31278
848.90 52.99874
849.00 53.81428
849.10 54.67047
849.20 55.5006
849.30 56.25793
849.40 56.87565
849.50 57.26758
849.60 57.35912
849.70 57.13949
849.80 56.68835
849.90 56.16148
850.00 55.71916
850.10 55.45809
850.20 55.42514
850.30 55.61825
850.40 55.99828
850.50 56.49849
850.60 57.00461
850.70 57.40314
850.80 57.64061
850.90 57.72634
851.00 57.69423
851.10 57.55992
851.20 57.31731
851.30 56.94319
851.40 56.42261
851.50 55.76013
851.60 54.94099
851.70 53.9111
851.80 52.61375
851.90 51.05779
852.00 49.37324
852.10 47.81451
852.20 46.66823
852.30 46.15524
852.40 46.3877
852.50 47.35445
852.60 48.92702
852.70 50.87448
852.80 52.89952
852.90 54.71593
853.00 56.12393
853.10 57.07971
853.20 57.64954
853.30 57.91401
853.40 57.95053
853.50 57.81332
853.60 57.57543
853.70 57.36131
853.80 57.27913
853.90 57.37162
854.00 57.6401
854.10 58.05964
854.20 58.57677
854.30 59.10643
854.40 59.57805
854.50 59.95806
854.60 60.2788
854.70 60.64794
854.80 61.1677
854.90 61.87473
855.00 62.71693
855.10 63.56637
855.20 64.29536
855.30 64.82949
855.40 65.12969
855.50 65.18463
855.60 65.01954
855.70 64.70503
855.80 64.33288
855.90 63.97625
856.00 63.64984
856.10 63.33966
856.20 63.05145
856.30 62.81622
856.40 62.67762
856.50 62.66747
856.60 62.7861
856.70 63.00577
856.80 63.2711
856.90 63.49994
857.00 63.63017
857.10 63.6395
857.20 63.52376
857.30 63.29684
857.40 63.01598
857.50 62.76689
857.60 62.63163
857.70 62.65888
857.80 62.83036
857.90 63.09353
858.00 63.40734
858.10 63.73158
858.20 64.03228
858.30 64.30551
858.40 64.5781
858.50 64.86308
858.60 65.141
858.70 65.37052
858.80 65.50699
858.90 65.51154
859.00 65.3568
859.10 65.07065
859.20 64.75547
859.30 64.52438
859.40 64.46349
859.50 64.61735
859.60 64.95244
859.70 65.39864
859.80 65.86438
859.90 66.25236
860.00 66.49646
860.10 66.58106
860.20 66.5286
860.30 66.39109
860.40 66.23524
860.50 66.0746
860.60 65.85555
860.70 65.50307
860.80 64.91379
860.90 64.00085
861.00 62.78679
861.10 61.32548
861.20 59.64682
861.30 57.81567
861.40 55.94719
861.50 54.17939
861.60 52.64334
861.70 51.42006
861.80 50.52035
861.90 49.91526
862.00 49.54117
862.10 49.30056
862.20 49.10895
862.30 48.9023
862.40 48.61292
862.50 48.19254
862.60 47.6602
862.70 47.09711
862.80 46.60751
862.90 46.26315
863.00 46.08528
863.10 46.08045
863.20 46.24589
863.30 46.54469
863.40 46.907
863.50 47.27195
863.60 47.60399
863.70 47.88808
863.80 48.12676
863.90 48.35374
864.00 48.62224
864.10 48.9551
864.20 49.3334
864.30 49.73482
864.40 50.15489
864.50 50.59957
864.60 51.07185
864.70 51.57073
864.80 52.11301
864.90 52.73525
865.00 53.46481
865.10 54.2751
865.20 55.08159
865.30 55.80547
865.40 56.40457
865.50 56.87183
865.60 57.24325
865.70 57.59464
865.80 57.98099
865.90 58.37684
866.00 58.70786
866.10 58.91284
866.20 58.97864
866.30 58.91754
866.40 58.723
866.50 58.40495
866.60 58.00033
866.70 57.54542
866.80 57.07184
866.90 56.61176
867.00 56.1967
867.10 55.82803
867.20 55.49356
867.30 55.25244
867.40 55.22979
867.50 55.50108
867.60 56.03091
867.70 56.69281
867.80 57.33497
867.90 57.83141
868.00 58.13075
868.10 58.22417
868.20 58.12018
868.30 57.87221
868.40 57.55869
868.50 57.24868
868.60 56.99147
868.70 56.76035
868.80 56.43021
868.90 55.86359
869.00 54.9556
869.10 53.6528
869.20 51.98013
869.30 50.02943
869.40 47.93067
869.50 45.89131
869.60 44.15987
869.70 42.90303
869.80 42.18184
869.90 41.99717
870.00 42.29395
870.10 42.955
870.20 43.82648
870.30 44.73585
870.40 45.52181
870.50 46.07901
870.60 46.35983
870.70 46.36172
870.80 46.10934
870.90 45.62826
871.00 44.953
871.10 44.17238
871.20 43.40825
871.30 42.75871
871.40 42.28835
871.50 42.0189
871.60 41.93332
871.70 42.00579
871.80 42.21444
871.90 42.52115
872.00 42.88423
872.10 43.29147
872.20 43.78169
872.30 44.40792
872.40 45.19691
872.50 46.13665
872.60 47.17074
872.70 48.19081
872.80 49.05815
872.90 49.67256
873.00 49.9903
873.10 49.99506
873.20 49.69715
873.30 49.15975
873.40 48.49127
873.50 47.83386
873.60 47.33601
873.70 47.0988
873.80 47.16539
873.90 47.54456
874.00 48.21159
874.10 49.13483
874.20 50.26224
874.30 51.45758
874.40 52.52311
874.50 53.28034
874.60 53.63593
874.70 53.58879
874.80 53.23744
874.90 52.73469
875.00 52.21981
875.10 51.82384
875.20 51.65614
875.30 51.7587
875.40 52.13076
875.50 52.72916
875.60 53.46322
875.70 54.27482
875.80 55.16014
875.90 56.12368
876.00 57.11324
876.10 58.01031
876.20 58.6799
876.30 59.00383
876.40 58.8842
876.50 58.33569
876.60 57.55169
876.70 56.82704
876.80 56.45428
876.90 56.64183
877.00 57.51144
877.10 59.06362
877.20 61.15752
877.30 63.51944
877.40 65.74899
877.50 67.49521
877.60 68.53961
877.70 68.79651
877.80 68.37129
877.90 67.46441
878.00 66.25778
878.10 64.93292
878.20 63.69371
878.30 62.72589
878.40 62.11567
878.50 61.82369
878.60 61.73335
878.70 61.74572
878.80 61.90291
878.90 62.26132
879.00 62.78718
879.10 63.43221
879.20 64.16081
879.30 64.94882
879.40 65.7598
879.50 66.52859
879.60 67.1018
879.70 67.27845
879.80 66.9073
879.90 65.93949
880.00 64.46021
880.10 62.66409
880.20 60.77127
880.30 58.9946
880.40 57.54278
880.50 56.57718
880.60 56.20636
880.70 56.4951
880.80 57.43978
880.90 58.95942
881.00 60.95989
881.10 63.36512
881.20 66.08901
881.30 69.01348
881.40 71.96301
881.50 74.70293
881.60 76.98745
881.70 78.61437
881.80 79.45572
881.90 79.47454
882.00 78.70016
882.10 77.19499
882.20 75.11977
882.30 72.76601
882.40 70.45536
882.50 68.48839
882.60 67.18241
882.70 66.78041
882.80 67.29726
882.90 68.55423
883.00 70.24922
883.10 72.02458
883.20 73.58982
883.30 74.77031
883.40 75.52582
883.50 75.98641
883.60 76.38157
883.70 76.92726
883.80 77.76104
883.90 78.85798
884.00 79.95325
884.10 80.64596
884.20 80.60248
884.30 79.60592
884.40 77.62404
884.50 74.86827
884.60 71.73526
884.70 68.75656
884.80 66.49226
884.90 65.36556
885.00 65.55524
885.10 66.96034
885.20 69.23322
885.30 71.84831
885.40 74.21683
885.50 75.84867
885.60 76.44967
885.70 75.95884
885.80 74.53336
885.90 72.50931
886.00 70.33788
886.10 68.45027
886.20 67.13197
886.30 66.47681
886.40 66.41316
886.50 66.76117
886.60 67.28847
886.70 67.70777
886.80 67.71317
886.90 67.07965
887.00 65.75212
887.10 63.87818
887.20 61.75955
887.30 59.79765
887.40 58.40642
887.50 57.89741
887.60 58.42435
887.70 59.92998
887.80 62.14708
887.90 64.66138
888.00 67.01082
888.10 68.82299
888.20 69.83603
888.30 70.04745
888.40 69.82583
888.50 69.67381
888.60 69.97457
888.70 70.87972
888.80 72.27165
888.90 73.8156
889.00 75.09361
889.10 75.72473
889.20 75.4148
889.30 74.03207
889.40 71.69546
889.50 68.80376
889.60 66.00801
889.70 63.90271
889.80 62.74838
889.90 62.62618
890.00 63.57206
890.10 65.49736
890.20 68.13582
890.30 71.10612
890.40 73.94566
890.50 76.19235
890.60 77.52827
890.70 77.81621
890.80 77.10924
890.90 75.65909
891.00 73.86452
891.10 72.17485
891.20 71.01227
891.30 70.62412
891.40 71.02709
891.50 72.09096
891.60 73.60849
891.70 75.34314
891.80 77.08137
891.90 78.63884
892.00 79.83996
892.10 80.51272
892.20 80.53488
892.30 79.88211
892.40 78.62652
892.50 76.9558
892.60 75.15935
892.70 73.56674
892.80 72.52166
892.90 72.32295
893.00 73.10599
893.10 74.77332
893.20 76.99808
893.30 79.30496
893.40 81.19733
893.50 82.30688
893.60 82.40906
893.70 81.41282
893.80 79.41645
893.90 76.6451
894.00 73.38736
894.10 70.0386
894.20 67.02728
894.30 64.69461
894.40 63.27499
894.50 62.86267
894.60 63.38531
894.70 64.62543
894.80 66.24913
894.90 67.85612
895.00 69.12138
895.10 69.94196
895.20 70.42544
895.30 70.82949
895.40 71.48009
895.50 72.62989
895.60 74.3709
895.70 76.63667
895.80 79.18081
895.90 81.58175
896.00 83.38854
896.10 84.26349
896.20 84.08055
896.30 82.95263
896.40 81.15495
896.50 79.01486
896.60 76.89524
896.70 75.16149
896.80 74.08362
896.90 73.81072
897.00 74.33237
897.10 75.46228
897.20 76.95427
897.30 78.62249
897.40 80.34474
897.50 82.00012
897.60 83.43342
897.70 84.51987
897.80 85.22592
897.90 85.60678
898.00 85.77115
898.10 85.87482
898.20 86.15003
898.30 86.81461
898.40 87.96319
898.50 89.53415
898.60 91.28988
898.70 92.84656
898.80 93.81681
898.90 93.99762
899.00 93.40878
899.10 92.20531
899.20 90.6082
899.30 88.83016
899.40 87.06653
899.50 85.50018
899.60 84.21954
899.70 83.20539
899.80 82.48695
899.90 82.23503
900.00 81.61964
900.10 81.58831
900.20 82.74281
900.30 83.92916
900.40 86.67568
900.50 89.42221
900.60 88.8287
900.70 86.87095
900.80 85.19733
900.90 83.9499
901.00 82.69487
901.10 81.35237
901.20 80.00987
901.30 81.36991
901.40 83.5372
901.50 85.12356
901.60 86.02795
901.70 86.95627
901.80 88.02014
901.90 89.08401
902.00 88.39315
902.10 87.34289
902.20 86.0741
902.30 84.60361
902.40 83.2171
902.50 82.1465
902.60 81.07591
902.70 79.10811
902.80 77.04063
902.90 76.82282
903.00 77.89037
903.10 79.15848
903.20 80.96886
903.30 82.77924
903.40 86.43401
903.50 90.16563
903.60 91.88788
903.70 92.52816
903.80 92.92404
903.90 92.84547
904.00 92.72205
904.10 91.14851
904.20 89.57496
904.30 88.57797
904.40 87.80519
904.50 87.39895
904.60 87.5425
904.70 87.65748
904.80 87.48352
904.90 87.30955
905.00 86.15926
905.10 84.73359
905.20 83.50791
905.30 82.50775
905.40 81.74773
905.50 82.24843
905.60 82.74913
905.70 84.03
905.80 85.44856
905.90 85.76243
906.00 85.09667
906.10 84.23506
906.20 82.67905
906.30 81.12304
906.40 81.42837
906.50 81.91778
906.60 82.65524
906.70 83.55806
906.80 84.4779
906.90 85.43941
907.00 86.40092
907.10 84.5714
907.20 82.68492
907.30 83.29729
907.40 85.14044
907.50 87.0096
907.60 88.92706
907.70 90.84215
907.80 92.70033
907.90 94.55852
908.00 94.21195
908.10 93.04993
908.20 91.9976
908.30 91.09676
908.40 90.18181
908.50 89.15269
908.60 88.12357
908.70 87.02505
908.80 85.90918
908.90 85.71434
909.00 86.47811
909.10 87.24308
909.20 88.01349
909.30 88.7839
909.40 89.49513
909.50 90.19751
909.60 90.06414
909.70 89.24696
909.80 88.55792
909.90 88.27467
910.00 87.99142
910.10 87.94833
910.20 87.92333
910.30 87.86214
910.40 87.77879
910.50 87.49149
910.60 86.75026
910.70 86.00902
910.80 87.67209
910.90 89.33517
911.00 90.85243
911.10 92.30419
911.20 93.18058
911.30 93.11822
911.40 92.90936
911.50 90.75418
911.60 88.59901
911.70 89.80358
911.80 92.06912
911.90 93.59126
912.00 94.20481
912.10 94.93471
912.20 96.44327
912.30 97.95183
912.40 98.25122
912.50 98.28518
912.60 98.50398
912.70 98.90038
912.80 98.90492
912.90 97.34202
913.00 95.77913
913.10 95.4609
913.20 95.29651
913.30 95.62443
913.40 96.30886
913.50 96.7689
913.60 96.62226
913.70 96.47562
913.80 94.91647
913.90 93.29847
914.00 92.18616
914.10 91.34613
914.20 90.46249
914.30 89.49419
914.40 88.59329
914.50 89.8717
914.60 91.15011
914.70 91.53696
914.80 91.57709
914.90 91.97202
915.00 92.87749
915.10 93.69779
915.20 93.75151
915.30 93.80523
915.40 95.3035
915.50 97.18576
915.60 99.44286
915.70 102.106
915.80 104.2954
915.90 104.1714
916.00 104.0475
916.10 101.2589
916.20 98.03644
916.30 95.17085
916.40 92.59721
916.50 91.16207
916.60 93.33222
916.70 95.50237
916.80 98.27085
916.90 101.0844
917.00 102.018
917.10 101.7994
917.20 101.1616
917.30 99.59049
917.40 98.01941
917.50 96.23841
917.60 94.4574
917.70 94.36924
917.80 95.04164
917.90 95.73379
918.00 96.45821
918.10 97.17246
918.20 97.75177
918.30 98.33109
918.40 97.87147
918.50 97.08377
918.60 97.11934
918.70 98.16111
918.80 99.31172
918.90 101.1308
919.00 102.95
919.10 104.5926
919.20 106.199
919.30 106.0179
919.40 104.1869
919.50 102.2852
919.60 100.1177
919.70 97.9502
919.80 98.5267
919.90 99.40809
920.00 100.8686
920.10 102.7316
920.20 104.183
920.30 104.5762
920.40 104.9693
920.50 103.3995
920.60 101.769
920.70 100.2127
920.80 98.69456
920.90 96.9298
921.00 94.70701
921.10 92.56887
921.20 92.46205
921.30 92.35524
921.40 93.57143
921.50 95.27695
921.60 96.97203
921.70 98.65271
921.80 100.2757
921.90 101.4318
922.00 102.588
922.10 102.4507
922.20 101.9901
922.30 101.5961
922.40 101.2713
922.50 100.8332
922.60 99.87897
922.70 98.92472
922.80 97.98201
922.90 97.04103
923.00 95.4131
923.10 93.24543
923.20 91.79672
923.30 92.5049
923.40 93.21308
923.50 94.44861
923.60 95.71189
923.70 96.78954
923.80 97.76278
923.90 98.77132
924.00 99.85153
924.10 100.9518
924.20 103.0363
924.30 105.1208
924.40 105.2917
924.50 104.6811
924.60 103.0459
924.70 99.87396
924.80 96.81583
924.90 94.9084
925.00 93.00098
925.10 92.27529
925.20 91.8829
925.30 92.54531
925.40 94.39717
925.50 96.25295
925.60 98.12935
925.70 100.0057
925.80 101.3521
925.90 102.6049
926.00 101.674
926.10 98.88297
926.20 96.73178
926.30 96.60675
926.40 96.48172
926.50 98.47225
926.60 100.622
926.70 102.3261
926.80 103.757
926.90 104.0064
927.00 101.6258
927.10 99.24531
927.20 97.49888
927.30 95.75245
927.40 94.69513
927.50 93.94741
927.60 93.03815
927.70 91.86533
927.80 90.68704
927.90 89.43626
928.00 88.18549
928.10 88.14468
928.20 88.48597
928.30 89.60147
928.40 91.66323
928.50 93.47807
928.60 93.89377
928.70 94.30946
928.80 92.68958
928.90 90.68197
929.00 89.76303
929.10 89.80949
929.20 90.15557
929.30 91.56395
929.40 92.97233
929.50 93.10597
929.60 93.11353
929.70 93.0646
929.80 92.978
929.90 93.26183
930.00 94.45257
930.10 95.6433
930.20 94.89591
930.30 94.10898
930.40 93.17982
930.50 92.18373
930.60 91.1921
930.70 90.20806
930.80 89.26834
930.90 89.02306
931.00 88.77779
931.10 89.49514
931.20 90.53336
931.30 92.34932
931.40 95.15512
931.50 97.56305
931.60 97.39283
931.70 97.27013
931.80 97.14743
931.90 98.36187
932.00 99.69259
932.10 100.7746
932.20 100.8616
932.30 100.9487
932.40 99.7637
932.50 97.20071
932.60 94.63772
932.70 93.55365
932.80 92.93659
932.90 92.37676
933.00 93.19016
933.10 94.00357
933.20 94.35137
933.30 93.75385
933.40 93.15633
933.50 92.67436
933.60 92.26627
933.70 91.85818
933.80 92.14592
933.90 92.51967
934.00 93.07192
934.10 94.49571
934.20 95.91951
934.30 96.74919
934.40 96.85274
934.50 96.95629
934.60 97.20207
934.70 97.49781
934.80 97.79255
934.90 98.03809
935.00 98.28363
935.10 98.22854
935.20 97.47201
935.30 96.71547
935.40 95.32734
935.50 93.48186
935.60 91.63637
935.70 91.53206
935.80 91.68793
935.90 92.19032
936.00 94.6563
936.10 97.12228
936.20 99.08499
936.30 100.3806
936.40 101.6762
936.50 101.3906
936.60 100.4591
936.70 99.52771
936.80 97.87097
936.90 96.21422
937.00 94.95206
937.10 94.70456
937.20 94.45706
937.30 94.74186
937.40 95.44491
937.50 96.14796
937.60 96.50504
937.70 96.79622
937.80 96.9508
937.90 96.19125
938.00 95.4317
938.10 95.10143
938.20 95.38892
938.30 95.67641
938.40 95.94392
938.50 96.20247
938.60 96.46102
938.70 95.70641
938.80 94.93113
938.90 94.58562
939.00 95.46328
939.10 96.34095
939.20 97.19592
939.30 98.03156
939.40 98.8672
939.50 99.32665
939.60 99.70904
939.70 99.83723
939.80 97.90859
939.90 95.97996
940.00 94.59711
940.10 94.06791
940.20 93.53871
940.30 94.38007
940.40 95.86639
940.50 97.35272
940.60 99.40034
940.70 101.4714
940.80 102.8127
940.90 101.9649
941.00 101.1171
941.10 100.5212
941.20 100.1486
941.30 99.77607
941.40 99.76486
941.50 99.83841
941.60 99.90501
941.70 99.90908
941.80 99.91314
941.90 99.39162
942.00 98.01257
942.10 96.63352
942.20 96.48409
942.30 96.94029
942.40 97.39649
942.50 97.33736
942.60 97.2511
942.70 97.64131
942.80 99.62666
942.90 101.612
943.00 103.4615
943.10 105.1857
943.20 106.9098
943.30 108.5909
943.40 110.2613
943.50 111.6092
943.60 109.6968
943.70 107.7844
943.80 106.272
943.90 105.4406
944.00 104.6091
944.10 103.9254
944.20 103.3178
944.30 102.7102
944.40 102.3619
944.50 102.0302
944.60 101.582
944.70 100.7437
944.80 99.90533
944.90 99.78444
945.00 100.3528
945.10 100.9213
945.20 102.2069
945.30 103.6719
945.40 105.0416
945.50 105.3169
945.60 105.5922
945.70 105.5169
945.80 104.8448
945.90 104.1727
946.00 102.9681
946.10 101.4768
946.20 99.98553
946.30 99.54263
946.40 99.16666
946.50 99.11876
946.60 100.234
946.70 101.3492
946.80 102.4317
946.90 103.4827
947.00 104.5336
947.10 104.9522
947.20 105.2028
947.30 105.4783
947.40 106.0412
947.50 106.604
947.60 106.8612
947.70 106.5978
947.80 106.3345
947.90 105.8356
948.00 105.2098
948.10 104.584
948.20 104.5404
948.30 104.534
948.40 104.9689
948.50 106.9688
948.60 108.9686
948.70 110.9404
948.80 112.8854
948.90 114.8304
949.00 115.4013
949.10 115.6288
949.20 115.6725
949.30 113.6037
949.40 111.535
949.50 110.038
949.60 109.5147
949.70 108.9914
949.80 108.9245
949.90 109.1035
950.00 109.2824
950.10 109.8323
950.20 110.4058
950.30 110.7158
950.40 110.1436
950.50 109.5714
950.60 109.9153
950.70 111.1393
950.80 112.3634
950.90 112.3013
951.00 111.9178
951.10 111.5994
951.20 111.9401
951.30 112.2809
951.40 111.8818
951.50 110.223
951.60 108.5642
951.70 107.1625
951.80 105.8934
951.90 104.6242
952.00 104.26
952.10 103.9434
952.20 104.4416
952.30 107.6676
952.40 110.8935
952.50 113.9457
952.60 116.8375
952.70 119.7293
952.80 118.9811
952.90 117.379
953.00 115.6749
953.10 113.0521
953.20 110.4293
953.30 108.4432
953.40 107.4959
953.50 106.5485
953.60 107.3358
953.70 108.9775
953.80 110.6192
953.90 110.3489
954.00 109.9991
954.10 109.7081
954.20 109.6039
954.30 109.4997
954.40 110.0303
954.50 111.1238
954.60 112.2174
954.70 114.5009
954.80 117.0458
954.90 119.3623
955.00 119.8316
955.10 120.3009
955.20 120.1152
955.30 118.9469
955.40 117.7786
955.50 116.6606
955.60 115.5663
955.70 114.472
955.80 113.8966
955.90 113.3373
956.00 112.8822
956.10 112.7236
956.20 112.5651
956.30 112.7997
956.40 113.356
956.50 113.9123
956.60 114.283
956.70 114.6183
956.80 114.9383
956.90 115.1454
957.00 115.3525
957.10 115.4816
957.20 115.4984
957.30 115.5152
957.40 115.4697
957.50 115.3975
957.60 115.3253
957.70 114.5646
957.80 113.797
957.90 113.1005
958.00 112.5868
958.10 112.0731
958.20 111.6518
958.30 111.3
958.40 110.9483
958.50 109.802
958.60 108.5154
958.70 107.2746
958.80 106.3148
958.90 105.3549
959.00 104.1483
959.10 102.6145
959.20 101.0807
959.30 100.7264
959.40 100.8307
959.50 100.9354
959.60 101.0729
959.70 101.2104
959.80 101.5055
959.90 102.1686
960.00 102.8316
960.10 103.6578
960.20 104.5976
960.30 105.5373
960.40 106.1271
960.50 106.6691
960.60 107.0967
960.70 106.9231
960.80 106.7496
960.90 105.9786
961.00 104.4775
961.10 102.9763
961.20 102.1614
961.30 101.5876
961.40 101.0681
961.50 102.3032
961.60 103.5383
961.70 104.9127
961.80 106.5832
961.90 108.2537
962.00 109.2467
962.10 109.8066
962.20 110.3664
962.30 109.7257
962.40 108.9517
962.50 108.1569
962.60 107.2739
962.70 106.3909
962.80 105.8276
962.90 105.6106
963.00 105.3937
963.10 106.0197
963.20 106.8976
963.30 107.6685
963.40 106.7631
963.50 105.8577
963.60 104.6111
963.70 102.7307
963.80 100.8504
963.90 99.45297
964.00 98.32721
964.10 97.20144
964.20 98.1871
964.30 99.33168
964.40 100.2577
964.50 100.4089
964.60 100.5601
964.70 101.1561
964.80 102.1795
964.90 103.2029
965.00 103.3095
965.10 103.1868
965.20 103.0663
965.30 102.9664
965.40 102.8665
965.50 102.9207
965.60 103.226
965.70 103.5314
965.80 105.1269
965.90 107.3578
966.00 109.5886
966.10 109.8997
966.20 110.1307
966.30 110.3439
966.40 110.5035
966.50 110.6631
966.60 110.7583
966.70 110.7985
966.80 110.8388
966.90 111.4059
967.00 112.0809
967.10 112.4533
967.20 110.6074
967.30 108.7614
967.40 107.2453
967.50 106.1848
967.60 105.1243
967.70 105.3651
967.80 106.1375
967.90 106.9098
968.00 107.9964
968.10 109.0829
968.20 109.9517
968.30 110.2874
968.40 110.623
968.50 110.2373
968.60 109.3293
968.70 108.4213
968.80 108.1356
968.90 107.9428
969.00 107.8729
969.10 108.4476
969.20 109.0223
969.30 109.8331
969.40 110.9322
969.50 112.0314
969.60 112.6381
969.70 113.0718
969.80 113.4878
969.90 113.4782
970.00 113.4686
970.10 113.2486
970.20 112.6015
970.30 111.9544
970.40 111.0676
970.50 110.0338
970.60 109
970.70 109.1626
970.80 109.4435
970.90 110.0799
971.00 112.1381
971.10 114.1964
971.20 116.1627
971.30 118.0332
971.40 119.9038
971.50 120.1121
971.60 119.8785
971.70 119.5399
971.80 117.9924
971.90 116.4449
972.00 115.3628
972.10 115.0731
972.20 114.7834
972.30 115.0174
972.40 115.5212
972.50 116.025
972.60 115.424
972.70 114.7649
972.80 114.0058
972.90 112.9469
973.00 111.8879
973.10 111.3806
973.20 111.3433
973.30 111.3059
973.40 111.3812
973.50 111.4797
973.60 111.5488
973.70 111.4036
973.80 111.2583
973.90 111.2603
974.00 111.4657
974.10 111.6711
974.20 111.5469
974.30 111.2881
974.40 111.0293
974.50 110.8334
974.60 110.6374
974.70 110.5324
974.80 110.6498
974.90 110.7672
975.00 111.3806
975.10 112.3386
975.20 113.2966
975.30 113.7174
975.40 114.0651
975.50 114.4203
975.60 114.8125
975.70 115.2047
975.80 115.445
975.90 115.507
976.00 115.5689
976.10 115.958
976.20 116.4503
976.30 116.9244
976.40 117.051
976.50 117.1775
976.60 117.2434
976.70 117.1914
976.80 117.1393
976.90 116.7227
977.00 116.101
977.10 115.4793
977.20 115.5203
977.30 115.6113
977.40 115.8799
977.50 116.7789
977.60 117.6779
977.70 118.0141
977.80 117.8308
977.90 117.6475
978.00 116.8451
978.10 115.8975
978.20 114.9427
978.30 113.9237
978.40 112.9047
978.50 112.2881
978.60 112.2751
978.70 112.2621
978.80 112.5393
978.90 112.9469
979.00 113.3545
979.10 115.2823
979.20 117.241
979.30 118.9704
979.40 120.11
979.50 121.2496
979.60 121.6856
979.70 121.5909
979.80 121.4961
979.90 121.1353
980.00 120.7312
980.10 120.3224
980.20 119.8889
980.30 119.4553
980.40 119.1331
980.50 118.9471
980.60 118.761
980.70 118.3653
980.80 117.8998
980.90 117.4455
981.00 117.2598
981.10 117.0742
981.20 116.6663
981.30 115.8074
981.40 114.9485
981.50 115.2252
981.60 116.1688
981.70 117.1125
981.80 117.6573
981.90 118.1675
982.00 118.6044
982.10 118.7815
982.20 118.9586
982.30 119.1033
982.40 119.2168
982.50 119.3304
982.60 119.7112
982.70 120.1589
982.80 120.4752
982.90 119.6089
983.00 118.7426
983.10 117.8729
983.20 116.9977
983.30 116.1225
983.40 115.7921
983.50 115.7064
983.60 115.6208
983.70 116.0827
983.80 116.5557
983.90 117.1423
984.00 118.0207
984.10 118.8991
984.20 119.4604
984.30 119.7825
984.40 120.1046
984.50 119.0715
984.60 117.8358
984.70 116.4793
984.80 114.4879
984.90 112.4965
985.00 111.4905
985.10 111.6413
985.20 111.7921
985.30 112.925
985.40 114.3852
985.50 115.8201
985.60 116.7742
985.70 117.7282
985.80 118.3013
985.90 118.1347
986.00 117.9682
986.10 118.2238
986.20 118.7168
986.30 119.2098
986.40 119.4082
986.50 119.5843
986.60 119.5435
986.70 118.7761
986.80 118.0088
986.90 117.9967
987.00 118.6819
987.10 119.367
987.20 121.1414
987.30 123.1549
987.40 124.9203
987.50 124.6778
987.60 124.4354
987.70 123.4059
987.80 121.2439
987.90 119.0819
988.00 118.3387
988.10 118.175
988.20 118.0113
988.30 120.23
988.40 122.4486
988.50 124.2376
988.60 125.0237
988.70 125.8099
988.80 125.6332
988.90 124.7875
989.00 123.9418
989.10 121.7244
989.20 119.3374
989.30 116.5838
989.40 112.1597
989.50 107.7356
989.60 103.2818
989.70 98.79605
989.80 94.31025
989.90 91.50857
990.00 89.18191
990.10 86.91916
990.20 85.50542
990.30 84.09168
990.40 82.42424
990.50 80.32484
990.60 78.22544
990.70 77.04394
990.80 76.33532
990.90 75.62669
991.00 76.25946
991.10 76.94812
991.20 77.30372
991.30 76.71137
991.40 76.11903
991.50 75.73109
991.60 75.51038
991.70 75.28968
991.80 75.46812
991.90 75.71699
992.00 75.96663
992.10 76.22058
992.20 76.47454
992.30 76.34486
992.40 75.72694
992.50 75.10901
992.60 76.03397
992.70 77.50103
992.80 78.9821
992.90 80.79967
993.00 82.61723
993.10 84.01922
993.20 84.57745
993.30 85.13569
993.40 85.42768
993.50 85.56331
993.60 85.69894
993.70 86.97528
993.80 88.33749
993.90 89.77446
994.00 91.4765
994.10 93.17853
994.20 94.32775
994.30 94.96667
994.40 95.60559
994.50 95.81986
994.60 95.94091
994.70 96.09856
994.80 96.55233
994.90 97.0061
995.00 97.76699
995.10 98.96982
995.20 100.1727
995.30 100.3444
995.40 100.0951
995.50 99.83102
995.60 98.10632
995.70 96.38162
995.80 94.84862
995.90 93.76293
996.00 92.67724
996.10 93.47772
996.20 95.53567
996.30 97.59362
996.40 99.71353
996.50 101.8403
996.60 103.1925
996.70 101.2425
996.80 99.29242
996.90 96.50851
997.00 92.85669
997.10 89.20487
997.20 87.41158
997.30 86.11234
997.40 85.08803
997.50 86.84352
997.60 88.59901
997.70 90.175
997.80 91.45813
997.90 92.74126
998.00 93.35553
998.10 93.65505
998.20 93.95457
998.30 92.67359
998.40 91.36035
998.50 90.24653
998.60 89.64551
998.70 89.04449
998.80 88.67087
998.90 88.46193
999.00 88.25299
999.10 88.56879
999.20 88.963
999.30 89.15645
999.40 88.36975
999.50 87.58305
999.60 87.89678
999.70 89.45143
999.80 91.00608
999.90 93.36865
1000.00 95.97255
1000.10 98.55226
1000.20 100.8106
1000.30 103.069
1000.40 104.1798
1000.50 103.2505
1000.60 102.3211
1000.70 100.8238
1000.80 99.03379
1000.90 97.2438
1001.00 95.90756
1001.10 94.59023
1001.20 93.86716
1001.30 94.83545
1001.40 95.80374
1001.50 97.01652
1001.60 98.42141
1001.70 99.8263
1001.80 100.4331
1001.90 100.9099
1002.00 101.3292
1002.10 101.4224
1002.20 101.5157
1002.30 101.914
1002.40 102.6853
1002.50 103.4565
1002.60 104.0118
1002.70 104.4952
1002.80 104.8946
1002.90 103.7
1003.00 102.5053
1003.10 101.3877
1003.20 100.4131
1003.30 99.43845
1003.40 98.54769
1003.50 97.70209
1003.60 96.85648
1003.70 97.39922
1003.80 98.01504
1003.90 98.81455
1004.00 100.1652
1004.10 101.5158
1004.20 103.4781
1004.30 105.9614
1004.40 108.4447
1004.50 108.6478
1004.60 108.4166
1004.70 107.8197
1004.80 104.9768
1004.90 102.1338
1005.00 98.73069
1005.10 94.61454
1005.20 90.49838
1005.30 88.47144
1005.40 87.17853
1005.50 85.95021
1005.60 86.27179
1005.70 86.59336
1005.80 87.12912
1005.90 88.08063
1006.00 89.03215
1006.10 89.80178
1006.20 90.4691
1006.30 91.13641
1006.40 93.27876
1006.50 95.51525
1006.60 97.70487
1006.70 99.74604
1006.80 101.7872
1006.90 102.9459
1007.00 103.353
1007.10 103.76
1007.20 103.4679
1007.30 103.0427
1007.40 102.8213
1007.50 103.8522
1007.60 104.883
1007.70 106.5078
1007.80 108.8884
1007.90 111.269
1008.00 112.4874
1008.10 113.2974
1008.20 114.0438
1008.30 113.2606
1008.40 112.4775
1008.50 111.465
1008.60 110.0073
1008.70 108.5496
1008.80 107.1626
1008.90 105.8154
1009.00 104.4682
1009.10 103.9004
1009.20 103.3913
1009.30 103.2769
1009.40 104.4841
1009.50 105.6913
1009.60 108.1836
1009.70 111.8155
1009.80 115.4474
1009.90 118.0234
1010.00 120.3833
1010.10 122.5207
1010.20 123.1697
1010.30 123.8186
1010.40 123.2154
1010.50 120.9522
1010.60 118.689
1010.70 116.3079
1010.80 113.883
1010.90 111.448
1011.00 108.6823
1011.10 105.9165
1011.20 103.4687
1011.30 101.6382
1011.40 99.80767
1011.50 98.69548
1011.60 97.98735
1011.70 97.27923
1011.80 99.04148
1011.90 100.9614
1012.00 103.2872
1012.10 106.8979
1012.20 110.5086
1012.30 113.2091
1012.40 115.134
1012.50 117.059
1012.60 117.3851
1012.70 117.4066
1012.80 117.3446
1012.90 116.7699
1013.00 116.1952
1013.10 114.7099
1013.20 112.0657
1013.30 109.4215
1013.40 105.9288
1013.50 102.1379
1013.60 98.45396
1013.70 97.33684
1013.80 96.21971
1013.90 96.45758
1014.00 99.32574
1014.10 102.1939
1014.20 104.1124
1014.30 105.4967
1014.40 106.881
1014.50 106.0086
1014.60 104.9923
1014.70 104.3937
1014.80 105.1181
1014.90 105.8424
1015.00 107.2989
1015.10 109.3789
1015.20 111.4589
1015.30 111.1546
1015.40 110.4294
1015.50 109.4146
1015.60 106.7588
1015.70 104.1031
1015.80 102.1666
1015.90 101.1095
1016.00 100.0523
1016.10 101.0323
1016.20 102.6915
1016.30 104.3242
1016.40 105.4554
1016.50 106.5867
1016.60 107.3628
1016.70 107.4794
1016.80 107.596
1016.90 107.3601
1017.00 106.9343
1017.10 106.5086
1017.20 109.0481
1017.30 111.7437
1017.40 114.119
1017.50 115.5826
1017.60 117.0461
1017.70 116.5752
1017.80 114.5845
1017.90 112.5938
1018.00 109.4586
1018.10 106.137
1018.20 103.1591
1018.30 101.9847
1018.40 100.8104
1018.50 100.6511
1018.60 101.6831
1018.70 102.7152
1018.80 104.0106
1018.90 105.3892
1019.00 106.7056
1019.10 107.1954
1019.20 107.6852
1019.30 107.8522
1019.40 107.4696
1019.50 107.0871
1019.60 107.0626
1019.70 107.2144
1019.80 107.3663
1019.90 108.1359
1020.00 108.9246
1020.10 109.7903
1020.20 110.8644
1020.30 111.9384
1020.40 113.0726
1020.50 114.2521
1020.60 115.4315
1020.70 114.7843
1020.80 113.888
1020.90 112.8013
1021.00 110.8476
1021.10 108.8938
1021.20 106.7792
1021.30 104.4903
1021.40 102.2014
1021.50 100.4362
1021.60 98.81887
1021.70 97.26112
1021.80 96.38918
1021.90 95.51723
1022.00 95.52718
1022.10 96.91649
1022.20 98.30579
1022.30 100.1212
1022.40 102.128
1022.50 104.1349
1022.60 105.3635
1022.70 106.5843
1022.80 107.2887
1022.90 106.7288
1023.00 106.1689
1023.10 105.5762
1023.20 104.9615
1023.30 104.3469
1023.40 105.5069
1023.50 106.8642
1023.60 108.3893
1023.70 110.5859
1023.80 112.7825
1023.90 114.7722
1024.00 116.5551
1024.10 118.3379
1024.20 118.1121
1024.30 117.415
1024.40 116.6494
1024.50 115.3288
1024.60 114.0081
1024.70 112.3474
1024.80 110.1973
1024.90 108.0472
1025.00 106.7322
1025.10 105.7583
1025.20 104.8033
1025.30 104.7741
1025.40 104.7449
1025.50 104.8143
1025.60 105.0933
1025.70 105.3722
1025.80 104.2129
1025.90 102.1721
1026.00 100.1313
1026.10 98.03275
1026.20 95.92991
1026.30 94.73055
1026.40 96.55593
1026.50 98.38132
1026.60 100.9795
1026.70 104.263
1026.80 107.5465
1026.90 109.1966
1027.00 110.5356
1027.10 111.4784
1027.20 109.9874
1027.30 108.4964
1027.40 107.3074
1027.50 106.5026
1027.60 105.6978
1027.70 104.517
1027.80 103.2042
1027.90 101.8679
1028.00 100.085
1028.10 98.30218
1028.20 97.09931
1028.30 96.97359
1028.40 96.84787
1028.50 98.54068
1028.60 101.2127
1028.70 103.8847
1028.80 106.1025
1028.90 108.3014
1029.00 109.8363
1029.10 109.4814
1029.20 109.1266
1029.30 108.6072
1029.40 107.9584
1029.50 107.3097
1029.60 106.9214
1029.70 106.5719
1029.80 106.2473
1029.90 106.0436
1030.00 105.84
1030.10 105.9801
1030.20 106.5078
1030.30 107.0355
1030.40 108.1016
1030.50 109.3196
1030.60 110.4544
1030.70 110.6322
1030.80 110.81
1030.90 110.8348
1031.00 110.6205
1031.10 110.4061
1031.20 109.9585
1031.30 109.4061
1031.40 108.8537
1031.50 108.2352
1031.60 107.616
1031.70 107.0302
1031.80 106.5221
1031.90 106.0141
1032.00 105.4363
1032.10 104.812
1032.20 104.1878
1032.30 104.1021
1032.40 104.0762
1032.50 104.561
1032.60 106.9667
1032.70 109.3723
1032.80 112.4587
1032.90 116.199
1033.00 119.9392
1033.10 121.3392
1033.20 122.2255
1033.30 122.6269
1033.40 119.472
1033.50 116.3171
1033.60 113.1976
1033.70 110.127
1033.80 107.0564
1033.90 106.0166
1034.00 105.7279
1034.10 105.5024
1034.20 107.3193
1034.30 109.1362
1034.40 110.6586
1034.50 111.6092
1034.60 112.5598
1034.70 112.284
1034.80 111.3183
1034.90 110.3527
1035.00 109.1402
1035.10 107.9148
1035.20 107.0397
1035.30 107.2153
1035.40 107.3909
1035.50 108.4338
1035.60 110.1582
1035.70 111.8825
1035.80 113.6466
1035.90 115.4172
1036.00 117.0657
1036.10 118.0733
1036.20 119.0808
1036.30 119.817
1036.40 120.2473
1036.50 120.6776
1036.60 121.0365
1036.70 121.3741
1036.80 121.8369
1036.90 123.7398
1037.00 125.6427
1037.10 127.2321
1037.20 128.3097
1037.30 129.3874
1037.40 128.1903
1037.50 125.9712
1037.60 123.7522
1037.70 118.9706
1037.80 114.1631
1037.90 110.2295
1038.00 108.3351
1038.10 106.4406
1038.20 106.6822
1038.30 108.3477
1038.40 110.0133
1038.50 111.3201
1038.60 112.5915
1038.70 113.4292
1038.80 112.6353
1038.90 111.8414
1039.00 111.1169
1039.10 110.4565
1039.20 109.796
1039.30 110.3382
1039.40 111.1444
1039.50 112.0204
1039.60 113.3631
1039.70 114.7058
1039.80 115.8472
1039.90 116.7218
1040.00 117.5964
1040.10 118.4746
1040.20 119.3542
1040.30 120.2363
1040.40 121.1806
1040.50 122.1249
1040.60 122.9826
1040.70 123.6794
1040.80 124.3761
1040.90 123.4013
1041.00 121.5265
1041.10 119.6516
1041.20 117.5504
1041.30 115.4398
1041.40 114.0419
1041.50 114.6728
1041.60 115.3036
1041.70 117.0019
1041.80 119.5056
1041.90 122.0093
1042.00 121.8305
1042.10 121.251
1042.20 120.2167
1042.30 117.1107
1042.40 114.0047
1042.50 111.0151
1042.60 108.1517
1042.70 105.2883
1042.80 105.9161
1042.90 107.472
1043.00 109.2131
1043.10 112.6205
1043.20 116.0279
1043.30 119.3444
1043.40 122.5248
1043.50 125.7052
1043.60 126.9203
1043.70 127.3328
1043.80 127.7412
1043.90 127.753
1044.00 127.7648
1044.10 127.6352
1044.20 127.205
1044.30 126.7749
1044.40 126.3785
1044.50 126.0027
1044.60 125.6269
1044.70 126.0516
1044.80 126.5367
1044.90 127.5529
1045.00 130.2515
1045.10 132.9501
1045.20 135.4589
1045.30 137.806
1045.40 140.1532
1045.50 139.3023
1045.60 137.8871
1045.70 136.156
1045.80 132.6347
1045.90 129.1134
1046.00 126.1466
1046.10 123.8306
1046.20 121.5146
1046.30 119.5552
1046.40 117.7084
1046.50 115.8366
1046.60 113.631
1046.70 111.4254
1046.80 109.7849
1046.90 109.0664
1047.00 108.3478
1047.10 108.9574
1047.20 110.192
1047.30 111.4266
1047.40 112.056
1047.50 112.6793
1047.60 113.0546
1047.70 112.8514
1047.80 112.6481
1047.90 113.074
1048.00 113.9193
1048.10 114.7646
1048.20 116.9272
1048.30 119.2201
1048.40 121.359
1048.50 122.9186
1048.60 124.4783
1048.70 125.4069
1048.80 125.753
1048.90 126.0991
1049.00 126.1162
1049.10 126.0661
1049.20 125.8249
1049.30 124.306
1049.40 122.787
1049.50 121.1236
1049.60 119.2764
1049.70 117.4291
1049.80 117.4489
1049.90 118.0912
1050.00 118.8049
1050.10 120.8774
1050.20 122.9499
1050.30 124.3509
1050.40 124.5582
1050.50 124.7655
1050.60 123.7937
1050.70 122.2412
1050.80 120.6887
1050.90 118.6724
1051.00 116.6418
1051.10 114.6263
1051.20 112.6498
1051.30 110.6733
1051.40 109.392
1051.50 108.5938
1051.60 107.7956
1051.70 107.7509
1051.80 107.7993
1051.90 108.0783
1052.00 109.2801
1052.10 110.4818
1052.20 112.0247
1052.30 113.8954
1052.40 115.766
1052.50 118.0062
1052.60 120.3331
1052.70 122.4662
1052.80 123.1787
1052.90 123.8912
1053.00 124.2278
1053.10 124.0661
1053.20 123.9045
1053.30 123.797
1053.40 123.7095
1053.50 123.6086
1053.60 123.1858
1053.70 122.7629
1053.80 122.4639
1053.90 122.395
1054.00 122.3261
1054.10 122.0577
1054.20 121.6866
1054.30 121.3155
1054.40 119.7525
1054.50 118.1399
1054.60 116.5449
1054.70 114.9979
1054.80 113.4508
1054.90 113.4194
1055.00 114.4854
1055.10 115.5514
1055.20 116.8207
1055.30 118.1178
1055.40 118.8494
1055.50 117.1708
1055.60 115.4921
1055.70 113.3243
1055.80 110.6675
1055.90 108.0106
1056.00 106.9575
1056.10 106.3054
1056.20 105.8098
1056.30 106.5815
1056.40 107.3533
1056.50 108.2372
1056.60 109.2762
1056.70 110.3152
1056.80 110.8073
1056.90 111.0972
1057.00 111.3813
1057.10 111.5256
1057.20 111.67
1057.30 112.0684
1057.40 112.9599
1057.50 113.8515
1057.60 114.5847
1057.70 115.2326
1057.80 115.8805
1057.90 116.2085
1058.00 116.523
1058.10 116.5836
1058.20 115.9214
1058.30 115.2591
1058.40 114.77
1058.50 114.4114
1058.60 114.0529
1058.70 113.5384
1058.80 113.0026
1058.90 112.6203
1059.00 112.8924
1059.10 113.1646
1059.20 113.3683
1059.30 113.5035
1059.40 113.6387
1059.50 113.8685
1059.60 114.122
1059.70 114.299
1059.80 113.858
1059.90 113.417
1060.00 112.8605
1060.10 112.1444
1060.20 111.4284
1060.30 110.6676
1060.40 109.8902
1060.50 109.119
1060.60 108.5426
1060.70 107.9663
1060.80 107.6915
1060.90 108.0022
1061.00 108.3129
1061.10 109.1449
1061.20 110.2576
1061.30 111.3702
1061.40 111.6971
1061.50 111.9912
1061.60 112.2208
1061.70 112.2756
1061.80 112.3304
1061.90 112.4189
1062.00 112.5329
1062.10 112.6469
1062.20 113.7696
1062.30 115.0298
1062.40 116.3436
1062.50 117.886
1062.60 119.4284
1062.70 120.7031
1062.80 121.7101
1062.90 122.7171
1063.00 122.4076
1063.10 121.7893
1063.20 121.2432
1063.30 121.282
1063.40 121.3207
1063.50 121.8526
1063.60 123.0658
1063.70 124.2789
1063.80 125.3606
1063.90 126.3938
1064.00 127.3753
1064.10 127.1184
1064.20 126.8615
1064.30 126.5126
1064.40 125.9929
1064.50 125.4731
1064.60 125.3191
1064.70 125.3534
1064.80 125.3877
1064.90 125.0511
1065.00 124.6991
1065.10 123.8756
1065.20 121.7775
1065.30 119.6794
1065.40 117.6446
1065.50 115.6555
1065.60 113.6663
1065.70 113.5948
1065.80 113.7602
1065.90 113.7648
1066.00 113.1259
1066.10 112.4869
1066.20 111.5184
1066.30 110.2332
1066.40 108.9479
1066.50 108.3856
1066.60 107.9928
1066.70 107.7914
1066.80 108.9931
1066.90 110.1949
1067.00 111.1033
1067.10 111.6229
1067.20 112.1425
1067.30 113.7353
1067.40 115.705
1067.50 117.6606
1067.60 119.3463
1067.70 121.032
1067.80 122.5476
1067.90 123.7609
1068.00 124.9741
1068.10 125.9678
1068.20 126.8532
1068.30 127.7387
1068.40 128.3695
1068.50 128.9951
1068.60 129.4355
1068.70 129.3998
1068.80 129.3642
1068.90 128.8935
1069.00 128.1204
1069.10 127.3473
1069.20 126.4804
1069.30 125.603
1069.40 124.4282
1069.50 122.1343
1069.60 119.8405
1069.70 118.427
1069.80 117.8263
1069.90 117.2256
1070.00 117.5856
1070.10 118.1425
1070.20 118.7186
1070.30 119.4126
1070.40 120.1067
1070.50 120.1674
1070.60 119.454
1070.70 118.7406
1070.80 118.9691
1070.90 119.4951
1071.00 120.0663
1071.10 121.3455
1071.20 122.6246
1071.30 123.8249
1071.40 124.8911
1071.50 125.9572
1071.60 126.7285
1071.70 127.3611
1071.80 127.9936
1071.90 127.8342
1072.00 127.6668
1072.10 127.3631
1072.20 126.7416
1072.30 126.12
1072.40 125.726
1072.50 125.4775
1072.60 125.2289
1072.70 125.9959
1072.80 126.8511
1072.90 127.4842
1073.00 127.3733
1073.10 127.2625
1073.20 127.2453
1073.30 127.3077
1073.40 127.3701
1073.50 127.4335
1073.60 127.497
1073.70 127.6811
1073.80 128.4987
1073.90 129.3163
1074.00 129.8604
1074.10 130.0961
1074.20 130.3318
1074.30 131.1252
1074.40 132.0759
1074.50 132.9945
1074.60 133.5438
1074.70 134.0931
1074.80 133.9989
1074.90 132.8982
1075.00 131.7975
1075.10 129.7122
1075.20 127.2051
1075.30 124.7167
1075.40 124.087
1075.50 123.4572
1075.60 123.6889
1075.70 125.7514
1075.80 127.8138
1075.90 129.1736
1076.00 130.1209
1076.10 131.0681
1076.20 130.1981
1076.30 129.2122
1076.40 128.4641
1076.50 128.4297
1076.60 128.3952
1076.70 128.9075
1076.80 129.8492
1076.90 130.791
1077.00 131.3508
1077.10 131.8534
1077.20 132.1051
1077.30 131.2134
1077.40 130.3217
1077.50 129.8369
1077.60 129.7757
1077.70 129.7145
1077.80 130.2737
1077.90 130.988
1078.00 131.6736
1078.10 132.1267
1078.20 132.5798
1078.30 132.4645
1078.40 131.5643
1078.50 130.6641
1078.60 129.4787
1078.70 128.1877
1078.80 126.8845
1078.90 125.2859
1079.00 123.6873
1079.10 122.0957
1079.20 120.5172
1079.30 118.9388
1079.40 118.567
1079.50 118.8169
1079.60 119.0667
1079.70 120.5877
1079.80 122.148
1079.90 123.5359
1080.00 124.4805
1080.10 125.4251
1080.20 125.9521
1080.30 126.189
1080.40 126.4259
1080.50 127.408
1080.60 128.473
1080.70 129.3878
1080.80 129.7382
1080.90 130.0885
1081.00 130.4664
1081.10 130.8698
1081.20 131.2732
1081.30 131.8955
1081.40 132.5626
1081.50 133.3516
1081.60 134.8889
1081.70 136.4263
1081.80 136.9236
1081.90 136.1496
1082.00 135.3756
1082.10 134.0161
1082.20 132.4717
1082.30 130.941
1082.40 129.5927
1082.50 128.2444
1082.60 127.7924
1082.70 128.803
1082.80 129.8136
1082.90 131.2166
1083.00 132.7958
1083.10 134.3751
1083.20 135.9071
1083.30 137.4392
1083.40 138.5682
1083.50 138.7999
1083.60 139.0316
1083.70 138.548
1083.80 137.6261
1083.90 136.7042
1084.00 136.104
1084.10 135.5281
1084.20 134.6546
1084.30 132.8392
1084.40 131.0237
1084.50 130
1084.60 129.6241
1084.70 129.2482
1084.80 129.1048
1084.90 128.9993
1085.00 129.0657
1085.10 129.9717
1085.20 130.8777
1085.30 131.1362
1085.40 130.693
1085.50 130.2499
1085.60 131.3293
1085.70 132.8133
1085.80 134.3211
1085.90 136.0418
1086.00 137.7625
1086.10 139.109
1086.20 139.9172
1086.30 140.7254
1086.40 140.1409
1086.50 139.0147
1086.60 137.9485
1086.70 138.3184
1086.80 138.6884
1086.90 139.0742
1087.00 139.4893
1087.10 139.9045
1087.20 139.8633
1087.30 139.5871
1087.40 139.3108
1087.50 138.0444
1087.60 136.7474
1087.70 135.6307
1087.80 134.978
1087.90 134.3253
1088.00 134.1189
1088.10 134.2225
1088.20 134.3262
1088.30 134.3918
1088.40 134.4532
1088.50 134.5494
1088.60 134.7767
1088.70 135.0041
1088.80 134.698
1088.90 133.8996
1089.00 133.1013
1089.10 132.631
1089.20 132.2279
1089.30 132.0576
1089.40 133.3177
1089.50 134.5778
1089.60 135.9394
1089.70 137.4252
1089.80 138.911
1089.90 140.6772
1090.00 142.5319
1090.10 144.262
1090.20 144.3365
1090.30 144.411
1090.40 143.7684
1090.50 142.0044
1090.60 140.2404
1090.70 137.5116
1090.80 134.3694
1090.90 131.2583
1091.00 131.2274
1091.10 131.1966
1091.20 131.9242
1091.30 134.2638
1091.40 136.6034
1091.50 138.8813
1091.60 141.1229
1091.70 143.3645
1091.80 143.4436
1091.90 143.3846
1092.00 143.0638
1092.10 141.9576
1092.20 140.8515
1092.30 139.5918
1092.40 138.2115
1092.50 136.8312
1092.60 136.0134
1092.70 135.2795
1092.80 134.7665
1092.90 135.2592
1093.00 135.7519
1093.10 136.4067
1093.20 137.2238
1093.30 138.0409
1093.40 138.068
1093.50 137.9099
1093.60 137.7709
1093.70 137.772
1093.80 137.7732
1093.90 137.837
1094.00 137.9836
1094.10 138.1302
1094.20 137.5629
1094.30 136.7447
1094.40 135.8981
1094.50 134.5104
1094.60 133.1227
1094.70 132.9373
1094.80 134.8895
1094.90 136.8416
1095.00 139.946
1095.10 143.6179
1095.20 147.2898
1095.30 148.9744
1095.40 150.6185
1095.50 151.4043
1095.60 150.1874
1095.70 148.9706
1095.80 147.8082
1095.90 146.6805
1096.00 145.5529
1096.10 146.1053
1096.20 146.8039
1096.30 147.3377
1096.40 147.3199
1096.50 147.3022
1096.60 145.7777
1096.70 142.9696
1096.80 140.1616
1096.90 137.3529
1097.00 134.5441
1097.10 132.1254
1097.20 131.7554
1097.30 131.3853
1097.40 132.1644
1097.50 134.2394
1097.60 136.3144
1097.70 137.9845
1097.80 139.5469
1097.90 140.9487
1098.00 140.9041
1098.10 140.8596
1098.20 140.1247
1098.30 138.3963
1098.40 136.6679
1098.50 135.5566
1098.60 134.6854
1098.70 133.8664
1098.80 134.7382
1098.90 135.61
1099.00 136.904
1099.10 139.0176
1099.20 141.1312
1099.30 142.3724
1099.40 143.144
1099.50 143.9155
1099.60 144.3431
1099.70 144.7599
1099.80 144.8776
1099.90 144.2258
1100.00 143.5741
1100.10 142.9246
1100.20 142.2768
1100.30 141.629
1100.40 140.7671
1100.50 139.8814
1100.60 139.1271
1100.70 138.8671
1100.80 138.6072
1100.90 138.5396
1101.00 138.6497
1101.10 138.7597
1101.20 138.8746
1101.30 138.9905
1101.40 139.0549
1101.50 138.828
1101.60 138.601
1101.70 138.1224
1101.80 137.3483
1101.90 136.5742
1102.00 135.1708
1102.10 133.5795
1102.20 132.1978
1102.30 133.2263
1102.40 134.2547
1102.50 135.5375
1102.60 137.2179
1102.70 138.8983
1102.80 139.4742
1102.90 139.5989
1103.00 139.673
1103.10 137.2664
1103.20 134.8597
1103.30 132.8033
1103.40 131.4578
1103.50 130.1124
1103.60 129.7833
1103.70 130.0259
1103.80 130.2684
1103.90 131.5145
1104.00 132.8134
1104.10 134.0356
1104.20 135.0396
1104.30 136.0436
1104.40 136.7354
1104.50 137.201
1104.60 137.6667
1104.70 137.2396
1104.80 136.702
1104.90 136.0089
1105.00 134.6935
1105.10 133.378
1105.20 131.4744
1105.30 129.0057
1105.40 126.537
1105.50 125.9017
1105.60 125.6689
1105.70 125.6447
1105.80 126.9021
1105.90 128.1595
1106.00 129.26
1106.10 130.1688
1106.20 131.0776
1106.30 131.1284
1106.40 130.9082
1106.50 130.5917
1106.60 128.9949
1106.70 127.3982
1106.80 126.4306
1106.90 126.4895
1107.00 126.5485
1107.10 127.2136
1107.20 128.1386
1107.30 129.0612
1107.40 129.748
1107.50 130.4347
1107.60 130.5726
1107.70 129.5441
1107.80 128.5156
1107.90 128.899
1108.00 130.1116
1108.10 131.3242
1108.20 133.3014
1108.30 135.3273
1108.40 137.0158
1108.50 137.7439
1108.60 138.4721
1108.70 138.4301
1108.80 137.8072
1108.90 137.1844
1109.00 136.7776
1109.10 136.4004
1109.20 136.3923
1109.30 137.9577
1109.40 139.5232
1109.50 140.8266
1109.60 141.8678
1109.70 142.909
1109.80 141.8826
1109.90 140.4022
1110.00 138.6562
1110.10 135.1329
1110.20 131.6096
1110.30 129.1674
1110.40 128.101
1110.50 127.0346
1110.60 127.2408
1110.70 127.8712
1110.80 128.4216
1110.90 127.9099
1111.00 127.3983
1111.10 126.506
1111.20 124.9926
1111.30 123.4792
1111.40 123.1852
1111.50 123.4391
1111.60 123.6929
1111.70 124.5375
1111.80 125.3822
1111.90 125.7819
1112.00 125.1915
1112.10 124.601
1112.20 125.1322
1112.30 126.3221
1112.40 127.5121
1112.50 129.4234
1112.60 131.3809
1112.70 133.2633
1112.80 134.9204
1112.90 136.5776
1113.00 136.9968
1113.10 136.4432
1113.20 135.8895
1113.30 134.4574
1113.40 132.9055
1113.50 131.2059
1113.60 128.8774
1113.70 126.5488
1113.80 125.8734
1113.90 126.8513
1114.00 127.8291
1114.10 130.6817
1114.20 133.974
1114.30 137.1661
1114.40 139.6883
1114.50 142.2104
1114.60 143.0411
1114.70 141.7191
1114.80 140.3972
1114.90 138.4696
1115.00 136.3401
1115.10 134.2499
1115.20 132.7765
1115.30 131.303
1115.40 130.8333
1115.50 132.0728
1115.60 133.3123
1115.70 134.279
1115.80 135.1231
1115.90 135.9672
1116.00 135.7955
1116.10 135.6239
1116.20 135.3843
1116.30 134.9935
1116.40 134.6027
1116.50 134.2676
1116.60 133.9667
1116.70 133.6657
1116.80 132.4524
1116.90 131.1808
1117.00 129.6273
1117.10 127.228
1117.20 124.8288
1117.30 123.254
1117.40 122.3269
1117.50 121.3998
1117.60 122.3533
1117.70 123.5879
1117.80 125.018
1117.90 127.2816
1118.00 129.5453
1118.10 131.6849
1118.20 133.7005
1118.30 135.7161
1118.40 136.6834
1118.50 137.4048
1118.60 137.8993
1118.70 136.7302
1118.80 135.4494
1118.90 134.0205
1119.00 132.5915
1119.10 131.3808
1119.20 131.2352
1119.30 131.0896
1119.40 130.944
1119.50 130.9536
1119.60 130.9767
1119.70 130.9998
1119.80 131.4203
1119.90 132.0455
1120.00 132.6707
1120.10 133.2797
1120.20 133.8646
1120.30 134.4494
1120.40 135.1219
1120.50 136.3331
1120.60 137.5442
1120.70 138.7553
1120.80 138.6087
1120.90 138.2942
1121.00 137.9798
1121.10 137.4714
1121.20 136.8492
1121.30 136.2271
1121.40 135.5424
1121.50 134.7557
1121.60 133.9691
1121.70 133.1787
1121.80 132.3606
1121.90 131.5426
1122.00 130.7246
1122.10 130.3329
1122.20 130.0107
1122.30 129.6885
1122.40 130.4003
1122.50 131.7732
1122.60 133.1461
1122.70 134.4305
1122.80 135.5504
1122.90 136.6704
1123.00 137.5805
1123.10 136.6015
1123.20 135.6226
1123.30 134.6437
1123.40 134.1843
1123.50 133.8239
1123.60 133.4635
1123.70 134.217
1123.80 135.7772
1123.90 137.3373
1124.00 138.9024
1124.10 140.4777
1124.20 142.0529
1124.30 143.4665
1124.40 142.7311
1124.50 141.9958
1124.60 141.2605
1124.70 139.3059
1124.80 137.0835
1124.90 134.8612
1125.00 133.0193
1125.10 131.4764
1125.20 129.9335
1125.30 129.1896
1125.40 130.2239
1125.50 131.2583
1125.60 132.3289
1125.70 134.0873
1125.80 135.8457
1125.90 137.6041
1126.00 138.0124
1126.10 138.0831
1126.20 138.1539
1126.30 138.3473
1126.40 138.645
1126.50 138.9428
1126.60 139.5556
1126.70 140.9399
1126.80 142.3242
1126.90 143.6668
1127.00 143.6618
1127.10 143.6567
1127.20 143.6517
1127.30 141.8118
1127.40 139.4544
1127.50 137.0969
1127.60 135.6243
1127.70 134.9685
1127.80 134.3126
1127.90 133.979
1128.00 134.5165
1128.10 135.0541
1128.20 135.5935
1128.30 136.3094
1128.40 137.0253
1128.50 137.7412
1128.60 137.8073
1128.70 137.6683
1128.80 137.5293
1128.90 137.6798
1129.00 138.1085
1129.10 138.5371
1129.20 138.8386
1129.30 138.7584
1129.40 138.6782
1129.50 138.598
1129.60 138.3799
1129.70 138.1618
1129.80 137.9437
1129.90 137.4856
1130.00 136.9431
1130.10 136.4007
1130.20 135.5334
1130.30 134.328
1130.40 133.1225
1130.50 132.1335
1130.60 131.8296
1130.70 131.5258
1130.80 131.2219
1130.90 131.9476
1131.00 132.6944
1131.10 133.4411
1131.20 134.8565
1131.30 136.5194
1131.40 138.1822
1131.50 139.1928
1131.60 139.4967
1131.70 139.8007
1131.80 140.0207
1131.90 139.9433
1132.00 139.8658
1132.10 139.7884
1132.20 139.0399
1132.30 138.2706
1132.40 137.5014
1132.50 137.4929
1132.60 137.7952
1132.70 138.0974
1132.80 137.8822
1132.90 137.0596
1133.00 136.2369
1133.10 135.2795
1133.20 133.8152
1133.30 132.3508
1133.40 130.8865
1133.50 129.5438
1133.60 128.2062
1133.70 126.8687
1133.80 125.803
1133.90 124.8539
1134.00 123.9047
1134.10 122.957
1134.20 122.0111
1134.30 121.0651
1134.40 120.4486
1134.50 121.1497
1134.60 121.8508
1134.70 122.5519
1134.80 124.5297
1134.90 126.5891
1135.00 128.6484
1135.10 129.9644
1135.20 130.9465
1135.30 131.9285
1135.40 132.1355
1135.50 131.356
1135.60 130.5764
1135.70 129.9214
1135.80 129.7968
1135.90 129.6723
1136.00 129.5478
1136.10 129.8833
1136.20 130.2482
1136.30 130.6131
1136.40 130.4976
1136.50 130.1561
1136.60 129.8145
1136.70 129.2467
1136.80 128.379
1136.90 127.5113
1137.00 126.6475
1137.10 125.8021
1137.20 124.9566
1137.30 124.1112
1137.40 122.43
1137.50 120.686
1137.60 118.942
1137.70 115.5548
1137.80 111.3584
1137.90 107.1619
1138.00 103.9521
1138.10 102.105
1138.20 100.2578
1138.30 99.14991
1138.40 101.6511
1138.50 104.1522
1138.60 106.6534
1138.70 110.9258
1138.80 115.3522
1138.90 119.7786
1139.00 122.3378
1139.10 123.9772
1139.20 125.6167
1139.30 125.9684
1139.40 124.5418
1139.50 123.1152
1139.60 121.4512
1139.70 118.541
1139.80 115.6309
1139.90 112.7207
1140.00 108.9045
1140.10 104.9986
1140.20 101.0928
1140.30 98.29133
1140.40 96.05876
1140.50 93.82618
1140.60 93.39485
1140.70 95.55557
1140.80 97.71628
1140.90 100.3438
1141.00 105.4224
1141.10 110.501
1141.20 115.5795
1141.30 119.7313
1141.40 123.7914
1141.50 127.8515
1141.60 129.7392
1141.70 130.5079
1141.80 131.2765
1141.90 131.8667
1142.00 132.2002
1142.10 132.5336
1142.20 132.8178
1142.30 132.8439
1142.40 132.8701
1142.50 132.8962
1142.60 133.5425
1142.70 134.2502
1142.80 134.9578
1142.90 135.1236
1143.00 134.9975
1143.10 134.8715
1143.20 134.5242
1143.30 133.8452
1143.40 133.1662
1143.50 132.5319
1143.60 132.1508
1143.70 131.7698
1143.80 131.3887
1143.90 130.9478
1144.00 130.5001
1144.10 130.0525
1144.20 129.7561
1144.30 129.541
1144.40 129.326
1144.50 129.128
1144.60 128.9555
1144.70 128.783
1144.80 128.7418
1144.90 129.444
1145.00 130.1463
1145.10 130.8486
1145.20 130.9673
1145.30 131.0212
1145.40 131.0751
1145.50 131.2692
1145.60 131.5389
1145.70 131.8086
1145.80 132.3026
1145.90 133.1331
1146.00 133.9636
1146.10 134.8209
1146.20 135.8298
1146.30 136.8386
1146.40 137.8474
1146.50 138.648
1146.60 139.4254
1146.70 140.2028
1146.80 140.3415
1146.90 140.1362
1147.00 139.931
1147.10 139.5675
1147.20 138.9667
1147.30 138.3659
1147.40 137.8808
1147.50 138.0513
1147.60 138.2217
1147.70 138.3922
1147.80 139.3804
1147.90 140.4494
1148.00 141.5185
1148.10 141.9868
1148.20 142.1455
1148.30 142.3043
1148.40 142.1994
1148.50 141.7153
1148.60 141.2311
1148.70 140.9057
1148.80 141.4143
1148.90 141.9228
1149.00 142.4313
1149.10 142.6036
1149.20 142.7426
1149.30 142.8816
1149.40 142.3215
1149.50 141.4012
1149.60 140.4809
1149.70 139.8844
1149.80 139.7537
1149.90 139.623
1150.00 139.6371
1150.10 140.4113
1150.20 141.1854
1150.30 141.9596
1150.40 142.8602
1150.50 143.7734
1150.60 144.6865
1150.70 144.8192
1150.80 144.5499
1150.90 144.2806
1151.00 144.0838
1151.10 143.987
1151.20 143.8903
1151.30 143.7105
1151.40 143.1253
1151.50 142.54
1151.60 141.9548
1151.70 141.4453
1151.80 140.9424
1151.90 140.4394
1152.00 139.2957
1152.10 137.8363
1152.20 136.3768
1152.30 135.1199
1152.40 134.1426
1152.50 133.1652
1152.60 132.4086
1152.70 132.7296
1152.80 133.0507
1152.90 133.3717
1153.00 134.4838
1153.10 135.6554
1153.20 136.8271
1153.30 137.2766
1153.40 137.3863
1153.50 137.496
1153.60 137.6434
1153.70 137.8408
1153.80 138.0382
1153.90 138.2679
1154.00 138.6449
1154.10 139.0218
1154.20 139.3988
1154.30 139.6216
1154.40 139.8328
1154.50 140.044
1154.60 140.1462
1154.70 140.1994
1154.80 140.2526
1154.90 140.4053
1155.00 140.6846
1155.10 140.964
1155.20 141.1886
1155.30 141.1803
1155.40 141.172
1155.50 141.1636
1155.60 140.9035
1155.70 140.6272
1155.80 140.351
1155.90 140.6064
1156.00 141.0897
1156.10 141.573
1156.20 141.9913
1156.30 142.3301
1156.40 142.6689
1156.50 142.895
1156.60 142.6705
1156.70 142.446
1156.80 142.2215
1156.90 141.6912
1157.00 141.1481
1157.10 140.605
1157.20 139.8528
1157.30 139.0153
1157.40 138.1777
1157.50 137.5737
1157.60 137.2439
1157.70 136.9141
1157.80 136.8477
1157.90 137.772
1158.00 138.6963
1158.10 139.6207
1158.20 140.4414
1158.30 141.2588
1158.40 142.0763
1158.50 141.5041
1158.60 140.3915
1158.70 139.2789
1158.80 138.0349
1158.90 136.6427
1159.00 135.2506
1159.10 133.8865
1159.20 132.6164
1159.30 131.3464
1159.40 130.0763
1159.50 129.9586
1159.60 129.8643
1159.70 129.7701
1159.80 129.899
1159.90 130.1104
1160.00 130.3218
1160.10 130.8409
1160.20 131.6804
1160.30 132.5198
1160.40 133.2394
1160.50 133.5796
1160.60 133.9197
1160.70 134.2599
1160.80 135.154
1160.90 136.048
1161.00 136.9421
1161.10 137.9945
1161.20 139.0996
1161.30 140.2048
1161.40 140.7774
1161.50 140.8174
1161.60 140.8575
1161.70 140.6916
1161.80 139.9394
1161.90 139.1872
1162.00 138.4421
1162.10 138.4037
1162.20 138.3653
1162.30 138.3269
1162.40 139.0877
1162.50 140.0872
1162.60 141.0867
1162.70 142.1536
1162.80 143.2829
1162.90 144.4122
1163.00 145.1645
1163.10 144.8972
1163.20 144.63
1163.30 144.3253
1163.40 142.8071
1163.50 141.2888
1163.60 139.7706
1163.70 138.5307
1163.80 137.3693
1163.90 136.2079
1164.00 136.0762
1164.10 136.8215
1164.20 137.5667
1164.30 138.4824
1164.40 139.8153
1164.50 141.1481
1164.60 142.3807
1164.70 141.7077
1164.80 141.0347
1164.90 140.3617
1165.00 138.934
1165.10 137.3177
1165.20 135.7014
1165.30 134.6408
1165.40 134.0168
1165.50 133.3929
1165.60 133.334
1165.70 134.5329
1165.80 135.7318
1165.90 136.9134
1166.00 137.8648
1166.10 138.8161
1166.20 139.7674
1166.30 139.6437
1166.40 139.2841
1166.50 138.9244
1166.60 138.2499
1166.70 137.3474
1166.80 136.4449
1166.90 135.6154
1167.00 134.9339
1167.10 134.2525
1167.20 133.6027
1167.30 133.2738
1167.40 132.9449
1167.50 132.616
1167.60 131.9821
1167.70 131.2902
1167.80 130.5983
1167.90 129.6205
1168.00 128.452
1168.10 127.2836
1168.20 125.4592
1168.30 122.4167
1168.40 119.3742
1168.50 116.1404
1168.60 111.3594
1168.70 106.5784
1168.80 101.7973
1168.90 98.42748
1169.00 95.28734
1169.10 92.14721
1169.20 92.01232
1169.30 93.71936
1169.40 95.42641
1169.50 98.2365
1169.60 102.9248
1169.70 107.613
1169.80 112.2279
1169.90 116.352
1170.00 120.4762
1170.10 124.6003
1170.20 127.1407
1170.30 129.4854
1170.40 131.8301
1170.50 133.3228
1170.60 134.3362
1170.70 135.3495
1170.80 135.962
1170.90 135.9731
1171.00 135.9841
1171.10 135.9653
1171.20 135.7768
1171.30 135.5882
1171.40 135.3997
1171.50 135.4349
1171.60 135.4923
1171.70 135.5496
1171.80 135.535
1171.90 135.485
1172.00 135.4349
1172.10 135.4745
1172.20 135.6377
1172.30 135.8009
1172.40 136.0408
1172.50 136.63
1172.60 137.2192
1172.70 137.8085
1172.80 138.1688
1172.90 138.5145
1173.00 138.8602
1173.10 138.7139
1173.20 138.3465
1173.30 137.9792
1173.40 137.4004
1173.50 136.5632
1173.60 135.7261
1173.70 135.0353
1173.80 134.8956
1173.90 134.7558
1174.00 134.616
1174.10 135.2644
1174.20 135.9456
1174.30 136.6268
1174.40 137.2286
1174.50 137.7994
1174.60 138.3703
1174.70 138.2806
1174.80 137.4753
1174.90 136.67
1175.00 135.7091
1175.10 134.2273
1175.20 132.7456
1175.30 131.2638
1175.40 130.6459
1175.50 130.0366
1175.60 129.4274
1175.70 128.9463
1175.80 128.508
1175.90 128.0697
1176.00 127.294
1176.10 126.1809
1176.20 125.0678
1176.30 123.4353
1176.40 120.3245
1176.50 117.2136
1176.60 114.064
1176.70 109.0158
1176.80 103.9675
1176.90 98.91929
1177.00 94.26265
1177.10 89.71645
1177.20 85.17025
1177.30 83.0514
1177.40 83.0851
1177.50 83.11879
1177.60 84.25805
1177.70 88.10401
1177.80 91.94998
1177.90 95.85322
1178.00 100.8447
1178.10 105.8361
1178.20 110.8276
1178.30 114.4168
1178.40 117.6772
1178.50 120.9376
1178.60 123.4431
1178.70 125.3555
1178.80 127.2679
1178.90 128.7512
1179.00 129.3226
1179.10 129.8939
1179.20 130.4239
1179.30 130.4773
1179.40 130.5307
1179.50 130.584
1179.60 130.8422
1179.70 131.1393
1179.80 131.4365
1179.90 132.1101
1180.00 133.0348
1180.10 133.9595
1180.20 134.815
1180.30 135.5423
1180.40 136.2695
1180.50 136.888
1180.60 136.6273
1180.70 136.3666
1180.80 136.1059
1180.90 135.54
1181.00 134.9286
1181.10 134.3171
1181.20 133.8246
1181.30 133.4019
1181.40 132.9792
1181.50 132.7877
1181.60 132.9579
1181.70 133.1282
1181.80 133.3631
1181.90 133.9646
1182.00 134.566
1182.10 135.1675
1182.20 135.4583
1182.30 135.7146
1182.40 135.9709
1182.50 136.0871
1182.60 136.1312
1182.70 136.1752
1182.80 136.1977
1182.90 136.1906
1183.00 136.1834
1183.10 136.0145
1183.20 135.1089
1183.30 134.2033
1183.40 133.2977
1183.50 132.4764
1183.60 131.6606
1183.70 130.8448
1183.80 131.1319
1183.90 131.8917
1184.00 132.6515
1184.10 133.571
1184.20 134.6778
1184.30 135.7846
1184.40 136.4826
1184.50 135.7317
1184.60 134.9807
1184.70 134.2297
1184.80 133.1082
1184.90 131.9753
1185.00 130.8425
1185.10 130.8873
1185.20 131.3678
1185.30 131.8483
1185.40 132.6469
1185.50 133.7766
1185.60 134.9063
1185.70 135.8941
1185.80 136.456
1185.90 137.0179
1186.00 137.5709
1186.10 137.2396
1186.20 136.9082
1186.30 136.5768
1186.40 135.9927
1186.50 135.333
1186.60 134.6733
1186.70 134.1632
1186.80 133.7858
1186.90 133.4083
1187.00 133.2424
1187.10 133.5947
1187.20 133.947
1187.30 134.3039
1187.40 134.7487
1187.50 135.1936
1187.60 135.6384
1187.70 134.9069
1187.80 133.8995
1187.90 132.8921
1188.00 131.3588
1188.10 129.4288
1188.20 127.4988
1188.30 126.0702
1188.40 125.6599
1188.50 125.2495
1188.60 124.9837
1188.70 126.1804
1188.80 127.3772
1188.90 128.5739
1189.00 129.8029
1189.10 131.0375
1189.20 132.2722
1189.30 133.0016
1189.40 133.4079
1189.50 133.8142
1189.60 134.2668
1189.70 134.798
1189.80 135.3292
1189.90 135.7536
1190.00 135.4631
1190.10 135.1725
1190.20 134.882
1190.30 134.4981
1190.40 134.1027
1190.50 133.7073
1190.60 133.5059
1190.70 133.4091
1190.80 133.3122
1190.90 133.5368
1191.00 134.224
1191.10 134.9112
1191.20 135.5671
1191.30 136.0705
1191.40 136.5739
1191.50 137.0772
1191.60 137.2414
1191.70 137.3801
1191.80 137.5188
1191.90 137.2885
1192.00 136.8926
1192.10 136.4966
1192.20 136.33
1192.30 136.4437
1192.40 136.5573
1192.50 136.6943
1192.60 136.9189
1192.70 137.1436
1192.80 137.3682
1192.90 137.5927
1193.00 137.8172
1193.10 138.0417
1193.20 137.2932
1193.30 136.1849
1193.40 135.0765
1193.50 133.8815
1193.60 132.5962
1193.70 131.3109
1193.80 130.1382
1193.90 129.2862
1194.00 128.4341
1194.10 127.5919
1194.20 127.2278
1194.30 126.8638
1194.40 126.4997
1194.50 125.5532
1194.60 124.4425
1194.70 123.3317
1194.80 122.751
1194.90 122.6218
1195.00 122.4926
1195.10 122.7467
1195.20 123.8955
1195.30 125.0442
1195.40 126.161
1195.50 126.7774
1195.60 127.3938
1195.70 128.0102
1195.80 127.3765
1195.90 126.4683
1196.00 125.5602
1196.10 124.7374
1196.20 123.9763
1196.30 123.2153
1196.40 122.7165
1196.50 122.7268
1196.60 122.7371
1196.70 122.6636
1196.80 121.9128
1196.90 121.1621
1197.00 120.4113
1197.10 118.8362
1197.20 117.138
1197.30 115.4398
1197.40 114.1104
1197.50 112.9977
1197.60 111.8849
1197.70 111.4307
1197.80 112.0063
1197.90 112.582
1198.00 113.3533
1198.10 115.233
1198.20 117.1127
1198.30 118.9924
1198.40 120.0544
1198.50 121.0354
1198.60 122.0165
1198.70 121.6685
1198.80 120.6951
1198.90 119.7217
1199.00 118.3403
1199.10 116.4395
1199.20 114.5388
1199.30 112.9927
1199.40 112.8649
1199.50 112.7371
1199.60 112.6094
1199.70 113.0395
1199.80 113.493
1199.90 113.9464
1200.00 114.3451
1200.10 114.7225
1200.20 115.1
1200.30 115.4997
1200.40 115.9226
1200.50 116.3455
1200.60 116.8644
1200.70 117.6712
1200.80 118.478
1200.90 119.2795
1201.00 119.5561
1201.10 119.8327
1201.20 120.1092
1201.30 119.7414
1201.40 119.1812
1201.50 118.621
1201.60 118.1932
1201.70 117.8782
1201.80 117.5632
1201.90 117.4016
1202.00 117.5978
1202.10 117.794
1202.20 117.9967
1202.30 118.2997
1202.40 118.6026
1202.50 118.9056
1202.60 118.4354
1202.70 117.7954
1202.80 117.1555
1202.90 116.9263
1203.00 116.9827
1203.10 117.039
1203.20 117.6066
1203.30 119.1236
1203.40 120.6405
1203.50 122.2104
1203.60 124.2078
1203.70 126.2053
1203.80 128.2027
1203.90 128.8419
1204.00 129.278
1204.10 129.7142
1204.20 129.2025
1204.30 128.1577
1204.40 127.1128
1204.50 126.2864
1204.60 125.7877
1204.70 125.2889
1204.80 125.0072
1204.90 125.8652
1205.00 126.7232
1205.10 127.5812
1205.20 128.8206
1205.30 130.0887
1205.40 131.3569
1205.50 132.2854
1205.60 133.0614
1205.70 133.8374
1205.80 134.2858
1205.90 134.3338
1206.00 134.3818
1206.10 134.2056
1206.20 133.2341
1206.30 132.2627
1206.40 131.2913
1206.50 130.2249
1206.60 129.1566
1206.70 128.0884
1206.80 128.2013
1206.90 128.7293
1207.00 129.2574
1207.10 130.3117
1207.20 131.8717
1207.30 133.4317
1207.40 134.8787
1207.50 136.0204
1207.60 137.1621
1207.70 138.275
1207.80 138.4576
1207.90 138.6402
1208.00 138.8228
1208.10 138.3341
1208.20 137.6777
1208.30 137.0212
1208.40 135.5661
1208.50 133.4835
1208.60 131.4008
1208.70 129.4424
1208.80 127.748
1208.90 126.0535
1209.00 124.5924
1209.10 125.4901
1209.20 126.3878
1209.30 127.2855
1209.40 129.5939
1209.50 132.1513
1209.60 134.7087
1209.70 135.8818
1209.80 136.2064
1209.90 136.5311
1210.00 135.7492
1210.10 133.162
1210.20 130.5748
1210.30 127.9392
1210.40 125.0072
1210.50 122.0751
1210.60 119.1431
1210.70 118.1733
1210.80 117.3975
1210.90 116.6217
1211.00 117.059
1211.10 118.0937
1211.20 119.1284
1211.30 120.2323
1211.40 121.428
1211.50 122.6237
1211.60 123.8217
1211.70 125.029
1211.80 126.2363
1211.90 127.4435
1212.00 129.0882
1212.10 130.751
1212.20 132.4139
1212.30 133.0537
1212.40 133.3152
1212.50 133.5767
1212.60 132.7783
1212.70 130.8768
1212.80 128.9753
1212.90 127.197
1213.00 125.7693
1213.10 124.3417
1213.20 122.9767
1213.30 124.6778
1213.40 126.3788
1213.50 128.0799
1213.60 130.6007
1213.70 133.3395
1213.80 136.0783
1213.90 137.8114
1214.00 138.7217
1214.10 139.632
1214.20 140.0616
1214.30 139.4695
1214.40 138.8774
1214.50 138.3279
1214.60 138.2678
1214.70 138.2078
1214.80 138.1477
1214.90 138.4053
1215.00 138.7189
1215.10 139.0326
1215.20 138.7618
1215.30 138.1173
1215.40 137.4728
1215.50 136.6365
1215.60 135.4871
1215.70 134.3377
1215.80 133.3141
1215.90 133.0633
1216.00 132.8125
1216.10 132.5617
1216.20 133.063
1216.30 133.6478
1216.40 134.2327
1216.50 135.052
1216.60 135.9868
1216.70 136.9217
1216.80 137.5986
1216.90 137.9472
1217.00 138.2959
1217.10 138.5102
1217.20 138.1876
1217.30 137.8649
1217.40 137.5422
1217.50 137.7514
1217.60 137.977
1217.70 138.2026
1217.80 138.8868
1217.90 139.7405
1218.00 140.5943
1218.10 141.4374
1218.20 142.2699
1218.30 143.1023
1218.40 143.5053
1218.50 142.6861
1218.60 141.8669
1218.70 141.0561
1218.80 140.5184
1218.90 139.9806
1219.00 139.4429
1219.10 139.112
1219.20 138.836
1219.30 138.56
1219.40 138.419
1219.50 138.384
1219.60 138.349
1219.70 138.239
1219.80 137.9696
1219.90 137.7003
1220.00 137.4735
1220.10 137.678
1220.20 137.8824
1220.30 138.0869
1220.40 138.1771
1220.50 138.2488
1220.60 138.3204
1220.70 137.7309
1220.80 136.7361
1220.90 135.7414
1221.00 134.7303
1221.10 133.6939
1221.20 132.6574
1221.30 131.7146
1221.40 131.3026
1221.50 130.8906
1221.60 130.4786
1221.70 130.5896
1221.80 130.746
1221.90 130.9024
1222.00 130.9005
1222.10 130.8274
1222.20 130.7544
1222.30 130.8441
1222.40 131.1327
1222.50 131.4214
1222.60 132.061
1222.70 133.9447
1222.80 135.8283
1222.90 137.712
1223.00 139.9993
1223.10 142.2948
1223.20 144.5903
1223.30 145.8204
1223.40 146.6952
1223.50 147.5701
1223.60 147.5933
1223.70 146.8305
1223.80 146.0676
1223.90 145.2845
1224.00 144.4493
1224.10 143.6142
1224.20 142.8195
1224.30 142.7935
1224.40 142.7674
1224.50 142.7414
1224.60 143.2987
1224.70 143.9841
1224.80 144.6695
1224.90 145.2195
1225.00 145.6715
1225.10 146.1234
1225.20 146.0783
1225.30 145.1099
1225.40 144.1415
1225.50 143.1681
1225.60 142.1573
1225.70 141.1466
1225.80 140.1359
1225.90 140.4542
1226.00 140.9537
1226.10 141.4533
1226.20 142.6051
1226.30 144.1082
1226.40 145.6114
1226.50 146.6164
1226.60 146.9337
1226.70 147.251
1226.80 147.3061
1226.90 146.167
1227.00 145.0278
1227.10 143.8887
1227.20 143.4274
1227.30 143.0019
1227.40 142.5763
1227.50 143.0806
1227.60 143.9465
1227.70 144.8124
1227.80 145.5853
1227.90 146.2576
1228.00 146.9299
1228.10 147.3885
1228.20 147.2058
1228.30 147.0231
1228.40 146.824
1228.50 145.8208
1228.60 144.8177
1228.70 143.8145
1228.80 142.9572
1228.90 142.1386
1229.00 141.32
1229.10 140.2348
1229.20 138.9314
1229.30 137.628
1229.40 136.6061
1229.50 136.1827
1229.60 135.7592
1229.70 135.4517
1229.80 136.3171
1229.90 137.1824
1230.00 138.0478
1230.10 139.7749
1230.20 141.6541
1230.30 143.5334
1230.40 144.6638
1230.50 145.3353
1230.60 146.0069
1230.70 146.0965
1230.80 145.2759
1230.90 144.4554
1231.00 143.6574
1231.10 142.9778
1231.20 142.2982
1231.30 141.6186
1231.40 141.388
1231.50 141.1963
1231.60 141.0047
1231.70 140.8757
1231.80 140.7749
1231.90 140.6741
1232.00 140.5233
1232.10 140.3138
1232.20 140.1043
1232.30 139.9276
1232.40 139.8609
1232.50 139.7942
1232.60 139.7276
1232.70 139.0586
1232.80 138.3895
1232.90 137.7205
1233.00 137.1671
1233.10 136.6501
1233.20 136.1331
1233.30 136.188
1233.40 136.75
1233.50 137.312
1233.60 137.9606
1233.70 138.8109
1233.80 139.6613
1233.90 140.4078
1234.00 139.774
1234.10 139.1402
1234.20 138.5064
1234.30 137.8669
1234.40 137.2263
1234.50 136.5857
1234.60 136.6851
1234.70 137.2778
1234.80 137.8705
1234.90 138.6398
1235.00 139.7098
1235.10 140.7799
1235.20 141.632
1235.30 141.1454
1235.40 140.6588
1235.50 140.1722
1235.60 139.2885
1235.70 138.3656
1235.80 137.4427
1235.90 137.1066
1236.00 137.0467
1236.10 136.9867
1236.20 137.6493
1236.30 139.2317
1236.40 140.8141
1236.50 142.2275
1236.60 143.0054
1236.70 143.7832
1236.80 144.561
1236.90 143.5858
1237.00 142.5748
1237.10 141.5639
1237.20 140.1261
1237.30 138.5462
1237.40 136.9662
1237.50 136.35
1237.60 136.6235
1237.70 136.8969
1237.80 137.4673
1237.90 138.7645
1238.00 140.0618
1238.10 141.2639
1238.20 140.9764
1238.30 140.689
1238.40 140.4015
1238.50 138.1612
1238.60 135.4922
1238.70 132.8232
1238.80 130.2427
1238.90 127.7236
1239.00 125.2046
1239.10 123.5053
1239.20 123.2636
1239.30 123.0218
1239.40 122.9775
1239.50 124.2546
1239.60 125.5318
1239.70 126.8089
1239.80 127.6083
1239.90 128.3545
1240.00 129.1008
1240.10 128.6931
1240.20 127.717
1240.30 126.7409
1240.40 125.9758
1240.50 125.4794
1240.60 124.9829
1240.70 124.8469
1240.80 126.0669
1240.90 127.2868
1241.00 128.5068
1241.10 129.5179
1241.20 130.5226
1241.30 131.5273
1241.40 130.9103
1241.50 129.7236
1241.60 128.5369
1241.70 127.184
1241.80 125.6717
1241.90 124.1593
1242.00 122.9773
1242.10 122.6452
1242.20 122.313
1242.30 121.9531
1242.40 121.0669
1242.50 120.1806
1242.60 119.2944
1242.70 116.5907
1242.80 113.4881
1242.90 110.3855
1243.00 107.4057
1243.10 104.5113
1243.20 101.6169
1243.30 99.99001
1243.40 100.6165
1243.50 101.243
1243.60 102.2308
1243.70 105.637
1243.80 109.0432
1243.90 112.4494
1244.00 115.5617
1244.10 118.6414
1244.20 121.721
1244.30 123.9401
1244.40 125.7353
1244.50 127.5305
1244.60 129.2272
1244.70 130.7984
1244.80 132.3697
1244.90 133.8188
1245.00 134.8086
1245.10 135.7984
1245.20 136.7882
1245.30 136.8594
1245.40 136.9118
1245.50 136.9642
1245.60 136.3126
1245.70 135.4262
1245.80 134.5399
1245.90 133.8262
1246.00 133.2719
1246.10 132.7176
1246.20 132.5251
1246.30 133.2183
1246.40 133.9114
1246.50 134.6398
1246.60 135.9206
1246.70 137.2014
1246.80 138.4822
1246.90 139.126
1247.00 139.6393
1247.10 140.1527
1247.20 140.0402
1247.30 139.5105
1247.40 138.9809
1247.50 138.393
1247.60 137.7061
1247.70 137.0193
1247.80 136.3443
1247.90 135.7426
1248.00 135.1408
1248.10 134.5391
1248.20 134.4669
1248.30 134.4472
1248.40 134.4274
1248.50 134.7105
1248.60 135.1362
1248.70 135.5619
1248.80 135.8747
1248.90 136.0496
1249.00 136.2244
1249.10 136.286
1249.20 135.9457
1249.30 135.6055
1249.40 135.2653
1249.50 134.8351
1249.60 134.404
1249.70 133.9729
1249.80 134.1208
1249.90 134.4516
1250.00 134.7823
1250.10 134.8763
1250.20 134.7602
1250.30 134.6442
1250.40 134.3981
1250.50 133.8483
1250.60 133.2985
1250.70 132.7147
1250.80 131.6786
1250.90 130.6424
1251.00 129.6063
1251.10 128.6093
1251.20 127.6199
1251.30 126.6304
1251.40 124.8482
1251.50 122.5592
1251.60 120.2702
1251.70 117.2413
1251.80 113.0053
1251.90 108.7693
1252.00 104.6587
1252.10 101.259
1252.20 97.85935
1252.30 94.45967
1252.40 95.47073
1252.50 96.86534
1252.60 98.25994
1252.70 102.2558
1252.80 107.4203
1252.90 112.5849
1253.00 117.3395
1253.10 121.6128
1253.20 125.8862
1253.30 129.5667
1253.40 131.2627
1253.50 132.9587
1253.60 134.6546
1253.70 135.5928
1253.80 136.5309
1253.90 137.4691
1254.00 137.7557
1254.10 137.8584
1254.20 137.9612
1254.30 137.9356
1254.40 137.805
1254.50 137.6745
1254.60 137.526
1254.70 137.3397
1254.80 137.1533
1254.90 137.0891
1255.00 138.2597
1255.10 139.4303
1255.20 140.601
1255.30 141.7463
1255.40 142.8876
1255.50 144.0288
1255.60 144.9323
1255.70 145.6963
1255.80 146.4602
1255.90 146.5632
1256.00 145.6749
1256.10 144.7865
1256.20 143.9163
1256.30 143.1344
1256.40 142.3525
1256.50 141.5705
1256.60 141.5459
1256.70 141.5697
1256.80 141.5934
1256.90 141.8776
1257.00 142.2682
1257.10 142.6587
1257.20 142.8584
1257.30 142.8594
1257.40 142.8604
1257.50 143.0154
1257.60 143.6089
1257.70 144.2024
1257.80 144.8104
1257.90 145.8872
1258.00 146.9641
1258.10 148.041
1258.20 148.2749
1258.30 148.2979
1258.40 148.321
1258.50 147.3995
1258.60 145.7655
1258.70 144.1314
1258.80 142.4943
1258.90 140.8514
1259.00 139.2084
1259.10 137.7024
1259.20 137.3047
1259.30 136.9071
1259.40 136.5094
1259.50 137.36
1259.60 138.3649
1259.70 139.3699
1259.80 140.2749
1259.90 141.1286
1260.00 141.9823
1260.10 142.7628
1260.20 143.4462
1260.30 144.1297
1260.40 144.8569
1260.50 145.759
1260.60 146.6611
1260.70 147.5633
1260.80 148.9201
1260.90 150.2909
1261.00 151.6618
1261.10 151.8452
1261.20 151.6113
1261.30 151.3774
1261.40 150.5543
1261.50 149.1871
1261.60 147.82
1261.70 146.529
1261.80 145.4244
1261.90 144.3198
1262.00 143.3099
1262.10 143.7826
1262.20 144.2553
1262.30 144.728
1262.40 145.3512
1262.50 146.0051
1262.60 146.6591
1262.70 146.9071
1262.80 146.8844
1262.90 146.8617
1263.00 146.6816
1263.10 146.2449
1263.20 145.8082
1263.30 145.3432
1263.40 144.7182
1263.50 144.0931
1263.60 143.4681
1263.70 142.7095
1263.80 141.9393
1263.90 141.1691
1264.00 140.355
1264.10 139.5213
1264.20 138.6875
1264.30 138.3544
1264.40 138.5856
1264.50 138.8169
1264.60 139.2748
1264.70 140.4504
1264.80 141.626
1264.90 142.7979
1265.00 143.6067
1265.10 144.4156
1265.20 145.2245
1265.30 145.4648
1265.40 145.5449
1265.50 145.6249
1265.60 145.5507
1265.70 145.3504
1265.80 145.1501
1265.90 145.069
1266.00 145.2301
1266.10 145.3912
1266.20 145.529
1266.30 145.4579
1266.40 145.3868
1266.50 145.3157
1266.60 145.7922
1266.70 146.3504
1266.80 146.9087
1266.90 147.5846
1267.00 148.3266
1267.10 149.0687
1267.20 149.7841
1267.30 150.4627
1267.40 151.1412
1267.50 151.7646
1267.60 152.1525
1267.70 152.5404
1267.80 152.9284
1267.90 152.7498
1268.00 152.5477
1268.10 152.3456
1268.20 151.8277
1268.30 151.1931
1268.40 150.5585
1268.50 149.9208
1268.60 149.2802
1268.70 148.6396
1268.80 148.1782
1268.90 148.1779
1269.00 148.1776
1269.10 148.1732
1269.20 148.092
1269.30 148.0109
1269.40 147.9298
1269.50 147.4399
1269.60 146.8603
1269.70 146.2807
1269.80 145.7013
1269.90 145.1221
1270.00 144.5429
1270.10 144.0351
1270.20 143.6489
1270.30 143.2627
1270.40 143.0793
1270.50 144.1414
1270.60 145.2035
1270.70 146.2656
1270.80 147.582
1270.90 148.9205
1271.00 150.259
1271.10 151.3058
1271.20 152.2215
1271.30 153.1372
1271.40 153.3892
1271.50 152.862
1271.60 152.3348
1271.70 151.8568
1271.80 151.5349
1271.90 151.213
1272.00 150.8938
1272.10 150.8406
1272.20 150.7874
1272.30 150.7342
1272.40 150.5282
1272.50 150.2791
1272.60 150.0301
1272.70 149.517
1272.80 148.7879
1272.90 148.0588
1273.00 147.4841
1273.10 147.2227
1273.20 146.9613
1273.30 146.6833
1273.40 146.2562
1273.50 145.8291
1273.60 145.402
1273.70 144.4322
1273.80 143.3884
1273.90 142.3446
1274.00 141.9047
1274.10 141.7899
1274.20 141.6751
1274.30 142.3321
1274.40 144.0551
1274.50 145.778
1274.60 147.3803
1274.70 148.4999
1274.80 149.6195
1274.90 150.7391
1275.00 150.2467
1275.10 149.7045
1275.20 149.1622
1275.30 149.0429
1275.40 149.0721
1275.50 149.1014
1275.60 149.8224
1275.70 151.182
1275.80 152.5416
1275.90 153.5841
1276.00 153.8503
1276.10 154.1164
1276.20 154.3066
1276.30 153.3058
1276.40 152.3051
1276.50 151.3044
1276.60 150.6333
1276.70 150.0251
1276.80 149.4168
1276.90 149.7394
1277.00 150.6572
1277.10 151.5751
1277.20 152.2657
1277.30 152.5856
1277.40 152.9055
1277.50 153.1037
1277.60 152.6628
1277.70 152.2219
1277.80 151.781
1277.90 150.2164
1278.00 148.5674
1278.10 146.9183
1278.20 146.1624
1278.30 145.7714
1278.40 145.3804
1278.50 145.3524
1278.60 145.7178
1278.70 146.0833
1278.80 146.7248
1278.90 148.1948
1279.00 149.6649
1279.10 151.1168
1279.20 151.985
1279.30 152.8531
1279.40 153.7212
1279.50 153.9507
1279.60 154.0204
1279.70 154.0902
1279.80 153.6155
1279.90 152.7301
1280.00 151.8446
1280.10 150.966
1280.20 150.1001
1280.30 149.2341
1280.40 148.4204
1280.50 147.9892
1280.60 147.558
1280.70 147.1268
1280.80 147.1281
1280.90 147.1776
1281.00 147.2271
1281.10 147.4176
1281.20 147.6777
1281.30 147.9378
1281.40 148.2066
1281.50 148.4866
1281.60 148.7665
1281.70 149.013
1281.80 149.1406
1281.90 149.2682
1282.00 149.3958
1282.10 149.9345
1282.20 150.4773
1282.30 151.0201
1282.40 151.3765
1282.50 151.6771
1282.60 151.9777
1282.70 151.9274
1282.80 151.5782
1282.90 151.2291
1283.00 150.9083
1283.10 150.6478
1283.20 150.3872
1283.30 150.1299
1283.40 149.9049
1283.50 149.6799
1283.60 149.455
1283.70 149.2165
1283.80 148.9759
1283.90 148.7353
1284.00 148.4047
1284.10 148.0237
1284.20 147.6426
1284.30 147.6077
1284.40 148.071
1284.50 148.5344
1284.60 149.0296
1284.70 149.6611
1284.80 150.2925
1284.90 150.924
1285.00 150.8091
1285.10 150.6632
1285.20 150.5172
1285.30 149.4382
1285.40 148.0313
1285.50 146.6245
1285.60 145.2125
1285.70 143.7956
1285.80 142.3788
1285.90 141.285
1286.00 140.9825
1286.10 140.6799
1286.20 140.4569
1286.30 141.4809
1286.40 142.5049
1286.50 143.5289
1286.60 145.1778
1286.70 146.9547
1286.80 148.7315
1286.90 150.0156
1287.00 150.9847
1287.10 151.9537
1287.20 152.2563
1287.30 151.4717
1287.40 150.687
1287.50 149.7312
1287.60 147.8774
1287.70 146.0236
1287.80 144.1697
1287.90 143.2045
1288.00 142.3062
1288.10 141.4079
1288.20 141.3777
1288.30 141.7021
1288.40 142.0264
1288.50 142.8007
1288.60 144.0624
1288.70 145.3241
1288.80 146.4713
1288.90 147.2921
1289.00 148.113
1289.10 148.9209
1289.20 149.3072
1289.30 149.6936
1289.40 150.08
1289.50 149.5906
1289.60 148.8959
1289.70 148.2012
1289.80 147.5927
1289.90 147.0465
1290.00 146.5004
1290.10 146.2139
1290.20 146.3891
1290.30 146.5643
1290.40 146.7364
1290.50 146.8879
1290.60 147.0394
1290.70 147.1909
1290.80 147.2643
1290.90 147.33
1291.00 147.3957
1291.10 147.1583
1291.20 146.7784
1291.30 146.3984
1291.40 146.2844
1291.50 146.4826
1291.60 146.6807
1291.70 146.9899
1291.80 147.6709
1291.90 148.3518
1292.00 149.0306
1292.10 149.4987
1292.20 149.9669
1292.30 150.4351
1292.40 149.9514
1292.50 149.1993
1292.60 148.4472
1292.70 147.387
1292.80 146.0847
1292.90 144.7823
1293.00 144.0035
1293.10 144.2876
1293.20 144.5716
1293.30 144.8946
1293.40 145.5324
1293.50 146.1703
1293.60 146.8081
1293.70 147.4252
1293.80 148.0395
1293.90 148.6537
1294.00 148.7795
1294.10 148.6536
1294.20 148.5277
1294.30 148.6003
1294.40 148.9256
1294.50 149.251
1294.60 149.6212
1294.70 150.1606
1294.80 150.7
1294.90 151.2394
1295.00 150.6198
1295.10 149.9885
1295.20 149.3571
1295.30 148.0078
1295.40 146.4318
1295.50 144.8558
1295.60 143.7003
1295.70 142.9029
1295.80 142.1055
1295.90 141.7573
1296.00 142.4086
1296.10 143.06
1296.20 143.6908
1296.30 144.1143
1296.40 144.5378
1296.50 144.9612
1296.60 145.1852
1296.70 145.3766
1296.80 145.5681
1296.90 145.7289
1297.00 145.8726
1297.10 146.0162
1297.20 146.2033
1297.30 146.4503
1297.40 146.6974
1297.50 146.8768
1297.60 146.768
1297.70 146.6591
1297.80 146.5503
1297.90 146.9223
1298.00 147.3093
1298.10 147.6962
1298.20 148.6024
1298.30 149.691
1298.40 150.7797
1298.50 151.666
1298.60 152.3656
1298.70 153.0651
1298.80 153.4282
1298.90 152.9674
1299.00 152.5067
1299.10 152.004
1299.20 150.9452
1299.30 149.8863
1299.40 148.8274
1299.50 147.8913
1299.60 146.9768
1299.70 146.0623
1299.80 145.4576
1299.90 145.0428
