# Version 2.1 - nm, norm@500 to 1, cut digits
# Wavelength(nm)  Flambda(ergs/cm^s/s/nm)
300.00 1.128111e-95
300.10 1.128111e-95
300.20 1.128111e-95
300.30 1.128111e-95
300.40 1.128111e-95
300.50 1.128111e-95
300.60 1.128111e-95
300.70 1.128111e-95
300.80 1.128111e-95
300.90 1.128111e-95
301.00 1.128111e-95
301.10 1.128111e-95
301.20 1.128111e-95
301.30 1.128111e-95
301.40 1.128111e-95
301.50 1.128111e-95
301.60 1.128111e-95
301.70 1.128111e-95
301.80 1.128111e-95
301.90 1.128111e-95
302.00 1.128111e-95
302.10 1.128111e-95
302.20 1.128111e-95
302.30 1.128111e-95
302.40 1.128111e-95
302.50 1.128111e-95
302.60 1.128111e-95
302.70 1.128111e-95
302.80 1.128111e-95
302.90 1.128111e-95
303.00 1.128111e-95
303.10 1.128111e-95
303.20 1.128111e-95
303.30 1.128111e-95
303.40 1.128111e-95
303.50 1.128111e-95
303.60 1.128111e-95
303.70 1.128111e-95
303.80 1.128111e-95
303.90 1.128111e-95
304.00 1.128111e-95
304.10 1.128111e-95
304.20 1.128111e-95
304.30 1.128111e-95
304.40 1.128111e-95
304.50 1.128111e-95
304.60 1.128111e-95
304.70 1.128111e-95
304.80 1.128111e-95
304.90 1.128111e-95
305.00 1.128111e-95
305.10 1.128111e-95
305.20 1.128111e-95
305.30 1.128111e-95
305.40 1.128111e-95
305.50 1.128111e-95
305.60 1.128111e-95
305.70 1.128111e-95
305.80 1.128111e-95
305.90 1.128111e-95
306.00 1.128111e-95
306.10 1.128111e-95
306.20 1.128111e-95
306.30 1.128111e-95
306.40 1.128111e-95
306.50 1.128111e-95
306.60 1.128111e-95
306.70 1.128111e-95
306.80 1.128111e-95
306.90 1.128111e-95
307.00 1.128111e-95
307.10 1.128111e-95
307.20 1.128111e-95
307.30 1.128111e-95
307.40 1.128111e-95
307.50 1.128111e-95
307.60 1.128111e-95
307.70 1.128111e-95
307.80 1.128111e-95
307.90 1.128111e-95
308.00 1.128111e-95
308.10 1.128111e-95
308.20 1.128111e-95
308.30 1.128111e-95
308.40 1.128111e-95
308.50 1.128111e-95
308.60 1.128111e-95
308.70 1.128111e-95
308.80 1.128111e-95
308.90 1.128111e-95
309.00 1.128111e-95
309.10 1.128111e-95
309.20 1.128111e-95
309.30 1.128111e-95
309.40 1.128111e-95
309.50 1.128111e-95
309.60 1.128111e-95
309.70 1.128111e-95
309.80 1.128111e-95
309.90 1.128111e-95
310.00 1.128111e-95
310.10 1.128111e-95
310.20 1.128111e-95
310.30 1.128111e-95
310.40 1.128111e-95
310.50 1.128111e-95
310.60 1.128111e-95
310.70 1.128111e-95
310.80 1.128111e-95
310.90 1.128111e-95
311.00 1.128111e-95
311.10 1.128111e-95
311.20 1.128111e-95
311.30 1.128111e-95
311.40 1.128111e-95
311.50 1.128111e-95
311.60 1.128111e-95
311.70 1.128111e-95
311.80 1.128111e-95
311.90 1.128111e-95
312.00 1.128111e-95
312.10 1.128111e-95
312.20 1.128111e-95
312.30 1.128111e-95
312.40 1.128111e-95
312.50 1.128111e-95
312.60 1.128111e-95
312.70 1.128111e-95
312.80 1.128111e-95
312.90 1.128111e-95
313.00 1.128111e-95
313.10 1.128111e-95
313.20 1.128111e-95
313.30 1.128111e-95
313.40 1.128111e-95
313.50 1.128111e-95
313.60 1.128111e-95
313.70 1.128111e-95
313.80 1.128111e-95
313.90 1.128111e-95
314.00 1.128111e-95
314.10 1.128111e-95
314.20 1.128111e-95
314.30 1.128111e-95
314.40 1.128111e-95
314.50 1.128111e-95
314.60 1.128111e-95
314.70 1.128111e-95
314.80 1.128111e-95
314.90 1.128111e-95
315.00 1.128111e-95
315.10 1.128111e-95
315.20 1.128111e-95
315.30 1.128111e-95
315.40 1.128111e-95
315.50 1.128111e-95
315.60 1.128111e-95
315.70 1.128111e-95
315.80 1.128111e-95
315.90 1.128111e-95
316.00 1.128111e-95
316.10 1.128111e-95
316.20 1.128111e-95
316.30 1.128111e-95
316.40 1.128111e-95
316.50 1.128111e-95
316.60 1.128111e-95
316.70 1.128111e-95
316.80 1.128111e-95
316.90 1.128111e-95
317.00 1.128111e-95
317.10 1.128111e-95
317.20 1.128111e-95
317.30 1.128111e-95
317.40 1.128111e-95
317.50 1.128111e-95
317.60 1.128111e-95
317.70 1.128111e-95
317.80 1.128111e-95
317.90 1.128111e-95
318.00 1.128111e-95
318.10 1.128111e-95
318.20 1.128111e-95
318.30 1.128111e-95
318.40 1.128111e-95
318.50 1.128111e-95
318.60 1.128111e-95
318.70 1.128111e-95
318.80 1.128111e-95
318.90 1.128111e-95
319.00 1.128111e-95
319.10 1.128111e-95
319.20 1.128111e-95
319.30 1.128111e-95
319.40 1.128111e-95
319.50 1.128111e-95
319.60 1.128111e-95
319.70 1.128111e-95
319.80 1.128111e-95
319.90 1.128111e-95
320.00 1.128111e-95
320.10 1.128111e-95
320.20 1.128111e-95
320.30 1.128111e-95
320.40 1.128111e-95
320.50 1.128111e-95
320.60 1.128111e-95
320.70 1.128111e-95
320.80 1.128111e-95
320.90 1.128111e-95
321.00 1.128111e-95
321.10 1.128111e-95
321.20 1.128111e-95
321.30 1.128111e-95
321.40 1.128111e-95
321.50 1.128111e-95
321.60 1.128111e-95
321.70 1.128111e-95
321.80 1.128111e-95
321.90 1.128111e-95
322.00 1.128111e-95
322.10 1.128111e-95
322.20 1.128111e-95
322.30 1.128111e-95
322.40 1.128111e-95
322.50 1.128111e-95
322.60 1.128111e-95
322.70 1.128111e-95
322.80 1.128111e-95
322.90 1.128111e-95
323.00 1.128111e-95
323.10 1.128111e-95
323.20 1.128111e-95
323.30 1.128111e-95
323.40 1.128111e-95
323.50 1.128111e-95
323.60 1.128111e-95
323.70 1.128111e-95
323.80 1.128111e-95
323.90 1.128111e-95
324.00 1.128111e-95
324.10 1.128111e-95
324.20 1.128111e-95
324.30 1.128111e-95
324.40 1.128111e-95
324.50 1.128111e-95
324.60 1.128111e-95
324.70 1.128111e-95
324.80 1.128111e-95
324.90 1.128111e-95
325.00 1.128111e-95
325.10 1.128111e-95
325.20 1.128111e-95
325.30 1.128111e-95
325.40 1.128111e-95
325.50 1.128111e-95
325.60 1.128111e-95
325.70 1.128111e-95
325.80 1.128111e-95
325.90 1.128111e-95
326.00 1.128111e-95
326.10 1.128111e-95
326.20 1.128111e-95
326.30 1.128111e-95
326.40 1.128111e-95
326.50 1.128111e-95
326.60 1.128111e-95
326.70 1.128111e-95
326.80 1.128111e-95
326.90 1.128111e-95
327.00 1.128111e-95
327.10 1.128111e-95
327.20 1.128111e-95
327.30 1.128111e-95
327.40 1.128111e-95
327.50 1.128111e-95
327.60 1.128111e-95
327.70 1.128111e-95
327.80 1.128111e-95
327.90 1.128111e-95
328.00 1.128111e-95
328.10 1.128111e-95
328.20 1.128111e-95
328.30 1.128111e-95
328.40 1.128111e-95
328.50 1.128111e-95
328.60 1.128111e-95
328.70 1.128111e-95
328.80 1.128111e-95
328.90 1.128111e-95
329.00 1.128111e-95
329.10 1.128111e-95
329.20 1.128111e-95
329.30 1.128111e-95
329.40 1.128111e-95
329.50 1.128111e-95
329.60 1.128111e-95
329.70 1.128111e-95
329.80 1.128111e-95
329.90 1.128111e-95
330.00 1.128111e-95
330.10 1.128111e-95
330.20 1.128111e-95
330.30 1.128111e-95
330.40 1.128111e-95
330.50 1.128111e-95
330.60 1.128111e-95
330.70 1.128111e-95
330.80 1.128111e-95
330.90 1.128111e-95
331.00 1.128111e-95
331.10 1.128111e-95
331.20 1.128111e-95
331.30 1.128111e-95
331.40 1.128111e-95
331.50 1.128111e-95
331.60 1.128111e-95
331.70 1.128111e-95
331.80 1.128111e-95
331.90 1.128111e-95
332.00 1.128111e-95
332.10 1.128111e-95
332.20 1.128111e-95
332.30 1.128111e-95
332.40 1.128111e-95
332.50 1.128111e-95
332.60 1.128111e-95
332.70 1.128111e-95
332.80 1.128111e-95
332.90 1.128111e-95
333.00 1.128111e-95
333.10 1.128111e-95
333.20 1.128111e-95
333.30 1.128111e-95
333.40 1.128111e-95
333.50 1.128111e-95
333.60 1.128111e-95
333.70 1.128111e-95
333.80 1.128111e-95
333.90 1.128111e-95
334.00 1.128111e-95
334.10 1.128111e-95
334.20 1.128111e-95
334.30 1.128111e-95
334.40 1.128111e-95
334.50 1.128111e-95
334.60 1.128111e-95
334.70 1.128111e-95
334.80 1.128111e-95
334.90 1.128111e-95
335.00 1.128111e-95
335.10 1.128111e-95
335.20 1.128111e-95
335.30 1.128111e-95
335.40 1.128111e-95
335.50 1.128111e-95
335.60 1.128111e-95
335.70 1.128111e-95
335.80 1.128111e-95
335.90 1.128111e-95
336.00 1.128111e-95
336.10 1.128111e-95
336.20 1.128111e-95
336.30 1.128111e-95
336.40 1.128111e-95
336.50 1.128111e-95
336.60 1.128111e-95
336.70 1.128111e-95
336.80 1.128111e-95
336.90 1.128111e-95
337.00 1.128111e-95
337.10 1.128111e-95
337.20 1.128111e-95
337.30 1.128111e-95
337.40 1.128111e-95
337.50 1.128111e-95
337.60 1.128111e-95
337.70 1.128111e-95
337.80 1.128111e-95
337.90 1.128111e-95
338.00 1.128111e-95
338.10 1.128111e-95
338.20 1.128111e-95
338.30 1.128111e-95
338.40 1.128111e-95
338.50 1.128111e-95
338.60 1.128111e-95
338.70 1.128111e-95
338.80 1.128111e-95
338.90 1.128111e-95
339.00 1.128111e-95
339.10 1.128111e-95
339.20 1.128111e-95
339.30 1.128111e-95
339.40 1.128111e-95
339.50 1.128111e-95
339.60 1.128111e-95
339.70 1.128111e-95
339.80 1.128111e-95
339.90 1.128111e-95
340.00 1.128111e-95
340.10 1.128111e-95
340.20 1.128111e-95
340.30 1.128111e-95
340.40 1.128111e-95
340.50 1.128111e-95
340.60 1.128111e-95
340.70 1.128111e-95
340.80 1.128111e-95
340.90 1.128111e-95
341.00 1.128111e-95
341.10 1.128111e-95
341.20 1.128111e-95
341.30 1.128111e-95
341.40 1.128111e-95
341.50 1.128111e-95
341.60 1.128111e-95
341.70 1.128111e-95
341.80 1.128111e-95
341.90 1.128111e-95
342.00 1.128111e-95
342.10 1.128111e-95
342.20 1.128111e-95
342.30 1.128111e-95
342.40 1.128111e-95
342.50 1.128111e-95
342.60 1.128111e-95
342.70 1.128111e-95
342.80 1.128111e-95
342.90 1.128111e-95
343.00 1.128111e-95
343.10 1.128111e-95
343.20 1.128111e-95
343.30 1.128111e-95
343.40 1.128111e-95
343.50 1.128111e-95
343.60 1.128111e-95
343.70 1.128111e-95
343.80 1.128111e-95
343.90 1.128111e-95
344.00 1.128111e-95
344.10 1.128111e-95
344.20 1.128111e-95
344.30 1.128111e-95
344.40 1.128111e-95
344.50 1.128111e-95
344.60 1.128111e-95
344.70 1.128111e-95
344.80 1.128111e-95
344.90 1.128111e-95
345.00 1.128111e-95
345.10 1.128111e-95
345.20 1.128111e-95
345.30 1.128111e-95
345.40 1.128111e-95
345.50 1.128111e-95
345.60 1.128111e-95
345.70 1.128111e-95
345.80 1.128111e-95
345.90 1.128111e-95
346.00 1.128111e-95
346.10 1.128111e-95
346.20 1.128111e-95
346.30 1.128111e-95
346.40 1.128111e-95
346.50 1.128111e-95
346.60 1.128111e-95
346.70 1.128111e-95
346.80 1.128111e-95
346.90 1.128111e-95
347.00 1.128111e-95
347.10 1.128111e-95
347.20 1.128111e-95
347.30 1.128111e-95
347.40 1.128111e-95
347.50 1.128111e-95
347.60 1.128111e-95
347.70 1.128111e-95
347.80 1.128111e-95
347.90 1.128111e-95
348.00 1.128111e-95
348.10 1.128111e-95
348.20 1.128111e-95
348.30 1.128111e-95
348.40 1.128111e-95
348.50 1.128111e-95
348.60 1.128111e-95
348.70 1.128111e-95
348.80 1.128111e-95
348.90 1.128111e-95
349.00 1.128111e-95
349.10 1.128111e-95
349.20 1.128111e-95
349.30 1.128111e-95
349.40 1.128111e-95
349.50 1.128111e-95
349.60 1.128111e-95
349.70 1.128111e-95
349.80 1.128111e-95
349.90 1.128111e-95
350.00 1.128111e-95
350.10 1.128111e-95
350.20 1.128111e-95
350.30 1.128111e-95
350.40 1.128111e-95
350.50 1.128111e-95
350.60 1.128111e-95
350.70 1.128111e-95
350.80 1.128111e-95
350.90 1.128111e-95
351.00 1.128111e-95
351.10 1.128111e-95
351.20 1.128111e-95
351.30 1.128111e-95
351.40 1.128111e-95
351.50 1.128111e-95
351.60 1.128111e-95
351.70 1.128111e-95
351.80 1.128111e-95
351.90 1.128111e-95
352.00 1.128111e-95
352.10 1.128111e-95
352.20 1.128111e-95
352.30 1.128111e-95
352.40 1.128111e-95
352.50 1.128111e-95
352.60 1.128111e-95
352.70 1.128111e-95
352.80 1.128111e-95
352.90 1.128111e-95
353.00 1.128111e-95
353.10 1.128111e-95
353.20 1.128111e-95
353.30 1.128111e-95
353.40 1.128111e-95
353.50 1.128111e-95
353.60 1.128111e-95
353.70 1.128111e-95
353.80 1.128111e-95
353.90 1.128111e-95
354.00 1.128111e-95
354.10 1.128111e-95
354.20 1.128111e-95
354.30 1.128111e-95
354.40 1.128111e-95
354.50 1.128111e-95
354.60 1.128111e-95
354.70 1.128111e-95
354.80 1.128111e-95
354.90 1.128111e-95
355.00 1.128111e-95
355.10 1.128111e-95
355.20 1.128111e-95
355.30 1.128111e-95
355.40 1.128111e-95
355.50 1.128111e-95
355.60 1.128111e-95
355.70 1.128111e-95
355.80 1.128111e-95
355.90 1.128111e-95
356.00 1.128111e-95
356.10 1.128111e-95
356.20 1.128111e-95
356.30 1.128111e-95
356.40 1.128111e-95
356.50 1.128111e-95
356.60 1.128111e-95
356.70 1.128111e-95
356.80 1.128111e-95
356.90 1.128111e-95
357.00 1.128111e-95
357.10 1.128111e-95
357.20 1.128111e-95
357.30 1.128111e-95
357.40 1.128111e-95
357.50 1.128111e-95
357.60 1.128111e-95
357.70 1.128111e-95
357.80 1.128111e-95
357.90 1.128111e-95
358.00 1.128111e-95
358.10 1.128111e-95
358.20 1.128111e-95
358.30 1.128111e-95
358.40 1.128111e-95
358.50 1.128111e-95
358.60 1.128111e-95
358.70 1.128111e-95
358.80 1.128111e-95
358.90 1.128111e-95
359.00 1.128111e-95
359.10 1.128111e-95
359.20 1.128111e-95
359.30 1.128111e-95
359.40 1.128111e-95
359.50 1.128111e-95
359.60 1.128111e-95
359.70 1.128111e-95
359.80 1.128111e-95
359.90 1.128111e-95
360.00 1.128111e-95
360.10 1.128111e-95
360.20 1.128111e-95
360.30 1.128111e-95
360.40 1.128111e-95
360.50 1.128111e-95
360.60 1.128111e-95
360.70 1.128111e-95
360.80 1.128111e-95
360.90 1.128111e-95
361.00 1.128111e-95
361.10 1.128111e-95
361.20 1.128111e-95
361.30 1.128111e-95
361.40 1.128111e-95
361.50 1.128111e-95
361.60 1.128111e-95
361.70 1.128111e-95
361.80 1.128111e-95
361.90 1.128111e-95
362.00 1.128111e-95
362.10 1.128111e-95
362.20 1.128111e-95
362.30 1.128111e-95
362.40 1.128111e-95
362.50 1.128111e-95
362.60 1.128111e-95
362.70 1.128111e-95
362.80 1.128111e-95
362.90 1.128111e-95
363.00 1.128111e-95
363.10 1.128111e-95
363.20 1.128111e-95
363.30 1.128111e-95
363.40 1.128111e-95
363.50 1.128111e-95
363.60 1.128111e-95
363.70 1.128111e-95
363.80 1.128111e-95
363.90 1.128111e-95
364.00 1.128111e-95
364.10 1.128111e-95
364.20 1.128111e-95
364.30 1.128111e-95
364.40 1.128111e-95
364.50 1.128111e-95
364.60 1.128111e-95
364.70 1.128111e-95
364.80 1.128111e-95
364.90 1.128111e-95
365.00 1.128111e-95
365.10 1.128111e-95
365.20 1.128111e-95
365.30 1.128111e-95
365.40 1.128111e-95
365.50 1.128111e-95
365.60 1.128111e-95
365.70 1.128111e-95
365.80 1.128111e-95
365.90 1.128111e-95
366.00 1.128111e-95
366.10 1.128111e-95
366.20 1.128111e-95
366.30 1.128111e-95
366.40 1.128111e-95
366.50 1.128111e-95
366.60 1.128111e-95
366.70 1.128111e-95
366.80 1.128111e-95
366.90 1.128111e-95
367.00 1.128111e-95
367.10 1.128111e-95
367.20 1.128111e-95
367.30 1.128111e-95
367.40 1.128111e-95
367.50 1.128111e-95
367.60 1.128111e-95
367.70 1.128111e-95
367.80 1.128111e-95
367.90 1.128111e-95
368.00 1.128111e-95
368.10 1.128111e-95
368.20 1.128111e-95
368.30 1.128111e-95
368.40 1.128111e-95
368.50 1.128111e-95
368.60 1.128111e-95
368.70 1.128111e-95
368.80 1.128111e-95
368.90 1.128111e-95
369.00 1.128111e-95
369.10 1.128111e-95
369.20 1.128111e-95
369.30 1.128111e-95
369.40 1.128111e-95
369.50 1.128111e-95
369.60 1.128111e-95
369.70 1.128111e-95
369.80 1.128111e-95
369.90 1.128111e-95
370.00 1.128111e-95
370.10 1.128111e-95
370.20 1.128111e-95
370.30 1.128111e-95
370.40 1.128111e-95
370.50 1.128111e-95
370.60 1.128111e-95
370.70 1.128111e-95
370.80 1.128111e-95
370.90 1.128111e-95
371.00 1.128111e-95
371.10 1.128111e-95
371.20 1.128111e-95
371.30 1.128111e-95
371.40 1.128111e-95
371.50 1.128111e-95
371.60 1.128111e-95
371.70 1.128111e-95
371.80 1.128111e-95
371.90 1.128111e-95
372.00 1.128111e-95
372.10 1.128111e-95
372.20 1.128111e-95
372.30 1.128111e-95
372.40 1.128111e-95
372.50 1.128111e-95
372.60 1.128111e-95
372.70 1.128111e-95
372.80 1.128111e-95
372.90 1.128111e-95
373.00 1.128111e-95
373.10 1.128111e-95
373.20 1.128111e-95
373.30 1.128111e-95
373.40 1.128111e-95
373.50 1.128111e-95
373.60 1.128111e-95
373.70 1.128111e-95
373.80 1.128111e-95
373.90 1.128111e-95
374.00 1.128111e-95
374.10 1.128111e-95
374.20 1.128111e-95
374.30 1.128111e-95
374.40 1.128111e-95
374.50 1.128111e-95
374.60 1.128111e-95
374.70 1.128111e-95
374.80 1.128111e-95
374.90 1.128111e-95
375.00 1.128111e-95
375.10 1.128111e-95
375.20 1.128111e-95
375.30 1.128111e-95
375.40 1.128111e-95
375.50 1.128111e-95
375.60 1.128111e-95
375.70 1.128111e-95
375.80 1.128111e-95
375.90 1.128111e-95
376.00 1.128111e-95
376.10 1.128111e-95
376.20 1.128111e-95
376.30 1.128111e-95
376.40 1.128111e-95
376.50 1.128111e-95
376.60 1.128111e-95
376.70 1.128111e-95
376.80 1.128111e-95
376.90 1.128111e-95
377.00 1.128111e-95
377.10 1.128111e-95
377.20 1.128111e-95
377.30 1.128111e-95
377.40 1.128111e-95
377.50 1.128111e-95
377.60 1.128111e-95
377.70 1.128111e-95
377.80 1.128111e-95
377.90 1.128111e-95
378.00 1.128111e-95
378.10 1.128111e-95
378.20 1.128111e-95
378.30 1.128111e-95
378.40 1.128111e-95
378.50 1.128111e-95
378.60 1.128111e-95
378.70 1.128111e-95
378.80 1.128111e-95
378.90 1.128111e-95
379.00 1.128111e-95
379.10 1.128111e-95
379.20 1.128111e-95
379.30 1.128111e-95
379.40 1.128111e-95
379.50 1.128111e-95
379.60 1.128111e-95
379.70 1.128111e-95
379.80 1.128111e-95
379.90 1.128111e-95
380.00 1.128111e-95
380.10 1.128111e-95
380.20 1.128111e-95
380.30 1.128111e-95
380.40 1.128111e-95
380.50 1.128111e-95
380.60 1.128111e-95
380.70 1.128111e-95
380.80 1.128111e-95
380.90 1.128111e-95
381.00 1.128111e-95
381.10 1.128111e-95
381.20 1.128111e-95
381.30 1.128111e-95
381.40 1.128111e-95
381.50 1.128111e-95
381.60 1.128111e-95
381.70 1.128111e-95
381.80 1.128111e-95
381.90 1.128111e-95
382.00 1.128111e-95
382.10 1.128111e-95
382.20 1.128111e-95
382.30 1.128111e-95
382.40 1.128111e-95
382.50 1.128111e-95
382.60 1.128111e-95
382.70 1.128111e-95
382.80 1.128111e-95
382.90 1.128111e-95
383.00 1.128111e-95
383.10 1.128111e-95
383.20 1.128111e-95
383.30 1.128111e-95
383.40 1.128111e-95
383.50 1.128111e-95
383.60 1.128111e-95
383.70 1.128111e-95
383.80 1.128111e-95
383.90 1.128111e-95
384.00 1.128111e-95
384.10 1.128111e-95
384.20 1.128111e-95
384.30 1.128111e-95
384.40 1.128111e-95
384.50 1.128111e-95
384.60 1.128111e-95
384.70 1.128111e-95
384.80 1.128111e-95
384.90 1.128111e-95
385.00 1.128111e-95
385.10 1.128111e-95
385.20 1.128111e-95
385.30 1.128111e-95
385.40 1.128111e-95
385.50 1.128111e-95
385.60 1.128111e-95
385.70 1.128111e-95
385.80 1.128111e-95
385.90 1.128111e-95
386.00 1.128111e-95
386.10 1.128111e-95
386.20 1.128111e-95
386.30 1.128111e-95
386.40 1.128111e-95
386.50 1.128111e-95
386.60 1.128111e-95
386.70 1.128111e-95
386.80 1.128111e-95
386.90 1.128111e-95
387.00 1.128111e-95
387.10 1.128111e-95
387.20 1.128111e-95
387.30 1.128111e-95
387.40 1.128111e-95
387.50 1.128111e-95
387.60 1.128111e-95
387.70 1.128111e-95
387.80 1.128111e-95
387.90 1.128111e-95
388.00 1.128111e-95
388.10 1.128111e-95
388.20 1.128111e-95
388.30 1.128111e-95
388.40 1.128111e-95
388.50 1.128111e-95
388.60 1.128111e-95
388.70 1.128111e-95
388.80 1.128111e-95
388.90 1.128111e-95
389.00 1.128111e-95
389.10 1.128111e-95
389.20 1.128111e-95
389.30 1.128111e-95
389.40 1.128111e-95
389.50 1.128111e-95
389.60 1.128111e-95
389.70 1.128111e-95
389.80 1.128111e-95
389.90 1.128111e-95
390.00 1.128111e-95
390.10 1.128111e-95
390.20 1.128111e-95
390.30 1.128111e-95
390.40 1.128111e-95
390.50 1.128111e-95
390.60 1.128111e-95
390.70 1.128111e-95
390.80 1.128111e-95
390.90 1.128111e-95
391.00 1.128111e-95
391.10 1.128111e-95
391.20 1.128111e-95
391.30 1.128111e-95
391.40 1.128111e-95
391.50 1.128111e-95
391.60 1.128111e-95
391.70 1.128111e-95
391.80 1.128111e-95
391.90 1.128111e-95
392.00 1.128111e-95
392.10 1.128111e-95
392.20 1.128111e-95
392.30 1.128111e-95
392.40 1.128111e-95
392.50 1.128111e-95
392.60 1.128111e-95
392.70 1.128111e-95
392.80 1.128111e-95
392.90 1.128111e-95
393.00 1.128111e-95
393.10 1.128111e-95
393.20 1.128111e-95
393.30 1.128111e-95
393.40 1.128111e-95
393.50 1.128111e-95
393.60 1.128111e-95
393.70 1.128111e-95
393.80 1.128111e-95
393.90 1.128111e-95
394.00 1.128111e-95
394.10 1.128111e-95
394.20 1.128111e-95
394.30 1.128111e-95
394.40 1.128111e-95
394.50 1.128111e-95
394.60 1.128111e-95
394.70 1.128111e-95
394.80 1.128111e-95
394.90 1.128111e-95
395.00 0.01671593
395.10 0.03263507
395.20 0.04727726
395.30 0.06022047
395.40 0.07089646
395.50 0.07871679
395.60 0.08372679
395.70 0.08636218
395.80 0.08726132
395.90 0.0874733
396.00 0.08875828
396.10 0.09328732
396.20 0.1026727
396.30 0.1174959
396.40 0.1370472
396.50 0.1593669
396.60 0.1818155
396.70 0.2017368
396.80 0.217131
396.90 0.2269809
397.00 0.2311432
397.10 0.2311432
397.20 0.2311432
397.30 0.2311432
397.40 0.2311432
397.50 0.2311432
397.60 0.2315338
397.70 0.2338694
397.80 0.2370735
397.90 0.2402624
398.00 0.2429933
398.10 0.2453807
398.20 0.2479705
398.30 0.251449
398.40 0.2563498
398.50 0.262854
398.60 0.2703473
398.70 0.2777103
398.80 0.284021
398.90 0.2886038
399.00 0.2908843
399.10 0.2908843
399.20 0.2908843
399.30 0.2908843
399.40 0.2908843
399.50 0.2908843
399.60 0.2908843
399.70 0.2908843
399.80 0.2908843
399.90 0.2908843
400.00 0.2908843
400.10 0.2908843
400.20 0.2908843
400.30 0.2908843
400.40 0.2908843
400.50 0.2908843
400.60 0.2908843
400.70 0.2908843
400.80 0.2919813
400.90 0.2962976
401.00 0.3040321
401.10 0.3146214
401.20 0.3270909
401.30 0.3406187
401.40 0.3545567
401.50 0.3682819
401.60 0.3810375
401.70 0.3919296
401.80 0.4002472
401.90 0.4059438
402.00 0.4098818
402.10 0.4133502
402.20 0.4177173
402.30 0.4240048
402.40 0.4325709
402.50 0.44317
402.60 0.4551562
402.70 0.4676738
402.80 0.4799198
402.90 0.4915039
403.00 0.5022607
403.10 0.5117429
403.20 0.5193528
403.30 0.5246935
403.40 0.5275077
403.50 0.5277747
403.60 0.5277747
403.70 0.5277747
403.80 0.5277747
403.90 0.5277747
404.00 0.5277747
404.10 0.5299483
404.20 0.5351749
404.30 0.542333
404.40 0.5501888
404.50 0.5580877
404.60 0.5659152
404.70 0.5736107
404.80 0.581078
404.90 0.5882503
405.00 0.5786133
405.10 0.5705418
405.20 0.56589
405.30 0.566272
405.40 0.5727804
405.50 0.5863216
405.60 0.6071391
405.70 0.6342238
405.80 0.6653402
405.90 0.697367
406.00 0.7265494
406.10 0.7491031
406.20 0.7624336
406.30 0.76597
406.40 0.7613564
406.50 0.7519024
406.60 0.7411942
406.70 0.732487
406.80 0.7285652
406.90 0.7309806
407.00 0.7397197
407.10 0.7527951
407.20 0.7656305
407.30 0.7777794
407.40 0.7884185
407.50 0.796653
407.60 0.8018408
407.70 0.8030196
407.80 0.8022988
407.90 0.8015059
408.00 0.8022888
408.10 0.8059642
408.20 0.8128471
408.30 0.8220321
408.40 0.8322527
408.50 0.8423438
408.60 0.8512375
408.70 0.8582181
408.80 0.8630622
408.90 0.8662636
409.00 0.8688243
409.10 0.8714412
409.20 0.8730586
409.30 0.8753525
409.40 0.8799163
409.50 0.8878608
409.60 0.8997211
409.70 0.9154794
409.80 0.9342262
409.90 0.9545501
410.00 0.9753784
410.10 0.9958738
410.20 1.015324
410.30 1.033281
410.40 1.049761
410.50 1.065337
410.60 1.080616
410.70 1.095873
410.80 1.110194
410.90 1.121746
411.00 1.130683
411.10 1.137633
411.20 1.14321
411.30 1.148134
411.40 1.153207
411.50 1.158976
411.60 1.165899
411.70 1.174276
411.80 1.183965
411.90 1.194106
412.00 1.203322
412.10 1.210382
412.20 1.214351
412.30 1.214958
412.40 1.212791
412.50 1.209077
412.60 1.204941
412.70 1.200664
412.80 1.195844
412.90 1.1898
413.00 1.182163
413.10 1.173595
413.20 1.165985
413.30 1.161008
413.40 1.160307
413.50 1.164811
413.60 1.172604
413.70 1.182876
413.80 1.194276
413.90 1.205188
414.00 1.214424
414.10 1.219197
414.20 1.21866
414.30 1.214598
414.40 1.209255
414.50 1.20469
414.60 1.202178
414.70 1.202594
414.80 1.206646
414.90 1.214353
415.00 1.224795
415.10 1.235978
415.20 1.245348
415.30 1.250749
415.40 1.251078
415.50 1.245671
415.60 1.233982
415.70 1.216661
415.80 1.195587
415.90 1.172986
416.00 1.151038
416.10 1.131445
416.20 1.115229
416.30 1.102619
416.40 1.093121
416.50 1.085912
416.60 1.08033
416.70 1.07571
416.80 1.070839
416.90 1.064719
417.00 1.057363
417.10 1.049125
417.20 1.040352
417.30 1.031559
417.40 1.023738
417.50 1.018202
417.60 1.015788
417.70 1.016274
417.80 1.018538
417.90 1.021182
418.00 1.022617
418.10 1.021154
418.20 1.015776
418.30 1.00647
418.40 0.9934582
418.50 0.9774244
418.60 0.9610375
418.70 0.9466939
418.80 0.935539
418.90 0.9277549
419.00 0.9229137
419.10 0.9202967
419.20 0.9186793
419.30 0.9164511
419.40 0.9135557
419.50 0.9085317
419.60 0.9003595
419.70 0.8886322
419.80 0.874302
419.90 0.8591678
420.00 0.844872
420.10 0.8329746
420.20 0.8246988
420.30 0.8204128
420.40 0.8195026
420.50 0.8205343
420.60 0.8217733
420.70 0.8220219
420.80 0.8207867
420.90 0.8176165
421.00 0.8119417
421.10 0.8036229
421.20 0.7929611
421.30 0.7799865
421.40 0.7647007
421.50 0.7476292
421.60 0.7296274
421.70 0.711902
421.80 0.6959011
421.90 0.6829044
422.00 0.6734649
422.10 0.6671138
422.20 0.6627606
422.30 0.6594293
422.40 0.6565418
422.50 0.653675
422.60 0.6508294
422.70 0.6490865
422.80 0.6501966
422.90 0.6554971
423.00 0.665374
423.10 0.6790559
423.20 0.6944301
423.30 0.709372
423.40 0.7216093
423.50 0.729394
423.60 0.73152
423.70 0.7276582
423.80 0.7186358
423.90 0.7077237
424.00 0.6984879
424.10 0.6915418
424.20 0.6868514
424.30 0.6859332
424.40 0.6899298
424.50 0.6972953
424.60 0.706234
424.70 0.7149148
424.80 0.7215679
424.90 0.7250514
425.00 0.7248573
425.10 0.7209974
425.20 0.7138239
425.30 0.7042079
425.40 0.693059
425.50 0.6809186
425.60 0.6683841
425.70 0.6562812
425.80 0.6454144
425.90 0.636128
426.00 0.6282218
426.10 0.6215674
426.20 0.6161059
426.30 0.6115719
426.40 0.6076807
426.50 0.6043144
426.60 0.6014985
426.70 0.5989918
426.80 0.5965766
426.90 0.5941894
427.00 0.5916368
427.10 0.5889054
427.20 0.5862154
427.30 0.5840915
427.40 0.583023
427.50 0.5826893
427.60 0.5822483
427.70 0.5810884
427.80 0.5790379
427.90 0.5762445
428.00 0.5731202
428.10 0.5704073
428.20 0.5687014
428.30 0.5683858
428.40 0.5698254
428.50 0.5729359
428.60 0.5765073
428.70 0.5801212
428.80 0.5842148
428.90 0.5891475
429.00 0.5947779
429.10 0.6007092
429.20 0.606717
429.30 0.6127209
429.40 0.6171536
429.50 0.6201864
429.60 0.6222942
429.70 0.6240821
429.80 0.6257555
429.90 0.6272073
430.00 0.627948
430.10 0.6271551
430.20 0.624254
430.30 0.6193827
430.40 0.6135028
430.50 0.6080547
430.60 0.6044237
430.70 0.6032753
430.80 0.6043084
430.90 0.6068563
431.00 0.6100054
431.10 0.6128377
431.20 0.6148099
431.30 0.6157604
431.40 0.6159501
431.50 0.6158097
431.60 0.6157262
431.70 0.6161616
431.80 0.6172834
431.90 0.6187743
432.00 0.6201741
432.10 0.6211812
432.20 0.6219732
432.30 0.622782
432.40 0.6235497
432.50 0.6240381
432.60 0.623964
432.70 0.6229408
432.80 0.6203047
432.90 0.6154298
433.00 0.6078799
433.10 0.5976318
433.20 0.5853798
433.30 0.57218
433.40 0.5591887
433.50 0.5474809
433.60 0.5378814
433.70 0.5314715
433.80 0.5290936
433.90 0.5290936
434.00 0.5290936
434.10 0.5290936
434.20 0.5290936
434.30 0.526916
434.40 0.5204067
434.50 0.5110272
434.60 0.5001379
434.70 0.4887458
434.80 0.4776297
434.90 0.4673808
435.00 0.4581866
435.10 0.4497759
435.20 0.44184
435.30 0.4342758
435.40 0.4279112
435.50 0.4240971
435.60 0.4228695
435.70 0.4249061
435.80 0.4291466
435.90 0.434638
436.00 0.4406528
436.10 0.4465033
436.20 0.4515195
436.30 0.4551751
436.40 0.4573433
436.50 0.4582034
436.60 0.458017
436.70 0.4571876
436.80 0.4561394
436.90 0.4551396
437.00 0.4545235
437.10 0.4548906
437.20 0.4567645
437.30 0.4600645
437.40 0.4644046
437.50 0.4697962
437.60 0.4764835
437.70 0.4844644
437.80 0.4935673
437.90 0.5037007
438.00 0.5145555
438.10 0.5256528
438.20 0.5369297
438.30 0.5486099
438.40 0.5610388
438.50 0.5746986
438.60 0.58979
438.70 0.6060803
438.80 0.6230019
438.90 0.639783
439.00 0.6558937
439.10 0.6712322
439.20 0.685642
439.30 0.6985204
439.40 0.7093141
439.50 0.7178456
439.60 0.7237805
439.70 0.7268118
439.80 0.7268699
439.90 0.7240683
440.00 0.718911
440.10 0.7121865
440.20 0.704603
440.30 0.6968484
440.40 0.6898169
440.50 0.6843376
440.60 0.6808839
440.70 0.6796083
440.80 0.6803584
440.90 0.6828254
441.00 0.6869268
441.10 0.6923126
441.20 0.698381
441.30 0.7046347
441.40 0.7105375
441.50 0.7157106
441.60 0.7200127
441.70 0.7231187
441.80 0.7245251
441.90 0.7240499
442.00 0.7220356
442.10 0.7194182
442.20 0.7170945
442.30 0.7153412
442.40 0.7138593
442.50 0.7123022
442.60 0.7106229
442.70 0.7090548
442.80 0.7079946
442.90 0.7076969
443.00 0.7085083
443.10 0.7108539
443.20 0.7146927
443.30 0.7194745
443.40 0.7246722
443.50 0.7299183
443.60 0.7351633
443.70 0.7402932
443.80 0.7454382
443.90 0.7514292
444.00 0.7590918
444.10 0.7688293
444.20 0.7803667
444.30 0.7928312
444.40 0.8049632
444.50 0.8141431
444.60 0.8186712
444.70 0.8180683
444.80 0.8127389
444.90 0.8046257
445.00 0.7964929
445.10 0.7897321
445.20 0.7854815
445.30 0.7846959
445.40 0.7873324
445.50 0.7914107
445.60 0.7962951
445.70 0.8004749
445.80 0.8042115
445.90 0.808314
446.00 0.8136222
446.10 0.8206201
446.20 0.829576
446.30 0.8403445
446.40 0.8516316
446.50 0.8611455
446.60 0.8666623
446.70 0.867295
446.80 0.8641577
446.90 0.8613993
447.00 0.8590222
447.10 0.8565487
447.20 0.8541581
447.30 0.8540435
447.40 0.8558722
447.50 0.8589468
447.60 0.8622664
447.70 0.8648321
447.80 0.8661269
447.90 0.8661573
448.00 0.8653362
448.10 0.8638544
448.20 0.8613311
448.30 0.8577477
448.40 0.8535373
448.50 0.8488122
448.60 0.8434644
448.70 0.8373347
448.80 0.8301602
448.90 0.8217499
449.00 0.8119475
449.10 0.8005998
449.20 0.7880891
449.30 0.7755813
449.40 0.764487
449.50 0.7560287
449.60 0.7510476
449.70 0.7496555
449.80 0.7515177
449.90 0.7565138
450.00 0.7647114
450.10 0.7758755
450.20 0.7894386
450.30 0.8043991
450.40 0.8189733
450.50 0.8310143
450.60 0.8388358
450.70 0.841757
450.80 0.8402601
450.90 0.8357311
451.00 0.8302235
451.10 0.82631
451.20 0.82633
451.30 0.8314456
451.40 0.8413997
451.50 0.8550102
451.60 0.8706578
451.70 0.8867836
451.80 0.9027001
451.90 0.9184513
452.00 0.9341648
452.10 0.9497212
452.20 0.9648992
452.30 0.9800289
452.40 0.9958522
452.50 1.012735
452.60 1.030345
452.70 1.047933
452.80 1.064645
452.90 1.079599
453.00 1.092028
453.10 1.10136
453.20 1.107207
453.30 1.109807
453.40 1.109912
453.50 1.108459
453.60 1.106387
453.70 1.104275
453.80 1.102267
453.90 1.100308
454.00 1.098286
454.10 1.09612
454.20 1.094146
454.30 1.093408
454.40 1.095314
454.50 1.100975
454.60 1.11084
454.70 1.124569
454.80 1.141282
454.90 1.159173
455.00 1.176578
455.10 1.193861
455.20 1.211325
455.30 1.228293
455.40 1.243727
455.50 1.25801
455.60 1.27096
455.70 1.281777
455.80 1.289335
455.90 1.292754
456.00 1.291898
456.10 1.287287
456.20 1.279936
456.30 1.271302
456.40 1.263308
456.50 1.258227
456.60 1.258174
456.70 1.264112
456.80 1.274808
456.90 1.285422
457.00 1.294505
457.10 1.300606
457.20 1.302368
457.30 1.29795
457.40 1.290032
457.50 1.279201
457.60 1.266471
457.70 1.254754
457.80 1.246883
457.90 1.243442
458.00 1.243678
458.10 1.246259
458.20 1.24981
458.30 1.252978
458.40 1.255004
458.50 1.255931
458.60 1.255775
458.70 1.254402
458.80 1.251863
458.90 1.248554
459.00 1.245419
459.10 1.243411
459.20 1.242629
459.30 1.242539
459.40 1.242552
459.50 1.242306
459.60 1.242067
459.70 1.242699
459.80 1.24502
459.90 1.249213
460.00 1.254808
460.10 1.260987
460.20 1.266934
460.30 1.27216
460.40 1.276296
460.50 1.279001
460.60 1.280637
460.70 1.282164
460.80 1.284552
460.90 1.28837
461.00 1.293251
461.10 1.298095
461.20 1.301963
461.30 1.304846
461.40 1.307483
461.50 1.310734
461.60 1.315331
461.70 1.321322
461.80 1.327881
461.90 1.333975
462.00 1.338564
462.10 1.340768
462.20 1.339839
462.30 1.335029
462.40 1.326287
462.50 1.314523
462.60 1.301028
462.70 1.286936
462.80 1.273348
462.90 1.261625
463.00 1.252922
463.10 1.248334
463.20 1.248966
463.30 1.254989
463.40 1.265402
463.50 1.278361
463.60 1.291711
463.70 1.303529
463.80 1.312349
463.90 1.317202
464.00 1.317875
464.10 1.315063
464.20 1.309995
464.30 1.303746
464.40 1.296951
464.50 1.289787
464.60 1.282225
464.70 1.274413
464.80 1.266424
464.90 1.258006
465.00 1.248618
465.10 1.237718
465.20 1.224974
465.30 1.210327
465.40 1.193969
465.50 1.176556
465.60 1.15926
465.70 1.143571
465.80 1.131176
465.90 1.123009
466.00 1.118893
466.10 1.117912
466.20 1.118549
466.30 1.119175
466.40 1.118852
466.50 1.117575
466.60 1.115701
466.70 1.113761
466.80 1.112718
466.90 1.114078
467.00 1.11948
467.10 1.129885
467.20 1.144931
467.30 1.163071
467.40 1.181264
467.50 1.199323
467.60 1.217282
467.70 1.233301
467.80 1.244842
467.90 1.250624
468.00 1.250395
468.10 1.245143
468.20 1.236726
468.30 1.226726
468.40 1.215836
468.50 1.204693
468.60 1.194414
468.70 1.186242
468.80 1.181161
468.90 1.179726
469.00 1.181979
469.10 1.187614
469.20 1.196328
469.30 1.207754
469.40 1.221029
469.50 1.234838
469.60 1.247638
469.70 1.257918
469.80 1.264621
469.90 1.267052
470.00 1.264923
470.10 1.258631
470.20 1.249007
470.30 1.237042
470.40 1.224124
470.50 1.212214
470.60 1.202863
470.70 1.196677
470.80 1.193536
470.90 1.192587
471.00 1.192409
471.10 1.19148
471.20 1.188393
471.30 1.181865
471.40 1.171226
471.50 1.156651
471.60 1.139081
471.70 1.120344
471.80 1.102558
471.90 1.08721
472.00 1.075165
472.10 1.066709
472.20 1.061816
472.30 1.06034
472.40 1.061708
472.50 1.064987
472.60 1.069287
472.70 1.074001
472.80 1.078491
472.90 1.081995
473.00 1.083814
473.10 1.083061
473.20 1.078962
473.30 1.071727
473.40 1.062617
473.50 1.053493
473.60 1.046379
473.70 1.042973
473.80 1.04419
473.90 1.049944
474.00 1.05913
474.10 1.069924
474.20 1.080265
474.30 1.088265
474.40 1.092709
474.50 1.093416
474.60 1.091166
474.70 1.087284
474.80 1.083619
474.90 1.082301
475.00 1.084826
475.10 1.091651
475.20 1.102263
475.30 1.115387
475.40 1.129242
475.50 1.141768
475.60 1.151053
475.70 1.155762
475.80 1.155432
475.90 1.150839
476.00 1.143875
476.10 1.135783
476.20 1.128256
476.30 1.122715
476.40 1.119654
476.50 1.11854
476.60 1.118545
476.70 1.11897
476.80 1.119043
476.90 1.117935
477.00 1.114973
477.10 1.109928
477.20 1.102802
477.30 1.093577
477.40 1.08237
477.50 1.069546
477.60 1.055635
477.70 1.041506
477.80 1.028486
477.90 1.018489
478.00 1.013126
478.10 1.012685
478.20 1.016264
478.30 1.022444
478.40 1.029768
478.50 1.036665
478.60 1.041804
478.70 1.044362
478.80 1.044062
478.90 1.041015
479.00 1.035333
479.10 1.027162
479.20 1.01692
479.30 1.004939
479.40 0.9914131
479.50 0.9768794
479.60 0.9623413
479.70 0.9488509
479.80 0.9369301
479.90 0.9268371
480.00 0.9187321
480.10 0.9126117
480.20 0.9087595
480.30 0.9078141
480.40 0.9102013
480.50 0.9156956
480.60 0.9235589
480.70 0.9326282
480.80 0.941459
480.90 0.9486895
481.00 0.9532727
481.10 0.9547351
481.20 0.9534179
481.30 0.9503422
481.40 0.9465403
481.50 0.942733
481.60 0.9391799
481.70 0.935681
481.80 0.9320432
481.90 0.9283359
482.00 0.9247704
482.10 0.921648
482.20 0.9192846
482.30 0.9178699
482.40 0.9176771
482.50 0.918997
482.60 0.9218862
482.70 0.9260138
482.80 0.9310667
482.90 0.9370397
483.00 0.9438726
483.10 0.9511903
483.20 0.9582704
483.30 0.9641325
483.40 0.9679019
483.50 0.9691911
483.60 0.9680363
483.70 0.9650534
483.80 0.9610843
483.90 0.9568345
484.00 0.9530427
484.10 0.9504987
484.20 0.9497927
484.30 0.9511323
484.40 0.9544223
484.50 0.9594674
484.60 0.9659024
484.70 0.9729341
484.80 0.979042
484.90 0.9822919
485.00 0.9813538
485.10 0.9756244
485.20 0.9655419
485.30 0.9528828
485.40 0.9401939
485.50 0.9301651
485.60 0.9250735
485.70 0.9261312
485.80 0.9331429
485.90 0.9448321
486.00 0.9591841
486.10 0.9749666
486.20 0.9905679
486.30 1.004555
486.40 1.015918
486.50 1.024091
486.60 1.028871
486.70 1.030319
486.80 1.028979
486.90 1.02581
487.00 1.022216
487.10 1.020007
487.20 1.020857
487.30 1.025562
487.40 1.033914
487.50 1.045042
487.60 1.057716
487.70 1.070835
487.80 1.083635
487.90 1.095253
488.00 1.104818
488.10 1.112053
488.20 1.117293
488.30 1.121232
488.40 1.124534
488.50 1.127614
488.60 1.130849
488.70 1.134581
488.80 1.138835
488.90 1.143461
489.00 1.148513
489.10 1.153888
489.20 1.159117
489.30 1.164068
489.40 1.169265
489.50 1.175178
489.60 1.181523
489.70 1.187691
489.80 1.193422
489.90 1.198569
490.00 1.202879
490.10 1.206331
490.20 1.208884
490.30 1.210126
490.40 1.209693
490.50 1.207547
490.60 1.203925
490.70 1.199237
490.80 1.193689
490.90 1.187502
491.00 1.181556
491.10 1.177089
491.20 1.174732
491.30 1.1744
491.40 1.175797
491.50 1.178404
491.60 1.181598
491.70 1.184921
491.80 1.187871
491.90 1.189961
492.00 1.190913
492.10 1.190564
492.20 1.188852
492.30 1.185679
492.40 1.180537
492.50 1.172655
492.60 1.16196
492.70 1.149436
492.80 1.136522
492.90 1.124522
493.00 1.114514
493.10 1.107278
493.20 1.103023
493.30 1.101399
493.40 1.101585
493.50 1.102557
493.60 1.103264
493.70 1.10275
493.80 1.100771
493.90 1.097907
494.00 1.094945
494.10 1.092466
494.20 1.090574
494.30 1.089041
494.40 1.087642
494.50 1.086339
494.60 1.085266
494.70 1.084597
494.80 1.084628
494.90 1.085933
495.00 1.089366
495.10 1.095786
495.20 1.105453
495.30 1.11773
495.40 1.131144
495.50 1.143762
495.60 1.153957
495.70 1.160864
495.80 1.164275
495.90 1.164152
496.00 1.160601
496.10 1.154156
496.20 1.145777
496.30 1.136459
496.40 1.126966
496.50 1.118012
496.60 1.110191
496.70 1.103676
496.80 1.098237
496.90 1.093426
497.00 1.088553
497.10 1.082639
497.20 1.074835
497.30 1.065005
497.40 1.053686
497.50 1.041664
497.60 1.029755
497.70 1.018425
497.80 1.007893
497.90 0.9984026
498.00 0.9903223
498.10 0.9840122
498.20 0.9795113
498.30 0.9765893
498.40 0.9750516
498.50 0.9750406
498.60 0.9767188
498.70 0.9799825
498.80 0.9846273
498.90 0.9903658
499.00 0.9966468
499.10 1.002938
499.20 1.008742
499.30 1.013446
499.40 1.016321
499.50 1.016825
499.60 1.015199
499.70 1.012239
499.80 1.008634
499.90 1.004591
500.00 1
500.10 0.9944962
500.20 0.987541
500.30 0.9788036
500.40 0.9683977
500.50 0.9565348
500.60 0.9432543
500.70 0.9299362
500.80 0.9178859
500.90 0.9085874
501.00 0.9030261
501.10 0.9013939
501.20 0.9034175
501.30 0.908609
501.40 0.916284
501.50 0.9257491
501.60 0.9363442
501.70 0.9473299
501.80 0.9581137
501.90 0.9682456
502.00 0.977387
502.10 0.9854599
502.20 0.9924311
502.30 0.9981937
502.40 1.002843
502.50 1.006722
502.60 1.00983
502.70 1.011792
502.80 1.01224
502.90 1.011044
503.00 1.008445
503.10 1.005149
503.20 1.002444
503.30 1.001791
503.40 1.004259
503.50 1.010319
503.60 1.01978
503.70 1.031706
503.80 1.044428
503.90 1.055947
504.00 1.064824
504.10 1.07079
504.20 1.074613
504.30 1.077412
504.40 1.080294
504.50 1.084061
504.60 1.088969
504.70 1.094929
504.80 1.101745
504.90 1.108883
505.00 1.115528
505.10 1.121155
505.20 1.125714
505.30 1.129471
505.40 1.132807
505.50 1.135824
505.60 1.138257
505.70 1.139814
505.80 1.140226
505.90 1.1395
506.00 1.137871
506.10 1.135732
506.20 1.13356
506.30 1.131789
506.40 1.130884
506.50 1.130995
506.60 1.131947
506.70 1.133797
506.80 1.136736
506.90 1.140526
507.00 1.144576
507.10 1.148356
507.20 1.151517
507.30 1.153728
507.40 1.154701
507.50 1.154314
507.60 1.152513
507.70 1.14951
507.80 1.145684
507.90 1.141521
508.00 1.137729
508.10 1.13489
508.20 1.133367
508.30 1.13359
508.40 1.135679
508.50 1.139046
508.60 1.142706
508.70 1.145641
508.80 1.147122
508.90 1.146812
509.00 1.144661
509.10 1.140929
509.20 1.136269
509.30 1.131704
509.40 1.128375
509.50 1.127119
509.60 1.128259
509.70 1.131522
509.80 1.136503
509.90 1.143058
510.00 1.151067
510.10 1.160439
510.20 1.170918
510.30 1.181993
510.40 1.193011
510.50 1.203521
510.60 1.213634
510.70 1.222336
510.80 1.228834
510.90 1.232211
511.00 1.231772
511.10 1.227422
511.20 1.219549
511.30 1.208806
511.40 1.195972
511.50 1.181741
511.60 1.166781
511.70 1.151826
511.80 1.137452
511.90 1.124118
512.00 1.112269
512.10 1.102383
512.20 1.095138
512.30 1.091303
512.40 1.091195
512.50 1.094529
512.60 1.100517
512.70 1.107831
512.80 1.1149
512.90 1.120249
513.00 1.12279
513.10 1.121894
513.20 1.117457
513.30 1.109987
513.40 1.100554
513.50 1.090318
513.60 1.080205
513.70 1.07098
513.80 1.063187
513.90 1.0571
514.00 1.052537
514.10 1.048685
514.20 1.044637
514.30 1.040047
514.40 1.034905
514.50 1.029447
514.60 1.024225
514.70 1.019823
514.80 1.016556
514.90 1.014469
515.00 1.013137
515.10 1.011669
515.20 1.009246
515.30 1.00524
515.40 0.9994588
515.50 0.9924044
515.60 0.984854
515.70 0.9775284
515.80 0.9711285
515.90 0.9660754
516.00 0.962589
516.10 0.9607894
516.20 0.9606085
516.30 0.9619313
516.40 0.9646955
516.50 0.9688922
516.60 0.9744521
516.70 0.9809259
516.80 0.9876305
516.90 0.9945628
517.00 1.00241
517.10 1.01176
517.20 1.023096
517.30 1.036898
517.40 1.053195
517.50 1.071434
517.60 1.090739
517.70 1.110009
517.80 1.12812
517.90 1.144078
518.00 1.157029
518.10 1.16664
518.20 1.173269
518.30 1.177393
518.40 1.179573
518.50 1.180662
518.60 1.181494
518.70 1.182648
518.80 1.184269
518.90 1.186031
519.00 1.187371
519.10 1.187624
519.20 1.186165
519.30 1.182546
519.40 1.176677
519.50 1.169116
519.60 1.160875
519.70 1.15319
519.80 1.147264
519.90 1.143988
520.00 1.143595
520.10 1.145458
520.20 1.148609
520.30 1.15212
520.40 1.154833
520.50 1.1556
520.60 1.153633
520.70 1.14887
520.80 1.142465
520.90 1.136377
521.00 1.132518
521.10 1.132033
521.20 1.134956
521.30 1.14041
521.40 1.147203
521.50 1.15427
521.60 1.160734
521.70 1.166032
521.80 1.170528
521.90 1.175532
522.00 1.182551
522.10 1.192473
522.20 1.204989
522.30 1.21876
522.40 1.232184
522.50 1.243939
522.60 1.253235
522.70 1.25984
522.80 1.263908
522.90 1.266041
523.00 1.267312
523.10 1.268948
523.20 1.271591
523.30 1.274889
523.40 1.277816
523.50 1.279346
523.60 1.278968
523.70 1.276687
523.80 1.272837
523.90 1.267886
524.00 1.262564
524.10 1.257849
524.20 1.254456
524.30 1.252717
524.40 1.252601
524.50 1.25335
524.60 1.253703
524.70 1.252734
524.80 1.250212
524.90 1.246417
525.00 1.241902
525.10 1.237395
525.20 1.233781
525.30 1.231981
525.40 1.232664
525.50 1.236272
525.60 1.243314
525.70 1.253819
525.80 1.267104
525.90 1.282313
526.00 1.298552
526.10 1.314714
526.20 1.329668
526.30 1.342588
526.40 1.352826
526.50 1.35993
526.60 1.363772
526.70 1.364656
526.80 1.363271
526.90 1.360083
527.00 1.35513
527.10 1.348585
527.20 1.340711
527.30 1.331838
527.40 1.322786
527.50 1.314692
527.60 1.308502
527.70 1.304537
527.80 1.302554
527.90 1.301977
528.00 1.301891
528.10 1.301228
528.20 1.298876
528.30 1.294013
528.40 1.286541
528.50 1.277018
528.60 1.266465
528.70 1.256226
528.80 1.247589
528.90 1.241544
529.00 1.238829
529.10 1.239883
529.20 1.244728
529.30 1.252864
529.40 1.263452
529.50 1.275348
529.60 1.287319
529.70 1.298561
529.80 1.308656
529.90 1.317539
530.00 1.325828
530.10 1.33461
530.20 1.34479
530.30 1.356796
530.40 1.370877
530.50 1.387191
530.60 1.405552
530.70 1.425292
530.80 1.445005
530.90 1.462945
531.00 1.477799
531.10 1.489024
531.20 1.497
531.30 1.502808
531.40 1.507557
531.50 1.512183
531.60 1.517514
531.70 1.523927
531.80 1.530662
531.90 1.535859
532.00 1.537526
532.10 1.534456
532.20 1.52676
532.30 1.515933
532.40 1.504236
532.50 1.493908
532.60 1.486782
532.70 1.484147
532.80 1.486837
532.90 1.494776
533.00 1.506696
533.10 1.520734
533.20 1.535154
533.30 1.548979
533.40 1.562018
533.50 1.574387
533.60 1.58619
533.70 1.597475
533.80 1.608408
533.90 1.619244
534.00 1.629923
534.10 1.640108
534.20 1.649423
534.30 1.6574
534.40 1.663574
534.50 1.667841
534.60 1.670484
534.70 1.671806
534.80 1.671954
534.90 1.671011
535.00 1.669278
535.10 1.667153
535.20 1.664759
535.30 1.662277
535.40 1.660127
535.50 1.658428
535.60 1.656533
535.70 1.6536
535.80 1.649133
535.90 1.643032
536.00 1.635521
536.10 1.626963
536.20 1.617804
536.30 1.608797
536.40 1.601168
536.50 1.596346
536.60 1.595598
536.70 1.599373
536.80 1.607167
536.90 1.617983
537.00 1.630508
537.10 1.643245
537.20 1.654831
537.30 1.664173
537.40 1.670499
537.50 1.673635
537.60 1.674047
537.70 1.672576
537.80 1.670069
537.90 1.667148
538.00 1.664408
538.10 1.662573
538.20 1.662472
538.30 1.664899
538.40 1.670272
538.50 1.678396
538.60 1.688513
538.70 1.69934
538.80 1.709487
538.90 1.717795
539.00 1.723511
539.10 1.726779
539.20 1.728652
539.30 1.730603
539.40 1.73403
539.50 1.739943
539.60 1.748505
539.70 1.758829
539.80 1.769425
539.90 1.778719
540.00 1.785251
540.10 1.787932
540.20 1.786336
540.30 1.780718
540.40 1.771826
540.50 1.760354
540.60 1.746685
540.70 1.731491
540.80 1.715764
540.90 1.700353
541.00 1.68598
541.10 1.673287
541.20 1.662863
541.30 1.655186
541.40 1.650556
541.50 1.648918
541.60 1.649698
541.70 1.652199
541.80 1.656127
541.90 1.661692
542.00 1.669382
542.10 1.679426
542.20 1.69165
542.30 1.705505
542.40 1.719903
542.50 1.733453
542.60 1.744734
542.70 1.752557
542.80 1.756072
542.90 1.755097
543.00 1.750408
543.10 1.743429
543.20 1.735871
543.30 1.729202
543.40 1.724247
543.50 1.721263
543.60 1.720037
543.70 1.72004
543.80 1.72065
543.90 1.721255
544.00 1.721481
544.10 1.721059
544.20 1.719793
544.30 1.717624
544.40 1.714551
544.50 1.71075
544.60 1.706456
544.70 1.701861
544.80 1.697218
544.90 1.692869
545.00 1.689143
545.10 1.686211
545.20 1.684044
545.30 1.682295
545.40 1.68018
545.50 1.676955
545.60 1.672482
545.70 1.667143
545.80 1.661573
545.90 1.656476
546.00 1.652418
546.10 1.649825
546.20 1.648975
546.30 1.649582
546.40 1.650677
546.50 1.651105
546.60 1.64996
546.70 1.647012
546.80 1.64275
546.90 1.638122
547.00 1.634099
547.10 1.631288
547.20 1.629957
547.30 1.629929
547.40 1.630507
547.50 1.630726
547.60 1.62983
547.70 1.627689
547.80 1.624616
547.90 1.621123
548.00 1.617721
548.10 1.614692
548.20 1.612193
548.30 1.610042
548.40 1.607692
548.50 1.604709
548.60 1.600743
548.70 1.595611
548.80 1.589615
548.90 1.583627
549.00 1.578537
549.10 1.574601
549.20 1.571585
549.30 1.569086
549.40 1.566373
549.50 1.562234
549.60 1.55541
549.70 1.545159
549.80 1.531595
549.90 1.515622
550.00 1.327177
550.10 1.338624
550.20 1.353456
550.30 1.366952
550.40 1.374897
550.50 1.374835
550.60 1.366871
550.70 1.352873
550.80 1.335085
550.90 1.315686
551.00 1.296374
551.10 1.278542
551.20 1.26374
551.30 1.252992
551.40 1.246765
551.50 1.245418
551.60 1.248737
551.70 1.255776
551.80 1.265725
551.90 1.278039
552.00 1.291624
552.10 1.30527
552.20 1.318607
552.30 1.331882
552.40 1.345568
552.50 1.35961
552.60 1.372712
552.70 1.383218
552.80 1.390354
552.90 1.394232
553.00 1.395538
553.10 1.395607
553.20 1.396041
553.30 1.398431
553.40 1.404442
553.50 1.414864
553.60 1.428744
553.70 1.443837
553.80 1.457428
553.90 1.467107
554.00 1.471732
554.10 1.471276
554.20 1.46616
554.30 1.457523
554.40 1.447564
554.50 1.438684
554.60 1.43213
554.70 1.427865
554.80 1.425198
554.90 1.422981
555.00 1.41904
555.10 1.414487
555.20 1.413982
555.30 1.423178
555.40 1.449734
555.50 1.499674
555.60 1.575602
555.70 1.676583
555.80 1.796483
555.90 1.924642
556.00 2.049132
556.10 2.15963
556.20 2.24876
556.30 2.313786
556.40 2.358627
556.50 2.389355
556.60 2.412135
556.70 2.433653
556.80 2.457111
556.90 2.483249
557.00 2.511139
557.10 2.538201
557.20 2.562022
557.30 2.581141
557.40 2.594657
557.50 2.602253
557.60 2.605012
557.70 2.60543
557.80 2.606148
557.90 2.608758
558.00 2.614514
558.10 2.624668
558.20 2.639335
558.30 2.657092
558.40 2.675451
558.50 2.691809
558.60 2.704837
558.70 2.714869
558.80 2.724151
558.90 2.736722
559.00 2.75749
559.10 2.786604
559.20 2.818673
559.30 2.846167
559.40 2.858357
559.50 2.844627
559.60 2.798991
559.70 2.721978
559.80 2.620758
559.90 2.507106
560.00 2.395018
560.10 2.298552
560.20 2.228083
560.30 2.186808
560.40 2.169834
560.50 2.170044
560.60 2.180619
560.70 2.193876
560.80 2.204479
560.90 2.209208
561.00 2.207004
561.10 2.199227
561.20 2.188254
561.30 2.177455
561.40 2.170193
561.50 2.167973
561.60 2.17066
561.70 2.177494
561.80 2.18765
561.90 2.200207
562.00 2.213297
562.10 2.224746
562.20 2.233588
562.30 2.240317
562.40 2.245972
562.50 2.251342
562.60 2.256491
562.70 2.260432
562.80 2.261663
562.90 2.259443
563.00 2.253864
563.10 2.24512
563.20 2.233488
563.30 2.219459
563.40 2.204636
563.50 2.191904
563.60 2.183447
563.70 2.179548
563.80 2.179294
563.90 2.181215
564.00 2.183534
564.10 2.183915
564.20 2.17983
564.30 2.169417
564.40 2.152006
564.50 2.128543
564.60 2.101118
564.70 2.072574
564.80 2.04616
564.90 2.024462
565.00 2.00928
565.10 2.001667
565.20 2.001217
565.30 2.005581
565.40 2.011491
565.50 2.016362
565.60 2.018498
565.70 2.017358
565.80 2.013753
565.90 2.009263
566.00 2.005376
566.10 2.003558
566.20 2.00563
566.30 2.013358
566.40 2.028132
566.50 2.050528
566.60 2.080568
566.70 2.118093
566.80 2.161689
566.90 2.208237
567.00 2.254285
567.10 2.296251
567.20 2.330666
567.30 2.355651
567.40 2.371959
567.50 2.382029
567.60 2.388317
567.70 2.393226
567.80 2.398552
567.90 2.4052
568.00 2.412932
568.10 2.420588
568.20 2.427628
568.30 2.434363
568.40 2.440893
568.50 2.447602
568.60 2.456457
568.70 2.470544
568.80 2.492558
568.90 2.524005
569.00 2.564422
569.10 2.610874
569.20 2.658945
569.30 2.703861
569.40 2.74141
569.50 2.769022
569.60 2.785698
569.70 2.790868
569.80 2.784258
569.90 2.766361
570.00 2.738476
570.10 2.702199
570.20 2.659003
570.30 2.610511
570.40 2.558987
570.50 2.50743
570.60 2.459048
570.70 2.416399
570.80 2.380657
570.90 2.350895
571.00 2.325075
571.10 2.302411
571.20 2.283635
571.30 2.269642
571.40 2.259723
571.50 2.251671
571.60 2.243386
571.70 2.233355
571.80 2.221032
571.90 2.206775
572.00 2.190865
572.10 2.173398
572.20 2.154623
572.30 2.135213
572.40 2.115856
572.50 2.096124
572.60 2.074028
572.70 2.046927
572.80 2.012753
572.90 1.970601
573.00 1.921294
573.10 1.867443
573.20 1.812536
573.30 1.760092
573.40 1.713496
573.50 1.675199
573.60 1.645778
573.70 1.624354
573.80 1.609548
573.90 1.600119
574.00 1.595827
574.10 1.596768
574.20 1.602149
574.30 1.610545
574.40 1.620105
574.50 1.629012
574.60 1.635801
574.70 1.639209
574.80 1.638888
574.90 1.636328
575.00 1.634246
575.10 1.635356
575.20 1.641325
575.30 1.651951
575.40 1.665406
575.50 1.679655
575.60 1.693371
575.70 1.70551
575.80 1.715097
575.90 1.721511
576.00 1.724706
576.10 1.725363
576.20 1.724558
576.30 1.723715
576.40 1.724772
576.50 1.72934
576.60 1.738244
576.70 1.752056
576.80 1.771836
576.90 1.798385
577.00 1.830808
577.10 1.866662
577.20 1.902669
577.30 1.935004
577.40 1.960338
577.50 1.976932
577.60 1.984978
577.70 1.986354
577.80 1.983896
577.90 1.981068
578.00 1.98102
578.10 1.986018
578.20 1.996741
578.30 2.011773
578.40 2.028894
578.50 2.045865
578.60 2.060906
578.70 2.073332
578.80 2.082727
578.90 2.088474
579.00 2.089846
579.10 2.08563
579.20 2.074955
579.30 2.058716
579.40 2.040021
579.50 2.022725
579.60 2.009733
579.70 2.002723
579.80 2.002352
579.90 2.008327
580.00 2.019283
580.10 2.032794
580.20 2.046327
580.30 2.057348
580.40 2.063475
580.50 2.063467
580.60 2.057423
580.70 2.046063
580.80 2.029227
580.90 2.006144
581.00 1.977337
581.10 1.945167
581.20 1.913179
581.30 1.885494
581.40 1.865518
581.50 1.855174
581.60 1.854924
581.70 1.863797
581.80 1.87913
581.90 1.897429
582.00 1.915326
582.10 1.929672
582.20 1.93922
582.30 1.945303
582.40 1.949844
582.50 1.953931
582.60 1.95752
582.70 1.959561
582.80 1.958956
582.90 1.954484
583.00 1.945078
583.10 1.930766
583.20 1.912569
583.30 1.891078
583.40 1.865449
583.50 1.83453
583.60 1.798059
583.70 1.757318
583.80 1.714586
583.90 1.672554
584.00 1.634389
584.10 1.602879
584.20 1.579712
584.30 1.565631
584.40 1.560301
584.50 1.56275
584.60 1.571704
584.70 1.584946
584.80 1.600056
584.90 1.61492
585.00 1.626681
585.10 1.631187
585.20 1.62484
585.30 1.606045
585.40 1.575405
585.50 1.535971
585.60 1.492262
585.70 1.449025
585.80 1.410549
585.90 1.378613
586.00 1.352097
586.10 1.328921
586.20 1.306182
586.30 1.280251
586.40 1.249703
586.50 1.216243
586.60 1.18321
586.70 1.154881
586.80 1.135328
586.90 1.127125
587.00 1.130632
587.10 1.145
587.20 1.168322
587.30 1.198446
587.40 1.23423
587.50 1.274769
587.60 1.318718
587.70 1.364092
587.80 1.407486
587.90 1.444761
588.00 1.472345
588.10 1.488025
588.20 1.491181
588.30 1.482956
588.40 1.466574
588.50 1.445544
588.60 1.422372
588.70 1.398537
588.80 1.374746
588.90 1.35187
589.00 1.33149
589.10 1.316004
589.20 1.307633
589.30 1.307655
589.40 1.316364
589.50 1.332214
589.60 1.352291
589.70 1.37315
589.80 1.391039
589.90 1.403126
590.00 1.408691
590.10 1.40886
590.20 1.405643
590.30 1.401305
590.40 1.396802
590.50 1.391123
590.60 1.382071
590.70 1.367441
590.80 1.346111
590.90 1.318896
591.00 1.288478
591.10 1.25757
591.20 1.228473
591.30 1.202554
591.40 1.179125
591.50 1.156014
591.60 1.130862
591.70 1.101059
591.80 1.06539
591.90 1.025508
592.00 0.9854602
592.10 0.9501431
592.20 0.9237643
592.30 0.9089917
592.40 0.9063046
592.50 0.9147437
592.60 0.9317881
592.70 0.9539546
592.80 0.9782184
592.90 1.001995
593.00 1.022749
593.10 1.039077
593.20 1.051557
593.30 1.061648
593.40 1.070354
593.50 1.078646
593.60 1.087864
593.70 1.09915
593.80 1.113013
593.90 1.129205
594.00 1.147225
594.10 1.167048
594.20 1.189488
594.30 1.216132
594.40 1.248379
594.50 1.286589
594.60 1.329607
594.70 1.37483
594.80 1.419381
594.90 1.460346
595.00 1.494294
595.10 1.518233
595.20 1.530972
595.30 1.533799
595.40 1.529988
595.50 1.523056
595.60 1.515059
595.70 1.507069
595.80 1.500339
595.90 1.495941
596.00 1.494125
596.10 1.494452
596.20 1.496173
596.30 1.498133
596.40 1.499082
596.50 1.497858
596.60 1.49372
596.70 1.486393
596.80 1.475557
596.90 1.461543
597.00 1.446467
597.10 1.432837
597.20 1.421439
597.30 1.411269
597.40 1.40083
597.50 1.388462
597.60 1.372213
597.70 1.350681
597.80 1.324203
597.90 1.295237
598.00 1.267467
598.10 1.244589
598.20 1.229448
598.30 1.222852
598.40 1.222956
598.50 1.22643
598.60 1.230145
598.70 1.232153
598.80 1.231172
598.90 1.226663
599.00 1.21951
599.10 1.211903
599.20 1.206215
599.30 1.20403
599.40 1.206209
599.50 1.213357
599.60 1.226312
599.70 1.245963
599.80 1.272735
599.90 1.305906
600.00 0.8324487
600.10 1.075711
600.20 1.416737
600.30 1.799408
600.40 2.147373
600.50 2.39328
600.60 2.498056
600.70 2.473322
600.80 2.347723
600.90 2.155455
601.00 1.941668
601.10 1.755649
601.20 1.63251
601.30 1.582142
601.40 1.587771
601.50 1.610255
601.60 1.616251
601.70 1.59526
601.80 1.570774
601.90 1.573925
602.00 1.61244
602.10 1.657904
602.20 1.681372
602.30 1.669876
602.40 1.61606
602.50 1.527767
602.60 1.424916
602.70 1.32535
602.80 1.239819
602.90 1.187308
603.00 1.193395
603.10 1.251284
603.20 1.316454
603.30 1.354095
603.40 1.364943
603.50 1.375322
603.60 1.407349
603.70 1.46061
603.80 1.532799
603.90 1.623459
604.00 1.716827
604.10 1.793752
604.20 1.849923
604.30 1.880899
604.40 1.870204
604.50 1.826938
604.60 1.778538
604.70 1.749222
604.80 1.768197
604.90 1.84473
605.00 1.973711
605.10 2.158722
605.20 2.386592
605.30 2.620615
605.40 2.813486
605.50 2.925578
605.60 2.936885
605.70 2.847262
605.80 2.67795
605.90 2.454658
606.00 2.217083
606.10 2.002054
606.20 1.815629
606.30 1.665385
606.40 1.56541
606.50 1.518483
606.60 1.519155
606.70 1.5698
606.80 1.683512
606.90 1.848982
607.00 2.022188
607.10 2.163517
607.20 2.2597
607.30 2.305069
607.40 2.294446
607.50 2.230001
607.60 2.130033
607.70 2.035064
607.80 1.980786
607.90 1.982264
608.00 2.045642
608.10 2.15179
608.20 2.267114
608.30 2.383152
608.40 2.512945
608.50 2.638789
608.60 2.705832
608.70 2.681446
608.80 2.570658
608.90 2.397582
609.00 2.189925
609.10 1.972231
609.20 1.766572
609.30 1.594574
609.40 1.46555
609.50 1.374199
609.60 1.322629
609.70 1.30898
609.80 1.310493
609.90 1.321373
610.00 1.369727
610.10 1.471429
610.20 1.592276
610.30 1.695405
610.40 1.76915
610.50 1.806488
610.60 1.812756
610.70 1.804743
610.80 1.805049
610.90 1.831046
611.00 1.868337
611.10 1.884799
611.20 1.874042
611.30 1.864718
611.40 1.882619
611.50 1.938154
611.60 2.050783
611.70 2.220167
611.80 2.412919
611.90 2.581616
612.00 2.676565
612.10 2.655077
612.20 2.495183
612.30 2.22394
612.40 1.913989
612.50 1.650856
612.60 1.495472
612.70 1.453819
612.80 1.505761
612.90 1.635762
613.00 1.816175
613.10 2.007809
613.20 2.170567
613.30 2.275972
613.40 2.334729
613.50 2.392707
613.60 2.477285
613.70 2.562646
613.80 2.611917
613.90 2.609539
614.00 2.559054
614.10 2.484145
614.20 2.409153
614.30 2.327905
614.40 2.228354
614.50 2.118759
614.60 2.012185
614.70 1.925534
614.80 1.853753
614.90 1.773369
615.00 1.676907
615.10 1.595284
615.20 1.567028
615.30 1.601745
615.40 1.686899
615.50 1.791293
615.60 1.879445
615.70 1.931307
615.80 1.941751
615.90 1.921194
616.00 1.901172
616.10 1.901221
616.20 1.929732
616.30 1.998181
616.40 2.099396
616.50 2.193368
616.60 2.237328
616.70 2.226782
616.80 2.181572
616.90 2.118014
617.00 2.041992
617.10 1.973878
617.20 1.93257
617.30 1.908695
617.40 1.875295
617.50 1.811355
617.60 1.717563
617.70 1.606953
617.80 1.508859
617.90 1.462122
618.00 1.497839
618.10 1.614665
618.20 1.776942
618.30 1.948448
618.40 2.114186
618.50 2.25975
618.60 2.367543
618.70 2.433204
618.80 2.469907
618.90 2.496345
619.00 2.499782
619.10 2.452629
619.20 2.349588
619.30 2.218706
619.40 2.092357
619.50 1.982533
619.60 1.90087
619.70 1.86291
619.80 1.869613
619.90 1.9082
620.00 1.957878
620.10 1.994014
620.20 2.007979
620.30 1.997834
620.40 1.988505
620.50 2.021701
620.60 2.109651
620.70 2.236074
620.80 2.367477
620.90 2.468059
621.00 2.508957
621.10 2.46394
621.20 2.31172
621.30 2.05283
621.40 1.727703
621.50 1.398248
621.60 1.103103
621.70 0.8836236
621.80 0.7761292
621.90 0.7784658
622.00 0.8728978
622.10 1.027431
622.20 1.217097
622.30 1.433636
622.40 1.663988
622.50 1.882119
622.60 2.061288
622.70 2.192061
622.80 2.261381
622.90 2.264142
623.00 2.227021
623.10 2.167136
623.20 2.078345
623.30 1.967855
623.40 1.855691
623.50 1.767879
623.60 1.734174
623.70 1.765112
623.80 1.848432
623.90 1.970198
624.00 2.114154
624.10 2.250317
624.20 2.349586
624.30 2.381731
624.40 2.32244
624.50 2.181458
624.60 2.004969
624.70 1.843189
624.80 1.732749
624.90 1.698053
625.00 1.739644
625.10 1.851234
625.20 2.025329
625.30 2.240107
625.40 2.465094
625.50 2.673045
625.60 2.864856
625.70 3.045553
625.80 3.192461
625.90 3.278034
626.00 3.282023
626.10 3.188499
626.20 2.997488
626.30 2.72572
626.40 2.405331
626.50 2.084721
626.60 1.825764
626.70 1.678691
626.80 1.662609
626.90 1.762581
627.00 1.926727
627.10 2.110916
627.20 2.294755
627.30 2.466031
627.40 2.612519
627.50 2.717861
627.60 2.777769
627.70 2.798361
627.80 2.775083
627.90 2.704795
628.00 2.597681
628.10 2.477318
628.20 2.384416
628.30 2.351766
628.40 2.379821
628.50 2.441759
628.60 2.497058
628.70 2.504843
628.80 2.443933
628.90 2.331227
629.00 2.19697
629.10 2.073375
629.20 2.005302
629.30 2.034041
629.40 2.159446
629.50 2.332488
629.60 2.464243
629.70 2.497315
629.80 2.448141
629.90 2.356472
630.00 2.274806
630.10 2.255469
630.20 2.328893
630.30 2.495883
630.40 2.740659
630.50 3.029952
630.60 3.312684
630.70 3.528788
630.80 3.649238
630.90 3.68554
631.00 3.683484
631.10 3.679359
631.20 3.680557
631.30 3.685759
631.40 3.680134
631.50 3.651045
631.60 3.596422
631.70 3.522874
631.80 3.427237
631.90 3.311945
632.00 3.193429
632.10 3.092164
632.20 3.017111
632.30 2.979033
632.40 3.002485
632.50 3.096785
632.60 3.226678
632.70 3.350821
632.80 3.447626
632.90 3.498295
633.00 3.498184
633.10 3.454605
633.20 3.385564
633.30 3.306133
633.40 3.229006
633.50 3.166949
633.60 3.129276
633.70 3.131887
633.80 3.187631
633.90 3.300643
634.00 3.467388
634.10 3.665794
634.20 3.864269
634.30 4.032443
634.40 4.137385
634.50 4.168207
634.60 4.145674
634.70 4.101121
634.80 4.062031
634.90 4.056913
635.00 4.113776
635.10 4.24231
635.20 4.413933
635.30 4.578818
635.40 4.703121
635.50 4.758333
635.60 4.702277
635.70 4.517856
635.80 4.253889
635.90 3.948727
636.00 3.614976
636.10 3.29141
636.20 3.042768
636.30 2.913044
636.40 2.897003
636.50 2.976184
636.60 3.129091
636.70 3.322825
636.80 3.51168
636.90 3.658967
637.00 3.76376
637.10 3.830338
637.20 3.822167
637.30 3.727307
637.40 3.584486
637.50 3.446906
637.60 3.350873
637.70 3.310824
637.80 3.328005
637.90 3.388643
638.00 3.497553
638.10 3.65629
638.20 3.854393
638.30 4.080126
638.40 4.312629
638.50 4.521683
638.60 4.684794
638.70 4.801429
638.80 4.875783
638.90 4.899864
639.00 4.859441
639.10 4.760589
639.20 4.635927
639.30 4.511931
639.40 4.387679
639.50 4.272664
639.60 4.190983
639.70 4.156148
639.80 4.1682
639.90 4.232723
640.00 4.347119
640.10 4.48351
640.20 4.612065
640.30 4.700899
640.40 4.727362
640.50 4.686844
640.60 4.587087
640.70 4.444934
640.80 4.282609
640.90 4.118994
641.00 3.963007
641.10 3.823501
641.20 3.719025
641.30 3.660926
641.40 3.656342
641.50 3.717983
641.60 3.848076
641.70 4.041344
641.80 4.277035
641.90 4.506422
642.00 4.671534
642.10 4.729917
642.20 4.66725
642.30 4.505366
642.40 4.303242
642.50 4.124391
642.60 4.013509
642.70 4.001915
642.80 4.098295
642.90 4.272655
643.00 4.473242
643.10 4.643285
643.20 4.73704
643.30 4.748715
643.40 4.696953
643.50 4.608657
643.60 4.514921
643.70 4.428982
643.80 4.343229
643.90 4.263064
644.00 4.203269
644.10 4.158312
644.20 4.113188
644.30 4.070248
644.40 4.038331
644.50 4.024912
644.60 4.03866
644.70 4.082097
644.80 4.160424
644.90 4.269173
645.00 4.383569
645.10 4.477104
645.20 4.535391
645.30 4.541994
645.40 4.480297
645.50 4.357433
645.60 4.206632
645.70 4.060078
645.80 3.945198
645.90 3.881685
646.00 3.881241
646.10 3.943136
646.20 4.055813
646.30 4.21572
646.40 4.423083
646.50 4.671454
646.60 4.930443
646.70 5.155874
646.80 5.317102
646.90 5.40129
647.00 5.40571
647.10 5.346328
647.20 5.248199
647.30 5.135793
647.40 5.034248
647.50 4.966476
647.60 4.944664
647.70 4.953643
647.80 4.963308
647.90 4.947841
648.00 4.894979
648.10 4.816009
648.20 4.733892
648.30 4.669228
648.40 4.641278
648.50 4.653522
648.60 4.698914
648.70 4.77431
648.80 4.867425
648.90 4.958521
649.00 5.026268
649.10 5.067694
649.20 5.092502
649.30 5.110458
649.40 5.136951
649.50 5.169415
649.60 5.189877
649.70 5.173241
649.80 5.107677
649.90 5.012092
650.00 4.90954
650.10 4.823042
650.20 4.786999
650.30 4.822629
650.40 4.930917
650.50 5.090241
650.60 5.263513
650.70 5.416725
650.80 5.526407
650.90 5.60171
651.00 5.660102
651.10 5.712975
651.20 5.767334
651.30 5.823425
651.40 5.885545
651.50 5.956652
651.60 6.025348
651.70 6.07269
651.80 6.08662
651.90 6.062742
652.00 6.010273
652.10 5.950274
652.20 5.908333
652.30 5.893423
652.40 5.901129
652.50 5.940469
652.60 6.030589
652.70 6.178837
652.80 6.373355
652.90 6.581334
653.00 6.749793
653.10 6.844182
653.20 6.85472
653.30 6.790564
653.40 6.679123
653.50 6.552275
653.60 6.43844
653.70 6.355982
653.80 6.327999
653.90 6.383438
654.00 6.531852
654.10 6.751819
654.20 7.009744
654.30 7.277278
654.40 7.538536
654.50 7.768265
654.60 7.936342
654.70 8.029626
654.80 8.049743
654.90 7.9998
655.00 7.879477
655.10 7.705129
655.20 7.503986
655.30 7.290847
655.40 7.078612
655.50 6.893326
655.60 6.777409
655.70 6.791067
655.80 6.958264
655.90 7.249196
656.00 7.619737
656.10 8.021562
656.20 8.400558
656.30 8.69968
656.40 8.87414
656.50 8.90987
656.60 8.820288
656.70 8.63816
656.80 8.398722
656.90 8.133442
657.00 7.862064
657.10 7.584557
657.20 7.319627
657.30 7.101935
657.40 6.943954
657.50 6.833229
657.60 6.743076
657.70 6.649066
657.80 6.549656
657.90 6.464712
658.00 6.418134
658.10 6.420831
658.20 6.468844
658.30 6.556904
658.40 6.678907
658.50 6.810896
658.60 6.919459
658.70 6.979173
658.80 6.981133
658.90 6.924757
659.00 6.826611
659.10 6.740346
659.20 6.713285
659.30 6.747524
659.40 6.821897
659.50 6.920926
659.60 7.037471
659.70 7.160567
659.80 7.255415
659.90 7.287958
660.00 7.254096
660.10 7.182718
660.20 7.11543
660.30 7.083258
660.40 7.101325
660.50 7.161098
660.60 7.243272
660.70 7.349051
660.80 7.486542
660.90 7.639477
661.00 7.773014
661.10 7.84603
661.20 7.839181
661.30 7.761129
661.40 7.632116
661.50 7.47454
661.60 7.316058
661.70 7.198356
661.80 7.154521
661.90 7.183784
662.00 7.267126
662.10 7.357909
662.20 7.401584
662.30 7.370686
662.40 7.262703
662.50 7.11198
662.60 6.97485
662.70 6.890579
662.80 6.879947
662.90 6.961234
663.00 7.136327
663.10 7.366427
663.20 7.588978
663.30 7.759505
663.40 7.855551
663.50 7.877568
663.60 7.840911
663.70 7.771159
663.80 7.709965
663.90 7.679086
664.00 7.686177
664.10 7.751537
664.20 7.882258
664.30 8.05326
664.40 8.217577
664.50 8.347089
664.60 8.44224
664.70 8.512581
664.80 8.558145
664.90 8.572713
665.00 8.562186
665.10 8.534476
665.20 8.489292
665.30 8.432773
665.40 8.37429
665.50 8.314084
665.60 8.250556
665.70 8.177297
665.80 8.091316
665.90 8.000569
666.00 7.910317
666.10 7.819327
666.20 7.736104
666.30 7.676442
666.40 7.647287
666.50 7.655759
666.60 7.719313
666.70 7.852166
666.80 8.047897
666.90 8.27455
667.00 8.485081
667.10 8.648298
667.20 8.754033
667.30 8.80375
667.40 8.808313
667.50 8.778513
667.60 8.719012
667.70 8.636275
667.80 8.554332
667.90 8.499979
668.00 8.472933
668.10 8.456779
668.20 8.444962
668.30 8.445309
668.40 8.473025
668.50 8.529532
668.60 8.595696
668.70 8.645331
668.80 8.658071
668.90 8.619723
669.00 8.531878
669.10 8.408959
669.20 8.265515
669.30 8.12648
669.40 8.02503
669.50 7.988193
669.60 8.029963
669.70 8.138883
669.80 8.279047
669.90 8.416463
670.00 8.520934
670.10 8.555925
670.20 8.509042
670.30 8.401076
670.40 8.261814
670.50 8.129877
670.60 8.042641
670.70 8.025335
670.80 8.087637
670.90 8.227125
671.00 8.424572
671.10 8.648956
671.20 8.873758
671.30 9.073159
671.40 9.227954
671.50 9.328052
671.60 9.361154
671.70 9.329769
671.80 9.262397
671.90 9.178257
672.00 9.090141
672.10 9.012587
672.20 8.955372
672.30 8.920103
672.40 8.898843
672.50 8.882853
672.60 8.865074
672.70 8.83057
672.80 8.766659
672.90 8.679575
673.00 8.58174
673.10 8.488092
673.20 8.414053
673.30 8.385167
673.40 8.420772
673.50 8.515078
673.60 8.651766
673.70 8.815018
673.80 8.988104
673.90 9.154747
674.00 9.298037
674.10 9.408391
674.20 9.489343
674.30 9.540716
674.40 9.550761
674.50 9.512239
674.60 9.437145
674.70 9.352574
674.80 9.285107
674.90 9.250096
675.00 9.252084
675.10 9.29661
675.20 9.392558
675.30 9.522935
675.40 9.642938
675.50 9.70499
675.60 9.67487
675.70 9.554719
675.80 9.393504
675.90 9.240757
676.00 9.115981
676.10 9.024919
676.20 8.98344
676.30 9.015654
676.40 9.139083
676.50 9.336669
676.60 9.550626
676.70 9.736186
676.80 9.885371
676.90 10.00439
677.00 10.08794
677.10 10.11325
677.20 10.07247
677.30 9.994588
677.40 9.927009
677.50 9.900675
677.60 9.909709
677.70 9.926025
677.80 9.922428
677.90 9.892911
678.00 9.849823
678.10 9.798939
678.20 9.730214
678.30 9.631272
678.40 9.51374
678.50 9.410953
678.60 9.33356
678.70 9.26676
678.80 9.201703
678.90 9.14974
679.00 9.130698
679.10 9.149758
679.20 9.196102
679.30 9.251717
679.40 9.300537
679.50 9.330513
679.60 9.333962
679.70 9.319509
679.80 9.296083
679.90 9.261618
680.00 9.214985
680.10 9.158035
680.20 9.092631
680.30 9.020395
680.40 8.952009
680.50 8.915477
680.60 8.941251
680.70 9.031903
680.80 9.156755
680.90 9.274695
681.00 9.355969
681.10 9.38014
681.20 9.347564
681.30 9.275184
681.40 9.182781
681.50 9.095489
681.60 9.032371
681.70 9.001585
681.80 9.003827
681.90 9.032487
682.00 9.067225
682.10 9.094825
682.20 9.134149
682.30 9.21362
682.40 9.337435
682.50 9.480616
682.60 9.605071
682.70 9.680748
682.80 9.699981
682.90 9.671405
683.00 9.599152
683.10 9.487178
683.20 9.347697
683.30 9.188923
683.40 9.024557
683.50 8.874325
683.60 8.74886
683.70 8.653699
683.80 8.594197
683.90 8.578429
684.00 8.613681
684.10 8.693685
684.20 8.796794
684.30 8.892942
684.40 8.95881
684.50 8.976933
684.60 8.936558
684.70 8.845288
684.80 8.718515
684.90 8.564726
685.00 8.384576
685.10 8.192478
685.20 8.021179
685.30 7.900392
685.40 7.836158
685.50 7.821529
685.60 7.843653
685.70 7.880347
685.80 7.926702
685.90 7.995692
686.00 8.083527
686.10 8.16878
686.20 8.2376
686.30 8.286062
686.40 8.317141
686.50 8.330678
686.60 8.327564
686.70 8.316142
686.80 8.303395
686.90 8.295711
687.00 8.30531
687.10 8.344497
687.20 8.407525
687.30 8.4763
687.40 8.54075
687.50 8.599213
687.60 8.636204
687.70 8.633181
687.80 8.576536
687.90 8.463962
688.00 8.308227
688.10 8.136386
688.20 7.994716
688.30 7.930635
688.40 7.972646
688.50 8.123254
688.60 8.360178
688.70 8.633217
688.80 8.867655
688.90 8.991485
689.00 8.971211
689.10 8.801927
689.20 8.505683
689.30 8.134822
689.40 7.758847
689.50 7.437196
689.60 7.216647
689.70 7.126483
689.80 7.149762
689.90 7.246257
690.00 7.374392
690.10 7.497064
690.20 7.596914
690.30 7.668844
690.40 7.713186
690.50 7.740023
690.60 7.761409
690.70 7.785174
690.80 7.812172
690.90 7.84623
691.00 7.875782
691.10 7.875934
691.20 7.85367
691.30 7.824494
691.40 7.78363
691.50 7.725189
691.60 7.6581
691.70 7.602506
691.80 7.579141
691.90 7.616619
692.00 7.747188
692.10 7.970371
692.20 8.233015
692.30 8.466878
692.40 8.635281
692.50 8.740753
692.60 8.792746
692.70 8.802234
692.80 8.798444
692.90 8.80678
693.00 8.843525
693.10 8.915291
693.20 9.008341
693.30 9.10083
693.40 9.160733
693.50 9.162732
693.60 9.133108
693.70 9.114466
693.80 9.118484
693.90 9.142287
694.00 9.191659
694.10 9.282895
694.20 9.434771
694.30 9.673029
694.40 10.01494
694.50 10.44018
694.60 10.89111
694.70 11.28106
694.80 11.52068
694.90 11.55882
695.00 11.37659
695.10 10.99617
695.20 10.50394
695.30 10.00697
695.40 9.592007
695.50 9.324139
695.60 9.230141
695.70 9.289171
695.80 9.445954
695.90 9.638357
696.00 9.813389
696.10 9.944834
696.20 10.04735
696.30 10.15178
696.40 10.2841
696.50 10.44572
696.60 10.60682
696.70 10.73367
696.80 10.80116
696.90 10.79416
697.00 10.72546
697.10 10.61583
697.20 10.473
697.30 10.31799
697.40 10.18859
697.50 10.1086
697.60 10.0737
697.70 10.05899
697.80 10.03589
697.90 9.992545
698.00 9.932458
698.10 9.870542
698.20 9.83425
698.30 9.839407
698.40 9.879662
698.50 9.949105
698.60 10.04841
698.70 10.16132
698.80 10.25378
698.90 10.29994
699.00 10.28276
699.10 10.1953
699.20 10.0598
699.30 9.924329
699.40 9.83226
699.50 9.801875
699.60 9.832571
699.70 9.921101
699.80 10.05791
699.90 10.21449
700.00 10.36099
700.10 10.48114
700.20 10.57343
700.30 10.64328
700.40 10.70095
700.50 10.76781
700.60 10.85283
700.70 10.93917
700.80 11.00967
700.90 11.05604
701.00 11.07118
701.10 11.05396
701.20 11.00588
701.30 10.94296
701.40 10.89752
701.50 10.88824
701.60 10.92469
701.70 11.01287
701.80 11.15305
701.90 11.33689
702.00 11.54045
702.10 11.73163
702.20 11.88084
702.30 11.97432
702.40 12.01636
702.50 12.01531
702.60 11.99884
702.70 12.00718
702.80 12.04755
702.90 12.12378
703.00 12.24704
703.10 12.41374
703.20 12.60602
703.30 12.7926
703.40 12.95043
703.50 13.08377
703.60 13.22227
703.70 13.39539
703.80 13.61184
703.90 13.86865
704.00 14.14069
704.10 14.37998
704.20 14.55362
704.30 14.64644
704.40 14.65887
704.50 14.60974
704.60 14.52374
704.70 14.4279
704.80 14.34433
704.90 14.27677
705.00 14.21081
705.10 14.12096
705.20 13.98739
705.30 13.79856
705.40 13.56105
705.50 13.30931
705.60 13.08786
705.70 12.93179
705.80 12.85222
705.90 12.83612
706.00 12.86603
706.10 12.93888
706.20 13.05122
706.30 13.18381
706.40 13.30387
706.50 13.38256
706.60 13.41243
706.70 13.41752
706.80 13.4233
706.90 13.43817
707.00 13.46708
707.10 13.50386
707.20 13.53674
707.30 13.56533
707.40 13.5994
707.50 13.63126
707.60 13.64603
707.70 13.63436
707.80 13.58647
707.90 13.50063
708.00 13.38954
708.10 13.26267
708.20 13.11763
708.30 12.95375
708.40 12.77318
708.50 12.59825
708.60 12.46544
708.70 12.39507
708.80 12.37852
708.90 12.39981
709.00 12.44402
709.10 12.50215
709.20 12.57711
709.30 12.66386
709.40 12.74396
709.50 12.79291
709.60 12.79704
709.70 12.77039
709.80 12.75175
709.90 12.77619
710.00 12.85132
710.10 12.9635
710.20 13.10042
710.30 13.24872
710.40 13.39153
710.50 13.51468
710.60 13.59935
710.70 13.6317
710.80 13.60279
710.90 13.53193
711.00 13.47057
711.10 13.44507
711.20 13.44738
711.30 13.46971
711.40 13.5122
711.50 13.57591
711.60 13.65662
711.70 13.74795
711.80 13.83846
711.90 13.91253
712.00 13.9665
712.10 14.01003
712.20 14.04855
712.30 14.06209
712.40 14.03824
712.50 13.99401
712.60 13.94566
712.70 13.89678
712.80 13.85498
712.90 13.82789
713.00 13.81298
713.10 13.80282
713.20 13.79237
713.30 13.78063
713.40 13.76335
713.50 13.73043
713.60 13.68327
713.70 13.63857
713.80 13.60362
713.90 13.58034
714.00 13.58283
714.10 13.62793
714.20 13.71396
714.30 13.8307
714.40 13.97044
714.50 14.1184
714.60 14.25315
714.70 14.35994
714.80 14.43898
714.90 14.50289
715.00 14.55969
715.10 14.60958
715.20 14.658
715.30 14.70782
715.40 14.74754
715.50 14.7661
715.60 14.76315
715.70 14.74289
715.80 14.71944
715.90 14.71243
716.00 14.73386
716.10 14.78413
716.20 14.8645
716.30 14.97889
716.40 15.1286
716.50 15.29963
716.60 15.45177
716.70 15.55037
716.80 15.59297
716.90 15.5987
717.00 15.58724
717.10 15.5715
717.20 15.55919
717.30 15.54665
717.40 15.52971
717.50 15.51247
717.60 15.48339
717.70 15.42016
717.80 15.32049
717.90 15.21247
718.00 15.13777
718.10 15.12714
718.20 15.18207
718.30 15.27462
718.40 15.37888
718.50 15.48629
718.60 15.59258
718.70 15.69485
718.80 15.79361
718.90 15.88715
719.00 15.97795
719.10 16.0669
719.20 16.14511
719.30 16.19481
719.40 16.19559
719.50 16.15427
719.60 16.10255
719.70 16.06898
719.80 16.07729
719.90 16.14491
720.00 16.27659
720.10 16.45669
720.20 16.64723
720.30 16.80353
720.40 16.89361
720.50 16.91313
720.60 16.87244
720.70 16.79203
720.80 16.71313
720.90 16.66048
721.00 16.63295
721.10 16.63514
721.20 16.67857
721.30 16.75925
721.40 16.8546
721.50 16.94722
721.60 17.03492
721.70 17.12292
721.80 17.21129
721.90 17.2903
722.00 17.35456
722.10 17.40558
722.20 17.43057
722.30 17.41655
722.40 17.37894
722.50 17.3479
722.60 17.34353
722.70 17.37864
722.80 17.46524
722.90 17.60327
723.00 17.76616
723.10 17.91495
723.20 18.02568
723.30 18.08771
723.40 18.11368
723.50 18.1532
723.60 18.26758
723.70 18.48658
723.80 18.76977
723.90 19.04581
724.00 19.29551
724.10 19.50916
724.20 19.63792
724.30 19.64238
724.40 19.53442
724.50 19.35438
724.60 19.13723
724.70 18.93098
724.80 18.78216
724.90 18.70111
725.00 18.67268
725.10 18.68836
725.20 18.77462
725.30 18.94604
725.40 19.14331
725.50 19.31057
725.60 19.43985
725.70 19.5486
725.80 19.65254
725.90 19.75125
726.00 19.83588
726.10 19.88531
726.20 19.87726
726.30 19.79847
726.40 19.65823
726.50 19.48207
726.60 19.29978
726.70 19.14643
726.80 19.05615
726.90 19.06186
727.00 19.19174
727.10 19.4452
727.20 19.80711
727.30 20.22852
727.40 20.62038
727.50 20.90172
727.60 21.02868
727.70 20.99635
727.80 20.84431
727.90 20.6585
728.00 20.51984
728.10 20.47563
728.20 20.53804
728.30 20.66455
728.40 20.78853
728.50 20.84578
728.60 20.76944
728.70 20.54199
728.80 20.22077
728.90 19.89497
729.00 19.65066
729.10 19.56288
729.20 19.66084
729.30 19.89597
729.40 20.19628
729.50 20.50259
729.60 20.76131
729.70 20.95344
729.80 21.08083
729.90 21.14746
730.00 21.174
730.10 21.18181
730.20 21.19343
730.30 21.22511
730.40 21.2695
730.50 21.32846
730.60 21.4271
730.70 21.58917
730.80 21.82163
730.90 22.11767
731.00 22.46189
731.10 22.83542
731.20 23.23337
731.30 23.62251
731.40 23.92196
731.50 24.08542
731.60 24.11232
731.70 24.02804
731.80 23.88246
731.90 23.71038
732.00 23.52385
732.10 23.33674
732.20 23.17678
732.30 23.08929
732.40 23.11721
732.50 23.24315
732.60 23.3674
732.70 23.40559
732.80 23.33437
732.90 23.1611
733.00 22.91451
733.10 22.63285
733.20 22.37279
733.30 22.2118
733.40 22.23499
733.50 22.51078
733.60 23.0562
733.70 23.7865
733.80 24.54882
733.90 25.19979
734.00 25.63919
734.10 25.81082
734.20 25.70373
734.30 25.35351
734.40 24.81687
734.50 24.18305
734.60 23.56742
734.70 23.05819
734.80 22.68786
734.90 22.45406
735.00 22.33595
735.10 22.32448
735.20 22.40844
735.30 22.54987
735.40 22.72272
735.50 22.9116
735.60 23.08717
735.70 23.21017
735.80 23.27204
735.90 23.27517
736.00 23.22368
736.10 23.15623
736.20 23.12897
736.30 23.17593
736.40 23.32577
736.50 23.58436
736.60 23.90155
736.70 24.22376
736.80 24.48983
736.90 24.62531
737.00 24.5944
737.10 24.41087
737.20 24.10805
737.30 23.7309
737.40 23.32663
737.50 22.93504
737.60 22.60255
737.70 22.38373
737.80 22.28538
737.90 22.27539
738.00 22.33651
738.10 22.4414
738.20 22.55974
738.30 22.67417
738.40 22.7769
738.50 22.85649
738.60 22.91487
738.70 22.99124
738.80 23.11024
738.90 23.25358
739.00 23.38789
739.10 23.47057
739.20 23.4458
739.30 23.28064
739.40 22.9863
739.50 22.62194
739.60 22.27889
739.70 22.05006
739.80 21.99609
739.90 22.12726
740.00 22.40426
740.10 22.73521
740.20 23.02154
740.30 23.20419
740.40 23.2551
740.50 23.17488
740.60 23.00291
740.70 22.78285
740.80 22.55623
740.90 22.35893
741.00 22.19596
741.10 22.06108
741.20 21.962
741.30 21.91176
741.40 21.91207
741.50 21.96156
741.60 22.04776
741.70 22.14382
741.80 22.21601
741.90 22.23591
742.00 22.18828
742.10 22.07918
742.20 21.93737
742.30 21.79647
742.40 21.69996
742.50 21.69288
742.60 21.77921
742.70 21.92913
742.80 22.1083
742.90 22.26988
743.00 22.37176
743.10 22.39243
743.20 22.32803
743.30 22.18587
743.40 21.98619
743.50 21.77343
743.60 21.61066
743.70 21.54421
743.80 21.57683
743.90 21.67983
744.00 21.81464
744.10 21.93668
744.20 21.98657
744.30 21.92348
744.40 21.74203
744.50 21.45491
744.60 21.09666
744.70 20.72858
744.80 20.42798
744.90 20.25727
745.00 20.22762
745.10 20.30742
745.20 20.44957
745.30 20.58609
745.40 20.6561
745.50 20.64706
745.60 20.57767
745.70 20.47679
745.80 20.38747
745.90 20.36025
746.00 20.42669
746.10 20.58634
746.20 20.80762
746.30 21.03471
746.40 21.21424
746.50 21.32474
746.60 21.37777
746.70 21.41213
746.80 21.46306
746.90 21.52984
747.00 21.60977
747.10 21.70523
747.20 21.79678
747.30 21.85713
747.40 21.87415
747.50 21.83883
747.60 21.76568
747.70 21.71168
747.80 21.73326
747.90 21.85112
748.00 22.05926
748.10 22.32958
748.20 22.59524
748.30 22.77263
748.40 22.81302
748.50 22.72069
748.60 22.52528
748.70 22.26095
748.80 21.96451
748.90 21.69263
749.00 21.50457
749.10 21.41972
749.20 21.42388
749.30 21.4847
749.40 21.55307
749.50 21.58751
749.60 21.59467
749.70 21.61315
749.80 21.65423
749.90 21.70835
750.00 21.78434
750.10 21.8921
750.20 22.02289
750.30 22.15968
750.40 22.2777
750.50 22.35181
750.60 22.3702
750.70 22.33314
750.80 22.25621
750.90 22.16643
751.00 22.08224
751.10 22.02399
751.20 22.03074
751.30 22.1181
751.40 22.26003
751.50 22.40886
751.60 22.5198
751.70 22.57984
751.80 22.60792
751.90 22.64351
752.00 22.71509
752.10 22.8195
752.20 22.94613
752.30 23.08589
752.40 23.23057
752.50 23.358
752.60 23.4271
752.70 23.40351
752.80 23.27577
752.90 23.06383
753.00 22.81298
753.10 22.57025
753.20 22.3671
753.30 22.21368
753.40 22.11182
753.50 22.07866
753.60 22.11547
753.70 22.18768
753.80 22.25099
753.90 22.2791
754.00 22.26123
754.10 22.20142
754.20 22.12283
754.30 22.04991
754.40 21.99264
754.50 21.93925
754.60 21.87295
754.70 21.78398
754.80 21.67814
754.90 21.58129
755.00 21.5251
755.10 21.54301
755.20 21.65634
755.30 21.84344
755.40 22.05282
755.50 22.24501
755.60 22.39255
755.70 22.47916
755.80 22.51024
755.90 22.49943
756.00 22.45265
756.10 22.37333
756.20 22.26736
756.30 22.14029
756.40 21.99131
756.50 21.83636
756.60 21.72981
756.70 21.7183
756.80 21.81079
756.90 21.97867
757.00 22.18147
757.10 22.36836
757.20 22.48104
757.30 22.49301
757.40 22.41695
757.50 22.29504
757.60 22.17406
757.70 22.09251
757.80 22.08789
757.90 22.16206
758.00 22.27044
758.10 22.36839
758.20 22.41798
758.30 22.38395
758.40 22.23627
758.50 21.96492
758.60 21.5864
758.70 21.13271
758.80 20.639
758.90 20.13242
759.00 19.64915
759.10 19.23262
759.20 18.92225
759.30 18.75964
759.40 18.75758
759.50 18.88352
759.60 19.09796
759.70 19.36513
759.80 19.65135
759.90 19.9229
760.00 20.12181
760.10 20.19141
760.20 20.11647
760.30 19.91541
760.40 19.63143
760.50 19.31723
760.60 19.00857
760.70 18.70167
760.80 18.37924
760.90 18.05996
761.00 17.78328
761.10 17.57798
761.20 17.45066
761.30 17.40369
761.40 17.45386
761.50 17.5863
761.60 17.75355
761.70 17.9118
761.80 17.99891
761.90 17.94954
762.00 17.74622
762.10 17.42702
762.20 17.06329
762.30 16.72232
762.40 16.43565
762.50 16.19505
762.60 15.96294
762.70 15.69704
762.80 15.36538
762.90 14.96452
763.00 14.51351
763.10 14.04214
763.20 13.58224
763.30 13.15936
763.40 12.79337
763.50 12.49205
763.60 12.25836
763.70 12.07183
763.80 11.89176
763.90 11.68075
764.00 11.41911
764.10 11.09945
764.20 10.72823
764.30 10.32458
764.40 9.904631
764.50 9.474136
764.60 9.049292
764.70 8.668157
764.80 8.344541
764.90 8.061523
765.00 7.792772
765.10 7.513628
765.20 7.206997
765.30 6.859894
765.40 6.464683
765.50 6.028029
765.60 5.568387
765.70 5.111409
765.80 4.684868
765.90 4.305971
766.00 3.989946
766.10 3.735952
766.20 3.532602
766.30 3.375797
766.40 3.247746
766.50 3.140448
766.60 3.073263
766.70 3.074105
766.80 3.165542
766.90 3.350972
767.00 3.616004
767.10 3.936658
767.20 4.287057
767.30 4.652453
767.40 5.019745
767.50 5.369384
767.60 5.691703
767.70 5.985946
767.80 6.2619
767.90 6.537487
768.00 6.82504
768.10 7.122728
768.20 7.413538
768.30 7.675727
768.40 7.88227
768.50 7.999575
768.60 8.003608
768.70 7.895274
768.80 7.702325
768.90 7.468557
769.00 7.226366
769.10 6.982058
769.20 6.731971
769.30 6.466065
769.40 6.175937
769.50 5.861259
769.60 5.52554
769.70 5.177204
769.80 4.839898
769.90 4.553695
770.00 4.356473
770.10 4.265297
770.20 4.272314
770.30 4.365832
770.40 4.533178
770.50 4.766702
770.60 5.083111
770.70 5.532887
770.80 6.146596
770.90 6.888919
771.00 7.714475
771.10 8.578536
771.20 9.419221
771.30 10.14012
771.40 10.63885
771.50 10.86237
771.60 10.81623
771.70 10.56711
771.80 10.25224
771.90 10.05062
772.00 10.09298
772.10 10.40365
772.20 10.94499
772.30 11.68518
772.40 12.54907
772.50 13.40902
772.60 14.13396
772.70 14.65791
772.80 14.99275
772.90 15.17802
773.00 15.2694
773.10 15.31786
773.20 15.34995
773.30 15.38471
773.40 15.44307
773.50 15.54698
773.60 15.70592
773.70 15.90194
773.80 16.11674
773.90 16.3435
774.00 16.58392
774.10 16.83732
774.20 17.08169
774.30 17.29325
774.40 17.47636
774.50 17.6543
774.60 17.84578
774.70 18.066
774.80 18.31608
774.90 18.57019
775.00 18.80512
775.10 18.98535
775.20 19.07873
775.30 19.09342
775.40 19.06047
775.50 19.01266
775.60 18.98798
775.70 19.01988
775.80 19.10301
775.90 19.19798
776.00 19.27463
776.10 19.31012
776.20 19.29094
776.30 19.23113
776.40 19.15489
776.50 19.1169
776.60 19.17308
776.70 19.34059
776.80 19.61127
776.90 19.95875
777.00 20.33755
777.10 20.68538
777.20 20.93831
777.30 21.05755
777.40 21.02276
777.50 20.83426
777.60 20.55947
777.70 20.29485
777.80 20.11486
777.90 20.07339
778.00 20.17892
778.10 20.38669
778.20 20.62489
778.30 20.82143
778.40 20.92506
778.50 20.92049
778.60 20.83693
778.70 20.7436
778.80 20.73526
778.90 20.88767
779.00 21.1913
779.10 21.57449
779.20 21.93752
779.30 22.16115
779.40 22.12948
779.50 21.75816
779.60 21.00316
779.70 19.88543
779.80 18.52674
779.90 17.12518
780.00 15.91895
780.10 15.12017
780.20 14.86684
780.30 15.19961
780.40 16.05363
780.50 17.27103
780.60 18.63914
780.70 19.91738
780.80 20.91605
780.90 21.54297
781.00 21.80861
781.10 21.81039
781.20 21.67065
781.30 21.52469
781.40 21.4928
781.50 21.65968
781.60 22.05506
781.70 22.62057
781.80 23.246
781.90 23.82345
782.00 24.27579
782.10 24.55536
782.20 24.63095
782.30 24.52205
782.40 24.28144
782.50 23.96263
782.60 23.62016
782.70 23.29677
782.80 23.02738
782.90 22.82456
783.00 22.66744
783.10 22.56788
783.20 22.57314
783.30 22.69717
783.40 22.89427
783.50 23.13373
783.60 23.42114
783.70 23.74354
783.80 24.08255
783.90 24.42984
784.00 24.80033
784.10 25.20976
784.20 25.64876
784.30 26.10321
784.40 26.55998
784.50 26.97164
784.60 27.2397
784.70 27.31029
784.80 27.25413
784.90 27.17512
785.00 27.08904
785.10 26.98128
785.20 26.88294
785.30 26.84025
785.40 26.8628
785.50 26.92515
785.60 27.01231
785.70 27.11168
785.80 27.21092
785.90 27.30018
786.00 27.39062
786.10 27.48571
786.20 27.51344
786.30 27.38897
786.40 27.16168
786.50 26.94988
786.60 26.81809
786.70 26.7675
786.80 26.76159
786.90 26.75779
787.00 26.68318
787.10 26.46834
787.20 26.09832
787.30 25.62374
787.40 25.14055
787.50 24.751
787.60 24.56006
787.70 24.66566
787.80 25.07728
787.90 25.70815
788.00 26.42762
788.10 27.0952
788.20 27.60632
788.30 27.90843
788.40 28.02913
788.50 28.03676
788.60 27.96487
788.70 27.84739
788.80 27.73378
788.90 27.67359
789.00 27.6976
789.10 27.77134
789.20 27.83996
789.30 27.86544
789.40 27.83806
789.50 27.76344
789.60 27.63437
789.70 27.44395
789.80 27.17865
789.90 26.84061
790.00 26.48516
790.10 26.18068
790.20 25.97262
790.30 25.88164
790.40 25.91043
790.50 26.06037
790.60 26.29838
790.70 26.55208
790.80 26.7732
790.90 26.977
791.00 27.18968
791.10 27.42389
791.20 27.6392
791.30 27.79212
791.40 27.87747
791.50 27.88475
791.60 27.82913
791.70 27.7226
791.80 27.5625
791.90 27.36162
792.00 27.1601
792.10 27.00786
792.20 26.90248
792.30 26.78931
792.40 26.63016
792.50 26.42514
792.60 26.24488
792.70 26.17976
792.80 26.29275
792.90 26.61952
793.00 27.13966
793.10 27.80532
793.20 28.55166
793.30 29.27504
793.40 29.85247
793.50 30.18217
793.60 30.21305
793.70 29.96749
793.80 29.52162
793.90 28.95694
794.00 28.33752
794.10 27.70555
794.20 27.05856
794.30 26.36039
794.40 25.57454
794.50 24.71063
794.60 23.83534
794.70 23.06142
794.80 22.5265
794.90 22.36031
795.00 22.64765
795.10 23.37642
795.20 24.43778
795.30 25.67203
795.40 26.91271
795.50 27.98874
795.60 28.77424
795.70 29.22939
795.80 29.40748
795.90 29.44815
796.00 29.4625
796.10 29.48208
796.20 29.53657
796.30 29.66424
796.40 29.86283
796.50 30.08655
796.60 30.27835
796.70 30.39706
796.80 30.42357
796.90 30.3702
797.00 30.26099
797.10 30.13214
797.20 30.00175
797.30 29.84057
797.40 29.67123
797.50 29.57906
797.60 29.60772
797.70 29.72121
797.80 29.872
797.90 30.03345
798.00 30.1812
798.10 30.28167
798.20 30.29107
798.30 30.18659
798.40 29.98281
798.50 29.71906
798.60 29.45565
798.70 29.27648
798.80 29.2248
798.90 29.2716
799.00 29.40095
799.10 29.632
799.20 29.94468
799.30 30.29317
799.40 30.61923
799.50 30.8693
799.60 31.03346
799.70 31.12685
799.80 31.19142
799.90 31.26867
800.00 31.37985
800.10 31.51992
800.20 31.67811
800.30 31.86023
800.40 32.02416
800.50 32.11423
800.60 32.1175
800.70 32.04039
800.80 31.93411
800.90 31.88485
801.00 31.96232
801.10 32.20108
801.20 32.56086
801.30 32.94816
801.40 33.28038
801.50 33.49078
801.60 33.53819
801.70 33.42975
801.80 33.22208
801.90 32.97725
802.00 32.76375
802.10 32.6669
802.20 32.73598
802.30 32.99526
802.40 33.45296
802.50 34.06656
802.60 34.78095
802.70 35.53494
802.80 36.24063
802.90 36.82194
803.00 37.24056
803.10 37.47764
803.20 37.52208
803.30 37.38344
803.40 37.09618
803.50 36.71889
803.60 36.33573
803.70 36.00831
803.80 35.75885
803.90 35.60422
804.00 35.56524
804.10 35.67461
804.20 35.93321
804.30 36.27983
804.40 36.61927
804.50 36.88035
804.60 37.0313
804.70 37.09612
804.80 37.17854
804.90 37.38831
805.00 37.78179
805.10 38.36526
805.20 39.10184
805.30 39.92607
805.40 40.73674
805.50 41.41534
805.60 41.89246
805.70 42.1307
805.80 42.13197
805.90 41.96426
806.00 41.72902
806.10 41.50311
806.20 41.28941
806.30 41.07181
806.40 40.87326
806.50 40.728
806.60 40.66443
806.70 40.70169
806.80 40.85459
806.90 41.13222
807.00 41.50609
807.10 41.95414
807.20 42.48549
807.30 43.07769
807.40 43.67059
807.50 44.20919
807.60 44.65155
807.70 44.97571
807.80 45.1829
807.90 45.31261
808.00 45.42701
808.10 45.57449
808.20 45.77071
808.30 45.99773
808.40 46.23321
808.50 46.43427
808.60 46.52383
808.70 46.4473
808.80 46.20712
808.90 45.85654
809.00 45.48646
809.10 45.1815
809.20 45.00032
809.30 44.9636
809.40 45.03704
809.50 45.15723
809.60 45.26438
809.70 45.31336
809.80 45.29377
809.90 45.24743
810.00 45.24378
810.10 45.32971
810.20 45.52758
810.30 45.83291
810.40 46.20746
810.50 46.59515
810.60 46.93045
810.70 47.15612
810.80 47.25573
810.90 47.26896
811.00 47.26524
811.10 47.30346
811.20 47.40841
811.30 47.58788
811.40 47.84719
811.50 48.19687
811.60 48.65422
811.70 49.21164
811.80 49.80161
811.90 50.31889
812.00 50.67149
812.10 50.80003
812.20 50.71825
812.30 50.49702
812.40 50.23349
812.50 50.05133
812.60 50.05791
812.70 50.29914
812.80 50.74329
812.90 51.30144
813.00 51.84508
813.10 52.25158
813.20 52.4827
813.30 52.61221
813.40 52.76371
813.50 53.04545
813.60 53.48819
813.70 54.02364
813.80 54.52231
813.90 54.82601
814.00 54.79828
814.10 54.38555
814.20 53.63364
814.30 52.68201
814.40 51.69181
814.50 50.81214
814.60 50.19191
814.70 49.92169
814.80 49.99584
814.90 50.32068
815.00 50.77582
815.10 51.26997
815.20 51.75546
815.30 52.21596
815.40 52.65535
815.50 53.07261
815.60 53.457
815.70 53.77109
815.80 53.98975
815.90 54.14003
816.00 54.27279
816.10 54.44003
816.20 54.68267
816.30 54.99556
816.40 55.32767
816.50 55.63992
816.60 55.92171
816.70 56.17082
816.80 56.38347
816.90 56.58368
817.00 56.80622
817.10 57.09456
817.20 57.49056
817.30 57.97886
817.40 58.4495
817.50 58.72271
817.60 58.62683
817.70 58.0848
817.80 57.08714
817.90 55.63872
818.00 53.77699
818.10 51.62792
818.20 49.41869
818.30 47.43853
818.40 45.975
818.50 45.21433
818.60 45.20224
818.70 45.83369
818.80 46.8797
818.90 48.01262
819.00 48.86284
819.10 49.12452
819.20 48.66202
819.30 47.54572
819.40 46.01747
819.50 44.44401
819.60 43.21388
819.70 42.60721
819.80 42.74365
819.90 43.62366
820.00 45.13936
820.10 47.06789
820.20 49.11763
820.30 51.01618
820.40 52.59404
820.50 53.79945
820.60 54.65661
820.70 55.228
820.80 55.60752
820.90 55.87952
821.00 56.07495
821.10 56.18753
821.20 56.22752
821.30 56.21046
821.40 56.1333
821.50 55.99809
821.60 55.84277
821.70 55.75215
821.80 55.79523
821.90 55.99539
822.00 56.3283
822.10 56.73083
822.20 57.12761
822.30 57.45712
822.40 57.72787
822.50 57.99494
822.60 58.29178
822.70 58.60091
822.80 58.90269
822.90 59.21127
823.00 59.51669
823.10 59.77862
823.20 59.95215
823.30 60.01469
823.40 60.00207
823.50 59.99064
823.60 60.04041
823.70 60.17695
823.80 60.38741
823.90 60.62572
824.00 60.84855
824.10 61.05652
824.20 61.26602
824.30 61.51125
824.40 61.86337
824.50 62.38316
824.60 63.08698
824.70 63.88088
824.80 64.57757
824.90 65.0004
825.00 65.06294
825.10 64.76464
825.20 64.15368
825.30 63.33819
825.40 62.48624
825.50 61.77151
825.60 61.34665
825.70 61.28917
825.80 61.54769
825.90 61.98137
826.00 62.442
826.10 62.84338
826.20 63.15874
826.30 63.38219
826.40 63.50874
826.50 63.55309
826.60 63.57916
826.70 63.65867
826.80 63.80379
826.90 63.97241
827.00 64.08365
827.10 64.08425
827.20 64.00205
827.30 63.91851
827.40 63.91166
827.50 64.02885
827.60 64.28474
827.70 64.64072
827.80 65.01294
827.90 65.29787
828.00 65.39039
828.10 65.24475
828.20 64.86662
828.30 64.31123
828.40 63.71507
828.50 63.20839
828.60 62.83322
828.70 62.55433
828.80 62.30497
828.90 62.01472
829.00 61.64622
829.10 61.22018
829.20 60.80162
829.30 60.46063
829.40 60.27071
829.50 60.27226
829.60 60.4636
829.70 60.801
829.80 61.16108
829.90 61.36948
830.00 61.31874
830.10 60.99529
830.20 60.43521
830.30 59.73178
830.40 58.986
830.50 58.29209
830.60 57.74546
830.70 57.43221
830.80 57.39419
830.90 57.60964
831.00 58.03659
831.10 58.60396
831.20 59.21016
831.30 59.78638
831.40 60.29095
831.50 60.69029
831.60 60.97108
831.70 61.15499
831.80 61.30144
831.90 61.4593
832.00 61.63338
832.10 61.81449
832.20 61.97209
832.30 62.05283
832.40 61.99608
832.50 61.78649
832.60 61.47372
832.70 61.13355
832.80 60.8495
832.90 60.69998
833.00 60.7512
833.10 61.00265
833.20 61.37243
833.30 61.7718
833.40 62.14251
833.50 62.45138
833.60 62.70473
833.70 62.94509
833.80 63.21546
833.90 63.49774
834.00 63.72331
834.10 63.83604
834.20 63.91132
834.30 64.07842
834.40 64.36635
834.50 64.74731
834.60 65.17203
834.70 65.57838
834.80 65.88249
834.90 65.98789
835.00 65.82162
835.10 65.37972
835.20 64.75158
835.30 64.0984
835.40 63.59148
835.50 63.35869
835.60 63.36549
835.70 63.46022
835.80 63.55194
835.90 63.62212
836.00 63.69387
836.10 63.80975
836.20 64.01669
836.30 64.36178
836.40 64.87965
836.50 65.54581
836.60 66.26893
836.70 66.93693
836.80 67.45911
836.90 67.75425
837.00 67.74071
837.10 67.40234
837.20 66.78528
837.30 65.96208
837.40 65.05056
837.50 64.20142
837.60 63.56112
837.70 63.25953
837.80 63.356
837.90 63.79865
838.00 64.46038
838.10 65.16763
838.20 65.73945
838.30 66.02547
838.40 65.92178
838.50 65.3992
838.60 64.53469
838.70 63.47997
838.80 62.40347
838.90 61.4675
839.00 60.81539
839.10 60.5112
839.20 60.55818
839.30 60.96246
839.40 61.66708
839.50 62.57455
839.60 63.66542
839.70 64.93408
839.80 66.32441
839.90 67.7556
840.00 69.07653
840.10 70.09805
840.20 70.71113
840.30 70.89836
840.40 70.73043
840.50 70.33953
840.60 69.85552
840.70 69.37361
840.80 68.96463
840.90 68.69648
841.00 68.53931
841.10 68.40575
841.20 68.27229
841.30 68.15308
841.40 68.1069
841.50 68.21391
841.60 68.47059
841.70 68.78834
841.80 69.04292
841.90 69.11963
842.00 68.95049
842.10 68.55338
842.20 68.02378
842.30 67.46229
842.40 66.95655
842.50 66.55556
842.60 66.26121
842.70 66.15027
842.80 66.30388
842.90 66.68544
843.00 67.19125
843.10 67.64314
843.20 67.80966
843.30 67.50335
843.40 66.6591
843.50 65.31412
843.60 63.60602
843.70 61.73861
843.80 59.93229
843.90 58.42856
844.00 57.40346
844.10 56.79123
844.20 56.38043
844.30 56.01534
844.40 55.60394
844.50 55.13817
844.60 54.67169
844.70 54.25693
844.80 53.83543
844.90 53.29981
845.00 52.66413
845.10 52.04332
845.20 51.5482
845.30 51.22804
845.40 51.07012
845.50 51.03999
845.60 51.12927
845.70 51.31079
845.80 51.51488
845.90 51.66279
846.00 51.72577
846.10 51.73884
846.20 51.78376
846.30 51.92676
846.40 52.18566
846.50 52.53733
846.60 52.90334
846.70 53.20246
846.80 53.3891
846.90 53.45819
847.00 53.40752
847.10 53.25288
847.20 53.04328
847.30 52.83341
847.40 52.63722
847.50 52.42953
847.60 52.25766
847.70 52.21028
847.80 52.25407
847.90 52.25787
848.00 52.12212
848.10 51.81198
848.20 51.39509
848.30 50.98603
848.40 50.6588
848.50 50.45178
848.60 50.38905
848.70 50.49942
848.80 50.79723
848.90 51.28763
849.00 51.93964
849.10 52.68431
849.20 53.47452
849.30 54.26887
849.40 54.99649
849.50 55.5523
849.60 55.80482
849.70 55.69205
849.80 55.27818
849.90 54.71209
850.00 54.15588
850.10 53.73858
850.20 53.57727
850.30 53.72587
850.40 54.17107
850.50 54.84997
850.60 55.617
850.70 56.30576
850.80 56.80188
850.90 57.06101
851.00 57.08279
851.10 56.86918
851.20 56.42057
851.30 55.76585
851.40 54.97451
851.50 54.11382
851.60 53.19155
851.70 52.15158
851.80 50.91056
851.90 49.42812
852.00 47.78892
852.10 46.22588
852.20 45.0326
852.30 44.45609
852.40 44.64029
852.50 45.59578
852.60 47.20256
852.70 49.21787
852.80 51.32014
852.90 53.20237
853.00 54.64176
853.10 55.58127
853.20 56.08554
853.30 56.2321
853.40 56.10821
853.50 55.79832
853.60 55.40704
853.70 55.07721
853.80 54.91732
853.90 54.96031
854.00 55.20198
854.10 55.60922
854.20 56.10209
854.30 56.5546
854.40 56.87212
854.50 57.02382
854.60 57.08337
854.70 57.24101
854.80 57.66427
854.90 58.40727
855.00 59.40004
855.10 60.47075
855.20 61.44868
855.30 62.22429
855.40 62.71684
855.50 62.88202
855.60 62.74727
855.70 62.41886
855.80 62.02685
855.90 61.66646
856.00 61.34366
856.10 61.01704
856.20 60.6797
856.30 60.36538
856.40 60.12389
856.50 60.003
856.60 60.01946
856.70 60.15834
856.80 60.3797
856.90 60.60239
857.00 60.7473
857.10 60.76638
857.20 60.63276
857.30 60.35052
857.40 59.98117
857.50 59.62128
857.60 59.35781
857.70 59.24318
857.80 59.2858
857.90 59.46971
858.00 59.77043
858.10 60.14519
858.20 60.54355
858.30 60.93759
858.40 61.33359
858.50 61.72843
858.60 62.08507
858.70 62.34246
858.80 62.45014
858.90 62.36943
859.00 62.08129
859.10 61.64656
859.20 61.19936
859.30 60.86842
859.40 60.75753
859.50 60.91954
859.60 61.30131
859.70 61.80621
859.80 62.31481
859.90 62.69662
860.00 62.86873
860.10 62.81919
860.20 62.58968
860.30 62.27877
860.40 62.00466
860.50 61.80615
860.60 61.6241
860.70 61.36322
860.80 60.8967
860.90 60.11844
861.00 59.05067
861.10 57.74433
861.20 56.20829
861.30 54.48964
861.40 52.69314
861.50 50.96415
861.60 49.45085
861.70 48.2419
861.80 47.35464
861.90 46.76706
862.00 46.42799
862.10 46.24519
862.20 46.11601
862.30 45.95702
862.40 45.69155
862.50 45.27085
862.60 44.73475
862.70 44.19743
862.80 43.79066
862.90 43.59151
863.00 43.60129
863.10 43.78581
863.20 44.09015
863.30 44.43417
863.40 44.71922
863.50 44.88472
863.60 44.93323
863.70 44.90873
863.80 44.87289
863.90 44.90889
864.00 45.09675
864.10 45.4597
864.20 45.96279
864.30 46.55125
864.40 47.17742
864.50 47.82986
864.60 48.5173
864.70 49.22711
864.80 49.94811
864.90 50.69111
865.00 51.47464
865.10 52.26819
865.20 52.98007
865.30 53.54252
865.40 53.93458
865.50 54.17801
865.60 54.34879
865.70 54.55713
865.80 54.87463
865.90 55.25311
866.00 55.584
866.10 55.79133
866.20 55.85948
866.30 55.80072
866.40 55.59891
866.50 55.27191
866.60 54.89928
866.70 54.54468
866.80 54.23796
866.90 53.99779
867.00 53.8203
867.10 53.64565
867.20 53.39159
867.30 53.08551
867.40 52.85991
867.50 52.81816
867.60 52.97374
867.70 53.27293
867.80 53.64061
867.90 53.98784
868.00 54.25543
868.10 54.40528
868.20 54.40084
868.30 54.24421
868.40 53.97655
868.50 53.66383
868.60 53.38933
868.70 53.15957
868.80 52.85711
868.90 52.35065
869.00 51.55024
869.10 50.39707
869.20 48.89749
869.30 47.11992
869.40 45.15372
869.50 43.1832
869.60 41.47079
869.70 40.19509
869.80 39.41874
869.90 39.15668
870.00 39.38175
870.10 39.99927
870.20 40.86884
870.30 41.81354
870.40 42.65167
870.50 43.27223
870.60 43.6257
870.70 43.69839
870.80 43.50083
870.90 43.04945
871.00 42.38755
871.10 41.62757
871.20 40.90789
871.30 40.32209
871.40 39.9164
871.50 39.69055
871.60 39.61658
871.70 39.6751
871.80 39.85124
871.90 40.10096
872.00 40.37762
872.10 40.67516
872.20 41.05839
872.30 41.60077
872.40 42.31441
872.50 43.15897
872.60 44.0602
872.70 44.90667
872.80 45.56967
872.90 45.98168
873.00 46.14165
873.10 46.0641
873.20 45.77236
873.30 45.3182
873.40 44.77549
873.50 44.24785
873.60 43.85021
873.70 43.65834
873.80 43.71106
873.90 44.02959
874.00 44.60608
874.10 45.43908
874.20 46.51087
874.30 47.69208
874.40 48.76955
874.50 49.54093
874.60 49.8938
874.70 49.82162
874.80 49.42576
874.90 48.86239
875.00 48.26631
875.10 47.76608
875.20 47.48139
875.30 47.47521
875.40 47.76751
875.50 48.3077
875.60 48.97363
875.70 49.68896
875.80 50.43674
875.90 51.25928
876.00 52.18174
876.10 53.12611
876.20 53.95517
876.30 54.52082
876.40 54.6883
876.50 54.44346
876.60 53.9442
876.70 53.4319
876.80 53.16301
876.90 53.33326
877.00 54.07336
877.10 55.39147
877.20 57.1617
877.30 59.12129
877.40 60.88889
877.50 62.19064
877.60 62.90618
877.70 63.04498
877.80 62.78757
877.90 62.32743
878.00 61.74417
878.10 61.08023
878.20 60.3947
878.30 59.75749
878.40 59.19016
878.50 58.65762
878.60 58.12037
878.70 57.59003
878.80 57.22547
878.90 57.16986
879.00 57.44491
879.10 58.00703
879.20 58.75113
879.30 59.56904
879.40 60.36758
879.50 61.05693
879.60 61.49507
879.70 61.52018
879.80 61.03073
879.90 60.03583
880.00 58.67128
880.10 57.14322
880.20 55.62371
880.30 54.24382
880.40 53.13645
880.50 52.40682
880.60 52.13912
880.70 52.4023
880.80 53.21911
880.90 54.54126
881.00 56.2917
881.10 58.4094
881.20 60.83111
881.30 63.45882
881.40 66.13274
881.50 68.63177
881.60 70.7301
881.70 72.23884
881.80 73.01412
881.90 73.00079
882.00 72.20686
882.10 70.65547
882.20 68.50473
882.30 66.07863
882.40 63.74692
882.50 61.86789
882.60 60.82983
882.70 60.92986
882.80 62.14718
882.90 64.18594
883.00 66.57672
883.10 68.78512
883.20 70.4228
883.30 71.31929
883.40 71.51746
883.50 71.29434
883.60 71.01574
883.70 71.00061
883.80 71.45813
883.90 72.37855
884.00 73.43691
884.10 74.13937
884.20 74.09037
884.30 73.05028
884.40 71.01284
884.50 68.26489
884.60 65.24463
884.70 62.44523
884.80 60.36048
884.90 59.33571
885.00 59.49508
885.10 60.73776
885.20 62.75708
885.30 65.09082
885.40 67.2172
885.50 68.70303
885.60 69.30066
885.70 68.97747
885.80 67.87623
885.90 66.28144
886.00 64.58806
886.10 63.1688
886.20 62.23208
886.30 61.81457
886.40 61.82606
886.50 62.10336
886.60 62.47179
886.70 62.72248
886.80 62.63699
886.90 62.0507
887.00 60.91798
887.10 59.36711
887.20 57.65917
887.30 56.12117
887.40 55.06965
887.50 54.7487
887.60 55.30432
887.70 56.71246
887.80 58.77176
887.90 61.1449
888.00 63.42364
888.10 65.27302
888.20 66.43988
888.30 66.91849
888.40 67.09627
888.50 67.46726
888.60 68.3737
888.70 69.89662
888.80 71.80377
888.90 73.64022
889.00 74.92665
889.10 75.29605
889.20 74.50228
889.30 72.48265
889.40 69.45701
889.50 65.93627
889.60 62.65994
889.70 60.24898
889.80 58.90617
889.90 58.64416
890.00 59.45344
890.10 61.23313
890.20 63.75578
890.30 66.69338
890.40 69.59688
890.50 71.98387
890.60 73.51388
890.70 74.01301
890.80 73.4785
890.90 72.10509
891.00 70.27461
891.10 68.4672
891.20 67.15774
891.30 66.61939
891.40 66.85171
891.50 67.69651
891.60 68.93789
891.70 70.34871
891.80 71.78013
891.90 73.15279
892.00 74.36272
892.10 75.25408
892.20 75.66593
892.30 75.49793
892.40 74.71622
892.50 73.40309
892.60 71.77849
892.70 70.13737
892.80 68.82894
892.90 68.20104
893.00 68.46002
893.10 69.60048
893.20 71.36544
893.30 73.30297
893.40 74.93262
893.50 75.91448
893.60 76.04731
893.70 75.22844
893.80 73.52561
893.90 71.12815
894.00 68.28383
894.10 65.35348
894.20 62.74208
894.30 60.78235
894.40 59.70705
894.50 59.58513
894.60 60.29051
894.70 61.55927
894.80 63.0335
894.90 64.30472
895.00 65.07231
895.10 65.31946
895.20 65.25377
895.30 65.18349
895.40 65.44604
895.50 66.30184
895.60 67.88218
895.70 70.16075
895.80 72.89461
895.90 75.6464
896.00 77.91356
896.10 79.27654
896.20 79.52542
896.30 78.69587
896.40 76.99718
896.50 74.70721
896.60 72.20574
896.70 69.95299
896.80 68.34819
896.90 67.66396
897.00 67.94123
897.10 68.97789
897.20 70.48929
897.30 72.23059
897.40 74.0394
897.50 75.76302
897.60 77.22153
897.70 78.30778
897.80 79.0335
897.90 79.49074
898.00 79.77024
898.10 79.97347
898.20 80.29557
898.30 80.94075
898.40 82.00162
898.50 83.42505
898.60 85.00794
898.70 86.43502
898.80 87.38283
898.90 87.6807
899.00 87.33927
899.10 86.44936
899.20 85.13825
899.30 83.53007
899.40 81.7743
899.50 80.06565
899.60 78.53948
899.70 77.25099
899.80 76.33012
899.90 76.03354
900.00 76.10437
900.10 76.17519
900.20 76.24602
900.30 76.31684
900.40 76.38766
900.50 76.45849
900.60 76.52931
900.70 76.60014
900.80 76.67096
900.90 76.74178
901.00 76.81261
901.10 76.88343
901.20 76.95426
901.30 77.02508
901.40 77.0959
901.50 77.16673
901.60 77.23755
901.70 77.30838
901.80 77.3792
901.90 77.45003
902.00 77.52085
902.10 77.59167
902.20 77.6625
902.30 77.73332
902.40 77.80415
902.50 77.87497
902.60 77.94579
902.70 78.01662
902.80 78.08744
902.90 78.15827
903.00 78.22909
903.10 78.29991
903.20 78.31408
903.30 78.32768
903.40 78.34128
903.50 78.35488
903.60 78.36848
903.70 78.38208
903.80 78.39568
903.90 78.40927
904.00 78.42287
904.10 78.43647
904.20 78.45007
904.30 78.46367
904.40 78.47727
904.50 78.49087
904.60 78.50446
904.70 78.51806
904.80 78.53166
904.90 78.54526
905.00 78.55886
905.10 78.57246
905.20 78.58605
905.30 78.59965
905.40 78.61325
905.50 78.62685
905.60 78.64045
905.70 78.65405
905.80 78.66765
905.90 78.68124
906.00 78.69484
906.10 78.70844
906.20 78.72204
906.30 78.73564
906.40 78.74924
906.50 78.76284
906.60 78.78197
906.70 78.80347
906.80 78.82497
906.90 78.84647
907.00 78.86797
907.10 78.88947
907.20 78.91097
907.30 78.93247
907.40 78.95397
907.50 78.97547
907.60 78.99697
907.70 79.01847
907.80 79.03997
907.90 79.06148
908.00 79.08298
908.10 79.10448
908.20 79.12598
908.30 79.14748
908.40 79.16898
908.50 79.19048
908.60 79.21198
908.70 79.23348
908.80 79.25498
908.90 79.27648
909.00 79.29798
909.10 79.31948
909.20 79.34099
909.30 79.36249
909.40 79.38399
909.50 79.40549
909.60 79.42699
909.70 79.44849
909.80 79.46999
909.90 79.49149
910.00 79.51107
910.10 79.52422
910.20 79.53736
910.30 79.55051
910.40 79.56366
910.50 79.57681
910.60 79.58995
910.70 79.6031
910.80 79.61625
910.90 79.6294
911.00 79.64254
911.10 79.65569
911.20 79.66884
911.30 79.68198
911.40 79.69513
911.50 79.70828
911.60 79.72143
911.70 79.73457
911.80 79.74772
911.90 79.76087
912.00 79.77402
912.10 79.78716
912.20 79.80031
912.30 79.81346
912.40 79.82661
912.50 79.83975
912.60 79.8529
912.70 79.86605
912.80 79.87919
912.90 79.89234
913.00 79.90549
913.10 79.91864
913.20 79.93178
913.30 79.94493
913.40 79.95808
913.50 79.98039
913.60 80.00963
913.70 80.03886
913.80 80.06809
913.90 80.09732
914.00 80.12656
914.10 80.15579
914.20 80.18502
914.30 80.21425
914.40 80.24348
914.50 80.27272
914.60 80.30195
914.70 80.33118
914.80 80.36041
914.90 80.38965
915.00 80.41888
915.10 80.44811
915.20 80.47734
915.30 80.50657
915.40 80.53581
915.50 80.56504
915.60 80.59427
915.70 80.6235
915.80 80.65274
915.90 80.68197
916.00 80.7112
916.10 80.74043
916.20 80.76966
916.30 80.7989
916.40 80.82813
916.50 80.85736
916.60 80.88659
916.70 80.91583
916.80 80.94506
916.90 80.97429
917.00 80.99328
917.10 81.00868
917.20 81.02407
917.30 81.03947
917.40 81.05486
917.50 81.07025
917.60 81.08565
917.70 81.10104
917.80 81.11644
917.90 81.13183
918.00 81.14723
918.10 81.16262
918.20 81.17802
918.30 81.19341
918.40 81.2088
918.50 81.2242
918.60 81.23959
918.70 81.25499
918.80 81.27038
918.90 81.28578
919.00 81.30117
919.10 81.31657
919.20 81.33196
919.30 81.34735
919.40 81.36275
919.50 81.37814
919.60 81.39354
919.70 81.40893
919.80 81.42433
919.90 81.43972
920.00 81.45512
920.10 81.47051
920.20 81.4859
920.30 81.5013
920.40 81.51669
920.50 81.53597
920.60 81.55662
920.70 81.57727
920.80 81.59791
920.90 81.61856
921.00 81.63921
921.10 81.65985
921.20 81.6805
921.30 81.70114
921.40 81.72179
921.50 81.74244
921.60 81.76308
921.70 81.78373
921.80 81.80438
921.90 81.82502
922.00 81.84567
922.10 81.86631
922.20 81.88696
922.30 81.90761
922.40 81.92825
922.50 81.9489
922.60 81.96955
922.70 81.99019
922.80 82.01084
922.90 82.03148
923.00 82.05213
923.10 82.07278
923.20 82.09342
923.30 82.11407
923.40 82.13472
923.50 82.15536
923.60 82.17601
923.70 82.19665
923.80 82.2173
923.90 82.23795
924.00 82.23606
924.10 82.21648
924.20 82.19689
924.30 82.17731
924.40 82.15772
924.50 82.13813
924.60 82.11855
924.70 82.09896
924.80 82.07938
924.90 82.05979
925.00 82.04021
925.10 82.02062
925.20 82.00103
925.30 81.98145
925.40 81.96186
925.50 81.94228
925.60 81.92269
925.70 81.90311
925.80 81.88352
925.90 81.86393
926.00 81.84435
926.10 81.82476
926.20 81.80518
926.30 81.78559
926.40 81.76601
926.50 81.74642
926.60 81.72683
926.70 81.70725
926.80 81.68766
926.90 81.66808
927.00 81.64849
927.10 81.62891
927.20 81.60932
927.30 81.58973
927.40 81.57015
927.50 81.55031
927.60 81.52947
927.70 81.50863
927.80 81.48779
927.90 81.46695
928.00 81.44611
928.10 81.42527
928.20 81.40443
928.30 81.38359
928.40 81.36275
928.50 81.34191
928.60 81.32107
928.70 81.30023
928.80 81.27939
928.90 81.25855
929.00 81.23771
929.10 81.21687
929.20 81.19603
929.30 81.17519
929.40 81.15435
929.50 81.13351
929.60 81.11267
929.70 81.09183
929.80 81.07099
929.90 81.05015
930.00 81.02931
930.10 81.00847
930.20 80.98763
930.30 80.96679
930.40 80.94595
930.50 80.92511
930.60 80.90427
930.70 80.88343
930.80 80.86259
930.90 80.84175
931.00 80.82091
931.10 80.84081
931.20 80.88079
931.30 80.92077
931.40 80.96075
931.50 81.00073
931.60 81.04071
931.70 81.08068
931.80 81.12066
931.90 81.16064
932.00 81.20062
932.10 81.2406
932.20 81.28058
932.30 81.32055
932.40 81.36053
932.50 81.40051
932.60 81.44049
932.70 81.48047
932.80 81.52045
932.90 81.56042
933.00 81.6004
933.10 81.64038
933.20 81.68036
933.30 81.72034
933.40 81.76032
933.50 81.80029
933.60 81.84027
933.70 81.88025
933.80 81.92023
933.90 81.96021
934.00 82.00019
934.10 82.04016
934.20 82.08014
934.30 82.12012
934.40 82.1601
934.50 82.20008
934.60 82.24006
934.70 82.26949
934.80 82.29859
934.90 82.3277
935.00 82.3568
935.10 82.38591
935.20 82.41502
935.30 82.44412
935.40 82.47323
935.50 82.50233
935.60 82.53144
935.70 82.56054
935.80 82.58965
935.90 82.61875
936.00 82.64786
936.10 82.67697
936.20 82.70607
936.30 82.73518
936.40 82.76428
936.50 82.79339
936.60 82.82249
936.70 82.8516
936.80 82.8807
936.90 82.90981
937.00 82.93892
937.10 82.96802
937.20 82.99713
937.30 83.02623
937.40 83.05534
937.50 83.08444
937.60 83.11355
937.70 83.14265
937.80 83.17176
937.90 83.20086
938.00 83.22997
938.10 83.25908
938.20 83.2851
938.30 83.2834
938.40 83.2817
938.50 83.28
938.60 83.2783
938.70 83.2766
938.80 83.27491
938.90 83.27321
939.00 83.27151
939.10 83.26981
939.20 83.26811
939.30 83.26641
939.40 83.26471
939.50 83.26301
939.60 83.26131
939.70 83.25961
939.80 83.25791
939.90 83.25621
940.00 83.25451
940.10 83.25281
940.20 83.25111
940.30 83.24942
940.40 83.24772
940.50 83.24602
940.60 83.24432
940.70 83.24262
940.80 83.24092
940.90 83.23922
941.00 83.23752
941.10 83.23582
941.20 83.23412
941.30 83.23242
941.40 83.23072
941.50 83.22902
941.60 83.22732
941.70 83.22563
941.80 83.22495
941.90 83.23792
942.00 83.25089
942.10 83.26386
942.20 83.27684
942.30 83.28981
942.40 83.30278
942.50 83.31575
942.60 83.32872
942.70 83.34169
942.80 83.35466
942.90 83.36763
943.00 83.3806
943.10 83.39357
943.20 83.40654
943.30 83.41951
943.40 83.43248
943.50 83.44545
943.60 83.45843
943.70 83.4714
943.80 83.48437
943.90 83.49734
944.00 83.51031
944.10 83.52328
944.20 83.53625
944.30 83.54922
944.40 83.56219
944.50 83.57516
944.60 83.58813
944.70 83.6011
944.80 83.61407
944.90 83.62704
945.00 83.64002
945.10 83.65299
945.20 83.66596
945.30 83.67893
945.40 83.6919
945.50 83.71471
945.60 83.739
945.70 83.76328
945.80 83.78756
945.90 83.81185
946.00 83.83613
946.10 83.86042
946.20 83.8847
946.30 83.90898
946.40 83.93327
946.50 83.95755
946.60 83.98184
946.70 84.00612
946.80 84.0304
946.90 84.05469
947.00 84.07897
947.10 84.10326
947.20 84.12754
947.30 84.15182
947.40 84.17611
947.50 84.20039
947.60 84.22468
947.70 84.24896
947.80 84.27325
947.90 84.29753
948.00 84.32181
948.10 84.3461
948.20 84.37038
948.30 84.39467
948.40 84.41895
948.50 84.44323
948.60 84.46752
948.70 84.4918
948.80 84.51609
948.90 84.54037
949.00 84.56465
949.10 84.59159
949.20 84.62119
949.30 84.65079
949.40 84.68038
949.50 84.70998
949.60 84.73958
949.70 84.76917
949.80 84.79877
949.90 84.82837
950.00 84.85796
950.10 84.88756
950.20 84.91716
950.30 84.94675
950.40 84.97635
950.50 85.00595
950.60 85.03554
950.70 85.06514
950.80 85.09473
950.90 85.12433
951.00 85.15393
951.10 85.18352
951.20 85.21312
951.30 85.24272
951.40 85.27231
951.50 85.30191
951.60 85.33151
951.70 85.3611
951.80 85.3907
951.90 85.4203
952.00 85.44989
952.10 85.47949
952.20 85.50909
952.30 85.53868
952.40 85.56828
952.50 85.59787
952.60 85.62747
952.70 85.65707
952.80 85.66134
952.90 85.66484
953.00 85.66833
953.10 85.67183
953.20 85.67532
953.30 85.67881
953.40 85.68231
953.50 85.6858
953.60 85.6893
953.70 85.69279
953.80 85.69628
953.90 85.69978
954.00 85.70327
954.10 85.70676
954.20 85.71026
954.30 85.71375
954.40 85.71725
954.50 85.72074
954.60 85.72423
954.70 85.72773
954.80 85.73122
954.90 85.73472
955.00 85.73821
955.10 85.7417
955.20 85.7452
955.30 85.74869
955.40 85.75219
955.50 85.75568
955.60 85.75917
955.70 85.76267
955.80 85.76616
955.90 85.76965
956.00 85.77315
956.10 85.77664
956.20 85.78014
956.30 85.78363
956.40 85.78743
956.50 85.79201
956.60 85.79658
956.70 85.80116
956.80 85.80574
956.90 85.81032
957.00 85.81489
957.10 85.81947
957.20 85.82405
957.30 85.82863
957.40 85.83321
957.50 85.83778
957.60 85.84236
957.70 85.84694
957.80 85.85152
957.90 85.85609
958.00 85.86067
958.10 85.86525
958.20 85.86983
958.30 85.87441
958.40 85.87898
958.50 85.88356
958.60 85.88814
958.70 85.89272
958.80 85.89729
958.90 85.90187
959.00 85.90645
959.10 85.91103
959.20 85.91561
959.30 85.92018
959.40 85.92476
959.50 85.92934
959.60 85.93392
959.70 85.9385
959.80 85.94307
959.90 85.94765
960.00 85.95223
960.10 85.94948
960.20 85.93703
960.30 85.92458
960.40 85.91212
960.50 85.89967
960.60 85.88722
960.70 85.87476
960.80 85.86231
960.90 85.84986
961.00 85.8374
961.10 85.82495
961.20 85.8125
961.30 85.80004
961.40 85.78759
961.50 85.77514
961.60 85.76268
961.70 85.75023
961.80 85.73778
961.90 85.72532
962.00 85.71287
962.10 85.70042
962.20 85.68796
962.30 85.67551
962.40 85.66306
962.50 85.65061
962.60 85.63815
962.70 85.6257
962.80 85.61325
962.90 85.60079
963.00 85.58834
963.10 85.57589
963.20 85.56343
963.30 85.55098
963.40 85.53853
963.50 85.52607
963.60 85.51362
963.70 85.50117
963.80 85.50502
963.90 85.53141
964.00 85.55779
964.10 85.58417
964.20 85.61056
964.30 85.63694
964.40 85.66333
964.50 85.68971
964.60 85.71609
964.70 85.74248
964.80 85.76886
964.90 85.79524
965.00 85.82163
965.10 85.84801
965.20 85.87439
965.30 85.90078
965.40 85.92716
965.50 85.95354
965.60 85.97993
965.70 86.00631
965.80 86.03269
965.90 86.05908
966.00 86.08546
966.10 86.11185
966.20 86.13823
966.30 86.16461
966.40 86.191
966.50 86.21738
966.60 86.24376
966.70 86.27015
966.80 86.29653
966.90 86.32291
967.00 86.3493
967.10 86.37568
967.20 86.40206
967.30 86.42845
967.40 86.45483
967.50 86.47614
967.60 86.48302
967.70 86.4899
967.80 86.49678
967.90 86.50365
968.00 86.51053
968.10 86.51741
968.20 86.52429
968.30 86.53117
968.40 86.53804
968.50 86.54492
968.60 86.5518
968.70 86.55868
968.80 86.56556
968.90 86.57243
969.00 86.57931
969.10 86.58619
969.20 86.59307
969.30 86.59994
969.40 86.60682
969.50 86.6137
969.60 86.62058
969.70 86.62746
969.80 86.63433
969.90 86.64121
970.00 86.64809
970.10 86.65497
970.20 86.66185
970.30 86.66872
970.40 86.6756
970.50 86.68248
970.60 86.68936
970.70 86.69623
970.80 86.70311
970.90 86.70999
971.00 86.71687
971.10 86.72375
971.20 86.73062
971.30 86.75272
971.40 86.77578
971.50 86.79884
971.60 86.82191
971.70 86.84497
971.80 86.86803
971.90 86.8911
972.00 86.91416
972.10 86.93722
972.20 86.96029
972.30 86.98335
972.40 87.00641
972.50 87.02948
972.60 87.05254
972.70 87.0756
972.80 87.09867
972.90 87.12173
973.00 87.1448
973.10 87.16786
973.20 87.19092
973.30 87.21399
973.40 87.23705
973.50 87.26011
973.60 87.28318
973.70 87.30624
973.80 87.3293
973.90 87.35237
974.00 87.37543
974.10 87.39849
974.20 87.42156
974.30 87.44462
974.40 87.46768
974.50 87.49075
974.60 87.51381
974.70 87.53687
974.80 87.55994
974.90 87.583
975.00 87.61416
975.10 87.65444
975.20 87.69472
975.30 87.735
975.40 87.77528
975.50 87.81556
975.60 87.85584
975.70 87.89611
975.80 87.93639
975.90 87.97667
976.00 88.01695
976.10 88.05723
976.20 88.09751
976.30 88.13779
976.40 88.17807
976.50 88.21835
976.60 88.25863
976.70 88.29891
976.80 88.33919
976.90 88.37947
977.00 88.41975
977.10 88.46003
977.20 88.50031
977.30 88.54059
977.40 88.58087
977.50 88.62115
977.60 88.66143
977.70 88.70171
977.80 88.74199
977.90 88.78227
978.00 88.82255
978.10 88.86283
978.20 88.90311
978.30 88.94339
978.40 88.98367
978.50 89.02395
978.60 89.06423
978.70 89.10451
978.80 89.10394
978.90 89.09616
979.00 89.08838
979.10 89.0806
979.20 89.07281
979.30 89.06503
979.40 89.05725
979.50 89.04947
979.60 89.04169
979.70 89.03391
979.80 89.02613
979.90 89.01834
980.00 89.01056
980.10 89.00278
980.20 88.995
980.30 88.98722
980.40 88.97944
980.50 88.97166
980.60 88.96388
980.70 88.95609
980.80 88.94831
980.90 88.94053
981.00 88.93275
981.10 88.92497
981.20 88.91719
981.30 88.90941
981.40 88.90162
981.50 88.89384
981.60 88.88606
981.70 88.87828
981.80 88.8705
981.90 88.86272
982.00 88.85494
982.10 88.84716
982.20 88.83937
982.30 88.83159
982.40 88.82381
982.50 88.81264
982.60 88.76249
982.70 88.71233
982.80 88.66218
982.90 88.61202
983.00 88.56187
983.10 88.51171
983.20 88.46156
983.30 88.4114
983.40 88.36125
983.50 88.31109
983.60 88.26094
983.70 88.21079
983.80 88.16063
983.90 88.11048
984.00 88.06032
984.10 88.01017
984.20 87.96001
984.30 87.90986
984.40 87.8597
984.50 87.80955
984.60 87.75939
984.70 87.70924
984.80 87.65908
984.90 87.60893
985.00 87.55878
985.10 87.50862
985.20 87.45847
985.30 87.40831
985.40 87.35816
985.50 87.308
985.60 87.25785
985.70 87.20769
985.80 87.15754
985.90 87.10738
986.00 87.05723
986.10 87.00708
986.20 86.95692
986.30 86.90493
986.40 86.84332
986.50 86.78171
986.60 86.7201
986.70 86.65849
986.80 86.59688
986.90 86.53528
987.00 86.47367
987.10 86.41206
987.20 86.35045
987.30 86.28884
987.40 86.22723
987.50 86.16562
987.60 86.10401
987.70 86.0424
987.80 85.98079
987.90 85.91918
988.00 85.85757
988.10 85.79596
988.20 85.73435
988.30 85.67274
988.40 85.61113
988.50 85.54952
988.60 85.48791
988.70 85.4263
988.80 85.36469
988.90 85.30308
989.00 85.24147
989.10 85.17986
989.20 85.11825
989.30 85.05664
989.40 84.99503
989.50 84.93342
989.60 84.87181
989.70 84.8102
989.80 84.74859
989.90 84.68698
990.00 84.62537
990.10 84.56466
990.20 84.51205
990.30 84.45944
990.40 84.40683
990.50 84.35422
990.60 84.3016
990.70 84.24899
990.80 84.19638
990.90 84.14377
991.00 84.09116
991.10 84.03854
991.20 83.98593
991.30 83.93332
991.40 83.88071
991.50 83.8281
991.60 83.77548
991.70 83.72287
991.80 83.67026
991.90 83.61765
992.00 83.56504
992.10 83.51242
992.20 83.45981
992.30 83.4072
992.40 83.35459
992.50 83.30198
992.60 83.24936
992.70 83.19675
992.80 83.14414
992.90 83.09153
993.00 83.03891
993.10 82.9863
993.20 82.93369
993.30 82.88108
993.40 82.82847
993.50 82.77585
993.60 82.72324
993.70 82.67063
993.80 82.61802
993.90 82.56541
994.00 82.52843
994.10 82.49318
994.20 82.45794
994.30 82.4227
994.40 82.38746
994.50 82.35221
994.60 82.31697
994.70 82.28173
994.80 82.24649
994.90 82.21125
995.00 82.176
995.10 82.14076
995.20 82.10552
995.30 82.07028
995.40 82.03503
995.50 81.99979
995.60 81.96455
995.70 81.92931
995.80 81.89406
995.90 81.85882
996.00 81.82358
996.10 81.78834
996.20 81.7531
996.30 81.71785
996.40 81.68261
996.50 81.64737
996.60 81.61213
996.70 81.57688
996.80 81.54164
996.90 81.5064
997.00 81.47116
997.10 81.43591
997.20 81.40067
997.30 81.36543
997.40 81.33019
997.50 81.29494
997.60 81.2597
997.70 81.22446
997.80 81.22162
997.90 81.24528
998.00 81.26894
998.10 81.2926
998.20 81.31627
998.30 81.33993
998.40 81.36359
998.50 81.38725
998.60 81.41092
998.70 81.43458
998.80 81.45824
998.90 81.4819
999.00 81.50557
999.10 81.52923
999.20 81.55289
999.30 81.57655
999.40 81.60022
999.50 81.62388
999.60 81.64754
999.70 81.6712
999.80 81.69487
999.90 81.71853
1000.00 81.74219
1000.10 81.76585
1000.20 81.78952
1000.30 81.81318
1000.40 81.83684
1000.50 81.8605
1000.60 81.88417
1000.70 81.90783
1000.80 81.93149
1000.90 81.95515
1001.00 81.97882
1001.10 82.00248
1001.20 82.02614
1001.30 82.0498
1001.40 82.07347
1001.50 82.09713
1001.60 82.12082
1001.70 82.14473
1001.80 82.16864
1001.90 82.19256
1002.00 82.21647
1002.10 82.24038
1002.20 82.2643
1002.30 82.28821
1002.40 82.31212
1002.50 82.33604
1002.60 82.35995
1002.70 82.38386
1002.80 82.40778
1002.90 82.43169
1003.00 82.45561
1003.10 82.47952
1003.20 82.50343
1003.30 82.52735
1003.40 82.55126
1003.50 82.57517
1003.60 82.59909
1003.70 82.623
1003.80 82.64691
1003.90 82.67083
1004.00 82.69474
1004.10 82.71865
1004.20 82.74257
1004.30 82.76648
1004.40 82.79039
1004.50 82.81431
1004.60 82.83822
1004.70 82.86213
1004.80 82.88605
1004.90 82.90996
1005.00 82.93387
1005.10 82.95779
1005.20 82.9817
1005.30 83.00562
1005.40 83.02953
1005.50 83.06182
1005.60 83.10668
1005.70 83.15154
1005.80 83.1964
1005.90 83.24126
1006.00 83.28611
1006.10 83.33097
1006.20 83.37583
1006.30 83.42069
1006.40 83.46555
1006.50 83.51041
1006.60 83.55527
1006.70 83.60013
1006.80 83.64499
1006.90 83.68984
1007.00 83.7347
1007.10 83.77956
1007.20 83.82442
1007.30 83.86928
1007.40 83.91414
1007.50 83.959
1007.60 84.00386
1007.70 84.04872
1007.80 84.09357
1007.90 84.13843
1008.00 84.18329
1008.10 84.22815
1008.20 84.27301
1008.30 84.31787
1008.40 84.36273
1008.50 84.40759
1008.60 84.45244
1008.70 84.4973
1008.80 84.54216
1008.90 84.58702
1009.00 84.63188
1009.10 84.67674
1009.20 84.7216
1009.30 84.76646
1009.40 84.79331
1009.50 84.81245
1009.60 84.83159
1009.70 84.85073
1009.80 84.86987
1009.90 84.88901
1010.00 84.90815
1010.10 84.92729
1010.20 84.94643
1010.30 84.96557
1010.40 84.98471
1010.50 85.00385
1010.60 85.02299
1010.70 85.04213
1010.80 85.06127
1010.90 85.08041
1011.00 85.09955
1011.10 85.11868
1011.20 85.13782
1011.30 85.15696
1011.40 85.1761
1011.50 85.19524
1011.60 85.21438
1011.70 85.23352
1011.80 85.25266
1011.90 85.2718
1012.00 85.29094
1012.10 85.31008
1012.20 85.32922
1012.30 85.34836
1012.40 85.3675
1012.50 85.38664
1012.60 85.40578
1012.70 85.42492
1012.80 85.44406
1012.90 85.4632
1013.00 85.48234
1013.10 85.50148
1013.20 85.52062
1013.30 85.52358
1013.40 85.5225
1013.50 85.52141
1013.60 85.52033
1013.70 85.51925
1013.80 85.51817
1013.90 85.51708
1014.00 85.516
1014.10 85.51492
1014.20 85.51384
1014.30 85.51276
1014.40 85.51167
1014.50 85.51059
1014.60 85.50951
1014.70 85.50843
1014.80 85.50735
1014.90 85.50626
1015.00 85.50518
1015.10 85.5041
1015.20 85.50302
1015.30 85.50194
1015.40 85.50085
1015.50 85.49977
1015.60 85.49869
1015.70 85.49761
1015.80 85.49653
1015.90 85.49544
1016.00 85.49436
1016.10 85.49328
1016.20 85.4922
1016.30 85.49111
1016.40 85.49003
1016.50 85.48895
1016.60 85.48787
1016.70 85.48679
1016.80 85.4857
1016.90 85.48462
1017.00 85.48354
1017.10 85.48246
1017.20 85.49729
1017.30 85.5161
1017.40 85.5349
1017.50 85.55371
1017.60 85.57252
1017.70 85.59133
1017.80 85.61014
1017.90 85.62895
1018.00 85.64775
1018.10 85.66656
1018.20 85.68537
1018.30 85.70418
1018.40 85.72299
1018.50 85.74179
1018.60 85.7606
1018.70 85.77941
1018.80 85.79822
1018.90 85.81703
1019.00 85.83584
1019.10 85.85464
1019.20 85.87345
1019.30 85.89226
1019.40 85.91107
1019.50 85.92988
1019.60 85.94868
1019.70 85.96749
1019.80 85.9863
1019.90 86.00511
1020.00 86.02392
1020.10 86.04273
1020.20 86.06153
1020.30 86.08034
1020.40 86.09915
1020.50 86.11796
1020.60 86.13677
1020.70 86.15557
1020.80 86.17438
1020.90 86.19319
1021.00 86.212
1021.10 86.21998
1021.20 86.22075
1021.30 86.22152
1021.40 86.22229
1021.50 86.22306
1021.60 86.22383
1021.70 86.2246
1021.80 86.22537
1021.90 86.22614
1022.00 86.22691
1022.10 86.22768
1022.20 86.22845
1022.30 86.22922
1022.40 86.22999
1022.50 86.23076
1022.60 86.23153
1022.70 86.23229
1022.80 86.23306
1022.90 86.23383
1023.00 86.2346
1023.10 86.23537
1023.20 86.23614
1023.30 86.23691
1023.40 86.23768
1023.50 86.23845
1023.60 86.23922
1023.70 86.23999
1023.80 86.24076
1023.90 86.24153
1024.00 86.2423
1024.10 86.24307
1024.20 86.24384
1024.30 86.2446
1024.40 86.24537
1024.50 86.24614
1024.60 86.24691
1024.70 86.24768
1024.80 86.24845
1024.90 86.24922
1025.00 86.24996
1025.10 86.25065
1025.20 86.25134
1025.30 86.25203
1025.40 86.25272
1025.50 86.25341
1025.60 86.2541
1025.70 86.25479
1025.80 86.25549
1025.90 86.25618
1026.00 86.25687
1026.10 86.25756
1026.20 86.25825
1026.30 86.25894
1026.40 86.25963
1026.50 86.26032
1026.60 86.26101
1026.70 86.2617
1026.80 86.26239
1026.90 86.26308
1027.00 86.26377
1027.10 86.26446
1027.20 86.26516
1027.30 86.26585
1027.40 86.26654
1027.50 86.26723
1027.60 86.26792
1027.70 86.26861
1027.80 86.2693
1027.90 86.26999
1028.00 86.27068
1028.10 86.27137
1028.20 86.27206
1028.30 86.27275
1028.40 86.27344
1028.50 86.27414
1028.60 86.27483
1028.70 86.27552
1028.80 86.27621
1028.90 86.2769
1029.00 86.31701
1029.10 86.35712
1029.20 86.39722
1029.30 86.43733
1029.40 86.47744
1029.50 86.51755
1029.60 86.55766
1029.70 86.59777
1029.80 86.63787
1029.90 86.67798
1030.00 86.71809
1030.10 86.7582
1030.20 86.79831
1030.30 86.83842
1030.40 86.87853
1030.50 86.91863
1030.60 86.95874
1030.70 86.99885
1030.80 87.03896
1030.90 87.07907
1031.00 87.11918
1031.10 87.15928
1031.20 87.19939
1031.30 87.2395
1031.40 87.27961
1031.50 87.31972
1031.60 87.35983
1031.70 87.39994
1031.80 87.44004
1031.90 87.48015
1032.00 87.52026
1032.10 87.56037
1032.20 87.60048
1032.30 87.64059
1032.40 87.68069
1032.50 87.7208
1032.60 87.76091
1032.70 87.80102
1032.80 87.84113
1032.90 87.87317
1033.00 87.89311
1033.10 87.91305
1033.20 87.93299
1033.30 87.95293
1033.40 87.97288
1033.50 87.99282
1033.60 88.01276
1033.70 88.0327
1033.80 88.05264
1033.90 88.07258
1034.00 88.09252
1034.10 88.11246
1034.20 88.13241
1034.30 88.15235
1034.40 88.17229
1034.50 88.19223
1034.60 88.21217
1034.70 88.23211
1034.80 88.25205
1034.90 88.272
1035.00 88.29194
1035.10 88.31188
1035.20 88.33182
1035.30 88.35176
1035.40 88.3717
1035.50 88.39164
1035.60 88.41158
1035.70 88.43153
1035.80 88.45147
1035.90 88.47141
1036.00 88.49135
1036.10 88.51129
1036.20 88.53123
1036.30 88.55117
1036.40 88.57111
1036.50 88.59106
1036.60 88.611
1036.70 88.63094
1036.80 88.65088
1036.90 88.66448
1037.00 88.6765
1037.10 88.68851
1037.20 88.70053
1037.30 88.71254
1037.40 88.72456
1037.50 88.73657
1037.60 88.74859
1037.70 88.7606
1037.80 88.77262
1037.90 88.78464
1038.00 88.79665
1038.10 88.80867
1038.20 88.82068
1038.30 88.8327
1038.40 88.84471
1038.50 88.85673
1038.60 88.86875
1038.70 88.88076
1038.80 88.89278
1038.90 88.90479
1039.00 88.91681
1039.10 88.92882
1039.20 88.94084
1039.30 88.95285
1039.40 88.96487
1039.50 88.97689
1039.60 88.9889
1039.70 89.00092
1039.80 89.01293
1039.90 89.02495
1040.00 89.03696
1040.10 89.04898
1040.20 89.06099
1040.30 89.07301
1040.40 89.08503
1040.50 89.09704
1040.60 89.10906
1040.70 89.12107
1040.80 89.13309
1040.90 89.14284
1041.00 89.1526
1041.10 89.16236
1041.20 89.17211
1041.30 89.18187
1041.40 89.19162
1041.50 89.20138
1041.60 89.21113
1041.70 89.22089
1041.80 89.23065
1041.90 89.2404
1042.00 89.25016
1042.10 89.25991
1042.20 89.26967
1042.30 89.27942
1042.40 89.28918
1042.50 89.29893
1042.60 89.30869
1042.70 89.31845
1042.80 89.3282
1042.90 89.33796
1043.00 89.34771
1043.10 89.35747
1043.20 89.36722
1043.30 89.37698
1043.40 89.38674
1043.50 89.39649
1043.60 89.40625
1043.70 89.416
1043.80 89.42576
1043.90 89.43551
1044.00 89.44527
1044.10 89.45503
1044.20 89.46478
1044.30 89.47454
1044.40 89.48429
1044.50 89.49405
1044.60 89.5038
1044.70 89.51356
1044.80 89.52391
1044.90 89.53959
1045.00 89.55527
1045.10 89.57095
1045.20 89.58663
1045.30 89.60231
1045.40 89.61799
1045.50 89.63368
1045.60 89.64936
1045.70 89.66504
1045.80 89.68072
1045.90 89.6964
1046.00 89.71208
1046.10 89.72776
1046.20 89.74344
1046.30 89.75913
1046.40 89.77481
1046.50 89.79049
1046.60 89.80617
1046.70 89.82185
1046.80 89.83753
1046.90 89.85321
1047.00 89.86889
1047.10 89.88457
1047.20 89.90026
1047.30 89.91594
1047.40 89.93162
1047.50 89.9473
1047.60 89.96298
1047.70 89.97866
1047.80 89.99434
1047.90 90.01002
1048.00 90.02571
1048.10 90.04139
1048.20 90.05707
1048.30 90.07275
1048.40 90.08843
1048.50 90.10411
1048.60 90.11979
1048.70 90.13547
1048.80 90.14915
1048.90 90.14478
1049.00 90.14041
1049.10 90.13605
1049.20 90.13168
1049.30 90.12731
1049.40 90.12294
1049.50 90.11858
1049.60 90.11421
1049.70 90.10984
1049.80 90.10547
1049.90 90.1011
1050.00 90.09674
1050.10 90.09237
1050.20 90.088
1050.30 90.08363
1050.40 90.07927
1050.50 90.0749
1050.60 90.07053
1050.70 90.06616
1050.80 90.06179
1050.90 90.05743
1051.00 90.05306
1051.10 90.04869
1051.20 90.04432
1051.30 90.03996
1051.40 90.03559
1051.50 90.03122
1051.60 90.02685
1051.70 90.02248
1051.80 90.01812
1051.90 90.01375
1052.00 90.00938
1052.10 90.00501
1052.20 90.00065
1052.30 89.99628
1052.40 89.99191
1052.50 89.98754
1052.60 89.98317
1052.70 89.97881
1052.80 89.97444
1052.90 89.95965
1053.00 89.94485
1053.10 89.93006
1053.20 89.91526
1053.30 89.90047
1053.40 89.88568
1053.50 89.87088
1053.60 89.85609
1053.70 89.8413
1053.80 89.8265
1053.90 89.81171
1054.00 89.79691
1054.10 89.78212
1054.20 89.76733
1054.30 89.75253
1054.40 89.73774
1054.50 89.72294
1054.60 89.70815
1054.70 89.69336
1054.80 89.67856
1054.90 89.66377
1055.00 89.64898
1055.10 89.63418
1055.20 89.61939
1055.30 89.60459
1055.40 89.5898
1055.50 89.57501
1055.60 89.56021
1055.70 89.54542
1055.80 89.53063
1055.90 89.51583
1056.00 89.50104
1056.10 89.48624
1056.20 89.47145
1056.30 89.45666
1056.40 89.44186
1056.50 89.42707
1056.60 89.41228
1056.70 89.39748
1056.80 89.38269
1056.90 89.38278
1057.00 89.38659
1057.10 89.3904
1057.20 89.39421
1057.30 89.39802
1057.40 89.40183
1057.50 89.40564
1057.60 89.40945
1057.70 89.41326
1057.80 89.41707
1057.90 89.42088
1058.00 89.42469
1058.10 89.4285
1058.20 89.43231
1058.30 89.43612
1058.40 89.43993
1058.50 89.44374
1058.60 89.44755
1058.70 89.45136
1058.80 89.45517
1058.90 89.45898
1059.00 89.46279
1059.10 89.46661
1059.20 89.47042
1059.30 89.47423
1059.40 89.47804
1059.50 89.48185
1059.60 89.48566
1059.70 89.48947
1059.80 89.49328
1059.90 89.49709
1060.00 89.5009
1060.10 89.50471
1060.20 89.50852
1060.30 89.51233
1060.40 89.51614
1060.50 89.51995
1060.60 89.52376
1060.70 89.52757
1060.80 89.53138
1060.90 89.54635
1061.00 89.57248
1061.10 89.59861
1061.20 89.62473
1061.30 89.65086
1061.40 89.67699
1061.50 89.70312
1061.60 89.72924
1061.70 89.75537
1061.80 89.7815
1061.90 89.80763
1062.00 89.83375
1062.10 89.85988
1062.20 89.88601
1062.30 89.91214
1062.40 89.93826
1062.50 89.96439
1062.60 89.99052
1062.70 90.01665
1062.80 90.04278
1062.90 90.0689
1063.00 90.09503
1063.10 90.12116
1063.20 90.14729
1063.30 90.17341
1063.40 90.19954
1063.50 90.22567
1063.60 90.2518
1063.70 90.27792
1063.80 90.30405
1063.90 90.33018
1064.00 90.35631
1064.10 90.38244
1064.20 90.40856
1064.30 90.43469
1064.40 90.46082
1064.50 90.48695
1064.60 90.51307
1064.70 90.5392
1064.80 90.56533
1064.90 90.59146
1065.00 90.61682
1065.10 90.64218
1065.20 90.66754
1065.30 90.6929
1065.40 90.71826
1065.50 90.74362
1065.60 90.76897
1065.70 90.79433
1065.80 90.81969
1065.90 90.84505
1066.00 90.87041
1066.10 90.89577
1066.20 90.92113
1066.30 90.94649
1066.40 90.97185
1066.50 90.99721
1066.60 91.02257
1066.70 91.04793
1066.80 91.07329
1066.90 91.09865
1067.00 91.12401
1067.10 91.14937
1067.20 91.17473
1067.30 91.20009
1067.40 91.22545
1067.50 91.25081
1067.60 91.27617
1067.70 91.30153
1067.80 91.32689
1067.90 91.35225
1068.00 91.37761
1068.10 91.40297
1068.20 91.42833
1068.30 91.45369
1068.40 91.47905
1068.50 91.50441
1068.60 91.52977
1068.70 91.55513
1068.80 91.58048
1068.90 91.60584
1069.00 91.63249
1069.10 91.66043
1069.20 91.68837
1069.30 91.71631
1069.40 91.74424
1069.50 91.77218
1069.60 91.80012
1069.70 91.82806
1069.80 91.85599
1069.90 91.88393
1070.00 91.91187
1070.10 91.93981
1070.20 91.96775
1070.30 91.99568
1070.40 92.02362
1070.50 92.05156
1070.60 92.0795
1070.70 92.10743
1070.80 92.13537
1070.90 92.16331
1071.00 92.19125
1071.10 92.21918
1071.20 92.24712
1071.30 92.27506
1071.40 92.303
1071.50 92.33094
1071.60 92.35887
1071.70 92.38681
1071.80 92.41475
1071.90 92.44269
1072.00 92.47062
1072.10 92.49856
1072.20 92.5265
1072.30 92.55444
1072.40 92.58237
1072.50 92.61031
1072.60 92.63825
1072.70 92.66619
1072.80 92.69412
1072.90 92.72206
1073.00 92.75
1073.10 92.77448
1073.20 92.79858
1073.30 92.82267
1073.40 92.84677
1073.50 92.87087
1073.60 92.89496
1073.70 92.91906
1073.80 92.94315
1073.90 92.96725
1074.00 92.99135
1074.10 93.01544
1074.20 93.03954
1074.30 93.06364
1074.40 93.08773
1074.50 93.11183
1074.60 93.13593
1074.70 93.16002
1074.80 93.18412
1074.90 93.20821
1075.00 93.23231
1075.10 93.25641
1075.20 93.2805
1075.30 93.3046
1075.40 93.3287
1075.50 93.35279
1075.60 93.37689
1075.70 93.40098
1075.80 93.42508
1075.90 93.44918
1076.00 93.47327
1076.10 93.49737
1076.20 93.52147
1076.30 93.54556
1076.40 93.56966
1076.50 93.59376
1076.60 93.61785
1076.70 93.64195
1076.80 93.66604
1076.90 93.69014
1077.00 93.71424
1077.10 93.73732
1077.20 93.75133
1077.30 93.76533
1077.40 93.77933
1077.50 93.79333
1077.60 93.80734
1077.70 93.82134
1077.80 93.83534
1077.90 93.84934
1078.00 93.86335
1078.10 93.87735
1078.20 93.89135
1078.30 93.90535
1078.40 93.91936
1078.50 93.93336
1078.60 93.94736
1078.70 93.96137
1078.80 93.97537
1078.90 93.98937
1079.00 94.00337
1079.10 94.01738
1079.20 94.03138
1079.30 94.04538
1079.40 94.05938
1079.50 94.07339
1079.60 94.08739
1079.70 94.10139
1079.80 94.11539
1079.90 94.1294
1080.00 94.1434
1080.10 94.1574
1080.20 94.1714
1080.30 94.18541
1080.40 94.19941
1080.50 94.21341
1080.60 94.22741
1080.70 94.24142
1080.80 94.25542
1080.90 94.26942
1081.00 94.28342
1081.10 94.29743
1081.20 94.32566
1081.30 94.38711
1081.40 94.44855
1081.50 94.51
1081.60 94.57144
1081.70 94.63289
1081.80 94.69433
1081.90 94.75578
1082.00 94.81723
1082.10 94.87867
1082.20 94.94012
1082.30 95.00156
1082.40 95.06301
1082.50 95.12445
1082.60 95.1859
1082.70 95.24734
1082.80 95.30879
1082.90 95.37023
1083.00 95.43168
1083.10 95.49312
1083.20 95.55457
1083.30 95.61601
1083.40 95.67746
1083.50 95.7389
1083.60 95.80035
1083.70 95.8618
1083.80 95.92324
1083.90 95.98469
1084.00 96.04613
1084.10 96.10758
1084.20 96.16902
1084.30 96.23047
1084.40 96.29191
1084.50 96.35336
1084.60 96.4148
1084.70 96.47625
1084.80 96.53769
1084.90 96.59914
1085.00 96.66058
1085.10 96.72203
1085.20 96.78347
1085.30 96.82873
1085.40 96.83622
1085.50 96.84371
1085.60 96.85121
1085.70 96.8587
1085.80 96.86619
1085.90 96.87368
1086.00 96.88117
1086.10 96.88866
1086.20 96.89615
1086.30 96.90364
1086.40 96.91113
1086.50 96.91862
1086.60 96.92611
1086.70 96.9336
1086.80 96.94109
1086.90 96.94858
1087.00 96.95607
1087.10 96.96356
1087.20 96.97105
1087.30 96.97854
1087.40 96.98604
1087.50 96.99353
1087.60 97.00102
1087.70 97.00851
1087.80 97.016
1087.90 97.02349
1088.00 97.03098
1088.10 97.03847
1088.20 97.04596
1088.30 97.05345
1088.40 97.06094
1088.50 97.06843
1088.60 97.07592
1088.70 97.08341
1088.80 97.0909
1088.90 97.09839
1089.00 97.10588
1089.10 97.11337
1089.20 97.12087
1089.30 97.12836
1089.40 97.13788
1089.50 97.15217
1089.60 97.16645
1089.70 97.18073
1089.80 97.19502
1089.90 97.2093
1090.00 97.22358
1090.10 97.23787
1090.20 97.25215
1090.30 97.26643
1090.40 97.28072
1090.50 97.295
1090.60 97.30928
1090.70 97.32357
1090.80 97.33785
1090.90 97.35213
1091.00 97.36642
1091.10 97.3807
1091.20 97.39498
1091.30 97.40927
1091.40 97.42355
1091.50 97.43783
1091.60 97.45212
1091.70 97.4664
1091.80 97.48068
1091.90 97.49497
1092.00 97.50925
1092.10 97.52354
1092.20 97.53782
1092.30 97.5521
1092.40 97.56639
1092.50 97.58067
1092.60 97.59495
1092.70 97.60924
1092.80 97.62352
1092.90 97.6378
1093.00 97.65209
1093.10 97.66637
1093.20 97.68065
1093.30 97.69494
1093.40 97.70922
1093.50 97.72239
1093.60 97.73112
1093.70 97.73985
1093.80 97.74857
1093.90 97.7573
1094.00 97.76603
1094.10 97.77476
1094.20 97.78348
1094.30 97.79221
1094.40 97.80094
1094.50 97.80967
1094.60 97.8184
1094.70 97.82712
1094.80 97.83585
1094.90 97.84458
1095.00 97.85331
1095.10 97.86203
1095.20 97.87076
1095.30 97.87949
1095.40 97.88822
1095.50 97.89695
1095.60 97.90567
1095.70 97.9144
1095.80 97.92313
1095.90 97.93186
1096.00 97.94058
1096.10 97.94931
1096.20 97.95804
1096.30 97.96677
1096.40 97.97549
1096.50 97.98422
1096.60 97.99295
1096.70 98.00168
1096.80 98.01041
1096.90 98.01913
1097.00 98.02786
1097.10 98.03659
1097.20 98.04532
1097.30 98.05404
1097.40 98.06277
1097.50 98.0715
1097.60 98.08023
1097.70 98.09314
1097.80 98.10605
1097.90 98.11896
1098.00 98.13187
1098.10 98.14479
1098.20 98.1577
1098.30 98.17061
1098.40 98.18352
1098.50 98.19643
1098.60 98.20934
1098.70 98.22226
1098.80 98.23517
1098.90 98.24808
1099.00 98.26099
1099.10 98.2739
1099.20 98.28682
1099.30 98.29973
1099.40 98.31264
1099.50 98.32555
1099.60 98.33846
1099.70 98.35137
1099.80 98.36429
1099.90 98.3772
1100.00 98.39011
1100.10 98.40302
1100.20 98.41593
1100.30 98.42884
1100.40 98.44176
1100.50 98.45467
1100.60 98.46758
1100.70 98.48049
1100.80 98.4934
1100.90 98.50632
1101.00 98.51923
1101.10 98.53214
1101.20 98.54505
1101.30 98.55796
1101.40 98.57087
1101.50 98.58379
1101.60 98.5967
1101.70 98.60961
1101.80 98.59611
1101.90 98.57128
1102.00 98.54645
1102.10 98.52163
1102.20 98.4968
1102.30 98.47198
1102.40 98.44715
1102.50 98.42233
1102.60 98.3975
1102.70 98.37267
1102.80 98.34785
1102.90 98.32302
1103.00 98.2982
1103.10 98.27337
1103.20 98.24855
1103.30 98.22372
1103.40 98.19889
1103.50 98.17407
1103.60 98.14924
1103.70 98.12442
1103.80 98.09959
1103.90 98.07477
1104.00 98.04994
1104.10 98.02511
1104.20 98.00029
1104.30 97.97546
1104.40 97.95064
1104.50 97.92581
1104.60 97.90099
1104.70 97.87616
1104.80 97.85133
1104.90 97.82651
1105.00 97.80168
1105.10 97.77686
1105.20 97.75203
1105.30 97.72721
1105.40 97.70238
1105.50 97.67755
1105.60 97.65273
1105.70 97.6279
1105.80 97.60308
1105.90 97.58654
1106.00 97.58935
1106.10 97.59217
1106.20 97.59498
1106.30 97.59779
1106.40 97.6006
1106.50 97.60342
1106.60 97.60623
1106.70 97.60904
1106.80 97.61185
1106.90 97.61467
1107.00 97.61748
1107.10 97.62029
1107.20 97.6231
1107.30 97.62592
1107.40 97.62873
1107.50 97.63154
1107.60 97.63435
1107.70 97.63717
1107.80 97.63998
1107.90 97.64279
1108.00 97.6456
1108.10 97.64842
1108.20 97.65123
1108.30 97.65404
1108.40 97.65685
1108.50 97.65967
1108.60 97.66248
1108.70 97.66529
1108.80 97.6681
1108.90 97.67091
1109.00 97.67373
1109.10 97.67654
1109.20 97.67935
1109.30 97.68216
1109.40 97.68498
1109.50 97.68779
1109.60 97.6906
1109.70 97.69341
1109.80 97.69623
1109.90 97.69904
1110.00 97.70185
1110.10 97.69605
1110.20 97.68809
1110.30 97.68013
1110.40 97.67217
1110.50 97.66421
1110.60 97.65625
1110.70 97.64829
1110.80 97.64033
1110.90 97.63237
1111.00 97.62441
1111.10 97.61645
1111.20 97.60849
1111.30 97.60053
1111.40 97.59257
1111.50 97.58461
1111.60 97.57665
1111.70 97.56869
1111.80 97.56073
1111.90 97.55277
1112.00 97.54481
1112.10 97.53685
1112.20 97.52889
1112.30 97.52093
1112.40 97.51297
1112.50 97.50501
1112.60 97.49705
1112.70 97.48909
1112.80 97.48113
1112.90 97.47317
1113.00 97.46521
1113.10 97.45726
1113.20 97.4493
1113.30 97.44134
1113.40 97.43338
1113.50 97.42542
1113.60 97.41746
1113.70 97.4095
1113.80 97.40154
1113.90 97.39358
1114.00 97.38562
1114.10 97.37766
1114.20 97.37584
1114.30 97.38836
1114.40 97.40087
1114.50 97.41338
1114.60 97.4259
1114.70 97.43841
1114.80 97.45093
1114.90 97.46344
1115.00 97.47596
1115.10 97.48847
1115.20 97.50099
1115.30 97.5135
1115.40 97.52602
1115.50 97.53853
1115.60 97.55104
1115.70 97.56356
1115.80 97.57607
1115.90 97.58859
1116.00 97.6011
1116.10 97.61362
1116.20 97.62613
1116.30 97.63865
1116.40 97.65116
1116.50 97.66368
1116.60 97.67619
1116.70 97.6887
1116.80 97.70122
1116.90 97.71373
1117.00 97.72625
1117.10 97.73876
1117.20 97.75128
1117.30 97.76379
1117.40 97.77631
1117.50 97.78882
1117.60 97.80134
1117.70 97.81385
1117.80 97.82637
1117.90 97.83888
1118.00 97.85139
1118.10 97.86391
1118.20 97.87642
1118.30 97.88894
1118.40 97.90124
1118.50 97.9134
1118.60 97.92556
1118.70 97.93772
1118.80 97.94988
1118.90 97.96204
1119.00 97.9742
1119.10 97.98636
1119.20 97.99852
1119.30 98.01068
1119.40 98.02284
1119.50 98.035
1119.60 98.04716
1119.70 98.05932
1119.80 98.07148
1119.90 98.08364
1120.00 98.09579
1120.10 98.10795
1120.20 98.12011
1120.30 98.13227
1120.40 98.14443
1120.50 98.15659
1120.60 98.16875
1120.70 98.18091
1120.80 98.19307
1120.90 98.20523
1121.00 98.21739
1121.10 98.22955
1121.20 98.24171
1121.30 98.25387
1121.40 98.26603
1121.50 98.27819
1121.60 98.29035
1121.70 98.30251
1121.80 98.31467
1121.90 98.32683
1122.00 98.33899
1122.10 98.35115
1122.20 98.36331
1122.30 98.37547
1122.40 98.38763
1122.50 98.39979
1122.60 98.40069
1122.70 98.40035
1122.80 98.40001
1122.90 98.39967
1123.00 98.39932
1123.10 98.39898
1123.20 98.39864
1123.30 98.39829
1123.40 98.39795
1123.50 98.39761
1123.60 98.39726
1123.70 98.39692
1123.80 98.39658
1123.90 98.39623
1124.00 98.39589
1124.10 98.39555
1124.20 98.39521
1124.30 98.39486
1124.40 98.39452
1124.50 98.39418
1124.60 98.39383
1124.70 98.39349
1124.80 98.39315
1124.90 98.3928
1125.00 98.39246
1125.10 98.39212
1125.20 98.39177
1125.30 98.39143
1125.40 98.39109
1125.50 98.39075
1125.60 98.3904
1125.70 98.39006
1125.80 98.38972
1125.90 98.38937
1126.00 98.38903
1126.10 98.38869
1126.20 98.38834
1126.30 98.388
1126.40 98.38766
1126.50 98.38731
1126.60 98.38697
1126.70 98.38423
1126.80 98.37192
1126.90 98.35961
1127.00 98.3473
1127.10 98.33498
1127.20 98.32267
1127.30 98.31036
1127.40 98.29805
1127.50 98.28574
1127.60 98.27342
1127.70 98.26111
1127.80 98.2488
1127.90 98.23649
1128.00 98.22417
1128.10 98.21186
1128.20 98.19955
1128.30 98.18724
1128.40 98.17492
1128.50 98.16261
1128.60 98.1503
1128.70 98.13799
1128.80 98.12567
1128.90 98.11336
1129.00 98.10105
1129.10 98.08874
1129.20 98.07642
1129.30 98.06411
1129.40 98.0518
1129.50 98.03949
1129.60 98.02717
1129.70 98.01486
1129.80 98.00255
1129.90 97.99024
1130.00 97.97792
1130.10 97.96561
1130.20 97.9533
1130.30 97.94099
1130.40 97.92867
1130.50 97.91636
1130.60 97.90405
1130.70 97.89174
1130.80 97.87942
1130.90 97.86123
1131.00 97.82932
1131.10 97.7974
1131.20 97.76549
1131.30 97.73357
1131.40 97.70166
1131.50 97.66974
1131.60 97.63783
1131.70 97.60591
1131.80 97.574
1131.90 97.54208
1132.00 97.51017
1132.10 97.47825
1132.20 97.44634
1132.30 97.41442
1132.40 97.38251
1132.50 97.35059
1132.60 97.31868
1132.70 97.28676
1132.80 97.25485
1132.90 97.22293
1133.00 97.19102
1133.10 97.1591
1133.20 97.12719
1133.30 97.09527
1133.40 97.06336
1133.50 97.03144
1133.60 96.99953
1133.70 96.96761
1133.80 96.9357
1133.90 96.90378
1134.00 96.87187
1134.10 96.83995
1134.20 96.80804
1134.30 96.77612
1134.40 96.74421
1134.50 96.71229
1134.60 96.68038
1134.70 96.64846
1134.80 96.61655
1134.90 96.58463
1135.00 96.55272
1135.10 96.53144
1135.20 96.52611
1135.30 96.52078
1135.40 96.51545
1135.50 96.51012
1135.60 96.50479
1135.70 96.49946
1135.80 96.49413
1135.90 96.4888
1136.00 96.48347
1136.10 96.47814
1136.20 96.47281
1136.30 96.46748
1136.40 96.46215
1136.50 96.45682
1136.60 96.45149
1136.70 96.44616
1136.80 96.44083
1136.90 96.4355
1137.00 96.43017
1137.10 96.42484
1137.20 96.41951
1137.30 96.41419
1137.40 96.40886
1137.50 96.40353
1137.60 96.3982
1137.70 96.39287
1137.80 96.38754
1137.90 96.38221
1138.00 96.37688
1138.10 96.37155
1138.20 96.36622
1138.30 96.36089
1138.40 96.35556
1138.50 96.35023
1138.60 96.3449
1138.70 96.33957
1138.80 96.33424
1138.90 96.32891
1139.00 96.32358
1139.10 96.31825
1139.20 96.31292
1139.30 96.3167
1139.40 96.33414
1139.50 96.35158
1139.60 96.36902
1139.70 96.38646
1139.80 96.4039
1139.90 96.42134
1140.00 96.43877
1140.10 96.45621
1140.20 96.47365
1140.30 96.49109
1140.40 96.50853
1140.50 96.52597
1140.60 96.54341
1140.70 96.56085
1140.80 96.57829
1140.90 96.59573
1141.00 96.61317
1141.10 96.6306
1141.20 96.64804
1141.30 96.66548
1141.40 96.68292
1141.50 96.70036
1141.60 96.7178
1141.70 96.73524
1141.80 96.75268
1141.90 96.77012
1142.00 96.78756
1142.10 96.805
1142.20 96.82243
1142.30 96.83987
1142.40 96.85731
1142.50 96.87475
1142.60 96.89219
1142.70 96.90963
1142.80 96.92707
1142.90 96.94451
1143.00 96.96195
1143.10 96.97939
1143.20 96.99683
1143.30 97.01426
1143.40 97.0317
1143.50 97.05954
1143.60 97.11162
1143.70 97.16371
1143.80 97.2158
1143.90 97.26788
1144.00 97.31997
1144.10 97.37206
1144.20 97.42415
1144.30 97.47623
1144.40 97.52832
1144.50 97.58041
1144.60 97.63249
1144.70 97.68458
1144.80 97.73667
1144.90 97.78875
1145.00 97.84084
1145.10 97.89293
1145.20 97.94501
1145.30 97.9971
1145.40 98.04919
1145.50 98.10127
1145.60 98.15336
1145.70 98.20545
1145.80 98.25753
1145.90 98.30962
1146.00 98.36171
1146.10 98.4138
1146.20 98.46588
1146.30 98.51797
1146.40 98.57006
1146.50 98.62214
1146.60 98.67423
1146.70 98.72632
1146.80 98.7784
1146.90 98.83049
1147.00 98.88258
1147.10 98.93466
1147.20 98.98675
1147.30 99.03884
1147.40 99.09092
1147.50 99.14301
1147.60 99.1951
1147.70 99.24395
1147.80 99.27987
1147.90 99.31579
1148.00 99.35171
1148.10 99.38763
1148.20 99.42355
1148.30 99.45947
1148.40 99.49538
1148.50 99.5313
1148.60 99.56722
1148.70 99.60314
1148.80 99.63906
1148.90 99.67498
1149.00 99.7109
1149.10 99.74682
1149.20 99.78274
1149.30 99.81866
1149.40 99.85457
1149.50 99.89049
1149.60 99.92641
1149.70 99.96233
1149.80 99.99825
1149.90 100.0342
1150.00 100.0701
1150.10 100.106
1150.20 100.1419
1150.30 100.1778
1150.40 100.2138
1150.50 100.2497
1150.60 100.2856
1150.70 100.3215
1150.80 100.3574
1150.90 100.3934
1151.00 100.4293
1151.10 100.4652
1151.20 100.5011
1151.30 100.537
1151.40 100.573
1151.50 100.6089
1151.60 100.6448
1151.70 100.6807
1151.80 100.7166
1151.90 100.7525
1152.00 100.7491
1152.10 100.7456
1152.20 100.7421
1152.30 100.7386
1152.40 100.7351
1152.50 100.7316
1152.60 100.7281
1152.70 100.7246
1152.80 100.7211
1152.90 100.7176
1153.00 100.7141
1153.10 100.7106
1153.20 100.7071
1153.30 100.7036
1153.40 100.7001
1153.50 100.6966
1153.60 100.6931
1153.70 100.6896
1153.80 100.6861
1153.90 100.6826
1154.00 100.6791
1154.10 100.6756
1154.20 100.6721
1154.30 100.6686
1154.40 100.6651
1154.50 100.6616
1154.60 100.6581
1154.70 100.6546
1154.80 100.6511
1154.90 100.6476
1155.00 100.6441
1155.10 100.6406
1155.20 100.6371
1155.30 100.6336
1155.40 100.6301
1155.50 100.6266
1155.60 100.6231
1155.70 100.6196
1155.80 100.6161
1155.90 100.6126
1156.00 100.6091
1156.10 100.6056
1156.20 100.5889
1156.30 100.5688
1156.40 100.5488
1156.50 100.5287
1156.60 100.5087
1156.70 100.4887
1156.80 100.4686
1156.90 100.4486
1157.00 100.4285
1157.10 100.4085
1157.20 100.3884
1157.30 100.3684
1157.40 100.3483
1157.50 100.3283
1157.60 100.3082
1157.70 100.2882
1157.80 100.2681
1157.90 100.2481
1158.00 100.2281
1158.10 100.208
1158.20 100.188
1158.30 100.1679
1158.40 100.1479
1158.50 100.1278
1158.60 100.1078
1158.70 100.0877
1158.80 100.0677
1158.90 100.0476
1159.00 100.0276
1159.10 100.0075
1159.20 99.9875
1159.30 99.96745
1159.40 99.9474
1159.50 99.92736
1159.60 99.90731
1159.70 99.88726
1159.80 99.86722
1159.90 99.84717
1160.00 99.82713
1160.10 99.80708
1160.20 99.78703
1160.30 99.76699
1160.40 99.74604
1160.50 99.72419
1160.60 99.70235
1160.70 99.6805
1160.80 99.65865
1160.90 99.6368
1161.00 99.61496
1161.10 99.59311
1161.20 99.57126
1161.30 99.54942
1161.40 99.52757
1161.50 99.50572
1161.60 99.48387
1161.70 99.46203
1161.80 99.44018
1161.90 99.41833
1162.00 99.39649
1162.10 99.37464
1162.20 99.35279
1162.30 99.33094
1162.40 99.3091
1162.50 99.28725
1162.60 99.2654
1162.70 99.24356
1162.80 99.22171
1162.90 99.19986
1163.00 99.17801
1163.10 99.15617
1163.20 99.13432
1163.30 99.11247
1163.40 99.09063
1163.50 99.06878
1163.60 99.04693
1163.70 99.02508
1163.80 99.00324
1163.90 98.98139
1164.00 98.95954
1164.10 98.93769
1164.20 98.91585
1164.30 98.894
1164.40 98.87215
1164.50 98.85031
1164.60 98.82888
1164.70 98.81129
1164.80 98.7937
1164.90 98.77612
1165.00 98.75853
1165.10 98.74094
1165.20 98.72335
1165.30 98.70576
1165.40 98.68817
1165.50 98.67058
1165.60 98.65299
1165.70 98.6354
1165.80 98.61781
1165.90 98.60022
1166.00 98.58263
1166.10 98.56504
1166.20 98.54745
1166.30 98.52986
1166.40 98.51227
1166.50 98.49468
1166.60 98.47709
1166.70 98.4595
1166.80 98.44191
1166.90 98.42432
1167.00 98.40673
1167.10 98.38914
1167.20 98.37155
1167.30 98.35396
1167.40 98.33637
1167.50 98.31878
1167.60 98.30119
1167.70 98.2836
1167.80 98.26601
1167.90 98.24842
1168.00 98.23083
1168.10 98.21324
1168.20 98.19565
1168.30 98.17806
1168.40 98.16047
1168.50 98.14288
1168.60 98.12529
1168.70 98.1077
1168.80 98.09011
1168.90 98.05369
1169.00 98.00921
1169.10 97.96472
1169.20 97.92023
1169.30 97.87575
1169.40 97.83126
1169.50 97.78678
1169.60 97.74229
1169.70 97.6978
1169.80 97.65332
1169.90 97.60883
1170.00 97.56435
1170.10 97.51986
1170.20 97.47538
1170.30 97.43089
1170.40 97.3864
1170.50 97.34192
1170.60 97.29743
1170.70 97.25295
1170.80 97.20846
1170.90 97.16397
1171.00 97.11949
1171.10 97.075
1171.20 97.03052
1171.30 96.98603
1171.40 96.94154
1171.50 96.89706
1171.60 96.85257
1171.70 96.80809
1171.80 96.7636
1171.90 96.71911
1172.00 96.67463
1172.10 96.63014
1172.20 96.58566
1172.30 96.54117
1172.40 96.49669
1172.50 96.4522
1172.60 96.40771
1172.70 96.36323
1172.80 96.31874
1172.90 96.27426
1173.00 96.22977
1173.10 96.19624
1173.20 96.20655
1173.30 96.21686
1173.40 96.22716
1173.50 96.23747
1173.60 96.24778
1173.70 96.25809
1173.80 96.26839
1173.90 96.2787
1174.00 96.28901
1174.10 96.29931
1174.20 96.30962
1174.30 96.31993
1174.40 96.33024
1174.50 96.34054
1174.60 96.35085
1174.70 96.36116
1174.80 96.37147
1174.90 96.38177
1175.00 96.39208
1175.10 96.40239
1175.20 96.41269
1175.30 96.423
1175.40 96.43331
1175.50 96.44362
1175.60 96.45392
1175.70 96.46423
1175.80 96.47454
1175.90 96.48485
1176.00 96.49515
1176.10 96.50546
1176.20 96.51577
1176.30 96.52607
1176.40 96.53638
1176.50 96.54669
1176.60 96.557
1176.70 96.5673
1176.80 96.57761
1176.90 96.58792
1177.00 96.59822
1177.10 96.60853
1177.20 96.61884
1177.30 96.62915
1177.40 96.64361
1177.50 96.65986
1177.60 96.67611
1177.70 96.69236
1177.80 96.70861
1177.90 96.72485
1178.00 96.7411
1178.10 96.75735
1178.20 96.7736
1178.30 96.78985
1178.40 96.80609
1178.50 96.82234
1178.60 96.83859
1178.70 96.85484
1178.80 96.87109
1178.90 96.88734
1179.00 96.90358
1179.10 96.91983
1179.20 96.93608
1179.30 96.95233
1179.40 96.96858
1179.50 96.98482
1179.60 97.00107
1179.70 97.01732
1179.80 97.03357
1179.90 97.04982
1180.00 97.06607
1180.10 97.08231
1180.20 97.09856
1180.30 97.11481
1180.40 97.13106
1180.50 97.14731
1180.60 97.16355
1180.70 97.1798
1180.80 97.19605
1180.90 97.2123
1181.00 97.22855
1181.10 97.2448
1181.20 97.26104
1181.30 97.27729
1181.40 97.29354
1181.50 97.30979
1181.60 97.32683
1181.70 97.35096
1181.80 97.37509
1181.90 97.39923
1182.00 97.42336
1182.10 97.44749
1182.20 97.47163
1182.30 97.49576
1182.40 97.51989
1182.50 97.54403
1182.60 97.56816
1182.70 97.59229
1182.80 97.61643
1182.90 97.64056
1183.00 97.66469
1183.10 97.68883
1183.20 97.71296
1183.30 97.73709
1183.40 97.76123
1183.50 97.78536
1183.60 97.80949
1183.70 97.83363
1183.80 97.85776
1183.90 97.8819
1184.00 97.90603
1184.10 97.93016
1184.20 97.9543
1184.30 97.97843
1184.40 98.00256
1184.50 98.0267
1184.60 98.05083
1184.70 98.07496
1184.80 98.0991
1184.90 98.12323
1185.00 98.14736
1185.10 98.1715
1185.20 98.19563
1185.30 98.21976
1185.40 98.2439
1185.50 98.26803
1185.60 98.29216
1185.70 98.3163
1185.80 98.34043
1185.90 98.3472
1186.00 98.3366
1186.10 98.326
1186.20 98.31539
1186.30 98.30479
1186.40 98.29419
1186.50 98.28359
1186.60 98.27299
1186.70 98.26239
1186.80 98.25179
1186.90 98.24119
1187.00 98.23059
1187.10 98.21998
1187.20 98.20938
1187.30 98.19878
1187.40 98.18818
1187.50 98.17758
1187.60 98.16698
1187.70 98.15638
1187.80 98.14578
1187.90 98.13518
1188.00 98.12458
1188.10 98.11397
1188.20 98.10337
1188.30 98.09277
1188.40 98.08217
1188.50 98.07157
1188.60 98.06097
1188.70 98.05037
1188.80 98.03977
1188.90 98.02917
1189.00 98.01856
1189.10 98.00796
1189.20 97.99736
1189.30 97.98676
1189.40 97.97616
1189.50 97.96556
1189.60 97.95496
1189.70 97.94436
1189.80 97.93376
1189.90 97.92315
1190.00 97.91255
1190.10 97.90195
1190.20 97.87343
1190.30 97.84043
1190.40 97.80743
1190.50 97.77443
1190.60 97.74143
1190.70 97.70843
1190.80 97.67543
1190.90 97.64243
1191.00 97.60943
1191.10 97.57643
1191.20 97.54343
1191.30 97.51043
1191.40 97.47743
1191.50 97.44443
1191.60 97.41143
1191.70 97.37843
1191.80 97.34543
1191.90 97.31243
1192.00 97.27943
1192.10 97.24643
1192.20 97.21343
1192.30 97.18043
1192.40 97.14743
1192.50 97.11443
1192.60 97.08143
1192.70 97.04843
1192.80 97.01543
1192.90 96.98243
1193.00 96.94943
1193.10 96.91643
1193.20 96.88343
1193.30 96.85043
1193.40 96.81743
1193.50 96.78443
1193.60 96.75143
1193.70 96.71843
1193.80 96.68543
1193.90 96.65243
1194.00 96.61942
1194.10 96.58642
1194.20 96.55342
1194.30 96.52042
1194.40 96.48845
1194.50 96.46575
1194.60 96.44305
1194.70 96.42034
1194.80 96.39764
1194.90 96.37494
1195.00 96.35223
1195.10 96.32953
1195.20 96.30683
1195.30 96.28412
1195.40 96.26142
1195.50 96.23872
1195.60 96.21602
1195.70 96.19331
1195.80 96.17061
1195.90 96.14791
1196.00 96.1252
1196.10 96.1025
1196.20 96.0798
1196.30 96.05709
1196.40 96.03439
1196.50 96.01169
1196.60 95.98898
1196.70 95.96628
1196.80 95.94358
1196.90 95.92087
1197.00 95.89817
1197.10 95.87547
1197.20 95.85276
1197.30 95.83006
1197.40 95.80736
1197.50 95.78465
1197.60 95.76195
1197.70 95.73925
1197.80 95.71654
1197.90 95.69384
1198.00 95.67114
1198.10 95.64843
1198.20 95.62573
1198.30 95.60303
1198.40 95.58033
1198.50 95.55762
1198.60 95.53492
1198.70 95.52046
1198.80 95.51837
1198.90 95.51627
1199.00 95.51418
1199.10 95.51209
1199.20 95.51
1199.30 95.5079
1199.40 95.50581
1199.50 95.50372
1199.60 95.50162
1199.70 95.49953
1199.80 95.49744
1199.90 95.49535
1200.00 95.49325
1200.10 95.49116
1200.20 95.48907
1200.30 95.48697
1200.40 95.48488
1200.50 95.48279
1200.60 95.4807
1200.70 95.4786
1200.80 95.47651
1200.90 95.47442
1201.00 95.47232
1201.10 95.47023
1201.20 95.46814
1201.30 95.46605
1201.40 95.46395
1201.50 95.46186
1201.60 95.45977
1201.70 95.45767
1201.80 95.45558
1201.90 95.45349
1202.00 95.4514
1202.10 95.4493
1202.20 95.44721
1202.30 95.44512
1202.40 95.44302
1202.50 95.44093
1202.60 95.43884
1202.70 95.43675
1202.80 95.43465
1202.90 95.43256
1203.00 95.44817
1203.10 95.47557
1203.20 95.50297
1203.30 95.53038
1203.40 95.55778
1203.50 95.58519
1203.60 95.61259
1203.70 95.64
1203.80 95.6674
1203.90 95.69481
1204.00 95.72221
1204.10 95.74962
1204.20 95.77702
1204.30 95.80443
1204.40 95.83183
1204.50 95.85924
1204.60 95.88664
1204.70 95.91405
1204.80 95.94145
1204.90 95.96886
1205.00 95.99626
1205.10 96.02366
1205.20 96.05107
1205.30 96.07847
1205.40 96.10588
1205.50 96.13328
1205.60 96.16069
1205.70 96.18809
1205.80 96.2155
1205.90 96.2429
1206.00 96.27031
1206.10 96.29771
1206.20 96.32512
1206.30 96.35252
1206.40 96.37993
1206.50 96.40733
1206.60 96.43474
1206.70 96.46214
1206.80 96.48955
1206.90 96.51695
1207.00 96.54436
1207.10 96.57176
1207.20 96.59916
1207.30 96.64122
1207.40 96.68693
1207.50 96.73265
1207.60 96.77836
1207.70 96.82408
1207.80 96.8698
1207.90 96.91551
1208.00 96.96123
1208.10 97.00694
1208.20 97.05266
1208.30 97.09837
1208.40 97.14409
1208.50 97.18981
1208.60 97.23552
1208.70 97.28124
1208.80 97.32695
1208.90 97.37267
1209.00 97.41838
1209.10 97.4641
1209.20 97.50982
1209.30 97.55553
1209.40 97.60125
1209.50 97.64696
1209.60 97.69268
1209.70 97.73839
1209.80 97.78411
1209.90 97.82982
1210.00 97.87554
1210.10 97.92126
1210.20 97.96697
1210.30 98.01269
1210.40 98.0584
1210.50 98.10412
1210.60 98.14983
1210.70 98.19555
1210.80 98.24127
1210.90 98.28698
1211.00 98.3327
1211.10 98.37841
1211.20 98.42413
1211.30 98.46984
1211.40 98.51556
1211.50 98.56127
1211.60 98.57812
1211.70 98.59176
1211.80 98.60539
1211.90 98.61903
1212.00 98.63267
1212.10 98.64631
1212.20 98.65994
1212.30 98.67358
1212.40 98.68722
1212.50 98.70086
1212.60 98.71449
1212.70 98.72813
1212.80 98.74177
1212.90 98.75541
1213.00 98.76904
1213.10 98.78268
1213.20 98.79632
1213.30 98.80996
1213.40 98.82359
1213.50 98.83723
1213.60 98.85087
1213.70 98.86451
1213.80 98.87814
1213.90 98.89178
1214.00 98.90542
1214.10 98.91906
1214.20 98.93269
1214.30 98.94633
1214.40 98.95997
1214.50 98.97361
1214.60 98.98724
1214.70 99.00088
1214.80 99.01452
1214.90 99.02816
1215.00 99.04179
1215.10 99.05543
1215.20 99.06907
1215.30 99.08271
1215.40 99.09634
1215.50 99.10998
1215.60 99.12362
1215.70 99.13725
1215.80 99.15089
1215.90 99.19394
1216.00 99.23698
1216.10 99.28003
1216.20 99.32308
1216.30 99.36612
1216.40 99.40917
1216.50 99.45221
1216.60 99.49526
1216.70 99.53831
1216.80 99.58135
1216.90 99.6244
1217.00 99.66744
1217.10 99.71049
1217.20 99.75354
1217.30 99.79658
1217.40 99.83963
1217.50 99.88267
1217.60 99.92572
1217.70 99.96877
1217.80 100.0118
1217.90 100.0549
1218.00 100.0979
1218.10 100.141
1218.20 100.184
1218.30 100.227
1218.40 100.2701
1218.50 100.3131
1218.60 100.3562
1218.70 100.3992
1218.80 100.4423
1218.90 100.4853
1219.00 100.5284
1219.10 100.5714
1219.20 100.6145
1219.30 100.6575
1219.40 100.7005
1219.50 100.7436
1219.60 100.7866
1219.70 100.8297
1219.80 100.8727
1219.90 100.9158
1220.00 100.9588
1220.10 100.9994
1220.20 101.0181
1220.30 101.0368
1220.40 101.0554
1220.50 101.0741
1220.60 101.0927
1220.70 101.1114
1220.80 101.1301
1220.90 101.1487
1221.00 101.1674
1221.10 101.186
1221.20 101.2047
1221.30 101.2234
1221.40 101.242
1221.50 101.2607
1221.60 101.2793
1221.70 101.298
1221.80 101.3167
1221.90 101.3353
1222.00 101.354
1222.10 101.3726
1222.20 101.3913
1222.30 101.41
1222.40 101.4286
1222.50 101.4473
1222.60 101.4659
1222.70 101.4846
1222.80 101.5032
1222.90 101.5219
1223.00 101.5406
1223.10 101.5592
1223.20 101.5779
1223.30 101.5965
1223.40 101.6152
1223.50 101.6339
1223.60 101.6525
1223.70 101.6712
1223.80 101.6898
1223.90 101.7085
1224.00 101.7272
1224.10 101.7458
1224.20 101.7645
1224.30 101.7831
1224.40 101.7994
1224.50 101.8058
1224.60 101.8123
1224.70 101.8188
1224.80 101.8252
1224.90 101.8317
1225.00 101.8382
1225.10 101.8446
1225.20 101.8511
1225.30 101.8576
1225.40 101.864
1225.50 101.8705
1225.60 101.877
1225.70 101.8834
1225.80 101.8899
1225.90 101.8964
1226.00 101.9028
1226.10 101.9093
1226.20 101.9158
1226.30 101.9222
1226.40 101.9287
1226.50 101.9352
1226.60 101.9416
1226.70 101.9481
1226.80 101.9546
1226.90 101.961
1227.00 101.9675
1227.10 101.974
1227.20 101.9804
1227.30 101.9869
1227.40 101.9934
1227.50 101.9998
1227.60 102.0063
1227.70 102.0128
1227.80 102.0192
1227.90 102.0257
1228.00 102.0322
1228.10 102.0386
1228.20 102.0451
1228.30 102.0516
1228.40 102.058
1228.50 102.0645
1228.60 102.0709
1228.70 102.0717
1228.80 102.0495
1228.90 102.0274
1229.00 102.0052
1229.10 101.9831
1229.20 101.9609
1229.30 101.9388
1229.40 101.9166
1229.50 101.8945
1229.60 101.8723
1229.70 101.8502
1229.80 101.828
1229.90 101.8059
1230.00 101.7837
1230.10 101.7616
1230.20 101.7394
1230.30 101.7173
1230.40 101.6951
1230.50 101.673
1230.60 101.6508
1230.70 101.6287
1230.80 101.6065
1230.90 101.5844
1231.00 101.5622
1231.10 101.5401
1231.20 101.5179
1231.30 101.4958
1231.40 101.4736
1231.50 101.4515
1231.60 101.4293
1231.70 101.4072
1231.80 101.385
1231.90 101.3629
1232.00 101.3407
1232.10 101.3186
1232.20 101.2964
1232.30 101.2743
1232.40 101.2522
1232.50 101.23
1232.60 101.2079
1232.70 101.1857
1232.80 101.1636
1232.90 101.1414
1233.00 101.1163
1233.10 101.0793
1233.20 101.0423
1233.30 101.0053
1233.40 100.9683
1233.50 100.9313
1233.60 100.8943
1233.70 100.8573
1233.80 100.8203
1233.90 100.7833
1234.00 100.7463
1234.10 100.7093
1234.20 100.6723
1234.30 100.6353
1234.40 100.5983
1234.50 100.5613
1234.60 100.5243
1234.70 100.4873
1234.80 100.4503
1234.90 100.4133
1235.00 100.3763
1235.10 100.3393
1235.20 100.3024
1235.30 100.2654
1235.40 100.2284
1235.50 100.1914
1235.60 100.1544
1235.70 100.1174
1235.80 100.0804
1235.90 100.0434
1236.00 100.0064
1236.10 99.96938
1236.20 99.93238
1236.30 99.89539
1236.40 99.85839
1236.50 99.82139
1236.60 99.7844
1236.70 99.7474
1236.80 99.7104
1236.90 99.67341
1237.00 99.63641
1237.10 99.59941
1237.20 99.56242
1237.30 99.52885
1237.40 99.50902
1237.50 99.48919
1237.60 99.46936
1237.70 99.44953
1237.80 99.4297
1237.90 99.40987
1238.00 99.39004
1238.10 99.37021
1238.20 99.35038
1238.30 99.33054
1238.40 99.31071
1238.50 99.29088
1238.60 99.27105
1238.70 99.25122
1238.80 99.23139
1238.90 99.21156
1239.00 99.19173
1239.10 99.1719
1239.20 99.15207
1239.30 99.13224
1239.40 99.1124
1239.50 99.09257
1239.60 99.07274
1239.70 99.05291
1239.80 99.03308
1239.90 99.01325
1240.00 98.99342
1240.10 98.97359
1240.20 98.95376
1240.30 98.93393
1240.40 98.91409
1240.50 98.89426
1240.60 98.87443
1240.70 98.8546
1240.80 98.83477
1240.90 98.81494
1241.00 98.79511
1241.10 98.77528
1241.20 98.75545
1241.30 98.73562
1241.40 98.71579
1241.50 98.69595
1241.60 98.6765
1241.70 98.66042
1241.80 98.64434
1241.90 98.62826
1242.00 98.61218
1242.10 98.5961
1242.20 98.58002
1242.30 98.56394
1242.40 98.54786
1242.50 98.53178
1242.60 98.5157
1242.70 98.49962
1242.80 98.48354
1242.90 98.46746
1243.00 98.45138
1243.10 98.4353
1243.20 98.41922
1243.30 98.40314
1243.40 98.38706
1243.50 98.37098
1243.60 98.3549
1243.70 98.33882
1243.80 98.32274
1243.90 98.30666
1244.00 98.29058
1244.10 98.2745
1244.20 98.25842
1244.30 98.24234
1244.40 98.22626
1244.50 98.21018
1244.60 98.1941
1244.70 98.17802
1244.80 98.16194
1244.90 98.14586
1245.00 98.12978
1245.10 98.1137
1245.20 98.09762
1245.30 98.08154
1245.40 98.06546
1245.50 98.04939
1245.60 98.03331
1245.70 98.01723
1245.80 98.00115
1245.90 97.98507
1246.00 98.01591
1246.10 98.04675
1246.20 98.0776
1246.30 98.10844
1246.40 98.13929
1246.50 98.17013
1246.60 98.20097
1246.70 98.23182
1246.80 98.26266
1246.90 98.29351
1247.00 98.32435
1247.10 98.35519
1247.20 98.38604
1247.30 98.41688
1247.40 98.44773
1247.50 98.47857
1247.60 98.50941
1247.70 98.54026
1247.80 98.5711
1247.90 98.60194
1248.00 98.63279
1248.10 98.66363
1248.20 98.69448
1248.30 98.72532
1248.40 98.75616
1248.50 98.78701
1248.60 98.81785
1248.70 98.8487
1248.80 98.87954
1248.90 98.91038
1249.00 98.94123
1249.10 98.97207
1249.20 99.00292
1249.30 99.03376
1249.40 99.0646
1249.50 99.09545
1249.60 99.12629
1249.70 99.15714
1249.80 99.18798
1249.90 99.21882
1250.00 99.24967
1250.10 99.28051
1250.20 99.31136
1250.30 99.33735
1250.40 99.36334
1250.50 99.38933
1250.60 99.41533
1250.70 99.44132
1250.80 99.46731
1250.90 99.4933
1251.00 99.51929
1251.10 99.54529
1251.20 99.57128
1251.30 99.59727
1251.40 99.62326
1251.50 99.64926
1251.60 99.67525
1251.70 99.70124
1251.80 99.72723
1251.90 99.75322
1252.00 99.77922
1252.10 99.80521
1252.20 99.8312
1252.30 99.85719
1252.40 99.88319
1252.50 99.90918
1252.60 99.93517
1252.70 99.96116
1252.80 99.98715
1252.90 100.0131
1253.00 100.0391
1253.10 100.0651
1253.20 100.0911
1253.30 100.1171
1253.40 100.1431
1253.50 100.1691
1253.60 100.1951
1253.70 100.2211
1253.80 100.2471
1253.90 100.2731
1254.00 100.2991
1254.10 100.3251
1254.20 100.351
1254.30 100.377
1254.40 100.403
1254.50 100.429
1254.60 100.4717
1254.70 100.5163
1254.80 100.5609
1254.90 100.6055
1255.00 100.65
1255.10 100.6946
1255.20 100.7392
1255.30 100.7838
1255.40 100.8283
1255.50 100.8729
1255.60 100.9175
1255.70 100.9621
1255.80 101.0067
1255.90 101.0512
1256.00 101.0958
1256.10 101.1404
1256.20 101.185
1256.30 101.2295
1256.40 101.2741
1256.50 101.3187
1256.60 101.3633
1256.70 101.4078
1256.80 101.4524
1256.90 101.497
1257.00 101.5416
1257.10 101.5861
1257.20 101.6307
1257.30 101.6753
1257.40 101.7199
1257.50 101.7644
1257.60 101.809
1257.70 101.8536
1257.80 101.8982
1257.90 101.9427
1258.00 101.9873
1258.10 102.0319
1258.20 102.0765
1258.30 102.121
1258.40 102.1656
1258.50 102.2102
1258.60 102.2548
1258.70 102.2994
1258.80 102.3439
1258.90 102.3901
1259.00 102.437
1259.10 102.4839
1259.20 102.5308
1259.30 102.5777
1259.40 102.6246
1259.50 102.6714
1259.60 102.7183
1259.70 102.7652
1259.80 102.8121
1259.90 102.859
1260.00 102.9059
1260.10 102.9528
1260.20 102.9997
1260.30 103.0465
1260.40 103.0934
1260.50 103.1403
1260.60 103.1872
1260.70 103.2341
1260.80 103.281
1260.90 103.3279
1261.00 103.3748
1261.10 103.4216
1261.20 103.4685
1261.30 103.5154
1261.40 103.5623
1261.50 103.6092
1261.60 103.6561
1261.70 103.703
1261.80 103.7499
1261.90 103.7967
1262.00 103.8436
1262.10 103.8905
1262.20 103.9374
1262.30 103.9843
1262.40 104.0312
1262.50 104.0781
1262.60 104.125
1262.70 104.1718
1262.80 104.2187
1262.90 104.2656
1263.00 104.3125
1263.10 104.3594
1263.20 104.3948
1263.30 104.4224
1263.40 104.4501
1263.50 104.4778
1263.60 104.5055
1263.70 104.5332
1263.80 104.5609
1263.90 104.5885
1264.00 104.6162
1264.10 104.6439
1264.20 104.6716
1264.30 104.6993
1264.40 104.727
1264.50 104.7546
1264.60 104.7823
1264.70 104.81
1264.80 104.8377
1264.90 104.8654
1265.00 104.8931
1265.10 104.9208
1265.20 104.9484
1265.30 104.9761
1265.40 105.0038
1265.50 105.0315
1265.60 105.0592
1265.70 105.0869
1265.80 105.1145
1265.90 105.1422
1266.00 105.1699
1266.10 105.1976
1266.20 105.2253
1266.30 105.253
1266.40 105.2807
1266.50 105.3083
1266.60 105.336
1266.70 105.3637
1266.80 105.3914
1266.90 105.4191
1267.00 105.4468
1267.10 105.4744
1267.20 105.5021
1267.30 105.5298
1267.40 105.5575
1267.50 105.5836
1267.60 105.6082
1267.70 105.6327
1267.80 105.6573
1267.90 105.6819
1268.00 105.7064
1268.10 105.731
1268.20 105.7555
1268.30 105.7801
1268.40 105.8047
1268.50 105.8292
1268.60 105.8538
1268.70 105.8784
1268.80 105.9029
1268.90 105.9275
1269.00 105.952
1269.10 105.9766
1269.20 106.0012
1269.30 106.0257
1269.40 106.0503
1269.50 106.0748
1269.60 106.0994
1269.70 106.124
1269.80 106.1485
1269.90 106.1731
1270.00 106.1976
1270.10 106.2222
1270.20 106.2468
1270.30 106.2713
1270.40 106.2959
1270.50 106.3205
1270.60 106.345
1270.70 106.3696
1270.80 106.3941
1270.90 106.4187
1271.00 106.4433
1271.10 106.4678
1271.20 106.4924
1271.30 106.5169
1271.40 106.5415
1271.50 106.5661
1271.60 106.5906
1271.70 106.6152
1271.80 106.6329
1271.90 106.6348
1272.00 106.6366
1272.10 106.6384
1272.20 106.6403
1272.30 106.6421
1272.40 106.6439
1272.50 106.6458
1272.60 106.6476
1272.70 106.6494
1272.80 106.6513
1272.90 106.6531
1273.00 106.6549
1273.10 106.6568
1273.20 106.6586
1273.30 106.6605
1273.40 106.6623
1273.50 106.6641
1273.60 106.666
1273.70 106.6678
1273.80 106.6696
1273.90 106.6715
1274.00 106.6733
1274.10 106.6751
1274.20 106.677
1274.30 106.6788
1274.40 106.6806
1274.50 106.6825
1274.60 106.6843
1274.70 106.6861
1274.80 106.688
1274.90 106.6898
1275.00 106.6916
1275.10 106.6935
1275.20 106.6953
1275.30 106.6972
1275.40 106.699
1275.50 106.7008
1275.60 106.7027
1275.70 106.7045
1275.80 106.7063
1275.90 106.7082
1276.00 106.71
1276.10 106.7106
1276.20 106.6997
1276.30 106.6889
1276.40 106.678
1276.50 106.6672
1276.60 106.6563
1276.70 106.6455
1276.80 106.6346
1276.90 106.6238
1277.00 106.6129
1277.10 106.602
1277.20 106.5912
1277.30 106.5803
1277.40 106.5695
1277.50 106.5586
1277.60 106.5478
1277.70 106.5369
1277.80 106.5261
1277.90 106.5152
1278.00 106.5044
1278.10 106.4935
1278.20 106.4827
1278.30 106.4718
1278.40 106.461
1278.50 106.4501
1278.60 106.4393
1278.70 106.4284
1278.80 106.4176
1278.90 106.4067
1279.00 106.3959
1279.10 106.385
1279.20 106.3742
1279.30 106.3633
1279.40 106.3525
1279.50 106.3416
1279.60 106.3308
1279.70 106.3199
1279.80 106.3091
1279.90 106.2982
1280.00 106.2874
1280.10 106.2765
1280.20 106.2657
1280.30 106.2548
1280.40 106.244
1280.50 106.2427
1280.60 106.2415
1280.70 106.2403
1280.80 106.239
1280.90 106.2378
1281.00 106.2366
1281.10 106.2353
1281.20 106.2341
1281.30 106.2329
1281.40 106.2316
1281.50 106.2304
1281.60 106.2292
1281.70 106.2279
1281.80 106.2267
1281.90 106.2255
1282.00 106.2242
1282.10 106.223
1282.20 106.2218
1282.30 106.2205
1282.40 106.2193
1282.50 106.2181
1282.60 106.2169
1282.70 106.2156
1282.80 106.2144
1282.90 106.2132
1283.00 106.2119
1283.10 106.2107
1283.20 106.2095
1283.30 106.2082
1283.40 106.207
1283.50 106.2058
1283.60 106.2045
1283.70 106.2033
1283.80 106.2021
1283.90 106.2008
1284.00 106.1996
1284.10 106.1984
1284.20 106.1971
1284.30 106.1959
1284.40 106.1947
1284.50 106.1934
1284.60 106.1922
1284.70 106.191
1284.80 106.1972
1284.90 106.2053
1285.00 106.2133
1285.10 106.2214
1285.20 106.2295
1285.30 106.2376
1285.40 106.2456
1285.50 106.2537
1285.60 106.2618
1285.70 106.2699
1285.80 106.2779
1285.90 106.286
1286.00 106.2941
1286.10 106.3022
1286.20 106.3102
1286.30 106.3183
1286.40 106.3264
1286.50 106.3344
1286.60 106.3425
1286.70 106.3506
1286.80 106.3587
1286.90 106.3667
1287.00 106.3748
1287.10 106.3829
1287.20 106.391
1287.30 106.399
1287.40 106.4071
1287.50 106.4152
1287.60 106.4233
1287.70 106.4313
1287.80 106.4394
1287.90 106.4475
1288.00 106.4556
1288.10 106.4636
1288.20 106.4717
1288.30 106.4798
1288.40 106.4878
1288.50 106.4959
1288.60 106.504
1288.70 106.5121
1288.80 106.5201
1288.90 106.5282
1289.00 106.5363
1289.10 106.5288
1289.20 106.5111
1289.30 106.4933
1289.40 106.4755
1289.50 106.4577
1289.60 106.4399
1289.70 106.4221
1289.80 106.4043
1289.90 106.3865
1290.00 106.3687
1290.10 106.3509
1290.20 106.3331
1290.30 106.3153
1290.40 106.2975
1290.50 106.2798
1290.60 106.262
1290.70 106.2442
1290.80 106.2264
1290.90 106.2086
1291.00 106.1908
1291.10 106.173
1291.20 106.1552
1291.30 106.1374
1291.40 106.1196
1291.50 106.1018
1291.60 106.084
1291.70 106.0663
1291.80 106.0485
1291.90 106.0307
1292.00 106.0129
1292.10 105.9951
1292.20 105.9773
1292.30 105.9595
1292.40 105.9417
1292.50 105.9239
1292.60 105.9061
1292.70 105.8883
1292.80 105.8705
1292.90 105.8527
1293.00 105.835
1293.10 105.8172
1293.20 105.7994
1293.30 105.7816
1293.40 105.7695
1293.50 105.7661
1293.60 105.7627
1293.70 105.7593
1293.80 105.7559
1293.90 105.7525
1294.00 105.7491
1294.10 105.7457
1294.20 105.7422
1294.30 105.7388
1294.40 105.7354
1294.50 105.732
1294.60 105.7286
1294.70 105.7252
1294.80 105.7218
1294.90 105.7184
1295.00 105.7149
1295.10 105.7115
1295.20 105.7081
1295.30 105.7047
1295.40 105.7013
1295.50 105.6979
1295.60 105.6945
1295.70 105.6911
1295.80 105.6877
1295.90 105.6842
1296.00 105.6808
1296.10 105.6774
1296.20 105.674
1296.30 105.6706
1296.40 105.6672
1296.50 105.6638
1296.60 105.6604
1296.70 105.6569
1296.80 105.6535
1296.90 105.6501
1297.00 105.6467
1297.10 105.6433
1297.20 105.6399
1297.30 105.6365
1297.40 105.6331
1297.50 105.6296
1297.60 105.6262
1297.70 105.6242
1297.80 105.6278
1297.90 105.6314
1298.00 105.635
1298.10 105.6386
1298.20 105.6422
1298.30 105.6458
1298.40 105.6494
1298.50 105.653
1298.60 105.6566
1298.70 105.6602
1298.80 105.6638
1298.90 105.6675
1299.00 105.6711
1299.10 105.6747
1299.20 105.6783
1299.30 105.6819
1299.40 105.6855
1299.50 105.6891
1299.60 105.6927
1299.70 105.6963
1299.80 105.6999
1299.90 105.7035
