# Version 2.1 - nm, norm@500 to 1, cut digits
# Wavelength(nm)  Flambda(ergs/cm^s/s/nm)
300.00 1.185972e-95
300.10 1.185972e-95
300.20 1.185972e-95
300.30 1.185972e-95
300.40 1.185972e-95
300.50 1.185972e-95
300.60 1.185972e-95
300.70 1.185972e-95
300.80 1.185972e-95
300.90 1.185972e-95
301.00 1.185972e-95
301.10 1.185972e-95
301.20 1.185972e-95
301.30 1.185972e-95
301.40 1.185972e-95
301.50 1.185972e-95
301.60 1.185972e-95
301.70 1.185972e-95
301.80 1.185972e-95
301.90 1.185972e-95
302.00 1.185972e-95
302.10 1.185972e-95
302.20 1.185972e-95
302.30 1.185972e-95
302.40 1.185972e-95
302.50 1.185972e-95
302.60 1.185972e-95
302.70 1.185972e-95
302.80 1.185972e-95
302.90 1.185972e-95
303.00 1.185972e-95
303.10 1.185972e-95
303.20 1.185972e-95
303.30 1.185972e-95
303.40 1.185972e-95
303.50 1.185972e-95
303.60 1.185972e-95
303.70 1.185972e-95
303.80 1.185972e-95
303.90 1.185972e-95
304.00 1.185972e-95
304.10 1.185972e-95
304.20 1.185972e-95
304.30 1.185972e-95
304.40 1.185972e-95
304.50 1.185972e-95
304.60 1.185972e-95
304.70 1.185972e-95
304.80 1.185972e-95
304.90 1.185972e-95
305.00 1.185972e-95
305.10 1.185972e-95
305.20 1.185972e-95
305.30 1.185972e-95
305.40 1.185972e-95
305.50 1.185972e-95
305.60 1.185972e-95
305.70 1.185972e-95
305.80 1.185972e-95
305.90 1.185972e-95
306.00 1.185972e-95
306.10 1.185972e-95
306.20 1.185972e-95
306.30 1.185972e-95
306.40 1.185972e-95
306.50 1.185972e-95
306.60 1.185972e-95
306.70 1.185972e-95
306.80 1.185972e-95
306.90 1.185972e-95
307.00 1.185972e-95
307.10 1.185972e-95
307.20 1.185972e-95
307.30 1.185972e-95
307.40 1.185972e-95
307.50 1.185972e-95
307.60 1.185972e-95
307.70 1.185972e-95
307.80 1.185972e-95
307.90 1.185972e-95
308.00 1.185972e-95
308.10 1.185972e-95
308.20 1.185972e-95
308.30 1.185972e-95
308.40 1.185972e-95
308.50 1.185972e-95
308.60 1.185972e-95
308.70 1.185972e-95
308.80 1.185972e-95
308.90 1.185972e-95
309.00 1.185972e-95
309.10 1.185972e-95
309.20 1.185972e-95
309.30 1.185972e-95
309.40 1.185972e-95
309.50 1.185972e-95
309.60 1.185972e-95
309.70 1.185972e-95
309.80 1.185972e-95
309.90 1.185972e-95
310.00 1.185972e-95
310.10 1.185972e-95
310.20 1.185972e-95
310.30 1.185972e-95
310.40 1.185972e-95
310.50 1.185972e-95
310.60 1.185972e-95
310.70 1.185972e-95
310.80 1.185972e-95
310.90 1.185972e-95
311.00 1.185972e-95
311.10 1.185972e-95
311.20 1.185972e-95
311.30 1.185972e-95
311.40 1.185972e-95
311.50 1.185972e-95
311.60 1.185972e-95
311.70 1.185972e-95
311.80 1.185972e-95
311.90 1.185972e-95
312.00 1.185972e-95
312.10 1.185972e-95
312.20 1.185972e-95
312.30 1.185972e-95
312.40 1.185972e-95
312.50 1.185972e-95
312.60 1.185972e-95
312.70 1.185972e-95
312.80 1.185972e-95
312.90 1.185972e-95
313.00 1.185972e-95
313.10 1.185972e-95
313.20 1.185972e-95
313.30 1.185972e-95
313.40 1.185972e-95
313.50 1.185972e-95
313.60 1.185972e-95
313.70 1.185972e-95
313.80 1.185972e-95
313.90 1.185972e-95
314.00 1.185972e-95
314.10 1.185972e-95
314.20 1.185972e-95
314.30 1.185972e-95
314.40 1.185972e-95
314.50 1.185972e-95
314.60 1.185972e-95
314.70 1.185972e-95
314.80 1.185972e-95
314.90 1.185972e-95
315.00 1.185972e-95
315.10 1.185972e-95
315.20 1.185972e-95
315.30 1.185972e-95
315.40 1.185972e-95
315.50 1.185972e-95
315.60 1.185972e-95
315.70 1.185972e-95
315.80 1.185972e-95
315.90 1.185972e-95
316.00 1.185972e-95
316.10 1.185972e-95
316.20 1.185972e-95
316.30 1.185972e-95
316.40 1.185972e-95
316.50 1.185972e-95
316.60 1.185972e-95
316.70 1.185972e-95
316.80 1.185972e-95
316.90 1.185972e-95
317.00 1.185972e-95
317.10 1.185972e-95
317.20 1.185972e-95
317.30 1.185972e-95
317.40 1.185972e-95
317.50 1.185972e-95
317.60 1.185972e-95
317.70 1.185972e-95
317.80 1.185972e-95
317.90 1.185972e-95
318.00 1.185972e-95
318.10 1.185972e-95
318.20 1.185972e-95
318.30 1.185972e-95
318.40 1.185972e-95
318.50 1.185972e-95
318.60 1.185972e-95
318.70 1.185972e-95
318.80 1.185972e-95
318.90 1.185972e-95
319.00 1.185972e-95
319.10 1.185972e-95
319.20 1.185972e-95
319.30 1.185972e-95
319.40 1.185972e-95
319.50 1.185972e-95
319.60 1.185972e-95
319.70 1.185972e-95
319.80 1.185972e-95
319.90 1.185972e-95
320.00 1.185972e-95
320.10 1.185972e-95
320.20 1.185972e-95
320.30 1.185972e-95
320.40 1.185972e-95
320.50 1.185972e-95
320.60 1.185972e-95
320.70 1.185972e-95
320.80 1.185972e-95
320.90 1.185972e-95
321.00 1.185972e-95
321.10 1.185972e-95
321.20 1.185972e-95
321.30 1.185972e-95
321.40 1.185972e-95
321.50 1.185972e-95
321.60 1.185972e-95
321.70 1.185972e-95
321.80 1.185972e-95
321.90 1.185972e-95
322.00 1.185972e-95
322.10 1.185972e-95
322.20 1.185972e-95
322.30 1.185972e-95
322.40 1.185972e-95
322.50 1.185972e-95
322.60 1.185972e-95
322.70 1.185972e-95
322.80 1.185972e-95
322.90 1.185972e-95
323.00 1.185972e-95
323.10 1.185972e-95
323.20 1.185972e-95
323.30 1.185972e-95
323.40 1.185972e-95
323.50 1.185972e-95
323.60 1.185972e-95
323.70 1.185972e-95
323.80 1.185972e-95
323.90 1.185972e-95
324.00 1.185972e-95
324.10 1.185972e-95
324.20 1.185972e-95
324.30 1.185972e-95
324.40 1.185972e-95
324.50 1.185972e-95
324.60 1.185972e-95
324.70 1.185972e-95
324.80 1.185972e-95
324.90 1.185972e-95
325.00 1.185972e-95
325.10 1.185972e-95
325.20 1.185972e-95
325.30 1.185972e-95
325.40 1.185972e-95
325.50 1.185972e-95
325.60 1.185972e-95
325.70 1.185972e-95
325.80 1.185972e-95
325.90 1.185972e-95
326.00 1.185972e-95
326.10 1.185972e-95
326.20 1.185972e-95
326.30 1.185972e-95
326.40 1.185972e-95
326.50 1.185972e-95
326.60 1.185972e-95
326.70 1.185972e-95
326.80 1.185972e-95
326.90 1.185972e-95
327.00 1.185972e-95
327.10 1.185972e-95
327.20 1.185972e-95
327.30 1.185972e-95
327.40 1.185972e-95
327.50 1.185972e-95
327.60 1.185972e-95
327.70 1.185972e-95
327.80 1.185972e-95
327.90 1.185972e-95
328.00 1.185972e-95
328.10 1.185972e-95
328.20 1.185972e-95
328.30 1.185972e-95
328.40 1.185972e-95
328.50 1.185972e-95
328.60 1.185972e-95
328.70 1.185972e-95
328.80 1.185972e-95
328.90 1.185972e-95
329.00 1.185972e-95
329.10 1.185972e-95
329.20 1.185972e-95
329.30 1.185972e-95
329.40 1.185972e-95
329.50 1.185972e-95
329.60 1.185972e-95
329.70 1.185972e-95
329.80 1.185972e-95
329.90 1.185972e-95
330.00 1.185972e-95
330.10 1.185972e-95
330.20 1.185972e-95
330.30 1.185972e-95
330.40 1.185972e-95
330.50 1.185972e-95
330.60 1.185972e-95
330.70 1.185972e-95
330.80 1.185972e-95
330.90 1.185972e-95
331.00 1.185972e-95
331.10 1.185972e-95
331.20 1.185972e-95
331.30 1.185972e-95
331.40 1.185972e-95
331.50 1.185972e-95
331.60 1.185972e-95
331.70 1.185972e-95
331.80 1.185972e-95
331.90 1.185972e-95
332.00 1.185972e-95
332.10 1.185972e-95
332.20 1.185972e-95
332.30 1.185972e-95
332.40 1.185972e-95
332.50 1.185972e-95
332.60 1.185972e-95
332.70 1.185972e-95
332.80 1.185972e-95
332.90 1.185972e-95
333.00 1.185972e-95
333.10 1.185972e-95
333.20 1.185972e-95
333.30 1.185972e-95
333.40 1.185972e-95
333.50 1.185972e-95
333.60 1.185972e-95
333.70 1.185972e-95
333.80 1.185972e-95
333.90 1.185972e-95
334.00 1.185972e-95
334.10 1.185972e-95
334.20 1.185972e-95
334.30 1.185972e-95
334.40 1.185972e-95
334.50 1.185972e-95
334.60 1.185972e-95
334.70 1.185972e-95
334.80 1.185972e-95
334.90 1.185972e-95
335.00 1.185972e-95
335.10 1.185972e-95
335.20 1.185972e-95
335.30 1.185972e-95
335.40 1.185972e-95
335.50 1.185972e-95
335.60 1.185972e-95
335.70 1.185972e-95
335.80 1.185972e-95
335.90 1.185972e-95
336.00 1.185972e-95
336.10 1.185972e-95
336.20 1.185972e-95
336.30 1.185972e-95
336.40 1.185972e-95
336.50 1.185972e-95
336.60 1.185972e-95
336.70 1.185972e-95
336.80 1.185972e-95
336.90 1.185972e-95
337.00 1.185972e-95
337.10 1.185972e-95
337.20 1.185972e-95
337.30 1.185972e-95
337.40 1.185972e-95
337.50 1.185972e-95
337.60 1.185972e-95
337.70 1.185972e-95
337.80 1.185972e-95
337.90 1.185972e-95
338.00 1.185972e-95
338.10 1.185972e-95
338.20 1.185972e-95
338.30 1.185972e-95
338.40 1.185972e-95
338.50 1.185972e-95
338.60 1.185972e-95
338.70 1.185972e-95
338.80 1.185972e-95
338.90 1.185972e-95
339.00 1.185972e-95
339.10 1.185972e-95
339.20 1.185972e-95
339.30 1.185972e-95
339.40 1.185972e-95
339.50 1.185972e-95
339.60 1.185972e-95
339.70 1.185972e-95
339.80 1.185972e-95
339.90 1.185972e-95
340.00 1.185972e-95
340.10 1.185972e-95
340.20 1.185972e-95
340.30 1.185972e-95
340.40 1.185972e-95
340.50 1.185972e-95
340.60 1.185972e-95
340.70 1.185972e-95
340.80 1.185972e-95
340.90 1.185972e-95
341.00 1.185972e-95
341.10 1.185972e-95
341.20 1.185972e-95
341.30 1.185972e-95
341.40 1.185972e-95
341.50 1.185972e-95
341.60 1.185972e-95
341.70 1.185972e-95
341.80 1.185972e-95
341.90 1.185972e-95
342.00 1.185972e-95
342.10 1.185972e-95
342.20 1.185972e-95
342.30 1.185972e-95
342.40 1.185972e-95
342.50 1.185972e-95
342.60 1.185972e-95
342.70 1.185972e-95
342.80 1.185972e-95
342.90 1.185972e-95
343.00 1.185972e-95
343.10 1.185972e-95
343.20 1.185972e-95
343.30 1.185972e-95
343.40 1.185972e-95
343.50 1.185972e-95
343.60 1.185972e-95
343.70 1.185972e-95
343.80 1.185972e-95
343.90 1.185972e-95
344.00 1.185972e-95
344.10 1.185972e-95
344.20 1.185972e-95
344.30 1.185972e-95
344.40 1.185972e-95
344.50 1.185972e-95
344.60 1.185972e-95
344.70 1.185972e-95
344.80 1.185972e-95
344.90 1.185972e-95
345.00 1.185972e-95
345.10 1.185972e-95
345.20 1.185972e-95
345.30 1.185972e-95
345.40 1.185972e-95
345.50 1.185972e-95
345.60 1.185972e-95
345.70 1.185972e-95
345.80 1.185972e-95
345.90 1.185972e-95
346.00 1.185972e-95
346.10 1.185972e-95
346.20 1.185972e-95
346.30 1.185972e-95
346.40 1.185972e-95
346.50 1.185972e-95
346.60 1.185972e-95
346.70 1.185972e-95
346.80 1.185972e-95
346.90 1.185972e-95
347.00 1.185972e-95
347.10 1.185972e-95
347.20 1.185972e-95
347.30 1.185972e-95
347.40 1.185972e-95
347.50 1.185972e-95
347.60 1.185972e-95
347.70 1.185972e-95
347.80 1.185972e-95
347.90 1.185972e-95
348.00 1.185972e-95
348.10 1.185972e-95
348.20 1.185972e-95
348.30 1.185972e-95
348.40 1.185972e-95
348.50 1.185972e-95
348.60 1.185972e-95
348.70 1.185972e-95
348.80 1.185972e-95
348.90 1.185972e-95
349.00 1.185972e-95
349.10 1.185972e-95
349.20 1.185972e-95
349.30 1.185972e-95
349.40 1.185972e-95
349.50 1.185972e-95
349.60 1.185972e-95
349.70 1.185972e-95
349.80 1.185972e-95
349.90 1.185972e-95
350.00 1.185972e-95
350.10 1.185972e-95
350.20 1.185972e-95
350.30 1.185972e-95
350.40 1.185972e-95
350.50 1.185972e-95
350.60 1.185972e-95
350.70 1.185972e-95
350.80 1.185972e-95
350.90 1.185972e-95
351.00 1.185972e-95
351.10 1.185972e-95
351.20 1.185972e-95
351.30 1.185972e-95
351.40 1.185972e-95
351.50 1.185972e-95
351.60 1.185972e-95
351.70 1.185972e-95
351.80 1.185972e-95
351.90 1.185972e-95
352.00 1.185972e-95
352.10 1.185972e-95
352.20 1.185972e-95
352.30 1.185972e-95
352.40 1.185972e-95
352.50 1.185972e-95
352.60 1.185972e-95
352.70 1.185972e-95
352.80 1.185972e-95
352.90 1.185972e-95
353.00 1.185972e-95
353.10 1.185972e-95
353.20 1.185972e-95
353.30 1.185972e-95
353.40 1.185972e-95
353.50 1.185972e-95
353.60 1.185972e-95
353.70 1.185972e-95
353.80 1.185972e-95
353.90 1.185972e-95
354.00 1.185972e-95
354.10 1.185972e-95
354.20 1.185972e-95
354.30 1.185972e-95
354.40 1.185972e-95
354.50 1.185972e-95
354.60 1.185972e-95
354.70 1.185972e-95
354.80 1.185972e-95
354.90 1.185972e-95
355.00 1.185972e-95
355.10 1.185972e-95
355.20 1.185972e-95
355.30 1.185972e-95
355.40 1.185972e-95
355.50 1.185972e-95
355.60 1.185972e-95
355.70 1.185972e-95
355.80 1.185972e-95
355.90 1.185972e-95
356.00 1.185972e-95
356.10 1.185972e-95
356.20 1.185972e-95
356.30 1.185972e-95
356.40 1.185972e-95
356.50 1.185972e-95
356.60 1.185972e-95
356.70 1.185972e-95
356.80 1.185972e-95
356.90 1.185972e-95
357.00 1.185972e-95
357.10 1.185972e-95
357.20 1.185972e-95
357.30 1.185972e-95
357.40 1.185972e-95
357.50 1.185972e-95
357.60 1.185972e-95
357.70 1.185972e-95
357.80 1.185972e-95
357.90 1.185972e-95
358.00 1.185972e-95
358.10 1.185972e-95
358.20 1.185972e-95
358.30 1.185972e-95
358.40 1.185972e-95
358.50 1.185972e-95
358.60 1.185972e-95
358.70 1.185972e-95
358.80 1.185972e-95
358.90 1.185972e-95
359.00 1.185972e-95
359.10 1.185972e-95
359.20 1.185972e-95
359.30 1.185972e-95
359.40 1.185972e-95
359.50 1.185972e-95
359.60 1.185972e-95
359.70 1.185972e-95
359.80 1.185972e-95
359.90 1.185972e-95
360.00 1.185972e-95
360.10 1.185972e-95
360.20 1.185972e-95
360.30 1.185972e-95
360.40 1.185972e-95
360.50 1.185972e-95
360.60 1.185972e-95
360.70 1.185972e-95
360.80 1.185972e-95
360.90 1.185972e-95
361.00 1.185972e-95
361.10 1.185972e-95
361.20 1.185972e-95
361.30 1.185972e-95
361.40 1.185972e-95
361.50 1.185972e-95
361.60 1.185972e-95
361.70 1.185972e-95
361.80 1.185972e-95
361.90 1.185972e-95
362.00 1.185972e-95
362.10 1.185972e-95
362.20 1.185972e-95
362.30 1.185972e-95
362.40 1.185972e-95
362.50 1.185972e-95
362.60 1.185972e-95
362.70 1.185972e-95
362.80 1.185972e-95
362.90 1.185972e-95
363.00 1.185972e-95
363.10 1.185972e-95
363.20 1.185972e-95
363.30 1.185972e-95
363.40 1.185972e-95
363.50 1.185972e-95
363.60 1.185972e-95
363.70 1.185972e-95
363.80 1.185972e-95
363.90 1.185972e-95
364.00 1.185972e-95
364.10 1.185972e-95
364.20 1.185972e-95
364.30 1.185972e-95
364.40 1.185972e-95
364.50 1.185972e-95
364.60 1.185972e-95
364.70 1.185972e-95
364.80 1.185972e-95
364.90 1.185972e-95
365.00 1.185972e-95
365.10 1.185972e-95
365.20 1.185972e-95
365.30 1.185972e-95
365.40 1.185972e-95
365.50 1.185972e-95
365.60 1.185972e-95
365.70 1.185972e-95
365.80 1.185972e-95
365.90 1.185972e-95
366.00 1.185972e-95
366.10 1.185972e-95
366.20 1.185972e-95
366.30 1.185972e-95
366.40 1.185972e-95
366.50 1.185972e-95
366.60 1.185972e-95
366.70 1.185972e-95
366.80 1.185972e-95
366.90 1.185972e-95
367.00 1.185972e-95
367.10 1.185972e-95
367.20 1.185972e-95
367.30 1.185972e-95
367.40 1.185972e-95
367.50 1.185972e-95
367.60 1.185972e-95
367.70 1.185972e-95
367.80 1.185972e-95
367.90 1.185972e-95
368.00 1.185972e-95
368.10 1.185972e-95
368.20 1.185972e-95
368.30 1.185972e-95
368.40 1.185972e-95
368.50 1.185972e-95
368.60 1.185972e-95
368.70 1.185972e-95
368.80 1.185972e-95
368.90 1.185972e-95
369.00 1.185972e-95
369.10 1.185972e-95
369.20 1.185972e-95
369.30 1.185972e-95
369.40 1.185972e-95
369.50 1.185972e-95
369.60 1.185972e-95
369.70 1.185972e-95
369.80 1.185972e-95
369.90 1.185972e-95
370.00 1.185972e-95
370.10 1.185972e-95
370.20 1.185972e-95
370.30 1.185972e-95
370.40 1.185972e-95
370.50 1.185972e-95
370.60 1.185972e-95
370.70 1.185972e-95
370.80 1.185972e-95
370.90 1.185972e-95
371.00 1.185972e-95
371.10 1.185972e-95
371.20 1.185972e-95
371.30 1.185972e-95
371.40 1.185972e-95
371.50 1.185972e-95
371.60 1.185972e-95
371.70 1.185972e-95
371.80 1.185972e-95
371.90 1.185972e-95
372.00 1.185972e-95
372.10 1.185972e-95
372.20 1.185972e-95
372.30 1.185972e-95
372.40 1.185972e-95
372.50 1.185972e-95
372.60 1.185972e-95
372.70 1.185972e-95
372.80 1.185972e-95
372.90 1.185972e-95
373.00 1.185972e-95
373.10 1.185972e-95
373.20 1.185972e-95
373.30 1.185972e-95
373.40 1.185972e-95
373.50 1.185972e-95
373.60 1.185972e-95
373.70 1.185972e-95
373.80 1.185972e-95
373.90 1.185972e-95
374.00 1.185972e-95
374.10 1.185972e-95
374.20 1.185972e-95
374.30 1.185972e-95
374.40 1.185972e-95
374.50 1.185972e-95
374.60 1.185972e-95
374.70 1.185972e-95
374.80 1.185972e-95
374.90 1.185972e-95
375.00 1.185972e-95
375.10 1.185972e-95
375.20 1.185972e-95
375.30 1.185972e-95
375.40 1.185972e-95
375.50 1.185972e-95
375.60 1.185972e-95
375.70 1.185972e-95
375.80 1.185972e-95
375.90 1.185972e-95
376.00 1.185972e-95
376.10 1.185972e-95
376.20 1.185972e-95
376.30 1.185972e-95
376.40 1.185972e-95
376.50 1.185972e-95
376.60 1.185972e-95
376.70 1.185972e-95
376.80 1.185972e-95
376.90 1.185972e-95
377.00 1.185972e-95
377.10 1.185972e-95
377.20 1.185972e-95
377.30 1.185972e-95
377.40 1.185972e-95
377.50 1.185972e-95
377.60 1.185972e-95
377.70 1.185972e-95
377.80 1.185972e-95
377.90 1.185972e-95
378.00 1.185972e-95
378.10 1.185972e-95
378.20 1.185972e-95
378.30 1.185972e-95
378.40 1.185972e-95
378.50 1.185972e-95
378.60 1.185972e-95
378.70 1.185972e-95
378.80 1.185972e-95
378.90 1.185972e-95
379.00 1.185972e-95
379.10 1.185972e-95
379.20 1.185972e-95
379.30 1.185972e-95
379.40 1.185972e-95
379.50 1.185972e-95
379.60 1.185972e-95
379.70 1.185972e-95
379.80 1.185972e-95
379.90 1.185972e-95
380.00 1.185972e-95
380.10 1.185972e-95
380.20 1.185972e-95
380.30 1.185972e-95
380.40 1.185972e-95
380.50 1.185972e-95
380.60 1.185972e-95
380.70 1.185972e-95
380.80 1.185972e-95
380.90 1.185972e-95
381.00 1.185972e-95
381.10 1.185972e-95
381.20 1.185972e-95
381.30 1.185972e-95
381.40 1.185972e-95
381.50 1.185972e-95
381.60 1.185972e-95
381.70 1.185972e-95
381.80 1.185972e-95
381.90 1.185972e-95
382.00 1.185972e-95
382.10 1.185972e-95
382.20 1.185972e-95
382.30 1.185972e-95
382.40 1.185972e-95
382.50 1.185972e-95
382.60 1.185972e-95
382.70 1.185972e-95
382.80 1.185972e-95
382.90 1.185972e-95
383.00 1.185972e-95
383.10 1.185972e-95
383.20 1.185972e-95
383.30 1.185972e-95
383.40 1.185972e-95
383.50 1.185972e-95
383.60 1.185972e-95
383.70 1.185972e-95
383.80 1.185972e-95
383.90 1.185972e-95
384.00 1.185972e-95
384.10 1.185972e-95
384.20 1.185972e-95
384.30 1.185972e-95
384.40 1.185972e-95
384.50 1.185972e-95
384.60 1.185972e-95
384.70 1.185972e-95
384.80 1.185972e-95
384.90 1.185972e-95
385.00 1.185972e-95
385.10 1.185972e-95
385.20 1.185972e-95
385.30 1.185972e-95
385.40 1.185972e-95
385.50 1.185972e-95
385.60 1.185972e-95
385.70 1.185972e-95
385.80 1.185972e-95
385.90 1.185972e-95
386.00 1.185972e-95
386.10 1.185972e-95
386.20 1.185972e-95
386.30 1.185972e-95
386.40 1.185972e-95
386.50 1.185972e-95
386.60 1.185972e-95
386.70 1.185972e-95
386.80 1.185972e-95
386.90 1.185972e-95
387.00 1.185972e-95
387.10 1.185972e-95
387.20 1.185972e-95
387.30 1.185972e-95
387.40 1.185972e-95
387.50 1.185972e-95
387.60 1.185972e-95
387.70 1.185972e-95
387.80 1.185972e-95
387.90 1.185972e-95
388.00 1.185972e-95
388.10 1.185972e-95
388.20 1.185972e-95
388.30 1.185972e-95
388.40 1.185972e-95
388.50 1.185972e-95
388.60 1.185972e-95
388.70 1.185972e-95
388.80 1.185972e-95
388.90 1.185972e-95
389.00 1.185972e-95
389.10 1.185972e-95
389.20 1.185972e-95
389.30 1.185972e-95
389.40 1.185972e-95
389.50 1.185972e-95
389.60 1.185972e-95
389.70 1.185972e-95
389.80 1.185972e-95
389.90 1.185972e-95
390.00 1.185972e-95
390.10 1.185972e-95
390.20 1.185972e-95
390.30 1.185972e-95
390.40 1.185972e-95
390.50 1.185972e-95
390.60 1.185972e-95
390.70 1.185972e-95
390.80 1.185972e-95
390.90 1.185972e-95
391.00 1.185972e-95
391.10 1.185972e-95
391.20 1.185972e-95
391.30 1.185972e-95
391.40 1.185972e-95
391.50 1.185972e-95
391.60 1.185972e-95
391.70 1.185972e-95
391.80 1.185972e-95
391.90 1.185972e-95
392.00 1.185972e-95
392.10 1.185972e-95
392.20 1.185972e-95
392.30 1.185972e-95
392.40 1.185972e-95
392.50 1.185972e-95
392.60 1.185972e-95
392.70 1.185972e-95
392.80 1.185972e-95
392.90 1.185972e-95
393.00 1.185972e-95
393.10 1.185972e-95
393.20 1.185972e-95
393.30 1.185972e-95
393.40 1.185972e-95
393.50 1.185972e-95
393.60 1.185972e-95
393.70 1.185972e-95
393.80 1.185972e-95
393.90 1.185972e-95
394.00 1.185972e-95
394.10 1.185972e-95
394.20 1.185972e-95
394.30 1.185972e-95
394.40 1.185972e-95
394.50 1.185972e-95
394.60 1.185972e-95
394.70 1.185972e-95
394.80 1.185972e-95
394.90 1.185972e-95
395.00 0.01645862
395.10 0.03251542
395.20 0.04767409
395.30 0.06142717
395.40 0.07304449
395.50 0.08174592
395.60 0.08738211
395.70 0.09027334
395.80 0.0910533
395.90 0.0910533
396.00 0.09162598
396.10 0.09517149
396.20 0.1032654
396.30 0.1164819
396.40 0.1341492
396.50 0.1543925
396.60 0.1747377
396.70 0.1927559
396.80 0.2066517
396.90 0.2155551
397.00 0.2194031
397.10 0.2194031
397.20 0.2194031
397.30 0.2194031
397.40 0.2194031
397.50 0.2194031
397.60 0.2203941
397.70 0.2232326
397.80 0.2269425
397.90 0.230703
398.00 0.2340682
398.10 0.2371142
398.20 0.2403245
398.30 0.2443069
398.40 0.2495283
398.50 0.2561669
398.60 0.2636767
398.70 0.2710562
398.80 0.2775171
398.90 0.2824996
399.00 0.2855149
399.10 0.2864904
399.20 0.2864904
399.30 0.2864904
399.40 0.2864904
399.50 0.2864904
399.60 0.2864904
399.70 0.2864904
399.80 0.2864904
399.90 0.2864904
400.00 0.2864904
400.10 0.2864904
400.20 0.2864904
400.30 0.2864904
400.40 0.2864904
400.50 0.2864904
400.60 0.2864904
400.70 0.2864904
400.80 0.2877415
400.90 0.2921843
401.00 0.29993
401.10 0.3103569
401.20 0.3224585
401.30 0.3354323
401.40 0.3487326
401.50 0.3618841
401.60 0.374251
401.70 0.3849373
401.80 0.3931418
401.90 0.3986746
402.00 0.4022043
402.10 0.4048495
402.20 0.4078815
402.30 0.4123427
402.40 0.4187168
402.50 0.4269203
402.60 0.4364966
402.70 0.4467702
402.80 0.4570539
402.90 0.4669811
403.00 0.4763619
403.10 0.4847782
403.20 0.4916736
403.30 0.4966419
403.40 0.4994101
403.50 0.4999249
403.60 0.4999249
403.70 0.4999249
403.80 0.4999249
403.90 0.4999249
404.00 0.4999249
404.10 0.5021326
404.20 0.5071226
404.30 0.5139009
404.40 0.5214054
404.50 0.5291353
404.60 0.537105
404.70 0.5453694
404.80 0.5538599
404.90 0.5624265
405.00 0.5546498
405.10 0.548004
405.20 0.5440688
405.30 0.5443131
405.40 0.5498948
405.50 0.561918
405.60 0.580896
405.70 0.6060799
405.80 0.6354281
405.90 0.6657586
406.00 0.6939403
406.10 0.7161204
406.20 0.7298367
406.30 0.7345549
406.40 0.7318155
406.50 0.724686
406.60 0.7164103
406.70 0.7098428
406.80 0.7074053
406.90 0.7104211
407.00 0.7188144
407.10 0.7310021
407.20 0.7428331
407.30 0.7539762
407.40 0.7637303
407.50 0.7712874
407.60 0.7754274
407.70 0.7758167
407.80 0.7743485
407.90 0.7727228
408.00 0.7725601
408.10 0.7752042
408.20 0.7810398
408.30 0.7892774
408.40 0.7987557
408.50 0.8083345
408.60 0.8169364
408.70 0.8237783
408.80 0.8285091
408.90 0.8314944
409.00 0.8336338
409.10 0.835695
409.20 0.8377715
409.30 0.840443
409.40 0.8451564
409.50 0.8528633
409.60 0.8639595
409.70 0.8783553
409.80 0.895197
409.90 0.9132477
410.00 0.9316419
410.10 0.9497399
410.20 0.9669784
410.30 0.9830109
410.40 0.9979368
410.50 1.012369
410.60 1.026915
410.70 1.04183
410.80 1.056005
410.90 1.06773
411.00 1.077168
411.10 1.084886
411.20 1.091393
411.30 1.097218
411.40 1.102848
411.50 1.108518
411.60 1.114535
411.70 1.121309
411.80 1.128994
411.90 1.137139
412.00 1.144841
412.10 1.151229
412.20 1.155547
412.30 1.157475
412.40 1.157378
412.50 1.156174
412.60 1.15465
412.70 1.152813
412.80 1.150134
412.90 1.145946
413.00 1.139962
413.10 1.132855
413.20 1.126313
413.30 1.122284
413.40 1.122269
413.50 1.127207
413.60 1.135674
413.70 1.146571
413.80 1.158516
413.90 1.169861
414.00 1.17941
414.10 1.18437
414.20 1.184251
414.30 1.180744
414.40 1.175934
414.50 1.171695
414.60 1.169114
414.70 1.16885
414.80 1.171467
414.90 1.177031
415.00 1.184855
415.10 1.193314
415.20 1.200268
415.30 1.203878
415.40 1.203159
415.50 1.197433
415.60 1.186046
415.70 1.169476
415.80 1.149411
415.90 1.127882
416.00 1.106911
416.10 1.088155
416.20 1.072659
416.30 1.060675
416.40 1.051748
416.50 1.045137
416.60 1.040269
416.70 1.036599
416.80 1.033026
416.90 1.028545
417.00 1.023074
417.10 1.016847
417.20 1.010079
417.30 1.003166
417.40 0.9969872
417.50 0.9927895
417.60 0.9914081
417.70 0.9927242
417.80 0.9957754
417.90 0.9992776
418.00 1.001691
418.10 1.001308
418.20 0.9970472
418.30 0.9888203
418.40 0.9768095
418.50 0.961671
418.60 0.9455593
418.70 0.9313379
418.80 0.9201462
418.90 0.9121783
419.00 0.9070237
419.10 0.903987
419.20 0.9019104
419.30 0.8992751
419.40 0.8960163
419.50 0.8908433
419.60 0.8829194
419.70 0.8719623
419.80 0.8588959
419.90 0.8453714
420.00 0.8328805
420.10 0.8228596
420.20 0.8164268
420.30 0.8138152
420.40 0.8142473
420.50 0.8161422
420.60 0.8176895
420.70 0.81768
420.80 0.8156422
420.90 0.8111931
421.00 0.8038856
421.10 0.7937689
421.20 0.7813919
421.30 0.7670908
421.40 0.7511885
421.50 0.7343912
421.60 0.7175137
421.70 0.7015761
421.80 0.6877579
421.90 0.6769972
422.00 0.6695114
422.10 0.6646424
422.20 0.6612768
422.30 0.6585262
422.40 0.6559925
422.50 0.6534755
422.60 0.6511796
422.70 0.6503016
422.80 0.6525637
422.90 0.6591579
423.00 0.6702722
423.10 0.684963
423.20 0.7011606
423.30 0.7163997
423.40 0.728549
423.50 0.7358936
423.60 0.7373349
423.70 0.7327022
423.80 0.7229886
423.90 0.7116433
424.00 0.7020948
424.10 0.6949268
424.20 0.6900561
424.30 0.6893297
424.40 0.6934395
424.50 0.7008137
424.60 0.7096845
424.70 0.7183269
424.80 0.7251242
424.90 0.729013
425.00 0.7294464
425.10 0.7263378
425.20 0.7199319
425.30 0.7109979
425.40 0.7003964
425.50 0.6886932
425.60 0.6765359
425.70 0.6650308
425.80 0.6549672
425.90 0.6461661
426.00 0.6387671
426.10 0.6325961
426.20 0.6274354
426.30 0.6229028
426.40 0.6186784
426.50 0.6146697
426.60 0.6109616
426.70 0.6074041
426.80 0.6039076
426.90 0.6005471
427.00 0.5972331
427.10 0.5939845
427.20 0.5909738
427.30 0.5886402
427.40 0.5873993
427.50 0.5868852
427.60 0.5862321
427.70 0.5848362
427.80 0.5825594
427.90 0.5795744
428.00 0.5763094
428.10 0.5735252
428.20 0.5718213
428.30 0.5715521
428.40 0.5730297
428.50 0.5761313
428.60 0.5800674
428.70 0.5838683
428.80 0.5879489
428.90 0.5926993
429.00 0.59808
429.10 0.6038006
429.20 0.6096762
429.30 0.6156553
429.40 0.6203099
429.50 0.6237519
429.60 0.6263565
429.70 0.6286462
429.80 0.6307933
429.90 0.6326707
430.00 0.6337704
430.10 0.6332456
430.20 0.6304853
430.30 0.6256553
430.40 0.6198234
430.50 0.6145594
430.60 0.611351
430.70 0.610908
430.80 0.6129495
430.90 0.6168073
431.00 0.6215218
431.10 0.6260797
431.20 0.6297883
431.30 0.6323072
431.40 0.6337015
431.50 0.6343116
431.60 0.6345928
431.70 0.6350994
431.80 0.6360598
431.90 0.6372421
432.00 0.6382992
432.10 0.6390028
432.20 0.6395317
432.30 0.6400706
432.40 0.6404808
432.50 0.6404237
432.60 0.6395125
432.70 0.637294
432.80 0.6331322
432.90 0.626503
433.00 0.6171148
433.10 0.605107
433.20 0.5913393
433.30 0.5769891
433.40 0.5632709
433.50 0.5512924
433.60 0.5418573
433.70 0.5356033
433.80 0.533372
433.90 0.533372
434.00 0.533372
434.10 0.533372
434.20 0.533372
434.30 0.5308269
434.40 0.5241542
434.50 0.5151472
434.60 0.5048712
434.70 0.4943472
434.80 0.4843338
434.90 0.4753358
435.00 0.4674326
435.10 0.460269
435.20 0.4534963
435.30 0.4470072
435.40 0.441267
435.50 0.4379723
435.60 0.437434
435.70 0.4397714
435.80 0.4440103
435.90 0.4498097
436.00 0.4561677
436.10 0.4623987
436.20 0.4678873
436.30 0.4721587
436.40 0.4751001
436.50 0.476844
436.60 0.4775498
436.70 0.4774777
436.80 0.4769128
436.90 0.476049
437.00 0.4751663
437.10 0.474862
437.20 0.4757704
437.30 0.477938
437.40 0.4810827
437.50 0.4852919
437.60 0.490864
437.70 0.4978318
437.80 0.5059912
437.90 0.5151772
438.00 0.5250485
438.10 0.5351488
438.20 0.5454288
438.30 0.5560938
438.40 0.5675001
438.50 0.5801687
438.60 0.5943542
438.70 0.6099111
438.80 0.6263255
438.90 0.6428019
439.00 0.658703
439.10 0.6737745
439.20 0.6877841
439.30 0.7001414
439.40 0.7103185
439.50 0.718177
439.60 0.7234749
439.70 0.7260293
439.80 0.7258767
439.90 0.7231698
440.00 0.7183467
440.10 0.7120837
440.20 0.705019
440.30 0.6977718
440.40 0.6911011
440.50 0.6856741
440.60 0.6818308
440.70 0.6796816
440.80 0.6791069
440.90 0.6798576
441.00 0.6819574
441.10 0.6851967
441.20 0.6891093
441.30 0.6933132
441.40 0.6974043
441.50 0.7010913
441.60 0.7041953
441.70 0.7063012
441.80 0.706837
441.90 0.7055936
442.00 0.7029104
442.10 0.6996904
442.20 0.6968085
442.30 0.6945412
442.40 0.6925648
442.50 0.6905179
442.60 0.688379
442.70 0.6864229
442.80 0.6850649
442.90 0.6845543
443.00 0.6851994
443.10 0.6873474
443.20 0.6908875
443.30 0.6952301
443.40 0.6998145
443.50 0.7042772
443.60 0.7086326
443.70 0.7132446
443.80 0.7182565
443.90 0.7245566
444.00 0.7329264
444.10 0.7436267
444.20 0.7562025
444.30 0.7696288
444.40 0.7824447
444.50 0.7917686
444.60 0.7962714
444.70 0.7954978
444.80 0.7898745
444.90 0.7808532
445.00 0.7718173
445.10 0.7642195
445.20 0.7592207
445.30 0.7580108
445.40 0.7605212
445.50 0.7644236
445.60 0.7688089
445.70 0.7724833
445.80 0.7756368
445.90 0.7789551
446.00 0.7831822
446.10 0.7888136
446.20 0.7961905
446.30 0.8052413
446.40 0.8147676
446.50 0.8226228
446.60 0.8267569
446.70 0.826393
446.80 0.8225694
446.90 0.8193557
447.00 0.8167819
447.10 0.8143744
447.20 0.8126625
447.30 0.8134092
447.40 0.8162833
447.50 0.8205573
447.60 0.8251454
447.70 0.8289477
447.80 0.8313608
447.90 0.8323123
448.00 0.832124
448.10 0.8309338
448.20 0.8284202
448.30 0.8246628
448.40 0.8201519
448.50 0.8150573
448.60 0.8093309
448.70 0.8028243
448.80 0.7952511
448.90 0.7864325
449.00 0.7762904
449.10 0.7647808
449.20 0.7523432
449.30 0.7401215
449.40 0.7294672
449.50 0.7215271
449.60 0.7170217
449.70 0.7159166
449.80 0.7177607
449.90 0.7223813
450.00 0.7298782
450.10 0.7401196
450.20 0.7526457
450.30 0.7665485
450.40 0.7801652
450.50 0.791478
450.60 0.7989037
450.70 0.801808
450.80 0.8006877
450.90 0.7969222
451.00 0.7924943
451.10 0.7898507
451.20 0.7912019
451.30 0.7976069
451.40 0.8087155
451.50 0.8232624
451.60 0.8396287
451.70 0.8563583
451.80 0.872872
451.90 0.8892385
452.00 0.9055162
452.10 0.9214975
452.20 0.936865
452.30 0.9518609
452.40 0.9672285
452.50 0.9834395
452.60 1.000312
452.70 1.01723
452.80 1.033471
452.90 1.048303
453.00 1.061071
453.10 1.071226
453.20 1.078303
453.30 1.08243
453.40 1.084256
453.50 1.084582
453.60 1.084172
453.70 1.083431
453.80 1.082344
453.90 1.080747
454.00 1.07851
454.10 1.075664
454.20 1.072715
454.30 1.070859
454.40 1.071571
454.50 1.07598
454.60 1.084552
454.70 1.096944
454.80 1.112243
454.90 1.129156
455.00 1.145464
455.10 1.161552
455.20 1.177774
455.30 1.193303
455.40 1.207578
455.50 1.221006
455.60 1.233377
455.70 1.243853
455.80 1.251274
455.90 1.254726
456.00 1.253981
456.10 1.249442
456.20 1.242058
456.30 1.233294
456.40 1.225113
456.50 1.219808
456.60 1.219485
456.70 1.225119
456.80 1.235622
456.90 1.246313
457.00 1.25581
457.10 1.26269
457.20 1.265152
457.30 1.261285
457.40 1.252932
457.50 1.241604
457.60 1.228347
457.70 1.216667
457.80 1.20847
457.90 1.204423
458.00 1.203925
458.10 1.205805
458.20 1.208786
458.30 1.211551
458.40 1.213342
458.50 1.214196
458.60 1.214122
458.70 1.212998
458.80 1.210921
458.90 1.208334
459.00 1.206174
459.10 1.205382
459.20 1.20605
459.30 1.207599
459.40 1.209349
459.50 1.210807
459.60 1.212084
459.70 1.21389
459.80 1.21691
459.90 1.221247
460.00 1.226443
460.10 1.231806
460.20 1.236717
460.30 1.240864
460.40 1.243991
460.50 1.245857
460.60 1.246885
460.70 1.248015
460.80 1.250122
460.90 1.253666
461.00 1.258222
461.10 1.262672
461.20 1.266067
461.30 1.268361
461.40 1.270267
461.50 1.272632
461.60 1.27618
461.70 1.280992
461.80 1.28637
461.90 1.291437
462.00 1.295282
462.10 1.297133
462.20 1.296355
462.30 1.292274
462.40 1.284821
462.50 1.274778
462.60 1.263232
462.70 1.251108
462.80 1.239316
462.90 1.229021
463.00 1.221264
463.10 1.217122
463.20 1.217736
463.30 1.223347
463.40 1.233052
463.50 1.245164
463.60 1.257679
463.70 1.268768
463.80 1.277
463.90 1.281428
464.00 1.281863
464.10 1.278983
464.20 1.273946
464.30 1.267767
464.40 1.26105
464.50 1.25399
464.60 1.246598
464.70 1.239078
464.80 1.231596
464.90 1.223965
465.00 1.215678
465.10 1.20616
465.20 1.195009
465.30 1.182087
465.40 1.167481
465.50 1.151759
465.60 1.136056
465.70 1.121867
465.80 1.110861
465.90 1.103944
466.00 1.100929
466.10 1.100884
466.20 1.10226
466.30 1.103388
466.40 1.10329
466.50 1.101942
466.60 1.099727
466.70 1.097228
466.80 1.095461
466.90 1.095916
467.00 1.100144
467.10 1.109028
467.20 1.122213
467.30 1.138576
467.40 1.155842
467.50 1.172872
467.60 1.189736
467.70 1.204113
467.80 1.214563
467.90 1.219963
468.00 1.220101
468.10 1.215832
468.20 1.208783
468.30 1.200321
468.40 1.190997
468.50 1.181316
468.60 1.172245
468.70 1.164919
468.80 1.16029
468.90 1.158915
469.00 1.160858
469.10 1.16584
469.20 1.173574
469.30 1.183708
469.40 1.195452
469.50 1.207665
469.60 1.219047
469.70 1.228344
469.80 1.234687
469.90 1.23749
470.00 1.236483
470.10 1.231924
470.20 1.224416
470.30 1.214752
470.40 1.204176
470.50 1.194501
470.60 1.187149
470.70 1.182655
470.80 1.180904
470.90 1.181084
471.00 1.181826
471.10 1.18166
471.20 1.179246
471.30 1.17342
471.40 1.163625
471.50 1.150127
471.60 1.13388
471.70 1.11657
471.80 1.100041
471.90 1.085537
472.00 1.073823
472.10 1.065208
472.20 1.05975
472.30 1.057421
472.40 1.057762
472.50 1.059957
472.60 1.063227
472.70 1.067007
472.80 1.070661
472.90 1.07344
473.00 1.074653
473.10 1.073465
473.20 1.069188
473.30 1.062063
473.40 1.053315
473.50 1.044686
473.60 1.03804
473.70 1.03492
473.80 1.036169
473.90 1.041703
474.00 1.050467
474.10 1.060755
474.20 1.070673
474.30 1.078463
474.40 1.082987
474.50 1.084053
474.60 1.082354
474.70 1.07911
474.80 1.076015
474.90 1.07505
475.00 1.077632
475.10 1.084214
475.20 1.09432
475.30 1.106719
475.40 1.119696
475.50 1.131272
475.60 1.139599
475.70 1.143388
475.80 1.142224
475.90 1.136923
476.00 1.129715
476.10 1.121636
476.20 1.11404
476.30 1.108645
476.40 1.105868
476.50 1.105094
476.60 1.10541
476.70 1.106039
476.80 1.106197
476.90 1.105106
477.00 1.102225
477.10 1.097501
477.20 1.09109
477.30 1.083068
477.40 1.073546
477.50 1.062749
477.60 1.050989
477.70 1.038887
477.80 1.027521
477.90 1.018579
478.00 1.013556
478.10 1.012838
478.20 1.01577
478.30 1.021239
478.40 1.028035
478.50 1.034745
478.60 1.040089
478.70 1.043201
478.80 1.04369
478.90 1.041539
479.00 1.036756
479.10 1.029403
479.20 1.019842
479.30 1.008444
479.40 0.9955043
479.50 0.9816212
479.60 0.9677559
479.70 0.9548435
479.80 0.9433429
479.90 0.9335097
480.00 0.9255198
480.10 0.9194236
480.20 0.9155524
480.30 0.9145367
480.40 0.9167554
480.50 0.921963
480.60 0.929442
480.70 0.9380708
480.80 0.9464374
480.90 0.9531957
481.00 0.9573444
481.10 0.9585073
481.20 0.9570789
481.30 0.954043
481.40 0.9503802
481.50 0.9467869
481.60 0.9435208
481.70 0.9404357
481.80 0.9374462
481.90 0.9346868
482.00 0.9323553
482.10 0.9306605
482.20 0.9297679
482.30 0.9297485
482.40 0.9307849
482.50 0.9330752
482.60 0.9366344
482.70 0.9411739
482.80 0.946431
482.90 0.952404
483.00 0.9590408
483.10 0.9659701
483.20 0.9724513
483.30 0.9775281
483.40 0.9803852
483.50 0.980709
483.60 0.9786709
483.70 0.975018
483.80 0.9706557
483.90 0.9662992
484.00 0.9626175
484.10 0.9602579
484.20 0.9596725
484.30 0.9609774
484.40 0.9640193
484.50 0.9685726
484.60 0.974289
484.70 0.9804406
484.80 0.9856459
484.90 0.9881503
485.00 0.9867218
485.10 0.9807675
485.20 0.9706861
485.30 0.9581761
485.40 0.9456984
485.50 0.9358633
485.60 0.9308746
485.70 0.9319142
485.80 0.9388039
485.90 0.9502964
486.00 0.9640914
486.10 0.9791847
486.20 0.9943259
486.30 1.0078
486.40 1.018713
486.50 1.026664
486.60 1.03162
486.70 1.033754
486.80 1.033589
486.90 1.031939
487.00 1.029946
487.10 1.029062
487.20 1.030607
487.30 1.035167
487.40 1.04254
487.50 1.05208
487.60 1.062898
487.70 1.07423
487.80 1.085561
487.90 1.096174
488.00 1.105219
488.10 1.112312
488.20 1.117618
488.30 1.121638
488.40 1.124867
488.50 1.12765
488.60 1.130406
488.70 1.133575
488.80 1.137282
488.90 1.141428
489.00 1.146056
489.10 1.151039
489.20 1.15592
489.30 1.16057
489.40 1.165468
489.50 1.17106
489.60 1.177094
489.70 1.183036
489.80 1.188669
489.90 1.193836
490.00 1.198238
490.10 1.20176
490.20 1.204282
490.30 1.20538
490.40 1.204725
490.50 1.202294
490.60 1.198317
490.70 1.193176
490.80 1.187075
490.90 1.180248
491.00 1.173563
491.10 1.168211
491.20 1.16482
491.30 1.163367
491.40 1.163615
491.50 1.165109
491.60 1.167278
491.70 1.169649
491.80 1.171684
491.90 1.172901
492.00 1.173011
492.10 1.171829
492.20 1.169289
492.30 1.165275
492.40 1.159278
492.50 1.150559
492.60 1.13907
492.70 1.125802
492.80 1.112225
492.90 1.099693
493.00 1.089331
493.10 1.081974
493.20 1.077848
493.30 1.076522
493.40 1.077053
493.50 1.078301
493.60 1.07911
493.70 1.078472
493.80 1.07616
493.90 1.072827
494.00 1.069391
494.10 1.066578
494.20 1.064633
494.30 1.063434
494.40 1.062781
494.50 1.06256
494.60 1.062766
494.70 1.063416
494.80 1.064658
494.90 1.066897
495.00 1.070848
495.10 1.077302
495.20 1.086533
495.30 1.09801
495.40 1.110446
495.50 1.122119
495.60 1.131557
495.70 1.137966
495.80 1.141196
495.90 1.1413
496.00 1.138468
496.10 1.133258
496.20 1.126579
496.30 1.119321
496.40 1.112082
496.50 1.105341
496.60 1.099426
496.70 1.094307
496.80 1.08966
496.90 1.08508
497.00 1.080065
497.10 1.073951
497.20 1.066189
497.30 1.056799
497.40 1.046324
497.50 1.035423
497.60 1.024715
497.70 1.014489
497.80 1.004863
497.90 0.9960693
498.00 0.9885234
498.10 0.9826265
498.20 0.9784489
498.30 0.9757992
498.40 0.974499
498.50 0.9746364
498.60 0.9762948
498.70 0.9793194
498.80 0.9834925
498.90 0.9885751
499.00 0.9941244
499.10 0.9997413
499.20 1.005045
499.30 1.009495
499.40 1.012396
499.50 1.013215
499.60 1.012159
499.70 1.009937
499.80 1.007134
499.90 1.003875
500.00 1
500.10 0.9951383
500.20 0.9887706
500.30 0.980587
500.40 0.9705355
500.50 0.9588857
500.60 0.9463322
500.70 0.9338549
500.80 0.9227531
500.90 0.9144846
501.00 0.9099865
501.10 0.909385
501.20 0.9123491
501.30 0.9183549
501.40 0.9266922
501.50 0.9366304
501.60 0.9475349
501.70 0.9587837
501.80 0.9699149
501.90 0.9805666
502.00 0.9904832
502.10 0.9996561
502.20 1.008057
502.30 1.015523
502.40 1.022063
502.50 1.027926
502.60 1.033028
502.70 1.036918
502.80 1.03916
502.90 1.03958
503.00 1.038374
503.10 1.036191
503.20 1.034295
503.30 1.034195
503.40 1.037035
503.50 1.043316
503.60 1.052871
503.70 1.064808
503.80 1.077501
503.90 1.088974
504.00 1.09778
504.10 1.103595
504.20 1.107082
504.30 1.109243
504.40 1.111113
504.50 1.113497
504.60 1.116703
504.70 1.120698
504.80 1.125369
504.90 1.130345
505.00 1.13501
505.10 1.139005
505.20 1.142394
505.30 1.145512
505.40 1.148754
505.50 1.152193
505.60 1.155557
505.70 1.158535
505.80 1.16074
505.90 1.161947
506.00 1.162142
506.10 1.161512
506.20 1.160388
506.30 1.159143
506.40 1.158297
506.50 1.158172
506.60 1.158807
506.70 1.1604
506.80 1.163197
506.90 1.166974
507.00 1.171121
507.10 1.175038
507.20 1.178321
507.30 1.180631
507.40 1.181713
507.50 1.181483
507.60 1.179924
507.70 1.17727
507.80 1.173868
507.90 1.170123
508.00 1.166652
508.10 1.163988
508.20 1.162479
508.30 1.162503
508.40 1.164172
508.50 1.166976
508.60 1.170065
508.70 1.17256
508.80 1.173836
508.90 1.173597
509.00 1.171785
509.10 1.168573
509.20 1.164469
509.30 1.160336
509.40 1.157163
509.50 1.155699
509.60 1.156282
509.70 1.158756
509.80 1.16285
509.90 1.168503
510.00 1.17565
510.10 1.184218
510.20 1.193951
510.30 1.204331
510.40 1.21488
510.50 1.225102
510.60 1.234467
510.70 1.242386
510.80 1.248109
510.90 1.250768
511.00 1.249703
511.10 1.244853
511.20 1.236643
511.30 1.225778
511.40 1.213086
511.50 1.199293
511.60 1.185036
511.70 1.17096
511.80 1.157518
511.90 1.145029
512.00 1.133775
512.10 1.12406
512.20 1.116441
512.30 1.111656
512.40 1.110086
512.50 1.111565
512.60 1.115448
512.70 1.120567
512.80 1.125529
512.90 1.129024
513.00 1.130083
513.10 1.128131
513.20 1.123053
513.30 1.115297
513.40 1.105846
513.50 1.095811
513.60 1.086064
513.70 1.07729
513.80 1.069955
513.90 1.064262
514.00 1.060001
514.10 1.056372
514.20 1.052532
514.30 1.048228
514.40 1.043559
514.50 1.038823
514.60 1.034577
514.70 1.03138
514.80 1.029482
514.90 1.028816
515.00 1.028847
515.10 1.028593
515.20 1.02715
515.30 1.023804
515.40 1.018272
515.50 1.011
515.60 1.002729
515.70 0.9941526
515.80 0.9859977
515.90 0.9788053
516.00 0.9729585
516.10 0.9687325
516.20 0.9662037
516.30 0.9653399
516.40 0.9660557
516.50 0.9682409
516.60 0.9717389
516.70 0.9761269
516.80 0.9808426
516.90 0.9859773
517.00 0.9922526
517.10 1.000269
517.20 1.010503
517.30 1.023409
517.40 1.038979
517.50 1.056614
517.60 1.0754
517.70 1.094199
517.80 1.111903
517.90 1.12759
518.00 1.14049
518.10 1.150315
518.20 1.157429
518.30 1.162332
518.40 1.165593
518.50 1.168007
518.60 1.170281
518.70 1.172827
518.80 1.175656
518.90 1.178375
519.00 1.180385
519.10 1.181042
519.20 1.179775
519.30 1.176227
519.40 1.170417
519.50 1.162951
519.60 1.154811
519.70 1.147147
519.80 1.141085
519.90 1.137502
520.00 1.13668
520.10 1.138108
520.20 1.14096
520.30 1.144414
520.40 1.147395
520.50 1.148796
520.60 1.147832
520.70 1.144377
520.80 1.139426
520.90 1.13477
521.00 1.132218
521.10 1.132889
521.20 1.136828
521.30 1.143189
521.40 1.150825
521.50 1.15871
521.60 1.165956
521.70 1.171962
521.80 1.177023
521.90 1.182372
522.00 1.189482
522.10 1.199266
522.20 1.211511
522.30 1.225018
522.40 1.238298
522.50 1.250092
522.60 1.259657
522.70 1.266797
522.80 1.27168
522.90 1.274883
523.00 1.277395
523.10 1.280333
523.20 1.284229
523.30 1.288666
523.40 1.292597
523.50 1.295015
523.60 1.295458
523.70 1.293989
523.80 1.291003
523.90 1.287047
524.00 1.28288
524.10 1.279415
524.20 1.277242
524.30 1.276532
524.40 1.277144
524.50 1.278328
524.60 1.278931
524.70 1.278173
524.80 1.275952
524.90 1.272655
525.00 1.268886
525.10 1.265369
525.20 1.262922
525.30 1.262355
525.40 1.264232
525.50 1.268907
525.60 1.276817
525.70 1.287983
525.80 1.301782
525.90 1.31743
526.00 1.334127
526.10 1.350891
526.20 1.36669
526.30 1.380732
526.40 1.392374
526.50 1.401156
526.60 1.40692
526.70 1.409884
526.80 1.410593
526.90 1.409385
527.00 1.406199
527.10 1.401135
527.20 1.394428
527.30 1.386389
527.40 1.377803
527.50 1.369782
527.60 1.363284
527.70 1.358691
527.80 1.355822
527.90 1.354141
528.00 1.352757
528.10 1.350642
528.20 1.346759
528.30 1.340375
528.40 1.331471
528.50 1.320647
528.60 1.30893
528.70 1.297645
528.80 1.288055
528.90 1.281098
529.00 1.277458
529.10 1.277533
529.20 1.281351
529.30 1.288436
529.40 1.297978
529.50 1.308874
529.60 1.319941
529.70 1.330389
529.80 1.339788
529.90 1.348042
530.00 1.355714
530.10 1.363804
530.20 1.373153
530.30 1.384179
530.40 1.397165
530.50 1.412328
530.60 1.429561
530.70 1.448295
530.80 1.467263
530.90 1.484811
531.00 1.499619
531.10 1.511041
531.20 1.519299
531.30 1.525284
531.40 1.529942
531.50 1.534136
531.60 1.538704
531.70 1.544096
531.80 1.549713
531.90 1.553903
532.00 1.554869
532.10 1.551534
532.20 1.544007
532.30 1.533661
532.40 1.522583
532.50 1.512829
532.60 1.506063
532.70 1.50344
532.80 1.50568
532.90 1.512652
533.00 1.523176
533.10 1.535565
533.20 1.548286
533.30 1.560515
533.40 1.572135
533.50 1.583292
533.60 1.594096
533.70 1.604593
533.80 1.61492
533.90 1.625264
534.00 1.635513
534.10 1.645336
534.20 1.654404
534.30 1.662303
534.40 1.668574
534.50 1.673078
534.60 1.676052
534.70 1.677761
534.80 1.678346
534.90 1.677885
535.00 1.67666
535.10 1.67505
535.20 1.673179
535.30 1.671234
535.40 1.669609
535.50 1.668371
535.60 1.666861
535.70 1.664254
535.80 1.66009
535.90 1.6543
536.00 1.647116
536.10 1.638878
536.20 1.629996
536.30 1.621188
536.40 1.613639
536.50 1.608723
536.60 1.607621
536.70 1.610736
536.80 1.617593
536.90 1.627269
537.00 1.63857
537.10 1.650144
537.20 1.660748
537.30 1.669382
537.40 1.675357
537.50 1.67856
537.60 1.679483
537.70 1.678943
537.80 1.677707
537.90 1.676284
538.00 1.675126
538.10 1.674795
538.20 1.67598
538.30 1.679373
538.40 1.685345
538.50 1.693759
538.60 1.703998
538.70 1.714959
538.80 1.72542
538.90 1.734331
539.00 1.740978
539.10 1.745455
539.20 1.748713
539.30 1.752125
539.40 1.75702
539.50 1.764356
539.60 1.774278
539.70 1.785929
539.80 1.797875
539.90 1.808582
540.00 1.816627
540.10 1.820955
540.20 1.821135
540.30 1.817406
540.40 1.810501
540.50 1.801087
540.60 1.789521
540.70 1.776424
540.80 1.762742
540.90 1.749308
541.00 1.736865
541.10 1.726094
541.20 1.717619
541.30 1.71191
541.40 1.709216
541.50 1.709391
541.60 1.711785
541.70 1.715635
541.80 1.720545
541.90 1.726649
542.00 1.734414
542.10 1.744129
542.20 1.755777
542.30 1.769002
542.40 1.782901
542.50 1.796234
542.60 1.807667
542.70 1.816019
542.80 1.820401
542.90 1.820524
543.00 1.816972
543.10 1.810967
543.20 1.804103
543.30 1.79785
543.40 1.793126
543.50 1.790305
543.60 1.789257
543.70 1.789497
543.80 1.790401
543.90 1.791312
544.00 1.791784
544.10 1.79148
544.20 1.79016
544.30 1.787771
544.40 1.784385
544.50 1.780266
544.60 1.775719
544.70 1.77098
544.80 1.76631
544.90 1.762001
545.00 1.758298
545.10 1.755309
545.20 1.752975
545.30 1.750953
545.40 1.748527
545.50 1.745053
545.60 1.740464
545.70 1.735134
545.80 1.729618
545.90 1.724508
546.00 1.720268
546.10 1.717237
546.20 1.715646
546.30 1.715243
546.40 1.715168
546.50 1.714393
546.60 1.712113
546.70 1.708137
546.80 1.70292
546.90 1.697325
547.00 1.692234
547.10 1.688223
547.20 1.685589
547.30 1.684225
547.40 1.683509
547.50 1.682529
547.60 1.680549
547.70 1.677405
547.80 1.673361
547.90 1.668907
548.00 1.664586
548.10 1.660724
548.20 1.657465
548.30 1.65459
548.40 1.651495
548.50 1.64764
548.60 1.642597
548.70 1.636166
548.80 1.628679
548.90 1.621077
549.00 1.614365
549.10 1.608947
549.20 1.60471
549.30 1.601293
549.40 1.597951
549.50 1.593467
549.60 1.586568
549.70 1.576481
549.80 1.563296
549.90 1.547885
550.00 1.346918
550.10 1.353797
550.20 1.364236
550.30 1.373767
550.40 1.378293
550.50 1.375338
550.60 1.364891
550.70 1.348628
550.80 1.328624
550.90 1.306996
551.00 1.285509
551.10 1.265619
551.20 1.248837
551.30 1.236069
551.40 1.227578
551.50 1.223482
551.60 1.223415
551.70 1.226429
551.80 1.23186
551.90 1.239487
552.00 1.248702
552.10 1.258753
552.20 1.269562
552.30 1.281432
552.40 1.294701
552.50 1.3091
552.60 1.323121
552.70 1.334982
552.80 1.343894
552.90 1.349995
553.00 1.353942
553.10 1.356978
553.20 1.360611
553.30 1.366271
553.40 1.375374
553.50 1.388552
553.60 1.404857
553.70 1.422137
553.80 1.437796
553.90 1.449594
554.00 1.456537
554.10 1.458612
554.20 1.456104
554.30 1.449922
554.40 1.442097
554.50 1.434963
554.60 1.429795
554.70 1.426676
554.80 1.425078
554.90 1.42398
555.00 1.421347
555.10 1.418375
555.20 1.419637
555.30 1.430452
555.40 1.45774
555.50 1.506889
555.60 1.58038
555.70 1.677543
555.80 1.792832
555.90 1.91636
556.00 2.036919
556.10 2.144693
556.20 2.232585
556.30 2.29785
556.40 2.34389
556.50 2.37594
556.60 2.399393
556.70 2.420382
556.80 2.442105
556.90 2.465544
557.00 2.489989
557.10 2.513148
557.20 2.532912
557.30 2.548183
557.40 2.558483
557.50 2.563839
557.60 2.565481
557.70 2.565879
557.80 2.567532
557.90 2.57178
558.00 2.579451
558.10 2.591318
558.20 2.607183
558.30 2.625569
558.40 2.6441
558.50 2.660363
558.60 2.67319
558.70 2.682974
558.80 2.691896
558.90 2.703807
559.00 2.723387
559.10 2.750722
559.20 2.780671
559.30 2.806273
559.40 2.817824
559.50 2.805584
559.60 2.763675
559.70 2.692032
559.80 2.596765
559.90 2.488442
560.00 2.380003
560.10 2.284744
560.20 2.212701
560.30 2.167317
560.40 2.144524
560.50 2.138286
560.60 2.142832
560.70 2.151339
560.80 2.158759
560.90 2.161826
561.00 2.159388
561.10 2.152575
561.20 2.143372
561.30 2.134578
561.40 2.128932
561.50 2.127459
561.60 2.1298
561.70 2.135199
561.80 2.143044
561.90 2.152806
562.00 2.163126
562.10 2.172289
562.20 2.179561
562.30 2.185458
562.40 2.190922
562.50 2.196543
562.60 2.202202
562.70 2.206886
562.80 2.20917
562.90 2.208378
563.00 2.204585
563.10 2.197944
563.20 2.188675
563.30 2.177127
563.40 2.164652
563.50 2.153884
563.60 2.146957
563.70 2.144324
563.80 2.145322
563.90 2.148729
564.00 2.152941
564.10 2.155668
564.20 2.154351
564.30 2.147062
564.40 2.133107
564.50 2.11337
564.60 2.089738
564.70 2.064782
564.80 2.041478
564.90 2.022212
565.00 2.008659
565.10 2.001813
565.20 2.001361
565.30 2.005166
565.40 2.010227
565.50 2.014194
565.60 2.015529
565.70 2.013791
565.80 2.009836
565.90 2.00523
566.00 2.001526
566.10 2.000258
566.20 2.003212
566.30 2.011979
566.40 2.027611
566.50 2.050318
566.60 2.079782
566.70 2.115589
566.80 2.156269
566.90 2.198942
567.00 2.240626
567.10 2.278267
567.20 2.308922
567.30 2.331141
567.40 2.34582
567.50 2.355272
567.60 2.361704
567.70 2.367227
567.80 2.373405
567.90 2.380987
568.00 2.389713
568.10 2.398502
568.20 2.406907
568.30 2.415261
568.40 2.423618
568.50 2.432276
568.60 2.442994
568.70 2.458524
568.80 2.481182
568.90 2.512193
569.00 2.551029
569.10 2.594919
569.20 2.639786
569.30 2.681342
569.40 2.715893
569.50 2.741278
569.60 2.756784
569.70 2.761987
569.80 2.756575
569.90 2.740822
570.00 2.71559
570.10 2.682
570.20 2.641253
570.30 2.594837
570.40 2.545002
570.50 2.494877
570.60 2.447819
570.70 2.406437
570.80 2.371963
570.90 2.34359
571.00 2.319331
571.10 2.298304
571.20 2.280999
571.30 2.26802
571.40 2.258562
571.50 2.250536
571.60 2.242025
571.70 2.231713
571.80 2.219191
571.90 2.204807
572.00 2.18877
572.10 2.171139
572.20 2.152077
572.30 2.132111
572.40 2.111802
572.50 2.090687
572.60 2.066912
572.70 2.038103
572.80 2.002553
572.90 1.959708
573.00 1.910589
573.10 1.857822
573.20 1.804756
573.30 1.754665
573.40 1.710604
573.50 1.674716
573.60 1.647377
573.70 1.627607
573.80 1.613994
573.90 1.60532
574.00 1.601394
574.10 1.602385
574.20 1.607595
574.30 1.615788
574.40 1.625328
574.50 1.634524
574.60 1.641956
574.70 1.646379
574.80 1.647422
574.90 1.646351
575.00 1.645516
575.10 1.647346
575.20 1.653366
575.30 1.663417
575.40 1.675935
575.50 1.689217
575.60 1.70215
575.70 1.713665
575.80 1.722666
575.90 1.728451
576.00 1.730899
576.10 1.730584
576.20 1.728441
576.30 1.725836
576.40 1.724789
576.50 1.727082
576.60 1.73377
576.70 1.745629
576.80 1.763721
576.90 1.788685
577.00 1.819517
577.10 1.853776
577.20 1.888167
577.30 1.918862
577.40 1.942614
577.50 1.957785
577.60 1.964643
577.70 1.965081
577.80 1.961804
577.90 1.958026
578.00 1.956686
578.10 1.959956
578.20 1.968573
578.30 1.981244
578.40 1.995834
578.50 2.010232
578.60 2.022903
578.70 2.033399
578.80 2.041374
578.90 2.046243
579.00 2.047355
579.10 2.043568
579.20 2.034093
579.30 2.019828
579.40 2.003671
579.50 1.989101
579.60 1.978576
579.70 1.973404
579.80 1.97399
579.90 1.979874
580.00 1.989653
580.10 2.001091
580.20 2.012076
580.30 2.020603
580.40 2.024764
580.50 2.023638
580.60 2.017465
580.70 2.006977
580.80 1.992008
580.90 1.97172
581.00 1.946374
581.10 1.917949
581.20 1.889649
581.30 1.865263
581.40 1.847865
581.50 1.839124
581.60 1.839417
581.70 1.847921
581.80 1.862438
581.90 1.880104
582.00 1.898063
582.10 1.913378
582.20 1.924592
582.30 1.932547
582.40 1.93874
582.50 1.943996
582.60 1.948093
582.70 1.949953
582.80 1.948628
582.90 1.943149
583.00 1.932643
583.10 1.917133
583.20 1.897466
583.30 1.874108
583.40 1.846285
583.50 1.813114
583.60 1.774801
583.70 1.733119
583.80 1.690623
583.90 1.649983
584.00 1.614103
584.10 1.585429
584.20 1.565237
584.30 1.553736
584.40 1.550054
584.50 1.552825
584.60 1.560617
584.70 1.571333
584.80 1.582892
584.90 1.59369
585.00 1.601428
585.10 1.602493
585.20 1.593763
585.30 1.573965
585.40 1.543709
585.50 1.505599
585.60 1.463386
585.70 1.420977
585.80 1.381932
585.90 1.347652
586.00 1.317044
586.10 1.2884
586.20 1.259536
586.30 1.22775
586.40 1.192429
586.50 1.155859
586.60 1.121646
586.70 1.093897
586.80 1.076204
586.90 1.070594
587.00 1.077024
587.10 1.094431
587.20 1.12084
587.30 1.154082
587.40 1.192997
587.50 1.236633
587.60 1.283488
587.70 1.331379
587.80 1.376836
587.90 1.415775
588.00 1.444738
588.10 1.461662
588.20 1.466114
588.30 1.459416
588.40 1.444859
588.50 1.425947
588.60 1.40513
588.70 1.383719
588.80 1.362114
588.90 1.340845
589.00 1.321324
589.10 1.305918
589.20 1.296924
589.30 1.295795
589.40 1.30311
589.50 1.31779
589.60 1.337417
589.70 1.358923
589.80 1.378748
589.90 1.394011
590.00 1.403745
590.10 1.408723
590.20 1.410563
590.30 1.411131
590.40 1.411046
590.50 1.409002
590.60 1.402469
590.70 1.388993
590.80 1.367399
590.90 1.338586
591.00 1.305448
591.10 1.27105
591.20 1.238082
591.30 1.208198
591.40 1.180843
591.50 1.153869
591.60 1.124936
591.70 1.091517
591.80 1.052489
591.90 1.009589
592.00 0.9669722
592.10 0.9295781
592.20 0.9015445
592.30 0.8854268
592.40 0.8816102
592.50 0.8890127
592.60 0.9050362
592.70 0.9262718
592.80 0.9498891
592.90 0.973507
593.00 0.994706
593.10 1.012074
593.20 1.025954
593.30 1.037451
593.40 1.047305
593.50 1.056346
593.60 1.065882
593.70 1.07713
593.80 1.090726
593.90 1.106536
594.00 1.12417
594.10 1.143714
594.20 1.166079
594.30 1.192911
594.40 1.225579
594.50 1.264301
594.60 1.307814
594.70 1.353533
594.80 1.398608
594.90 1.440133
595.00 1.47464
595.10 1.49906
595.20 1.512184
595.30 1.515407
595.40 1.512166
595.50 1.506138
595.60 1.499479
595.70 1.493242
595.80 1.488498
595.90 1.486043
596.00 1.485881
596.10 1.487437
596.20 1.489948
596.30 1.492352
596.40 1.493577
596.50 1.49274
596.60 1.489339
596.70 1.48318
596.80 1.473946
596.90 1.461892
597.00 1.448953
597.10 1.437459
597.20 1.428205
597.30 1.420355
597.40 1.412475
597.50 1.40283
597.60 1.389377
597.70 1.370654
597.80 1.34694
597.90 1.320536
598.00 1.294858
598.10 1.273314
598.20 1.258459
598.30 1.250917
598.40 1.248913
598.50 1.249457
598.60 1.249972
598.70 1.249109
598.80 1.246157
598.90 1.240998
599.00 1.23465
599.10 1.229113
599.20 1.226349
599.30 1.227455
599.40 1.23288
599.50 1.24294
599.60 1.258272
599.70 1.279658
599.80 1.307544
599.90 1.341372
600.00 0.919126
600.10 1.133699
600.20 1.439206
600.30 1.78413
600.40 2.098515
600.50 2.321349
600.60 2.416866
600.70 2.395959
600.80 2.287181
600.90 2.123576
601.00 1.943721
601.10 1.788015
601.20 1.687383
601.30 1.652621
601.40 1.670277
601.50 1.703125
601.60 1.715756
601.70 1.694547
601.80 1.660887
601.90 1.645703
602.00 1.658081
602.10 1.674407
602.20 1.673065
602.30 1.646312
602.40 1.589876
602.50 1.512272
602.60 1.430277
602.70 1.358731
602.80 1.305232
602.90 1.282379
603.00 1.310616
603.10 1.381846
603.20 1.451683
603.30 1.485315
603.40 1.484531
603.50 1.479389
603.60 1.495645
603.70 1.536766
603.80 1.604689
603.90 1.700899
604.00 1.809063
604.10 1.904866
604.20 1.977234
604.30 2.018671
604.40 2.011625
604.50 1.964336
604.60 1.90591
604.70 1.863072
604.80 1.865061
604.90 1.920426
605.00 2.025137
605.10 2.184256
605.20 2.386699
605.30 2.599366
605.40 2.777536
605.50 2.882592
605.60 2.893631
605.70 2.808317
605.80 2.646309
605.90 2.432054
606.00 2.201431
606.10 1.988619
606.20 1.802517
606.30 1.655209
606.40 1.564864
606.50 1.538337
606.60 1.570644
606.70 1.658361
606.80 1.806189
606.90 1.995017
607.00 2.17551
607.10 2.306597
607.20 2.377635
607.30 2.388988
607.40 2.342569
607.50 2.245679
607.60 2.119656
607.70 2.005407
607.80 1.935959
607.90 1.923088
608.00 1.970432
608.10 2.057804
608.20 2.153767
608.30 2.254123
608.40 2.37409
608.50 2.498058
608.60 2.573263
608.70 2.564994
608.80 2.475232
608.90 2.326812
609.00 2.14634
609.10 1.958627
609.20 1.787013
609.30 1.651021
609.40 1.556308
609.50 1.49769
609.60 1.477118
609.70 1.490742
609.80 1.514959
609.90 1.541709
610.00 1.595153
610.10 1.691405
610.20 1.801396
610.30 1.892996
610.40 1.956036
610.50 1.979768
610.60 1.96619
610.70 1.934263
610.80 1.910707
610.90 1.915579
611.00 1.937003
611.10 1.945526
611.20 1.935378
611.30 1.933252
611.40 1.962351
611.50 2.029053
611.60 2.146251
611.70 2.309248
611.80 2.485095
611.90 2.633363
612.00 2.712508
612.10 2.68416
612.20 2.528185
612.30 2.268873
612.40 1.97131
612.50 1.713974
612.60 1.55469
612.70 1.500604
612.80 1.534443
612.90 1.644287
613.00 1.807405
613.10 1.988359
613.20 2.150306
613.30 2.264232
613.40 2.335378
613.50 2.404176
613.60 2.496564
613.70 2.589635
613.80 2.651087
613.90 2.668401
614.00 2.645872
614.10 2.604382
614.20 2.561829
614.30 2.50521
614.40 2.41795
614.50 2.3073
614.60 2.18707
614.70 2.078263
614.80 1.982948
614.90 1.883818
615.00 1.776614
615.10 1.693521
615.20 1.672371
615.30 1.717951
615.40 1.811731
615.50 1.920018
615.60 2.009771
615.70 2.065859
615.80 2.087026
615.90 2.083901
616.00 2.084468
616.10 2.104393
616.20 2.146965
616.30 2.217482
616.40 2.305949
616.50 2.374217
616.60 2.384416
616.70 2.33725
616.80 2.256024
616.90 2.160393
617.00 2.059323
617.10 1.972862
617.20 1.917894
617.30 1.88384
617.40 1.845111
617.50 1.781995
617.60 1.695701
617.70 1.60085
617.80 1.525061
617.90 1.50121
618.00 1.554924
618.10 1.683996
618.20 1.85319
618.30 2.024993
618.40 2.183561
618.50 2.316028
618.60 2.408103
618.70 2.459426
618.80 2.487032
618.90 2.511879
619.00 2.52376
619.10 2.495105
619.20 2.417362
619.30 2.313647
619.40 2.207906
619.50 2.106318
619.60 2.022229
619.70 1.976071
619.80 1.971809
619.90 1.998633
620.00 2.039994
620.10 2.075738
620.20 2.09709
620.30 2.099184
620.40 2.102086
620.50 2.141446
620.60 2.225548
620.70 2.337796
620.80 2.45059
620.90 2.533797
621.00 2.559869
621.10 2.503872
621.20 2.348378
621.30 2.098068
621.40 1.790877
621.50 1.480659
621.60 1.201967
621.70 0.9945163
621.80 0.8912549
621.90 0.8881226
622.00 0.969605
622.10 1.108092
622.20 1.280202
622.30 1.478281
622.40 1.691945
622.50 1.899486
622.60 2.077407
622.70 2.215777
622.80 2.300886
622.90 2.327701
623.00 2.318521
623.10 2.285914
623.20 2.222751
623.30 2.135076
623.40 2.039052
623.50 1.956481
623.60 1.916738
623.70 1.932827
623.80 1.994949
623.90 2.09101
624.00 2.208048
624.10 2.320903
624.20 2.404905
624.30 2.433175
624.40 2.382973
624.50 2.261135
624.60 2.107715
624.70 1.967511
624.80 1.872899
624.90 1.845254
625.00 1.88447
625.10 1.986562
625.20 2.149758
625.30 2.35579
625.40 2.573631
625.50 2.776527
625.60 2.963882
625.70 3.13753
625.80 3.274438
625.90 3.349658
626.00 3.346571
626.10 3.25178
626.20 3.065784
626.30 2.802
626.40 2.488757
626.50 2.172083
626.60 1.910462
626.70 1.753413
626.80 1.7228
626.90 1.807419
627.00 1.961656
627.10 2.145918
627.20 2.338794
627.30 2.52442
627.40 2.686421
627.50 2.804499
627.60 2.870863
627.70 2.891563
627.80 2.864533
627.90 2.788462
628.00 2.67533
628.10 2.551389
628.20 2.459172
628.30 2.431714
628.40 2.468202
628.50 2.540681
628.60 2.609412
628.70 2.631774
628.80 2.583129
628.90 2.478247
629.00 2.347767
629.10 2.225253
629.20 2.155797
629.30 2.180635
629.40 2.301413
629.50 2.471051
629.60 2.605327
629.70 2.65175
629.80 2.624276
629.90 2.556452
630.00 2.492971
630.10 2.480615
630.20 2.548014
630.30 2.696824
630.40 2.914433
630.50 3.173157
630.60 3.427981
630.70 3.623491
630.80 3.731143
630.90 3.76128
631.00 3.756882
631.10 3.749294
631.20 3.746165
631.30 3.748834
631.40 3.74579
631.50 3.727352
631.60 3.69082
631.70 3.639143
631.80 3.565052
631.90 3.466982
632.00 3.358906
632.10 3.26081
632.20 3.183666
632.30 3.141693
632.40 3.160662
632.50 3.249201
632.60 3.371215
632.70 3.485427
632.80 3.569575
632.90 3.60476
633.00 3.588577
633.10 3.53192
633.20 3.455688
633.30 3.377332
633.40 3.31048
633.50 3.265614
633.60 3.248202
633.70 3.270695
633.80 3.342946
633.90 3.468401
634.00 3.644841
634.10 3.850948
634.20 4.055809
634.30 4.229438
634.40 4.339227
634.50 4.374261
634.60 4.354903
634.70 4.311062
634.80 4.268701
634.90 4.255684
635.00 4.300952
635.10 4.414644
635.20 4.570234
635.30 4.720101
635.40 4.830251
635.50 4.874136
635.60 4.81225
635.70 4.62933
635.80 4.375325
635.90 4.090173
636.00 3.787904
636.10 3.505744
636.20 3.30105
636.30 3.210563
636.40 3.22401
636.50 3.318484
636.60 3.46909
636.70 3.643292
636.80 3.801082
636.90 3.912985
637.00 3.985792
637.10 4.029484
637.20 4.010473
637.30 3.916295
637.40 3.780756
637.50 3.651242
637.60 3.561224
637.70 3.522366
637.80 3.53377
637.90 3.581494
638.00 3.670721
638.10 3.806076
638.20 3.980821
638.30 4.184633
638.40 4.397783
638.50 4.591746
638.60 4.744179
638.70 4.852992
638.80 4.921262
638.90 4.941066
639.00 4.899939
639.10 4.806598
639.20 4.694099
639.30 4.588106
639.40 4.485951
639.50 4.392464
639.60 4.326739
639.70 4.300877
639.80 4.315665
639.90 4.376962
640.00 4.482756
640.10 4.608038
640.20 4.727278
640.30 4.811667
640.40 4.839106
640.50 4.804039
640.60 4.712063
640.70 4.577557
640.80 4.422667
640.90 4.267175
641.00 4.120701
641.10 3.991156
641.20 3.893419
641.30 3.836935
641.40 3.829198
641.50 3.88229
641.60 3.997427
641.70 4.169808
641.80 4.382901
641.90 4.594592
642.00 4.753413
642.10 4.820857
642.20 4.781811
642.30 4.652761
642.40 4.483377
642.50 4.329408
642.60 4.23217
642.70 4.221435
642.80 4.306961
642.90 4.463845
643.00 4.646528
643.10 4.803599
643.20 4.891466
643.30 4.902958
643.40 4.855274
643.50 4.773756
643.60 4.686345
643.70 4.603659
643.80 4.518127
643.90 4.43532
644.00 4.371515
644.10 4.325115
644.20 4.284349
644.30 4.251317
644.40 4.232738
644.50 4.233832
644.60 4.260813
644.70 4.313624
644.80 4.393772
644.90 4.494714
645.00 4.593532
645.10 4.667492
645.20 4.706177
645.30 4.697542
645.40 4.627014
645.50 4.500933
645.60 4.351035
645.70 4.208718
645.80 4.100837
645.90 4.046146
646.00 4.055322
646.10 4.125047
646.20 4.240531
646.30 4.394961
646.40 4.586059
646.50 4.809045
646.60 5.039675
646.70 5.239785
646.80 5.382921
646.90 5.458705
647.00 5.464198
647.10 5.412588
647.20 5.325125
647.30 5.223169
647.40 5.129517
647.50 5.065913
647.60 5.044572
647.70 5.052502
647.80 5.063439
647.90 5.053706
648.00 5.010785
648.10 4.944475
648.20 4.876155
648.30 4.824445
648.40 4.806277
648.50 4.824419
648.60 4.871956
648.70 4.944927
648.80 5.030162
648.90 5.107715
649.00 5.158804
649.10 5.184493
649.20 5.198838
649.30 5.214958
649.40 5.248985
649.50 5.297511
649.60 5.33982
649.70 5.347529
649.80 5.30448
649.90 5.22493
650.00 5.132116
650.10 5.050661
650.20 5.014451
650.30 5.047072
650.40 5.154089
650.50 5.318243
650.60 5.503857
650.70 5.674281
650.80 5.801226
650.90 5.889125
651.00 5.951534
651.10 5.997012
651.20 6.034508
651.30 6.068845
651.40 6.106533
651.50 6.154053
651.60 6.20645
651.70 6.249114
651.80 6.268539
651.90 6.255061
652.00 6.213484
652.10 6.162681
652.20 6.127401
652.30 6.116684
652.40 6.127384
652.50 6.169128
652.60 6.260163
652.70 6.408124
652.80 6.602678
652.90 6.813132
653.00 6.988374
653.10 7.094856
653.20 7.123829
653.30 7.083238
653.40 6.997029
653.50 6.893907
653.60 6.800422
653.70 6.733245
653.80 6.713946
653.90 6.771185
654.00 6.914545
654.10 7.123036
654.20 7.364168
654.30 7.608874
654.40 7.840739
654.50 8.038199
654.60 8.175929
654.70 8.244297
654.80 8.248156
654.90 8.193831
655.00 8.083589
655.10 7.933167
655.20 7.765027
655.30 7.587925
655.40 7.410708
655.50 7.255021
655.60 7.156831
655.70 7.172542
655.80 7.329747
655.90 7.607232
656.00 7.968166
656.10 8.367766
656.20 8.751894
656.30 9.061531
656.40 9.24824
656.50 9.294527
656.60 9.213456
656.70 9.037807
656.80 8.800846
656.90 8.53279
657.00 8.255182
657.10 7.970996
657.20 7.700372
657.30 7.477639
657.40 7.316059
657.50 7.207024
657.60 7.127418
657.70 7.051667
657.80 6.973776
657.90 6.908516
658.00 6.874293
658.10 6.87901
658.20 6.91928
658.30 6.992684
658.40 7.097671
658.50 7.216145
658.60 7.317868
658.70 7.375444
658.80 7.37679
658.90 7.318863
659.00 7.215925
659.10 7.120843
659.20 7.080566
659.30 7.097598
659.40 7.153487
659.50 7.235685
659.60 7.339358
659.70 7.454834
659.80 7.548832
659.90 7.587906
660.00 7.566477
660.10 7.51055
660.20 7.457448
660.30 7.434831
660.40 7.457517
660.50 7.517924
660.60 7.598269
660.70 7.700446
660.80 7.83222
660.90 7.977917
661.00 8.103707
661.10 8.170807
661.20 8.160757
661.30 8.081027
661.40 7.951967
661.50 7.797489
661.60 7.646998
661.70 7.541254
661.80 7.508513
661.90 7.54364
662.00 7.625415
662.10 7.707807
662.20 7.739097
662.30 7.695446
662.40 7.578309
662.50 7.423347
662.60 7.287368
662.70 7.211107
662.80 7.213167
662.90 7.30588
663.00 7.485902
663.10 7.712769
663.20 7.926118
663.30 8.085044
663.40 8.172154
663.50 8.192392
663.60 8.162527
663.70 8.106864
663.80 8.063707
663.90 8.051142
664.00 8.072647
664.10 8.143852
664.20 8.26988
664.30 8.428491
664.40 8.578866
664.50 8.697517
664.60 8.786015
664.70 8.852733
664.80 8.895704
664.90 8.908175
665.00 8.895786
665.10 8.866244
665.20 8.820753
665.30 8.767382
665.40 8.715683
665.50 8.665559
665.60 8.615484
665.70 8.557202
665.80 8.483614
665.90 8.399036
666.00 8.3075
666.10 8.208788
666.20 8.113007
666.30 8.03756
666.40 7.99325
666.50 7.990963
666.60 8.048613
666.70 8.179603
666.80 8.377115
666.90 8.608726
667.00 8.826855
667.10 8.999536
667.20 9.115616
667.30 9.176278
667.40 9.192869
667.50 9.175667
667.60 9.127887
667.70 9.054099
667.80 8.975149
667.90 8.915079
668.00 8.874602
668.10 8.841637
668.20 8.814762
668.30 8.805699
668.40 8.831022
668.50 8.891511
668.60 8.965567
668.70 9.023393
668.80 9.039741
668.90 8.997373
669.00 8.898294
669.10 8.760044
669.20 8.601866
669.30 8.453458
669.40 8.351152
669.50 8.32152
669.60 8.376452
669.70 8.502458
669.80 8.660945
669.90 8.814855
670.00 8.931801
670.10 8.974167
670.20 8.929461
670.30 8.818724
670.40 8.671782
670.50 8.52672
670.60 8.420548
670.70 8.378767
670.80 8.413009
670.90 8.524558
671.00 8.697588
671.10 8.903213
671.20 9.116917
671.30 9.315796
671.40 9.482179
671.50 9.605459
671.60 9.671682
671.70 9.679244
671.80 9.650443
671.90 9.59938
672.00 9.535924
672.10 9.473917
672.20 9.423668
672.30 9.388296
672.40 9.362746
672.50 9.34241
672.60 9.324135
672.70 9.293907
672.80 9.238516
672.90 9.162809
673.00 9.076018
673.10 8.989934
673.20 8.918701
673.30 8.88833
673.40 8.919154
673.50 9.005469
673.60 9.131196
673.70 9.281017
673.80 9.439646
673.90 9.592698
674.00 9.724406
674.10 9.826988
674.20 9.904625
674.30 9.956409
674.40 9.970999
674.50 9.941407
674.60 9.877669
674.70 9.803082
674.80 9.741152
674.90 9.706626
675.00 9.70505
675.10 9.74428
675.20 9.834117
675.30 9.957803
675.40 10.07285
675.50 10.13353
675.60 10.10592
675.70 9.991216
675.80 9.836298
675.90 9.688799
676.00 9.567902
676.10 9.478697
676.20 9.435566
676.30 9.46244
676.40 9.577527
676.50 9.764871
676.60 9.969408
676.70 10.14819
676.80 10.29216
676.90 10.40754
677.00 10.49102
677.10 10.52067
677.20 10.48625
677.30 10.41383
677.40 10.34972
677.50 10.32531
677.60 10.33581
677.70 10.35386
677.80 10.35197
677.90 10.32323
678.00 10.2797
678.10 10.22863
678.20 10.16151
678.30 10.06364
678.40 9.942996
678.50 9.832342
678.60 9.745774
678.70 9.672774
678.80 9.60511
678.90 9.55243
679.00 9.533243
679.10 9.552017
679.20 9.59796
679.30 9.654198
679.40 9.705547
679.50 9.739539
679.60 9.748343
679.70 9.740297
679.80 9.723225
679.90 9.693638
680.00 9.649262
680.10 9.591636
680.20 9.523928
680.30 9.449719
680.40 9.381216
680.50 9.34567
680.60 9.371052
680.70 9.457447
680.80 9.572193
680.90 9.67481
681.00 9.738284
681.10 9.746977
681.20 9.705291
681.30 9.630876
681.40 9.541696
681.50 9.459937
681.60 9.401666
681.70 9.37264
681.80 9.371517
681.90 9.391344
682.00 9.414692
682.10 9.432846
682.20 9.467776
682.30 9.548082
682.40 9.676772
682.50 9.825557
682.60 9.952452
682.70 10.02799
682.80 10.04746
682.90 10.01951
683.00 9.947312
683.10 9.834635
683.20 9.694488
683.30 9.537743
683.40 9.378377
683.50 9.231947
683.60 9.10642
683.70 9.007851
683.80 8.943467
683.90 8.925958
684.00 8.967262
684.10 9.061237
684.20 9.18269
684.30 9.29807
684.40 9.380679
684.50 9.411487
684.60 9.379586
684.70 9.290713
684.80 9.159372
684.90 8.997763
685.00 8.811134
685.10 8.616007
685.20 8.446261
685.30 8.330188
685.40 8.270835
685.50 8.259054
685.60 8.281347
685.70 8.317181
685.80 8.364215
685.90 8.436835
686.00 8.532154
686.10 8.62822
686.20 8.707971
686.30 8.764272
686.40 8.799044
686.50 8.812518
686.60 8.80412
686.70 8.781599
686.80 8.754816
686.90 8.732811
687.00 8.729732
687.10 8.759169
687.20 8.815902
687.30 8.880792
687.40 8.940234
687.50 8.991097
687.60 9.021641
687.70 9.016413
687.80 8.961272
687.90 8.8508
688.00 8.695612
688.10 8.523345
688.20 8.380729
688.30 8.316033
688.40 8.359391
688.50 8.513678
688.60 8.754099
688.70 9.027734
688.80 9.260489
688.90 9.382547
689.00 9.362551
689.10 9.197385
689.20 8.908217
689.30 8.546068
689.40 8.178528
689.50 7.862781
689.60 7.644096
689.70 7.549075
689.80 7.559023
689.90 7.634296
690.00 7.737152
690.10 7.836103
690.20 7.917305
690.30 7.977436
690.40 8.016883
690.50 8.04533
690.60 8.07449
690.70 8.112487
690.80 8.163086
690.90 8.229979
691.00 8.297678
691.10 8.336961
691.20 8.34736
691.30 8.336939
691.40 8.298032
691.50 8.224597
691.60 8.128603
691.70 8.037945
691.80 7.980134
691.90 7.984523
692.00 8.08361
692.10 8.279671
692.20 8.521967
692.30 8.744184
692.40 8.910896
692.50 9.024077
692.60 9.092692
692.70 9.126943
692.80 9.153212
692.90 9.193675
693.00 9.260674
693.10 9.355065
693.20 9.45929
693.30 9.552826
693.40 9.607573
693.50 9.60074
693.60 9.55874
693.70 9.524518
693.80 9.511486
693.90 9.519702
694.00 9.557942
694.10 9.643949
694.20 9.797016
694.30 10.04167
694.40 10.3943
694.50 10.83487
694.60 11.30338
694.70 11.71136
694.80 11.97048
694.90 12.02859
695.00 11.86416
695.10 11.49717
695.20 11.01201
695.30 10.51462
695.40 10.09126
695.50 9.808403
695.60 9.695707
695.70 9.735667
695.80 9.874395
695.90 10.0486
696.00 10.20701
696.10 10.3255
696.20 10.41622
696.30 10.50797
696.40 10.62685
696.50 10.77618
696.60 10.92902
696.70 11.05374
696.80 11.12715
696.90 11.13254
697.00 11.07737
697.10 10.97803
697.20 10.84152
697.30 10.69139
697.40 10.56802
697.50 10.49701
697.60 10.47682
697.70 10.48297
697.80 10.48537
697.90 10.46831
698.00 10.4291
698.10 10.37834
698.20 10.34158
698.30 10.33759
698.40 10.36643
698.50 10.42762
698.60 10.52349
698.70 10.63617
698.80 10.73038
698.90 10.77951
699.00 10.76621
699.10 10.68465
699.20 10.55679
699.30 10.42882
699.40 10.34212
699.50 10.31282
699.60 10.33964
699.70 10.41871
699.80 10.53988
699.90 10.67728
700.00 10.80619
700.10 10.91561
700.20 11.00754
700.30 11.088
700.40 11.16406
700.50 11.25287
700.60 11.3597
700.70 11.46429
700.80 11.54859
700.90 11.60625
701.00 11.63114
701.10 11.62221
701.20 11.58197
701.30 11.52582
701.40 11.48453
701.50 11.47585
701.60 11.5083
701.70 11.5876
701.80 11.71528
701.90 11.88463
702.00 12.07375
702.10 12.25358
702.20 12.39704
702.30 12.48957
702.40 12.53329
702.50 12.53515
702.60 12.52165
702.70 12.5325
702.80 12.57556
702.90 12.65586
703.00 12.78571
703.10 12.96204
703.20 13.16719
703.30 13.37031
703.40 13.54723
703.50 13.70006
703.60 13.85709
703.70 14.04639
703.80 14.27465
703.90 14.53859
704.00 14.81441
704.10 15.05571
704.20 15.23166
704.30 15.32823
704.40 15.34441
704.50 15.29655
704.60 15.20869
704.70 15.10844
704.80 15.01984
704.90 14.94877
705.00 14.88039
705.10 14.78858
705.20 14.65484
705.30 14.46834
705.40 14.23216
705.50 13.97592
705.60 13.74191
705.70 13.56565
705.80 13.46194
705.90 13.42364
706.00 13.43827
706.10 13.50462
706.20 13.61831
706.30 13.75782
706.40 13.88852
706.50 13.98026
706.60 14.02384
706.70 14.04014
706.80 14.05457
706.90 14.07756
707.00 14.11338
707.10 14.15449
707.20 14.18956
707.30 14.22067
707.40 14.26006
707.50 14.30202
707.60 14.3325
707.70 14.34176
707.80 14.31955
707.90 14.26234
708.00 14.17774
708.10 14.07055
708.20 13.93673
708.30 13.77559
708.40 13.59112
708.50 13.40639
708.60 13.25798
708.70 13.16675
708.80 13.12491
708.90 13.11726
709.00 13.13069
709.10 13.15994
709.20 13.21087
709.30 13.28059
709.40 13.35298
709.50 13.40547
709.60 13.42292
709.70 13.41433
709.80 13.4125
709.90 13.44886
710.00 13.52961
710.10 13.6406
710.20 13.77132
710.30 13.91194
710.40 14.04867
710.50 14.16841
710.60 14.25275
710.70 14.28837
710.80 14.26728
710.90 14.20741
711.00 14.15696
711.10 14.14151
711.20 14.15318
711.30 14.18384
711.40 14.23269
711.50 14.29888
711.60 14.37606
711.70 14.45668
711.80 14.53022
711.90 14.58483
712.00 14.6199
712.10 14.64615
712.20 14.67006
712.30 14.67394
712.40 14.64543
712.50 14.59855
712.60 14.54799
712.70 14.49784
712.80 14.45507
712.90 14.42591
713.00 14.40848
713.10 14.39658
713.20 14.38419
713.30 14.36897
713.40 14.34896
713.50 14.31837
713.60 14.2806
713.70 14.25114
713.80 14.23681
713.90 14.23919
714.00 14.2691
714.10 14.33773
714.20 14.4394
714.30 14.56416
714.40 14.70446
714.50 14.84724
714.60 14.97737
714.70 15.08558
714.80 15.17326
714.90 15.25022
715.00 15.32005
715.10 15.37967
715.20 15.43145
715.30 15.47757
715.40 15.50911
715.50 15.51893
715.60 15.51102
715.70 15.49155
715.80 15.47467
715.90 15.47848
716.00 15.51182
716.10 15.57202
716.20 15.6582
716.30 15.77488
716.40 15.92555
716.50 16.0986
716.60 16.25679
716.70 16.36405
716.80 16.4124
716.90 16.41596
717.00 16.39114
717.10 16.35233
717.20 16.31239
717.30 16.27401
717.40 16.23856
717.50 16.2132
717.60 16.188
717.70 16.14079
717.80 16.06647
717.90 15.986
718.00 15.93292
718.10 15.93493
718.20 15.99465
718.30 16.08705
718.40 16.19021
718.50 16.29804
718.60 16.40763
718.70 16.51687
718.80 16.62538
718.90 16.72958
719.00 16.82938
719.10 16.92274
719.20 17.00048
719.30 17.04792
719.40 17.04795
719.50 17.00726
719.60 16.95549
719.70 16.92024
719.80 16.92543
719.90 16.98894
720.00 17.11645
720.10 17.29444
720.20 17.48632
720.30 17.64697
720.40 17.74307
720.50 17.76732
720.60 17.72692
720.70 17.64123
720.80 17.55142
720.90 17.4838
721.00 17.44157
721.10 17.43323
721.20 17.47175
721.30 17.55374
721.40 17.65644
721.50 17.75988
721.60 17.85948
721.70 17.96018
721.80 18.0607
721.90 18.14937
722.00 18.22022
722.10 18.27342
722.20 18.29614
722.30 18.27863
722.40 18.23895
722.50 18.20768
722.60 18.2037
722.70 18.23748
722.80 18.31983
722.90 18.45135
723.00 18.60652
723.10 18.74707
723.20 18.85163
723.30 18.91418
723.40 18.95027
723.50 19.01439
723.60 19.17044
723.70 19.43865
723.80 19.76777
723.90 20.07977
724.00 20.34911
724.10 20.56433
724.20 20.67761
724.30 20.65299
724.40 20.50885
724.50 20.29228
724.60 20.04583
724.70 19.82472
724.80 19.68015
724.90 19.6193
725.00 19.62033
725.10 19.67406
725.20 19.80289
725.30 20.01257
725.40 20.23809
725.50 20.41788
725.60 20.53948
725.70 20.61884
725.80 20.6765
725.90 20.72396
726.00 20.76345
726.10 20.78134
726.20 20.75982
726.30 20.68815
726.40 20.57409
726.50 20.43603
726.60 20.29419
726.70 20.17361
726.80 20.09959
726.90 20.10365
727.00 20.22516
727.10 20.48359
727.20 20.87719
727.30 21.3553
727.40 21.81544
727.50 22.16023
727.60 22.3303
727.70 22.30732
727.80 22.12668
727.90 21.87945
728.00 21.65962
728.10 21.53316
728.20 21.53095
728.30 21.62315
728.40 21.74231
728.50 21.80942
728.60 21.74094
728.70 21.51048
728.80 21.1761
728.90 20.83132
729.00 20.56677
729.10 20.46254
729.20 20.55179
729.30 20.78939
729.40 21.10399
729.50 21.43338
729.60 21.72021
729.70 21.94131
729.80 22.09313
729.90 22.17635
730.00 22.21206
730.10 22.22516
730.20 22.24158
730.30 22.27894
730.40 22.33164
730.50 22.4007
730.60 22.5045
730.70 22.66174
730.80 22.87705
730.90 23.14458
731.00 23.45679
731.10 23.80647
731.20 24.19735
731.30 24.59896
731.40 24.92965
731.50 25.13544
731.60 25.20457
731.70 25.15279
731.80 25.02185
731.90 24.84593
732.00 24.64396
732.10 24.43757
732.20 24.26262
732.30 24.17101
732.40 24.20772
732.50 24.3518
732.60 24.49907
732.70 24.56193
732.80 24.51166
732.90 24.3512
733.00 24.10624
733.10 23.81412
733.20 23.53348
733.30 23.34447
733.40 23.33505
733.50 23.57874
733.60 24.09897
733.70 24.81792
733.80 25.58624
733.90 26.25677
734.00 26.7233
734.10 26.92385
734.20 26.84031
734.30 26.50173
734.40 25.96251
734.50 25.31396
734.60 24.67707
734.70 24.14775
734.80 23.76628
734.90 23.5327
735.00 23.42286
735.10 23.42094
735.20 23.50869
735.30 23.64651
735.40 23.8067
735.50 23.9715
735.60 24.1147
735.70 24.20372
735.80 24.23737
735.90 24.2244
736.00 24.17083
736.10 24.11158
736.20 24.09772
736.30 24.16281
736.40 24.33853
736.50 24.63269
736.60 24.99211
736.70 25.3526
736.80 25.64193
736.90 25.78154
737.00 25.73698
737.10 25.52637
737.20 25.1892
737.30 24.77831
737.40 24.34934
737.50 23.94921
737.60 23.62707
737.70 23.43153
737.80 23.35952
737.90 23.37011
738.00 23.43912
738.10 23.53921
738.20 23.64625
738.30 23.74923
738.40 23.84395
738.50 23.92104
738.60 23.98326
738.70 24.0674
738.80 24.19455
738.90 24.34536
739.00 24.487
739.10 24.57842
739.20 24.56353
739.30 24.40754
739.40 24.1229
739.50 23.77159
739.60 23.44692
739.70 23.23967
739.80 23.20599
739.90 23.35275
740.00 23.63549
740.10 23.9585
740.20 24.2234
740.30 24.37194
740.40 24.37792
740.50 24.24543
740.60 24.02132
740.70 23.75919
740.80 23.50704
740.90 23.30183
741.00 23.14582
741.10 23.02929
741.20 22.95415
741.30 22.92668
741.40 22.94758
741.50 23.01562
741.60 23.11512
741.70 23.2167
741.80 23.2856
741.90 23.29382
742.00 23.22859
742.10 23.09962
742.20 22.93821
742.30 22.78071
742.40 22.673
742.50 22.66032
742.60 22.74682
742.70 22.90176
742.80 23.08673
742.90 23.25073
743.00 23.35099
743.10 23.36679
743.20 23.29635
743.30 23.1524
743.40 22.95743
743.50 22.75255
743.60 22.59799
743.70 22.53692
743.80 22.5681
743.90 22.66048
744.00 22.77574
744.10 22.87357
744.20 22.90174
744.30 22.82675
744.40 22.64819
744.50 22.38084
744.60 22.05646
744.70 21.72656
744.80 21.45795
744.90 21.30767
745.00 21.28585
745.10 21.36358
745.20 21.49853
745.30 21.6282
745.40 21.69661
745.50 21.69279
745.60 21.63414
745.70 21.54621
745.80 21.46747
745.90 21.4445
746.00 21.50787
746.10 21.65973
746.20 21.8744
746.30 22.10086
746.40 22.28569
746.50 22.40426
746.60 22.4637
746.70 22.49874
746.80 22.54295
746.90 22.59664
747.00 22.6568
747.10 22.72428
747.20 22.78086
747.30 22.80463
747.40 22.7904
747.50 22.73607
747.60 22.6596
747.70 22.61404
747.80 22.64813
747.90 22.77799
748.00 22.99569
748.10 23.26931
748.20 23.52911
748.30 23.69238
748.40 23.71418
748.50 23.60489
748.60 23.40288
748.70 23.14846
748.80 22.87866
748.90 22.6438
749.00 22.49246
749.10 22.43709
749.20 22.46041
749.30 22.52779
749.40 22.59085
749.50 22.61384
749.60 22.60925
749.70 22.61872
749.80 22.65506
749.90 22.70772
750.00 22.78025
750.10 22.8761
750.20 22.98508
750.30 23.09372
750.40 23.18312
750.50 23.23544
750.60 23.24559
750.70 23.21769
750.80 23.16614
750.90 23.11187
751.00 23.0642
751.10 23.03346
751.20 23.05184
751.30 23.13516
751.40 23.26168
751.50 23.38997
751.60 23.48172
751.70 23.52678
751.80 23.54601
751.90 23.58035
752.00 23.65762
752.10 23.77178
752.20 23.90829
752.30 24.05463
752.40 24.19985
752.50 24.3219
752.60 24.38255
752.70 24.35026
752.80 24.21679
752.90 24.00312
753.00 23.75158
753.10 23.508
753.20 23.30253
753.30 23.14182
753.40 23.02611
753.50 22.97385
753.60 22.99128
753.70 23.05141
753.80 23.1162
753.90 23.16131
754.00 23.17352
754.10 23.14996
754.20 23.10388
754.30 23.05387
754.40 23.00995
754.50 22.96265
754.60 22.89808
754.70 22.80942
754.80 22.70555
754.90 22.61331
755.00 22.56188
755.10 22.58149
755.20 22.69277
755.30 22.87554
755.40 23.08031
755.50 23.26998
755.60 23.41995
755.70 23.51377
755.80 23.55254
755.90 23.54504
756.00 23.49428
756.10 23.40173
756.20 23.27314
756.30 23.11717
756.40 22.93943
756.50 22.76159
756.60 22.64102
756.70 22.62561
756.80 22.72251
756.90 22.89816
757.00 23.10524
757.10 23.2898
757.20 23.39416
757.30 23.3909
757.40 23.29282
757.50 23.14646
757.60 23.00385
757.70 22.9079
757.80 22.89833
757.90 22.97731
758.00 23.09914
758.10 23.21508
758.20 23.28197
758.30 23.26326
758.40 23.12738
758.50 22.85774
758.60 22.46617
758.70 21.98597
758.80 21.45713
758.90 20.91363
759.00 20.39703
759.10 19.95474
759.20 19.63014
759.30 19.46512
759.40 19.46801
759.50 19.60187
759.60 19.8253
759.70 20.0985
759.80 20.38597
759.90 20.6596
760.00 20.86679
760.10 20.94646
760.20 20.87505
760.30 20.66745
760.40 20.36421
760.50 20.01376
760.60 19.65078
760.70 19.27818
760.80 18.89433
760.90 18.53472
761.00 18.24812
761.10 18.0636
761.20 17.98015
761.30 17.98726
761.40 18.08635
761.50 18.25386
761.60 18.43788
761.70 18.58796
761.80 18.64263
761.90 18.54774
762.00 18.29941
762.10 17.94575
762.20 17.56035
762.30 17.20843
762.40 16.91933
762.50 16.68416
762.60 16.465
762.70 16.21297
762.80 15.88706
762.90 15.48028
763.00 15.0129
763.10 14.51806
763.20 14.03293
763.30 13.5872
763.40 13.2038
763.50 12.89253
763.60 12.65499
763.70 12.46831
763.80 12.29042
763.90 12.08199
764.00 11.82078
764.10 11.49783
764.20 11.11839
764.30 10.69939
764.40 10.25615
764.50 9.795408
764.60 9.334288
764.70 8.913375
764.80 8.549271
764.90 8.228612
765.00 7.930593
765.10 7.633345
765.20 7.318126
765.30 6.969864
765.40 6.578723
765.50 6.148013
765.60 5.694161
765.70 5.242785
765.80 4.821629
765.90 4.447519
766.00 4.134259
766.10 3.87918
766.20 3.668867
766.30 3.498186
766.40 3.350897
766.50 3.221194
766.60 3.130614
766.70 3.109116
766.80 3.181593
766.90 3.354663
767.00 3.616223
767.10 3.942056
767.20 4.304005
767.30 4.684983
767.40 5.070873
767.50 5.442005
767.60 5.787857
767.70 6.105595
767.80 6.403625
767.90 6.69886
768.00 7.002667
768.10 7.31237
768.20 7.60981
768.30 7.872639
768.40 8.074778
768.50 8.184464
768.60 8.178549
768.70 8.056715
768.80 7.8454
768.90 7.588412
769.00 7.320972
769.10 7.056053
769.20 6.793844
769.30 6.522779
769.40 6.231925
769.50 5.91795
769.60 5.580551
769.70 5.22647
769.80 4.879386
769.90 4.579884
770.00 4.368346
770.10 4.266604
770.20 4.271205
770.30 4.372275
770.40 4.556629
770.50 4.812648
770.60 5.153
770.70 5.627069
770.80 6.268183
770.90 7.044299
771.00 7.909956
771.10 8.818841
771.20 9.703806
771.30 10.46078
771.40 10.98311
771.50 11.22154
771.60 11.18995
771.70 10.95986
771.80 10.6692
771.90 10.49461
772.00 10.56245
772.10 10.8932
772.20 11.44425
772.30 12.1808
772.40 13.02979
772.50 13.86585
772.60 14.56518
772.70 15.07306
772.80 15.40719
772.90 15.60565
773.00 15.71927
773.10 15.79485
773.20 15.85459
773.30 15.91335
773.40 15.98992
773.50 16.10632
773.60 16.27313
773.70 16.47321
773.80 16.68954
773.90 16.91837
774.00 17.16322
774.10 17.42255
774.20 17.67225
774.30 17.88691
774.40 18.07146
774.50 18.25551
774.60 18.46903
774.70 18.73037
774.80 19.03461
774.90 19.34608
775.00 19.62974
775.10 19.84352
775.20 19.95158
775.30 19.96222
775.40 19.91231
775.50 19.84347
775.60 19.80471
775.70 19.83723
775.80 19.93693
775.90 20.0571
776.00 20.15179
776.10 20.18736
776.20 20.15063
776.30 20.06156
776.40 19.95276
776.50 19.88409
776.60 19.91621
776.70 20.07019
776.80 20.33854
776.90 20.69345
777.00 21.08605
777.10 21.45162
777.20 21.72357
777.30 21.85823
777.40 21.83448
777.50 21.6565
777.60 21.39146
777.70 21.13508
777.80 20.96246
777.90 20.92809
778.00 21.04349
778.10 21.26477
778.20 21.51568
778.30 21.71866
778.40 21.81957
778.50 21.80068
778.60 21.69069
778.70 21.56421
778.80 21.52537
778.90 21.66194
779.00 21.97509
779.10 22.39476
779.20 22.81471
779.30 23.10021
779.40 23.11442
779.50 22.75757
779.60 21.98023
779.70 20.80561
779.80 19.36251
779.90 17.86266
780.00 16.56358
780.10 15.6978
780.20 15.41643
780.30 15.76378
780.40 16.67184
780.50 17.97002
780.60 19.42882
780.70 20.79766
780.80 21.87855
780.90 22.56967
781.00 22.87604
781.10 22.8946
781.20 22.75325
781.30 22.5955
781.40 22.54804
781.50 22.70078
781.60 23.09221
781.70 23.67021
781.80 24.32354
781.90 24.93935
782.00 25.42824
782.10 25.73024
782.20 25.80846
782.30 25.6819
782.40 25.40902
782.50 25.05402
782.60 24.68186
782.70 24.34272
782.80 24.07566
782.90 23.89234
783.00 23.76326
783.10 23.6864
783.20 23.69669
783.30 23.80444
783.40 23.97346
783.50 24.18438
783.60 24.45004
783.70 24.76087
783.80 25.09719
783.90 25.44929
784.00 25.82949
784.10 26.24874
784.20 26.69523
784.30 27.15558
784.40 27.61688
784.50 28.03298
784.60 28.31082
784.70 28.40416
784.80 28.38827
784.90 28.36398
785.00 28.34387
785.10 28.3093
785.20 28.2811
785.30 28.29268
785.40 28.34552
785.50 28.41458
785.60 28.4877
785.70 28.55614
785.80 28.61336
785.90 28.65586
786.00 28.70195
786.10 28.75967
786.20 28.75807
786.30 28.61374
786.40 28.37537
786.50 28.16187
786.60 28.03995
786.70 28.0097
786.80 28.02883
786.90 28.04424
787.00 27.97446
787.10 27.74696
787.20 27.34859
787.30 26.83817
787.40 26.32118
787.50 25.90823
787.60 25.71183
787.70 25.83448
787.80 26.28524
787.90 26.96746
788.00 27.73888
788.10 28.45314
788.20 29.00121
788.30 29.32797
788.40 29.46304
788.50 29.47729
788.60 29.40793
788.70 29.29143
788.80 29.17623
788.90 29.1099
789.00 29.12353
789.10 29.18457
789.20 29.23781
789.30 29.24975
789.40 29.21574
789.50 29.13994
789.60 29.01454
789.70 28.83224
789.80 28.57691
789.90 28.24762
790.00 27.89819
790.10 27.5997
790.20 27.40093
790.30 27.32406
790.40 27.36814
790.50 27.52588
790.60 27.75719
790.70 27.99397
790.80 28.2067
790.90 28.42988
791.00 28.69878
791.10 29.02113
791.20 29.34042
791.30 29.59472
791.40 29.76205
791.50 29.81827
791.60 29.7725
791.70 29.64029
791.80 29.43225
791.90 29.18347
792.00 28.95643
792.10 28.80522
792.20 28.71041
792.30 28.59472
792.40 28.40642
792.50 28.14831
792.60 27.90309
792.70 27.77467
792.80 27.83885
792.90 28.13877
793.00 28.6575
793.10 29.34503
793.20 30.12573
793.30 30.88027
793.40 31.47383
793.50 31.8015
793.60 31.81495
793.70 31.54502
793.80 31.07656
793.90 30.49576
794.00 29.86642
794.10 29.22494
794.20 28.55894
794.30 27.82124
794.40 26.96731
794.50 26.00873
794.60 25.02328
794.70 24.13834
794.80 23.50716
794.90 23.27401
795.00 23.53439
795.10 24.27922
795.20 25.39624
795.30 26.71475
795.40 28.05423
795.50 29.23066
795.60 30.10656
795.70 30.63558
795.80 30.86813
795.90 30.94361
796.00 30.98215
796.10 31.03327
796.20 31.13674
796.30 31.32909
796.40 31.60073
796.50 31.89363
796.60 32.13704
796.70 32.28035
796.80 32.30229
796.90 32.2199
797.00 32.06669
797.10 31.88803
797.20 31.71271
797.30 31.52258
797.40 31.34506
797.50 31.26099
797.60 31.3086
797.70 31.44907
797.80 31.63001
797.90 31.81948
798.00 31.98669
798.10 32.09179
798.20 32.08562
798.30 31.94219
798.40 31.67847
798.50 31.34314
798.60 31.00991
798.70 30.77245
798.80 30.67949
798.90 30.70781
799.00 30.84672
799.10 31.11707
799.20 31.49425
799.30 31.91861
799.40 32.31757
799.50 32.62731
799.60 32.83162
799.70 32.9439
799.80 33.00576
799.90 33.0623
800.00 33.14052
800.10 33.2437
800.20 33.36998
800.30 33.5278
800.40 33.67421
800.50 33.7508
800.60 33.74266
800.70 33.65999
800.80 33.55985
800.90 33.53505
801.00 33.65785
801.10 33.95665
801.20 34.38269
801.30 34.83411
801.40 35.22018
801.50 35.46669
801.60 35.5283
801.70 35.41246
801.80 35.1802
801.90 34.90318
802.00 34.66149
802.10 34.5522
802.20 34.63225
802.30 34.92207
802.40 35.41761
802.50 36.06594
802.60 36.80546
802.70 37.57197
802.80 38.27814
802.90 38.84826
803.00 39.24346
803.10 39.4485
803.20 39.45863
803.30 39.28899
803.40 38.97837
803.50 38.58585
803.60 38.19171
803.70 37.85451
803.80 37.59842
803.90 37.44268
804.00 37.40668
804.10 37.51807
804.20 37.77571
804.30 38.12308
804.40 38.47005
804.50 38.74879
804.60 38.93172
804.70 39.04281
804.80 39.17852
804.90 39.4394
805.00 39.87605
805.10 40.49044
805.20 41.24123
805.30 42.06212
805.40 42.85639
805.50 43.51488
805.60 43.97765
805.70 44.21974
805.80 44.25292
805.90 44.14068
806.00 43.96768
806.10 43.79212
806.20 43.60678
806.30 43.39314
806.40 43.17164
806.50 42.97741
806.60 42.84702
806.70 42.81249
806.80 42.90269
806.90 43.13797
807.00 43.49815
807.10 43.95771
807.20 44.51304
807.30 45.13272
807.40 45.75459
807.50 46.32379
807.60 46.79665
807.70 47.1471
807.80 47.3735
807.90 47.5173
808.00 47.64584
808.10 47.81101
808.20 48.0296
808.30 48.28133
808.40 48.53597
808.50 48.74481
808.60 48.83455
808.70 48.75939
808.80 48.52832
808.90 48.1998
809.00 47.86658
809.10 47.61082
809.20 47.48544
809.30 47.49887
809.40 47.60351
809.50 47.72831
809.60 47.81279
809.70 47.81839
809.80 47.74523
809.90 47.64499
810.00 47.59274
810.10 47.63692
810.20 47.79531
810.30 48.05771
810.40 48.38608
810.50 48.72943
810.60 49.03009
810.70 49.24011
810.80 49.35062
810.90 49.40146
811.00 49.45295
811.10 49.55051
811.20 49.70553
811.30 49.9143
811.40 50.17721
811.50 50.50677
811.60 50.92984
811.70 51.44972
811.80 52.00804
811.90 52.5099
812.00 52.87141
812.10 53.03709
812.20 53.01607
812.30 52.86948
812.40 52.68529
812.50 52.57717
812.60 52.6448
812.70 52.93109
812.80 53.40306
812.90 53.97264
813.00 54.51598
813.10 54.91682
813.20 55.14045
813.30 55.25949
813.40 55.39558
813.50 55.65652
813.60 56.0755
813.70 56.58887
813.80 57.0704
813.90 57.36476
814.00 57.33559
814.10 56.92684
814.20 56.18228
814.30 55.23548
814.40 54.24169
814.50 53.35165
814.60 52.71727
814.70 52.42882
814.80 52.48378
814.90 52.79615
815.00 53.24995
815.10 53.75136
815.20 54.24703
815.30 54.71388
815.40 55.15474
815.50 55.57253
815.60 55.95762
815.70 56.27813
815.80 56.51713
815.90 56.70129
816.00 56.87772
816.10 57.09651
816.20 57.39303
816.30 57.75465
816.40 58.12615
816.50 58.46822
816.60 58.77202
816.70 59.03819
816.80 59.26363
816.90 59.46887
817.00 59.68761
817.10 59.96118
817.20 60.32845
817.30 60.77692
817.40 61.20591
817.50 61.44571
817.60 61.32913
817.70 60.77377
817.80 59.75895
817.90 58.27936
818.00 56.36784
818.10 54.15205
818.20 51.86487
818.30 49.80606
818.40 48.2786
818.50 47.48718
818.60 47.48861
818.70 48.17413
818.80 49.29544
818.90 50.49974
819.00 51.39364
819.10 51.65333
819.20 51.13584
819.30 49.91888
819.40 48.26616
819.50 46.57297
819.60 45.25595
819.70 44.61618
819.80 44.78153
819.90 45.74167
820.00 47.36561
820.10 49.40933
820.20 51.56667
820.30 53.55646
820.40 55.20606
820.50 56.46534
820.60 57.36466
820.70 57.9708
820.80 58.37622
820.90 58.66356
821.00 58.8641
821.10 58.97396
821.20 59.00244
821.30 58.96824
821.40 58.87622
821.50 58.73169
821.60 58.57271
821.70 58.48092
821.80 58.52341
821.90 58.72457
822.00 59.06124
822.10 59.47538
822.20 59.89847
822.30 60.26948
822.40 60.58892
822.50 60.9017
822.60 61.23719
822.70 61.57533
822.80 61.89226
822.90 62.20085
823.00 62.49595
823.10 62.74346
823.20 62.90254
823.30 62.95537
823.40 62.94233
823.50 62.93675
823.60 62.99157
823.70 63.13456
823.80 63.36094
823.90 63.62878
824.00 63.89197
824.10 64.14493
824.20 64.40132
824.30 64.69051
824.40 65.07471
824.50 65.61048
824.60 66.31512
824.70 67.09808
824.80 67.77738
824.90 68.18631
825.00 68.24592
825.10 67.95276
825.20 67.34754
825.30 66.53082
825.40 65.66706
825.50 64.93152
825.60 64.47717
825.70 64.3853
825.80 64.61316
825.90 65.02871
826.00 65.48939
826.10 65.90883
826.20 66.2558
826.30 66.51637
826.40 66.67858
826.50 66.75065
826.60 66.79112
826.70 66.87152
826.80 67.0072
826.90 67.16185
827.00 67.26266
827.10 67.26102
827.20 67.1822
827.30 67.10015
827.40 67.08744
827.50 67.19367
827.60 67.43959
827.70 67.79775
827.80 68.19611
827.90 68.53207
828.00 68.69119
828.10 68.60954
828.20 68.27832
828.30 67.74843
828.40 67.1543
828.50 66.62574
828.60 66.20276
828.70 65.85108
828.80 65.51407
828.90 65.13324
829.00 64.68072
829.10 64.18077
829.20 63.6971
829.30 63.30751
829.40 63.09865
829.50 63.12318
829.60 63.38128
829.70 63.81258
829.80 64.27007
829.90 64.55883
830.00 64.56392
830.10 64.27283
830.20 63.72045
830.30 62.99711
830.40 62.2063
830.50 61.45342
830.60 60.84896
830.70 60.488
830.80 60.41579
830.90 60.61049
831.00 61.0248
831.10 61.58366
831.20 62.18606
831.30 62.76418
831.40 63.2734
831.50 63.67747
831.60 63.96509
831.70 64.16097
831.80 64.32551
831.90 64.50687
832.00 64.70952
832.10 64.92397
832.20 65.11714
832.30 65.23132
832.40 65.20199
832.50 65.00852
832.60 64.69454
832.70 64.33771
832.80 64.02914
832.90 63.85224
833.00 63.87424
833.10 64.09771
833.20 64.44891
833.30 64.84428
833.40 65.22581
833.50 65.5573
833.60 65.83722
833.70 66.10044
833.80 66.39439
833.90 66.71916
834.00 67.02656
834.10 67.26355
834.20 67.48838
834.30 67.80647
834.40 68.22633
834.50 68.70434
834.60 69.17061
834.70 69.5488
834.80 69.76296
834.90 69.74269
835.00 69.45399
835.10 68.93141
835.20 68.28103
835.30 67.65376
835.40 67.19292
835.50 66.9994
835.60 67.02588
835.70 67.11643
835.80 67.17577
835.90 67.1849
836.00 67.18289
836.10 67.23257
836.20 67.39
836.30 67.70507
836.40 68.20944
836.50 68.87409
836.60 69.60422
836.70 70.28245
836.80 70.81366
836.90 71.11379
837.00 71.09772
837.10 70.74659
837.20 70.10723
837.30 69.25717
837.40 68.31976
837.50 67.45268
837.60 66.81338
837.70 66.54372
837.80 66.70664
837.90 67.24233
838.00 68.00836
838.10 68.81528
838.20 69.46769
838.30 69.79993
838.40 69.6992
838.50 69.1383
838.60 68.20442
838.70 67.06202
838.80 65.89307
838.90 64.87045
839.00 64.14307
839.10 63.77763
839.20 63.77815
839.30 64.1519
839.40 64.85536
839.50 65.80778
839.60 66.99172
839.70 68.3958
839.80 69.94207
839.90 71.513
840.00 72.93002
840.10 73.992
840.20 74.59012
840.30 74.71804
840.40 74.46216
840.50 73.96945
840.60 73.38948
840.70 72.83728
840.80 72.38728
840.90 72.09918
841.00 71.93927
841.10 71.81888
841.20 71.72026
841.30 71.66306
841.40 71.69646
841.50 71.88271
841.60 72.20227
841.70 72.5579
841.80 72.82069
841.90 72.8763
842.00 72.66565
842.10 72.21979
842.20 71.64722
842.30 71.06188
842.40 70.56049
842.50 70.20087
842.60 69.99461
842.70 70.01679
842.80 70.33543
842.90 70.8914
843.00 71.55108
843.10 72.10438
843.20 72.29853
843.30 71.94204
843.40 70.97711
843.50 69.46366
843.60 67.56761
843.70 65.5212
843.80 63.57147
843.90 61.96567
844.00 60.8649
844.10 60.19053
844.20 59.72737
844.30 59.31744
844.40 58.86636
844.50 58.36835
844.60 57.88483
844.70 57.47801
844.80 57.10298
844.90 56.65598
845.00 56.13768
845.10 55.63422
845.20 55.22476
845.30 54.94082
845.40 54.76676
845.50 54.67618
845.60 54.67355
845.70 54.75103
845.80 54.86418
845.90 54.95638
846.00 55.01228
846.10 55.06581
846.20 55.17702
846.30 55.38178
846.40 55.67621
846.50 56.02969
846.60 56.3675
846.70 56.6145
846.80 56.72998
846.90 56.71499
847.00 56.57526
847.10 56.33614
847.20 56.05446
847.30 55.7908
847.40 55.56227
847.50 55.34318
847.60 55.1778
847.70 55.14882
847.80 55.21996
847.90 55.25911
848.00 55.16149
848.10 54.88634
848.20 54.50078
848.30 54.12163
848.40 53.82385
848.50 53.64405
848.60 53.60491
848.70 53.73718
848.80 54.06081
848.90 54.58183
849.00 55.2643
849.10 56.03796
849.20 56.85222
849.30 57.65678
849.40 58.37305
849.50 58.89433
849.60 59.09114
849.70 58.90551
849.80 58.41211
849.90 57.78086
850.00 57.19968
850.10 56.81379
850.20 56.73524
850.30 56.99646
850.40 57.55733
850.50 58.32898
850.60 59.1465
850.70 59.83183
850.80 60.26756
850.90 60.41764
851.00 60.30267
851.10 59.9512
851.20 59.38717
851.30 58.64984
851.40 57.80377
851.50 56.90042
851.60 55.92853
851.70 54.8223
851.80 53.49931
851.90 51.92327
852.00 50.18879
852.10 48.547
852.20 47.31088
852.30 46.7406
852.40 46.98103
852.50 48.03656
852.60 49.77729
852.70 51.94357
852.80 54.19227
852.90 56.20032
853.00 57.73979
853.10 58.75305
853.20 59.31144
853.30 59.50934
853.40 59.44621
853.50 59.20652
853.60 58.88756
853.70 58.62074
853.80 58.50659
853.90 58.57608
854.00 58.8198
854.10 59.20129
854.20 59.65086
854.30 60.06332
854.40 60.36388
854.50 60.53326
854.60 60.64391
854.70 60.86807
854.80 61.34881
854.90 62.12095
855.00 63.10529
855.10 64.13442
855.20 65.04739
855.30 65.7457
855.40 66.16631
855.50 66.28133
855.60 66.12039
855.70 65.77699
855.80 65.36459
855.90 64.97011
856.00 64.59954
856.10 64.21659
856.20 63.82726
856.30 63.4826
856.40 63.24461
856.50 63.16156
856.60 63.24166
856.70 63.4538
856.80 63.7415
856.90 64.01444
857.00 64.19039
857.10 64.22222
857.20 64.08648
857.30 63.7919
857.40 63.40507
857.50 63.02763
857.60 62.74787
857.70 62.6174
857.80 62.64983
857.90 62.83877
858.00 63.16385
858.10 63.5819
858.20 64.0379
858.30 64.49422
858.40 64.94721
858.50 65.38866
858.60 65.78038
858.70 66.06051
858.80 66.17783
858.90 66.0946
859.00 65.79289
859.10 65.33526
859.20 64.85718
859.30 64.48964
859.40 64.34249
859.50 64.47612
859.60 64.84456
859.70 65.35216
859.80 65.87482
859.90 66.27523
860.00 66.46485
860.10 66.4279
860.20 66.20403
860.30 65.8907
860.40 65.60397
860.50 65.38138
860.60 65.16296
860.70 64.84999
860.80 64.315
860.90 63.45441
861.00 62.28934
861.10 60.87153
861.20 59.21462
861.30 57.36973
861.40 55.44586
861.50 53.59463
861.60 51.9678
861.70 50.65717
861.80 49.68913
861.90 49.05068
862.00 48.69194
862.10 48.51684
862.20 48.41479
862.30 48.29133
862.40 48.06134
862.50 47.67527
862.60 47.17341
862.70 46.66556
862.80 46.27249
862.90 46.05959
863.00 46.0266
863.10 46.14781
863.20 46.38197
863.30 46.66228
863.40 46.90236
863.50 47.05041
863.60 47.11119
863.70 47.12335
863.80 47.1361
863.90 47.21697
864.00 47.43602
864.10 47.81361
864.20 48.31628
864.30 48.89269
864.40 49.49563
864.50 50.11529
864.60 50.76567
864.70 51.4407
864.80 52.13681
864.90 52.87016
865.00 53.66489
865.10 54.49818
865.20 55.28671
865.30 55.96402
865.40 56.49686
865.50 56.88643
865.60 57.18746
865.70 57.49356
865.80 57.86858
865.90 58.26184
866.00 58.56754
866.10 58.7217
866.20 58.72459
866.30 58.6033
866.40 58.35322
866.50 57.99881
866.60 57.62058
866.70 57.27626
866.80 56.98383
866.90 56.75302
867.00 56.57997
867.10 56.40838
867.20 56.16285
867.30 55.8757
867.40 55.67751
867.50 55.66865
867.60 55.8602
867.70 56.19695
867.80 56.59685
867.90 56.95535
868.00 57.19598
868.10 57.27656
868.20 57.17464
868.30 56.91433
868.40 56.55762
868.50 56.18549
868.60 55.88649
868.70 55.66517
868.80 55.39458
868.90 54.92522
869.00 54.14576
869.10 52.97708
869.20 51.41539
869.30 49.53896
869.40 47.46153
869.50 45.38944
869.60 43.59866
869.70 42.27334
869.80 41.4745
869.90 41.21184
870.00 41.45057
870.10 42.08816
870.20 42.98164
870.30 43.95428
870.40 44.82561
870.50 45.48541
870.60 45.88125
870.70 45.99143
870.80 45.81505
870.90 45.36042
871.00 44.67009
871.10 43.86284
871.20 43.08844
871.30 42.45247
871.40 42.00904
871.50 41.76323
871.60 41.68703
871.70 41.75248
871.80 41.93119
871.90 42.17122
872.00 42.42653
872.10 42.69529
872.20 43.04994
872.30 43.57296
872.40 44.28749
872.50 45.16123
872.60 46.11935
872.70 47.04246
872.80 47.78883
872.90 48.27762
873.00 48.49773
873.10 48.46039
873.20 48.18844
873.30 47.73376
873.40 47.17636
873.50 46.62843
873.60 46.21168
873.70 46.00822
873.80 46.05908
873.90 46.38641
874.00 46.9842
874.10 47.85139
874.20 48.96945
874.30 50.20324
874.40 51.33057
874.50 52.14088
874.60 52.51571
874.70 52.44851
874.80 52.04413
874.90 51.46755
875.00 50.86945
875.10 50.39045
875.20 50.15192
875.30 50.21327
875.40 50.59048
875.50 51.23351
875.60 52.02926
875.70 52.90527
875.80 53.83184
875.90 54.82735
876.00 55.89049
876.10 56.91817
876.20 57.75426
876.30 58.25297
876.40 58.30555
876.50 57.93418
876.60 57.33419
876.70 56.7713
876.80 56.50607
876.90 56.72082
877.00 57.52177
877.10 58.88933
877.20 60.67914
877.30 62.62782
877.40 64.3783
877.50 65.68439
877.60 66.42816
877.70 66.5995
877.80 66.35086
877.90 65.85324
878.00 65.17862
878.10 64.37805
878.20 63.5322
878.30 62.73882
878.40 62.03796
878.50 61.41019
878.60 60.83483
878.70 60.33015
878.80 60.03698
878.90 60.07323
879.00 60.4488
879.10 61.11218
879.20 61.94768
879.30 62.83649
879.40 63.67804
879.50 64.38001
879.60 64.80369
879.70 64.79108
879.80 64.24533
879.90 63.181
880.00 61.73449
880.10 60.11365
880.20 58.49466
880.30 57.01159
880.40 55.80533
880.50 54.99458
880.60 54.67665
880.70 54.93085
880.80 55.78172
880.90 57.17447
881.00 59.02178
881.10 61.25402
881.20 63.8012
881.30 66.55687
881.40 69.35241
881.50 71.95856
881.60 74.14363
881.70 75.71893
881.80 76.54091
881.90 76.54759
882.00 75.73766
882.10 74.1391
882.20 71.93508
882.30 69.49477
882.40 67.23223
882.50 65.52992
882.60 64.76839
882.70 65.19121
882.80 66.70542
882.90 68.94671
883.00 71.39832
883.10 73.5137
883.20 74.93756
883.30 75.58286
883.40 75.58301
883.50 75.26269
883.60 74.99381
883.70 75.06495
883.80 75.6307
883.90 76.61662
884.00 77.64795
884.10 78.2264
884.20 77.97674
884.30 76.69381
884.40 74.41737
884.50 71.4771
884.60 68.33807
884.70 65.49117
884.80 63.41989
884.90 62.47534
885.00 62.78327
885.10 64.21839
885.20 66.43404
885.30 68.93038
885.40 71.15631
885.50 72.66216
885.60 73.20421
885.70 72.77308
885.80 71.53948
885.90 69.80947
886.00 67.99294
886.10 66.47425
886.20 65.4734
886.30 65.03417
886.40 65.06531
886.50 65.39963
886.60 65.8524
886.70 66.19553
886.80 66.18264
886.90 65.62276
887.00 64.45542
887.10 62.80767
887.20 60.96037
887.30 59.27941
887.40 58.12362
887.50 57.76559
887.60 58.35912
887.70 59.86588
887.80 62.05087
887.90 64.54171
888.00 66.90559
888.10 68.80111
888.20 69.99871
888.30 70.52621
888.40 70.79451
888.50 71.30404
888.60 72.38127
888.70 74.07563
888.80 76.11832
888.90 78.02657
889.00 79.3038
889.10 79.57696
889.20 78.61498
889.30 76.38624
889.40 73.14791
889.50 69.44405
889.60 66.03186
889.70 63.54209
889.80 62.19469
889.90 62.01486
890.00 62.98379
890.10 64.97443
890.20 67.72735
890.30 70.87806
890.40 73.93856
890.50 76.3967
890.60 77.8998
890.70 78.27836
890.80 77.55146
890.90 75.95134
891.00 73.90556
891.10 71.93696
891.20 70.5312
891.30 69.9517
891.40 70.20162
891.50 71.13842
891.60 72.54993
891.70 74.19713
891.80 75.90738
891.90 77.56556
892.00 79.02336
892.10 80.08312
892.20 80.55757
892.30 80.34081
892.40 79.40953
892.50 77.86633
892.60 75.97614
892.70 74.1005
892.80 72.63912
892.90 71.95176
893.00 72.23499
893.10 73.45926
893.20 75.33359
893.30 77.36966
893.40 79.05531
893.50 80.03059
893.60 80.09059
893.70 79.14425
893.80 77.28354
893.90 74.73335
894.00 71.77319
894.10 68.7779
894.20 66.15115
894.30 64.2195
894.40 63.20518
894.50 63.15689
894.60 63.92657
894.70 65.23607
894.80 66.72184
894.90 67.98352
895.00 68.73295
895.10 68.96426
895.20 68.89978
895.30 68.87668
895.40 69.2687
895.50 70.34175
895.60 72.18975
895.70 74.72786
895.80 77.65797
895.90 80.50759
896.00 82.75988
896.10 83.99933
896.20 84.03775
896.30 82.94615
896.40 80.97901
896.50 78.46441
896.60 75.82448
896.70 73.52847
896.80 71.94697
896.90 71.31766
897.00 71.66477
897.10 72.7811
897.20 74.37207
897.30 76.17877
897.40 78.02442
897.50 79.7507
897.60 81.18927
897.70 82.24846
897.80 82.95081
897.90 83.39745
898.00 83.68064
898.10 83.89905
898.20 84.25307
898.30 84.96194
898.40 86.12759
898.50 87.69037
898.60 89.43282
898.70 91.02295
898.80 92.11819
898.90 92.52716
899.00 92.23879
899.10 91.32986
899.20 89.92944
899.30 88.17248
899.40 86.23015
899.50 84.3294
899.60 82.63127
899.70 81.21513
899.80 80.24131
899.90 79.99379
900.00 80.1427
900.10 80.29162
900.20 80.44053
900.30 80.58944
900.40 80.73836
900.50 80.88727
900.60 81.03618
900.70 81.1851
900.80 81.33401
900.90 81.48292
901.00 81.63184
901.10 81.78075
901.20 81.92966
901.30 82.07858
901.40 82.22749
901.50 82.3764
901.60 82.52532
901.70 82.67423
901.80 82.82314
901.90 82.97206
902.00 83.12097
902.10 83.26988
902.20 83.4188
902.30 83.56771
902.40 83.71662
902.50 83.86554
902.60 84.01445
902.70 84.16336
902.80 84.31228
902.90 84.46119
903.00 84.6101
903.10 84.75902
903.20 84.78881
903.30 84.8174
903.40 84.846
903.50 84.87459
903.60 84.90318
903.70 84.93177
903.80 84.96036
903.90 84.98896
904.00 85.01755
904.10 85.04614
904.20 85.07473
904.30 85.10332
904.40 85.13192
904.50 85.16051
904.60 85.1891
904.70 85.21769
904.80 85.24628
904.90 85.27487
905.00 85.30347
905.10 85.33206
905.20 85.36065
905.30 85.38924
905.40 85.41783
905.50 85.44643
905.60 85.47502
905.70 85.50361
905.80 85.5322
905.90 85.56079
906.00 85.58939
906.10 85.61798
906.20 85.64657
906.30 85.67516
906.40 85.70375
906.50 85.73235
906.60 85.77257
906.70 85.81778
906.80 85.86298
906.90 85.90819
907.00 85.9534
907.10 85.9986
907.20 86.04381
907.30 86.08902
907.40 86.13423
907.50 86.17943
907.60 86.22464
907.70 86.26985
907.80 86.31505
907.90 86.36026
908.00 86.40547
908.10 86.45068
908.20 86.49588
908.30 86.54109
908.40 86.5863
908.50 86.6315
908.60 86.67671
908.70 86.72192
908.80 86.76713
908.90 86.81233
909.00 86.85754
909.10 86.90275
909.20 86.94795
909.30 86.99316
909.40 87.03837
909.50 87.08358
909.60 87.12878
909.70 87.17399
909.80 87.2192
909.90 87.2644
910.00 87.30557
910.10 87.33321
910.20 87.36086
910.30 87.3885
910.40 87.41614
910.50 87.44379
910.60 87.47143
910.70 87.49907
910.80 87.52672
910.90 87.55436
911.00 87.582
911.10 87.60965
911.20 87.63729
911.30 87.66493
911.40 87.69258
911.50 87.72022
911.60 87.74786
911.70 87.77551
911.80 87.80315
911.90 87.83079
912.00 87.85844
912.10 87.88608
912.20 87.91372
912.30 87.94137
912.40 87.96901
912.50 87.99665
912.60 88.0243
912.70 88.05194
912.80 88.07958
912.90 88.10723
913.00 88.13487
913.10 88.16251
913.20 88.19016
913.30 88.2178
913.40 88.24544
913.50 88.29236
913.60 88.35383
913.70 88.41529
913.80 88.47675
913.90 88.53822
914.00 88.59968
914.10 88.66114
914.20 88.72261
914.30 88.78407
914.40 88.84553
914.50 88.907
914.60 88.96846
914.70 89.02992
914.80 89.09139
914.90 89.15285
915.00 89.21431
915.10 89.27577
915.20 89.33724
915.30 89.3987
915.40 89.46016
915.50 89.52163
915.60 89.58309
915.70 89.64455
915.80 89.70602
915.90 89.76748
916.00 89.82894
916.10 89.89041
916.20 89.95187
916.30 90.01333
916.40 90.0748
916.50 90.13626
916.60 90.19772
916.70 90.25919
916.80 90.32065
916.90 90.38211
917.00 90.42204
917.10 90.45441
917.20 90.48678
917.30 90.51915
917.40 90.55152
917.50 90.58389
917.60 90.61625
917.70 90.64862
917.80 90.68099
917.90 90.71336
918.00 90.74573
918.10 90.77809
918.20 90.81046
918.30 90.84283
918.40 90.8752
918.50 90.90757
918.60 90.93993
918.70 90.9723
918.80 91.00467
918.90 91.03704
919.00 91.06941
919.10 91.10177
919.20 91.13414
919.30 91.16651
919.40 91.19888
919.50 91.23125
919.60 91.26361
919.70 91.29598
919.80 91.32835
919.90 91.36072
920.00 91.39309
920.10 91.42546
920.20 91.45782
920.30 91.49019
920.40 91.52256
920.50 91.5631
920.60 91.60651
920.70 91.64992
920.80 91.69333
920.90 91.73674
921.00 91.78015
921.10 91.82356
921.20 91.86697
921.30 91.91038
921.40 91.95379
921.50 91.9972
921.60 92.04061
921.70 92.08402
921.80 92.12743
921.90 92.17084
922.00 92.21425
922.10 92.25766
922.20 92.30108
922.30 92.34449
922.40 92.3879
922.50 92.43131
922.60 92.47472
922.70 92.51813
922.80 92.56154
922.90 92.60495
923.00 92.64836
923.10 92.69177
923.20 92.73518
923.30 92.77859
923.40 92.822
923.50 92.86541
923.60 92.90882
923.70 92.95223
923.80 92.99564
923.90 93.03905
924.00 93.03509
924.10 92.99391
924.20 92.95273
924.30 92.91155
924.40 92.87037
924.50 92.82919
924.60 92.78801
924.70 92.74683
924.80 92.70565
924.90 92.66447
925.00 92.62329
925.10 92.58211
925.20 92.54092
925.30 92.49974
925.40 92.45856
925.50 92.41738
925.60 92.3762
925.70 92.33502
925.80 92.29384
925.90 92.25266
926.00 92.21148
926.10 92.1703
926.20 92.12912
926.30 92.08794
926.40 92.04676
926.50 92.00558
926.60 91.9644
926.70 91.92322
926.80 91.88204
926.90 91.84086
927.00 91.79968
927.10 91.75849
927.20 91.71731
927.30 91.67613
927.40 91.63495
927.50 91.59324
927.60 91.54943
927.70 91.50561
927.80 91.46179
927.90 91.41797
928.00 91.37415
928.10 91.33034
928.20 91.28652
928.30 91.2427
928.40 91.19888
928.50 91.15506
928.60 91.11124
928.70 91.06743
928.80 91.02361
928.90 90.97979
929.00 90.93597
929.10 90.89215
929.20 90.84834
929.30 90.80452
929.40 90.7607
929.50 90.71688
929.60 90.67306
929.70 90.62924
929.80 90.58543
929.90 90.54161
930.00 90.49779
930.10 90.45397
930.20 90.41015
930.30 90.36634
930.40 90.32252
930.50 90.2787
930.60 90.23488
930.70 90.19106
930.80 90.14724
930.90 90.10343
931.00 90.05961
931.10 90.10147
931.20 90.18552
931.30 90.26958
931.40 90.35364
931.50 90.4377
931.60 90.52176
931.70 90.60581
931.80 90.68987
931.90 90.77393
932.00 90.85799
932.10 90.94204
932.20 91.0261
932.30 91.11016
932.40 91.19422
932.50 91.27828
932.60 91.36233
932.70 91.44639
932.80 91.53045
932.90 91.61451
933.00 91.69856
933.10 91.78262
933.20 91.86668
933.30 91.95074
933.40 92.03479
933.50 92.11885
933.60 92.20291
933.70 92.28697
933.80 92.37103
933.90 92.45508
934.00 92.53914
934.10 92.6232
934.20 92.70726
934.30 92.79131
934.40 92.87537
934.50 92.95943
934.60 93.04349
934.70 93.10537
934.80 93.16657
934.90 93.22776
935.00 93.28896
935.10 93.35016
935.20 93.41135
935.30 93.47255
935.40 93.53375
935.50 93.59494
935.60 93.65614
935.70 93.71734
935.80 93.77853
935.90 93.83973
936.00 93.90093
936.10 93.96213
936.20 94.02332
936.30 94.08452
936.40 94.14572
936.50 94.20691
936.60 94.26811
936.70 94.32931
936.80 94.3905
936.90 94.4517
937.00 94.5129
937.10 94.57409
937.20 94.63529
937.30 94.69649
937.40 94.75768
937.50 94.81888
937.60 94.88008
937.70 94.94127
937.80 95.00247
937.90 95.06367
938.00 95.12486
938.10 95.18606
938.20 95.24078
938.30 95.23721
938.40 95.23363
938.50 95.23006
938.60 95.22649
938.70 95.22292
938.80 95.21934
938.90 95.21577
939.00 95.2122
939.10 95.20862
939.20 95.20505
939.30 95.20148
939.40 95.19791
939.50 95.19433
939.60 95.19076
939.70 95.18719
939.80 95.18361
939.90 95.18004
940.00 95.17647
940.10 95.17289
940.20 95.16932
940.30 95.16575
940.40 95.16218
940.50 95.1586
940.60 95.15503
940.70 95.15146
940.80 95.14788
940.90 95.14431
941.00 95.14074
941.10 95.13717
941.20 95.13359
941.30 95.13002
941.40 95.12645
941.50 95.12287
941.60 95.1193
941.70 95.11573
941.80 95.11431
941.90 95.14159
942.00 95.16886
942.10 95.19613
942.20 95.2234
942.30 95.25067
942.40 95.27795
942.50 95.30522
942.60 95.33249
942.70 95.35976
942.80 95.38703
942.90 95.41431
943.00 95.44158
943.10 95.46885
943.20 95.49612
943.30 95.52339
943.40 95.55067
943.50 95.57794
943.60 95.60521
943.70 95.63248
943.80 95.65975
943.90 95.68702
944.00 95.7143
944.10 95.74157
944.20 95.76884
944.30 95.79611
944.40 95.82338
944.50 95.85066
944.60 95.87793
944.70 95.9052
944.80 95.93247
944.90 95.95974
945.00 95.98702
945.10 96.01429
945.20 96.04156
945.30 96.06883
945.40 96.0961
945.50 96.14407
945.60 96.19513
945.70 96.24619
945.80 96.29725
945.90 96.34831
946.00 96.39937
946.10 96.45043
946.20 96.50149
946.30 96.55255
946.40 96.6036
946.50 96.65466
946.60 96.70572
946.70 96.75678
946.80 96.80784
946.90 96.8589
947.00 96.90996
947.10 96.96102
947.20 97.01208
947.30 97.06314
947.40 97.1142
947.50 97.16526
947.60 97.21632
947.70 97.26738
947.80 97.31843
947.90 97.36949
948.00 97.42055
948.10 97.47161
948.20 97.52267
948.30 97.57373
948.40 97.62479
948.50 97.67585
948.60 97.72691
948.70 97.77797
948.80 97.82903
948.90 97.88009
949.00 97.93115
949.10 97.98779
949.20 98.05002
949.30 98.11225
949.40 98.17448
949.50 98.23671
949.60 98.29893
949.70 98.36116
949.80 98.42339
949.90 98.48562
950.00 98.54785
950.10 98.61008
950.20 98.67231
950.30 98.73454
950.40 98.79677
950.50 98.859
950.60 98.92123
950.70 98.98345
950.80 99.04568
950.90 99.10791
951.00 99.17014
951.10 99.23237
951.20 99.2946
951.30 99.35683
951.40 99.41906
951.50 99.48129
951.60 99.54352
951.70 99.60574
951.80 99.66797
951.90 99.7302
952.00 99.79243
952.10 99.85466
952.20 99.91689
952.30 99.97912
952.40 100.0413
952.50 100.1036
952.60 100.1658
952.70 100.228
952.80 100.237
952.90 100.2444
953.00 100.2517
953.10 100.2591
953.20 100.2664
953.30 100.2738
953.40 100.2811
953.50 100.2884
953.60 100.2958
953.70 100.3031
953.80 100.3105
953.90 100.3178
954.00 100.3252
954.10 100.3325
954.20 100.3399
954.30 100.3472
954.40 100.3546
954.50 100.3619
954.60 100.3693
954.70 100.3766
954.80 100.3839
954.90 100.3913
955.00 100.3986
955.10 100.406
955.20 100.4133
955.30 100.4207
955.40 100.428
955.50 100.4354
955.60 100.4427
955.70 100.4501
955.80 100.4574
955.90 100.4648
956.00 100.4721
956.10 100.4794
956.20 100.4868
956.30 100.4941
956.40 100.5021
956.50 100.5118
956.60 100.5214
956.70 100.531
956.80 100.5406
956.90 100.5503
957.00 100.5599
957.10 100.5695
957.20 100.5791
957.30 100.5888
957.40 100.5984
957.50 100.608
957.60 100.6176
957.70 100.6273
957.80 100.6369
957.90 100.6465
958.00 100.6561
958.10 100.6658
958.20 100.6754
958.30 100.685
958.40 100.6946
958.50 100.7043
958.60 100.7139
958.70 100.7235
958.80 100.7331
958.90 100.7428
959.00 100.7524
959.10 100.762
959.20 100.7716
959.30 100.7813
959.40 100.7909
959.50 100.8005
959.60 100.8101
959.70 100.8198
959.80 100.8294
959.90 100.839
960.00 100.8486
960.10 100.8429
960.20 100.8167
960.30 100.7905
960.40 100.7643
960.50 100.7381
960.60 100.7119
960.70 100.6858
960.80 100.6596
960.90 100.6334
961.00 100.6072
961.10 100.581
961.20 100.5548
961.30 100.5287
961.40 100.5025
961.50 100.4763
961.60 100.4501
961.70 100.4239
961.80 100.3977
961.90 100.3716
962.00 100.3454
962.10 100.3192
962.20 100.293
962.30 100.2668
962.40 100.2406
962.50 100.2144
962.60 100.1883
962.70 100.1621
962.80 100.1359
962.90 100.1097
963.00 100.0835
963.10 100.0573
963.20 100.0312
963.30 100.005
963.40 99.97879
963.50 99.95261
963.60 99.92642
963.70 99.90024
963.80 99.90835
963.90 99.96382
964.00 100.0193
964.10 100.0748
964.20 100.1302
964.30 100.1857
964.40 100.2412
964.50 100.2967
964.60 100.3521
964.70 100.4076
964.80 100.4631
964.90 100.5186
965.00 100.574
965.10 100.6295
965.20 100.685
965.30 100.7405
965.40 100.7959
965.50 100.8514
965.60 100.9069
965.70 100.9623
965.80 101.0178
965.90 101.0733
966.00 101.1288
966.10 101.1842
966.20 101.2397
966.30 101.2952
966.40 101.3507
966.50 101.4061
966.60 101.4616
966.70 101.5171
966.80 101.5726
966.90 101.628
967.00 101.6835
967.10 101.739
967.20 101.7945
967.30 101.8499
967.40 101.9054
967.50 101.9502
967.60 101.9647
967.70 101.9791
967.80 101.9936
967.90 102.0081
968.00 102.0225
968.10 102.037
968.20 102.0514
968.30 102.0659
968.40 102.0804
968.50 102.0948
968.60 102.1093
968.70 102.1237
968.80 102.1382
968.90 102.1527
969.00 102.1671
969.10 102.1816
969.20 102.196
969.30 102.2105
969.40 102.225
969.50 102.2394
969.60 102.2539
969.70 102.2684
969.80 102.2828
969.90 102.2973
970.00 102.3117
970.10 102.3262
970.20 102.3407
970.30 102.3551
970.40 102.3696
970.50 102.384
970.60 102.3985
970.70 102.413
970.80 102.4274
970.90 102.4419
971.00 102.4564
971.10 102.4708
971.20 102.4853
971.30 102.5317
971.40 102.5802
971.50 102.6287
971.60 102.6772
971.70 102.7257
971.80 102.7742
971.90 102.8227
972.00 102.8712
972.10 102.9197
972.20 102.9682
972.30 103.0167
972.40 103.0651
972.50 103.1136
972.60 103.1621
972.70 103.2106
972.80 103.2591
972.90 103.3076
973.00 103.3561
973.10 103.4046
973.20 103.4531
973.30 103.5016
973.40 103.5501
973.50 103.5986
973.60 103.6471
973.70 103.6956
973.80 103.744
973.90 103.7925
974.00 103.841
974.10 103.8895
974.20 103.938
974.30 103.9865
974.40 104.035
974.50 104.0835
974.60 104.132
974.70 104.1805
974.80 104.229
974.90 104.2775
975.00 104.343
975.10 104.4277
975.20 104.5124
975.30 104.597
975.40 104.6817
975.50 104.7664
975.60 104.8511
975.70 104.9358
975.80 105.0205
975.90 105.1052
976.00 105.1899
976.10 105.2746
976.20 105.3593
976.30 105.444
976.40 105.5287
976.50 105.6133
976.60 105.698
976.70 105.7827
976.80 105.8674
976.90 105.9521
977.00 106.0368
977.10 106.1215
977.20 106.2062
977.30 106.2909
977.40 106.3756
977.50 106.4603
977.60 106.545
977.70 106.6296
977.80 106.7143
977.90 106.799
978.00 106.8837
978.10 106.9684
978.20 107.0531
978.30 107.1378
978.40 107.2225
978.50 107.3072
978.60 107.3919
978.70 107.4766
978.80 107.4754
978.90 107.459
979.00 107.4426
979.10 107.4263
979.20 107.4099
979.30 107.3936
979.40 107.3772
979.50 107.3608
979.60 107.3445
979.70 107.3281
979.80 107.3118
979.90 107.2954
980.00 107.279
980.10 107.2627
980.20 107.2463
980.30 107.23
980.40 107.2136
980.50 107.1972
980.60 107.1809
980.70 107.1645
980.80 107.1481
980.90 107.1318
981.00 107.1154
981.10 107.0991
981.20 107.0827
981.30 107.0663
981.40 107.05
981.50 107.0336
981.60 107.0173
981.70 107.0009
981.80 106.9845
981.90 106.9682
982.00 106.9518
982.10 106.9355
982.20 106.9191
982.30 106.9027
982.40 106.8864
982.50 106.8629
982.60 106.7574
982.70 106.652
982.80 106.5465
982.90 106.4411
983.00 106.3356
983.10 106.2302
983.20 106.1247
983.30 106.0193
983.40 105.9138
983.50 105.8083
983.60 105.7029
983.70 105.5974
983.80 105.492
983.90 105.3865
984.00 105.2811
984.10 105.1756
984.20 105.0702
984.30 104.9647
984.40 104.8593
984.50 104.7538
984.60 104.6483
984.70 104.5429
984.80 104.4374
984.90 104.332
985.00 104.2265
985.10 104.1211
985.20 104.0156
985.30 103.9102
985.40 103.8047
985.50 103.6993
985.60 103.5938
985.70 103.4884
985.80 103.3829
985.90 103.2774
986.00 103.172
986.10 103.0665
986.20 102.9611
986.30 102.8518
986.40 102.7222
986.50 102.5927
986.60 102.4632
986.70 102.3336
986.80 102.2041
986.90 102.0745
987.00 101.945
987.10 101.8155
987.20 101.6859
987.30 101.5564
987.40 101.4268
987.50 101.2973
987.60 101.1678
987.70 101.0382
987.80 100.9087
987.90 100.7791
988.00 100.6496
988.10 100.5201
988.20 100.3905
988.30 100.261
988.40 100.1314
988.50 100.0019
988.60 99.87237
988.70 99.74283
988.80 99.61329
988.90 99.48375
989.00 99.35421
989.10 99.22467
989.20 99.09513
989.30 98.96559
989.40 98.83605
989.50 98.70651
989.60 98.57697
989.70 98.44743
989.80 98.31789
989.90 98.18836
990.00 98.05882
990.10 97.93117
990.20 97.82055
990.30 97.70993
990.40 97.5993
990.50 97.48868
990.60 97.37806
990.70 97.26744
990.80 97.15682
990.90 97.0462
991.00 96.93558
991.10 96.82496
991.20 96.71434
991.30 96.60371
991.40 96.49309
991.50 96.38247
991.60 96.27185
991.70 96.16123
991.80 96.05061
991.90 95.93999
992.00 95.82937
992.10 95.71874
992.20 95.60812
992.30 95.4975
992.40 95.38688
992.50 95.27626
992.60 95.16564
992.70 95.05502
992.80 94.9444
992.90 94.83377
993.00 94.72315
993.10 94.61253
993.20 94.50191
993.30 94.39129
993.40 94.28067
993.50 94.17005
993.60 94.05943
993.70 93.94881
993.80 93.83818
993.90 93.72756
994.00 93.64981
994.10 93.57571
994.20 93.50161
994.30 93.42751
994.40 93.35341
994.50 93.27931
994.60 93.20521
994.70 93.13111
994.80 93.05701
994.90 92.98291
995.00 92.90881
995.10 92.83471
995.20 92.76061
995.30 92.68651
995.40 92.61241
995.50 92.53831
995.60 92.46421
995.70 92.39011
995.80 92.31601
995.90 92.24191
996.00 92.16781
996.10 92.09371
996.20 92.01961
996.30 91.94551
996.40 91.87141
996.50 91.79731
996.60 91.72321
996.70 91.64911
996.80 91.57501
996.90 91.50091
997.00 91.42681
997.10 91.35271
997.20 91.27861
997.30 91.20451
997.40 91.13041
997.50 91.05631
997.60 90.98221
997.70 90.90811
997.80 90.90213
997.90 90.95189
998.00 91.00164
998.10 91.05139
998.20 91.10114
998.30 91.1509
998.40 91.20065
998.50 91.2504
998.60 91.30015
998.70 91.34991
998.80 91.39966
998.90 91.44941
999.00 91.49916
999.10 91.54891
999.20 91.59867
999.30 91.64842
999.40 91.69817
999.50 91.74792
999.60 91.79768
999.70 91.84743
999.80 91.89718
999.90 91.94693
1000.00 91.99669
1000.10 92.04644
1000.20 92.09619
1000.30 92.14594
1000.40 92.1957
1000.50 92.24545
1000.60 92.2952
1000.70 92.34495
1000.80 92.39471
1000.90 92.44446
1001.00 92.49421
1001.10 92.54396
1001.20 92.59372
1001.30 92.64347
1001.40 92.69322
1001.50 92.74297
1001.60 92.79278
1001.70 92.84306
1001.80 92.89334
1001.90 92.94362
1002.00 92.9939
1002.10 93.04418
1002.20 93.09446
1002.30 93.14474
1002.40 93.19502
1002.50 93.2453
1002.60 93.29558
1002.70 93.34586
1002.80 93.39614
1002.90 93.44642
1003.00 93.4967
1003.10 93.54698
1003.20 93.59726
1003.30 93.64754
1003.40 93.69782
1003.50 93.7481
1003.60 93.79838
1003.70 93.84866
1003.80 93.89894
1003.90 93.94922
1004.00 93.9995
1004.10 94.04978
1004.20 94.10006
1004.30 94.15034
1004.40 94.20062
1004.50 94.2509
1004.60 94.30118
1004.70 94.35146
1004.80 94.40174
1004.90 94.45202
1005.00 94.5023
1005.10 94.55258
1005.20 94.60286
1005.30 94.65314
1005.40 94.70342
1005.50 94.77131
1005.60 94.86563
1005.70 94.95995
1005.80 95.05427
1005.90 95.14859
1006.00 95.24291
1006.10 95.33723
1006.20 95.43155
1006.30 95.52587
1006.40 95.62019
1006.50 95.71451
1006.60 95.80883
1006.70 95.90315
1006.80 95.99747
1006.90 96.09179
1007.00 96.18611
1007.10 96.28043
1007.20 96.37474
1007.30 96.46906
1007.40 96.56338
1007.50 96.6577
1007.60 96.75202
1007.70 96.84634
1007.80 96.94066
1007.90 97.03498
1008.00 97.1293
1008.10 97.22362
1008.20 97.31794
1008.30 97.41226
1008.40 97.50658
1008.50 97.6009
1008.60 97.69522
1008.70 97.78954
1008.80 97.88386
1008.90 97.97817
1009.00 98.07249
1009.10 98.16681
1009.20 98.26113
1009.30 98.35545
1009.40 98.41192
1009.50 98.45216
1009.60 98.4924
1009.70 98.53265
1009.80 98.57289
1009.90 98.61313
1010.00 98.65337
1010.10 98.69362
1010.20 98.73386
1010.30 98.7741
1010.40 98.81434
1010.50 98.85459
1010.60 98.89483
1010.70 98.93507
1010.80 98.97531
1010.90 99.01556
1011.00 99.0558
1011.10 99.09604
1011.20 99.13628
1011.30 99.17653
1011.40 99.21677
1011.50 99.25701
1011.60 99.29725
1011.70 99.3375
1011.80 99.37774
1011.90 99.41798
1012.00 99.45822
1012.10 99.49846
1012.20 99.53871
1012.30 99.57895
1012.40 99.61919
1012.50 99.65943
1012.60 99.69968
1012.70 99.73992
1012.80 99.78016
1012.90 99.8204
1013.00 99.86065
1013.10 99.90089
1013.20 99.94113
1013.30 99.94736
1013.40 99.94509
1013.50 99.94281
1013.60 99.94053
1013.70 99.93826
1013.80 99.93598
1013.90 99.93371
1014.00 99.93143
1014.10 99.92916
1014.20 99.92688
1014.30 99.92461
1014.40 99.92233
1014.50 99.92006
1014.60 99.91778
1014.70 99.91551
1014.80 99.91323
1014.90 99.91096
1015.00 99.90868
1015.10 99.90641
1015.20 99.90413
1015.30 99.90186
1015.40 99.89958
1015.50 99.89731
1015.60 99.89503
1015.70 99.89276
1015.80 99.89048
1015.90 99.88821
1016.00 99.88593
1016.10 99.88366
1016.20 99.88138
1016.30 99.8791
1016.40 99.87683
1016.50 99.87455
1016.60 99.87228
1016.70 99.87
1016.80 99.86773
1016.90 99.86545
1017.00 99.86318
1017.10 99.8609
1017.20 99.89209
1017.30 99.93163
1017.40 99.97118
1017.50 100.0107
1017.60 100.0503
1017.70 100.0898
1017.80 100.1294
1017.90 100.1689
1018.00 100.2085
1018.10 100.248
1018.20 100.2875
1018.30 100.3271
1018.40 100.3666
1018.50 100.4062
1018.60 100.4457
1018.70 100.4853
1018.80 100.5248
1018.90 100.5644
1019.00 100.6039
1019.10 100.6435
1019.20 100.683
1019.30 100.7225
1019.40 100.7621
1019.50 100.8016
1019.60 100.8412
1019.70 100.8807
1019.80 100.9203
1019.90 100.9598
1020.00 100.9994
1020.10 101.0389
1020.20 101.0785
1020.30 101.118
1020.40 101.1575
1020.50 101.1971
1020.60 101.2366
1020.70 101.2762
1020.80 101.3157
1020.90 101.3553
1021.00 101.3948
1021.10 101.4116
1021.20 101.4132
1021.30 101.4148
1021.40 101.4165
1021.50 101.4181
1021.60 101.4197
1021.70 101.4213
1021.80 101.4229
1021.90 101.4246
1022.00 101.4262
1022.10 101.4278
1022.20 101.4294
1022.30 101.431
1022.40 101.4326
1022.50 101.4343
1022.60 101.4359
1022.70 101.4375
1022.80 101.4391
1022.90 101.4407
1023.00 101.4423
1023.10 101.444
1023.20 101.4456
1023.30 101.4472
1023.40 101.4488
1023.50 101.4504
1023.60 101.4521
1023.70 101.4537
1023.80 101.4553
1023.90 101.4569
1024.00 101.4585
1024.10 101.4601
1024.20 101.4618
1024.30 101.4634
1024.40 101.465
1024.50 101.4666
1024.60 101.4682
1024.70 101.4699
1024.80 101.4715
1024.90 101.4731
1025.00 101.4746
1025.10 101.4761
1025.20 101.4775
1025.30 101.479
1025.40 101.4804
1025.50 101.4819
1025.60 101.4834
1025.70 101.4848
1025.80 101.4863
1025.90 101.4877
1026.00 101.4892
1026.10 101.4906
1026.20 101.4921
1026.30 101.4935
1026.40 101.495
1026.50 101.4964
1026.60 101.4979
1026.70 101.4993
1026.80 101.5008
1026.90 101.5022
1027.00 101.5037
1027.10 101.5051
1027.20 101.5066
1027.30 101.508
1027.40 101.5095
1027.50 101.5109
1027.60 101.5124
1027.70 101.5139
1027.80 101.5153
1027.90 101.5168
1028.00 101.5182
1028.10 101.5197
1028.20 101.5211
1028.30 101.5226
1028.40 101.524
1028.50 101.5255
1028.60 101.5269
1028.70 101.5284
1028.80 101.5298
1028.90 101.5313
1029.00 101.6156
1029.10 101.6999
1029.20 101.7843
1029.30 101.8686
1029.40 101.9529
1029.50 102.0373
1029.60 102.1216
1029.70 102.2059
1029.80 102.2903
1029.90 102.3746
1030.00 102.4589
1030.10 102.5433
1030.20 102.6276
1030.30 102.7119
1030.40 102.7962
1030.50 102.8806
1030.60 102.9649
1030.70 103.0492
1030.80 103.1336
1030.90 103.2179
1031.00 103.3022
1031.10 103.3866
1031.20 103.4709
1031.30 103.5552
1031.40 103.6396
1031.50 103.7239
1031.60 103.8082
1031.70 103.8926
1031.80 103.9769
1031.90 104.0612
1032.00 104.1456
1032.10 104.2299
1032.20 104.3142
1032.30 104.3985
1032.40 104.4829
1032.50 104.5672
1032.60 104.6515
1032.70 104.7359
1032.80 104.8202
1032.90 104.8876
1033.00 104.9295
1033.10 104.9714
1033.20 105.0134
1033.30 105.0553
1033.40 105.0972
1033.50 105.1391
1033.60 105.1811
1033.70 105.223
1033.80 105.2649
1033.90 105.3069
1034.00 105.3488
1034.10 105.3907
1034.20 105.4326
1034.30 105.4746
1034.40 105.5165
1034.50 105.5584
1034.60 105.6003
1034.70 105.6423
1034.80 105.6842
1034.90 105.7261
1035.00 105.7681
1035.10 105.81
1035.20 105.8519
1035.30 105.8938
1035.40 105.9358
1035.50 105.9777
1035.60 106.0196
1035.70 106.0616
1035.80 106.1035
1035.90 106.1454
1036.00 106.1873
1036.10 106.2293
1036.20 106.2712
1036.30 106.3131
1036.40 106.3551
1036.50 106.397
1036.60 106.4389
1036.70 106.4808
1036.80 106.5228
1036.90 106.5514
1037.00 106.5766
1037.10 106.6019
1037.20 106.6272
1037.30 106.6524
1037.40 106.6777
1037.50 106.7029
1037.60 106.7282
1037.70 106.7535
1037.80 106.7787
1037.90 106.804
1038.00 106.8293
1038.10 106.8545
1038.20 106.8798
1038.30 106.9051
1038.40 106.9303
1038.50 106.9556
1038.60 106.9808
1038.70 107.0061
1038.80 107.0314
1038.90 107.0566
1039.00 107.0819
1039.10 107.1072
1039.20 107.1324
1039.30 107.1577
1039.40 107.183
1039.50 107.2082
1039.60 107.2335
1039.70 107.2588
1039.80 107.284
1039.90 107.3093
1040.00 107.3345
1040.10 107.3598
1040.20 107.3851
1040.30 107.4103
1040.40 107.4356
1040.50 107.4609
1040.60 107.4861
1040.70 107.5114
1040.80 107.5367
1040.90 107.5572
1041.00 107.5777
1041.10 107.5982
1041.20 107.6187
1041.30 107.6392
1041.40 107.6597
1041.50 107.6802
1041.60 107.7007
1041.70 107.7213
1041.80 107.7418
1041.90 107.7623
1042.00 107.7828
1042.10 107.8033
1042.20 107.8238
1042.30 107.8443
1042.40 107.8648
1042.50 107.8854
1042.60 107.9059
1042.70 107.9264
1042.80 107.9469
1042.90 107.9674
1043.00 107.9879
1043.10 108.0084
1043.20 108.0289
1043.30 108.0495
1043.40 108.07
1043.50 108.0905
1043.60 108.111
1043.70 108.1315
1043.80 108.152
1043.90 108.1725
1044.00 108.193
1044.10 108.2136
1044.20 108.2341
1044.30 108.2546
1044.40 108.2751
1044.50 108.2956
1044.60 108.3161
1044.70 108.3366
1044.80 108.3584
1044.90 108.3914
1045.00 108.4243
1045.10 108.4573
1045.20 108.4903
1045.30 108.5232
1045.40 108.5562
1045.50 108.5892
1045.60 108.6221
1045.70 108.6551
1045.80 108.6881
1045.90 108.7211
1046.00 108.754
1046.10 108.787
1046.20 108.82
1046.30 108.8529
1046.40 108.8859
1046.50 108.9189
1046.60 108.9519
1046.70 108.9848
1046.80 109.0178
1046.90 109.0508
1047.00 109.0837
1047.10 109.1167
1047.20 109.1497
1047.30 109.1827
1047.40 109.2156
1047.50 109.2486
1047.60 109.2816
1047.70 109.3145
1047.80 109.3475
1047.90 109.3805
1048.00 109.4135
1048.10 109.4464
1048.20 109.4794
1048.30 109.5124
1048.40 109.5453
1048.50 109.5783
1048.60 109.6113
1048.70 109.6442
1048.80 109.673
1048.90 109.6638
1049.00 109.6546
1049.10 109.6455
1049.20 109.6363
1049.30 109.6271
1049.40 109.6179
1049.50 109.6087
1049.60 109.5995
1049.70 109.5904
1049.80 109.5812
1049.90 109.572
1050.00 109.5628
1050.10 109.5536
1050.20 109.5444
1050.30 109.5353
1050.40 109.5261
1050.50 109.5169
1050.60 109.5077
1050.70 109.4985
1050.80 109.4893
1050.90 109.4801
1051.00 109.471
1051.10 109.4618
1051.20 109.4526
1051.30 109.4434
1051.40 109.4342
1051.50 109.425
1051.60 109.4159
1051.70 109.4067
1051.80 109.3975
1051.90 109.3883
1052.00 109.3791
1052.10 109.3699
1052.20 109.3608
1052.30 109.3516
1052.40 109.3424
1052.50 109.3332
1052.60 109.324
1052.70 109.3148
1052.80 109.3057
1052.90 109.2746
1053.00 109.2435
1053.10 109.2123
1053.20 109.1812
1053.30 109.1501
1053.40 109.119
1053.50 109.0879
1053.60 109.0568
1053.70 109.0257
1053.80 108.9946
1053.90 108.9635
1054.00 108.9324
1054.10 108.9013
1054.20 108.8702
1054.30 108.8391
1054.40 108.808
1054.50 108.7769
1054.60 108.7458
1054.70 108.7147
1054.80 108.6836
1054.90 108.6525
1055.00 108.6213
1055.10 108.5902
1055.20 108.5591
1055.30 108.528
1055.40 108.4969
1055.50 108.4658
1055.60 108.4347
1055.70 108.4036
1055.80 108.3725
1055.90 108.3414
1056.00 108.3103
1056.10 108.2792
1056.20 108.2481
1056.30 108.217
1056.40 108.1859
1056.50 108.1548
1056.60 108.1237
1056.70 108.0926
1056.80 108.0615
1056.90 108.0616
1057.00 108.0697
1057.10 108.0777
1057.20 108.0857
1057.30 108.0937
1057.40 108.1017
1057.50 108.1097
1057.60 108.1177
1057.70 108.1257
1057.80 108.1337
1057.90 108.1418
1058.00 108.1498
1058.10 108.1578
1058.20 108.1658
1058.30 108.1738
1058.40 108.1818
1058.50 108.1898
1058.60 108.1978
1058.70 108.2059
1058.80 108.2139
1058.90 108.2219
1059.00 108.2299
1059.10 108.2379
1059.20 108.2459
1059.30 108.2539
1059.40 108.2619
1059.50 108.2699
1059.60 108.278
1059.70 108.286
1059.80 108.294
1059.90 108.302
1060.00 108.31
1060.10 108.318
1060.20 108.326
1060.30 108.334
1060.40 108.342
1060.50 108.3501
1060.60 108.3581
1060.70 108.3661
1060.80 108.3741
1060.90 108.4056
1061.00 108.4605
1061.10 108.5154
1061.20 108.5704
1061.30 108.6253
1061.40 108.6802
1061.50 108.7352
1061.60 108.7901
1061.70 108.8451
1061.80 108.9
1061.90 108.9549
1062.00 109.0099
1062.10 109.0648
1062.20 109.1197
1062.30 109.1747
1062.40 109.2296
1062.50 109.2845
1062.60 109.3395
1062.70 109.3944
1062.80 109.4493
1062.90 109.5043
1063.00 109.5592
1063.10 109.6142
1063.20 109.6691
1063.30 109.724
1063.40 109.779
1063.50 109.8339
1063.60 109.8888
1063.70 109.9438
1063.80 109.9987
1063.90 110.0536
1064.00 110.1086
1064.10 110.1635
1064.20 110.2184
1064.30 110.2734
1064.40 110.3283
1064.50 110.3832
1064.60 110.4382
1064.70 110.4931
1064.80 110.5481
1064.90 110.603
1065.00 110.6563
1065.10 110.7096
1065.20 110.763
1065.30 110.8163
1065.40 110.8696
1065.50 110.9229
1065.60 110.9762
1065.70 111.0296
1065.80 111.0829
1065.90 111.1362
1066.00 111.1895
1066.10 111.2428
1066.20 111.2962
1066.30 111.3495
1066.40 111.4028
1066.50 111.4561
1066.60 111.5094
1066.70 111.5628
1066.80 111.6161
1066.90 111.6694
1067.00 111.7227
1067.10 111.776
1067.20 111.8294
1067.30 111.8827
1067.40 111.936
1067.50 111.9893
1067.60 112.0427
1067.70 112.096
1067.80 112.1493
1067.90 112.2026
1068.00 112.2559
1068.10 112.3093
1068.20 112.3626
1068.30 112.4159
1068.40 112.4692
1068.50 112.5225
1068.60 112.5759
1068.70 112.6292
1068.80 112.6825
1068.90 112.7358
1069.00 112.7919
1069.10 112.8506
1069.20 112.9093
1069.30 112.9681
1069.40 113.0268
1069.50 113.0856
1069.60 113.1443
1069.70 113.203
1069.80 113.2618
1069.90 113.3205
1070.00 113.3793
1070.10 113.438
1070.20 113.4968
1070.30 113.5555
1070.40 113.6142
1070.50 113.673
1070.60 113.7317
1070.70 113.7905
1070.80 113.8492
1070.90 113.9079
1071.00 113.9667
1071.10 114.0254
1071.20 114.0842
1071.30 114.1429
1071.40 114.2016
1071.50 114.2604
1071.60 114.3191
1071.70 114.3779
1071.80 114.4366
1071.90 114.4954
1072.00 114.5541
1072.10 114.6128
1072.20 114.6716
1072.30 114.7303
1072.40 114.7891
1072.50 114.8478
1072.60 114.9065
1072.70 114.9653
1072.80 115.024
1072.90 115.0828
1073.00 115.1415
1073.10 115.193
1073.20 115.2436
1073.30 115.2943
1073.40 115.345
1073.50 115.3956
1073.60 115.4463
1073.70 115.497
1073.80 115.5476
1073.90 115.5983
1074.00 115.649
1074.10 115.6996
1074.20 115.7503
1074.30 115.801
1074.40 115.8516
1074.50 115.9023
1074.60 115.9529
1074.70 116.0036
1074.80 116.0543
1074.90 116.1049
1075.00 116.1556
1075.10 116.2063
1075.20 116.2569
1075.30 116.3076
1075.40 116.3583
1075.50 116.4089
1075.60 116.4596
1075.70 116.5103
1075.80 116.5609
1075.90 116.6116
1076.00 116.6622
1076.10 116.7129
1076.20 116.7636
1076.30 116.8142
1076.40 116.8649
1076.50 116.9156
1076.60 116.9662
1076.70 117.0169
1076.80 117.0676
1076.90 117.1182
1077.00 117.1689
1077.10 117.2174
1077.20 117.2469
1077.30 117.2763
1077.40 117.3058
1077.50 117.3352
1077.60 117.3646
1077.70 117.3941
1077.80 117.4235
1077.90 117.453
1078.00 117.4824
1078.10 117.5119
1078.20 117.5413
1078.30 117.5707
1078.40 117.6002
1078.50 117.6296
1078.60 117.6591
1078.70 117.6885
1078.80 117.7179
1078.90 117.7474
1079.00 117.7768
1079.10 117.8063
1079.20 117.8357
1079.30 117.8651
1079.40 117.8946
1079.50 117.924
1079.60 117.9535
1079.70 117.9829
1079.80 118.0124
1079.90 118.0418
1080.00 118.0712
1080.10 118.1007
1080.20 118.1301
1080.30 118.1596
1080.40 118.189
1080.50 118.2184
1080.60 118.2479
1080.70 118.2773
1080.80 118.3068
1080.90 118.3362
1081.00 118.3657
1081.10 118.3951
1081.20 118.4545
1081.30 118.5837
1081.40 118.7129
1081.50 118.842
1081.60 118.9712
1081.70 119.1004
1081.80 119.2296
1081.90 119.3588
1082.00 119.488
1082.10 119.6172
1082.20 119.7464
1082.30 119.8756
1082.40 120.0048
1082.50 120.134
1082.60 120.2632
1082.70 120.3924
1082.80 120.5216
1082.90 120.6508
1083.00 120.78
1083.10 120.9091
1083.20 121.0383
1083.30 121.1675
1083.40 121.2967
1083.50 121.4259
1083.60 121.5551
1083.70 121.6843
1083.80 121.8135
1083.90 121.9427
1084.00 122.0719
1084.10 122.2011
1084.20 122.3303
1084.30 122.4595
1084.40 122.5887
1084.50 122.7179
1084.60 122.8471
1084.70 122.9762
1084.80 123.1054
1084.90 123.2346
1085.00 123.3638
1085.10 123.493
1085.20 123.6222
1085.30 123.7174
1085.40 123.7331
1085.50 123.7489
1085.60 123.7646
1085.70 123.7804
1085.80 123.7961
1085.90 123.8119
1086.00 123.8276
1086.10 123.8434
1086.20 123.8591
1086.30 123.8749
1086.40 123.8906
1086.50 123.9064
1086.60 123.9221
1086.70 123.9379
1086.80 123.9536
1086.90 123.9694
1087.00 123.9851
1087.10 124.0009
1087.20 124.0166
1087.30 124.0324
1087.40 124.0481
1087.50 124.0639
1087.60 124.0796
1087.70 124.0954
1087.80 124.1111
1087.90 124.1269
1088.00 124.1426
1088.10 124.1584
1088.20 124.1741
1088.30 124.1899
1088.40 124.2056
1088.50 124.2214
1088.60 124.2371
1088.70 124.2529
1088.80 124.2686
1088.90 124.2844
1089.00 124.3001
1089.10 124.3159
1089.20 124.3316
1089.30 124.3474
1089.40 124.3674
1089.50 124.3974
1089.60 124.4275
1089.70 124.4575
1089.80 124.4875
1089.90 124.5176
1090.00 124.5476
1090.10 124.5776
1090.20 124.6076
1090.30 124.6377
1090.40 124.6677
1090.50 124.6977
1090.60 124.7278
1090.70 124.7578
1090.80 124.7878
1090.90 124.8179
1091.00 124.8479
1091.10 124.8779
1091.20 124.908
1091.30 124.938
1091.40 124.968
1091.50 124.9981
1091.60 125.0281
1091.70 125.0581
1091.80 125.0882
1091.90 125.1182
1092.00 125.1482
1092.10 125.1783
1092.20 125.2083
1092.30 125.2383
1092.40 125.2683
1092.50 125.2984
1092.60 125.3284
1092.70 125.3584
1092.80 125.3885
1092.90 125.4185
1093.00 125.4485
1093.10 125.4786
1093.20 125.5086
1093.30 125.5386
1093.40 125.5687
1093.50 125.5964
1093.60 125.6147
1093.70 125.6331
1093.80 125.6514
1093.90 125.6698
1094.00 125.6881
1094.10 125.7065
1094.20 125.7248
1094.30 125.7432
1094.40 125.7615
1094.50 125.7799
1094.60 125.7982
1094.70 125.8166
1094.80 125.8349
1094.90 125.8533
1095.00 125.8716
1095.10 125.89
1095.20 125.9083
1095.30 125.9267
1095.40 125.945
1095.50 125.9634
1095.60 125.9817
1095.70 126.0001
1095.80 126.0184
1095.90 126.0368
1096.00 126.0551
1096.10 126.0735
1096.20 126.0918
1096.30 126.1102
1096.40 126.1285
1096.50 126.1469
1096.60 126.1652
1096.70 126.1836
1096.80 126.2019
1096.90 126.2203
1097.00 126.2386
1097.10 126.257
1097.20 126.2753
1097.30 126.2937
1097.40 126.312
1097.50 126.3304
1097.60 126.3487
1097.70 126.3759
1097.80 126.403
1097.90 126.4302
1098.00 126.4573
1098.10 126.4845
1098.20 126.5116
1098.30 126.5388
1098.40 126.5659
1098.50 126.5931
1098.60 126.6202
1098.70 126.6474
1098.80 126.6745
1098.90 126.7017
1099.00 126.7288
1099.10 126.756
1099.20 126.7831
1099.30 126.8103
1099.40 126.8374
1099.50 126.8646
1099.60 126.8917
1099.70 126.9189
1099.80 126.946
1099.90 126.9731
1100.00 127.0003
1100.10 127.0274
1100.20 127.0546
1100.30 127.0817
1100.40 127.1089
1100.50 127.136
1100.60 127.1632
1100.70 127.1903
1100.80 127.2175
1100.90 127.2446
1101.00 127.2718
1101.10 127.2989
1101.20 127.3261
1101.30 127.3532
1101.40 127.3804
1101.50 127.4075
1101.60 127.4347
1101.70 127.4618
1101.80 127.4334
1101.90 127.3812
1102.00 127.329
1102.10 127.2768
1102.20 127.2246
1102.30 127.1724
1102.40 127.1202
1102.50 127.068
1102.60 127.0158
1102.70 126.9636
1102.80 126.9114
1102.90 126.8592
1103.00 126.807
1103.10 126.7548
1103.20 126.7026
1103.30 126.6504
1103.40 126.5983
1103.50 126.5461
1103.60 126.4939
1103.70 126.4417
1103.80 126.3895
1103.90 126.3373
1104.00 126.2851
1104.10 126.2329
1104.20 126.1807
1104.30 126.1285
1104.40 126.0763
1104.50 126.0241
1104.60 125.9719
1104.70 125.9197
1104.80 125.8675
1104.90 125.8153
1105.00 125.7631
1105.10 125.7109
1105.20 125.6587
1105.30 125.6065
1105.40 125.5543
1105.50 125.5021
1105.60 125.4499
1105.70 125.3977
1105.80 125.3455
1105.90 125.3107
1106.00 125.3166
1106.10 125.3226
1106.20 125.3285
1106.30 125.3344
1106.40 125.3403
1106.50 125.3462
1106.60 125.3521
1106.70 125.358
1106.80 125.364
1106.90 125.3699
1107.00 125.3758
1107.10 125.3817
1107.20 125.3876
1107.30 125.3935
1107.40 125.3994
1107.50 125.4053
1107.60 125.4113
1107.70 125.4172
1107.80 125.4231
1107.90 125.429
1108.00 125.4349
1108.10 125.4408
1108.20 125.4467
1108.30 125.4527
1108.40 125.4586
1108.50 125.4645
1108.60 125.4704
1108.70 125.4763
1108.80 125.4822
1108.90 125.4881
1109.00 125.494
1109.10 125.5
1109.20 125.5059
1109.30 125.5118
1109.40 125.5177
1109.50 125.5236
1109.60 125.5295
1109.70 125.5354
1109.80 125.5414
1109.90 125.5473
1110.00 125.5532
1110.10 125.541
1110.20 125.5242
1110.30 125.5075
1110.40 125.4908
1110.50 125.474
1110.60 125.4573
1110.70 125.4406
1110.80 125.4238
1110.90 125.4071
1111.00 125.3903
1111.10 125.3736
1111.20 125.3569
1111.30 125.3401
1111.40 125.3234
1111.50 125.3067
1111.60 125.2899
1111.70 125.2732
1111.80 125.2565
1111.90 125.2397
1112.00 125.223
1112.10 125.2063
1112.20 125.1895
1112.30 125.1728
1112.40 125.156
1112.50 125.1393
1112.60 125.1226
1112.70 125.1058
1112.80 125.0891
1112.90 125.0724
1113.00 125.0556
1113.10 125.0389
1113.20 125.0222
1113.30 125.0054
1113.40 124.9887
1113.50 124.972
1113.60 124.9552
1113.70 124.9385
1113.80 124.9217
1113.90 124.905
1114.00 124.8883
1114.10 124.8715
1114.20 124.8677
1114.30 124.894
1114.40 124.9203
1114.50 124.9467
1114.60 124.973
1114.70 124.9993
1114.80 125.0256
1114.90 125.0519
1115.00 125.0782
1115.10 125.1045
1115.20 125.1308
1115.30 125.1572
1115.40 125.1835
1115.50 125.2098
1115.60 125.2361
1115.70 125.2624
1115.80 125.2887
1115.90 125.315
1116.00 125.3413
1116.10 125.3677
1116.20 125.394
1116.30 125.4203
1116.40 125.4466
1116.50 125.4729
1116.60 125.4992
1116.70 125.5255
1116.80 125.5518
1116.90 125.5782
1117.00 125.6045
1117.10 125.6308
1117.20 125.6571
1117.30 125.6834
1117.40 125.7097
1117.50 125.736
1117.60 125.7624
1117.70 125.7887
1117.80 125.815
1117.90 125.8413
1118.00 125.8676
1118.10 125.8939
1118.20 125.9202
1118.30 125.9465
1118.40 125.9724
1118.50 125.998
1118.60 126.0235
1118.70 126.0491
1118.80 126.0747
1118.90 126.1002
1119.00 126.1258
1119.10 126.1514
1119.20 126.1769
1119.30 126.2025
1119.40 126.2281
1119.50 126.2536
1119.60 126.2792
1119.70 126.3048
1119.80 126.3303
1119.90 126.3559
1120.00 126.3815
1120.10 126.407
1120.20 126.4326
1120.30 126.4582
1120.40 126.4837
1120.50 126.5093
1120.60 126.5349
1120.70 126.5604
1120.80 126.586
1120.90 126.6116
1121.00 126.6371
1121.10 126.6627
1121.20 126.6883
1121.30 126.7138
1121.40 126.7394
1121.50 126.765
1121.60 126.7905
1121.70 126.8161
1121.80 126.8417
1121.90 126.8672
1122.00 126.8928
1122.10 126.9184
1122.20 126.9439
1122.30 126.9695
1122.40 126.9951
1122.50 127.0206
1122.60 127.0226
1122.70 127.0218
1122.80 127.0211
1122.90 127.0204
1123.00 127.0197
1123.10 127.0189
1123.20 127.0182
1123.30 127.0175
1123.40 127.0168
1123.50 127.0161
1123.60 127.0153
1123.70 127.0146
1123.80 127.0139
1123.90 127.0132
1124.00 127.0125
1124.10 127.0117
1124.20 127.011
1124.30 127.0103
1124.40 127.0096
1124.50 127.0088
1124.60 127.0081
1124.70 127.0074
1124.80 127.0067
1124.90 127.006
1125.00 127.0052
1125.10 127.0045
1125.20 127.0038
1125.30 127.0031
1125.40 127.0024
1125.50 127.0016
1125.60 127.0009
1125.70 127.0002
1125.80 126.9995
1125.90 126.9987
1126.00 126.998
1126.10 126.9973
1126.20 126.9966
1126.30 126.9959
1126.40 126.9951
1126.50 126.9944
1126.60 126.9937
1126.70 126.9879
1126.80 126.9621
1126.90 126.9362
1127.00 126.9103
1127.10 126.8844
1127.20 126.8585
1127.30 126.8326
1127.40 126.8067
1127.50 126.7808
1127.60 126.755
1127.70 126.7291
1127.80 126.7032
1127.90 126.6773
1128.00 126.6514
1128.10 126.6255
1128.20 126.5996
1128.30 126.5737
1128.40 126.5478
1128.50 126.522
1128.60 126.4961
1128.70 126.4702
1128.80 126.4443
1128.90 126.4184
1129.00 126.3925
1129.10 126.3666
1129.20 126.3407
1129.30 126.3149
1129.40 126.289
1129.50 126.2631
1129.60 126.2372
1129.70 126.2113
1129.80 126.1854
1129.90 126.1595
1130.00 126.1336
1130.10 126.1078
1130.20 126.0819
1130.30 126.056
1130.40 126.0301
1130.50 126.0042
1130.60 125.9783
1130.70 125.9524
1130.80 125.9265
1130.90 125.8883
1131.00 125.8212
1131.10 125.7541
1131.20 125.687
1131.30 125.6199
1131.40 125.5528
1131.50 125.4857
1131.60 125.4186
1131.70 125.3515
1131.80 125.2844
1131.90 125.2172
1132.00 125.1501
1132.10 125.083
1132.20 125.0159
1132.30 124.9488
1132.40 124.8817
1132.50 124.8146
1132.60 124.7475
1132.70 124.6804
1132.80 124.6133
1132.90 124.5462
1133.00 124.4791
1133.10 124.412
1133.20 124.3449
1133.30 124.2778
1133.40 124.2107
1133.50 124.1436
1133.60 124.0765
1133.70 124.0094
1133.80 123.9423
1133.90 123.8752
1134.00 123.8081
1134.10 123.741
1134.20 123.6739
1134.30 123.6068
1134.40 123.5397
1134.50 123.4725
1134.60 123.4054
1134.70 123.3383
1134.80 123.2712
1134.90 123.2041
1135.00 123.137
1135.10 123.0923
1135.20 123.0811
1135.30 123.0699
1135.40 123.0587
1135.50 123.0475
1135.60 123.0363
1135.70 123.025
1135.80 123.0138
1135.90 123.0026
1136.00 122.9914
1136.10 122.9802
1136.20 122.969
1136.30 122.9578
1136.40 122.9466
1136.50 122.9354
1136.60 122.9242
1136.70 122.913
1136.80 122.9018
1136.90 122.8906
1137.00 122.8794
1137.10 122.8682
1137.20 122.857
1137.30 122.8458
1137.40 122.8345
1137.50 122.8233
1137.60 122.8121
1137.70 122.8009
1137.80 122.7897
1137.90 122.7785
1138.00 122.7673
1138.10 122.7561
1138.20 122.7449
1138.30 122.7337
1138.40 122.7225
1138.50 122.7113
1138.60 122.7001
1138.70 122.6889
1138.80 122.6777
1138.90 122.6665
1139.00 122.6553
1139.10 122.644
1139.20 122.6328
1139.30 122.6408
1139.40 122.6775
1139.50 122.7141
1139.60 122.7508
1139.70 122.7875
1139.80 122.8241
1139.90 122.8608
1140.00 122.8975
1140.10 122.9341
1140.20 122.9708
1140.30 123.0075
1140.40 123.0441
1140.50 123.0808
1140.60 123.1175
1140.70 123.1541
1140.80 123.1908
1140.90 123.2275
1141.00 123.2641
1141.10 123.3008
1141.20 123.3375
1141.30 123.3741
1141.40 123.4108
1141.50 123.4475
1141.60 123.4841
1141.70 123.5208
1141.80 123.5575
1141.90 123.5941
1142.00 123.6308
1142.10 123.6675
1142.20 123.7041
1142.30 123.7408
1142.40 123.7775
1142.50 123.8141
1142.60 123.8508
1142.70 123.8875
1142.80 123.9241
1142.90 123.9608
1143.00 123.9975
1143.10 124.0341
1143.20 124.0708
1143.30 124.1075
1143.40 124.1441
1143.50 124.2027
1143.60 124.3122
1143.70 124.4217
1143.80 124.5312
1143.90 124.6407
1144.00 124.7502
1144.10 124.8598
1144.20 124.9693
1144.30 125.0788
1144.40 125.1883
1144.50 125.2978
1144.60 125.4073
1144.70 125.5169
1144.80 125.6264
1144.90 125.7359
1145.00 125.8454
1145.10 125.9549
1145.20 126.0644
1145.30 126.174
1145.40 126.2835
1145.50 126.393
1145.60 126.5025
1145.70 126.612
1145.80 126.7215
1145.90 126.8311
1146.00 126.9406
1146.10 127.0501
1146.20 127.1596
1146.30 127.2691
1146.40 127.3786
1146.50 127.4882
1146.60 127.5977
1146.70 127.7072
1146.80 127.8167
1146.90 127.9262
1147.00 128.0358
1147.10 128.1453
1147.20 128.2548
1147.30 128.3643
1147.40 128.4738
1147.50 128.5833
1147.60 128.6929
1147.70 128.7956
1147.80 128.8711
1147.90 128.9466
1148.00 129.0221
1148.10 129.0977
1148.20 129.1732
1148.30 129.2487
1148.40 129.3242
1148.50 129.3998
1148.60 129.4753
1148.70 129.5508
1148.80 129.6263
1148.90 129.7018
1149.00 129.7774
1149.10 129.8529
1149.20 129.9284
1149.30 130.0039
1149.40 130.0795
1149.50 130.155
1149.60 130.2305
1149.70 130.306
1149.80 130.3815
1149.90 130.4571
1150.00 130.5326
1150.10 130.6081
1150.20 130.6836
1150.30 130.7592
1150.40 130.8347
1150.50 130.9102
1150.60 130.9857
1150.70 131.0612
1150.80 131.1368
1150.90 131.2123
1151.00 131.2878
1151.10 131.3633
1151.20 131.4389
1151.30 131.5144
1151.40 131.5899
1151.50 131.6654
1151.60 131.741
1151.70 131.8165
1151.80 131.892
1151.90 131.9675
1152.00 131.9602
1152.10 131.9528
1152.20 131.9455
1152.30 131.9381
1152.40 131.9307
1152.50 131.9234
1152.60 131.916
1152.70 131.9087
1152.80 131.9013
1152.90 131.894
1153.00 131.8866
1153.10 131.8793
1153.20 131.8719
1153.30 131.8645
1153.40 131.8572
1153.50 131.8498
1153.60 131.8425
1153.70 131.8351
1153.80 131.8278
1153.90 131.8204
1154.00 131.8131
1154.10 131.8057
1154.20 131.7983
1154.30 131.791
1154.40 131.7836
1154.50 131.7763
1154.60 131.7689
1154.70 131.7616
1154.80 131.7542
1154.90 131.7469
1155.00 131.7395
1155.10 131.7321
1155.20 131.7248
1155.30 131.7174
1155.40 131.7101
1155.50 131.7027
1155.60 131.6954
1155.70 131.688
1155.80 131.6807
1155.90 131.6733
1156.00 131.6659
1156.10 131.6586
1156.20 131.6234
1156.30 131.5812
1156.40 131.5391
1156.50 131.497
1156.60 131.4548
1156.70 131.4127
1156.80 131.3705
1156.90 131.3284
1157.00 131.2862
1157.10 131.2441
1157.20 131.2019
1157.30 131.1598
1157.40 131.1176
1157.50 131.0755
1157.60 131.0333
1157.70 130.9912
1157.80 130.949
1157.90 130.9069
1158.00 130.8647
1158.10 130.8226
1158.20 130.7804
1158.30 130.7383
1158.40 130.6961
1158.50 130.654
1158.60 130.6118
1158.70 130.5697
1158.80 130.5275
1158.90 130.4854
1159.00 130.4432
1159.10 130.4011
1159.20 130.3589
1159.30 130.3168
1159.40 130.2746
1159.50 130.2325
1159.60 130.1903
1159.70 130.1482
1159.80 130.106
1159.90 130.0639
1160.00 130.0217
1160.10 129.9796
1160.20 129.9374
1160.30 129.8953
1160.40 129.8513
1160.50 129.8053
1160.60 129.7594
1160.70 129.7134
1160.80 129.6675
1160.90 129.6216
1161.00 129.5756
1161.10 129.5297
1161.20 129.4838
1161.30 129.4378
1161.40 129.3919
1161.50 129.346
1161.60 129.3
1161.70 129.2541
1161.80 129.2082
1161.90 129.1622
1162.00 129.1163
1162.10 129.0703
1162.20 129.0244
1162.30 128.9785
1162.40 128.9325
1162.50 128.8866
1162.60 128.8407
1162.70 128.7947
1162.80 128.7488
1162.90 128.7029
1163.00 128.6569
1163.10 128.611
1163.20 128.5651
1163.30 128.5191
1163.40 128.4732
1163.50 128.4273
1163.60 128.3813
1163.70 128.3354
1163.80 128.2894
1163.90 128.2435
1164.00 128.1976
1164.10 128.1516
1164.20 128.1057
1164.30 128.0598
1164.40 128.0138
1164.50 127.9679
1164.60 127.9229
1164.70 127.8859
1164.80 127.8489
1164.90 127.8119
1165.00 127.7749
1165.10 127.7379
1165.20 127.701
1165.30 127.664
1165.40 127.627
1165.50 127.59
1165.60 127.553
1165.70 127.516
1165.80 127.479
1165.90 127.4421
1166.00 127.4051
1166.10 127.3681
1166.20 127.3311
1166.30 127.2941
1166.40 127.2571
1166.50 127.2202
1166.60 127.1832
1166.70 127.1462
1166.80 127.1092
1166.90 127.0722
1167.00 127.0352
1167.10 126.9983
1167.20 126.9613
1167.30 126.9243
1167.40 126.8873
1167.50 126.8503
1167.60 126.8133
1167.70 126.7763
1167.80 126.7394
1167.90 126.7024
1168.00 126.6654
1168.10 126.6284
1168.20 126.5914
1168.30 126.5544
1168.40 126.5175
1168.50 126.4805
1168.60 126.4435
1168.70 126.4065
1168.80 126.3695
1168.90 126.293
1169.00 126.1994
1169.10 126.1059
1169.20 126.0123
1169.30 125.9188
1169.40 125.8253
1169.50 125.7317
1169.60 125.6382
1169.70 125.5447
1169.80 125.4511
1169.90 125.3576
1170.00 125.2641
1170.10 125.1705
1170.20 125.077
1170.30 124.9835
1170.40 124.8899
1170.50 124.7964
1170.60 124.7029
1170.70 124.6093
1170.80 124.5158
1170.90 124.4222
1171.00 124.3287
1171.10 124.2352
1171.20 124.1416
1171.30 124.0481
1171.40 123.9546
1171.50 123.861
1171.60 123.7675
1171.70 123.674
1171.80 123.5804
1171.90 123.4869
1172.00 123.3934
1172.10 123.2998
1172.20 123.2063
1172.30 123.1128
1172.40 123.0192
1172.50 122.9257
1172.60 122.8321
1172.70 122.7386
1172.80 122.6451
1172.90 122.5515
1173.00 122.458
1173.10 122.3875
1173.20 122.4092
1173.30 122.4309
1173.40 122.4525
1173.50 122.4742
1173.60 122.4959
1173.70 122.5175
1173.80 122.5392
1173.90 122.5609
1174.00 122.5826
1174.10 122.6042
1174.20 122.6259
1174.30 122.6476
1174.40 122.6692
1174.50 122.6909
1174.60 122.7126
1174.70 122.7343
1174.80 122.7559
1174.90 122.7776
1175.00 122.7993
1175.10 122.8209
1175.20 122.8426
1175.30 122.8643
1175.40 122.886
1175.50 122.9076
1175.60 122.9293
1175.70 122.951
1175.80 122.9727
1175.90 122.9943
1176.00 123.016
1176.10 123.0377
1176.20 123.0593
1176.30 123.081
1176.40 123.1027
1176.50 123.1244
1176.60 123.146
1176.70 123.1677
1176.80 123.1894
1176.90 123.211
1177.00 123.2327
1177.10 123.2544
1177.20 123.2761
1177.30 123.2977
1177.40 123.3281
1177.50 123.3623
1177.60 123.3965
1177.70 123.4306
1177.80 123.4648
1177.90 123.499
1178.00 123.5331
1178.10 123.5673
1178.20 123.6014
1178.30 123.6356
1178.40 123.6698
1178.50 123.7039
1178.60 123.7381
1178.70 123.7723
1178.80 123.8064
1178.90 123.8406
1179.00 123.8748
1179.10 123.9089
1179.20 123.9431
1179.30 123.9772
1179.40 124.0114
1179.50 124.0456
1179.60 124.0797
1179.70 124.1139
1179.80 124.1481
1179.90 124.1822
1180.00 124.2164
1180.10 124.2505
1180.20 124.2847
1180.30 124.3189
1180.40 124.353
1180.50 124.3872
1180.60 124.4214
1180.70 124.4555
1180.80 124.4897
1180.90 124.5239
1181.00 124.558
1181.10 124.5922
1181.20 124.6263
1181.30 124.6605
1181.40 124.6947
1181.50 124.7288
1181.60 124.7647
1181.70 124.8154
1181.80 124.8661
1181.90 124.9169
1182.00 124.9676
1182.10 125.0184
1182.20 125.0691
1182.30 125.1199
1182.40 125.1706
1182.50 125.2213
1182.60 125.2721
1182.70 125.3228
1182.80 125.3736
1182.90 125.4243
1183.00 125.4751
1183.10 125.5258
1183.20 125.5765
1183.30 125.6273
1183.40 125.678
1183.50 125.7288
1183.60 125.7795
1183.70 125.8302
1183.80 125.881
1183.90 125.9317
1184.00 125.9825
1184.10 126.0332
1184.20 126.084
1184.30 126.1347
1184.40 126.1854
1184.50 126.2362
1184.60 126.2869
1184.70 126.3377
1184.80 126.3884
1184.90 126.4392
1185.00 126.4899
1185.10 126.5406
1185.20 126.5914
1185.30 126.6421
1185.40 126.6929
1185.50 126.7436
1185.60 126.7944
1185.70 126.8451
1185.80 126.8958
1185.90 126.9101
1186.00 126.8878
1186.10 126.8655
1186.20 126.8432
1186.30 126.8209
1186.40 126.7986
1186.50 126.7763
1186.60 126.754
1186.70 126.7318
1186.80 126.7095
1186.90 126.6872
1187.00 126.6649
1187.10 126.6426
1187.20 126.6203
1187.30 126.598
1187.40 126.5757
1187.50 126.5534
1187.60 126.5311
1187.70 126.5089
1187.80 126.4866
1187.90 126.4643
1188.00 126.442
1188.10 126.4197
1188.20 126.3974
1188.30 126.3751
1188.40 126.3528
1188.50 126.3305
1188.60 126.3083
1188.70 126.286
1188.80 126.2637
1188.90 126.2414
1189.00 126.2191
1189.10 126.1968
1189.20 126.1745
1189.30 126.1522
1189.40 126.1299
1189.50 126.1076
1189.60 126.0854
1189.70 126.0631
1189.80 126.0408
1189.90 126.0185
1190.00 125.9962
1190.10 125.9739
1190.20 125.9139
1190.30 125.8446
1190.40 125.7752
1190.50 125.7058
1190.60 125.6364
1190.70 125.567
1190.80 125.4976
1190.90 125.4282
1191.00 125.3589
1191.10 125.2895
1191.20 125.2201
1191.30 125.1507
1191.40 125.0813
1191.50 125.0119
1191.60 124.9425
1191.70 124.8732
1191.80 124.8038
1191.90 124.7344
1192.00 124.665
1192.10 124.5956
1192.20 124.5262
1192.30 124.4568
1192.40 124.3875
1192.50 124.3181
1192.60 124.2487
1192.70 124.1793
1192.80 124.1099
1192.90 124.0405
1193.00 123.9711
1193.10 123.9018
1193.20 123.8324
1193.30 123.763
1193.40 123.6936
1193.50 123.6242
1193.60 123.5548
1193.70 123.4854
1193.80 123.4161
1193.90 123.3467
1194.00 123.2773
1194.10 123.2079
1194.20 123.1385
1194.30 123.0691
1194.40 123.0019
1194.50 122.9542
1194.60 122.9064
1194.70 122.8587
1194.80 122.811
1194.90 122.7632
1195.00 122.7155
1195.10 122.6678
1195.20 122.62
1195.30 122.5723
1195.40 122.5246
1195.50 122.4768
1195.60 122.4291
1195.70 122.3814
1195.80 122.3336
1195.90 122.2859
1196.00 122.2381
1196.10 122.1904
1196.20 122.1427
1196.30 122.0949
1196.40 122.0472
1196.50 121.9995
1196.60 121.9517
1196.70 121.904
1196.80 121.8563
1196.90 121.8085
1197.00 121.7608
1197.10 121.7131
1197.20 121.6653
1197.30 121.6176
1197.40 121.5698
1197.50 121.5221
1197.60 121.4744
1197.70 121.4266
1197.80 121.3789
1197.90 121.3312
1198.00 121.2834
1198.10 121.2357
1198.20 121.188
1198.30 121.1402
1198.40 121.0925
1198.50 121.0448
1198.60 120.997
1198.70 120.9666
1198.80 120.9622
1198.90 120.9578
1199.00 120.9534
1199.10 120.949
1199.20 120.9446
1199.30 120.9402
1199.40 120.9358
1199.50 120.9314
1199.60 120.927
1199.70 120.9226
1199.80 120.9182
1199.90 120.9138
1200.00 120.9094
1200.10 120.905
1200.20 120.9006
1200.30 120.8962
1200.40 120.8918
1200.50 120.8874
1200.60 120.883
1200.70 120.8786
1200.80 120.8742
1200.90 120.8698
1201.00 120.8654
1201.10 120.861
1201.20 120.8566
1201.30 120.8522
1201.40 120.8478
1201.50 120.8434
1201.60 120.839
1201.70 120.8346
1201.80 120.8302
1201.90 120.8258
1202.00 120.8214
1202.10 120.817
1202.20 120.8126
1202.30 120.8082
1202.40 120.8038
1202.50 120.7994
1202.60 120.795
1202.70 120.7906
1202.80 120.7862
1202.90 120.7818
1203.00 120.8146
1203.10 120.8722
1203.20 120.9299
1203.30 120.9875
1203.40 121.0451
1203.50 121.1027
1203.60 121.1603
1203.70 121.218
1203.80 121.2756
1203.90 121.3332
1204.00 121.3908
1204.10 121.4484
1204.20 121.5061
1204.30 121.5637
1204.40 121.6213
1204.50 121.6789
1204.60 121.7366
1204.70 121.7942
1204.80 121.8518
1204.90 121.9094
1205.00 121.967
1205.10 122.0247
1205.20 122.0823
1205.30 122.1399
1205.40 122.1975
1205.50 122.2551
1205.60 122.3128
1205.70 122.3704
1205.80 122.428
1205.90 122.4856
1206.00 122.5432
1206.10 122.6009
1206.20 122.6585
1206.30 122.7161
1206.40 122.7737
1206.50 122.8313
1206.60 122.889
1206.70 122.9466
1206.80 123.0042
1206.90 123.0618
1207.00 123.1194
1207.10 123.1771
1207.20 123.2347
1207.30 123.3231
1207.40 123.4192
1207.50 123.5154
1207.60 123.6115
1207.70 123.7076
1207.80 123.8037
1207.90 123.8998
1208.00 123.996
1208.10 124.0921
1208.20 124.1882
1208.30 124.2843
1208.40 124.3804
1208.50 124.4766
1208.60 124.5727
1208.70 124.6688
1208.80 124.7649
1208.90 124.861
1209.00 124.9572
1209.10 125.0533
1209.20 125.1494
1209.30 125.2455
1209.40 125.3416
1209.50 125.4378
1209.60 125.5339
1209.70 125.63
1209.80 125.7261
1209.90 125.8223
1210.00 125.9184
1210.10 126.0145
1210.20 126.1106
1210.30 126.2067
1210.40 126.3029
1210.50 126.399
1210.60 126.4951
1210.70 126.5912
1210.80 126.6873
1210.90 126.7835
1211.00 126.8796
1211.10 126.9757
1211.20 127.0718
1211.30 127.1679
1211.40 127.2641
1211.50 127.3602
1211.60 127.3956
1211.70 127.4243
1211.80 127.453
1211.90 127.4816
1212.00 127.5103
1212.10 127.539
1212.20 127.5676
1212.30 127.5963
1212.40 127.625
1212.50 127.6537
1212.60 127.6823
1212.70 127.711
1212.80 127.7397
1212.90 127.7684
1213.00 127.797
1213.10 127.8257
1213.20 127.8544
1213.30 127.8831
1213.40 127.9117
1213.50 127.9404
1213.60 127.9691
1213.70 127.9978
1213.80 128.0264
1213.90 128.0551
1214.00 128.0838
1214.10 128.1125
1214.20 128.1411
1214.30 128.1698
1214.40 128.1985
1214.50 128.2271
1214.60 128.2558
1214.70 128.2845
1214.80 128.3132
1214.90 128.3418
1215.00 128.3705
1215.10 128.3992
1215.20 128.4279
1215.30 128.4565
1215.40 128.4852
1215.50 128.5139
1215.60 128.5426
1215.70 128.5712
1215.80 128.5999
1215.90 128.6904
1216.00 128.7809
1216.10 128.8714
1216.20 128.9619
1216.30 129.0524
1216.40 129.143
1216.50 129.2335
1216.60 129.324
1216.70 129.4145
1216.80 129.505
1216.90 129.5955
1217.00 129.686
1217.10 129.7765
1217.20 129.867
1217.30 129.9575
1217.40 130.048
1217.50 130.1385
1217.60 130.229
1217.70 130.3196
1217.80 130.4101
1217.90 130.5006
1218.00 130.5911
1218.10 130.6816
1218.20 130.7721
1218.30 130.8626
1218.40 130.9531
1218.50 131.0436
1218.60 131.1341
1218.70 131.2246
1218.80 131.3151
1218.90 131.4056
1219.00 131.4962
1219.10 131.5867
1219.20 131.6772
1219.30 131.7677
1219.40 131.8582
1219.50 131.9487
1219.60 132.0392
1219.70 132.1297
1219.80 132.2202
1219.90 132.3107
1220.00 132.4012
1220.10 132.4866
1220.20 132.5258
1220.30 132.5651
1220.40 132.6043
1220.50 132.6435
1220.60 132.6828
1220.70 132.722
1220.80 132.7613
1220.90 132.8005
1221.00 132.8397
1221.10 132.879
1221.20 132.9182
1221.30 132.9574
1221.40 132.9967
1221.50 133.0359
1221.60 133.0751
1221.70 133.1144
1221.80 133.1536
1221.90 133.1928
1222.00 133.2321
1222.10 133.2713
1222.20 133.3105
1222.30 133.3498
1222.40 133.389
1222.50 133.4282
1222.60 133.4675
1222.70 133.5067
1222.80 133.5459
1222.90 133.5852
1223.00 133.6244
1223.10 133.6636
1223.20 133.7029
1223.30 133.7421
1223.40 133.7813
1223.50 133.8206
1223.60 133.8598
1223.70 133.899
1223.80 133.9383
1223.90 133.9775
1224.00 134.0167
1224.10 134.056
1224.20 134.0952
1224.30 134.1344
1224.40 134.1685
1224.50 134.1821
1224.60 134.1957
1224.70 134.2093
1224.80 134.2229
1224.90 134.2365
1225.00 134.2501
1225.10 134.2637
1225.20 134.2773
1225.30 134.2909
1225.40 134.3045
1225.50 134.3181
1225.60 134.3317
1225.70 134.3453
1225.80 134.3589
1225.90 134.3725
1226.00 134.3861
1226.10 134.3997
1226.20 134.4133
1226.30 134.4269
1226.40 134.4405
1226.50 134.4541
1226.60 134.4676
1226.70 134.4812
1226.80 134.4948
1226.90 134.5084
1227.00 134.522
1227.10 134.5356
1227.20 134.5492
1227.30 134.5628
1227.40 134.5764
1227.50 134.59
1227.60 134.6036
1227.70 134.6172
1227.80 134.6308
1227.90 134.6444
1228.00 134.658
1228.10 134.6716
1228.20 134.6852
1228.30 134.6988
1228.40 134.7124
1228.50 134.726
1228.60 134.7396
1228.70 134.7411
1228.80 134.6946
1228.90 134.648
1229.00 134.6014
1229.10 134.5548
1229.20 134.5083
1229.30 134.4617
1229.40 134.4151
1229.50 134.3686
1229.60 134.322
1229.70 134.2754
1229.80 134.2288
1229.90 134.1823
1230.00 134.1357
1230.10 134.0891
1230.20 134.0425
1230.30 133.996
1230.40 133.9494
1230.50 133.9028
1230.60 133.8563
1230.70 133.8097
1230.80 133.7631
1230.90 133.7165
1231.00 133.67
1231.10 133.6234
1231.20 133.5768
1231.30 133.5303
1231.40 133.4837
1231.50 133.4371
1231.60 133.3905
1231.70 133.344
1231.80 133.2974
1231.90 133.2508
1232.00 133.2043
1232.10 133.1577
1232.20 133.1111
1232.30 133.0645
1232.40 133.018
1232.50 132.9714
1232.60 132.9248
1232.70 132.8783
1232.80 132.8317
1232.90 132.7851
1233.00 132.7323
1233.10 132.6545
1233.20 132.5767
1233.30 132.4989
1233.40 132.4211
1233.50 132.3434
1233.60 132.2656
1233.70 132.1878
1233.80 132.11
1233.90 132.0322
1234.00 131.9544
1234.10 131.8766
1234.20 131.7988
1234.30 131.721
1234.40 131.6433
1234.50 131.5655
1234.60 131.4877
1234.70 131.4099
1234.80 131.3321
1234.90 131.2543
1235.00 131.1765
1235.10 131.0987
1235.20 131.0209
1235.30 130.9432
1235.40 130.8654
1235.50 130.7876
1235.60 130.7098
1235.70 130.632
1235.80 130.5542
1235.90 130.4764
1236.00 130.3986
1236.10 130.3208
1236.20 130.2431
1236.30 130.1653
1236.40 130.0875
1236.50 130.0097
1236.60 129.9319
1236.70 129.8541
1236.80 129.7763
1236.90 129.6985
1237.00 129.6207
1237.10 129.543
1237.20 129.4652
1237.30 129.3946
1237.40 129.3529
1237.50 129.3112
1237.60 129.2695
1237.70 129.2278
1237.80 129.1861
1237.90 129.1444
1238.00 129.1027
1238.10 129.061
1238.20 129.0193
1238.30 128.9776
1238.40 128.9359
1238.50 128.8942
1238.60 128.8525
1238.70 128.8109
1238.80 128.7692
1238.90 128.7275
1239.00 128.6858
1239.10 128.6441
1239.20 128.6024
1239.30 128.5607
1239.40 128.519
1239.50 128.4773
1239.60 128.4356
1239.70 128.3939
1239.80 128.3522
1239.90 128.3105
1240.00 128.2688
1240.10 128.2271
1240.20 128.1854
1240.30 128.1437
1240.40 128.102
1240.50 128.0603
1240.60 128.0186
1240.70 127.9769
1240.80 127.9352
1240.90 127.8935
1241.00 127.8518
1241.10 127.8101
1241.20 127.7685
1241.30 127.7268
1241.40 127.6851
1241.50 127.6434
1241.60 127.6025
1241.70 127.5686
1241.80 127.5348
1241.90 127.501
1242.00 127.4672
1242.10 127.4334
1242.20 127.3996
1242.30 127.3658
1242.40 127.332
1242.50 127.2982
1242.60 127.2644
1242.70 127.2306
1242.80 127.1967
1242.90 127.1629
1243.00 127.1291
1243.10 127.0953
1243.20 127.0615
1243.30 127.0277
1243.40 126.9939
1243.50 126.9601
1243.60 126.9263
1243.70 126.8925
1243.80 126.8587
1243.90 126.8248
1244.00 126.791
1244.10 126.7572
1244.20 126.7234
1244.30 126.6896
1244.40 126.6558
1244.50 126.622
1244.60 126.5882
1244.70 126.5544
1244.80 126.5206
1244.90 126.4868
1245.00 126.4529
1245.10 126.4191
1245.20 126.3853
1245.30 126.3515
1245.40 126.3177
1245.50 126.2839
1245.60 126.2501
1245.70 126.2163
1245.80 126.1825
1245.90 126.1487
1246.00 126.2135
1246.10 126.2784
1246.20 126.3432
1246.30 126.4081
1246.40 126.4729
1246.50 126.5378
1246.60 126.6026
1246.70 126.6675
1246.80 126.7323
1246.90 126.7972
1247.00 126.862
1247.10 126.9269
1247.20 126.9917
1247.30 127.0566
1247.40 127.1214
1247.50 127.1863
1247.60 127.2511
1247.70 127.316
1247.80 127.3808
1247.90 127.4457
1248.00 127.5106
1248.10 127.5754
1248.20 127.6403
1248.30 127.7051
1248.40 127.77
1248.50 127.8348
1248.60 127.8997
1248.70 127.9645
1248.80 128.0294
1248.90 128.0942
1249.00 128.1591
1249.10 128.2239
1249.20 128.2888
1249.30 128.3536
1249.40 128.4185
1249.50 128.4833
1249.60 128.5482
1249.70 128.613
1249.80 128.6779
1249.90 128.7427
1250.00 128.8076
1250.10 128.8724
1250.20 128.9373
1250.30 128.9919
1250.40 129.0466
1250.50 129.1012
1250.60 129.1559
1250.70 129.2105
1250.80 129.2652
1250.90 129.3198
1251.00 129.3745
1251.10 129.4292
1251.20 129.4838
1251.30 129.5385
1251.40 129.5931
1251.50 129.6478
1251.60 129.7024
1251.70 129.7571
1251.80 129.8117
1251.90 129.8664
1252.00 129.921
1252.10 129.9757
1252.20 130.0303
1252.30 130.085
1252.40 130.1396
1252.50 130.1943
1252.60 130.2489
1252.70 130.3036
1252.80 130.3582
1252.90 130.4129
1253.00 130.4675
1253.10 130.5222
1253.20 130.5768
1253.30 130.6315
1253.40 130.6861
1253.50 130.7408
1253.60 130.7954
1253.70 130.8501
1253.80 130.9047
1253.90 130.9594
1254.00 131.014
1254.10 131.0687
1254.20 131.1233
1254.30 131.178
1254.40 131.2326
1254.50 131.2873
1254.60 131.3771
1254.70 131.4708
1254.80 131.5645
1254.90 131.6583
1255.00 131.752
1255.10 131.8457
1255.20 131.9394
1255.30 132.0332
1255.40 132.1269
1255.50 132.2206
1255.60 132.3143
1255.70 132.4081
1255.80 132.5018
1255.90 132.5955
1256.00 132.6892
1256.10 132.783
1256.20 132.8767
1256.30 132.9704
1256.40 133.0641
1256.50 133.1579
1256.60 133.2516
1256.70 133.3453
1256.80 133.439
1256.90 133.5328
1257.00 133.6265
1257.10 133.7202
1257.20 133.8139
1257.30 133.9077
1257.40 134.0014
1257.50 134.0951
1257.60 134.1888
1257.70 134.2826
1257.80 134.3763
1257.90 134.47
1258.00 134.5637
1258.10 134.6575
1258.20 134.7512
1258.30 134.8449
1258.40 134.9386
1258.50 135.0324
1258.60 135.1261
1258.70 135.2198
1258.80 135.3135
1258.90 135.4107
1259.00 135.5092
1259.10 135.6078
1259.20 135.7064
1259.30 135.805
1259.40 135.9036
1259.50 136.0022
1259.60 136.1007
1259.70 136.1993
1259.80 136.2979
1259.90 136.3965
1260.00 136.4951
1260.10 136.5937
1260.20 136.6922
1260.30 136.7908
1260.40 136.8894
1260.50 136.988
1260.60 137.0866
1260.70 137.1852
1260.80 137.2838
1260.90 137.3823
1261.00 137.4809
1261.10 137.5795
1261.20 137.6781
1261.30 137.7767
1261.40 137.8753
1261.50 137.9738
1261.60 138.0724
1261.70 138.171
1261.80 138.2696
1261.90 138.3682
1262.00 138.4668
1262.10 138.5654
1262.20 138.6639
1262.30 138.7625
1262.40 138.8611
1262.50 138.9597
1262.60 139.0583
1262.70 139.1569
1262.80 139.2554
1262.90 139.354
1263.00 139.4526
1263.10 139.5512
1263.20 139.6256
1263.30 139.6838
1263.40 139.742
1263.50 139.8002
1263.60 139.8584
1263.70 139.9166
1263.80 139.9748
1263.90 140.033
1264.00 140.0912
1264.10 140.1494
1264.20 140.2076
1264.30 140.2658
1264.40 140.3241
1264.50 140.3823
1264.60 140.4405
1264.70 140.4987
1264.80 140.5569
1264.90 140.6151
1265.00 140.6733
1265.10 140.7315
1265.20 140.7897
1265.30 140.8479
1265.40 140.9061
1265.50 140.9643
1265.60 141.0226
1265.70 141.0808
1265.80 141.139
1265.90 141.1972
1266.00 141.2554
1266.10 141.3136
1266.20 141.3718
1266.30 141.43
1266.40 141.4882
1266.50 141.5464
1266.60 141.6046
1266.70 141.6629
1266.80 141.7211
1266.90 141.7793
1267.00 141.8375
1267.10 141.8957
1267.20 141.9539
1267.30 142.0121
1267.40 142.0703
1267.50 142.1252
1267.60 142.1769
1267.70 142.2285
1267.80 142.2802
1267.90 142.3318
1268.00 142.3834
1268.10 142.4351
1268.20 142.4867
1268.30 142.5384
1268.40 142.59
1268.50 142.6417
1268.60 142.6933
1268.70 142.7449
1268.80 142.7966
1268.90 142.8482
1269.00 142.8999
1269.10 142.9515
1269.20 143.0031
1269.30 143.0548
1269.40 143.1064
1269.50 143.1581
1269.60 143.2097
1269.70 143.2614
1269.80 143.313
1269.90 143.3646
1270.00 143.4163
1270.10 143.4679
1270.20 143.5196
1270.30 143.5712
1270.40 143.6228
1270.50 143.6745
1270.60 143.7261
1270.70 143.7778
1270.80 143.8294
1270.90 143.8811
1271.00 143.9327
1271.10 143.9843
1271.20 144.036
1271.30 144.0876
1271.40 144.1393
1271.50 144.1909
1271.60 144.2425
1271.70 144.2942
1271.80 144.3315
1271.90 144.3354
1272.00 144.3392
1272.10 144.3431
1272.20 144.3469
1272.30 144.3508
1272.40 144.3546
1272.50 144.3585
1272.60 144.3624
1272.70 144.3662
1272.80 144.3701
1272.90 144.3739
1273.00 144.3778
1273.10 144.3817
1273.20 144.3855
1273.30 144.3894
1273.40 144.3932
1273.50 144.3971
1273.60 144.4009
1273.70 144.4048
1273.80 144.4087
1273.90 144.4125
1274.00 144.4164
1274.10 144.4202
1274.20 144.4241
1274.30 144.4279
1274.40 144.4318
1274.50 144.4357
1274.60 144.4395
1274.70 144.4434
1274.80 144.4472
1274.90 144.4511
1275.00 144.455
1275.10 144.4588
1275.20 144.4627
1275.30 144.4665
1275.40 144.4704
1275.50 144.4742
1275.60 144.4781
1275.70 144.482
1275.80 144.4858
1275.90 144.4897
1276.00 144.4935
1276.10 144.4947
1276.20 144.4719
1276.30 144.4491
1276.40 144.4263
1276.50 144.4035
1276.60 144.3806
1276.70 144.3578
1276.80 144.335
1276.90 144.3122
1277.00 144.2894
1277.10 144.2666
1277.20 144.2438
1277.30 144.2209
1277.40 144.1981
1277.50 144.1753
1277.60 144.1525
1277.70 144.1297
1277.80 144.1069
1277.90 144.084
1278.00 144.0612
1278.10 144.0384
1278.20 144.0156
1278.30 143.9928
1278.40 143.97
1278.50 143.9472
1278.60 143.9243
1278.70 143.9015
1278.80 143.8787
1278.90 143.8559
1279.00 143.8331
1279.10 143.8103
1279.20 143.7874
1279.30 143.7646
1279.40 143.7418
1279.50 143.719
1279.60 143.6962
1279.70 143.6734
1279.80 143.6505
1279.90 143.6277
1280.00 143.6049
1280.10 143.5821
1280.20 143.5593
1280.30 143.5365
1280.40 143.5137
1280.50 143.5111
1280.60 143.5085
1280.70 143.5059
1280.80 143.5033
1280.90 143.5007
1281.00 143.4981
1281.10 143.4955
1281.20 143.4929
1281.30 143.4903
1281.40 143.4877
1281.50 143.4852
1281.60 143.4826
1281.70 143.48
1281.80 143.4774
1281.90 143.4748
1282.00 143.4722
1282.10 143.4696
1282.20 143.467
1282.30 143.4644
1282.40 143.4618
1282.50 143.4593
1282.60 143.4567
1282.70 143.4541
1282.80 143.4515
1282.90 143.4489
1283.00 143.4463
1283.10 143.4437
1283.20 143.4411
1283.30 143.4385
1283.40 143.4359
1283.50 143.4333
1283.60 143.4308
1283.70 143.4282
1283.80 143.4256
1283.90 143.423
1284.00 143.4204
1284.10 143.4178
1284.20 143.4152
1284.30 143.4126
1284.40 143.41
1284.50 143.4074
1284.60 143.4049
1284.70 143.4023
1284.80 143.4153
1284.90 143.4323
1285.00 143.4493
1285.10 143.4663
1285.20 143.4832
1285.30 143.5002
1285.40 143.5172
1285.50 143.5342
1285.60 143.5511
1285.70 143.5681
1285.80 143.5851
1285.90 143.6021
1286.00 143.619
1286.10 143.636
1286.20 143.653
1286.30 143.67
1286.40 143.6869
1286.50 143.7039
1286.60 143.7209
1286.70 143.7379
1286.80 143.7548
1286.90 143.7718
1287.00 143.7888
1287.10 143.8058
1287.20 143.8227
1287.30 143.8397
1287.40 143.8567
1287.50 143.8737
1287.60 143.8906
1287.70 143.9076
1287.80 143.9246
1287.90 143.9416
1288.00 143.9585
1288.10 143.9755
1288.20 143.9925
1288.30 144.0095
1288.40 144.0265
1288.50 144.0434
1288.60 144.0604
1288.70 144.0774
1288.80 144.0944
1288.90 144.1113
1289.00 144.1283
1289.10 144.1127
1289.20 144.0752
1289.30 144.0378
1289.40 144.0004
1289.50 143.963
1289.60 143.9256
1289.70 143.8882
1289.80 143.8508
1289.90 143.8134
1290.00 143.776
1290.10 143.7386
1290.20 143.7012
1290.30 143.6637
1290.40 143.6263
1290.50 143.5889
1290.60 143.5515
1290.70 143.5141
1290.80 143.4767
1290.90 143.4393
1291.00 143.4019
1291.10 143.3645
1291.20 143.3271
1291.30 143.2897
1291.40 143.2522
1291.50 143.2148
1291.60 143.1774
1291.70 143.14
1291.80 143.1026
1291.90 143.0652
1292.00 143.0278
1292.10 142.9904
1292.20 142.953
1292.30 142.9156
1292.40 142.8782
1292.50 142.8407
1292.60 142.8033
1292.70 142.7659
1292.80 142.7285
1292.90 142.6911
1293.00 142.6537
1293.10 142.6163
1293.20 142.5789
1293.30 142.5415
1293.40 142.5162
1293.50 142.509
1293.60 142.5018
1293.70 142.4946
1293.80 142.4875
1293.90 142.4803
1294.00 142.4731
1294.10 142.4659
1294.20 142.4588
1294.30 142.4516
1294.40 142.4444
1294.50 142.4372
1294.60 142.4301
1294.70 142.4229
1294.80 142.4157
1294.90 142.4085
1295.00 142.4014
1295.10 142.3942
1295.20 142.387
1295.30 142.3798
1295.40 142.3727
1295.50 142.3655
1295.60 142.3583
1295.70 142.3512
1295.80 142.344
1295.90 142.3368
1296.00 142.3296
1296.10 142.3225
1296.20 142.3153
1296.30 142.3081
1296.40 142.3009
1296.50 142.2938
1296.60 142.2866
1296.70 142.2794
1296.80 142.2722
1296.90 142.2651
1297.00 142.2579
1297.10 142.2507
1297.20 142.2435
1297.30 142.2364
1297.40 142.2292
1297.50 142.222
1297.60 142.2148
1297.70 142.2106
1297.80 142.2182
1297.90 142.2258
1298.00 142.2333
1298.10 142.2409
1298.20 142.2485
1298.30 142.2561
1298.40 142.2636
1298.50 142.2712
1298.60 142.2788
1298.70 142.2864
1298.80 142.2939
1298.90 142.3015
1299.00 142.3091
1299.10 142.3167
1299.20 142.3242
1299.30 142.3318
1299.40 142.3394
1299.50 142.3469
1299.60 142.3545
1299.70 142.3621
1299.80 142.3697
1299.90 142.3772
