# Version 2.1 - nm, norm@500 to 1, cut digits
# Wavelength(nm)  Flambda(ergs/cm^s/s/nm)
300.00 1.321538e-95
300.10 1.321538e-95
300.20 1.321538e-95
300.30 1.321538e-95
300.40 1.321538e-95
300.50 1.321538e-95
300.60 1.321538e-95
300.70 1.321538e-95
300.80 1.321538e-95
300.90 1.321538e-95
301.00 1.321538e-95
301.10 1.321538e-95
301.20 1.321538e-95
301.30 1.321538e-95
301.40 1.321538e-95
301.50 1.321538e-95
301.60 1.321538e-95
301.70 1.321538e-95
301.80 1.321538e-95
301.90 1.321538e-95
302.00 1.321538e-95
302.10 1.321538e-95
302.20 1.321538e-95
302.30 1.321538e-95
302.40 1.321538e-95
302.50 1.321538e-95
302.60 1.321538e-95
302.70 1.321538e-95
302.80 1.321538e-95
302.90 1.321538e-95
303.00 1.321538e-95
303.10 1.321538e-95
303.20 1.321538e-95
303.30 1.321538e-95
303.40 1.321538e-95
303.50 1.321538e-95
303.60 1.321538e-95
303.70 1.321538e-95
303.80 1.321538e-95
303.90 1.321538e-95
304.00 1.321538e-95
304.10 1.321538e-95
304.20 1.321538e-95
304.30 1.321538e-95
304.40 1.321538e-95
304.50 1.321538e-95
304.60 1.321538e-95
304.70 1.321538e-95
304.80 1.321538e-95
304.90 1.321538e-95
305.00 1.321538e-95
305.10 1.321538e-95
305.20 1.321538e-95
305.30 1.321538e-95
305.40 1.321538e-95
305.50 1.321538e-95
305.60 1.321538e-95
305.70 1.321538e-95
305.80 1.321538e-95
305.90 1.321538e-95
306.00 1.321538e-95
306.10 1.321538e-95
306.20 1.321538e-95
306.30 1.321538e-95
306.40 1.321538e-95
306.50 1.321538e-95
306.60 1.321538e-95
306.70 1.321538e-95
306.80 1.321538e-95
306.90 1.321538e-95
307.00 1.321538e-95
307.10 1.321538e-95
307.20 1.321538e-95
307.30 1.321538e-95
307.40 1.321538e-95
307.50 1.321538e-95
307.60 1.321538e-95
307.70 1.321538e-95
307.80 1.321538e-95
307.90 1.321538e-95
308.00 1.321538e-95
308.10 1.321538e-95
308.20 1.321538e-95
308.30 1.321538e-95
308.40 1.321538e-95
308.50 1.321538e-95
308.60 1.321538e-95
308.70 1.321538e-95
308.80 1.321538e-95
308.90 1.321538e-95
309.00 1.321538e-95
309.10 1.321538e-95
309.20 1.321538e-95
309.30 1.321538e-95
309.40 1.321538e-95
309.50 1.321538e-95
309.60 1.321538e-95
309.70 1.321538e-95
309.80 1.321538e-95
309.90 1.321538e-95
310.00 1.321538e-95
310.10 1.321538e-95
310.20 1.321538e-95
310.30 1.321538e-95
310.40 1.321538e-95
310.50 1.321538e-95
310.60 1.321538e-95
310.70 1.321538e-95
310.80 1.321538e-95
310.90 1.321538e-95
311.00 1.321538e-95
311.10 1.321538e-95
311.20 1.321538e-95
311.30 1.321538e-95
311.40 1.321538e-95
311.50 1.321538e-95
311.60 1.321538e-95
311.70 1.321538e-95
311.80 1.321538e-95
311.90 1.321538e-95
312.00 1.321538e-95
312.10 1.321538e-95
312.20 1.321538e-95
312.30 1.321538e-95
312.40 1.321538e-95
312.50 1.321538e-95
312.60 1.321538e-95
312.70 1.321538e-95
312.80 1.321538e-95
312.90 1.321538e-95
313.00 1.321538e-95
313.10 1.321538e-95
313.20 1.321538e-95
313.30 1.321538e-95
313.40 1.321538e-95
313.50 1.321538e-95
313.60 1.321538e-95
313.70 1.321538e-95
313.80 1.321538e-95
313.90 1.321538e-95
314.00 1.321538e-95
314.10 1.321538e-95
314.20 1.321538e-95
314.30 1.321538e-95
314.40 1.321538e-95
314.50 1.321538e-95
314.60 1.321538e-95
314.70 1.321538e-95
314.80 1.321538e-95
314.90 1.321538e-95
315.00 1.321538e-95
315.10 1.321538e-95
315.20 1.321538e-95
315.30 1.321538e-95
315.40 1.321538e-95
315.50 1.321538e-95
315.60 1.321538e-95
315.70 1.321538e-95
315.80 1.321538e-95
315.90 1.321538e-95
316.00 1.321538e-95
316.10 1.321538e-95
316.20 1.321538e-95
316.30 1.321538e-95
316.40 1.321538e-95
316.50 1.321538e-95
316.60 1.321538e-95
316.70 1.321538e-95
316.80 1.321538e-95
316.90 1.321538e-95
317.00 1.321538e-95
317.10 1.321538e-95
317.20 1.321538e-95
317.30 1.321538e-95
317.40 1.321538e-95
317.50 1.321538e-95
317.60 1.321538e-95
317.70 1.321538e-95
317.80 1.321538e-95
317.90 1.321538e-95
318.00 1.321538e-95
318.10 1.321538e-95
318.20 1.321538e-95
318.30 1.321538e-95
318.40 1.321538e-95
318.50 1.321538e-95
318.60 1.321538e-95
318.70 1.321538e-95
318.80 1.321538e-95
318.90 1.321538e-95
319.00 1.321538e-95
319.10 1.321538e-95
319.20 1.321538e-95
319.30 1.321538e-95
319.40 1.321538e-95
319.50 1.321538e-95
319.60 1.321538e-95
319.70 1.321538e-95
319.80 1.321538e-95
319.90 1.321538e-95
320.00 1.321538e-95
320.10 1.321538e-95
320.20 1.321538e-95
320.30 1.321538e-95
320.40 1.321538e-95
320.50 1.321538e-95
320.60 1.321538e-95
320.70 1.321538e-95
320.80 1.321538e-95
320.90 1.321538e-95
321.00 1.321538e-95
321.10 1.321538e-95
321.20 1.321538e-95
321.30 1.321538e-95
321.40 1.321538e-95
321.50 1.321538e-95
321.60 1.321538e-95
321.70 1.321538e-95
321.80 1.321538e-95
321.90 1.321538e-95
322.00 1.321538e-95
322.10 1.321538e-95
322.20 1.321538e-95
322.30 1.321538e-95
322.40 1.321538e-95
322.50 1.321538e-95
322.60 1.321538e-95
322.70 1.321538e-95
322.80 1.321538e-95
322.90 1.321538e-95
323.00 1.321538e-95
323.10 1.321538e-95
323.20 1.321538e-95
323.30 1.321538e-95
323.40 1.321538e-95
323.50 1.321538e-95
323.60 1.321538e-95
323.70 1.321538e-95
323.80 1.321538e-95
323.90 1.321538e-95
324.00 1.321538e-95
324.10 1.321538e-95
324.20 1.321538e-95
324.30 1.321538e-95
324.40 1.321538e-95
324.50 1.321538e-95
324.60 1.321538e-95
324.70 1.321538e-95
324.80 1.321538e-95
324.90 1.321538e-95
325.00 1.321538e-95
325.10 1.321538e-95
325.20 1.321538e-95
325.30 1.321538e-95
325.40 1.321538e-95
325.50 1.321538e-95
325.60 1.321538e-95
325.70 1.321538e-95
325.80 1.321538e-95
325.90 1.321538e-95
326.00 1.321538e-95
326.10 1.321538e-95
326.20 1.321538e-95
326.30 1.321538e-95
326.40 1.321538e-95
326.50 1.321538e-95
326.60 1.321538e-95
326.70 1.321538e-95
326.80 1.321538e-95
326.90 1.321538e-95
327.00 1.321538e-95
327.10 1.321538e-95
327.20 1.321538e-95
327.30 1.321538e-95
327.40 1.321538e-95
327.50 1.321538e-95
327.60 1.321538e-95
327.70 1.321538e-95
327.80 1.321538e-95
327.90 1.321538e-95
328.00 1.321538e-95
328.10 1.321538e-95
328.20 1.321538e-95
328.30 1.321538e-95
328.40 1.321538e-95
328.50 1.321538e-95
328.60 1.321538e-95
328.70 1.321538e-95
328.80 1.321538e-95
328.90 1.321538e-95
329.00 1.321538e-95
329.10 1.321538e-95
329.20 1.321538e-95
329.30 1.321538e-95
329.40 1.321538e-95
329.50 1.321538e-95
329.60 1.321538e-95
329.70 1.321538e-95
329.80 1.321538e-95
329.90 1.321538e-95
330.00 1.321538e-95
330.10 1.321538e-95
330.20 1.321538e-95
330.30 1.321538e-95
330.40 1.321538e-95
330.50 1.321538e-95
330.60 1.321538e-95
330.70 1.321538e-95
330.80 1.321538e-95
330.90 1.321538e-95
331.00 1.321538e-95
331.10 1.321538e-95
331.20 1.321538e-95
331.30 1.321538e-95
331.40 1.321538e-95
331.50 1.321538e-95
331.60 1.321538e-95
331.70 1.321538e-95
331.80 1.321538e-95
331.90 1.321538e-95
332.00 1.321538e-95
332.10 1.321538e-95
332.20 1.321538e-95
332.30 1.321538e-95
332.40 1.321538e-95
332.50 1.321538e-95
332.60 1.321538e-95
332.70 1.321538e-95
332.80 1.321538e-95
332.90 1.321538e-95
333.00 1.321538e-95
333.10 1.321538e-95
333.20 1.321538e-95
333.30 1.321538e-95
333.40 1.321538e-95
333.50 1.321538e-95
333.60 1.321538e-95
333.70 1.321538e-95
333.80 1.321538e-95
333.90 1.321538e-95
334.00 1.321538e-95
334.10 1.321538e-95
334.20 1.321538e-95
334.30 1.321538e-95
334.40 1.321538e-95
334.50 1.321538e-95
334.60 1.321538e-95
334.70 1.321538e-95
334.80 1.321538e-95
334.90 1.321538e-95
335.00 1.321538e-95
335.10 1.321538e-95
335.20 1.321538e-95
335.30 1.321538e-95
335.40 1.321538e-95
335.50 1.321538e-95
335.60 1.321538e-95
335.70 1.321538e-95
335.80 1.321538e-95
335.90 1.321538e-95
336.00 1.321538e-95
336.10 1.321538e-95
336.20 1.321538e-95
336.30 1.321538e-95
336.40 1.321538e-95
336.50 1.321538e-95
336.60 1.321538e-95
336.70 1.321538e-95
336.80 1.321538e-95
336.90 1.321538e-95
337.00 1.321538e-95
337.10 1.321538e-95
337.20 1.321538e-95
337.30 1.321538e-95
337.40 1.321538e-95
337.50 1.321538e-95
337.60 1.321538e-95
337.70 1.321538e-95
337.80 1.321538e-95
337.90 1.321538e-95
338.00 1.321538e-95
338.10 1.321538e-95
338.20 1.321538e-95
338.30 1.321538e-95
338.40 1.321538e-95
338.50 1.321538e-95
338.60 1.321538e-95
338.70 1.321538e-95
338.80 1.321538e-95
338.90 1.321538e-95
339.00 1.321538e-95
339.10 1.321538e-95
339.20 1.321538e-95
339.30 1.321538e-95
339.40 1.321538e-95
339.50 1.321538e-95
339.60 1.321538e-95
339.70 1.321538e-95
339.80 1.321538e-95
339.90 1.321538e-95
340.00 1.321538e-95
340.10 1.321538e-95
340.20 1.321538e-95
340.30 1.321538e-95
340.40 1.321538e-95
340.50 1.321538e-95
340.60 1.321538e-95
340.70 1.321538e-95
340.80 1.321538e-95
340.90 1.321538e-95
341.00 1.321538e-95
341.10 1.321538e-95
341.20 1.321538e-95
341.30 1.321538e-95
341.40 1.321538e-95
341.50 1.321538e-95
341.60 1.321538e-95
341.70 1.321538e-95
341.80 1.321538e-95
341.90 1.321538e-95
342.00 1.321538e-95
342.10 1.321538e-95
342.20 1.321538e-95
342.30 1.321538e-95
342.40 1.321538e-95
342.50 1.321538e-95
342.60 1.321538e-95
342.70 1.321538e-95
342.80 1.321538e-95
342.90 1.321538e-95
343.00 1.321538e-95
343.10 1.321538e-95
343.20 1.321538e-95
343.30 1.321538e-95
343.40 1.321538e-95
343.50 1.321538e-95
343.60 1.321538e-95
343.70 1.321538e-95
343.80 1.321538e-95
343.90 1.321538e-95
344.00 1.321538e-95
344.10 1.321538e-95
344.20 1.321538e-95
344.30 1.321538e-95
344.40 1.321538e-95
344.50 1.321538e-95
344.60 1.321538e-95
344.70 1.321538e-95
344.80 1.321538e-95
344.90 1.321538e-95
345.00 1.321538e-95
345.10 1.321538e-95
345.20 1.321538e-95
345.30 1.321538e-95
345.40 1.321538e-95
345.50 1.321538e-95
345.60 1.321538e-95
345.70 1.321538e-95
345.80 1.321538e-95
345.90 1.321538e-95
346.00 1.321538e-95
346.10 1.321538e-95
346.20 1.321538e-95
346.30 1.321538e-95
346.40 1.321538e-95
346.50 1.321538e-95
346.60 1.321538e-95
346.70 1.321538e-95
346.80 1.321538e-95
346.90 1.321538e-95
347.00 1.321538e-95
347.10 1.321538e-95
347.20 1.321538e-95
347.30 1.321538e-95
347.40 1.321538e-95
347.50 1.321538e-95
347.60 1.321538e-95
347.70 1.321538e-95
347.80 1.321538e-95
347.90 1.321538e-95
348.00 1.321538e-95
348.10 1.321538e-95
348.20 1.321538e-95
348.30 1.321538e-95
348.40 1.321538e-95
348.50 1.321538e-95
348.60 1.321538e-95
348.70 1.321538e-95
348.80 1.321538e-95
348.90 1.321538e-95
349.00 1.321538e-95
349.10 1.321538e-95
349.20 1.321538e-95
349.30 1.321538e-95
349.40 1.321538e-95
349.50 1.321538e-95
349.60 1.321538e-95
349.70 1.321538e-95
349.80 1.321538e-95
349.90 1.321538e-95
350.00 1.321538e-95
350.10 1.321538e-95
350.20 1.321538e-95
350.30 1.321538e-95
350.40 1.321538e-95
350.50 1.321538e-95
350.60 1.321538e-95
350.70 1.321538e-95
350.80 1.321538e-95
350.90 1.321538e-95
351.00 1.321538e-95
351.10 1.321538e-95
351.20 1.321538e-95
351.30 1.321538e-95
351.40 1.321538e-95
351.50 1.321538e-95
351.60 1.321538e-95
351.70 1.321538e-95
351.80 1.321538e-95
351.90 1.321538e-95
352.00 1.321538e-95
352.10 1.321538e-95
352.20 1.321538e-95
352.30 1.321538e-95
352.40 1.321538e-95
352.50 1.321538e-95
352.60 1.321538e-95
352.70 1.321538e-95
352.80 1.321538e-95
352.90 1.321538e-95
353.00 1.321538e-95
353.10 1.321538e-95
353.20 1.321538e-95
353.30 1.321538e-95
353.40 1.321538e-95
353.50 1.321538e-95
353.60 1.321538e-95
353.70 1.321538e-95
353.80 1.321538e-95
353.90 1.321538e-95
354.00 1.321538e-95
354.10 1.321538e-95
354.20 1.321538e-95
354.30 1.321538e-95
354.40 1.321538e-95
354.50 1.321538e-95
354.60 1.321538e-95
354.70 1.321538e-95
354.80 1.321538e-95
354.90 1.321538e-95
355.00 1.321538e-95
355.10 1.321538e-95
355.20 1.321538e-95
355.30 1.321538e-95
355.40 1.321538e-95
355.50 1.321538e-95
355.60 1.321538e-95
355.70 1.321538e-95
355.80 1.321538e-95
355.90 1.321538e-95
356.00 1.321538e-95
356.10 1.321538e-95
356.20 1.321538e-95
356.30 1.321538e-95
356.40 1.321538e-95
356.50 1.321538e-95
356.60 1.321538e-95
356.70 1.321538e-95
356.80 1.321538e-95
356.90 1.321538e-95
357.00 1.321538e-95
357.10 1.321538e-95
357.20 1.321538e-95
357.30 1.321538e-95
357.40 1.321538e-95
357.50 1.321538e-95
357.60 1.321538e-95
357.70 1.321538e-95
357.80 1.321538e-95
357.90 1.321538e-95
358.00 1.321538e-95
358.10 1.321538e-95
358.20 1.321538e-95
358.30 1.321538e-95
358.40 1.321538e-95
358.50 1.321538e-95
358.60 1.321538e-95
358.70 1.321538e-95
358.80 1.321538e-95
358.90 1.321538e-95
359.00 1.321538e-95
359.10 1.321538e-95
359.20 1.321538e-95
359.30 1.321538e-95
359.40 1.321538e-95
359.50 1.321538e-95
359.60 1.321538e-95
359.70 1.321538e-95
359.80 1.321538e-95
359.90 1.321538e-95
360.00 1.321538e-95
360.10 1.321538e-95
360.20 1.321538e-95
360.30 1.321538e-95
360.40 1.321538e-95
360.50 1.321538e-95
360.60 1.321538e-95
360.70 1.321538e-95
360.80 1.321538e-95
360.90 1.321538e-95
361.00 1.321538e-95
361.10 1.321538e-95
361.20 1.321538e-95
361.30 1.321538e-95
361.40 1.321538e-95
361.50 1.321538e-95
361.60 1.321538e-95
361.70 1.321538e-95
361.80 1.321538e-95
361.90 1.321538e-95
362.00 1.321538e-95
362.10 1.321538e-95
362.20 1.321538e-95
362.30 1.321538e-95
362.40 1.321538e-95
362.50 1.321538e-95
362.60 1.321538e-95
362.70 1.321538e-95
362.80 1.321538e-95
362.90 1.321538e-95
363.00 1.321538e-95
363.10 1.321538e-95
363.20 1.321538e-95
363.30 1.321538e-95
363.40 1.321538e-95
363.50 1.321538e-95
363.60 1.321538e-95
363.70 1.321538e-95
363.80 1.321538e-95
363.90 1.321538e-95
364.00 1.321538e-95
364.10 1.321538e-95
364.20 1.321538e-95
364.30 1.321538e-95
364.40 1.321538e-95
364.50 1.321538e-95
364.60 1.321538e-95
364.70 1.321538e-95
364.80 1.321538e-95
364.90 1.321538e-95
365.00 1.321538e-95
365.10 1.321538e-95
365.20 1.321538e-95
365.30 1.321538e-95
365.40 1.321538e-95
365.50 1.321538e-95
365.60 1.321538e-95
365.70 1.321538e-95
365.80 1.321538e-95
365.90 1.321538e-95
366.00 1.321538e-95
366.10 1.321538e-95
366.20 1.321538e-95
366.30 1.321538e-95
366.40 1.321538e-95
366.50 1.321538e-95
366.60 1.321538e-95
366.70 1.321538e-95
366.80 1.321538e-95
366.90 1.321538e-95
367.00 1.321538e-95
367.10 1.321538e-95
367.20 1.321538e-95
367.30 1.321538e-95
367.40 1.321538e-95
367.50 1.321538e-95
367.60 1.321538e-95
367.70 1.321538e-95
367.80 1.321538e-95
367.90 1.321538e-95
368.00 1.321538e-95
368.10 1.321538e-95
368.20 1.321538e-95
368.30 1.321538e-95
368.40 1.321538e-95
368.50 1.321538e-95
368.60 1.321538e-95
368.70 1.321538e-95
368.80 1.321538e-95
368.90 1.321538e-95
369.00 1.321538e-95
369.10 1.321538e-95
369.20 1.321538e-95
369.30 1.321538e-95
369.40 1.321538e-95
369.50 1.321538e-95
369.60 1.321538e-95
369.70 1.321538e-95
369.80 1.321538e-95
369.90 1.321538e-95
370.00 1.321538e-95
370.10 1.321538e-95
370.20 1.321538e-95
370.30 1.321538e-95
370.40 1.321538e-95
370.50 1.321538e-95
370.60 1.321538e-95
370.70 1.321538e-95
370.80 1.321538e-95
370.90 1.321538e-95
371.00 1.321538e-95
371.10 1.321538e-95
371.20 1.321538e-95
371.30 1.321538e-95
371.40 1.321538e-95
371.50 1.321538e-95
371.60 1.321538e-95
371.70 1.321538e-95
371.80 1.321538e-95
371.90 1.321538e-95
372.00 1.321538e-95
372.10 1.321538e-95
372.20 1.321538e-95
372.30 1.321538e-95
372.40 1.321538e-95
372.50 1.321538e-95
372.60 1.321538e-95
372.70 1.321538e-95
372.80 1.321538e-95
372.90 1.321538e-95
373.00 1.321538e-95
373.10 1.321538e-95
373.20 1.321538e-95
373.30 1.321538e-95
373.40 1.321538e-95
373.50 1.321538e-95
373.60 1.321538e-95
373.70 1.321538e-95
373.80 1.321538e-95
373.90 1.321538e-95
374.00 1.321538e-95
374.10 1.321538e-95
374.20 1.321538e-95
374.30 1.321538e-95
374.40 1.321538e-95
374.50 1.321538e-95
374.60 1.321538e-95
374.70 1.321538e-95
374.80 1.321538e-95
374.90 1.321538e-95
375.00 1.321538e-95
375.10 1.321538e-95
375.20 1.321538e-95
375.30 1.321538e-95
375.40 1.321538e-95
375.50 1.321538e-95
375.60 1.321538e-95
375.70 1.321538e-95
375.80 1.321538e-95
375.90 1.321538e-95
376.00 1.321538e-95
376.10 1.321538e-95
376.20 1.321538e-95
376.30 1.321538e-95
376.40 1.321538e-95
376.50 1.321538e-95
376.60 1.321538e-95
376.70 1.321538e-95
376.80 1.321538e-95
376.90 1.321538e-95
377.00 1.321538e-95
377.10 1.321538e-95
377.20 1.321538e-95
377.30 1.321538e-95
377.40 1.321538e-95
377.50 1.321538e-95
377.60 1.321538e-95
377.70 1.321538e-95
377.80 1.321538e-95
377.90 1.321538e-95
378.00 1.321538e-95
378.10 1.321538e-95
378.20 1.321538e-95
378.30 1.321538e-95
378.40 1.321538e-95
378.50 1.321538e-95
378.60 1.321538e-95
378.70 1.321538e-95
378.80 1.321538e-95
378.90 1.321538e-95
379.00 1.321538e-95
379.10 1.321538e-95
379.20 1.321538e-95
379.30 1.321538e-95
379.40 1.321538e-95
379.50 1.321538e-95
379.60 1.321538e-95
379.70 1.321538e-95
379.80 1.321538e-95
379.90 1.321538e-95
380.00 1.321538e-95
380.10 1.321538e-95
380.20 1.321538e-95
380.30 1.321538e-95
380.40 1.321538e-95
380.50 1.321538e-95
380.60 1.321538e-95
380.70 1.321538e-95
380.80 1.321538e-95
380.90 1.321538e-95
381.00 1.321538e-95
381.10 1.321538e-95
381.20 1.321538e-95
381.30 1.321538e-95
381.40 1.321538e-95
381.50 1.321538e-95
381.60 1.321538e-95
381.70 1.321538e-95
381.80 1.321538e-95
381.90 1.321538e-95
382.00 1.321538e-95
382.10 1.321538e-95
382.20 1.321538e-95
382.30 1.321538e-95
382.40 1.321538e-95
382.50 1.321538e-95
382.60 1.321538e-95
382.70 1.321538e-95
382.80 1.321538e-95
382.90 1.321538e-95
383.00 1.321538e-95
383.10 1.321538e-95
383.20 1.321538e-95
383.30 1.321538e-95
383.40 1.321538e-95
383.50 1.321538e-95
383.60 1.321538e-95
383.70 1.321538e-95
383.80 1.321538e-95
383.90 1.321538e-95
384.00 1.321538e-95
384.10 1.321538e-95
384.20 1.321538e-95
384.30 1.321538e-95
384.40 1.321538e-95
384.50 1.321538e-95
384.60 1.321538e-95
384.70 1.321538e-95
384.80 1.321538e-95
384.90 1.321538e-95
385.00 1.321538e-95
385.10 1.321538e-95
385.20 1.321538e-95
385.30 1.321538e-95
385.40 1.321538e-95
385.50 1.321538e-95
385.60 1.321538e-95
385.70 1.321538e-95
385.80 1.321538e-95
385.90 1.321538e-95
386.00 1.321538e-95
386.10 1.321538e-95
386.20 1.321538e-95
386.30 1.321538e-95
386.40 1.321538e-95
386.50 1.321538e-95
386.60 1.321538e-95
386.70 1.321538e-95
386.80 1.321538e-95
386.90 1.321538e-95
387.00 1.321538e-95
387.10 1.321538e-95
387.20 1.321538e-95
387.30 1.321538e-95
387.40 1.321538e-95
387.50 1.321538e-95
387.60 1.321538e-95
387.70 1.321538e-95
387.80 1.321538e-95
387.90 1.321538e-95
388.00 1.321538e-95
388.10 1.321538e-95
388.20 1.321538e-95
388.30 1.321538e-95
388.40 1.321538e-95
388.50 1.321538e-95
388.60 1.321538e-95
388.70 1.321538e-95
388.80 1.321538e-95
388.90 1.321538e-95
389.00 1.321538e-95
389.10 1.321538e-95
389.20 1.321538e-95
389.30 1.321538e-95
389.40 1.321538e-95
389.50 1.321538e-95
389.60 1.321538e-95
389.70 1.321538e-95
389.80 1.321538e-95
389.90 1.321538e-95
390.00 1.321538e-95
390.10 1.321538e-95
390.20 1.321538e-95
390.30 1.321538e-95
390.40 1.321538e-95
390.50 1.321538e-95
390.60 1.321538e-95
390.70 1.321538e-95
390.80 1.321538e-95
390.90 1.321538e-95
391.00 1.321538e-95
391.10 1.321538e-95
391.20 1.321538e-95
391.30 1.321538e-95
391.40 1.321538e-95
391.50 1.321538e-95
391.60 1.321538e-95
391.70 1.321538e-95
391.80 1.321538e-95
391.90 1.321538e-95
392.00 1.321538e-95
392.10 1.321538e-95
392.20 1.321538e-95
392.30 1.321538e-95
392.40 1.321538e-95
392.50 1.321538e-95
392.60 1.321538e-95
392.70 1.321538e-95
392.80 1.321538e-95
392.90 1.321538e-95
393.00 1.321538e-95
393.10 1.321538e-95
393.20 1.321538e-95
393.30 1.321538e-95
393.40 1.321538e-95
393.50 1.321538e-95
393.60 1.321538e-95
393.70 1.321538e-95
393.80 1.321538e-95
393.90 1.321538e-95
394.00 1.321538e-95
394.10 1.321538e-95
394.20 1.321538e-95
394.30 1.321538e-95
394.40 1.321538e-95
394.50 1.321538e-95
394.60 1.321538e-95
394.70 1.321538e-95
394.80 1.321538e-95
394.90 1.321538e-95
395.00 0.01585577
395.10 0.03223509
395.20 0.04860383
395.30 0.06425438
395.40 0.07807715
395.50 0.08884294
395.60 0.09594622
395.70 0.09943687
395.80 0.0999376
395.90 0.0999376
396.00 0.0999376
396.10 0.1011788
396.20 0.1062469
396.30 0.115699
396.40 0.1289522
396.50 0.1443309
396.60 0.1597479
396.70 0.1733071
396.80 0.1836922
396.90 0.1903783
397.00 0.1934897
397.10 0.1937303
397.20 0.1937303
397.30 0.1937303
397.40 0.1937303
397.50 0.1941424
397.60 0.1965402
397.70 0.200557
397.80 0.205452
397.90 0.2105515
398.00 0.2154028
398.10 0.219992
398.20 0.2246561
398.30 0.229819
398.40 0.2357915
398.50 0.242745
398.60 0.2502936
398.70 0.2577117
398.80 0.2645244
398.90 0.2704435
399.00 0.2751803
399.10 0.2787266
399.20 0.2814948
399.30 0.2840337
399.40 0.2865703
399.50 0.288885
399.60 0.2908294
399.70 0.2925396
399.80 0.2941049
399.90 0.2952702
400.00 0.2958849
400.10 0.2958849
400.20 0.2958849
400.30 0.2958849
400.40 0.2958849
400.50 0.2958849
400.60 0.2958849
400.70 0.2958849
400.80 0.2974969
400.90 0.3022361
401.00 0.3100082
401.10 0.3200547
401.20 0.3312942
401.30 0.3429703
401.40 0.3547765
401.50 0.3665837
401.60 0.3780399
401.70 0.388244
401.80 0.3961834
401.90 0.4013325
402.00 0.4039055
402.10 0.4046222
402.20 0.4046222
402.30 0.4048044
402.40 0.4060427
402.50 0.4086337
402.60 0.4125637
402.70 0.4175799
402.80 0.4232661
402.90 0.4293114
403.00 0.4354681
403.10 0.441387
403.20 0.4466087
403.30 0.4507041
403.40 0.4533647
403.50 0.4544603
403.60 0.4544603
403.70 0.4544603
403.80 0.4544603
403.90 0.4544603
404.00 0.4544603
404.10 0.4567477
404.20 0.4611834
404.30 0.4670719
404.40 0.4737533
404.50 0.4810873
404.60 0.4893898
404.70 0.4989872
404.80 0.5098753
404.90 0.5217084
405.00 0.5182905
405.10 0.5149847
405.20 0.5127286
405.30 0.5126501
405.40 0.5160608
405.50 0.5245273
405.60 0.5391959
405.70 0.5599262
405.80 0.5851316
405.90 0.6109909
406.00 0.6357322
406.10 0.6570369
406.20 0.6716572
406.30 0.6791443
406.40 0.6807956
406.50 0.6791124
406.60 0.676536
406.70 0.6749815
406.80 0.6760217
406.90 0.6804443
407.00 0.6880272
407.10 0.6978944
407.20 0.7073722
407.30 0.7161589
407.40 0.7238397
407.50 0.7293974
407.60 0.7310827
407.70 0.7296222
407.80 0.7264028
407.90 0.722826
408.00 0.7204477
408.10 0.7206756
408.20 0.7240572
408.30 0.7300753
408.40 0.7378144
408.50 0.7461928
408.60 0.7541112
408.70 0.7606281
408.80 0.7650934
408.90 0.7675726
409.00 0.7687248
409.10 0.7691985
409.20 0.7695828
409.30 0.7706
409.40 0.7731272
409.50 0.777963
409.60 0.7853243
409.70 0.7948177
409.80 0.8056306
409.90 0.8171902
410.00 0.8292669
410.10 0.841748
410.20 0.8538037
410.30 0.8653286
410.40 0.8766132
410.50 0.8883666
410.60 0.9011917
410.70 0.9153067
410.80 0.9291406
410.90 0.9412708
411.00 0.9518825
411.10 0.9614003
411.20 0.9700867
411.30 0.9780199
411.40 0.9849566
411.50 0.9903953
411.60 0.9942867
411.70 0.9973088
411.80 1.000297
411.90 1.003768
412.00 1.007921
412.10 1.012735
412.20 1.017772
412.30 1.022799
412.40 1.027549
412.50 1.032226
412.60 1.036822
412.70 1.040702
412.80 1.043036
412.90 1.043198
413.00 1.04109
413.10 1.037405
413.20 1.03371
413.30 1.031903
413.40 1.033496
413.50 1.039449
413.60 1.049495
413.70 1.061857
413.80 1.075078
413.90 1.087438
414.00 1.097719
414.10 1.10312
414.20 1.103977
414.30 1.101772
414.40 1.09821
414.50 1.094736
414.60 1.091993
414.70 1.090136
414.80 1.089391
414.90 1.089936
415.00 1.091624
415.10 1.0937
415.20 1.094994
415.30 1.094407
415.40 1.091235
415.50 1.084759
415.60 1.074081
415.70 1.05927
415.80 1.041571
415.90 1.022552
416.00 1.003871
416.10 0.9870763
416.20 0.9732679
416.30 0.9627491
416.40 0.9551611
416.50 0.9499503
416.60 0.9467533
416.70 0.9453111
416.80 0.9447796
416.90 0.9441373
417.00 0.9430831
417.10 0.9415659
417.20 0.9394981
417.30 0.9369895
417.40 0.9346574
417.50 0.9335944
417.60 0.9346335
417.70 0.9378936
417.80 0.9427906
417.90 0.9483019
418.00 0.9530092
418.10 0.9551564
418.20 0.9535114
418.30 0.9478134
418.40 0.9381484
418.50 0.9251075
418.60 0.9101173
418.70 0.8961823
418.80 0.8849044
418.90 0.8765061
419.00 0.870617
419.10 0.866597
419.20 0.8634445
419.30 0.8598885
419.40 0.8557783
419.50 0.8502563
419.60 0.842914
419.70 0.8337615
419.80 0.8236559
419.90 0.8139027
420.00 0.8056409
420.10 0.8000163
420.20 0.7979015
420.30 0.7992129
420.40 0.8027898
420.50 0.8067073
420.60 0.8089768
420.70 0.8083629
420.80 0.8044445
420.90 0.796999
421.00 0.7858663
421.10 0.7715372
421.20 0.7551418
421.30 0.7377328
421.40 0.7203857
421.50 0.7042308
421.60 0.6899879
421.70 0.6782387
421.80 0.6695345
421.90 0.6640126
422.00 0.6611042
422.10 0.6597077
422.20 0.6586558
422.30 0.6572657
422.40 0.6555612
422.50 0.6538635
422.60 0.6528555
422.70 0.6540038
422.80 0.6589651
422.90 0.6685901
423.00 0.6826036
423.10 0.6996582
423.20 0.7174393
423.30 0.7333748
423.40 0.745318
423.50 0.7516316
423.60 0.7514686
423.70 0.7450301
423.80 0.7336966
423.90 0.7213365
424.00 0.7110555
424.10 0.7033676
424.20 0.6980745
424.30 0.6977973
424.40 0.7021723
424.50 0.7095669
424.60 0.7182789
424.70 0.7268313
424.80 0.7339664
424.90 0.7388046
425.00 0.7407081
425.10 0.73936
425.20 0.7347522
425.30 0.7274164
425.40 0.7180972
425.50 0.7074184
425.60 0.6963246
425.70 0.6869142
425.80 0.6789075
425.90 0.6720672
426.00 0.6660072
426.10 0.6609687
426.20 0.6565125
426.30 0.6519833
426.40 0.646978
426.50 0.6414643
426.60 0.635666
426.70 0.6296465
426.80 0.6236168
426.90 0.6179759
427.00 0.6128777
427.10 0.6084176
427.20 0.6046553
427.30 0.6018305
427.40 0.6001857
427.50 0.599249
427.60 0.5980988
427.70 0.5961501
427.80 0.5933429
427.90 0.5899092
428.00 0.5863145
428.10 0.5833634
428.20 0.581664
428.30 0.5815036
428.40 0.5830702
428.50 0.5861509
428.60 0.5904647
428.70 0.5947038
428.80 0.598754
428.90 0.6030771
429.00 0.6078728
429.10 0.6130999
429.20 0.6186655
429.30 0.6245537
429.40 0.629728
429.50 0.6341288
429.60 0.6378974
429.70 0.6413627
429.80 0.6446197
429.90 0.6474944
430.00 0.6494353
430.10 0.6495384
430.20 0.647108
430.30 0.6423748
430.40 0.6366552
430.50 0.6318227
430.60 0.6296045
430.70 0.6308139
430.80 0.6352182
430.90 0.642145
431.00 0.6505268
431.10 0.6591278
431.20 0.6669046
431.30 0.6730984
431.40 0.6773148
431.50 0.6796834
431.60 0.680819
431.70 0.6814925
431.80 0.6820748
431.90 0.6825341
432.00 0.6827881
432.10 0.6827809
432.20 0.6826932
432.30 0.6825996
432.40 0.6821721
432.50 0.6808369
432.60 0.6779646
432.70 0.6729456
432.80 0.6652093
432.90 0.65447
433.00 0.6407747
433.10 0.6246441
433.20 0.6073251
433.30 0.5902799
433.40 0.5748582
433.50 0.5622459
433.60 0.5531956
433.70 0.548081
433.80 0.546859
433.90 0.5472428
434.00 0.5472648
434.10 0.5472648
434.20 0.5472648
434.30 0.543859
434.40 0.5375557
434.50 0.5294212
434.60 0.5205824
434.70 0.5120922
434.80 0.5046622
434.90 0.498595
435.00 0.4937168
435.10 0.4894746
435.20 0.4854275
435.30 0.4814573
435.40 0.4780321
435.50 0.4762985
435.60 0.4771953
435.70 0.4795435
435.80 0.4836035
435.90 0.489301
436.00 0.4963124
436.10 0.503435
436.20 0.5100305
436.30 0.5157445
436.40 0.5204974
436.50 0.5243122
436.60 0.5271081
436.70 0.5288106
436.80 0.5293777
436.90 0.5288328
437.00 0.5273254
437.10 0.525448
437.20 0.5240945
437.30 0.523609
437.40 0.5239528
437.50 0.5253918
437.60 0.5283509
437.70 0.5329452
437.80 0.538894
437.90 0.5458603
438.00 0.5534273
438.10 0.5611916
438.20 0.5691361
438.30 0.5774226
438.40 0.586433
438.50 0.596779
438.60 0.6088425
438.70 0.6226809
438.80 0.6379069
438.90 0.6536695
439.00 0.6690796
439.10 0.6835255
439.20 0.6965973
439.30 0.7077337
439.40 0.7164661
439.50 0.7227478
439.60 0.7265534
439.70 0.7279904
439.80 0.7273442
439.90 0.7248593
440.00 0.7208193
440.10 0.7156372
440.20 0.7097881
440.30 0.7037298
440.40 0.6979043
440.50 0.6926
440.60 0.6878438
440.70 0.6836479
440.80 0.6799693
440.90 0.6766989
441.00 0.6741091
441.10 0.6723194
441.20 0.6711811
441.30 0.6705823
441.40 0.6704288
441.50 0.6706337
441.60 0.6709309
441.70 0.6706937
441.80 0.6691898
441.90 0.6661464
442.00 0.6620751
442.10 0.657948
442.20 0.6540502
442.30 0.650579
442.40 0.6474439
442.50 0.6442493
442.60 0.6410334
442.70 0.6381683
442.80 0.6361128
442.90 0.6351035
443.00 0.6353588
443.10 0.6370436
443.20 0.6398842
443.30 0.6431976
443.40 0.6463449
443.50 0.6489723
443.60 0.6512437
443.70 0.653868
443.80 0.6579022
443.90 0.6645425
444.00 0.6745473
444.10 0.6875034
444.20 0.7025121
444.30 0.7181916
444.40 0.7318578
444.50 0.7415192
444.60 0.7459626
444.70 0.7447891
444.80 0.7384772
444.90 0.7284218
445.00 0.7172701
445.10 0.7077112
445.20 0.7011765
445.30 0.6989724
445.40 0.700335
445.50 0.7034814
445.60 0.7066972
445.70 0.7091875
445.80 0.710975
445.90 0.712456
446.00 0.7141501
446.10 0.7165797
446.20 0.7202571
446.30 0.7252836
446.40 0.7306846
446.50 0.7346533
446.60 0.7355479
446.70 0.732849
446.80 0.72752
446.90 0.7232395
447.00 0.7202049
447.10 0.7179518
447.20 0.7178302
447.30 0.7205947
447.40 0.725918
447.50 0.7330021
447.60 0.7405624
447.70 0.7472617
447.80 0.752295
447.90 0.7554048
448.00 0.7566988
448.10 0.7561921
448.20 0.7537013
448.30 0.749536
448.40 0.7443211
448.50 0.7383607
448.60 0.7317474
448.70 0.7243579
448.80 0.7158505
448.90 0.7060752
449.00 0.6951374
449.10 0.6832481
449.20 0.670982
449.30 0.6594305
449.40 0.649807
449.50 0.6430812
449.60 0.6396903
449.70 0.6392577
449.80 0.6410594
449.90 0.6448001
450.00 0.6506554
450.10 0.658735
450.20 0.6688314
450.30 0.6802561
450.40 0.6916295
450.50 0.7012362
450.60 0.7077343
450.70 0.7105992
450.80 0.7103612
450.90 0.7083846
451.00 0.7064864
451.10 0.7068181
451.20 0.7112882
451.30 0.720714
451.40 0.7345278
451.50 0.7512683
451.60 0.7693186
451.70 0.7874628
451.80 0.8053758
451.90 0.8231837
452.00 0.8406043
452.10 0.8570765
452.20 0.8725959
452.30 0.8872785
452.40 0.9015784
452.50 0.9162153
452.60 0.9313602
452.70 0.94671
452.80 0.9618471
452.90 0.9763897
453.00 0.9899542
453.10 1.002037
453.20 1.011998
453.30 1.019703
453.40 1.025559
453.50 1.030051
453.60 1.033537
453.70 1.036008
453.80 1.03708
453.90 1.036328
454.00 1.033591
454.10 1.029151
454.20 1.023918
454.30 1.01944
454.40 1.017355
454.50 1.018833
454.60 1.024374
454.70 1.033633
454.80 1.04562
454.90 1.059147
455.00 1.072884
455.10 1.086174
455.20 1.09927
455.30 1.111426
455.40 1.122985
455.50 1.134409
455.60 1.145425
455.70 1.155101
455.80 1.162204
455.90 1.165733
456.00 1.165247
456.10 1.160879
456.20 1.153417
456.30 1.144346
456.40 1.135728
456.50 1.129896
456.60 1.128941
456.70 1.133863
456.80 1.143814
456.90 1.154683
457.00 1.165149
457.10 1.173856
457.20 1.177957
457.30 1.176157
457.40 1.169002
457.50 1.158084
457.60 1.14568
457.70 1.134088
457.80 1.125127
457.90 1.119659
458.00 1.11744
458.10 1.117679
458.20 1.119326
458.30 1.121146
458.40 1.122387
458.50 1.123067
458.60 1.123188
458.70 1.122647
458.80 1.121653
458.90 1.120755
459.00 1.120881
459.10 1.122938
459.20 1.127003
459.30 1.132393
459.40 1.138213
459.50 1.143661
459.60 1.148493
459.70 1.153048
459.80 1.157705
459.90 1.162379
460.00 1.166641
460.10 1.170091
460.20 1.172576
460.30 1.174195
460.40 1.174959
460.50 1.174859
460.60 1.174462
460.70 1.174663
460.80 1.176111
460.90 1.179014
461.00 1.182806
461.10 1.186332
461.20 1.188619
461.30 1.189537
461.40 1.189726
461.50 1.190018
461.60 1.191107
461.70 1.193155
461.80 1.195769
461.90 1.198431
462.00 1.200529
462.10 1.201555
462.20 1.201132
462.30 1.198757
462.40 1.194326
462.50 1.188315
462.60 1.181332
462.70 1.173823
462.80 1.166238
462.90 1.159288
463.00 1.153747
463.10 1.150651
463.20 1.151223
463.30 1.155866
463.40 1.163914
463.50 1.174041
463.60 1.184599
463.70 1.193981
463.80 1.200836
463.90 1.204267
464.00 1.204145
464.10 1.201104
464.20 1.196143
464.30 1.190127
464.40 1.183591
464.50 1.176775
464.60 1.16978
464.70 1.162948
464.80 1.15665
464.90 1.150865
465.00 1.145156
465.10 1.138875
465.20 1.131458
465.30 1.122577
465.40 1.112078
465.50 1.100315
465.60 1.088346
465.70 1.077671
465.80 1.069919
465.90 1.065933
466.00 1.065496
466.10 1.067645
466.20 1.070752
466.30 1.073055
466.40 1.073483
466.50 1.071971
466.60 1.068957
466.70 1.065149
466.80 1.061686
466.90 1.060019
467.00 1.061497
467.10 1.066816
467.20 1.075641
467.30 1.087065
467.40 1.099941
467.50 1.112986
467.60 1.125199
467.70 1.135726
467.80 1.143621
467.90 1.148128
468.00 1.149123
468.10 1.14716
468.20 1.143315
468.30 1.138456
468.40 1.132803
468.50 1.126546
468.60 1.120305
468.70 1.114961
468.80 1.11139
468.90 1.110158
469.00 1.111373
469.10 1.114826
469.20 1.120263
469.30 1.127369
469.40 1.135527
469.50 1.143998
469.60 1.152058
469.70 1.159055
469.80 1.164554
469.90 1.168229
470.00 1.16985
470.10 1.169351
470.20 1.1668
470.30 1.16253
470.40 1.157438
470.50 1.153
470.60 1.150332
470.70 1.149801
470.80 1.151308
470.90 1.154134
471.00 1.157032
471.10 1.158653
471.20 1.157818
471.30 1.153633
471.40 1.145819
471.50 1.134839
471.60 1.121693
471.70 1.10773
471.80 1.094145
471.90 1.081618
472.00 1.07068
472.10 1.061692
472.20 1.054912
472.30 1.050582
472.40 1.048516
472.50 1.048173
472.60 1.049029
472.70 1.05062
472.80 1.052314
472.90 1.053395
473.00 1.053191
473.10 1.050983
473.20 1.046286
473.30 1.039423
473.40 1.03152
473.50 1.02405
473.60 1.018502
473.70 1.016053
473.80 1.017377
473.90 1.022396
474.00 1.030168
474.10 1.039273
474.20 1.0482
474.30 1.055498
474.40 1.06021
474.50 1.062114
474.60 1.061709
474.70 1.05996
474.80 1.0582
474.90 1.058063
475.00 1.060776
475.10 1.066789
475.20 1.07571
475.30 1.08641
475.40 1.097331
475.50 1.106682
475.60 1.112763
475.70 1.114399
475.80 1.11128
475.90 1.104558
476.00 1.096776
476.10 1.08873
476.20 1.081389
476.30 1.076337
476.40 1.074222
476.50 1.074246
476.60 1.07529
476.70 1.076397
476.80 1.076753
476.90 1.075704
477.00 1.073012
477.10 1.069041
477.20 1.064306
477.30 1.059103
477.40 1.053525
477.50 1.047479
477.60 1.040762
477.70 1.033406
477.80 1.025915
477.90 1.019443
478.00 1.01522
478.10 1.013851
478.20 1.015267
478.30 1.01907
478.40 1.024631
478.50 1.030901
478.60 1.036726
478.70 1.041138
478.80 1.043476
478.90 1.043423
479.00 1.040747
479.10 1.035307
479.20 1.027343
479.30 1.01731
479.40 1.005745
479.50 0.9933862
479.60 0.981097
479.70 0.9695389
479.80 0.959023
479.90 0.9497984
480.00 0.9420782
480.10 0.9360386
480.20 0.9321228
480.30 0.9309426
480.40 0.9327664
480.50 0.9373025
480.60 0.943881
480.70 0.9514775
480.80 0.9587567
480.90 0.9644088
481.00 0.9675394
481.10 0.9680006
481.20 0.9663116
481.30 0.963369
481.40 0.9600322
481.50 0.9569401
481.60 0.9543463
481.70 0.9522309
481.80 0.9507605
481.90 0.9502218
482.00 0.9507815
482.10 0.9524311
482.20 0.9549848
482.30 0.9582345
482.40 0.9621507
482.50 0.9667147
482.60 0.9718437
482.70 0.9773483
482.80 0.9830837
482.90 0.9890566
483.00 0.995234
483.10 1.001253
483.20 1.006331
483.30 1.009568
483.40 1.010288
483.50 1.00835
483.60 1.004242
483.70 0.9990196
483.80 0.9937361
483.90 0.9891295
484.00 0.9857056
484.10 0.9837782
484.20 0.9834754
484.30 0.9846989
484.40 0.9871596
484.50 0.9905606
484.60 0.9945934
484.70 0.9986831
484.80 1.001773
484.90 1.002531
485.00 0.9999539
485.10 0.9934725
485.20 0.983394
485.30 0.9712331
485.40 0.9592503
485.50 0.949869
485.60 0.9451215
485.70 0.9461188
485.80 0.9527223
485.90 0.963515
486.00 0.976005
486.10 0.9894835
486.20 1.003131
486.30 1.015402
486.40 1.025262
486.50 1.032692
486.60 1.038061
486.70 1.041801
486.80 1.044393
486.90 1.046298
487.00 1.048057
487.10 1.050276
487.20 1.05345
487.30 1.057672
487.40 1.06275
487.50 1.068569
487.60 1.075041
487.70 1.082185
487.80 1.090075
487.90 1.098333
488.00 1.106158
488.10 1.11292
488.20 1.118379
488.30 1.122588
488.40 1.125648
488.50 1.127735
488.60 1.129366
488.70 1.131217
488.80 1.133644
488.90 1.136666
489.00 1.140297
489.10 1.144363
489.20 1.148431
489.30 1.152372
489.40 1.156572
489.50 1.161414
489.60 1.166719
489.70 1.172132
489.80 1.177532
489.90 1.182745
490.00 1.187365
490.10 1.191052
490.20 1.1935
490.30 1.194262
490.40 1.193084
490.50 1.189987
490.60 1.185178
490.70 1.178977
490.80 1.17158
490.90 1.163252
491.00 1.154835
491.10 1.14741
491.20 1.141598
491.30 1.137518
491.40 1.135072
491.50 1.13396
491.60 1.133727
491.70 1.133867
491.80 1.133759
491.90 1.13293
492.00 1.131068
492.10 1.127933
492.20 1.123453
492.30 1.117469
492.40 1.109469
492.50 1.09879
492.60 1.08544
492.70 1.070431
492.80 1.055301
492.90 1.04152
493.00 1.03033
493.10 1.022688
493.20 1.018863
493.30 1.018238
493.40 1.019575
493.50 1.021472
493.60 1.022517
493.70 1.021589
493.80 1.018499
493.90 1.014068
494.00 1.009518
494.10 1.005925
494.20 1.003857
494.30 1.003438
494.40 1.004532
494.50 1.006848
494.60 1.01005
494.70 1.013791
494.80 1.017869
494.90 1.022298
495.00 1.027462
495.10 1.033996
495.20 1.042205
495.30 1.051807
495.40 1.061952
495.50 1.07141
495.60 1.079074
495.70 1.084319
495.80 1.087123
495.90 1.08776
496.00 1.086611
496.10 1.084297
496.20 1.081601
496.30 1.079167
496.40 1.077211
496.50 1.075654
496.60 1.074205
496.70 1.072355
496.80 1.069564
496.90 1.065524
497.00 1.060179
497.10 1.053596
497.20 1.045932
497.30 1.037575
497.40 1.029075
497.50 1.020801
497.60 1.012909
497.70 1.005268
497.80 0.9977636
497.90 0.9906027
498.00 0.9843085
498.10 0.9793798
498.20 0.9759597
498.30 0.9739483
498.40 0.9732044
498.50 0.9736895
498.60 0.9753014
498.70 0.9777659
498.80 0.9808338
498.90 0.9843794
499.00 0.9882147
499.10 0.9922519
499.20 0.9963831
499.30 1.000238
499.40 1.003201
499.50 1.004756
499.60 1.005036
499.70 1.004545
499.80 1.00362
499.90 1.002198
500.00 1
500.10 0.9966425
500.20 0.9916516
500.30 0.9847654
500.40 0.9760345
500.50 0.9658592
500.60 0.955009
500.70 0.9445018
500.80 0.9356221
500.90 0.929767
501.00 0.9277598
501.10 0.9295731
501.20 0.9347407
501.30 0.9426545
501.40 0.9525433
501.50 0.9635901
501.60 0.9752193
501.70 0.9870846
501.80 0.9990296
501.90 1.010899
502.00 1.022632
502.10 1.034382
502.20 1.046133
502.30 1.057591
502.40 1.06856
502.50 1.07907
502.60 1.088842
502.70 1.097252
502.80 1.103699
502.90 1.107905
503.00 1.109961
503.10 1.110386
503.20 1.110386
503.30 1.111582
503.40 1.115293
503.50 1.122091
503.60 1.131866
503.70 1.143828
503.80 1.156453
503.90 1.167821
504.00 1.17646
504.10 1.181921
504.20 1.18462
504.30 1.185288
504.40 1.184786
504.50 1.183931
504.60 1.183148
504.70 1.182538
504.80 1.182184
504.90 1.182095
505.00 1.182122
505.10 1.182293
505.20 1.182938
505.30 1.184561
505.40 1.187581
505.50 1.19201
505.60 1.197557
505.70 1.203861
505.80 1.210267
505.90 1.216006
506.00 1.220472
506.10 1.223378
506.20 1.224711
506.30 1.224697
506.40 1.223988
506.50 1.22331
506.60 1.223202
506.70 1.224197
506.80 1.22666
506.90 1.230408
507.00 1.23478
507.10 1.239019
507.20 1.242586
507.30 1.245129
507.40 1.246465
507.50 1.246604
507.60 1.245612
507.70 1.243773
507.80 1.241366
507.90 1.238601
508.00 1.235881
508.10 1.23363
508.20 1.23215
508.30 1.23171
508.40 1.232392
508.50 1.233882
508.60 1.235629
508.70 1.237093
508.80 1.237891
508.90 1.237819
509.00 1.2368
509.10 1.234804
509.20 1.232006
509.30 1.228884
509.40 1.226075
509.50 1.224126
509.60 1.223401
509.70 1.224028
509.80 1.226045
509.90 1.229584
510.00 1.234711
510.10 1.241396
510.20 1.249382
510.30 1.258134
510.40 1.267092
510.50 1.275665
510.60 1.283277
510.70 1.289363
510.80 1.29327
510.90 1.294245
511.00 1.291713
511.10 1.285691
511.20 1.276694
511.30 1.265542
511.40 1.253185
511.50 1.240415
511.60 1.227804
511.70 1.215789
511.80 1.204531
511.90 1.194023
512.00 1.184161
512.10 1.174848
512.20 1.166352
512.30 1.159342
512.40 1.154348
512.50 1.15148
512.60 1.150429
512.70 1.150408
512.80 1.150432
512.90 1.149584
513.00 1.147171
513.10 1.142743
513.20 1.136166
513.30 1.127736
513.40 1.118244
513.50 1.108682
513.60 1.09979
513.70 1.092075
513.80 1.085813
513.90 1.081042
514.00 1.077487
514.10 1.074384
514.20 1.071028
514.30 1.067396
514.40 1.063835
514.50 1.06079
514.60 1.05883
514.70 1.058458
514.80 1.059766
514.90 1.062429
515.00 1.065654
515.10 1.068245
515.20 1.069099
515.30 1.067297
515.40 1.062351
515.50 1.05457
515.60 1.044609
515.70 1.033102
515.80 1.020835
515.90 1.008631
516.00 0.9972536
516.10 0.9873426
516.20 0.9793128
516.30 0.973326
516.40 0.9692425
516.50 0.9667151
516.60 0.9653821
516.70 0.964883
516.80 0.9649391
516.90 0.9658624
517.00 0.9684552
517.10 0.9733473
517.20 0.980997
517.30 0.9918048
517.40 1.005672
517.50 1.021893
517.60 1.039461
517.70 1.057158
517.80 1.073907
517.90 1.08896
518.00 1.101741
518.10 1.112068
518.20 1.120318
518.30 1.127045
518.40 1.132839
518.50 1.138355
518.60 1.144011
518.70 1.149816
518.80 1.155476
518.90 1.160437
519.00 1.164017
519.10 1.16562
519.20 1.164806
519.30 1.161423
519.40 1.155748
519.50 1.148507
519.60 1.140605
519.70 1.132988
519.80 1.126607
519.90 1.122306
520.00 1.120477
520.10 1.120887
520.20 1.123038
520.30 1.12636
520.40 1.129968
520.50 1.132855
520.60 1.134242
520.70 1.133852
520.80 1.132308
520.90 1.131003
521.00 1.131515
521.10 1.134894
521.20 1.141214
521.30 1.149699
521.40 1.159312
521.50 1.169111
521.60 1.178191
521.70 1.185856
521.80 1.19224
521.90 1.198399
522.00 1.205722
522.10 1.215182
522.20 1.226793
522.30 1.239681
522.40 1.252622
522.50 1.264508
522.60 1.274703
522.70 1.283097
522.80 1.289891
522.90 1.2956
523.00 1.30102
523.10 1.307007
523.20 1.31384
523.30 1.320944
523.40 1.327229
523.50 1.331726
523.60 1.334093
523.70 1.334526
523.80 1.333562
523.90 1.331938
524.00 1.330479
524.10 1.329944
524.20 1.330626
524.30 1.332329
524.40 1.334647
524.50 1.336848
524.60 1.33804
524.70 1.337775
524.80 1.336258
524.90 1.334127
525.00 1.332108
525.10 1.330909
525.20 1.331196
525.30 1.333519
525.40 1.338193
525.50 1.345367
525.60 1.35531
525.70 1.368026
525.80 1.38303
525.90 1.399707
526.00 1.417476
526.10 1.435653
526.20 1.453431
526.30 1.470101
526.40 1.485033
526.50 1.497745
526.60 1.508013
526.70 1.51585
526.80 1.521466
526.90 1.524896
527.00 1.52585
527.10 1.524257
527.20 1.520282
527.30 1.514198
527.40 1.506705
527.50 1.498854
527.60 1.491634
527.70 1.48557
527.80 1.480626
527.90 1.476355
528.00 1.471932
528.10 1.466416
528.20 1.458945
528.30 1.449
528.40 1.436739
528.50 1.422867
528.60 1.408422
528.70 1.394687
528.80 1.382862
528.90 1.373771
529.00 1.367962
529.10 1.365746
529.20 1.367156
529.30 1.37178
529.40 1.37887
529.50 1.387423
529.60 1.39637
529.70 1.404958
529.80 1.412728
529.90 1.419509
530.00 1.425734
530.10 1.432204
530.20 1.439604
530.30 1.448334
530.40 1.458755
530.50 1.471223
530.60 1.48581
530.70 1.502191
530.80 1.519412
530.90 1.536043
531.00 1.550741
531.10 1.562625
531.20 1.571542
531.30 1.577943
531.40 1.582388
531.50 1.585572
531.60 1.588351
531.70 1.591352
531.80 1.594347
531.90 1.596176
532.00 1.595503
532.10 1.591545
532.20 1.584413
532.30 1.575197
532.40 1.565568
532.50 1.557159
532.60 1.551238
532.70 1.548643
532.80 1.549827
532.90 1.554535
533.00 1.561788
533.10 1.570313
533.20 1.579052
533.30 1.587543
533.40 1.595839
533.50 1.604154
533.60 1.61262
533.70 1.621271
533.80 1.630178
533.90 1.639371
534.00 1.648611
534.10 1.657585
534.20 1.666073
534.30 1.673788
534.40 1.680288
534.50 1.68535
534.60 1.689098
534.70 1.691715
534.80 1.693325
534.90 1.693991
535.00 1.693954
535.10 1.693551
535.20 1.692906
535.30 1.692219
535.40 1.691823
535.50 1.691667
535.60 1.691057
535.70 1.689217
535.80 1.68576
535.90 1.6807
536.00 1.674282
536.10 1.666791
536.20 1.658561
536.30 1.65022
536.40 1.642859
536.50 1.637721
536.60 1.63579
536.70 1.63736
536.80 1.642022
536.90 1.649024
537.00 1.657459
537.10 1.666308
537.20 1.674611
537.30 1.681587
537.40 1.686739
537.50 1.6901
537.60 1.692219
537.70 1.693859
537.80 1.695602
537.90 1.697689
538.00 1.700236
538.10 1.703428
538.20 1.707627
538.30 1.713286
538.40 1.720662
538.50 1.729752
538.60 1.740276
538.70 1.751552
538.80 1.762749
538.90 1.773076
539.00 1.781902
539.10 1.78921
539.20 1.795714
539.30 1.802551
539.40 1.810884
539.50 1.821554
539.60 1.834663
539.70 1.849422
539.80 1.864529
539.90 1.87855
540.00 1.89014
540.10 1.898327
540.20 1.902668
540.30 1.903362
540.40 1.901112
540.50 1.896522
540.60 1.889882
540.70 1.881697
540.80 1.872806
540.90 1.864007
541.00 1.856084
541.10 1.849819
541.20 1.845906
541.30 1.844809
541.40 1.846653
541.50 1.851072
541.60 1.85725
541.70 1.864261
541.80 1.871471
541.90 1.878839
542.00 1.886779
542.10 1.895723
542.20 1.906021
542.30 1.91777
542.40 1.930501
542.50 1.943325
542.60 1.955114
542.70 1.964706
542.80 1.971117
542.90 1.973814
543.00 1.972927
543.10 1.969205
543.20 1.963965
543.30 1.958685
543.40 1.954505
543.50 1.952064
543.60 1.951432
543.70 1.952231
543.80 1.953824
543.90 1.955451
544.00 1.956497
544.10 1.95647
544.20 1.955024
544.30 1.95212
544.40 1.948003
544.50 1.943138
544.60 1.937995
544.70 1.932921
544.80 1.928188
544.90 1.923972
545.00 1.920324
545.10 1.9172
545.20 1.914473
545.30 1.911814
545.40 1.908659
545.50 1.904603
545.60 1.899742
545.70 1.894432
545.80 1.889042
545.90 1.883903
546.00 1.879235
546.10 1.875179
546.20 1.87185
546.30 1.86908
546.40 1.866266
546.50 1.862673
546.60 1.857735
546.70 1.851348
546.80 1.843895
546.90 1.836035
547.00 1.82844
547.10 1.821618
547.20 1.815932
547.30 1.811436
547.40 1.807688
547.50 1.8039
547.60 1.799379
547.70 1.793887
547.80 1.787568
547.90 1.780862
548.00 1.774388
548.10 1.768572
548.20 1.763533
548.30 1.758965
548.40 1.754122
548.50 1.748223
548.60 1.740657
548.70 1.731184
548.80 1.720202
548.90 1.708821
549.00 1.69831
549.10 1.689416
549.20 1.68232
549.30 1.676752
549.40 1.671937
549.50 1.666645
549.60 1.659567
549.70 1.649867
549.80 1.637568
549.90 1.623474
550.00 1.393168
550.10 1.389348
550.20 1.389492
550.30 1.389734
550.40 1.38625
550.50 1.376517
550.60 1.360252
550.70 1.33868
550.80 1.313486
550.90 1.286635
551.00 1.260052
551.10 1.235341
551.20 1.213921
551.30 1.196421
551.40 1.182622
551.50 1.172086
551.60 1.164085
551.70 1.157671
551.80 1.152516
551.90 1.149165
552.00 1.148139
552.10 1.149767
552.20 1.154653
552.30 1.163231
552.40 1.175524
552.50 1.190761
552.60 1.206932
552.70 1.221968
552.80 1.235042
552.90 1.246351
553.00 1.256486
553.10 1.266473
553.20 1.277603
553.30 1.290922
553.40 1.307269
553.50 1.326906
553.60 1.348892
553.70 1.371295
553.80 1.391799
553.90 1.408562
554.00 1.420935
554.10 1.428943
554.20 1.432545
554.30 1.432113
554.40 1.429288
554.50 1.426246
554.60 1.424327
554.70 1.42389
554.80 1.424797
554.90 1.426319
555.00 1.426752
555.10 1.427485
555.20 1.432886
555.30 1.447494
555.40 1.476497
555.50 1.523793
555.60 1.591572
555.70 1.679791
555.80 1.784278
555.90 1.896957
556.00 2.008304
556.10 2.109697
556.20 2.194687
556.30 2.260514
556.40 2.309363
556.50 2.344511
556.60 2.36954
556.70 2.389287
556.80 2.406947
556.90 2.424065
557.00 2.440436
557.10 2.454449
557.20 2.464709
557.30 2.470964
557.40 2.473732
557.50 2.473838
557.60 2.472862
557.70 2.473212
557.80 2.477057
557.90 2.485144
558.00 2.4973
558.10 2.513182
558.20 2.531853
558.30 2.551712
558.40 2.570646
558.50 2.586688
558.60 2.599043
558.70 2.608247
558.80 2.616324
558.90 2.626689
559.00 2.643485
559.10 2.666653
559.20 2.691633
559.30 2.712805
559.40 2.722859
559.50 2.714109
559.60 2.680931
559.70 2.621871
559.80 2.540553
559.90 2.444715
560.00 2.344823
560.10 2.252394
560.20 2.176661
560.30 2.121649
560.40 2.085225
560.50 2.063877
560.60 2.0543
560.70 2.051676
560.80 2.051642
560.90 2.050814
561.00 2.047827
561.10 2.043275
561.20 2.038215
561.30 2.034122
561.40 2.032261
561.50 2.032537
561.60 2.034068
561.70 2.036105
561.80 2.038537
561.90 2.04175
562.00 2.045579
562.10 2.049385
562.20 2.05298
562.30 2.056928
562.40 2.061945
562.50 2.068154
562.60 2.075008
562.70 2.081431
562.80 2.086181
562.90 2.088737
563.00 2.089128
563.10 2.087415
563.20 2.083681
563.30 2.077946
563.40 2.070973
563.50 2.064808
563.60 2.061464
563.70 2.061796
563.80 2.065728
563.90 2.072615
564.00 2.081265
564.10 2.089488
564.20 2.094657
564.30 2.094688
564.40 2.088828
564.50 2.077819
564.60 2.063074
564.70 2.046527
564.80 2.030508
564.90 2.01694
565.00 2.007204
565.10 2.002155
565.20 2.001697
565.30 2.004194
565.40 2.007263
565.50 2.009113
565.60 2.008571
565.70 2.005434
565.80 2.000661
565.90 1.995782
566.00 1.992506
566.10 1.992525
566.20 1.997546
566.30 2.008748
566.40 2.026389
566.50 2.049826
566.60 2.077939
566.70 2.109722
566.80 2.143571
566.90 2.177165
567.00 2.208623
567.10 2.236134
567.20 2.257978
567.30 2.273718
567.40 2.284577
567.50 2.292582
567.60 2.299353
567.70 2.306315
567.80 2.314487
567.90 2.324259
568.00 2.335312
568.10 2.346756
568.20 2.358359
568.30 2.370506
568.40 2.383145
568.50 2.396368
568.60 2.411451
568.70 2.430362
568.80 2.454529
568.90 2.484517
569.00 2.51965
569.10 2.557538
569.20 2.594898
569.30 2.628582
569.40 2.656109
569.50 2.676276
569.60 2.689042
569.70 2.694322
569.80 2.691714
569.90 2.680987
570.00 2.661969
570.10 2.634675
570.20 2.599668
570.30 2.558114
570.40 2.512235
570.50 2.465468
570.60 2.42151
570.70 2.383096
570.80 2.351595
570.90 2.326475
571.00 2.305875
571.10 2.288681
571.20 2.274822
571.30 2.264219
571.40 2.255841
571.50 2.247876
571.60 2.238837
571.70 2.227866
571.80 2.214877
571.90 2.200196
572.00 2.183862
572.10 2.165845
572.20 2.146111
572.30 2.124843
572.40 2.102304
572.50 2.077949
572.60 2.050241
572.70 2.01743
572.80 1.978655
572.90 1.934186
573.00 1.885508
573.10 1.83528
573.20 1.786528
573.30 1.74195
573.40 1.703829
573.50 1.673583
573.60 1.651124
573.70 1.63523
573.80 1.624408
573.90 1.617504
574.00 1.614436
574.10 1.615544
574.20 1.620352
574.30 1.628072
574.40 1.637567
574.50 1.647438
574.60 1.656376
574.70 1.663177
574.80 1.667415
574.90 1.669832
575.00 1.671921
575.10 1.675438
575.20 1.681577
575.30 1.690282
575.40 1.700603
575.50 1.711621
575.60 1.722721
575.70 1.732771
575.80 1.740399
575.90 1.74471
576.00 1.74541
576.10 1.742819
576.20 1.73754
576.30 1.730805
576.40 1.724829
576.50 1.721793
576.60 1.723288
576.70 1.730572
576.80 1.744708
576.90 1.765957
577.00 1.793066
577.10 1.823586
577.20 1.854189
577.30 1.881043
577.40 1.901089
577.50 1.912926
577.60 1.916998
577.70 1.91524
577.80 1.910045
577.90 1.904041
578.00 1.899676
578.10 1.898895
578.20 1.902578
578.30 1.909716
578.40 1.918379
578.50 1.926745
578.60 1.933866
578.70 1.939839
578.80 1.944485
578.90 1.9473
579.00 1.947802
579.10 1.945018
579.20 1.938356
579.30 1.928716
579.40 1.918505
579.50 1.910324
579.60 1.905576
579.70 1.90471
579.80 1.907538
579.90 1.913209
580.00 1.920232
580.10 1.926813
580.20 1.931827
580.30 1.934512
580.40 1.934068
580.50 1.930324
580.60 1.923848
580.70 1.9154
580.80 1.904809
580.90 1.891067
581.00 1.873829
581.10 1.85418
581.20 1.834519
581.30 1.817863
581.40 1.806504
581.50 1.801519
581.60 1.803086
581.70 1.810724
581.80 1.82333
581.90 1.839514
582.00 1.857619
582.10 1.875203
582.20 1.89032
582.30 1.902661
582.40 1.912724
582.50 1.920719
582.60 1.926006
582.70 1.927442
582.80 1.924432
582.90 1.916593
583.00 1.903506
583.10 1.885191
583.20 1.862081
583.30 1.834349
583.40 1.801387
583.50 1.762938
583.60 1.720307
583.70 1.676423
583.80 1.63448
583.90 1.5971
584.00 1.566575
584.10 1.544545
584.20 1.531324
584.30 1.525868
584.40 1.526046
584.50 1.52957
584.60 1.534639
584.70 1.539439
584.80 1.542678
584.90 1.543949
585.00 1.542261
585.10 1.535265
585.20 1.520951
585.30 1.498802
585.40 1.469448
585.50 1.43444
585.60 1.395731
585.70 1.355261
585.80 1.314886
585.90 1.275112
586.00 1.234917
586.10 1.193464
586.20 1.150248
586.30 1.104743
586.40 1.058241
586.50 1.014383
586.60 0.9774055
586.70 0.9510153
586.80 0.9376794
586.90 0.9381465
587.00 0.9514265
587.10 0.9759495
587.20 1.009594
587.30 1.050142
587.40 1.096391
587.50 1.147282
587.60 1.200945
587.70 1.254735
587.80 1.305025
587.90 1.347863
588.00 1.380059
588.10 1.399898
588.20 1.407384
588.30 1.404263
588.40 1.393982
588.50 1.380034
588.60 1.364733
588.70 1.349003
588.80 1.332517
588.90 1.315012
589.00 1.297507
589.10 1.282286
589.20 1.271833
589.30 1.268008
589.40 1.272056
589.50 1.283996
589.60 1.302567
589.70 1.325592
589.80 1.349952
589.90 1.372655
590.00 1.392158
590.10 1.408403
590.20 1.422091
590.30 1.434153
590.40 1.444418
590.50 1.450891
590.60 1.450259
590.70 1.439486
590.80 1.417273
590.90 1.384718
591.00 1.345206
591.10 1.302633
591.20 1.260597
591.30 1.221424
591.40 1.184868
591.50 1.148842
591.60 1.11105
591.70 1.069163
591.80 1.022264
591.90 0.972291
592.00 0.9236563
592.10 0.8818423
592.20 0.8499316
592.30 0.8306626
592.40 0.8241996
592.50 0.8291734
592.60 0.8428051
592.70 0.8618597
592.80 0.8839623
592.90 0.9072087
593.00 0.9294495
593.10 0.9492536
593.20 0.9664171
593.30 0.9812052
593.40 0.9937501
593.50 1.004545
593.60 1.014826
593.70 1.025985
593.80 1.038955
593.90 1.053871
594.00 1.070601
594.10 1.089489
594.20 1.11168
594.30 1.138953
594.40 1.172608
594.50 1.212526
594.60 1.257202
594.70 1.304083
594.80 1.350383
594.90 1.393223
595.00 1.429041
595.10 1.454584
595.20 1.468611
595.30 1.472761
595.40 1.470856
595.50 1.466946
595.60 1.463422
595.70 1.461292
595.80 1.461202
595.90 1.463299
596.00 1.467012
596.10 1.471003
596.20 1.475365
596.30 1.478808
596.40 1.48068
596.50 1.48075
596.60 1.479075
596.70 1.47565
596.80 1.470173
596.90 1.462711
597.00 1.454778
597.10 1.448287
597.20 1.444057
597.30 1.441642
597.40 1.439758
597.50 1.436494
597.60 1.429591
597.70 1.417448
597.80 1.40021
597.90 1.379811
598.00 1.359033
598.10 1.340615
598.20 1.326428
598.30 1.316671
598.40 1.309726
598.50 1.303407
598.60 1.296424
598.70 1.288837
598.80 1.281267
598.90 1.274584
599.00 1.270121
599.10 1.269436
599.20 1.273522
599.30 1.282337
599.40 1.295368
599.50 1.31225
599.60 1.333154
599.70 1.358604
599.80 1.389099
599.90 1.424467
600.00 1.122204
600.10 1.269561
600.20 1.491848
600.30 1.748335
600.40 1.984045
600.50 2.152819
600.60 2.226644
600.70 2.214705
600.80 2.145335
600.90 2.048887
601.00 1.948532
601.10 1.863847
601.20 1.815946
601.30 1.817747
601.40 1.863583
601.50 1.92071
601.60 1.94889
601.70 1.927169
601.80 1.872015
601.90 1.813875
602.00 1.765015
602.10 1.713071
602.20 1.653602
602.30 1.591106
602.40 1.528528
602.50 1.475968
602.60 1.442837
602.70 1.436942
602.80 1.458492
602.90 1.505122
603.00 1.585257
603.10 1.687741
603.20 1.768514
603.30 1.792753
603.40 1.764716
603.50 1.723208
603.60 1.702515
603.70 1.715194
603.80 1.773122
603.90 1.882335
604.00 2.025164
604.10 2.165196
604.20 2.275513
604.30 2.341462
604.40 2.342964
604.50 2.286251
604.60 2.204333
604.70 2.129813
604.80 2.092007
604.90 2.097776
605.00 2.145626
605.10 2.244081
605.20 2.386948
605.30 2.549579
605.40 2.693309
605.50 2.781877
605.60 2.792292
605.70 2.717074
605.80 2.572178
605.90 2.379096
606.00 2.164759
606.10 1.957141
606.20 1.771797
606.30 1.631367
606.40 1.563587
606.50 1.584854
606.60 1.69128
606.70 1.865851
606.80 2.093611
606.90 2.337167
607.00 2.53473
607.10 2.641821
607.20 2.653946
607.30 2.585603
607.40 2.455316
607.50 2.28241
607.60 2.095344
607.70 1.935922
607.80 1.830933
607.90 1.784445
608.00 1.79422
608.10 1.837603
608.20 1.888205
608.30 1.95182
608.40 2.048763
608.50 2.168335
608.60 2.262666
608.70 2.292156
608.80 2.251658
608.90 2.161004
609.00 2.044222
609.10 1.926754
609.20 1.834905
609.30 1.783272
609.40 1.768947
609.50 1.787019
609.60 1.839074
609.70 1.916596
609.80 1.994008
609.90 2.05794
610.00 2.123306
610.10 2.206793
610.20 2.291346
610.30 2.355938
610.40 2.393895
610.50 2.385749
610.60 2.325673
610.70 2.237718
610.80 2.158256
610.90 2.113634
611.00 2.097882
611.10 2.087805
611.20 2.079084
611.30 2.093822
611.40 2.149158
611.50 2.242021
611.60 2.369926
611.70 2.517957
611.80 2.6542
611.90 2.754603
612.00 2.796719
612.10 2.7523
612.20 2.605504
612.30 2.374148
612.40 2.105607
612.50 1.861854
612.60 1.693433
612.70 1.61022
612.80 1.601643
612.90 1.664262
613.00 1.786857
613.10 1.942789
613.20 2.102836
613.30 2.236727
613.40 2.336899
613.50 2.431044
613.60 2.541732
613.70 2.652869
613.80 2.742859
613.90 2.806312
614.00 2.849279
614.10 2.886088
614.20 2.919535
614.30 2.920621
614.40 2.86216
614.50 2.749039
614.60 2.596813
614.70 2.436096
614.80 2.285642
614.90 2.142593
615.00 2.010218
615.10 1.923682
615.20 1.919181
615.30 1.99021
615.40 2.1042
615.50 2.221611
615.60 2.315116
615.70 2.381102
615.80 2.427393
615.90 2.46511
616.00 2.513916
616.10 2.580411
616.20 2.655926
616.30 2.731285
616.40 2.789886
616.50 2.797931
616.60 2.729032
616.70 2.596069
616.80 2.430459
616.90 2.259682
617.00 2.099929
617.10 1.97048
617.20 1.883511
617.30 1.825605
617.40 1.77439
617.50 1.713209
617.60 1.644481
617.70 1.586552
617.80 1.563019
617.90 1.592791
618.00 1.688671
618.10 1.846432
618.20 2.031831
618.30 2.204331
618.40 2.3461
618.50 2.447882
618.60 2.50313
618.70 2.520863
618.80 2.527156
618.90 2.548274
619.00 2.579939
619.10 2.594625
619.20 2.576151
619.30 2.536087
619.40 2.478631
619.50 2.396337
619.60 2.306564
619.70 2.241199
619.80 2.211248
619.90 2.210511
620.00 2.232385
620.10 2.267213
620.20 2.30587
620.30 2.336639
620.40 2.368196
620.50 2.421998
620.60 2.497084
620.70 2.576122
620.80 2.645318
620.90 2.687817
621.00 2.67915
621.10 2.597428
621.20 2.434265
621.30 2.204059
621.40 1.938888
621.50 1.673743
621.60 1.433596
621.70 1.254329
621.80 1.160986
621.90 1.14504
622.00 1.196182
622.10 1.297075
622.20 1.428052
622.30 1.582883
622.40 1.757446
622.50 1.940177
622.60 2.115173
622.70 2.271343
622.80 2.393443
622.90 2.476614
623.00 2.5329
623.10 2.564202
623.20 2.561084
623.30 2.526863
623.40 2.468652
623.50 2.398363
623.60 2.34447
623.70 2.325773
623.80 2.338229
623.90 2.374064
624.00 2.428032
624.10 2.486281
624.20 2.534515
624.30 2.553705
624.40 2.524798
624.50 2.447812
624.60 2.348441
624.70 2.258788
624.80 2.201262
624.90 2.190135
625.00 2.223785
625.10 2.303625
625.20 2.441286
625.30 2.626826
625.40 2.827924
625.50 3.018977
625.60 3.195891
625.70 3.353025
625.80 3.466506
625.90 3.517467
626.00 3.497801
626.10 3.400042
626.20 3.225797
626.30 2.980719
626.40 2.684218
626.50 2.376767
626.60 2.108902
626.70 1.92848
626.80 1.863823
626.90 1.912473
627.00 2.043491
627.10 2.227926
627.20 2.441973
627.30 2.661222
627.40 2.859567
627.50 3.007486
627.60 3.088977
627.70 3.109927
627.80 3.074107
627.90 2.984488
628.00 2.857255
628.10 2.724931
628.20 2.634318
628.30 2.619026
628.40 2.675273
628.50 2.772448
628.60 2.872648
628.70 2.929164
628.80 2.909256
628.90 2.822704
629.00 2.701074
629.10 2.581093
629.20 2.508394
629.30 2.524095
629.40 2.63403
629.50 2.795694
629.60 2.935876
629.70 3.013578
629.80 3.036945
629.90 3.024989
630.00 3.004114
630.10 3.008114
630.20 3.061396
630.30 3.167614
630.40 3.321571
630.50 3.508674
630.60 3.698111
630.70 3.845374
630.80 3.923038
630.90 3.938734
631.00 3.928848
631.10 3.913146
631.20 3.899877
631.30 3.896611
631.40 3.899615
631.50 3.906133
631.60 3.911986
631.70 3.911552
631.80 3.88794
631.90 3.830223
632.00 3.746605
632.10 3.655934
632.20 3.573892
632.30 3.522793
632.40 3.531259
632.50 3.606299
632.60 3.709853
632.70 3.800799
632.80 3.855292
632.90 3.8542
633.00 3.800361
633.10 3.713062
633.20 3.619983
633.30 3.544144
633.40 3.501368
633.50 3.496778
633.60 3.526838
633.70 3.595913
633.80 3.706838
633.90 3.861445
634.00 4.060601
634.10 4.284748
634.20 4.504574
634.30 4.690984
634.40 4.812129
634.50 4.857031
634.60 4.845112
634.70 4.802938
634.80 4.752914
634.90 4.721389
635.00 4.739491
635.10 4.818407
635.20 4.936437
635.30 5.051115
635.40 5.128105
635.50 5.145452
635.60 5.069909
635.70 4.890506
635.80 4.659842
635.90 4.421569
636.00 4.193063
636.10 4.007913
636.20 3.906183
636.30 3.907626
636.40 3.990163
636.50 4.120467
636.60 4.265681
636.70 4.394122
636.80 4.479129
636.90 4.50813
637.00 4.505998
637.10 4.49607
637.20 4.45166
637.30 4.359078
637.40 4.240602
637.50 4.129986
637.60 4.054059
637.70 4.017991
637.80 4.01586
637.90 4.033327
638.00 4.076442
638.10 4.157013
638.20 4.27703
638.30 4.429484
638.40 4.597293
638.50 4.755898
638.60 4.883315
638.70 4.9738
638.80 5.027815
638.90 5.037599
639.00 4.994821
639.10 4.914394
639.20 4.830392
639.30 4.766578
639.40 4.716192
639.50 4.673145
639.60 4.644805
639.70 4.639965
639.80 4.661164
639.90 4.714903
640.00 4.800544
640.10 4.899798
640.20 4.997213
640.30 5.071188
640.40 5.100913
640.50 5.078619
640.60 5.004873
640.70 4.888284
640.80 4.750813
640.90 4.614352
641.00 4.490168
641.10 4.383959
641.20 4.302009
641.30 4.249309
641.40 4.234189
641.50 4.267249
641.60 4.347344
641.70 4.47079
641.80 4.630937
641.90 4.801167
642.00 4.945249
642.10 5.033921
642.20 5.050219
642.30 4.998096
642.40 4.905419
642.50 4.809746
642.60 4.744476
642.70 4.735751
642.80 4.79585
642.90 4.911788
643.00 5.052526
643.10 5.179203
643.20 5.253273
643.30 5.264338
643.40 5.226208
643.50 5.16057
643.60 5.087979
643.70 5.012913
643.80 4.927898
643.90 4.8389
644.00 4.7657
644.10 4.715923
644.20 4.685366
644.30 4.675549
644.40 4.68822
644.50 4.723316
644.60 4.781301
644.70 4.856073
644.80 4.940487
644.90 5.023141
645.00 5.085457
645.10 5.113557
645.20 5.106317
645.30 5.061977
645.40 4.970759
645.50 4.837144
645.60 4.68936
645.70 4.556971
645.80 4.465486
645.90 4.431467
646.00 4.46318
646.10 4.551252
646.20 4.67331
646.30 4.814907
646.40 4.967901
646.50 5.13141
646.60 5.295597
646.70 5.436381
646.80 5.537131
646.90 5.593221
647.00 5.601231
647.10 5.567831
647.20 5.505358
647.30 5.427885
647.40 5.352725
647.50 5.298888
647.60 5.278646
647.70 5.28412
647.80 5.298039
647.90 5.30174
648.00 5.282108
648.10 5.245461
648.20 5.209465
648.30 5.188107
648.40 5.192858
648.50 5.224818
648.60 5.27738
648.70 5.34467
648.80 5.411441
648.90 5.457263
649.00 5.469327
649.10 5.458145
649.20 5.447976
649.30 5.459793
649.40 5.511471
649.50 5.59763
649.60 5.691126
649.70 5.755874
649.80 5.765575
649.90 5.723592
650.00 5.653595
650.10 5.583955
650.20 5.547353
650.30 5.572927
650.40 5.676963
650.50 5.852435
650.60 6.066962
650.70 6.277715
650.80 6.445104
650.90 6.562517
651.00 6.634336
651.10 6.662487
651.20 6.660476
651.30 6.643845
651.40 6.624289
651.50 6.616549
651.60 6.63076
651.70 6.662461
651.80 6.694761
651.90 6.705649
652.00 6.689593
652.10 6.660336
652.20 6.640659
652.30 6.639769
652.40 6.657481
652.50 6.704857
652.60 6.798037
652.70 6.945326
652.80 7.139966
652.90 7.356216
653.00 7.54735
653.10 7.682168
653.20 7.754331
653.30 7.768952
653.40 7.741857
653.50 7.694324
653.60 7.648517
653.70 7.617141
653.80 7.61819
653.90 7.679645
654.00 7.811164
654.10 7.992769
654.20 8.194558
654.30 8.385775
654.40 8.548777
654.50 8.670635
654.60 8.737263
654.70 8.747255
654.80 8.71302
654.90 8.64843
655.00 8.561806
655.10 8.467442
655.20 8.376626
655.30 8.283958
655.40 8.188784
655.50 8.102445
655.60 8.045786
655.70 8.066308
655.80 8.200105
655.90 8.446084
656.00 8.784509
656.10 9.178894
656.20 9.575047
656.30 9.909321
656.40 10.12473
656.50 10.19575
656.60 10.13462
656.70 9.974147
656.80 9.742993
656.90 9.46843
657.00 9.176228
657.10 8.876393
657.20 8.592429
657.30 8.357884
657.40 8.187872
657.50 8.082797
657.60 8.027904
657.70 7.994931
657.80 7.967458
657.90 7.948317
658.00 7.943036
658.10 7.952488
658.20 7.974619
658.30 8.013683
658.40 8.078801
658.50 8.165611
658.60 8.251311
658.70 8.303877
658.80 8.303785
658.90 8.242225
659.00 8.128058
659.10 8.012318
659.20 7.941078
659.30 7.917797
659.40 7.930378
659.50 7.973142
659.60 8.046654
659.70 8.14428
659.80 8.236286
659.90 8.290661
660.00 8.29836
660.10 8.278636
660.20 8.258768
660.30 8.258541
660.40 8.292046
660.50 8.35394
660.60 8.429998
660.70 8.523738
660.80 8.642118
660.90 8.770859
661.00 8.878493
661.10 8.931734
661.20 8.914184
661.30 8.830523
661.40 8.701355
661.50 8.554135
661.60 8.422364
661.70 8.344637
661.80 8.33789
661.90 8.386756
662.00 8.464858
662.10 8.52759
662.20 8.529862
662.30 8.456335
662.40 8.317751
662.50 8.152856
662.60 8.019573
662.70 7.962081
662.80 7.993878
662.90 8.113361
663.00 8.304927
663.10 8.524221
663.20 8.716013
663.30 8.847757
663.40 8.913931
663.50 8.93
663.60 8.916047
663.70 8.893393
663.80 8.892498
663.90 8.922839
664.00 8.978117
664.10 9.063015
664.20 9.178047
664.30 9.30763
664.40 9.425338
664.50 9.518542
664.60 9.591454
664.70 9.649682
664.80 9.686579
664.90 9.694136
665.00 9.677385
665.10 9.643553
665.20 9.597341
665.30 9.551343
665.40 9.515541
665.50 9.489039
665.60 9.470482
665.70 9.44729
665.80 9.402736
665.90 9.332613
666.00 9.23807
666.10 9.121265
666.20 8.99606
666.30 8.883634
666.40 8.803814
666.50 8.776319
666.60 8.820137
666.70 8.946761
666.80 9.148448
666.90 9.391675
667.00 9.627603
667.10 9.822459
667.20 9.962778
667.30 10.04908
667.40 10.09386
667.50 10.10617
667.60 10.08585
667.70 10.03303
667.80 9.96109
667.90 9.887627
668.00 9.815682
668.10 9.743329
668.20 9.681177
668.30 9.650065
668.40 9.669782
668.50 9.739602
668.60 9.832146
668.70 9.909163
668.80 9.933963
668.90 9.882179
669.00 9.75678
669.10 9.582608
669.20 9.389911
669.30 9.219541
669.40 9.115232
669.50 9.102478
669.60 9.18825
669.70 9.354285
669.80 9.555704
669.90 9.748258
670.00 9.89443
670.10 9.954075
670.20 9.91447
670.30 9.797242
670.40 9.632305
670.50 9.456491
670.60 9.305955
670.70 9.206831
670.80 9.175331
670.90 9.221421
671.00 9.337245
671.10 9.498917
671.20 9.68662
671.30 9.884276
671.40 10.07781
671.50 10.2554
671.60 10.39923
671.70 10.49804
671.80 10.5596
671.90 10.58604
672.00 10.58036
672.10 10.55478
672.20 10.52085
672.30 10.48524
672.40 10.44964
672.50 10.41912
672.60 10.39968
672.70 10.37947
672.80 10.34404
672.90 10.29499
673.00 10.23407
673.10 10.16571
673.20 10.10105
673.30 10.0672
673.40 10.08682
673.50 10.15442
673.60 10.25446
673.70 10.37282
673.80 10.49757
673.90 10.61878
674.00 10.72335
674.10 10.80773
674.20 10.8776
674.30 10.93035
674.40 10.95558
674.50 10.94692
674.60 10.90978
674.70 10.85859
674.80 10.80963
674.90 10.77624
675.00 10.76632
675.10 10.79314
675.20 10.86866
675.30 10.97667
675.40 11.08011
675.50 11.13757
675.60 11.11584
675.70 11.0139
675.80 10.87373
675.90 10.73853
676.00 10.62672
676.10 10.54186
676.20 10.49486
676.30 10.50922
676.40 10.60477
676.50 10.76812
676.60 10.95058
676.70 11.11349
676.80 11.24523
676.90 11.35209
677.00 11.43541
677.10 11.47525
677.20 11.45568
677.30 11.39607
677.40 11.34011
677.50 11.32019
677.60 11.33414
677.70 11.35623
677.80 11.35837
677.90 11.33145
678.00 11.28686
678.10 11.23536
678.20 11.172
678.30 11.07666
678.40 10.94871
678.50 10.81962
678.60 10.71156
678.70 10.62404
678.80 10.55026
678.90 10.4959
679.00 10.47637
679.10 10.49448
679.20 10.53948
679.30 10.59718
679.40 10.65446
679.50 10.69786
679.60 10.71921
679.70 10.72617
679.80 10.72399
679.90 10.70583
680.00 10.66674
680.10 10.60753
680.20 10.53442
680.30 10.45559
680.40 10.38681
680.50 10.35358
680.60 10.37804
680.70 10.45446
680.80 10.54553
680.90 10.61225
681.00 10.63402
681.10 10.60645
681.20 10.54342
681.30 10.46424
681.40 10.38261
681.50 10.31381
681.60 10.2669
681.70 10.24199
681.80 10.23299
681.90 10.23212
682.00 10.22878
682.10 10.2248
682.20 10.24944
682.30 10.3317
682.40 10.47181
682.50 10.63373
682.60 10.76634
682.70 10.84154
682.80 10.86157
682.90 10.83508
683.00 10.76302
683.10 10.6487
683.20 10.50699
683.30 10.355
683.40 10.20735
683.50 10.06983
683.60 9.944156
683.70 9.837602
683.80 9.761779
683.90 9.740191
684.00 9.795675
684.10 9.922381
684.20 10.08682
684.30 10.24726
684.40 10.36908
684.50 10.42961
684.60 10.41757
684.70 10.33431
684.80 10.19227
684.90 10.01234
685.00 9.810527
685.10 9.608301
685.20 9.442193
685.30 9.337168
685.40 9.289248
685.50 9.28414
685.60 9.30683
685.70 9.340651
685.80 9.389274
685.90 9.470401
686.00 9.583253
686.10 9.704651
686.20 9.810016
686.30 9.884683
686.40 9.928105
686.50 9.941433
686.60 9.920653
686.70 9.87213
686.80 9.81246
686.90 9.756904
687.00 9.724122
687.10 9.730712
687.20 9.772699
687.30 9.828484
687.40 9.876193
687.50 9.909251
687.60 9.92469
687.70 9.914297
687.80 9.862678
687.90 9.757131
688.00 9.603227
688.10 9.42996
688.20 9.285126
688.30 9.218992
688.40 9.265507
688.50 9.428411
688.60 9.677025
688.70 9.952057
688.80 10.18087
688.90 10.29877
689.00 10.27943
689.10 10.12391
689.20 9.851325
689.30 9.509588
689.40 9.161809
689.50 8.859895
689.60 8.645578
689.70 8.539176
689.80 8.517891
689.90 8.543443
690.00 8.58707
690.10 8.630445
690.20 8.667957
690.30 8.700442
690.40 8.728422
690.50 8.76064
690.60 8.808014
690.70 8.879356
690.80 8.985251
690.90 9.129073
691.00 9.286147
691.10 9.417113
691.20 9.504039
691.30 9.53756
691.40 9.503237
691.50 9.394673
691.60 9.230956
691.70 9.058144
691.80 8.91963
691.90 8.846495
692.00 8.871821
692.10 9.004339
692.20 9.198961
692.30 9.393892
692.40 9.556642
692.50 9.687881
692.60 9.795443
692.70 9.88771
692.80 9.984406
692.90 10.10014
693.00 10.23802
693.10 10.38542
693.20 10.51583
693.30 10.61182
693.40 10.65448
693.50 10.62696
693.60 10.55596
693.70 10.48524
693.80 10.43226
693.90 10.40396
694.00 10.41611
694.10 10.48987
694.20 10.64573
694.30 10.90536
694.40 11.28311
694.50 11.75961
694.60 12.26929
694.70 12.7195
694.80 13.02433
694.90 13.12923
695.00 13.00651
695.10 12.67099
695.20 12.20236
695.30 11.704
695.40 11.26096
695.50 10.943
695.60 10.78649
695.70 10.78177
695.80 10.8782
695.90 11.00975
696.00 11.12924
696.10 11.21736
696.20 11.28045
696.30 11.3425
696.40 11.4299
696.50 11.55043
696.60 11.68391
696.70 11.80365
696.80 11.89093
696.90 11.92536
697.00 11.90188
697.10 11.82666
697.20 11.70493
697.30 11.56624
697.40 11.45699
697.50 11.40703
697.60 11.42131
697.70 11.4763
697.80 11.53847
697.90 11.58299
698.00 11.59271
698.10 11.56807
698.20 11.53022
698.30 11.50478
698.40 11.50688
698.50 11.54875
698.60 11.63658
698.70 11.74871
698.80 11.84702
698.90 11.90311
699.00 11.8989
699.10 11.83115
699.20 11.72121
699.30 11.61082
699.40 11.53668
699.50 11.50993
699.60 11.52768
699.70 11.58458
699.80 11.66911
699.90 11.76156
700.00 11.84925
700.10 11.93354
700.20 12.02463
700.30 12.12996
700.40 12.24908
700.50 12.38932
700.60 12.54725
700.70 12.69462
700.80 12.81125
700.90 12.89534
701.00 12.94307
701.10 12.95358
701.20 12.93171
701.30 12.89141
701.40 12.85984
701.50 12.85256
701.60 12.87567
701.70 12.93413
701.80 13.03255
701.90 13.16793
702.00 13.32322
702.10 13.47649
702.20 13.60645
702.30 13.69678
702.40 13.74441
702.50 13.75309
702.60 13.74654
702.70 13.76329
702.80 13.81265
702.90 13.90248
703.00 14.04776
703.10 14.24668
703.20 14.48197
703.30 14.72383
703.40 14.94547
703.50 15.14399
703.60 15.34444
703.70 15.57162
703.80 15.82757
703.90 16.10822
704.00 16.39286
704.10 16.6389
704.20 16.82027
704.30 16.92559
704.40 16.95055
704.50 16.9057
704.60 16.81349
704.70 16.70288
704.80 16.60251
704.90 16.5232
705.00 16.44918
705.10 16.35274
705.20 16.21862
705.30 16.03759
705.40 15.80452
705.50 15.53773
705.60 15.27431
705.70 15.05075
705.80 14.89047
705.90 14.80017
706.00 14.77898
706.10 14.83012
706.20 14.94695
706.30 15.10267
706.40 15.25831
706.50 15.38063
706.60 15.45632
706.70 15.49889
706.80 15.53357
706.90 15.5756
707.00 15.62759
707.10 15.67886
707.20 15.71905
707.30 15.7561
707.40 15.80794
707.50 15.87357
707.60 15.94086
707.70 15.99913
707.80 16.0371
707.90 16.04697
708.00 16.02443
708.10 15.96336
708.20 15.85581
708.30 15.7011
708.40 15.50747
708.50 15.2998
708.60 15.11482
708.70 14.97475
708.80 14.87364
708.90 14.79819
709.00 14.73952
709.10 14.70108
709.20 14.69574
709.30 14.72553
709.40 14.77985
709.50 14.84064
709.60 14.8893
709.70 14.92304
709.80 14.96059
709.90 15.02485
710.00 15.1188
710.10 15.227
710.20 15.34319
710.30 15.46581
710.40 15.58829
710.50 15.70004
710.60 15.78363
710.70 15.8269
710.80 15.82413
710.90 15.79001
711.00 15.76513
711.10 15.7732
711.20 15.80681
711.30 15.85698
711.40 15.92074
711.50 15.99277
711.60 16.06166
711.70 16.11717
711.80 16.15099
711.90 16.15998
712.00 16.15077
712.10 16.13652
712.20 16.12621
712.30 16.10746
712.40 16.06804
712.50 16.01495
712.60 15.9592
712.70 15.90609
712.80 15.86102
712.90 15.82701
713.00 15.8037
713.10 15.7877
713.20 15.77076
713.30 15.7474
713.40 15.72099
713.50 15.69586
713.60 15.6801
713.70 15.68633
713.80 15.72032
713.90 15.78283
714.00 15.87697
714.10 16.00073
714.20 16.13906
714.30 16.2826
714.40 16.42421
714.50 16.55484
714.60 16.67416
714.70 16.78569
714.80 16.89364
714.90 17.00115
715.00 17.1015
715.10 17.18394
715.20 17.24356
715.30 17.28103
715.40 17.29341
715.50 17.28276
715.60 17.26323
715.70 17.24561
715.80 17.24413
715.90 17.27329
716.00 17.33452
716.10 17.41798
716.20 17.51778
716.30 17.63983
716.40 17.79274
716.50 17.97054
716.60 18.1429
716.70 18.27043
716.80 18.33227
716.90 18.33072
717.00 18.27463
717.10 18.18175
717.20 18.07709
717.30 17.97818
717.40 17.89932
717.50 17.85497
717.60 17.83885
717.70 17.82917
717.80 17.81423
717.90 17.79834
718.00 17.7959
718.10 17.82751
718.20 17.89845
718.30 17.9905
718.40 18.0911
718.50 18.1999
718.60 18.31721
718.70 18.4428
718.80 18.57417
718.90 18.70336
719.00 18.82423
719.10 18.9279
719.20 19.00454
719.30 19.04668
719.40 19.04495
719.50 19.00577
719.60 18.95387
719.70 18.91467
719.80 18.91256
719.90 18.96644
720.00 19.08416
720.10 19.25722
720.20 19.45226
720.30 19.6231
720.40 19.73326
720.50 19.76862
720.60 19.72889
720.70 19.63087
720.80 19.51545
720.90 19.4128
721.00 19.33612
721.10 19.30311
721.20 19.3301
721.30 19.41515
721.40 19.5351
721.50 19.66387
721.60 19.79137
721.70 19.9218
721.80 20.05081
721.90 20.16211
722.00 20.24838
722.10 20.30672
722.20 20.32411
722.30 20.2984
722.40 20.25389
722.50 20.22207
722.60 20.21901
722.70 20.24968
722.80 20.32209
722.90 20.43833
723.00 20.57542
723.10 20.69667
723.20 20.78676
723.30 20.85053
723.40 20.91036
723.50 21.03211
723.60 21.28577
723.70 21.66927
723.80 22.10602
723.90 22.50226
724.00 22.81763
724.10 23.03653
724.20 23.1135
724.30 23.02078
724.40 22.79188
724.50 22.48971
724.60 22.17461
724.70 21.91869
724.80 21.78409
724.90 21.77054
725.00 21.8406
725.10 21.98348
725.20 22.21202
725.30 22.51137
725.40 22.8031
725.50 23.01221
725.60 23.11582
725.70 23.12635
725.80 23.07556
725.90 23.00295
726.00 22.93669
726.10 22.88067
726.20 22.82758
726.30 22.7726
726.40 22.71988
726.50 22.67107
726.60 22.62402
726.70 22.58021
726.80 22.54431
726.90 22.54447
727.00 22.6464
727.10 22.91645
727.20 23.38431
727.30 23.99525
727.40 24.61538
727.50 25.1088
727.60 25.37989
727.70 25.37883
727.80 25.13118
727.90 24.74003
728.00 24.33002
728.10 24.01088
728.20 23.85724
728.30 23.86909
728.40 23.97696
728.50 24.06716
728.60 24.0171
728.70 23.77956
728.80 23.41435
728.90 23.02512
729.00 22.71313
729.10 22.57039
729.20 22.63923
729.30 22.88261
729.40 23.23069
729.50 23.61417
729.60 23.96685
729.70 24.2558
729.80 24.46486
729.90 24.58696
730.00 24.64417
730.10 24.66962
730.20 24.69734
730.30 24.74797
730.40 24.82016
730.50 24.91289
730.60 25.02879
730.70 25.17466
730.80 25.34983
730.90 25.55053
731.00 25.78777
731.10 26.08158
731.20 26.45588
731.30 26.88671
731.40 27.2906
731.50 27.59555
731.60 27.76362
731.70 27.78798
731.80 27.69134
731.90 27.50642
732.00 27.26828
732.10 27.01671
732.20 26.80667
732.30 26.70539
732.40 26.76268
732.50 26.94928
732.60 27.15049
732.70 27.27114
732.80 27.26996
732.90 27.1395
733.00 26.89836
733.10 26.58174
733.20 26.25289
733.30 25.99822
733.40 25.91239
733.50 26.08088
733.60 26.5421
733.70 27.23444
733.80 28.01684
733.90 28.7332
734.00 29.26329
734.10 29.53161
734.20 29.50323
734.30 29.19191
734.40 28.64664
734.50 27.96358
734.60 27.27691
734.70 26.70051
734.80 26.29292
734.90 26.05984
735.00 25.96941
735.10 25.98985
735.20 26.08647
735.30 26.21586
735.40 26.3464
735.50 26.45477
735.60 26.52212
735.70 26.53154
735.80 26.49907
735.90 26.44837
736.00 26.38995
736.10 26.34989
736.20 26.36742
736.30 26.47499
736.40 26.71134
736.50 27.08886
736.60 27.54722
736.70 27.99739
736.80 28.34121
736.90 28.49051
737.00 28.41394
737.10 28.13991
737.20 27.72225
737.30 27.23231
737.40 26.74548
737.50 26.32534
737.60 26.02744
737.70 25.88643
737.80 25.87613
737.90 25.93496
738.00 26.02244
738.10 26.1113
738.20 26.19185
738.30 26.268
738.40 26.34396
738.50 26.41519
738.60 26.48644
738.70 26.58878
738.80 26.73501
738.90 26.90332
739.00 27.06213
739.10 27.17402
739.20 27.18227
739.30 27.04776
739.40 26.78587
739.50 26.46512
739.60 26.18353
739.70 26.02683
739.80 26.04069
739.90 26.22399
740.00 26.52016
740.10 26.82459
740.20 27.03927
740.30 27.1079
740.40 27.0086
740.50 26.75365
740.60 26.40738
740.70 26.04666
740.80 25.73471
740.90 25.51097
741.00 25.37125
741.10 25.29774
741.20 25.27869
741.30 25.30456
741.40 25.3737
741.50 25.48518
741.60 25.61586
741.70 25.7304
741.80 25.79158
741.90 25.77242
742.00 25.66596
742.10 25.49043
742.20 25.28311
742.30 25.08671
742.40 24.95277
742.50 24.92696
742.60 25.01385
742.70 25.18055
742.80 25.37914
742.90 25.54878
743.00 25.64526
743.10 25.64964
743.20 25.56507
743.30 25.4169
743.40 25.23294
743.50 25.04657
743.60 24.91122
743.70 24.86278
743.80 24.89058
743.90 24.95807
744.00 25.02753
744.10 25.06862
744.20 25.04591
744.30 24.94303
744.40 24.77124
744.50 24.55023
744.60 24.30521
744.70 24.06475
744.80 23.87107
744.90 23.76867
745.00 23.7652
745.10 23.83807
745.20 23.95617
745.30 24.0698
745.40 24.13444
745.50 24.14285
745.60 24.10935
745.70 24.05177
745.80 23.99783
745.90 23.98483
746.00 24.04101
746.10 24.17461
746.20 24.37377
746.30 24.59875
746.40 24.79602
746.50 24.93348
746.60 25.00794
746.70 25.0446
746.80 25.07304
746.90 25.09607
747.00 25.1099
747.10 25.11181
747.20 25.08649
747.30 25.02456
747.40 24.93711
747.50 24.83822
747.60 24.75401
747.70 24.72821
747.80 24.7916
747.90 24.94957
748.00 25.18968
748.10 25.47101
748.20 25.71709
748.30 25.8473
748.40 25.82553
748.50 25.67649
748.60 25.45903
748.70 25.22785
748.80 25.02046
748.90 24.87231
749.00 24.80703
749.10 24.82071
749.20 24.88893
749.30 24.97167
749.40 25.02229
749.50 25.01847
749.60 24.98633
749.70 24.97468
749.80 24.99994
749.90 25.04916
750.00 25.11359
750.10 25.18154
750.20 25.23942
750.30 25.28209
750.40 25.30447
750.50 25.30571
750.60 25.29657
750.70 25.2901
750.80 25.29803
750.90 25.32698
751.00 25.36486
751.10 25.39859
751.20 25.44419
751.30 25.51807
751.40 25.60846
751.50 25.68864
751.60 25.73542
751.70 25.74538
751.80 25.7439
751.90 25.77529
752.00 25.86589
752.10 26.0029
752.20 26.16257
752.30 26.3243
752.40 26.47081
752.50 26.58023
752.60 26.6211
752.70 26.56841
752.80 26.42152
752.90 26.20381
753.00 25.95064
753.10 25.7051
753.20 25.49418
753.30 25.31638
753.40 25.16821
753.50 25.07121
753.60 25.04325
753.70 25.07507
753.80 25.14333
753.90 25.22826
754.00 25.31095
754.10 25.37232
754.20 25.40239
754.30 25.40608
754.40 25.39343
754.50 25.36041
754.60 25.29987
754.70 25.21193
754.80 25.11267
754.90 25.03124
755.00 24.99096
755.10 25.01457
755.20 25.12103
755.30 25.29367
755.40 25.48764
755.50 25.6714
755.60 25.82707
755.70 25.93779
755.80 25.99458
755.90 25.99483
756.00 25.93476
756.10 25.81121
756.20 25.6296
756.30 25.40593
756.40 25.16081
756.50 24.92934
756.60 24.77594
756.70 24.75136
756.80 24.85859
756.90 25.05246
757.00 25.26958
757.10 25.44865
757.20 25.53353
757.30 25.49459
757.40 25.34492
757.50 25.14129
757.60 24.948
757.70 24.81831
757.80 24.79712
757.90 24.88738
758.00 25.0407
758.10 25.19879
758.20 25.30624
758.30 25.32342
758.40 25.21519
758.50 24.94956
758.60 24.5274
758.70 23.9851
758.80 23.37395
758.90 22.74393
759.00 22.14925
759.10 21.64661
759.20 21.2887
759.30 21.118
759.40 21.1325
759.50 21.28491
759.60 21.5294
759.70 21.81671
759.80 22.10711
759.90 22.38563
760.00 22.61222
760.10 22.71547
760.20 22.65234
760.30 22.42941
760.40 22.08106
760.50 21.64568
760.60 21.15542
760.70 20.62889
760.80 20.10115
760.90 19.64705
761.00 19.3372
761.10 19.20136
761.20 19.22069
761.30 19.35452
761.40 19.56821
761.50 19.8179
761.60 20.04124
761.70 20.17213
761.80 20.15081
761.90 19.94928
762.00 19.59551
762.10 19.16109
762.20 18.72493
762.30 18.34733
762.40 18.05256
762.50 17.83011
762.60 17.6413
762.70 17.42177
762.80 17.10933
762.90 16.68866
763.00 16.18293
763.10 15.63311
763.20 15.08886
763.30 14.58959
763.40 14.16539
763.50 13.83084
763.60 13.58429
763.70 13.39723
763.80 13.22444
763.90 13.02204
764.00 12.76185
764.10 12.43121
764.20 12.03251
764.30 11.57756
764.40 11.07973
764.50 10.54812
764.60 10.00201
764.70 9.487902
764.80 9.028938
764.90 8.620091
765.00 8.253498
765.10 7.913833
765.20 7.578492
765.30 7.227515
765.40 6.845909
765.50 6.429127
765.60 5.988841
765.70 5.550587
765.80 5.142051
765.90 4.779155
766.00 4.472374
766.10 4.214752
766.20 3.988126
766.30 3.784935
766.40 3.592573
766.50 3.410375
766.60 3.264982
766.70 3.191144
766.80 3.219201
766.90 3.36331
767.00 3.616735
767.10 3.954704
767.20 4.343712
767.30 4.7612
767.40 5.190662
767.50 5.612152
767.60 6.013137
767.70 6.385925
767.80 6.735674
767.90 7.076946
768.00 7.418832
768.10 7.756685
768.20 8.069659
768.30 8.333987
768.40 8.525809
768.50 8.617645
768.60 8.588421
768.70 8.434959
768.80 8.180613
768.90 7.869223
769.00 7.542626
769.10 7.22942
769.20 6.938807
769.30 6.655655
769.40 6.363102
769.50 6.050772
769.60 5.709436
769.70 5.341898
769.80 4.971904
769.90 4.641244
770.00 4.396165
770.10 4.269665
770.20 4.268607
770.30 4.387369
770.40 4.611575
770.50 4.920298
770.60 5.316747
770.70 5.847731
770.80 6.553053
770.90 7.408342
771.00 8.367954
771.10 9.381858
771.20 10.37057
771.30 11.21206
771.40 11.7897
771.50 12.06306
771.60 12.06555
771.70 11.88005
771.80 11.64611
771.90 11.53485
772.00 11.66239
772.10 12.04018
772.20 12.61399
772.30 13.34198
772.40 14.15608
772.50 14.93619
772.60 15.57551
772.70 16.04573
772.80 16.37818
772.90 16.60756
773.00 16.77328
773.10 16.9124
773.20 17.03693
773.30 17.15192
773.40 17.27114
773.50 17.41681
773.60 17.60204
773.70 17.81165
773.80 18.03158
773.90 18.26523
774.00 18.52047
774.10 18.79369
774.20 19.05588
774.30 19.27783
774.40 19.46576
774.50 19.6641
774.60 19.92925
774.70 20.28694
774.80 20.71809
774.90 21.16394
775.00 21.56177
775.10 21.85413
775.20 21.99659
775.30 21.99775
775.40 21.90811
775.50 21.78998
775.60 21.71824
775.70 21.75221
775.80 21.89074
775.90 22.06996
776.00 22.20688
776.10 22.24267
776.20 22.16484
776.30 22.00719
776.40 21.8221
776.50 21.68156
776.60 21.65732
776.70 21.77961
776.80 22.04246
776.90 22.41478
777.00 22.83973
777.10 23.24684
777.20 23.56336
777.30 23.73414
777.40 23.73628
777.50 23.58296
777.60 23.34075
777.70 23.10367
777.80 22.9483
777.90 22.93058
778.00 23.0691
778.10 23.32204
778.20 23.60272
778.30 23.82079
778.40 23.91534
778.50 23.86292
778.60 23.69097
778.70 23.48683
778.80 23.37655
778.90 23.47598
779.00 23.81144
779.10 24.3166
779.20 24.86991
779.30 25.30038
779.40 25.42206
779.50 25.09912
779.60 24.26941
779.70 22.96151
779.80 21.32065
779.90 19.59052
780.00 18.07391
780.10 17.05113
780.20 16.70408
780.30 17.08559
780.40 18.12025
780.50 19.60769
780.60 21.279
780.70 22.86009
780.80 24.13361
780.90 24.97516
781.00 25.37693
781.10 25.4348
781.20 25.28971
781.30 25.10432
781.40 25.02039
781.50 25.14001
781.60 25.52218
781.70 26.12944
781.80 26.84816
781.90 27.55382
782.00 28.12836
782.10 28.48289
782.20 28.56727
782.30 28.39935
782.40 28.05084
782.50 27.61106
782.60 27.16933
782.70 26.79331
782.80 26.53169
782.90 26.39405
783.00 26.33068
783.10 26.30702
783.20 26.32906
783.30 26.3987
783.40 26.50193
783.50 26.64597
783.60 26.86068
783.70 27.14441
783.80 27.47443
783.90 27.83779
784.00 28.24075
784.10 28.68301
784.20 29.14704
784.30 29.62122
784.40 30.09312
784.50 30.51961
784.60 30.82035
784.70 30.96702
784.80 31.04547
784.90 31.1494
785.00 31.28384
785.10 31.42073
785.20 31.55687
785.30 31.69562
785.40 31.81941
785.50 31.9042
785.60 31.94445
785.70 31.94039
785.80 31.89919
785.90 31.8321
786.00 31.77427
786.10 31.74446
786.20 31.67412
786.30 31.48329
786.40 31.21896
786.50 31.00147
786.60 30.90266
786.70 30.92008
786.80 30.99788
786.90 31.05829
787.00 30.99982
787.10 30.74267
787.20 30.27786
787.30 29.6835
787.40 29.08731
787.50 28.61954
787.60 28.41036
787.70 28.57292
787.80 29.11539
787.90 29.91793
788.00 30.81106
788.10 31.63471
788.20 32.26932
788.30 32.65385
788.40 32.8226
788.50 32.85234
788.60 32.78891
788.70 32.67472
788.80 32.55577
788.90 32.47509
789.00 32.4644
789.10 32.49565
789.20 32.51286
789.30 32.4931
789.40 32.44355
789.50 32.36499
789.60 32.24815
789.70 32.08491
789.80 31.85294
789.90 31.54413
790.00 31.20881
790.10 30.92435
790.20 30.74734
790.30 30.70354
790.40 30.78345
790.50 30.95945
790.60 31.17509
790.70 31.37221
790.80 31.56529
790.90 31.83387
791.00 32.23447
791.10 32.76333
791.20 33.32625
791.30 33.81806
791.40 34.17747
791.50 34.34835
791.60 34.32566
791.70 34.13327
791.80 33.81293
791.90 33.45194
792.00 33.16509
792.10 33.0163
792.20 32.94623
792.30 32.82467
792.40 32.56805
792.50 32.18556
792.60 31.78815
792.70 31.51142
792.80 31.46124
792.90 31.69826
793.00 32.2137
793.10 32.95245
793.20 33.81364
793.30 34.6412
793.40 35.27255
793.50 35.59545
793.60 35.56806
793.70 35.24105
793.80 34.71967
793.90 34.10108
794.00 33.4485
794.10 32.78477
794.20 32.0742
794.30 31.24389
794.40 30.23048
794.50 29.05009
794.60 27.80653
794.70 26.66146
794.80 25.80475
794.90 25.41475
795.00 25.61195
795.10 26.39442
795.20 27.64185
795.30 29.15775
795.40 30.72871
795.50 32.14037
795.60 33.22807
795.70 33.93018
795.80 34.29034
795.90 34.44736
796.00 34.54258
796.10 34.66757
796.20 34.88579
796.30 35.22973
796.40 35.67249
796.50 36.1275
796.60 36.49179
796.70 36.69273
796.80 36.70399
796.90 36.55361
797.00 36.29731
797.10 36.00194
797.20 35.72134
797.30 35.4634
797.40 35.26671
797.50 35.20162
797.60 35.29362
797.70 35.49729
797.80 35.7489
797.90 36.00403
798.00 36.21682
798.10 36.33276
798.20 36.29009
798.30 36.05543
798.40 35.65126
798.50 35.14823
798.60 34.65143
798.70 34.27739
798.80 34.08772
798.90 34.07274
799.00 34.23403
799.10 34.59648
799.20 35.12478
799.30 35.7269
799.40 36.29665
799.50 36.74617
799.60 37.04456
799.70 37.20111
799.80 37.2566
799.90 37.26464
800.00 37.26563
800.10 37.28237
800.20 37.33388
800.30 37.43477
800.40 37.54013
800.50 37.58514
800.60 37.55027
800.70 37.45459
800.80 37.36885
800.90 37.40135
801.00 37.63033
801.10 38.06982
801.20 38.65109
801.30 39.25273
801.40 39.76498
801.50 40.09608
801.60 40.19099
801.70 40.05779
801.80 39.76794
801.90 39.41547
802.00 39.10774
802.10 38.96933
802.20 39.07505
802.30 39.43644
802.40 40.02064
802.50 40.75033
802.60 41.54872
802.70 42.34459
802.80 43.05186
802.90 43.59577
803.00 43.93611
803.10 44.06608
803.20 43.99581
803.30 43.75353
803.40 43.38822
803.50 42.95999
803.60 42.54011
803.70 42.18001
803.80 41.90839
803.90 41.75005
804.00 41.72103
804.10 41.83715
804.20 42.09254
804.30 42.44165
804.40 42.80629
804.50 43.12642
804.60 43.38427
804.70 43.60376
804.80 43.86434
804.90 44.24494
805.00 44.78274
805.10 45.46959
805.20 46.25364
805.30 47.06671
805.40 47.82256
805.50 48.43393
805.60 48.8631
805.70 49.11419
805.80 49.22215
805.90 49.23989
806.00 49.21271
806.10 49.15511
806.20 49.03621
806.30 48.83182
806.40 48.55657
806.50 48.2476
806.60 47.96064
806.70 47.75794
806.80 47.70125
806.90 47.8373
807.00 48.16539
807.10 48.65192
807.20 49.26341
807.30 49.9475
807.40 50.63724
807.50 51.27815
807.60 51.82246
807.70 52.2345
807.80 52.50589
807.90 52.68274
808.00 52.84441
808.10 53.05102
808.20 53.32202
808.30 53.63163
808.40 53.93114
808.50 54.15821
808.60 54.24839
808.70 54.17643
808.80 53.9667
808.90 53.68989
809.00 53.44302
809.10 53.30254
809.20 53.30788
809.30 53.4388
809.40 53.61654
809.50 53.75214
809.60 53.78353
809.70 53.6875
809.80 53.4888
809.90 53.26231
810.00 53.09617
810.10 53.04252
810.20 53.10843
810.30 53.27025
810.40 53.49041
810.50 53.72986
810.60 53.94938
810.70 54.12274
810.80 54.25877
810.90 54.39774
811.00 54.57859
811.10 54.81519
811.20 55.08751
811.30 55.36493
811.40 55.63627
811.50 55.91868
811.60 56.26143
811.70 56.69336
811.80 57.17755
811.90 57.64327
812.00 58.02566
812.10 58.27836
812.20 58.39968
812.30 58.42797
812.40 58.42969
812.50 58.49501
812.60 58.70568
812.70 59.09754
812.80 59.6347
812.90 60.23105
813.00 60.77369
813.10 61.1613
813.20 61.36737
813.30 61.46187
813.40 61.56183
813.50 61.77404
813.60 62.13735
813.70 62.59902
813.80 63.04038
813.90 63.31284
814.00 63.28032
814.10 62.88091
814.20 62.15356
814.30 61.21807
814.40 60.21586
814.50 59.30155
814.60 58.63399
814.70 58.30285
814.80 58.31285
814.90 58.59598
815.00 59.04663
815.10 59.56507
815.20 60.08457
815.30 60.56633
815.40 61.0106
815.50 61.42965
815.60 61.81637
815.70 62.15195
815.80 62.4386
815.90 62.70215
816.00 62.98087
816.10 63.32045
816.20 63.74319
816.30 64.21898
816.40 64.68277
816.50 65.09472
816.60 65.45007
816.70 65.75621
816.80 66.01162
816.90 66.22865
817.00 66.4385
817.10 66.67743
817.20 66.97741
817.30 67.33255
817.40 67.66397
817.50 67.82549
817.60 67.66042
817.70 67.07382
817.80 66.0188
817.90 64.46617
818.00 62.43801
818.10 60.0659
818.20 57.59608
818.30 55.35302
818.40 53.67575
818.50 52.81229
818.60 52.84542
818.70 53.65758
818.80 54.95533
818.90 56.32687
819.00 57.32313
819.10 57.57812
819.20 56.93182
819.30 55.47901
819.40 53.53467
819.50 51.56096
819.60 50.04037
819.70 49.32303
819.80 49.55612
819.90 50.70402
820.00 52.58155
820.10 54.89515
820.20 57.30457
820.30 59.50815
820.40 61.32582
820.50 62.71133
820.60 63.70942
820.70 64.39695
820.80 64.86307
820.90 65.18635
821.00 65.39887
821.10 65.50234
821.20 65.50389
821.30 65.42953
821.40 65.30268
821.50 65.13629
821.60 64.96875
821.70 64.8742
821.80 64.91533
821.90 65.11883
822.00 65.46429
822.10 65.90565
822.20 66.39039
822.30 66.85863
822.40 67.29214
822.50 67.71201
822.60 68.13806
822.70 68.5442
822.80 68.8966
822.90 69.2052
823.00 69.47611
823.10 69.68983
823.20 69.81507
823.30 69.84517
823.40 69.83116
823.50 69.83926
823.60 69.9059
823.70 70.06401
823.80 70.3277
823.90 70.66473
824.00 71.02247
824.10 71.38085
824.20 71.74708
824.30 72.13927
824.40 72.59864
824.50 73.17185
824.60 73.87841
824.70 74.63574
824.80 75.27431
824.90 75.65066
825.00 75.70341
825.10 75.4223
825.20 74.8305
825.30 74.01092
825.40 73.11948
825.50 72.33517
825.60 71.81175
825.70 71.63929
825.80 71.7953
825.90 72.1684
826.00 72.62919
826.10 73.09094
826.20 73.512
826.30 73.85952
826.40 74.10525
826.50 74.24231
826.60 74.31649
826.70 74.39898
826.80 74.51255
826.90 74.63446
827.00 74.71085
827.10 74.70394
827.20 74.63303
827.30 74.55449
827.40 74.52806
827.50 74.60859
827.60 74.83117
827.70 75.19442
827.80 75.65402
827.90 76.10957
828.00 76.4247
828.10 76.49298
828.20 76.27167
828.30 75.80153
828.40 75.21215
828.50 74.63234
828.60 74.09735
828.70 73.57511
828.80 73.03275
828.90 72.4397
829.00 71.79034
829.10 71.11722
829.20 70.481
829.30 69.97754
829.40 69.7243
829.50 69.80266
829.60 70.21716
829.70 70.86847
829.80 71.55418
829.90 72.03125
830.00 72.16712
830.10 71.95186
830.20 71.41752
830.30 70.64754
830.40 69.75121
830.50 68.86017
830.60 68.12022
830.70 67.6475
830.80 67.49519
830.90 67.64123
831.00 68.02596
831.10 68.56486
831.20 69.15835
831.30 69.74095
831.40 70.26104
831.50 70.67623
831.60 70.97981
831.70 71.20376
831.80 71.41066
831.90 71.64709
832.00 71.91667
832.10 72.20923
832.20 72.48576
832.30 72.67828
832.40 72.71318
832.50 72.55747
832.60 72.24066
832.70 71.84482
832.80 71.4788
832.90 71.23775
833.00 71.19129
833.10 71.3492
833.20 71.65685
833.30 72.04287
833.40 72.44975
833.50 72.83423
833.60 73.1764
833.70 73.49319
833.80 73.84237
833.90 74.2667
834.00 74.76585
834.10 75.29395
834.20 75.86914
834.30 76.54102
834.40 77.26998
834.50 77.97536
834.60 78.53899
834.70 78.85119
834.80 78.8546
834.90 78.53988
835.00 77.96434
835.10 77.25276
835.20 76.55025
835.30 75.98368
835.40 75.63083
835.50 75.5293
835.60 75.60189
835.70 75.68263
835.80 75.66613
835.90 75.53222
836.00 75.3574
836.10 75.25196
836.20 75.29342
836.30 75.53813
836.40 76.01087
836.50 76.672
836.60 77.41856
836.70 78.12075
836.80 78.67309
836.90 78.98494
837.00 78.96291
837.10 78.58192
837.20 77.89031
837.30 76.97731
837.40 75.97926
837.50 75.07012
837.60 74.43318
837.70 74.23832
837.80 74.55692
837.90 75.31059
838.00 76.32099
838.10 77.36145
838.20 78.20265
838.30 78.64322
838.40 78.54939
838.50 77.89871
838.60 76.8023
838.70 75.45449
838.80 74.06895
838.90 72.8433
839.00 71.93957
839.10 71.43064
839.20 71.32229
839.30 71.62451
839.40 72.32525
839.50 73.383
839.60 74.78497
839.70 76.50633
839.80 78.41798
839.90 80.31631
840.00 81.95846
840.10 83.11522
840.20 83.6783
840.30 83.66727
840.40 83.20529
840.50 82.47405
840.60 81.66927
840.70 80.9524
840.80 80.40629
840.90 80.07145
841.00 79.9051
841.10 79.81558
841.20 79.79857
841.30 79.88668
841.40 80.10654
841.50 80.47842
841.60 80.94531
841.70 81.38968
841.80 81.67173
841.90 81.6779
842.00 81.36999
842.10 80.80992
842.20 80.13665
842.30 79.49547
842.40 79.00423
842.50 78.74156
842.60 78.74166
842.70 79.07575
842.80 79.78103
842.90 80.74566
843.00 81.76582
843.10 82.55673
843.20 82.8156
843.30 82.34154
843.40 81.09387
843.50 79.18573
843.60 76.84932
843.70 74.38352
843.80 72.09779
843.90 70.25283
844.00 68.97478
844.10 68.15485
844.20 67.56898
844.30 67.05402
844.40 66.50995
844.50 65.93641
844.60 65.41299
844.70 65.02475
844.80 64.75861
844.90 64.51925
845.00 64.27594
845.10 64.04742
845.20 63.83867
845.30 63.63959
845.40 63.42768
845.50 63.19549
845.60 62.97753
845.70 62.81126
845.80 62.71135
845.90 62.67301
846.00 62.7123
846.10 62.86064
846.20 63.12717
846.30 63.47664
846.40 63.8543
846.50 64.21202
846.60 64.48377
846.70 64.60863
846.80 64.55739
846.90 64.34543
847.00 63.99703
847.10 63.55998
847.20 63.10941
847.30 62.71975
847.40 62.41544
847.50 62.16963
847.60 62.01945
847.70 62.03358
847.80 62.16881
847.90 62.29079
848.00 62.28249
848.10 62.08935
848.20 61.77716
848.30 61.4681
848.40 61.2393
848.50 61.12327
848.60 61.13944
848.70 61.32299
848.80 61.70711
848.90 62.29989
849.00 63.05374
849.10 63.89531
849.20 64.76592
849.30 65.59438
849.40 66.28408
849.50 66.72444
849.60 66.79074
849.70 66.4344
849.80 65.75467
849.90 64.97078
850.00 64.33105
850.10 64.01875
850.20 64.13415
850.30 64.65921
850.40 65.49108
850.50 66.48004
850.60 67.41586
850.70 68.09315
850.80 68.38738
850.90 68.28197
851.00 67.84658
851.10 67.17214
851.20 66.33768
851.30 65.40679
851.40 64.43252
851.50 63.42921
851.60 62.34104
851.70 61.07961
851.80 59.56455
851.90 57.76921
852.00 55.8115
852.10 53.98518
852.20 52.64873
852.30 52.09304
852.40 52.46519
852.50 53.75513
852.60 55.80968
852.70 58.32966
852.80 60.92143
852.90 63.22428
853.00 64.99822
853.10 66.18431
853.20 66.86947
853.30 67.18765
853.40 67.26688
853.50 67.19167
853.60 67.04215
853.70 66.92296
853.80 66.91597
853.90 67.04755
854.00 67.29607
854.10 67.61724
854.20 67.96534
854.30 68.28396
854.40 68.54481
854.50 68.75561
854.60 68.98598
854.70 69.36601
854.80 69.98141
854.90 70.82184
855.00 71.78642
855.10 72.71814
855.20 73.47888
855.30 73.99609
855.40 74.24816
855.50 74.24566
855.60 74.02335
855.70 73.64482
855.80 73.18467
855.90 72.71031
856.00 72.22784
856.10 71.71288
856.20 71.20176
856.30 70.78599
856.40 70.55622
856.50 70.56183
856.60 70.79101
856.70 71.17482
856.80 71.61793
856.90 72.00861
857.00 72.25729
857.10 72.31898
857.20 72.17829
857.30 71.85477
857.40 71.427
857.50 71.00845
857.60 70.69052
857.70 70.52293
857.80 70.53149
857.90 70.73223
858.00 71.11437
858.10 71.63383
858.20 72.22488
858.30 72.82714
858.40 73.41365
858.50 73.9643
858.60 74.43821
858.70 74.7716
858.80 74.91152
858.90 74.8224
859.00 74.48887
859.10 73.97759
859.20 73.42718
859.30 72.97388
859.40 72.74179
859.50 72.8089
859.60 73.14611
859.70 73.66004
859.80 74.21567
859.90 74.65966
860.00 74.89028
860.10 74.88282
860.20 74.67218
860.30 74.35317
860.40 74.03688
860.50 73.75787
860.60 73.45423
860.70 73.01923
860.80 72.32381
860.90 71.27032
861.00 69.87728
861.10 68.19831
861.20 66.25824
861.30 64.11756
861.40 61.89527
861.50 59.75763
861.60 57.86483
861.70 56.31596
861.80 55.15867
861.90 54.40104
862.00 53.99622
862.10 53.83915
862.20 53.80064
862.30 53.76045
862.40 53.6136
862.50 53.30866
862.60 52.88701
862.70 52.44821
862.80 52.08722
862.90 51.84211
863.00 51.70891
863.10 51.68181
863.20 51.75153
863.30 51.88258
863.40 52.01729
863.50 52.12447
863.60 52.21398
863.70 52.31205
863.80 52.43861
863.90 52.62463
864.00 52.91674
864.10 53.32863
864.20 53.83032
864.30 54.37851
864.40 54.92701
864.50 55.46988
864.60 56.03342
864.70 56.62696
864.80 57.26477
864.90 57.97552
865.00 58.79646
865.10 59.72288
865.20 60.69098
865.30 61.6374
865.40 62.50008
865.50 63.23205
865.60 63.83824
865.70 64.37338
865.80 64.88317
865.90 65.31105
866.00 65.55775
866.10 65.58733
866.20 65.43734
866.30 65.16955
866.40 64.80636
866.50 64.38775
866.60 63.99637
866.70 63.67614
866.80 63.41718
866.90 63.20834
867.00 63.04568
867.10 62.88123
867.20 62.65571
867.30 62.4129
867.40 62.27894
867.50 62.34712
867.60 62.62295
867.70 63.04772
867.80 63.52309
867.90 63.90799
868.00 64.08546
868.10 64.00377
868.20 63.67343
868.30 63.1702
868.40 62.60489
868.50 62.09355
868.60 61.73715
868.70 61.53558
868.80 61.33967
868.90 60.95725
869.00 60.22687
869.10 59.02186
869.20 57.31465
869.30 55.20657
869.40 52.86856
869.50 50.55848
869.60 48.5841
869.70 47.14251
869.80 46.291
869.90 46.02691
870.00 46.29767
870.10 46.98226
870.20 47.93177
870.30 48.96989
870.40 49.919
870.50 50.67072
870.60 51.16582
870.70 51.36383
870.80 51.23708
870.90 50.77483
871.00 50.0179
871.10 49.0999
871.20 48.19728
871.30 47.4438
871.40 46.91194
871.50 46.61935
871.60 46.53795
871.70 46.6196
871.80 46.80436
871.90 47.02168
872.00 47.22698
872.10 47.4283
872.20 47.716
872.30 48.19366
872.40 48.91026
872.50 49.85236
872.60 50.94377
872.70 52.04646
872.80 52.98815
872.90 53.65685
873.00 54.01784
873.10 54.07471
873.20 53.84913
873.30 53.39324
873.40 52.80141
873.50 52.20595
873.60 51.74443
873.70 51.51381
873.80 51.56029
873.90 51.90825
874.00 52.55597
874.10 53.50325
874.20 54.72972
874.30 56.08668
874.40 57.33082
874.50 58.23239
874.60 58.65863
874.70 58.60313
874.80 58.17877
874.90 57.57125
875.00 56.96839
875.10 56.53917
875.20 56.40875
875.30 56.62833
875.40 57.20448
875.50 58.08846
875.60 59.18837
875.70 60.44084
875.80 61.78629
875.90 63.18706
876.00 64.57983
876.10 65.80268
876.20 66.65524
876.30 66.99711
876.40 66.78048
876.50 66.11269
876.60 65.27668
876.70 64.59526
876.80 64.3386
876.90 64.65763
877.00 65.60114
877.10 67.08457
877.20 68.92023
877.30 70.84333
877.40 72.55372
877.50 73.86997
877.60 74.67987
877.70 74.92748
877.80 74.69936
877.90 74.11394
878.00 73.22528
878.10 72.10459
878.20 70.88314
878.30 69.72383
878.40 68.71013
878.50 67.85925
878.60 67.1946
878.70 66.75006
878.80 66.62413
878.90 66.8756
879.00 67.48667
879.10 68.3873
879.20 69.43693
879.30 70.49189
879.40 71.43419
879.50 72.16573
879.60 72.55553
879.70 72.45454
879.80 71.77688
879.90 70.54988
880.00 68.91137
880.10 67.07314
880.20 65.22108
880.30 63.49626
880.40 62.05833
880.50 61.05749
880.60 60.6219
880.70 60.85504
880.80 61.78571
880.90 63.34387
881.00 65.41814
881.10 67.91874
881.20 70.75988
881.30 73.81537
881.40 76.89585
881.50 79.75298
881.60 82.14128
881.70 83.87253
881.80 84.80389
881.90 84.85745
882.00 84.01007
882.10 82.30098
882.20 79.97213
882.30 77.49851
882.40 75.39805
882.50 74.10976
882.60 73.99615
882.70 75.17523
882.80 77.38502
882.90 80.10083
883.00 82.69496
883.10 84.59241
883.20 85.51531
883.30 85.5721
883.40 85.10826
883.50 84.56023
883.60 84.31413
883.70 84.58739
883.80 85.40671
883.90 86.54608
884.00 87.51407
884.10 87.80199
884.20 87.08219
884.30 85.23032
884.40 82.39393
884.50 79.00308
884.60 75.58577
884.70 72.62757
884.80 70.58786
884.90 69.83126
885.00 70.48725
885.10 72.37323
885.20 75.04888
885.30 77.92616
885.40 80.38535
885.50 81.93809
885.60 82.34991
885.70 81.66589
885.80 80.12219
885.90 78.07538
886.00 75.97031
886.10 74.21866
886.20 73.06756
886.30 72.57745
886.40 72.65462
886.50 73.12254
886.60 73.77293
886.70 74.33262
886.80 74.48983
886.90 73.9918
887.00 72.74337
887.10 70.86866
887.20 68.69485
887.30 66.67893
887.40 65.27884
887.50 64.83393
887.60 65.51626
887.70 67.25411
887.80 69.73359
887.90 72.50017
888.00 75.06352
888.10 77.06717
888.20 78.33678
888.30 78.97882
888.40 79.45921
888.50 80.29334
888.60 81.7707
888.70 83.86675
888.80 86.22696
888.90 88.30346
889.00 89.55911
889.10 89.60681
889.20 88.2507
889.30 85.53207
889.40 81.79539
889.50 77.66251
889.60 73.93201
889.70 71.25759
889.80 69.89943
889.90 69.91214
890.00 71.25513
890.10 73.73999
890.20 77.03244
890.30 80.68244
890.40 84.11079
890.50 86.73561
890.60 88.17569
890.70 88.27175
890.80 87.09411
890.90 84.96281
891.00 82.41261
891.10 80.06633
891.20 78.43496
891.30 77.75904
891.40 78.05021
891.50 79.20256
891.60 81.01268
891.70 83.21367
891.80 85.57722
891.90 87.90435
892.00 89.94288
892.10 91.39718
892.20 92.01828
892.30 91.68733
892.40 90.40558
892.50 88.32337
892.60 85.81092
892.70 83.3858
892.80 81.5661
892.90 80.73941
893.00 81.07944
893.10 82.50008
893.20 84.63068
893.30 86.89762
893.40 88.71445
893.50 89.67432
893.60 89.56367
893.70 88.31869
893.80 86.08807
893.90 83.18007
894.00 79.9485
894.10 76.80103
894.20 74.13834
894.30 72.27249
894.40 71.40103
894.50 71.52525
894.60 72.44559
894.70 73.85053
894.80 75.36334
894.90 76.60265
895.00 77.30956
895.10 77.50375
895.20 77.4421
895.30 77.52952
895.40 78.22491
895.50 79.80693
895.60 82.28206
895.70 85.42824
895.80 88.81814
895.90 91.89698
896.00 94.11446
896.10 95.06445
896.20 94.60981
896.30 92.90424
896.40 90.30813
896.50 87.26724
896.60 84.3029
896.70 81.90556
896.80 80.37865
896.90 79.878
897.00 80.38874
897.10 81.69172
897.20 83.46913
897.30 85.42905
897.40 87.36101
897.50 89.09353
897.60 90.4854
897.70 91.48117
897.80 92.12878
897.90 92.55058
898.00 92.84241
898.10 93.0964
898.20 93.52519
898.30 94.38328
898.40 95.7944
898.50 97.68368
898.60 99.79997
898.70 101.7721
898.80 103.2128
898.90 103.882
899.00 103.718
899.10 102.7645
899.20 101.1548
899.30 99.04927
899.40 96.66987
899.50 94.31905
899.60 92.21803
899.70 90.50281
899.80 89.40492
899.90 89.27234
900.00 89.60421
900.10 89.93608
900.20 90.26795
900.30 90.59982
900.40 90.93169
900.50 91.26356
900.60 91.59543
900.70 91.9273
900.80 92.25917
900.90 92.59104
901.00 92.92291
901.10 93.25479
901.20 93.58666
901.30 93.91853
901.40 94.2504
901.50 94.58227
901.60 94.91414
901.70 95.24601
901.80 95.57788
901.90 95.90975
902.00 96.24162
902.10 96.57349
902.20 96.90536
902.30 97.23723
902.40 97.5691
902.50 97.90097
902.60 98.23284
902.70 98.56471
902.80 98.89659
902.90 99.22846
903.00 99.56033
903.10 99.8922
903.20 99.9586
903.30 100.0223
903.40 100.086
903.50 100.1498
903.60 100.2135
903.70 100.2772
903.80 100.3409
903.90 100.4046
904.00 100.4684
904.10 100.5321
904.20 100.5958
904.30 100.6595
904.40 100.7232
904.50 100.787
904.60 100.8507
904.70 100.9144
904.80 100.9781
904.90 101.0418
905.00 101.1056
905.10 101.1693
905.20 101.233
905.30 101.2967
905.40 101.3605
905.50 101.4242
905.60 101.4879
905.70 101.5516
905.80 101.6153
905.90 101.6791
906.00 101.7428
906.10 101.8065
906.20 101.8702
906.30 101.9339
906.40 101.9977
906.50 102.0614
906.60 102.151
906.70 102.2518
906.80 102.3525
906.90 102.4533
907.00 102.554
907.10 102.6548
907.20 102.7555
907.30 102.8563
907.40 102.957
907.50 103.0578
907.60 103.1585
907.70 103.2593
907.80 103.36
907.90 103.4608
908.00 103.5615
908.10 103.6623
908.20 103.763
908.30 103.8638
908.40 103.9645
908.50 104.0653
908.60 104.166
908.70 104.2668
908.80 104.3675
908.90 104.4683
909.00 104.569
909.10 104.6697
909.20 104.7705
909.30 104.8712
909.40 104.972
909.50 105.0727
909.60 105.1735
909.70 105.2742
909.80 105.375
909.90 105.4757
910.00 105.5675
910.10 105.6291
910.20 105.6907
910.30 105.7523
910.40 105.8139
910.50 105.8755
910.60 105.9371
910.70 105.9987
910.80 106.0603
910.90 106.1219
911.00 106.1836
911.10 106.2452
911.20 106.3068
911.30 106.3684
911.40 106.43
911.50 106.4916
911.60 106.5532
911.70 106.6148
911.80 106.6764
911.90 106.738
912.00 106.7996
912.10 106.8612
912.20 106.9228
912.30 106.9844
912.40 107.046
912.50 107.1076
912.60 107.1693
912.70 107.2309
912.80 107.2925
912.90 107.3541
913.00 107.4157
913.10 107.4773
913.20 107.5389
913.30 107.6005
913.40 107.6621
913.50 107.7667
913.60 107.9036
913.70 108.0406
913.80 108.1776
913.90 108.3146
914.00 108.4516
914.10 108.5885
914.20 108.7255
914.30 108.8625
914.40 108.9995
914.50 109.1364
914.60 109.2734
914.70 109.4104
914.80 109.5474
914.90 109.6844
915.00 109.8213
915.10 109.9583
915.20 110.0953
915.30 110.2323
915.40 110.3692
915.50 110.5062
915.60 110.6432
915.70 110.7802
915.80 110.9172
915.90 111.0541
916.00 111.1911
916.10 111.3281
916.20 111.4651
916.30 111.602
916.40 111.739
916.50 111.876
916.60 112.013
916.70 112.15
916.80 112.2869
916.90 112.4239
917.00 112.5129
917.10 112.585
917.20 112.6572
917.30 112.7293
917.40 112.8015
917.50 112.8736
917.60 112.9457
917.70 113.0179
917.80 113.09
917.90 113.1621
918.00 113.2343
918.10 113.3064
918.20 113.3785
918.30 113.4507
918.40 113.5228
918.50 113.595
918.60 113.6671
918.70 113.7392
918.80 113.8114
918.90 113.8835
919.00 113.9556
919.10 114.0278
919.20 114.0999
919.30 114.172
919.40 114.2442
919.50 114.3163
919.60 114.3884
919.70 114.4606
919.80 114.5327
919.90 114.6049
920.00 114.677
920.10 114.7491
920.20 114.8213
920.30 114.8934
920.40 114.9655
920.50 115.0559
920.60 115.1526
920.70 115.2494
920.80 115.3461
920.90 115.4429
921.00 115.5396
921.10 115.6364
921.20 115.7331
921.30 115.8298
921.40 115.9266
921.50 116.0233
921.60 116.1201
921.70 116.2168
921.80 116.3136
921.90 116.4103
922.00 116.5071
922.10 116.6038
922.20 116.7005
922.30 116.7973
922.40 116.894
922.50 116.9908
922.60 117.0875
922.70 117.1843
922.80 117.281
922.90 117.3778
923.00 117.4745
923.10 117.5713
923.20 117.668
923.30 117.7647
923.40 117.8615
923.50 117.9582
923.60 118.055
923.70 118.1517
923.80 118.2485
923.90 118.3452
924.00 118.3364
924.10 118.2446
924.20 118.1528
924.30 118.0611
924.40 117.9693
924.50 117.8775
924.60 117.7857
924.70 117.694
924.80 117.6022
924.90 117.5104
925.00 117.4186
925.10 117.3269
925.20 117.2351
925.30 117.1433
925.40 117.0515
925.50 116.9598
925.60 116.868
925.70 116.7762
925.80 116.6844
925.90 116.5927
926.00 116.5009
926.10 116.4091
926.20 116.3173
926.30 116.2255
926.40 116.1338
926.50 116.042
926.60 115.9502
926.70 115.8584
926.80 115.7667
926.90 115.6749
927.00 115.5831
927.10 115.4913
927.20 115.3996
927.30 115.3078
927.40 115.216
927.50 115.1231
927.60 115.0254
927.70 114.9278
927.80 114.8301
927.90 114.7324
928.00 114.6348
928.10 114.5371
928.20 114.4395
928.30 114.3418
928.40 114.2442
928.50 114.1465
928.60 114.0489
928.70 113.9512
928.80 113.8536
928.90 113.7559
929.00 113.6583
929.10 113.5606
929.20 113.4629
929.30 113.3653
929.40 113.2676
929.50 113.17
929.60 113.0723
929.70 112.9747
929.80 112.877
929.90 112.7794
930.00 112.6817
930.10 112.5841
930.20 112.4864
930.30 112.3888
930.40 112.2911
930.50 112.1934
930.60 112.0958
930.70 111.9981
930.80 111.9005
930.90 111.8028
931.00 111.7052
931.10 111.7985
931.20 111.9858
931.30 112.1731
931.40 112.3605
931.50 112.5478
931.60 112.7351
931.70 112.9225
931.80 113.1098
931.90 113.2971
932.00 113.4845
932.10 113.6718
932.20 113.8591
932.30 114.0465
932.40 114.2338
932.50 114.4211
932.60 114.6085
932.70 114.7958
932.80 114.9831
932.90 115.1704
933.00 115.3578
933.10 115.5451
933.20 115.7324
933.30 115.9198
933.40 116.1071
933.50 116.2944
933.60 116.4818
933.70 116.6691
933.80 116.8564
933.90 117.0438
934.00 117.2311
934.10 117.4184
934.20 117.6058
934.30 117.7931
934.40 117.9804
934.50 118.1678
934.60 118.3551
934.70 118.493
934.80 118.6294
934.90 118.7658
935.00 118.9022
935.10 119.0385
935.20 119.1749
935.30 119.3113
935.40 119.4477
935.50 119.5841
935.60 119.7205
935.70 119.8569
935.80 119.9932
935.90 120.1296
936.00 120.266
936.10 120.4024
936.20 120.5388
936.30 120.6752
936.40 120.8115
936.50 120.9479
936.60 121.0843
936.70 121.2207
936.80 121.3571
936.90 121.4935
937.00 121.6298
937.10 121.7662
937.20 121.9026
937.30 122.039
937.40 122.1754
937.50 122.3118
937.60 122.4482
937.70 122.5845
937.80 122.7209
937.90 122.8573
938.00 122.9937
938.10 123.1301
938.20 123.252
938.30 123.2441
938.40 123.2361
938.50 123.2281
938.60 123.2202
938.70 123.2122
938.80 123.2042
938.90 123.1963
939.00 123.1883
939.10 123.1804
939.20 123.1724
939.30 123.1644
939.40 123.1565
939.50 123.1485
939.60 123.1405
939.70 123.1326
939.80 123.1246
939.90 123.1167
940.00 123.1087
940.10 123.1007
940.20 123.0928
940.30 123.0848
940.40 123.0768
940.50 123.0689
940.60 123.0609
940.70 123.053
940.80 123.045
940.90 123.037
941.00 123.0291
941.10 123.0211
941.20 123.0131
941.30 123.0052
941.40 122.9972
941.50 122.9893
941.60 122.9813
941.70 122.9733
941.80 122.9702
941.90 123.031
942.00 123.0917
942.10 123.1525
942.20 123.2133
942.30 123.2741
942.40 123.3348
942.50 123.3956
942.60 123.4564
942.70 123.5172
942.80 123.578
942.90 123.6387
943.00 123.6995
943.10 123.7603
943.20 123.8211
943.30 123.8819
943.40 123.9426
943.50 124.0034
943.60 124.0642
943.70 124.125
943.80 124.1857
943.90 124.2465
944.00 124.3073
944.10 124.3681
944.20 124.4289
944.30 124.4896
944.40 124.5504
944.50 124.6112
944.60 124.672
944.70 124.7328
944.80 124.7935
944.90 124.8543
945.00 124.9151
945.10 124.9759
945.20 125.0366
945.30 125.0974
945.40 125.1582
945.50 125.2651
945.60 125.3789
945.70 125.4927
945.80 125.6065
945.90 125.7203
946.00 125.8341
946.10 125.9479
946.20 126.0616
946.30 126.1754
946.40 126.2892
946.50 126.403
946.60 126.5168
946.70 126.6306
946.80 126.7444
946.90 126.8582
947.00 126.972
947.10 127.0858
947.20 127.1996
947.30 127.3134
947.40 127.4271
947.50 127.5409
947.60 127.6547
947.70 127.7685
947.80 127.8823
947.90 127.9961
948.00 128.1099
948.10 128.2237
948.20 128.3375
948.30 128.4513
948.40 128.5651
948.50 128.6789
948.60 128.7926
948.70 128.9064
948.80 129.0202
948.90 129.134
949.00 129.2478
949.10 129.374
949.20 129.5127
949.30 129.6514
949.40 129.7901
949.50 129.9288
949.60 130.0675
949.70 130.2062
949.80 130.3448
949.90 130.4835
950.00 130.6222
950.10 130.7609
950.20 130.8996
950.30 131.0383
950.40 131.1769
950.50 131.3156
950.60 131.4543
950.70 131.593
950.80 131.7317
950.90 131.8704
951.00 132.0091
951.10 132.1477
951.20 132.2864
951.30 132.4251
951.40 132.5638
951.50 132.7025
951.60 132.8412
951.70 132.9798
951.80 133.1185
951.90 133.2572
952.00 133.3959
952.10 133.5346
952.20 133.6733
952.30 133.812
952.40 133.9506
952.50 134.0893
952.60 134.228
952.70 134.3667
952.80 134.3867
952.90 134.4031
953.00 134.4195
953.10 134.4358
953.20 134.4522
953.30 134.4686
953.40 134.485
953.50 134.5013
953.60 134.5177
953.70 134.5341
953.80 134.5504
953.90 134.5668
954.00 134.5832
954.10 134.5996
954.20 134.6159
954.30 134.6323
954.40 134.6487
954.50 134.6651
954.60 134.6814
954.70 134.6978
954.80 134.7142
954.90 134.7305
955.00 134.7469
955.10 134.7633
955.20 134.7797
955.30 134.796
955.40 134.8124
955.50 134.8288
955.60 134.8451
955.70 134.8615
955.80 134.8779
955.90 134.8943
956.00 134.9106
956.10 134.927
956.20 134.9434
956.30 134.9597
956.40 134.9775
956.50 134.999
956.60 135.0204
956.70 135.0419
956.80 135.0633
956.90 135.0848
957.00 135.1062
957.10 135.1277
957.20 135.1491
957.30 135.1706
957.40 135.192
957.50 135.2135
957.60 135.2349
957.70 135.2564
957.80 135.2779
957.90 135.2993
958.00 135.3208
958.10 135.3422
958.20 135.3637
958.30 135.3851
958.40 135.4066
958.50 135.428
958.60 135.4495
958.70 135.4709
958.80 135.4924
958.90 135.5138
959.00 135.5353
959.10 135.5567
959.20 135.5782
959.30 135.5996
959.40 135.6211
959.50 135.6425
959.60 135.664
959.70 135.6854
959.80 135.7069
959.90 135.7283
960.00 135.7498
960.10 135.7369
960.20 135.6786
960.30 135.6202
960.40 135.5618
960.50 135.5035
960.60 135.4451
960.70 135.3868
960.80 135.3284
960.90 135.2701
961.00 135.2117
961.10 135.1534
961.20 135.095
961.30 135.0367
961.40 134.9783
961.50 134.92
961.60 134.8616
961.70 134.8032
961.80 134.7449
961.90 134.6865
962.00 134.6282
962.10 134.5698
962.20 134.5115
962.30 134.4531
962.40 134.3948
962.50 134.3364
962.60 134.2781
962.70 134.2197
962.80 134.1613
962.90 134.103
963.00 134.0446
963.10 133.9863
963.20 133.9279
963.30 133.8696
963.40 133.8112
963.50 133.7529
963.60 133.6945
963.70 133.6362
963.80 133.6542
963.90 133.7779
964.00 133.9015
964.10 134.0251
964.20 134.1488
964.30 134.2724
964.40 134.396
964.50 134.5196
964.60 134.6433
964.70 134.7669
964.80 134.8905
964.90 135.0142
965.00 135.1378
965.10 135.2614
965.20 135.385
965.30 135.5087
965.40 135.6323
965.50 135.7559
965.60 135.8796
965.70 136.0032
965.80 136.1268
965.90 136.2505
966.00 136.3741
966.10 136.4977
966.20 136.6213
966.30 136.745
966.40 136.8686
966.50 136.9922
966.60 137.1159
966.70 137.2395
966.80 137.3631
966.90 137.4867
967.00 137.6104
967.10 137.734
967.20 137.8576
967.30 137.9813
967.40 138.1049
967.50 138.2048
967.60 138.237
967.70 138.2692
967.80 138.3014
967.90 138.3337
968.00 138.3659
968.10 138.3981
968.20 138.4304
968.30 138.4626
968.40 138.4948
968.50 138.527
968.60 138.5593
968.70 138.5915
968.80 138.6237
968.90 138.656
969.00 138.6882
969.10 138.7204
969.20 138.7526
969.30 138.7849
969.40 138.8171
969.50 138.8493
969.60 138.8816
969.70 138.9138
969.80 138.946
969.90 138.9782
970.00 139.0105
970.10 139.0427
970.20 139.0749
970.30 139.1072
970.40 139.1394
970.50 139.1716
970.60 139.2038
970.70 139.2361
970.80 139.2683
970.90 139.3005
971.00 139.3328
971.10 139.365
971.20 139.3972
971.30 139.5007
971.40 139.6088
971.50 139.7169
971.60 139.8249
971.70 139.933
971.80 140.0411
971.90 140.1492
972.00 140.2572
972.10 140.3653
972.20 140.4734
972.30 140.5815
972.40 140.6895
972.50 140.7976
972.60 140.9057
972.70 141.0137
972.80 141.1218
972.90 141.2299
973.00 141.338
973.10 141.446
973.20 141.5541
973.30 141.6622
973.40 141.7702
973.50 141.8783
973.60 141.9864
973.70 142.0945
973.80 142.2025
973.90 142.3106
974.00 142.4187
974.10 142.5267
974.20 142.6348
974.30 142.7429
974.40 142.851
974.50 142.959
974.60 143.0671
974.70 143.1752
974.80 143.2832
974.90 143.3913
975.00 143.5373
975.10 143.7261
975.20 143.9148
975.30 144.1035
975.40 144.2923
975.50 144.481
975.60 144.6698
975.70 144.8585
975.80 145.0473
975.90 145.236
976.00 145.4248
976.10 145.6135
976.20 145.8023
976.30 145.991
976.40 146.1797
976.50 146.3685
976.60 146.5572
976.70 146.746
976.80 146.9347
976.90 147.1235
977.00 147.3122
977.10 147.501
977.20 147.6897
977.30 147.8784
977.40 148.0672
977.50 148.2559
977.60 148.4447
977.70 148.6334
977.80 148.8222
977.90 149.0109
978.00 149.1997
978.10 149.3884
978.20 149.5772
978.30 149.7659
978.40 149.9546
978.50 150.1434
978.60 150.3321
978.70 150.5209
978.80 150.5182
978.90 150.4817
979.00 150.4453
979.10 150.4088
979.20 150.3724
979.30 150.3359
979.40 150.2994
979.50 150.263
979.60 150.2265
979.70 150.19
979.80 150.1536
979.90 150.1171
980.00 150.0807
980.10 150.0442
980.20 150.0077
980.30 149.9713
980.40 149.9348
980.50 149.8983
980.60 149.8619
980.70 149.8254
980.80 149.789
980.90 149.7525
981.00 149.716
981.10 149.6796
981.20 149.6431
981.30 149.6067
981.40 149.5702
981.50 149.5337
981.60 149.4973
981.70 149.4608
981.80 149.4243
981.90 149.3879
982.00 149.3514
982.10 149.315
982.20 149.2785
982.30 149.242
982.40 149.2056
982.50 149.1532
982.60 148.9182
982.70 148.6832
982.80 148.4482
982.90 148.2132
983.00 147.9781
983.10 147.7431
983.20 147.5081
983.30 147.2731
983.40 147.0381
983.50 146.8031
983.60 146.568
983.70 146.333
983.80 146.098
983.90 145.863
984.00 145.628
984.10 145.393
984.20 145.1579
984.30 144.9229
984.40 144.6879
984.50 144.4529
984.60 144.2179
984.70 143.9829
984.80 143.7478
984.90 143.5128
985.00 143.2778
985.10 143.0428
985.20 142.8078
985.30 142.5728
985.40 142.3377
985.50 142.1027
985.60 141.8677
985.70 141.6327
985.80 141.3977
985.90 141.1627
986.00 140.9276
986.10 140.6926
986.20 140.4576
986.30 140.214
986.40 139.9253
986.50 139.6366
986.60 139.3479
986.70 139.0592
986.80 138.7705
986.90 138.4818
987.00 138.1931
987.10 137.9044
987.20 137.6158
987.30 137.3271
987.40 137.0384
987.50 136.7497
987.60 136.461
987.70 136.1723
987.80 135.8836
987.90 135.5949
988.00 135.3062
988.10 135.0175
988.20 134.7288
988.30 134.4401
988.40 134.1514
988.50 133.8627
988.60 133.574
988.70 133.2854
988.80 132.9967
988.90 132.708
989.00 132.4193
989.10 132.1306
989.20 131.8419
989.30 131.5532
989.40 131.2645
989.50 130.9758
989.60 130.6871
989.70 130.3984
989.80 130.1097
989.90 129.821
990.00 129.5323
990.10 129.2479
990.20 129.0013
990.30 128.7548
990.40 128.5083
990.50 128.2617
990.60 128.0152
990.70 127.7687
990.80 127.5221
990.90 127.2756
991.00 127.0291
991.10 126.7825
991.20 126.536
991.30 126.2895
991.40 126.0429
991.50 125.7964
991.60 125.5499
991.70 125.3033
991.80 125.0568
991.90 124.8103
992.00 124.5637
992.10 124.3172
992.20 124.0707
992.30 123.8242
992.40 123.5776
992.50 123.3311
992.60 123.0846
992.70 122.838
992.80 122.5915
992.90 122.345
993.00 122.0984
993.10 121.8519
993.20 121.6054
993.30 121.3588
993.40 121.1123
993.50 120.8658
993.60 120.6192
993.70 120.3727
993.80 120.1262
993.90 119.8796
994.00 119.7064
994.10 119.5412
994.20 119.3761
994.30 119.2109
994.40 119.0458
994.50 118.8807
994.60 118.7155
994.70 118.5504
994.80 118.3852
994.90 118.2201
995.00 118.055
995.10 117.8898
995.20 117.7247
995.30 117.5595
995.40 117.3944
995.50 117.2293
995.60 117.0641
995.70 116.899
995.80 116.7338
995.90 116.5687
996.00 116.4036
996.10 116.2384
996.20 116.0733
996.30 115.9081
996.40 115.743
996.50 115.5779
996.60 115.4127
996.70 115.2476
996.80 115.0824
996.90 114.9173
997.00 114.7522
997.10 114.587
997.20 114.4219
997.30 114.2567
997.40 114.0916
997.50 113.9265
997.60 113.7613
997.70 113.5962
997.80 113.5828
997.90 113.6937
998.00 113.8046
998.10 113.9155
998.20 114.0264
998.30 114.1372
998.40 114.2481
998.50 114.359
998.60 114.4699
998.70 114.5808
998.80 114.6916
998.90 114.8025
999.00 114.9134
999.10 115.0243
999.20 115.1351
999.30 115.246
999.40 115.3569
999.50 115.4678
999.60 115.5787
999.70 115.6895
999.80 115.8004
999.90 115.9113
1000.00 116.0222
1000.10 116.1331
1000.20 116.2439
1000.30 116.3548
1000.40 116.4657
1000.50 116.5766
1000.60 116.6875
1000.70 116.7983
1000.80 116.9092
1000.90 117.0201
1001.00 117.131
1001.10 117.2419
1001.20 117.3527
1001.30 117.4636
1001.40 117.5745
1001.50 117.6854
1001.60 117.7964
1001.70 117.9084
1001.80 118.0205
1001.90 118.1325
1002.00 118.2446
1002.10 118.3566
1002.20 118.4687
1002.30 118.5807
1002.40 118.6928
1002.50 118.8049
1002.60 118.9169
1002.70 119.029
1002.80 119.141
1002.90 119.2531
1003.00 119.3651
1003.10 119.4772
1003.20 119.5892
1003.30 119.7013
1003.40 119.8134
1003.50 119.9254
1003.60 120.0375
1003.70 120.1495
1003.80 120.2616
1003.90 120.3736
1004.00 120.4857
1004.10 120.5977
1004.20 120.7098
1004.30 120.8218
1004.40 120.9339
1004.50 121.046
1004.60 121.158
1004.70 121.2701
1004.80 121.3821
1004.90 121.4942
1005.00 121.6062
1005.10 121.7183
1005.20 121.8303
1005.30 121.9424
1005.40 122.0544
1005.50 122.2058
1005.60 122.416
1005.70 122.6262
1005.80 122.8364
1005.90 123.0466
1006.00 123.2568
1006.10 123.467
1006.20 123.6772
1006.30 123.8874
1006.40 124.0976
1006.50 124.3078
1006.60 124.518
1006.70 124.7282
1006.80 124.9384
1006.90 125.1486
1007.00 125.3588
1007.10 125.569
1007.20 125.7792
1007.30 125.9894
1007.40 126.1996
1007.50 126.4098
1007.60 126.62
1007.70 126.8302
1007.80 127.0404
1007.90 127.2506
1008.00 127.4608
1008.10 127.671
1008.20 127.8812
1008.30 128.0914
1008.40 128.3016
1008.50 128.5118
1008.60 128.722
1008.70 128.9322
1008.80 129.1424
1008.90 129.3526
1009.00 129.5628
1009.10 129.773
1009.20 129.9832
1009.30 130.1934
1009.40 130.3193
1009.50 130.409
1009.60 130.4986
1009.70 130.5883
1009.80 130.678
1009.90 130.7677
1010.00 130.8574
1010.10 130.9471
1010.20 131.0367
1010.30 131.1264
1010.40 131.2161
1010.50 131.3058
1010.60 131.3955
1010.70 131.4852
1010.80 131.5749
1010.90 131.6645
1011.00 131.7542
1011.10 131.8439
1011.20 131.9336
1011.30 132.0233
1011.40 132.113
1011.50 132.2027
1011.60 132.2923
1011.70 132.382
1011.80 132.4717
1011.90 132.5614
1012.00 132.6511
1012.10 132.7408
1012.20 132.8304
1012.30 132.9201
1012.40 133.0098
1012.50 133.0995
1012.60 133.1892
1012.70 133.2789
1012.80 133.3686
1012.90 133.4582
1013.00 133.5479
1013.10 133.6376
1013.20 133.7273
1013.30 133.7412
1013.40 133.7361
1013.50 133.731
1013.60 133.726
1013.70 133.7209
1013.80 133.7158
1013.90 133.7108
1014.00 133.7057
1014.10 133.7006
1014.20 133.6955
1014.30 133.6905
1014.40 133.6854
1014.50 133.6803
1014.60 133.6753
1014.70 133.6702
1014.80 133.6651
1014.90 133.66
1015.00 133.655
1015.10 133.6499
1015.20 133.6448
1015.30 133.6398
1015.40 133.6347
1015.50 133.6296
1015.60 133.6246
1015.70 133.6195
1015.80 133.6144
1015.90 133.6093
1016.00 133.6043
1016.10 133.5992
1016.20 133.5941
1016.30 133.5891
1016.40 133.584
1016.50 133.5789
1016.60 133.5739
1016.70 133.5688
1016.80 133.5637
1016.90 133.5586
1017.00 133.5536
1017.10 133.5485
1017.20 133.618
1017.30 133.7061
1017.40 133.7943
1017.50 133.8824
1017.60 133.9705
1017.70 134.0587
1017.80 134.1468
1017.90 134.2349
1018.00 134.323
1018.10 134.4112
1018.20 134.4993
1018.30 134.5874
1018.40 134.6756
1018.50 134.7637
1018.60 134.8518
1018.70 134.94
1018.80 135.0281
1018.90 135.1162
1019.00 135.2044
1019.10 135.2925
1019.20 135.3806
1019.30 135.4688
1019.40 135.5569
1019.50 135.645
1019.60 135.7332
1019.70 135.8213
1019.80 135.9094
1019.90 135.9976
1020.00 136.0857
1020.10 136.1738
1020.20 136.262
1020.30 136.3501
1020.40 136.4382
1020.50 136.5264
1020.60 136.6145
1020.70 136.7026
1020.80 136.7908
1020.90 136.8789
1021.00 136.967
1021.10 137.0044
1021.20 137.008
1021.30 137.0116
1021.40 137.0152
1021.50 137.0189
1021.60 137.0225
1021.70 137.0261
1021.80 137.0297
1021.90 137.0333
1022.00 137.0369
1022.10 137.0405
1022.20 137.0441
1022.30 137.0477
1022.40 137.0513
1022.50 137.0549
1022.60 137.0585
1022.70 137.0621
1022.80 137.0657
1022.90 137.0693
1023.00 137.0729
1023.10 137.0765
1023.20 137.0801
1023.30 137.0837
1023.40 137.0874
1023.50 137.091
1023.60 137.0946
1023.70 137.0982
1023.80 137.1018
1023.90 137.1054
1024.00 137.109
1024.10 137.1126
1024.20 137.1162
1024.30 137.1198
1024.40 137.1234
1024.50 137.127
1024.60 137.1306
1024.70 137.1342
1024.80 137.1378
1024.90 137.1414
1025.00 137.1449
1025.10 137.1481
1025.20 137.1514
1025.30 137.1546
1025.40 137.1578
1025.50 137.1611
1025.60 137.1643
1025.70 137.1675
1025.80 137.1708
1025.90 137.174
1026.00 137.1773
1026.10 137.1805
1026.20 137.1837
1026.30 137.187
1026.40 137.1902
1026.50 137.1934
1026.60 137.1967
1026.70 137.1999
1026.80 137.2032
1026.90 137.2064
1027.00 137.2096
1027.10 137.2129
1027.20 137.2161
1027.30 137.2193
1027.40 137.2226
1027.50 137.2258
1027.60 137.229
1027.70 137.2323
1027.80 137.2355
1027.90 137.2388
1028.00 137.242
1028.10 137.2452
1028.20 137.2485
1028.30 137.2517
1028.40 137.2549
1028.50 137.2582
1028.60 137.2614
1028.70 137.2647
1028.80 137.2679
1028.90 137.2711
1029.00 137.4591
1029.10 137.647
1029.20 137.835
1029.30 138.0229
1029.40 138.2108
1029.50 138.3988
1029.60 138.5867
1029.70 138.7747
1029.80 138.9626
1029.90 139.1505
1030.00 139.3385
1030.10 139.5264
1030.20 139.7144
1030.30 139.9023
1030.40 140.0903
1030.50 140.2782
1030.60 140.4661
1030.70 140.6541
1030.80 140.842
1030.90 141.03
1031.00 141.2179
1031.10 141.4058
1031.20 141.5938
1031.30 141.7817
1031.40 141.9697
1031.50 142.1576
1031.60 142.3456
1031.70 142.5335
1031.80 142.7214
1031.90 142.9094
1032.00 143.0973
1032.10 143.2853
1032.20 143.4732
1032.30 143.6612
1032.40 143.8491
1032.50 144.037
1032.60 144.225
1032.70 144.4129
1032.80 144.6009
1032.90 144.751
1033.00 144.8444
1033.10 144.9379
1033.20 145.0313
1033.30 145.1248
1033.40 145.2182
1033.50 145.3117
1033.60 145.4051
1033.70 145.4985
1033.80 145.592
1033.90 145.6854
1034.00 145.7789
1034.10 145.8723
1034.20 145.9657
1034.30 146.0592
1034.40 146.1526
1034.50 146.2461
1034.60 146.3395
1034.70 146.433
1034.80 146.5264
1034.90 146.6198
1035.00 146.7133
1035.10 146.8067
1035.20 146.9002
1035.30 146.9936
1035.40 147.087
1035.50 147.1805
1035.60 147.2739
1035.70 147.3674
1035.80 147.4608
1035.90 147.5543
1036.00 147.6477
1036.10 147.7411
1036.20 147.8346
1036.30 147.928
1036.40 148.0215
1036.50 148.1149
1036.60 148.2083
1036.70 148.3018
1036.80 148.3952
1036.90 148.459
1037.00 148.5153
1037.10 148.5716
1037.20 148.6279
1037.30 148.6842
1037.40 148.7405
1037.50 148.7968
1037.60 148.8531
1037.70 148.9094
1037.80 148.9657
1037.90 149.022
1038.00 149.0783
1038.10 149.1346
1038.20 149.1909
1038.30 149.2472
1038.40 149.3035
1038.50 149.3598
1038.60 149.4161
1038.70 149.4724
1038.80 149.5287
1038.90 149.585
1039.00 149.6413
1039.10 149.6976
1039.20 149.7539
1039.30 149.8102
1039.40 149.8665
1039.50 149.9228
1039.60 149.9792
1039.70 150.0355
1039.80 150.0918
1039.90 150.1481
1040.00 150.2044
1040.10 150.2607
1040.20 150.317
1040.30 150.3733
1040.40 150.4296
1040.50 150.4859
1040.60 150.5422
1040.70 150.5985
1040.80 150.6548
1040.90 150.7005
1041.00 150.7462
1041.10 150.7919
1041.20 150.8376
1041.30 150.8834
1041.40 150.9291
1041.50 150.9748
1041.60 151.0205
1041.70 151.0662
1041.80 151.1119
1041.90 151.1576
1042.00 151.2034
1042.10 151.2491
1042.20 151.2948
1042.30 151.3405
1042.40 151.3862
1042.50 151.4319
1042.60 151.4776
1042.70 151.5233
1042.80 151.5691
1042.90 151.6148
1043.00 151.6605
1043.10 151.7062
1043.20 151.7519
1043.30 151.7976
1043.40 151.8433
1043.50 151.8891
1043.60 151.9348
1043.70 151.9805
1043.80 152.0262
1043.90 152.0719
1044.00 152.1176
1044.10 152.1633
1044.20 152.2091
1044.30 152.2548
1044.40 152.3005
1044.50 152.3462
1044.60 152.3919
1044.70 152.4376
1044.80 152.4861
1044.90 152.5596
1045.00 152.6331
1045.10 152.7065
1045.20 152.78
1045.30 152.8535
1045.40 152.927
1045.50 153.0005
1045.60 153.0739
1045.70 153.1474
1045.80 153.2209
1045.90 153.2944
1046.00 153.3679
1046.10 153.4413
1046.20 153.5148
1046.30 153.5883
1046.40 153.6618
1046.50 153.7353
1046.60 153.8087
1046.70 153.8822
1046.80 153.9557
1046.90 154.0292
1047.00 154.1027
1047.10 154.1761
1047.20 154.2496
1047.30 154.3231
1047.40 154.3966
1047.50 154.4701
1047.60 154.5435
1047.70 154.617
1047.80 154.6905
1047.90 154.764
1048.00 154.8375
1048.10 154.9109
1048.20 154.9844
1048.30 155.0579
1048.40 155.1314
1048.50 155.2049
1048.60 155.2783
1048.70 155.3518
1048.80 155.4159
1048.90 155.3954
1049.00 155.375
1049.10 155.3545
1049.20 155.334
1049.30 155.3136
1049.40 155.2931
1049.50 155.2726
1049.60 155.2522
1049.70 155.2317
1049.80 155.2112
1049.90 155.1908
1050.00 155.1703
1050.10 155.1498
1050.20 155.1294
1050.30 155.1089
1050.40 155.0884
1050.50 155.068
1050.60 155.0475
1050.70 155.027
1050.80 155.0066
1050.90 154.9861
1051.00 154.9656
1051.10 154.9452
1051.20 154.9247
1051.30 154.9042
1051.40 154.8838
1051.50 154.8633
1051.60 154.8428
1051.70 154.8224
1051.80 154.8019
1051.90 154.7814
1052.00 154.761
1052.10 154.7405
1052.20 154.72
1052.30 154.6996
1052.40 154.6791
1052.50 154.6586
1052.60 154.6382
1052.70 154.6177
1052.80 154.5972
1052.90 154.5279
1053.00 154.4586
1053.10 154.3893
1053.20 154.3199
1053.30 154.2506
1053.40 154.1813
1053.50 154.112
1053.60 154.0427
1053.70 153.9733
1053.80 153.904
1053.90 153.8347
1054.00 153.7654
1054.10 153.6961
1054.20 153.6267
1054.30 153.5574
1054.40 153.4881
1054.50 153.4188
1054.60 153.3494
1054.70 153.2801
1054.80 153.2108
1054.90 153.1415
1055.00 153.0722
1055.10 153.0028
1055.20 152.9335
1055.30 152.8642
1055.40 152.7949
1055.50 152.7256
1055.60 152.6562
1055.70 152.5869
1055.80 152.5176
1055.90 152.4483
1056.00 152.3789
1056.10 152.3096
1056.20 152.2403
1056.30 152.171
1056.40 152.1017
1056.50 152.0323
1056.60 151.963
1056.70 151.8937
1056.80 151.8244
1056.90 151.8248
1057.00 151.8427
1057.10 151.8605
1057.20 151.8784
1057.30 151.8962
1057.40 151.9141
1057.50 151.9319
1057.60 151.9498
1057.70 151.9676
1057.80 151.9855
1057.90 152.0033
1058.00 152.0212
1058.10 152.0391
1058.20 152.0569
1058.30 152.0748
1058.40 152.0926
1058.50 152.1105
1058.60 152.1283
1058.70 152.1462
1058.80 152.164
1058.90 152.1819
1059.00 152.1997
1059.10 152.2176
1059.20 152.2355
1059.30 152.2533
1059.40 152.2712
1059.50 152.289
1059.60 152.3069
1059.70 152.3247
1059.80 152.3426
1059.90 152.3604
1060.00 152.3783
1060.10 152.3961
1060.20 152.414
1060.30 152.4319
1060.40 152.4497
1060.50 152.4676
1060.60 152.4854
1060.70 152.5033
1060.80 152.5211
1060.90 152.5913
1061.00 152.7137
1061.10 152.8361
1061.20 152.9586
1061.30 153.081
1061.40 153.2034
1061.50 153.3259
1061.60 153.4483
1061.70 153.5707
1061.80 153.6931
1061.90 153.8156
1062.00 153.938
1062.10 154.0604
1062.20 154.1829
1062.30 154.3053
1062.40 154.4277
1062.50 154.5502
1062.60 154.6726
1062.70 154.795
1062.80 154.9174
1062.90 155.0399
1063.00 155.1623
1063.10 155.2847
1063.20 155.4072
1063.30 155.5296
1063.40 155.652
1063.50 155.7745
1063.60 155.8969
1063.70 156.0193
1063.80 156.1417
1063.90 156.2642
1064.00 156.3866
1064.10 156.509
1064.20 156.6315
1064.30 156.7539
1064.40 156.8763
1064.50 156.9988
1064.60 157.1212
1064.70 157.2436
1064.80 157.3661
1064.90 157.4885
1065.00 157.6073
1065.10 157.7261
1065.20 157.845
1065.30 157.9638
1065.40 158.0826
1065.50 158.2015
1065.60 158.3203
1065.70 158.4391
1065.80 158.558
1065.90 158.6768
1066.00 158.7956
1066.10 158.9145
1066.20 159.0333
1066.30 159.1521
1066.40 159.271
1066.50 159.3898
1066.60 159.5086
1066.70 159.6275
1066.80 159.7463
1066.90 159.8651
1067.00 159.9839
1067.10 160.1028
1067.20 160.2216
1067.30 160.3404
1067.40 160.4593
1067.50 160.5781
1067.60 160.6969
1067.70 160.8158
1067.80 160.9346
1067.90 161.0534
1068.00 161.1723
1068.10 161.2911
1068.20 161.4099
1068.30 161.5288
1068.40 161.6476
1068.50 161.7664
1068.60 161.8853
1068.70 162.0041
1068.80 162.1229
1068.90 162.2417
1069.00 162.3666
1069.10 162.4975
1069.20 162.6284
1069.30 162.7594
1069.40 162.8903
1069.50 163.0212
1069.60 163.1521
1069.70 163.283
1069.80 163.4139
1069.90 163.5448
1070.00 163.6757
1070.10 163.8066
1070.20 163.9376
1070.30 164.0685
1070.40 164.1994
1070.50 164.3303
1070.60 164.4612
1070.70 164.5921
1070.80 164.723
1070.90 164.8539
1071.00 164.9849
1071.10 165.1158
1071.20 165.2467
1071.30 165.3776
1071.40 165.5085
1071.50 165.6394
1071.60 165.7703
1071.70 165.9012
1071.80 166.0321
1071.90 166.1631
1072.00 166.294
1072.10 166.4249
1072.20 166.5558
1072.30 166.6867
1072.40 166.8176
1072.50 166.9485
1072.60 167.0794
1072.70 167.2103
1072.80 167.3413
1072.90 167.4722
1073.00 167.6031
1073.10 167.7178
1073.20 167.8307
1073.30 167.9436
1073.40 168.0565
1073.50 168.1694
1073.60 168.2824
1073.70 168.3953
1073.80 168.5082
1073.90 168.6211
1074.00 168.734
1074.10 168.8469
1074.20 168.9598
1074.30 169.0727
1074.40 169.1856
1074.50 169.2986
1074.60 169.4115
1074.70 169.5244
1074.80 169.6373
1074.90 169.7502
1075.00 169.8631
1075.10 169.976
1075.20 170.0889
1075.30 170.2019
1075.40 170.3148
1075.50 170.4277
1075.60 170.5406
1075.70 170.6535
1075.80 170.7664
1075.90 170.8793
1076.00 170.9922
1076.10 171.1051
1076.20 171.2181
1076.30 171.331
1076.40 171.4439
1076.50 171.5568
1076.60 171.6697
1076.70 171.7826
1076.80 171.8955
1076.90 172.0084
1077.00 172.1213
1077.10 172.2295
1077.20 172.2951
1077.30 172.3608
1077.40 172.4264
1077.50 172.492
1077.60 172.5576
1077.70 172.6232
1077.80 172.6888
1077.90 172.7544
1078.00 172.8201
1078.10 172.8857
1078.20 172.9513
1078.30 173.0169
1078.40 173.0825
1078.50 173.1481
1078.60 173.2137
1078.70 173.2794
1078.80 173.345
1078.90 173.4106
1079.00 173.4762
1079.10 173.5418
1079.20 173.6074
1079.30 173.673
1079.40 173.7387
1079.50 173.8043
1079.60 173.8699
1079.70 173.9355
1079.80 174.0011
1079.90 174.0667
1080.00 174.1323
1080.10 174.198
1080.20 174.2636
1080.30 174.3292
1080.40 174.3948
1080.50 174.4604
1080.60 174.526
1080.70 174.5916
1080.80 174.6572
1080.90 174.7229
1081.00 174.7885
1081.10 174.8541
1081.20 174.9864
1081.30 175.2743
1081.40 175.5622
1081.50 175.8502
1081.60 176.1381
1081.70 176.426
1081.80 176.7139
1081.90 177.0019
1082.00 177.2898
1082.10 177.5777
1082.20 177.8656
1082.30 178.1536
1082.40 178.4415
1082.50 178.7294
1082.60 179.0173
1082.70 179.3052
1082.80 179.5932
1082.90 179.8811
1083.00 180.169
1083.10 180.4569
1083.20 180.7449
1083.30 181.0328
1083.40 181.3207
1083.50 181.6086
1083.60 181.8966
1083.70 182.1845
1083.80 182.4724
1083.90 182.7603
1084.00 183.0482
1084.10 183.3362
1084.20 183.6241
1084.30 183.912
1084.40 184.1999
1084.50 184.4879
1084.60 184.7758
1084.70 185.0637
1084.80 185.3516
1084.90 185.6396
1085.00 185.9275
1085.10 186.2154
1085.20 186.5033
1085.30 186.7154
1085.40 186.7505
1085.50 186.7856
1085.60 186.8207
1085.70 186.8558
1085.80 186.8909
1085.90 186.926
1086.00 186.9611
1086.10 186.9962
1086.20 187.0313
1086.30 187.0664
1086.40 187.1015
1086.50 187.1366
1086.60 187.1717
1086.70 187.2068
1086.80 187.2419
1086.90 187.277
1087.00 187.3121
1087.10 187.3472
1087.20 187.3823
1087.30 187.4174
1087.40 187.4525
1087.50 187.4876
1087.60 187.5227
1087.70 187.5578
1087.80 187.5929
1087.90 187.628
1088.00 187.6631
1088.10 187.6982
1088.20 187.7333
1088.30 187.7684
1088.40 187.8035
1088.50 187.8386
1088.60 187.8737
1088.70 187.9088
1088.80 187.9439
1088.90 187.979
1089.00 188.0141
1089.10 188.0492
1089.20 188.0843
1089.30 188.1194
1089.40 188.164
1089.50 188.231
1089.60 188.2979
1089.70 188.3648
1089.80 188.4318
1089.90 188.4987
1090.00 188.5656
1090.10 188.6325
1090.20 188.6995
1090.30 188.7664
1090.40 188.8333
1090.50 188.9003
1090.60 188.9672
1090.70 189.0341
1090.80 189.1011
1090.90 189.168
1091.00 189.2349
1091.10 189.3018
1091.20 189.3688
1091.30 189.4357
1091.40 189.5026
1091.50 189.5696
1091.60 189.6365
1091.70 189.7034
1091.80 189.7703
1091.90 189.8373
1092.00 189.9042
1092.10 189.9711
1092.20 190.0381
1092.30 190.105
1092.40 190.1719
1092.50 190.2389
1092.60 190.3058
1092.70 190.3727
1092.80 190.4396
1092.90 190.5066
1093.00 190.5735
1093.10 190.6404
1093.20 190.7074
1093.30 190.7743
1093.40 190.8412
1093.50 190.9029
1093.60 190.9438
1093.70 190.9847
1093.80 191.0256
1093.90 191.0665
1094.00 191.1074
1094.10 191.1483
1094.20 191.1892
1094.30 191.2301
1094.40 191.271
1094.50 191.3119
1094.60 191.3528
1094.70 191.3937
1094.80 191.4346
1094.90 191.4755
1095.00 191.5164
1095.10 191.5573
1095.20 191.5982
1095.30 191.6391
1095.40 191.68
1095.50 191.7209
1095.60 191.7618
1095.70 191.8027
1095.80 191.8436
1095.90 191.8845
1096.00 191.9254
1096.10 191.9663
1096.20 192.0072
1096.30 192.0481
1096.40 192.0889
1096.50 192.1298
1096.60 192.1707
1096.70 192.2116
1096.80 192.2525
1096.90 192.2934
1097.00 192.3343
1097.10 192.3752
1097.20 192.4161
1097.30 192.457
1097.40 192.4979
1097.50 192.5388
1097.60 192.5797
1097.70 192.6402
1097.80 192.7007
1097.90 192.7612
1098.00 192.8217
1098.10 192.8822
1098.20 192.9427
1098.30 193.0032
1098.40 193.0637
1098.50 193.1242
1098.60 193.1847
1098.70 193.2452
1098.80 193.3057
1098.90 193.3662
1099.00 193.4267
1099.10 193.4872
1099.20 193.5477
1099.30 193.6083
1099.40 193.6688
1099.50 193.7293
1099.60 193.7898
1099.70 193.8503
1099.80 193.9108
1099.90 193.9713
1100.00 194.0318
1100.10 194.0923
1100.20 194.1528
1100.30 194.2133
1100.40 194.2738
1100.50 194.3343
1100.60 194.3948
1100.70 194.4553
1100.80 194.5158
1100.90 194.5763
1101.00 194.6368
1101.10 194.6973
1101.20 194.7578
1101.30 194.8183
1101.40 194.8788
1101.50 194.9393
1101.60 194.9998
1101.70 195.0603
1101.80 194.997
1101.90 194.8807
1102.00 194.7644
1102.10 194.648
1102.20 194.5317
1102.30 194.4154
1102.40 194.2991
1102.50 194.1827
1102.60 194.0664
1102.70 193.9501
1102.80 193.8337
1102.90 193.7174
1103.00 193.6011
1103.10 193.4848
1103.20 193.3684
1103.30 193.2521
1103.40 193.1358
1103.50 193.0194
1103.60 192.9031
1103.70 192.7868
1103.80 192.6704
1103.90 192.5541
1104.00 192.4378
1104.10 192.3215
1104.20 192.2051
1104.30 192.0888
1104.40 191.9725
1104.50 191.8561
1104.60 191.7398
1104.70 191.6235
1104.80 191.5072
1104.90 191.3908
1105.00 191.2745
1105.10 191.1582
1105.20 191.0418
1105.30 190.9255
1105.40 190.8092
1105.50 190.6928
1105.60 190.5765
1105.70 190.4602
1105.80 190.3439
1105.90 190.2664
1106.00 190.2796
1106.10 190.2927
1106.20 190.3059
1106.30 190.3191
1106.40 190.3323
1106.50 190.3455
1106.60 190.3586
1106.70 190.3718
1106.80 190.385
1106.90 190.3982
1107.00 190.4113
1107.10 190.4245
1107.20 190.4377
1107.30 190.4509
1107.40 190.4641
1107.50 190.4772
1107.60 190.4904
1107.70 190.5036
1107.80 190.5168
1107.90 190.5299
1108.00 190.5431
1108.10 190.5563
1108.20 190.5695
1108.30 190.5827
1108.40 190.5958
1108.50 190.609
1108.60 190.6222
1108.70 190.6354
1108.80 190.6486
1108.90 190.6617
1109.00 190.6749
1109.10 190.6881
1109.20 190.7013
1109.30 190.7144
1109.40 190.7276
1109.50 190.7408
1109.60 190.754
1109.70 190.7672
1109.80 190.7803
1109.90 190.7935
1110.00 190.8067
1110.10 190.7795
1110.20 190.7422
1110.30 190.7049
1110.40 190.6676
1110.50 190.6303
1110.60 190.593
1110.70 190.5557
1110.80 190.5184
1110.90 190.4811
1111.00 190.4438
1111.10 190.4065
1111.20 190.3692
1111.30 190.3319
1111.40 190.2946
1111.50 190.2573
1111.60 190.22
1111.70 190.1827
1111.80 190.1454
1111.90 190.1081
1112.00 190.0708
1112.10 190.0335
1112.20 189.9962
1112.30 189.9589
1112.40 189.9216
1112.50 189.8843
1112.60 189.847
1112.70 189.8098
1112.80 189.7725
1112.90 189.7352
1113.00 189.6979
1113.10 189.6606
1113.20 189.6233
1113.30 189.586
1113.40 189.5487
1113.50 189.5114
1113.60 189.4741
1113.70 189.4368
1113.80 189.3995
1113.90 189.3622
1114.00 189.3249
1114.10 189.2876
1114.20 189.2791
1114.30 189.3377
1114.40 189.3963
1114.50 189.455
1114.60 189.5136
1114.70 189.5723
1114.80 189.6309
1114.90 189.6896
1115.00 189.7482
1115.10 189.8068
1115.20 189.8655
1115.30 189.9241
1115.40 189.9828
1115.50 190.0414
1115.60 190.1
1115.70 190.1587
1115.80 190.2173
1115.90 190.276
1116.00 190.3346
1116.10 190.3932
1116.20 190.4519
1116.30 190.5105
1116.40 190.5692
1116.50 190.6278
1116.60 190.6865
1116.70 190.7451
1116.80 190.8037
1116.90 190.8624
1117.00 190.921
1117.10 190.9797
1117.20 191.0383
1117.30 191.0969
1117.40 191.1556
1117.50 191.2142
1117.60 191.2729
1117.70 191.3315
1117.80 191.3902
1117.90 191.4488
1118.00 191.5074
1118.10 191.5661
1118.20 191.6247
1118.30 191.6834
1118.40 191.741
1118.50 191.798
1118.60 191.855
1118.70 191.9119
1118.80 191.9689
1118.90 192.0259
1119.00 192.0829
1119.10 192.1399
1119.20 192.1968
1119.30 192.2538
1119.40 192.3108
1119.50 192.3678
1119.60 192.4247
1119.70 192.4817
1119.80 192.5387
1119.90 192.5957
1120.00 192.6527
1120.10 192.7096
1120.20 192.7666
1120.30 192.8236
1120.40 192.8806
1120.50 192.9376
1120.60 192.9945
1120.70 193.0515
1120.80 193.1085
1120.90 193.1655
1121.00 193.2224
1121.10 193.2794
1121.20 193.3364
1121.30 193.3934
1121.40 193.4504
1121.50 193.5073
1121.60 193.5643
1121.70 193.6213
1121.80 193.6783
1121.90 193.7352
1122.00 193.7922
1122.10 193.8492
1122.20 193.9062
1122.30 193.9632
1122.40 194.0201
1122.50 194.0771
1122.60 194.0814
1122.70 194.0798
1122.80 194.0782
1122.90 194.0765
1123.00 194.0749
1123.10 194.0733
1123.20 194.0717
1123.30 194.0701
1123.40 194.0685
1123.50 194.0669
1123.60 194.0653
1123.70 194.0637
1123.80 194.0621
1123.90 194.0605
1124.00 194.0589
1124.10 194.0573
1124.20 194.0557
1124.30 194.054
1124.40 194.0524
1124.50 194.0508
1124.60 194.0492
1124.70 194.0476
1124.80 194.046
1124.90 194.0444
1125.00 194.0428
1125.10 194.0412
1125.20 194.0396
1125.30 194.038
1125.40 194.0364
1125.50 194.0348
1125.60 194.0331
1125.70 194.0315
1125.80 194.0299
1125.90 194.0283
1126.00 194.0267
1126.10 194.0251
1126.20 194.0235
1126.30 194.0219
1126.40 194.0203
1126.50 194.0187
1126.60 194.0171
1126.70 194.0042
1126.80 193.9465
1126.90 193.8889
1127.00 193.8312
1127.10 193.7735
1127.20 193.7158
1127.30 193.6581
1127.40 193.6004
1127.50 193.5427
1127.60 193.485
1127.70 193.4273
1127.80 193.3696
1127.90 193.3119
1128.00 193.2542
1128.10 193.1965
1128.20 193.1388
1128.30 193.0811
1128.40 193.0234
1128.50 192.9657
1128.60 192.908
1128.70 192.8504
1128.80 192.7927
1128.90 192.735
1129.00 192.6773
1129.10 192.6196
1129.20 192.5619
1129.30 192.5042
1129.40 192.4465
1129.50 192.3888
1129.60 192.3311
1129.70 192.2734
1129.80 192.2157
1129.90 192.158
1130.00 192.1003
1130.10 192.0426
1130.20 191.9849
1130.30 191.9272
1130.40 191.8696
1130.50 191.8119
1130.60 191.7542
1130.70 191.6965
1130.80 191.6388
1130.90 191.5535
1131.00 191.404
1131.10 191.2544
1131.20 191.1049
1131.30 190.9553
1131.40 190.8058
1131.50 190.6562
1131.60 190.5067
1131.70 190.3571
1131.80 190.2076
1131.90 190.058
1132.00 189.9085
1132.10 189.7589
1132.20 189.6094
1132.30 189.4598
1132.40 189.3103
1132.50 189.1607
1132.60 189.0112
1132.70 188.8616
1132.80 188.7121
1132.90 188.5625
1133.00 188.413
1133.10 188.2635
1133.20 188.1139
1133.30 187.9644
1133.40 187.8148
1133.50 187.6653
1133.60 187.5157
1133.70 187.3662
1133.80 187.2166
1133.90 187.0671
1134.00 186.9175
1134.10 186.768
1134.20 186.6184
1134.30 186.4689
1134.40 186.3193
1134.50 186.1698
1134.60 186.0202
1134.70 185.8707
1134.80 185.7211
1134.90 185.5716
1135.00 185.422
1135.10 185.3223
1135.20 185.2973
1135.30 185.2724
1135.40 185.2474
1135.50 185.2224
1135.60 185.1974
1135.70 185.1725
1135.80 185.1475
1135.90 185.1225
1136.00 185.0975
1136.10 185.0726
1136.20 185.0476
1136.30 185.0226
1136.40 184.9977
1136.50 184.9727
1136.60 184.9477
1136.70 184.9227
1136.80 184.8978
1136.90 184.8728
1137.00 184.8478
1137.10 184.8228
1137.20 184.7979
1137.30 184.7729
1137.40 184.7479
1137.50 184.7229
1137.60 184.698
1137.70 184.673
1137.80 184.648
1137.90 184.6231
1138.00 184.5981
1138.10 184.5731
1138.20 184.5481
1138.30 184.5232
1138.40 184.4982
1138.50 184.4732
1138.60 184.4482
1138.70 184.4233
1138.80 184.3983
1138.90 184.3733
1139.00 184.3483
1139.10 184.3234
1139.20 184.2984
1139.30 184.3161
1139.40 184.3978
1139.50 184.4795
1139.60 184.5612
1139.70 184.643
1139.80 184.7247
1139.90 184.8064
1140.00 184.8881
1140.10 184.9698
1140.20 185.0516
1140.30 185.1333
1140.40 185.215
1140.50 185.2967
1140.60 185.3784
1140.70 185.4601
1140.80 185.5419
1140.90 185.6236
1141.00 185.7053
1141.10 185.787
1141.20 185.8687
1141.30 185.9504
1141.40 186.0322
1141.50 186.1139
1141.60 186.1956
1141.70 186.2773
1141.80 186.359
1141.90 186.4407
1142.00 186.5225
1142.10 186.6042
1142.20 186.6859
1142.30 186.7676
1142.40 186.8493
1142.50 186.931
1142.60 187.0128
1142.70 187.0945
1142.80 187.1762
1142.90 187.2579
1143.00 187.3396
1143.10 187.4213
1143.20 187.5031
1143.30 187.5848
1143.40 187.6665
1143.50 187.7969
1143.60 188.041
1143.70 188.2851
1143.80 188.5291
1143.90 188.7732
1144.00 189.0173
1144.10 189.2613
1144.20 189.5054
1144.30 189.7495
1144.40 189.9936
1144.50 190.2376
1144.60 190.4817
1144.70 190.7258
1144.80 190.9698
1144.90 191.2139
1145.00 191.458
1145.10 191.702
1145.20 191.9461
1145.30 192.1902
1145.40 192.4343
1145.50 192.6783
1145.60 192.9224
1145.70 193.1665
1145.80 193.4105
1145.90 193.6546
1146.00 193.8987
1146.10 194.1428
1146.20 194.3868
1146.30 194.6309
1146.40 194.875
1146.50 195.119
1146.60 195.3631
1146.70 195.6072
1146.80 195.8513
1146.90 196.0953
1147.00 196.3394
1147.10 196.5835
1147.20 196.8275
1147.30 197.0716
1147.40 197.3157
1147.50 197.5598
1147.60 197.8038
1147.70 198.0327
1147.80 198.2011
1147.90 198.3694
1148.00 198.5377
1148.10 198.706
1148.20 198.8743
1148.30 199.0426
1148.40 199.2109
1148.50 199.3792
1148.60 199.5475
1148.70 199.7159
1148.80 199.8842
1148.90 200.0525
1149.00 200.2208
1149.10 200.3891
1149.20 200.5574
1149.30 200.7257
1149.40 200.894
1149.50 201.0623
1149.60 201.2307
1149.70 201.399
1149.80 201.5673
1149.90 201.7356
1150.00 201.9039
1150.10 202.0722
1150.20 202.2405
1150.30 202.4088
1150.40 202.5771
1150.50 202.7454
1150.60 202.9138
1150.70 203.0821
1150.80 203.2504
1150.90 203.4187
1151.00 203.587
1151.10 203.7553
1151.20 203.9236
1151.30 204.0919
1151.40 204.2602
1151.50 204.4286
1151.60 204.5969
1151.70 204.7652
1151.80 204.9335
1151.90 205.1018
1152.00 205.0854
1152.10 205.069
1152.20 205.0526
1152.30 205.0362
1152.40 205.0198
1152.50 205.0034
1152.60 204.9871
1152.70 204.9707
1152.80 204.9543
1152.90 204.9379
1153.00 204.9215
1153.10 204.9051
1153.20 204.8887
1153.30 204.8723
1153.40 204.8559
1153.50 204.8395
1153.60 204.8231
1153.70 204.8067
1153.80 204.7903
1153.90 204.7739
1154.00 204.7576
1154.10 204.7412
1154.20 204.7248
1154.30 204.7084
1154.40 204.692
1154.50 204.6756
1154.60 204.6592
1154.70 204.6428
1154.80 204.6264
1154.90 204.61
1155.00 204.5936
1155.10 204.5772
1155.20 204.5608
1155.30 204.5445
1155.40 204.5281
1155.50 204.5117
1155.60 204.4953
1155.70 204.4789
1155.80 204.4625
1155.90 204.4461
1156.00 204.4297
1156.10 204.4133
1156.20 204.3349
1156.30 204.241
1156.40 204.147
1156.50 204.0531
1156.60 203.9591
1156.70 203.8652
1156.80 203.7713
1156.90 203.6773
1157.00 203.5834
1157.10 203.4895
1157.20 203.3955
1157.30 203.3016
1157.40 203.2077
1157.50 203.1137
1157.60 203.0198
1157.70 202.9259
1157.80 202.8319
1157.90 202.738
1158.00 202.6441
1158.10 202.5501
1158.20 202.4562
1158.30 202.3623
1158.40 202.2683
1158.50 202.1744
1158.60 202.0805
1158.70 201.9865
1158.80 201.8926
1158.90 201.7987
1159.00 201.7047
1159.10 201.6108
1159.20 201.5169
1159.30 201.4229
1159.40 201.329
1159.50 201.2351
1159.60 201.1411
1159.70 201.0472
1159.80 200.9533
1159.90 200.8593
1160.00 200.7654
1160.10 200.6715
1160.20 200.5775
1160.30 200.4836
1160.40 200.3855
1160.50 200.2831
1160.60 200.1807
1160.70 200.0783
1160.80 199.976
1160.90 199.8736
1161.00 199.7712
1161.10 199.6688
1161.20 199.5665
1161.30 199.4641
1161.40 199.3617
1161.50 199.2594
1161.60 199.157
1161.70 199.0546
1161.80 198.9522
1161.90 198.8499
1162.00 198.7475
1162.10 198.6451
1162.20 198.5427
1162.30 198.4404
1162.40 198.338
1162.50 198.2356
1162.60 198.1333
1162.70 198.0309
1162.80 197.9285
1162.90 197.8261
1163.00 197.7238
1163.10 197.6214
1163.20 197.519
1163.30 197.4167
1163.40 197.3143
1163.50 197.2119
1163.60 197.1095
1163.70 197.0072
1163.80 196.9048
1163.90 196.8024
1164.00 196.7
1164.10 196.5977
1164.20 196.4953
1164.30 196.3929
1164.40 196.2906
1164.50 196.1882
1164.60 196.0878
1164.70 196.0054
1164.80 195.923
1164.90 195.8405
1165.00 195.7581
1165.10 195.6757
1165.20 195.5933
1165.30 195.5108
1165.40 195.4284
1165.50 195.346
1165.60 195.2636
1165.70 195.1811
1165.80 195.0987
1165.90 195.0163
1166.00 194.9339
1166.10 194.8515
1166.20 194.769
1166.30 194.6866
1166.40 194.6042
1166.50 194.5218
1166.60 194.4393
1166.70 194.3569
1166.80 194.2745
1166.90 194.1921
1167.00 194.1096
1167.10 194.0272
1167.20 193.9448
1167.30 193.8624
1167.40 193.7799
1167.50 193.6975
1167.60 193.6151
1167.70 193.5327
1167.80 193.4502
1167.90 193.3678
1168.00 193.2854
1168.10 193.203
1168.20 193.1206
1168.30 193.0381
1168.40 192.9557
1168.50 192.8733
1168.60 192.7909
1168.70 192.7084
1168.80 192.626
1168.90 192.4554
1169.00 192.2469
1169.10 192.0385
1169.20 191.83
1169.30 191.6216
1169.40 191.4131
1169.50 191.2046
1169.60 190.9962
1169.70 190.7877
1169.80 190.5793
1169.90 190.3708
1170.00 190.1624
1170.10 189.9539
1170.20 189.7455
1170.30 189.537
1170.40 189.3286
1170.50 189.1201
1170.60 188.9116
1170.70 188.7032
1170.80 188.4947
1170.90 188.2863
1171.00 188.0778
1171.10 187.8694
1171.20 187.6609
1171.30 187.4525
1171.40 187.244
1171.50 187.0356
1171.60 186.8271
1171.70 186.6187
1171.80 186.4102
1171.90 186.2017
1172.00 185.9933
1172.10 185.7848
1172.20 185.5764
1172.30 185.3679
1172.40 185.1595
1172.50 184.951
1172.60 184.7426
1172.70 184.5341
1172.80 184.3257
1172.90 184.1172
1173.00 183.9088
1173.10 183.7516
1173.20 183.7999
1173.30 183.8482
1173.40 183.8965
1173.50 183.9448
1173.60 183.9931
1173.70 184.0414
1173.80 184.0897
1173.90 184.138
1174.00 184.1863
1174.10 184.2346
1174.20 184.2829
1174.30 184.3312
1174.40 184.3795
1174.50 184.4278
1174.60 184.4761
1174.70 184.5244
1174.80 184.5727
1174.90 184.621
1175.00 184.6693
1175.10 184.7176
1175.20 184.7659
1175.30 184.8142
1175.40 184.8625
1175.50 184.9108
1175.60 184.9591
1175.70 185.0074
1175.80 185.0557
1175.90 185.104
1176.00 185.1523
1176.10 185.2006
1176.20 185.2489
1176.30 185.2972
1176.40 185.3455
1176.50 185.3938
1176.60 185.4421
1176.70 185.4904
1176.80 185.5387
1176.90 185.587
1177.00 185.6353
1177.10 185.6836
1177.20 185.7319
1177.30 185.7802
1177.40 185.848
1177.50 185.9241
1177.60 186.0002
1177.70 186.0764
1177.80 186.1525
1177.90 186.2286
1178.00 186.3048
1178.10 186.3809
1178.20 186.457
1178.30 186.5332
1178.40 186.6093
1178.50 186.6855
1178.60 186.7616
1178.70 186.8377
1178.80 186.9139
1178.90 186.99
1179.00 187.0661
1179.10 187.1423
1179.20 187.2184
1179.30 187.2945
1179.40 187.3707
1179.50 187.4468
1179.60 187.523
1179.70 187.5991
1179.80 187.6752
1179.90 187.7514
1180.00 187.8275
1180.10 187.9036
1180.20 187.9798
1180.30 188.0559
1180.40 188.1321
1180.50 188.2082
1180.60 188.2843
1180.70 188.3605
1180.80 188.4366
1180.90 188.5127
1181.00 188.5889
1181.10 188.665
1181.20 188.7411
1181.30 188.8173
1181.40 188.8934
1181.50 188.9696
1181.60 189.0494
1181.70 189.1625
1181.80 189.2756
1181.90 189.3886
1182.00 189.5017
1182.10 189.6148
1182.20 189.7279
1182.30 189.841
1182.40 189.9541
1182.50 190.0672
1182.60 190.1802
1182.70 190.2933
1182.80 190.4064
1182.90 190.5195
1183.00 190.6326
1183.10 190.7457
1183.20 190.8588
1183.30 190.9718
1183.40 191.0849
1183.50 191.198
1183.60 191.3111
1183.70 191.4242
1183.80 191.5373
1183.90 191.6504
1184.00 191.7634
1184.10 191.8765
1184.20 191.9896
1184.30 192.1027
1184.40 192.2158
1184.50 192.3289
1184.60 192.442
1184.70 192.555
1184.80 192.6681
1184.90 192.7812
1185.00 192.8943
1185.10 193.0074
1185.20 193.1205
1185.30 193.2336
1185.40 193.3466
1185.50 193.4597
1185.60 193.5728
1185.70 193.6859
1185.80 193.799
1185.90 193.8307
1186.00 193.781
1186.10 193.7313
1186.20 193.6817
1186.30 193.632
1186.40 193.5823
1186.50 193.5326
1186.60 193.483
1186.70 193.4333
1186.80 193.3836
1186.90 193.3339
1187.00 193.2843
1187.10 193.2346
1187.20 193.1849
1187.30 193.1352
1187.40 193.0856
1187.50 193.0359
1187.60 192.9862
1187.70 192.9365
1187.80 192.8869
1187.90 192.8372
1188.00 192.7875
1188.10 192.7378
1188.20 192.6882
1188.30 192.6385
1188.40 192.5888
1188.50 192.5391
1188.60 192.4895
1188.70 192.4398
1188.80 192.3901
1188.90 192.3404
1189.00 192.2908
1189.10 192.2411
1189.20 192.1914
1189.30 192.1417
1189.40 192.0921
1189.50 192.0424
1189.60 191.9927
1189.70 191.943
1189.80 191.8934
1189.90 191.8437
1190.00 191.794
1190.10 191.7443
1190.20 191.6107
1190.30 191.4561
1190.40 191.3014
1190.50 191.1468
1190.60 190.9922
1190.70 190.8375
1190.80 190.6829
1190.90 190.5283
1191.00 190.3736
1191.10 190.219
1191.20 190.0644
1191.30 189.9097
1191.40 189.7551
1191.50 189.6005
1191.60 189.4458
1191.70 189.2912
1191.80 189.1366
1191.90 188.9819
1192.00 188.8273
1192.10 188.6727
1192.20 188.518
1192.30 188.3634
1192.40 188.2088
1192.50 188.0541
1192.60 187.8995
1192.70 187.7449
1192.80 187.5902
1192.90 187.4356
1193.00 187.281
1193.10 187.1263
1193.20 186.9717
1193.30 186.8171
1193.40 186.6624
1193.50 186.5078
1193.60 186.3531
1193.70 186.1985
1193.80 186.0439
1193.90 185.8892
1194.00 185.7346
1194.10 185.58
1194.20 185.4253
1194.30 185.2707
1194.40 185.1209
1194.50 185.0145
1194.60 184.9081
1194.70 184.8018
1194.80 184.6954
1194.90 184.589
1195.00 184.4826
1195.10 184.3762
1195.20 184.2698
1195.30 184.1635
1195.40 184.0571
1195.50 183.9507
1195.60 183.8443
1195.70 183.7379
1195.80 183.6315
1195.90 183.5251
1196.00 183.4188
1196.10 183.3124
1196.20 183.206
1196.30 183.0996
1196.40 182.9932
1196.50 182.8868
1196.60 182.7805
1196.70 182.6741
1196.80 182.5677
1196.90 182.4613
1197.00 182.3549
1197.10 182.2485
1197.20 182.1422
1197.30 182.0358
1197.40 181.9294
1197.50 181.823
1197.60 181.7166
1197.70 181.6102
1197.80 181.5039
1197.90 181.3975
1198.00 181.2911
1198.10 181.1847
1198.20 181.0783
1198.30 180.9719
1198.40 180.8656
1198.50 180.7592
1198.60 180.6528
1198.70 180.585
1198.80 180.5752
1198.90 180.5654
1199.00 180.5556
1199.10 180.5458
1199.20 180.536
1199.30 180.5262
1199.40 180.5164
1199.50 180.5066
1199.60 180.4968
1199.70 180.487
1199.80 180.4772
1199.90 180.4674
1200.00 180.4575
1200.10 180.4477
1200.20 180.4379
1200.30 180.4281
1200.40 180.4183
1200.50 180.4085
1200.60 180.3987
1200.70 180.3889
1200.80 180.3791
1200.90 180.3693
1201.00 180.3595
1201.10 180.3497
1201.20 180.3399
1201.30 180.3301
1201.40 180.3202
1201.50 180.3104
1201.60 180.3006
1201.70 180.2908
1201.80 180.281
1201.90 180.2712
1202.00 180.2614
1202.10 180.2516
1202.20 180.2418
1202.30 180.232
1202.40 180.2222
1202.50 180.2124
1202.60 180.2026
1202.70 180.1928
1202.80 180.183
1202.90 180.1731
1203.00 180.2463
1203.10 180.3747
1203.20 180.5031
1203.30 180.6315
1203.40 180.7599
1203.50 180.8883
1203.60 181.0168
1203.70 181.1452
1203.80 181.2736
1203.90 181.402
1204.00 181.5304
1204.10 181.6588
1204.20 181.7872
1204.30 181.9157
1204.40 182.0441
1204.50 182.1725
1204.60 182.3009
1204.70 182.4293
1204.80 182.5577
1204.90 182.6861
1205.00 182.8146
1205.10 182.943
1205.20 183.0714
1205.30 183.1998
1205.40 183.3282
1205.50 183.4566
1205.60 183.585
1205.70 183.7135
1205.80 183.8419
1205.90 183.9703
1206.00 184.0987
1206.10 184.2271
1206.20 184.3555
1206.30 184.4839
1206.40 184.6124
1206.50 184.7408
1206.60 184.8692
1206.70 184.9976
1206.80 185.126
1206.90 185.2544
1207.00 185.3828
1207.10 185.5113
1207.20 185.6397
1207.30 185.8367
1207.40 186.051
1207.50 186.2652
1207.60 186.4794
1207.70 186.6936
1207.80 186.9078
1207.90 187.122
1208.00 187.3362
1208.10 187.5505
1208.20 187.7647
1208.30 187.9789
1208.40 188.1931
1208.50 188.4073
1208.60 188.6215
1208.70 188.8358
1208.80 189.05
1208.90 189.2642
1209.00 189.4784
1209.10 189.6926
1209.20 189.9068
1209.30 190.1211
1209.40 190.3353
1209.50 190.5495
1209.60 190.7637
1209.70 190.9779
1209.80 191.1921
1209.90 191.4064
1210.00 191.6206
1210.10 191.8348
1210.20 192.049
1210.30 192.2632
1210.40 192.4774
1210.50 192.6917
1210.60 192.9059
1210.70 193.1201
1210.80 193.3343
1210.90 193.5485
1211.00 193.7627
1211.10 193.977
1211.20 194.1912
1211.30 194.4054
1211.40 194.6196
1211.50 194.8338
1211.60 194.9128
1211.70 194.9767
1211.80 195.0406
1211.90 195.1045
1212.00 195.1684
1212.10 195.2323
1212.20 195.2962
1212.30 195.3601
1212.40 195.424
1212.50 195.4879
1212.60 195.5518
1212.70 195.6157
1212.80 195.6796
1212.90 195.7435
1213.00 195.8074
1213.10 195.8713
1213.20 195.9352
1213.30 195.9991
1213.40 196.063
1213.50 196.1269
1213.60 196.1908
1213.70 196.2547
1213.80 196.3186
1213.90 196.3825
1214.00 196.4464
1214.10 196.5103
1214.20 196.5742
1214.30 196.6381
1214.40 196.702
1214.50 196.7659
1214.60 196.8298
1214.70 196.8937
1214.80 196.9577
1214.90 197.0216
1215.00 197.0855
1215.10 197.1494
1215.20 197.2133
1215.30 197.2772
1215.40 197.3411
1215.50 197.405
1215.60 197.4689
1215.70 197.5328
1215.80 197.5967
1215.90 197.7984
1216.00 198.0001
1216.10 198.2018
1216.20 198.4035
1216.30 198.6052
1216.40 198.8069
1216.50 199.0086
1216.60 199.2103
1216.70 199.412
1216.80 199.6138
1216.90 199.8155
1217.00 200.0172
1217.10 200.2189
1217.20 200.4206
1217.30 200.6223
1217.40 200.824
1217.50 201.0257
1217.60 201.2274
1217.70 201.4291
1217.80 201.6308
1217.90 201.8325
1218.00 202.0342
1218.10 202.2359
1218.20 202.4377
1218.30 202.6394
1218.40 202.8411
1218.50 203.0428
1218.60 203.2445
1218.70 203.4462
1218.80 203.6479
1218.90 203.8496
1219.00 204.0513
1219.10 204.253
1219.20 204.4547
1219.30 204.6564
1219.40 204.8581
1219.50 205.0598
1219.60 205.2616
1219.70 205.4633
1219.80 205.665
1219.90 205.8667
1220.00 206.0684
1220.10 206.2587
1220.20 206.3461
1220.30 206.4335
1220.40 206.521
1220.50 206.6084
1220.60 206.6958
1220.70 206.7833
1220.80 206.8707
1220.90 206.9582
1221.00 207.0456
1221.10 207.133
1221.20 207.2205
1221.30 207.3079
1221.40 207.3953
1221.50 207.4828
1221.60 207.5702
1221.70 207.6577
1221.80 207.7451
1221.90 207.8325
1222.00 207.92
1222.10 208.0074
1222.20 208.0948
1222.30 208.1823
1222.40 208.2697
1222.50 208.3572
1222.60 208.4446
1222.70 208.532
1222.80 208.6195
1222.90 208.7069
1223.00 208.7943
1223.10 208.8818
1223.20 208.9692
1223.30 209.0567
1223.40 209.1441
1223.50 209.2315
1223.60 209.319
1223.70 209.4064
1223.80 209.4938
1223.90 209.5813
1224.00 209.6687
1224.10 209.7562
1224.20 209.8436
1224.30 209.931
1224.40 210.007
1224.50 210.0373
1224.60 210.0676
1224.70 210.0979
1224.80 210.1282
1224.90 210.1585
1225.00 210.1888
1225.10 210.2191
1225.20 210.2494
1225.30 210.2797
1225.40 210.31
1225.50 210.3403
1225.60 210.3706
1225.70 210.4009
1225.80 210.4312
1225.90 210.4615
1226.00 210.4918
1226.10 210.5221
1226.20 210.5524
1226.30 210.5827
1226.40 210.613
1226.50 210.6433
1226.60 210.6736
1226.70 210.7039
1226.80 210.7342
1226.90 210.7645
1227.00 210.7948
1227.10 210.8251
1227.20 210.8554
1227.30 210.8857
1227.40 210.916
1227.50 210.9463
1227.60 210.9766
1227.70 211.0069
1227.80 211.0372
1227.90 211.0675
1228.00 211.0978
1228.10 211.1281
1228.20 211.1584
1228.30 211.1887
1228.40 211.219
1228.50 211.2493
1228.60 211.2796
1228.70 211.2831
1228.80 211.1793
1228.90 211.0755
1229.00 210.9717
1229.10 210.8679
1229.20 210.7641
1229.30 210.6604
1229.40 210.5566
1229.50 210.4528
1229.60 210.349
1229.70 210.2452
1229.80 210.1414
1229.90 210.0376
1230.00 209.9338
1230.10 209.83
1230.20 209.7262
1230.30 209.6225
1230.40 209.5187
1230.50 209.4149
1230.60 209.3111
1230.70 209.2073
1230.80 209.1035
1230.90 208.9997
1231.00 208.8959
1231.10 208.7921
1231.20 208.6883
1231.30 208.5845
1231.40 208.4808
1231.50 208.377
1231.60 208.2732
1231.70 208.1694
1231.80 208.0656
1231.90 207.9618
1232.00 207.858
1232.10 207.7542
1232.20 207.6504
1232.30 207.5466
1232.40 207.4429
1232.50 207.3391
1232.60 207.2353
1232.70 207.1315
1232.80 207.0277
1232.90 206.9239
1233.00 206.8062
1233.10 206.6328
1233.20 206.4595
1233.30 206.2861
1233.40 206.1128
1233.50 205.9394
1233.60 205.766
1233.70 205.5927
1233.80 205.4193
1233.90 205.2459
1234.00 205.0726
1234.10 204.8992
1234.20 204.7259
1234.30 204.5525
1234.40 204.3791
1234.50 204.2058
1234.60 204.0324
1234.70 203.8591
1234.80 203.6857
1234.90 203.5123
1235.00 203.339
1235.10 203.1656
1235.20 202.9922
1235.30 202.8189
1235.40 202.6455
1235.50 202.4722
1235.60 202.2988
1235.70 202.1254
1235.80 201.9521
1235.90 201.7787
1236.00 201.6054
1236.10 201.432
1236.20 201.2586
1236.30 201.0853
1236.40 200.9119
1236.50 200.7386
1236.60 200.5652
1236.70 200.3918
1236.80 200.2185
1236.90 200.0451
1237.00 199.8717
1237.10 199.6984
1237.20 199.525
1237.30 199.3678
1237.40 199.2748
1237.50 199.1819
1237.60 199.089
1237.70 198.9961
1237.80 198.9031
1237.90 198.8102
1238.00 198.7173
1238.10 198.6244
1238.20 198.5314
1238.30 198.4385
1238.40 198.3456
1238.50 198.2527
1238.60 198.1597
1238.70 198.0668
1238.80 197.9739
1238.90 197.881
1239.00 197.788
1239.10 197.6951
1239.20 197.6022
1239.30 197.5093
1239.40 197.4163
1239.50 197.3234
1239.60 197.2305
1239.70 197.1376
1239.80 197.0446
1239.90 196.9517
1240.00 196.8588
1240.10 196.7659
1240.20 196.6729
1240.30 196.58
1240.40 196.4871
1240.50 196.3942
1240.60 196.3012
1240.70 196.2083
1240.80 196.1154
1240.90 196.0225
1241.00 195.9295
1241.10 195.8366
1241.20 195.7437
1241.30 195.6508
1241.40 195.5578
1241.50 195.4649
1241.60 195.3737
1241.70 195.2984
1241.80 195.2231
1241.90 195.1477
1242.00 195.0724
1242.10 194.997
1242.20 194.9217
1242.30 194.8463
1242.40 194.771
1242.50 194.6956
1242.60 194.6203
1242.70 194.5449
1242.80 194.4696
1242.90 194.3942
1243.00 194.3189
1243.10 194.2435
1243.20 194.1682
1243.30 194.0928
1243.40 194.0175
1243.50 193.9421
1243.60 193.8668
1243.70 193.7914
1243.80 193.7161
1243.90 193.6408
1244.00 193.5654
1244.10 193.4901
1244.20 193.4147
1244.30 193.3394
1244.40 193.264
1244.50 193.1887
1244.60 193.1133
1244.70 193.038
1244.80 192.9626
1244.90 192.8873
1245.00 192.8119
1245.10 192.7366
1245.20 192.6612
1245.30 192.5859
1245.40 192.5105
1245.50 192.4352
1245.60 192.3598
1245.70 192.2845
1245.80 192.2091
1245.90 192.1338
1246.00 192.2783
1246.10 192.4229
1246.20 192.5674
1246.30 192.7119
1246.40 192.8564
1246.50 193.001
1246.60 193.1455
1246.70 193.29
1246.80 193.4346
1246.90 193.5791
1247.00 193.7236
1247.10 193.8682
1247.20 194.0127
1247.30 194.1572
1247.40 194.3017
1247.50 194.4463
1247.60 194.5908
1247.70 194.7353
1247.80 194.8799
1247.90 195.0244
1248.00 195.1689
1248.10 195.3135
1248.20 195.458
1248.30 195.6025
1248.40 195.747
1248.50 195.8916
1248.60 196.0361
1248.70 196.1806
1248.80 196.3252
1248.90 196.4697
1249.00 196.6142
1249.10 196.7588
1249.20 196.9033
1249.30 197.0478
1249.40 197.1924
1249.50 197.3369
1249.60 197.4814
1249.70 197.6259
1249.80 197.7705
1249.90 197.915
1250.00 198.0595
1250.10 198.2041
1250.20 198.3486
1250.30 198.4704
1250.40 198.5922
1250.50 198.714
1250.60 198.8358
1250.70 198.9576
1250.80 199.0794
1250.90 199.2012
1251.00 199.323
1251.10 199.4448
1251.20 199.5665
1251.30 199.6883
1251.40 199.8101
1251.50 199.9319
1251.60 200.0537
1251.70 200.1755
1251.80 200.2973
1251.90 200.4191
1252.00 200.5409
1252.10 200.6627
1252.20 200.7845
1252.30 200.9063
1252.40 201.0281
1252.50 201.1499
1252.60 201.2717
1252.70 201.3935
1252.80 201.5153
1252.90 201.6371
1253.00 201.7589
1253.10 201.8807
1253.20 202.0025
1253.30 202.1243
1253.40 202.2461
1253.50 202.3678
1253.60 202.4896
1253.70 202.6114
1253.80 202.7332
1253.90 202.855
1254.00 202.9768
1254.10 203.0986
1254.20 203.2204
1254.30 203.3422
1254.40 203.464
1254.50 203.5858
1254.60 203.786
1254.70 203.9948
1254.80 204.2037
1254.90 204.4126
1255.00 204.6215
1255.10 204.8304
1255.20 205.0392
1255.30 205.2481
1255.40 205.457
1255.50 205.6659
1255.60 205.8747
1255.70 206.0836
1255.80 206.2925
1255.90 206.5014
1256.00 206.7102
1256.10 206.9191
1256.20 207.128
1256.30 207.3369
1256.40 207.5457
1256.50 207.7546
1256.60 207.9635
1256.70 208.1724
1256.80 208.3812
1256.90 208.5901
1257.00 208.799
1257.10 209.0079
1257.20 209.2167
1257.30 209.4256
1257.40 209.6345
1257.50 209.8434
1257.60 210.0523
1257.70 210.2611
1257.80 210.47
1257.90 210.6789
1258.00 210.8878
1258.10 211.0966
1258.20 211.3055
1258.30 211.5144
1258.40 211.7233
1258.50 211.9321
1258.60 212.141
1258.70 212.3499
1258.80 212.5588
1258.90 212.7752
1259.00 212.9949
1259.10 213.2146
1259.20 213.4343
1259.30 213.654
1259.40 213.8738
1259.50 214.0935
1259.60 214.3132
1259.70 214.5329
1259.80 214.7526
1259.90 214.9723
1260.00 215.192
1260.10 215.4117
1260.20 215.6314
1260.30 215.8511
1260.40 216.0708
1260.50 216.2905
1260.60 216.5102
1260.70 216.7299
1260.80 216.9496
1260.90 217.1694
1261.00 217.3891
1261.10 217.6088
1261.20 217.8285
1261.30 218.0482
1261.40 218.2679
1261.50 218.4876
1261.60 218.7073
1261.70 218.927
1261.80 219.1467
1261.90 219.3664
1262.00 219.5861
1262.10 219.8058
1262.20 220.0255
1262.30 220.2452
1262.40 220.465
1262.50 220.6847
1262.60 220.9044
1262.70 221.1241
1262.80 221.3438
1262.90 221.5635
1263.00 221.7832
1263.10 222.0029
1263.20 222.1686
1263.30 222.2983
1263.40 222.4281
1263.50 222.5578
1263.60 222.6875
1263.70 222.8172
1263.80 222.947
1263.90 223.0767
1264.00 223.2064
1264.10 223.3361
1264.20 223.4659
1264.30 223.5956
1264.40 223.7253
1264.50 223.855
1264.60 223.9848
1264.70 224.1145
1264.80 224.2442
1264.90 224.3739
1265.00 224.5037
1265.10 224.6334
1265.20 224.7631
1265.30 224.8928
1265.40 225.0225
1265.50 225.1523
1265.60 225.282
1265.70 225.4117
1265.80 225.5414
1265.90 225.6712
1266.00 225.8009
1266.10 225.9306
1266.20 226.0603
1266.30 226.1901
1266.40 226.3198
1266.50 226.4495
1266.60 226.5792
1266.70 226.709
1266.80 226.8387
1266.90 226.9684
1267.00 227.0981
1267.10 227.2279
1267.20 227.3576
1267.30 227.4873
1267.40 227.617
1267.50 227.7394
1267.60 227.8545
1267.70 227.9696
1267.80 228.0847
1267.90 228.1998
1268.00 228.3149
1268.10 228.43
1268.20 228.5451
1268.30 228.6602
1268.40 228.7753
1268.50 228.8903
1268.60 229.0054
1268.70 229.1205
1268.80 229.2356
1268.90 229.3507
1269.00 229.4658
1269.10 229.5809
1269.20 229.696
1269.30 229.8111
1269.40 229.9261
1269.50 230.0412
1269.60 230.1563
1269.70 230.2714
1269.80 230.3865
1269.90 230.5016
1270.00 230.6167
1270.10 230.7318
1270.20 230.8469
1270.30 230.962
1270.40 231.077
1270.50 231.1921
1270.60 231.3072
1270.70 231.4223
1270.80 231.5374
1270.90 231.6525
1271.00 231.7676
1271.10 231.8827
1271.20 231.9978
1271.30 232.1128
1271.40 232.2279
1271.50 232.343
1271.60 232.4581
1271.70 232.5732
1271.80 232.6563
1271.90 232.6649
1272.00 232.6735
1272.10 232.6821
1272.20 232.6907
1272.30 232.6993
1272.40 232.7079
1272.50 232.7165
1272.60 232.7251
1272.70 232.7337
1272.80 232.7423
1272.90 232.7509
1273.00 232.7595
1273.10 232.7681
1273.20 232.7767
1273.30 232.7853
1273.40 232.7939
1273.50 232.8025
1273.60 232.8111
1273.70 232.8197
1273.80 232.8283
1273.90 232.8369
1274.00 232.8455
1274.10 232.8541
1274.20 232.8627
1274.30 232.8713
1274.40 232.8799
1274.50 232.8885
1274.60 232.8971
1274.70 232.9057
1274.80 232.9143
1274.90 232.9229
1275.00 232.9315
1275.10 232.9401
1275.20 232.9487
1275.30 232.9573
1275.40 232.9659
1275.50 232.9745
1275.60 232.9831
1275.70 232.9917
1275.80 233.0003
1275.90 233.0089
1276.00 233.0175
1276.10 233.0201
1276.20 232.9693
1276.30 232.9184
1276.40 232.8676
1276.50 232.8167
1276.60 232.7659
1276.70 232.715
1276.80 232.6642
1276.90 232.6134
1277.00 232.5625
1277.10 232.5117
1277.20 232.4608
1277.30 232.41
1277.40 232.3591
1277.50 232.3083
1277.60 232.2574
1277.70 232.2066
1277.80 232.1557
1277.90 232.1049
1278.00 232.054
1278.10 232.0032
1278.20 231.9523
1278.30 231.9015
1278.40 231.8506
1278.50 231.7998
1278.60 231.7489
1278.70 231.6981
1278.80 231.6473
1278.90 231.5964
1279.00 231.5456
1279.10 231.4947
1279.20 231.4439
1279.30 231.393
1279.40 231.3422
1279.50 231.2913
1279.60 231.2405
1279.70 231.1896
1279.80 231.1388
1279.90 231.0879
1280.00 231.0371
1280.10 230.9862
1280.20 230.9354
1280.30 230.8845
1280.40 230.8337
1280.50 230.8279
1280.60 230.8221
1280.70 230.8164
1280.80 230.8106
1280.90 230.8048
1281.00 230.7991
1281.10 230.7933
1281.20 230.7875
1281.30 230.7817
1281.40 230.776
1281.50 230.7702
1281.60 230.7644
1281.70 230.7586
1281.80 230.7529
1281.90 230.7471
1282.00 230.7413
1282.10 230.7356
1282.20 230.7298
1282.30 230.724
1282.40 230.7182
1282.50 230.7125
1282.60 230.7067
1282.70 230.7009
1282.80 230.6951
1282.90 230.6894
1283.00 230.6836
1283.10 230.6778
1283.20 230.672
1283.30 230.6663
1283.40 230.6605
1283.50 230.6547
1283.60 230.649
1283.70 230.6432
1283.80 230.6374
1283.90 230.6316
1284.00 230.6259
1284.10 230.6201
1284.20 230.6143
1284.30 230.6085
1284.40 230.6028
1284.50 230.597
1284.60 230.5912
1284.70 230.5854
1284.80 230.6146
1284.90 230.6524
1285.00 230.6902
1285.10 230.7281
1285.20 230.7659
1285.30 230.8037
1285.40 230.8416
1285.50 230.8794
1285.60 230.9172
1285.70 230.9551
1285.80 230.9929
1285.90 231.0307
1286.00 231.0685
1286.10 231.1064
1286.20 231.1442
1286.30 231.182
1286.40 231.2199
1286.50 231.2577
1286.60 231.2955
1286.70 231.3334
1286.80 231.3712
1286.90 231.409
1287.00 231.4469
1287.10 231.4847
1287.20 231.5225
1287.30 231.5604
1287.40 231.5982
1287.50 231.636
1287.60 231.6739
1287.70 231.7117
1287.80 231.7495
1287.90 231.7874
1288.00 231.8252
1288.10 231.863
1288.20 231.9009
1288.30 231.9387
1288.40 231.9765
1288.50 232.0144
1288.60 232.0522
1288.70 232.09
1288.80 232.1279
1288.90 232.1657
1289.00 232.2035
1289.10 232.1686
1289.20 232.0853
1289.30 232.0019
1289.40 231.9185
1289.50 231.8351
1289.60 231.7518
1289.70 231.6684
1289.80 231.585
1289.90 231.5017
1290.00 231.4183
1290.10 231.3349
1290.20 231.2516
1290.30 231.1682
1290.40 231.0848
1290.50 231.0014
1290.60 230.9181
1290.70 230.8347
1290.80 230.7513
1290.90 230.668
1291.00 230.5846
1291.10 230.5012
1291.20 230.4179
1291.30 230.3345
1291.40 230.2511
1291.50 230.1677
1291.60 230.0844
1291.70 230.001
1291.80 229.9176
1291.90 229.8343
1292.00 229.7509
1292.10 229.6675
1292.20 229.5841
1292.30 229.5008
1292.40 229.4174
1292.50 229.334
1292.60 229.2507
1292.70 229.1673
1292.80 229.0839
1292.90 229.0006
1293.00 228.9172
1293.10 228.8338
1293.20 228.7504
1293.30 228.6671
1293.40 228.6107
1293.50 228.5947
1293.60 228.5787
1293.70 228.5627
1293.80 228.5467
1293.90 228.5307
1294.00 228.5147
1294.10 228.4987
1294.20 228.4828
1294.30 228.4668
1294.40 228.4508
1294.50 228.4348
1294.60 228.4188
1294.70 228.4028
1294.80 228.3868
1294.90 228.3708
1295.00 228.3548
1295.10 228.3389
1295.20 228.3229
1295.30 228.3069
1295.40 228.2909
1295.50 228.2749
1295.60 228.2589
1295.70 228.2429
1295.80 228.2269
1295.90 228.2109
1296.00 228.195
1296.10 228.179
1296.20 228.163
1296.30 228.147
1296.40 228.131
1296.50 228.115
1296.60 228.099
1296.70 228.083
1296.80 228.067
1296.90 228.0511
1297.00 228.0351
1297.10 228.0191
1297.20 228.0031
1297.30 227.9871
1297.40 227.9711
1297.50 227.9551
1297.60 227.9391
1297.70 227.9297
1297.80 227.9466
1297.90 227.9635
1298.00 227.9804
1298.10 227.9972
1298.20 228.0141
1298.30 228.031
1298.40 228.0479
1298.50 228.0648
1298.60 228.0816
1298.70 228.0985
1298.80 228.1154
1298.90 228.1323
1299.00 228.1492
1299.10 228.166
1299.20 228.1829
1299.30 228.1998
1299.40 228.2167
1299.50 228.2335
1299.60 228.2504
1299.70 228.2673
1299.80 228.2842
1299.90 228.3011
