# Version 2.1 - nm, norm@500 to 1, cut digits
# Wavelength(nm)  Flambda(ergs/cm^s/s/nm)
300.00 1.401648e-95
300.10 1.401648e-95
300.20 1.401648e-95
300.30 1.401648e-95
300.40 1.401648e-95
300.50 1.401648e-95
300.60 1.401648e-95
300.70 1.401648e-95
300.80 1.401648e-95
300.90 1.401648e-95
301.00 1.401648e-95
301.10 1.401648e-95
301.20 1.401648e-95
301.30 1.401648e-95
301.40 1.401648e-95
301.50 1.401648e-95
301.60 1.401648e-95
301.70 1.401648e-95
301.80 1.401648e-95
301.90 1.401648e-95
302.00 1.401648e-95
302.10 1.401648e-95
302.20 1.401648e-95
302.30 1.401648e-95
302.40 1.401648e-95
302.50 1.401648e-95
302.60 1.401648e-95
302.70 1.401648e-95
302.80 1.401648e-95
302.90 1.401648e-95
303.00 1.401648e-95
303.10 1.401648e-95
303.20 1.401648e-95
303.30 1.401648e-95
303.40 1.401648e-95
303.50 1.401648e-95
303.60 1.401648e-95
303.70 1.401648e-95
303.80 1.401648e-95
303.90 1.401648e-95
304.00 1.401648e-95
304.10 1.401648e-95
304.20 1.401648e-95
304.30 1.401648e-95
304.40 1.401648e-95
304.50 1.401648e-95
304.60 1.401648e-95
304.70 1.401648e-95
304.80 1.401648e-95
304.90 1.401648e-95
305.00 1.401648e-95
305.10 1.401648e-95
305.20 1.401648e-95
305.30 1.401648e-95
305.40 1.401648e-95
305.50 1.401648e-95
305.60 1.401648e-95
305.70 1.401648e-95
305.80 1.401648e-95
305.90 1.401648e-95
306.00 1.401648e-95
306.10 1.401648e-95
306.20 1.401648e-95
306.30 1.401648e-95
306.40 1.401648e-95
306.50 1.401648e-95
306.60 1.401648e-95
306.70 1.401648e-95
306.80 1.401648e-95
306.90 1.401648e-95
307.00 1.401648e-95
307.10 1.401648e-95
307.20 1.401648e-95
307.30 1.401648e-95
307.40 1.401648e-95
307.50 1.401648e-95
307.60 1.401648e-95
307.70 1.401648e-95
307.80 1.401648e-95
307.90 1.401648e-95
308.00 1.401648e-95
308.10 1.401648e-95
308.20 1.401648e-95
308.30 1.401648e-95
308.40 1.401648e-95
308.50 1.401648e-95
308.60 1.401648e-95
308.70 1.401648e-95
308.80 1.401648e-95
308.90 1.401648e-95
309.00 1.401648e-95
309.10 1.401648e-95
309.20 1.401648e-95
309.30 1.401648e-95
309.40 1.401648e-95
309.50 1.401648e-95
309.60 1.401648e-95
309.70 1.401648e-95
309.80 1.401648e-95
309.90 1.401648e-95
310.00 1.401648e-95
310.10 1.401648e-95
310.20 1.401648e-95
310.30 1.401648e-95
310.40 1.401648e-95
310.50 1.401648e-95
310.60 1.401648e-95
310.70 1.401648e-95
310.80 1.401648e-95
310.90 1.401648e-95
311.00 1.401648e-95
311.10 1.401648e-95
311.20 1.401648e-95
311.30 1.401648e-95
311.40 1.401648e-95
311.50 1.401648e-95
311.60 1.401648e-95
311.70 1.401648e-95
311.80 1.401648e-95
311.90 1.401648e-95
312.00 1.401648e-95
312.10 1.401648e-95
312.20 1.401648e-95
312.30 1.401648e-95
312.40 1.401648e-95
312.50 1.401648e-95
312.60 1.401648e-95
312.70 1.401648e-95
312.80 1.401648e-95
312.90 1.401648e-95
313.00 1.401648e-95
313.10 1.401648e-95
313.20 1.401648e-95
313.30 1.401648e-95
313.40 1.401648e-95
313.50 1.401648e-95
313.60 1.401648e-95
313.70 1.401648e-95
313.80 1.401648e-95
313.90 1.401648e-95
314.00 1.401648e-95
314.10 1.401648e-95
314.20 1.401648e-95
314.30 1.401648e-95
314.40 1.401648e-95
314.50 1.401648e-95
314.60 1.401648e-95
314.70 1.401648e-95
314.80 1.401648e-95
314.90 1.401648e-95
315.00 1.401648e-95
315.10 1.401648e-95
315.20 1.401648e-95
315.30 1.401648e-95
315.40 1.401648e-95
315.50 1.401648e-95
315.60 1.401648e-95
315.70 1.401648e-95
315.80 1.401648e-95
315.90 1.401648e-95
316.00 1.401648e-95
316.10 1.401648e-95
316.20 1.401648e-95
316.30 1.401648e-95
316.40 1.401648e-95
316.50 1.401648e-95
316.60 1.401648e-95
316.70 1.401648e-95
316.80 1.401648e-95
316.90 1.401648e-95
317.00 1.401648e-95
317.10 1.401648e-95
317.20 1.401648e-95
317.30 1.401648e-95
317.40 1.401648e-95
317.50 1.401648e-95
317.60 1.401648e-95
317.70 1.401648e-95
317.80 1.401648e-95
317.90 1.401648e-95
318.00 1.401648e-95
318.10 1.401648e-95
318.20 1.401648e-95
318.30 1.401648e-95
318.40 1.401648e-95
318.50 1.401648e-95
318.60 1.401648e-95
318.70 1.401648e-95
318.80 1.401648e-95
318.90 1.401648e-95
319.00 1.401648e-95
319.10 1.401648e-95
319.20 1.401648e-95
319.30 1.401648e-95
319.40 1.401648e-95
319.50 1.401648e-95
319.60 1.401648e-95
319.70 1.401648e-95
319.80 1.401648e-95
319.90 1.401648e-95
320.00 1.401648e-95
320.10 1.401648e-95
320.20 1.401648e-95
320.30 1.401648e-95
320.40 1.401648e-95
320.50 1.401648e-95
320.60 1.401648e-95
320.70 1.401648e-95
320.80 1.401648e-95
320.90 1.401648e-95
321.00 1.401648e-95
321.10 1.401648e-95
321.20 1.401648e-95
321.30 1.401648e-95
321.40 1.401648e-95
321.50 1.401648e-95
321.60 1.401648e-95
321.70 1.401648e-95
321.80 1.401648e-95
321.90 1.401648e-95
322.00 1.401648e-95
322.10 1.401648e-95
322.20 1.401648e-95
322.30 1.401648e-95
322.40 1.401648e-95
322.50 1.401648e-95
322.60 1.401648e-95
322.70 1.401648e-95
322.80 1.401648e-95
322.90 1.401648e-95
323.00 1.401648e-95
323.10 1.401648e-95
323.20 1.401648e-95
323.30 1.401648e-95
323.40 1.401648e-95
323.50 1.401648e-95
323.60 1.401648e-95
323.70 1.401648e-95
323.80 1.401648e-95
323.90 1.401648e-95
324.00 1.401648e-95
324.10 1.401648e-95
324.20 1.401648e-95
324.30 1.401648e-95
324.40 1.401648e-95
324.50 1.401648e-95
324.60 1.401648e-95
324.70 1.401648e-95
324.80 1.401648e-95
324.90 1.401648e-95
325.00 1.401648e-95
325.10 1.401648e-95
325.20 1.401648e-95
325.30 1.401648e-95
325.40 1.401648e-95
325.50 1.401648e-95
325.60 1.401648e-95
325.70 1.401648e-95
325.80 1.401648e-95
325.90 1.401648e-95
326.00 1.401648e-95
326.10 1.401648e-95
326.20 1.401648e-95
326.30 1.401648e-95
326.40 1.401648e-95
326.50 1.401648e-95
326.60 1.401648e-95
326.70 1.401648e-95
326.80 1.401648e-95
326.90 1.401648e-95
327.00 1.401648e-95
327.10 1.401648e-95
327.20 1.401648e-95
327.30 1.401648e-95
327.40 1.401648e-95
327.50 1.401648e-95
327.60 1.401648e-95
327.70 1.401648e-95
327.80 1.401648e-95
327.90 1.401648e-95
328.00 1.401648e-95
328.10 1.401648e-95
328.20 1.401648e-95
328.30 1.401648e-95
328.40 1.401648e-95
328.50 1.401648e-95
328.60 1.401648e-95
328.70 1.401648e-95
328.80 1.401648e-95
328.90 1.401648e-95
329.00 1.401648e-95
329.10 1.401648e-95
329.20 1.401648e-95
329.30 1.401648e-95
329.40 1.401648e-95
329.50 1.401648e-95
329.60 1.401648e-95
329.70 1.401648e-95
329.80 1.401648e-95
329.90 1.401648e-95
330.00 1.401648e-95
330.10 1.401648e-95
330.20 1.401648e-95
330.30 1.401648e-95
330.40 1.401648e-95
330.50 1.401648e-95
330.60 1.401648e-95
330.70 1.401648e-95
330.80 1.401648e-95
330.90 1.401648e-95
331.00 1.401648e-95
331.10 1.401648e-95
331.20 1.401648e-95
331.30 1.401648e-95
331.40 1.401648e-95
331.50 1.401648e-95
331.60 1.401648e-95
331.70 1.401648e-95
331.80 1.401648e-95
331.90 1.401648e-95
332.00 1.401648e-95
332.10 1.401648e-95
332.20 1.401648e-95
332.30 1.401648e-95
332.40 1.401648e-95
332.50 1.401648e-95
332.60 1.401648e-95
332.70 1.401648e-95
332.80 1.401648e-95
332.90 1.401648e-95
333.00 1.401648e-95
333.10 1.401648e-95
333.20 1.401648e-95
333.30 1.401648e-95
333.40 1.401648e-95
333.50 1.401648e-95
333.60 1.401648e-95
333.70 1.401648e-95
333.80 1.401648e-95
333.90 1.401648e-95
334.00 1.401648e-95
334.10 1.401648e-95
334.20 1.401648e-95
334.30 1.401648e-95
334.40 1.401648e-95
334.50 1.401648e-95
334.60 1.401648e-95
334.70 1.401648e-95
334.80 1.401648e-95
334.90 1.401648e-95
335.00 1.401648e-95
335.10 1.401648e-95
335.20 1.401648e-95
335.30 1.401648e-95
335.40 1.401648e-95
335.50 1.401648e-95
335.60 1.401648e-95
335.70 1.401648e-95
335.80 1.401648e-95
335.90 1.401648e-95
336.00 1.401648e-95
336.10 1.401648e-95
336.20 1.401648e-95
336.30 1.401648e-95
336.40 1.401648e-95
336.50 1.401648e-95
336.60 1.401648e-95
336.70 1.401648e-95
336.80 1.401648e-95
336.90 1.401648e-95
337.00 1.401648e-95
337.10 1.401648e-95
337.20 1.401648e-95
337.30 1.401648e-95
337.40 1.401648e-95
337.50 1.401648e-95
337.60 1.401648e-95
337.70 1.401648e-95
337.80 1.401648e-95
337.90 1.401648e-95
338.00 1.401648e-95
338.10 1.401648e-95
338.20 1.401648e-95
338.30 1.401648e-95
338.40 1.401648e-95
338.50 1.401648e-95
338.60 1.401648e-95
338.70 1.401648e-95
338.80 1.401648e-95
338.90 1.401648e-95
339.00 1.401648e-95
339.10 1.401648e-95
339.20 1.401648e-95
339.30 1.401648e-95
339.40 1.401648e-95
339.50 1.401648e-95
339.60 1.401648e-95
339.70 1.401648e-95
339.80 1.401648e-95
339.90 1.401648e-95
340.00 1.401648e-95
340.10 1.401648e-95
340.20 1.401648e-95
340.30 1.401648e-95
340.40 1.401648e-95
340.50 1.401648e-95
340.60 1.401648e-95
340.70 1.401648e-95
340.80 1.401648e-95
340.90 1.401648e-95
341.00 1.401648e-95
341.10 1.401648e-95
341.20 1.401648e-95
341.30 1.401648e-95
341.40 1.401648e-95
341.50 1.401648e-95
341.60 1.401648e-95
341.70 1.401648e-95
341.80 1.401648e-95
341.90 1.401648e-95
342.00 1.401648e-95
342.10 1.401648e-95
342.20 1.401648e-95
342.30 1.401648e-95
342.40 1.401648e-95
342.50 1.401648e-95
342.60 1.401648e-95
342.70 1.401648e-95
342.80 1.401648e-95
342.90 1.401648e-95
343.00 1.401648e-95
343.10 1.401648e-95
343.20 1.401648e-95
343.30 1.401648e-95
343.40 1.401648e-95
343.50 1.401648e-95
343.60 1.401648e-95
343.70 1.401648e-95
343.80 1.401648e-95
343.90 1.401648e-95
344.00 1.401648e-95
344.10 1.401648e-95
344.20 1.401648e-95
344.30 1.401648e-95
344.40 1.401648e-95
344.50 1.401648e-95
344.60 1.401648e-95
344.70 1.401648e-95
344.80 1.401648e-95
344.90 1.401648e-95
345.00 1.401648e-95
345.10 1.401648e-95
345.20 1.401648e-95
345.30 1.401648e-95
345.40 1.401648e-95
345.50 1.401648e-95
345.60 1.401648e-95
345.70 1.401648e-95
345.80 1.401648e-95
345.90 1.401648e-95
346.00 1.401648e-95
346.10 1.401648e-95
346.20 1.401648e-95
346.30 1.401648e-95
346.40 1.401648e-95
346.50 1.401648e-95
346.60 1.401648e-95
346.70 1.401648e-95
346.80 1.401648e-95
346.90 1.401648e-95
347.00 1.401648e-95
347.10 1.401648e-95
347.20 1.401648e-95
347.30 1.401648e-95
347.40 1.401648e-95
347.50 1.401648e-95
347.60 1.401648e-95
347.70 1.401648e-95
347.80 1.401648e-95
347.90 1.401648e-95
348.00 1.401648e-95
348.10 1.401648e-95
348.20 1.401648e-95
348.30 1.401648e-95
348.40 1.401648e-95
348.50 1.401648e-95
348.60 1.401648e-95
348.70 1.401648e-95
348.80 1.401648e-95
348.90 1.401648e-95
349.00 1.401648e-95
349.10 1.401648e-95
349.20 1.401648e-95
349.30 1.401648e-95
349.40 1.401648e-95
349.50 1.401648e-95
349.60 1.401648e-95
349.70 1.401648e-95
349.80 1.401648e-95
349.90 1.401648e-95
350.00 1.401648e-95
350.10 1.401648e-95
350.20 1.401648e-95
350.30 1.401648e-95
350.40 1.401648e-95
350.50 1.401648e-95
350.60 1.401648e-95
350.70 1.401648e-95
350.80 1.401648e-95
350.90 1.401648e-95
351.00 1.401648e-95
351.10 1.401648e-95
351.20 1.401648e-95
351.30 1.401648e-95
351.40 1.401648e-95
351.50 1.401648e-95
351.60 1.401648e-95
351.70 1.401648e-95
351.80 1.401648e-95
351.90 1.401648e-95
352.00 1.401648e-95
352.10 1.401648e-95
352.20 1.401648e-95
352.30 1.401648e-95
352.40 1.401648e-95
352.50 1.401648e-95
352.60 1.401648e-95
352.70 1.401648e-95
352.80 1.401648e-95
352.90 1.401648e-95
353.00 1.401648e-95
353.10 1.401648e-95
353.20 1.401648e-95
353.30 1.401648e-95
353.40 1.401648e-95
353.50 1.401648e-95
353.60 1.401648e-95
353.70 1.401648e-95
353.80 1.401648e-95
353.90 1.401648e-95
354.00 1.401648e-95
354.10 1.401648e-95
354.20 1.401648e-95
354.30 1.401648e-95
354.40 1.401648e-95
354.50 1.401648e-95
354.60 1.401648e-95
354.70 1.401648e-95
354.80 1.401648e-95
354.90 1.401648e-95
355.00 1.401648e-95
355.10 1.401648e-95
355.20 1.401648e-95
355.30 1.401648e-95
355.40 1.401648e-95
355.50 1.401648e-95
355.60 1.401648e-95
355.70 1.401648e-95
355.80 1.401648e-95
355.90 1.401648e-95
356.00 1.401648e-95
356.10 1.401648e-95
356.20 1.401648e-95
356.30 1.401648e-95
356.40 1.401648e-95
356.50 1.401648e-95
356.60 1.401648e-95
356.70 1.401648e-95
356.80 1.401648e-95
356.90 1.401648e-95
357.00 1.401648e-95
357.10 1.401648e-95
357.20 1.401648e-95
357.30 1.401648e-95
357.40 1.401648e-95
357.50 1.401648e-95
357.60 1.401648e-95
357.70 1.401648e-95
357.80 1.401648e-95
357.90 1.401648e-95
358.00 1.401648e-95
358.10 1.401648e-95
358.20 1.401648e-95
358.30 1.401648e-95
358.40 1.401648e-95
358.50 1.401648e-95
358.60 1.401648e-95
358.70 1.401648e-95
358.80 1.401648e-95
358.90 1.401648e-95
359.00 1.401648e-95
359.10 1.401648e-95
359.20 1.401648e-95
359.30 1.401648e-95
359.40 1.401648e-95
359.50 1.401648e-95
359.60 1.401648e-95
359.70 1.401648e-95
359.80 1.401648e-95
359.90 1.401648e-95
360.00 1.401648e-95
360.10 1.401648e-95
360.20 1.401648e-95
360.30 1.401648e-95
360.40 1.401648e-95
360.50 1.401648e-95
360.60 1.401648e-95
360.70 1.401648e-95
360.80 1.401648e-95
360.90 1.401648e-95
361.00 1.401648e-95
361.10 1.401648e-95
361.20 1.401648e-95
361.30 1.401648e-95
361.40 1.401648e-95
361.50 1.401648e-95
361.60 1.401648e-95
361.70 1.401648e-95
361.80 1.401648e-95
361.90 1.401648e-95
362.00 1.401648e-95
362.10 1.401648e-95
362.20 1.401648e-95
362.30 1.401648e-95
362.40 1.401648e-95
362.50 1.401648e-95
362.60 1.401648e-95
362.70 1.401648e-95
362.80 1.401648e-95
362.90 1.401648e-95
363.00 1.401648e-95
363.10 1.401648e-95
363.20 1.401648e-95
363.30 1.401648e-95
363.40 1.401648e-95
363.50 1.401648e-95
363.60 1.401648e-95
363.70 1.401648e-95
363.80 1.401648e-95
363.90 1.401648e-95
364.00 1.401648e-95
364.10 1.401648e-95
364.20 1.401648e-95
364.30 1.401648e-95
364.40 1.401648e-95
364.50 1.401648e-95
364.60 1.401648e-95
364.70 1.401648e-95
364.80 1.401648e-95
364.90 1.401648e-95
365.00 1.401648e-95
365.10 1.401648e-95
365.20 1.401648e-95
365.30 1.401648e-95
365.40 1.401648e-95
365.50 1.401648e-95
365.60 1.401648e-95
365.70 1.401648e-95
365.80 1.401648e-95
365.90 1.401648e-95
366.00 1.401648e-95
366.10 1.401648e-95
366.20 1.401648e-95
366.30 1.401648e-95
366.40 1.401648e-95
366.50 1.401648e-95
366.60 1.401648e-95
366.70 1.401648e-95
366.80 1.401648e-95
366.90 1.401648e-95
367.00 1.401648e-95
367.10 1.401648e-95
367.20 1.401648e-95
367.30 1.401648e-95
367.40 1.401648e-95
367.50 1.401648e-95
367.60 1.401648e-95
367.70 1.401648e-95
367.80 1.401648e-95
367.90 1.401648e-95
368.00 1.401648e-95
368.10 1.401648e-95
368.20 1.401648e-95
368.30 1.401648e-95
368.40 1.401648e-95
368.50 1.401648e-95
368.60 1.401648e-95
368.70 1.401648e-95
368.80 1.401648e-95
368.90 1.401648e-95
369.00 1.401648e-95
369.10 1.401648e-95
369.20 1.401648e-95
369.30 1.401648e-95
369.40 1.401648e-95
369.50 1.401648e-95
369.60 1.401648e-95
369.70 1.401648e-95
369.80 1.401648e-95
369.90 1.401648e-95
370.00 1.401648e-95
370.10 1.401648e-95
370.20 1.401648e-95
370.30 1.401648e-95
370.40 1.401648e-95
370.50 1.401648e-95
370.60 1.401648e-95
370.70 1.401648e-95
370.80 1.401648e-95
370.90 1.401648e-95
371.00 1.401648e-95
371.10 1.401648e-95
371.20 1.401648e-95
371.30 1.401648e-95
371.40 1.401648e-95
371.50 1.401648e-95
371.60 1.401648e-95
371.70 1.401648e-95
371.80 1.401648e-95
371.90 1.401648e-95
372.00 1.401648e-95
372.10 1.401648e-95
372.20 1.401648e-95
372.30 1.401648e-95
372.40 1.401648e-95
372.50 1.401648e-95
372.60 1.401648e-95
372.70 1.401648e-95
372.80 1.401648e-95
372.90 1.401648e-95
373.00 1.401648e-95
373.10 1.401648e-95
373.20 1.401648e-95
373.30 1.401648e-95
373.40 1.401648e-95
373.50 1.401648e-95
373.60 1.401648e-95
373.70 1.401648e-95
373.80 1.401648e-95
373.90 1.401648e-95
374.00 1.401648e-95
374.10 1.401648e-95
374.20 1.401648e-95
374.30 1.401648e-95
374.40 1.401648e-95
374.50 1.401648e-95
374.60 1.401648e-95
374.70 1.401648e-95
374.80 1.401648e-95
374.90 1.401648e-95
375.00 1.401648e-95
375.10 1.401648e-95
375.20 1.401648e-95
375.30 1.401648e-95
375.40 1.401648e-95
375.50 1.401648e-95
375.60 1.401648e-95
375.70 1.401648e-95
375.80 1.401648e-95
375.90 1.401648e-95
376.00 1.401648e-95
376.10 1.401648e-95
376.20 1.401648e-95
376.30 1.401648e-95
376.40 1.401648e-95
376.50 1.401648e-95
376.60 1.401648e-95
376.70 1.401648e-95
376.80 1.401648e-95
376.90 1.401648e-95
377.00 1.401648e-95
377.10 1.401648e-95
377.20 1.401648e-95
377.30 1.401648e-95
377.40 1.401648e-95
377.50 1.401648e-95
377.60 1.401648e-95
377.70 1.401648e-95
377.80 1.401648e-95
377.90 1.401648e-95
378.00 1.401648e-95
378.10 1.401648e-95
378.20 1.401648e-95
378.30 1.401648e-95
378.40 1.401648e-95
378.50 1.401648e-95
378.60 1.401648e-95
378.70 1.401648e-95
378.80 1.401648e-95
378.90 1.401648e-95
379.00 1.401648e-95
379.10 1.401648e-95
379.20 1.401648e-95
379.30 1.401648e-95
379.40 1.401648e-95
379.50 1.401648e-95
379.60 1.401648e-95
379.70 1.401648e-95
379.80 1.401648e-95
379.90 1.401648e-95
380.00 1.401648e-95
380.10 1.401648e-95
380.20 1.401648e-95
380.30 1.401648e-95
380.40 1.401648e-95
380.50 1.401648e-95
380.60 1.401648e-95
380.70 1.401648e-95
380.80 1.401648e-95
380.90 1.401648e-95
381.00 1.401648e-95
381.10 1.401648e-95
381.20 1.401648e-95
381.30 1.401648e-95
381.40 1.401648e-95
381.50 1.401648e-95
381.60 1.401648e-95
381.70 1.401648e-95
381.80 1.401648e-95
381.90 1.401648e-95
382.00 1.401648e-95
382.10 1.401648e-95
382.20 1.401648e-95
382.30 1.401648e-95
382.40 1.401648e-95
382.50 1.401648e-95
382.60 1.401648e-95
382.70 1.401648e-95
382.80 1.401648e-95
382.90 1.401648e-95
383.00 1.401648e-95
383.10 1.401648e-95
383.20 1.401648e-95
383.30 1.401648e-95
383.40 1.401648e-95
383.50 1.401648e-95
383.60 1.401648e-95
383.70 1.401648e-95
383.80 1.401648e-95
383.90 1.401648e-95
384.00 1.401648e-95
384.10 1.401648e-95
384.20 1.401648e-95
384.30 1.401648e-95
384.40 1.401648e-95
384.50 1.401648e-95
384.60 1.401648e-95
384.70 1.401648e-95
384.80 1.401648e-95
384.90 1.401648e-95
385.00 1.401648e-95
385.10 1.401648e-95
385.20 1.401648e-95
385.30 1.401648e-95
385.40 1.401648e-95
385.50 1.401648e-95
385.60 1.401648e-95
385.70 1.401648e-95
385.80 1.401648e-95
385.90 1.401648e-95
386.00 1.401648e-95
386.10 1.401648e-95
386.20 1.401648e-95
386.30 1.401648e-95
386.40 1.401648e-95
386.50 1.401648e-95
386.60 1.401648e-95
386.70 1.401648e-95
386.80 1.401648e-95
386.90 1.401648e-95
387.00 1.401648e-95
387.10 1.401648e-95
387.20 1.401648e-95
387.30 1.401648e-95
387.40 1.401648e-95
387.50 1.401648e-95
387.60 1.401648e-95
387.70 1.401648e-95
387.80 1.401648e-95
387.90 1.401648e-95
388.00 1.401648e-95
388.10 1.401648e-95
388.20 1.401648e-95
388.30 1.401648e-95
388.40 1.401648e-95
388.50 1.401648e-95
388.60 1.401648e-95
388.70 1.401648e-95
388.80 1.401648e-95
388.90 1.401648e-95
389.00 1.401648e-95
389.10 1.401648e-95
389.20 1.401648e-95
389.30 1.401648e-95
389.40 1.401648e-95
389.50 1.401648e-95
389.60 1.401648e-95
389.70 1.401648e-95
389.80 1.401648e-95
389.90 1.401648e-95
390.00 1.401648e-95
390.10 1.401648e-95
390.20 1.401648e-95
390.30 1.401648e-95
390.40 1.401648e-95
390.50 1.401648e-95
390.60 1.401648e-95
390.70 1.401648e-95
390.80 1.401648e-95
390.90 1.401648e-95
391.00 1.401648e-95
391.10 1.401648e-95
391.20 1.401648e-95
391.30 1.401648e-95
391.40 1.401648e-95
391.50 1.401648e-95
391.60 1.401648e-95
391.70 1.401648e-95
391.80 1.401648e-95
391.90 1.401648e-95
392.00 1.401648e-95
392.10 1.401648e-95
392.20 1.401648e-95
392.30 1.401648e-95
392.40 1.401648e-95
392.50 1.401648e-95
392.60 1.401648e-95
392.70 1.401648e-95
392.80 1.401648e-95
392.90 1.401648e-95
393.00 1.401648e-95
393.10 1.401648e-95
393.20 1.401648e-95
393.30 1.401648e-95
393.40 1.401648e-95
393.50 1.401648e-95
393.60 1.401648e-95
393.70 1.401648e-95
393.80 1.401648e-95
393.90 1.401648e-95
394.00 1.401648e-95
394.10 1.401648e-95
394.20 1.401648e-95
394.30 1.401648e-95
394.40 1.401648e-95
394.50 1.401648e-95
394.60 1.401648e-95
394.70 1.401648e-95
394.80 1.401648e-95
394.90 1.401648e-95
395.00 0.01549952
395.10 0.03206944
395.20 0.04915325
395.30 0.06592506
395.40 0.08105109
395.50 0.09303676
395.60 0.101007
395.70 0.1048519
395.80 0.1051876
395.90 0.1051876
396.00 0.1051876
396.10 0.1051876
396.20 0.1084676
396.30 0.1156953
396.40 0.1263401
396.50 0.1388441
396.60 0.1513489
396.70 0.1622732
396.80 0.1705837
396.90 0.1759595
397.00 0.1786357
397.10 0.1792525
397.20 0.1792525
397.30 0.1792525
397.40 0.1793617
397.50 0.1808247
397.60 0.1840538
397.70 0.1887669
397.80 0.1943623
397.90 0.2002531
398.00 0.2059825
398.10 0.2114836
398.20 0.2170068
398.30 0.2228672
398.40 0.2292836
398.50 0.2364232
398.60 0.2439947
398.70 0.2514356
398.80 0.2584562
398.90 0.2649287
399.00 0.2706829
399.10 0.2757484
399.20 0.280507
399.30 0.2854525
399.40 0.2906628
399.50 0.2956678
399.60 0.3001006
399.70 0.3039467
399.80 0.3072193
399.90 0.3096311
400.00 0.3109857
400.10 0.3111331
400.20 0.3111331
400.30 0.3111331
400.40 0.3111331
400.50 0.3111331
400.60 0.3111331
400.70 0.3111331
400.80 0.3129584
400.90 0.3178727
401.00 0.3256605
401.10 0.3354821
401.20 0.3462122
401.30 0.3571213
401.40 0.3680446
401.50 0.3790575
401.60 0.3899755
401.70 0.3998948
401.80 0.4076774
401.90 0.4125998
402.00 0.4146076
402.10 0.4146076
402.20 0.4146076
402.30 0.4146076
402.40 0.4146076
402.50 0.4146076
402.60 0.415201
402.70 0.4171105
402.80 0.4200798
402.90 0.4238312
403.00 0.4280828
403.10 0.4325259
403.20 0.4367585
403.30 0.4403381
403.40 0.4429351
403.50 0.444374
403.60 0.4444784
403.70 0.4444784
403.80 0.4444784
403.90 0.4444784
404.00 0.4448705
404.10 0.447205
404.20 0.4513131
404.30 0.4566757
404.40 0.4628708
404.50 0.4699708
404.60 0.4784701
404.70 0.4888552
404.80 0.50116
404.90 0.5149234
405.00 0.5140812
405.10 0.5127491
405.20 0.5114853
405.30 0.511216
405.40 0.5133438
405.50 0.5197085
405.60 0.5318305
405.70 0.5499292
405.80 0.5726864
405.90 0.5959037
406.00 0.6182734
406.10 0.6389404
406.20 0.6540949
406.30 0.6632182
406.40 0.6674641
406.50 0.6689991
406.60 0.6697907
406.70 0.6711984
406.80 0.6742938
406.90 0.6795477
407.00 0.6866517
407.10 0.6949135
407.20 0.7030008
407.30 0.710395
407.40 0.7167414
407.50 0.7203103
407.60 0.7205451
407.70 0.7179915
407.80 0.7137372
407.90 0.7090075
408.00 0.7053199
408.10 0.70412
408.20 0.7060516
408.30 0.710758
408.40 0.7174694
408.50 0.7251384
408.60 0.7326529
408.70 0.7389778
408.80 0.7432862
408.90 0.7454663
409.00 0.7460352
409.10 0.7455709
409.20 0.7446004
409.30 0.7437337
409.40 0.7437943
409.50 0.7456109
409.60 0.749426
409.70 0.754897
409.80 0.7613649
409.90 0.7685309
410.00 0.7764978
410.10 0.7855123
410.20 0.7945054
410.30 0.8033666
410.40 0.8124995
410.50 0.8226698
410.60 0.8344783
410.70 0.8481203
410.80 0.8617526
410.90 0.8741222
411.00 0.8854273
411.10 0.896009
411.20 0.9059833
411.30 0.9151623
411.40 0.9228709
411.50 0.928173
411.60 0.9308087
411.70 0.9316133
411.80 0.9318267
411.90 0.9325347
412.00 0.9345901
412.10 0.9380513
412.20 0.9417224
412.30 0.9462332
412.40 0.9520515
412.50 0.9594787
412.60 0.9676911
412.70 0.9749481
412.80 0.9802462
412.90 0.9829785
413.00 0.9831599
413.10 0.9814976
413.20 0.9794846
413.30 0.9789902
413.40 0.9815336
413.50 0.9880867
413.60 0.998962
413.70 1.012189
413.80 1.026165
413.90 1.039124
414.00 1.049446
414.10 1.055107
414.20 1.056541
414.30 1.055105
414.40 1.052282
414.50 1.049259
414.60 1.046421
414.70 1.043622
414.80 1.04089
414.90 1.038469
415.00 1.036532
415.10 1.034835
415.20 1.032785
415.30 1.029717
415.40 1.025095
415.50 1.018177
415.60 1.007918
415.70 0.994147
415.80 0.9778452
415.90 0.9603095
416.00 0.9429814
416.10 0.9273459
416.20 0.9145348
416.30 0.904882
416.40 0.8980851
416.50 0.8937019
416.60 0.8914924
416.70 0.8913663
416.80 0.8926324
416.90 0.8942585
417.00 0.8958143
417.10 0.8970804
417.20 0.8977897
417.30 0.8978836
417.40 0.8978251
417.50 0.8986143
417.60 0.9010838
417.70 0.9054927
417.80 0.9114804
417.90 0.9181789
418.00 0.9242416
418.10 0.927884
418.20 0.9277849
418.30 0.9235813
418.40 0.9153025
418.50 0.9035012
418.60 0.8894855
418.70 0.8757197
418.80 0.8643908
418.90 0.8557381
419.00 0.849415
419.10 0.8448139
419.20 0.8410257
419.30 0.8369469
419.40 0.8323336
419.50 0.8266054
419.60 0.8196068
419.70 0.8115207
419.80 0.8031647
419.90 0.7956402
420.00 0.7898773
420.10 0.7868507
420.20 0.7872876
420.30 0.7909171
420.40 0.7963523
420.50 0.8014651
420.60 0.8041613
420.70 0.8031902
420.80 0.7981606
420.90 0.7889444
421.00 0.7755513
421.10 0.7587329
421.20 0.739963
421.30 0.7207175
421.40 0.7025167
421.50 0.6867414
421.60 0.6740552
421.70 0.6647811
421.80 0.6590988
421.90 0.6566728
422.00 0.6564692
422.10 0.6571247
422.20 0.6574401
422.30 0.656854
422.40 0.6556394
422.50 0.654426
422.60 0.654179
422.70 0.6565247
422.80 0.663081
422.90 0.674497
423.00 0.6902237
423.10 0.7086751
423.20 0.727392
423.30 0.743739
423.40 0.7555604
423.50 0.7612647
423.60 0.7601537
423.70 0.752648
423.80 0.7403574
423.90 0.7273976
424.00 0.7166837
424.10 0.7086885
424.20 0.7033812
424.30 0.7033694
424.40 0.7079012
424.50 0.7153077
424.60 0.7239258
424.70 0.7324251
424.80 0.7397598
424.90 0.7451591
425.00 0.7479313
425.10 0.7476235
425.20 0.7440783
425.30 0.7376869
425.40 0.7291254
425.50 0.7190519
425.60 0.7092189
425.70 0.7010463
425.80 0.6942551
425.90 0.6885736
426.00 0.6835319
426.10 0.6791627
426.20 0.6751228
426.30 0.6705956
426.40 0.6651289
426.50 0.6587258
426.60 0.6516923
426.70 0.644218
426.80 0.6366913
426.90 0.6297028
427.00 0.6235504
427.10 0.6183744
427.20 0.614168
427.30 0.6110528
427.40 0.6091694
427.50 0.6079829
427.60 0.606539
427.70 0.6042635
427.80 0.6011431
427.90 0.5974441
428.00 0.5936546
428.10 0.5906048
428.20 0.5889081
428.30 0.5888121
428.40 0.5904313
428.50 0.5934997
428.60 0.5977249
428.70 0.6022228
428.80 0.606255
428.90 0.6103257
429.00 0.6147757
429.10 0.6197111
429.20 0.6250936
429.30 0.6309066
429.40 0.6363881
429.50 0.6413555
429.60 0.6458119
429.70 0.649972
429.80 0.6538848
429.90 0.6573488
430.00 0.6597868
430.10 0.6602609
430.20 0.6580256
430.30 0.6533496
430.40 0.6476963
430.50 0.6431188
430.60 0.6414857
430.70 0.6436717
430.80 0.6494721
430.90 0.6582125
431.00 0.6687614
431.10 0.6797515
431.20 0.6899324
431.30 0.6982977
431.40 0.7041818
431.50 0.7075896
431.60 0.70923
431.70 0.7100022
431.80 0.7103611
431.90 0.7103931
432.00 0.7101725
432.10 0.7097452
432.20 0.7092932
432.30 0.7088258
432.40 0.7079035
432.50 0.705813
432.60 0.7017818
432.70 0.6951078
432.80 0.6852593
432.90 0.6720911
433.00 0.6558506
433.10 0.6372839
433.20 0.6178663
433.30 0.5992284
433.40 0.5828003
433.50 0.5698132
433.60 0.5609904
433.70 0.5565492
433.80 0.556182
433.90 0.557277
434.00 0.5579635
434.10 0.5582399
434.20 0.5581021
434.30 0.5547061
434.40 0.5486211
434.50 0.5410023
434.60 0.5330128
434.70 0.5257243
434.80 0.5198209
434.90 0.5154857
435.00 0.512395
435.10 0.5098791
435.20 0.5074426
435.30 0.5049609
435.40 0.5029038
435.50 0.5023568
435.60 0.5034692
435.70 0.505824
435.80 0.5097783
435.90 0.5154154
436.00 0.5225858
436.10 0.5302353
436.20 0.5374848
436.30 0.5440514
436.40 0.5498747
436.50 0.5549133
436.60 0.5589443
436.70 0.5616953
436.80 0.5629314
436.90 0.5625749
437.00 0.5606984
437.10 0.5578914
437.20 0.5552013
437.30 0.553148
437.40 0.5518366
437.50 0.5516387
437.60 0.5530537
437.70 0.5562455
437.80 0.560888
437.90 0.5665426
438.00 0.5727479
438.10 0.5791319
438.20 0.5856962
438.30 0.5925772
438.40 0.6001718
438.50 0.6091454
438.60 0.6199548
438.70 0.6327777
438.80 0.6473015
438.90 0.6626423
439.00 0.6777621
439.10 0.6918384
439.20 0.704356
439.30 0.7147711
439.40 0.7226497
439.50 0.7279996
439.60 0.7309233
439.70 0.7317001
439.80 0.7307622
439.90 0.7284084
440.00 0.7248312
440.10 0.7202879
440.20 0.7151571
440.30 0.7098013
440.40 0.7044753
440.50 0.6992435
440.60 0.6939479
440.70 0.6885425
440.80 0.6830297
440.90 0.6773831
441.00 0.672022
441.10 0.6672606
441.20 0.6631376
441.30 0.6597008
441.40 0.657039
441.50 0.6551863
441.60 0.6538249
441.70 0.652203
441.80 0.6495304
441.90 0.646294
442.00 0.6426551
442.10 0.6389656
442.20 0.6354312
442.30 0.6319738
442.40 0.6282925
442.50 0.6244196
442.60 0.6205675
442.70 0.6171651
442.80 0.6146974
442.90 0.6133934
443.00 0.6134184
443.10 0.6148296
443.20 0.6172567
443.30 0.619962
443.40 0.6222601
443.50 0.623803
443.60 0.6248427
443.70 0.6262926
443.80 0.6294904
443.90 0.6358477
444.00 0.646167
444.10 0.6601797
444.20 0.6765287
444.30 0.6930211
444.40 0.7071898
444.50 0.7170505
444.60 0.7214588
444.70 0.7200491
444.80 0.7133303
444.90 0.7027763
445.00 0.690791
445.10 0.6802026
445.20 0.6731578
445.30 0.6703662
445.40 0.6710505
445.50 0.673486
445.60 0.6760108
445.70 0.6778014
445.80 0.6787816
445.90 0.679177
446.00 0.6793743
446.10 0.6799119
446.20 0.6814031
446.30 0.6840515
446.40 0.6870147
446.50 0.6886868
446.60 0.6876671
446.70 0.6835884
446.80 0.677437
446.90 0.6725261
447.00 0.669219
447.10 0.6670573
447.20 0.6678754
447.30 0.6718324
447.40 0.678603
447.50 0.6873476
447.60 0.6966643
447.70 0.7050754
447.80 0.7116571
447.90 0.7160423
448.00 0.7182122
448.10 0.7181093
448.20 0.715632
448.30 0.7112257
448.40 0.7055949
448.50 0.6991229
448.60 0.6919854
448.70 0.6840741
448.80 0.6750147
448.90 0.6646741
449.00 0.653266
449.10 0.6411524
449.20 0.6289877
449.30 0.6178322
449.40 0.6088179
449.50 0.6028096
449.60 0.6000774
449.70 0.600042
449.80 0.6018186
449.90 0.6050395
450.00 0.6099248
450.10 0.6167269
450.20 0.6253875
450.30 0.6353479
450.40 0.6453955
450.50 0.653994
450.60 0.6599441
450.70 0.6627857
450.80 0.663069
450.90 0.6621496
451.00 0.6617462
451.10 0.6638361
451.20 0.6701492
451.30 0.6813601
451.40 0.6967724
451.50 0.7148093
451.60 0.7338547
451.70 0.7528347
451.80 0.7715381
451.90 0.789327
452.00 0.8061705
452.10 0.821959
452.20 0.8366044
452.30 0.8503767
452.40 0.8639071
452.50 0.877614
452.60 0.8917377
452.70 0.9061608
452.80 0.9206457
452.90 0.9350175
453.00 0.9490524
453.10 0.9622744
453.20 0.9739388
453.30 0.9837585
453.40 0.9919967
453.50 0.9989512
453.60 1.004739
453.70 1.009107
453.80 1.011456
453.90 1.011204
454.00 1.00817
454.10 1.002788
454.20 0.9962061
454.30 0.9901781
454.40 0.986441
454.50 0.9861866
454.60 0.9899361
454.70 0.9973443
454.80 1.007373
454.90 1.018788
455.00 1.030589
455.10 1.042095
455.20 1.052947
455.30 1.063109
455.40 1.073064
455.50 1.083304
455.60 1.093519
455.70 1.102722
455.80 1.109637
455.90 1.113212
456.00 1.112879
456.10 1.108611
456.20 1.101103
456.30 1.091851
456.40 1.082975
456.50 1.076831
456.60 1.075503
456.70 1.080005
456.80 1.089561
456.90 1.100537
457.00 1.111575
457.10 1.121361
457.20 1.126431
457.30 1.125853
457.40 1.119895
457.50 1.10991
457.60 1.098043
457.70 1.086503
457.80 1.07709
457.90 1.070784
458.00 1.067548
458.10 1.066817
458.20 1.067675
458.30 1.068936
458.40 1.069854
458.50 1.070431
458.60 1.070666
458.70 1.07047
458.80 1.070116
458.90 1.070216
459.00 1.071693
459.10 1.075433
459.20 1.081505
459.30 1.089165
459.40 1.09739
459.50 1.105196
459.60 1.112128
459.70 1.118309
459.80 1.123933
459.90 1.128806
460.00 1.132516
460.10 1.134836
460.20 1.135887
460.30 1.136012
460.40 1.135379
460.50 1.134118
460.60 1.132879
460.70 1.132531
460.80 1.133589
460.90 1.136113
461.00 1.139454
461.10 1.142435
461.20 1.144067
461.30 1.144171
461.40 1.143346
461.50 1.142413
461.60 1.142048
461.70 1.142464
461.80 1.143443
461.90 1.144685
462.00 1.145751
462.10 1.146289
462.20 1.146075
462.30 1.144709
462.40 1.142063
462.50 1.138436
462.60 1.134148
462.70 1.129366
462.80 1.124267
462.90 1.119294
463.00 1.115063
463.10 1.112585
463.20 1.113133
463.30 1.117203
463.40 1.124272
463.50 1.133226
463.60 1.142628
463.70 1.151001
463.80 1.157042
463.90 1.159885
464.00 1.159433
464.10 1.156297
464.20 1.15138
464.30 1.145461
464.40 1.139033
464.50 1.132361
464.60 1.1256
464.70 1.119174
464.80 1.113576
464.90 1.108882
465.00 1.104697
465.10 1.100329
465.20 1.095117
465.30 1.088625
465.40 1.080552
465.50 1.071129
465.60 1.061366
465.70 1.052768
465.80 1.046939
465.90 1.044685
466.00 1.045772
466.10 1.049216
466.20 1.053346
466.30 1.056343
466.40 1.057084
466.50 1.055474
466.60 1.051987
466.70 1.047406
466.80 1.04294
466.90 1.04002
467.00 1.039873
467.10 1.043086
467.20 1.049334
467.30 1.05784
467.40 1.067632
467.50 1.077632
467.60 1.087061
467.70 1.095315
467.80 1.1017
467.90 1.105679
468.00 1.10718
468.10 1.106579
468.20 1.104628
468.30 1.101898
468.40 1.098414
468.50 1.09418
468.60 1.089612
468.70 1.08544
468.80 1.082494
468.90 1.081346
469.00 1.08213
469.10 1.08468
469.20 1.08876
469.30 1.094077
469.40 1.100115
469.50 1.106376
469.60 1.112473
469.70 1.118111
469.80 1.12311
469.90 1.127301
470.00 1.130474
470.10 1.132375
470.20 1.132753
470.30 1.13167
470.40 1.12982
470.50 1.128476
470.60 1.128576
470.70 1.130386
470.80 1.133818
470.90 1.138209
471.00 1.14238
471.10 1.145057
471.20 1.145155
471.30 1.14194
471.40 1.135296
471.50 1.125805
471.60 1.114491
471.70 1.102505
471.80 1.09066
471.90 1.079303
472.00 1.068822
472.10 1.059614
472.20 1.052053
472.30 1.046541
472.40 1.043052
472.50 1.041209
472.60 1.040639
472.70 1.040936
472.80 1.041473
472.90 1.04155
473.00 1.040508
473.10 1.037698
473.20 1.032753
473.30 1.026044
473.40 1.018641
473.50 1.011856
473.60 1.006956
473.70 1.004904
473.80 1.006272
473.90 1.010988
474.00 1.018173
474.10 1.026578
474.20 1.03492
474.30 1.041927
474.40 1.04675
474.50 1.04915
474.60 1.049509
474.70 1.048644
474.80 1.047672
474.90 1.048024
475.00 1.050816
475.10 1.056493
475.20 1.064712
475.30 1.074408
475.40 1.084114
475.50 1.09215
475.60 1.096905
475.70 1.097268
475.80 1.092994
475.90 1.085641
476.00 1.077519
476.10 1.069494
476.20 1.062547
476.30 1.057698
476.40 1.055975
476.50 1.05647
476.60 1.057945
476.70 1.059334
476.80 1.059807
476.90 1.058783
477.00 1.056202
477.10 1.052677
477.20 1.048931
477.30 1.045394
477.40 1.042148
477.50 1.038909
477.60 1.035171
477.70 1.03062
477.80 1.025419
477.90 1.020407
478.00 1.016657
478.10 1.014903
478.20 1.015424
478.30 1.018241
478.40 1.023073
478.50 1.029082
478.60 1.035191
478.70 1.040372
478.80 1.043802
478.90 1.044989
479.00 1.043559
479.10 1.039249
479.20 1.032229
479.30 1.023002
479.40 1.012249
479.50 1.000792
479.60 0.9894337
479.70 0.9786759
479.80 0.9687419
479.90 0.9598768
480.00 0.9523161
480.10 0.9463099
480.20 0.9423678
480.30 0.9410904
480.40 0.9426809
480.50 0.9468201
480.60 0.9528665
480.70 0.959853
480.80 0.9664896
480.90 0.971488
481.00 0.9740169
481.10 0.9740635
481.20 0.9722205
481.30 0.9693331
481.40 0.966189
481.50 0.9633929
481.60 0.9611964
481.70 0.9596541
481.80 0.9590814
481.90 0.959855
482.00 0.9621231
482.10 0.9657491
482.20 0.9703393
482.30 0.9755206
482.40 0.9811386
482.50 0.9870462
482.60 0.9931029
482.70 0.9991779
482.80 1.005196
482.90 1.011169
483.00 1.017075
483.10 1.022556
483.20 1.026805
483.30 1.028955
483.40 1.028411
483.50 1.025137
483.60 1.019806
483.70 1.013656
483.80 1.007828
483.90 1.003074
484.00 0.9998022
484.10 0.9981301
484.20 0.9979942
484.30 0.9991697
484.40 1.001287
484.50 1.004007
484.60 1.007045
484.70 1.009916
484.80 1.011757
484.90 1.011482
485.00 1.008226
485.10 1.001433
485.20 0.9913564
485.30 0.979402
485.40 0.9677116
485.50 0.9585984
485.60 0.9539935
485.70 0.9549658
485.80 0.9614002
485.90 0.9715712
486.00 0.9832901
486.10 0.9958143
486.20 1.008334
486.30 1.019895
486.40 1.029131
486.50 1.036254
486.60 1.041867
486.70 1.046557
486.80 1.050776
486.90 1.054784
487.00 1.058759
487.10 1.062812
487.20 1.066948
487.30 1.07097
487.40 1.074693
487.50 1.078313
487.60 1.082216
487.70 1.086886
487.80 1.092742
487.90 1.099608
488.00 1.106713
488.10 1.113279
488.20 1.118829
488.30 1.123149
488.40 1.126109
488.50 1.127786
488.60 1.128752
488.70 1.129823
488.80 1.131494
488.90 1.133852
489.00 1.136895
489.10 1.140418
489.20 1.144005
489.30 1.147528
489.40 1.151315
489.50 1.155713
489.60 1.160588
489.70 1.165688
489.80 1.170951
489.90 1.176191
490.00 1.180939
490.10 1.184724
490.20 1.187128
490.30 1.187691
490.40 1.186205
490.50 1.182714
490.60 1.177413
490.70 1.170587
490.80 1.162424
490.90 1.153208
491.00 1.143768
491.10 1.135117
491.20 1.127876
491.30 1.122243
491.40 1.118206
491.50 1.115553
491.60 1.113901
491.70 1.112723
491.80 1.111348
491.90 1.10931
492.00 1.106282
492.10 1.101994
492.20 1.096367
492.30 1.089219
492.40 1.080036
492.50 1.068199
492.60 1.053749
492.70 1.037711
492.80 1.021662
492.90 1.007144
493.00 0.9954652
493.10 0.9876545
493.20 0.9840069
493.30 0.9837957
493.40 0.9856096
493.50 0.9878894
493.60 0.989075
493.70 0.987975
493.80 0.984425
493.90 0.9793461
494.00 0.9741369
494.10 0.9700829
494.20 0.9679424
494.30 0.9679844
494.40 0.970112
494.50 0.9739264
494.60 0.9788985
494.70 0.9844656
494.80 0.9902206
494.90 0.9959426
495.00 1.001824
495.10 1.008405
495.20 1.01601
495.30 1.024504
495.40 1.033295
495.50 1.041445
495.60 1.048061
495.70 1.052618
495.80 1.055169
495.90 1.056121
496.00 1.055967
496.10 1.055364
496.20 1.055022
496.30 1.055439
496.40 1.056605
496.50 1.058111
496.60 1.059301
496.70 1.059383
496.80 1.05769
496.90 1.053969
497.00 1.048428
497.10 1.041568
497.20 1.033962
497.30 1.026215
497.40 1.018883
497.50 1.012161
497.60 1.005932
497.70 0.9998187
497.80 0.9935683
497.90 0.9873723
498.00 0.9818178
498.10 0.9774613
498.20 0.9744888
498.30 0.9728545
498.40 0.9724394
498.50 0.9731299
498.60 0.9747144
498.70 0.9768478
498.80 0.9792627
498.90 0.9819001
499.00 0.9847225
499.10 0.9878262
499.20 0.9912647
499.30 0.9947686
499.40 0.9977681
499.50 0.9997582
499.60 1.000827
499.70 1.001359
499.80 1.001544
499.90 1.001207
500.00 1
500.10 0.9975314
500.20 0.993354
500.30 0.9872345
500.40 0.979284
500.50 0.96998
500.60 0.9601364
500.70 0.9507933
500.80 0.9432268
500.90 0.9387978
501.00 0.9382625
501.10 0.9415028
501.20 0.9479725
501.30 0.9570138
501.40 0.9678195
501.50 0.9795213
501.60 0.9915787
501.70 1.003808
501.80 1.016234
501.90 1.028824
502.00 1.04163
502.10 1.054903
502.20 1.068633
502.30 1.08245
502.40 1.096037
502.50 1.109292
502.60 1.121824
502.70 1.132905
502.80 1.141837
502.90 1.148279
503.00 1.152264
503.10 1.154229
503.20 1.15535
503.30 1.157312
503.40 1.161538
503.50 1.168641
503.60 1.178546
503.70 1.190524
503.80 1.203108
503.90 1.214413
504.00 1.222954
504.10 1.228206
504.20 1.23044
504.30 1.230225
504.40 1.228321
504.50 1.225552
504.60 1.222412
504.70 1.219082
504.80 1.215758
504.90 1.212675
505.00 1.209961
505.10 1.207872
505.20 1.206897
505.30 1.207636
505.40 1.210525
505.50 1.215539
505.60 1.222376
505.70 1.230646
505.80 1.239534
505.90 1.24795
506.00 1.254941
506.10 1.259936
506.20 1.262721
506.30 1.263435
506.40 1.262806
506.50 1.261802
506.60 1.261256
506.70 1.261896
506.80 1.264162
506.90 1.267892
507.00 1.272398
507.10 1.276827
507.20 1.280562
507.30 1.283243
507.40 1.284729
507.50 1.285085
507.60 1.284428
507.70 1.283072
507.80 1.281253
507.90 1.279066
508.00 1.276791
508.10 1.274783
508.20 1.27332
508.30 1.272606
508.40 1.272706
508.50 1.273418
508.60 1.274373
508.70 1.275228
508.80 1.275744
508.90 1.27577
509.00 1.27522
509.10 1.273942
509.20 1.271915
509.30 1.269391
509.40 1.266798
509.50 1.264561
509.60 1.263064
509.70 1.262599
509.80 1.263388
509.90 1.265678
510.00 1.269613
510.10 1.275183
510.20 1.282137
510.30 1.289928
510.40 1.297945
510.50 1.305544
510.60 1.31212
510.70 1.317123
510.80 1.319957
510.90 1.319937
511.00 1.316538
511.10 1.309824
511.20 1.300361
511.30 1.289039
511.40 1.27688
511.50 1.264715
511.60 1.253077
511.70 1.24228
511.80 1.232313
511.90 1.222975
512.00 1.213936
512.10 1.20486
512.20 1.195846
512.30 1.187521
512.40 1.180503
512.50 1.175067
512.60 1.1711
512.70 1.168041
512.80 1.165148
512.90 1.161733
513.00 1.157268
513.10 1.151378
513.20 1.143915
513.30 1.135088
513.40 1.12557
513.50 1.116287
513.60 1.107902
513.70 1.100812
513.80 1.095183
513.90 1.090957
514.00 1.08782
514.10 1.085028
514.20 1.081958
514.30 1.078722
514.40 1.075817
514.50 1.073771
514.60 1.073161
514.70 1.07446
514.80 1.077662
514.90 1.082292
515.00 1.087405
515.10 1.091676
515.20 1.093888
515.30 1.092998
515.40 1.088398
515.50 1.080316
515.60 1.069357
515.70 1.056118
515.80 1.041422
515.90 1.026255
516.00 1.01161
516.10 0.9983398
516.20 0.9870594
516.30 0.9780452
516.40 0.9711257
516.50 0.9658134
516.60 0.9616257
516.70 0.9582387
516.80 0.9555412
516.90 0.9539759
517.00 0.9543926
517.10 0.9574385
517.20 0.9635613
517.30 0.973129
517.40 0.9859897
517.50 1.001375
517.60 1.018224
517.70 1.035269
517.80 1.051454
517.90 1.066132
518.00 1.078844
518.10 1.089467
518.20 1.098388
518.30 1.106192
518.40 1.113483
518.50 1.120833
518.60 1.128486
518.70 1.136219
518.80 1.143551
518.90 1.149837
519.00 1.154345
519.10 1.156507
519.20 1.155961
519.30 1.152675
519.40 1.14708
519.50 1.139972
519.60 1.132209
519.70 1.124622
519.80 1.118051
519.90 1.113327
520.00 1.110903
520.10 1.11071
520.20 1.112448
520.30 1.115692
520.40 1.11967
520.50 1.123436
520.60 1.126211
520.70 1.127632
520.80 1.128101
520.90 1.128778
521.00 1.1311
521.10 1.136079
521.20 1.143806
521.30 1.153546
521.40 1.164327
521.50 1.175258
521.60 1.185421
521.70 1.194066
521.80 1.201233
521.90 1.20787
522.00 1.215318
522.10 1.224587
522.20 1.235823
522.30 1.248346
522.40 1.261087
522.50 1.273027
522.60 1.283594
522.70 1.292728
522.80 1.300653
522.90 1.307842
523.00 1.31498
523.10 1.322769
523.20 1.331338
523.30 1.340017
523.40 1.347694
523.50 1.353419
523.60 1.356924
523.70 1.358481
523.80 1.358712
523.90 1.358465
524.00 1.358606
524.10 1.359802
524.20 1.362172
524.30 1.365301
524.40 1.368627
524.50 1.37143
524.60 1.372969
524.70 1.372996
524.80 1.371895
524.90 1.370453
525.00 1.369468
525.10 1.369639
525.20 1.371541
525.30 1.375572
525.40 1.381898
525.50 1.39055
525.60 1.401695
525.70 1.415325
525.80 1.431042
525.90 1.448326
526.00 1.46673
526.10 1.485741
526.20 1.504689
526.30 1.522911
526.40 1.539788
526.50 1.554823
526.60 1.567751
526.70 1.578468
526.80 1.586984
526.90 1.593155
527.00 1.596555
527.10 1.597013
527.20 1.594653
527.30 1.589723
527.40 1.582877
527.50 1.575126
527.60 1.56748
527.70 1.560547
527.80 1.554376
527.90 1.548575
528.00 1.542356
528.10 1.53483
528.20 1.52524
528.30 1.513189
528.40 1.498945
528.50 1.483272
528.60 1.467214
528.70 1.452032
528.80 1.438886
528.90 1.428534
529.00 1.421444
529.10 1.417874
529.20 1.417861
529.30 1.421031
529.40 1.426671
529.50 1.43384
529.60 1.441534
529.70 1.449024
529.80 1.45583
529.90 1.461741
530.00 1.46711
530.10 1.472623
530.20 1.478871
530.30 1.486245
530.40 1.49515
530.50 1.506026
530.60 1.519049
530.70 1.53404
530.80 1.550228
530.90 1.566317
531.00 1.580951
531.10 1.593107
531.20 1.602414
531.30 1.609061
531.40 1.61338
531.50 1.615966
531.60 1.617688
531.70 1.619277
531.80 1.620723
531.90 1.621157
532.00 1.619514
532.10 1.615189
532.20 1.608291
532.30 1.599742
532.40 1.590969
532.50 1.583355
532.60 1.577934
532.70 1.575355
532.80 1.575915
532.90 1.579285
533.00 1.584604
533.10 1.590846
533.20 1.597233
533.30 1.603515
533.40 1.609847
533.50 1.616482
533.60 1.623566
533.70 1.631126
533.80 1.639194
533.90 1.647706
534.00 1.656351
534.10 1.664823
534.20 1.672969
534.30 1.680575
534.40 1.68721
534.50 1.692602
534.60 1.696807
534.70 1.69996
534.80 1.702176
534.90 1.703508
535.00 1.704174
535.10 1.704484
535.20 1.704563
535.30 1.70462
535.40 1.704951
535.50 1.705433
535.60 1.705355
535.70 1.703968
535.80 1.70093
535.90 1.6963
536.00 1.690335
536.10 1.683286
536.20 1.675441
536.30 1.667375
536.40 1.660125
536.50 1.654857
536.60 1.652436
536.70 1.653093
536.80 1.656458
536.90 1.66188
537.00 1.66862
537.10 1.675859
537.20 1.682803
537.30 1.6888
537.40 1.693464
537.50 1.696919
537.60 1.699745
537.70 1.702673
537.80 1.706177
537.90 1.710338
538.00 1.715075
538.10 1.720348
538.20 1.726328
538.30 1.733326
538.40 1.741531
538.50 1.751021
538.60 1.761714
538.70 1.773176
538.80 1.784808
538.90 1.795971
539.00 1.806085
539.10 1.815066
539.20 1.823488
539.30 1.832348
539.40 1.842713
539.50 1.855354
539.60 1.870346
539.70 1.886941
539.80 1.903917
539.90 1.919896
540.00 1.933581
540.10 1.944048
540.20 1.950847
540.30 1.954156
540.40 1.954656
540.50 1.952917
540.60 1.949188
540.70 1.943906
540.80 1.937845
540.90 1.931785
541.00 1.926534
541.10 1.922931
541.20 1.921715
541.30 1.923344
541.40 1.927868
541.50 1.934796
541.60 1.94321
541.70 1.952089
541.80 1.960658
541.90 1.968772
542.00 1.976815
542.10 1.985304
542.20 1.994804
542.30 2.005681
542.40 2.017721
542.50 2.030245
542.60 2.042244
542.70 2.052569
542.80 2.060179
542.90 2.064398
543.00 2.065085
543.10 2.062712
543.20 2.058432
543.30 2.053727
543.40 2.049868
543.50 2.047653
543.60 2.047266
543.70 2.048395
543.80 2.050395
543.90 2.052444
544.00 2.05383
544.10 2.053968
544.20 2.052447
544.30 2.049238
544.40 2.044689
544.50 2.039383
544.60 2.033889
544.70 2.028616
544.80 2.023846
544.90 2.019686
545.00 2.016069
545.10 2.012866
545.20 2.009907
545.30 2.006872
545.40 2.003285
545.50 1.998885
545.60 1.993863
545.70 1.988565
545.80 1.98325
545.90 1.978094
546.00 1.973173
546.10 1.968512
546.20 1.964156
546.30 1.959986
546.40 1.955554
546.50 1.950295
546.60 1.943787
546.70 1.935976
546.80 1.927201
546.90 1.918002
547.00 1.908927
547.10 1.900445
547.20 1.892956
547.30 1.886609
547.40 1.88107
547.50 1.875621
547.60 1.869599
547.70 1.862719
547.80 1.855056
547.90 1.847019
548.00 1.839273
548.10 1.832302
548.20 1.826211
548.30 1.820642
548.40 1.814767
548.50 1.807661
548.60 1.798604
548.70 1.787332
548.80 1.774286
548.90 1.760671
549.00 1.747915
549.10 1.736967
549.20 1.728181
549.30 1.721342
549.40 1.715657
549.50 1.709887
549.60 1.702704
549.70 1.693232
549.80 1.681457
549.90 1.668142
550.00 1.420499
550.10 1.410356
550.20 1.404417
550.30 1.39917
550.40 1.390952
550.50 1.377214
550.60 1.35751
550.70 1.332802
550.80 1.304541
550.90 1.274603
551.00 1.245009
551.10 1.217449
551.20 1.193288
551.30 1.172992
551.40 1.156057
551.50 1.141714
551.60 1.129026
551.70 1.11704
551.80 1.10563
551.90 1.095791
552.00 1.088713
552.10 1.085364
552.20 1.08675
552.30 1.093383
552.40 1.105098
552.50 1.120831
552.60 1.138273
552.70 1.155185
552.80 1.170718
552.90 1.185105
553.00 1.198897
553.10 1.212992
553.20 1.228551
553.30 1.246396
553.40 1.267024
553.50 1.290477
553.60 1.31582
553.70 1.341251
553.80 1.364618
553.90 1.384315
554.00 1.399896
554.10 1.41141
554.20 1.418624
554.30 1.421589
554.40 1.421719
554.50 1.421095
554.60 1.421095
554.70 1.422244
554.80 1.42463
554.90 1.427702
555.00 1.429947
555.10 1.432868
555.20 1.440716
555.30 1.457565
555.40 1.487581
555.50 1.533782
555.60 1.598186
555.70 1.68112
555.80 1.779223
555.90 1.88549
556.00 1.991395
556.10 2.089016
556.20 2.172292
556.30 2.238452
556.40 2.28896
556.50 2.325938
556.60 2.3519
556.70 2.370912
556.80 2.386172
556.90 2.399553
557.00 2.411153
557.10 2.419762
557.20 2.424406
557.30 2.425333
557.40 2.423651
557.50 2.420654
557.60 2.418131
557.70 2.418453
557.80 2.423593
557.90 2.433948
558.00 2.448755
558.10 2.467009
558.20 2.487339
558.30 2.508068
558.40 2.527241
558.50 2.543151
558.60 2.555227
558.70 2.564089
558.80 2.571666
558.90 2.581117
559.00 2.596269
559.10 2.616975
559.20 2.639018
559.30 2.657572
559.40 2.666741
559.50 2.660054
559.60 2.632035
559.70 2.580411
559.80 2.507336
559.90 2.418875
560.00 2.324034
560.10 2.233277
560.20 2.155364
560.30 2.094662
560.40 2.050183
560.50 2.019907
560.60 2.001983
560.70 1.992783
560.80 1.988344
560.90 1.985213
561.00 1.981902
561.10 1.978686
561.20 1.976075
561.30 1.974759
561.40 1.975135
561.50 1.976445
561.60 1.977498
561.70 1.977547
561.80 1.97678
561.90 1.976124
562.00 1.976117
562.10 1.976757
562.20 1.97818
562.30 1.980976
562.40 1.985729
562.50 1.992285
562.60 1.999845
562.70 2.007296
562.80 2.013504
562.90 2.018038
563.00 2.0209
563.10 2.0221
563.20 2.021638
563.30 2.019338
563.40 2.015615
563.50 2.01217
563.60 2.010944
563.70 2.013029
563.80 2.018694
563.90 2.027638
564.00 2.038909
564.10 2.050381
564.20 2.059383
564.30 2.063738
564.40 2.062663
564.50 2.056811
564.60 2.047317
564.70 2.03574
564.80 2.024026
564.90 2.013825
565.00 2.006345
565.10 2.002358
565.20 2.001895
565.30 2.00362
565.40 2.005512
565.50 2.006111
565.60 2.00446
565.70 2.000496
565.80 1.995239
565.90 1.990199
566.00 1.987176
566.10 1.987956
566.20 1.994199
566.30 2.006839
566.40 2.025667
566.50 2.049535
566.60 2.07685
566.70 2.106255
566.80 2.136068
566.90 2.164296
567.00 2.189712
567.10 2.211235
567.20 2.227874
567.30 2.239784
567.40 2.248386
567.50 2.255537
567.60 2.262508
567.70 2.27032
567.80 2.27967
567.90 2.290737
568.00 2.303165
568.10 2.316178
568.20 2.329671
568.30 2.344058
568.40 2.359228
568.50 2.375149
568.60 2.392812
568.70 2.413721
568.80 2.438779
568.90 2.468163
569.00 2.501107
569.10 2.535448
569.20 2.568373
569.30 2.597405
569.40 2.620781
569.50 2.637865
569.60 2.649012
569.70 2.654337
569.80 2.653386
569.90 2.645629
570.00 2.630282
570.10 2.606709
570.20 2.575094
570.30 2.536413
570.40 2.492873
570.50 2.448089
570.60 2.405964
570.70 2.369303
570.80 2.339558
570.90 2.316362
571.00 2.297922
571.10 2.282995
571.20 2.271172
571.30 2.261974
571.40 2.254233
571.50 2.246304
571.60 2.236953
571.70 2.225593
571.80 2.212327
571.90 2.197471
572.00 2.180962
572.10 2.162717
572.20 2.142585
572.30 2.120549
572.40 2.096691
572.50 2.070421
572.60 2.04039
572.70 2.005213
572.80 1.964534
572.90 1.919104
573.00 1.870687
573.10 1.821959
573.20 1.775757
573.30 1.734437
573.40 1.699826
573.50 1.672914
573.60 1.653338
573.70 1.639734
573.80 1.630563
573.90 1.624705
574.00 1.622144
574.10 1.623321
574.20 1.627891
574.30 1.63533
574.40 1.644799
574.50 1.65507
574.60 1.664897
574.70 1.673103
574.80 1.67923
574.90 1.683707
575.00 1.687524
575.10 1.692039
575.20 1.698247
575.30 1.706157
575.40 1.71518
575.50 1.724859
575.60 1.734876
575.70 1.744061
575.80 1.750878
575.90 1.754318
576.00 1.753985
576.10 1.750049
576.20 1.742916
576.30 1.733741
576.40 1.724853
576.50 1.718668
576.60 1.717094
576.70 1.721674
576.80 1.733472
576.90 1.752526
577.00 1.777435
577.10 1.805746
577.20 1.834111
577.30 1.858695
577.40 1.876551
577.50 1.886417
577.60 1.888844
577.70 1.885788
577.80 1.879459
577.90 1.872139
578.00 1.865987
578.10 1.862813
578.20 1.86358
578.30 1.867449
578.40 1.872608
578.50 1.877411
578.60 1.881251
578.70 1.884552
578.80 1.887231
578.90 1.888831
579.00 1.888973
579.10 1.886783
579.20 1.881782
579.30 1.874875
579.40 1.868178
579.50 1.863772
579.60 1.862439
579.70 1.864118
579.80 1.868271
579.90 1.873815
580.00 1.879209
580.10 1.88292
580.20 1.884407
580.30 1.883638
580.40 1.880473
580.50 1.875182
580.60 1.868526
580.70 1.861284
580.80 1.85328
580.90 1.843408
581.00 1.83096
581.10 1.816497
581.20 1.801942
581.30 1.789854
581.40 1.782063
581.50 1.779297
581.60 1.781617
581.70 1.788743
581.80 1.800219
581.90 1.815528
582.00 1.833719
582.10 1.852644
582.20 1.870067
582.30 1.885
582.40 1.89735
582.50 1.906964
582.60 1.912954
582.70 1.91414
582.80 1.910134
582.90 1.9009
583.00 1.886289
583.10 1.866315
583.20 1.841172
583.30 1.810854
583.40 1.774855
583.50 1.733287
583.60 1.688106
583.70 1.64292
583.80 1.601303
583.90 1.56585
584.00 1.53849
584.10 1.520385
584.20 1.511284
584.30 1.5094
584.40 1.511859
584.50 1.515828
584.60 1.519289
584.70 1.520592
584.80 1.518915
584.90 1.514555
585.00 1.507298
585.10 1.495538
585.20 1.477925
585.30 1.454386
585.40 1.425565
585.50 1.39239
585.60 1.355752
585.70 1.316428
585.80 1.275266
585.90 1.232246
586.00 1.186386
586.10 1.137363
586.20 1.085667
586.30 1.032054
586.40 0.9789455
586.50 0.9307807
586.60 0.8921699
586.70 0.8665826
586.80 0.8558215
586.90 0.8598796
587.00 0.8772072
587.10 0.9059357
587.20 0.9438553
587.30 0.9887206
587.40 1.039304
587.50 1.094482
587.60 1.152168
587.70 1.209444
587.80 1.26259
587.90 1.307732
588.00 1.341838
588.10 1.363399
588.20 1.372679
588.30 1.371671
588.40 1.363917
588.50 1.352903
588.60 1.340861
588.70 1.328488
588.80 1.315027
588.90 1.299747
589.00 1.283433
589.10 1.268321
589.20 1.257007
589.30 1.251588
589.40 1.253706
589.50 1.264026
589.60 1.281973
589.70 1.305895
589.80 1.332936
589.90 1.360035
590.00 1.38531
590.10 1.408214
590.20 1.428904
590.30 1.447757
590.40 1.464138
590.50 1.475644
590.60 1.478499
590.70 1.469324
590.80 1.446745
590.90 1.411979
591.00 1.3687
591.10 1.321296
591.20 1.273902
591.30 1.229239
591.40 1.187246
591.50 1.145872
591.60 1.102845
591.70 1.055953
591.80 1.004403
591.90 0.9502507
592.00 0.8980597
592.10 0.8545917
592.20 0.82039
592.30 0.7992588
592.40 0.791232
592.50 0.7947705
592.60 0.8069889
592.70 0.8247546
592.80 0.8459621
592.90 0.868989
593.00 0.8918454
593.10 0.9130894
593.20 0.9321926
593.30 0.9489258
593.40 0.9630607
593.50 0.9748927
593.60 0.9856136
593.70 0.99672
593.80 1.00932
593.90 1.023707
594.00 1.039903
594.10 1.058404
594.20 1.080492
594.30 1.108026
594.40 1.142264
594.50 1.182889
594.60 1.228251
594.70 1.275819
594.80 1.322844
594.90 1.36646
595.00 1.403053
595.10 1.42926
595.20 1.443821
595.30 1.448518
595.40 1.447403
595.50 1.444745
595.60 1.443073
595.70 1.44337
595.80 1.44603
595.90 1.450816
596.00 1.456819
596.10 1.461291
596.20 1.466748
596.30 1.470804
596.40 1.473059
596.50 1.473665
596.60 1.47301
596.70 1.471201
596.80 1.467943
596.90 1.463194
597.00 1.458221
597.10 1.454686
597.20 1.453424
597.30 1.454222
597.40 1.455881
597.50 1.456386
597.60 1.453355
597.70 1.4451
597.80 1.431688
597.90 1.414839
598.00 1.396956
598.10 1.380385
598.20 1.366593
598.30 1.355527
598.40 1.345662
598.50 1.335287
598.60 1.323874
598.70 1.312313
598.80 1.302014
598.90 1.294431
599.00 1.291082
599.10 1.293264
599.20 1.301398
599.30 1.314769
599.40 1.332293
599.50 1.353207
599.60 1.377403
599.70 1.405255
599.80 1.437292
599.90 1.47357
600.00 1.242209
600.10 1.349846
600.20 1.522956
600.30 1.727182
600.40 1.916401
600.50 2.05323
600.60 2.114236
600.70 2.107597
600.80 2.061515
600.90 2.004751
601.00 1.951375
601.10 1.908657
601.20 1.891918
601.30 1.915325
601.40 1.977812
601.50 2.049287
601.60 2.086655
601.70 2.064632
601.80 1.996777
601.90 1.913253
602.00 1.828204
602.10 1.735918
602.20 1.642101
602.30 1.558483
602.40 1.492276
602.50 1.454515
602.60 1.450259
602.70 1.483159
602.80 1.549057
602.90 1.636748
603.00 1.74755
603.10 1.868503
603.20 1.955738
603.30 1.974427
603.40 1.930285
603.50 1.867288
603.60 1.82476
603.70 1.820632
603.80 1.872654
603.90 1.98955
604.00 2.152865
604.10 2.319033
604.20 2.451774
604.30 2.532207
604.40 2.538761
604.50 2.476479
604.60 2.380679
604.70 2.287437
604.80 2.226116
604.90 2.202577
605.00 2.216826
605.10 2.279433
605.20 2.387096
605.30 2.520159
605.40 2.643537
605.50 2.722362
605.60 2.732407
605.70 2.663156
605.80 2.528371
605.90 2.347801
606.00 2.143089
606.10 1.93854
606.20 1.753644
606.30 1.617279
606.40 1.562832
606.50 1.612343
606.60 1.762567
606.70 1.988463
606.80 2.263456
606.90 2.539353
607.00 2.747004
607.10 2.839915
607.20 2.817226
607.30 2.701788
607.40 2.521941
607.50 2.304116
607.60 2.080977
607.70 1.894861
607.80 1.768871
607.90 1.702516
608.00 1.690092
608.10 1.70748
608.20 1.731277
608.30 1.77318
608.40 1.856518
608.50 1.973492
608.60 2.079125
608.70 2.130929
608.80 2.119542
608.90 2.063023
609.00 1.983878
609.10 1.907919
609.20 1.863206
609.30 1.861423
609.40 1.894601
609.50 1.957991
609.60 2.052964
609.70 2.168245
609.80 2.277091
609.90 2.362995
610.00 2.435407
610.10 2.51135
610.20 2.580871
610.30 2.629503
610.40 2.652639
610.50 2.625655
610.60 2.538101
610.70 2.417039
610.80 2.304539
610.90 2.23067
611.00 2.19295
611.10 2.171882
611.20 2.164004
611.30 2.188707
611.40 2.259548
611.50 2.36787
611.60 2.502101
611.70 2.641288
611.80 2.754129
611.90 2.826247
612.00 2.846482
612.10 2.792566
612.20 2.651194
612.30 2.436358
612.40 2.184967
612.50 1.949241
612.60 1.775421
612.70 1.674994
612.80 1.641354
612.90 1.676065
613.00 1.774715
613.10 1.915861
613.20 2.074784
613.30 2.220474
613.40 2.337798
613.50 2.446922
613.60 2.568423
613.70 2.690235
613.80 2.79709
613.90 2.887807
614.00 2.969477
614.10 3.052556
614.20 3.130914
614.30 3.166099
614.40 3.124657
614.50 3.010074
614.60 2.838941
614.70 2.647549
614.80 2.464513
614.90 2.29551
615.00 2.148262
615.10 2.059691
615.20 2.065027
615.30 2.151096
615.40 2.277029
615.50 2.399831
615.60 2.495553
615.70 2.567388
615.80 2.628525
615.90 2.690377
616.00 2.767689
616.10 2.861704
616.20 2.956685
616.30 3.034906
616.40 3.075858
616.50 3.048316
616.60 2.932675
616.70 2.749012
616.80 2.533538
616.90 2.318355
617.00 2.123924
617.10 1.969073
617.20 1.863193
617.30 1.791192
617.40 1.732599
617.50 1.672561
617.60 1.614214
617.70 1.578102
617.80 1.585449
617.90 1.646909
618.00 1.767705
618.10 1.94242
618.20 2.137395
618.30 2.310307
618.40 2.442149
618.50 2.525799
618.60 2.559285
618.70 2.557168
618.80 2.550866
618.90 2.569781
619.00 2.613136
619.10 2.653434
619.20 2.669984
619.30 2.667532
619.40 2.63861
619.50 2.567717
619.60 2.474585
619.70 2.397871
619.80 2.352739
619.90 2.335715
620.00 2.346074
620.10 2.38036
620.20 2.429243
620.30 2.476958
620.40 2.525448
620.50 2.587784
620.60 2.657543
620.70 2.716956
620.80 2.760388
620.90 2.778832
621.00 2.749637
621.10 2.652714
621.20 2.485017
621.30 2.266691
621.40 2.026352
621.50 1.787842
621.60 1.570472
621.70 1.40786
621.80 1.320377
621.90 1.29686
622.00 1.330073
622.10 1.40875
622.20 1.515421
622.30 1.644695
622.40 1.796153
622.50 1.964223
622.60 2.137489
622.70 2.304178
622.80 2.448138
622.90 2.564611
623.00 2.659583
623.10 2.72865
623.20 2.761015
623.30 2.758381
623.40 2.722514
623.50 2.659483
623.60 2.597228
623.70 2.557975
623.80 2.541082
623.90 2.541329
624.00 2.558027
624.10 2.584007
624.20 2.611104
624.30 2.624929
624.40 2.608606
624.50 2.558125
624.60 2.490693
624.70 2.430912
624.80 2.3953
624.90 2.393935
625.00 2.424296
625.10 2.490986
625.20 2.613558
625.30 2.786989
625.40 2.978193
625.50 3.162247
625.60 3.332992
625.70 3.480368
625.80 3.580004
625.90 3.61663
626.00 3.587168
626.10 3.487653
626.20 3.320353
626.30 3.086329
626.40 2.799721
626.50 2.49772
626.60 2.226166
626.70 2.031932
626.80 1.947158
626.90 1.974552
627.00 2.09185
627.10 2.276386
627.20 2.502944
627.30 2.742062
627.40 2.961884
627.50 3.127437
627.60 3.217866
627.70 3.238964
627.80 3.197949
627.90 3.100326
628.00 2.964759
628.10 2.827481
628.20 2.737817
628.30 2.729714
628.40 2.797636
628.50 2.909405
628.60 3.028202
628.70 3.1049
628.80 3.101973
628.90 3.026253
629.00 2.909853
629.10 2.791369
629.20 2.716754
629.30 2.727055
629.40 2.830582
629.50 2.987534
629.60 3.131207
629.70 3.227392
629.80 3.280803
629.90 3.30186
630.00 3.306163
630.10 3.319828
630.20 3.364768
630.30 3.445816
630.40 3.562161
630.50 3.706941
630.60 3.857739
630.70 3.97649
630.80 4.036434
630.90 4.043596
631.00 4.030468
631.10 4.009971
631.20 3.99071
631.30 3.983937
631.40 3.990514
631.50 4.011779
631.60 4.04268
631.70 4.072527
631.80 4.078744
631.90 4.044872
632.00 3.975707
632.10 3.889424
632.20 3.804487
632.30 3.747996
632.40 3.750255
632.50 3.817318
632.60 3.909964
632.70 3.987161
632.80 4.02413
632.90 4.001601
633.00 3.92551
633.10 3.820105
633.20 3.717069
633.30 3.642719
633.40 3.614169
633.50 3.633379
633.60 3.691491
633.70 3.788093
633.80 3.921872
633.90 4.093705
634.00 4.306285
634.10 4.541092
634.20 4.769761
634.30 4.963724
634.40 5.09158
634.50 5.142312
634.60 5.13479
634.70 5.093601
634.80 5.039048
634.90 4.996587
635.00 4.998636
635.10 5.057002
635.20 5.152836
635.30 5.24672
635.40 5.304116
635.50 5.305781
635.60 5.222167
635.70 5.044842
635.80 4.82797
635.90 4.6174
636.00 4.432482
636.10 4.304659
636.20 4.263773
636.30 4.31954
636.40 4.442904
636.50 4.594381
636.60 4.736409
636.70 4.837809
636.80 4.879805
636.90 4.859817
637.00 4.813402
637.10 4.771789
637.20 4.712369
637.30 4.620731
637.40 4.512338
637.50 4.41289
637.60 4.345289
637.70 4.31087
637.80 4.300741
637.90 4.300328
638.00 4.316194
638.10 4.364391
638.20 4.452068
638.30 4.574174
638.40 4.715189
638.50 4.8529
638.60 4.965534
638.70 5.045189
638.80 5.09078
638.90 5.094643
639.00 5.05089
639.10 4.978094
639.20 4.910931
639.30 4.872042
639.40 4.852248
639.50 4.839007
639.60 4.832759
639.70 4.840342
639.80 4.865329
639.90 4.914601
640.00 4.988333
640.10 5.072207
640.20 5.156726
640.30 5.224545
640.40 5.255622
640.50 5.240876
640.60 5.177902
640.70 5.071901
640.80 4.944723
640.90 4.819509
641.00 4.708495
641.10 4.616077
641.20 4.543456
641.30 4.492993
641.40 4.473509
641.50 4.494732
641.60 4.55412
641.70 4.648648
641.80 4.777508
641.90 4.923238
642.00 5.05861
642.10 5.159827
642.20 5.208829
642.30 5.202164
642.40 5.154815
642.50 5.093591
642.60 5.047212
642.70 5.039675
642.80 5.084748
642.90 5.176489
643.00 5.292441
643.10 5.401157
643.20 5.467074
643.30 5.477888
643.40 5.445403
643.50 5.38915
643.60 5.325315
643.70 5.254753
643.80 5.170044
643.90 5.077388
644.00 4.998636
644.10 4.946862
644.20 4.922337
644.30 4.926239
644.40 4.957377
644.50 5.012566
644.60 5.088872
644.70 5.176621
644.80 5.263557
644.90 5.335403
645.00 5.376149
645.10 5.377149
645.20 5.34277
645.30 5.277332
645.40 5.173888
645.50 5.03582
645.60 4.889286
645.70 4.762764
645.80 4.680967
645.90 4.659164
646.00 4.704195
646.10 4.803108
646.20 4.929051
646.30 5.063065
646.40 5.193541
646.50 5.321905
646.60 5.446828
646.70 5.552555
646.80 5.628258
646.90 5.672711
647.00 5.682207
647.10 5.659569
647.20 5.611862
647.30 5.548857
647.40 5.484625
647.50 5.436559
647.60 5.416967
647.70 5.420991
647.80 5.436671
647.90 5.44831
648.00 5.442441
648.10 5.423322
648.20 5.406427
648.30 5.403005
648.40 5.4213
648.50 5.461425
648.60 5.516957
648.70 5.580889
648.80 5.636749
648.90 5.663821
649.00 5.652823
649.10 5.619853
649.20 5.595199
649.30 5.604473
649.40 5.666582
649.50 5.774978
649.60 5.898722
649.70 5.997176
649.80 6.038048
649.90 6.018266
650.00 5.961751
650.10 5.899093
650.20 5.862259
650.30 5.883669
650.40 5.985943
650.50 6.168104
650.60 6.399717
650.70 6.6343
650.80 6.82559
650.90 6.960442
651.00 7.037823
651.10 7.055736
651.20 7.030377
651.30 6.983629
651.40 6.930246
651.50 6.889851
651.60 6.881495
651.70 6.906719
651.80 6.946628
651.90 6.971914
652.00 6.970939
652.10 6.954413
652.20 6.943957
652.30 6.948874
652.40 6.97073
652.50 7.021434
652.60 7.115881
652.70 7.262773
652.80 7.457465
652.90 7.67714
653.00 7.877665
653.10 8.029227
653.20 8.126913
653.30 8.17416
653.40 8.181997
653.50 8.167312
653.60 8.14968
653.70 8.13946
653.80 8.152533
653.90 8.216479
654.00 8.341002
654.10 8.506719
654.20 8.685258
654.30 8.844868
654.40 8.967176
654.50 9.044358
654.60 9.06897
654.70 9.044467
654.80 8.987722
654.90 8.917066
655.00 8.844398
655.10 8.783161
655.20 8.738037
655.30 8.695263
655.40 8.648571
655.50 8.603212
655.60 8.571095
655.70 8.594459
655.80 8.714424
655.90 8.941784
656.00 9.266909
656.10 9.658211
656.20 10.06147
656.30 10.4103
656.40 10.64267
656.50 10.72831
656.60 10.67896
656.70 10.52746
656.80 10.29973
656.90 10.02133
657.00 9.720499
657.10 9.411417
657.20 9.11957
657.30 8.878045
657.40 8.703051
657.50 8.600315
657.60 8.560026
657.70 8.552331
657.80 8.554651
657.90 8.562763
658.00 8.574586
658.10 8.586836
658.20 8.598247
658.30 8.617019
658.40 8.658578
658.50 8.726676
658.60 8.802907
658.70 8.852513
658.80 8.851572
658.90 8.787865
659.00 8.667063
659.10 8.539115
659.20 8.449578
659.30 8.402475
659.40 8.389465
659.50 8.408926
659.60 8.464616
659.70 8.551693
659.80 8.642521
659.90 8.705939
660.00 8.73085
660.10 8.732519
660.20 8.732291
660.30 8.745294
660.40 8.785193
660.50 8.847964
660.60 8.92149
660.70 9.010244
660.80 9.12071
660.90 9.239429
661.00 9.336336
661.10 9.381388
661.20 9.359405
661.30 9.273422
661.40 9.144189
661.50 9.001258
661.60 8.880549
661.70 8.819378
661.80 8.827991
661.90 8.884976
662.00 8.960909
662.10 9.012022
662.20 8.997147
662.30 8.905965
662.40 8.754707
662.50 8.583943
662.60 8.452254
662.70 8.405852
662.80 8.455221
662.90 8.590524
663.00 8.788912
663.10 9.003731
663.20 9.182784
663.30 9.298465
663.40 9.352267
663.50 9.365873
663.60 9.361323
663.70 9.358175
663.80 9.382253
663.90 9.437948
664.00 9.513184
664.10 9.606175
664.20 9.714709
664.30 9.827137
664.40 9.925542
664.50 10.00371
664.60 10.06741
664.70 10.12062
664.80 10.15393
664.90 10.15858
665.00 10.13925
665.10 10.10289
665.20 10.05625
665.30 10.01461
665.40 9.9882
665.50 9.975656
665.60 9.975724
665.70 9.973267
665.80 9.945871
665.90 9.88429
666.00 9.787969
666.10 9.660473
666.20 9.517881
666.30 9.383602
666.40 9.282798
666.50 9.240408
666.60 9.276052
666.70 9.400096
666.80 9.60425
666.90 9.854341
667.00 10.10079
667.10 10.30875
667.20 10.46339
667.30 10.56485
667.40 10.62627
667.50 10.65603
667.60 10.65194
667.70 10.6115
667.80 10.54371
667.90 10.46233
668.00 10.37179
668.10 10.27616
668.20 10.19317
668.30 10.14902
668.40 10.16543
668.50 10.24076
668.60 10.34423
668.70 10.43259
668.80 10.46238
668.90 10.40503
669.00 10.26408
669.10 10.06868
669.20 9.855589
669.30 9.672241
669.40 9.566748
669.50 9.563967
669.60 9.667964
669.70 9.857653
669.80 10.08444
669.90 10.29983
670.00 10.46327
670.10 10.53313
670.20 10.49654
670.30 10.37548
670.40 10.19991
670.50 10.00592
670.60 9.829166
670.70 9.696156
670.80 9.625808
670.90 9.633216
671.00 9.715235
671.10 9.850936
671.20 10.02327
671.30 10.22021
671.40 10.42978
671.50 10.63947
671.60 10.82915
671.70 10.98189
671.80 11.09685
671.90 11.16908
672.00 11.19754
672.10 11.19349
672.20 11.1692
672.30 11.13345
672.40 11.09191
672.50 11.05537
672.60 11.03525
672.70 11.02096
672.80 10.99733
672.90 10.96403
673.00 10.9184
673.10 10.86051
673.20 10.79974
673.30 10.76383
673.40 10.77683
673.50 10.83336
673.60 10.91823
673.70 11.01799
673.80 11.12273
673.90 11.22513
674.00 11.31366
674.10 11.38728
674.20 11.45256
674.30 11.50587
674.40 11.5374
674.50 11.5411
674.60 11.51969
674.70 11.48231
674.80 11.44102
674.90 11.40831
675.00 11.39345
675.10 11.41294
675.20 11.47999
675.30 11.57874
675.40 11.67532
675.50 11.73088
675.60 11.71262
675.70 11.61823
675.80 11.48678
675.90 11.35884
676.00 11.2524
676.10 11.17012
676.20 11.12083
676.30 11.1278
676.40 11.2118
676.50 11.36096
676.60 11.53038
676.70 11.68391
676.80 11.80843
676.90 11.91025
677.00 11.99347
677.10 12.03934
677.20 12.02855
677.30 11.9765
677.40 11.92536
677.50 11.90809
677.60 11.92408
677.70 11.94856
677.80 11.95308
677.90 11.92723
678.00 11.88203
678.10 11.83026
678.20 11.76913
678.30 11.67527
678.40 11.54301
678.50 11.40303
678.60 11.28227
678.70 11.18616
678.80 11.10878
678.90 11.05342
679.00 11.0337
679.10 11.05141
679.20 11.09585
679.30 11.15441
679.40 11.21519
679.50 11.26415
679.60 11.29292
679.70 11.30875
679.80 11.31536
679.90 11.30396
680.00 11.268
680.10 11.20785
680.20 11.13155
680.30 11.04999
680.40 10.98105
680.50 10.94918
680.60 10.9731
680.70 11.04363
680.80 11.12071
680.90 11.16621
681.00 11.16334
681.10 11.11434
681.20 11.03869
681.30 10.95669
681.40 10.87952
681.50 10.81839
681.60 10.77819
681.70 10.75572
681.80 10.74205
681.90 10.72896
682.00 10.70985
682.10 10.69279
682.20 10.71135
682.30 10.79476
682.40 10.94162
682.50 11.11129
682.60 11.24729
682.70 11.3223
682.80 11.34265
682.90 11.31702
683.00 11.24505
683.10 11.12976
683.20 10.98713
683.30 10.83794
683.40 10.69721
683.50 10.56496
683.60 10.4392
683.70 10.32793
683.80 10.24534
683.90 10.22134
684.00 10.28521
684.10 10.43125
684.20 10.62109
684.30 10.80816
684.40 10.95316
684.50 11.03125
684.60 11.03094
684.70 10.951
684.80 10.80263
684.90 10.61187
685.00 10.4011
685.10 10.19467
685.20 10.03072
685.30 9.932219
685.40 9.891056
685.50 9.889892
685.60 9.912816
685.70 9.945448
685.80 9.99501
685.90 10.08116
686.00 10.20438
686.10 10.34074
686.20 10.46124
686.30 10.54677
686.40 10.5953
686.50 10.60854
686.60 10.58044
686.70 10.51656
686.80 10.43745
686.90 10.36207
687.00 10.31173
687.10 10.30482
687.20 10.3381
687.30 10.3885
687.40 10.42928
687.50 10.45181
687.60 10.45833
687.70 10.44488
687.80 10.39534
687.90 10.29271
688.00 10.13956
688.10 9.965705
688.20 9.81956
688.30 9.752576
688.40 9.800955
688.50 9.968952
688.60 10.22241
688.70 10.49826
688.80 10.72475
688.90 10.8402
689.00 10.82124
689.10 10.67143
689.20 10.40863
689.30 10.07896
689.40 9.742857
689.50 9.449117
689.60 9.237381
689.70 9.124254
689.80 9.084512
689.90 9.080683
690.00 9.089309
690.10 9.099845
690.20 9.111538
690.30 9.127686
690.40 9.148889
690.50 9.183337
690.60 9.241474
690.70 9.332521
690.80 9.471091
690.90 9.660373
691.00 9.870261
691.10 10.0554
691.20 10.18755
691.30 10.24704
691.40 10.21543
691.50 10.0861
691.60 9.882367
691.70 9.661009
691.80 9.474804
691.90 9.355858
692.00 9.337597
692.10 9.432564
692.20 9.599015
692.30 9.777823
692.40 9.938231
692.50 10.08014
692.60 10.21072
692.70 10.33727
692.80 10.47558
692.90 10.63579
693.00 10.81557
693.10 10.99429
693.20 11.14017
693.30 11.23761
693.40 11.27313
693.50 11.23338
693.60 11.14525
693.70 11.05295
693.80 10.97637
693.90 10.92649
694.00 10.92323
694.10 10.98975
694.20 11.14725
694.30 11.41573
694.40 11.80834
694.50 12.30607
694.60 12.84007
694.70 13.31525
694.80 13.64707
694.90 13.77963
695.00 13.68155
695.10 13.36463
695.20 12.90577
695.30 12.40684
695.40 11.95217
695.50 11.61346
695.60 11.43107
695.70 11.39995
695.80 11.47138
695.90 11.57773
696.00 11.67421
696.10 11.74439
696.20 11.79115
696.30 11.83564
696.40 11.90445
696.50 12.00795
696.60 12.13
696.70 12.24679
696.80 12.34226
696.90 12.39385
697.00 12.38911
697.10 12.32814
697.20 12.21514
697.30 12.08321
697.40 11.98231
697.50 11.94478
697.60 11.97943
697.70 12.06329
697.80 12.16077
697.90 12.24168
698.00 12.28032
698.10 12.27111
698.20 12.23262
698.30 12.19451
698.40 12.18081
698.50 12.21126
698.60 12.29433
698.70 12.40614
698.80 12.50688
698.90 12.56707
699.00 12.56824
699.10 12.50865
699.20 12.40929
699.30 12.30929
699.40 12.24258
699.50 12.21733
699.60 12.22972
699.70 12.27352
699.80 12.33641
699.90 12.40229
700.00 12.46563
700.10 12.53506
700.20 12.62565
700.30 12.74568
700.40 12.89025
700.50 13.06088
700.60 13.24901
700.70 13.42165
700.80 13.55739
700.90 13.6571
701.00 13.71832
701.10 13.74032
701.20 13.72931
701.30 13.69838
701.40 13.67255
701.50 13.6661
701.60 13.68368
701.70 13.72983
701.80 13.81096
701.90 13.92627
702.00 14.06157
702.10 14.19914
702.20 14.32113
702.30 14.41014
702.40 14.46009
702.50 14.47281
702.60 14.47037
702.70 14.49059
702.80 14.54367
702.90 14.63915
703.00 14.79354
703.10 15.00581
703.20 15.2589
703.30 15.52366
703.40 15.77173
703.50 15.99724
703.60 16.22335
703.70 16.47293
703.80 16.74523
703.90 17.03576
704.00 17.32561
704.10 17.57445
704.20 17.75902
704.30 17.86951
704.40 17.89967
704.50 17.85659
704.60 17.76181
704.70 17.64508
704.80 17.53776
704.90 17.45357
705.00 17.37622
705.10 17.27705
705.20 17.14271
705.30 16.96491
705.40 16.73367
705.50 16.46065
705.60 16.17984
705.70 15.92833
705.80 15.73463
705.90 15.6136
706.00 15.57124
706.10 15.6134
706.20 15.73208
706.30 15.89738
706.40 16.06775
706.50 16.20815
706.60 16.30281
706.70 16.36091
706.80 16.40755
706.90 16.46083
707.00 16.52239
707.10 16.57965
707.20 16.62286
707.30 16.66342
707.40 16.72263
707.50 16.80224
707.60 16.89128
707.70 16.97852
707.80 17.05204
707.90 17.10155
708.00 17.11569
708.10 17.08187
708.20 16.98986
708.30 16.83894
708.40 16.6399
708.50 16.41867
708.60 16.21208
708.70 16.04314
708.80 15.90702
708.90 15.7915
709.00 15.69022
709.10 15.61179
709.20 15.57318
709.30 15.57938
709.40 15.62302
709.50 15.68872
709.60 15.75583
709.70 15.81457
709.80 15.8754
709.90 15.95615
710.00 16.0579
710.10 16.16445
710.20 16.27205
710.30 16.38403
710.40 16.4981
710.50 16.60512
710.60 16.68826
710.70 16.73606
710.80 16.74412
710.90 16.7252
711.00 16.71544
711.10 16.73741
711.20 16.78399
711.30 16.84568
711.40 16.91825
711.50 16.99373
711.60 17.05773
711.70 17.0984
711.80 17.10874
711.90 17.09078
712.00 17.0554
712.10 17.01722
712.20 16.98669
712.30 16.95456
712.40 16.9087
712.50 16.85194
712.60 16.79313
712.70 16.73826
712.80 16.69184
712.90 16.65496
713.00 16.62817
713.10 16.60976
713.20 16.59013
713.30 16.56195
713.40 16.53176
713.50 16.50986
713.60 16.5071
713.70 16.53443
713.80 16.59697
713.90 16.695
714.00 16.82711
714.10 16.98344
714.20 17.14343
714.30 17.29808
714.40 17.44046
714.50 17.56391
714.60 17.67684
714.70 17.79033
714.80 17.91026
714.90 18.03583
715.00 18.15422
715.10 18.25013
715.20 18.31439
715.30 18.34674
715.40 18.3478
715.50 18.32506
715.60 18.29866
715.70 18.28214
715.80 18.28975
715.90 18.33389
716.00 18.41161
716.10 18.50881
716.20 18.61665
716.30 18.74187
716.40 18.89611
716.50 19.07672
716.60 19.25746
716.70 19.39696
716.80 19.46677
716.90 19.4622
717.00 19.38764
717.10 19.2628
717.20 19.1199
717.30 18.98522
717.40 18.88071
717.50 18.82514
717.60 18.81439
717.70 18.82688
717.80 18.84703
717.90 18.86929
718.00 18.89679
718.10 18.94589
718.20 19.02346
718.30 19.1153
718.40 19.21439
718.50 19.32376
718.60 19.44564
718.70 19.58089
718.80 19.72577
718.90 19.86971
719.00 20.00304
719.10 20.11281
719.20 20.18879
719.30 20.2278
719.40 20.22503
719.50 20.18674
719.60 20.13477
719.70 20.09324
719.80 20.08681
719.90 20.135
720.00 20.24694
720.10 20.41709
720.20 20.61398
720.30 20.79085
720.40 20.90933
720.50 20.95125
720.60 20.9119
720.70 20.8066
720.80 20.67605
720.90 20.5527
721.00 20.45566
721.10 20.40807
721.20 20.42824
721.30 20.51511
721.40 20.64524
721.50 20.78899
721.60 20.93298
721.70 21.08098
721.80 21.22682
721.90 21.35149
722.00 21.44687
722.10 21.50825
722.20 21.52249
722.30 21.49194
722.40 21.44457
722.50 21.41244
722.60 21.40991
722.70 21.43874
722.80 21.50528
722.90 21.6125
723.00 21.7389
723.10 21.84874
723.20 21.93029
723.30 21.99477
723.40 22.06863
723.50 22.22444
723.60 22.53578
723.70 22.98741
723.80 23.48776
723.90 23.93377
724.00 24.27635
724.10 24.49742
724.20 24.55294
724.30 24.41998
724.40 24.14099
724.50 23.78824
724.60 23.43256
724.70 23.15608
724.80 23.02737
724.90 23.04176
725.00 23.15262
725.10 23.34817
725.20 23.63565
725.30 23.98799
725.40 24.31883
725.50 24.54527
725.60 24.63825
725.70 24.6081
725.80 24.49323
725.90 24.34967
726.00 24.22091
726.10 24.12123
726.20 24.04948
726.30 24.00435
726.40 23.98789
726.50 23.99183
726.60 24.00078
726.70 24.00234
726.80 23.98896
726.90 23.98682
727.00 24.07717
727.10 24.35409
727.20 24.86583
727.30 25.55527
727.40 26.26994
727.50 26.8512
727.60 27.18198
727.70 27.19388
727.80 26.90662
727.90 26.43043
728.00 25.90804
728.10 25.47503
728.20 25.23191
728.30 25.19628
728.40 25.29748
728.50 25.40132
728.60 25.36214
728.70 25.12043
728.80 24.737
728.90 24.3215
729.00 23.98148
729.10 23.81597
729.20 23.87276
729.30 24.11955
729.40 24.48741
729.50 24.90285
729.60 25.29445
729.70 25.62349
729.80 25.86639
729.90 26.01146
730.00 26.08137
730.10 26.11413
730.20 26.14851
730.30 26.207
730.40 26.2907
730.50 26.39742
730.60 26.52046
730.70 26.65962
730.80 26.81106
730.90 26.97228
731.00 27.16521
731.10 27.426
731.20 27.79051
731.30 28.23861
731.40 28.68574
731.50 29.04929
731.60 29.27584
731.70 29.34519
731.80 29.26882
731.90 29.07858
732.00 28.81906
732.10 28.54079
732.20 28.31001
732.30 28.20302
732.40 28.27248
732.50 28.4842
732.60 28.71729
732.70 28.87209
732.80 28.89991
732.90 28.78718
733.00 28.54831
733.10 28.21721
733.20 27.85986
733.30 27.5664
733.40 27.43541
733.50 27.55946
733.60 27.98581
733.70 28.66243
733.80 29.45315
733.90 30.19659
734.00 30.76425
734.10 31.07261
734.20 31.07682
734.30 30.78161
734.40 30.23277
734.50 29.52931
734.60 28.81322
734.70 28.20901
734.80 27.78599
734.90 27.55321
735.00 27.47424
735.10 27.50789
735.20 27.60975
735.30 27.73416
735.40 27.84717
735.50 27.92221
735.60 27.94474
735.70 27.90711
735.80 27.83557
735.90 27.76258
736.00 27.70128
736.10 27.67257
736.20 27.70865
736.30 27.84132
736.40 28.11349
736.50 28.54028
736.60 29.0571
736.70 29.56027
736.80 29.93628
736.90 30.09131
737.00 29.99583
737.10 29.68432
737.20 29.2191
737.30 28.68244
737.40 28.16143
737.50 27.72946
737.60 27.44589
737.70 27.3371
737.80 27.36326
737.90 27.4506
738.00 27.549
738.10 27.63123
738.20 27.69611
738.30 27.75642
738.40 27.82129
738.50 27.88905
738.60 27.96564
738.70 28.07874
738.80 28.23624
738.90 28.41489
739.00 28.58384
739.10 28.70784
739.20 28.72975
739.30 28.60794
739.40 28.35949
739.50 28.05681
739.60 27.80066
739.70 27.67384
739.80 27.7158
739.90 27.92069
740.00 28.22479
740.10 28.51824
740.20 28.70324
740.30 28.72466
740.40 28.56314
740.50 28.23582
740.60 27.81736
740.70 27.39839
740.80 27.0511
740.90 26.81641
741.00 26.68633
741.10 26.63822
741.20 26.65233
741.30 26.70972
741.40 26.80737
741.50 26.94452
741.60 27.09362
741.70 27.21581
741.80 27.27243
741.90 27.2371
742.00 27.10627
742.10 26.90322
742.20 26.66877
742.30 26.44938
742.40 26.29994
742.50 26.26638
742.60 26.35351
742.70 26.52715
742.80 26.73378
742.90 26.90677
743.00 27.00101
743.10 26.99864
743.20 26.90571
743.30 26.75505
743.40 26.57761
743.50 26.40218
743.60 26.27817
743.70 26.23719
743.80 26.26299
743.90 26.31578
744.00 26.35818
744.10 26.36574
744.20 26.31296
744.30 26.19359
744.40 26.02581
744.50 25.83218
744.60 25.63405
744.70 25.44645
744.80 25.29705
744.90 25.22295
745.00 25.23031
745.10 25.30032
745.20 25.40846
745.30 25.5126
745.40 25.57502
745.50 25.59066
745.60 25.57202
745.70 25.53238
745.80 25.49309
745.90 25.48597
746.00 25.53791
746.10 25.66071
746.20 25.85072
746.30 26.07482
746.40 26.27944
746.50 26.42807
746.60 26.5114
746.70 26.54901
746.80 26.56814
746.90 26.57305
747.00 26.5595
747.10 26.52268
747.20 26.44895
747.30 26.33637
747.40 26.20566
747.50 26.08044
747.60 25.99165
747.70 25.97753
747.80 26.05823
747.90 26.23282
748.00 26.48616
748.10 26.77206
748.20 27.01003
748.30 27.1207
748.40 27.07319
748.50 26.90066
748.60 26.67406
748.70 26.45662
748.80 26.28611
748.90 26.1892
749.00 26.17477
749.10 26.22925
749.20 26.32401
749.30 26.41583
749.40 26.45909
749.50 26.43943
749.60 26.39102
749.70 26.36689
749.80 26.38559
749.90 26.43278
750.00 26.49243
750.10 26.54388
750.20 26.57157
750.30 26.57526
750.40 26.55803
750.50 26.52909
750.60 26.50854
750.70 26.51475
750.80 26.55783
750.90 26.63594
751.00 26.72438
751.10 26.7962
751.20 26.85789
751.30 26.92619
751.40 26.99523
751.50 27.04699
751.60 27.0672
751.70 27.05642
751.80 27.04269
751.90 27.07234
752.00 27.17082
752.10 27.32133
752.20 27.49468
752.30 27.66552
752.40 27.81278
752.50 27.91474
752.60 27.94392
752.70 27.87918
752.80 27.72435
752.90 27.50425
753.00 27.25013
753.10 27.00342
753.20 26.78928
753.30 26.60139
753.40 26.43404
753.50 26.3106
753.60 26.25581
753.70 26.2709
753.80 26.34122
753.90 26.44968
754.00 26.57401
754.10 26.68558
754.20 26.76064
754.30 26.79607
754.40 26.8019
754.50 26.77731
754.60 26.71915
754.70 26.63164
754.80 26.53511
754.90 26.46006
755.00 26.42638
755.10 26.45235
755.20 26.55595
755.30 26.72261
755.40 26.9102
755.50 27.09047
755.60 27.2495
755.70 27.37022
755.80 27.43764
755.90 27.44247
756.00 27.37691
756.10 27.23504
756.20 27.02209
756.30 26.75842
756.40 26.47348
756.50 26.21032
756.60 26.03751
756.70 26.00753
756.80 26.12086
756.90 26.32549
757.00 26.54855
757.10 26.72438
757.20 26.79775
757.30 26.73772
757.40 26.55757
757.50 26.32009
757.60 26.09686
757.70 25.94722
757.80 25.91917
757.90 26.0161
758.00 26.18803
758.10 26.37103
758.20 26.50244
758.30 26.54082
758.40 26.44894
758.50 26.18567
758.60 25.74544
758.70 25.16644
758.80 24.50665
758.90 23.82551
759.00 23.18468
759.10 22.64639
759.20 22.26878
759.30 22.09474
759.40 22.11609
759.50 22.27946
759.60 22.5364
759.70 22.83206
759.80 23.12418
759.90 23.40559
760.00 23.64365
760.10 23.76082
760.20 23.70259
760.30 23.4706
760.40 23.09559
760.50 22.61003
760.60 22.04455
760.70 21.42706
760.80 20.8143
760.90 20.30436
761.00 19.98077
761.10 19.8737
761.20 19.95375
761.30 20.16248
761.40 20.44389
761.50 20.74214
761.60 20.9887
761.70 21.10827
761.80 21.04203
761.90 20.77749
762.00 20.36141
762.10 19.87928
762.20 19.41311
762.30 19.02034
762.40 18.72222
762.50 18.50728
762.60 18.33641
762.70 18.13609
762.80 17.8316
762.90 17.40272
763.00 16.87434
763.10 16.29203
763.20 15.71284
763.30 15.18193
763.40 14.73363
763.50 14.38532
763.60 14.13343
763.70 13.94615
763.80 13.77638
763.90 13.57755
764.00 13.31795
764.10 12.98277
764.20 12.57268
764.30 12.09649
764.40 11.56641
764.50 10.99292
764.60 10.39659
764.70 9.827406
764.80 9.312387
764.90 8.851426
765.00 8.444311
765.10 8.079581
765.20 7.73235
765.30 7.379769
765.40 7.003797
765.50 6.595245
765.60 6.162976
765.70 5.732477
765.80 5.331397
765.90 4.975128
766.00 4.672175
766.10 4.413051
766.20 4.176785
766.30 3.954382
766.40 3.735385
766.50 3.522167
766.60 3.344384
766.70 3.239616
766.80 3.241424
766.90 3.368421
767.00 3.617038
767.10 3.962177
767.20 4.367176
767.30 4.806238
767.40 5.261448
767.50 5.712696
767.60 6.146261
767.70 6.55158
767.80 6.931891
767.90 7.300367
768.00 7.664756
768.10 8.019244
768.20 8.341396
768.30 8.606611
768.40 8.792336
768.50 8.873624
768.60 8.830626
768.70 8.658475
768.80 8.3787
768.90 8.035162
769.00 7.673607
769.10 7.331867
769.20 7.02447
769.30 6.734175
769.40 6.440618
769.50 6.129261
769.60 5.785599
769.70 5.410108
769.80 5.026575
769.90 4.677503
770.00 4.412604
770.10 4.271474
770.20 4.267071
770.30 4.396289
770.40 4.644043
770.50 4.983911
770.60 5.413509
770.70 5.978126
770.80 6.72139
770.90 7.623465
771.00 8.638597
771.10 9.714561
771.20 10.76458
771.30 11.65601
771.40 12.26634
771.50 12.56033
771.60 12.58296
771.70 12.42382
771.80 12.22339
771.90 12.14955
772.00 12.31238
772.10 12.71796
772.20 13.30522
772.30 14.02816
772.40 14.82163
772.50 15.56868
772.60 16.17254
772.70 16.62051
772.80 16.95197
772.90 17.19962
773.00 17.39613
773.10 17.57279
773.20 17.7356
773.30 17.88382
773.40 18.02824
773.50 18.19121
773.60 18.38734
773.70 18.60258
773.80 18.82463
773.90 19.06113
774.00 19.32251
774.10 19.60394
774.20 19.87351
774.30 20.09976
774.40 20.28969
774.50 20.49648
774.60 20.79214
774.70 21.20677
774.80 21.7129
774.90 22.23816
775.00 22.70345
775.10 23.04226
775.20 23.20504
775.30 23.20059
775.40 23.08749
775.50 22.94022
775.60 22.849
775.70 22.88383
775.80 23.0453
775.90 23.25941
776.00 23.4213
776.10 23.45721
776.20 23.35509
776.30 23.15691
776.40 22.92675
776.50 22.74373
776.60 22.68619
776.70 22.78975
776.80 23.04936
776.90 23.43196
777.00 23.87603
777.10 24.30769
777.20 24.65055
777.30 24.84268
777.40 24.86011
777.50 24.72135
777.60 24.49264
777.70 24.26696
777.80 24.12179
777.90 24.11391
778.00 24.26609
778.10 24.53774
778.20 24.83601
778.30 25.063
778.40 25.15379
778.50 25.08155
778.60 24.873
778.70 24.62296
778.80 24.47046
778.90 24.54796
779.00 24.89659
779.10 25.45227
779.20 26.08439
779.30 26.60051
779.40 26.7857
779.50 26.48281
779.60 25.62215
779.70 24.2355
779.80 22.47777
779.90 20.61156
780.00 18.96641
780.10 17.85084
780.20 17.46499
780.30 17.86669
780.40 18.97616
780.50 20.57543
780.60 22.37232
780.70 24.07884
780.80 25.46619
780.90 26.39662
781.00 26.85478
781.10 26.93588
781.20 26.78857
781.30 26.58685
781.40 26.48137
781.50 26.58142
781.60 26.95811
781.70 27.58267
781.80 28.34002
781.90 29.09879
782.00 29.72393
782.10 30.1095
782.20 30.19753
782.30 30.00516
782.40 29.61196
782.50 29.12208
782.60 28.63925
782.70 28.24143
782.80 27.98303
782.90 27.87239
783.00 27.84784
783.10 27.85562
783.20 27.88461
783.30 27.93172
783.40 27.99608
783.50 28.10059
783.60 28.28519
783.70 28.55291
783.80 28.8792
783.90 29.24922
784.00 29.66562
784.10 30.12149
784.20 30.59588
784.30 31.07823
784.40 31.55639
784.50 31.98903
784.60 32.30331
784.70 32.48149
784.80 32.61568
784.90 32.79538
785.00 33.02115
785.10 33.25937
785.20 33.49262
785.30 33.70652
785.40 33.87223
785.50 33.96631
785.60 33.98713
785.70 33.94024
785.80 33.84088
785.90 33.70904
786.00 33.5898
786.10 33.50826
786.20 33.3973
786.30 33.17898
786.40 32.89932
786.50 32.67947
786.60 32.59432
786.70 32.63991
786.80 32.75237
786.90 32.83938
787.00 32.78759
787.10 32.51292
787.20 32.00885
787.30 31.36489
787.40 30.72189
787.50 30.22172
787.60 30.00499
787.70 30.19115
787.80 30.7878
787.90 31.66144
788.00 32.6265
788.10 33.51478
788.20 34.20053
788.30 34.6192
788.40 34.80785
788.50 34.84675
788.60 34.78683
788.70 34.674
788.80 34.55283
788.90 34.46366
789.00 34.43861
789.10 34.45226
789.20 34.44817
789.30 34.40968
789.40 34.35094
789.50 34.27076
789.60 34.15898
789.70 34.007
789.80 33.78884
789.90 33.49213
790.00 33.16515
790.10 32.88898
790.20 32.72483
790.30 32.70057
790.40 32.80165
790.50 32.98845
790.60 33.19481
790.70 33.3685
790.80 33.54997
790.90 33.84538
791.00 34.32381
791.10 34.9747
791.20 35.68159
791.30 36.31375
791.40 36.78666
791.50 37.0253
791.60 37.01625
791.70 36.78829
791.80 36.40159
791.90 35.9743
792.00 35.6521
792.10 35.50474
792.20 35.4493
792.30 35.32426
792.40 35.02727
792.50 34.57129
792.60 34.08394
792.70 33.71957
792.80 33.60181
792.90 33.80166
793.00 34.31515
793.10 35.08418
793.20 35.99293
793.30 36.86363
793.40 37.51732
793.50 37.83741
793.60 37.78588
793.70 37.42514
793.80 36.87249
793.90 36.23156
794.00 35.56526
794.10 34.88837
794.20 34.15147
794.30 33.26643
794.40 32.15877
794.50 30.84731
794.60 29.45123
794.70 28.15245
794.80 27.16247
794.90 26.67977
795.00 26.83964
795.10 27.64436
795.20 28.96883
795.30 30.60138
795.40 32.30914
795.50 33.85981
795.60 35.07266
795.70 35.87705
795.80 36.31261
795.90 36.51782
796.00 36.64654
796.10 36.81518
796.20 37.10122
796.30 37.53472
796.40 38.07861
796.50 38.62941
796.60 39.06514
796.70 39.30014
796.80 39.30508
796.90 39.11451
797.00 38.79731
797.10 38.43297
797.20 38.09016
797.30 37.79213
797.40 37.58412
797.50 37.53025
797.60 37.64847
797.70 37.8895
797.80 38.18286
797.90 38.47679
798.00 38.71652
798.10 38.83887
798.20 38.77464
798.30 38.48605
798.40 37.9989
798.50 37.39676
798.60 36.8033
798.70 36.34855
798.80 36.10173
798.90 36.06117
799.00 36.23569
799.10 36.65255
799.20 37.27015
799.30 37.97732
799.40 38.648
799.50 39.18013
799.60 39.5341
799.70 39.71682
799.80 39.76854
799.90 39.74792
800.00 39.70327
800.10 39.66893
800.20 39.67627
800.30 39.74351
800.40 39.82462
800.50 39.85096
800.60 39.8003
800.70 39.69693
800.80 39.61969
800.90 39.68606
801.00 39.97779
801.10 40.50041
801.20 41.17342
801.30 41.86381
801.40 42.45063
801.50 42.83171
801.60 42.9463
801.70 42.80284
801.80 42.47896
801.90 42.08191
802.00 41.73516
802.10 41.57953
802.20 41.70043
802.30 42.10411
802.40 42.7407
802.50 43.51847
802.60 44.35165
802.70 45.16486
802.80 45.87278
802.90 46.4012
803.00 46.70912
803.10 46.79474
803.20 46.67696
803.30 46.39176
803.40 45.99412
803.50 45.54479
803.60 45.1097
803.70 44.73607
803.80 44.45527
803.90 44.29539
804.00 44.2705
804.10 44.38941
804.20 44.64348
804.30 44.99362
804.40 45.36869
804.50 45.71328
804.60 46.0154
804.70 46.29895
804.80 46.63332
804.90 47.08467
805.00 47.68224
805.10 48.4119
805.20 49.21562
805.30 50.02407
805.40 50.75721
805.50 51.34074
805.60 51.75004
805.70 52.00645
805.80 52.15861
805.90 52.25314
806.00 52.31214
806.10 52.32425
806.20 52.24461
806.30 52.04569
806.40 51.73867
806.50 51.3619
806.60 50.98242
806.70 50.68033
806.80 50.53684
806.90 50.61427
807.00 50.92339
807.10 51.42586
807.20 52.07054
807.30 52.79269
807.40 53.52254
807.50 54.20582
807.60 54.79235
807.70 55.24078
807.80 55.53877
807.90 55.73514
808.00 55.91638
808.10 56.14748
808.20 56.44945
808.30 56.79327
808.40 57.11929
808.50 57.35715
808.60 57.44757
808.70 57.37751
808.80 57.1804
808.90 56.93413
809.00 56.7383
809.10 56.66594
809.20 56.74852
809.30 56.94886
809.40 57.16981
809.50 57.31179
809.60 57.3118
809.70 57.15572
809.80 56.88284
809.90 56.58174
810.00 56.3483
810.10 56.23685
810.20 56.24811
810.30 56.35049
810.40 56.5067
810.50 56.68476
810.60 56.85632
810.70 57.00801
810.80 57.15913
810.90 57.35018
811.00 57.60747
811.10 57.92624
811.20 58.26787
811.30 58.58586
811.40 58.86218
811.50 59.11674
811.60 59.41201
811.70 59.79197
811.80 60.23236
811.90 60.67672
812.00 61.07145
812.10 61.37557
812.20 61.58101
812.30 61.71263
812.40 61.82421
812.50 61.99202
812.60 62.28722
812.70 62.74147
812.80 63.31715
812.90 63.92931
813.00 64.47154
813.10 64.85133
813.20 65.04703
813.30 65.12702
813.40 65.20564
813.50 65.38906
813.60 65.71946
813.70 66.15058
813.80 66.5682
813.90 66.82773
814.00 66.79323
814.10 66.39932
814.20 65.68215
814.30 64.75335
814.40 63.74616
814.50 62.81751
814.60 62.13035
814.70 61.77397
814.80 61.75741
814.90 62.02326
815.00 62.47205
815.10 63.00055
815.20 63.53414
815.30 64.02471
815.40 64.471
815.50 64.89079
815.60 65.27847
815.70 65.62294
815.80 65.93776
815.90 66.24821
816.00 66.5874
816.10 66.99835
816.20 67.49568
816.30 68.03893
816.40 68.55726
816.50 69.0105
816.60 69.39631
816.70 69.72608
816.80 69.99919
816.90 70.22319
817.00 70.42779
817.10 70.64626
817.20 70.90646
817.30 71.20645
817.40 71.48022
817.50 71.59547
817.60 71.40175
817.70 70.7967
817.80 69.71792
817.90 68.12213
818.00 66.02504
818.10 63.56056
818.20 60.98281
818.30 58.63087
818.40 56.86507
818.50 55.95904
818.60 56.0109
818.70 56.8979
818.80 58.29991
818.90 59.77029
819.00 60.82702
819.10 61.07924
819.20 60.35683
819.30 58.76464
819.40 56.64798
819.50 54.5085
819.60 52.86762
819.70 52.10445
819.80 52.37756
819.90 53.6364
820.00 55.66379
820.10 58.13687
820.20 60.69526
820.30 63.02516
820.40 64.94216
820.50 66.40225
820.60 67.45871
820.70 68.19435
820.80 68.69634
820.90 69.04085
821.00 69.26045
821.10 69.36014
821.20 69.34577
821.30 69.24768
821.40 69.10025
821.50 68.92095
821.60 68.74834
821.70 68.65217
821.80 68.69249
821.90 68.89737
822.00 69.24804
822.10 69.70547
822.20 70.22665
822.30 70.75234
822.40 71.25326
822.50 71.73641
822.60 72.21598
822.70 72.66229
822.80 73.03565
822.90 73.34427
823.00 73.60088
823.10 73.79463
823.20 73.89988
823.30 73.91653
823.40 73.90195
823.50 73.91815
823.60 73.99177
823.70 74.15881
823.80 74.44455
823.90 74.82246
824.00 75.23608
824.10 75.65676
824.20 76.0879
824.30 76.54096
824.40 77.04474
824.50 77.64008
824.60 78.34776
824.70 79.08995
824.80 79.70445
824.90 80.06155
825.00 80.11025
825.10 79.83626
825.20 79.25239
825.30 78.43111
825.40 77.52332
825.50 76.71019
825.60 76.14595
825.70 75.92588
825.80 76.03943
825.90 76.38745
826.00 76.84829
826.10 77.33505
826.20 77.79988
826.30 78.19878
826.40 78.49388
826.50 78.66934
826.60 78.76344
826.70 78.84716
826.80 78.94767
826.90 79.05023
827.00 79.11218
827.10 79.10217
827.20 79.03594
827.30 78.95947
827.40 78.92493
827.50 78.99027
827.60 79.19905
827.70 79.56532
827.80 80.06111
827.90 80.58732
828.00 80.99464
828.10 81.15152
828.20 80.99517
828.30 80.56033
828.40 79.97376
828.50 79.36365
828.60 78.76248
828.70 78.13945
828.80 77.47574
828.90 76.75728
829.00 75.99161
829.10 75.21615
829.20 74.48979
829.30 73.91904
829.40 73.63958
829.50 73.74975
829.60 74.25667
829.70 75.038
829.80 75.85857
829.90 76.44691
830.00 76.66006
830.10 76.48961
830.20 75.96593
830.30 75.16839
830.40 74.20971
830.50 73.23702
830.60 72.41702
830.70 71.87824
830.80 71.6786
830.90 71.7959
831.00 72.16314
831.10 72.69024
831.20 73.27847
831.30 73.86372
831.40 74.39023
831.50 74.81198
831.60 75.12501
831.70 75.36554
831.80 75.59748
831.90 75.86645
832.00 76.17558
832.10 76.51429
832.20 76.84008
832.30 77.07889
832.40 77.15176
832.50 77.01836
832.60 76.69987
832.70 76.28097
832.80 75.881
832.90 75.60204
833.00 75.51513
833.10 75.6343
833.20 75.91623
833.30 76.29672
833.40 76.71857
833.50 77.13437
833.60 77.51333
833.70 77.86177
833.80 78.24359
833.90 78.72676
834.00 79.3392
834.10 80.03933
834.20 80.82156
834.30 81.7025
834.40 82.61412
834.50 83.45386
834.60 84.07503
834.70 84.34822
834.80 84.22711
834.90 83.73839
835.00 82.99334
835.10 82.17007
835.20 81.43677
835.30 80.90606
835.40 80.61703
835.50 80.56986
835.60 80.66969
835.70 80.74464
835.80 80.68332
835.90 80.46488
836.00 80.18795
836.10 79.99085
836.20 79.96377
836.30 80.1669
836.40 80.62095
836.50 81.28
836.60 82.03627
836.70 82.75262
836.80 83.31745
836.90 83.63622
837.00 83.61068
837.10 83.21203
837.20 82.48955
837.30 81.53935
837.40 80.50547
837.50 79.57147
837.60 78.93592
837.70 78.78527
837.80 79.19587
837.90 80.07835
838.00 81.23315
838.10 82.41162
838.20 83.36439
838.30 83.86896
838.40 83.77921
838.50 83.07548
838.60 81.88302
838.70 80.41383
838.80 78.9003
838.90 77.55468
839.00 76.54673
839.10 75.95302
839.20 75.78033
839.30 76.04029
839.40 76.73942
839.50 77.85941
839.60 79.39022
839.70 81.29906
839.80 83.42662
839.90 85.51842
840.00 87.29362
840.10 88.50639
840.20 89.04876
840.30 88.95562
840.40 88.37185
840.50 87.49966
840.60 86.56203
840.70 85.74786
840.80 85.14494
840.90 84.78248
841.00 84.61233
841.10 84.54105
841.20 84.57228
841.30 84.74625
841.40 85.07628
841.50 85.55786
841.60 86.11181
841.70 86.60863
841.80 86.90206
841.90 86.879
842.00 86.51363
842.10 85.88606
842.20 85.15329
842.30 84.4791
842.40 83.99388
842.50 83.78848
842.60 83.91053
842.70 84.42894
842.80 85.3627
842.90 86.56882
843.00 87.80199
843.10 88.73331
843.20 89.03043
843.30 88.4869
843.40 87.07214
843.50 84.93077
843.60 82.33413
843.70 79.62051
843.80 77.13623
843.90 75.14994
844.00 73.76714
844.10 72.86118
844.20 72.20281
844.30 71.62578
844.40 71.02676
844.50 70.40859
844.60 69.86159
844.70 69.48433
844.80 69.28253
844.90 69.16587
845.00 69.08506
845.10 69.01901
845.20 68.92887
845.30 68.77993
845.40 68.54566
845.50 68.22978
845.60 67.88459
845.70 67.57427
845.80 67.34846
845.90 67.23298
846.00 67.26245
846.10 67.46682
846.20 67.82514
846.30 68.26011
846.40 68.68696
846.50 69.04718
846.60 69.27989
846.70 69.33259
846.80 69.18282
846.90 68.85447
847.00 68.38276
847.10 67.82875
847.20 67.27837
847.30 66.81425
847.40 66.46516
847.50 66.20356
847.60 66.06237
847.70 66.10198
847.80 66.27508
847.90 66.446
848.00 66.49048
848.10 66.3458
848.20 66.07698
848.30 65.80933
848.40 65.6213
848.50 65.54295
848.60 65.5918
848.70 65.80566
848.80 66.22552
848.90 66.86071
849.00 67.65673
849.10 68.53843
849.20 69.44235
849.30 70.28493
849.40 70.95892
849.50 71.35148
849.60 71.34064
849.70 70.88343
849.80 70.09358
849.90 69.2195
850.00 68.54518
850.10 68.27637
850.20 68.50636
850.30 69.18734
850.40 70.17936
850.50 71.29672
850.60 72.30245
850.70 72.97499
850.80 73.18561
850.90 72.92923
851.00 72.30449
851.10 71.4392
851.20 70.44493
851.30 69.39966
851.40 68.34963
851.50 67.28725
851.60 66.13038
851.70 64.77723
851.80 63.14867
851.90 61.22373
852.00 59.13411
852.10 57.19876
852.20 55.80301
852.30 55.25595
852.40 55.70594
852.50 57.13438
852.60 59.37438
852.70 62.10339
852.80 64.89788
852.90 67.37494
853.00 69.28743
853.10 70.57564
853.20 71.33572
853.30 71.72498
853.40 71.88833
853.50 71.91031
853.60 71.86092
853.70 71.82897
853.80 71.8853
853.90 72.05358
854.00 72.30494
854.10 72.59046
854.20 72.8786
854.30 73.14177
854.40 73.37915
854.50 73.61442
854.60 73.91554
854.70 74.38768
854.80 75.08265
854.90 75.96343
855.00 76.91634
855.10 77.7905
855.20 78.46129
855.30 78.87147
855.40 79.02394
855.50 78.952
855.60 78.69343
855.70 78.29414
855.80 77.80577
855.90 77.28421
856.00 76.7356
856.10 76.14265
856.20 75.55955
856.30 75.10177
856.40 74.87685
856.50 74.93485
856.60 75.25213
856.70 75.73739
856.80 76.27233
856.90 76.73259
857.00 77.02425
857.10 77.10357
857.20 76.95997
857.30 76.61935
857.40 76.16739
857.50 75.72454
857.60 75.38405
857.70 75.19453
857.80 75.18898
857.90 75.39669
858.00 75.81255
858.10 76.39193
858.20 77.06279
858.30 77.7513
858.40 78.4167
858.50 79.03188
858.60 79.55436
858.70 79.91922
858.80 80.0725
858.90 79.9799
859.00 79.62757
859.10 79.08459
859.20 78.49142
859.30 77.98745
859.40 77.70517
859.50 77.73298
859.60 78.05172
859.70 78.56941
859.80 79.1445
859.90 79.61425
860.00 79.8691
860.10 79.87906
860.20 79.67624
860.30 79.35389
860.40 79.02012
860.50 78.70777
860.60 78.35378
860.70 77.84666
860.80 77.05644
860.90 75.88896
861.00 74.36121
861.10 72.52792
861.20 70.42051
861.30 68.10505
861.40 65.7064
861.50 63.39952
861.60 61.34954
861.70 59.6599
861.80 58.39077
861.90 57.56272
862.00 57.13066
862.10 56.98425
862.20 56.9833
862.30 56.99231
862.40 56.89458
862.50 56.63758
862.60 56.26333
862.70 55.86533
862.80 55.52331
862.90 55.25916
863.00 55.06674
863.10 54.952
863.20 54.92455
863.30 54.9674
863.40 55.03984
863.50 55.12287
863.60 55.22936
863.70 55.3782
863.80 55.57201
863.90 55.82017
864.00 56.15545
864.10 56.5876
864.20 57.08873
864.30 57.62023
864.40 58.13657
864.50 58.63405
864.60 59.14629
864.70 59.69167
864.80 60.29502
864.90 60.99242
865.00 61.82885
865.10 62.8103
865.20 63.88452
865.30 64.98997
865.40 66.04755
865.50 66.98185
865.60 67.76838
865.70 68.43886
865.80 69.02828
865.90 69.47663
866.00 69.68845
866.10 69.64441
866.20 69.40409
866.30 69.04972
866.40 68.6197
866.50 68.16315
866.60 67.764
866.70 67.45801
866.80 67.21882
866.90 67.02296
867.00 66.86644
867.10 66.70621
867.20 66.49252
867.30 66.27591
867.40 66.1799
867.50 66.29361
867.60 66.61925
867.70 67.09602
867.80 67.616
867.90 68.0165
868.00 68.15664
868.10 67.97906
868.20 67.51374
868.30 66.86697
868.40 66.17838
868.50 65.58478
868.60 65.19446
868.70 65.00457
868.80 64.85279
868.90 64.52175
869.00 63.82037
869.10 62.59389
869.20 60.80068
869.30 58.55572
869.40 56.06372
869.50 53.61301
869.60 51.53014
869.70 50.01984
869.80 49.1372
869.90 48.87227
870.00 49.16196
870.10 49.87432
870.20 50.85694
870.30 51.93375
870.40 52.92883
870.50 53.73487
870.60 54.28862
870.70 54.53853
870.80 54.44112
870.90 53.97436
871.00 53.17807
871.10 52.19462
871.20 51.21624
871.30 50.39331
871.40 49.8092
871.50 49.48897
871.60 49.40449
871.70 49.49572
871.80 49.68405
871.90 49.88795
872.00 50.06369
872.10 50.22517
872.20 50.4733
872.30 50.92416
872.40 51.64198
872.50 52.62448
872.60 53.79466
872.70 55.00346
872.80 56.06057
872.90 56.83559
873.00 57.27983
873.10 57.39237
873.20 57.19419
873.30 56.73758
873.40 56.12541
873.50 55.50186
873.60 55.01388
873.70 54.76722
873.80 54.81112
873.90 55.17126
874.00 55.84849
874.10 56.8431
874.20 58.13362
874.30 59.56337
874.40 60.87654
874.50 61.83203
874.60 62.28865
874.70 62.24007
874.80 61.80389
874.90 61.17809
875.00 60.57243
875.10 60.17261
875.20 60.10608
875.30 60.41916
875.40 61.11288
875.50 62.13923
875.60 63.41888
875.70 64.89382
875.80 66.4868
875.90 68.12705
876.00 69.7146
876.10 71.05278
876.20 71.91508
876.30 72.16427
876.40 71.78854
876.50 70.94559
876.60 69.97011
876.70 69.21866
876.80 68.96705
876.90 69.34772
877.00 70.37546
877.10 71.92736
877.20 73.79012
877.30 75.6981
877.40 77.38481
877.50 78.70705
877.60 79.55604
877.70 79.84871
877.80 79.63273
877.90 78.99542
878.00 77.98027
878.10 76.67041
878.20 75.22702
878.30 73.85146
878.40 72.6529
878.50 71.67018
878.60 70.95277
878.70 70.54376
878.80 70.51666
878.90 70.89531
879.00 71.64555
879.10 72.68637
879.20 73.86254
879.30 75.01568
879.40 76.01751
879.50 76.76652
879.60 77.1363
879.70 76.9831
879.80 76.22748
879.90 74.90435
880.00 73.15239
880.10 71.18569
880.20 69.19591
880.30 67.32823
880.40 65.7534
880.50 64.64024
880.60 64.1351
880.70 64.35581
880.80 65.33363
880.90 66.98955
881.00 69.19793
881.10 71.8571
881.20 74.87196
881.30 78.10462
881.40 81.35348
881.50 84.35891
881.60 86.86731
881.70 88.69071
881.80 89.68671
881.90 89.76798
882.00 88.89846
882.10 87.12406
882.20 84.72145
882.30 82.22814
882.40 80.22346
882.50 79.17983
882.60 79.44909
882.70 81.07506
882.80 83.6959
882.90 86.69211
883.00 89.37045
883.10 91.13913
883.20 91.76599
883.30 91.47501
883.40 90.737
883.50 90.0544
883.60 89.82176
883.70 90.21446
883.80 91.18362
883.90 92.41368
884.00 93.34424
884.10 93.46047
884.20 92.46285
884.30 90.27478
884.40 87.1075
884.50 83.45038
884.60 79.86864
884.70 76.84467
884.80 74.82361
884.90 74.17807
885.00 75.03974
885.10 77.19215
885.20 80.13962
885.30 83.24202
885.40 85.83904
885.50 87.4195
885.60 87.75436
885.70 86.92091
885.80 85.19395
885.90 82.95994
886.00 80.68436
886.10 78.79505
886.20 77.55516
886.30 77.03498
886.40 77.13935
886.50 77.68622
886.60 78.45339
886.70 79.14105
886.80 79.39878
886.90 78.93731
887.00 77.64095
887.10 75.63211
887.20 73.26536
887.30 71.05151
887.40 69.50705
887.50 69.0108
887.60 69.74562
887.70 71.62002
887.80 74.27352
887.90 77.20305
888.00 79.88427
888.10 81.95181
888.20 83.26398
888.30 83.9737
888.40 84.57941
888.50 85.60536
888.60 87.31918
888.70 89.65259
888.80 92.20044
888.90 94.37635
889.00 95.61926
889.10 95.53372
889.20 93.94472
889.30 90.9366
889.40 86.90542
889.50 82.51903
889.60 78.60043
889.70 75.81689
889.80 74.45238
889.90 74.57886
890.00 76.1429
890.10 78.9198
890.20 82.53107
890.30 86.47611
890.40 90.12185
890.50 92.84517
890.60 94.248
890.70 94.17712
890.80 92.73312
890.90 90.28794
891.00 87.43966
891.10 84.8702
891.20 83.10552
891.30 82.37261
891.40 82.68816
891.50 83.96789
891.60 86.01354
891.70 88.54179
891.80 91.29139
891.90 94.01382
892.00 96.39553
892.10 98.08297
892.20 98.79073
892.30 98.3923
892.40 96.90345
892.50 94.50273
892.60 91.62256
892.70 88.87274
892.80 86.8413
892.90 85.93227
893.00 86.30587
893.10 87.84256
893.20 90.12458
893.30 92.52795
893.40 94.42231
893.50 95.37306
893.60 95.16158
893.70 93.74012
893.80 91.29091
893.90 88.17147
894.00 84.77951
894.10 81.54212
894.20 78.85819
894.30 77.03122
894.40 76.24419
894.50 76.47035
894.60 77.47972
894.70 78.94105
894.80 80.46985
894.90 81.69593
895.00 82.37771
895.10 82.54998
895.20 82.48999
895.30 82.64272
895.40 83.51738
895.50 85.40016
895.60 88.24589
895.70 91.75139
895.80 95.413
895.90 98.62729
896.00 100.8242
896.10 101.6031
896.20 100.8571
896.30 98.78874
896.40 95.82097
896.50 92.46907
896.60 89.31304
896.70 86.85581
896.80 85.36116
896.90 84.93655
897.00 85.54398
897.10 86.95726
897.20 88.84483
897.30 90.8953
897.40 92.87826
897.50 94.61447
897.60 95.97874
897.70 96.93703
897.80 97.5523
897.90 97.95941
898.00 98.25636
898.10 98.53137
898.20 99.00434
898.30 99.95061
898.40 101.5068
898.50 103.589
898.60 105.9262
898.70 108.1241
898.80 109.7689
898.90 110.5919
899.00 110.5014
899.10 109.5215
899.20 107.7882
899.30 105.4767
899.40 102.839
899.50 100.2222
899.60 97.88311
899.70 95.99115
899.80 94.81996
899.90 94.75529
900.00 95.19527
900.10 95.63526
900.20 96.07524
900.30 96.51523
900.40 96.95522
900.50 97.3952
900.60 97.83519
900.70 98.27517
900.80 98.71516
900.90 99.15514
901.00 99.59513
901.10 100.0351
901.20 100.4751
901.30 100.9151
901.40 101.3551
901.50 101.7951
901.60 102.235
901.70 102.675
901.80 103.115
901.90 103.555
902.00 103.995
902.10 104.435
902.20 104.8749
902.30 105.3149
902.40 105.7549
902.50 106.1949
902.60 106.6349
902.70 107.0749
902.80 107.5149
902.90 107.9548
903.00 108.3948
903.10 108.8348
903.20 108.9228
903.30 109.0073
903.40 109.0918
903.50 109.1763
903.60 109.2608
903.70 109.3452
903.80 109.4297
903.90 109.5142
904.00 109.5987
904.10 109.6832
904.20 109.7676
904.30 109.8521
904.40 109.9366
904.50 110.0211
904.60 110.1056
904.70 110.19
904.80 110.2745
904.90 110.359
905.00 110.4435
905.10 110.5279
905.20 110.6124
905.30 110.6969
905.40 110.7814
905.50 110.8659
905.60 110.9503
905.70 111.0348
905.80 111.1193
905.90 111.2038
906.00 111.2883
906.10 111.3727
906.20 111.4572
906.30 111.5417
906.40 111.6262
906.50 111.7107
906.60 111.8295
906.70 111.9631
906.80 112.0966
906.90 112.2302
907.00 112.3638
907.10 112.4973
907.20 112.6309
907.30 112.7645
907.40 112.8981
907.50 113.0316
907.60 113.1652
907.70 113.2988
907.80 113.4323
907.90 113.5659
908.00 113.6995
908.10 113.8331
908.20 113.9666
908.30 114.1002
908.40 114.2338
908.50 114.3673
908.60 114.5009
908.70 114.6345
908.80 114.7681
908.90 114.9016
909.00 115.0352
909.10 115.1688
909.20 115.3023
909.30 115.4359
909.40 115.5695
909.50 115.703
909.60 115.8366
909.70 115.9702
909.80 116.1038
909.90 116.2373
910.00 116.359
910.10 116.4406
910.20 116.5223
910.30 116.604
910.40 116.6857
910.50 116.7673
910.60 116.849
910.70 116.9307
910.80 117.0124
910.90 117.094
911.00 117.1757
911.10 117.2574
911.20 117.3391
911.30 117.4207
911.40 117.5024
911.50 117.5841
911.60 117.6658
911.70 117.7475
911.80 117.8291
911.90 117.9108
912.00 117.9925
912.10 118.0742
912.20 118.1558
912.30 118.2375
912.40 118.3192
912.50 118.4009
912.60 118.4825
912.70 118.5642
912.80 118.6459
912.90 118.7276
913.00 118.8092
913.10 118.8909
913.20 118.9726
913.30 119.0543
913.40 119.1359
913.50 119.2746
913.60 119.4562
913.70 119.6378
913.80 119.8194
913.90 120.001
914.00 120.1826
914.10 120.3642
914.20 120.5458
914.30 120.7274
914.40 120.909
914.50 121.0906
914.60 121.2722
914.70 121.4538
914.80 121.6354
914.90 121.817
915.00 121.9986
915.10 122.1802
915.20 122.3618
915.30 122.5434
915.40 122.725
915.50 122.9066
915.60 123.0882
915.70 123.2698
915.80 123.4514
915.90 123.633
916.00 123.8146
916.10 123.9962
916.20 124.1778
916.30 124.3594
916.40 124.541
916.50 124.7226
916.60 124.9042
916.70 125.0858
916.80 125.2674
916.90 125.449
917.00 125.567
917.10 125.6627
917.20 125.7583
917.30 125.8539
917.40 125.9496
917.50 126.0452
917.60 126.1408
917.70 126.2365
917.80 126.3321
917.90 126.4277
918.00 126.5234
918.10 126.619
918.20 126.7146
918.30 126.8103
918.40 126.9059
918.50 127.0016
918.60 127.0972
918.70 127.1928
918.80 127.2885
918.90 127.3841
919.00 127.4797
919.10 127.5754
919.20 127.671
919.30 127.7666
919.40 127.8623
919.50 127.9579
919.60 128.0536
919.70 128.1492
919.80 128.2448
919.90 128.3405
920.00 128.4361
920.10 128.5317
920.20 128.6274
920.30 128.723
920.40 128.8186
920.50 128.9384
920.60 129.0667
920.70 129.1949
920.80 129.3232
920.90 129.4515
921.00 129.5797
921.10 129.708
921.20 129.8363
921.30 129.9645
921.40 130.0928
921.50 130.221
921.60 130.3493
921.70 130.4776
921.80 130.6058
921.90 130.7341
922.00 130.8623
922.10 130.9906
922.20 131.1189
922.30 131.2471
922.40 131.3754
922.50 131.5037
922.60 131.6319
922.70 131.7602
922.80 131.8884
922.90 132.0167
923.00 132.145
923.10 132.2732
923.20 132.4015
923.30 132.5298
923.40 132.658
923.50 132.7863
923.60 132.9145
923.70 133.0428
923.80 133.1711
923.90 133.2993
924.00 133.2876
924.10 133.1659
924.20 133.0443
924.30 132.9226
924.40 132.8009
924.50 132.6793
924.60 132.5576
924.70 132.4359
924.80 132.3142
924.90 132.1926
925.00 132.0709
925.10 131.9492
925.20 131.8275
925.30 131.7059
925.40 131.5842
925.50 131.4625
925.60 131.3408
925.70 131.2192
925.80 131.0975
925.90 130.9758
926.00 130.8542
926.10 130.7325
926.20 130.6108
926.30 130.4891
926.40 130.3675
926.50 130.2458
926.60 130.1241
926.70 130.0024
926.80 129.8808
926.90 129.7591
927.00 129.6374
927.10 129.5157
927.20 129.3941
927.30 129.2724
927.40 129.1507
927.50 129.0275
927.60 128.898
927.70 128.7686
927.80 128.6391
927.90 128.5096
928.00 128.3802
928.10 128.2507
928.20 128.1212
928.30 127.9918
928.40 127.8623
928.50 127.7328
928.60 127.6034
928.70 127.4739
928.80 127.3444
928.90 127.215
929.00 127.0855
929.10 126.956
929.20 126.8266
929.30 126.6971
929.40 126.5676
929.50 126.4381
929.60 126.3087
929.70 126.1792
929.80 126.0497
929.90 125.9203
930.00 125.7908
930.10 125.6613
930.20 125.5319
930.30 125.4024
930.40 125.2729
930.50 125.1435
930.60 125.014
930.70 124.8845
930.80 124.7551
930.90 124.6256
931.00 124.4961
931.10 124.6198
931.20 124.8682
931.30 125.1165
931.40 125.3649
931.50 125.6133
931.60 125.8616
931.70 126.11
931.80 126.3583
931.90 126.6067
932.00 126.8551
932.10 127.1034
932.20 127.3518
932.30 127.6001
932.40 127.8485
932.50 128.0969
932.60 128.3452
932.70 128.5936
932.80 128.8419
932.90 129.0903
933.00 129.3387
933.10 129.587
933.20 129.8354
933.30 130.0837
933.40 130.3321
933.50 130.5805
933.60 130.8288
933.70 131.0772
933.80 131.3255
933.90 131.5739
934.00 131.8223
934.10 132.0706
934.20 132.319
934.30 132.5673
934.40 132.8157
934.50 133.0641
934.60 133.3124
934.70 133.4953
934.80 133.6761
934.90 133.8569
935.00 134.0377
935.10 134.2185
935.20 134.3993
935.30 134.5802
935.40 134.761
935.50 134.9418
935.60 135.1226
935.70 135.3034
935.80 135.4842
935.90 135.665
936.00 135.8459
936.10 136.0267
936.20 136.2075
936.30 136.3883
936.40 136.5691
936.50 136.7499
936.60 136.9307
936.70 137.1116
936.80 137.2924
936.90 137.4732
937.00 137.654
937.10 137.8348
937.20 138.0156
937.30 138.1964
937.40 138.3773
937.50 138.5581
937.60 138.7389
937.70 138.9197
937.80 139.1005
937.90 139.2813
938.00 139.4621
938.10 139.643
938.20 139.8046
938.30 139.7941
938.40 139.7835
938.50 139.773
938.60 139.7624
938.70 139.7519
938.80 139.7413
938.90 139.7307
939.00 139.7202
939.10 139.7096
939.20 139.6991
939.30 139.6885
939.40 139.678
939.50 139.6674
939.60 139.6568
939.70 139.6463
939.80 139.6357
939.90 139.6252
940.00 139.6146
940.10 139.6041
940.20 139.5935
940.30 139.5829
940.40 139.5724
940.50 139.5618
940.60 139.5513
940.70 139.5407
940.80 139.5302
940.90 139.5196
941.00 139.509
941.10 139.4985
941.20 139.4879
941.30 139.4774
941.40 139.4668
941.50 139.4563
941.60 139.4457
941.70 139.4352
941.80 139.431
941.90 139.5116
942.00 139.5921
942.10 139.6727
942.20 139.7533
942.30 139.8339
942.40 139.9144
942.50 139.995
942.60 140.0756
942.70 140.1562
942.80 140.2368
942.90 140.3173
943.00 140.3979
943.10 140.4785
943.20 140.5591
943.30 140.6397
943.40 140.7202
943.50 140.8008
943.60 140.8814
943.70 140.962
943.80 141.0425
943.90 141.1231
944.00 141.2037
944.10 141.2843
944.20 141.3649
944.30 141.4454
944.40 141.526
944.50 141.6066
944.60 141.6872
944.70 141.7678
944.80 141.8483
944.90 141.9289
945.00 142.0095
945.10 142.0901
945.20 142.1707
945.30 142.2512
945.40 142.3318
945.50 142.4735
945.60 142.6244
945.70 142.7753
945.80 142.9261
945.90 143.077
946.00 143.2278
946.10 143.3787
946.20 143.5296
946.30 143.6804
946.40 143.8313
946.50 143.9822
946.60 144.133
946.70 144.2839
946.80 144.4347
946.90 144.5856
947.00 144.7365
947.10 144.8873
947.20 145.0382
947.30 145.189
947.40 145.3399
947.50 145.4908
947.60 145.6416
947.70 145.7925
947.80 145.9434
947.90 146.0942
948.00 146.2451
948.10 146.3959
948.20 146.5468
948.30 146.6977
948.40 146.8485
948.50 146.9994
948.60 147.1502
948.70 147.3011
948.80 147.452
948.90 147.6028
949.00 147.7537
949.10 147.9211
949.20 148.1049
949.30 148.2888
949.40 148.4726
949.50 148.6565
949.60 148.8404
949.70 149.0242
949.80 149.2081
949.90 149.392
950.00 149.5758
950.10 149.7597
950.20 149.9436
950.30 150.1274
950.40 150.3113
950.50 150.4952
950.60 150.679
950.70 150.8629
950.80 151.0467
950.90 151.2306
951.00 151.4145
951.10 151.5983
951.20 151.7822
951.30 151.9661
951.40 152.1499
951.50 152.3338
951.60 152.5177
951.70 152.7015
951.80 152.8854
951.90 153.0693
952.00 153.2531
952.10 153.437
952.20 153.6208
952.30 153.8047
952.40 153.9886
952.50 154.1724
952.60 154.3563
952.70 154.5402
952.80 154.5667
952.90 154.5884
953.00 154.6101
953.10 154.6319
953.20 154.6536
953.30 154.6753
953.40 154.697
953.50 154.7187
953.60 154.7404
953.70 154.7621
953.80 154.7838
953.90 154.8055
954.00 154.8272
954.10 154.8489
954.20 154.8706
954.30 154.8923
954.40 154.914
954.50 154.9357
954.60 154.9574
954.70 154.9791
954.80 155.0008
954.90 155.0225
955.00 155.0443
955.10 155.066
955.20 155.0877
955.30 155.1094
955.40 155.1311
955.50 155.1528
955.60 155.1745
955.70 155.1962
955.80 155.2179
955.90 155.2396
956.00 155.2613
956.10 155.283
956.20 155.3047
956.30 155.3264
956.40 155.35
956.50 155.3784
956.60 155.4069
956.70 155.4353
956.80 155.4638
956.90 155.4922
957.00 155.5206
957.10 155.5491
957.20 155.5775
957.30 155.606
957.40 155.6344
957.50 155.6628
957.60 155.6913
957.70 155.7197
957.80 155.7482
957.90 155.7766
958.00 155.805
958.10 155.8335
958.20 155.8619
958.30 155.8904
958.40 155.9188
958.50 155.9472
958.60 155.9757
958.70 156.0041
958.80 156.0325
958.90 156.061
959.00 156.0894
959.10 156.1179
959.20 156.1463
959.30 156.1747
959.40 156.2032
959.50 156.2316
959.60 156.2601
959.70 156.2885
959.80 156.3169
959.90 156.3454
960.00 156.3738
960.10 156.3568
960.20 156.2794
960.30 156.202
960.40 156.1247
960.50 156.0473
960.60 155.9699
960.70 155.8926
960.80 155.8152
960.90 155.7378
961.00 155.6605
961.10 155.5831
961.20 155.5058
961.30 155.4284
961.40 155.351
961.50 155.2737
961.60 155.1963
961.70 155.1189
961.80 155.0416
961.90 154.9642
962.00 154.8868
962.10 154.8095
962.20 154.7321
962.30 154.6548
962.40 154.5774
962.50 154.5
962.60 154.4227
962.70 154.3453
962.80 154.2679
962.90 154.1906
963.00 154.1132
963.10 154.0358
963.20 153.9585
963.30 153.8811
963.40 153.8037
963.50 153.7264
963.60 153.649
963.70 153.5717
963.80 153.5956
963.90 153.7595
964.00 153.9234
964.10 154.0873
964.20 154.2512
964.30 154.4151
964.40 154.579
964.50 154.7429
964.60 154.9069
964.70 155.0708
964.80 155.2347
964.90 155.3986
965.00 155.5625
965.10 155.7264
965.20 155.8903
965.30 156.0542
965.40 156.2181
965.50 156.382
965.60 156.5459
965.70 156.7098
965.80 156.8737
965.90 157.0376
966.00 157.2015
966.10 157.3654
966.20 157.5293
966.30 157.6932
966.40 157.8571
966.50 158.021
966.60 158.1849
966.70 158.3488
966.80 158.5127
966.90 158.6766
967.00 158.8406
967.10 159.0045
967.20 159.1684
967.30 159.3323
967.40 159.4962
967.50 159.6286
967.60 159.6713
967.70 159.714
967.80 159.7568
967.90 159.7995
968.00 159.8422
968.10 159.8849
968.20 159.9277
968.30 159.9704
968.40 160.0131
968.50 160.0558
968.60 160.0986
968.70 160.1413
968.80 160.184
968.90 160.2268
969.00 160.2695
969.10 160.3122
969.20 160.3549
969.30 160.3977
969.40 160.4404
969.50 160.4831
969.60 160.5259
969.70 160.5686
969.80 160.6113
969.90 160.654
970.00 160.6968
970.10 160.7395
970.20 160.7822
970.30 160.8249
970.40 160.8677
970.50 160.9104
970.60 160.9531
970.70 160.9959
970.80 161.0386
970.90 161.0813
971.00 161.124
971.10 161.1668
971.20 161.2095
971.30 161.3467
971.40 161.49
971.50 161.6333
971.60 161.7766
971.70 161.9199
971.80 162.0631
971.90 162.2064
972.00 162.3497
972.10 162.493
972.20 162.6363
972.30 162.7795
972.40 162.9228
972.50 163.0661
972.60 163.2094
972.70 163.3526
972.80 163.4959
972.90 163.6392
973.00 163.7825
973.10 163.9258
973.20 164.069
973.30 164.2123
973.40 164.3556
973.50 164.4989
973.60 164.6422
973.70 164.7854
973.80 164.9287
973.90 165.072
974.00 165.2153
974.10 165.3585
974.20 165.5018
974.30 165.6451
974.40 165.7884
974.50 165.9317
974.60 166.0749
974.70 166.2182
974.80 166.3615
974.90 166.5048
975.00 166.6983
975.10 166.9486
975.20 167.1988
975.30 167.449
975.40 167.6993
975.50 167.9495
975.60 168.1997
975.70 168.45
975.80 168.7002
975.90 168.9504
976.00 169.2007
976.10 169.4509
976.20 169.7011
976.30 169.9514
976.40 170.2016
976.50 170.4518
976.60 170.7021
976.70 170.9523
976.80 171.2025
976.90 171.4528
977.00 171.703
977.10 171.9532
977.20 172.2035
977.30 172.4537
977.40 172.7039
977.50 172.9542
977.60 173.2044
977.70 173.4546
977.80 173.7049
977.90 173.9551
978.00 174.2053
978.10 174.4556
978.20 174.7058
978.30 174.956
978.40 175.2063
978.50 175.4565
978.60 175.7067
978.70 175.957
978.80 175.9534
978.90 175.9051
979.00 175.8567
979.10 175.8084
979.20 175.76
979.30 175.7117
979.40 175.6634
979.50 175.615
979.60 175.5667
979.70 175.5183
979.80 175.47
979.90 175.4217
980.00 175.3733
980.10 175.325
980.20 175.2766
980.30 175.2283
980.40 175.18
980.50 175.1316
980.60 175.0833
980.70 175.0349
980.80 174.9866
980.90 174.9383
981.00 174.8899
981.10 174.8416
981.20 174.7932
981.30 174.7449
981.40 174.6966
981.50 174.6482
981.60 174.5999
981.70 174.5515
981.80 174.5032
981.90 174.4549
982.00 174.4065
982.10 174.3582
982.20 174.3098
982.30 174.2615
982.40 174.2132
982.50 174.1438
982.60 173.8322
982.70 173.5206
982.80 173.209
982.90 172.8974
983.00 172.5859
983.10 172.2743
983.20 171.9627
983.30 171.6511
983.40 171.3395
983.50 171.028
983.60 170.7164
983.70 170.4048
983.80 170.0932
983.90 169.7816
984.00 169.4701
984.10 169.1585
984.20 168.8469
984.30 168.5353
984.40 168.2238
984.50 167.9122
984.60 167.6006
984.70 167.289
984.80 166.9774
984.90 166.6659
985.00 166.3543
985.10 166.0427
985.20 165.7311
985.30 165.4195
985.40 165.108
985.50 164.7964
985.60 164.4848
985.70 164.1732
985.80 163.8617
985.90 163.5501
986.00 163.2385
986.10 162.9269
986.20 162.6153
986.30 162.2924
986.40 161.9096
986.50 161.5269
986.60 161.1441
986.70 160.7614
986.80 160.3787
986.90 159.9959
987.00 159.6132
987.10 159.2304
987.20 158.8477
987.30 158.4649
987.40 158.0822
987.50 157.6995
987.60 157.3167
987.70 156.934
987.80 156.5512
987.90 156.1685
988.00 155.7858
988.10 155.403
988.20 155.0203
988.30 154.6375
988.40 154.2548
988.50 153.872
988.60 153.4893
988.70 153.1066
988.80 152.7238
988.90 152.3411
989.00 151.9583
989.10 151.5756
989.20 151.1928
989.30 150.8101
989.40 150.4274
989.50 150.0446
989.60 149.6619
989.70 149.2791
989.80 148.8964
989.90 148.5137
990.00 148.1309
990.10 147.7538
990.20 147.4269
990.30 147.1001
990.40 146.7732
990.50 146.4464
990.60 146.1195
990.70 145.7927
990.80 145.4658
990.90 145.139
991.00 144.8121
991.10 144.4853
991.20 144.1585
991.30 143.8316
991.40 143.5048
991.50 143.1779
991.60 142.8511
991.70 142.5242
991.80 142.1974
991.90 141.8705
992.00 141.5437
992.10 141.2168
992.20 140.89
992.30 140.5632
992.40 140.2363
992.50 139.9095
992.60 139.5826
992.70 139.2558
992.80 138.9289
992.90 138.6021
993.00 138.2752
993.10 137.9484
993.20 137.6215
993.30 137.2947
993.40 136.9679
993.50 136.641
993.60 136.3142
993.70 135.9873
993.80 135.6605
993.90 135.3336
994.00 135.1039
994.10 134.885
994.20 134.666
994.30 134.4471
994.40 134.2281
994.50 134.0092
994.60 133.7903
994.70 133.5713
994.80 133.3524
994.90 133.1335
995.00 132.9145
995.10 132.6956
995.20 132.4766
995.30 132.2577
995.40 132.0388
995.50 131.8198
995.60 131.6009
995.70 131.3819
995.80 131.163
995.90 130.9441
996.00 130.7251
996.10 130.5062
996.20 130.2873
996.30 130.0683
996.40 129.8494
996.50 129.6304
996.60 129.4115
996.70 129.1926
996.80 128.9736
996.90 128.7547
997.00 128.5357
997.10 128.3168
997.20 128.0979
997.30 127.8789
997.40 127.66
997.50 127.4411
997.60 127.2221
997.70 127.0032
997.80 126.9855
997.90 127.1325
998.00 127.2795
998.10 127.4265
998.20 127.5735
998.30 127.7205
998.40 127.8675
998.50 128.0145
998.60 128.1615
998.70 128.3085
998.80 128.4555
998.90 128.6025
999.00 128.7495
999.10 128.8965
999.20 129.0435
999.30 129.1905
999.40 129.3375
999.50 129.4845
999.60 129.6315
999.70 129.7785
999.80 129.9255
999.90 130.0725
1000.00 130.2195
1000.10 130.3665
1000.20 130.5135
1000.30 130.6605
1000.40 130.8075
1000.50 130.9545
1000.60 131.1015
1000.70 131.2485
1000.80 131.3955
1000.90 131.5425
1001.00 131.6895
1001.10 131.8365
1001.20 131.9835
1001.30 132.1305
1001.40 132.2775
1001.50 132.4245
1001.60 132.5717
1001.70 132.7202
1001.80 132.8688
1001.90 133.0174
1002.00 133.1659
1002.10 133.3145
1002.20 133.463
1002.30 133.6116
1002.40 133.7601
1002.50 133.9087
1002.60 134.0573
1002.70 134.2058
1002.80 134.3544
1002.90 134.5029
1003.00 134.6515
1003.10 134.8001
1003.20 134.9486
1003.30 135.0972
1003.40 135.2457
1003.50 135.3943
1003.60 135.5429
1003.70 135.6914
1003.80 135.84
1003.90 135.9885
1004.00 136.1371
1004.10 136.2857
1004.20 136.4342
1004.30 136.5828
1004.40 136.7313
1004.50 136.8799
1004.60 137.0285
1004.70 137.177
1004.80 137.3256
1004.90 137.4741
1005.00 137.6227
1005.10 137.7712
1005.20 137.9198
1005.30 138.0684
1005.40 138.2169
1005.50 138.4175
1005.60 138.6962
1005.70 138.9749
1005.80 139.2536
1005.90 139.5323
1006.00 139.8109
1006.10 140.0896
1006.20 140.3683
1006.30 140.647
1006.40 140.9257
1006.50 141.2043
1006.60 141.483
1006.70 141.7617
1006.80 142.0404
1006.90 142.3191
1007.00 142.5977
1007.10 142.8764
1007.20 143.1551
1007.30 143.4338
1007.40 143.7125
1007.50 143.9911
1007.60 144.2698
1007.70 144.5485
1007.80 144.8272
1007.90 145.1058
1008.00 145.3845
1008.10 145.6632
1008.20 145.9419
1008.30 146.2206
1008.40 146.4992
1008.50 146.7779
1008.60 147.0566
1008.70 147.3353
1008.80 147.614
1008.90 147.8926
1009.00 148.1713
1009.10 148.45
1009.20 148.7287
1009.30 149.0074
1009.40 149.1742
1009.50 149.2931
1009.60 149.412
1009.70 149.5309
1009.80 149.6498
1009.90 149.7687
1010.00 149.8876
1010.10 150.0065
1010.20 150.1254
1010.30 150.2443
1010.40 150.3632
1010.50 150.4821
1010.60 150.601
1010.70 150.7199
1010.80 150.8388
1010.90 150.9577
1011.00 151.0766
1011.10 151.1955
1011.20 151.3144
1011.30 151.4333
1011.40 151.5522
1011.50 151.6711
1011.60 151.79
1011.70 151.9089
1011.80 152.0278
1011.90 152.1468
1012.00 152.2657
1012.10 152.3846
1012.20 152.5035
1012.30 152.6224
1012.40 152.7413
1012.50 152.8602
1012.60 152.9791
1012.70 153.098
1012.80 153.2169
1012.90 153.3358
1013.00 153.4547
1013.10 153.5736
1013.20 153.6925
1013.30 153.7109
1013.40 153.7042
1013.50 153.6974
1013.60 153.6907
1013.70 153.684
1013.80 153.6773
1013.90 153.6705
1014.00 153.6638
1014.10 153.6571
1014.20 153.6504
1014.30 153.6437
1014.40 153.6369
1014.50 153.6302
1014.60 153.6235
1014.70 153.6168
1014.80 153.61
1014.90 153.6033
1015.00 153.5966
1015.10 153.5899
1015.20 153.5832
1015.30 153.5764
1015.40 153.5697
1015.50 153.563
1015.60 153.5563
1015.70 153.5495
1015.80 153.5428
1015.90 153.5361
1016.00 153.5294
1016.10 153.5227
1016.20 153.5159
1016.30 153.5092
1016.40 153.5025
1016.50 153.4958
1016.60 153.489
1016.70 153.4823
1016.80 153.4756
1016.90 153.4689
1017.00 153.4622
1017.10 153.4554
1017.20 153.5476
1017.30 153.6644
1017.40 153.7812
1017.50 153.8981
1017.60 154.0149
1017.70 154.1318
1017.80 154.2486
1017.90 154.3655
1018.00 154.4823
1018.10 154.5992
1018.20 154.716
1018.30 154.8328
1018.40 154.9497
1018.50 155.0665
1018.60 155.1834
1018.70 155.3002
1018.80 155.4171
1018.90 155.5339
1019.00 155.6507
1019.10 155.7676
1019.20 155.8844
1019.30 156.0013
1019.40 156.1181
1019.50 156.235
1019.60 156.3518
1019.70 156.4686
1019.80 156.5855
1019.90 156.7023
1020.00 156.8192
1020.10 156.936
1020.20 157.0529
1020.30 157.1697
1020.40 157.2865
1020.50 157.4034
1020.60 157.5202
1020.70 157.6371
1020.80 157.7539
1020.90 157.8708
1021.00 157.9876
1021.10 158.0372
1021.20 158.042
1021.30 158.0468
1021.40 158.0516
1021.50 158.0563
1021.60 158.0611
1021.70 158.0659
1021.80 158.0707
1021.90 158.0755
1022.00 158.0802
1022.10 158.085
1022.20 158.0898
1022.30 158.0946
1022.40 158.0994
1022.50 158.1041
1022.60 158.1089
1022.70 158.1137
1022.80 158.1185
1022.90 158.1232
1023.00 158.128
1023.10 158.1328
1023.20 158.1376
1023.30 158.1424
1023.40 158.1471
1023.50 158.1519
1023.60 158.1567
1023.70 158.1615
1023.80 158.1663
1023.90 158.171
1024.00 158.1758
1024.10 158.1806
1024.20 158.1854
1024.30 158.1902
1024.40 158.1949
1024.50 158.1997
1024.60 158.2045
1024.70 158.2093
1024.80 158.2141
1024.90 158.2188
1025.00 158.2234
1025.10 158.2277
1025.20 158.232
1025.30 158.2363
1025.40 158.2406
1025.50 158.2449
1025.60 158.2492
1025.70 158.2535
1025.80 158.2578
1025.90 158.262
1026.00 158.2663
1026.10 158.2706
1026.20 158.2749
1026.30 158.2792
1026.40 158.2835
1026.50 158.2878
1026.60 158.2921
1026.70 158.2964
1026.80 158.3007
1026.90 158.305
1027.00 158.3093
1027.10 158.3135
1027.20 158.3178
1027.30 158.3221
1027.40 158.3264
1027.50 158.3307
1027.60 158.335
1027.70 158.3393
1027.80 158.3436
1027.90 158.3479
1028.00 158.3522
1028.10 158.3565
1028.20 158.3607
1028.30 158.365
1028.40 158.3693
1028.50 158.3736
1028.60 158.3779
1028.70 158.3822
1028.80 158.3865
1028.90 158.3908
1029.00 158.64
1029.10 158.8891
1029.20 159.1383
1029.30 159.3875
1029.40 159.6366
1029.50 159.8858
1029.60 160.135
1029.70 160.3841
1029.80 160.6333
1029.90 160.8825
1030.00 161.1316
1030.10 161.3808
1030.20 161.63
1030.30 161.8791
1030.40 162.1283
1030.50 162.3775
1030.60 162.6267
1030.70 162.8758
1030.80 163.125
1030.90 163.3742
1031.00 163.6233
1031.10 163.8725
1031.20 164.1217
1031.30 164.3708
1031.40 164.62
1031.50 164.8692
1031.60 165.1183
1031.70 165.3675
1031.80 165.6167
1031.90 165.8658
1032.00 166.115
1032.10 166.3642
1032.20 166.6133
1032.30 166.8625
1032.40 167.1117
1032.50 167.3609
1032.60 167.61
1032.70 167.8592
1032.80 168.1084
1032.90 168.3074
1033.00 168.4313
1033.10 168.5552
1033.20 168.6791
1033.30 168.8029
1033.40 168.9268
1033.50 169.0507
1033.60 169.1746
1033.70 169.2985
1033.80 169.4224
1033.90 169.5462
1034.00 169.6701
1034.10 169.794
1034.20 169.9179
1034.30 170.0418
1034.40 170.1657
1034.50 170.2895
1034.60 170.4134
1034.70 170.5373
1034.80 170.6612
1034.90 170.7851
1035.00 170.9089
1035.10 171.0328
1035.20 171.1567
1035.30 171.2806
1035.40 171.4045
1035.50 171.5284
1035.60 171.6522
1035.70 171.7761
1035.80 171.9
1035.90 172.0239
1036.00 172.1478
1036.10 172.2717
1036.20 172.3955
1036.30 172.5194
1036.40 172.6433
1036.50 172.7672
1036.60 172.8911
1036.70 173.0149
1036.80 173.1388
1036.90 173.2233
1037.00 173.298
1037.10 173.3726
1037.20 173.4473
1037.30 173.5219
1037.40 173.5966
1037.50 173.6712
1037.60 173.7458
1037.70 173.8205
1037.80 173.8951
1037.90 173.9698
1038.00 174.0444
1038.10 174.1191
1038.20 174.1937
1038.30 174.2684
1038.40 174.343
1038.50 174.4177
1038.60 174.4923
1038.70 174.5669
1038.80 174.6416
1038.90 174.7162
1039.00 174.7909
1039.10 174.8655
1039.20 174.9402
1039.30 175.0148
1039.40 175.0895
1039.50 175.1641
1039.60 175.2387
1039.70 175.3134
1039.80 175.388
1039.90 175.4627
1040.00 175.5373
1040.10 175.612
1040.20 175.6866
1040.30 175.7613
1040.40 175.8359
1040.50 175.9106
1040.60 175.9852
1040.70 176.0598
1040.80 176.1345
1040.90 176.1951
1041.00 176.2557
1041.10 176.3163
1041.20 176.3769
1041.30 176.4375
1041.40 176.4981
1041.50 176.5587
1041.60 176.6193
1041.70 176.6799
1041.80 176.7406
1041.90 176.8012
1042.00 176.8618
1042.10 176.9224
1042.20 176.983
1042.30 177.0436
1042.40 177.1042
1042.50 177.1648
1042.60 177.2254
1042.70 177.286
1042.80 177.3466
1042.90 177.4072
1043.00 177.4678
1043.10 177.5284
1043.20 177.589
1043.30 177.6496
1043.40 177.7102
1043.50 177.7708
1043.60 177.8315
1043.70 177.8921
1043.80 177.9527
1043.90 178.0133
1044.00 178.0739
1044.10 178.1345
1044.20 178.1951
1044.30 178.2557
1044.40 178.3163
1044.50 178.3769
1044.60 178.4375
1044.70 178.4981
1044.80 178.5624
1044.90 178.6598
1045.00 178.7572
1045.10 178.8547
1045.20 178.9521
1045.30 179.0495
1045.40 179.1469
1045.50 179.2443
1045.60 179.3417
1045.70 179.4392
1045.80 179.5366
1045.90 179.634
1046.00 179.7314
1046.10 179.8288
1046.20 179.9262
1046.30 180.0237
1046.40 180.1211
1046.50 180.2185
1046.60 180.3159
1046.70 180.4133
1046.80 180.5108
1046.90 180.6082
1047.00 180.7056
1047.10 180.803
1047.20 180.9004
1047.30 180.9978
1047.40 181.0953
1047.50 181.1927
1047.60 181.2901
1047.70 181.3875
1047.80 181.4849
1047.90 181.5823
1048.00 181.6798
1048.10 181.7772
1048.20 181.8746
1048.30 181.972
1048.40 182.0694
1048.50 182.1668
1048.60 182.2643
1048.70 182.3617
1048.80 182.4466
1048.90 182.4195
1049.00 182.3924
1049.10 182.3652
1049.20 182.3381
1049.30 182.311
1049.40 182.2838
1049.50 182.2567
1049.60 182.2296
1049.70 182.2024
1049.80 182.1753
1049.90 182.1482
1050.00 182.121
1050.10 182.0939
1050.20 182.0668
1050.30 182.0396
1050.40 182.0125
1050.50 181.9854
1050.60 181.9582
1050.70 181.9311
1050.80 181.904
1050.90 181.8768
1051.00 181.8497
1051.10 181.8226
1051.20 181.7954
1051.30 181.7683
1051.40 181.7412
1051.50 181.714
1051.60 181.6869
1051.70 181.6597
1051.80 181.6326
1051.90 181.6055
1052.00 181.5783
1052.10 181.5512
1052.20 181.5241
1052.30 181.4969
1052.40 181.4698
1052.50 181.4427
1052.60 181.4155
1052.70 181.3884
1052.80 181.3613
1052.90 181.2694
1053.00 181.1775
1053.10 181.0856
1053.20 180.9937
1053.30 180.9018
1053.40 180.8098
1053.50 180.7179
1053.60 180.626
1053.70 180.5341
1053.80 180.4422
1053.90 180.3503
1054.00 180.2584
1054.10 180.1665
1054.20 180.0746
1054.30 179.9827
1054.40 179.8908
1054.50 179.7989
1054.60 179.707
1054.70 179.6151
1054.80 179.5232
1054.90 179.4313
1055.00 179.3394
1055.10 179.2475
1055.20 179.1556
1055.30 179.0637
1055.40 178.9718
1055.50 178.8799
1055.60 178.788
1055.70 178.696
1055.80 178.6041
1055.90 178.5122
1056.00 178.4203
1056.10 178.3284
1056.20 178.2365
1056.30 178.1446
1056.40 178.0527
1056.50 177.9608
1056.60 177.8689
1056.70 177.777
1056.80 177.6851
1056.90 177.6857
1057.00 177.7093
1057.10 177.733
1057.20 177.7567
1057.30 177.7803
1057.40 177.804
1057.50 177.8277
1057.60 177.8514
1057.70 177.875
1057.80 177.8987
1057.90 177.9224
1058.00 177.946
1058.10 177.9697
1058.20 177.9934
1058.30 178.0171
1058.40 178.0407
1058.50 178.0644
1058.60 178.0881
1058.70 178.1117
1058.80 178.1354
1058.90 178.1591
1059.00 178.1828
1059.10 178.2064
1059.20 178.2301
1059.30 178.2538
1059.40 178.2774
1059.50 178.3011
1059.60 178.3248
1059.70 178.3484
1059.80 178.3721
1059.90 178.3958
1060.00 178.4195
1060.10 178.4431
1060.20 178.4668
1060.30 178.4905
1060.40 178.5141
1060.50 178.5378
1060.60 178.5615
1060.70 178.5852
1060.80 178.6088
1060.90 178.7018
1061.00 178.8641
1061.10 179.0265
1061.20 179.1888
1061.30 179.3511
1061.40 179.5134
1061.50 179.6757
1061.60 179.838
1061.70 180.0003
1061.80 180.1627
1061.90 180.325
1062.00 180.4873
1062.10 180.6496
1062.20 180.8119
1062.30 180.9742
1062.40 181.1365
1062.50 181.2989
1062.60 181.4612
1062.70 181.6235
1062.80 181.7858
1062.90 181.9481
1063.00 182.1104
1063.10 182.2727
1063.20 182.4351
1063.30 182.5974
1063.40 182.7597
1063.50 182.922
1063.60 183.0843
1063.70 183.2466
1063.80 183.409
1063.90 183.5713
1064.00 183.7336
1064.10 183.8959
1064.20 184.0582
1064.30 184.2205
1064.40 184.3828
1064.50 184.5452
1064.60 184.7075
1064.70 184.8698
1064.80 185.0321
1064.90 185.1944
1065.00 185.352
1065.10 185.5095
1065.20 185.667
1065.30 185.8246
1065.40 185.9821
1065.50 186.1397
1065.60 186.2972
1065.70 186.4548
1065.80 186.6123
1065.90 186.7699
1066.00 186.9274
1066.10 187.0849
1066.20 187.2425
1066.30 187.4
1066.40 187.5576
1066.50 187.7151
1066.60 187.8727
1066.70 188.0302
1066.80 188.1877
1066.90 188.3453
1067.00 188.5028
1067.10 188.6604
1067.20 188.8179
1067.30 188.9755
1067.40 189.133
1067.50 189.2906
1067.60 189.4481
1067.70 189.6056
1067.80 189.7632
1067.90 189.9207
1068.00 190.0783
1068.10 190.2358
1068.20 190.3934
1068.30 190.5509
1068.40 190.7084
1068.50 190.866
1068.60 191.0235
1068.70 191.1811
1068.80 191.3386
1068.90 191.4962
1069.00 191.6617
1069.10 191.8353
1069.20 192.0088
1069.30 192.1824
1069.40 192.356
1069.50 192.5295
1069.60 192.7031
1069.70 192.8766
1069.80 193.0502
1069.90 193.2237
1070.00 193.3973
1070.10 193.5709
1070.20 193.7444
1070.30 193.918
1070.40 194.0915
1070.50 194.2651
1070.60 194.4387
1070.70 194.6122
1070.80 194.7858
1070.90 194.9593
1071.00 195.1329
1071.10 195.3065
1071.20 195.48
1071.30 195.6536
1071.40 195.8271
1071.50 196.0007
1071.60 196.1743
1071.70 196.3478
1071.80 196.5214
1071.90 196.6949
1072.00 196.8685
1072.10 197.0421
1072.20 197.2156
1072.30 197.3892
1072.40 197.5627
1072.50 197.7363
1072.60 197.9098
1072.70 198.0834
1072.80 198.257
1072.90 198.4305
1073.00 198.6041
1073.10 198.7562
1073.20 198.9059
1073.30 199.0556
1073.40 199.2053
1073.50 199.3549
1073.60 199.5046
1073.70 199.6543
1073.80 199.804
1073.90 199.9537
1074.00 200.1034
1074.10 200.2531
1074.20 200.4028
1074.30 200.5525
1074.40 200.7022
1074.50 200.8519
1074.60 201.0016
1074.70 201.1513
1074.80 201.301
1074.90 201.4507
1075.00 201.6004
1075.10 201.7501
1075.20 201.8998
1075.30 202.0495
1075.40 202.1992
1075.50 202.3488
1075.60 202.4985
1075.70 202.6482
1075.80 202.7979
1075.90 202.9476
1076.00 203.0973
1076.10 203.247
1076.20 203.3967
1076.30 203.5464
1076.40 203.6961
1076.50 203.8458
1076.60 203.9955
1076.70 204.1452
1076.80 204.2949
1076.90 204.4446
1077.00 204.5943
1077.10 204.7377
1077.20 204.8247
1077.30 204.9117
1077.40 204.9987
1077.50 205.0857
1077.60 205.1726
1077.70 205.2596
1077.80 205.3466
1077.90 205.4336
1078.00 205.5206
1078.10 205.6076
1078.20 205.6946
1078.30 205.7816
1078.40 205.8686
1078.50 205.9556
1078.60 206.0425
1078.70 206.1295
1078.80 206.2165
1078.90 206.3035
1079.00 206.3905
1079.10 206.4775
1079.20 206.5645
1079.30 206.6515
1079.40 206.7385
1079.50 206.8254
1079.60 206.9124
1079.70 206.9994
1079.80 207.0864
1079.90 207.1734
1080.00 207.2604
1080.10 207.3474
1080.20 207.4344
1080.30 207.5214
1080.40 207.6083
1080.50 207.6953
1080.60 207.7823
1080.70 207.8693
1080.80 207.9563
1080.90 208.0433
1081.00 208.1303
1081.10 208.2173
1081.20 208.3927
1081.30 208.7744
1081.40 209.1561
1081.50 209.5378
1081.60 209.9196
1081.70 210.3013
1081.80 210.683
1081.90 211.0647
1082.00 211.4464
1082.10 211.8282
1082.20 212.2099
1082.30 212.5916
1082.40 212.9733
1082.50 213.3551
1082.60 213.7368
1082.70 214.1185
1082.80 214.5002
1082.90 214.8819
1083.00 215.2637
1083.10 215.6454
1083.20 216.0271
1083.30 216.4088
1083.40 216.7905
1083.50 217.1723
1083.60 217.554
1083.70 217.9357
1083.80 218.3174
1083.90 218.6991
1084.00 219.0809
1084.10 219.4626
1084.20 219.8443
1084.30 220.226
1084.40 220.6078
1084.50 220.9895
1084.60 221.3712
1084.70 221.7529
1084.80 222.1346
1084.90 222.5164
1085.00 222.8981
1085.10 223.2798
1085.20 223.6615
1085.30 223.9427
1085.40 223.9892
1085.50 224.0358
1085.60 224.0823
1085.70 224.1288
1085.80 224.1754
1085.90 224.2219
1086.00 224.2684
1086.10 224.315
1086.20 224.3615
1086.30 224.408
1086.40 224.4546
1086.50 224.5011
1086.60 224.5476
1086.70 224.5942
1086.80 224.6407
1086.90 224.6872
1087.00 224.7338
1087.10 224.7803
1087.20 224.8268
1087.30 224.8734
1087.40 224.9199
1087.50 224.9664
1087.60 225.013
1087.70 225.0595
1087.80 225.106
1087.90 225.1526
1088.00 225.1991
1088.10 225.2456
1088.20 225.2922
1088.30 225.3387
1088.40 225.3852
1088.50 225.4318
1088.60 225.4783
1088.70 225.5248
1088.80 225.5714
1088.90 225.6179
1089.00 225.6644
1089.10 225.711
1089.20 225.7575
1089.30 225.804
1089.40 225.8632
1089.50 225.952
1089.60 226.0407
1089.70 226.1294
1089.80 226.2182
1089.90 226.3069
1090.00 226.3956
1090.10 226.4844
1090.20 226.5731
1090.30 226.6618
1090.40 226.7506
1090.50 226.8393
1090.60 226.928
1090.70 227.0168
1090.80 227.1055
1090.90 227.1942
1091.00 227.283
1091.10 227.3717
1091.20 227.4604
1091.30 227.5492
1091.40 227.6379
1091.50 227.7266
1091.60 227.8154
1091.70 227.9041
1091.80 227.9928
1091.90 228.0816
1092.00 228.1703
1092.10 228.259
1092.20 228.3478
1092.30 228.4365
1092.40 228.5252
1092.50 228.614
1092.60 228.7027
1092.70 228.7914
1092.80 228.8802
1092.90 228.9689
1093.00 229.0576
1093.10 229.1464
1093.20 229.2351
1093.30 229.3238
1093.40 229.4126
1093.50 229.4944
1093.60 229.5486
1093.70 229.6029
1093.80 229.6571
1093.90 229.7113
1094.00 229.7655
1094.10 229.8197
1094.20 229.8739
1094.30 229.9282
1094.40 229.9824
1094.50 230.0366
1094.60 230.0908
1094.70 230.145
1094.80 230.1993
1094.90 230.2535
1095.00 230.3077
1095.10 230.3619
1095.20 230.4161
1095.30 230.4704
1095.40 230.5246
1095.50 230.5788
1095.60 230.633
1095.70 230.6872
1095.80 230.7415
1095.90 230.7957
1096.00 230.8499
1096.10 230.9041
1096.20 230.9583
1096.30 231.0126
1096.40 231.0668
1096.50 231.121
1096.60 231.1752
1096.70 231.2294
1096.80 231.2837
1096.90 231.3379
1097.00 231.3921
1097.10 231.4463
1097.20 231.5005
1097.30 231.5548
1097.40 231.609
1097.50 231.6632
1097.60 231.7174
1097.70 231.7976
1097.80 231.8778
1097.90 231.9581
1098.00 232.0383
1098.10 232.1185
1098.20 232.1987
1098.30 232.2789
1098.40 232.3591
1098.50 232.4393
1098.60 232.5195
1098.70 232.5998
1098.80 232.68
1098.90 232.7602
1099.00 232.8404
1099.10 232.9206
1099.20 233.0008
1099.30 233.081
1099.40 233.1612
1099.50 233.2415
1099.60 233.3217
1099.70 233.4019
1099.80 233.4821
1099.90 233.5623
1100.00 233.6425
1100.10 233.7227
1100.20 233.8029
1100.30 233.8832
1100.40 233.9634
1100.50 234.0436
1100.60 234.1238
1100.70 234.204
1100.80 234.2842
1100.90 234.3644
1101.00 234.4447
1101.10 234.5249
1101.20 234.6051
1101.30 234.6853
1101.40 234.7655
1101.50 234.8457
1101.60 234.9259
1101.70 235.0061
1101.80 234.9222
1101.90 234.768
1102.00 234.6138
1102.10 234.4596
1102.20 234.3053
1102.30 234.1511
1102.40 233.9969
1102.50 233.8427
1102.60 233.6884
1102.70 233.5342
1102.80 233.38
1102.90 233.2258
1103.00 233.0715
1103.10 232.9173
1103.20 232.7631
1103.30 232.6088
1103.40 232.4546
1103.50 232.3004
1103.60 232.1462
1103.70 231.9919
1103.80 231.8377
1103.90 231.6835
1104.00 231.5293
1104.10 231.375
1104.20 231.2208
1104.30 231.0666
1104.40 230.9124
1104.50 230.7581
1104.60 230.6039
1104.70 230.4497
1104.80 230.2955
1104.90 230.1412
1105.00 229.987
1105.10 229.8328
1105.20 229.6785
1105.30 229.5243
1105.40 229.3701
1105.50 229.2159
1105.60 229.0616
1105.70 228.9074
1105.80 228.7532
1105.90 228.6505
1106.00 228.6679
1106.10 228.6854
1106.20 228.7029
1106.30 228.7204
1106.40 228.7378
1106.50 228.7553
1106.60 228.7728
1106.70 228.7902
1106.80 228.8077
1106.90 228.8252
1107.00 228.8427
1107.10 228.8601
1107.20 228.8776
1107.30 228.8951
1107.40 228.9125
1107.50 228.93
1107.60 228.9475
1107.70 228.965
1107.80 228.9824
1107.90 228.9999
1108.00 229.0174
1108.10 229.0348
1108.20 229.0523
1108.30 229.0698
1108.40 229.0873
1108.50 229.1047
1108.60 229.1222
1108.70 229.1397
1108.80 229.1571
1108.90 229.1746
1109.00 229.1921
1109.10 229.2096
1109.20 229.227
1109.30 229.2445
1109.40 229.262
1109.50 229.2795
1109.60 229.2969
1109.70 229.3144
1109.80 229.3319
1109.90 229.3493
1110.00 229.3668
1110.10 229.3307
1110.20 229.2813
1110.30 229.2318
1110.40 229.1824
1110.50 229.133
1110.60 229.0835
1110.70 229.0341
1110.80 228.9846
1110.90 228.9352
1111.00 228.8857
1111.10 228.8363
1111.20 228.7868
1111.30 228.7374
1111.40 228.6879
1111.50 228.6385
1111.60 228.589
1111.70 228.5396
1111.80 228.4901
1111.90 228.4407
1112.00 228.3912
1112.10 228.3418
1112.20 228.2923
1112.30 228.2429
1112.40 228.1934
1112.50 228.144
1112.60 228.0945
1112.70 228.0451
1112.80 227.9956
1112.90 227.9462
1113.00 227.8967
1113.10 227.8473
1113.20 227.7978
1113.30 227.7484
1113.40 227.6989
1113.50 227.6495
1113.60 227.6
1113.70 227.5506
1113.80 227.5012
1113.90 227.4517
1114.00 227.4023
1114.10 227.3528
1114.20 227.3415
1114.30 227.4193
1114.40 227.497
1114.50 227.5747
1114.60 227.6525
1114.70 227.7302
1114.80 227.808
1114.90 227.8857
1115.00 227.9635
1115.10 228.0412
1115.20 228.119
1115.30 228.1967
1115.40 228.2745
1115.50 228.3522
1115.60 228.4299
1115.70 228.5077
1115.80 228.5854
1115.90 228.6632
1116.00 228.7409
1116.10 228.8187
1116.20 228.8964
1116.30 228.9742
1116.40 229.0519
1116.50 229.1296
1116.60 229.2074
1116.70 229.2851
1116.80 229.3629
1116.90 229.4406
1117.00 229.5184
1117.10 229.5961
1117.20 229.6739
1117.30 229.7516
1117.40 229.8294
1117.50 229.9071
1117.60 229.9848
1117.70 230.0626
1117.80 230.1403
1117.90 230.2181
1118.00 230.2958
1118.10 230.3736
1118.20 230.4513
1118.30 230.5291
1118.40 230.6055
1118.50 230.681
1118.60 230.7566
1118.70 230.8321
1118.80 230.9076
1118.90 230.9832
1119.00 231.0587
1119.10 231.1343
1119.20 231.2098
1119.30 231.2853
1119.40 231.3609
1119.50 231.4364
1119.60 231.512
1119.70 231.5875
1119.80 231.6631
1119.90 231.7386
1120.00 231.8141
1120.10 231.8897
1120.20 231.9652
1120.30 232.0408
1120.40 232.1163
1120.50 232.1918
1120.60 232.2674
1120.70 232.3429
1120.80 232.4185
1120.90 232.494
1121.00 232.5695
1121.10 232.6451
1121.20 232.7206
1121.30 232.7962
1121.40 232.8717
1121.50 232.9472
1121.60 233.0228
1121.70 233.0983
1121.80 233.1739
1121.90 233.2494
1122.00 233.3249
1122.10 233.4005
1122.20 233.476
1122.30 233.5516
1122.40 233.6271
1122.50 233.7026
1122.60 233.7083
1122.70 233.7062
1122.80 233.704
1122.90 233.7019
1123.00 233.6998
1123.10 233.6976
1123.20 233.6955
1123.30 233.6934
1123.40 233.6912
1123.50 233.6891
1123.60 233.687
1123.70 233.6848
1123.80 233.6827
1123.90 233.6806
1124.00 233.6784
1124.10 233.6763
1124.20 233.6742
1124.30 233.6721
1124.40 233.6699
1124.50 233.6678
1124.60 233.6657
1124.70 233.6635
1124.80 233.6614
1124.90 233.6593
1125.00 233.6571
1125.10 233.655
1125.20 233.6529
1125.30 233.6507
1125.40 233.6486
1125.50 233.6465
1125.60 233.6443
1125.70 233.6422
1125.80 233.6401
1125.90 233.638
1126.00 233.6358
1126.10 233.6337
1126.20 233.6316
1126.30 233.6294
1126.40 233.6273
1126.50 233.6252
1126.60 233.623
1126.70 233.606
1126.80 233.5295
1126.90 233.453
1127.00 233.3766
1127.10 233.3001
1127.20 233.2236
1127.30 233.1471
1127.40 233.0706
1127.50 232.9941
1127.60 232.9176
1127.70 232.8411
1127.80 232.7646
1127.90 232.6882
1128.00 232.6117
1128.10 232.5352
1128.20 232.4587
1128.30 232.3822
1128.40 232.3057
1128.50 232.2292
1128.60 232.1527
1128.70 232.0762
1128.80 231.9997
1128.90 231.9233
1129.00 231.8468
1129.10 231.7703
1129.20 231.6938
1129.30 231.6173
1129.40 231.5408
1129.50 231.4643
1129.60 231.3878
1129.70 231.3113
1129.80 231.2348
1129.90 231.1584
1130.00 231.0819
1130.10 231.0054
1130.20 230.9289
1130.30 230.8524
1130.40 230.7759
1130.50 230.6994
1130.60 230.6229
1130.70 230.5464
1130.80 230.47
1130.90 230.3569
1131.00 230.1587
1131.10 229.9604
1131.20 229.7621
1131.30 229.5639
1131.40 229.3656
1131.50 229.1673
1131.60 228.9691
1131.70 228.7708
1131.80 228.5725
1131.90 228.3743
1132.00 228.176
1132.10 227.9777
1132.20 227.7795
1132.30 227.5812
1132.40 227.3829
1132.50 227.1846
1132.60 226.9864
1132.70 226.7881
1132.80 226.5898
1132.90 226.3916
1133.00 226.1933
1133.10 225.995
1133.20 225.7968
1133.30 225.5985
1133.40 225.4002
1133.50 225.202
1133.60 225.0037
1133.70 224.8054
1133.80 224.6072
1133.90 224.4089
1134.00 224.2106
1134.10 224.0124
1134.20 223.8141
1134.30 223.6158
1134.40 223.4176
1134.50 223.2193
1134.60 223.021
1134.70 222.8228
1134.80 222.6245
1134.90 222.4262
1135.00 222.228
1135.10 222.0958
1135.20 222.0626
1135.30 222.0295
1135.40 221.9964
1135.50 221.9633
1135.60 221.9302
1135.70 221.8971
1135.80 221.864
1135.90 221.8309
1136.00 221.7978
1136.10 221.7647
1136.20 221.7316
1136.30 221.6984
1136.40 221.6653
1136.50 221.6322
1136.60 221.5991
1136.70 221.566
1136.80 221.5329
1136.90 221.4998
1137.00 221.4667
1137.10 221.4336
1137.20 221.4005
1137.30 221.3674
1137.40 221.3342
1137.50 221.3011
1137.60 221.268
1137.70 221.2349
1137.80 221.2018
1137.90 221.1687
1138.00 221.1356
1138.10 221.1025
1138.20 221.0694
1138.30 221.0363
1138.40 221.0032
1138.50 220.97
1138.60 220.9369
1138.70 220.9038
1138.80 220.8707
1138.90 220.8376
1139.00 220.8045
1139.10 220.7714
1139.20 220.7383
1139.30 220.7617
1139.40 220.8701
1139.50 220.9784
1139.60 221.0868
1139.70 221.1951
1139.80 221.3034
1139.90 221.4118
1140.00 221.5201
1140.10 221.6285
1140.20 221.7368
1140.30 221.8451
1140.40 221.9535
1140.50 222.0618
1140.60 222.1701
1140.70 222.2785
1140.80 222.3868
1140.90 222.4952
1141.00 222.6035
1141.10 222.7118
1141.20 222.8202
1141.30 222.9285
1141.40 223.0368
1141.50 223.1452
1141.60 223.2535
1141.70 223.3619
1141.80 223.4702
1141.90 223.5785
1142.00 223.6869
1142.10 223.7952
1142.20 223.9036
1142.30 224.0119
1142.40 224.1202
1142.50 224.2286
1142.60 224.3369
1142.70 224.4452
1142.80 224.5536
1142.90 224.6619
1143.00 224.7703
1143.10 224.8786
1143.20 224.9869
1143.30 225.0953
1143.40 225.2036
1143.50 225.3765
1143.60 225.7001
1143.70 226.0237
1143.80 226.3473
1143.90 226.6708
1144.00 226.9944
1144.10 227.318
1144.20 227.6416
1144.30 227.9652
1144.40 228.2888
1144.50 228.6123
1144.60 228.9359
1144.70 229.2595
1144.80 229.5831
1144.90 229.9067
1145.00 230.2303
1145.10 230.5538
1145.20 230.8774
1145.30 231.201
1145.40 231.5246
1145.50 231.8482
1145.60 232.1718
1145.70 232.4953
1145.80 232.8189
1145.90 233.1425
1146.00 233.4661
1146.10 233.7897
1146.20 234.1133
1146.30 234.4368
1146.40 234.7604
1146.50 235.084
1146.60 235.4076
1146.70 235.7312
1146.80 236.0547
1146.90 236.3783
1147.00 236.7019
1147.10 237.0255
1147.20 237.3491
1147.30 237.6727
1147.40 237.9962
1147.50 238.3198
1147.60 238.6434
1147.70 238.9469
1147.80 239.17
1147.90 239.3932
1148.00 239.6163
1148.10 239.8395
1148.20 240.0626
1148.30 240.2858
1148.40 240.5089
1148.50 240.732
1148.60 240.9552
1148.70 241.1783
1148.80 241.4015
1148.90 241.6246
1149.00 241.8478
1149.10 242.0709
1149.20 242.294
1149.30 242.5172
1149.40 242.7403
1149.50 242.9635
1149.60 243.1866
1149.70 243.4097
1149.80 243.6329
1149.90 243.856
1150.00 244.0792
1150.10 244.3023
1150.20 244.5255
1150.30 244.7486
1150.40 244.9717
1150.50 245.1949
1150.60 245.418
1150.70 245.6412
1150.80 245.8643
1150.90 246.0875
1151.00 246.3106
1151.10 246.5337
1151.20 246.7569
1151.30 246.98
1151.40 247.2032
1151.50 247.4263
1151.60 247.6494
1151.70 247.8726
1151.80 248.0957
1151.90 248.3189
1152.00 248.2971
1152.10 248.2754
1152.20 248.2537
1152.30 248.2319
1152.40 248.2102
1152.50 248.1885
1152.60 248.1667
1152.70 248.145
1152.80 248.1233
1152.90 248.1015
1153.00 248.0798
1153.10 248.0581
1153.20 248.0363
1153.30 248.0146
1153.40 247.9929
1153.50 247.9711
1153.60 247.9494
1153.70 247.9277
1153.80 247.9059
1153.90 247.8842
1154.00 247.8625
1154.10 247.8407
1154.20 247.819
1154.30 247.7973
1154.40 247.7755
1154.50 247.7538
1154.60 247.7321
1154.70 247.7104
1154.80 247.6886
1154.90 247.6669
1155.00 247.6452
1155.10 247.6234
1155.20 247.6017
1155.30 247.58
1155.40 247.5582
1155.50 247.5365
1155.60 247.5148
1155.70 247.493
1155.80 247.4713
1155.90 247.4496
1156.00 247.4278
1156.10 247.4061
1156.20 247.3021
1156.30 247.1776
1156.40 247.053
1156.50 246.9285
1156.60 246.804
1156.70 246.6794
1156.80 246.5549
1156.90 246.4304
1157.00 246.3058
1157.10 246.1813
1157.20 246.0568
1157.30 245.9322
1157.40 245.8077
1157.50 245.6832
1157.60 245.5586
1157.70 245.4341
1157.80 245.3096
1157.90 245.185
1158.00 245.0605
1158.10 244.936
1158.20 244.8114
1158.30 244.6869
1158.40 244.5624
1158.50 244.4378
1158.60 244.3133
1158.70 244.1887
1158.80 244.0642
1158.90 243.9397
1159.00 243.8151
1159.10 243.6906
1159.20 243.5661
1159.30 243.4415
1159.40 243.317
1159.50 243.1925
1159.60 243.0679
1159.70 242.9434
1159.80 242.8189
1159.90 242.6943
1160.00 242.5698
1160.10 242.4453
1160.20 242.3207
1160.30 242.1962
1160.40 242.0661
1160.50 241.9303
1160.60 241.7946
1160.70 241.6589
1160.80 241.5232
1160.90 241.3875
1161.00 241.2517
1161.10 241.116
1161.20 240.9803
1161.30 240.8446
1161.40 240.7088
1161.50 240.5731
1161.60 240.4374
1161.70 240.3017
1161.80 240.1659
1161.90 240.0302
1162.00 239.8945
1162.10 239.7588
1162.20 239.6231
1162.30 239.4873
1162.40 239.3516
1162.50 239.2159
1162.60 239.0802
1162.70 238.9444
1162.80 238.8087
1162.90 238.673
1163.00 238.5373
1163.10 238.4016
1163.20 238.2658
1163.30 238.1301
1163.40 237.9944
1163.50 237.8587
1163.60 237.7229
1163.70 237.5872
1163.80 237.4515
1163.90 237.3158
1164.00 237.18
1164.10 237.0443
1164.20 236.9086
1164.30 236.7729
1164.40 236.6372
1164.50 236.5014
1164.60 236.3684
1164.70 236.2591
1164.80 236.1498
1164.90 236.0405
1165.00 235.9313
1165.10 235.822
1165.20 235.7127
1165.30 235.6034
1165.40 235.4942
1165.50 235.3849
1165.60 235.2756
1165.70 235.1663
1165.80 235.0571
1165.90 234.9478
1166.00 234.8385
1166.10 234.7292
1166.20 234.62
1166.30 234.5107
1166.40 234.4014
1166.50 234.2921
1166.60 234.1829
1166.70 234.0736
1166.80 233.9643
1166.90 233.855
1167.00 233.7458
1167.10 233.6365
1167.20 233.5272
1167.30 233.4179
1167.40 233.3087
1167.50 233.1994
1167.60 233.0901
1167.70 232.9808
1167.80 232.8716
1167.90 232.7623
1168.00 232.653
1168.10 232.5437
1168.20 232.4345
1168.30 232.3252
1168.40 232.2159
1168.50 232.1066
1168.60 231.9974
1168.70 231.8881
1168.80 231.7788
1168.90 231.5526
1169.00 231.2762
1169.10 230.9998
1169.20 230.7235
1169.30 230.4471
1169.40 230.1708
1169.50 229.8944
1169.60 229.618
1169.70 229.3417
1169.80 229.0653
1169.90 228.7889
1170.00 228.5126
1170.10 228.2362
1170.20 227.9599
1170.30 227.6835
1170.40 227.4071
1170.50 227.1308
1170.60 226.8544
1170.70 226.578
1170.80 226.3017
1170.90 226.0253
1171.00 225.749
1171.10 225.4726
1171.20 225.1962
1171.30 224.9199
1171.40 224.6435
1171.50 224.3671
1171.60 224.0908
1171.70 223.8144
1171.80 223.5381
1171.90 223.2617
1172.00 222.9853
1172.10 222.709
1172.20 222.4326
1172.30 222.1562
1172.40 221.8799
1172.50 221.6035
1172.60 221.3271
1172.70 221.0508
1172.80 220.7744
1172.90 220.4981
1173.00 220.2217
1173.10 220.0134
1173.20 220.0774
1173.30 220.1415
1173.40 220.2055
1173.50 220.2695
1173.60 220.3336
1173.70 220.3976
1173.80 220.4616
1173.90 220.5257
1174.00 220.5897
1174.10 220.6537
1174.20 220.7178
1174.30 220.7818
1174.40 220.8458
1174.50 220.9099
1174.60 220.9739
1174.70 221.0379
1174.80 221.102
1174.90 221.166
1175.00 221.23
1175.10 221.2941
1175.20 221.3581
1175.30 221.4221
1175.40 221.4862
1175.50 221.5502
1175.60 221.6142
1175.70 221.6783
1175.80 221.7423
1175.90 221.8063
1176.00 221.8704
1176.10 221.9344
1176.20 221.9984
1176.30 222.0624
1176.40 222.1265
1176.50 222.1905
1176.60 222.2545
1176.70 222.3186
1176.80 222.3826
1176.90 222.4466
1177.00 222.5107
1177.10 222.5747
1177.20 222.6387
1177.30 222.7028
1177.40 222.7926
1177.50 222.8936
1177.60 222.9945
1177.70 223.0955
1177.80 223.1964
1177.90 223.2973
1178.00 223.3983
1178.10 223.4992
1178.20 223.6002
1178.30 223.7011
1178.40 223.802
1178.50 223.903
1178.60 224.0039
1178.70 224.1049
1178.80 224.2058
1178.90 224.3067
1179.00 224.4077
1179.10 224.5086
1179.20 224.6096
1179.30 224.7105
1179.40 224.8114
1179.50 224.9124
1179.60 225.0133
1179.70 225.1143
1179.80 225.2152
1179.90 225.3161
1180.00 225.4171
1180.10 225.518
1180.20 225.619
1180.30 225.7199
1180.40 225.8208
1180.50 225.9218
1180.60 226.0227
1180.70 226.1237
1180.80 226.2246
1180.90 226.3255
1181.00 226.4265
1181.10 226.5274
1181.20 226.6284
1181.30 226.7293
1181.40 226.8302
1181.50 226.9312
1181.60 227.037
1181.70 227.1869
1181.80 227.3369
1181.90 227.4868
1182.00 227.6367
1182.10 227.7866
1182.20 227.9366
1182.30 228.0865
1182.40 228.2364
1182.50 228.3863
1182.60 228.5363
1182.70 228.6862
1182.80 228.8361
1182.90 228.986
1183.00 229.136
1183.10 229.2859
1183.20 229.4358
1183.30 229.5858
1183.40 229.7357
1183.50 229.8856
1183.60 230.0355
1183.70 230.1855
1183.80 230.3354
1183.90 230.4853
1184.00 230.6352
1184.10 230.7852
1184.20 230.9351
1184.30 231.085
1184.40 231.2349
1184.50 231.3849
1184.60 231.5348
1184.70 231.6847
1184.80 231.8346
1184.90 231.9846
1185.00 232.1345
1185.10 232.2844
1185.20 232.4343
1185.30 232.5843
1185.40 232.7342
1185.50 232.8841
1185.60 233.0341
1185.70 233.184
1185.80 233.3339
1185.90 233.3759
1186.00 233.3101
1186.10 233.2442
1186.20 233.1784
1186.30 233.1125
1186.40 233.0467
1186.50 232.9808
1186.60 232.9149
1186.70 232.8491
1186.80 232.7832
1186.90 232.7174
1187.00 232.6515
1187.10 232.5856
1187.20 232.5198
1187.30 232.4539
1187.40 232.3881
1187.50 232.3222
1187.60 232.2564
1187.70 232.1905
1187.80 232.1246
1187.90 232.0588
1188.00 231.9929
1188.10 231.9271
1188.20 231.8612
1188.30 231.7954
1188.40 231.7295
1188.50 231.6636
1188.60 231.5978
1188.70 231.5319
1188.80 231.4661
1188.90 231.4002
1189.00 231.3343
1189.10 231.2685
1189.20 231.2026
1189.30 231.1368
1189.40 231.0709
1189.50 231.0051
1189.60 230.9392
1189.70 230.8733
1189.80 230.8075
1189.90 230.7416
1190.00 230.6758
1190.10 230.6099
1190.20 230.4327
1190.30 230.2277
1190.40 230.0227
1190.50 229.8177
1190.60 229.6127
1190.70 229.4077
1190.80 229.2027
1190.90 228.9977
1191.00 228.7927
1191.10 228.5876
1191.20 228.3826
1191.30 228.1776
1191.40 227.9726
1191.50 227.7676
1191.60 227.5626
1191.70 227.3576
1191.80 227.1526
1191.90 226.9476
1192.00 226.7426
1192.10 226.5376
1192.20 226.3325
1192.30 226.1275
1192.40 225.9225
1192.50 225.7175
1192.60 225.5125
1192.70 225.3075
1192.80 225.1025
1192.90 224.8975
1193.00 224.6925
1193.10 224.4875
1193.20 224.2825
1193.30 224.0774
1193.40 223.8724
1193.50 223.6674
1193.60 223.4624
1193.70 223.2574
1193.80 223.0524
1193.90 222.8474
1194.00 222.6424
1194.10 222.4374
1194.20 222.2324
1194.30 222.0273
1194.40 221.8287
1194.50 221.6877
1194.60 221.5467
1194.70 221.4056
1194.80 221.2646
1194.90 221.1235
1195.00 220.9825
1195.10 220.8415
1195.20 220.7004
1195.30 220.5594
1195.40 220.4183
1195.50 220.2773
1195.60 220.1362
1195.70 219.9952
1195.80 219.8542
1195.90 219.7131
1196.00 219.5721
1196.10 219.431
1196.20 219.29
1196.30 219.149
1196.40 219.0079
1196.50 218.8669
1196.60 218.7258
1196.70 218.5848
1196.80 218.4438
1196.90 218.3027
1197.00 218.1617
1197.10 218.0206
1197.20 217.8796
1197.30 217.7386
1197.40 217.5975
1197.50 217.4565
1197.60 217.3154
1197.70 217.1744
1197.80 217.0334
1197.90 216.8923
1198.00 216.7513
1198.10 216.6102
1198.20 216.4692
1198.30 216.3281
1198.40 216.1871
1198.50 216.0461
1198.60 215.905
1198.70 215.8152
1198.80 215.8022
1198.90 215.7892
1199.00 215.7762
1199.10 215.7632
1199.20 215.7502
1199.30 215.7372
1199.40 215.7242
1199.50 215.7112
1199.60 215.6982
1199.70 215.6852
1199.80 215.6722
1199.90 215.6592
1200.00 215.6462
1200.10 215.6332
1200.20 215.6202
1200.30 215.6072
1200.40 215.5942
1200.50 215.5812
1200.60 215.5682
1200.70 215.5552
1200.80 215.5422
1200.90 215.5292
1201.00 215.5162
1201.10 215.5032
1201.20 215.4902
1201.30 215.4772
1201.40 215.4642
1201.50 215.4512
1201.60 215.4382
1201.70 215.4252
1201.80 215.4122
1201.90 215.3991
1202.00 215.3861
1202.10 215.3731
1202.20 215.3601
1202.30 215.3471
1202.40 215.3341
1202.50 215.3211
1202.60 215.3081
1202.70 215.2951
1202.80 215.2821
1202.90 215.2691
1203.00 215.3661
1203.10 215.5363
1203.20 215.7066
1203.30 215.8768
1203.40 216.0471
1203.50 216.2173
1203.60 216.3876
1203.70 216.5578
1203.80 216.7281
1203.90 216.8983
1204.00 217.0686
1204.10 217.2388
1204.20 217.4091
1204.30 217.5793
1204.40 217.7496
1204.50 217.9198
1204.60 218.0901
1204.70 218.2603
1204.80 218.4306
1204.90 218.6008
1205.00 218.771
1205.10 218.9413
1205.20 219.1115
1205.30 219.2818
1205.40 219.452
1205.50 219.6223
1205.60 219.7925
1205.70 219.9628
1205.80 220.133
1205.90 220.3033
1206.00 220.4735
1206.10 220.6438
1206.20 220.814
1206.30 220.9843
1206.40 221.1545
1206.50 221.3248
1206.60 221.495
1206.70 221.6653
1206.80 221.8355
1206.90 222.0058
1207.00 222.176
1207.10 222.3463
1207.20 222.5165
1207.30 222.7778
1207.40 223.0618
1207.50 223.3458
1207.60 223.6298
1207.70 223.9138
1207.80 224.1978
1207.90 224.4818
1208.00 224.7658
1208.10 225.0498
1208.20 225.3338
1208.30 225.6178
1208.40 225.9018
1208.50 226.1858
1208.60 226.4698
1208.70 226.7538
1208.80 227.0378
1208.90 227.3218
1209.00 227.6058
1209.10 227.8898
1209.20 228.1738
1209.30 228.4578
1209.40 228.7418
1209.50 229.0258
1209.60 229.3098
1209.70 229.5938
1209.80 229.8778
1209.90 230.1618
1210.00 230.4458
1210.10 230.7298
1210.20 231.0138
1210.30 231.2978
1210.40 231.5818
1210.50 231.8658
1210.60 232.1498
1210.70 232.4338
1210.80 232.7178
1210.90 233.0019
1211.00 233.2859
1211.10 233.5699
1211.20 233.8539
1211.30 234.1379
1211.40 234.4219
1211.50 234.7059
1211.60 234.8105
1211.70 234.8952
1211.80 234.98
1211.90 235.0647
1212.00 235.1494
1212.10 235.2341
1212.20 235.3188
1212.30 235.4036
1212.40 235.4883
1212.50 235.573
1212.60 235.6577
1212.70 235.7424
1212.80 235.8272
1212.90 235.9119
1213.00 235.9966
1213.10 236.0813
1213.20 236.166
1213.30 236.2508
1213.40 236.3355
1213.50 236.4202
1213.60 236.5049
1213.70 236.5897
1213.80 236.6744
1213.90 236.7591
1214.00 236.8438
1214.10 236.9285
1214.20 237.0133
1214.30 237.098
1214.40 237.1827
1214.50 237.2674
1214.60 237.3521
1214.70 237.4369
1214.80 237.5216
1214.90 237.6063
1215.00 237.691
1215.10 237.7757
1215.20 237.8605
1215.30 237.9452
1215.40 238.0299
1215.50 238.1146
1215.60 238.1993
1215.70 238.2841
1215.80 238.3688
1215.90 238.6362
1216.00 238.9036
1216.10 239.171
1216.20 239.4385
1216.30 239.7059
1216.40 239.9733
1216.50 240.2407
1216.60 240.5081
1216.70 240.7755
1216.80 241.043
1216.90 241.3104
1217.00 241.5778
1217.10 241.8452
1217.20 242.1126
1217.30 242.3801
1217.40 242.6475
1217.50 242.9149
1217.60 243.1823
1217.70 243.4497
1217.80 243.7171
1217.90 243.9846
1218.00 244.252
1218.10 244.5194
1218.20 244.7868
1218.30 245.0542
1218.40 245.3217
1218.50 245.5891
1218.60 245.8565
1218.70 246.1239
1218.80 246.3913
1218.90 246.6587
1219.00 246.9262
1219.10 247.1936
1219.20 247.461
1219.30 247.7284
1219.40 247.9958
1219.50 248.2632
1219.60 248.5307
1219.70 248.7981
1219.80 249.0655
1219.90 249.3329
1220.00 249.6003
1220.10 249.8526
1220.20 249.9685
1220.30 250.0845
1220.40 250.2004
1220.50 250.3163
1220.60 250.4322
1220.70 250.5481
1220.80 250.6641
1220.90 250.78
1221.00 250.8959
1221.10 251.0118
1221.20 251.1277
1221.30 251.2437
1221.40 251.3596
1221.50 251.4755
1221.60 251.5914
1221.70 251.7074
1221.80 251.8233
1221.90 251.9392
1222.00 252.0551
1222.10 252.171
1222.20 252.287
1222.30 252.4029
1222.40 252.5188
1222.50 252.6347
1222.60 252.7507
1222.70 252.8666
1222.80 252.9825
1222.90 253.0984
1223.00 253.2143
1223.10 253.3303
1223.20 253.4462
1223.30 253.5621
1223.40 253.678
1223.50 253.794
1223.60 253.9099
1223.70 254.0258
1223.80 254.1417
1223.90 254.2576
1224.00 254.3736
1224.10 254.4895
1224.20 254.6054
1224.30 254.7213
1224.40 254.8221
1224.50 254.8623
1224.60 254.9024
1224.70 254.9426
1224.80 254.9828
1224.90 255.023
1225.00 255.0631
1225.10 255.1033
1225.20 255.1435
1225.30 255.1836
1225.40 255.2238
1225.50 255.264
1225.60 255.3041
1225.70 255.3443
1225.80 255.3845
1225.90 255.4247
1226.00 255.4648
1226.10 255.505
1226.20 255.5452
1226.30 255.5853
1226.40 255.6255
1226.50 255.6657
1226.60 255.7058
1226.70 255.746
1226.80 255.7862
1226.90 255.8264
1227.00 255.8665
1227.10 255.9067
1227.20 255.9469
1227.30 255.987
1227.40 256.0272
1227.50 256.0674
1227.60 256.1076
1227.70 256.1477
1227.80 256.1879
1227.90 256.2281
1228.00 256.2682
1228.10 256.3084
1228.20 256.3486
1228.30 256.3887
1228.40 256.4289
1228.50 256.4691
1228.60 256.5093
1228.70 256.5139
1228.80 256.3763
1228.90 256.2387
1229.00 256.1011
1229.10 255.9635
1229.20 255.8259
1229.30 255.6883
1229.40 255.5507
1229.50 255.4131
1229.60 255.2755
1229.70 255.1378
1229.80 255.0002
1229.90 254.8626
1230.00 254.725
1230.10 254.5874
1230.20 254.4498
1230.30 254.3122
1230.40 254.1746
1230.50 254.037
1230.60 253.8994
1230.70 253.7618
1230.80 253.6242
1230.90 253.4866
1231.00 253.349
1231.10 253.2114
1231.20 253.0738
1231.30 252.9362
1231.40 252.7986
1231.50 252.661
1231.60 252.5234
1231.70 252.3858
1231.80 252.2482
1231.90 252.1106
1232.00 251.973
1232.10 251.8354
1232.20 251.6978
1232.30 251.5602
1232.40 251.4226
1232.50 251.285
1232.60 251.1474
1232.70 251.0098
1232.80 250.8722
1232.90 250.7346
1233.00 250.5785
1233.10 250.3487
1233.20 250.1188
1233.30 249.889
1233.40 249.6592
1233.50 249.4293
1233.60 249.1995
1233.70 248.9696
1233.80 248.7398
1233.90 248.51
1234.00 248.2801
1234.10 248.0503
1234.20 247.8205
1234.30 247.5906
1234.40 247.3608
1234.50 247.1309
1234.60 246.9011
1234.70 246.6713
1234.80 246.4414
1234.90 246.2116
1235.00 245.9818
1235.10 245.7519
1235.20 245.5221
1235.30 245.2922
1235.40 245.0624
1235.50 244.8326
1235.60 244.6027
1235.70 244.3729
1235.80 244.1431
1235.90 243.9132
1236.00 243.6834
1236.10 243.4535
1236.20 243.2237
1236.30 242.9939
1236.40 242.764
1236.50 242.5342
1236.60 242.3044
1236.70 242.0745
1236.80 241.8447
1236.90 241.6148
1237.00 241.385
1237.10 241.1552
1237.20 240.9253
1237.30 240.7168
1237.40 240.5936
1237.50 240.4704
1237.60 240.3472
1237.70 240.224
1237.80 240.1008
1237.90 239.9776
1238.00 239.8544
1238.10 239.7312
1238.20 239.608
1238.30 239.4849
1238.40 239.3617
1238.50 239.2385
1238.60 239.1153
1238.70 238.9921
1238.80 238.8689
1238.90 238.7457
1239.00 238.6225
1239.10 238.4993
1239.20 238.3761
1239.30 238.2529
1239.40 238.1297
1239.50 238.0065
1239.60 237.8833
1239.70 237.7601
1239.80 237.6369
1239.90 237.5137
1240.00 237.3905
1240.10 237.2673
1240.20 237.1441
1240.30 237.0209
1240.40 236.8977
1240.50 236.7745
1240.60 236.6513
1240.70 236.5281
1240.80 236.4049
1240.90 236.2817
1241.00 236.1585
1241.10 236.0353
1241.20 235.9121
1241.30 235.7889
1241.40 235.6657
1241.50 235.5425
1241.60 235.4217
1241.70 235.3218
1241.80 235.2219
1241.90 235.122
1242.00 235.0221
1242.10 234.9222
1242.20 234.8223
1242.30 234.7224
1242.40 234.6225
1242.50 234.5226
1242.60 234.4227
1242.70 234.3228
1242.80 234.223
1242.90 234.1231
1243.00 234.0232
1243.10 233.9233
1243.20 233.8234
1243.30 233.7235
1243.40 233.6236
1243.50 233.5237
1243.60 233.4238
1243.70 233.3239
1243.80 233.224
1243.90 233.1241
1244.00 233.0242
1244.10 232.9243
1244.20 232.8244
1244.30 232.7245
1244.40 232.6247
1244.50 232.5248
1244.60 232.4249
1244.70 232.325
1244.80 232.2251
1244.90 232.1252
1245.00 232.0253
1245.10 231.9254
1245.20 231.8255
1245.30 231.7256
1245.40 231.6257
1245.50 231.5258
1245.60 231.4259
1245.70 231.326
1245.80 231.2261
1245.90 231.1262
1246.00 231.3179
1246.10 231.5095
1246.20 231.7011
1246.30 231.8927
1246.40 232.0843
1246.50 232.2759
1246.60 232.4675
1246.70 232.6592
1246.80 232.8508
1246.90 233.0424
1247.00 233.234
1247.10 233.4256
1247.20 233.6172
1247.30 233.8088
1247.40 234.0005
1247.50 234.1921
1247.60 234.3837
1247.70 234.5753
1247.80 234.7669
1247.90 234.9585
1248.00 235.1501
1248.10 235.3418
1248.20 235.5334
1248.30 235.725
1248.40 235.9166
1248.50 236.1082
1248.60 236.2998
1248.70 236.4914
1248.80 236.6831
1248.90 236.8747
1249.00 237.0663
1249.10 237.2579
1249.20 237.4495
1249.30 237.6411
1249.40 237.8327
1249.50 238.0243
1249.60 238.216
1249.70 238.4076
1249.80 238.5992
1249.90 238.7908
1250.00 238.9824
1250.10 239.174
1250.20 239.3656
1250.30 239.5271
1250.40 239.6886
1250.50 239.8501
1250.60 240.0115
1250.70 240.173
1250.80 240.3345
1250.90 240.496
1251.00 240.6574
1251.10 240.8189
1251.20 240.9804
1251.30 241.1419
1251.40 241.3033
1251.50 241.4648
1251.60 241.6263
1251.70 241.7877
1251.80 241.9492
1251.90 242.1107
1252.00 242.2722
1252.10 242.4336
1252.20 242.5951
1252.30 242.7566
1252.40 242.9181
1252.50 243.0795
1252.60 243.241
1252.70 243.4025
1252.80 243.564
1252.90 243.7254
1253.00 243.8869
1253.10 244.0484
1253.20 244.2098
1253.30 244.3713
1253.40 244.5328
1253.50 244.6943
1253.60 244.8557
1253.70 245.0172
1253.80 245.1787
1253.90 245.3402
1254.00 245.5016
1254.10 245.6631
1254.20 245.8246
1254.30 245.9861
1254.40 246.1475
1254.50 246.309
1254.60 246.5744
1254.70 246.8513
1254.80 247.1282
1254.90 247.4051
1255.00 247.6821
1255.10 247.959
1255.20 248.2359
1255.30 248.5128
1255.40 248.7898
1255.50 249.0667
1255.60 249.3436
1255.70 249.6205
1255.80 249.8974
1255.90 250.1744
1256.00 250.4513
1256.10 250.7282
1256.20 251.0051
1256.30 251.2821
1256.40 251.559
1256.50 251.8359
1256.60 252.1128
1256.70 252.3897
1256.80 252.6667
1256.90 252.9436
1257.00 253.2205
1257.10 253.4974
1257.20 253.7744
1257.30 254.0513
1257.40 254.3282
1257.50 254.6051
1257.60 254.882
1257.70 255.159
1257.80 255.4359
1257.90 255.7128
1258.00 255.9897
1258.10 256.2667
1258.20 256.5436
1258.30 256.8205
1258.40 257.0974
1258.50 257.3743
1258.60 257.6513
1258.70 257.9282
1258.80 258.2051
1258.90 258.4921
1259.00 258.7834
1259.10 259.0746
1259.20 259.3659
1259.30 259.6572
1259.40 259.9485
1259.50 260.2398
1259.60 260.5311
1259.70 260.8223
1259.80 261.1136
1259.90 261.4049
1260.00 261.6962
1260.10 261.9875
1260.20 262.2787
1260.30 262.57
1260.40 262.8613
1260.50 263.1526
1260.60 263.4439
1260.70 263.7351
1260.80 264.0264
1260.90 264.3177
1261.00 264.609
1261.10 264.9003
1261.20 265.1915
1261.30 265.4828
1261.40 265.7741
1261.50 266.0654
1261.60 266.3567
1261.70 266.648
1261.80 266.9392
1261.90 267.2305
1262.00 267.5218
1262.10 267.8131
1262.20 268.1044
1262.30 268.3956
1262.40 268.6869
1262.50 268.9782
1262.60 269.2695
1262.70 269.5608
1262.80 269.852
1262.90 270.1433
1263.00 270.4346
1263.10 270.7259
1263.20 270.9456
1263.30 271.1176
1263.40 271.2896
1263.50 271.4615
1263.60 271.6335
1263.70 271.8055
1263.80 271.9775
1263.90 272.1495
1264.00 272.3215
1264.10 272.4935
1264.20 272.6654
1264.30 272.8374
1264.40 273.0094
1264.50 273.1814
1264.60 273.3534
1264.70 273.5254
1264.80 273.6974
1264.90 273.8693
1265.00 274.0413
1265.10 274.2133
1265.20 274.3853
1265.30 274.5573
1265.40 274.7293
1265.50 274.9012
1265.60 275.0732
1265.70 275.2452
1265.80 275.4172
1265.90 275.5892
1266.00 275.7612
1266.10 275.9332
1266.20 276.1051
1266.30 276.2771
1266.40 276.4491
1266.50 276.6211
1266.60 276.7931
1266.70 276.9651
1266.80 277.1371
1266.90 277.309
1267.00 277.481
1267.10 277.653
1267.20 277.825
1267.30 277.997
1267.40 278.169
1267.50 278.3313
1267.60 278.4838
1267.70 278.6364
1267.80 278.789
1267.90 278.9416
1268.00 279.0942
1268.10 279.2467
1268.20 279.3993
1268.30 279.5519
1268.40 279.7045
1268.50 279.8571
1268.60 280.0097
1268.70 280.1622
1268.80 280.3148
1268.90 280.4674
1269.00 280.62
1269.10 280.7726
1269.20 280.9252
1269.30 281.0777
1269.40 281.2303
1269.50 281.3829
1269.60 281.5355
1269.70 281.6881
1269.80 281.8407
1269.90 281.9932
1270.00 282.1458
1270.10 282.2984
1270.20 282.451
1270.30 282.6036
1270.40 282.7561
1270.50 282.9087
1270.60 283.0613
1270.70 283.2139
1270.80 283.3665
1270.90 283.5191
1271.00 283.6716
1271.10 283.8242
1271.20 283.9768
1271.30 284.1294
1271.40 284.282
1271.50 284.4346
1271.60 284.5871
1271.70 284.7397
1271.80 284.8499
1271.90 284.8613
1272.00 284.8727
1272.10 284.8841
1272.20 284.8955
1272.30 284.9069
1272.40 284.9183
1272.50 284.9297
1272.60 284.9411
1272.70 284.9525
1272.80 284.9639
1272.90 284.9753
1273.00 284.9867
1273.10 284.9981
1273.20 285.0095
1273.30 285.0209
1273.40 285.0323
1273.50 285.0437
1273.60 285.0551
1273.70 285.0665
1273.80 285.0779
1273.90 285.0893
1274.00 285.1007
1274.10 285.1121
1274.20 285.1235
1274.30 285.1349
1274.40 285.1463
1274.50 285.1577
1274.60 285.1691
1274.70 285.1805
1274.80 285.1919
1274.90 285.2033
1275.00 285.2147
1275.10 285.2261
1275.20 285.2375
1275.30 285.2489
1275.40 285.2603
1275.50 285.2717
1275.60 285.2831
1275.70 285.2945
1275.80 285.3059
1275.90 285.3173
1276.00 285.3287
1276.10 285.3322
1276.20 285.2648
1276.30 285.1974
1276.40 285.13
1276.50 285.0626
1276.60 284.9952
1276.70 284.9278
1276.80 284.8604
1276.90 284.7929
1277.00 284.7255
1277.10 284.6581
1277.20 284.5907
1277.30 284.5233
1277.40 284.4559
1277.50 284.3885
1277.60 284.3211
1277.70 284.2536
1277.80 284.1862
1277.90 284.1188
1278.00 284.0514
1278.10 283.984
1278.20 283.9166
1278.30 283.8492
1278.40 283.7818
1278.50 283.7144
1278.60 283.6469
1278.70 283.5795
1278.80 283.5121
1278.90 283.4447
1279.00 283.3773
1279.10 283.3099
1279.20 283.2425
1279.30 283.1751
1279.40 283.1076
1279.50 283.0402
1279.60 282.9728
1279.70 282.9054
1279.80 282.838
1279.90 282.7706
1280.00 282.7032
1280.10 282.6358
1280.20 282.5683
1280.30 282.5009
1280.40 282.4335
1280.50 282.4259
1280.60 282.4182
1280.70 282.4106
1280.80 282.4029
1280.90 282.3953
1281.00 282.3876
1281.10 282.3799
1281.20 282.3723
1281.30 282.3646
1281.40 282.357
1281.50 282.3493
1281.60 282.3417
1281.70 282.334
1281.80 282.3264
1281.90 282.3187
1282.00 282.3111
1282.10 282.3034
1282.20 282.2958
1282.30 282.2881
1282.40 282.2804
1282.50 282.2728
1282.60 282.2651
1282.70 282.2575
1282.80 282.2498
1282.90 282.2422
1283.00 282.2345
1283.10 282.2269
1283.20 282.2192
1283.30 282.2116
1283.40 282.2039
1283.50 282.1963
1283.60 282.1886
1283.70 282.1809
1283.80 282.1733
1283.90 282.1656
1284.00 282.158
1284.10 282.1503
1284.20 282.1427
1284.30 282.135
1284.40 282.1274
1284.50 282.1197
1284.60 282.1121
1284.70 282.1044
1284.80 282.143
1284.90 282.1932
1285.00 282.2433
1285.10 282.2935
1285.20 282.3436
1285.30 282.3938
1285.40 282.4439
1285.50 282.4941
1285.60 282.5443
1285.70 282.5944
1285.80 282.6446
1285.90 282.6947
1286.00 282.7449
1286.10 282.795
1286.20 282.8452
1286.30 282.8954
1286.40 282.9455
1286.50 282.9957
1286.60 283.0458
1286.70 283.096
1286.80 283.1461
1286.90 283.1963
1287.00 283.2465
1287.10 283.2966
1287.20 283.3468
1287.30 283.3969
1287.40 283.4471
1287.50 283.4972
1287.60 283.5474
1287.70 283.5976
1287.80 283.6477
1287.90 283.6979
1288.00 283.748
1288.10 283.7982
1288.20 283.8483
1288.30 283.8985
1288.40 283.9487
1288.50 283.9988
1288.60 284.049
1288.70 284.0991
1288.80 284.1493
1288.90 284.1994
1289.00 284.2496
1289.10 284.2033
1289.20 284.0928
1289.30 283.9823
1289.40 283.8718
1289.50 283.7612
1289.60 283.6507
1289.70 283.5402
1289.80 283.4296
1289.90 283.3191
1290.00 283.2086
1290.10 283.098
1290.20 282.9875
1290.30 282.877
1290.40 282.7665
1290.50 282.6559
1290.60 282.5454
1290.70 282.4349
1290.80 282.3243
1290.90 282.2138
1291.00 282.1033
1291.10 281.9927
1291.20 281.8822
1291.30 281.7717
1291.40 281.6612
1291.50 281.5506
1291.60 281.4401
1291.70 281.3296
1291.80 281.219
1291.90 281.1085
1292.00 280.998
1292.10 280.8874
1292.20 280.7769
1292.30 280.6664
1292.40 280.5559
1292.50 280.4453
1292.60 280.3348
1292.70 280.2243
1292.80 280.1137
1292.90 280.0032
1293.00 279.8927
1293.10 279.7821
1293.20 279.6716
1293.30 279.5611
1293.40 279.4863
1293.50 279.4651
1293.60 279.4439
1293.70 279.4227
1293.80 279.4015
1293.90 279.3803
1294.00 279.3591
1294.10 279.3379
1294.20 279.3167
1294.30 279.2955
1294.40 279.2743
1294.50 279.2531
1294.60 279.2319
1294.70 279.2107
1294.80 279.1895
1294.90 279.1683
1295.00 279.1471
1295.10 279.1259
1295.20 279.1047
1295.30 279.0835
1295.40 279.0623
1295.50 279.0411
1295.60 279.0199
1295.70 278.9987
1295.80 278.9775
1295.90 278.9564
1296.00 278.9352
1296.10 278.914
1296.20 278.8928
1296.30 278.8716
1296.40 278.8504
1296.50 278.8292
1296.60 278.808
1296.70 278.7868
1296.80 278.7656
1296.90 278.7444
1297.00 278.7232
1297.10 278.702
1297.20 278.6808
1297.30 278.6596
1297.40 278.6384
1297.50 278.6172
1297.60 278.596
1297.70 278.5835
1297.80 278.6059
1297.90 278.6283
1298.00 278.6506
1298.10 278.673
1298.20 278.6954
1298.30 278.7178
1298.40 278.7402
1298.50 278.7625
1298.60 278.7849
1298.70 278.8073
1298.80 278.8297
1298.90 278.8521
1299.00 278.8744
1299.10 278.8968
1299.20 278.9192
1299.30 278.9416
1299.40 278.9639
1299.50 278.9863
1299.60 279.0087
1299.70 279.0311
1299.80 279.0535
1299.90 279.0758
