# Version 2.1 - nm, norm@500 to 1, cut digits
# Wavelength(nm)  Flambda(ergs/cm^s/s/nm)
300.00 1.492096e-95
300.10 1.492096e-95
300.20 1.492096e-95
300.30 1.492096e-95
300.40 1.492096e-95
300.50 1.492096e-95
300.60 1.492096e-95
300.70 1.492096e-95
300.80 1.492096e-95
300.90 1.492096e-95
301.00 1.492096e-95
301.10 1.492096e-95
301.20 1.492096e-95
301.30 1.492096e-95
301.40 1.492096e-95
301.50 1.492096e-95
301.60 1.492096e-95
301.70 1.492096e-95
301.80 1.492096e-95
301.90 1.492096e-95
302.00 1.492096e-95
302.10 1.492096e-95
302.20 1.492096e-95
302.30 1.492096e-95
302.40 1.492096e-95
302.50 1.492096e-95
302.60 1.492096e-95
302.70 1.492096e-95
302.80 1.492096e-95
302.90 1.492096e-95
303.00 1.492096e-95
303.10 1.492096e-95
303.20 1.492096e-95
303.30 1.492096e-95
303.40 1.492096e-95
303.50 1.492096e-95
303.60 1.492096e-95
303.70 1.492096e-95
303.80 1.492096e-95
303.90 1.492096e-95
304.00 1.492096e-95
304.10 1.492096e-95
304.20 1.492096e-95
304.30 1.492096e-95
304.40 1.492096e-95
304.50 1.492096e-95
304.60 1.492096e-95
304.70 1.492096e-95
304.80 1.492096e-95
304.90 1.492096e-95
305.00 1.492096e-95
305.10 1.492096e-95
305.20 1.492096e-95
305.30 1.492096e-95
305.40 1.492096e-95
305.50 1.492096e-95
305.60 1.492096e-95
305.70 1.492096e-95
305.80 1.492096e-95
305.90 1.492096e-95
306.00 1.492096e-95
306.10 1.492096e-95
306.20 1.492096e-95
306.30 1.492096e-95
306.40 1.492096e-95
306.50 1.492096e-95
306.60 1.492096e-95
306.70 1.492096e-95
306.80 1.492096e-95
306.90 1.492096e-95
307.00 1.492096e-95
307.10 1.492096e-95
307.20 1.492096e-95
307.30 1.492096e-95
307.40 1.492096e-95
307.50 1.492096e-95
307.60 1.492096e-95
307.70 1.492096e-95
307.80 1.492096e-95
307.90 1.492096e-95
308.00 1.492096e-95
308.10 1.492096e-95
308.20 1.492096e-95
308.30 1.492096e-95
308.40 1.492096e-95
308.50 1.492096e-95
308.60 1.492096e-95
308.70 1.492096e-95
308.80 1.492096e-95
308.90 1.492096e-95
309.00 1.492096e-95
309.10 1.492096e-95
309.20 1.492096e-95
309.30 1.492096e-95
309.40 1.492096e-95
309.50 1.492096e-95
309.60 1.492096e-95
309.70 1.492096e-95
309.80 1.492096e-95
309.90 1.492096e-95
310.00 1.492096e-95
310.10 1.492096e-95
310.20 1.492096e-95
310.30 1.492096e-95
310.40 1.492096e-95
310.50 1.492096e-95
310.60 1.492096e-95
310.70 1.492096e-95
310.80 1.492096e-95
310.90 1.492096e-95
311.00 1.492096e-95
311.10 1.492096e-95
311.20 1.492096e-95
311.30 1.492096e-95
311.40 1.492096e-95
311.50 1.492096e-95
311.60 1.492096e-95
311.70 1.492096e-95
311.80 1.492096e-95
311.90 1.492096e-95
312.00 1.492096e-95
312.10 1.492096e-95
312.20 1.492096e-95
312.30 1.492096e-95
312.40 1.492096e-95
312.50 1.492096e-95
312.60 1.492096e-95
312.70 1.492096e-95
312.80 1.492096e-95
312.90 1.492096e-95
313.00 1.492096e-95
313.10 1.492096e-95
313.20 1.492096e-95
313.30 1.492096e-95
313.40 1.492096e-95
313.50 1.492096e-95
313.60 1.492096e-95
313.70 1.492096e-95
313.80 1.492096e-95
313.90 1.492096e-95
314.00 1.492096e-95
314.10 1.492096e-95
314.20 1.492096e-95
314.30 1.492096e-95
314.40 1.492096e-95
314.50 1.492096e-95
314.60 1.492096e-95
314.70 1.492096e-95
314.80 1.492096e-95
314.90 1.492096e-95
315.00 1.492096e-95
315.10 1.492096e-95
315.20 1.492096e-95
315.30 1.492096e-95
315.40 1.492096e-95
315.50 1.492096e-95
315.60 1.492096e-95
315.70 1.492096e-95
315.80 1.492096e-95
315.90 1.492096e-95
316.00 1.492096e-95
316.10 1.492096e-95
316.20 1.492096e-95
316.30 1.492096e-95
316.40 1.492096e-95
316.50 1.492096e-95
316.60 1.492096e-95
316.70 1.492096e-95
316.80 1.492096e-95
316.90 1.492096e-95
317.00 1.492096e-95
317.10 1.492096e-95
317.20 1.492096e-95
317.30 1.492096e-95
317.40 1.492096e-95
317.50 1.492096e-95
317.60 1.492096e-95
317.70 1.492096e-95
317.80 1.492096e-95
317.90 1.492096e-95
318.00 1.492096e-95
318.10 1.492096e-95
318.20 1.492096e-95
318.30 1.492096e-95
318.40 1.492096e-95
318.50 1.492096e-95
318.60 1.492096e-95
318.70 1.492096e-95
318.80 1.492096e-95
318.90 1.492096e-95
319.00 1.492096e-95
319.10 1.492096e-95
319.20 1.492096e-95
319.30 1.492096e-95
319.40 1.492096e-95
319.50 1.492096e-95
319.60 1.492096e-95
319.70 1.492096e-95
319.80 1.492096e-95
319.90 1.492096e-95
320.00 1.492096e-95
320.10 1.492096e-95
320.20 1.492096e-95
320.30 1.492096e-95
320.40 1.492096e-95
320.50 1.492096e-95
320.60 1.492096e-95
320.70 1.492096e-95
320.80 1.492096e-95
320.90 1.492096e-95
321.00 1.492096e-95
321.10 1.492096e-95
321.20 1.492096e-95
321.30 1.492096e-95
321.40 1.492096e-95
321.50 1.492096e-95
321.60 1.492096e-95
321.70 1.492096e-95
321.80 1.492096e-95
321.90 1.492096e-95
322.00 1.492096e-95
322.10 1.492096e-95
322.20 1.492096e-95
322.30 1.492096e-95
322.40 1.492096e-95
322.50 1.492096e-95
322.60 1.492096e-95
322.70 1.492096e-95
322.80 1.492096e-95
322.90 1.492096e-95
323.00 1.492096e-95
323.10 1.492096e-95
323.20 1.492096e-95
323.30 1.492096e-95
323.40 1.492096e-95
323.50 1.492096e-95
323.60 1.492096e-95
323.70 1.492096e-95
323.80 1.492096e-95
323.90 1.492096e-95
324.00 1.492096e-95
324.10 1.492096e-95
324.20 1.492096e-95
324.30 1.492096e-95
324.40 1.492096e-95
324.50 1.492096e-95
324.60 1.492096e-95
324.70 1.492096e-95
324.80 1.492096e-95
324.90 1.492096e-95
325.00 1.492096e-95
325.10 1.492096e-95
325.20 1.492096e-95
325.30 1.492096e-95
325.40 1.492096e-95
325.50 1.492096e-95
325.60 1.492096e-95
325.70 1.492096e-95
325.80 1.492096e-95
325.90 1.492096e-95
326.00 1.492096e-95
326.10 1.492096e-95
326.20 1.492096e-95
326.30 1.492096e-95
326.40 1.492096e-95
326.50 1.492096e-95
326.60 1.492096e-95
326.70 1.492096e-95
326.80 1.492096e-95
326.90 1.492096e-95
327.00 1.492096e-95
327.10 1.492096e-95
327.20 1.492096e-95
327.30 1.492096e-95
327.40 1.492096e-95
327.50 1.492096e-95
327.60 1.492096e-95
327.70 1.492096e-95
327.80 1.492096e-95
327.90 1.492096e-95
328.00 1.492096e-95
328.10 1.492096e-95
328.20 1.492096e-95
328.30 1.492096e-95
328.40 1.492096e-95
328.50 1.492096e-95
328.60 1.492096e-95
328.70 1.492096e-95
328.80 1.492096e-95
328.90 1.492096e-95
329.00 1.492096e-95
329.10 1.492096e-95
329.20 1.492096e-95
329.30 1.492096e-95
329.40 1.492096e-95
329.50 1.492096e-95
329.60 1.492096e-95
329.70 1.492096e-95
329.80 1.492096e-95
329.90 1.492096e-95
330.00 1.492096e-95
330.10 1.492096e-95
330.20 1.492096e-95
330.30 1.492096e-95
330.40 1.492096e-95
330.50 1.492096e-95
330.60 1.492096e-95
330.70 1.492096e-95
330.80 1.492096e-95
330.90 1.492096e-95
331.00 1.492096e-95
331.10 1.492096e-95
331.20 1.492096e-95
331.30 1.492096e-95
331.40 1.492096e-95
331.50 1.492096e-95
331.60 1.492096e-95
331.70 1.492096e-95
331.80 1.492096e-95
331.90 1.492096e-95
332.00 1.492096e-95
332.10 1.492096e-95
332.20 1.492096e-95
332.30 1.492096e-95
332.40 1.492096e-95
332.50 1.492096e-95
332.60 1.492096e-95
332.70 1.492096e-95
332.80 1.492096e-95
332.90 1.492096e-95
333.00 1.492096e-95
333.10 1.492096e-95
333.20 1.492096e-95
333.30 1.492096e-95
333.40 1.492096e-95
333.50 1.492096e-95
333.60 1.492096e-95
333.70 1.492096e-95
333.80 1.492096e-95
333.90 1.492096e-95
334.00 1.492096e-95
334.10 1.492096e-95
334.20 1.492096e-95
334.30 1.492096e-95
334.40 1.492096e-95
334.50 1.492096e-95
334.60 1.492096e-95
334.70 1.492096e-95
334.80 1.492096e-95
334.90 1.492096e-95
335.00 1.492096e-95
335.10 1.492096e-95
335.20 1.492096e-95
335.30 1.492096e-95
335.40 1.492096e-95
335.50 1.492096e-95
335.60 1.492096e-95
335.70 1.492096e-95
335.80 1.492096e-95
335.90 1.492096e-95
336.00 1.492096e-95
336.10 1.492096e-95
336.20 1.492096e-95
336.30 1.492096e-95
336.40 1.492096e-95
336.50 1.492096e-95
336.60 1.492096e-95
336.70 1.492096e-95
336.80 1.492096e-95
336.90 1.492096e-95
337.00 1.492096e-95
337.10 1.492096e-95
337.20 1.492096e-95
337.30 1.492096e-95
337.40 1.492096e-95
337.50 1.492096e-95
337.60 1.492096e-95
337.70 1.492096e-95
337.80 1.492096e-95
337.90 1.492096e-95
338.00 1.492096e-95
338.10 1.492096e-95
338.20 1.492096e-95
338.30 1.492096e-95
338.40 1.492096e-95
338.50 1.492096e-95
338.60 1.492096e-95
338.70 1.492096e-95
338.80 1.492096e-95
338.90 1.492096e-95
339.00 1.492096e-95
339.10 1.492096e-95
339.20 1.492096e-95
339.30 1.492096e-95
339.40 1.492096e-95
339.50 1.492096e-95
339.60 1.492096e-95
339.70 1.492096e-95
339.80 1.492096e-95
339.90 1.492096e-95
340.00 1.492096e-95
340.10 1.492096e-95
340.20 1.492096e-95
340.30 1.492096e-95
340.40 1.492096e-95
340.50 1.492096e-95
340.60 1.492096e-95
340.70 1.492096e-95
340.80 1.492096e-95
340.90 1.492096e-95
341.00 1.492096e-95
341.10 1.492096e-95
341.20 1.492096e-95
341.30 1.492096e-95
341.40 1.492096e-95
341.50 1.492096e-95
341.60 1.492096e-95
341.70 1.492096e-95
341.80 1.492096e-95
341.90 1.492096e-95
342.00 1.492096e-95
342.10 1.492096e-95
342.20 1.492096e-95
342.30 1.492096e-95
342.40 1.492096e-95
342.50 1.492096e-95
342.60 1.492096e-95
342.70 1.492096e-95
342.80 1.492096e-95
342.90 1.492096e-95
343.00 1.492096e-95
343.10 1.492096e-95
343.20 1.492096e-95
343.30 1.492096e-95
343.40 1.492096e-95
343.50 1.492096e-95
343.60 1.492096e-95
343.70 1.492096e-95
343.80 1.492096e-95
343.90 1.492096e-95
344.00 1.492096e-95
344.10 1.492096e-95
344.20 1.492096e-95
344.30 1.492096e-95
344.40 1.492096e-95
344.50 1.492096e-95
344.60 1.492096e-95
344.70 1.492096e-95
344.80 1.492096e-95
344.90 1.492096e-95
345.00 1.492096e-95
345.10 1.492096e-95
345.20 1.492096e-95
345.30 1.492096e-95
345.40 1.492096e-95
345.50 1.492096e-95
345.60 1.492096e-95
345.70 1.492096e-95
345.80 1.492096e-95
345.90 1.492096e-95
346.00 1.492096e-95
346.10 1.492096e-95
346.20 1.492096e-95
346.30 1.492096e-95
346.40 1.492096e-95
346.50 1.492096e-95
346.60 1.492096e-95
346.70 1.492096e-95
346.80 1.492096e-95
346.90 1.492096e-95
347.00 1.492096e-95
347.10 1.492096e-95
347.20 1.492096e-95
347.30 1.492096e-95
347.40 1.492096e-95
347.50 1.492096e-95
347.60 1.492096e-95
347.70 1.492096e-95
347.80 1.492096e-95
347.90 1.492096e-95
348.00 1.492096e-95
348.10 1.492096e-95
348.20 1.492096e-95
348.30 1.492096e-95
348.40 1.492096e-95
348.50 1.492096e-95
348.60 1.492096e-95
348.70 1.492096e-95
348.80 1.492096e-95
348.90 1.492096e-95
349.00 1.492096e-95
349.10 1.492096e-95
349.20 1.492096e-95
349.30 1.492096e-95
349.40 1.492096e-95
349.50 1.492096e-95
349.60 1.492096e-95
349.70 1.492096e-95
349.80 1.492096e-95
349.90 1.492096e-95
350.00 1.492096e-95
350.10 1.492096e-95
350.20 1.492096e-95
350.30 1.492096e-95
350.40 1.492096e-95
350.50 1.492096e-95
350.60 1.492096e-95
350.70 1.492096e-95
350.80 1.492096e-95
350.90 1.492096e-95
351.00 1.492096e-95
351.10 1.492096e-95
351.20 1.492096e-95
351.30 1.492096e-95
351.40 1.492096e-95
351.50 1.492096e-95
351.60 1.492096e-95
351.70 1.492096e-95
351.80 1.492096e-95
351.90 1.492096e-95
352.00 1.492096e-95
352.10 1.492096e-95
352.20 1.492096e-95
352.30 1.492096e-95
352.40 1.492096e-95
352.50 1.492096e-95
352.60 1.492096e-95
352.70 1.492096e-95
352.80 1.492096e-95
352.90 1.492096e-95
353.00 1.492096e-95
353.10 1.492096e-95
353.20 1.492096e-95
353.30 1.492096e-95
353.40 1.492096e-95
353.50 1.492096e-95
353.60 1.492096e-95
353.70 1.492096e-95
353.80 1.492096e-95
353.90 1.492096e-95
354.00 1.492096e-95
354.10 1.492096e-95
354.20 1.492096e-95
354.30 1.492096e-95
354.40 1.492096e-95
354.50 1.492096e-95
354.60 1.492096e-95
354.70 1.492096e-95
354.80 1.492096e-95
354.90 1.492096e-95
355.00 1.492096e-95
355.10 1.492096e-95
355.20 1.492096e-95
355.30 1.492096e-95
355.40 1.492096e-95
355.50 1.492096e-95
355.60 1.492096e-95
355.70 1.492096e-95
355.80 1.492096e-95
355.90 1.492096e-95
356.00 1.492096e-95
356.10 1.492096e-95
356.20 1.492096e-95
356.30 1.492096e-95
356.40 1.492096e-95
356.50 1.492096e-95
356.60 1.492096e-95
356.70 1.492096e-95
356.80 1.492096e-95
356.90 1.492096e-95
357.00 1.492096e-95
357.10 1.492096e-95
357.20 1.492096e-95
357.30 1.492096e-95
357.40 1.492096e-95
357.50 1.492096e-95
357.60 1.492096e-95
357.70 1.492096e-95
357.80 1.492096e-95
357.90 1.492096e-95
358.00 1.492096e-95
358.10 1.492096e-95
358.20 1.492096e-95
358.30 1.492096e-95
358.40 1.492096e-95
358.50 1.492096e-95
358.60 1.492096e-95
358.70 1.492096e-95
358.80 1.492096e-95
358.90 1.492096e-95
359.00 1.492096e-95
359.10 1.492096e-95
359.20 1.492096e-95
359.30 1.492096e-95
359.40 1.492096e-95
359.50 1.492096e-95
359.60 1.492096e-95
359.70 1.492096e-95
359.80 1.492096e-95
359.90 1.492096e-95
360.00 1.492096e-95
360.10 1.492096e-95
360.20 1.492096e-95
360.30 1.492096e-95
360.40 1.492096e-95
360.50 1.492096e-95
360.60 1.492096e-95
360.70 1.492096e-95
360.80 1.492096e-95
360.90 1.492096e-95
361.00 1.492096e-95
361.10 1.492096e-95
361.20 1.492096e-95
361.30 1.492096e-95
361.40 1.492096e-95
361.50 1.492096e-95
361.60 1.492096e-95
361.70 1.492096e-95
361.80 1.492096e-95
361.90 1.492096e-95
362.00 1.492096e-95
362.10 1.492096e-95
362.20 1.492096e-95
362.30 1.492096e-95
362.40 1.492096e-95
362.50 1.492096e-95
362.60 1.492096e-95
362.70 1.492096e-95
362.80 1.492096e-95
362.90 1.492096e-95
363.00 1.492096e-95
363.10 1.492096e-95
363.20 1.492096e-95
363.30 1.492096e-95
363.40 1.492096e-95
363.50 1.492096e-95
363.60 1.492096e-95
363.70 1.492096e-95
363.80 1.492096e-95
363.90 1.492096e-95
364.00 1.492096e-95
364.10 1.492096e-95
364.20 1.492096e-95
364.30 1.492096e-95
364.40 1.492096e-95
364.50 1.492096e-95
364.60 1.492096e-95
364.70 1.492096e-95
364.80 1.492096e-95
364.90 1.492096e-95
365.00 1.492096e-95
365.10 1.492096e-95
365.20 1.492096e-95
365.30 1.492096e-95
365.40 1.492096e-95
365.50 1.492096e-95
365.60 1.492096e-95
365.70 1.492096e-95
365.80 1.492096e-95
365.90 1.492096e-95
366.00 1.492096e-95
366.10 1.492096e-95
366.20 1.492096e-95
366.30 1.492096e-95
366.40 1.492096e-95
366.50 1.492096e-95
366.60 1.492096e-95
366.70 1.492096e-95
366.80 1.492096e-95
366.90 1.492096e-95
367.00 1.492096e-95
367.10 1.492096e-95
367.20 1.492096e-95
367.30 1.492096e-95
367.40 1.492096e-95
367.50 1.492096e-95
367.60 1.492096e-95
367.70 1.492096e-95
367.80 1.492096e-95
367.90 1.492096e-95
368.00 1.492096e-95
368.10 1.492096e-95
368.20 1.492096e-95
368.30 1.492096e-95
368.40 1.492096e-95
368.50 1.492096e-95
368.60 1.492096e-95
368.70 1.492096e-95
368.80 1.492096e-95
368.90 1.492096e-95
369.00 1.492096e-95
369.10 1.492096e-95
369.20 1.492096e-95
369.30 1.492096e-95
369.40 1.492096e-95
369.50 1.492096e-95
369.60 1.492096e-95
369.70 1.492096e-95
369.80 1.492096e-95
369.90 1.492096e-95
370.00 1.492096e-95
370.10 1.492096e-95
370.20 1.492096e-95
370.30 1.492096e-95
370.40 1.492096e-95
370.50 1.492096e-95
370.60 1.492096e-95
370.70 1.492096e-95
370.80 1.492096e-95
370.90 1.492096e-95
371.00 1.492096e-95
371.10 1.492096e-95
371.20 1.492096e-95
371.30 1.492096e-95
371.40 1.492096e-95
371.50 1.492096e-95
371.60 1.492096e-95
371.70 1.492096e-95
371.80 1.492096e-95
371.90 1.492096e-95
372.00 1.492096e-95
372.10 1.492096e-95
372.20 1.492096e-95
372.30 1.492096e-95
372.40 1.492096e-95
372.50 1.492096e-95
372.60 1.492096e-95
372.70 1.492096e-95
372.80 1.492096e-95
372.90 1.492096e-95
373.00 1.492096e-95
373.10 1.492096e-95
373.20 1.492096e-95
373.30 1.492096e-95
373.40 1.492096e-95
373.50 1.492096e-95
373.60 1.492096e-95
373.70 1.492096e-95
373.80 1.492096e-95
373.90 1.492096e-95
374.00 1.492096e-95
374.10 1.492096e-95
374.20 1.492096e-95
374.30 1.492096e-95
374.40 1.492096e-95
374.50 1.492096e-95
374.60 1.492096e-95
374.70 1.492096e-95
374.80 1.492096e-95
374.90 1.492096e-95
375.00 1.492096e-95
375.10 1.492096e-95
375.20 1.492096e-95
375.30 1.492096e-95
375.40 1.492096e-95
375.50 1.492096e-95
375.60 1.492096e-95
375.70 1.492096e-95
375.80 1.492096e-95
375.90 1.492096e-95
376.00 1.492096e-95
376.10 1.492096e-95
376.20 1.492096e-95
376.30 1.492096e-95
376.40 1.492096e-95
376.50 1.492096e-95
376.60 1.492096e-95
376.70 1.492096e-95
376.80 1.492096e-95
376.90 1.492096e-95
377.00 1.492096e-95
377.10 1.492096e-95
377.20 1.492096e-95
377.30 1.492096e-95
377.40 1.492096e-95
377.50 1.492096e-95
377.60 1.492096e-95
377.70 1.492096e-95
377.80 1.492096e-95
377.90 1.492096e-95
378.00 1.492096e-95
378.10 1.492096e-95
378.20 1.492096e-95
378.30 1.492096e-95
378.40 1.492096e-95
378.50 1.492096e-95
378.60 1.492096e-95
378.70 1.492096e-95
378.80 1.492096e-95
378.90 1.492096e-95
379.00 1.492096e-95
379.10 1.492096e-95
379.20 1.492096e-95
379.30 1.492096e-95
379.40 1.492096e-95
379.50 1.492096e-95
379.60 1.492096e-95
379.70 1.492096e-95
379.80 1.492096e-95
379.90 1.492096e-95
380.00 1.492096e-95
380.10 1.492096e-95
380.20 1.492096e-95
380.30 1.492096e-95
380.40 1.492096e-95
380.50 1.492096e-95
380.60 1.492096e-95
380.70 1.492096e-95
380.80 1.492096e-95
380.90 1.492096e-95
381.00 1.492096e-95
381.10 1.492096e-95
381.20 1.492096e-95
381.30 1.492096e-95
381.40 1.492096e-95
381.50 1.492096e-95
381.60 1.492096e-95
381.70 1.492096e-95
381.80 1.492096e-95
381.90 1.492096e-95
382.00 1.492096e-95
382.10 1.492096e-95
382.20 1.492096e-95
382.30 1.492096e-95
382.40 1.492096e-95
382.50 1.492096e-95
382.60 1.492096e-95
382.70 1.492096e-95
382.80 1.492096e-95
382.90 1.492096e-95
383.00 1.492096e-95
383.10 1.492096e-95
383.20 1.492096e-95
383.30 1.492096e-95
383.40 1.492096e-95
383.50 1.492096e-95
383.60 1.492096e-95
383.70 1.492096e-95
383.80 1.492096e-95
383.90 1.492096e-95
384.00 1.492096e-95
384.10 1.492096e-95
384.20 1.492096e-95
384.30 1.492096e-95
384.40 1.492096e-95
384.50 1.492096e-95
384.60 1.492096e-95
384.70 1.492096e-95
384.80 1.492096e-95
384.90 1.492096e-95
385.00 1.492096e-95
385.10 1.492096e-95
385.20 1.492096e-95
385.30 1.492096e-95
385.40 1.492096e-95
385.50 1.492096e-95
385.60 1.492096e-95
385.70 1.492096e-95
385.80 1.492096e-95
385.90 1.492096e-95
386.00 1.492096e-95
386.10 1.492096e-95
386.20 1.492096e-95
386.30 1.492096e-95
386.40 1.492096e-95
386.50 1.492096e-95
386.60 1.492096e-95
386.70 1.492096e-95
386.80 1.492096e-95
386.90 1.492096e-95
387.00 1.492096e-95
387.10 1.492096e-95
387.20 1.492096e-95
387.30 1.492096e-95
387.40 1.492096e-95
387.50 1.492096e-95
387.60 1.492096e-95
387.70 1.492096e-95
387.80 1.492096e-95
387.90 1.492096e-95
388.00 1.492096e-95
388.10 1.492096e-95
388.20 1.492096e-95
388.30 1.492096e-95
388.40 1.492096e-95
388.50 1.492096e-95
388.60 1.492096e-95
388.70 1.492096e-95
388.80 1.492096e-95
388.90 1.492096e-95
389.00 1.492096e-95
389.10 1.492096e-95
389.20 1.492096e-95
389.30 1.492096e-95
389.40 1.492096e-95
389.50 1.492096e-95
389.60 1.492096e-95
389.70 1.492096e-95
389.80 1.492096e-95
389.90 1.492096e-95
390.00 1.492096e-95
390.10 1.492096e-95
390.20 1.492096e-95
390.30 1.492096e-95
390.40 1.492096e-95
390.50 1.492096e-95
390.60 1.492096e-95
390.70 1.492096e-95
390.80 1.492096e-95
390.90 1.492096e-95
391.00 1.492096e-95
391.10 1.492096e-95
391.20 1.492096e-95
391.30 1.492096e-95
391.40 1.492096e-95
391.50 1.492096e-95
391.60 1.492096e-95
391.70 1.492096e-95
391.80 1.492096e-95
391.90 1.492096e-95
392.00 1.492096e-95
392.10 1.492096e-95
392.20 1.492096e-95
392.30 1.492096e-95
392.40 1.492096e-95
392.50 1.492096e-95
392.60 1.492096e-95
392.70 1.492096e-95
392.80 1.492096e-95
392.90 1.492096e-95
393.00 1.492096e-95
393.10 1.492096e-95
393.20 1.492096e-95
393.30 1.492096e-95
393.40 1.492096e-95
393.50 1.492096e-95
393.60 1.492096e-95
393.70 1.492096e-95
393.80 1.492096e-95
393.90 1.492096e-95
394.00 1.492096e-95
394.10 1.492096e-95
394.20 1.492096e-95
394.30 1.492096e-95
394.40 1.492096e-95
394.50 1.492096e-95
394.60 1.492096e-95
394.70 1.492096e-95
394.80 1.492096e-95
394.90 1.492096e-95
395.00 0.01509731
395.10 0.0318824
395.20 0.04977356
395.30 0.06781135
395.40 0.08440885
395.50 0.09777185
395.60 0.1067209
395.70 0.1109657
395.80 0.1111151
395.90 0.1111151
396.00 0.1111151
396.10 0.1111151
396.20 0.1123763
396.30 0.1170925
396.40 0.1247922
396.50 0.1340505
396.60 0.1432673
396.70 0.1512166
396.80 0.1571847
396.90 0.1610811
397.00 0.1632659
397.10 0.1643077
397.20 0.1648756
397.30 0.1656662
397.40 0.1671735
397.50 0.169823
397.60 0.1739906
397.70 0.1794899
397.80 0.185876
397.90 0.1926602
398.00 0.1993812
398.10 0.2059118
398.20 0.212405
398.30 0.2190529
398.40 0.2259705
398.50 0.2333202
398.60 0.2409176
398.70 0.2483843
398.80 0.2556396
398.90 0.2627369
399.00 0.2696398
399.10 0.2764205
399.20 0.2834264
399.30 0.2910891
399.40 0.2993183
399.50 0.3073609
399.60 0.3146032
399.70 0.3208608
399.80 0.3260611
399.90 0.3298803
400.00 0.3320703
400.10 0.332473
400.20 0.332473
400.30 0.332473
400.40 0.332473
400.50 0.332473
400.60 0.332473
400.70 0.332473
400.80 0.3345392
400.90 0.3396513
401.00 0.3474566
401.10 0.3570244
401.20 0.3671794
401.30 0.3772226
401.40 0.3871491
401.50 0.3972651
401.60 0.4075755
401.70 0.4171731
401.80 0.4247788
401.90 0.4294452
402.00 0.4308147
402.10 0.4308147
402.20 0.4308147
402.30 0.4308147
402.40 0.4308147
402.50 0.4308147
402.60 0.4308147
402.70 0.4308147
402.80 0.4308147
402.90 0.431976
403.00 0.4340766
403.10 0.4368535
403.20 0.4399693
403.30 0.4429667
403.40 0.4454918
403.50 0.4473182
403.60 0.448185
403.70 0.448185
403.80 0.448185
403.90 0.448185
404.00 0.449101
404.10 0.4514886
404.20 0.4552269
404.30 0.4599958
404.40 0.4656418
404.50 0.4724776
404.60 0.481199
404.70 0.4924735
404.80 0.5063779
404.90 0.5223207
405.00 0.5243866
405.10 0.525283
405.20 0.5251394
405.30 0.5246548
405.40 0.5253341
405.50 0.5293258
405.60 0.5385726
405.70 0.5536998
405.80 0.573693
405.90 0.5939272
406.00 0.6136193
406.10 0.6321648
406.20 0.6479225
406.30 0.6588932
406.40 0.6660687
406.50 0.6712373
406.60 0.6758314
406.70 0.6805838
406.80 0.6859994
406.90 0.692192
407.00 0.6987553
407.10 0.7052045
407.20 0.7111539
407.30 0.7161853
407.40 0.7197502
407.50 0.7210736
407.60 0.7196707
407.70 0.7158829
407.80 0.7104603
407.90 0.7044287
408.00 0.6992629
408.10 0.696451
408.20 0.6967453
408.30 0.6999708
408.40 0.7055218
408.50 0.71239
408.60 0.7194484
408.70 0.7255565
408.80 0.7296877
408.90 0.7315302
409.00 0.7314404
409.10 0.729917
409.20 0.727417
409.30 0.7244233
409.40 0.7216988
409.50 0.7201067
409.60 0.7199177
409.70 0.7208473
409.80 0.7224095
409.90 0.7246147
410.00 0.7279414
410.10 0.7329529
410.20 0.7384881
410.30 0.7443419
410.40 0.7510453
410.50 0.7594282
410.60 0.770089
410.70 0.7831969
410.80 0.7966016
410.90 0.8092414
411.00 0.8213296
411.10 0.8331123
411.20 0.8445407
411.30 0.8551264
411.40 0.8637065
411.50 0.8688544
411.60 0.8700722
411.70 0.8683733
411.80 0.8654533
411.90 0.8630422
412.00 0.8627296
412.10 0.8638542
412.20 0.8659825
412.30 0.8697054
412.40 0.8753314
412.50 0.882938
412.60 0.8920597
412.70 0.9015324
412.80 0.9100779
412.90 0.9157124
413.00 0.918479
413.10 0.9191003
413.20 0.9189867
413.30 0.9199745
413.40 0.9235908
413.50 0.9308214
413.60 0.941988
413.70 0.9561921
413.80 0.9710195
413.90 0.9846564
414.00 0.9949431
414.10 1.000897
414.20 1.002983
414.30 1.002416
414.40 1.000425
414.50 0.9979127
414.60 0.9949661
414.70 0.9911049
414.80 0.986129
414.90 0.980359
415.00 0.9743289
415.10 0.9683736
415.20 0.9625467
415.30 0.9566792
415.40 0.9504201
415.50 0.943002
415.60 0.9332157
415.70 0.9206187
415.80 0.905895
415.90 0.8900341
416.00 0.8742338
416.10 0.8599067
416.20 0.8482215
416.30 0.8395466
416.40 0.8336428
416.50 0.8301941
416.60 0.8290996
416.70 0.8304594
416.80 0.833755
416.90 0.8379424
417.00 0.842445
417.10 0.8468535
417.20 0.8506985
417.30 0.8537307
417.40 0.8562391
417.50 0.8591198
417.60 0.8632042
417.70 0.8689102
417.80 0.8761294
417.90 0.8841683
418.00 0.8917613
418.10 0.8970918
418.20 0.8987381
418.30 0.8962217
418.40 0.8895081
418.50 0.8791063
418.60 0.8661909
418.70 0.8526162
418.80 0.8412297
418.90 0.8322898
419.00 0.8254767
419.10 0.8202195
419.20 0.8157136
419.30 0.8110445
419.40 0.8058632
419.50 0.7999021
419.60 0.7932916
419.70 0.7864095
419.80 0.780029
419.90 0.7750206
420.00 0.7720793
420.10 0.771986
420.20 0.7753037
420.30 0.7815506
420.40 0.7890841
420.50 0.7955463
420.60 0.7987243
420.70 0.79735
420.80 0.7910657
420.90 0.7798502
421.00 0.763905
421.10 0.7442761
421.20 0.7228252
421.30 0.7021963
421.40 0.6836897
421.50 0.6684258
421.60 0.6574974
421.70 0.6510178
421.80 0.6487475
421.90 0.6498168
422.00 0.6526672
422.10 0.6556394
422.20 0.6574986
422.30 0.6578203
422.40 0.6571588
422.50 0.6564921
422.60 0.6571044
422.70 0.6608021
422.80 0.6691592
422.90 0.6825974
423.00 0.7002584
423.10 0.7202869
423.20 0.7400603
423.30 0.7568719
423.40 0.7685557
423.50 0.7735722
423.60 0.7713909
423.70 0.7626803
423.80 0.7493089
423.90 0.735672
424.00 0.7244694
424.10 0.7161274
424.20 0.7111284
424.30 0.7114163
424.40 0.716125
424.50 0.7235452
424.60 0.7320573
424.70 0.7404966
424.80 0.7480566
424.90 0.7540895
425.00 0.7578424
425.10 0.7587092
425.20 0.7563637
425.30 0.7510385
425.40 0.7433326
425.50 0.7339426
425.60 0.7255331
425.70 0.718758
425.80 0.7133392
425.90 0.7089659
426.00 0.705074
426.10 0.7014605
426.20 0.6978906
426.30 0.6933657
426.40 0.6873781
426.50 0.6799707
426.60 0.6715427
426.70 0.6624258
426.80 0.6532089
426.90 0.644699
427.00 0.6373562
427.10 0.6313719
427.20 0.626664
427.30 0.6232211
427.40 0.6210682
427.50 0.6195997
427.60 0.6178242
427.70 0.6151798
427.80 0.6117056
427.90 0.6077072
428.00 0.6036977
428.10 0.6005366
428.20 0.5988429
428.30 0.5988195
428.40 0.6004981
428.50 0.6035525
428.60 0.6076777
428.70 0.612468
428.80 0.6164798
428.90 0.6202655
429.00 0.6243252
429.10 0.6289313
429.20 0.634107
429.30 0.6398353
429.40 0.6456635
429.50 0.6512706
429.60 0.6565037
429.70 0.6614481
429.80 0.6661014
429.90 0.6702308
430.00 0.6732299
430.10 0.674123
430.20 0.6721078
430.30 0.6674964
430.40 0.6619181
430.50 0.6576285
430.60 0.656656
430.70 0.6599445
430.80 0.6673213
430.90 0.6781094
431.00 0.6911051
431.10 0.7047927
431.20 0.7176879
431.30 0.7278148
431.40 0.7349237
431.50 0.7394219
431.60 0.7416324
431.70 0.7425159
431.80 0.7426225
431.90 0.7421722
432.00 0.7414158
432.10 0.7405142
432.20 0.7396508
432.30 0.7387615
432.40 0.7372803
432.50 0.7343371
432.60 0.7289973
432.70 0.7204548
432.80 0.7082215
432.90 0.692311
433.00 0.6731969
433.10 0.6518795
433.20 0.6300924
433.30 0.6096565
433.40 0.5920918
433.50 0.5786819
433.60 0.5701158
433.70 0.5664348
433.80 0.5670329
433.90 0.5689307
434.00 0.5703675
434.10 0.5712883
434.20 0.5711419
434.30 0.567778
434.40 0.5619394
434.50 0.5549028
434.60 0.5478721
434.70 0.5419406
434.80 0.5377609
434.90 0.535381
435.00 0.5343085
435.10 0.5337419
435.20 0.5331238
435.30 0.5323227
435.40 0.5318103
435.50 0.5326029
435.60 0.5339589
435.70 0.5363209
435.80 0.5401559
435.90 0.545725
436.00 0.5530749
436.10 0.5613192
436.20 0.5693072
436.30 0.5768363
436.40 0.5838682
436.50 0.5902885
436.60 0.5957141
436.70 0.599649
436.80 0.6016404
436.90 0.6014966
437.00 0.5992033
437.10 0.5953469
437.20 0.5911475
437.30 0.5873242
437.40 0.584144
437.50 0.5820978
437.60 0.5817694
437.70 0.5833776
437.80 0.5865453
437.90 0.5907189
438.00 0.5953869
438.10 0.6002123
438.20 0.6052182
438.30 0.6105124
438.40 0.6165084
438.50 0.6239325
438.60 0.633326
438.70 0.6450024
438.80 0.6587333
438.90 0.6735979
439.00 0.6883901
439.10 0.702049
439.20 0.7139409
439.30 0.7235414
439.40 0.7304561
439.50 0.734754
439.60 0.7366821
439.70 0.7367133
439.80 0.735446
439.90 0.7332404
440.00 0.7301857
440.10 0.7263636
440.20 0.7220439
440.30 0.7174812
440.40 0.7127192
440.50 0.7075692
440.60 0.7016645
440.70 0.6948935
440.80 0.6873098
440.90 0.6789804
441.00 0.6704905
441.10 0.6623738
441.20 0.6548808
441.30 0.6482397
441.40 0.6427459
441.50 0.63857
441.60 0.6357598
441.70 0.6334572
441.80 0.630935
441.90 0.6280609
442.00 0.62491
442.10 0.6217147
442.20 0.6185906
442.30 0.6154354
442.40 0.6119521
442.50 0.6079555
442.60 0.6035611
442.70 0.5995522
442.80 0.5966191
442.90 0.5949824
443.00 0.5947474
443.10 0.5958495
443.20 0.5978099
443.30 0.5998284
443.40 0.6011678
443.50 0.6014862
443.60 0.6011355
443.70 0.6012592
443.80 0.6035128
443.90 0.6095504
444.00 0.620225
444.10 0.6350982
444.20 0.6524889
444.30 0.6698782
444.40 0.6846142
444.50 0.6947001
444.60 0.6990688
444.70 0.6973922
444.80 0.690214
444.90 0.6790971
445.00 0.6665389
445.10 0.6554015
445.20 0.6477808
445.30 0.6443258
445.40 0.6442443
445.50 0.6458772
445.60 0.6476218
445.70 0.6486222
445.80 0.6486911
445.90 0.6478606
446.00 0.646368
446.10 0.6447694
446.20 0.6437923
446.30 0.6437557
446.40 0.6439665
446.50 0.6430456
446.60 0.6398646
446.70 0.6342279
446.80 0.6271479
446.90 0.6215252
447.00 0.6179107
447.10 0.6162528
447.20 0.618132
447.30 0.6234352
447.40 0.6318399
447.50 0.6424593
447.60 0.653759
447.70 0.6641031
447.80 0.672433
447.90 0.6782581
448.00 0.681417
448.10 0.6817701
448.20 0.679308
448.30 0.6746296
448.40 0.6685291
448.50 0.6614794
448.60 0.6537502
448.70 0.6452498
448.80 0.6355671
448.90 0.6245882
449.00 0.6126492
449.10 0.6002824
449.20 0.5882321
449.30 0.5775237
449.40 0.5691971
449.50 0.563999
449.60 0.5620104
449.70 0.5624237
449.80 0.564172
449.90 0.5668058
450.00 0.5705959
450.10 0.5759556
450.20 0.5829951
450.30 0.5913022
450.40 0.599853
450.50 0.6073133
450.60 0.6126445
450.70 0.6154598
450.80 0.6163317
450.90 0.6166059
451.00 0.6178903
451.10 0.6219652
451.20 0.6303593
451.30 0.6435856
451.40 0.6608028
451.50 0.6803034
451.60 0.7000483
451.70 0.7190896
451.80 0.7372152
451.90 0.7544027
452.00 0.7705946
452.10 0.7856112
452.20 0.7992698
452.30 0.8117275
452.40 0.8235746
452.50 0.8355893
452.60 0.8483838
452.70 0.8617607
452.80 0.8755091
452.90 0.8896881
453.00 0.9042541
453.10 0.9187623
453.20 0.9323504
453.30 0.9445576
453.40 0.955485
453.50 0.9652195
453.60 0.9736066
453.70 0.9801174
453.80 0.9839065
453.90 0.9842185
454.00 0.980851
454.10 0.9744056
454.20 0.9662997
454.30 0.9585223
454.40 0.9529192
454.50 0.950709
454.60 0.9524363
454.70 0.9577542
454.80 0.9655731
454.90 0.9746028
455.00 0.9838496
455.10 0.9927291
455.20 1.001047
455.30 1.008958
455.40 1.0171
455.50 1.026005
455.60 1.035315
455.70 1.043984
455.80 1.050687
455.90 1.054313
456.00 1.054153
456.10 1.049998
456.20 1.042439
456.30 1.032982
456.40 1.023815
456.50 1.017319
456.60 1.01557
456.70 1.019597
456.80 1.028708
456.90 1.039803
457.00 1.051487
457.10 1.062091
457.20 1.068256
457.30 1.069057
457.40 1.06445
457.50 1.055518
457.60 1.044259
457.70 1.032777
457.80 1.022854
457.90 1.0156
458.00 1.011217
458.10 1.009391
458.20 1.009359
458.30 1.009989
458.40 1.01054
458.50 1.011001
458.60 1.011366
458.70 1.011559
458.80 1.011927
458.90 1.013155
459.00 1.016156
459.10 1.021798
459.20 1.030136
459.30 1.040359
459.40 1.051299
459.50 1.061767
459.60 1.07107
459.70 1.079086
459.80 1.085802
459.90 1.0909
460.00 1.093987
460.10 1.09503
460.20 1.094463
460.30 1.092901
460.40 1.090691
460.50 1.088118
460.60 1.085929
460.70 1.084962
460.80 1.08558
460.90 1.087676
461.00 1.090507
461.10 1.092873
461.20 1.093764
461.30 1.09295
461.40 1.090981
461.50 1.088663
461.60 1.086658
461.70 1.08523
461.80 1.084365
461.90 1.084002
462.00 1.083904
462.10 1.08389
462.20 1.083913
462.30 1.083686
462.40 1.083055
462.50 1.082118
462.60 1.080876
462.70 1.079172
462.80 1.07688
462.90 1.074138
463.00 1.071387
463.10 1.069605
463.20 1.070126
463.30 1.073551
463.40 1.079513
463.50 1.087143
463.60 1.095241
463.70 1.102474
463.80 1.107596
463.90 1.109774
464.00 1.108951
464.10 1.105707
464.20 1.10084
464.30 1.09503
464.40 1.088723
464.50 1.082214
464.60 1.075718
464.70 1.069751
464.80 1.064942
464.90 1.06148
465.00 1.059016
465.10 1.056807
465.20 1.054086
465.30 1.050291
465.40 1.044958
465.50 1.038176
465.60 1.030905
465.70 1.024651
465.80 1.020993
465.90 1.020694
466.00 1.023502
466.10 1.02841
466.20 1.033695
466.30 1.037476
466.40 1.038567
466.50 1.036848
466.60 1.032827
466.70 1.027373
466.80 1.021776
466.90 1.01744
467.00 1.015458
467.10 1.016292
467.20 1.019631
467.30 1.024843
467.40 1.031154
467.50 1.037715
467.60 1.044002
467.70 1.049688
467.80 1.054369
467.90 1.057751
468.00 1.059824
468.10 1.060761
468.20 1.060948
468.30 1.060622
468.40 1.059587
468.50 1.057638
468.60 1.054957
468.70 1.052108
468.80 1.049868
468.90 1.048816
469.00 1.049114
469.10 1.050643
469.20 1.053192
469.30 1.056488
469.40 1.060133
469.50 1.063899
469.60 1.067779
469.70 1.071881
469.80 1.076318
469.90 1.08109
470.00 1.086017
470.10 1.090627
470.20 1.094312
470.30 1.096827
470.40 1.098637
470.50 1.100788
470.60 1.104011
470.70 1.108466
470.80 1.114072
470.90 1.120228
471.00 1.125838
471.10 1.129707
471.20 1.130858
471.30 1.128738
471.40 1.123416
471.50 1.115606
471.60 1.10636
471.70 1.096607
471.80 1.086726
471.90 1.076688
472.00 1.066725
472.10 1.057268
472.20 1.048825
472.30 1.041979
472.40 1.036883
472.50 1.033346
472.60 1.031166
472.70 1.030003
472.80 1.029233
472.90 1.028177
473.00 1.026188
473.10 1.022698
473.20 1.017473
473.30 1.010938
473.40 1.004099
473.50 0.9980886
473.60 0.9939208
473.70 0.9923158
473.80 0.9937342
473.90 0.9981062
474.00 1.00463
474.10 1.012245
474.20 1.019926
474.30 1.026605
474.40 1.031553
474.50 1.034513
474.60 1.035734
474.70 1.035867
474.80 1.035786
474.90 1.03669
475.00 1.03957
475.10 1.044867
475.20 1.052295
475.30 1.060858
475.40 1.069192
475.50 1.075744
475.60 1.079
475.70 1.077926
475.80 1.072348
475.90 1.064282
476.00 1.055778
476.10 1.047774
476.20 1.041274
476.30 1.03697
476.40 1.035689
476.50 1.036715
476.60 1.038677
476.70 1.040385
476.80 1.040989
476.90 1.039993
477.00 1.037539
477.10 1.034516
477.20 1.031888
477.30 1.030232
477.40 1.029618
477.50 1.029548
477.60 1.029174
477.70 1.02779
477.80 1.025175
477.90 1.02181
478.00 1.018595
478.10 1.016407
478.20 1.015916
478.30 1.017621
478.40 1.021629
478.50 1.027344
478.60 1.033774
478.70 1.039823
478.80 1.044486
478.90 1.047073
479.00 1.047049
479.10 1.044016
479.20 1.038061
479.30 1.029745
479.40 1.019909
479.50 1.009468
479.60 0.999162
479.70 0.9893078
479.80 0.9800307
479.90 0.9715717
480.00 0.9641909
480.10 0.9582225
480.20 0.9542506
480.30 0.9528635
480.40 0.9541905
480.50 0.9578816
480.60 0.9633273
480.70 0.969625
480.80 0.9755361
480.90 0.9797965
481.00 0.9816461
481.10 0.9812246
481.20 0.9792076
481.30 0.9763826
481.40 0.9734559
481.50 0.9709943
481.60 0.9692463
481.70 0.9683509
481.80 0.9687918
481.90 0.971047
482.00 0.9752441
482.10 0.9811015
482.20 0.987991
482.30 0.9953534
482.40 1.002893
482.50 1.010317
482.60 1.017421
482.70 1.02414
482.80 1.030477
482.90 1.03645
483.00 1.04205
483.10 1.046924
483.20 1.050236
483.30 1.051159
483.40 1.04919
483.50 1.044406
483.60 1.037695
483.70 1.030497
483.80 1.024054
483.90 1.019133
484.00 1.016034
484.10 1.01465
484.20 1.014703
484.30 1.015824
484.40 1.017553
484.50 1.019505
484.60 1.021419
484.70 1.022915
484.80 1.023344
484.90 1.021905
485.00 1.017882
485.10 1.010737
485.20 1.000662
485.30 0.9889408
485.40 0.9775806
485.50 0.9687701
485.60 0.9643261
485.70 0.9652702
485.80 0.9715136
485.90 0.9809828
486.00 0.991831
486.10 1.003278
486.20 1.014524
486.30 1.024967
486.40 1.0335
486.50 1.040275
486.60 1.046164
486.70 1.051926
486.80 1.057984
486.90 1.064364
487.00 1.070843
487.10 1.076967
487.20 1.082189
487.30 1.085985
487.40 1.088177
487.50 1.089314
487.60 1.090317
487.70 1.092194
487.80 1.095754
487.90 1.101048
488.00 1.107339
488.10 1.113684
488.20 1.119337
488.30 1.123783
488.40 1.12663
488.50 1.127843
488.60 1.128059
488.70 1.12825
488.80 1.129067
488.90 1.130674
489.00 1.133053
489.10 1.135964
489.20 1.139008
489.30 1.142059
489.40 1.145379
489.50 1.149277
489.60 1.153666
489.70 1.158412
489.80 1.16352
489.90 1.168792
490.00 1.173685
490.10 1.17758
490.20 1.179935
490.30 1.180273
490.40 1.178439
490.50 1.174503
490.60 1.168647
490.70 1.161114
490.80 1.152085
490.90 1.141869
491.00 1.131273
491.10 1.121239
491.20 1.112382
491.30 1.104996
491.40 1.099162
491.50 1.094771
491.60 1.091516
491.70 1.08885
491.80 1.086045
491.90 1.082642
492.00 1.078298
492.10 1.072707
492.20 1.065785
492.30 1.057324
492.40 1.046803
492.50 1.033659
492.60 1.017968
492.70 1.000768
492.80 0.9836822
492.90 0.968331
493.00 0.9561004
493.10 0.9480995
493.20 0.9446526
493.30 0.9449086
493.40 0.9472608
493.50 0.949973
493.60 0.9513169
493.70 0.950023
493.80 0.9459536
493.90 0.9401425
494.00 0.9341901
494.10 0.9296154
494.20 0.9273928
494.30 0.9279556
494.40 0.9312492
494.50 0.9367558
494.60 0.9437267
494.70 0.9513557
494.80 0.9590036
494.90 0.966186
495.00 0.9728772
495.10 0.9795114
495.20 0.9864342
495.30 0.9936773
495.40 1.00094
495.50 1.007612
495.60 1.013045
495.70 1.016825
495.80 1.019092
495.90 1.020399
496.00 1.021369
496.10 1.022697
496.20 1.025012
496.30 1.028649
496.40 1.033339
496.50 1.038303
496.60 1.042473
496.70 1.044737
496.80 1.044282
496.90 1.040921
497.00 1.03516
497.10 1.027988
497.20 1.020446
497.30 1.013389
497.40 1.007374
497.50 1.002406
497.60 0.998055
497.70 0.9936663
497.80 0.9888315
497.90 0.983725
498.00 0.9790056
498.10 0.9752951
498.20 0.9728281
498.30 0.9716195
498.40 0.9715756
498.50 0.9724982
498.60 0.9740517
498.70 0.9758113
498.80 0.9774888
498.90 0.9791008
499.00 0.9807796
499.10 0.9828293
499.20 0.9854857
499.30 0.9885928
499.40 0.9916334
499.50 0.994115
499.60 0.996075
499.70 0.9977607
499.80 0.9991996
499.90 1.000088
500.00 1
500.10 0.998535
500.20 0.9952761
500.30 0.9900222
500.40 0.9829529
500.50 0.9746327
500.60 0.9659255
500.70 0.9578968
500.80 0.9518129
500.90 0.9489941
501.00 0.9501208
501.10 0.9549721
501.20 0.962912
501.30 0.9732264
501.40 0.9850672
501.50 0.9975086
501.60 1.01005
501.70 1.022691
501.80 1.035659
501.90 1.049062
502.00 1.06308
502.10 1.078072
502.20 1.094037
502.30 1.110517
502.40 1.127059
502.50 1.143414
502.60 1.159063
502.70 1.17316
502.80 1.184896
502.90 1.193865
503.00 1.200026
503.10 1.203731
503.20 1.206117
503.30 1.208944
503.40 1.213751
503.50 1.221199
503.60 1.231252
503.70 1.243246
503.80 1.255784
503.90 1.267019
504.00 1.275448
504.10 1.280465
504.20 1.282173
504.30 1.280961
504.40 1.277475
504.50 1.272545
504.60 1.266743
504.70 1.260341
504.80 1.253664
504.90 1.247201
505.00 1.241394
505.10 1.236753
505.20 1.233948
505.30 1.233688
505.40 1.23643
505.50 1.242105
505.60 1.250398
505.70 1.260888
505.80 1.272579
505.90 1.284018
506.00 1.293859
506.10 1.301212
506.20 1.305636
506.30 1.307172
506.40 1.306635
506.50 1.305262
506.60 1.30422
506.70 1.30446
506.80 1.306504
506.90 1.310215
507.00 1.314871
507.10 1.319515
507.20 1.323439
507.30 1.326276
507.40 1.327931
507.50 1.328533
507.60 1.328254
507.70 1.327443
507.80 1.326288
507.90 1.324755
508.00 1.32298
508.10 1.321248
508.20 1.319804
508.30 1.318781
508.40 1.318222
508.50 1.318057
508.60 1.318117
508.70 1.318285
508.80 1.318481
508.90 1.318619
509.00 1.318597
509.10 1.318131
509.20 1.316975
509.30 1.315126
509.40 1.312776
509.50 1.310215
509.60 1.307846
509.70 1.306148
509.80 1.305551
509.90 1.306431
510.00 1.309018
510.10 1.313332
510.20 1.319119
510.30 1.325825
510.40 1.332781
510.50 1.339279
510.60 1.344686
510.70 1.348466
510.80 1.350087
510.90 1.348944
511.00 1.344568
511.10 1.337071
511.20 1.327082
511.30 1.315569
511.40 1.303633
511.50 1.292151
511.60 1.281612
511.70 1.272189
511.80 1.26368
511.90 1.255663
512.00 1.247553
512.10 1.238746
512.20 1.229147
512.30 1.219336
512.40 1.210034
512.50 1.201698
512.60 1.194439
512.70 1.18795
512.80 1.181764
512.90 1.17545
513.00 1.168669
513.10 1.161127
513.20 1.152664
513.30 1.143387
513.40 1.133842
513.50 1.124874
513.60 1.11706
513.70 1.110676
513.80 1.105763
513.90 1.102153
514.00 1.099486
514.10 1.097045
514.20 1.094299
514.30 1.091511
514.40 1.089345
514.50 1.088427
514.60 1.089343
514.70 1.092526
514.80 1.097868
514.90 1.104719
515.00 1.111962
515.10 1.118132
515.20 1.121876
515.30 1.122016
515.40 1.117807
515.50 1.109385
515.60 1.097298
515.70 1.082105
515.80 1.064665
515.90 1.046155
516.00 1.02782
516.10 1.010756
516.20 0.9958057
516.30 0.9833735
516.40 0.9732519
516.50 0.9647954
516.60 0.9573845
516.70 0.9507368
516.80 0.9449305
516.90 0.9405553
517.00 0.9385151
517.10 0.9394764
517.20 0.9438753
517.30 0.9520429
517.40 0.9637674
517.50 0.9782091
517.60 0.9942465
517.70 1.010555
517.80 1.026103
517.90 1.040358
518.00 1.052991
518.10 1.063948
518.20 1.073627
518.30 1.082649
518.40 1.09163
518.50 1.10105
518.60 1.110959
518.70 1.120866
518.80 1.130087
518.90 1.137869
519.00 1.143424
519.10 1.146217
519.20 1.145973
519.30 1.142797
519.40 1.137294
519.50 1.130335
519.60 1.122731
519.70 1.115175
519.80 1.108392
519.90 1.103188
520.00 1.100093
520.10 1.09922
520.20 1.100491
520.30 1.103646
520.40 1.108043
520.50 1.1128
520.60 1.117144
520.70 1.120609
520.80 1.123352
520.90 1.126265
521.00 1.13063
521.10 1.137416
521.20 1.146733
521.30 1.157889
521.40 1.169989
521.50 1.182198
521.60 1.193584
521.70 1.203336
521.80 1.211386
521.90 1.218563
522.00 1.226153
522.10 1.235206
522.20 1.246018
522.30 1.25813
522.40 1.270644
522.50 1.282645
522.60 1.293633
522.70 1.303603
522.80 1.312803
522.90 1.321664
523.00 1.330742
523.10 1.340566
523.20 1.351094
523.30 1.361553
523.40 1.370801
523.50 1.377912
523.60 1.382701
523.70 1.385526
523.80 1.387107
523.90 1.388417
524.00 1.390364
524.10 1.393515
524.20 1.39779
524.30 1.402528
524.40 1.406993
524.50 1.410475
524.60 1.412406
524.70 1.412762
524.80 1.412131
524.90 1.411466
525.00 1.411649
525.10 1.413367
525.20 1.417093
525.30 1.423053
525.40 1.431244
525.50 1.441564
525.60 1.454065
525.70 1.468729
525.80 1.48525
525.90 1.50322
526.00 1.52234
526.10 1.542293
526.20 1.562562
526.30 1.582537
526.40 1.601609
526.50 1.619267
526.60 1.635199
526.70 1.649168
526.80 1.660958
526.90 1.670223
527.00 1.676385
527.10 1.679159
527.20 1.678622
527.30 1.674997
527.40 1.66888
527.50 1.661241
527.60 1.653114
527.70 1.6452
527.80 1.637644
527.90 1.630116
528.00 1.621868
528.10 1.612073
528.20 1.60009
528.30 1.585663
528.40 1.569179
528.50 1.551473
528.60 1.533594
528.70 1.516778
528.80 1.50214
528.90 1.490365
529.00 1.481828
529.10 1.476729
529.20 1.475109
529.30 1.476637
529.40 1.480641
529.50 1.486248
529.60 1.492528
529.70 1.498776
529.80 1.504496
529.90 1.509424
530.00 1.513827
530.10 1.518259
530.20 1.523207
530.30 1.52905
530.40 1.536243
530.50 1.54532
530.60 1.556578
530.70 1.569999
530.80 1.585022
530.90 1.600498
531.00 1.61506
531.10 1.627523
531.20 1.637271
531.30 1.644195
531.40 1.648372
531.50 1.650284
531.60 1.650812
531.70 1.650805
531.80 1.650503
531.90 1.649361
532.00 1.646625
532.10 1.641884
532.20 1.63525
532.30 1.627454
532.40 1.619648
532.50 1.612931
532.60 1.608074
532.70 1.605514
532.80 1.605369
532.90 1.607229
533.00 1.610366
533.10 1.61403
533.20 1.61776
533.30 1.621548
533.40 1.625662
533.50 1.630402
533.60 1.635924
533.70 1.642253
533.80 1.649374
533.90 1.657118
534.00 1.66509
534.10 1.672995
534.20 1.680755
534.30 1.688238
534.40 1.695026
534.50 1.70079
534.60 1.705511
534.70 1.70927
534.80 1.712169
534.90 1.714254
535.00 1.715712
535.10 1.716828
535.20 1.717725
535.30 1.718621
535.40 1.719772
535.50 1.720976
535.60 1.721499
535.70 1.720623
535.80 1.718057
535.90 1.713915
536.00 1.70846
536.10 1.70191
536.20 1.694499
536.30 1.686745
536.40 1.67962
536.50 1.674205
536.60 1.671231
536.70 1.670856
536.80 1.672757
536.90 1.676395
537.00 1.681222
537.10 1.686644
537.20 1.692052
537.30 1.696943
537.40 1.701058
537.50 1.704618
537.60 1.708243
537.70 1.712625
537.80 1.718116
537.90 1.724619
538.00 1.731828
538.10 1.739452
538.20 1.747443
538.30 1.755952
538.40 1.765094
538.50 1.775035
538.60 1.785919
538.70 1.797591
538.80 1.809714
538.90 1.821821
539.00 1.833389
539.10 1.844259
539.20 1.854846
539.30 1.865992
539.40 1.87865
539.50 1.893516
539.60 1.910634
539.70 1.929303
539.80 1.948388
539.90 1.966577
540.00 1.982628
540.10 1.99567
540.20 2.005245
540.30 2.011505
540.40 2.015111
540.50 2.016591
540.60 2.016148
540.70 2.014144
540.80 2.011279
540.90 2.008311
541.00 2.006075
541.10 2.005479
541.20 2.007308
541.30 2.012013
541.40 2.019565
541.50 2.029325
541.60 2.040263
541.70 2.051251
541.80 2.061355
541.90 2.070312
542.00 2.078472
542.10 2.086446
542.20 2.095046
542.30 2.104939
542.40 2.116199
542.50 2.128383
542.60 2.14062
542.70 2.151772
542.80 2.160735
542.90 2.166672
543.00 2.169137
543.10 2.168287
543.20 2.165091
543.30 2.161036
543.40 2.157539
543.50 2.155577
543.60 2.155469
543.70 2.15697
543.80 2.159429
543.90 2.161956
544.00 2.163726
544.10 2.164048
544.20 2.162444
544.30 2.158891
544.40 2.153853
544.50 2.14805
544.60 2.142159
544.70 2.136661
544.80 2.131849
544.90 2.127751
545.00 2.124172
545.10 2.120878
545.20 2.117658
545.30 2.114197
545.40 2.110124
545.50 2.105336
545.60 2.100133
545.70 2.094848
545.80 2.089616
545.90 2.084441
546.00 2.079235
546.10 2.07389
546.20 2.068374
546.30 2.062625
546.40 2.056365
546.50 2.049227
546.60 2.040945
546.70 2.031526
546.80 2.021258
546.90 2.010548
547.00 1.999803
547.10 1.989446
547.20 1.97992
547.30 1.971483
547.40 1.963921
547.50 1.956598
547.60 1.948882
547.70 1.940435
547.80 1.931253
547.90 1.921714
548.00 1.912531
548.10 1.904257
548.20 1.896979
548.30 1.89028
548.40 1.883239
548.50 1.87477
548.60 1.864029
548.70 1.850727
548.80 1.835349
548.90 1.819213
549.00 1.803922
549.10 1.790655
549.20 1.779962
549.30 1.771688
549.40 1.76502
549.50 1.758711
549.60 1.751409
549.70 1.742194
549.80 1.73101
549.90 1.718575
550.00 1.451358
550.10 1.434076
550.20 1.421268
550.30 1.409823
550.40 1.396261
550.50 1.378001
550.60 1.354415
550.70 1.326165
550.80 1.294441
550.90 1.261018
551.00 1.228025
551.10 1.197248
551.20 1.169992
551.30 1.146538
551.40 1.126063
551.50 1.107423
551.60 1.089442
551.70 1.071166
551.80 1.052692
551.90 1.035529
552.00 1.021617
552.10 1.012649
552.20 1.010083
552.30 1.01452
552.40 1.025584
552.50 1.041875
552.60 1.060752
552.70 1.079784
552.80 1.098093
552.90 1.115955
553.00 1.133875
553.10 1.152608
553.20 1.173168
553.30 1.196124
553.40 1.221586
553.50 1.249348
553.60 1.278481
553.70 1.307329
553.80 1.33393
553.90 1.356938
554.00 1.376143
554.10 1.391615
554.20 1.402905
554.30 1.409708
554.40 1.413173
554.50 1.415279
554.60 1.417446
554.70 1.420386
554.80 1.424443
554.90 1.429263
555.00 1.433553
555.10 1.438946
555.20 1.449556
555.30 1.468935
555.40 1.500096
555.50 1.545061
555.60 1.605653
555.70 1.68262
555.80 1.773515
555.90 1.872544
556.00 1.972304
556.10 2.065667
556.20 2.147007
556.30 2.213542
556.40 2.265923
556.50 2.304969
556.60 2.331982
556.70 2.350166
556.80 2.362715
556.90 2.371878
557.00 2.378092
557.10 2.380599
557.20 2.378901
557.30 2.373813
557.40 2.367105
557.50 2.360606
557.60 2.356337
557.70 2.356627
557.80 2.36323
557.90 2.376145
558.00 2.393945
558.10 2.414877
558.20 2.437079
558.30 2.458791
558.40 2.478234
558.50 2.493995
558.60 2.505756
558.70 2.514232
558.80 2.521245
558.90 2.529665
559.00 2.542959
559.10 2.560885
559.20 2.579612
559.30 2.595211
559.40 2.603381
559.50 2.599022
559.60 2.576829
559.70 2.5336
559.80 2.469832
559.90 2.3897
560.00 2.300562
560.10 2.211693
560.20 2.131318
560.30 2.064193
560.40 2.010619
560.50 1.970262
560.60 1.942915
560.70 1.926289
560.80 1.916876
560.90 1.911147
561.00 1.907469
561.10 1.905761
561.20 1.905915
561.30 1.907735
561.40 1.910637
561.50 1.913114
561.60 1.913627
561.70 1.911432
561.80 1.907054
561.90 1.902027
562.00 1.897691
562.10 1.894757
562.20 1.893726
562.30 1.895222
562.40 1.899676
562.50 1.906624
562.60 1.914982
562.70 1.923593
562.80 1.931447
562.90 1.938214
563.00 1.943868
563.10 1.948355
563.20 1.951587
563.30 1.953165
563.40 1.953112
563.50 1.952739
563.60 1.953903
563.70 1.957967
563.80 1.965589
563.90 1.976855
564.00 1.991087
564.10 2.006226
564.20 2.019555
564.30 2.028794
564.40 2.033121
564.50 2.033092
564.60 2.029527
564.70 2.02356
564.80 2.016707
564.90 2.010308
565.00 2.005374
565.10 2.002586
565.20 2.00212
565.30 2.002971
565.40 2.003535
565.50 2.002721
565.60 1.999818
565.70 1.99492
565.80 1.989117
565.90 1.983895
566.00 1.981158
566.10 1.982797
566.20 1.990419
566.30 2.004683
566.40 2.024852
566.50 2.049207
566.60 2.07562
566.70 2.102341
566.80 2.127596
566.90 2.149766
567.00 2.168361
567.10 2.183124
567.20 2.193884
567.30 2.201472
567.40 2.207525
567.50 2.21371
567.60 2.220908
567.70 2.22968
567.80 2.24036
567.90 2.252888
568.00 2.266869
568.10 2.281654
568.20 2.29728
568.30 2.314198
568.40 2.332224
568.50 2.351192
568.60 2.371767
568.70 2.394931
568.80 2.420996
568.90 2.449698
569.00 2.480171
569.10 2.510508
569.20 2.538424
569.30 2.562205
569.40 2.580893
569.50 2.594496
569.60 2.603815
569.70 2.609191
569.80 2.610111
569.90 2.605707
570.00 2.594506
570.10 2.575134
570.20 2.547348
570.30 2.511911
570.40 2.471011
570.50 2.428467
570.60 2.38841
570.70 2.353731
570.80 2.325968
570.90 2.304943
571.00 2.288944
571.10 2.276575
571.20 2.26705
571.30 2.259438
571.40 2.252418
571.50 2.244529
571.60 2.234826
571.70 2.223027
571.80 2.209449
571.90 2.194394
572.00 2.177688
572.10 2.159185
572.20 2.138605
572.30 2.1157
572.40 2.090354
572.50 2.061922
572.60 2.029267
572.70 1.99142
572.80 1.948589
572.90 1.902076
573.00 1.853953
573.10 1.806919
573.20 1.763595
573.30 1.725954
573.40 1.695306
573.50 1.672158
573.60 1.655838
573.70 1.64482
573.80 1.637511
573.90 1.632834
574.00 1.630845
574.10 1.6321
574.20 1.636403
574.30 1.643526
574.40 1.652964
574.50 1.663686
574.60 1.674517
574.70 1.68431
574.80 1.692569
574.90 1.699374
575.00 1.705141
575.10 1.710781
575.20 1.717069
575.30 1.724082
575.40 1.731638
575.50 1.739807
575.60 1.748601
575.70 1.756808
575.80 1.762709
575.90 1.765167
576.00 1.763667
576.10 1.758211
576.20 1.748987
576.30 1.737057
576.40 1.72488
576.50 1.715139
576.60 1.710101
576.70 1.711627
576.80 1.720787
576.90 1.737362
577.00 1.759786
577.10 1.785604
577.20 1.811442
577.30 1.833462
577.40 1.848845
577.50 1.856487
577.60 1.857056
577.70 1.852535
577.80 1.844925
577.90 1.836121
578.00 1.82795
578.10 1.822073
578.20 1.819549
578.30 1.819726
578.40 1.82093
578.50 1.82171
578.60 1.821846
578.70 1.82213
578.80 1.822588
578.90 1.822816
579.00 1.822552
579.10 1.821031
579.20 1.817907
579.30 1.814086
579.40 1.811356
579.50 1.811212
579.60 1.813734
579.70 1.818286
579.80 1.823935
579.90 1.829337
580.00 1.832892
580.10 1.833362
580.20 1.830865
580.30 1.826199
580.40 1.819961
580.50 1.812923
580.60 1.806065
580.70 1.800185
580.80 1.795101
580.90 1.789597
581.00 1.782558
581.10 1.77395
581.20 1.76516
581.30 1.758229
581.40 1.754468
581.50 1.754208
581.60 1.757377
581.70 1.763925
581.80 1.774127
581.90 1.788446
582.00 1.806735
582.10 1.827173
582.20 1.847201
582.30 1.86506
582.40 1.879992
582.50 1.891434
582.60 1.898218
582.70 1.899121
582.80 1.89399
582.90 1.883182
583.00 1.866849
583.10 1.845004
583.20 1.817563
583.30 1.784326
583.40 1.744899
583.50 1.699809
583.60 1.651748
583.70 1.605093
583.80 1.563845
583.90 1.530566
584.00 1.506779
584.10 1.493107
584.20 1.488657
584.30 1.490807
584.40 1.495842
584.50 1.500312
584.60 1.501957
584.70 1.499313
584.80 1.492085
584.90 1.481368
585.00 1.467823
585.10 1.450684
585.20 1.429345
585.30 1.404237
585.40 1.376018
585.50 1.344913
585.60 1.310614
585.70 1.272583
585.80 1.230533
585.90 1.183847
586.00 1.131591
586.10 1.074023
586.20 1.01275
586.30 0.9499848
586.40 0.8894162
586.50 0.8363889
586.60 0.7959337
586.70 0.771253
586.80 0.763399
586.90 0.7715117
587.00 0.7934091
587.10 0.8268859
587.20 0.8696325
587.30 0.9193724
587.40 0.9748485
587.50 1.034868
587.60 1.097096
587.70 1.158308
587.80 1.214678
587.90 1.262422
588.00 1.298684
588.10 1.32219
588.20 1.333494
588.30 1.334874
588.40 1.329972
588.50 1.32227
588.60 1.313908
588.70 1.305325
588.80 1.29528
588.90 1.282512
589.00 1.267542
589.10 1.252554
589.20 1.240266
589.30 1.233049
589.40 1.232987
589.50 1.241478
589.60 1.258722
589.70 1.283657
589.80 1.313723
589.90 1.345786
590.00 1.377579
590.10 1.408001
590.20 1.436595
590.30 1.463117
590.40 1.486404
590.50 1.503592
590.60 1.510385
590.70 1.503012
590.80 1.480021
590.90 1.442759
591.00 1.395227
591.10 1.342368
591.20 1.288924
591.30 1.238063
591.40 1.189932
591.50 1.142518
591.60 1.09358
591.70 1.041038
591.80 0.9842366
591.90 0.9253659
592.00 0.8699094
592.10 0.8245739
592.20 0.7887898
592.30 0.7655561
592.40 0.7557637
592.50 0.7576818
592.60 0.7683043
592.70 0.7846149
592.80 0.8048118
592.90 0.8275908
593.00 0.8511423
593.10 0.874012
593.20 0.8953052
593.30 0.9142346
593.40 0.9301646
593.50 0.9431673
593.60 0.954385
593.70 0.9654322
593.80 0.9776138
593.90 0.9914048
594.00 1.006998
594.10 1.025061
594.20 1.047033
594.30 1.074861
594.40 1.109757
594.50 1.151181
594.60 1.197318
594.70 1.245662
594.80 1.293505
594.90 1.337997
595.00 1.375465
595.10 1.402422
595.20 1.417585
595.30 1.422901
595.40 1.422677
595.50 1.421432
595.60 1.421851
595.70 1.424889
595.80 1.430653
595.90 1.438477
596.00 1.446316
596.10 1.45133
596.20 1.457018
596.30 1.461767
596.40 1.464454
596.50 1.465665
596.60 1.466162
596.70 1.466178
596.80 1.465426
596.90 1.46374
597.00 1.462107
597.10 1.461911
597.20 1.464001
597.30 1.468424
597.40 1.474084
597.50 1.478846
597.60 1.480185
597.70 1.476321
597.80 1.46723
597.90 1.454387
598.00 1.439773
598.10 1.425287
598.20 1.411942
598.30 1.399398
598.40 1.386237
598.50 1.371283
598.60 1.354867
598.70 1.338819
598.80 1.32544
598.90 1.316839
599.00 1.314748
599.10 1.320168
599.20 1.332871
599.30 1.351386
599.40 1.373985
599.50 1.39945
599.60 1.427364
599.70 1.457926
599.80 1.491706
599.90 1.52901
600.00 1.377701
600.10 1.440493
600.20 1.558078
600.30 1.703299
600.40 1.840028
600.50 1.940789
600.60 1.987321
600.70 1.986666
600.80 1.966877
600.90 1.954919
601.00 1.954584
601.10 1.959251
601.20 1.977694
601.30 2.025496
601.40 2.106784
601.50 2.194459
601.60 2.2422
601.70 2.219836
601.80 2.13764
601.90 2.025456
602.00 1.89955
602.10 1.761715
602.20 1.629116
602.30 1.521649
602.40 1.451345
602.50 1.430293
602.60 1.458639
602.70 1.535341
602.80 1.65131
602.90 1.785361
603.00 1.930789
603.10 2.072595
603.20 2.167125
603.30 2.179548
603.40 2.117222
603.50 2.029963
603.60 1.962782
603.70 1.939677
603.80 1.985032
603.90 2.110602
604.00 2.297046
604.10 2.492723
604.20 2.650784
604.30 2.747571
604.40 2.759827
604.50 2.691258
604.60 2.579785
604.70 2.465405
604.80 2.377532
604.90 2.320904
605.00 2.297215
605.10 2.319347
605.20 2.387262
605.30 2.486941
605.40 2.587341
605.50 2.655166
605.60 2.664794
605.70 2.602279
605.80 2.478911
605.90 2.312467
606.00 2.118622
606.10 1.917538
606.20 1.733148
606.30 1.601372
606.40 1.561979
606.50 1.643379
606.60 1.843054
606.70 2.1269
606.80 2.455222
606.90 2.767633
607.00 2.986673
607.10 3.063574
607.20 3.001578
607.30 2.832968
607.40 2.597165
607.50 2.328623
607.60 2.064756
607.70 1.848501
607.80 1.698798
607.90 1.610014
608.00 1.572524
608.10 1.560563
608.20 1.554096
608.30 1.571485
608.40 1.639462
608.50 1.753503
608.60 1.871897
608.70 1.948893
608.80 1.970375
608.90 1.952397
609.00 1.915745
609.10 1.886653
609.20 1.89516
609.30 1.94966
609.40 2.036472
609.50 2.15103
609.60 2.294459
609.70 2.452372
609.80 2.596709
609.90 2.70742
610.00 2.787788
610.10 2.855213
610.20 2.907762
610.30 2.938374
610.40 2.944775
610.50 2.896523
610.60 2.777946
610.70 2.619502
610.80 2.469702
610.90 2.362811
611.00 2.300288
611.10 2.266809
611.20 2.259883
611.30 2.295838
611.40 2.384184
611.50 2.509961
611.60 2.651335
611.70 2.780538
611.80 2.866955
611.90 2.907138
612.00 2.902668
612.10 2.838028
612.20 2.702782
612.30 2.506597
612.40 2.274569
612.50 2.047905
612.60 1.867989
612.70 1.748129
612.80 1.68619
612.90 1.689392
613.00 1.761005
613.10 1.885457
613.20 2.043112
613.30 2.202122
613.40 2.338813
613.50 2.464848
613.60 2.598559
613.70 2.732424
613.80 2.85832
613.90 2.979819
614.00 3.105189
614.10 3.240508
614.20 3.369573
614.30 3.443259
614.40 3.421031
614.50 3.304799
614.60 3.112318
614.70 2.886292
614.80 2.666468
614.90 2.468163
615.00 2.304121
615.10 2.213254
615.20 2.229697
615.30 2.332746
615.40 2.472163
615.50 2.601052
615.60 2.699277
615.70 2.777717
615.80 2.855616
615.90 2.944717
616.00 3.054214
616.10 3.1793
616.20 3.296259
616.30 3.377712
616.40 3.398738
616.50 3.331016
616.60 3.1626
616.70 2.921694
616.80 2.649919
616.90 2.3846
617.00 2.151015
617.10 1.967484
617.20 1.840252
617.30 1.752338
617.40 1.685415
617.50 1.626668
617.60 1.58004
617.70 1.568562
617.80 1.610774
617.90 1.708011
618.00 1.85694
618.10 2.050796
618.20 2.256584
618.30 2.42996
618.40 2.550594
618.50 2.613771
618.60 2.622687
618.70 2.598159
618.80 2.577636
618.90 2.594064
619.00 2.650618
619.10 2.719833
619.20 2.775928
619.30 2.815943
619.40 2.819235
619.50 2.761216
619.60 2.664291
619.70 2.574763
619.80 2.512491
619.90 2.477079
620.00 2.474436
620.10 2.508111
620.20 2.568539
620.30 2.635387
620.40 2.702996
620.50 2.774967
620.60 2.83871
620.70 2.875965
620.80 2.89031
620.90 2.881593
621.00 2.829221
621.10 2.715134
621.20 2.54232
621.30 2.337407
621.40 2.125104
621.50 1.916666
621.60 1.725013
621.70 1.581206
621.80 1.500339
621.90 1.468273
622.00 1.481244
622.10 1.534838
622.20 1.614066
622.30 1.714484
622.40 1.839855
622.50 1.991372
622.60 2.162686
622.70 2.341251
622.80 2.509891
622.90 2.663964
623.00 2.802615
623.10 2.914321
623.20 2.986748
623.30 3.019778
623.40 3.00914
623.50 2.954303
623.60 2.882608
623.70 2.820145
623.80 2.770116
623.90 2.730181
624.00 2.7048
624.10 2.694346
624.20 2.697579
624.30 2.705346
624.40 2.703231
624.50 2.682674
624.60 2.651304
624.70 2.62525
624.80 2.614381
624.90 2.624037
625.00 2.650685
625.10 2.702528
625.20 2.808064
625.30 2.967822
625.40 3.147856
625.50 3.324008
625.60 3.487787
625.70 3.624145
625.80 3.70815
625.90 3.728591
626.00 3.688068
626.10 3.586573
626.20 3.427113
626.30 3.205569
626.40 2.93013
626.50 2.634284
626.60 2.358564
626.70 2.148735
626.80 2.041247
626.90 2.044643
627.00 2.146449
627.10 2.331101
627.20 2.571784
627.30 2.833336
627.40 3.077406
627.50 3.262868
627.60 3.36339
627.70 3.384655
627.80 3.337775
627.90 3.231113
628.00 3.086138
628.10 2.943267
628.20 2.854673
628.30 2.854688
628.40 2.935792
628.50 3.064038
628.60 3.203831
628.70 3.303316
628.80 3.319562
628.90 3.256072
629.00 3.145577
629.10 3.028783
629.20 2.952005
629.30 2.956209
629.40 3.052502
629.50 3.204133
629.60 3.351748
629.70 3.468801
629.80 3.556133
629.90 3.614464
630.00 3.647194
630.10 3.671772
630.20 3.707293
630.30 3.759924
630.40 3.8338
630.50 3.930796
630.60 4.037968
630.70 4.124528
630.80 4.164466
630.90 4.161991
631.00 4.145202
631.10 4.119293
631.20 4.093266
631.30 4.082534
631.40 4.093146
631.50 4.131061
631.60 4.19024
631.70 4.254276
631.80 4.294173
631.90 4.287224
632.00 4.234377
632.10 4.153048
632.20 4.064842
632.30 4.002263
632.40 3.997514
632.50 4.055571
632.60 4.135902
632.70 4.197576
632.80 4.214758
632.90 4.168026
633.00 4.066811
633.10 3.940962
633.20 3.826685
633.30 3.754015
633.40 3.741528
633.50 3.78761
633.60 3.877395
633.70 4.005075
633.80 4.164658
633.90 4.355942
634.00 4.583677
634.10 4.83052
634.20 5.069174
634.30 5.271664
634.40 5.407096
634.50 5.464413
634.60 5.461854
634.70 5.421777
634.80 5.362111
634.90 5.307302
635.00 5.291226
635.10 5.32639
635.20 5.397164
635.30 5.467571
635.40 5.502842
635.50 5.486801
635.60 5.394076
635.70 5.219096
635.80 5.017797
635.90 4.838506
636.00 4.702801
636.10 4.639703
636.20 4.667514
636.30 4.784616
636.40 4.954076
636.50 5.129458
636.60 5.267889
636.70 5.338757
636.80 5.332193
636.90 5.256894
637.00 5.160479
637.10 5.083092
637.20 5.006725
637.30 4.916153
637.40 4.819143
637.50 4.732305
637.60 4.674105
637.70 4.641548
637.80 4.622389
637.90 4.601788
638.00 4.586889
638.10 4.598533
638.20 4.649697
638.30 4.737537
638.40 4.848301
638.50 4.962422
638.60 5.058365
638.70 5.125791
638.80 5.161871
638.90 5.159049
639.00 5.114194
639.10 5.050014
639.20 5.001865
639.30 4.991117
639.40 5.005864
639.50 5.026276
639.60 5.04497
639.70 5.066579
639.80 5.095844
639.90 5.140073
640.00 5.200359
640.10 5.266868
640.20 5.336825
640.30 5.397696
640.40 5.430297
640.50 5.424074
640.60 5.373262
640.70 5.279216
640.80 5.163659
640.90 5.051144
641.00 4.955001
641.10 4.878152
641.20 4.816064
641.30 4.768127
641.40 4.743715
641.50 4.751574
641.60 4.787583
641.70 4.849461
641.80 4.942995
641.90 5.061063
642.00 5.186602
642.10 5.301982
642.20 5.387909
642.30 5.432569
642.40 5.436398
642.50 5.41407
642.60 5.389019
642.70 5.382823
642.80 5.410931
642.90 5.475354
643.00 5.56332
643.10 5.651757
643.20 5.708469
643.30 5.718998
643.40 5.692887
643.50 5.647229
643.60 5.593283
643.70 5.527805
643.80 5.443441
643.90 5.346654
644.00 5.261634
644.10 5.207606
644.20 5.189893
644.30 5.209284
644.40 5.261271
644.50 5.339147
644.60 5.436138
644.70 5.53854
644.80 5.628322
644.90 5.687966
645.00 5.704358
645.10 5.67476
645.20 5.609741
645.30 5.520481
645.40 5.403232
645.50 5.260137
645.60 5.115014
645.70 4.995116
645.80 4.924258
645.90 4.916248
646.00 4.976315
646.10 5.087469
646.20 5.217798
646.30 5.34325
646.40 5.448303
646.50 5.536985
646.60 5.617577
646.70 5.683723
646.80 5.731146
646.90 5.76246
647.00 5.773634
647.10 5.763146
647.20 5.732112
647.30 5.685442
647.40 5.633548
647.50 5.591998
647.60 5.57314
647.70 5.575525
647.80 5.593195
647.90 5.613796
648.00 5.623466
648.10 5.624138
648.20 5.628809
648.30 5.645638
648.40 5.679224
648.50 5.728568
648.60 5.787453
648.70 5.847595
648.80 5.891136
648.90 5.897037
649.00 5.860001
649.10 5.802432
649.20 5.761422
649.30 5.767825
649.40 5.841711
649.50 5.975215
649.60 6.133111
649.70 6.26962
649.80 6.345687
649.90 6.35097
650.00 6.309678
650.10 6.254903
650.20 6.217808
650.30 6.234515
650.40 6.334801
650.50 6.524513
650.60 6.775417
650.70 7.036907
650.80 7.255181
650.90 7.409725
651.00 7.493384
651.10 7.499736
651.20 7.448019
651.30 7.367265
651.40 7.275689
651.50 7.198424
651.60 7.164592
651.70 7.182501
651.80 7.231
651.90 7.272544
652.00 7.288596
652.10 7.286445
652.20 7.286399
652.30 7.297873
652.40 7.324407
652.50 7.378869
652.60 7.474747
652.70 7.62119
652.80 7.81594
652.90 8.039482
653.00 8.25061
653.10 8.421077
653.20 8.547579
653.30 8.631663
653.40 8.678941
653.50 8.701345
653.60 8.715524
653.70 8.72919
653.80 8.755839
653.90 8.822598
654.00 8.93922
654.10 9.086998
654.20 9.239288
654.30 9.363212
654.40 9.439573
654.50 9.466315
654.60 9.443489
654.70 9.380037
654.80 9.297876
654.90 9.220371
655.00 9.163461
655.10 9.139625
655.20 9.146092
655.30 9.159651
655.40 9.167697
655.50 9.168607
655.60 9.1642
655.70 9.190773
655.80 9.29512
655.90 9.50146
656.00 9.811567
656.10 10.19939
656.20 10.61067
656.30 10.97594
656.40 11.22746
656.50 11.3296
656.60 11.29355
656.70 11.15218
656.80 10.92833
656.90 10.64558
657.00 10.33501
657.10 10.01549
657.20 9.714745
657.30 9.465338
657.40 9.284718
657.50 9.184624
657.60 9.160824
657.70 9.18167
657.80 9.217629
657.90 9.256511
658.00 9.287644
658.10 9.303053
658.20 9.302361
658.30 9.298222
658.40 9.313182
658.50 9.360153
658.60 9.425694
658.70 9.471957
658.80 9.470056
658.90 9.403925
659.00 9.275632
659.10 9.133901
659.20 9.023705
659.30 8.949706
659.40 8.907801
659.50 8.900952
659.60 8.936519
659.70 9.011687
659.80 9.101186
659.90 9.174813
660.00 9.219157
660.10 9.24498
660.20 9.266926
660.30 9.294867
660.40 9.341985
660.50 9.405748
660.60 9.476414
660.70 9.559539
660.80 9.661068
660.90 9.768474
661.00 9.853268
661.10 9.889073
661.20 9.862086
661.30 9.77348
661.40 9.644175
661.50 9.506086
661.60 9.397868
661.70 9.355389
661.80 9.381346
661.90 9.447496
662.00 9.520979
662.10 9.558976
662.20 9.524741
662.30 9.413624
662.40 9.248057
662.50 9.070667
662.60 8.940776
662.70 8.906897
662.80 8.976106
662.90 9.129269
663.00 9.335361
663.10 9.545126
663.20 9.709796
663.30 9.807342
663.40 9.847175
663.50 9.858
663.60 9.864066
663.70 9.882942
663.80 9.935216
663.90 10.01954
664.00 10.11731
664.10 10.21943
664.20 10.32063
664.30 10.41369
664.40 10.4903
664.50 10.55149
664.60 10.60479
664.70 10.65234
664.80 10.68159
664.90 10.68297
665.00 10.66073
665.10 10.6215
665.20 10.57438
665.30 10.53766
665.40 10.52186
665.50 10.52508
665.60 10.54617
665.70 10.56713
665.80 10.5591
665.90 10.50717
666.00 10.40884
666.10 10.26927
666.20 10.10705
666.30 9.948096
666.40 9.823601
666.50 9.764393
666.60 9.790807
666.70 9.911938
666.80 10.11888
666.90 10.37672
667.00 10.63504
667.10 10.8578
667.20 11.02861
667.30 11.14717
667.40 11.2274
667.50 11.27685
667.60 11.29109
667.70 11.26464
667.80 11.20152
667.90 11.11121
668.00 10.99967
668.10 10.87777
668.20 10.77123
668.30 10.71238
668.40 10.72504
668.50 10.8066
668.60 10.92241
668.70 11.02357
668.80 11.059
668.90 10.99537
669.00 10.83686
669.10 10.61749
669.20 10.38137
669.30 10.18337
669.40 10.07654
669.50 10.08502
669.60 10.20959
669.70 10.42599
669.80 10.68142
669.90 10.92259
670.00 11.10553
670.10 11.18692
670.20 11.15373
670.30 11.02834
670.40 10.84076
670.50 10.62626
670.60 10.4199
670.70 10.24863
670.80 10.13442
670.90 10.09816
671.00 10.14201
671.10 10.24839
671.20 10.40337
671.30 10.59949
671.40 10.82718
671.50 11.07311
671.60 11.31456
671.70 11.52818
671.80 11.70344
671.90 11.82737
672.00 11.89438
672.10 11.91463
672.20 11.90123
672.30 11.86532
672.40 11.81707
672.50 11.77374
672.60 11.75285
672.70 11.74524
672.80 11.73493
672.90 11.71941
673.00 11.69104
673.10 11.64498
673.20 11.58859
673.30 11.55036
673.40 11.55589
673.50 11.59993
673.60 11.66767
673.70 11.74643
673.80 11.82858
673.90 11.90972
674.00 11.98015
674.10 12.04162
674.20 12.10172
674.30 12.15568
674.40 12.19431
674.50 12.21197
674.60 12.20831
674.70 12.18654
674.80 12.1539
674.90 12.12195
675.00 12.10151
675.10 12.11273
675.20 12.17023
675.30 12.25852
675.40 12.34736
675.50 12.40077
675.60 12.38643
675.70 12.30055
675.80 12.17894
675.90 12.05921
676.00 11.95883
676.10 11.87946
676.20 11.82759
676.30 11.8262
676.40 11.89716
676.50 12.03032
676.60 12.18502
676.70 12.32795
676.80 12.44431
676.90 12.54044
677.00 12.62355
677.10 12.67622
677.20 12.67535
677.30 12.63185
677.40 12.58614
677.50 12.57186
677.60 12.59015
677.70 12.61734
677.80 12.62454
677.90 12.5999
678.00 12.554
678.10 12.50194
678.20 12.44333
678.30 12.35115
678.40 12.21402
678.50 12.06174
678.60 11.92663
678.70 11.82084
678.80 11.73938
678.90 11.6829
679.00 11.66295
679.10 11.68021
679.20 11.72403
679.30 11.78357
679.40 11.8483
679.50 11.90353
679.60 11.94067
679.70 11.96652
679.80 11.98306
679.90 11.97928
680.00 11.94685
680.10 11.88565
680.20 11.80575
680.30 11.7211
680.40 11.65198
680.50 11.62165
680.60 11.64496
680.70 11.70883
680.80 11.77011
680.90 11.79166
681.00 11.76096
681.10 11.68777
681.20 11.59788
681.30 11.5127
681.40 11.44057
681.50 11.38809
681.60 11.35546
681.70 11.33575
681.80 11.31682
681.90 11.28991
682.00 11.253
682.10 11.22118
682.20 11.23287
682.30 11.31759
682.40 11.47207
682.50 11.6505
682.60 11.7903
682.70 11.8651
682.80 11.88582
682.90 11.86117
683.00 11.78929
683.10 11.67289
683.20 11.52922
683.30 11.38321
683.40 11.2503
683.50 11.12399
683.60 10.99813
683.70 10.88153
683.80 10.79131
683.90 10.76459
684.00 10.83792
684.10 11.0058
684.20 11.22432
684.30 11.44144
684.40 11.61262
684.50 11.71054
684.60 11.72347
684.70 11.64728
684.80 11.49177
684.90 11.28879
685.00 11.06788
685.10 10.85673
685.20 10.6952
685.30 10.60407
685.40 10.57053
685.50 10.57382
685.60 10.59701
685.70 10.6283
685.80 10.67892
685.90 10.77075
686.00 10.90566
686.10 11.05893
686.20 11.19652
686.30 11.2943
686.40 11.3486
686.50 11.36174
686.60 11.32539
686.70 11.24415
686.80 11.1431
686.90 11.04534
687.00 10.97518
687.10 10.95303
687.20 10.97646
687.30 11.0208
687.40 11.05374
687.50 11.0644
687.60 11.06083
687.70 11.04394
687.80 10.99676
687.90 10.89741
688.00 10.74512
688.10 10.57059
688.20 10.42297
688.30 10.35502
688.40 10.40551
688.50 10.57926
688.60 10.83818
688.70 11.11497
688.80 11.33882
688.90 11.4515
689.00 11.43298
689.10 11.2896
689.20 11.03787
689.30 10.72181
689.40 10.39889
689.50 10.11438
689.60 9.905562
689.70 9.784842
689.80 9.724262
689.90 9.68726
690.00 9.656369
690.10 9.629824
690.20 9.612368
690.30 9.610071
690.40 9.623623
690.50 9.660588
690.60 9.730877
690.70 9.844171
690.80 10.01963
690.90 10.26024
691.00 10.52976
691.10 10.77607
691.20 10.95928
691.30 11.04809
691.40 11.01953
691.50 10.86677
691.60 10.61785
691.70 10.34168
691.80 10.10163
691.90 9.930959
692.00 9.863486
692.10 9.916057
692.20 10.0507
692.30 10.2113
692.40 10.36907
692.50 10.52303
692.60 10.67959
692.70 10.84485
692.80 11.03015
692.90 11.24058
693.00 11.46765
693.10 11.68173
693.20 11.84508
693.30 11.94416
693.40 11.97162
693.50 11.91807
693.60 11.81059
693.70 11.69394
693.80 11.5907
693.90 11.51645
694.00 11.4958
694.10 11.55414
694.20 11.71351
694.30 11.99198
694.40 12.40134
694.50 12.92305
694.60 13.48452
694.70 13.98787
694.80 14.35019
694.90 14.51396
695.00 14.44372
695.10 14.14779
695.20 13.69997
695.30 13.20039
695.40 12.73259
695.50 12.37045
695.60 12.15884
695.70 12.0979
695.80 12.14111
695.90 12.21901
696.00 12.28951
696.10 12.33944
696.20 12.36776
696.30 12.39243
696.40 12.44024
696.50 12.52452
696.60 12.63366
696.70 12.74712
696.80 12.85185
696.90 12.92281
697.00 12.93922
697.10 12.89433
697.20 12.7912
697.30 12.66691
697.40 12.57543
697.50 12.55194
697.60 12.60959
697.70 12.72603
697.80 12.86339
697.90 12.98539
698.00 13.05667
698.10 13.06489
698.20 13.02567
698.30 12.97326
698.40 12.94171
698.50 12.95927
698.60 13.03697
698.70 13.14842
698.80 13.25189
698.90 13.31672
699.00 13.32396
699.10 13.27358
699.20 13.18618
699.30 13.0979
699.40 13.03958
699.50 13.01603
699.60 13.02237
699.70 13.05137
699.80 13.08983
699.90 13.12572
700.00 13.16155
700.10 13.21421
700.20 13.30425
700.30 13.44086
700.40 13.61417
700.50 13.81912
700.60 14.04134
700.70 14.24252
700.80 14.39982
700.90 14.51718
701.00 14.59364
701.10 14.6286
701.20 14.62984
701.30 14.6095
701.40 14.59015
701.50 14.58464
701.60 14.59598
701.70 14.62823
701.80 14.68983
701.90 14.78248
702.00 14.89521
702.10 15.01506
702.20 15.12804
702.30 15.21558
702.40 15.26814
702.50 15.28541
702.60 15.28761
702.70 15.31176
702.80 15.36905
702.90 15.47089
703.00 15.63557
703.10 15.86291
703.20 16.13611
703.30 16.42673
703.40 16.70462
703.50 16.96061
703.60 17.21569
703.70 17.49055
703.80 17.78132
703.90 18.08301
704.00 18.37874
704.10 18.63074
704.20 18.81892
704.30 18.93526
704.40 18.97128
704.50 18.93021
704.60 18.83252
704.70 18.70888
704.80 18.5937
704.90 18.50402
705.00 18.4229
705.10 18.32065
705.20 18.18605
705.30 18.0119
705.40 17.78274
705.50 17.50268
705.60 17.20225
705.70 16.91918
705.80 16.68773
705.90 16.53201
706.00 16.46575
706.10 16.49776
706.20 16.61854
706.30 16.79465
706.40 16.98167
706.50 17.14246
706.60 17.25854
706.70 17.33418
706.80 17.39432
706.90 17.46031
707.00 17.53266
707.10 17.59669
707.20 17.64333
707.30 17.68784
707.40 17.75537
707.50 17.85076
707.60 17.96436
707.70 18.08432
707.80 18.19798
707.90 18.29224
708.00 18.34779
708.10 18.34474
708.20 18.27026
708.30 18.12363
708.40 17.91848
708.50 17.68194
708.60 17.45096
708.70 17.24942
708.80 17.07376
708.90 16.913
709.00 16.76362
709.10 16.64004
709.20 16.56387
709.30 16.54344
709.40 16.57502
709.50 16.64626
709.60 16.73419
709.70 16.82117
709.80 16.90827
709.90 17.00764
710.00 17.11819
710.10 17.22288
710.20 17.32079
710.30 17.42076
710.40 17.52533
710.50 17.62701
710.60 17.70965
710.70 17.76255
710.80 17.78284
710.90 17.7811
711.00 17.78839
711.10 17.82606
711.20 17.88728
711.30 17.96199
711.40 18.04451
711.50 18.12388
711.60 18.18235
711.70 18.20627
711.80 18.19011
711.90 18.14171
712.00 18.07678
712.10 18.01158
712.20 17.95823
712.30 17.91099
712.40 17.85785
712.50 17.79695
712.60 17.73468
712.70 17.67783
712.80 17.62988
712.90 17.58977
713.00 17.55905
713.10 17.53791
713.20 17.51524
713.30 17.48163
713.40 17.44717
713.50 17.42892
713.60 17.44084
713.70 17.49198
713.80 17.58675
713.90 17.72491
714.00 17.89987
714.10 18.09299
714.20 18.27743
714.30 18.44461
714.40 18.58787
714.50 18.70321
714.60 18.80892
714.70 18.92464
714.80 19.05808
714.90 19.20404
715.00 19.34279
715.10 19.45392
715.20 19.52342
715.30 19.54999
715.40 19.53827
715.50 19.50188
715.60 19.46773
715.70 19.45243
715.80 19.47032
715.90 19.53137
716.00 19.62771
716.10 19.74043
716.20 19.85735
716.30 19.98615
716.40 20.14189
716.50 20.32566
716.60 20.51586
716.70 20.66888
716.80 20.74769
716.90 20.73972
717.00 20.64429
717.10 20.48337
717.20 20.2973
717.30 20.12223
717.40 19.98876
717.50 19.92052
717.60 19.91582
717.70 19.95336
717.80 20.01313
717.90 20.07847
718.00 20.13976
718.10 20.2086
718.20 20.29366
718.30 20.38527
718.40 20.48265
718.50 20.59267
718.60 20.7197
718.70 20.86586
718.80 21.02599
718.90 21.1866
719.00 21.33398
719.10 21.45064
719.20 21.52589
719.30 21.56136
719.40 21.55742
719.50 21.52012
719.60 21.46808
719.70 21.42391
719.80 21.41261
719.90 21.45437
720.00 21.55979
720.10 21.72664
720.20 21.92564
720.30 22.10931
720.40 22.23718
720.50 22.28651
720.60 22.2476
720.70 22.13407
720.80 21.98643
720.90 21.83971
721.00 21.71969
721.10 21.65564
721.20 21.66812
721.30 21.75704
721.40 21.89867
721.50 22.05932
721.60 22.22192
721.70 22.38977
721.80 22.55461
721.90 22.69438
722.00 22.80004
722.10 22.86485
722.20 22.87553
722.30 22.83952
722.40 22.78892
722.50 22.75643
722.60 22.75451
722.70 22.78127
722.80 22.84117
722.90 22.9382
723.00 23.05254
723.10 23.1495
723.20 23.2214
723.30 23.28669
723.40 23.37638
723.50 23.57065
723.60 23.94712
723.70 24.47567
723.80 25.04783
723.90 25.55004
724.00 25.92333
724.10 26.14685
724.20 26.17815
724.30 25.99975
724.40 25.66421
724.50 25.25435
724.60 24.85287
724.70 24.55316
724.80 24.4311
724.90 24.47706
725.00 24.63397
725.10 24.889
725.20 25.24301
725.30 25.65517
725.40 26.03018
725.50 26.27619
725.60 26.35716
725.70 26.28109
725.80 26.09387
725.90 25.87019
726.00 25.67088
726.10 25.52189
726.20 25.42908
726.30 25.39508
726.40 25.41954
726.50 25.48303
726.60 25.55523
726.70 25.608
726.80 25.62006
726.90 25.61531
727.00 25.6926
727.10 25.97728
727.20 26.53856
727.30 27.31663
727.40 28.13804
727.50 28.81847
727.60 29.21664
727.70 29.24317
727.80 28.9112
727.90 28.33899
728.00 27.68971
728.10 27.12814
728.20 26.784
728.30 26.69475
728.40 26.78843
728.50 26.90766
728.60 26.88078
728.70 26.63435
728.80 26.23034
728.90 25.78518
729.00 25.41352
729.10 25.22231
729.20 25.26548
729.30 25.51614
729.40 25.90633
729.50 26.35786
729.60 26.79339
729.70 27.1677
729.80 27.44879
729.90 27.6198
730.00 27.70406
730.10 27.74506
730.20 27.78697
730.30 27.85432
730.40 27.95102
730.50 28.07353
730.60 28.20464
730.70 28.33623
730.80 28.46088
730.90 28.57751
731.00 28.72042
731.10 28.94393
731.20 29.29738
731.30 29.76498
731.40 30.26095
731.50 30.69066
731.60 30.98322
731.70 31.10338
731.80 31.04989
731.90 30.85364
732.00 30.56998
732.10 30.26158
732.20 30.00738
732.30 29.89394
732.40 29.97714
732.50 30.21722
732.60 30.48629
732.70 30.67966
732.80 30.74023
732.90 30.64752
733.00 30.41119
733.10 30.06375
733.20 29.67423
733.30 29.33696
733.40 29.155
733.50 29.22887
733.60 29.61584
733.70 30.27471
733.80 31.07483
733.90 31.84885
734.00 32.45891
734.10 32.81249
734.20 32.8535
734.30 32.57648
734.40 32.0236
734.50 31.29712
734.60 30.54781
734.70 29.91219
734.80 29.47175
734.90 29.2393
735.00 29.17328
735.10 29.22185
735.20 29.32963
735.30 29.44841
735.40 29.54164
735.50 29.57903
735.60 29.55095
735.70 29.46021
735.80 29.34455
735.90 29.2464
736.00 29.18186
736.10 29.16596
736.20 29.22298
736.30 29.38399
736.40 29.69661
736.50 30.17901
736.60 30.76185
736.70 31.32485
736.80 31.73722
736.90 31.89872
737.00 31.78188
737.10 31.42805
737.20 30.90913
737.30 30.31973
737.40 29.76012
737.50 29.3148
737.60 29.0474
737.70 28.975
737.80 29.04233
737.90 29.16184
738.00 29.27258
738.10 29.34731
738.20 29.39452
738.30 29.43693
738.40 29.48928
738.50 29.55313
738.60 29.63574
738.70 29.76098
738.80 29.93122
738.90 30.12155
739.00 30.30195
739.10 30.43961
739.20 30.47696
739.30 30.36948
739.40 30.1362
739.50 29.85391
739.60 29.6265
739.70 29.53342
739.80 29.60709
739.90 29.83636
740.00 30.14942
740.10 30.43047
740.20 30.58197
740.30 30.55007
740.40 30.31832
740.50 29.90928
740.60 29.40932
740.70 28.92458
740.80 28.53738
740.90 28.29033
741.00 28.17112
741.10 28.15171
741.20 28.20324
741.30 28.29622
741.40 28.42606
741.50 28.5922
741.60 28.7621
741.70 28.89293
741.80 28.9444
741.90 28.8908
742.00 28.73247
742.10 28.49835
742.20 28.23327
742.30 27.98793
742.40 27.82098
742.50 27.77867
742.60 27.86606
742.70 28.04754
742.80 28.26325
742.90 28.44002
743.00 28.53173
743.10 28.52174
743.20 28.41939
743.30 28.26591
743.40 28.09582
743.50 27.93273
743.60 27.82154
743.70 27.78898
743.80 27.81253
743.90 27.84872
744.00 27.86055
744.10 27.83027
744.20 27.74354
744.30 27.60556
744.40 27.44229
744.50 27.27959
744.60 27.1344
744.70 27.00648
744.80 26.90707
744.90 26.86491
745.00 26.88452
745.10 26.95128
745.20 27.04818
745.30 27.14162
745.40 27.20152
745.50 27.22532
745.60 27.22347
745.70 27.20408
745.80 27.18133
745.90 27.18086
746.00 27.228
746.10 27.33862
746.20 27.51829
746.30 27.74139
746.40 27.95432
746.50 28.11555
746.60 28.2089
746.70 28.24759
746.80 28.2562
746.90 28.24065
747.00 28.19619
747.10 28.11563
747.20 27.98725
747.30 27.81749
747.40 27.63793
747.50 27.48298
747.60 27.38902
747.70 27.38809
747.80 27.48834
747.90 27.68168
748.00 27.94997
748.10 28.24103
748.20 28.46983
748.30 28.55844
748.40 28.48187
748.50 28.28282
748.60 28.04591
748.70 27.84397
748.80 27.7151
748.90 27.67605
749.00 27.71904
749.10 27.81958
749.20 27.94431
749.30 28.04638
749.40 28.08133
749.50 28.04377
749.60 27.97699
749.70 27.93877
749.80 27.95007
749.90 27.99497
750.00 28.04922
750.10 28.08205
750.20 28.07565
750.30 28.03533
750.40 27.97338
750.50 27.91036
750.60 27.87694
750.70 27.89745
750.80 27.98021
750.90 28.11384
751.00 28.25936
751.10 28.3742
751.20 28.45405
751.30 28.51605
751.40 28.56099
751.50 28.58064
751.60 28.57085
751.70 28.53666
751.80 28.5091
751.90 28.53679
752.00 28.64417
752.10 28.80992
752.20 28.99872
752.30 29.17983
752.40 29.32794
752.50 29.42148
752.60 29.43747
752.70 29.35912
752.80 29.19533
752.90 28.97253
753.00 28.71733
753.10 28.46931
753.20 28.25153
753.30 28.05225
753.40 27.86323
753.50 27.70995
753.60 27.62487
753.70 27.62107
753.80 27.6937
753.90 27.82873
754.00 28.00008
754.10 28.16832
754.20 28.29419
754.30 28.36545
754.40 28.39214
754.50 28.37708
754.60 28.32161
754.70 28.23458
754.80 28.14112
754.90 28.07329
755.00 28.04705
755.10 28.07569
755.20 28.17607
755.30 28.33597
755.40 28.51636
755.50 28.69268
755.60 28.85551
755.70 28.98751
755.80 29.06695
755.90 29.07695
756.00 29.00518
756.10 28.84263
756.20 28.59431
756.30 28.28547
756.40 27.95556
756.50 27.65663
756.60 27.46191
756.70 27.42582
756.80 27.54603
756.90 27.76282
757.00 27.99258
757.10 28.16476
757.20 28.22512
757.30 28.14129
757.40 27.92672
757.50 27.65103
757.60 27.39398
757.70 27.22183
757.80 27.18604
757.90 27.29048
758.00 27.48343
758.10 27.69455
758.20 27.85302
758.30 27.91535
758.40 27.84191
758.50 27.58131
758.60 27.12068
758.70 26.50025
758.80 25.78554
758.90 25.04668
759.00 24.35375
759.10 23.7752
759.20 23.37536
759.30 23.19753
759.40 23.22663
759.50 23.40237
759.60 23.67336
759.70 23.97844
759.80 24.27252
759.90 24.55718
760.00 24.80819
760.10 24.94109
760.20 24.88838
760.30 24.64617
760.40 24.24105
760.50 23.69883
760.60 23.04844
760.70 22.32825
760.80 21.61948
760.90 21.0465
761.00 20.7074
761.10 20.6328
761.20 20.78143
761.30 21.0747
761.40 21.43257
761.50 21.78566
761.60 22.05845
761.70 22.16522
761.80 22.04827
761.90 21.71259
762.00 21.22616
762.10 20.69014
762.20 20.1901
762.30 19.78021
762.40 19.4783
762.50 19.27185
762.60 19.12123
762.70 18.94259
762.80 18.64709
762.90 18.20894
763.00 17.65497
763.10 17.03599
763.20 16.41735
763.30 15.85072
763.40 15.3752
763.50 15.01135
763.60 14.75345
763.70 14.56592
763.80 14.39955
763.90 14.20474
764.00 13.94582
764.10 13.60551
764.20 13.18258
764.30 12.68239
764.40 12.1159
764.50 11.49513
764.60 10.84209
764.70 10.21073
764.80 9.632418
764.90 9.112617
765.00 8.659751
765.10 8.266721
765.20 7.906065
765.30 7.551672
765.40 7.182061
765.50 6.782802
765.60 6.359584
765.70 5.937841
765.80 5.54518
765.90 5.196393
766.00 4.897763
766.10 4.636943
766.20 4.389792
766.30 4.145699
766.40 3.896629
766.50 3.648388
766.60 3.434034
766.70 3.294344
766.80 3.266515
766.90 3.37419
767.00 3.61738
767.10 3.970615
767.20 4.393668
767.30 4.85709
767.40 5.34137
767.50 5.826217
767.60 6.296566
767.70 6.738614
767.80 7.153433
767.90 7.552623
768.00 7.942418
768.10 8.315688
768.20 8.648204
768.30 8.91442
768.40 9.093261
768.50 9.16264
768.60 9.10409
768.70 8.910837
768.80 8.602352
768.90 8.222517
769.00 7.821493
769.10 7.447536
769.20 7.121189
769.30 6.822829
769.40 6.528138
769.50 6.217879
769.60 5.87159
769.70 5.487121
769.80 5.088302
769.90 4.718442
770.00 4.431164
770.10 4.273516
770.20 4.265338
770.30 4.40636
770.40 4.680703
770.50 5.055734
770.60 5.522759
770.70 6.12535
770.80 6.911453
770.90 7.866353
771.00 8.94417
771.10 10.0902
771.20 11.20943
771.30 12.15726
771.40 12.80449
771.50 13.12178
771.60 13.16715
771.70 13.03777
771.80 12.87518
771.90 12.84359
772.00 13.04625
772.10 13.48322
772.20 14.08566
772.30 14.80289
772.40 15.57308
772.50 16.2828
772.60 16.84662
772.70 17.26947
772.80 17.59981
772.90 17.86809
773.00 18.09936
773.10 18.31841
773.20 18.52445
773.30 18.71018
773.40 18.88306
773.50 19.06556
773.60 19.27398
773.70 19.49558
773.80 19.72003
773.90 19.95975
774.00 20.22806
774.10 20.51876
774.20 20.79666
774.30 21.02777
774.40 21.21995
774.50 21.43629
774.60 21.76639
774.70 22.2453
774.80 22.8361
774.90 23.45103
775.00 23.99249
775.10 24.38373
775.20 24.56946
775.30 24.55868
775.40 24.41907
775.50 24.23892
775.60 24.12569
775.70 24.16149
775.80 24.34887
775.90 24.60237
776.00 24.79244
776.10 24.8285
776.20 24.69895
776.30 24.45502
776.40 24.17396
776.50 23.94299
776.60 23.84784
776.70 23.93026
776.80 24.1862
776.90 24.58042
777.00 25.04608
777.10 25.50545
777.20 25.87804
777.30 26.09428
777.40 26.12898
777.50 26.00667
777.60 25.79319
777.70 25.58038
777.80 25.44673
777.90 25.44996
778.00 25.61756
778.10 25.91034
778.20 26.22847
778.30 26.46552
778.40 26.55207
778.50 26.45746
778.60 26.20758
778.70 25.90572
778.80 25.70555
778.90 25.75828
779.00 26.1218
779.10 26.73451
779.20 27.4556
779.30 28.06845
779.40 28.32535
779.50 28.04507
779.60 27.14948
779.70 25.67391
779.80 23.78423
779.90 21.76437
780.00 19.97409
780.10 18.75378
780.20 18.3241
780.30 18.74859
780.40 19.94253
780.50 21.66807
780.60 23.60675
780.70 25.45488
780.80 26.97075
780.90 28.00155
781.00 28.52336
781.10 28.63069
781.20 28.48088
781.30 28.26072
781.40 28.13091
781.50 28.20886
781.60 28.57937
781.70 29.22345
781.80 30.02443
781.90 30.84314
782.00 31.52543
782.10 31.94605
782.20 32.0382
782.30 31.81821
782.40 31.37457
782.50 30.82812
782.60 30.29887
782.70 29.87645
782.80 29.62168
782.90 29.54152
783.00 29.5608
783.10 29.60407
783.20 29.64091
783.30 29.66259
783.40 29.68305
783.50 29.74294
783.60 29.89355
783.70 30.14319
783.80 30.46527
783.90 30.84281
784.00 31.27439
784.10 31.74562
784.20 32.2317
784.30 32.72328
784.40 33.20852
784.50 33.64809
784.60 33.97765
784.70 34.19141
784.80 34.38854
784.90 34.65379
785.00 34.98268
785.10 35.3353
785.20 35.6782
785.30 35.97694
785.40 36.18999
785.50 36.29456
785.60 36.29344
785.70 36.19819
785.80 36.03316
785.90 35.82821
786.00 35.63963
786.10 35.49969
786.20 35.34287
786.30 35.09352
786.40 34.79654
786.50 34.57403
786.60 34.50431
786.70 34.5817
786.80 34.7333
786.90 34.85033
787.00 34.80609
787.10 34.51164
787.20 33.96324
787.30 33.26327
787.40 32.56743
787.50 32.03069
787.60 31.80543
787.70 32.01822
787.80 32.67606
787.90 33.62997
788.00 34.67624
788.10 35.6375
788.20 36.38099
788.30 36.8382
788.40 37.04933
788.50 37.09856
788.60 37.0426
788.70 36.9313
788.80 36.80764
788.90 36.70889
789.00 36.66762
789.10 36.6614
789.20 36.63326
789.30 36.57362
789.40 36.50451
789.50 36.42249
789.60 36.31643
789.70 36.17715
789.80 35.97459
789.90 35.69155
790.00 35.37397
790.10 35.10716
790.20 34.95753
790.30 34.95534
790.40 35.08032
790.50 35.2793
790.60 35.47521
790.70 35.62244
790.80 35.79079
790.90 36.1165
791.00 36.68281
791.10 37.47147
791.20 38.34091
791.30 39.13153
791.40 39.7326
791.50 40.04774
791.60 40.05409
791.70 39.78598
791.80 39.32435
791.90 38.82219
792.00 38.46009
792.10 38.31434
792.20 38.27542
792.30 38.14645
792.40 37.80388
792.50 37.26492
792.60 36.67603
792.70 36.21271
792.80 36.01865
792.90 36.17653
793.00 36.68782
793.10 37.49103
793.20 38.45348
793.30 39.3729
793.40 40.0518
793.50 40.36871
793.60 40.28993
793.70 39.89111
793.80 39.30315
793.90 38.63701
794.00 37.9552
794.10 37.26346
794.20 36.49683
794.30 35.55
794.40 34.33593
794.50 32.87648
794.60 31.3082
794.70 29.83586
794.80 28.69541
794.90 28.10805
795.00 28.22577
795.10 29.0556
795.20 30.46708
795.30 32.23133
795.40 34.09354
795.50 35.80115
795.60 37.15531
795.70 38.07518
795.80 38.59588
795.90 38.85549
796.00 39.02204
796.10 39.23996
796.20 39.60256
796.30 40.1372
796.40 40.79526
796.50 41.45422
796.60 41.9706
796.70 42.24405
796.80 42.24187
796.90 42.00593
797.00 41.61995
797.10 41.17774
797.20 40.76469
797.30 40.42142
797.40 40.20061
797.50 40.15942
797.60 40.30725
797.70 40.59045
797.80 40.93095
797.90 41.26869
798.00 41.53882
798.10 41.66841
798.20 41.57983
798.30 41.23037
798.40 40.64951
798.50 39.93549
798.60 39.2329
798.70 38.68702
798.80 38.37567
798.90 38.30622
799.00 38.49568
799.10 38.97399
799.20 39.69241
799.30 40.51818
799.40 41.30281
799.50 41.92821
799.60 42.34494
799.70 42.5572
799.80 42.60467
799.90 42.55169
800.00 42.45552
800.10 42.3635
800.20 42.32096
800.30 42.35021
800.40 42.40394
800.50 42.40921
800.60 42.34072
800.70 42.22866
800.80 42.16102
800.90 42.26563
801.00 42.6282
801.10 43.24469
801.20 44.02127
801.30 44.81189
801.40 45.48288
801.50 45.92041
801.60 46.05721
801.70 45.90217
801.80 45.53987
801.90 45.09249
802.00 44.70167
802.10 44.52661
802.20 44.66464
802.30 45.11607
802.40 45.81181
802.50 46.64386
802.60 47.51633
802.70 48.34911
802.80 49.05777
802.90 49.56871
803.00 49.84002
803.10 49.87556
803.20 49.70414
803.30 49.37047
803.40 48.93634
803.50 48.46319
803.60 48.01093
803.70 47.62201
803.80 47.33085
803.90 47.16924
804.00 47.149
804.10 47.27106
804.20 47.52364
804.30 47.87495
804.40 48.2618
804.50 48.63401
804.60 48.98611
804.70 49.34199
804.80 49.75966
804.90 50.2909
805.00 50.95595
805.10 51.73395
805.20 52.55986
805.30 53.3631
805.40 54.07061
805.50 54.6227
805.60 55.00957
805.70 55.27199
805.80 55.47405
805.90 55.6553
806.00 55.81159
806.10 55.90239
806.20 55.86709
806.30 55.67435
806.40 55.33146
806.50 54.87814
806.60 54.39419
806.70 53.9799
806.80 53.73841
806.90 53.74963
807.00 54.03734
807.10 54.55781
807.20 55.23996
807.30 56.00508
807.40 56.78021
807.50 57.51133
807.60 58.14554
807.70 58.63506
807.80 58.96307
807.90 59.18148
808.00 59.38482
808.10 59.64358
808.20 59.98051
808.30 60.36295
808.40 60.71891
808.50 60.96893
808.60 61.05965
808.70 60.99173
808.80 60.80885
808.90 60.59708
809.00 60.45886
809.10 60.46341
809.20 60.63322
809.30 60.91194
809.40 61.18167
809.50 61.33085
809.60 61.29544
809.70 61.07155
809.80 60.71491
809.90 60.32957
810.00 60.02015
810.10 59.84343
810.20 59.79299
810.30 59.82826
810.40 59.91228
810.50 60.02102
810.60 60.13844
810.70 60.26567
810.80 60.43381
810.90 60.68366
811.00 61.02727
811.10 61.4388
811.20 61.85869
811.30 62.22248
811.40 62.50443
811.50 62.72753
811.60 62.96921
811.70 63.29049
811.80 63.68142
811.90 64.10167
812.00 64.51033
812.10 64.87251
812.20 65.17292
812.30 65.42121
812.40 65.65683
812.50 65.94036
812.60 66.33099
812.70 66.85568
812.80 67.47486
812.90 68.10488
813.00 68.64664
813.10 69.0176
813.20 69.20158
813.30 69.2652
813.40 69.31973
813.50 69.47063
813.60 69.76389
813.70 70.1605
813.80 70.55133
813.90 70.79625
814.00 70.75951
814.10 70.37183
814.20 69.66614
814.30 68.74489
814.40 67.73208
814.50 66.78724
814.60 66.07794
814.70 65.69308
814.80 65.64652
814.90 65.89287
815.00 66.33956
815.10 66.87941
815.20 67.4289
815.30 67.92942
815.40 68.37799
815.50 68.79862
815.60 69.18739
815.70 69.54191
815.80 69.88852
815.90 70.25194
816.00 70.65938
816.10 71.15092
816.20 71.73246
816.30 72.35189
816.40 72.93179
816.50 73.43165
816.60 73.85186
816.70 74.2083
816.80 74.5014
816.90 74.73327
817.00 74.93194
817.10 75.1273
817.20 75.34261
817.30 75.58033
817.40 75.78899
817.50 75.85201
817.60 75.62594
817.70 75.00005
817.80 73.89445
817.90 72.24993
818.00 70.07501
818.10 67.50624
818.20 64.80663
818.30 62.33176
818.40 60.46601
818.50 59.51192
818.60 59.58492
818.70 60.55642
818.80 62.07614
818.90 63.65811
819.00 64.78313
819.10 65.03222
819.20 64.22387
819.30 62.47432
819.40 60.1631
819.50 57.83645
819.60 56.05975
819.70 55.24483
819.80 55.56314
819.90 56.94724
820.00 59.14382
820.10 61.79697
820.20 64.52355
820.30 66.99609
820.40 69.02522
820.50 70.56952
820.60 71.69189
820.70 72.48183
820.80 73.02432
820.90 73.39281
821.00 73.6204
821.10 73.71582
821.20 73.68349
821.30 73.5586
821.40 73.38794
821.50 73.19406
821.60 73.01573
821.70 72.91772
821.80 72.95714
821.90 73.16358
822.00 73.52011
822.10 73.99571
822.20 74.55801
822.30 75.14858
822.40 75.72561
822.50 76.2802
822.60 76.82019
822.70 77.31186
822.80 77.7089
822.90 78.01753
823.00 78.25799
823.10 78.4292
823.20 78.51187
823.30 78.51335
823.40 78.49813
823.50 78.52345
823.60 78.60497
823.70 78.78209
823.80 79.09272
823.90 79.5168
824.00 79.9935
824.10 80.48451
824.20 80.98894
824.30 81.51072
824.40 82.06465
824.50 82.68497
824.60 83.39394
824.70 84.11902
824.80 84.70634
824.90 85.0417
825.00 85.08584
825.10 84.81989
825.20 84.24497
825.30 83.42178
825.40 82.49552
825.50 81.64985
825.60 81.03953
825.70 80.76569
825.80 80.83131
825.90 81.151
826.00 81.61191
826.10 82.1269
826.20 82.64116
826.30 83.09808
826.40 83.4489
826.50 83.66772
826.60 83.78431
826.70 83.86943
826.80 83.95519
826.90 84.0359
827.00 84.08156
827.10 84.06804
827.20 84.00708
827.30 83.93296
827.40 83.88926
827.50 83.93745
827.60 84.13066
827.70 84.50032
827.80 85.03697
827.90 85.64298
828.00 86.15438
828.10 86.41129
828.20 86.32828
828.30 85.9333
828.40 85.34991
828.50 84.70559
828.60 84.0297
828.70 83.29287
828.80 82.49215
828.90 81.63209
829.00 80.73509
829.10 79.8441
829.20 79.01596
829.30 78.36923
829.40 78.06017
829.50 78.20625
829.60 78.81753
829.70 79.74564
829.80 80.71848
829.90 81.43246
830.00 81.73286
830.10 81.613
830.20 81.10136
830.30 80.2727
830.40 79.24362
830.50 78.17875
830.60 77.26835
830.70 76.655
830.80 76.40192
830.90 76.48676
831.00 76.83427
831.10 77.34805
831.20 77.93033
831.30 78.51857
831.40 79.05234
831.50 79.4815
831.60 79.80519
831.70 80.06444
831.80 80.32465
831.90 80.63035
832.00 80.98414
832.10 81.37497
832.20 81.75637
832.30 82.04745
832.40 82.16317
832.50 82.05497
832.60 81.73459
832.70 81.28966
832.80 80.85136
832.90 80.5296
833.00 80.39701
833.10 80.47244
833.20 80.72532
833.30 81.09956
833.40 81.53833
833.50 81.98949
833.60 82.40998
833.70 82.79416
833.80 83.21283
833.90 83.76243
834.00 84.5028
834.10 85.39715
834.20 86.41315
834.30 87.53012
834.40 88.64797
834.50 89.63942
834.60 90.32555
834.70 90.55471
834.80 90.29299
834.90 89.60782
835.00 88.67139
835.10 87.72201
835.20 86.95393
835.30 86.46373
835.40 86.24674
835.50 86.26095
835.60 86.39154
835.70 86.45995
835.80 86.34803
835.90 86.03415
836.00 85.64192
836.10 85.34133
836.20 85.23687
836.30 85.39306
836.40 85.82601
836.50 86.48271
836.60 87.24993
836.70 87.98228
836.80 88.56121
836.90 88.88779
837.00 88.85828
837.10 88.43971
837.20 87.68237
837.30 86.69017
837.40 85.61584
837.50 84.65378
837.60 84.0198
837.70 83.91905
837.80 84.43352
837.90 85.46144
838.00 86.77928
838.10 88.11356
838.20 89.19229
838.30 89.76914
838.40 89.68399
838.50 88.92037
838.60 87.61947
838.70 86.01323
838.80 84.35518
838.90 82.87411
839.00 81.7485
839.10 81.05905
839.20 80.81373
839.30 81.02596
839.40 81.72328
839.50 82.91354
839.60 84.58982
839.70 86.71035
839.80 89.08169
839.90 91.39193
840.00 93.31733
840.10 94.59334
840.20 95.11234
840.30 94.92649
840.40 94.20521
840.50 93.17387
840.60 92.08625
840.70 91.16221
840.80 90.49516
840.90 90.10152
841.00 89.92708
841.10 89.8764
841.20 89.96207
841.30 90.233
841.40 90.68743
841.50 91.29286
841.60 91.9451
841.70 92.50114
841.80 92.80741
841.90 92.75136
842.00 92.3211
842.10 91.61733
842.20 90.81739
842.30 90.10593
842.40 89.62749
842.50 89.48677
842.60 89.74651
842.70 90.47302
842.80 91.66474
842.90 93.14351
843.00 94.6172
843.10 95.70704
843.20 96.04735
843.30 95.42537
843.40 93.82198
843.50 91.41726
843.60 88.52682
843.70 85.53339
843.80 82.82493
843.90 80.67908
844.00 79.17799
844.10 78.17491
844.20 77.43468
844.30 76.78757
844.40 76.12651
844.50 75.45794
844.60 74.88433
844.70 74.51946
844.80 74.39031
844.90 74.41218
845.00 74.51485
845.10 74.63224
845.20 74.676
845.30 74.58369
845.40 74.32417
845.50 73.9138
845.60 73.42494
845.70 72.952
845.80 72.58404
845.90 72.38146
846.00 72.39986
846.10 72.66748
846.20 73.12942
846.30 73.66094
846.40 74.14333
846.50 74.50638
846.60 74.69501
846.70 74.66622
846.80 74.40522
846.90 73.94545
847.00 73.33452
847.10 72.64845
847.20 71.98538
847.30 71.4372
847.40 71.03755
847.50 70.75812
847.60 70.62708
847.70 70.69544
847.80 70.9113
847.90 71.13749
848.00 71.24156
848.10 71.1516
848.20 70.93173
848.30 70.71084
848.40 70.56884
848.50 70.53303
848.60 70.61878
848.70 70.86686
848.80 71.32708
848.90 72.01014
849.00 72.85379
849.10 73.78079
849.20 74.72231
849.30 75.58084
849.40 76.2371
849.50 76.57568
849.60 76.47776
849.70 75.90666
849.80 74.99249
849.90 74.01656
850.00 73.30319
850.10 73.08347
850.20 73.44286
850.30 74.29987
850.40 75.4727
850.50 76.73505
850.60 77.81971
850.70 78.48688
850.80 78.6031
850.90 78.17626
851.00 77.33774
851.10 76.25696
851.20 75.08226
851.30 73.90785
851.40 72.77228
851.50 71.64321
851.60 70.40876
851.70 68.95206
851.80 67.19536
851.90 65.1241
852.00 62.88554
852.10 60.82708
852.20 59.36438
852.30 58.82706
852.40 59.36493
852.50 60.94977
852.60 63.39915
852.70 66.36414
852.80 69.38753
852.90 72.06128
853.00 74.13021
853.10 75.53372
853.20 76.37838
853.30 76.84789
853.40 77.10623
853.50 77.23794
853.60 77.30161
853.70 77.36815
853.80 77.49598
853.90 77.70569
854.00 77.96025
854.10 78.20552
854.20 78.42597
854.30 78.62652
854.40 78.83741
854.50 79.10031
854.60 79.48132
854.70 80.05744
854.80 80.84226
854.90 81.7686
855.00 82.70833
855.10 83.51749
855.20 84.08672
855.30 84.37607
855.40 84.41609
855.50 84.26574
855.60 83.96623
855.70 83.54351
855.80 83.02327
855.90 82.44841
856.00 81.82515
856.10 81.14412
856.20 80.47977
856.30 79.97454
856.40 79.7551
856.50 79.87226
856.60 80.289
856.70 80.88879
856.80 81.52743
856.90 82.06625
857.00 82.40643
857.10 82.50568
857.20 82.35877
857.30 81.99885
857.40 81.51957
857.50 81.04928
857.60 80.68333
857.70 80.46904
857.80 80.44757
857.90 80.66314
858.00 81.11708
858.10 81.76413
858.20 82.52509
858.30 83.31096
858.40 84.06545
858.50 84.75348
858.60 85.3308
858.70 85.7312
858.80 85.89955
858.90 85.80303
859.00 85.42947
859.10 84.8507
859.20 84.20926
859.30 83.64808
859.40 83.30912
859.50 83.29256
859.60 83.59046
859.70 84.11237
859.80 84.70945
859.90 85.20828
860.00 85.49048
860.10 85.52013
860.20 85.32613
860.30 84.99999
860.40 84.64649
860.50 84.2965
860.60 83.88566
860.70 83.29712
860.80 82.39987
860.90 81.10368
861.00 79.42383
861.10 77.4163
861.20 75.11996
861.30 72.60716
861.40 70.0094
861.50 67.51143
861.60 65.28399
861.70 63.4354
861.80 62.04001
861.90 61.13244
862.00 60.66964
862.10 60.53525
862.20 60.5767
862.30 60.64127
862.40 60.59901
862.50 60.39614
862.60 60.0754
862.70 59.72347
862.80 59.40286
862.90 59.11722
863.00 58.85794
863.10 58.64425
863.20 58.50709
863.30 58.45034
863.40 58.45249
863.50 58.50825
863.60 58.63391
863.70 58.84007
863.80 59.10981
863.90 59.42812
864.00 59.81215
864.10 60.26719
864.20 60.76766
864.30 61.28032
864.40 61.76035
864.50 62.20659
864.60 62.6609
864.70 63.15191
864.80 63.71637
864.90 64.39868
865.00 65.25261
865.10 66.29618
865.20 67.49021
865.30 68.77521
865.40 70.05286
865.50 71.21561
865.60 72.20573
865.70 73.02903
865.80 73.70837
865.90 74.17982
866.00 74.35226
866.10 74.22511
866.20 73.88279
866.30 73.43067
866.40 72.92519
866.50 72.42581
866.60 72.01788
866.70 71.72796
866.80 71.51111
866.90 71.32989
867.00 71.18032
867.10 71.02486
867.20 70.82451
867.30 70.63748
867.40 70.58432
867.50 70.74944
867.60 71.13131
867.70 71.6668
867.80 72.23714
867.90 72.65525
868.00 72.75325
868.10 72.4674
868.20 71.84969
868.30 71.04085
868.40 70.21307
868.50 69.52659
868.60 69.09797
868.70 68.92127
868.80 68.81931
868.90 68.54628
869.00 67.87764
869.10 66.62692
869.20 64.73662
869.30 62.33711
869.40 59.67125
869.50 57.06175
869.60 54.85639
869.70 53.26852
869.80 52.35073
869.90 52.08485
870.00 52.39591
870.10 53.13963
870.20 54.15963
870.30 55.28013
870.40 56.3271
870.50 57.19447
870.60 57.81445
870.70 58.12296
870.80 58.05866
870.90 57.58682
871.00 56.74609
871.10 55.68874
871.20 54.62483
871.30 53.72349
871.40 53.08038
871.50 52.72894
871.60 52.64098
871.70 52.74303
871.80 52.93539
871.90 53.12415
872.00 53.26652
872.10 53.383
872.20 53.58646
872.30 54.00706
872.40 54.72625
872.50 55.75437
872.60 57.01348
872.70 58.34209
872.80 59.52952
872.90 60.42458
873.00 60.96281
873.10 61.13821
873.20 60.97096
873.30 60.51354
873.40 59.87841
873.50 59.22313
873.60 58.70529
873.70 58.44051
873.80 58.48149
873.90 58.8554
874.00 59.56593
874.10 60.61398
874.20 61.97683
874.30 63.48876
874.40 64.87987
874.50 65.89624
874.60 66.38716
874.70 66.34638
874.80 65.89688
874.90 65.25043
875.00 64.64161
875.10 64.27499
875.20 64.28059
875.30 64.69924
875.40 65.5257
875.50 66.7128
875.60 68.19539
875.70 69.9215
875.80 71.79395
875.90 73.70459
876.00 75.51207
876.10 76.98046
876.20 77.85375
876.30 77.9983
876.40 77.44296
876.50 76.40223
876.60 75.26929
876.70 74.43875
876.80 74.19286
876.90 74.6431
877.00 75.76595
877.10 77.39517
877.20 79.28852
877.30 81.17943
877.40 82.83939
877.50 84.16841
877.60 85.06152
877.70 85.40508
877.80 85.2028
877.90 84.50691
878.00 83.34895
878.10 81.82551
878.20 80.13151
878.30 78.51181
878.40 77.10453
878.50 75.97295
878.60 75.19597
878.70 74.82707
878.80 74.91156
878.90 75.43381
879.00 76.34117
879.10 77.54028
879.20 78.85932
879.30 80.12331
879.40 81.19237
879.50 81.9611
879.60 82.30827
879.70 82.0961
879.80 81.25248
879.90 79.82082
880.00 77.94075
880.10 75.82902
880.20 73.68372
880.30 71.65476
880.40 69.92535
880.50 68.68538
880.60 68.10173
880.70 68.30839
880.80 69.33945
880.90 71.10573
881.00 73.46554
881.10 76.30376
881.20 79.51474
881.30 82.94743
881.40 86.3864
881.50 89.55929
881.60 92.20328
881.70 94.13073
881.80 95.19972
881.90 95.31227
882.00 94.41775
882.10 92.56961
882.20 90.08371
882.30 87.56818
882.40 85.67164
882.50 84.90425
882.60 85.60579
882.70 87.73633
882.80 90.82126
882.90 94.13407
883.00 96.90749
883.10 98.53077
883.20 98.82339
883.30 98.13976
883.40 97.09218
883.50 96.25766
883.60 96.04021
883.70 96.56777
883.80 97.7061
883.90 99.03855
884.00 99.92684
884.10 99.84923
884.20 98.53795
884.30 95.97028
884.40 92.42941
884.50 88.47166
884.60 84.70426
884.70 81.60602
884.80 79.60603
884.90 79.08588
885.00 80.17978
885.10 82.633
885.20 85.88738
885.30 89.24395
885.40 91.99658
885.50 93.60834
885.60 93.85631
885.70 92.85413
885.80 90.92027
885.90 88.4749
886.00 86.00681
886.10 83.96206
886.20 82.62193
886.30 82.0678
886.40 82.20288
886.50 82.83889
886.60 83.73791
886.70 84.57005
886.80 84.94127
886.90 84.52108
887.00 83.17061
887.10 81.01035
887.20 78.42575
887.30 75.98841
887.40 74.28097
887.50 73.72674
887.60 74.52081
887.70 76.5494
887.80 79.39937
887.90 82.51288
888.00 85.32719
888.10 87.46687
888.20 88.82708
888.30 89.61323
888.40 90.36043
888.50 91.60295
888.60 93.58374
888.70 96.18516
888.80 98.94486
888.90 101.233
889.00 102.4615
889.10 102.2256
889.20 100.3736
889.30 97.03863
889.40 92.67496
889.50 88.00233
889.60 83.87136
889.70 80.96461
889.80 79.59293
889.90 79.84787
890.00 81.66148
890.10 84.76812
890.20 88.73936
890.30 93.01752
890.40 96.90869
890.50 99.74322
890.60 101.104
890.70 100.8446
890.80 99.0999
890.90 96.30033
891.00 93.1155
891.10 90.29406
891.20 88.37885
891.30 87.58162
891.40 87.92469
891.50 89.34823
891.60 91.65983
891.70 94.55757
891.80 97.74303
891.90 100.9118
892.00 103.681
892.10 105.6316
892.20 106.4372
892.30 105.9626
892.40 104.2399
892.50 101.4796
892.60 98.18426
892.70 95.06783
892.80 92.79731
892.90 91.79532
893.00 92.20682
893.10 93.87453
893.20 96.32754
893.30 98.88494
893.40 100.8668
893.50 101.8073
893.60 101.482
893.70 99.86124
893.80 97.16523
893.90 93.80706
894.00 90.23402
894.10 86.8951
894.20 84.18719
894.30 82.40412
894.40 81.7124
894.50 82.05366
894.60 83.16355
894.70 84.68856
894.80 86.2354
894.90 87.44656
895.00 88.09996
895.10 88.24747
895.20 88.18937
895.30 88.41584
895.40 89.49289
895.50 91.71527
895.60 94.97941
895.70 98.89061
895.80 102.859
895.90 106.2262
896.00 108.3999
896.10 108.9857
896.20 107.9107
896.30 105.4327
896.40 102.0453
896.50 98.34226
896.60 94.96978
896.70 92.44494
896.80 90.98671
896.90 90.64795
897.00 91.36456
897.10 92.90236
897.20 94.91433
897.30 97.06702
897.40 99.10756
897.50 100.8479
897.60 102.1811
897.70 103.097
897.80 103.6758
897.90 104.0663
898.00 104.369
898.10 104.6678
898.20 105.1906
898.30 106.2365
898.40 107.9564
898.50 110.2565
898.60 112.8431
898.70 115.2959
898.80 117.1711
898.90 118.1678
899.00 118.1602
899.10 117.1507
899.20 115.2777
899.30 112.7336
899.40 109.8043
899.50 106.8872
899.60 104.2793
899.70 102.1878
899.80 100.9339
899.90 100.9459
900.00 101.5079
900.10 102.07
900.20 102.632
900.30 103.1941
900.40 103.7561
900.50 104.3182
900.60 104.8802
900.70 105.4423
900.80 106.0043
900.90 106.5664
901.00 107.1285
901.10 107.6905
901.20 108.2526
901.30 108.8146
901.40 109.3767
901.50 109.9387
901.60 110.5008
901.70 111.0628
901.80 111.6249
901.90 112.1869
902.00 112.749
902.10 113.311
902.20 113.8731
902.30 114.4351
902.40 114.9972
902.50 115.5592
902.60 116.1213
902.70 116.6834
902.80 117.2454
902.90 117.8075
903.00 118.3695
903.10 118.9316
903.20 119.044
903.30 119.1519
903.40 119.2599
903.50 119.3678
903.60 119.4757
903.70 119.5836
903.80 119.6915
903.90 119.7994
904.00 119.9074
904.10 120.0153
904.20 120.1232
904.30 120.2311
904.40 120.339
904.50 120.4469
904.60 120.5549
904.70 120.6628
904.80 120.7707
904.90 120.8786
905.00 120.9865
905.10 121.0944
905.20 121.2024
905.30 121.3103
905.40 121.4182
905.50 121.5261
905.60 121.634
905.70 121.7419
905.80 121.8499
905.90 121.9578
906.00 122.0657
906.10 122.1736
906.20 122.2815
906.30 122.3894
906.40 122.4974
906.50 122.6053
906.60 122.7571
906.70 122.9277
906.80 123.0983
906.90 123.269
907.00 123.4396
907.10 123.6102
907.20 123.7808
907.30 123.9515
907.40 124.1221
907.50 124.2927
907.60 124.4634
907.70 124.634
907.80 124.8046
907.90 124.9752
908.00 125.1459
908.10 125.3165
908.20 125.4871
908.30 125.6578
908.40 125.8284
908.50 125.999
908.60 126.1696
908.70 126.3403
908.80 126.5109
908.90 126.6815
909.00 126.8522
909.10 127.0228
909.20 127.1934
909.30 127.364
909.40 127.5347
909.50 127.7053
909.60 127.8759
909.70 128.0465
909.80 128.2172
909.90 128.3878
910.00 128.5432
910.10 128.6475
910.20 128.7519
910.30 128.8562
910.40 128.9605
910.50 129.0649
910.60 129.1692
910.70 129.2735
910.80 129.3779
910.90 129.4822
911.00 129.5865
911.10 129.6909
911.20 129.7952
911.30 129.8996
911.40 130.0039
911.50 130.1082
911.60 130.2126
911.70 130.3169
911.80 130.4212
911.90 130.5256
912.00 130.6299
912.10 130.7342
912.20 130.8386
912.30 130.9429
912.40 131.0472
912.50 131.1516
912.60 131.2559
912.70 131.3603
912.80 131.4646
912.90 131.5689
913.00 131.6733
913.10 131.7776
913.20 131.8819
913.30 131.9863
913.40 132.0906
913.50 132.2677
913.60 132.4997
913.70 132.7317
913.80 132.9637
913.90 133.1956
914.00 133.4276
914.10 133.6596
914.20 133.8916
914.30 134.1236
914.40 134.3556
914.50 134.5875
914.60 134.8195
914.70 135.0515
914.80 135.2835
914.90 135.5155
915.00 135.7475
915.10 135.9794
915.20 136.2114
915.30 136.4434
915.40 136.6754
915.50 136.9074
915.60 137.1394
915.70 137.3714
915.80 137.6033
915.90 137.8353
916.00 138.0673
916.10 138.2993
916.20 138.5313
916.30 138.7633
916.40 138.9952
916.50 139.2272
916.60 139.4592
916.70 139.6912
916.80 139.9232
916.90 140.1552
917.00 140.3059
917.10 140.4281
917.20 140.5502
917.30 140.6724
917.40 140.7946
917.50 140.9167
917.60 141.0389
917.70 141.1611
917.80 141.2832
917.90 141.4054
918.00 141.5276
918.10 141.6497
918.20 141.7719
918.30 141.8941
918.40 142.0163
918.50 142.1384
918.60 142.2606
918.70 142.3828
918.80 142.5049
918.90 142.6271
919.00 142.7493
919.10 142.8714
919.20 142.9936
919.30 143.1158
919.40 143.2379
919.50 143.3601
919.60 143.4823
919.70 143.6044
919.80 143.7266
919.90 143.8488
920.00 143.971
920.10 144.0931
920.20 144.2153
920.30 144.3375
920.40 144.4596
920.50 144.6126
920.60 144.7765
920.70 144.9403
920.80 145.1042
920.90 145.268
921.00 145.4319
921.10 145.5957
921.20 145.7596
921.30 145.9234
921.40 146.0873
921.50 146.2511
921.60 146.4149
921.70 146.5788
921.80 146.7426
921.90 146.9065
922.00 147.0703
922.10 147.2342
922.20 147.398
922.30 147.5619
922.40 147.7257
922.50 147.8896
922.60 148.0534
922.70 148.2173
922.80 148.3811
922.90 148.545
923.00 148.7088
923.10 148.8726
923.20 149.0365
923.30 149.2003
923.40 149.3642
923.50 149.528
923.60 149.6919
923.70 149.8557
923.80 150.0196
923.90 150.1834
924.00 150.1685
924.10 150.013
924.20 149.8576
924.30 149.7022
924.40 149.5467
924.50 149.3913
924.60 149.2359
924.70 149.0805
924.80 148.925
924.90 148.7696
925.00 148.6142
925.10 148.4587
925.20 148.3033
925.30 148.1479
925.40 147.9924
925.50 147.837
925.60 147.6816
925.70 147.5262
925.80 147.3707
925.90 147.2153
926.00 147.0599
926.10 146.9044
926.20 146.749
926.30 146.5936
926.40 146.4381
926.50 146.2827
926.60 146.1273
926.70 145.9719
926.80 145.8164
926.90 145.661
927.00 145.5056
927.10 145.3501
927.20 145.1947
927.30 145.0393
927.40 144.8838
927.50 144.7264
927.60 144.561
927.70 144.3956
927.80 144.2303
927.90 144.0649
928.00 143.8995
928.10 143.7341
928.20 143.5687
928.30 143.4033
928.40 143.2379
928.50 143.0726
928.60 142.9072
928.70 142.7418
928.80 142.5764
928.90 142.411
929.00 142.2456
929.10 142.0802
929.20 141.9149
929.30 141.7495
929.40 141.5841
929.50 141.4187
929.60 141.2533
929.70 141.0879
929.80 140.9225
929.90 140.7572
930.00 140.5918
930.10 140.4264
930.20 140.261
930.30 140.0956
930.40 139.9302
930.50 139.7648
930.60 139.5995
930.70 139.4341
930.80 139.2687
930.90 139.1033
931.00 138.9379
931.10 139.0959
931.20 139.4132
931.30 139.7304
931.40 140.0477
931.50 140.365
931.60 140.6822
931.70 140.9995
931.80 141.3168
931.90 141.634
932.00 141.9513
932.10 142.2686
932.20 142.5858
932.30 142.9031
932.40 143.2203
932.50 143.5376
932.60 143.8549
932.70 144.1721
932.80 144.4894
932.90 144.8067
933.00 145.1239
933.10 145.4412
933.20 145.7585
933.30 146.0757
933.40 146.393
933.50 146.7103
933.60 147.0275
933.70 147.3448
933.80 147.662
933.90 147.9793
934.00 148.2966
934.10 148.6138
934.20 148.9311
934.30 149.2484
934.40 149.5656
934.50 149.8829
934.60 150.2002
934.70 150.4337
934.80 150.6647
934.90 150.8957
935.00 151.1267
935.10 151.3576
935.20 151.5886
935.30 151.8196
935.40 152.0506
935.50 152.2816
935.60 152.5125
935.70 152.7435
935.80 152.9745
935.90 153.2055
936.00 153.4365
936.10 153.6674
936.20 153.8984
936.30 154.1294
936.40 154.3604
936.50 154.5913
936.60 154.8223
936.70 155.0533
936.80 155.2843
936.90 155.5153
937.00 155.7462
937.10 155.9772
937.20 156.2082
937.30 156.4392
937.40 156.6702
937.50 156.9011
937.60 157.1321
937.70 157.3631
937.80 157.5941
937.90 157.8251
938.00 158.056
938.10 158.287
938.20 158.4935
938.30 158.4801
938.40 158.4666
938.50 158.4531
938.60 158.4396
938.70 158.4261
938.80 158.4126
938.90 158.3991
939.00 158.3857
939.10 158.3722
939.20 158.3587
939.30 158.3452
939.40 158.3317
939.50 158.3182
939.60 158.3047
939.70 158.2913
939.80 158.2778
939.90 158.2643
940.00 158.2508
940.10 158.2373
940.20 158.2238
940.30 158.2103
940.40 158.1969
940.50 158.1834
940.60 158.1699
940.70 158.1564
940.80 158.1429
940.90 158.1294
941.00 158.1159
941.10 158.1025
941.20 158.089
941.30 158.0755
941.40 158.062
941.50 158.0485
941.60 158.035
941.70 158.0215
941.80 158.0162
941.90 158.1191
942.00 158.2221
942.10 158.325
942.20 158.4279
942.30 158.5309
942.40 158.6338
942.50 158.7367
942.60 158.8397
942.70 158.9426
942.80 159.0456
942.90 159.1485
943.00 159.2514
943.10 159.3544
943.20 159.4573
943.30 159.5602
943.40 159.6632
943.50 159.7661
943.60 159.869
943.70 159.972
943.80 160.0749
943.90 160.1778
944.00 160.2808
944.10 160.3837
944.20 160.4866
944.30 160.5896
944.40 160.6925
944.50 160.7954
944.60 160.8984
944.70 161.0013
944.80 161.1042
944.90 161.2072
945.00 161.3101
945.10 161.413
945.20 161.516
945.30 161.6189
945.40 161.7218
945.50 161.9029
945.60 162.0956
945.70 162.2883
945.80 162.481
945.90 162.6738
946.00 162.8665
946.10 163.0592
946.20 163.2519
946.30 163.4446
946.40 163.6373
946.50 163.83
946.60 164.0228
946.70 164.2155
946.80 164.4082
946.90 164.6009
947.00 164.7936
947.10 164.9863
947.20 165.1791
947.30 165.3718
947.40 165.5645
947.50 165.7572
947.60 165.9499
947.70 166.1426
947.80 166.3354
947.90 166.5281
948.00 166.7208
948.10 166.9135
948.20 167.1062
948.30 167.2989
948.40 167.4917
948.50 167.6844
948.60 167.8771
948.70 168.0698
948.80 168.2625
948.90 168.4552
949.00 168.648
949.10 168.8617
949.20 169.0966
949.30 169.3315
949.40 169.5664
949.50 169.8012
949.60 170.0361
949.70 170.271
949.80 170.5059
949.90 170.7407
950.00 170.9756
950.10 171.2105
950.20 171.4454
950.30 171.6802
950.40 171.9151
950.50 172.15
950.60 172.3849
950.70 172.6197
950.80 172.8546
950.90 173.0895
951.00 173.3244
951.10 173.5592
951.20 173.7941
951.30 174.029
951.40 174.2639
951.50 174.4987
951.60 174.7336
951.70 174.9685
951.80 175.2034
951.90 175.4382
952.00 175.6731
952.10 175.908
952.20 176.1429
952.30 176.3777
952.40 176.6126
952.50 176.8475
952.60 177.0824
952.70 177.3172
952.80 177.3512
952.90 177.3789
953.00 177.4066
953.10 177.4344
953.20 177.4621
953.30 177.4898
953.40 177.5175
953.50 177.5453
953.60 177.573
953.70 177.6007
953.80 177.6285
953.90 177.6562
954.00 177.6839
954.10 177.7116
954.20 177.7394
954.30 177.7671
954.40 177.7948
954.50 177.8225
954.60 177.8503
954.70 177.878
954.80 177.9057
954.90 177.9334
955.00 177.9612
955.10 177.9889
955.20 178.0166
955.30 178.0444
955.40 178.0721
955.50 178.0998
955.60 178.1275
955.70 178.1553
955.80 178.183
955.90 178.2107
956.00 178.2384
956.10 178.2662
956.20 178.2939
956.30 178.3216
956.40 178.3518
956.50 178.3881
956.60 178.4244
956.70 178.4608
956.80 178.4971
956.90 178.5334
957.00 178.5697
957.10 178.6061
957.20 178.6424
957.30 178.6787
957.40 178.7151
957.50 178.7514
957.60 178.7877
957.70 178.824
957.80 178.8604
957.90 178.8967
958.00 178.933
958.10 178.9694
958.20 179.0057
958.30 179.042
958.40 179.0783
958.50 179.1147
958.60 179.151
958.70 179.1873
958.80 179.2237
958.90 179.26
959.00 179.2963
959.10 179.3327
959.20 179.369
959.30 179.4053
959.40 179.4416
959.50 179.478
959.60 179.5143
959.70 179.5506
959.80 179.587
959.90 179.6233
960.00 179.6596
960.10 179.6378
960.20 179.539
960.30 179.4402
960.40 179.3413
960.50 179.2425
960.60 179.1437
960.70 179.0449
960.80 178.946
960.90 178.8472
961.00 178.7484
961.10 178.6495
961.20 178.5507
961.30 178.4519
961.40 178.3531
961.50 178.2542
961.60 178.1554
961.70 178.0566
961.80 177.9578
961.90 177.8589
962.00 177.7601
962.10 177.6613
962.20 177.5624
962.30 177.4636
962.40 177.3648
962.50 177.266
962.60 177.1671
962.70 177.0683
962.80 176.9695
962.90 176.8706
963.00 176.7718
963.10 176.673
963.20 176.5742
963.30 176.4753
963.40 176.3765
963.50 176.2777
963.60 176.1789
963.70 176.08
963.80 176.1106
963.90 176.32
964.00 176.5294
964.10 176.7388
964.20 176.9481
964.30 177.1575
964.40 177.3669
964.50 177.5763
964.60 177.7857
964.70 177.995
964.80 178.2044
964.90 178.4138
965.00 178.6232
965.10 178.8325
965.20 179.0419
965.30 179.2513
965.40 179.4607
965.50 179.6701
965.60 179.8794
965.70 180.0888
965.80 180.2982
965.90 180.5076
966.00 180.7169
966.10 180.9263
966.20 181.1357
966.30 181.3451
966.40 181.5544
966.50 181.7638
966.60 181.9732
966.70 182.1826
966.80 182.392
966.90 182.6013
967.00 182.8107
967.10 183.0201
967.20 183.2295
967.30 183.4388
967.40 183.6482
967.50 183.8173
967.60 183.8719
967.70 183.9265
967.80 183.9811
967.90 184.0357
968.00 184.0903
968.10 184.1448
968.20 184.1994
968.30 184.254
968.40 184.3086
968.50 184.3632
968.60 184.4178
968.70 184.4723
968.80 184.5269
968.90 184.5815
969.00 184.6361
969.10 184.6907
969.20 184.7452
969.30 184.7998
969.40 184.8544
969.50 184.909
969.60 184.9636
969.70 185.0182
969.80 185.0727
969.90 185.1273
970.00 185.1819
970.10 185.2365
970.20 185.2911
970.30 185.3456
970.40 185.4002
970.50 185.4548
970.60 185.5094
970.70 185.564
970.80 185.6186
970.90 185.6731
971.00 185.7277
971.10 185.7823
971.20 185.8369
971.30 186.0122
971.40 186.1952
971.50 186.3783
971.60 186.5613
971.70 186.7443
971.80 186.9274
971.90 187.1104
972.00 187.2934
972.10 187.4764
972.20 187.6595
972.30 187.8425
972.40 188.0255
972.50 188.2086
972.60 188.3916
972.70 188.5746
972.80 188.7576
972.90 188.9407
973.00 189.1237
973.10 189.3067
973.20 189.4898
973.30 189.6728
973.40 189.8558
973.50 190.0389
973.60 190.2219
973.70 190.4049
973.80 190.5879
973.90 190.771
974.00 190.954
974.10 191.137
974.20 191.3201
974.30 191.5031
974.40 191.6861
974.50 191.8691
974.60 192.0522
974.70 192.2352
974.80 192.4182
974.90 192.6013
975.00 192.8485
975.10 193.1682
975.20 193.4878
975.30 193.8075
975.40 194.1271
975.50 194.4468
975.60 194.7665
975.70 195.0861
975.80 195.4058
975.90 195.7254
976.00 196.0451
976.10 196.3647
976.20 196.6844
976.30 197.0041
976.40 197.3237
976.50 197.6434
976.60 197.963
976.70 198.2827
976.80 198.6023
976.90 198.922
977.00 199.2417
977.10 199.5613
977.20 199.881
977.30 200.2006
977.40 200.5203
977.50 200.8399
977.60 201.1596
977.70 201.4793
977.80 201.7989
977.90 202.1186
978.00 202.4382
978.10 202.7579
978.20 203.0775
978.30 203.3972
978.40 203.7169
978.50 204.0365
978.60 204.3562
978.70 204.6758
978.80 204.6713
978.90 204.6095
979.00 204.5478
979.10 204.486
979.20 204.4243
979.30 204.3625
979.40 204.3008
979.50 204.239
979.60 204.1773
979.70 204.1155
979.80 204.0538
979.90 203.992
980.00 203.9303
980.10 203.8685
980.20 203.8068
980.30 203.745
980.40 203.6833
980.50 203.6215
980.60 203.5598
980.70 203.498
980.80 203.4363
980.90 203.3745
981.00 203.3127
981.10 203.251
981.20 203.1892
981.30 203.1275
981.40 203.0657
981.50 203.004
981.60 202.9422
981.70 202.8805
981.80 202.8187
981.90 202.757
982.00 202.6952
982.10 202.6335
982.20 202.5717
982.30 202.51
982.40 202.4482
982.50 202.3596
982.60 201.9615
982.70 201.5635
982.80 201.1655
982.90 200.7675
983.00 200.3695
983.10 199.9714
983.20 199.5734
983.30 199.1754
983.40 198.7774
983.50 198.3793
983.60 197.9813
983.70 197.5833
983.80 197.1853
983.90 196.7873
984.00 196.3892
984.10 195.9912
984.20 195.5932
984.30 195.1952
984.40 194.7971
984.50 194.3991
984.60 194.0011
984.70 193.6031
984.80 193.2051
984.90 192.807
985.00 192.409
985.10 192.011
985.20 191.613
985.30 191.215
985.40 190.8169
985.50 190.4189
985.60 190.0209
985.70 189.6229
985.80 189.2248
985.90 188.8268
986.00 188.4288
986.10 188.0308
986.20 187.6328
986.30 187.2202
986.40 186.7313
986.50 186.2423
986.60 185.7534
986.70 185.2645
986.80 184.7755
986.90 184.2866
987.00 183.7977
987.10 183.3088
987.20 182.8198
987.30 182.3309
987.40 181.842
987.50 181.353
987.60 180.8641
987.70 180.3752
987.80 179.8863
987.90 179.3973
988.00 178.9084
988.10 178.4195
988.20 177.9305
988.30 177.4416
988.40 176.9527
988.50 176.4638
988.60 175.9748
988.70 175.4859
988.80 174.997
988.90 174.508
989.00 174.0191
989.10 173.5302
989.20 173.0413
989.30 172.5523
989.40 172.0634
989.50 171.5745
989.60 171.0855
989.70 170.5966
989.80 170.1077
989.90 169.6188
990.00 169.1298
990.10 168.648
990.20 168.2305
990.30 167.813
990.40 167.3955
990.50 166.9779
990.60 166.5604
990.70 166.1429
990.80 165.7254
990.90 165.3078
991.00 164.8903
991.10 164.4728
991.20 164.0553
991.30 163.6377
991.40 163.2202
991.50 162.8027
991.60 162.3852
991.70 161.9676
991.80 161.5501
991.90 161.1326
992.00 160.7151
992.10 160.2975
992.20 159.88
992.30 159.4625
992.40 159.045
992.50 158.6275
992.60 158.2099
992.70 157.7924
992.80 157.3749
992.90 156.9574
993.00 156.5398
993.10 156.1223
993.20 155.7048
993.30 155.2873
993.40 154.8697
993.50 154.4522
993.60 154.0347
993.70 153.6172
993.80 153.1996
993.90 152.7821
994.00 152.4886
994.10 152.209
994.20 151.9293
994.30 151.6496
994.40 151.3699
994.50 151.0902
994.60 150.8106
994.70 150.5309
994.80 150.2512
994.90 149.9715
995.00 149.6918
995.10 149.4122
995.20 149.1325
995.30 148.8528
995.40 148.5731
995.50 148.2934
995.60 148.0138
995.70 147.7341
995.80 147.4544
995.90 147.1747
996.00 146.895
996.10 146.6154
996.20 146.3357
996.30 146.056
996.40 145.7763
996.50 145.4966
996.60 145.217
996.70 144.9373
996.80 144.6576
996.90 144.3779
997.00 144.0982
997.10 143.8186
997.20 143.5389
997.30 143.2592
997.40 142.9795
997.50 142.6999
997.60 142.4202
997.70 142.1405
997.80 142.1179
997.90 142.3057
998.00 142.4935
998.10 142.6813
998.20 142.8691
998.30 143.0568
998.40 143.2446
998.50 143.4324
998.60 143.6202
998.70 143.808
998.80 143.9958
998.90 144.1835
999.00 144.3713
999.10 144.5591
999.20 144.7469
999.30 144.9347
999.40 145.1225
999.50 145.3102
999.60 145.498
999.70 145.6858
999.80 145.8736
999.90 146.0614
1000.00 146.2492
1000.10 146.4369
1000.20 146.6247
1000.30 146.8125
1000.40 147.0003
1000.50 147.1881
1000.60 147.3759
1000.70 147.5636
1000.80 147.7514
1000.90 147.9392
1001.00 148.127
1001.10 148.3148
1001.20 148.5026
1001.30 148.6903
1001.40 148.8781
1001.50 149.0659
1001.60 149.2539
1001.70 149.4437
1001.80 149.6334
1001.90 149.8232
1002.00 150.013
1002.10 150.2028
1002.20 150.3925
1002.30 150.5823
1002.40 150.7721
1002.50 150.9619
1002.60 151.1516
1002.70 151.3414
1002.80 151.5312
1002.90 151.721
1003.00 151.9107
1003.10 152.1005
1003.20 152.2903
1003.30 152.4801
1003.40 152.6698
1003.50 152.8596
1003.60 153.0494
1003.70 153.2392
1003.80 153.4289
1003.90 153.6187
1004.00 153.8085
1004.10 153.9983
1004.20 154.188
1004.30 154.3778
1004.40 154.5676
1004.50 154.7574
1004.60 154.9471
1004.70 155.1369
1004.80 155.3267
1004.90 155.5165
1005.00 155.7062
1005.10 155.896
1005.20 156.0858
1005.30 156.2756
1005.40 156.4653
1005.50 156.7216
1005.60 157.0776
1005.70 157.4336
1005.80 157.7896
1005.90 158.1456
1006.00 158.5016
1006.10 158.8576
1006.20 159.2136
1006.30 159.5696
1006.40 159.9256
1006.50 160.2816
1006.60 160.6376
1006.70 160.9936
1006.80 161.3495
1006.90 161.7055
1007.00 162.0615
1007.10 162.4175
1007.20 162.7735
1007.30 163.1295
1007.40 163.4855
1007.50 163.8415
1007.60 164.1975
1007.70 164.5535
1007.80 164.9095
1007.90 165.2655
1008.00 165.6215
1008.10 165.9775
1008.20 166.3335
1008.30 166.6895
1008.40 167.0455
1008.50 167.4015
1008.60 167.7575
1008.70 168.1135
1008.80 168.4695
1008.90 168.8255
1009.00 169.1815
1009.10 169.5374
1009.20 169.8934
1009.30 170.2494
1009.40 170.4626
1009.50 170.6145
1009.60 170.7663
1009.70 170.9182
1009.80 171.0701
1009.90 171.222
1010.00 171.3739
1010.10 171.5258
1010.20 171.6777
1010.30 171.8296
1010.40 171.9815
1010.50 172.1333
1010.60 172.2852
1010.70 172.4371
1010.80 172.589
1010.90 172.7409
1011.00 172.8928
1011.10 173.0447
1011.20 173.1966
1011.30 173.3485
1011.40 173.5004
1011.50 173.6522
1011.60 173.8041
1011.70 173.956
1011.80 174.1079
1011.90 174.2598
1012.00 174.4117
1012.10 174.5636
1012.20 174.7155
1012.30 174.8674
1012.40 175.0193
1012.50 175.1711
1012.60 175.323
1012.70 175.4749
1012.80 175.6268
1012.90 175.7787
1013.00 175.9306
1013.10 176.0825
1013.20 176.2344
1013.30 176.2579
1013.40 176.2493
1013.50 176.2407
1013.60 176.2321
1013.70 176.2235
1013.80 176.2149
1013.90 176.2064
1014.00 176.1978
1014.10 176.1892
1014.20 176.1806
1014.30 176.172
1014.40 176.1634
1014.50 176.1548
1014.60 176.1462
1014.70 176.1377
1014.80 176.1291
1014.90 176.1205
1015.00 176.1119
1015.10 176.1033
1015.20 176.0947
1015.30 176.0861
1015.40 176.0775
1015.50 176.069
1015.60 176.0604
1015.70 176.0518
1015.80 176.0432
1015.90 176.0346
1016.00 176.026
1016.10 176.0174
1016.20 176.0088
1016.30 176.0003
1016.40 175.9917
1016.50 175.9831
1016.60 175.9745
1016.70 175.9659
1016.80 175.9573
1016.90 175.9487
1017.00 175.9401
1017.10 175.9316
1017.20 176.0492
1017.30 176.1985
1017.40 176.3478
1017.50 176.497
1017.60 176.6463
1017.70 176.7955
1017.80 176.9448
1017.90 177.0941
1018.00 177.2433
1018.10 177.3926
1018.20 177.5418
1018.30 177.6911
1018.40 177.8404
1018.50 177.9896
1018.60 178.1389
1018.70 178.2881
1018.80 178.4374
1018.90 178.5867
1019.00 178.7359
1019.10 178.8852
1019.20 179.0344
1019.30 179.1837
1019.40 179.333
1019.50 179.4822
1019.60 179.6315
1019.70 179.7807
1019.80 179.93
1019.90 180.0793
1020.00 180.2285
1020.10 180.3778
1020.20 180.527
1020.30 180.6763
1020.40 180.8256
1020.50 180.9748
1020.60 181.1241
1020.70 181.2733
1020.80 181.4226
1020.90 181.5719
1021.00 181.7211
1021.10 181.7845
1021.20 181.7906
1021.30 181.7967
1021.40 181.8028
1021.50 181.8089
1021.60 181.815
1021.70 181.8211
1021.80 181.8272
1021.90 181.8333
1022.00 181.8394
1022.10 181.8456
1022.20 181.8517
1022.30 181.8578
1022.40 181.8639
1022.50 181.87
1022.60 181.8761
1022.70 181.8822
1022.80 181.8883
1022.90 181.8944
1023.00 181.9005
1023.10 181.9066
1023.20 181.9127
1023.30 181.9188
1023.40 181.9249
1023.50 181.931
1023.60 181.9371
1023.70 181.9432
1023.80 181.9494
1023.90 181.9555
1024.00 181.9616
1024.10 181.9677
1024.20 181.9738
1024.30 181.9799
1024.40 181.986
1024.50 181.9921
1024.60 181.9982
1024.70 182.0043
1024.80 182.0104
1024.90 182.0165
1025.00 182.0224
1025.10 182.0279
1025.20 182.0333
1025.30 182.0388
1025.40 182.0443
1025.50 182.0498
1025.60 182.0553
1025.70 182.0607
1025.80 182.0662
1025.90 182.0717
1026.00 182.0772
1026.10 182.0827
1026.20 182.0882
1026.30 182.0936
1026.40 182.0991
1026.50 182.1046
1026.60 182.1101
1026.70 182.1156
1026.80 182.121
1026.90 182.1265
1027.00 182.132
1027.10 182.1375
1027.20 182.143
1027.30 182.1485
1027.40 182.1539
1027.50 182.1594
1027.60 182.1649
1027.70 182.1704
1027.80 182.1759
1027.90 182.1813
1028.00 182.1868
1028.10 182.1923
1028.20 182.1978
1028.30 182.2033
1028.40 182.2088
1028.50 182.2142
1028.60 182.2197
1028.70 182.2252
1028.80 182.2307
1028.90 182.2362
1029.00 182.5545
1029.10 182.8728
1029.20 183.1911
1029.30 183.5093
1029.40 183.8276
1029.50 184.1459
1029.60 184.4642
1029.70 184.7825
1029.80 185.1008
1029.90 185.4191
1030.00 185.7374
1030.10 186.0557
1030.20 186.374
1030.30 186.6923
1030.40 187.0106
1030.50 187.3289
1030.60 187.6472
1030.70 187.9655
1030.80 188.2838
1030.90 188.6021
1031.00 188.9204
1031.10 189.2387
1031.20 189.557
1031.30 189.8753
1031.40 190.1936
1031.50 190.5119
1031.60 190.8302
1031.70 191.1485
1031.80 191.4668
1031.90 191.7851
1032.00 192.1034
1032.10 192.4217
1032.20 192.74
1032.30 193.0583
1032.40 193.3766
1032.50 193.6948
1032.60 194.0131
1032.70 194.3314
1032.80 194.6497
1032.90 194.904
1033.00 195.0623
1033.10 195.2205
1033.20 195.3788
1033.30 195.537
1033.40 195.6953
1033.50 195.8535
1033.60 196.0118
1033.70 196.17
1033.80 196.3283
1033.90 196.4865
1034.00 196.6448
1034.10 196.803
1034.20 196.9613
1034.30 197.1195
1034.40 197.2778
1034.50 197.4361
1034.60 197.5943
1034.70 197.7526
1034.80 197.9108
1034.90 198.0691
1035.00 198.2273
1035.10 198.3856
1035.20 198.5438
1035.30 198.7021
1035.40 198.8603
1035.50 199.0186
1035.60 199.1768
1035.70 199.3351
1035.80 199.4933
1035.90 199.6516
1036.00 199.8098
1036.10 199.9681
1036.20 200.1263
1036.30 200.2846
1036.40 200.4428
1036.50 200.6011
1036.60 200.7593
1036.70 200.9176
1036.80 201.0758
1036.90 201.1838
1037.00 201.2791
1037.10 201.3745
1037.20 201.4698
1037.30 201.5652
1037.40 201.6606
1037.50 201.7559
1037.60 201.8513
1037.70 201.9466
1037.80 202.042
1037.90 202.1373
1038.00 202.2327
1038.10 202.328
1038.20 202.4234
1038.30 202.5187
1038.40 202.6141
1038.50 202.7095
1038.60 202.8048
1038.70 202.9002
1038.80 202.9955
1038.90 203.0909
1039.00 203.1862
1039.10 203.2816
1039.20 203.3769
1039.30 203.4723
1039.40 203.5676
1039.50 203.663
1039.60 203.7584
1039.70 203.8537
1039.80 203.9491
1039.90 204.0444
1040.00 204.1398
1040.10 204.2351
1040.20 204.3305
1040.30 204.4258
1040.40 204.5212
1040.50 204.6166
1040.60 204.7119
1040.70 204.8073
1040.80 204.9026
1040.90 204.98
1041.00 205.0575
1041.10 205.1349
1041.20 205.2123
1041.30 205.2897
1041.40 205.3671
1041.50 205.4446
1041.60 205.522
1041.70 205.5994
1041.80 205.6768
1041.90 205.7542
1042.00 205.8317
1042.10 205.9091
1042.20 205.9865
1042.30 206.0639
1042.40 206.1413
1042.50 206.2188
1042.60 206.2962
1042.70 206.3736
1042.80 206.451
1042.90 206.5284
1043.00 206.6059
1043.10 206.6833
1043.20 206.7607
1043.30 206.8381
1043.40 206.9155
1043.50 206.993
1043.60 207.0704
1043.70 207.1478
1043.80 207.2252
1043.90 207.3026
1044.00 207.3801
1044.10 207.4575
1044.20 207.5349
1044.30 207.6123
1044.40 207.6897
1044.50 207.7672
1044.60 207.8446
1044.70 207.922
1044.80 208.0041
1044.90 208.1286
1045.00 208.253
1045.10 208.3774
1045.20 208.5019
1045.30 208.6263
1045.40 208.7508
1045.50 208.8752
1045.60 208.9997
1045.70 209.1241
1045.80 209.2486
1045.90 209.373
1046.00 209.4974
1046.10 209.6219
1046.20 209.7463
1046.30 209.8708
1046.40 209.9952
1046.50 210.1197
1046.60 210.2441
1046.70 210.3686
1046.80 210.493
1046.90 210.6174
1047.00 210.7419
1047.10 210.8663
1047.20 210.9908
1047.30 211.1152
1047.40 211.2397
1047.50 211.3641
1047.60 211.4886
1047.70 211.613
1047.80 211.7374
1047.90 211.8619
1048.00 211.9863
1048.10 212.1108
1048.20 212.2352
1048.30 212.3597
1048.40 212.4841
1048.50 212.6086
1048.60 212.733
1048.70 212.8574
1048.80 212.966
1048.90 212.9313
1049.00 212.8967
1049.10 212.862
1049.20 212.8273
1049.30 212.7927
1049.40 212.758
1049.50 212.7233
1049.60 212.6887
1049.70 212.654
1049.80 212.6194
1049.90 212.5847
1050.00 212.55
1050.10 212.5154
1050.20 212.4807
1050.30 212.446
1050.40 212.4114
1050.50 212.3767
1050.60 212.3421
1050.70 212.3074
1050.80 212.2727
1050.90 212.2381
1051.00 212.2034
1051.10 212.1687
1051.20 212.1341
1051.30 212.0994
1051.40 212.0648
1051.50 212.0301
1051.60 211.9954
1051.70 211.9608
1051.80 211.9261
1051.90 211.8915
1052.00 211.8568
1052.10 211.8221
1052.20 211.7875
1052.30 211.7528
1052.40 211.7181
1052.50 211.6835
1052.60 211.6488
1052.70 211.6142
1052.80 211.5795
1052.90 211.4621
1053.00 211.3447
1053.10 211.2273
1053.20 211.1099
1053.30 210.9925
1053.40 210.8751
1053.50 210.7577
1053.60 210.6403
1053.70 210.5229
1053.80 210.4055
1053.90 210.2881
1054.00 210.1707
1054.10 210.0533
1054.20 209.9359
1054.30 209.8185
1054.40 209.7011
1054.50 209.5837
1054.60 209.4663
1054.70 209.3489
1054.80 209.2315
1054.90 209.1141
1055.00 208.9966
1055.10 208.8792
1055.20 208.7618
1055.30 208.6444
1055.40 208.527
1055.50 208.4096
1055.60 208.2922
1055.70 208.1748
1055.80 208.0574
1055.90 207.94
1056.00 207.8226
1056.10 207.7052
1056.20 207.5878
1056.30 207.4704
1056.40 207.353
1056.50 207.2356
1056.60 207.1182
1056.70 207.0008
1056.80 206.8834
1056.90 206.8841
1057.00 206.9144
1057.10 206.9446
1057.20 206.9748
1057.30 207.0051
1057.40 207.0353
1057.50 207.0656
1057.60 207.0958
1057.70 207.126
1057.80 207.1563
1057.90 207.1865
1058.00 207.2167
1058.10 207.247
1058.20 207.2772
1058.30 207.3075
1058.40 207.3377
1058.50 207.3679
1058.60 207.3982
1058.70 207.4284
1058.80 207.4587
1058.90 207.4889
1059.00 207.5191
1059.10 207.5494
1059.20 207.5796
1059.30 207.6098
1059.40 207.6401
1059.50 207.6703
1059.60 207.7006
1059.70 207.7308
1059.80 207.761
1059.90 207.7913
1060.00 207.8215
1060.10 207.8518
1060.20 207.882
1060.30 207.9122
1060.40 207.9425
1060.50 207.9727
1060.60 208.0029
1060.70 208.0332
1060.80 208.0634
1060.90 208.1822
1061.00 208.3896
1061.10 208.5969
1061.20 208.8043
1061.30 209.0116
1061.40 209.2189
1061.50 209.4263
1061.60 209.6336
1061.70 209.841
1061.80 210.0483
1061.90 210.2557
1062.00 210.463
1062.10 210.6704
1062.20 210.8777
1062.30 211.0851
1062.40 211.2924
1062.50 211.4998
1062.60 211.7071
1062.70 211.9145
1062.80 212.1218
1062.90 212.3292
1063.00 212.5365
1063.10 212.7438
1063.20 212.9512
1063.30 213.1585
1063.40 213.3659
1063.50 213.5732
1063.60 213.7806
1063.70 213.9879
1063.80 214.1953
1063.90 214.4026
1064.00 214.61
1064.10 214.8173
1064.20 215.0247
1064.30 215.232
1064.40 215.4394
1064.50 215.6467
1064.60 215.854
1064.70 216.0614
1064.80 216.2687
1064.90 216.4761
1065.00 216.6773
1065.10 216.8786
1065.20 217.0798
1065.30 217.2811
1065.40 217.4823
1065.50 217.6836
1065.60 217.8849
1065.70 218.0861
1065.80 218.2874
1065.90 218.4886
1066.00 218.6899
1066.10 218.8911
1066.20 219.0924
1066.30 219.2936
1066.40 219.4949
1066.50 219.6961
1066.60 219.8974
1066.70 220.0986
1066.80 220.2999
1066.90 220.5011
1067.00 220.7024
1067.10 220.9036
1067.20 221.1049
1067.30 221.3061
1067.40 221.5074
1067.50 221.7086
1067.60 221.9099
1067.70 222.1111
1067.80 222.3124
1067.90 222.5136
1068.00 222.7149
1068.10 222.9162
1068.20 223.1174
1068.30 223.3187
1068.40 223.5199
1068.50 223.7212
1068.60 223.9224
1068.70 224.1237
1068.80 224.3249
1068.90 224.5262
1069.00 224.7377
1069.10 224.9594
1069.20 225.1811
1069.30 225.4028
1069.40 225.6245
1069.50 225.8462
1069.60 226.0679
1069.70 226.2896
1069.80 226.5113
1069.90 226.733
1070.00 226.9548
1070.10 227.1765
1070.20 227.3982
1070.30 227.6199
1070.40 227.8416
1070.50 228.0633
1070.60 228.285
1070.70 228.5067
1070.80 228.7284
1070.90 228.9502
1071.00 229.1719
1071.10 229.3936
1071.20 229.6153
1071.30 229.837
1071.40 230.0587
1071.50 230.2804
1071.60 230.5021
1071.70 230.7238
1071.80 230.9456
1071.90 231.1673
1072.00 231.389
1072.10 231.6107
1072.20 231.8324
1072.30 232.0541
1072.40 232.2758
1072.50 232.4975
1072.60 232.7192
1072.70 232.941
1072.80 233.1627
1072.90 233.3844
1073.00 233.6061
1073.10 233.8004
1073.20 233.9916
1073.30 234.1828
1073.40 234.374
1073.50 234.5653
1073.60 234.7565
1073.70 234.9477
1073.80 235.1389
1073.90 235.3302
1074.00 235.5214
1074.10 235.7126
1074.20 235.9038
1074.30 236.0951
1074.40 236.2863
1074.50 236.4775
1074.60 236.6687
1074.70 236.86
1074.80 237.0512
1074.90 237.2424
1075.00 237.4337
1075.10 237.6249
1075.20 237.8161
1075.30 238.0073
1075.40 238.1986
1075.50 238.3898
1075.60 238.581
1075.70 238.7722
1075.80 238.9635
1075.90 239.1547
1076.00 239.3459
1076.10 239.5371
1076.20 239.7284
1076.30 239.9196
1076.40 240.1108
1076.50 240.302
1076.60 240.4933
1076.70 240.6845
1076.80 240.8757
1076.90 241.0669
1077.00 241.2582
1077.10 241.4414
1077.20 241.5525
1077.30 241.6636
1077.40 241.7748
1077.50 241.8859
1077.60 241.997
1077.70 242.1081
1077.80 242.2193
1077.90 242.3304
1078.00 242.4415
1078.10 242.5526
1078.20 242.6637
1078.30 242.7749
1078.40 242.886
1078.50 242.9971
1078.60 243.1082
1078.70 243.2194
1078.80 243.3305
1078.90 243.4416
1079.00 243.5527
1079.10 243.6639
1079.20 243.775
1079.30 243.8861
1079.40 243.9972
1079.50 244.1083
1079.60 244.2195
1079.70 244.3306
1079.80 244.4417
1079.90 244.5528
1080.00 244.664
1080.10 244.7751
1080.20 244.8862
1080.30 244.9973
1080.40 245.1085
1080.50 245.2196
1080.60 245.3307
1080.70 245.4418
1080.80 245.5529
1080.90 245.6641
1081.00 245.7752
1081.10 245.8863
1081.20 246.1104
1081.30 246.598
1081.40 247.0856
1081.50 247.5733
1081.60 248.0609
1081.70 248.5485
1081.80 249.0361
1081.90 249.5238
1082.00 250.0114
1082.10 250.499
1082.20 250.9866
1082.30 251.4743
1082.40 251.9619
1082.50 252.4495
1082.60 252.9371
1082.70 253.4248
1082.80 253.9124
1082.90 254.4
1083.00 254.8876
1083.10 255.3752
1083.20 255.8629
1083.30 256.3505
1083.40 256.8381
1083.50 257.3257
1083.60 257.8134
1083.70 258.301
1083.80 258.7886
1083.90 259.2762
1084.00 259.7639
1084.10 260.2515
1084.20 260.7391
1084.30 261.2267
1084.40 261.7144
1084.50 262.202
1084.60 262.6896
1084.70 263.1772
1084.80 263.6649
1084.90 264.1525
1085.00 264.6401
1085.10 265.1277
1085.20 265.6154
1085.30 265.9745
1085.40 266.034
1085.50 266.0934
1085.60 266.1529
1085.70 266.2123
1085.80 266.2717
1085.90 266.3312
1086.00 266.3906
1086.10 266.4501
1086.20 266.5095
1086.30 266.569
1086.40 266.6284
1086.50 266.6879
1086.60 266.7473
1086.70 266.8067
1086.80 266.8662
1086.90 266.9256
1087.00 266.9851
1087.10 267.0445
1087.20 267.104
1087.30 267.1634
1087.40 267.2229
1087.50 267.2823
1087.60 267.3417
1087.70 267.4012
1087.80 267.4606
1087.90 267.5201
1088.00 267.5795
1088.10 267.639
1088.20 267.6984
1088.30 267.7579
1088.40 267.8173
1088.50 267.8767
1088.60 267.9362
1088.70 267.9956
1088.80 268.0551
1088.90 268.1145
1089.00 268.174
1089.10 268.2334
1089.20 268.2929
1089.30 268.3523
1089.40 268.4279
1089.50 268.5413
1089.60 268.6546
1089.70 268.768
1089.80 268.8813
1089.90 268.9947
1090.00 269.108
1090.10 269.2214
1090.20 269.3347
1090.30 269.4481
1090.40 269.5614
1090.50 269.6748
1090.60 269.7881
1090.70 269.9015
1090.80 270.0148
1090.90 270.1282
1091.00 270.2415
1091.10 270.3549
1091.20 270.4682
1091.30 270.5816
1091.40 270.6949
1091.50 270.8083
1091.60 270.9216
1091.70 271.035
1091.80 271.1483
1091.90 271.2617
1092.00 271.3751
1092.10 271.4884
1092.20 271.6018
1092.30 271.7151
1092.40 271.8285
1092.50 271.9418
1092.60 272.0552
1092.70 272.1685
1092.80 272.2819
1092.90 272.3952
1093.00 272.5086
1093.10 272.6219
1093.20 272.7353
1093.30 272.8486
1093.40 272.962
1093.50 273.0665
1093.60 273.1358
1093.70 273.205
1093.80 273.2743
1093.90 273.3436
1094.00 273.4128
1094.10 273.4821
1094.20 273.5513
1094.30 273.6206
1094.40 273.6899
1094.50 273.7591
1094.60 273.8284
1094.70 273.8977
1094.80 273.9669
1094.90 274.0362
1095.00 274.1054
1095.10 274.1747
1095.20 274.244
1095.30 274.3132
1095.40 274.3825
1095.50 274.4517
1095.60 274.521
1095.70 274.5903
1095.80 274.6595
1095.90 274.7288
1096.00 274.7981
1096.10 274.8673
1096.20 274.9366
1096.30 275.0058
1096.40 275.0751
1096.50 275.1444
1096.60 275.2136
1096.70 275.2829
1096.80 275.3522
1096.90 275.4214
1097.00 275.4907
1097.10 275.5599
1097.20 275.6292
1097.30 275.6985
1097.40 275.7677
1097.50 275.837
1097.60 275.9063
1097.70 276.0087
1097.80 276.1112
1097.90 276.2137
1098.00 276.3161
1098.10 276.4186
1098.20 276.5211
1098.30 276.6235
1098.40 276.726
1098.50 276.8285
1098.60 276.9309
1098.70 277.0334
1098.80 277.1359
1098.90 277.2383
1099.00 277.3408
1099.10 277.4433
1099.20 277.5457
1099.30 277.6482
1099.40 277.7507
1099.50 277.8531
1099.60 277.9556
1099.70 278.0581
1099.80 278.1605
1099.90 278.263
1100.00 278.3655
1100.10 278.4679
1100.20 278.5704
1100.30 278.6729
1100.40 278.7753
1100.50 278.8778
1100.60 278.9803
1100.70 279.0827
1100.80 279.1852
1100.90 279.2877
1101.00 279.3901
1101.10 279.4926
1101.20 279.5951
1101.30 279.6975
1101.40 279.8
1101.50 279.9025
1101.60 280.0049
1101.70 280.1074
1101.80 280.0002
1101.90 279.8032
1102.00 279.6062
1102.10 279.4092
1102.20 279.2122
1102.30 279.0151
1102.40 278.8181
1102.50 278.6211
1102.60 278.4241
1102.70 278.2271
1102.80 278.0301
1102.90 277.8331
1103.00 277.636
1103.10 277.439
1103.20 277.242
1103.30 277.045
1103.40 276.848
1103.50 276.651
1103.60 276.454
1103.70 276.2569
1103.80 276.0599
1103.90 275.8629
1104.00 275.6659
1104.10 275.4689
1104.20 275.2719
1104.30 275.0749
1104.40 274.8778
1104.50 274.6808
1104.60 274.4838
1104.70 274.2868
1104.80 274.0898
1104.90 273.8928
1105.00 273.6958
1105.10 273.4987
1105.20 273.3017
1105.30 273.1047
1105.40 272.9077
1105.50 272.7107
1105.60 272.5137
1105.70 272.3167
1105.80 272.1196
1105.90 271.9884
1106.00 272.0107
1106.10 272.0331
1106.20 272.0554
1106.30 272.0777
1106.40 272.1
1106.50 272.1223
1106.60 272.1447
1106.70 272.167
1106.80 272.1893
1106.90 272.2116
1107.00 272.2339
1107.10 272.2563
1107.20 272.2786
1107.30 272.3009
1107.40 272.3232
1107.50 272.3455
1107.60 272.3678
1107.70 272.3902
1107.80 272.4125
1107.90 272.4348
1108.00 272.4571
1108.10 272.4794
1108.20 272.5018
1108.30 272.5241
1108.40 272.5464
1108.50 272.5687
1108.60 272.591
1108.70 272.6134
1108.80 272.6357
1108.90 272.658
1109.00 272.6803
1109.10 272.7026
1109.20 272.725
1109.30 272.7473
1109.40 272.7696
1109.50 272.7919
1109.60 272.8142
1109.70 272.8365
1109.80 272.8589
1109.90 272.8812
1110.00 272.9035
1110.10 272.8574
1110.20 272.7943
1110.30 272.7311
1110.40 272.6679
1110.50 272.6048
1110.60 272.5416
1110.70 272.4784
1110.80 272.4153
1110.90 272.3521
1111.00 272.2889
1111.10 272.2258
1111.20 272.1626
1111.30 272.0994
1111.40 272.0363
1111.50 271.9731
1111.60 271.9099
1111.70 271.8468
1111.80 271.7836
1111.90 271.7204
1112.00 271.6573
1112.10 271.5941
1112.20 271.5309
1112.30 271.4678
1112.40 271.4046
1112.50 271.3414
1112.60 271.2782
1112.70 271.2151
1112.80 271.1519
1112.90 271.0887
1113.00 271.0256
1113.10 270.9624
1113.20 270.8992
1113.30 270.8361
1113.40 270.7729
1113.50 270.7097
1113.60 270.6466
1113.70 270.5834
1113.80 270.5202
1113.90 270.4571
1114.00 270.3939
1114.10 270.3307
1114.20 270.3163
1114.30 270.4156
1114.40 270.5149
1114.50 270.6143
1114.60 270.7136
1114.70 270.8129
1114.80 270.9122
1114.90 271.0115
1115.00 271.1108
1115.10 271.2101
1115.20 271.3095
1115.30 271.4088
1115.40 271.5081
1115.50 271.6074
1115.60 271.7067
1115.70 271.806
1115.80 271.9053
1115.90 272.0047
1116.00 272.104
1116.10 272.2033
1116.20 272.3026
1116.30 272.4019
1116.40 272.5012
1116.50 272.6005
1116.60 272.6999
1116.70 272.7992
1116.80 272.8985
1116.90 272.9978
1117.00 273.0971
1117.10 273.1964
1117.20 273.2957
1117.30 273.3951
1117.40 273.4944
1117.50 273.5937
1117.60 273.693
1117.70 273.7923
1117.80 273.8916
1117.90 273.9909
1118.00 274.0903
1118.10 274.1896
1118.20 274.2889
1118.30 274.3882
1118.40 274.4858
1118.50 274.5823
1118.60 274.6788
1118.70 274.7753
1118.80 274.8718
1118.90 274.9683
1119.00 275.0648
1119.10 275.1613
1119.20 275.2578
1119.30 275.3543
1119.40 275.4508
1119.50 275.5473
1119.60 275.6438
1119.70 275.7403
1119.80 275.8368
1119.90 275.9333
1120.00 276.0298
1120.10 276.1263
1120.20 276.2228
1120.30 276.3193
1120.40 276.4158
1120.50 276.5123
1120.60 276.6088
1120.70 276.7053
1120.80 276.8018
1120.90 276.8983
1121.00 276.9948
1121.10 277.0913
1121.20 277.1878
1121.30 277.2843
1121.40 277.3808
1121.50 277.4773
1121.60 277.5738
1121.70 277.6703
1121.80 277.7668
1121.90 277.8633
1122.00 277.9598
1122.10 278.0563
1122.20 278.1528
1122.30 278.2493
1122.40 278.3458
1122.50 278.4423
1122.60 278.4495
1122.70 278.4467
1122.80 278.444
1122.90 278.4413
1123.00 278.4386
1123.10 278.4358
1123.20 278.4331
1123.30 278.4304
1123.40 278.4277
1123.50 278.425
1123.60 278.4222
1123.70 278.4195
1123.80 278.4168
1123.90 278.4141
1124.00 278.4113
1124.10 278.4086
1124.20 278.4059
1124.30 278.4032
1124.40 278.4005
1124.50 278.3977
1124.60 278.395
1124.70 278.3923
1124.80 278.3896
1124.90 278.3868
1125.00 278.3841
1125.10 278.3814
1125.20 278.3787
1125.30 278.3759
1125.40 278.3732
1125.50 278.3705
1125.60 278.3678
1125.70 278.3651
1125.80 278.3623
1125.90 278.3596
1126.00 278.3569
1126.10 278.3542
1126.20 278.3514
1126.30 278.3487
1126.40 278.346
1126.50 278.3433
1126.60 278.3406
1126.70 278.3188
1126.80 278.2211
1126.90 278.1234
1127.00 278.0257
1127.10 277.928
1127.20 277.8303
1127.30 277.7326
1127.40 277.6349
1127.50 277.5371
1127.60 277.4394
1127.70 277.3417
1127.80 277.244
1127.90 277.1463
1128.00 277.0486
1128.10 276.9509
1128.20 276.8532
1128.30 276.7555
1128.40 276.6578
1128.50 276.56
1128.60 276.4623
1128.70 276.3646
1128.80 276.2669
1128.90 276.1692
1129.00 276.0715
1129.10 275.9738
1129.20 275.8761
1129.30 275.7784
1129.40 275.6806
1129.50 275.5829
1129.60 275.4852
1129.70 275.3875
1129.80 275.2898
1129.90 275.1921
1130.00 275.0944
1130.10 274.9967
1130.20 274.899
1130.30 274.8013
1130.40 274.7035
1130.50 274.6058
1130.60 274.5081
1130.70 274.4104
1130.80 274.3127
1130.90 274.1683
1131.00 273.915
1131.10 273.6618
1131.20 273.4085
1131.30 273.1552
1131.40 272.9019
1131.50 272.6487
1131.60 272.3954
1131.70 272.1421
1131.80 271.8888
1131.90 271.6356
1132.00 271.3823
1132.10 271.129
1132.20 270.8758
1132.30 270.6225
1132.40 270.3692
1132.50 270.1159
1132.60 269.8627
1132.70 269.6094
1132.80 269.3561
1132.90 269.1028
1133.00 268.8496
1133.10 268.5963
1133.20 268.343
1133.30 268.0897
1133.40 267.8365
1133.50 267.5832
1133.60 267.3299
1133.70 267.0766
1133.80 266.8234
1133.90 266.5701
1134.00 266.3168
1134.10 266.0635
1134.20 265.8103
1134.30 265.557
1134.40 265.3037
1134.50 265.0504
1134.60 264.7972
1134.70 264.5439
1134.80 264.2906
1134.90 264.0374
1135.00 263.7841
1135.10 263.6152
1135.20 263.5729
1135.30 263.5306
1135.40 263.4883
1135.50 263.446
1135.60 263.4037
1135.70 263.3614
1135.80 263.3191
1135.90 263.2768
1136.00 263.2345
1136.10 263.1922
1136.20 263.15
1136.30 263.1077
1136.40 263.0654
1136.50 263.0231
1136.60 262.9808
1136.70 262.9385
1136.80 262.8962
1136.90 262.8539
1137.00 262.8116
1137.10 262.7693
1137.20 262.727
1137.30 262.6847
1137.40 262.6424
1137.50 262.6001
1137.60 262.5578
1137.70 262.5155
1137.80 262.4732
1137.90 262.4309
1138.00 262.3886
1138.10 262.3463
1138.20 262.3041
1138.30 262.2618
1138.40 262.2195
1138.50 262.1772
1138.60 262.1349
1138.70 262.0926
1138.80 262.0503
1138.90 262.008
1139.00 261.9657
1139.10 261.9234
1139.20 261.8811
1139.30 261.9111
1139.40 262.0495
1139.50 262.1879
1139.60 262.3263
1139.70 262.4647
1139.80 262.6031
1139.90 262.7415
1140.00 262.8798
1140.10 263.0182
1140.20 263.1566
1140.30 263.295
1140.40 263.4334
1140.50 263.5718
1140.60 263.7102
1140.70 263.8486
1140.80 263.987
1140.90 264.1254
1141.00 264.2638
1141.10 264.4022
1141.20 264.5406
1141.30 264.679
1141.40 264.8174
1141.50 264.9558
1141.60 265.0942
1141.70 265.2326
1141.80 265.371
1141.90 265.5094
1142.00 265.6477
1142.10 265.7861
1142.20 265.9245
1142.30 266.0629
1142.40 266.2013
1142.50 266.3397
1142.60 266.4781
1142.70 266.6165
1142.80 266.7549
1142.90 266.8933
1143.00 267.0317
1143.10 267.1701
1143.20 267.3085
1143.30 267.4469
1143.40 267.5853
1143.50 267.8062
1143.60 268.2195
1143.70 268.6329
1143.80 269.0462
1143.90 269.4596
1144.00 269.8729
1144.10 270.2863
1144.20 270.6997
1144.30 271.113
1144.40 271.5264
1144.50 271.9397
1144.60 272.3531
1144.70 272.7664
1144.80 273.1798
1144.90 273.5931
1145.00 274.0065
1145.10 274.4199
1145.20 274.8332
1145.30 275.2466
1145.40 275.6599
1145.50 276.0733
1145.60 276.4866
1145.70 276.9
1145.80 277.3134
1145.90 277.7267
1146.00 278.1401
1146.10 278.5534
1146.20 278.9668
1146.30 279.3801
1146.40 279.7935
1146.50 280.2068
1146.60 280.6202
1146.70 281.0336
1146.80 281.4469
1146.90 281.8603
1147.00 282.2736
1147.10 282.687
1147.20 283.1003
1147.30 283.5137
1147.40 283.9271
1147.50 284.3404
1147.60 284.7538
1147.70 285.1415
1147.80 285.4265
1147.90 285.7116
1148.00 285.9966
1148.10 286.2817
1148.20 286.5667
1148.30 286.8518
1148.40 287.1368
1148.50 287.4219
1148.60 287.7069
1148.70 287.992
1148.80 288.277
1148.90 288.5621
1149.00 288.8471
1149.10 289.1322
1149.20 289.4172
1149.30 289.7023
1149.40 289.9873
1149.50 290.2724
1149.60 290.5574
1149.70 290.8425
1149.80 291.1275
1149.90 291.4126
1150.00 291.6976
1150.10 291.9827
1150.20 292.2677
1150.30 292.5528
1150.40 292.8378
1150.50 293.1229
1150.60 293.4079
1150.70 293.693
1150.80 293.978
1150.90 294.2631
1151.00 294.5481
1151.10 294.8332
1151.20 295.1182
1151.30 295.4033
1151.40 295.6883
1151.50 295.9734
1151.60 296.2584
1151.70 296.5435
1151.80 296.8285
1151.90 297.1136
1152.00 297.0858
1152.10 297.058
1152.20 297.0303
1152.30 297.0025
1152.40 296.9747
1152.50 296.947
1152.60 296.9192
1152.70 296.8915
1152.80 296.8637
1152.90 296.8359
1153.00 296.8082
1153.10 296.7804
1153.20 296.7526
1153.30 296.7249
1153.40 296.6971
1153.50 296.6694
1153.60 296.6416
1153.70 296.6138
1153.80 296.5861
1153.90 296.5583
1154.00 296.5305
1154.10 296.5028
1154.20 296.475
1154.30 296.4473
1154.40 296.4195
1154.50 296.3917
1154.60 296.364
1154.70 296.3362
1154.80 296.3084
1154.90 296.2807
1155.00 296.2529
1155.10 296.2252
1155.20 296.1974
1155.30 296.1696
1155.40 296.1419
1155.50 296.1141
1155.60 296.0863
1155.70 296.0586
1155.80 296.0308
1155.90 296.0031
1156.00 295.9753
1156.10 295.9475
1156.20 295.8147
1156.30 295.6556
1156.40 295.4965
1156.50 295.3375
1156.60 295.1784
1156.70 295.0193
1156.80 294.8602
1156.90 294.7011
1157.00 294.542
1157.10 294.3829
1157.20 294.2239
1157.30 294.0648
1157.40 293.9057
1157.50 293.7466
1157.60 293.5875
1157.70 293.4284
1157.80 293.2693
1157.90 293.1103
1158.00 292.9512
1158.10 292.7921
1158.20 292.633
1158.30 292.4739
1158.40 292.3148
1158.50 292.1558
1158.60 291.9967
1158.70 291.8376
1158.80 291.6785
1158.90 291.5194
1159.00 291.3603
1159.10 291.2012
1159.20 291.0422
1159.30 290.8831
1159.40 290.724
1159.50 290.5649
1159.60 290.4058
1159.70 290.2467
1159.80 290.0876
1159.90 289.9286
1160.00 289.7695
1160.10 289.6104
1160.20 289.4513
1160.30 289.2922
1160.40 289.126
1160.50 288.9526
1160.60 288.7792
1160.70 288.6059
1160.80 288.4325
1160.90 288.2591
1161.00 288.0857
1161.10 287.9124
1161.20 287.739
1161.30 287.5656
1161.40 287.3922
1161.50 287.2188
1161.60 287.0455
1161.70 286.8721
1161.80 286.6987
1161.90 286.5253
1162.00 286.352
1162.10 286.1786
1162.20 286.0052
1162.30 285.8318
1162.40 285.6584
1162.50 285.4851
1162.60 285.3117
1162.70 285.1383
1162.80 284.9649
1162.90 284.7916
1163.00 284.6182
1163.10 284.4448
1163.20 284.2714
1163.30 284.0981
1163.40 283.9247
1163.50 283.7513
1163.60 283.5779
1163.70 283.4045
1163.80 283.2312
1163.90 283.0578
1164.00 282.8844
1164.10 282.711
1164.20 282.5377
1164.30 282.3643
1164.40 282.1909
1164.50 282.0175
1164.60 281.8475
1164.70 281.7079
1164.80 281.5684
1164.90 281.4288
1165.00 281.2892
1165.10 281.1496
1165.20 281.01
1165.30 280.8704
1165.40 280.7308
1165.50 280.5912
1165.60 280.4516
1165.70 280.312
1165.80 280.1724
1165.90 280.0328
1166.00 279.8932
1166.10 279.7537
1166.20 279.6141
1166.30 279.4745
1166.40 279.3349
1166.50 279.1953
1166.60 279.0557
1166.70 278.9161
1166.80 278.7765
1166.90 278.6369
1167.00 278.4973
1167.10 278.3577
1167.20 278.2181
1167.30 278.0786
1167.40 277.939
1167.50 277.7994
1167.60 277.6598
1167.70 277.5202
1167.80 277.3806
1167.90 277.241
1168.00 277.1014
1168.10 276.9618
1168.20 276.8222
1168.30 276.6826
1168.40 276.543
1168.50 276.4035
1168.60 276.2639
1168.70 276.1243
1168.80 275.9847
1168.90 275.6957
1169.00 275.3426
1169.10 274.9896
1169.20 274.6366
1169.30 274.2835
1169.40 273.9305
1169.50 273.5775
1169.60 273.2244
1169.70 272.8714
1169.80 272.5184
1169.90 272.1653
1170.00 271.8123
1170.10 271.4592
1170.20 271.1062
1170.30 270.7532
1170.40 270.4001
1170.50 270.0471
1170.60 269.6941
1170.70 269.341
1170.80 268.988
1170.90 268.635
1171.00 268.2819
1171.10 267.9289
1171.20 267.5758
1171.30 267.2228
1171.40 266.8698
1171.50 266.5167
1171.60 266.1637
1171.70 265.8107
1171.80 265.4576
1171.90 265.1046
1172.00 264.7516
1172.10 264.3985
1172.20 264.0455
1172.30 263.6925
1172.40 263.3394
1172.50 262.9864
1172.60 262.6333
1172.70 262.2803
1172.80 261.9273
1172.90 261.5742
1173.00 261.2212
1173.10 260.9551
1173.20 261.0369
1173.30 261.1187
1173.40 261.2005
1173.50 261.2823
1173.60 261.3641
1173.70 261.4459
1173.80 261.5277
1173.90 261.6095
1174.00 261.6913
1174.10 261.7731
1174.20 261.8549
1174.30 261.9367
1174.40 262.0185
1174.50 262.1003
1174.60 262.1821
1174.70 262.2639
1174.80 262.3457
1174.90 262.4275
1175.00 262.5093
1175.10 262.5911
1175.20 262.6729
1175.30 262.7547
1175.40 262.8365
1175.50 262.9183
1175.60 263.0001
1175.70 263.0819
1175.80 263.1637
1175.90 263.2455
1176.00 263.3273
1176.10 263.4091
1176.20 263.4909
1176.30 263.5726
1176.40 263.6544
1176.50 263.7362
1176.60 263.818
1176.70 263.8998
1176.80 263.9816
1176.90 264.0634
1177.00 264.1452
1177.10 264.227
1177.20 264.3088
1177.30 264.3906
1177.40 264.5054
1177.50 264.6344
1177.60 264.7633
1177.70 264.8923
1177.80 265.0212
1177.90 265.1501
1178.00 265.2791
1178.10 265.408
1178.20 265.537
1178.30 265.6659
1178.40 265.7949
1178.50 265.9238
1178.60 266.0528
1178.70 266.1817
1178.80 266.3106
1178.90 266.4396
1179.00 266.5685
1179.10 266.6975
1179.20 266.8264
1179.30 266.9554
1179.40 267.0843
1179.50 267.2132
1179.60 267.3422
1179.70 267.4711
1179.80 267.6001
1179.90 267.729
1180.00 267.858
1180.10 267.9869
1180.20 268.1159
1180.30 268.2448
1180.40 268.3737
1180.50 268.5027
1180.60 268.6316
1180.70 268.7606
1180.80 268.8895
1180.90 269.0185
1181.00 269.1474
1181.10 269.2764
1181.20 269.4053
1181.30 269.5342
1181.40 269.6632
1181.50 269.7921
1181.60 269.9273
1181.70 270.1189
1181.80 270.3104
1181.90 270.5019
1182.00 270.6934
1182.10 270.8849
1182.20 271.0765
1182.30 271.268
1182.40 271.4595
1182.50 271.651
1182.60 271.8425
1182.70 272.0341
1182.80 272.2256
1182.90 272.4171
1183.00 272.6086
1183.10 272.8001
1183.20 272.9917
1183.30 273.1832
1183.40 273.3747
1183.50 273.5662
1183.60 273.7578
1183.70 273.9493
1183.80 274.1408
1183.90 274.3323
1184.00 274.5238
1184.10 274.7154
1184.20 274.9069
1184.30 275.0984
1184.40 275.2899
1184.50 275.4814
1184.60 275.673
1184.70 275.8645
1184.80 276.056
1184.90 276.2475
1185.00 276.439
1185.10 276.6306
1185.20 276.8221
1185.30 277.0136
1185.40 277.2051
1185.50 277.3967
1185.60 277.5882
1185.70 277.7797
1185.80 277.9712
1185.90 278.0249
1186.00 277.9408
1186.10 277.8567
1186.20 277.7725
1186.30 277.6884
1186.40 277.6043
1186.50 277.5201
1186.60 277.436
1186.70 277.3519
1186.80 277.2677
1186.90 277.1836
1187.00 277.0995
1187.10 277.0154
1187.20 276.9312
1187.30 276.8471
1187.40 276.763
1187.50 276.6788
1187.60 276.5947
1187.70 276.5106
1187.80 276.4265
1187.90 276.3423
1188.00 276.2582
1188.10 276.1741
1188.20 276.0899
1188.30 276.0058
1188.40 275.9217
1188.50 275.8376
1188.60 275.7534
1188.70 275.6693
1188.80 275.5852
1188.90 275.501
1189.00 275.4169
1189.10 275.3328
1189.20 275.2486
1189.30 275.1645
1189.40 275.0804
1189.50 274.9963
1189.60 274.9121
1189.70 274.828
1189.80 274.7439
1189.90 274.6597
1190.00 274.5756
1190.10 274.4915
1190.20 274.2652
1190.30 274.0033
1190.40 273.7414
1190.50 273.4795
1190.60 273.2176
1190.70 272.9557
1190.80 272.6938
1190.90 272.4319
1191.00 272.1701
1191.10 271.9082
1191.20 271.6463
1191.30 271.3844
1191.40 271.1225
1191.50 270.8606
1191.60 270.5987
1191.70 270.3369
1191.80 270.075
1191.90 269.8131
1192.00 269.5512
1192.10 269.2893
1192.20 269.0274
1192.30 268.7655
1192.40 268.5037
1192.50 268.2418
1192.60 267.9799
1192.70 267.718
1192.80 267.4561
1192.90 267.1942
1193.00 266.9323
1193.10 266.6704
1193.20 266.4086
1193.30 266.1467
1193.40 265.8848
1193.50 265.6229
1193.60 265.361
1193.70 265.0991
1193.80 264.8372
1193.90 264.5754
1194.00 264.3135
1194.10 264.0516
1194.20 263.7897
1194.30 263.5278
1194.40 263.2741
1194.50 263.0939
1194.60 262.9138
1194.70 262.7336
1194.80 262.5534
1194.90 262.3732
1195.00 262.1931
1195.10 262.0129
1195.20 261.8327
1195.30 261.6526
1195.40 261.4724
1195.50 261.2922
1195.60 261.112
1195.70 260.9319
1195.80 260.7517
1195.90 260.5715
1196.00 260.3914
1196.10 260.2112
1196.20 260.031
1196.30 259.8509
1196.40 259.6707
1196.50 259.4905
1196.60 259.3103
1196.70 259.1302
1196.80 258.95
1196.90 258.7698
1197.00 258.5897
1197.10 258.4095
1197.20 258.2293
1197.30 258.0491
1197.40 257.869
1197.50 257.6888
1197.60 257.5086
1197.70 257.3285
1197.80 257.1483
1197.90 256.9681
1198.00 256.788
1198.10 256.6078
1198.20 256.4276
1198.30 256.2474
1198.40 256.0673
1198.50 255.8871
1198.60 255.7069
1198.70 255.5922
1198.80 255.5756
1198.90 255.559
1199.00 255.5424
1199.10 255.5258
1199.20 255.5091
1199.30 255.4925
1199.40 255.4759
1199.50 255.4593
1199.60 255.4427
1199.70 255.4261
1199.80 255.4095
1199.90 255.3929
1200.00 255.3763
1200.10 255.3597
1200.20 255.3431
1200.30 255.3264
1200.40 255.3098
1200.50 255.2932
1200.60 255.2766
1200.70 255.26
1200.80 255.2434
1200.90 255.2268
1201.00 255.2102
1201.10 255.1936
1201.20 255.177
1201.30 255.1604
1201.40 255.1438
1201.50 255.1271
1201.60 255.1105
1201.70 255.0939
1201.80 255.0773
1201.90 255.0607
1202.00 255.0441
1202.10 255.0275
1202.20 255.0109
1202.30 254.9943
1202.40 254.9777
1202.50 254.9611
1202.60 254.9444
1202.70 254.9278
1202.80 254.9112
1202.90 254.8946
1203.00 255.0185
1203.10 255.2359
1203.20 255.4534
1203.30 255.6709
1203.40 255.8884
1203.50 256.1059
1203.60 256.3234
1203.70 256.5408
1203.80 256.7583
1203.90 256.9758
1204.00 257.1933
1204.10 257.4108
1204.20 257.6282
1204.30 257.8457
1204.40 258.0632
1204.50 258.2807
1204.60 258.4982
1204.70 258.7156
1204.80 258.9331
1204.90 259.1506
1205.00 259.3681
1205.10 259.5856
1205.20 259.8031
1205.30 260.0205
1205.40 260.238
1205.50 260.4555
1205.60 260.673
1205.70 260.8905
1205.80 261.1079
1205.90 261.3254
1206.00 261.5429
1206.10 261.7604
1206.20 261.9779
1206.30 262.1954
1206.40 262.4128
1206.50 262.6303
1206.60 262.8478
1206.70 263.0653
1206.80 263.2828
1206.90 263.5002
1207.00 263.7177
1207.10 263.9352
1207.20 264.1527
1207.30 264.4864
1207.40 264.8492
1207.50 265.212
1207.60 265.5748
1207.70 265.9376
1207.80 266.3004
1207.90 266.6632
1208.00 267.026
1208.10 267.3888
1208.20 267.7516
1208.30 268.1144
1208.40 268.4772
1208.50 268.84
1208.60 269.2028
1208.70 269.5655
1208.80 269.9283
1208.90 270.2911
1209.00 270.6539
1209.10 271.0167
1209.20 271.3795
1209.30 271.7423
1209.40 272.1051
1209.50 272.4679
1209.60 272.8307
1209.70 273.1935
1209.80 273.5563
1209.90 273.9191
1210.00 274.2819
1210.10 274.6447
1210.20 275.0075
1210.30 275.3703
1210.40 275.7331
1210.50 276.0959
1210.60 276.4587
1210.70 276.8214
1210.80 277.1842
1210.90 277.547
1211.00 277.9098
1211.10 278.2726
1211.20 278.6354
1211.30 278.9982
1211.40 279.361
1211.50 279.7238
1211.60 279.8575
1211.70 279.9657
1211.80 280.0739
1211.90 280.1822
1212.00 280.2904
1212.10 280.3986
1212.20 280.5068
1212.30 280.6151
1212.40 280.7233
1212.50 280.8315
1212.60 280.9397
1212.70 281.048
1212.80 281.1562
1212.90 281.2644
1213.00 281.3726
1213.10 281.4809
1213.20 281.5891
1213.30 281.6973
1213.40 281.8055
1213.50 281.9138
1213.60 282.022
1213.70 282.1302
1213.80 282.2384
1213.90 282.3467
1214.00 282.4549
1214.10 282.5631
1214.20 282.6713
1214.30 282.7796
1214.40 282.8878
1214.50 282.996
1214.60 283.1042
1214.70 283.2125
1214.80 283.3207
1214.90 283.4289
1215.00 283.5372
1215.10 283.6454
1215.20 283.7536
1215.30 283.8618
1215.40 283.9701
1215.50 284.0783
1215.60 284.1865
1215.70 284.2947
1215.80 284.403
1215.90 284.7446
1216.00 285.0862
1216.10 285.4278
1216.20 285.7694
1216.30 286.111
1216.40 286.4526
1216.50 286.7942
1216.60 287.1358
1216.70 287.4774
1216.80 287.819
1216.90 288.1607
1217.00 288.5023
1217.10 288.8439
1217.20 289.1855
1217.30 289.5271
1217.40 289.8687
1217.50 290.2103
1217.60 290.5519
1217.70 290.8935
1217.80 291.2351
1217.90 291.5767
1218.00 291.9184
1218.10 292.26
1218.20 292.6016
1218.30 292.9432
1218.40 293.2848
1218.50 293.6264
1218.60 293.968
1218.70 294.3096
1218.80 294.6512
1218.90 294.9928
1219.00 295.3345
1219.10 295.6761
1219.20 296.0177
1219.30 296.3593
1219.40 296.7009
1219.50 297.0425
1219.60 297.3841
1219.70 297.7257
1219.80 298.0673
1219.90 298.4089
1220.00 298.7505
1220.10 299.0728
1220.20 299.2209
1220.30 299.369
1220.40 299.5171
1220.50 299.6651
1220.60 299.8132
1220.70 299.9613
1220.80 300.1094
1220.90 300.2575
1221.00 300.4055
1221.10 300.5536
1221.20 300.7017
1221.30 300.8498
1221.40 300.9979
1221.50 301.146
1221.60 301.294
1221.70 301.4421
1221.80 301.5902
1221.90 301.7383
1222.00 301.8864
1222.10 302.0345
1222.20 302.1825
1222.30 302.3306
1222.40 302.4787
1222.50 302.6268
1222.60 302.7749
1222.70 302.923
1222.80 303.071
1222.90 303.2191
1223.00 303.3672
1223.10 303.5153
1223.20 303.6634
1223.30 303.8115
1223.40 303.9595
1223.50 304.1076
1223.60 304.2557
1223.70 304.4038
1223.80 304.5519
1223.90 304.7
1224.00 304.848
1224.10 304.9961
1224.20 305.1442
1224.30 305.2923
1224.40 305.421
1224.50 305.4723
1224.60 305.5236
1224.70 305.575
1224.80 305.6263
1224.90 305.6776
1225.00 305.7289
1225.10 305.7802
1225.20 305.8315
1225.30 305.8828
1225.40 305.9342
1225.50 305.9855
1225.60 306.0368
1225.70 306.0881
1225.80 306.1394
1225.90 306.1907
1226.00 306.2421
1226.10 306.2934
1226.20 306.3447
1226.30 306.396
1226.40 306.4473
1226.50 306.4986
1226.60 306.5499
1226.70 306.6013
1226.80 306.6526
1226.90 306.7039
1227.00 306.7552
1227.10 306.8065
1227.20 306.8578
1227.30 306.9092
1227.40 306.9605
1227.50 307.0118
1227.60 307.0631
1227.70 307.1144
1227.80 307.1657
1227.90 307.217
1228.00 307.2684
1228.10 307.3197
1228.20 307.371
1228.30 307.4223
1228.40 307.4736
1228.50 307.5249
1228.60 307.5762
1228.70 307.5821
1228.80 307.4064
1228.90 307.2306
1229.00 307.0548
1229.10 306.879
1229.20 306.7033
1229.30 306.5275
1229.40 306.3517
1229.50 306.1759
1229.60 306.0001
1229.70 305.8244
1229.80 305.6486
1229.90 305.4728
1230.00 305.297
1230.10 305.1212
1230.20 304.9455
1230.30 304.7697
1230.40 304.5939
1230.50 304.4181
1230.60 304.2424
1230.70 304.0666
1230.80 303.8908
1230.90 303.715
1231.00 303.5392
1231.10 303.3635
1231.20 303.1877
1231.30 303.0119
1231.40 302.8361
1231.50 302.6603
1231.60 302.4846
1231.70 302.3088
1231.80 302.133
1231.90 301.9572
1232.00 301.7815
1232.10 301.6057
1232.20 301.4299
1232.30 301.2541
1232.40 301.0783
1232.50 300.9026
1232.60 300.7268
1232.70 300.551
1232.80 300.3752
1232.90 300.1994
1233.00 300.0001
1233.10 299.7065
1233.20 299.4129
1233.30 299.1193
1233.40 298.8257
1233.50 298.5321
1233.60 298.2385
1233.70 297.9449
1233.80 297.6513
1233.90 297.3577
1234.00 297.0641
1234.10 296.7705
1234.20 296.4769
1234.30 296.1833
1234.40 295.8897
1234.50 295.5961
1234.60 295.3025
1234.70 295.0089
1234.80 294.7152
1234.90 294.4216
1235.00 294.128
1235.10 293.8344
1235.20 293.5408
1235.30 293.2472
1235.40 292.9536
1235.50 292.66
1235.60 292.3664
1235.70 292.0728
1235.80 291.7792
1235.90 291.4856
1236.00 291.192
1236.10 290.8984
1236.20 290.6048
1236.30 290.3112
1236.40 290.0176
1236.50 289.724
1236.60 289.4304
1236.70 289.1368
1236.80 288.8432
1236.90 288.5496
1237.00 288.256
1237.10 287.9624
1237.20 287.6688
1237.30 287.4024
1237.40 287.245
1237.50 287.0877
1237.60 286.9303
1237.70 286.7729
1237.80 286.6155
1237.90 286.4582
1238.00 286.3008
1238.10 286.1434
1238.20 285.986
1238.30 285.8287
1238.40 285.6713
1238.50 285.5139
1238.60 285.3565
1238.70 285.1992
1238.80 285.0418
1238.90 284.8844
1239.00 284.727
1239.10 284.5696
1239.20 284.4123
1239.30 284.2549
1239.40 284.0975
1239.50 283.9401
1239.60 283.7828
1239.70 283.6254
1239.80 283.468
1239.90 283.3106
1240.00 283.1533
1240.10 282.9959
1240.20 282.8385
1240.30 282.6811
1240.40 282.5238
1240.50 282.3664
1240.60 282.209
1240.70 282.0516
1240.80 281.8942
1240.90 281.7369
1241.00 281.5795
1241.10 281.4221
1241.20 281.2647
1241.30 281.1074
1241.40 280.95
1241.50 280.7926
1241.60 280.6382
1241.70 280.5106
1241.80 280.383
1241.90 280.2554
1242.00 280.1278
1242.10 280.0002
1242.20 279.8726
1242.30 279.745
1242.40 279.6173
1242.50 279.4897
1242.60 279.3621
1242.70 279.2345
1242.80 279.1069
1242.90 278.9793
1243.00 278.8517
1243.10 278.7241
1243.20 278.5965
1243.30 278.4689
1243.40 278.3413
1243.50 278.2137
1243.60 278.0861
1243.70 277.9584
1243.80 277.8308
1243.90 277.7032
1244.00 277.5756
1244.10 277.448
1244.20 277.3204
1244.30 277.1928
1244.40 277.0652
1244.50 276.9376
1244.60 276.81
1244.70 276.6824
1244.80 276.5548
1244.90 276.4271
1245.00 276.2995
1245.10 276.1719
1245.20 276.0443
1245.30 275.9167
1245.40 275.7891
1245.50 275.6615
1245.60 275.5339
1245.70 275.4063
1245.80 275.2787
1245.90 275.1511
1246.00 275.3958
1246.10 275.6406
1246.20 275.8854
1246.30 276.1302
1246.40 276.3749
1246.50 276.6197
1246.60 276.8645
1246.70 277.1093
1246.80 277.354
1246.90 277.5988
1247.00 277.8436
1247.10 278.0884
1247.20 278.3331
1247.30 278.5779
1247.40 278.8227
1247.50 279.0675
1247.60 279.3122
1247.70 279.557
1247.80 279.8018
1247.90 280.0466
1248.00 280.2913
1248.10 280.5361
1248.20 280.7809
1248.30 281.0257
1248.40 281.2704
1248.50 281.5152
1248.60 281.76
1248.70 282.0048
1248.80 282.2495
1248.90 282.4943
1249.00 282.7391
1249.10 282.9839
1249.20 283.2286
1249.30 283.4734
1249.40 283.7182
1249.50 283.963
1249.60 284.2077
1249.70 284.4525
1249.80 284.6973
1249.90 284.9421
1250.00 285.1868
1250.10 285.4316
1250.20 285.6764
1250.30 285.8827
1250.40 286.0889
1250.50 286.2952
1250.60 286.5015
1250.70 286.7077
1250.80 286.914
1250.90 287.1203
1251.00 287.3266
1251.10 287.5328
1251.20 287.7391
1251.30 287.9454
1251.40 288.1516
1251.50 288.3579
1251.60 288.5642
1251.70 288.7705
1251.80 288.9767
1251.90 289.183
1252.00 289.3893
1252.10 289.5955
1252.20 289.8018
1252.30 290.0081
1252.40 290.2144
1252.50 290.4206
1252.60 290.6269
1252.70 290.8332
1252.80 291.0395
1252.90 291.2457
1253.00 291.452
1253.10 291.6583
1253.20 291.8645
1253.30 292.0708
1253.40 292.2771
1253.50 292.4834
1253.60 292.6896
1253.70 292.8959
1253.80 293.1022
1253.90 293.3084
1254.00 293.5147
1254.10 293.721
1254.20 293.9273
1254.30 294.1335
1254.40 294.3398
1254.50 294.5461
1254.60 294.8851
1254.70 295.2388
1254.80 295.5926
1254.90 295.9463
1255.00 296.3001
1255.10 296.6538
1255.20 297.0076
1255.30 297.3613
1255.40 297.7151
1255.50 298.0688
1255.60 298.4226
1255.70 298.7763
1255.80 299.1301
1255.90 299.4838
1256.00 299.8376
1256.10 300.1913
1256.20 300.5451
1256.30 300.8988
1256.40 301.2526
1256.50 301.6063
1256.60 301.9601
1256.70 302.3138
1256.80 302.6676
1256.90 303.0213
1257.00 303.3751
1257.10 303.7288
1257.20 304.0826
1257.30 304.4363
1257.40 304.7901
1257.50 305.1438
1257.60 305.4976
1257.70 305.8513
1257.80 306.2051
1257.90 306.5588
1258.00 306.9126
1258.10 307.2663
1258.20 307.6201
1258.30 307.9738
1258.40 308.3276
1258.50 308.6813
1258.60 309.0351
1258.70 309.3888
1258.80 309.7426
1258.90 310.1092
1259.00 310.4813
1259.10 310.8534
1259.20 311.2255
1259.30 311.5976
1259.40 311.9696
1259.50 312.3417
1259.60 312.7138
1259.70 313.0859
1259.80 313.458
1259.90 313.8301
1260.00 314.2022
1260.10 314.5743
1260.20 314.9464
1260.30 315.3185
1260.40 315.6906
1260.50 316.0627
1260.60 316.4348
1260.70 316.8069
1260.80 317.1789
1260.90 317.551
1261.00 317.9231
1261.10 318.2952
1261.20 318.6673
1261.30 319.0394
1261.40 319.4115
1261.50 319.7836
1261.60 320.1557
1261.70 320.5278
1261.80 320.8999
1261.90 321.272
1262.00 321.6441
1262.10 322.0162
1262.20 322.3883
1262.30 322.7603
1262.40 323.1324
1262.50 323.5045
1262.60 323.8766
1262.70 324.2487
1262.80 324.6208
1262.90 324.9929
1263.00 325.365
1263.10 325.7371
1263.20 326.0177
1263.30 326.2374
1263.40 326.4571
1263.50 326.6768
1263.60 326.8965
1263.70 327.1162
1263.80 327.3359
1263.90 327.5556
1264.00 327.7753
1264.10 327.995
1264.20 328.2147
1264.30 328.4344
1264.40 328.6541
1264.50 328.8738
1264.60 329.0935
1264.70 329.3132
1264.80 329.5329
1264.90 329.7526
1265.00 329.9723
1265.10 330.192
1265.20 330.4117
1265.30 330.6314
1265.40 330.8511
1265.50 331.0708
1265.60 331.2905
1265.70 331.5102
1265.80 331.7299
1265.90 331.9496
1266.00 332.1693
1266.10 332.389
1266.20 332.6087
1266.30 332.8284
1266.40 333.0481
1266.50 333.2678
1266.60 333.4875
1266.70 333.7072
1266.80 333.9269
1266.90 334.1466
1267.00 334.3663
1267.10 334.586
1267.20 334.8057
1267.30 335.0254
1267.40 335.2451
1267.50 335.4525
1267.60 335.6474
1267.70 335.8423
1267.80 336.0372
1267.90 336.2321
1268.00 336.427
1268.10 336.6219
1268.20 336.8169
1268.30 337.0118
1268.40 337.2067
1268.50 337.4016
1268.60 337.5965
1268.70 337.7914
1268.80 337.9863
1268.90 338.1813
1269.00 338.3762
1269.10 338.5711
1269.20 338.766
1269.30 338.9609
1269.40 339.1558
1269.50 339.3507
1269.60 339.5457
1269.70 339.7406
1269.80 339.9355
1269.90 340.1304
1270.00 340.3253
1270.10 340.5202
1270.20 340.7151
1270.30 340.9101
1270.40 341.105
1270.50 341.2999
1270.60 341.4948
1270.70 341.6897
1270.80 341.8846
1270.90 342.0795
1271.00 342.2745
1271.10 342.4694
1271.20 342.6643
1271.30 342.8592
1271.40 343.0541
1271.50 343.249
1271.60 343.444
1271.70 343.6389
1271.80 343.7797
1271.90 343.7942
1272.00 343.8088
1272.10 343.8234
1272.20 343.8379
1272.30 343.8525
1272.40 343.867
1272.50 343.8816
1272.60 343.8962
1272.70 343.9107
1272.80 343.9253
1272.90 343.9399
1273.00 343.9544
1273.10 343.969
1273.20 343.9835
1273.30 343.9981
1273.40 344.0127
1273.50 344.0272
1273.60 344.0418
1273.70 344.0564
1273.80 344.0709
1273.90 344.0855
1274.00 344.1
1274.10 344.1146
1274.20 344.1292
1274.30 344.1437
1274.40 344.1583
1274.50 344.1728
1274.60 344.1874
1274.70 344.202
1274.80 344.2165
1274.90 344.2311
1275.00 344.2457
1275.10 344.2602
1275.20 344.2748
1275.30 344.2893
1275.40 344.3039
1275.50 344.3185
1275.60 344.333
1275.70 344.3476
1275.80 344.3622
1275.90 344.3767
1276.00 344.3913
1276.10 344.3958
1276.20 344.3097
1276.30 344.2235
1276.40 344.1374
1276.50 344.0513
1276.60 343.9652
1276.70 343.8791
1276.80 343.793
1276.90 343.7069
1277.00 343.6207
1277.10 343.5346
1277.20 343.4485
1277.30 343.3624
1277.40 343.2763
1277.50 343.1902
1277.60 343.1041
1277.70 343.0179
1277.80 342.9318
1277.90 342.8457
1278.00 342.7596
1278.10 342.6735
1278.20 342.5874
1278.30 342.5012
1278.40 342.4151
1278.50 342.329
1278.60 342.2429
1278.70 342.1568
1278.80 342.0707
1278.90 341.9846
1279.00 341.8984
1279.10 341.8123
1279.20 341.7262
1279.30 341.6401
1279.40 341.554
1279.50 341.4679
1279.60 341.3818
1279.70 341.2956
1279.80 341.2095
1279.90 341.1234
1280.00 341.0373
1280.10 340.9512
1280.20 340.8651
1280.30 340.779
1280.40 340.6928
1280.50 340.6831
1280.60 340.6733
1280.70 340.6635
1280.80 340.6537
1280.90 340.644
1281.00 340.6342
1281.10 340.6244
1281.20 340.6146
1281.30 340.6048
1281.40 340.5951
1281.50 340.5853
1281.60 340.5755
1281.70 340.5657
1281.80 340.556
1281.90 340.5462
1282.00 340.5364
1282.10 340.5266
1282.20 340.5168
1282.30 340.5071
1282.40 340.4973
1282.50 340.4875
1282.60 340.4777
1282.70 340.468
1282.80 340.4582
1282.90 340.4484
1283.00 340.4386
1283.10 340.4289
1283.20 340.4191
1283.30 340.4093
1283.40 340.3995
1283.50 340.3897
1283.60 340.38
1283.70 340.3702
1283.80 340.3604
1283.90 340.3506
1284.00 340.3409
1284.10 340.3311
1284.20 340.3213
1284.30 340.3115
1284.40 340.3017
1284.50 340.292
1284.60 340.2822
1284.70 340.2724
1284.80 340.3217
1284.90 340.3858
1285.00 340.4499
1285.10 340.5139
1285.20 340.578
1285.30 340.6421
1285.40 340.7062
1285.50 340.7702
1285.60 340.8343
1285.70 340.8984
1285.80 340.9624
1285.90 341.0265
1286.00 341.0906
1286.10 341.1547
1286.20 341.2187
1286.30 341.2828
1286.40 341.3469
1286.50 341.411
1286.60 341.475
1286.70 341.5391
1286.80 341.6032
1286.90 341.6672
1287.00 341.7313
1287.10 341.7954
1287.20 341.8595
1287.30 341.9235
1287.40 341.9876
1287.50 342.0517
1287.60 342.1157
1287.70 342.1798
1287.80 342.2439
1287.90 342.308
1288.00 342.372
1288.10 342.4361
1288.20 342.5002
1288.30 342.5643
1288.40 342.6283
1288.50 342.6924
1288.60 342.7565
1288.70 342.8205
1288.80 342.8846
1288.90 342.9487
1289.00 343.0128
1289.10 342.9537
1289.20 342.8125
1289.30 342.6713
1289.40 342.5301
1289.50 342.3889
1289.60 342.2477
1289.70 342.1065
1289.80 341.9653
1289.90 341.8241
1290.00 341.6829
1290.10 341.5417
1290.20 341.4005
1290.30 341.2593
1290.40 341.1181
1290.50 340.9769
1290.60 340.8357
1290.70 340.6946
1290.80 340.5534
1290.90 340.4122
1291.00 340.271
1291.10 340.1298
1291.20 339.9886
1291.30 339.8474
1291.40 339.7062
1291.50 339.565
1291.60 339.4238
1291.70 339.2826
1291.80 339.1414
1291.90 339.0002
1292.00 338.859
1292.10 338.7178
1292.20 338.5766
1292.30 338.4354
1292.40 338.2942
1292.50 338.153
1292.60 338.0118
1292.70 337.8707
1292.80 337.7295
1292.90 337.5883
1293.00 337.4471
1293.10 337.3059
1293.20 337.1647
1293.30 337.0235
1293.40 336.9279
1293.50 336.9009
1293.60 336.8738
1293.70 336.8467
1293.80 336.8196
1293.90 336.7925
1294.00 336.7655
1294.10 336.7384
1294.20 336.7113
1294.30 336.6842
1294.40 336.6572
1294.50 336.6301
1294.60 336.603
1294.70 336.5759
1294.80 336.5488
1294.90 336.5218
1295.00 336.4947
1295.10 336.4676
1295.20 336.4405
1295.30 336.4134
1295.40 336.3864
1295.50 336.3593
1295.60 336.3322
1295.70 336.3051
1295.80 336.2781
1295.90 336.251
1296.00 336.2239
1296.10 336.1968
1296.20 336.1697
1296.30 336.1427
1296.40 336.1156
1296.50 336.0885
1296.60 336.0614
1296.70 336.0344
1296.80 336.0073
1296.90 335.9802
1297.00 335.9531
1297.10 335.926
1297.20 335.899
1297.30 335.8719
1297.40 335.8448
1297.50 335.8177
1297.60 335.7906
1297.70 335.7747
1297.80 335.8033
1297.90 335.8319
1298.00 335.8605
1298.10 335.889
1298.20 335.9176
1298.30 335.9462
1298.40 335.9748
1298.50 336.0034
1298.60 336.032
1298.70 336.0606
1298.80 336.0892
1298.90 336.1177
1299.00 336.1463
1299.10 336.1749
1299.20 336.2035
1299.30 336.2321
1299.40 336.2607
1299.50 336.2893
1299.60 336.3178
1299.70 336.3464
1299.80 336.375
1299.90 336.4036
