# Version 2.1 - nm, norm@500 to 1, cut digits
# Wavelength(nm)  Flambda(ergs/cm^s/s/nm)
300.00 1.594538e-95
300.10 1.594538e-95
300.20 1.594538e-95
300.30 1.594538e-95
300.40 1.594538e-95
300.50 1.594538e-95
300.60 1.594538e-95
300.70 1.594538e-95
300.80 1.594538e-95
300.90 1.594538e-95
301.00 1.594538e-95
301.10 1.594538e-95
301.20 1.594538e-95
301.30 1.594538e-95
301.40 1.594538e-95
301.50 1.594538e-95
301.60 1.594538e-95
301.70 1.594538e-95
301.80 1.594538e-95
301.90 1.594538e-95
302.00 1.594538e-95
302.10 1.594538e-95
302.20 1.594538e-95
302.30 1.594538e-95
302.40 1.594538e-95
302.50 1.594538e-95
302.60 1.594538e-95
302.70 1.594538e-95
302.80 1.594538e-95
302.90 1.594538e-95
303.00 1.594538e-95
303.10 1.594538e-95
303.20 1.594538e-95
303.30 1.594538e-95
303.40 1.594538e-95
303.50 1.594538e-95
303.60 1.594538e-95
303.70 1.594538e-95
303.80 1.594538e-95
303.90 1.594538e-95
304.00 1.594538e-95
304.10 1.594538e-95
304.20 1.594538e-95
304.30 1.594538e-95
304.40 1.594538e-95
304.50 1.594538e-95
304.60 1.594538e-95
304.70 1.594538e-95
304.80 1.594538e-95
304.90 1.594538e-95
305.00 1.594538e-95
305.10 1.594538e-95
305.20 1.594538e-95
305.30 1.594538e-95
305.40 1.594538e-95
305.50 1.594538e-95
305.60 1.594538e-95
305.70 1.594538e-95
305.80 1.594538e-95
305.90 1.594538e-95
306.00 1.594538e-95
306.10 1.594538e-95
306.20 1.594538e-95
306.30 1.594538e-95
306.40 1.594538e-95
306.50 1.594538e-95
306.60 1.594538e-95
306.70 1.594538e-95
306.80 1.594538e-95
306.90 1.594538e-95
307.00 1.594538e-95
307.10 1.594538e-95
307.20 1.594538e-95
307.30 1.594538e-95
307.40 1.594538e-95
307.50 1.594538e-95
307.60 1.594538e-95
307.70 1.594538e-95
307.80 1.594538e-95
307.90 1.594538e-95
308.00 1.594538e-95
308.10 1.594538e-95
308.20 1.594538e-95
308.30 1.594538e-95
308.40 1.594538e-95
308.50 1.594538e-95
308.60 1.594538e-95
308.70 1.594538e-95
308.80 1.594538e-95
308.90 1.594538e-95
309.00 1.594538e-95
309.10 1.594538e-95
309.20 1.594538e-95
309.30 1.594538e-95
309.40 1.594538e-95
309.50 1.594538e-95
309.60 1.594538e-95
309.70 1.594538e-95
309.80 1.594538e-95
309.90 1.594538e-95
310.00 1.594538e-95
310.10 1.594538e-95
310.20 1.594538e-95
310.30 1.594538e-95
310.40 1.594538e-95
310.50 1.594538e-95
310.60 1.594538e-95
310.70 1.594538e-95
310.80 1.594538e-95
310.90 1.594538e-95
311.00 1.594538e-95
311.10 1.594538e-95
311.20 1.594538e-95
311.30 1.594538e-95
311.40 1.594538e-95
311.50 1.594538e-95
311.60 1.594538e-95
311.70 1.594538e-95
311.80 1.594538e-95
311.90 1.594538e-95
312.00 1.594538e-95
312.10 1.594538e-95
312.20 1.594538e-95
312.30 1.594538e-95
312.40 1.594538e-95
312.50 1.594538e-95
312.60 1.594538e-95
312.70 1.594538e-95
312.80 1.594538e-95
312.90 1.594538e-95
313.00 1.594538e-95
313.10 1.594538e-95
313.20 1.594538e-95
313.30 1.594538e-95
313.40 1.594538e-95
313.50 1.594538e-95
313.60 1.594538e-95
313.70 1.594538e-95
313.80 1.594538e-95
313.90 1.594538e-95
314.00 1.594538e-95
314.10 1.594538e-95
314.20 1.594538e-95
314.30 1.594538e-95
314.40 1.594538e-95
314.50 1.594538e-95
314.60 1.594538e-95
314.70 1.594538e-95
314.80 1.594538e-95
314.90 1.594538e-95
315.00 1.594538e-95
315.10 1.594538e-95
315.20 1.594538e-95
315.30 1.594538e-95
315.40 1.594538e-95
315.50 1.594538e-95
315.60 1.594538e-95
315.70 1.594538e-95
315.80 1.594538e-95
315.90 1.594538e-95
316.00 1.594538e-95
316.10 1.594538e-95
316.20 1.594538e-95
316.30 1.594538e-95
316.40 1.594538e-95
316.50 1.594538e-95
316.60 1.594538e-95
316.70 1.594538e-95
316.80 1.594538e-95
316.90 1.594538e-95
317.00 1.594538e-95
317.10 1.594538e-95
317.20 1.594538e-95
317.30 1.594538e-95
317.40 1.594538e-95
317.50 1.594538e-95
317.60 1.594538e-95
317.70 1.594538e-95
317.80 1.594538e-95
317.90 1.594538e-95
318.00 1.594538e-95
318.10 1.594538e-95
318.20 1.594538e-95
318.30 1.594538e-95
318.40 1.594538e-95
318.50 1.594538e-95
318.60 1.594538e-95
318.70 1.594538e-95
318.80 1.594538e-95
318.90 1.594538e-95
319.00 1.594538e-95
319.10 1.594538e-95
319.20 1.594538e-95
319.30 1.594538e-95
319.40 1.594538e-95
319.50 1.594538e-95
319.60 1.594538e-95
319.70 1.594538e-95
319.80 1.594538e-95
319.90 1.594538e-95
320.00 1.594538e-95
320.10 1.594538e-95
320.20 1.594538e-95
320.30 1.594538e-95
320.40 1.594538e-95
320.50 1.594538e-95
320.60 1.594538e-95
320.70 1.594538e-95
320.80 1.594538e-95
320.90 1.594538e-95
321.00 1.594538e-95
321.10 1.594538e-95
321.20 1.594538e-95
321.30 1.594538e-95
321.40 1.594538e-95
321.50 1.594538e-95
321.60 1.594538e-95
321.70 1.594538e-95
321.80 1.594538e-95
321.90 1.594538e-95
322.00 1.594538e-95
322.10 1.594538e-95
322.20 1.594538e-95
322.30 1.594538e-95
322.40 1.594538e-95
322.50 1.594538e-95
322.60 1.594538e-95
322.70 1.594538e-95
322.80 1.594538e-95
322.90 1.594538e-95
323.00 1.594538e-95
323.10 1.594538e-95
323.20 1.594538e-95
323.30 1.594538e-95
323.40 1.594538e-95
323.50 1.594538e-95
323.60 1.594538e-95
323.70 1.594538e-95
323.80 1.594538e-95
323.90 1.594538e-95
324.00 1.594538e-95
324.10 1.594538e-95
324.20 1.594538e-95
324.30 1.594538e-95
324.40 1.594538e-95
324.50 1.594538e-95
324.60 1.594538e-95
324.70 1.594538e-95
324.80 1.594538e-95
324.90 1.594538e-95
325.00 1.594538e-95
325.10 1.594538e-95
325.20 1.594538e-95
325.30 1.594538e-95
325.40 1.594538e-95
325.50 1.594538e-95
325.60 1.594538e-95
325.70 1.594538e-95
325.80 1.594538e-95
325.90 1.594538e-95
326.00 1.594538e-95
326.10 1.594538e-95
326.20 1.594538e-95
326.30 1.594538e-95
326.40 1.594538e-95
326.50 1.594538e-95
326.60 1.594538e-95
326.70 1.594538e-95
326.80 1.594538e-95
326.90 1.594538e-95
327.00 1.594538e-95
327.10 1.594538e-95
327.20 1.594538e-95
327.30 1.594538e-95
327.40 1.594538e-95
327.50 1.594538e-95
327.60 1.594538e-95
327.70 1.594538e-95
327.80 1.594538e-95
327.90 1.594538e-95
328.00 1.594538e-95
328.10 1.594538e-95
328.20 1.594538e-95
328.30 1.594538e-95
328.40 1.594538e-95
328.50 1.594538e-95
328.60 1.594538e-95
328.70 1.594538e-95
328.80 1.594538e-95
328.90 1.594538e-95
329.00 1.594538e-95
329.10 1.594538e-95
329.20 1.594538e-95
329.30 1.594538e-95
329.40 1.594538e-95
329.50 1.594538e-95
329.60 1.594538e-95
329.70 1.594538e-95
329.80 1.594538e-95
329.90 1.594538e-95
330.00 1.594538e-95
330.10 1.594538e-95
330.20 1.594538e-95
330.30 1.594538e-95
330.40 1.594538e-95
330.50 1.594538e-95
330.60 1.594538e-95
330.70 1.594538e-95
330.80 1.594538e-95
330.90 1.594538e-95
331.00 1.594538e-95
331.10 1.594538e-95
331.20 1.594538e-95
331.30 1.594538e-95
331.40 1.594538e-95
331.50 1.594538e-95
331.60 1.594538e-95
331.70 1.594538e-95
331.80 1.594538e-95
331.90 1.594538e-95
332.00 1.594538e-95
332.10 1.594538e-95
332.20 1.594538e-95
332.30 1.594538e-95
332.40 1.594538e-95
332.50 1.594538e-95
332.60 1.594538e-95
332.70 1.594538e-95
332.80 1.594538e-95
332.90 1.594538e-95
333.00 1.594538e-95
333.10 1.594538e-95
333.20 1.594538e-95
333.30 1.594538e-95
333.40 1.594538e-95
333.50 1.594538e-95
333.60 1.594538e-95
333.70 1.594538e-95
333.80 1.594538e-95
333.90 1.594538e-95
334.00 1.594538e-95
334.10 1.594538e-95
334.20 1.594538e-95
334.30 1.594538e-95
334.40 1.594538e-95
334.50 1.594538e-95
334.60 1.594538e-95
334.70 1.594538e-95
334.80 1.594538e-95
334.90 1.594538e-95
335.00 1.594538e-95
335.10 1.594538e-95
335.20 1.594538e-95
335.30 1.594538e-95
335.40 1.594538e-95
335.50 1.594538e-95
335.60 1.594538e-95
335.70 1.594538e-95
335.80 1.594538e-95
335.90 1.594538e-95
336.00 1.594538e-95
336.10 1.594538e-95
336.20 1.594538e-95
336.30 1.594538e-95
336.40 1.594538e-95
336.50 1.594538e-95
336.60 1.594538e-95
336.70 1.594538e-95
336.80 1.594538e-95
336.90 1.594538e-95
337.00 1.594538e-95
337.10 1.594538e-95
337.20 1.594538e-95
337.30 1.594538e-95
337.40 1.594538e-95
337.50 1.594538e-95
337.60 1.594538e-95
337.70 1.594538e-95
337.80 1.594538e-95
337.90 1.594538e-95
338.00 1.594538e-95
338.10 1.594538e-95
338.20 1.594538e-95
338.30 1.594538e-95
338.40 1.594538e-95
338.50 1.594538e-95
338.60 1.594538e-95
338.70 1.594538e-95
338.80 1.594538e-95
338.90 1.594538e-95
339.00 1.594538e-95
339.10 1.594538e-95
339.20 1.594538e-95
339.30 1.594538e-95
339.40 1.594538e-95
339.50 1.594538e-95
339.60 1.594538e-95
339.70 1.594538e-95
339.80 1.594538e-95
339.90 1.594538e-95
340.00 1.594538e-95
340.10 1.594538e-95
340.20 1.594538e-95
340.30 1.594538e-95
340.40 1.594538e-95
340.50 1.594538e-95
340.60 1.594538e-95
340.70 1.594538e-95
340.80 1.594538e-95
340.90 1.594538e-95
341.00 1.594538e-95
341.10 1.594538e-95
341.20 1.594538e-95
341.30 1.594538e-95
341.40 1.594538e-95
341.50 1.594538e-95
341.60 1.594538e-95
341.70 1.594538e-95
341.80 1.594538e-95
341.90 1.594538e-95
342.00 1.594538e-95
342.10 1.594538e-95
342.20 1.594538e-95
342.30 1.594538e-95
342.40 1.594538e-95
342.50 1.594538e-95
342.60 1.594538e-95
342.70 1.594538e-95
342.80 1.594538e-95
342.90 1.594538e-95
343.00 1.594538e-95
343.10 1.594538e-95
343.20 1.594538e-95
343.30 1.594538e-95
343.40 1.594538e-95
343.50 1.594538e-95
343.60 1.594538e-95
343.70 1.594538e-95
343.80 1.594538e-95
343.90 1.594538e-95
344.00 1.594538e-95
344.10 1.594538e-95
344.20 1.594538e-95
344.30 1.594538e-95
344.40 1.594538e-95
344.50 1.594538e-95
344.60 1.594538e-95
344.70 1.594538e-95
344.80 1.594538e-95
344.90 1.594538e-95
345.00 1.594538e-95
345.10 1.594538e-95
345.20 1.594538e-95
345.30 1.594538e-95
345.40 1.594538e-95
345.50 1.594538e-95
345.60 1.594538e-95
345.70 1.594538e-95
345.80 1.594538e-95
345.90 1.594538e-95
346.00 1.594538e-95
346.10 1.594538e-95
346.20 1.594538e-95
346.30 1.594538e-95
346.40 1.594538e-95
346.50 1.594538e-95
346.60 1.594538e-95
346.70 1.594538e-95
346.80 1.594538e-95
346.90 1.594538e-95
347.00 1.594538e-95
347.10 1.594538e-95
347.20 1.594538e-95
347.30 1.594538e-95
347.40 1.594538e-95
347.50 1.594538e-95
347.60 1.594538e-95
347.70 1.594538e-95
347.80 1.594538e-95
347.90 1.594538e-95
348.00 1.594538e-95
348.10 1.594538e-95
348.20 1.594538e-95
348.30 1.594538e-95
348.40 1.594538e-95
348.50 1.594538e-95
348.60 1.594538e-95
348.70 1.594538e-95
348.80 1.594538e-95
348.90 1.594538e-95
349.00 1.594538e-95
349.10 1.594538e-95
349.20 1.594538e-95
349.30 1.594538e-95
349.40 1.594538e-95
349.50 1.594538e-95
349.60 1.594538e-95
349.70 1.594538e-95
349.80 1.594538e-95
349.90 1.594538e-95
350.00 1.594538e-95
350.10 1.594538e-95
350.20 1.594538e-95
350.30 1.594538e-95
350.40 1.594538e-95
350.50 1.594538e-95
350.60 1.594538e-95
350.70 1.594538e-95
350.80 1.594538e-95
350.90 1.594538e-95
351.00 1.594538e-95
351.10 1.594538e-95
351.20 1.594538e-95
351.30 1.594538e-95
351.40 1.594538e-95
351.50 1.594538e-95
351.60 1.594538e-95
351.70 1.594538e-95
351.80 1.594538e-95
351.90 1.594538e-95
352.00 1.594538e-95
352.10 1.594538e-95
352.20 1.594538e-95
352.30 1.594538e-95
352.40 1.594538e-95
352.50 1.594538e-95
352.60 1.594538e-95
352.70 1.594538e-95
352.80 1.594538e-95
352.90 1.594538e-95
353.00 1.594538e-95
353.10 1.594538e-95
353.20 1.594538e-95
353.30 1.594538e-95
353.40 1.594538e-95
353.50 1.594538e-95
353.60 1.594538e-95
353.70 1.594538e-95
353.80 1.594538e-95
353.90 1.594538e-95
354.00 1.594538e-95
354.10 1.594538e-95
354.20 1.594538e-95
354.30 1.594538e-95
354.40 1.594538e-95
354.50 1.594538e-95
354.60 1.594538e-95
354.70 1.594538e-95
354.80 1.594538e-95
354.90 1.594538e-95
355.00 1.594538e-95
355.10 1.594538e-95
355.20 1.594538e-95
355.30 1.594538e-95
355.40 1.594538e-95
355.50 1.594538e-95
355.60 1.594538e-95
355.70 1.594538e-95
355.80 1.594538e-95
355.90 1.594538e-95
356.00 1.594538e-95
356.10 1.594538e-95
356.20 1.594538e-95
356.30 1.594538e-95
356.40 1.594538e-95
356.50 1.594538e-95
356.60 1.594538e-95
356.70 1.594538e-95
356.80 1.594538e-95
356.90 1.594538e-95
357.00 1.594538e-95
357.10 1.594538e-95
357.20 1.594538e-95
357.30 1.594538e-95
357.40 1.594538e-95
357.50 1.594538e-95
357.60 1.594538e-95
357.70 1.594538e-95
357.80 1.594538e-95
357.90 1.594538e-95
358.00 1.594538e-95
358.10 1.594538e-95
358.20 1.594538e-95
358.30 1.594538e-95
358.40 1.594538e-95
358.50 1.594538e-95
358.60 1.594538e-95
358.70 1.594538e-95
358.80 1.594538e-95
358.90 1.594538e-95
359.00 1.594538e-95
359.10 1.594538e-95
359.20 1.594538e-95
359.30 1.594538e-95
359.40 1.594538e-95
359.50 1.594538e-95
359.60 1.594538e-95
359.70 1.594538e-95
359.80 1.594538e-95
359.90 1.594538e-95
360.00 1.594538e-95
360.10 1.594538e-95
360.20 1.594538e-95
360.30 1.594538e-95
360.40 1.594538e-95
360.50 1.594538e-95
360.60 1.594538e-95
360.70 1.594538e-95
360.80 1.594538e-95
360.90 1.594538e-95
361.00 1.594538e-95
361.10 1.594538e-95
361.20 1.594538e-95
361.30 1.594538e-95
361.40 1.594538e-95
361.50 1.594538e-95
361.60 1.594538e-95
361.70 1.594538e-95
361.80 1.594538e-95
361.90 1.594538e-95
362.00 1.594538e-95
362.10 1.594538e-95
362.20 1.594538e-95
362.30 1.594538e-95
362.40 1.594538e-95
362.50 1.594538e-95
362.60 1.594538e-95
362.70 1.594538e-95
362.80 1.594538e-95
362.90 1.594538e-95
363.00 1.594538e-95
363.10 1.594538e-95
363.20 1.594538e-95
363.30 1.594538e-95
363.40 1.594538e-95
363.50 1.594538e-95
363.60 1.594538e-95
363.70 1.594538e-95
363.80 1.594538e-95
363.90 1.594538e-95
364.00 1.594538e-95
364.10 1.594538e-95
364.20 1.594538e-95
364.30 1.594538e-95
364.40 1.594538e-95
364.50 1.594538e-95
364.60 1.594538e-95
364.70 1.594538e-95
364.80 1.594538e-95
364.90 1.594538e-95
365.00 1.594538e-95
365.10 1.594538e-95
365.20 1.594538e-95
365.30 1.594538e-95
365.40 1.594538e-95
365.50 1.594538e-95
365.60 1.594538e-95
365.70 1.594538e-95
365.80 1.594538e-95
365.90 1.594538e-95
366.00 1.594538e-95
366.10 1.594538e-95
366.20 1.594538e-95
366.30 1.594538e-95
366.40 1.594538e-95
366.50 1.594538e-95
366.60 1.594538e-95
366.70 1.594538e-95
366.80 1.594538e-95
366.90 1.594538e-95
367.00 1.594538e-95
367.10 1.594538e-95
367.20 1.594538e-95
367.30 1.594538e-95
367.40 1.594538e-95
367.50 1.594538e-95
367.60 1.594538e-95
367.70 1.594538e-95
367.80 1.594538e-95
367.90 1.594538e-95
368.00 1.594538e-95
368.10 1.594538e-95
368.20 1.594538e-95
368.30 1.594538e-95
368.40 1.594538e-95
368.50 1.594538e-95
368.60 1.594538e-95
368.70 1.594538e-95
368.80 1.594538e-95
368.90 1.594538e-95
369.00 1.594538e-95
369.10 1.594538e-95
369.20 1.594538e-95
369.30 1.594538e-95
369.40 1.594538e-95
369.50 1.594538e-95
369.60 1.594538e-95
369.70 1.594538e-95
369.80 1.594538e-95
369.90 1.594538e-95
370.00 1.594538e-95
370.10 1.594538e-95
370.20 1.594538e-95
370.30 1.594538e-95
370.40 1.594538e-95
370.50 1.594538e-95
370.60 1.594538e-95
370.70 1.594538e-95
370.80 1.594538e-95
370.90 1.594538e-95
371.00 1.594538e-95
371.10 1.594538e-95
371.20 1.594538e-95
371.30 1.594538e-95
371.40 1.594538e-95
371.50 1.594538e-95
371.60 1.594538e-95
371.70 1.594538e-95
371.80 1.594538e-95
371.90 1.594538e-95
372.00 1.594538e-95
372.10 1.594538e-95
372.20 1.594538e-95
372.30 1.594538e-95
372.40 1.594538e-95
372.50 1.594538e-95
372.60 1.594538e-95
372.70 1.594538e-95
372.80 1.594538e-95
372.90 1.594538e-95
373.00 1.594538e-95
373.10 1.594538e-95
373.20 1.594538e-95
373.30 1.594538e-95
373.40 1.594538e-95
373.50 1.594538e-95
373.60 1.594538e-95
373.70 1.594538e-95
373.80 1.594538e-95
373.90 1.594538e-95
374.00 1.594538e-95
374.10 1.594538e-95
374.20 1.594538e-95
374.30 1.594538e-95
374.40 1.594538e-95
374.50 1.594538e-95
374.60 1.594538e-95
374.70 1.594538e-95
374.80 1.594538e-95
374.90 1.594538e-95
375.00 1.594538e-95
375.10 1.594538e-95
375.20 1.594538e-95
375.30 1.594538e-95
375.40 1.594538e-95
375.50 1.594538e-95
375.60 1.594538e-95
375.70 1.594538e-95
375.80 1.594538e-95
375.90 1.594538e-95
376.00 1.594538e-95
376.10 1.594538e-95
376.20 1.594538e-95
376.30 1.594538e-95
376.40 1.594538e-95
376.50 1.594538e-95
376.60 1.594538e-95
376.70 1.594538e-95
376.80 1.594538e-95
376.90 1.594538e-95
377.00 1.594538e-95
377.10 1.594538e-95
377.20 1.594538e-95
377.30 1.594538e-95
377.40 1.594538e-95
377.50 1.594538e-95
377.60 1.594538e-95
377.70 1.594538e-95
377.80 1.594538e-95
377.90 1.594538e-95
378.00 1.594538e-95
378.10 1.594538e-95
378.20 1.594538e-95
378.30 1.594538e-95
378.40 1.594538e-95
378.50 1.594538e-95
378.60 1.594538e-95
378.70 1.594538e-95
378.80 1.594538e-95
378.90 1.594538e-95
379.00 1.594538e-95
379.10 1.594538e-95
379.20 1.594538e-95
379.30 1.594538e-95
379.40 1.594538e-95
379.50 1.594538e-95
379.60 1.594538e-95
379.70 1.594538e-95
379.80 1.594538e-95
379.90 1.594538e-95
380.00 1.594538e-95
380.10 1.594538e-95
380.20 1.594538e-95
380.30 1.594538e-95
380.40 1.594538e-95
380.50 1.594538e-95
380.60 1.594538e-95
380.70 1.594538e-95
380.80 1.594538e-95
380.90 1.594538e-95
381.00 1.594538e-95
381.10 1.594538e-95
381.20 1.594538e-95
381.30 1.594538e-95
381.40 1.594538e-95
381.50 1.594538e-95
381.60 1.594538e-95
381.70 1.594538e-95
381.80 1.594538e-95
381.90 1.594538e-95
382.00 1.594538e-95
382.10 1.594538e-95
382.20 1.594538e-95
382.30 1.594538e-95
382.40 1.594538e-95
382.50 1.594538e-95
382.60 1.594538e-95
382.70 1.594538e-95
382.80 1.594538e-95
382.90 1.594538e-95
383.00 1.594538e-95
383.10 1.594538e-95
383.20 1.594538e-95
383.30 1.594538e-95
383.40 1.594538e-95
383.50 1.594538e-95
383.60 1.594538e-95
383.70 1.594538e-95
383.80 1.594538e-95
383.90 1.594538e-95
384.00 1.594538e-95
384.10 1.594538e-95
384.20 1.594538e-95
384.30 1.594538e-95
384.40 1.594538e-95
384.50 1.594538e-95
384.60 1.594538e-95
384.70 1.594538e-95
384.80 1.594538e-95
384.90 1.594538e-95
385.00 1.594538e-95
385.10 1.594538e-95
385.20 1.594538e-95
385.30 1.594538e-95
385.40 1.594538e-95
385.50 1.594538e-95
385.60 1.594538e-95
385.70 1.594538e-95
385.80 1.594538e-95
385.90 1.594538e-95
386.00 1.594538e-95
386.10 1.594538e-95
386.20 1.594538e-95
386.30 1.594538e-95
386.40 1.594538e-95
386.50 1.594538e-95
386.60 1.594538e-95
386.70 1.594538e-95
386.80 1.594538e-95
386.90 1.594538e-95
387.00 1.594538e-95
387.10 1.594538e-95
387.20 1.594538e-95
387.30 1.594538e-95
387.40 1.594538e-95
387.50 1.594538e-95
387.60 1.594538e-95
387.70 1.594538e-95
387.80 1.594538e-95
387.90 1.594538e-95
388.00 1.594538e-95
388.10 1.594538e-95
388.20 1.594538e-95
388.30 1.594538e-95
388.40 1.594538e-95
388.50 1.594538e-95
388.60 1.594538e-95
388.70 1.594538e-95
388.80 1.594538e-95
388.90 1.594538e-95
389.00 1.594538e-95
389.10 1.594538e-95
389.20 1.594538e-95
389.30 1.594538e-95
389.40 1.594538e-95
389.50 1.594538e-95
389.60 1.594538e-95
389.70 1.594538e-95
389.80 1.594538e-95
389.90 1.594538e-95
390.00 1.594538e-95
390.10 1.594538e-95
390.20 1.594538e-95
390.30 1.594538e-95
390.40 1.594538e-95
390.50 1.594538e-95
390.60 1.594538e-95
390.70 1.594538e-95
390.80 1.594538e-95
390.90 1.594538e-95
391.00 1.594538e-95
391.10 1.594538e-95
391.20 1.594538e-95
391.30 1.594538e-95
391.40 1.594538e-95
391.50 1.594538e-95
391.60 1.594538e-95
391.70 1.594538e-95
391.80 1.594538e-95
391.90 1.594538e-95
392.00 1.594538e-95
392.10 1.594538e-95
392.20 1.594538e-95
392.30 1.594538e-95
392.40 1.594538e-95
392.50 1.594538e-95
392.60 1.594538e-95
392.70 1.594538e-95
392.80 1.594538e-95
392.90 1.594538e-95
393.00 1.594538e-95
393.10 1.594538e-95
393.20 1.594538e-95
393.30 1.594538e-95
393.40 1.594538e-95
393.50 1.594538e-95
393.60 1.594538e-95
393.70 1.594538e-95
393.80 1.594538e-95
393.90 1.594538e-95
394.00 1.594538e-95
394.10 1.594538e-95
394.20 1.594538e-95
394.30 1.594538e-95
394.40 1.594538e-95
394.50 1.594538e-95
394.60 1.594538e-95
394.70 1.594538e-95
394.80 1.594538e-95
394.90 1.594538e-95
395.00 0.01463514
395.10 0.03165992
395.20 0.0504641
395.30 0.06993659
395.40 0.088203
395.50 0.1031288
395.60 0.1131887
395.70 0.1178871
395.80 0.1178871
395.90 0.1178871
396.00 0.1178871
396.10 0.1178871
396.20 0.1178871
396.30 0.1197448
396.40 0.1240917
396.50 0.1296549
396.60 0.1351283
396.70 0.1396909
396.80 0.1429925
396.90 0.1452047
397.00 0.1468298
397.10 0.1483546
397.20 0.1501633
397.30 0.1525574
397.40 0.1556548
397.50 0.1596531
397.60 0.1648872
397.70 0.1712792
397.80 0.1785629
397.90 0.1863614
398.00 0.1942083
398.10 0.2019082
398.20 0.2095029
398.30 0.2170447
398.40 0.2245304
398.50 0.2321168
398.60 0.2397413
398.70 0.247235
398.80 0.2547551
398.90 0.2625612
399.00 0.2707686
399.10 0.2794985
399.20 0.2890589
399.30 0.2998105
399.40 0.3114714
399.50 0.3229671
399.60 0.3334033
399.70 0.3424026
399.80 0.3497942
399.90 0.3552132
400.00 0.358353
400.10 0.3590461
400.20 0.3590461
400.30 0.3590461
400.40 0.3590461
400.50 0.3590461
400.60 0.3590461
400.70 0.3590461
400.80 0.3613856
400.90 0.3667211
401.00 0.3745441
401.10 0.3838202
401.20 0.3933179
401.30 0.402373
401.40 0.4111624
401.50 0.420255
401.60 0.429871
401.70 0.4390998
401.80 0.4465019
401.90 0.4508756
402.00 0.4515186
402.10 0.4515186
402.20 0.4515186
402.30 0.4515186
402.40 0.4515186
402.50 0.4515186
402.60 0.4515186
402.70 0.4515186
402.80 0.4515186
402.90 0.4515186
403.00 0.4515186
403.10 0.4523991
403.20 0.4542436
403.30 0.4565775
403.40 0.4590202
403.50 0.4612869
403.60 0.4630207
403.70 0.4640565
403.80 0.4646731
403.90 0.4654684
404.00 0.46698
404.10 0.4694275
404.20 0.4727439
404.30 0.4768359
404.40 0.4818555
404.50 0.4883886
404.60 0.4973602
404.70 0.5096429
404.80 0.5253629
404.90 0.5437801
405.00 0.5491537
405.10 0.552585
405.20 0.5537159
405.30 0.5529864
405.40 0.5520176
405.50 0.5533087
405.60 0.5592816
405.70 0.571024
405.80 0.5878041
405.90 0.6046385
406.00 0.6212786
406.10 0.6374051
406.20 0.6528083
406.30 0.6658772
406.40 0.6763831
406.50 0.6856839
406.60 0.6946024
406.70 0.7031583
406.80 0.7112119
406.90 0.7184704
407.00 0.7244166
407.10 0.7288018
407.20 0.7317224
407.30 0.73336
407.40 0.7337596
407.50 0.7325281
407.60 0.7292624
407.70 0.7240718
407.80 0.7173217
407.90 0.709811
408.00 0.7029652
408.10 0.6983201
408.20 0.6967518
408.30 0.6982916
408.40 0.7025209
408.50 0.7084759
408.60 0.7150134
408.70 0.7208729
408.80 0.7248014
408.90 0.7262591
409.00 0.7254201
409.10 0.7226922
409.20 0.718453
409.30 0.7130405
409.40 0.7071485
409.50 0.701679
409.60 0.6969351
409.70 0.6926979
409.80 0.6886789
409.90 0.68524
410.00 0.6832868
410.10 0.6837429
410.20 0.6853427
410.30 0.6877733
410.40 0.6917109
410.50 0.698058
410.60 0.7074098
410.70 0.7199062
410.80 0.7330478
410.90 0.7459912
411.00 0.7589665
411.10 0.7721119
411.20 0.7851911
411.30 0.7973739
411.40 0.8069428
411.50 0.8119137
411.60 0.8115182
411.70 0.8069716
411.80 0.800488
411.90 0.7961143
412.00 0.7954713
412.10 0.7954713
412.20 0.7958439
412.30 0.7986692
412.40 0.8040748
412.50 0.8118831
412.60 0.8213615
412.70 0.8311795
412.80 0.8400389
412.90 0.8471876
413.00 0.8525475
413.10 0.8557665
413.20 0.8578137
413.30 0.8604874
413.40 0.8653231
413.50 0.8733222
413.60 0.8848167
413.70 0.8990923
413.80 0.9142675
413.90 0.9278752
414.00 0.9381188
414.10 0.9444055
414.20 0.9472322
414.30 0.9476523
414.40 0.9466102
414.50 0.9446786
414.60 0.9416101
414.70 0.9365412
414.80 0.9290145
414.90 0.9194366
415.00 0.9087517
415.10 0.8979532
415.20 0.8878321
415.30 0.8787809
415.40 0.8706612
415.50 0.8626769
415.60 0.8534316
415.70 0.8421739
415.80 0.8292499
415.90 0.8152991
416.00 0.8012416
416.10 0.7884074
416.20 0.7780066
416.30 0.7704467
416.40 0.7655607
416.50 0.7631762
416.60 0.7633505
416.70 0.7664003
416.80 0.7720037
416.90 0.7791036
417.00 0.786957
417.10 0.7949391
417.20 0.8023501
417.30 0.8087242
417.40 0.8141519
417.50 0.8194109
417.60 0.8253313
417.70 0.8325111
417.80 0.841129
417.90 0.8506904
418.00 0.860022
418.10 0.8672714
418.20 0.8709028
418.30 0.8703066
418.40 0.8653755
418.50 0.856569
418.60 0.8449093
418.70 0.8320567
418.80 0.8206082
418.90 0.8113443
419.00 0.8039759
419.10 0.7979739
419.20 0.7926528
419.30 0.7873137
419.40 0.7815447
419.50 0.7755186
419.60 0.7698263
419.70 0.7650642
419.80 0.7616917
419.90 0.7597115
420.00 0.7599809
420.10 0.7632245
420.20 0.7698187
420.30 0.7790412
420.40 0.7889593
420.50 0.7969547
420.60 0.8006799
420.70 0.7988472
420.80 0.7911376
420.90 0.7776511
421.00 0.7588074
421.10 0.7363859
421.20 0.7138091
421.30 0.6925712
421.40 0.6742129
421.50 0.6601493
421.60 0.6512238
421.70 0.6479252
421.80 0.6495373
421.90 0.6529975
422.00 0.6569579
422.10 0.6610309
422.20 0.6646457
422.30 0.666
422.40 0.665968
422.50 0.6659235
422.60 0.6675131
422.70 0.6727476
422.80 0.6831509
422.90 0.6988854
423.00 0.7187416
423.10 0.7405581
423.20 0.7615274
423.30 0.7788625
423.40 0.7903863
423.50 0.7946187
423.60 0.7912204
423.70 0.7811417
423.80 0.766545
423.90 0.752142
424.00 0.7403868
424.10 0.7316526
424.20 0.7270061
424.30 0.7276348
424.40 0.7325434
424.50 0.7399768
424.60 0.7483657
424.70 0.7567342
424.80 0.7645482
424.90 0.7713
425.00 0.7761676
425.10 0.7783703
425.20 0.7773903
425.30 0.7732797
425.40 0.7665495
425.50 0.758317
425.60 0.7515295
425.70 0.7463463
425.80 0.7424903
425.90 0.7396067
426.00 0.737024
426.10 0.7342712
426.20 0.7312372
426.30 0.7267162
426.40 0.7201378
426.50 0.7115903
426.60 0.7015783
426.70 0.6905955
426.80 0.6794587
426.90 0.6692205
427.00 0.6605258
427.10 0.6536237
427.20 0.6483468
427.30 0.6445321
427.40 0.6420733
427.50 0.6402845
427.60 0.6381323
427.70 0.635069
427.80 0.6311934
427.90 0.6268556
428.00 0.6225971
428.10 0.6193102
428.20 0.6176205
428.30 0.6176797
428.40 0.6194254
428.50 0.622463
428.60 0.6264731
428.70 0.6310938
428.80 0.6350813
428.90 0.6385415
429.00 0.6421559
429.10 0.6463861
429.20 0.6513249
429.30 0.656955
429.40 0.6631191
429.50 0.6692542
429.60 0.6748943
429.70 0.6799813
429.80 0.6847169
429.90 0.6894378
430.00 0.6930745
430.10 0.6944439
430.20 0.6926798
430.30 0.6881432
430.40 0.6826519
430.50 0.6786911
430.60 0.6784704
430.70 0.6830122
430.80 0.6921801
430.90 0.7052943
431.00 0.7210696
431.10 0.737423
431.20 0.7514846
431.30 0.7626539
431.40 0.7706636
431.50 0.775787
431.60 0.7786453
431.70 0.7796552
431.80 0.7794749
431.90 0.7784758
432.00 0.7771102
432.10 0.7756693
432.20 0.7743382
432.30 0.7729691
432.40 0.7708525
432.50 0.7669401
432.60 0.7601135
432.70 0.749448
432.80 0.7345052
432.90 0.71548
433.00 0.6931025
433.10 0.6686624
433.20 0.6441865
433.30 0.6218439
433.40 0.6030417
433.50 0.5891547
433.60 0.5808833
433.70 0.5780683
433.80 0.5797643
433.90 0.5825748
434.00 0.5848647
434.10 0.5865183
434.20 0.5863621
434.30 0.5830358
434.40 0.5774793
434.50 0.5711071
434.60 0.5651695
434.70 0.5607834
434.80 0.5585658
434.90 0.5584111
435.00 0.559635
435.10 0.5612859
435.20 0.5627367
435.30 0.5638477
435.40 0.5650927
435.50 0.567032
435.60 0.5686647
435.70 0.5710343
435.80 0.5747322
435.90 0.5802222
436.00 0.5877741
436.10 0.5966925
436.20 0.6055182
436.30 0.6141401
436.40 0.6225448
436.50 0.6305349
436.60 0.6375453
436.70 0.6428259
436.80 0.645676
436.90 0.6457742
437.00 0.6430074
437.10 0.6379582
437.20 0.6320433
437.30 0.6262074
437.40 0.6209023
437.50 0.6167541
437.60 0.6144425
437.70 0.6142488
437.80 0.6157376
437.90 0.6182252
438.00 0.6211427
438.10 0.6241937
438.20 0.6274254
438.30 0.6309127
438.40 0.6350883
438.50 0.6407473
438.60 0.6485272
438.70 0.6588958
438.80 0.6717205
438.90 0.6860388
439.00 0.7004538
439.10 0.7136337
439.20 0.7248102
439.30 0.7334812
439.40 0.7392971
439.50 0.7423969
439.60 0.7431917
439.70 0.7423748
439.80 0.7407333
439.90 0.7386968
440.00 0.7362375
440.10 0.7332369
440.20 0.7298412
440.30 0.7261823
440.40 0.7220633
440.50 0.717008
440.60 0.7104122
440.70 0.7020897
440.80 0.6921525
440.90 0.6807735
441.00 0.6687267
441.10 0.6567954
441.20 0.645471
441.30 0.6351867
441.40 0.627177
441.50 0.6220536
441.60 0.6189004
441.70 0.6165068
441.80 0.6141566
441.90 0.6116954
442.00 0.6091006
442.10 0.6064685
442.20 0.6038122
442.30 0.6010017
442.40 0.5977446
442.50 0.5938933
442.60 0.589652
442.70 0.5852649
442.80 0.5818033
442.90 0.5797886
443.00 0.5792578
443.10 0.5800081
443.20 0.5814369
443.30 0.582541
443.40 0.5827392
443.50 0.5821281
443.60 0.5805693
443.70 0.5791843
443.80 0.5803631
443.90 0.5860352
444.00 0.5971107
444.10 0.6129585
444.20 0.6315289
444.30 0.6499333
444.40 0.6653102
444.50 0.675649
444.60 0.6799714
444.70 0.6779918
444.80 0.6702931
444.90 0.6585392
445.00 0.6453331
445.10 0.6335746
445.20 0.6253009
445.30 0.6210924
445.40 0.6201397
445.50 0.620859
445.60 0.6217155
445.70 0.6218168
445.80 0.6208488
445.90 0.6186241
446.00 0.6152094
446.10 0.6111812
446.20 0.6073964
446.30 0.6043052
446.40 0.6013848
446.50 0.5975143
446.60 0.5918755
446.70 0.5844683
446.80 0.576334
446.90 0.5699033
447.00 0.56594
447.10 0.5650854
447.20 0.568171
447.30 0.5750042
447.40 0.5852654
447.50 0.5980144
447.60 0.6115666
447.70 0.6241064
447.80 0.6344225
447.90 0.6418839
448.00 0.646167
448.10 0.6470388
448.20 0.6445947
448.30 0.6396082
448.40 0.6329753
448.50 0.6252705
448.60 0.6168705
448.70 0.6077024
448.80 0.5973137
448.90 0.585612
449.00 0.5730726
449.10 0.5604214
449.20 0.548505
449.30 0.5383086
449.40 0.5307669
449.50 0.526492
449.60 0.5253499
449.70 0.5262735
449.80 0.527989
449.90 0.5299543
450.00 0.5324972
450.10 0.5362145
450.20 0.5414077
450.30 0.5478314
450.40 0.5546768
450.50 0.5608398
450.60 0.5654654
450.70 0.56825
450.80 0.5697913
450.90 0.5714232
451.00 0.5746272
451.10 0.5809592
451.20 0.591718
451.30 0.6072331
451.40 0.6257942
451.50 0.6452597
451.60 0.6644902
451.70 0.6829127
451.80 0.7003754
451.90 0.7168736
452.00 0.7323193
452.10 0.7464531
452.20 0.758985
452.30 0.7699435
452.40 0.7798719
452.50 0.7896731
452.60 0.800183
452.70 0.8120549
452.80 0.8249614
452.90 0.8389167
453.00 0.8540825
453.10 0.8700495
453.20 0.885822
453.30 0.9007414
453.40 0.9147247
453.50 0.9271552
453.60 0.9381228
453.70 0.9470694
453.80 0.952496
453.90 0.9534498
454.00 0.9497031
454.10 0.9420499
454.20 0.9322131
454.30 0.9224479
454.40 0.9147239
454.50 0.9102893
454.60 0.9097155
454.70 0.912654
454.80 0.9179564
454.90 0.9242697
455.00 0.9306079
455.10 0.9364965
455.20 0.9419285
455.30 0.947277
455.40 0.9533558
455.50 0.9607366
455.60 0.9690152
455.70 0.9770748
455.80 0.9835337
455.90 0.9872179
456.00 0.9872545
456.10 0.9832295
456.20 0.9762203
456.30 0.9678439
456.40 0.958971
456.50 0.9520778
456.60 0.9498491
456.70 0.9533345
456.80 0.9619375
456.90 0.9731641
457.00 0.985581
457.10 0.9968821
457.20 1.004289
457.30 1.00666
457.40 1.003592
457.50 0.9958603
457.60 0.9852952
457.70 0.9738832
457.80 0.9633837
457.90 0.9550538
458.00 0.9493656
458.10 0.946295
458.20 0.9452495
458.30 0.9451619
458.40 0.9452959
458.50 0.9456258
458.60 0.9461376
458.70 0.9467733
458.80 0.9479631
458.90 0.9504729
459.00 0.9552075
459.10 0.9630102
459.20 0.9739248
459.30 0.9870591
459.40 1.001085
459.50 1.014579
459.60 1.026577
459.70 1.036678
459.80 1.044634
459.90 1.049987
460.00 1.052363
460.10 1.051954
460.20 1.049546
460.30 1.046065
460.40 1.042062
460.50 1.037998
460.60 1.034728
460.70 1.033056
460.80 1.033173
460.90 1.034782
461.00 1.037033
461.10 1.038697
461.20 1.038747
461.30 1.036888
461.40 1.033617
461.50 1.029726
461.60 1.025855
461.70 1.02233
461.80 1.019367
461.90 1.017179
462.00 1.015755
462.10 1.015115
462.20 1.015407
462.30 1.016476
462.40 1.018138
462.50 1.020262
462.60 1.022483
462.70 1.024283
462.80 1.025184
462.90 1.024982
463.00 1.023914
463.10 1.022927
463.20 1.023416
463.30 1.026105
463.40 1.030807
463.50 1.036928
463.60 1.043539
463.70 1.049473
463.80 1.053549
463.90 1.05497
464.00 1.053724
464.10 1.050359
464.20 1.045551
464.30 1.039867
464.40 1.0337
464.50 1.027377
464.60 1.021185
464.70 1.015741
464.80 1.011833
464.90 1.009772
465.00 1.009266
465.10 1.009515
465.20 1.009628
465.30 1.008902
465.40 1.006688
465.50 1.002913
465.60 0.9984784
465.70 0.9948935
465.80 0.9937064
465.90 0.9956317
466.00 1.000396
466.10 1.006967
466.20 1.012957
466.30 1.016319
466.40 1.017187
466.50 1.016028
466.60 1.012331
466.70 1.005886
466.80 0.9990024
466.90 0.9930577
467.00 0.9889886
467.10 0.9871177
467.20 0.9871465
467.30 0.9886074
467.40 0.9909562
467.50 0.9936038
467.60 0.9963151
467.70 0.9990778
467.80 1.001818
467.90 1.004521
468.00 1.007244
468.10 1.00993
468.20 1.01255
468.30 1.014958
468.40 1.01671
468.50 1.01736
468.60 1.016828
468.70 1.015484
468.80 1.014049
468.90 1.013105
469.00 1.01285
469.10 1.013218
469.20 1.014023
469.30 1.01502
469.40 1.015942
469.50 1.016867
469.60 1.018224
469.70 1.020579
469.80 1.024374
469.90 1.029807
470.00 1.036727
470.10 1.044417
470.20 1.051863
470.30 1.05847
470.40 1.064443
470.50 1.070568
470.60 1.077346
470.70 1.084807
470.80 1.092884
470.90 1.101046
471.00 1.108291
471.10 1.113516
471.20 1.115865
471.30 1.114991
471.40 1.111174
471.50 1.105278
471.60 1.098389
471.70 1.091178
471.80 1.083535
471.90 1.075001
472.00 1.065629
472.10 1.055893
472.20 1.046448
472.30 1.038086
472.40 1.031165
472.50 1.025702
472.60 1.02169
472.70 1.018867
472.80 1.01661
472.90 1.014265
473.00 1.0112
473.10 1.006938
473.20 1.001396
473.30 0.9950614
473.40 0.9888663
473.50 0.9837374
473.60 0.9804039
473.70 0.9793086
473.80 0.9807834
473.90 0.9847636
474.00 0.9905325
474.10 0.9972471
474.20 1.004174
474.30 1.010477
474.40 1.015566
474.50 1.019162
474.60 1.021364
474.70 1.022631
474.80 1.023564
474.90 1.025096
475.00 1.028076
475.10 1.032939
475.20 1.039465
475.30 1.046735
475.40 1.053506
475.50 1.058367
475.60 1.059918
475.70 1.05721
475.80 1.05015
475.90 1.041275
476.00 1.032338
476.10 1.024362
476.20 1.018371
476.30 1.015009
476.40 1.014231
476.50 1.015177
476.60 1.016762
476.70 1.018833
476.80 1.019587
476.90 1.018622
477.00 1.016312
477.10 1.013862
477.20 1.012507
477.30 1.012991
477.40 1.015372
477.50 1.018907
477.60 1.022361
477.70 1.024579
477.80 1.024907
477.90 1.023418
478.00 1.02081
478.10 1.018129
478.20 1.016488
478.30 1.016927
478.40 1.019997
478.50 1.025376
478.60 1.032169
478.70 1.039203
478.80 1.045268
478.90 1.049446
479.00 1.051022
479.10 1.049442
479.20 1.044701
479.30 1.037424
479.40 1.028634
479.50 1.019353
479.60 1.010246
479.70 1.001423
479.80 0.9928961
479.90 0.9849015
480.00 0.9777278
480.10 0.9718041
480.20 0.9677996
480.30 0.9662881
480.40 0.9673149
480.50 0.9704952
480.60 0.9752557
480.70 0.980768
480.80 0.985852
480.90 0.9892714
481.00 0.9903477
481.10 0.9893937
481.20 0.9871796
481.30 0.9844262
481.40 0.9817479
481.50 0.9796674
481.60 0.9784303
481.70 0.9782711
481.80 0.9798649
481.90 0.983805
482.00 0.9901953
482.10 0.9985893
482.20 1.008092
482.30 1.017934
482.40 1.027657
482.50 1.036805
482.60 1.045098
482.70 1.052548
482.80 1.059246
482.90 1.065217
483.00 1.070466
483.10 1.074648
483.20 1.076894
483.30 1.07642
483.40 1.072829
483.50 1.06633
483.60 1.05805
483.70 1.049663
483.80 1.042523
483.90 1.037413
484.00 1.034511
484.10 1.033456
484.20 1.033723
484.30 1.034782
484.40 1.036069
484.50 1.037146
484.60 1.037782
484.70 1.037712
484.80 1.036536
484.90 1.033771
485.00 1.028878
485.10 1.021335
485.20 1.011265
485.30 0.9998125
485.40 0.9888314
485.50 0.980368
485.60 0.9761085
485.70 0.9770201
485.80 0.9830445
485.90 0.9917122
486.00 1.001567
486.10 1.011784
486.20 1.021579
486.30 1.030426
486.40 1.038156
486.50 1.044534
486.60 1.050735
486.70 1.057714
486.80 1.065862
486.90 1.074939
487.00 1.084263
487.10 1.092741
487.20 1.099197
487.30 1.102735
487.40 1.103185
487.50 1.101498
487.60 1.099201
487.70 1.097899
487.80 1.098846
487.90 1.102351
488.00 1.107715
488.10 1.113806
488.20 1.119575
488.30 1.124162
488.40 1.126879
488.50 1.127564
488.60 1.126927
488.70 1.126117
488.80 1.125962
488.90 1.126715
489.00 1.128337
489.10 1.130551
489.20 1.132977
489.30 1.135489
489.40 1.138278
489.50 1.141605
489.60 1.145439
489.70 1.149783
489.80 1.154713
489.90 1.160018
490.00 1.165074
490.10 1.169094
490.20 1.171392
490.30 1.171475
490.40 1.169245
490.50 1.164804
490.60 1.158318
490.70 1.149983
490.80 1.139974
490.90 1.128621
491.00 1.116714
491.10 1.105109
491.20 1.094418
491.30 1.08504
491.40 1.077163
491.50 1.070795
491.60 1.065718
491.70 1.06136
491.80 1.056929
491.90 1.051974
492.00 1.046134
492.10 1.039064
492.20 1.030671
492.30 1.020717
492.40 1.008679
492.50 0.9940509
492.60 0.9770381
492.70 0.9587404
492.80 0.9404807
492.90 0.9241867
493.00 0.9113316
493.10 0.9031168
493.20 0.8998993
493.30 0.9006869
493.40 0.9036506
493.50 0.9068539
493.60 0.9083774
493.70 0.9068635
493.80 0.9022043
493.90 0.8955621
494.00 0.8887659
494.10 0.8836005
494.20 0.881285
494.30 0.88244
494.40 0.8870591
494.50 0.8944891
494.60 0.9037317
494.70 0.9137043
494.80 0.9235031
494.90 0.9323446
495.00 0.939955
495.10 0.9466476
495.20 0.9527926
495.30 0.9586105
495.40 0.9641325
495.50 0.9691215
495.60 0.9732066
495.70 0.9761017
495.80 0.9780447
495.90 0.9797552
496.00 0.9820024
496.10 0.985528
496.20 0.9908653
496.30 0.9981627
496.40 1.006861
496.50 1.015759
496.60 1.023317
496.70 1.028062
496.80 1.029016
496.90 1.026066
497.00 1.020056
497.10 1.01253
497.20 1.005065
497.30 0.9987938
497.40 0.9942803
497.50 0.9913068
497.60 0.9890944
497.70 0.9866691
497.80 0.9834463
497.90 0.9795807
498.00 0.9758129
498.10 0.9728384
498.20 0.9709471
498.30 0.9702232
498.40 0.9706017
498.50 0.9717878
498.60 0.9733056
498.70 0.9746395
498.80 0.9754777
498.90 0.9759226
499.00 0.9762999
499.10 0.97715
499.20 0.9789159
499.30 0.9815706
499.40 0.9846571
499.50 0.9876969
499.60 0.99067
499.70 0.9936685
499.80 0.9965328
499.90 0.9988155
500.00 1
500.10 0.9996772
500.20 0.9974642
500.30 0.9931967
500.40 0.9871319
500.50 0.9799334
500.60 0.9725216
500.70 0.9659907
500.80 0.9615954
500.90 0.9606091
501.00 0.9636261
501.10 0.9703087
501.20 0.9799187
501.30 0.9916781
501.40 1.004693
501.50 1.017972
501.60 1.031059
501.70 1.044164
501.80 1.057747
501.90 1.07207
502.00 1.087462
502.10 1.104406
502.20 1.122908
502.30 1.142413
502.40 1.162313
502.50 1.182189
502.60 1.201293
502.70 1.218598
502.80 1.233521
502.90 1.24536
503.00 1.253996
503.10 1.259679
503.20 1.263504
503.30 1.267313
503.40 1.27278
503.50 1.280618
503.60 1.290835
503.70 1.302845
503.80 1.315328
503.90 1.326478
504.00 1.334778
504.10 1.339525
504.20 1.340635
504.30 1.33829
504.40 1.333004
504.50 1.325617
504.60 1.31679
504.70 1.306895
504.80 1.296406
504.90 1.2861
505.00 1.276774
505.10 1.269233
505.20 1.264346
505.30 1.262951
505.40 1.265524
505.50 1.271948
505.60 1.281895
505.70 1.294908
505.80 1.309783
505.90 1.324658
506.00 1.337739
506.10 1.347773
506.20 1.35406
506.30 1.356531
506.40 1.356097
506.50 1.354305
506.60 1.3527
506.70 1.352485
506.80 1.354275
506.90 1.357962
507.00 1.362788
507.10 1.367675
507.20 1.371814
507.30 1.374827
507.40 1.376675
507.50 1.377556
507.60 1.377708
507.70 1.377516
507.80 1.377116
507.90 1.376327
508.00 1.375123
508.10 1.373704
508.20 1.372283
508.30 1.370908
508.40 1.369601
508.50 1.368438
508.60 1.367479
508.70 1.366865
508.80 1.366698
508.90 1.366962
509.00 1.367543
509.10 1.368
509.20 1.367835
509.30 1.366754
509.40 1.364682
509.50 1.361753
509.60 1.358393
509.70 1.355293
509.80 1.353119
509.90 1.352394
510.00 1.353448
510.10 1.356331
510.20 1.36079
510.30 1.366258
510.40 1.372005
510.50 1.377249
510.60 1.381323
510.70 1.383711
510.80 1.383954
510.90 1.381533
511.00 1.376045
511.10 1.36766
511.20 1.357077
511.30 1.345349
511.40 1.333671
511.50 1.32297
511.60 1.313683
511.70 1.305828
511.80 1.298979
511.90 1.292467
512.00 1.285417
512.10 1.276917
512.20 1.266656
512.30 1.255159
512.40 1.243261
512.50 1.231628
512.60 1.220627
512.70 1.210237
512.80 1.200306
512.90 1.190697
513.00 1.181282
513.10 1.171864
513.20 1.162266
513.30 1.152481
513.40 1.142907
513.50 1.1343
513.60 1.127139
513.70 1.12156
513.80 1.117462
513.90 1.114553
514.00 1.112424
514.10 1.110383
514.20 1.108005
514.30 1.105727
514.40 1.104403
514.50 1.104768
514.60 1.107419
514.70 1.112746
514.80 1.12052
514.90 1.129896
515.00 1.139561
515.10 1.147887
515.20 1.153375
515.30 1.154686
515.40 1.150922
515.50 1.142117
515.60 1.128752
515.70 1.111338
515.80 1.090783
515.90 1.068474
516.00 1.045947
516.10 1.024574
516.20 1.005453
516.30 0.9891357
516.40 0.9753745
516.50 0.9633436
516.60 0.9522682
516.70 0.9419133
516.80 0.932572
516.90 0.9250016
517.00 0.920167
517.10 0.9187566
517.20 0.921193
517.30 0.9277652
517.40 0.9381936
517.50 0.9515574
517.60 0.9666664
517.70 0.9821325
517.80 0.9969514
517.90 1.010721
518.00 1.023259
518.10 1.034595
518.20 1.045132
518.30 1.055536
518.40 1.066437
518.50 1.078209
518.60 1.090681
518.70 1.103059
518.80 1.114426
518.90 1.123908
519.00 1.130652
519.10 1.134163
519.20 1.134263
519.30 1.131213
519.40 1.125814
519.50 1.119028
519.60 1.111606
519.70 1.104089
519.80 1.097065
519.90 1.091318
520.00 1.087461
520.10 1.085815
520.20 1.086553
520.30 1.089607
520.40 1.094478
520.50 1.100363
520.60 1.106489
520.70 1.112279
520.80 1.117607
520.90 1.123063
521.00 1.129753
521.10 1.138592
521.20 1.149713
521.30 1.162478
521.40 1.176074
521.50 1.189733
521.60 1.202507
521.70 1.213515
521.80 1.222568
521.90 1.230356
522.00 1.238106
522.10 1.246911
522.20 1.257238
522.30 1.268876
522.40 1.28113
522.50 1.293197
522.60 1.304659
522.70 1.315578
522.80 1.326226
522.90 1.336987
523.00 1.348268
523.10 1.360404
523.20 1.373158
523.30 1.385637
523.40 1.39667
523.50 1.405357
523.60 1.411604
523.70 1.415873
523.80 1.418988
523.90 1.422067
524.00 1.426069
524.10 1.431442
524.20 1.437884
524.30 1.444451
524.40 1.45021
524.50 1.454463
524.60 1.45684
524.70 1.45757
524.80 1.457475
524.90 1.457695
525.00 1.459206
525.10 1.462683
525.20 1.468483
525.30 1.476634
525.40 1.486946
525.50 1.499159
525.60 1.5132
525.70 1.529036
525.80 1.546466
525.90 1.565211
526.00 1.58514
526.10 1.606159
526.20 1.627924
526.30 1.649887
526.40 1.67145
526.50 1.692086
526.60 1.711432
526.70 1.729095
526.80 1.744606
526.90 1.757388
527.00 1.766691
527.10 1.772099
527.20 1.773636
527.30 1.771495
527.40 1.76621
527.50 1.758702
527.60 1.75003
527.70 1.741001
527.80 1.731872
527.90 1.722382
528.00 1.71183
528.10 1.699456
528.20 1.684753
528.30 1.667627
528.40 1.6486
528.50 1.628587
528.60 1.608643
528.70 1.589973
528.80 1.573643
528.90 1.560252
529.00 1.550071
529.10 1.543234
529.20 1.539787
529.30 1.539447
529.40 1.541588
529.50 1.545415
529.60 1.550084
529.70 1.554919
529.80 1.5594
529.90 1.563209
530.00 1.566512
530.10 1.569713
530.20 1.57318
530.30 1.577279
530.40 1.582523
530.50 1.589552
530.60 1.598799
530.70 1.610428
530.80 1.624121
530.90 1.638897
531.00 1.653371
531.10 1.66618
531.20 1.676426
531.30 1.683663
531.40 1.687677
531.50 1.688822
531.60 1.687992
531.70 1.686171
531.80 1.683878
531.90 1.680945
532.00 1.676965
532.10 1.671754
532.20 1.665422
532.30 1.658484
532.40 1.651781
532.50 1.646088
532.60 1.641873
532.70 1.639336
532.80 1.638389
532.90 1.63853
533.00 1.639182
533.10 1.639913
533.20 1.64062
533.30 1.641569
533.40 1.643159
533.50 1.64574
533.60 1.649486
533.70 1.654412
533.80 1.660453
533.90 1.667321
534.00 1.674525
534.10 1.681783
534.20 1.689101
534.30 1.696442
534.40 1.703402
534.50 1.709587
534.60 1.714894
534.70 1.71934
534.80 1.723016
534.90 1.725956
535.00 1.728316
535.10 1.730348
535.20 1.732175
535.30 1.734026
535.40 1.73611
535.50 1.738134
535.60 1.73934
535.70 1.739046
535.80 1.737018
535.90 1.733431
536.00 1.72856
536.10 1.722579
536.20 1.715664
536.30 1.708267
536.40 1.701286
536.50 1.695705
536.60 1.692103
536.70 1.690555
536.80 1.690789
536.90 1.692398
537.00 1.695047
537.10 1.698399
537.20 1.70206
537.30 1.70569
537.40 1.709179
537.50 1.712858
537.60 1.717389
537.70 1.723425
537.80 1.731176
537.90 1.740341
538.00 1.75036
538.10 1.760656
538.20 1.770932
538.30 1.781158
538.40 1.791362
538.50 1.801814
538.60 1.812911
538.70 1.824819
538.80 1.837496
538.90 1.850674
539.00 1.863893
539.10 1.876909
539.20 1.889956
539.30 1.903698
539.40 1.918962
539.50 1.936353
539.60 1.955885
539.70 1.976908
539.80 1.998387
539.90 2.019085
540.00 2.037822
540.10 2.053788
540.20 2.066519
540.30 2.076134
540.40 2.083272
540.50 2.088413
540.60 2.091709
540.70 2.093434
540.80 2.094207
540.90 2.094757
541.00 2.095953
541.10 2.098777
541.20 2.104069
541.30 2.112273
541.40 2.123266
541.50 2.136245
541.60 2.150052
541.70 2.163435
541.80 2.175282
541.90 2.185196
542.00 2.193486
542.10 2.200873
542.20 2.208445
542.30 2.217214
542.40 2.227584
542.50 2.239379
542.60 2.251882
542.70 2.263972
542.80 2.274473
542.90 2.282361
543.00 2.286848
543.10 2.287731
543.20 2.285769
543.30 2.282454
543.40 2.279371
543.50 2.277699
543.60 2.277906
543.70 2.27983
543.80 2.282811
543.90 2.28588
544.00 2.288086
544.10 2.288619
544.20 2.286919
544.30 2.282977
544.40 2.277384
544.50 2.271017
544.60 2.264677
544.70 2.258925
544.80 2.254067
544.90 2.250042
545.00 2.246504
545.10 2.24311
545.20 2.239592
545.30 2.235649
545.40 2.231023
545.50 2.225795
545.60 2.220387
545.70 2.215119
545.80 2.209984
545.90 2.204789
546.00 2.199259
546.10 2.193138
546.20 2.186306
546.30 2.178762
546.40 2.170424
546.50 2.161149
546.60 2.150852
546.70 2.139606
546.80 2.127645
546.90 2.115218
547.00 2.102576
547.10 2.090089
547.20 2.078249
547.30 2.067437
547.40 2.057577
547.50 2.048124
547.60 2.038482
547.70 2.028255
547.80 2.017349
547.90 2.006104
548.00 1.99529
548.10 1.985536
548.20 1.976908
548.30 1.968926
548.40 1.960561
548.50 1.950543
548.60 1.93789
548.70 1.922283
548.80 1.904258
548.90 1.885258
549.00 1.867088
549.10 1.851187
549.20 1.838327
549.30 1.828422
549.40 1.820639
549.50 1.813718
549.60 1.806283
549.70 1.797364
549.80 1.786856
549.90 1.775425
550.00 1.486021
550.10 1.460623
550.20 1.440005
550.30 1.421514
550.40 1.401876
550.50 1.378476
550.60 1.350481
550.70 1.318211
550.80 1.282558
550.90 1.245181
551.00 1.208329
551.10 1.173902
551.20 1.143134
551.30 1.116096
551.40 1.091599
551.50 1.068076
551.60 1.044079
551.70 1.018652
551.80 0.9921486
551.90 0.966658
552.00 0.9449777
552.10 0.9296189
552.20 0.9225586
552.30 0.924496
552.40 0.9348151
552.50 0.9517374
552.60 0.9722411
552.70 0.9936766
552.80 1.015139
552.90 1.036949
553.00 1.05956
553.10 1.083564
553.20 1.109806
553.30 1.138569
553.40 1.169522
553.50 1.202177
553.60 1.235613
553.70 1.268342
553.80 1.298612
553.90 1.325381
554.00 1.348702
554.10 1.368672
554.20 1.384597
554.30 1.395762
554.40 1.403021
554.50 1.408232
554.60 1.412864
554.70 1.417839
554.80 1.423795
554.90 1.430603
555.00 1.437219
555.10 1.445423
555.20 1.459171
555.30 1.481424
555.40 1.513876
555.50 1.557421
555.60 1.61366
555.70 1.683815
555.80 1.766483
555.90 1.857247
556.00 1.949985
556.10 2.038475
556.20 2.117589
556.30 2.18453
556.40 2.239027
556.50 2.280412
556.60 2.308614
556.70 2.32585
556.80 2.335311
556.90 2.339673
557.00 2.339756
557.10 2.335321
557.20 2.32641
557.30 2.314481
557.40 2.302058
557.50 2.291577
557.60 2.285322
557.70 2.285575
557.80 2.293839
557.90 2.309664
558.00 2.330863
558.10 2.354836
558.20 2.379161
558.30 2.401985
558.40 2.421728
558.50 2.437315
558.60 2.448715
558.70 2.456748
558.80 2.463118
558.90 2.470362
559.00 2.481539
559.10 2.496296
559.20 2.511247
559.30 2.523478
559.40 2.530509
559.50 2.528801
559.60 2.513241
559.70 2.479576
559.80 2.426415
559.90 2.355783
560.00 2.27316
560.10 2.186465
560.20 2.103314
560.30 2.028902
560.40 1.964999
560.50 1.913186
560.60 1.875127
560.70 1.850058
560.80 1.834989
560.90 1.826306
561.00 1.822213
561.10 1.822221
561.20 1.82552
561.30 1.830907
561.40 1.836681
561.50 1.840486
561.60 1.840383
561.70 1.835637
561.80 1.827151
561.90 1.817155
562.00 1.807894
562.10 1.800895
562.20 1.797073
562.30 1.797089
562.40 1.801203
562.50 1.808595
562.60 1.817857
562.70 1.827786
562.80 1.837509
562.90 1.846816
563.00 1.855643
563.10 1.863869
563.20 1.871302
563.30 1.877292
563.40 1.881414
563.50 1.884535
563.60 1.888419
563.70 1.894732
563.80 1.904579
563.90 1.918483
564.00 1.936078
564.10 1.955385
564.20 1.973633
564.30 1.988424
564.40 1.998894
564.50 2.00549
564.60 2.008671
564.70 2.009088
564.80 2.007766
564.90 2.005695
565.00 2.003659
565.10 2.002237
565.20 2.001765
565.30 2.001624
565.40 2.000675
565.50 1.998256
565.60 1.993929
565.70 1.98797
565.80 1.981547
565.90 1.97612
566.00 1.973708
566.10 1.976325
566.20 1.985513
566.30 2.001621
566.40 2.023308
566.50 2.04821
566.60 2.07359
566.70 2.097249
566.80 2.117311
566.90 2.132583
567.00 2.143411
567.10 2.15048
567.20 2.154549
567.30 2.157217
567.40 2.160369
567.50 2.165454
567.60 2.172907
567.70 2.182769
567.80 2.194959
567.90 2.209145
568.00 2.224889
568.10 2.241684
568.20 2.259733
568.30 2.279524
568.40 2.300795
568.50 2.323222
568.60 2.347105
568.70 2.372827
568.80 2.40003
568.90 2.427947
569.00 2.455599
569.10 2.481371
569.20 2.503581
569.30 2.52138
569.40 2.534731
569.50 2.544369
569.60 2.551605
569.70 2.557038
569.80 2.560087
569.90 2.559499
570.00 2.553018
570.10 2.53843
570.20 2.515009
570.30 2.483273
570.40 2.445389
570.50 2.405405
570.60 2.367715
570.70 2.335298
570.80 2.3098
570.90 2.291252
571.00 2.278034
571.10 2.268578
571.20 2.261672
571.30 2.255865
571.40 2.249667
571.50 2.241827
571.60 2.231726
571.70 2.219431
571.80 2.205502
571.90 2.190226
572.00 2.1733
572.10 2.154511
572.20 2.133426
572.30 2.109539
572.40 2.082508
572.50 2.051626
572.60 2.015996
572.70 1.975123
572.80 1.929858
572.90 1.882125
573.00 1.834352
573.10 1.789259
573.20 1.749223
573.30 1.715778
573.40 1.689648
573.50 1.670789
573.60 1.658177
573.70 1.650105
573.80 1.644918
573.90 1.641585
574.00 1.640248
574.10 1.641592
574.20 1.645588
574.30 1.652349
574.40 1.66175
574.50 1.672982
574.60 1.684952
574.70 1.696547
574.80 1.707229
574.90 1.716679
575.00 1.724664
575.10 1.731583
575.20 1.737959
575.30 1.743947
575.40 1.749835
575.50 1.756282
575.60 1.763682
575.70 1.770775
575.80 1.775632
575.90 1.77697
576.00 1.774144
576.10 1.766962
576.20 1.75536
576.30 1.7403
576.40 1.724386
576.50 1.710602
576.60 1.701624
576.70 1.699678
576.80 1.705832
576.90 1.719583
577.00 1.739173
577.10 1.762146
577.20 1.785102
577.30 1.8042
577.40 1.816765
577.50 1.821873
577.60 1.820328
577.70 1.814141
577.80 1.805078
577.90 1.794586
578.00 1.784122
578.10 1.775173
578.20 1.768904
578.30 1.764882
578.40 1.761586
578.50 1.757788
578.60 1.753711
578.70 1.750563
578.80 1.748494
578.90 1.747162
579.00 1.746435
579.10 1.745677
579.20 1.744689
579.30 1.744379
579.40 1.746163
579.50 1.750868
579.60 1.757775
579.70 1.765594
579.80 1.772943
579.90 1.778181
580.00 1.779643
580.10 1.776426
580.20 1.769399
580.30 1.760299
580.40 1.750568
580.50 1.741545
580.60 1.734459
580.70 1.730129
580.80 1.72837
580.90 1.727836
581.00 1.726953
581.10 1.725009
581.20 1.722779
581.30 1.721717
581.40 1.722541
581.50 1.725132
581.60 1.729267
581.70 1.735155
581.80 1.743903
581.90 1.757093
582.00 1.775487
582.10 1.797642
582.20 1.820625
582.30 1.841809
582.40 1.859674
582.50 1.873191
582.60 1.880876
582.70 1.881458
582.80 1.875049
582.90 1.862453
583.00 1.844167
583.10 1.820198
583.20 1.790152
583.30 1.753606
583.40 1.71029
583.50 1.661207
583.60 1.609885
583.70 1.561571
583.80 1.520756
583.90 1.489962
584.00 1.470247
584.10 1.461621
584.20 1.462464
584.30 1.469201
584.40 1.477164
584.50 1.482205
584.60 1.481783
584.70 1.474648
584.80 1.461108
584.90 1.443164
585.00 1.422469
585.10 1.399216
585.20 1.373645
585.30 1.34676
585.40 1.319235
585.50 1.290493
585.60 1.258865
585.70 1.222317
585.80 1.180287
585.90 1.133022
586.00 1.07843
586.10 1.016993
586.20 0.9514847
586.30 0.8856046
586.40 0.8226168
586.50 0.7645745
586.60 0.7220334
586.70 0.6983915
586.80 0.6938471
586.90 0.7065698
587.00 0.7336594
587.10 0.7725277
587.20 0.8207526
587.30 0.8760227
587.40 0.9370486
587.50 1.002557
587.60 1.069933
587.70 1.135604
587.80 1.195625
587.90 1.246313
588.00 1.285018
588.10 1.310729
588.20 1.324333
588.30 1.328427
588.40 1.326773
588.50 1.322841
588.60 1.318668
588.70 1.3144
588.80 1.308244
588.90 1.298336
589.00 1.284901
589.10 1.270058
589.20 1.256667
589.30 1.247406
589.40 1.244864
589.50 1.251272
589.60 1.26771
589.70 1.293789
589.80 1.326271
589.90 1.360395
590.00 1.394669
590.10 1.427797
590.20 1.458737
590.30 1.486694
590.40 1.511781
590.50 1.534928
590.60 1.546198
590.70 1.540879
590.80 1.517425
590.90 1.477334
591.00 1.424979
591.10 1.365931
591.20 1.30562
591.30 1.247724
591.40 1.192625
591.50 1.138355
591.60 1.082708
591.70 1.023753
591.80 0.9609956
591.90 0.8967748
592.00 0.838276
592.10 0.7908298
592.20 0.7537291
592.30 0.7281106
592.40 0.7163125
592.50 0.7163866
592.60 0.7251905
592.70 0.7398407
592.80 0.7588818
592.90 0.781372
593.00 0.805707
593.10 0.8304192
593.20 0.8541973
593.30 0.8756194
593.40 0.8935866
593.50 0.9079171
593.60 0.9196965
593.70 0.9306731
593.80 0.9423756
593.90 0.9554836
594.00 0.9703863
594.10 0.987946
594.20 1.009779
594.30 1.037933
594.40 1.073568
594.50 1.115887
594.60 1.162893
594.70 1.212104
594.80 1.260862
594.90 1.306339
595.00 1.34479
595.10 1.372592
595.20 1.388435
595.30 1.394454
595.40 1.395244
595.50 1.395607
595.60 1.398405
595.70 1.404559
595.80 1.413854
595.90 1.42513
596.00 1.434399
596.10 1.440029
596.20 1.445507
596.30 1.451042
596.40 1.45422
596.50 1.456118
596.60 1.457926
596.70 1.460017
596.80 1.462116
596.90 1.463916
597.00 1.466084
597.10 1.469685
597.20 1.475587
597.30 1.484135
597.40 1.494344
597.50 1.503947
597.60 1.510258
597.70 1.511388
597.80 1.507216
597.90 1.498934
598.00 1.488044
598.10 1.475936
598.20 1.463102
598.30 1.44888
598.40 1.431973
598.50 1.411814
598.60 1.389712
598.70 1.368565
598.80 1.351685
598.90 1.34193
599.00 1.341271
599.10 1.350371
599.20 1.368271
599.30 1.392631
599.40 1.420995
599.50 1.451631
599.60 1.483765
599.70 1.517403
599.80 1.553153
599.90 1.591614
600.00 1.53142
600.10 1.543175
600.20 1.59756
600.30 1.675612
600.40 1.752583
600.50 1.812282
600.60 1.842335
600.70 1.848487
600.80 1.858616
600.90 1.897635
601.00 1.957641
601.10 2.016212
601.20 2.074673
601.30 2.150212
601.40 2.252863
601.50 2.35894
601.60 2.418469
601.70 2.395723
601.80 2.297237
601.90 2.152484
602.00 1.980135
602.10 1.790525
602.20 1.613848
602.30 1.479283
602.40 1.404339
602.50 1.402303
602.60 1.467728
602.70 1.594237
602.80 1.767133
602.90 1.953882
603.00 2.138656
603.10 2.304142
603.20 2.406943
603.30 2.412234
603.40 2.329241
603.50 2.214406
603.60 2.119201
603.70 2.074515
603.80 2.11227
603.90 2.247671
604.00 2.46037
604.10 2.689558
604.20 2.876374
604.30 2.991736
604.40 3.010476
604.50 2.934774
604.60 2.805506
604.70 2.667114
604.80 2.549063
604.90 2.454808
605.00 2.387968
605.10 2.364049
605.20 2.386725
605.30 2.448396
605.40 2.522624
605.50 2.577914
605.60 2.587065
605.70 2.532233
605.80 2.42189
605.90 2.271567
606.00 2.090143
606.10 1.893063
606.20 1.709304
606.30 1.582789
606.40 1.560534
606.50 1.678185
606.60 1.934056
606.70 2.28374
606.80 2.67263
606.90 3.026485
607.00 3.258417
607.10 3.31708
607.20 3.210388
607.30 2.981338
607.40 2.681951
607.50 2.355793
607.60 2.045674
607.70 1.795199
607.80 1.618566
607.90 1.504292
608.00 1.438299
608.10 1.392953
608.20 1.352058
608.30 1.341555
608.40 1.392037
608.50 1.502706
608.60 1.63558
608.70 1.741213
608.80 1.80008
608.90 1.825953
609.00 1.837654
609.10 1.861887
609.20 1.930934
609.30 2.049447
609.40 2.197248
609.50 2.369979
609.60 2.568489
609.70 2.774853
609.80 2.959521
609.90 3.09842
610.00 3.187813
610.10 3.245529
610.20 3.278754
610.30 3.288857
610.40 3.276219
610.50 3.203785
610.60 3.049952
610.70 2.849031
610.80 2.656842
610.90 2.512417
611.00 2.421697
611.10 2.37411
611.20 2.368269
611.30 2.417014
611.40 2.525246
611.50 2.670842
611.60 2.8203
611.70 2.938104
611.80 2.994434
611.90 2.998275
612.00 2.965702
612.10 2.888884
612.20 2.760645
612.30 2.585739
612.40 2.375809
612.50 2.159524
612.60 1.972728
612.70 1.830796
612.80 1.736682
612.90 1.704039
613.00 1.744873
613.10 1.850295
613.20 2.00646
613.30 2.180575
613.40 2.339255
613.50 2.484492
613.60 2.632051
613.70 2.779587
613.80 2.927107
613.90 3.083588
614.00 3.258632
614.10 3.45334
614.20 3.640051
614.30 3.757512
614.40 3.757149
614.50 3.639077
614.60 3.422369
614.70 3.157012
614.80 2.895405
614.90 2.663825
615.00 2.480728
615.10 2.387275
615.20 2.416349
615.30 2.538684
615.40 2.693398
615.50 2.829172
615.60 2.930215
615.70 3.016144
615.80 3.113088
615.90 3.233162
616.00 3.37924
616.10 3.539634
616.20 3.681562
616.30 3.766667
616.40 3.765016
616.50 3.651606
616.60 3.423204
616.70 3.11725
616.80 2.781511
616.90 2.459235
617.00 2.18118
617.10 1.965077
617.20 1.813595
617.30 1.707604
617.40 1.631224
617.50 1.573963
617.60 1.540683
617.70 1.557232
617.80 1.639095
617.90 1.777002
618.00 1.95789
618.10 2.173462
618.20 2.391487
618.30 2.56534
618.40 2.673186
618.50 2.713055
618.60 2.694015
618.70 2.644
618.80 2.607306
618.90 2.620898
619.00 2.692451
619.10 2.794541
619.20 2.895605
619.30 2.98392
619.40 3.02386
619.50 2.980503
619.60 2.879294
619.70 2.775214
619.80 2.693462
619.90 2.637142
620.00 2.61971
620.10 2.652679
620.20 2.726223
620.30 2.814815
620.40 2.904154
620.50 2.987064
620.60 3.043945
620.70 3.055982
620.80 3.037231
620.90 2.997618
621.00 2.918896
621.10 2.785318
621.20 2.606735
621.30 2.417144
621.40 2.236799
621.50 2.062635
621.60 1.900297
621.70 1.777925
621.80 1.704611
621.90 1.66283
622.00 1.652768
622.10 1.67781
622.20 1.725795
622.30 1.793355
622.40 1.889011
622.50 2.021651
622.60 2.190692
622.70 2.382713
622.80 2.579379
622.90 2.77618
623.00 2.964477
623.10 3.124657
623.20 3.242637
623.30 3.316229
623.40 3.334295
623.50 3.288797
623.60 3.206384
623.70 3.117536
623.80 3.029825
623.90 2.944191
624.00 2.870947
624.10 2.819049
624.20 2.795133
624.30 2.796006
624.40 2.810055
624.50 2.823548
624.60 2.833211
624.70 2.845533
624.80 2.862816
624.90 2.885007
625.00 2.907422
625.10 2.942359
625.20 3.028482
625.30 3.172638
625.40 3.339909
625.50 3.507018
625.60 3.662823
625.70 3.786605
625.80 3.852803
625.90 3.854825
626.00 3.801731
626.10 3.698013
626.20 3.547521
626.30 3.340243
626.40 3.077595
626.50 2.788839
626.60 2.508464
626.70 2.280959
626.80 2.147664
626.90 2.123757
627.00 2.20791
627.10 2.392636
627.20 2.649315
627.30 2.936307
627.40 3.20789
627.50 3.415944
627.60 3.527917
627.70 3.549365
627.80 3.495828
627.90 3.378916
628.00 3.223282
628.10 3.074091
628.20 2.986742
628.30 2.995991
628.40 3.092067
628.50 3.239018
628.60 3.402655
628.70 3.528033
628.80 3.566084
628.90 3.516527
629.00 3.412782
629.10 3.297948
629.20 3.218732
629.30 3.215998
629.40 3.304033
629.50 3.449564
629.60 3.601618
629.70 3.742376
629.80 3.868271
629.90 3.968988
630.00 4.034047
630.10 4.071032
630.20 4.095828
630.30 4.116114
630.40 4.141656
630.50 4.184261
630.60 4.24177
630.70 4.291684
630.80 4.308849
630.90 4.295413
631.00 4.274465
631.10 4.242405
631.20 4.20869
631.30 4.193456
631.40 4.208655
631.50 4.2655
631.60 4.356832
631.70 4.459743
631.80 4.537941
631.90 4.561623
632.00 4.527356
632.10 4.451687
632.20 4.35979
632.30 4.290304
632.40 4.277584
632.50 4.325377
632.60 4.391673
632.70 4.435669
632.80 4.430338
632.90 4.356084
633.00 4.226319
633.10 4.077251
633.20 3.950222
633.30 3.879485
633.40 3.885275
633.50 3.961913
633.60 4.087702
633.70 4.2507
633.80 4.439588
633.90 4.65294
634.00 4.897847
634.10 5.158309
634.20 5.408248
634.30 5.620377
634.40 5.764388
634.50 5.829176
634.60 5.832265
634.70 5.793465
634.80 5.728002
634.90 5.659161
635.00 5.62247
635.10 5.63123
635.20 5.673473
635.30 5.71715
635.40 5.727241
635.50 5.691063
635.60 5.588
635.70 5.415743
635.80 5.232221
635.90 5.088566
636.00 5.008889
636.10 5.019442
636.20 5.125396
636.30 5.312238
636.40 5.534085
636.50 5.73661
636.60 5.870907
636.70 5.90702
636.80 5.845214
636.90 5.707015
637.00 5.55375
637.10 5.435688
637.20 5.340067
637.30 5.250733
637.40 5.166704
637.50 5.094236
637.60 5.046749
637.70 5.01632
637.80 4.986894
637.90 4.943334
638.00 4.893439
638.10 4.863498
638.20 4.873108
638.30 4.92194
638.40 4.998255
638.50 5.085504
638.60 5.162431
638.70 5.215925
638.80 5.241175
638.90 5.230748
639.00 5.184654
639.10 5.130295
639.20 5.10379
639.30 5.12506
639.40 5.179096
639.50 5.237786
639.60 5.28485
639.70 5.322408
639.80 5.356531
639.90 5.395009
640.00 5.43998
640.10 5.486714
640.20 5.540085
640.30 5.593031
640.40 5.627359
640.50 5.630832
640.60 5.593873
640.70 5.513454
640.80 5.411153
640.90 5.313117
641.00 5.233921
641.10 5.174809
641.20 5.124723
641.30 5.079672
641.40 5.049663
641.50 5.042316
641.60 5.051716
641.70 5.076433
641.80 5.129752
641.90 5.216316
642.00 5.330629
642.10 5.462086
642.20 5.589994
642.30 5.693028
642.40 5.755078
642.50 5.777003
642.60 5.776224
642.70 5.771556
642.80 5.780356
642.90 5.81368
643.00 5.869782
643.10 5.935124
643.20 5.981347
643.30 5.991549
643.40 5.972697
643.50 5.939106
643.60 5.896424
643.70 5.83675
643.80 5.752805
643.90 5.651348
644.00 5.559223
644.10 5.502648
644.20 5.492689
644.30 5.529694
644.40 5.605385
644.50 5.709045
644.60 5.829539
644.70 5.948578
644.80 6.041571
644.90 6.087316
645.00 6.075998
645.10 6.0116
645.20 5.911743
645.30 5.795411
645.40 5.662494
645.50 5.513723
645.60 5.37025
645.70 5.257923
645.80 5.199531
645.90 5.207214
646.00 5.284368
646.10 5.409414
646.20 5.544694
646.30 5.660367
646.40 5.736466
646.50 5.779978
646.60 5.810115
646.70 5.831211
646.80 5.846448
646.90 5.862806
647.00 5.875886
647.10 5.879223
647.20 5.867166
647.30 5.839093
647.40 5.801251
647.50 5.767126
647.60 5.749109
647.70 5.749629
647.80 5.769556
647.90 5.800348
648.00 5.827692
648.10 5.850878
648.20 5.880081
648.30 5.919943
648.40 5.970914
648.50 6.030732
648.60 6.093412
648.70 6.149224
648.80 6.178738
648.90 6.160553
649.00 6.093907
649.10 6.00837
649.20 5.948766
649.30 5.951902
649.40 6.039163
649.50 6.201189
649.60 6.397889
649.70 6.57765
649.80 6.693732
649.90 6.727527
650.00 6.703566
650.10 6.657775
650.20 6.620394
650.30 6.631746
650.40 6.729739
650.50 6.927984
650.60 7.200758
650.70 7.492778
650.80 7.741684
650.90 7.91858
651.00 8.009357
651.10 8.002557
651.20 7.920868
651.30 7.801453
651.40 7.666457
651.50 7.547272
651.60 7.484466
651.70 7.494049
651.80 7.552306
651.90 7.612331
652.00 7.647749
652.10 7.661952
652.20 7.67375
652.30 7.692678
652.40 7.724527
652.50 7.783247
652.60 7.880723
652.70 8.026612
652.80 8.221368
652.90 8.449242
653.00 8.672367
653.10 8.86429
653.20 9.023535
653.30 9.1495
653.40 9.241632
653.50 9.306221
653.60 9.356584
653.70 9.397419
653.80 9.439504
653.90 9.509443
654.00 9.617042
654.10 9.744369
654.20 9.86675
654.30 9.950038
654.40 9.974108
654.50 9.943459
654.60 9.866672
654.70 9.758932
654.80 9.647883
654.90 9.562611
655.00 9.523644
655.10 9.542364
655.20 9.607518
655.30 9.685159
655.40 9.755475
655.50 9.80902
655.60 9.836137
655.70 9.866353
655.80 9.952902
655.90 10.13527
656.00 10.42819
656.10 10.81194
656.20 11.23222
656.30 11.61608
656.40 11.8893
656.50 12.01018
656.60 11.98929
656.70 11.85947
656.80 11.6401
656.90 11.3525
657.00 11.03095
657.10 10.69965
657.20 10.38887
657.30 10.13057
657.40 9.943607
657.50 9.846549
657.60 9.841513
657.70 9.894821
657.80 9.969038
657.90 10.04291
658.00 10.096
658.10 10.115
658.20 10.10054
658.30 10.07034
658.40 10.05504
658.50 10.07796
658.60 10.13132
658.70 10.17376
658.80 10.17077
658.90 10.1019
659.00 9.965127
659.10 9.807759
659.20 9.674095
659.30 9.569521
659.40 9.494758
659.50 9.45798
659.60 9.470644
659.70 9.53224
659.80 9.6202
659.90 9.705419
660.00 9.771858
660.10 9.825151
660.20 9.872316
660.30 9.917242
660.40 9.972558
660.50 10.03743
660.60 10.10482
660.70 10.18152
660.80 10.27285
660.90 10.36735
661.00 10.43834
661.10 10.46362
661.20 10.43094
661.30 10.33938
661.40 10.21003
661.50 10.07749
661.60 9.983518
661.70 9.962318
661.80 10.008
661.90 10.08455
662.00 10.15523
662.10 10.17829
662.20 10.12204
662.30 9.988281
662.40 9.806486
662.50 9.621611
662.60 9.493806
662.70 9.474182
662.80 9.565941
662.90 9.739376
663.00 9.954168
663.10 10.15812
663.20 10.30638
663.30 10.38326
663.40 10.40719
663.50 10.41485
663.60 10.43299
663.70 10.47692
663.80 10.56125
663.90 10.67812
664.00 10.80149
664.10 10.91398
664.20 11.0068
664.30 11.0778
664.40 11.12959
664.50 11.17144
664.60 11.2129
664.70 11.25399
664.80 11.27863
664.90 11.27627
665.00 11.25073
665.10 11.20825
665.20 11.1606
665.30 11.12949
665.40 11.12576
665.50 11.1469
665.60 11.19192
665.70 11.2395
665.80 11.25351
665.90 11.21256
666.00 11.11198
666.10 10.95872
666.20 10.77422
666.30 10.58725
666.40 10.43584
666.50 10.35751
666.60 10.37342
666.70 10.4912
666.80 10.70125
666.90 10.96783
667.00 11.23958
667.10 11.4791
667.20 11.66826
667.30 11.80625
667.40 11.90784
667.50 11.97968
667.60 12.01476
667.70 12.00422
667.80 11.94645
667.90 11.846
668.00 11.71062
668.10 11.55885
668.20 11.42557
668.30 11.35
668.40 11.35841
668.50 11.44702
668.60 11.57683
668.70 11.69252
668.80 11.73436
668.90 11.6636
669.00 11.48516
669.10 11.2386
669.20 10.97634
669.30 10.76173
669.40 10.65341
669.50 10.6747
669.60 10.82265
669.70 11.06936
669.80 11.3573
669.90 11.62773
670.00 11.8328
670.10 11.92727
670.20 11.89797
670.30 11.76768
670.40 11.56651
670.50 11.32873
670.60 11.08876
670.70 10.87402
670.80 10.70995
670.90 10.62401
671.00 10.62443
671.10 10.69741
671.20 10.83262
671.30 11.02775
671.40 11.27597
671.50 11.56306
671.60 11.86333
671.70 12.14614
671.80 12.38994
671.90 12.57266
672.00 12.6835
672.10 12.73138
672.20 12.73038
672.30 12.6943
672.40 12.63844
672.50 12.58739
672.60 12.56562
672.70 12.56562
672.80 12.57046
672.90 12.57518
673.00 12.56646
673.10 12.53386
673.20 12.48248
673.30 12.44162
673.40 12.43865
673.50 12.46847
673.60 12.51669
673.70 12.57155
673.80 12.62795
673.90 12.68491
674.00 12.73472
674.10 12.78235
674.20 12.83654
674.30 12.8912
674.40 12.93791
674.50 12.97144
674.60 12.98797
674.70 12.98397
674.80 12.96119
674.90 12.93011
675.00 12.90334
675.10 12.90513
675.20 12.95175
675.30 13.02812
675.40 13.10812
675.50 13.15907
675.60 13.1492
675.70 13.07303
675.80 12.96266
675.90 12.8523
676.00 12.75885
676.10 12.68279
676.20 12.628
676.30 12.61712
676.40 12.67323
676.50 12.78813
676.60 12.92603
676.70 13.05687
676.80 13.16391
676.90 13.25355
677.00 13.33651
677.10 13.3969
677.20 13.40731
677.30 13.37354
677.40 13.33402
677.50 13.32316
677.60 13.34406
677.70 13.37432
677.80 13.38456
677.90 13.36131
678.00 13.31463
678.10 13.26225
678.20 13.20651
678.30 13.11628
678.40 12.97365
678.50 12.80743
678.60 12.65604
678.70 12.53926
678.80 12.45318
678.90 12.39545
679.00 12.37524
679.10 12.392
679.20 12.43508
679.30 12.49571
679.40 12.56492
679.50 12.62728
679.60 12.67393
679.70 12.71117
679.80 12.739
679.90 12.7439
680.00 12.71549
680.10 12.6531
680.20 12.56913
680.30 12.481
680.40 12.41169
680.50 12.38313
680.60 12.40573
680.70 12.46201
680.80 12.5053
680.90 12.4996
681.00 12.43726
681.10 12.33656
681.20 12.2305
681.30 12.14173
681.40 12.07535
681.50 12.03272
681.60 12.00872
681.70 11.99215
681.80 11.96724
681.90 11.92464
682.00 11.86748
682.10 11.81887
682.20 11.82274
682.30 11.90892
682.40 12.07202
682.50 12.26036
682.60 12.40446
682.70 12.47898
682.80 12.50013
682.90 12.47659
683.00 12.40483
683.10 12.28723
683.20 12.14241
683.30 12.00005
683.40 11.87607
683.50 11.75656
683.60 11.63063
683.70 11.50801
683.80 11.40914
683.90 11.37933
684.00 11.46339
684.10 11.65607
684.20 11.90714
684.30 12.1584
684.40 12.35929
684.50 12.47974
684.60 12.50774
684.70 12.43583
684.80 12.27225
684.90 12.05543
685.00 11.82306
685.10 11.60658
685.20 11.44786
685.30 11.36515
685.40 11.3403
685.50 11.34865
685.60 11.37214
685.70 11.40189
685.80 11.4537
685.90 11.55196
686.00 11.70014
686.10 11.87259
686.20 12.02958
686.30 12.14126
686.40 12.20211
686.50 12.21514
686.60 12.1694
686.70 12.06845
686.80 11.94248
686.90 11.81927
687.00 11.72659
687.10 11.68711
687.20 11.69934
687.30 11.73675
687.40 11.76078
687.50 11.75792
687.60 11.74289
687.70 11.72208
687.80 11.67758
687.90 11.582
688.00 11.43073
688.10 11.25551
688.20 11.10624
688.30 11.03723
688.40 11.09009
688.50 11.27033
688.60 11.53539
688.70 11.81315
688.80 12.03394
688.90 12.14344
689.00 12.12542
689.10 11.98941
689.20 11.75034
689.30 11.44987
689.40 11.14205
689.50 10.86812
689.60 10.66268
689.70 10.53336
689.80 10.44909
689.90 10.37436
690.00 10.29853
690.10 10.22981
690.20 10.1792
690.30 10.15592
690.40 10.16076
690.50 10.20058
690.60 10.28467
690.70 10.42324
690.80 10.64061
690.90 10.93954
691.00 11.27681
691.10 11.59264
691.20 11.83387
691.30 11.95601
691.40 11.93094
691.50 11.75156
691.60 11.45131
691.70 11.11287
691.80 10.81164
691.90 10.58218
692.00 10.45874
692.10 10.46307
692.20 10.56149
692.30 10.70133
692.40 10.85604
692.50 11.02366
692.60 11.20973
692.70 11.41898
692.80 11.65768
692.90 11.92517
693.00 12.20598
693.10 12.46023
693.20 12.6434
693.30 12.74431
693.40 12.76259
693.50 12.69335
693.60 12.5639
693.70 12.41957
693.80 12.28605
693.90 12.18411
694.00 12.14366
694.10 12.19269
694.20 12.35412
694.30 12.64388
694.40 13.07218
694.50 13.621
694.60 14.21355
694.70 14.74881
694.80 15.1457
694.90 15.34494
695.00 15.30638
695.10 15.03442
695.20 14.59929
695.30 14.09913
695.40 13.61654
695.50 13.22786
695.60 12.98305
695.70 12.88822
695.80 12.89931
695.90 12.94481
696.00 12.98575
696.10 13.01262
696.20 13.01996
696.30 13.02208
696.40 13.04598
696.50 13.10837
696.60 13.20279
696.70 13.31243
696.80 13.42765
696.90 13.52063
697.00 13.56109
697.10 13.53452
697.20 13.44264
697.30 13.32707
697.40 13.24635
697.50 13.23883
697.60 13.32262
697.70 13.47611
697.80 13.65879
697.90 13.82749
698.00 13.93588
698.10 13.96393
698.20 13.92389
698.30 13.85522
698.40 13.80339
698.50 13.80627
698.60 13.87785
698.70 13.98884
698.80 14.0954
698.90 14.16549
699.00 14.17963
699.10 14.13975
699.20 14.06597
699.30 13.99106
699.40 13.9423
699.50 13.92068
699.60 13.92013
699.70 13.9323
699.80 13.94294
699.90 13.94471
700.00 13.94924
700.10 13.98281
700.20 14.07218
700.30 14.22763
700.40 14.43357
700.50 14.67749
700.60 14.93843
700.70 15.17201
700.80 15.3538
700.90 15.49119
701.00 15.58496
701.10 15.63467
701.20 15.64985
701.30 15.64155
701.40 15.62959
701.50 15.62514
701.60 15.62938
701.70 15.64581
701.80 15.68518
701.90 15.75201
702.00 15.83904
702.10 15.93869
702.20 16.04139
702.30 16.12723
702.40 16.18275
702.50 16.20519
702.60 16.21266
702.70 16.24127
702.80 16.30333
702.90 16.41238
703.00 16.58872
703.10 16.83313
703.20 17.12912
703.30 17.44907
703.40 17.76082
703.50 18.0514
703.60 18.33936
703.70 18.64289
703.80 18.95459
703.90 19.26887
704.00 19.57121
704.10 19.82673
704.20 20.01896
704.30 20.14191
704.40 20.18459
704.50 20.14581
704.60 20.04484
704.70 19.91338
704.80 19.78931
704.90 19.6934
705.00 19.60801
705.10 19.50229
705.20 19.36744
705.30 19.1975
705.40 18.97076
705.50 18.68279
705.60 18.36012
705.70 18.04123
705.80 17.76692
705.90 17.57178
706.00 17.47835
706.10 17.49881
706.20 17.62193
706.30 17.81029
706.40 18.01619
706.50 18.20014
706.60 18.34056
706.70 18.43611
706.80 18.51161
706.90 18.59202
707.00 18.67664
707.10 18.74835
707.20 18.79886
707.30 18.84786
707.40 18.92482
707.50 19.03815
707.60 19.17965
707.70 19.33678
707.80 19.49607
707.90 19.64122
708.00 19.74387
708.10 19.77582
708.20 19.7213
708.30 19.5796
708.40 19.36756
708.50 19.11367
708.60 18.85501
708.70 18.61646
708.80 18.39587
708.90 18.18369
709.00 17.97964
709.10 17.80472
709.20 17.68585
709.30 17.63513
709.40 17.65298
709.50 17.7305
709.60 17.84209
709.70 17.96117
709.80 18.07814
709.90 18.19866
710.00 18.31919
710.10 18.42173
710.20 18.50859
710.30 18.59486
710.40 18.68858
710.50 18.78417
710.60 18.86621
710.70 18.9249
710.80 18.95909
710.90 18.97689
711.00 19.00359
711.10 19.05911
711.20 19.13696
711.30 19.22645
711.40 19.32026
711.50 19.40404
711.60 19.4562
711.70 19.46106
711.80 19.41474
711.90 19.33174
712.00 19.23323
712.10 19.13731
712.20 19.05799
712.30 18.9936
712.40 18.93219
712.50 18.8666
712.60 18.80041
712.70 18.74132
712.80 18.69165
712.90 18.64787
713.00 18.61269
713.10 18.58845
713.20 18.56234
713.30 18.52255
713.40 18.48324
713.50 18.46914
713.60 18.49776
713.70 18.57598
713.80 18.7074
713.90 18.89115
714.00 19.11482
714.10 19.34971
714.20 19.56192
714.30 19.74331
714.40 19.88752
714.50 19.99361
714.60 20.09108
714.70 20.20928
714.80 20.35806
714.90 20.52717
715.00 20.68905
715.10 20.81745
715.20 20.8929
715.30 20.91288
715.40 20.88663
715.50 20.83471
715.60 20.79175
715.70 20.77786
715.80 20.80742
715.90 20.8877
716.00 21.00518
716.10 21.13552
716.20 21.26275
716.30 21.39558
716.40 21.55298
716.50 21.74029
716.60 21.9412
716.70 22.10955
716.80 22.19857
716.90 22.18673
717.00 22.06759
717.10 21.86568
717.20 21.63055
717.30 21.40958
717.40 21.24321
717.50 21.16058
717.60 21.16277
717.70 21.22878
717.80 21.33361
717.90 21.44793
718.00 21.54765
718.10 21.63894
718.20 21.73249
718.30 21.82381
718.40 21.91921
718.50 22.02993
718.60 22.16279
718.70 22.32131
718.80 22.49874
718.90 22.67826
719.00 22.8416
719.10 22.96605
719.20 23.04044
719.30 23.07188
719.40 23.0666
719.50 23.03046
719.60 22.97834
719.70 22.93118
719.80 22.91434
719.90 22.94878
720.00 23.04675
720.10 23.20981
720.20 23.41113
720.30 23.60249
720.40 23.74099
720.50 23.79873
720.60 23.76035
720.70 23.63748
720.80 23.47046
720.90 23.2972
721.00 23.15106
721.10 23.0683
721.20 23.07203
721.30 23.16325
721.40 23.31792
721.50 23.49775
721.60 23.68148
721.70 23.87185
721.80 24.05826
721.90 24.21516
722.00 24.3325
722.10 24.40118
722.20 24.40781
722.30 24.36559
722.40 24.31135
722.50 24.27845
722.60 24.27722
722.70 24.30161
722.80 24.35395
722.90 24.43935
723.00 24.53994
723.10 24.62222
723.20 24.68312
723.30 24.74931
723.40 24.85699
723.50 25.09495
723.60 25.54539
723.70 26.16129
723.80 26.81496
723.90 27.38095
724.00 27.78907
724.10 28.01532
724.20 28.01906
724.30 27.78901
724.40 27.38924
724.50 26.91453
724.60 26.46107
724.70 26.13503
724.80 26.02057
724.90 26.10242
725.00 26.31169
725.10 26.6343
725.20 27.06389
725.30 27.54398
725.40 27.96912
725.50 28.23732
725.60 28.30461
725.70 28.17631
725.80 27.90683
725.90 27.59209
726.00 27.31257
726.10 27.10754
726.20 26.99079
726.30 26.96947
726.40 27.04048
726.50 27.1717
726.60 27.31582
726.70 27.42684
726.80 27.46783
726.90 27.46013
727.00 27.52252
727.10 27.81594
727.20 28.43341
727.30 29.31206
727.40 30.25466
727.50 31.0477
727.60 31.52242
727.70 31.56558
727.80 31.18285
727.90 30.50157
728.00 29.70815
728.10 29.0005
728.20 28.54153
728.30 28.39132
728.40 28.47639
728.50 28.61312
728.60 28.60022
728.70 28.3485
728.80 27.92122
728.90 27.44245
729.00 27.03489
729.10 26.81451
729.20 26.84218
729.30 27.09714
729.40 27.51263
729.50 28.00508
729.60 28.49046
729.70 28.91615
729.80 29.2406
729.90 29.44107
730.00 29.54162
730.10 29.592
730.20 29.64246
730.30 29.71987
730.40 29.83132
730.50 29.97176
730.60 30.11201
730.70 30.23495
730.80 30.32907
730.90 30.39496
731.00 30.48091
731.10 30.66195
731.20 31.00271
731.30 31.49235
731.40 32.04372
731.50 32.54857
731.60 32.91614
731.70 33.09405
731.80 33.06661
731.90 32.86359
732.00 32.55256
732.10 32.20996
732.20 31.92921
732.30 31.80846
732.40 31.90726
732.50 32.17953
732.60 32.48947
732.70 32.72664
732.80 32.82445
732.90 32.75454
733.00 32.52119
733.10 32.15525
733.20 31.72926
733.30 31.34226
733.40 31.10235
733.50 31.11912
733.60 31.46118
733.70 32.09966
733.80 32.91022
733.90 33.71879
734.00 34.37691
734.10 34.78181
734.20 34.86468
734.30 34.60844
734.40 34.05114
734.50 33.29869
734.60 32.51181
734.70 31.84066
734.80 31.38053
734.90 31.14854
735.00 31.09726
735.10 31.16279
735.20 31.27726
735.30 31.38961
735.40 31.4603
735.50 31.45485
735.60 31.36922
735.70 31.21808
735.80 31.05227
735.90 30.92552
736.00 30.85731
736.10 30.85598
736.20 30.93681
736.30 31.13001
736.40 31.48856
736.50 32.03408
736.60 32.69184
736.70 33.32273
736.80 33.77633
736.90 33.94514
737.00 33.80405
737.10 33.40219
737.20 32.82233
737.30 32.17311
737.40 31.56976
737.50 31.10938
737.60 30.86046
737.70 30.82948
737.80 30.94362
737.90 31.09971
738.00 31.22443
738.10 31.29062
738.20 31.31771
738.30 31.33974
738.40 31.37784
738.50 31.43722
738.60 31.52666
738.70 31.66568
738.80 31.85034
738.90 32.0539
739.00 32.24727
739.10 32.40043
739.20 32.45533
739.30 32.3642
739.40 32.14825
739.50 31.88924
739.60 31.69459
739.70 31.63992
739.80 31.74964
739.90 32.00658
740.00 32.32974
740.10 32.5966
740.20 32.70993
740.30 32.6174
740.40 32.3058
740.50 31.80394
740.60 31.21141
740.70 30.65199
740.80 30.21952
740.90 29.95848
741.00 29.85168
741.10 29.86492
741.20 29.95901
741.30 30.09244
741.40 30.25886
741.50 30.45792
741.60 30.65143
741.70 30.79205
741.80 30.83766
741.90 30.7633
742.00 30.57371
742.10 30.30433
742.20 30.00447
742.30 29.72968
742.40 29.54287
742.50 29.49061
742.60 29.57828
742.70 29.76863
742.80 29.99461
742.90 30.17561
743.00 30.26442
743.10 30.24576
743.20 30.13271
743.30 29.97609
743.40 29.81441
743.50 29.66541
743.60 29.56884
743.70 29.54587
743.80 29.56684
743.90 29.58414
744.00 29.56121
744.10 29.48787
744.20 29.36254
744.30 29.20344
744.40 29.04536
744.50 28.91787
744.60 28.83296
744.70 28.77297
744.80 28.73046
744.90 28.72467
745.00 28.75819
745.10 28.82125
745.20 28.90532
745.30 28.98655
745.40 29.04358
745.50 29.07666
745.60 29.09389
745.70 29.09755
745.80 29.09362
745.90 29.10072
746.00 29.14239
746.10 29.23912
746.20 29.40697
746.30 29.62887
746.40 29.85118
746.50 30.0267
746.60 30.13142
746.70 30.17132
746.80 30.16796
746.90 30.12915
747.00 30.04954
747.10 29.91924
747.20 29.72872
747.30 29.49397
747.40 29.25889
747.50 29.07017
747.60 28.97035
747.70 28.98442
747.80 29.10689
747.90 29.32151
748.00 29.60672
748.10 29.90355
748.20 30.12186
748.30 30.18535
748.40 30.07574
748.50 29.84658
748.60 29.59801
748.70 29.41377
748.80 29.33231
748.90 29.35909
749.00 29.46738
749.10 29.62031
749.20 29.77907
749.30 29.89277
749.40 29.91827
749.50 29.86037
749.60 29.7727
749.70 29.71847
749.80 29.72135
749.90 29.76363
750.00 29.81171
750.10 29.82335
750.20 29.77817
750.30 29.68779
750.40 29.57498
750.50 29.47322
750.60 29.42517
750.70 29.46195
750.80 29.58983
750.90 29.78657
751.00 29.99698
751.10 30.16071
751.20 30.26121
751.30 30.31602
751.40 30.33352
751.50 30.31666
751.60 30.27274
751.70 30.21192
751.80 30.16864
751.90 30.19409
752.00 30.31155
752.10 30.4946
752.20 30.70091
752.30 30.89365
752.40 31.0427
752.50 31.12663
752.60 31.12759
752.70 31.03378
752.80 30.85986
752.90 30.63406
753.00 30.37771
753.10 30.12826
753.20 29.90641
753.30 29.69422
753.40 29.48063
753.50 29.29344
753.60 29.17393
753.70 29.14864
753.80 29.22388
753.90 29.38909
754.00 29.61389
754.10 29.84655
754.20 30.03017
754.30 30.14216
754.40 30.19258
754.50 30.18836
754.60 30.13597
754.70 30.04952
754.80 29.95959
754.90 29.89998
755.00 29.88221
755.10 29.91388
755.20 30.01057
755.30 30.16274
755.40 30.33487
755.50 30.50665
755.60 30.67376
755.70 30.81854
755.80 30.91163
755.90 30.92751
756.00 30.8487
756.10 30.66267
756.20 30.37418
756.30 30.01405
756.40 29.6331
756.50 29.29356
756.60 29.07397
756.70 29.03095
756.80 29.15896
756.90 29.3895
757.00 29.62682
757.10 29.79478
757.20 29.84034
757.30 29.72945
757.40 29.47579
757.50 29.15671
757.60 28.86127
757.70 28.66356
757.80 28.61897
757.90 28.73194
758.00 28.94873
758.10 29.19178
758.20 29.38098
758.30 29.47053
758.40 29.4181
758.50 29.16063
758.60 28.67692
758.70 28.00954
758.80 27.23258
758.90 26.42828
759.00 25.67629
759.10 25.05211
759.20 24.6271
759.30 24.44502
759.40 24.48292
759.50 24.67269
759.60 24.95958
759.70 25.27529
759.80 25.5715
759.90 25.85978
760.00 26.12544
760.10 26.2762
760.20 26.22979
760.30 25.97601
760.40 25.53677
760.50 24.93026
760.60 24.18346
760.70 23.34666
760.80 22.52889
760.90 21.88436
761.00 21.52773
761.10 21.4901
761.20 21.71669
761.30 22.10606
761.40 22.5508
761.50 22.96615
761.60 23.2687
761.70 23.36088
761.80 23.18629
761.90 22.76977
762.00 22.20345
762.10 21.60631
762.20 21.06788
762.30 20.63863
762.40 20.3325
762.50 20.13577
762.60 20.00823
762.70 19.85431
762.80 19.56913
762.90 19.12057
763.00 18.53767
763.10 17.87714
763.20 17.21382
763.30 16.60672
763.40 16.10038
763.50 15.71897
763.60 15.4543
763.70 15.26654
763.80 15.10411
763.90 14.91393
764.00 14.65586
764.10 14.30981
764.20 13.87239
764.30 13.34507
764.40 12.73732
764.50 12.06295
764.60 11.3456
764.70 10.64369
764.80 9.993558
764.90 9.40698
765.00 8.902203
765.10 8.477098
765.20 8.10128
765.30 7.744933
765.40 7.382672
765.50 6.994106
765.60 6.581314
765.70 6.169659
765.80 5.786695
765.90 5.446527
766.00 5.152904
766.10 4.890234
766.20 4.630777
766.30 4.362082
766.40 4.078877
766.50 3.790868
766.60 3.534976
766.70 3.355601
766.80 3.294065
766.90 3.379727
767.00 3.616668
767.10 3.979006
767.20 4.42247
767.30 4.913461
767.40 5.430665
767.50 5.953586
767.60 6.465639
767.70 6.949336
767.80 7.403284
767.90 7.837295
768.00 8.255875
768.10 8.650397
768.20 8.994602
768.30 9.261875
768.40 9.432831
768.50 9.48864
768.60 9.412416
768.70 9.195216
768.80 8.854164
768.90 8.433153
769.00 7.98735
769.10 7.576857
769.20 7.22905
769.30 6.921607
769.40 6.625715
769.50 6.3168
769.60 5.967629
769.70 5.573062
769.80 5.156975
769.90 4.763578
770.00 4.45093
770.10 4.274538
770.20 4.262067
770.30 4.416475
770.40 4.720982
770.50 5.135902
770.60 5.645363
770.70 6.29097
770.80 7.125568
770.90 8.140271
771.00 9.289073
771.10 10.51447
771.20 11.7121
771.30 12.72379
771.40 13.4128
771.50 13.7565
771.60 13.82773
771.70 13.73223
771.80 13.61274
771.90 13.62923
772.00 13.87715
772.10 14.34968
772.20 14.96922
772.30 15.67974
772.40 16.42321
772.50 17.09024
772.60 17.60834
772.70 18.00249
772.80 18.33144
772.90 18.62311
773.00 18.89386
773.10 19.16106
773.20 19.41621
773.30 19.64457
773.40 19.84977
773.50 20.05443
773.60 20.27678
773.70 20.50553
773.80 20.73264
773.90 20.97596
774.00 21.25207
774.10 21.55323
774.20 21.84052
774.30 22.07708
774.40 22.27177
774.50 22.4989
774.60 22.8681
774.70 23.41999
774.80 24.10692
774.90 24.82366
775.00 25.45161
775.10 25.90239
775.20 26.11417
775.30 26.09619
775.40 25.92647
775.50 25.70897
775.60 25.57074
775.70 25.60762
775.80 25.82442
775.90 26.12266
776.00 26.34474
776.10 26.38094
776.20 26.22023
776.30 25.92433
776.40 25.58545
776.50 25.3
776.60 25.1621
776.70 25.22044
776.80 25.47213
776.90 25.87944
777.00 26.36952
777.10 26.86028
777.20 27.26659
777.30 27.51017
777.40 27.56451
777.50 27.46095
777.60 27.26487
777.70 27.06677
777.80 26.94626
777.90 26.96212
778.00 27.14723
778.10 27.46394
778.20 27.80457
778.30 28.05301
778.40 28.1347
778.50 28.01467
778.60 27.71784
778.70 27.35713
778.80 27.10279
778.90 27.12732
779.00 27.50766
779.10 28.18507
779.20 29.00716
779.30 29.72985
779.40 30.06825
779.50 29.81379
779.60 28.87873
779.70 27.30245
779.80 25.26324
779.90 23.06921
780.00 21.11436
780.10 19.77526
780.20 19.29586
780.30 19.74616
780.40 21.03583
780.50 22.90449
780.60 25.00386
780.70 27.01253
780.80 28.67416
780.90 29.81881
781.00 30.41289
781.10 30.55002
781.20 30.39741
781.30 30.15634
781.40 29.99889
781.50 30.05168
781.60 30.41504
781.70 31.08113
781.80 31.9315
781.90 32.81816
782.00 33.56525
782.10 34.02561
782.20 34.12241
782.30 33.8711
782.40 33.37018
782.50 32.75956
782.60 32.17767
782.70 31.72738
782.80 31.47682
782.90 31.43135
783.00 31.5005
783.10 31.58414
783.20 31.62989
783.30 31.62263
783.40 31.59315
783.50 31.60226
783.60 31.71415
783.70 31.94315
783.80 32.26034
783.90 32.64632
784.00 33.09504
784.10 33.58359
784.20 34.08284
784.30 34.58476
784.40 35.0779
784.50 35.52523
784.60 35.87208
784.70 36.12624
784.80 36.39492
784.90 36.75741
785.00 37.2035
785.10 37.68615
785.20 38.15369
785.30 38.54886
785.40 38.81569
785.50 38.93217
785.60 38.9061
785.70 38.75585
785.80 38.51617
785.90 38.22811
786.00 37.96071
786.10 37.75437
786.20 37.54542
786.30 37.26086
786.40 36.94427
786.50 36.71879
786.60 36.66664
786.70 36.78018
786.80 36.97626
786.90 37.12742
787.00 37.09177
787.10 36.77491
787.20 36.17626
787.30 35.41278
787.40 34.65704
787.50 34.07885
787.60 33.84395
787.70 34.08699
787.80 34.81422
787.90 35.85918
788.00 36.9975
788.10 38.04149
788.20 38.85045
788.30 39.35136
788.40 39.58799
788.50 39.64897
788.60 39.59752
788.70 39.48801
788.80 39.36154
788.90 39.25192
789.00 39.19221
789.10 39.16338
789.20 39.10791
789.30 39.02422
789.40 38.94334
789.50 38.85925
789.60 38.75972
789.70 38.63495
789.80 38.45018
789.90 38.18277
790.00 37.876
790.10 37.61992
790.20 37.48685
790.30 37.50976
790.40 37.6619
790.50 37.87468
790.60 38.05862
790.70 38.17571
790.80 38.3291
790.90 38.68917
791.00 39.35527
791.10 40.30043
791.20 41.35452
791.30 42.32518
791.40 43.07185
791.50 43.47393
791.60 43.49779
791.70 43.18409
791.80 42.63736
791.90 42.05019
792.00 41.6428
792.10 41.49893
792.20 41.4788
792.30 41.34541
792.40 40.9511
792.50 40.3179
792.60 39.61366
792.70 39.03792
792.80 38.75712
792.90 38.86721
793.00 39.37584
793.10 40.21769
793.20 41.24094
793.30 42.2155
793.40 42.92288
793.50 43.23608
793.60 43.12632
793.70 42.68429
793.80 42.05634
793.90 41.36173
794.00 40.66249
794.10 39.95406
794.20 39.15384
794.30 38.137
794.40 36.80225
794.50 35.17489
794.60 33.41119
794.70 31.74185
794.80 30.43057
794.90 29.72434
795.00 29.79407
795.10 30.65222
795.20 32.16225
795.30 34.07578
795.40 36.11312
795.50 37.99876
795.60 39.51326
795.70 40.56422
795.80 41.18162
795.90 41.50305
796.00 41.71256
796.10 41.98649
796.20 42.43608
796.30 43.08561
796.40 43.87335
796.50 44.65515
796.60 45.26313
796.70 45.58024
796.80 45.56995
796.90 45.28248
797.00 44.81837
797.10 44.28771
797.20 43.79488
797.30 43.40023
797.40 43.16495
797.50 43.13818
797.60 43.31965
797.70 43.65074
797.80 44.04477
797.90 44.43224
798.00 44.73689
798.10 44.87467
798.20 44.75842
798.30 44.33981
798.40 43.65253
798.50 42.81144
798.60 41.9849
798.70 41.33553
798.80 40.95087
798.90 40.84858
799.00 41.05496
799.10 41.60303
799.20 42.43593
799.30 43.39637
799.40 44.31041
799.50 45.04171
799.60 45.52971
799.70 45.77551
799.80 45.81813
799.90 45.72835
800.00 45.5736
800.10 45.41599
800.20 45.31672
800.30 45.30275
800.40 45.32531
800.50 45.3066
800.60 45.21785
800.70 45.09595
800.80 45.03925
800.90 45.18733
801.00 45.63039
801.10 46.35347
801.20 47.24763
801.30 48.15202
801.40 48.91858
801.50 49.42018
801.60 49.58222
801.70 49.41405
801.80 49.00815
801.90 48.50364
802.00 48.06282
802.10 47.8657
802.20 48.02318
802.30 48.52879
802.40 49.29161
802.50 50.18517
802.60 51.10205
802.70 51.95686
802.80 52.66614
802.90 53.15703
803.00 53.38662
803.10 53.36517
803.20 53.13278
803.30 52.74408
803.40 52.26856
803.50 51.76846
803.60 51.2968
803.70 50.89062
803.80 50.58776
803.90 50.42422
804.00 50.40929
804.10 50.5349
804.20 50.78569
804.30 51.13822
804.40 51.53836
804.50 51.94187
804.60 52.35073
804.70 52.78878
804.80 53.3011
804.90 53.92305
805.00 54.66467
805.10 55.49743
805.20 56.34834
805.30 57.14539
805.40 57.82353
805.50 58.33969
805.60 58.70093
805.70 58.97011
805.80 59.22886
805.90 59.5087
806.00 59.77563
806.10 59.95594
806.20 59.97108
806.30 59.78542
806.40 59.40183
806.50 58.86157
806.60 58.25892
806.70 57.71711
806.80 57.3642
806.90 57.30011
807.00 57.56338
807.10 58.10416
807.20 58.82874
807.30 59.6425
807.40 60.46891
807.50 61.25424
807.60 61.94248
807.70 62.47861
807.80 62.84066
807.90 63.08408
808.00 63.31251
808.10 63.60264
808.20 63.97925
808.30 64.40551
808.40 64.79542
808.50 65.05921
808.60 65.15022
808.70 65.08475
808.80 64.91813
808.90 64.74566
809.00 64.67303
809.10 64.76508
809.20 65.03405
809.30 65.40187
809.40 65.727
809.50 65.88434
809.60 65.80863
809.70 65.50767
809.80 65.05586
809.90 64.57481
810.00 64.17904
810.10 63.92812
810.20 63.8075
810.30 63.76642
810.40 63.76828
810.50 63.79813
810.60 63.85393
810.70 63.95329
810.80 64.14075
810.90 64.45741
811.00 64.8991
811.10 65.41605
811.20 65.92483
811.30 66.34063
811.40 66.62889
811.50 66.81614
811.60 66.99677
811.70 67.2512
811.80 67.58575
811.90 67.97844
812.00 68.40282
812.10 68.83094
812.20 69.2393
812.30 69.62025
812.40 69.99689
812.50 70.41199
812.60 70.91107
812.70 71.51573
812.80 72.1842
812.90 72.83434
813.00 73.37541
813.10 73.73621
813.20 73.90681
813.30 73.95179
813.40 73.97888
813.50 74.09275
813.60 74.34366
813.70 74.70091
813.80 75.06113
813.90 75.28936
814.00 75.25008
814.10 74.86961
814.20 74.17719
814.30 73.26481
814.40 72.24592
814.50 71.28294
814.60 70.54868
814.70 70.13153
814.80 70.05087
814.90 70.27495
815.00 70.71911
815.10 71.27172
815.20 71.83913
815.30 72.35081
815.40 72.80184
815.50 73.22329
815.60 73.61319
815.70 73.97903
815.80 74.36171
815.90 74.78526
816.00 75.27023
816.10 75.85329
816.20 76.53047
816.30 77.23637
816.40 77.88614
816.50 78.43887
816.60 78.89809
816.70 79.28476
816.80 79.60052
816.90 79.84127
817.00 80.03312
817.10 80.20214
817.20 80.3663
817.30 80.53312
817.40 80.66765
817.50 80.67124
817.60 80.40843
817.70 79.75902
817.80 78.62326
817.90 76.92379
818.00 74.661
818.10 71.97436
818.20 69.13695
818.30 66.52298
818.40 64.5441
818.50 63.53562
818.60 63.63265
818.70 64.69998
818.80 66.35316
818.90 68.06158
819.00 69.26395
819.10 69.50941
819.20 68.60353
819.30 66.6755
819.40 64.14364
819.50 61.60478
819.60 59.67411
819.70 58.80056
819.80 59.17019
819.90 60.69638
820.00 63.08477
820.10 65.94195
820.20 68.85904
820.30 71.49309
820.40 73.64918
820.50 75.28881
820.60 76.4858
820.70 77.33729
820.80 77.92569
820.90 78.32134
821.00 78.55794
821.10 78.64849
821.20 78.59572
821.30 78.44038
821.40 78.24335
821.50 78.03294
821.60 77.84816
821.70 77.74809
821.80 77.78646
821.90 77.99461
822.00 78.35772
822.10 78.85383
822.20 79.46275
822.30 80.12693
822.40 80.79037
822.50 81.42607
822.60 82.03464
822.70 82.57777
822.80 83.00161
822.90 83.31015
823.00 83.53218
823.10 83.6777
823.20 83.73466
823.30 83.71888
823.40 83.70292
823.50 83.73863
823.60 83.82909
823.70 84.01764
823.80 84.35648
823.90 84.83295
824.00 85.38127
824.10 85.95215
824.20 86.5398
824.30 87.1396
824.40 87.75041
824.50 88.39896
824.60 89.10916
824.70 89.81458
824.80 90.37081
824.90 90.68133
825.00 90.72025
825.10 90.46352
825.20 89.89898
825.30 89.07386
825.40 88.12687
825.50 87.24444
825.60 86.58188
825.70 86.24696
825.80 86.25802
825.90 86.54539
826.00 87.00625
826.10 87.5532
826.20 88.12353
826.30 88.6463
826.40 89.06043
826.50 89.3285
826.60 89.47064
826.70 89.55733
826.80 89.62627
826.90 89.68211
827.00 89.70921
827.10 89.69171
827.20 89.63677
827.30 89.56533
827.40 89.51123
827.50 89.53991
827.60 89.71534
827.70 90.08875
827.80 90.67172
827.90 91.3683
828.00 91.99797
828.10 92.36859
828.20 92.36904
828.30 92.01953
828.40 91.43992
828.50 90.75689
828.60 89.99619
828.70 89.13014
828.80 88.1738
828.90 87.15292
829.00 86.10679
829.10 85.08463
829.20 84.14095
829.30 83.408
829.40 83.06534
829.50 83.25224
829.60 83.98204
829.70 85.07686
829.80 86.22263
829.90 87.07931
830.00 87.47889
830.10 87.41662
830.20 86.91883
830.30 86.05502
830.40 84.94617
830.50 83.77675
830.60 82.7638
830.70 82.0658
830.80 81.75199
830.90 81.79989
831.00 82.12483
831.10 82.62331
831.20 83.19865
831.30 83.79011
831.40 84.33196
831.50 84.76943
831.60 85.10515
831.70 85.38563
831.80 85.67791
831.90 86.02531
832.00 86.42979
832.10 86.87979
832.20 87.32434
832.30 87.6748
832.40 87.83924
832.50 87.75973
832.60 87.43729
832.70 86.96288
832.80 86.48111
832.90 86.11077
833.00 85.92626
833.10 85.95189
833.20 86.17165
833.30 86.53868
833.40 86.99656
833.50 87.4878
833.60 87.9554
833.70 88.38013
833.80 88.84059
833.90 89.46559
834.00 90.35127
834.10 91.46631
834.20 92.74793
834.30 94.13308
834.40 95.48521
834.50 96.64893
834.60 97.40875
834.70 97.58775
834.80 97.16615
834.90 96.2577
835.00 95.10385
835.10 94.0113
835.20 93.20389
835.30 92.7599
835.40 92.62495
835.50 92.70898
835.60 92.87452
835.70 92.93547
835.80 92.76601
835.90 92.34366
836.00 91.82039
836.10 91.40216
836.20 91.2097
836.30 91.31245
836.40 91.72126
836.50 92.37507
836.60 93.15454
836.70 93.90485
836.80 94.49965
836.90 94.83502
837.00 94.801
837.10 94.35989
837.20 93.56312
837.30 92.52345
837.40 91.40341
837.50 90.40972
837.60 89.77773
837.70 89.73379
837.80 90.36626
837.90 91.55933
838.00 93.06224
838.10 94.57337
838.20 95.79507
838.30 96.45396
838.40 96.37408
838.50 95.54255
838.60 94.11867
838.70 92.35702
838.80 90.53508
838.90 88.90036
839.00 87.64123
839.10 86.84309
839.20 86.51521
839.30 86.67309
839.40 87.36813
839.50 88.63797
839.60 90.47924
839.70 92.83993
839.80 95.48787
839.90 98.04591
840.00 100.1416
840.10 101.4892
840.20 101.9814
840.30 101.6902
840.40 100.8127
840.50 99.60059
840.60 98.34267
840.70 97.29392
840.80 96.55413
840.90 96.12513
841.00 95.94586
841.10 95.91862
841.20 96.06621
841.30 96.44735
841.40 97.04316
841.50 97.7893
841.60 98.55317
841.70 99.1764
841.80 99.49719
841.90 99.40363
842.00 98.89969
842.10 98.10944
842.20 97.23331
842.30 96.47968
842.40 96.0091
842.50 95.94199
842.60 96.35829
842.70 97.32132
842.80 98.80615
842.90 100.5946
843.00 102.3415
843.10 103.6114
843.20 104.0007
843.30 103.2897
843.40 101.4721
843.50 98.76858
843.60 95.54478
843.70 92.23395
843.80 89.27128
843.90 86.94456
844.00 85.30938
844.10 84.19611
844.20 83.36297
844.30 82.63634
844.40 81.9049
844.50 81.17921
844.60 80.57548
844.70 80.22483
844.80 80.17837
844.90 80.35783
845.00 80.66919
845.10 80.99523
845.20 81.19132
845.30 81.16344
845.40 80.87528
845.50 80.35755
845.60 79.7054
845.70 79.04759
845.80 78.51802
845.90 78.21643
846.00 78.22221
846.10 78.56172
846.20 79.14141
846.30 79.78259
846.40 80.32801
846.50 80.69417
846.60 80.8326
846.70 80.71113
846.80 80.32365
846.90 79.71452
847.00 78.9454
847.10 78.1093
847.20 77.31825
847.30 76.6746
847.40 76.21755
847.50 75.91793
847.60 75.79847
847.70 75.89953
847.80 76.16397
847.90 76.45295
848.00 76.62479
848.10 76.5971
848.20 76.43299
848.30 76.26537
848.40 76.17576
848.50 76.18837
848.60 76.31607
848.70 76.603
848.80 77.10899
848.90 77.84631
849.00 78.74387
849.10 79.72214
849.20 80.70615
849.30 81.58256
849.40 82.21845
849.50 82.49551
849.60 82.29855
849.70 81.59806
849.80 80.54273
849.90 79.45125
850.00 78.69366
850.10 78.52987
850.20 79.03635
850.30 80.09336
850.40 81.47152
850.50 82.89843
850.60 84.07255
850.70 84.73342
850.80 84.7422
850.90 84.12157
851.00 83.04011
851.10 81.71452
851.20 80.33491
851.30 79.01395
851.40 77.78141
851.50 76.57682
851.60 75.2545
851.70 73.68044
851.80 71.77849
851.90 69.54141
852.00 67.13409
852.10 64.9362
852.20 63.39779
852.30 62.87171
852.40 63.5094
852.50 65.27167
852.60 67.95849
852.70 71.19106
852.80 74.47392
852.90 77.3706
853.00 79.61687
853.10 81.15113
853.20 82.09176
853.30 82.65242
853.40 83.01873
853.50 83.27524
853.60 83.4675
853.70 83.64607
853.80 83.85519
853.90 84.11197
854.00 84.3701
854.10 84.56951
854.20 84.71288
854.30 84.84214
854.40 85.02282
854.50 85.31708
854.60 85.78884
854.70 86.4831
854.80 87.36989
854.90 88.34778
855.00 89.27221
855.10 90.0072
855.20 90.46072
855.30 90.61252
855.40 90.5246
855.50 90.28509
855.60 89.9391
855.70 89.48985
855.80 88.93351
855.90 88.29821
856.00 87.59019
856.10 86.80919
856.20 86.05259
856.30 85.49355
856.40 85.28041
856.50 85.46483
856.60 85.9946
856.70 86.72451
856.80 87.4809
856.90 88.10893
857.00 88.50421
857.10 88.62608
857.20 88.47547
857.30 88.09369
857.40 87.58349
857.50 87.08214
857.60 86.68732
857.70 86.44493
857.80 86.40534
857.90 86.6298
858.00 87.12691
858.10 87.85074
858.20 88.71398
858.30 89.61038
858.40 90.46598
858.50 91.23668
858.60 91.87621
858.70 92.31691
858.80 92.50236
858.90 92.4014
859.00 92.00381
859.10 91.38449
859.20 90.68834
859.30 90.06225
859.40 89.65892
859.50 89.59187
859.60 89.86598
859.70 90.39254
859.80 91.01445
859.90 91.5462
860.00 91.85945
860.10 91.91147
860.20 91.72757
860.30 91.39722
860.40 91.02139
860.50 90.62868
860.60 90.15329
860.70 89.4723
860.80 88.45356
860.90 87.01135
861.00 85.15898
861.10 82.95384
861.20 80.44327
861.30 77.70673
861.40 74.88326
861.50 72.16867
861.60 69.74002
861.70 67.71117
861.80 66.17256
861.90 65.1748
862.00 64.67717
862.10 64.55651
862.20 64.64619
862.30 64.77393
862.40 64.79478
862.50 64.65355
862.60 64.39379
862.70 64.09438
862.80 63.79823
862.90 63.48822
863.00 63.15296
863.10 62.82676
863.20 62.56483
863.30 62.3948
863.40 62.31698
863.50 62.3417
863.60 62.48914
863.70 62.76044
863.80 63.11648
863.90 63.5145
864.00 63.95387
864.10 64.4348
864.20 64.93438
864.30 65.42546
864.40 65.86403
864.50 66.25184
864.60 66.64011
864.70 67.06911
864.80 67.58915
864.90 68.2541
865.00 69.12767
865.10 70.24159
865.20 71.57156
865.30 73.06044
865.40 74.58805
865.50 76.01032
865.60 77.23177
865.70 78.22865
865.80 79.01008
865.90 79.50768
866.00 79.63527
866.10 79.4136
866.20 78.95535
866.30 78.39217
866.40 77.80099
866.50 77.25303
866.60 76.83525
866.70 76.5637
866.80 76.37232
866.90 76.20783
867.00 76.06619
867.10 75.9162
867.20 75.7311
867.30 75.57778
867.40 75.57339
867.50 75.79693
867.60 76.24266
867.70 76.84479
867.80 77.47224
867.90 77.91027
868.00 77.96029
868.10 77.55136
868.20 76.76047
868.30 75.7675
868.40 74.78163
868.50 73.98971
868.60 73.51765
868.70 73.356
868.80 73.31075
868.90 73.10379
869.00 72.47261
869.10 71.19469
869.20 69.19451
869.30 66.61992
869.40 63.75708
869.50 60.96774
869.60 58.62369
869.70 56.94806
869.80 55.99057
869.90 55.72369
870.00 56.05896
870.10 56.83813
870.20 57.90035
870.30 59.0702
870.40 60.17589
870.50 61.11277
870.60 61.80789
870.70 62.18297
870.80 62.15637
870.90 61.67889
871.00 60.78786
871.10 59.64677
871.20 58.48587
871.30 57.4956
871.40 56.78558
871.50 56.39874
871.60 56.30685
871.70 56.42117
871.80 56.61806
871.90 56.78953
872.00 56.89389
872.10 56.95916
872.20 57.11174
872.30 57.49778
872.40 58.21832
872.50 59.29801
872.60 60.65791
872.70 62.12241
872.80 63.45773
872.90 64.48907
873.00 65.13407
873.10 65.38094
873.20 65.24892
873.30 64.79072
873.40 64.12966
873.50 63.4385
873.60 62.88683
873.70 62.60152
873.80 62.63917
873.90 63.02862
874.00 63.77683
874.10 64.88536
874.20 66.33007
874.30 67.93503
874.40 69.41438
874.50 70.49969
874.60 71.02949
874.70 70.99761
874.80 70.53308
874.90 69.86333
875.00 69.25109
875.10 68.92237
875.20 69.01003
875.30 69.54864
875.40 70.52586
875.50 71.89547
875.60 73.60846
875.70 75.6198
875.80 77.80961
875.90 80.02726
876.00 82.08438
876.10 83.70046
876.20 84.58599
876.30 84.61146
876.40 83.85194
876.50 82.58655
876.60 81.2748
876.70 80.35456
876.80 80.11525
876.90 80.6445
877.00 81.87521
877.10 83.59188
877.20 85.51946
877.30 87.39038
877.40 89.01941
877.50 90.35573
877.60 91.29877
877.70 91.70011
877.80 91.51346
877.90 90.75114
878.00 89.43108
878.10 87.66512
878.20 85.68656
878.30 83.78961
878.40 82.14531
878.50 80.84473
878.60 80.00021
878.70 79.67707
878.80 79.88848
878.90 80.57392
879.00 81.65975
879.10 83.03856
879.20 84.51974
879.30 85.90945
879.40 87.05465
879.50 87.84559
879.60 88.16694
879.70 87.88776
879.80 86.94427
879.90 85.38958
880.00 83.36435
880.10 81.08826
880.20 78.76671
880.30 76.55488
880.40 74.65015
880.50 73.26629
880.60 72.5935
880.70 72.78412
880.80 73.87544
880.90 75.76673
881.00 78.29808
881.10 81.33912
881.20 84.77225
881.30 88.43146
881.40 92.08566
881.50 95.44808
881.60 98.24552
881.70 100.2907
881.80 101.4424
881.90 101.5905
882.00 100.6679
882.10 98.73639
882.20 96.1565
882.30 93.61645
882.40 91.84351
882.50 91.3906
882.60 92.58369
882.70 95.28759
882.80 98.89954
882.90 102.5715
883.00 105.4523
883.10 106.9096
883.20 106.8219
883.30 105.6918
883.40 104.2924
883.50 103.2853
883.60 103.0852
883.70 103.766
883.80 105.0964
883.90 106.545
884.00 107.3849
884.10 107.0868
884.20 105.4191
884.30 102.4204
884.40 98.45556
884.50 94.15702
884.60 90.17956
884.70 86.99779
884.80 85.02236
884.90 84.64503
885.00 86.00277
885.10 88.79745
885.20 92.39999
885.30 96.04468
885.40 98.97351
885.50 100.6204
885.60 100.7694
885.70 99.57561
885.80 97.40696
885.90 94.72188
886.00 92.03553
886.10 89.81459
886.20 88.36082
886.30 87.76825
886.40 87.93823
886.50 88.67545
886.60 89.72419
886.70 90.72044
886.80 91.22066
886.90 90.84754
887.00 89.43593
887.10 87.10406
887.20 84.27242
887.30 81.58159
887.40 79.68924
887.50 79.06924
887.60 79.93048
887.70 82.13384
887.80 85.20647
887.90 88.52832
888.00 91.49317
888.10 93.71427
888.20 95.12873
888.30 96.00157
888.40 96.90952
888.50 98.39804
888.60 100.6819
888.70 103.5874
888.80 106.5873
888.90 109.0025
889.00 110.2142
889.10 109.8072
889.20 107.6567
889.30 103.9509
889.40 99.21028
889.50 94.21344
889.60 89.84212
889.70 86.79611
889.80 85.41668
889.90 85.81769
890.00 87.91465
890.10 91.39547
890.20 95.775
890.30 100.4308
890.40 104.6
890.50 107.5602
890.60 108.8727
890.70 108.399
890.80 106.3127
890.90 103.1108
891.00 99.5441
891.10 96.43685
891.20 94.35099
891.30 93.48081
891.40 93.85509
891.50 95.4418
891.60 98.05524
891.70 101.3724
891.80 105.0528
891.90 108.7283
892.00 111.9374
892.10 114.187
892.20 115.1036
892.30 114.5425
892.40 112.5543
892.50 109.3857
892.60 105.6191
892.70 102.0865
892.80 99.54473
892.90 98.4373
893.00 98.89179
893.10 100.708
893.20 103.3548
893.30 106.0867
893.40 108.1675
893.50 109.096
893.60 108.6412
893.70 106.7943
893.80 103.8184
893.90 100.1897
894.00 96.41169
894.10 92.9583
894.20 90.22392
894.30 88.49133
894.40 87.90826
894.50 88.38035
894.60 89.60426
894.70 91.20125
894.80 92.76814
894.90 93.96195
895.00 94.58287
895.10 94.70217
895.20 94.64624
895.30 94.95652
895.40 96.26351
895.50 98.87152
895.60 102.6107
895.70 106.9822
895.80 111.2984
895.90 114.8385
896.00 116.9851
896.10 117.3511
896.20 115.9022
896.30 112.9589
896.40 109.0951
896.50 104.9938
896.60 101.3761
896.70 98.77509
896.80 97.35875
896.90 97.11774
897.00 97.95833
897.10 99.63734
897.20 101.7902
897.30 104.0585
897.40 106.164
897.50 107.9085
897.60 109.2058
897.70 110.0734
897.80 110.6104
897.90 110.982
898.00 111.2911
898.10 111.6168
898.20 112.1962
898.30 113.355
898.40 115.2608
898.50 117.8079
898.60 120.6775
898.70 123.4196
898.80 125.5563
898.90 126.7503
899.00 126.837
899.10 125.794
899.20 123.7628
899.30 120.9549
899.40 117.6947
899.50 114.4369
899.60 111.524
899.70 109.2062
899.80 107.8584
899.90 107.9577
900.00 108.6584
900.10 109.3592
900.20 110.0599
900.30 110.7607
900.40 111.4614
900.50 112.1622
900.60 112.8629
900.70 113.5636
900.80 114.2644
900.90 114.9651
901.00 115.6659
901.10 116.3666
901.20 117.0674
901.30 117.7681
901.40 118.4689
901.50 119.1696
901.60 119.8704
901.70 120.5711
901.80 121.2719
901.90 121.9726
902.00 122.6734
902.10 123.3741
902.20 124.0749
902.30 124.7756
902.40 125.4764
902.50 126.1771
902.60 126.8779
902.70 127.5786
902.80 128.2794
902.90 128.9801
903.00 129.6809
903.10 130.3816
903.20 130.5218
903.30 130.6564
903.40 130.7909
903.50 130.9255
903.60 131.06
903.70 131.1945
903.80 131.3291
903.90 131.4636
904.00 131.5982
904.10 131.7327
904.20 131.8673
904.30 132.0018
904.40 132.1364
904.50 132.2709
904.60 132.4055
904.70 132.54
904.80 132.6746
904.90 132.8091
905.00 132.9437
905.10 133.0782
905.20 133.2127
905.30 133.3473
905.40 133.4818
905.50 133.6164
905.60 133.7509
905.70 133.8855
905.80 134.02
905.90 134.1546
906.00 134.2891
906.10 134.4237
906.20 134.5582
906.30 134.6928
906.40 134.8273
906.50 134.9618
906.60 135.1511
906.70 135.3639
906.80 135.5766
906.90 135.7893
907.00 136.0021
907.10 136.2148
907.20 136.4275
907.30 136.6403
907.40 136.853
907.50 137.0657
907.60 137.2785
907.70 137.4912
907.80 137.7039
907.90 137.9167
908.00 138.1294
908.10 138.3421
908.20 138.5549
908.30 138.7676
908.40 138.9803
908.50 139.1931
908.60 139.4058
908.70 139.6185
908.80 139.8313
908.90 140.044
909.00 140.2567
909.10 140.4695
909.20 140.6822
909.30 140.8949
909.40 141.1077
909.50 141.3204
909.60 141.5331
909.70 141.7459
909.80 141.9586
909.90 142.1713
910.00 142.365
910.10 142.4951
910.20 142.6252
910.30 142.7553
910.40 142.8854
910.50 143.0155
910.60 143.1455
910.70 143.2756
910.80 143.4057
910.90 143.5358
911.00 143.6659
911.10 143.7959
911.20 143.926
911.30 144.0561
911.40 144.1862
911.50 144.3163
911.60 144.4464
911.70 144.5764
911.80 144.7065
911.90 144.8366
912.00 144.9667
912.10 145.0968
912.20 145.2269
912.30 145.3569
912.40 145.487
912.50 145.6171
912.60 145.7472
912.70 145.8773
912.80 146.0073
912.90 146.1374
913.00 146.2675
913.10 146.3976
913.20 146.5277
913.30 146.6578
913.40 146.7878
913.50 147.0086
913.60 147.2979
913.70 147.5871
913.80 147.8763
913.90 148.1656
914.00 148.4548
914.10 148.744
914.20 149.0332
914.30 149.3225
914.40 149.6117
914.50 149.9009
914.60 150.1902
914.70 150.4794
914.80 150.7686
914.90 151.0579
915.00 151.3471
915.10 151.6363
915.20 151.9255
915.30 152.2148
915.40 152.504
915.50 152.7932
915.60 153.0825
915.70 153.3717
915.80 153.6609
915.90 153.9502
916.00 154.2394
916.10 154.5286
916.20 154.8178
916.30 155.1071
916.40 155.3963
916.50 155.6855
916.60 155.9748
916.70 156.264
916.80 156.5532
916.90 156.8425
917.00 157.0304
917.10 157.1827
917.20 157.335
917.30 157.4873
917.40 157.6396
917.50 157.792
917.60 157.9443
917.70 158.0966
917.80 158.2489
917.90 158.4012
918.00 158.5535
918.10 158.7058
918.20 158.8582
918.30 159.0105
918.40 159.1628
918.50 159.3151
918.60 159.4674
918.70 159.6197
918.80 159.7721
918.90 159.9244
919.00 160.0767
919.10 160.229
919.20 160.3813
919.30 160.5336
919.40 160.686
919.50 160.8383
919.60 160.9906
919.70 161.1429
919.80 161.2952
919.90 161.4475
920.00 161.5998
920.10 161.7522
920.20 161.9045
920.30 162.0568
920.40 162.2091
920.50 162.3999
920.60 162.6042
920.70 162.8084
920.80 163.0127
920.90 163.217
921.00 163.4213
921.10 163.6255
921.20 163.8298
921.30 164.0341
921.40 164.2384
921.50 164.4427
921.60 164.6469
921.70 164.8512
921.80 165.0555
921.90 165.2598
922.00 165.4641
922.10 165.6683
922.20 165.8726
922.30 166.0769
922.40 166.2812
922.50 166.4854
922.60 166.6897
922.70 166.894
922.80 167.0983
922.90 167.3026
923.00 167.5068
923.10 167.7111
923.20 167.9154
923.30 168.1197
923.40 168.3239
923.50 168.5282
923.60 168.7325
923.70 168.9368
923.80 169.1411
923.90 169.3453
924.00 169.3267
924.10 169.1329
924.20 168.9391
924.30 168.7453
924.40 168.5516
924.50 168.3578
924.60 168.164
924.70 167.9702
924.80 167.7764
924.90 167.5826
925.00 167.3888
925.10 167.1951
925.20 167.0013
925.30 166.8075
925.40 166.6137
925.50 166.4199
925.60 166.2261
925.70 166.0324
925.80 165.8386
925.90 165.6448
926.00 165.451
926.10 165.2572
926.20 165.0634
926.30 164.8696
926.40 164.6759
926.50 164.4821
926.60 164.2883
926.70 164.0945
926.80 163.9007
926.90 163.7069
927.00 163.5131
927.10 163.3194
927.20 163.1256
927.30 162.9318
927.40 162.738
927.50 162.5417
927.60 162.3355
927.70 162.1293
927.80 161.9231
927.90 161.717
928.00 161.5108
928.10 161.3046
928.20 161.0984
928.30 160.8922
928.40 160.686
928.50 160.4798
928.60 160.2736
928.70 160.0674
928.80 159.8612
928.90 159.655
929.00 159.4488
929.10 159.2426
929.20 159.0364
929.30 158.8302
929.40 158.624
929.50 158.4178
929.60 158.2116
929.70 158.0054
929.80 157.7992
929.90 157.593
930.00 157.3868
930.10 157.1806
930.20 156.9744
930.30 156.7682
930.40 156.562
930.50 156.3558
930.60 156.1496
930.70 155.9434
930.80 155.7372
930.90 155.531
931.00 155.3248
931.10 155.5218
931.20 155.9174
931.30 156.3129
931.40 156.7085
931.50 157.104
931.60 157.4996
931.70 157.8951
931.80 158.2907
931.90 158.6862
932.00 159.0818
932.10 159.4774
932.20 159.8729
932.30 160.2685
932.40 160.664
932.50 161.0596
932.60 161.4551
932.70 161.8507
932.80 162.2462
932.90 162.6418
933.00 163.0373
933.10 163.4329
933.20 163.8285
933.30 164.224
933.40 164.6196
933.50 165.0151
933.60 165.4107
933.70 165.8062
933.80 166.2018
933.90 166.5973
934.00 166.9929
934.10 167.3884
934.20 167.784
934.30 168.1795
934.40 168.5751
934.50 168.9707
934.60 169.3662
934.70 169.6574
934.80 169.9454
934.90 170.2334
935.00 170.5213
935.10 170.8093
935.20 171.0973
935.30 171.3853
935.40 171.6733
935.50 171.9612
935.60 172.2492
935.70 172.5372
935.80 172.8252
935.90 173.1131
936.00 173.4011
936.10 173.6891
936.20 173.9771
936.30 174.265
936.40 174.553
936.50 174.841
936.60 175.129
936.70 175.4169
936.80 175.7049
936.90 175.9929
937.00 176.2809
937.10 176.5689
937.20 176.8568
937.30 177.1448
937.40 177.4328
937.50 177.7208
937.60 178.0087
937.70 178.2967
937.80 178.5847
937.90 178.8727
938.00 179.1606
938.10 179.4486
938.20 179.7061
938.30 179.6893
938.40 179.6725
938.50 179.6557
938.60 179.6389
938.70 179.622
938.80 179.6052
938.90 179.5884
939.00 179.5716
939.10 179.5548
939.20 179.538
939.30 179.5212
939.40 179.5044
939.50 179.4875
939.60 179.4707
939.70 179.4539
939.80 179.4371
939.90 179.4203
940.00 179.4035
940.10 179.3867
940.20 179.3698
940.30 179.353
940.40 179.3362
940.50 179.3194
940.60 179.3026
940.70 179.2858
940.80 179.269
940.90 179.2522
941.00 179.2353
941.10 179.2185
941.20 179.2017
941.30 179.1849
941.40 179.1681
941.50 179.1513
941.60 179.1345
941.70 179.1176
941.80 179.111
941.90 179.2393
942.00 179.3677
942.10 179.496
942.20 179.6243
942.30 179.7527
942.40 179.881
942.50 180.0093
942.60 180.1377
942.70 180.266
942.80 180.3943
942.90 180.5227
943.00 180.651
943.10 180.7793
943.20 180.9077
943.30 181.036
943.40 181.1643
943.50 181.2927
943.60 181.421
943.70 181.5494
943.80 181.6777
943.90 181.806
944.00 181.9344
944.10 182.0627
944.20 182.191
944.30 182.3194
944.40 182.4477
944.50 182.576
944.60 182.7044
944.70 182.8327
944.80 182.961
944.90 183.0894
945.00 183.2177
945.10 183.346
945.20 183.4744
945.30 183.6027
945.40 183.731
945.50 183.9568
945.60 184.197
945.70 184.4373
945.80 184.6776
945.90 184.9179
946.00 185.1581
946.10 185.3984
946.20 185.6387
946.30 185.8789
946.40 186.1192
946.50 186.3595
946.60 186.5998
946.70 186.84
946.80 187.0803
946.90 187.3206
947.00 187.5608
947.10 187.8011
947.20 188.0414
947.30 188.2817
947.40 188.5219
947.50 188.7622
947.60 189.0025
947.70 189.2427
947.80 189.483
947.90 189.7233
948.00 189.9636
948.10 190.2038
948.20 190.4441
948.30 190.6844
948.40 190.9247
948.50 191.1649
948.60 191.4052
948.70 191.6455
948.80 191.8857
948.90 192.126
949.00 192.3663
949.10 192.6328
949.20 192.9257
949.30 193.2185
949.40 193.5113
949.50 193.8042
949.60 194.097
949.70 194.3898
949.80 194.6827
949.90 194.9755
950.00 195.2683
950.10 195.5612
950.20 195.854
950.30 196.1468
950.40 196.4397
950.50 196.7325
950.60 197.0253
950.70 197.3182
950.80 197.611
950.90 197.9038
951.00 198.1967
951.10 198.4895
951.20 198.7823
951.30 199.0752
951.40 199.368
951.50 199.6608
951.60 199.9537
951.70 200.2465
951.80 200.5394
951.90 200.8322
952.00 201.125
952.10 201.4179
952.20 201.7107
952.30 202.0035
952.40 202.2964
952.50 202.5892
952.60 202.882
952.70 203.1749
952.80 203.2172
952.90 203.2517
953.00 203.2863
953.10 203.3209
953.20 203.3554
953.30 203.39
953.40 203.4246
953.50 203.4592
953.60 203.4937
953.70 203.5283
953.80 203.5629
953.90 203.5974
954.00 203.632
954.10 203.6666
954.20 203.7011
954.30 203.7357
954.40 203.7703
954.50 203.8048
954.60 203.8394
954.70 203.874
954.80 203.9086
954.90 203.9431
955.00 203.9777
955.10 204.0123
955.20 204.0468
955.30 204.0814
955.40 204.116
955.50 204.1505
955.60 204.1851
955.70 204.2197
955.80 204.2542
955.90 204.2888
956.00 204.3234
956.10 204.358
956.20 204.3925
956.30 204.4271
956.40 204.4647
956.50 204.51
956.60 204.5552
956.70 204.6005
956.80 204.6458
956.90 204.6911
957.00 204.7364
957.10 204.7817
957.20 204.827
957.30 204.8723
957.40 204.9176
957.50 204.9629
957.60 205.0082
957.70 205.0535
957.80 205.0988
957.90 205.1441
958.00 205.1894
958.10 205.2347
958.20 205.28
958.30 205.3252
958.40 205.3705
958.50 205.4158
958.60 205.4611
958.70 205.5064
958.80 205.5517
958.90 205.597
959.00 205.6423
959.10 205.6876
959.20 205.7329
959.30 205.7782
959.40 205.8235
959.50 205.8688
959.60 205.9141
959.70 205.9594
959.80 206.0047
959.90 206.05
960.00 206.0952
960.10 206.0681
960.20 205.9449
960.30 205.8216
960.40 205.6984
960.50 205.5752
960.60 205.452
960.70 205.3288
960.80 205.2056
960.90 205.0824
961.00 204.9591
961.10 204.8359
961.20 204.7127
961.30 204.5895
961.40 204.4663
961.50 204.3431
961.60 204.2199
961.70 204.0966
961.80 203.9734
961.90 203.8502
962.00 203.727
962.10 203.6038
962.20 203.4806
962.30 203.3573
962.40 203.2341
962.50 203.1109
962.60 202.9877
962.70 202.8645
962.80 202.7413
962.90 202.6181
963.00 202.4948
963.10 202.3716
963.20 202.2484
963.30 202.1252
963.40 202.002
963.50 201.8788
963.60 201.7555
963.70 201.6323
963.80 201.6705
963.90 201.9316
964.00 202.1926
964.10 202.4536
964.20 202.7147
964.30 202.9757
964.40 203.2368
964.50 203.4978
964.60 203.7589
964.70 204.0199
964.80 204.2809
964.90 204.542
965.00 204.803
965.10 205.0641
965.20 205.3251
965.30 205.5862
965.40 205.8472
965.50 206.1083
965.60 206.3693
965.70 206.6303
965.80 206.8914
965.90 207.1524
966.00 207.4135
966.10 207.6745
966.20 207.9356
966.30 208.1966
966.40 208.4577
966.50 208.7187
966.60 208.9797
966.70 209.2408
966.80 209.5018
966.90 209.7629
967.00 210.0239
967.10 210.285
967.20 210.546
967.30 210.8071
967.40 211.0681
967.50 211.279
967.60 211.347
967.70 211.4151
967.80 211.4831
967.90 211.5512
968.00 211.6192
968.10 211.6873
968.20 211.7553
968.30 211.8234
968.40 211.8914
968.50 211.9595
968.60 212.0275
968.70 212.0956
968.80 212.1636
968.90 212.2317
969.00 212.2997
969.10 212.3678
969.20 212.4358
969.30 212.5039
969.40 212.5719
969.50 212.64
969.60 212.708
969.70 212.7761
969.80 212.8441
969.90 212.9122
970.00 212.9802
970.10 213.0483
970.20 213.1163
970.30 213.1844
970.40 213.2524
970.50 213.3205
970.60 213.3885
970.70 213.4566
970.80 213.5246
970.90 213.5927
971.00 213.6608
971.10 213.7288
971.20 213.7969
971.30 214.0154
971.40 214.2436
971.50 214.4718
971.60 214.7
971.70 214.9282
971.80 215.1564
971.90 215.3846
972.00 215.6128
972.10 215.841
972.20 216.0692
972.30 216.2974
972.40 216.5256
972.50 216.7538
972.60 216.982
972.70 217.2102
972.80 217.4384
972.90 217.6666
973.00 217.8947
973.10 218.1229
973.20 218.3511
973.30 218.5793
973.40 218.8075
973.50 219.0357
973.60 219.2639
973.70 219.4921
973.80 219.7203
973.90 219.9485
974.00 220.1767
974.10 220.4049
974.20 220.6331
974.30 220.8613
974.40 221.0895
974.50 221.3177
974.60 221.5459
974.70 221.7741
974.80 222.0023
974.90 222.2304
975.00 222.5387
975.10 222.9372
975.20 223.3358
975.30 223.7343
975.40 224.1329
975.50 224.5314
975.60 224.9299
975.70 225.3285
975.80 225.727
975.90 226.1255
976.00 226.5241
976.10 226.9226
976.20 227.3212
976.30 227.7197
976.40 228.1182
976.50 228.5168
976.60 228.9153
976.70 229.3138
976.80 229.7124
976.90 230.1109
977.00 230.5095
977.10 230.908
977.20 231.3065
977.30 231.7051
977.40 232.1036
977.50 232.5021
977.60 232.9007
977.70 233.2992
977.80 233.6978
977.90 234.0963
978.00 234.4948
978.10 234.8934
978.20 235.2919
978.30 235.6904
978.40 236.089
978.50 236.4875
978.60 236.8861
978.70 237.2846
978.80 237.2789
978.90 237.2019
979.00 237.125
979.10 237.048
979.20 236.971
979.30 236.894
979.40 236.817
979.50 236.74
979.60 236.663
979.70 236.586
979.80 236.509
979.90 236.432
980.00 236.3551
980.10 236.2781
980.20 236.2011
980.30 236.1241
980.40 236.0471
980.50 235.9701
980.60 235.8931
980.70 235.8161
980.80 235.7391
980.90 235.6621
981.00 235.5852
981.10 235.5082
981.20 235.4312
981.30 235.3542
981.40 235.2772
981.50 235.2002
981.60 235.1232
981.70 235.0462
981.80 234.9692
981.90 234.8922
982.00 234.8153
982.10 234.7383
982.20 234.6613
982.30 234.5843
982.40 234.5073
982.50 234.3968
982.60 233.9005
982.70 233.4043
982.80 232.908
982.90 232.4118
983.00 231.9156
983.10 231.4193
983.20 230.9231
983.30 230.4268
983.40 229.9306
983.50 229.4344
983.60 228.9381
983.70 228.4419
983.80 227.9456
983.90 227.4494
984.00 226.9532
984.10 226.4569
984.20 225.9607
984.30 225.4644
984.40 224.9682
984.50 224.472
984.60 223.9757
984.70 223.4795
984.80 222.9832
984.90 222.487
985.00 221.9908
985.10 221.4945
985.20 220.9983
985.30 220.502
985.40 220.0058
985.50 219.5096
985.60 219.0133
985.70 218.5171
985.80 218.0208
985.90 217.5246
986.00 217.0284
986.10 216.5321
986.20 216.0359
986.30 215.5215
986.40 214.9119
986.50 214.3023
986.60 213.6928
986.70 213.0832
986.80 212.4736
986.90 211.864
987.00 211.2544
987.10 210.6449
987.20 210.0353
987.30 209.4257
987.40 208.8161
987.50 208.2066
987.60 207.597
987.70 206.9874
987.80 206.3778
987.90 205.7682
988.00 205.1587
988.10 204.5491
988.20 203.9395
988.30 203.3299
988.40 202.7203
988.50 202.1108
988.60 201.5012
988.70 200.8916
988.80 200.282
988.90 199.6724
989.00 199.0629
989.10 198.4533
989.20 197.8437
989.30 197.2341
989.40 196.6245
989.50 196.015
989.60 195.4054
989.70 194.7958
989.80 194.1862
989.90 193.5766
990.00 192.9671
990.10 192.3664
990.20 191.8458
990.30 191.3253
990.40 190.8047
990.50 190.2842
990.60 189.7636
990.70 189.2431
990.80 188.7225
990.90 188.2019
991.00 187.6814
991.10 187.1608
991.20 186.6403
991.30 186.1197
991.40 185.5992
991.50 185.0786
991.60 184.5581
991.70 184.0375
991.80 183.517
991.90 182.9964
992.00 182.4758
992.10 181.9553
992.20 181.4347
992.30 180.9142
992.40 180.3936
992.50 179.8731
992.60 179.3525
992.70 178.832
992.80 178.3114
992.90 177.7908
993.00 177.2703
993.10 176.7497
993.20 176.2292
993.30 175.7086
993.40 175.1881
993.50 174.6675
993.60 174.147
993.70 173.6264
993.80 173.1058
993.90 172.5853
994.00 172.2194
994.10 171.8707
994.20 171.522
994.30 171.1733
994.40 170.8246
994.50 170.4759
994.60 170.1272
994.70 169.7785
994.80 169.4299
994.90 169.0812
995.00 168.7325
995.10 168.3838
995.20 168.0351
995.30 167.6864
995.40 167.3377
995.50 166.989
995.60 166.6403
995.70 166.2916
995.80 165.9429
995.90 165.5942
996.00 165.2455
996.10 164.8968
996.20 164.5481
996.30 164.1994
996.40 163.8507
996.50 163.502
996.60 163.1533
996.70 162.8046
996.80 162.4559
996.90 162.1073
997.00 161.7586
997.10 161.4099
997.20 161.0612
997.30 160.7125
997.40 160.3638
997.50 160.0151
997.60 159.6664
997.70 159.3177
997.80 159.2895
997.90 159.5237
998.00 159.7578
998.10 159.9919
998.20 160.226
998.30 160.4602
998.40 160.6943
998.50 160.9284
998.60 161.1625
998.70 161.3966
998.80 161.6308
998.90 161.8649
999.00 162.099
999.10 162.3331
999.20 162.5673
999.30 162.8014
999.40 163.0355
999.50 163.2696
999.60 163.5037
999.70 163.7379
999.80 163.972
999.90 164.2061
1000.00 164.4402
1000.10 164.6744
1000.20 164.9085
1000.30 165.1426
1000.40 165.3767
1000.50 165.6108
1000.60 165.845
1000.70 166.0791
1000.80 166.3132
1000.90 166.5473
1001.00 166.7815
1001.10 167.0156
1001.20 167.2497
1001.30 167.4838
1001.40 167.7179
1001.50 167.9521
1001.60 168.1864
1001.70 168.423
1001.80 168.6596
1001.90 168.8962
1002.00 169.1329
1002.10 169.3695
1002.20 169.6061
1002.30 169.8427
1002.40 170.0793
1002.50 170.3159
1002.60 170.5525
1002.70 170.7891
1002.80 171.0257
1002.90 171.2623
1003.00 171.4989
1003.10 171.7355
1003.20 171.9721
1003.30 172.2087
1003.40 172.4453
1003.50 172.6819
1003.60 172.9185
1003.70 173.1551
1003.80 173.3917
1003.90 173.6283
1004.00 173.865
1004.10 174.1016
1004.20 174.3382
1004.30 174.5748
1004.40 174.8114
1004.50 175.048
1004.60 175.2846
1004.70 175.5212
1004.80 175.7578
1004.90 175.9944
1005.00 176.231
1005.10 176.4676
1005.20 176.7042
1005.30 176.9408
1005.40 177.1774
1005.50 177.4969
1005.60 177.9408
1005.70 178.3846
1005.80 178.8285
1005.90 179.2723
1006.00 179.7161
1006.10 180.16
1006.20 180.6038
1006.30 181.0477
1006.40 181.4915
1006.50 181.9354
1006.60 182.3792
1006.70 182.823
1006.80 183.2669
1006.90 183.7107
1007.00 184.1546
1007.10 184.5984
1007.20 185.0423
1007.30 185.4861
1007.40 185.9299
1007.50 186.3738
1007.60 186.8176
1007.70 187.2615
1007.80 187.7053
1007.90 188.1492
1008.00 188.593
1008.10 189.0368
1008.20 189.4807
1008.30 189.9245
1008.40 190.3684
1008.50 190.8122
1008.60 191.2561
1008.70 191.6999
1008.80 192.1437
1008.90 192.5876
1009.00 193.0314
1009.10 193.4753
1009.20 193.9191
1009.30 194.363
1009.40 194.6287
1009.50 194.818
1009.60 195.0074
1009.70 195.1968
1009.80 195.3862
1009.90 195.5755
1010.00 195.7649
1010.10 195.9543
1010.20 196.1436
1010.30 196.333
1010.40 196.5224
1010.50 196.7118
1010.60 196.9011
1010.70 197.0905
1010.80 197.2799
1010.90 197.4692
1011.00 197.6586
1011.10 197.848
1011.20 198.0374
1011.30 198.2267
1011.40 198.4161
1011.50 198.6055
1011.60 198.7948
1011.70 198.9842
1011.80 199.1736
1011.90 199.3629
1012.00 199.5523
1012.10 199.7417
1012.20 199.9311
1012.30 200.1204
1012.40 200.3098
1012.50 200.4992
1012.60 200.6885
1012.70 200.8779
1012.80 201.0673
1012.90 201.2567
1013.00 201.446
1013.10 201.6354
1013.20 201.8248
1013.30 201.8541
1013.40 201.8434
1013.50 201.8327
1013.60 201.822
1013.70 201.8112
1013.80 201.8005
1013.90 201.7898
1014.00 201.7791
1014.10 201.7684
1014.20 201.7577
1014.30 201.747
1014.40 201.7363
1014.50 201.7256
1014.60 201.7149
1014.70 201.7042
1014.80 201.6935
1014.90 201.6828
1015.00 201.6721
1015.10 201.6614
1015.20 201.6507
1015.30 201.6399
1015.40 201.6292
1015.50 201.6185
1015.60 201.6078
1015.70 201.5971
1015.80 201.5864
1015.90 201.5757
1016.00 201.565
1016.10 201.5543
1016.20 201.5436
1016.30 201.5329
1016.40 201.5222
1016.50 201.5115
1016.60 201.5008
1016.70 201.4901
1016.80 201.4793
1016.90 201.4686
1017.00 201.4579
1017.10 201.4472
1017.20 201.594
1017.30 201.7801
1017.40 201.9661
1017.50 202.1522
1017.60 202.3383
1017.70 202.5244
1017.80 202.7105
1017.90 202.8966
1018.00 203.0827
1018.10 203.2688
1018.20 203.4549
1018.30 203.641
1018.40 203.8271
1018.50 204.0132
1018.60 204.1993
1018.70 204.3853
1018.80 204.5714
1018.90 204.7575
1019.00 204.9436
1019.10 205.1297
1019.20 205.3158
1019.30 205.5019
1019.40 205.688
1019.50 205.8741
1019.60 206.0602
1019.70 206.2463
1019.80 206.4324
1019.90 206.6185
1020.00 206.8045
1020.10 206.9906
1020.20 207.1767
1020.30 207.3628
1020.40 207.5489
1020.50 207.735
1020.60 207.9211
1020.70 208.1072
1020.80 208.2933
1020.90 208.4794
1021.00 208.6655
1021.10 208.7445
1021.20 208.7521
1021.30 208.7597
1021.40 208.7673
1021.50 208.7749
1021.60 208.7825
1021.70 208.7901
1021.80 208.7978
1021.90 208.8054
1022.00 208.813
1022.10 208.8206
1022.20 208.8282
1022.30 208.8358
1022.40 208.8434
1022.50 208.851
1022.60 208.8587
1022.70 208.8663
1022.80 208.8739
1022.90 208.8815
1023.00 208.8891
1023.10 208.8967
1023.20 208.9043
1023.30 208.9119
1023.40 208.9196
1023.50 208.9272
1023.60 208.9348
1023.70 208.9424
1023.80 208.95
1023.90 208.9576
1024.00 208.9652
1024.10 208.9728
1024.20 208.9805
1024.30 208.9881
1024.40 208.9957
1024.50 209.0033
1024.60 209.0109
1024.70 209.0185
1024.80 209.0261
1024.90 209.0337
1025.00 209.041
1025.10 209.0479
1025.20 209.0547
1025.30 209.0616
1025.40 209.0684
1025.50 209.0752
1025.60 209.0821
1025.70 209.0889
1025.80 209.0957
1025.90 209.1026
1026.00 209.1094
1026.10 209.1162
1026.20 209.1231
1026.30 209.1299
1026.40 209.1367
1026.50 209.1436
1026.60 209.1504
1026.70 209.1572
1026.80 209.1641
1026.90 209.1709
1027.00 209.1777
1027.10 209.1846
1027.20 209.1914
1027.30 209.1982
1027.40 209.2051
1027.50 209.2119
1027.60 209.2187
1027.70 209.2256
1027.80 209.2324
1027.90 209.2392
1028.00 209.2461
1028.10 209.2529
1028.20 209.2598
1028.30 209.2666
1028.40 209.2734
1028.50 209.2803
1028.60 209.2871
1028.70 209.2939
1028.80 209.3008
1028.90 209.3076
1029.00 209.7044
1029.10 210.1013
1029.20 210.4981
1029.30 210.895
1029.40 211.2918
1029.50 211.6886
1029.60 212.0855
1029.70 212.4823
1029.80 212.8792
1029.90 213.276
1030.00 213.6729
1030.10 214.0697
1030.20 214.4665
1030.30 214.8634
1030.40 215.2602
1030.50 215.6571
1030.60 216.0539
1030.70 216.4507
1030.80 216.8476
1030.90 217.2444
1031.00 217.6413
1031.10 218.0381
1031.20 218.435
1031.30 218.8318
1031.40 219.2286
1031.50 219.6255
1031.60 220.0223
1031.70 220.4192
1031.80 220.816
1031.90 221.2128
1032.00 221.6097
1032.10 222.0065
1032.20 222.4034
1032.30 222.8002
1032.40 223.1971
1032.50 223.5939
1032.60 223.9907
1032.70 224.3876
1032.80 224.7844
1032.90 225.1014
1033.00 225.2987
1033.10 225.496
1033.20 225.6934
1033.30 225.8907
1033.40 226.088
1033.50 226.2853
1033.60 226.4826
1033.70 226.6799
1033.80 226.8772
1033.90 227.0745
1034.00 227.2718
1034.10 227.4691
1034.20 227.6664
1034.30 227.8637
1034.40 228.061
1034.50 228.2583
1034.60 228.4556
1034.70 228.6529
1034.80 228.8502
1034.90 229.0475
1035.00 229.2448
1035.10 229.4421
1035.20 229.6394
1035.30 229.8367
1035.40 230.034
1035.50 230.2313
1035.60 230.4286
1035.70 230.6259
1035.80 230.8232
1035.90 231.0205
1036.00 231.2178
1036.10 231.4151
1036.20 231.6124
1036.30 231.8098
1036.40 232.0071
1036.50 232.2044
1036.60 232.4017
1036.70 232.599
1036.80 232.7963
1036.90 232.9308
1037.00 233.0497
1037.10 233.1686
1037.20 233.2875
1037.30 233.4064
1037.40 233.5253
1037.50 233.6441
1037.60 233.763
1037.70 233.8819
1037.80 234.0008
1037.90 234.1197
1038.00 234.2386
1038.10 234.3575
1038.20 234.4763
1038.30 234.5952
1038.40 234.7141
1038.50 234.833
1038.60 234.9519
1038.70 235.0708
1038.80 235.1896
1038.90 235.3085
1039.00 235.4274
1039.10 235.5463
1039.20 235.6652
1039.30 235.7841
1039.40 235.903
1039.50 236.0218
1039.60 236.1407
1039.70 236.2596
1039.80 236.3785
1039.90 236.4974
1040.00 236.6163
1040.10 236.7352
1040.20 236.854
1040.30 236.9729
1040.40 237.0918
1040.50 237.2107
1040.60 237.3296
1040.70 237.4485
1040.80 237.5673
1040.90 237.6639
1041.00 237.7604
1041.10 237.8569
1041.20 237.9534
1041.30 238.05
1041.40 238.1465
1041.50 238.243
1041.60 238.3395
1041.70 238.4361
1041.80 238.5326
1041.90 238.6291
1042.00 238.7256
1042.10 238.8222
1042.20 238.9187
1042.30 239.0152
1042.40 239.1117
1042.50 239.2083
1042.60 239.3048
1042.70 239.4013
1042.80 239.4978
1042.90 239.5944
1043.00 239.6909
1043.10 239.7874
1043.20 239.8839
1043.30 239.9805
1043.40 240.077
1043.50 240.1735
1043.60 240.27
1043.70 240.3666
1043.80 240.4631
1043.90 240.5596
1044.00 240.6561
1044.10 240.7527
1044.20 240.8492
1044.30 240.9457
1044.40 241.0422
1044.50 241.1388
1044.60 241.2353
1044.70 241.3318
1044.80 241.4342
1044.90 241.5893
1045.00 241.7445
1045.10 241.8997
1045.20 242.0548
1045.30 242.21
1045.40 242.3651
1045.50 242.5203
1045.60 242.6754
1045.70 242.8306
1045.80 242.9857
1045.90 243.1409
1046.00 243.296
1046.10 243.4512
1046.20 243.6063
1046.30 243.7615
1046.40 243.9166
1046.50 244.0718
1046.60 244.2269
1046.70 244.3821
1046.80 244.5373
1046.90 244.6924
1047.00 244.8476
1047.10 245.0027
1047.20 245.1579
1047.30 245.313
1047.40 245.4682
1047.50 245.6233
1047.60 245.7785
1047.70 245.9336
1047.80 246.0888
1047.90 246.2439
1048.00 246.3991
1048.10 246.5542
1048.20 246.7094
1048.30 246.8645
1048.40 247.0197
1048.50 247.1749
1048.60 247.33
1048.70 247.4852
1048.80 247.6205
1048.90 247.5773
1049.00 247.534
1049.10 247.4908
1049.20 247.4476
1049.30 247.4044
1049.40 247.3612
1049.50 247.318
1049.60 247.2748
1049.70 247.2315
1049.80 247.1883
1049.90 247.1451
1050.00 247.1019
1050.10 247.0587
1050.20 247.0155
1050.30 246.9722
1050.40 246.929
1050.50 246.8858
1050.60 246.8426
1050.70 246.7994
1050.80 246.7562
1050.90 246.7129
1051.00 246.6697
1051.10 246.6265
1051.20 246.5833
1051.30 246.5401
1051.40 246.4969
1051.50 246.4537
1051.60 246.4104
1051.70 246.3672
1051.80 246.324
1051.90 246.2808
1052.00 246.2376
1052.10 246.1944
1052.20 246.1511
1052.30 246.1079
1052.40 246.0647
1052.50 246.0215
1052.60 245.9783
1052.70 245.9351
1052.80 245.8918
1052.90 245.7455
1053.00 245.5991
1053.10 245.4527
1053.20 245.3064
1053.30 245.16
1053.40 245.0136
1053.50 244.8672
1053.60 244.7209
1053.70 244.5745
1053.80 244.4281
1053.90 244.2817
1054.00 244.1354
1054.10 243.989
1054.20 243.8426
1054.30 243.6963
1054.40 243.5499
1054.50 243.4035
1054.60 243.2571
1054.70 243.1108
1054.80 242.9644
1054.90 242.818
1055.00 242.6717
1055.10 242.5253
1055.20 242.3789
1055.30 242.2325
1055.40 242.0862
1055.50 241.9398
1055.60 241.7934
1055.70 241.647
1055.80 241.5007
1055.90 241.3543
1056.00 241.2079
1056.10 241.0616
1056.20 240.9152
1056.30 240.7688
1056.40 240.6224
1056.50 240.4761
1056.60 240.3297
1056.70 240.1833
1056.80 240.0369
1056.90 240.0378
1057.00 240.0755
1057.10 240.1132
1057.20 240.1509
1057.30 240.1886
1057.40 240.2263
1057.50 240.264
1057.60 240.3017
1057.70 240.3394
1057.80 240.3771
1057.90 240.4148
1058.00 240.4525
1058.10 240.4902
1058.20 240.5279
1058.30 240.5656
1058.40 240.6033
1058.50 240.641
1058.60 240.6787
1058.70 240.7164
1058.80 240.7541
1058.90 240.7918
1059.00 240.8295
1059.10 240.8672
1059.20 240.9049
1059.30 240.9426
1059.40 240.9803
1059.50 241.018
1059.60 241.0557
1059.70 241.0934
1059.80 241.1311
1059.90 241.1688
1060.00 241.2065
1060.10 241.2442
1060.20 241.2819
1060.30 241.3196
1060.40 241.3573
1060.50 241.395
1060.60 241.4327
1060.70 241.4704
1060.80 241.5081
1060.90 241.6562
1061.00 241.9148
1061.10 242.1733
1061.20 242.4318
1061.30 242.6903
1061.40 242.9488
1061.50 243.2073
1061.60 243.4658
1061.70 243.7243
1061.80 243.9829
1061.90 244.2414
1062.00 244.4999
1062.10 244.7584
1062.20 245.0169
1062.30 245.2754
1062.40 245.5339
1062.50 245.7924
1062.60 246.051
1062.70 246.3095
1062.80 246.568
1062.90 246.8265
1063.00 247.085
1063.10 247.3435
1063.20 247.602
1063.30 247.8606
1063.40 248.1191
1063.50 248.3776
1063.60 248.6361
1063.70 248.8946
1063.80 249.1531
1063.90 249.4116
1064.00 249.6701
1064.10 249.9287
1064.20 250.1872
1064.30 250.4457
1064.40 250.7042
1064.50 250.9627
1064.60 251.2212
1064.70 251.4797
1064.80 251.7382
1064.90 251.9968
1065.00 252.2477
1065.10 252.4986
1065.20 252.7495
1065.30 253.0004
1065.40 253.2513
1065.50 253.5022
1065.60 253.7532
1065.70 254.0041
1065.80 254.255
1065.90 254.5059
1066.00 254.7568
1066.10 255.0077
1066.20 255.2586
1066.30 255.5096
1066.40 255.7605
1066.50 256.0114
1066.60 256.2623
1066.70 256.5132
1066.80 256.7641
1066.90 257.015
1067.00 257.266
1067.10 257.5169
1067.20 257.7678
1067.30 258.0187
1067.40 258.2696
1067.50 258.5205
1067.60 258.7714
1067.70 259.0224
1067.80 259.2733
1067.90 259.5242
1068.00 259.7751
1068.10 260.026
1068.20 260.2769
1068.30 260.5278
1068.40 260.7788
1068.50 261.0297
1068.60 261.2806
1068.70 261.5315
1068.80 261.7824
1068.90 262.0333
1069.00 262.297
1069.10 262.5734
1069.20 262.8498
1069.30 263.1263
1069.40 263.4027
1069.50 263.6791
1069.60 263.9555
1069.70 264.2319
1069.80 264.5084
1069.90 264.7848
1070.00 265.0612
1070.10 265.3376
1070.20 265.614
1070.30 265.8905
1070.40 266.1669
1070.50 266.4433
1070.60 266.7197
1070.70 266.9962
1070.80 267.2726
1070.90 267.549
1071.00 267.8254
1071.10 268.1018
1071.20 268.3783
1071.30 268.6547
1071.40 268.9311
1071.50 269.2075
1071.60 269.4839
1071.70 269.7604
1071.80 270.0368
1071.90 270.3132
1072.00 270.5896
1072.10 270.8661
1072.20 271.1425
1072.30 271.4189
1072.40 271.6953
1072.50 271.9717
1072.60 272.2482
1072.70 272.5246
1072.80 272.801
1072.90 273.0774
1073.00 273.3538
1073.10 273.5961
1073.20 273.8345
1073.30 274.0729
1073.40 274.3113
1073.50 274.5497
1073.60 274.7881
1073.70 275.0265
1073.80 275.265
1073.90 275.5034
1074.00 275.7418
1074.10 275.9802
1074.20 276.2186
1074.30 276.457
1074.40 276.6954
1074.50 276.9339
1074.60 277.1723
1074.70 277.4107
1074.80 277.6491
1074.90 277.8875
1075.00 278.1259
1075.10 278.3643
1075.20 278.6028
1075.30 278.8412
1075.40 279.0796
1075.50 279.318
1075.60 279.5564
1075.70 279.7948
1075.80 280.0332
1075.90 280.2717
1076.00 280.5101
1076.10 280.7485
1076.20 280.9869
1076.30 281.2253
1076.40 281.4637
1076.50 281.7021
1076.60 281.9406
1076.70 282.179
1076.80 282.4174
1076.90 282.6558
1077.00 282.8942
1077.10 283.1226
1077.20 283.2612
1077.30 283.3997
1077.40 283.5383
1077.50 283.6768
1077.60 283.8154
1077.70 283.9539
1077.80 284.0924
1077.90 284.231
1078.00 284.3695
1078.10 284.5081
1078.20 284.6466
1078.30 284.7852
1078.40 284.9237
1078.50 285.0623
1078.60 285.2008
1078.70 285.3393
1078.80 285.4779
1078.90 285.6164
1079.00 285.755
1079.10 285.8935
1079.20 286.0321
1079.30 286.1706
1079.40 286.3092
1079.50 286.4477
1079.60 286.5863
1079.70 286.7248
1079.80 286.8633
1079.90 287.0019
1080.00 287.1404
1080.10 287.279
1080.20 287.4175
1080.30 287.5561
1080.40 287.6946
1080.50 287.8332
1080.60 287.9717
1080.70 288.1102
1080.80 288.2488
1080.90 288.3873
1081.00 288.5259
1081.10 288.6644
1081.20 288.9438
1081.30 289.5517
1081.40 290.1597
1081.50 290.7676
1081.60 291.3756
1081.70 291.9836
1081.80 292.5915
1081.90 293.1995
1082.00 293.8074
1082.10 294.4154
1082.20 295.0233
1082.30 295.6313
1082.40 296.2392
1082.50 296.8472
1082.60 297.4551
1082.70 298.0631
1082.80 298.671
1082.90 299.279
1083.00 299.8869
1083.10 300.4949
1083.20 301.1028
1083.30 301.7108
1083.40 302.3188
1083.50 302.9267
1083.60 303.5347
1083.70 304.1426
1083.80 304.7506
1083.90 305.3585
1084.00 305.9665
1084.10 306.5744
1084.20 307.1824
1084.30 307.7903
1084.40 308.3983
1084.50 309.0062
1084.60 309.6142
1084.70 310.2221
1084.80 310.8301
1084.90 311.438
1085.00 312.046
1085.10 312.654
1085.20 313.2619
1085.30 313.7097
1085.40 313.7838
1085.50 313.8579
1085.60 313.932
1085.70 314.0062
1085.80 314.0803
1085.90 314.1544
1086.00 314.2285
1086.10 314.3026
1086.20 314.3767
1086.30 314.4508
1086.40 314.5249
1086.50 314.5991
1086.60 314.6732
1086.70 314.7473
1086.80 314.8214
1086.90 314.8955
1087.00 314.9696
1087.10 315.0437
1087.20 315.1179
1087.30 315.192
1087.40 315.2661
1087.50 315.3402
1087.60 315.4143
1087.70 315.4884
1087.80 315.5625
1087.90 315.6366
1088.00 315.7108
1088.10 315.7849
1088.20 315.859
1088.30 315.9331
1088.40 316.0072
1088.50 316.0813
1088.60 316.1554
1088.70 316.2295
1088.80 316.3037
1088.90 316.3778
1089.00 316.4519
1089.10 316.526
1089.20 316.6001
1089.30 316.6742
1089.40 316.7685
1089.50 316.9098
1089.60 317.0511
1089.70 317.1925
1089.80 317.3338
1089.90 317.4751
1090.00 317.6164
1090.10 317.7578
1090.20 317.8991
1090.30 318.0404
1090.40 318.1817
1090.50 318.3231
1090.60 318.4644
1090.70 318.6057
1090.80 318.747
1090.90 318.8883
1091.00 319.0297
1091.10 319.171
1091.20 319.3123
1091.30 319.4536
1091.40 319.595
1091.50 319.7363
1091.60 319.8776
1091.70 320.0189
1091.80 320.1602
1091.90 320.3016
1092.00 320.4429
1092.10 320.5842
1092.20 320.7255
1092.30 320.8669
1092.40 321.0082
1092.50 321.1495
1092.60 321.2908
1092.70 321.4322
1092.80 321.5735
1092.90 321.7148
1093.00 321.8561
1093.10 321.9974
1093.20 322.1388
1093.30 322.2801
1093.40 322.4214
1093.50 322.5517
1093.60 322.6381
1093.70 322.7244
1093.80 322.8108
1093.90 322.8972
1094.00 322.9835
1094.10 323.0699
1094.20 323.1562
1094.30 323.2426
1094.40 323.3289
1094.50 323.4153
1094.60 323.5016
1094.70 323.588
1094.80 323.6743
1094.90 323.7607
1095.00 323.847
1095.10 323.9334
1095.20 324.0198
1095.30 324.1061
1095.40 324.1925
1095.50 324.2788
1095.60 324.3652
1095.70 324.4515
1095.80 324.5379
1095.90 324.6242
1096.00 324.7106
1096.10 324.7969
1096.20 324.8833
1096.30 324.9696
1096.40 325.056
1096.50 325.1424
1096.60 325.2287
1096.70 325.3151
1096.80 325.4014
1096.90 325.4878
1097.00 325.5741
1097.10 325.6605
1097.20 325.7468
1097.30 325.8332
1097.40 325.9195
1097.50 326.0059
1097.60 326.0922
1097.70 326.22
1097.80 326.3477
1097.90 326.4755
1098.00 326.6033
1098.10 326.731
1098.20 326.8588
1098.30 326.9865
1098.40 327.1143
1098.50 327.242
1098.60 327.3698
1098.70 327.4975
1098.80 327.6253
1098.90 327.753
1099.00 327.8808
1099.10 328.0085
1099.20 328.1363
1099.30 328.264
1099.40 328.3918
1099.50 328.5195
1099.60 328.6473
1099.70 328.775
1099.80 328.9028
1099.90 329.0305
1100.00 329.1583
1100.10 329.286
1100.20 329.4138
1100.30 329.5415
1100.40 329.6693
1100.50 329.797
1100.60 329.9248
1100.70 330.0526
1100.80 330.1803
1100.90 330.3081
1101.00 330.4358
1101.10 330.5636
1101.20 330.6913
1101.30 330.8191
1101.40 330.9468
1101.50 331.0746
1101.60 331.2023
1101.70 331.3301
1101.80 331.1965
1101.90 330.9508
1102.00 330.7052
1102.10 330.4596
1102.20 330.2139
1102.30 329.9683
1102.40 329.7227
1102.50 329.477
1102.60 329.2314
1102.70 328.9858
1102.80 328.7401
1102.90 328.4945
1103.00 328.2489
1103.10 328.0033
1103.20 327.7576
1103.30 327.512
1103.40 327.2664
1103.50 327.0207
1103.60 326.7751
1103.70 326.5295
1103.80 326.2838
1103.90 326.0382
1104.00 325.7926
1104.10 325.5469
1104.20 325.3013
1104.30 325.0557
1104.40 324.8101
1104.50 324.5644
1104.60 324.3188
1104.70 324.0732
1104.80 323.8275
1104.90 323.5819
1105.00 323.3363
1105.10 323.0906
1105.20 322.845
1105.30 322.5994
1105.40 322.3537
1105.50 322.1081
1105.60 321.8625
1105.70 321.6169
1105.80 321.3712
1105.90 321.2076
1106.00 321.2355
1106.10 321.2633
1106.20 321.2911
1106.30 321.3189
1106.40 321.3468
1106.50 321.3746
1106.60 321.4024
1106.70 321.4302
1106.80 321.4581
1106.90 321.4859
1107.00 321.5137
1107.10 321.5415
1107.20 321.5694
1107.30 321.5972
1107.40 321.625
1107.50 321.6529
1107.60 321.6807
1107.70 321.7085
1107.80 321.7363
1107.90 321.7642
1108.00 321.792
1108.10 321.8198
1108.20 321.8476
1108.30 321.8755
1108.40 321.9033
1108.50 321.9311
1108.60 321.9589
1108.70 321.9868
1108.80 322.0146
1108.90 322.0424
1109.00 322.0702
1109.10 322.0981
1109.20 322.1259
1109.30 322.1537
1109.40 322.1816
1109.50 322.2094
1109.60 322.2372
1109.70 322.265
1109.80 322.2929
1109.90 322.3207
1110.00 322.3485
1110.10 322.2911
1110.20 322.2123
1110.30 322.1336
1110.40 322.0548
1110.50 321.9761
1110.60 321.8973
1110.70 321.8185
1110.80 321.7398
1110.90 321.661
1111.00 321.5823
1111.10 321.5035
1111.20 321.4248
1111.30 321.346
1111.40 321.2673
1111.50 321.1885
1111.60 321.1098
1111.70 321.031
1111.80 320.9522
1111.90 320.8735
1112.00 320.7947
1112.10 320.716
1112.20 320.6372
1112.30 320.5585
1112.40 320.4797
1112.50 320.401
1112.60 320.3222
1112.70 320.2435
1112.80 320.1647
1112.90 320.0859
1113.00 320.0072
1113.10 319.9284
1113.20 319.8497
1113.30 319.7709
1113.40 319.6922
1113.50 319.6134
1113.60 319.5347
1113.70 319.4559
1113.80 319.3771
1113.90 319.2984
1114.00 319.2196
1114.10 319.1409
1114.20 319.1229
1114.30 319.2467
1114.40 319.3705
1114.50 319.4944
1114.60 319.6182
1114.70 319.742
1114.80 319.8658
1114.90 319.9897
1115.00 320.1135
1115.10 320.2373
1115.20 320.3611
1115.30 320.4849
1115.40 320.6088
1115.50 320.7326
1115.60 320.8564
1115.70 320.9802
1115.80 321.104
1115.90 321.2279
1116.00 321.3517
1116.10 321.4755
1116.20 321.5993
1116.30 321.7232
1116.40 321.847
1116.50 321.9708
1116.60 322.0946
1116.70 322.2184
1116.80 322.3423
1116.90 322.4661
1117.00 322.5899
1117.10 322.7137
1117.20 322.8376
1117.30 322.9614
1117.40 323.0852
1117.50 323.209
1117.60 323.3328
1117.70 323.4567
1117.80 323.5805
1117.90 323.7043
1118.00 323.8281
1118.10 323.9519
1118.20 324.0758
1118.30 324.1996
1118.40 324.3213
1118.50 324.4416
1118.60 324.5619
1118.70 324.6822
1118.80 324.8025
1118.90 324.9229
1119.00 325.0432
1119.10 325.1635
1119.20 325.2838
1119.30 325.4041
1119.40 325.5244
1119.50 325.6447
1119.60 325.765
1119.70 325.8853
1119.80 326.0057
1119.90 326.126
1120.00 326.2463
1120.10 326.3666
1120.20 326.4869
1120.30 326.6072
1120.40 326.7275
1120.50 326.8478
1120.60 326.9681
1120.70 327.0885
1120.80 327.2088
1120.90 327.3291
1121.00 327.4494
1121.10 327.5697
1121.20 327.69
1121.30 327.8103
1121.40 327.9306
1121.50 328.0509
1121.60 328.1712
1121.70 328.2916
1121.80 328.4119
1121.90 328.5322
1122.00 328.6525
1122.10 328.7728
1122.20 328.8931
1122.30 329.0134
1122.40 329.1337
1122.50 329.254
1122.60 329.263
1122.70 329.2596
1122.80 329.2562
1122.90 329.2528
1123.00 329.2494
1123.10 329.2461
1123.20 329.2427
1123.30 329.2393
1123.40 329.2359
1123.50 329.2325
1123.60 329.2291
1123.70 329.2257
1123.80 329.2223
1123.90 329.2189
1124.00 329.2155
1124.10 329.2121
1124.20 329.2087
1124.30 329.2053
1124.40 329.2019
1124.50 329.1985
1124.60 329.1951
1124.70 329.1917
1124.80 329.1883
1124.90 329.185
1125.00 329.1816
1125.10 329.1782
1125.20 329.1748
1125.30 329.1714
1125.40 329.168
1125.50 329.1646
1125.60 329.1612
1125.70 329.1578
1125.80 329.1544
1125.90 329.151
1126.00 329.1476
1126.10 329.1442
1126.20 329.1408
1126.30 329.1374
1126.40 329.134
1126.50 329.1306
1126.60 329.1272
1126.70 329.1002
1126.80 328.9783
1126.90 328.8565
1127.00 328.7347
1127.10 328.6129
1127.20 328.4911
1127.30 328.3692
1127.40 328.2474
1127.50 328.1256
1127.60 328.0038
1127.70 327.8819
1127.80 327.7601
1127.90 327.6383
1128.00 327.5165
1128.10 327.3947
1128.20 327.2728
1128.30 327.151
1128.40 327.0292
1128.50 326.9074
1128.60 326.7855
1128.70 326.6637
1128.80 326.5419
1128.90 326.4201
1129.00 326.2983
1129.10 326.1764
1129.20 326.0546
1129.30 325.9328
1129.40 325.811
1129.50 325.6891
1129.60 325.5673
1129.70 325.4455
1129.80 325.3237
1129.90 325.2019
1130.00 325.08
1130.10 324.9582
1130.20 324.8364
1130.30 324.7146
1130.40 324.5927
1130.50 324.4709
1130.60 324.3491
1130.70 324.2273
1130.80 324.1055
1130.90 323.9254
1131.00 323.6097
1131.10 323.2939
1131.20 322.9781
1131.30 322.6623
1131.40 322.3466
1131.50 322.0308
1131.60 321.715
1131.70 321.3993
1131.80 321.0835
1131.90 320.7677
1132.00 320.4519
1132.10 320.1362
1132.20 319.8204
1132.30 319.5046
1132.40 319.1888
1132.50 318.8731
1132.60 318.5573
1132.70 318.2415
1132.80 317.9257
1132.90 317.61
1133.00 317.2942
1133.10 316.9784
1133.20 316.6627
1133.30 316.3469
1133.40 316.0311
1133.50 315.7153
1133.60 315.3996
1133.70 315.0838
1133.80 314.768
1133.90 314.4522
1134.00 314.1365
1134.10 313.8207
1134.20 313.5049
1134.30 313.1891
1134.40 312.8734
1134.50 312.5576
1134.60 312.2418
1134.70 311.926
1134.80 311.6103
1134.90 311.2945
1135.00 310.9787
1135.10 310.7682
1135.20 310.7154
1135.30 310.6627
1135.40 310.61
1135.50 310.5572
1135.60 310.5045
1135.70 310.4518
1135.80 310.399
1135.90 310.3463
1136.00 310.2936
1136.10 310.2409
1136.20 310.1881
1136.30 310.1354
1136.40 310.0827
1136.50 310.0299
1136.60 309.9772
1136.70 309.9245
1136.80 309.8717
1136.90 309.819
1137.00 309.7663
1137.10 309.7135
1137.20 309.6608
1137.30 309.6081
1137.40 309.5553
1137.50 309.5026
1137.60 309.4499
1137.70 309.3971
1137.80 309.3444
1137.90 309.2917
1138.00 309.2389
1138.10 309.1862
1138.20 309.1335
1138.30 309.0808
1138.40 309.028
1138.50 308.9753
1138.60 308.9226
1138.70 308.8698
1138.80 308.8171
1138.90 308.7644
1139.00 308.7116
1139.10 308.6589
1139.20 308.6062
1139.30 308.6435
1139.40 308.8161
1139.50 308.9886
1139.60 309.1612
1139.70 309.3337
1139.80 309.5063
1139.90 309.6788
1140.00 309.8514
1140.10 310.0239
1140.20 310.1965
1140.30 310.369
1140.40 310.5416
1140.50 310.7141
1140.60 310.8866
1140.70 311.0592
1140.80 311.2317
1140.90 311.4043
1141.00 311.5768
1141.10 311.7494
1141.20 311.9219
1141.30 312.0945
1141.40 312.267
1141.50 312.4396
1141.60 312.6121
1141.70 312.7847
1141.80 312.9572
1141.90 313.1297
1142.00 313.3023
1142.10 313.4748
1142.20 313.6474
1142.30 313.8199
1142.40 313.9925
1142.50 314.165
1142.60 314.3376
1142.70 314.5101
1142.80 314.6827
1142.90 314.8552
1143.00 315.0278
1143.10 315.2003
1143.20 315.3728
1143.30 315.5454
1143.40 315.7179
1143.50 315.9933
1143.60 316.5087
1143.70 317.024
1143.80 317.5394
1143.90 318.0548
1144.00 318.5701
1144.10 319.0855
1144.20 319.6008
1144.30 320.1162
1144.40 320.6316
1144.50 321.1469
1144.60 321.6623
1144.70 322.1776
1144.80 322.693
1144.90 323.2083
1145.00 323.7237
1145.10 324.2391
1145.20 324.7544
1145.30 325.2698
1145.40 325.7851
1145.50 326.3005
1145.60 326.8159
1145.70 327.3312
1145.80 327.8466
1145.90 328.3619
1146.00 328.8773
1146.10 329.3926
1146.20 329.908
1146.30 330.4234
1146.40 330.9387
1146.50 331.4541
1146.60 331.9694
1146.70 332.4848
1146.80 333.0002
1146.90 333.5155
1147.00 334.0309
1147.10 334.5462
1147.20 335.0616
1147.30 335.5769
1147.40 336.0923
1147.50 336.6077
1147.60 337.123
1147.70 337.6064
1147.80 337.9618
1147.90 338.3172
1148.00 338.6726
1148.10 339.0279
1148.20 339.3833
1148.30 339.7387
1148.40 340.0941
1148.50 340.4495
1148.60 340.8049
1148.70 341.1603
1148.80 341.5157
1148.90 341.8711
1149.00 342.2265
1149.10 342.5818
1149.20 342.9372
1149.30 343.2926
1149.40 343.648
1149.50 344.0034
1149.60 344.3588
1149.70 344.7142
1149.80 345.0696
1149.90 345.425
1150.00 345.7804
1150.10 346.1357
1150.20 346.4911
1150.30 346.8465
1150.40 347.2019
1150.50 347.5573
1150.60 347.9127
1150.70 348.2681
1150.80 348.6235
1150.90 348.9789
1151.00 349.3343
1151.10 349.6897
1151.20 350.045
1151.30 350.4004
1151.40 350.7558
1151.50 351.1112
1151.60 351.4666
1151.70 351.822
1151.80 352.1774
1151.90 352.5328
1152.00 352.4982
1152.10 352.4635
1152.20 352.4289
1152.30 352.3943
1152.40 352.3597
1152.50 352.3251
1152.60 352.2905
1152.70 352.2559
1152.80 352.2213
1152.90 352.1866
1153.00 352.152
1153.10 352.1174
1153.20 352.0828
1153.30 352.0482
1153.40 352.0136
1153.50 351.979
1153.60 351.9443
1153.70 351.9097
1153.80 351.8751
1153.90 351.8405
1154.00 351.8059
1154.10 351.7713
1154.20 351.7367
1154.30 351.7021
1154.40 351.6674
1154.50 351.6328
1154.60 351.5982
1154.70 351.5636
1154.80 351.529
1154.90 351.4944
1155.00 351.4598
1155.10 351.4251
1155.20 351.3905
1155.30 351.3559
1155.40 351.3213
1155.50 351.2867
1155.60 351.2521
1155.70 351.2175
1155.80 351.1829
1155.90 351.1482
1156.00 351.1136
1156.10 351.079
1156.20 350.9134
1156.30 350.7151
1156.40 350.5167
1156.50 350.3184
1156.60 350.1201
1156.70 349.9217
1156.80 349.7234
1156.90 349.525
1157.00 349.3267
1157.10 349.1283
1157.20 348.93
1157.30 348.7317
1157.40 348.5333
1157.50 348.335
1157.60 348.1366
1157.70 347.9383
1157.80 347.74
1157.90 347.5416
1158.00 347.3433
1158.10 347.1449
1158.20 346.9466
1158.30 346.7482
1158.40 346.5499
1158.50 346.3516
1158.60 346.1532
1158.70 345.9549
1158.80 345.7565
1158.90 345.5582
1159.00 345.3598
1159.10 345.1615
1159.20 344.9632
1159.30 344.7648
1159.40 344.5665
1159.50 344.3681
1159.60 344.1698
1159.70 343.9715
1159.80 343.7731
1159.90 343.5748
1160.00 343.3764
1160.10 343.1781
1160.20 342.9797
1160.30 342.7814
1160.40 342.5742
1160.50 342.358
1160.60 342.1418
1160.70 341.9257
1160.80 341.7095
1160.90 341.4934
1161.00 341.2772
1161.10 341.061
1161.20 340.8449
1161.30 340.6287
1161.40 340.4125
1161.50 340.1964
1161.60 339.9802
1161.70 339.7641
1161.80 339.5479
1161.90 339.3317
1162.00 339.1156
1162.10 338.8994
1162.20 338.6833
1162.30 338.4671
1162.40 338.2509
1162.50 338.0348
1162.60 337.8186
1162.70 337.6025
1162.80 337.3863
1162.90 337.1701
1163.00 336.954
1163.10 336.7378
1163.20 336.5217
1163.30 336.3055
1163.40 336.0893
1163.50 335.8732
1163.60 335.657
1163.70 335.4409
1163.80 335.2247
1163.90 335.0085
1164.00 334.7924
1164.10 334.5762
1164.20 334.3601
1164.30 334.1439
1164.40 333.9277
1164.50 333.7116
1164.60 333.4996
1164.70 333.3256
1164.80 333.1515
1164.90 332.9775
1165.00 332.8035
1165.10 332.6294
1165.20 332.4554
1165.30 332.2814
1165.40 332.1073
1165.50 331.9333
1165.60 331.7592
1165.70 331.5852
1165.80 331.4112
1165.90 331.2371
1166.00 331.0631
1166.10 330.8891
1166.20 330.715
1166.30 330.541
1166.40 330.3669
1166.50 330.1929
1166.60 330.0189
1166.70 329.8448
1166.80 329.6708
1166.90 329.4967
1167.00 329.3227
1167.10 329.1487
1167.20 328.9746
1167.30 328.8006
1167.40 328.6266
1167.50 328.4525
1167.60 328.2785
1167.70 328.1044
1167.80 327.9304
1167.90 327.7564
1168.00 327.5823
1168.10 327.4083
1168.20 327.2342
1168.30 327.0602
1168.40 326.8862
1168.50 326.7121
1168.60 326.5381
1168.70 326.3641
1168.80 326.19
1168.90 325.8297
1169.00 325.3895
1169.10 324.9494
1169.20 324.5092
1169.30 324.0691
1169.40 323.6289
1169.50 323.1888
1169.60 322.7486
1169.70 322.3085
1169.80 321.8683
1169.90 321.4282
1170.00 320.988
1170.10 320.5479
1170.20 320.1077
1170.30 319.6676
1170.40 319.2274
1170.50 318.7873
1170.60 318.3471
1170.70 317.9069
1170.80 317.4668
1170.90 317.0266
1171.00 316.5865
1171.10 316.1463
1171.20 315.7062
1171.30 315.266
1171.40 314.8259
1171.50 314.3857
1171.60 313.9456
1171.70 313.5054
1171.80 313.0653
1171.90 312.6251
1172.00 312.185
1172.10 311.7448
1172.20 311.3047
1172.30 310.8645
1172.40 310.4243
1172.50 309.9842
1172.60 309.544
1172.70 309.1039
1172.80 308.6637
1172.90 308.2236
1173.00 307.7834
1173.10 307.4517
1173.20 307.5537
1173.30 307.6557
1173.40 307.7576
1173.50 307.8596
1173.60 307.9616
1173.70 308.0636
1173.80 308.1656
1173.90 308.2676
1174.00 308.3695
1174.10 308.4715
1174.20 308.5735
1174.30 308.6755
1174.40 308.7775
1174.50 308.8794
1174.60 308.9814
1174.70 309.0834
1174.80 309.1854
1174.90 309.2874
1175.00 309.3894
1175.10 309.4913
1175.20 309.5933
1175.30 309.6953
1175.40 309.7973
1175.50 309.8993
1175.60 310.0013
1175.70 310.1032
1175.80 310.2052
1175.90 310.3072
1176.00 310.4092
1176.10 310.5112
1176.20 310.6131
1176.30 310.7151
1176.40 310.8171
1176.50 310.9191
1176.60 311.0211
1176.70 311.1231
1176.80 311.225
1176.90 311.327
1177.00 311.429
1177.10 311.531
1177.20 311.633
1177.30 311.7349
1177.40 311.8781
1177.50 312.0388
1177.60 312.1996
1177.70 312.3604
1177.80 312.5211
1177.90 312.6819
1178.00 312.8427
1178.10 313.0034
1178.20 313.1642
1178.30 313.3249
1178.40 313.4857
1178.50 313.6465
1178.60 313.8072
1178.70 313.968
1178.80 314.1288
1178.90 314.2895
1179.00 314.4503
1179.10 314.611
1179.20 314.7718
1179.30 314.9326
1179.40 315.0933
1179.50 315.2541
1179.60 315.4149
1179.70 315.5756
1179.80 315.7364
1179.90 315.8972
1180.00 316.0579
1180.10 316.2187
1180.20 316.3794
1180.30 316.5402
1180.40 316.701
1180.50 316.8617
1180.60 317.0225
1180.70 317.1833
1180.80 317.344
1180.90 317.5048
1181.00 317.6655
1181.10 317.8263
1181.20 317.9871
1181.30 318.1478
1181.40 318.3086
1181.50 318.4694
1181.60 318.6379
1181.70 318.8767
1181.80 319.1155
1181.90 319.3543
1182.00 319.5931
1182.10 319.8318
1182.20 320.0706
1182.30 320.3094
1182.40 320.5482
1182.50 320.787
1182.60 321.0257
1182.70 321.2645
1182.80 321.5033
1182.90 321.7421
1183.00 321.9809
1183.10 322.2197
1183.20 322.4584
1183.30 322.6972
1183.40 322.936
1183.50 323.1748
1183.60 323.4136
1183.70 323.6523
1183.80 323.8911
1183.90 324.1299
1184.00 324.3687
1184.10 324.6075
1184.20 324.8463
1184.30 325.085
1184.40 325.3238
1184.50 325.5626
1184.60 325.8014
1184.70 326.0402
1184.80 326.2789
1184.90 326.5177
1185.00 326.7565
1185.10 326.9953
1185.20 327.2341
1185.30 327.4729
1185.40 327.7116
1185.50 327.9504
1185.60 328.1892
1185.70 328.428
1185.80 328.6668
1185.90 328.7337
1186.00 328.6288
1186.10 328.5239
1186.20 328.419
1186.30 328.3142
1186.40 328.2093
1186.50 328.1044
1186.60 327.9995
1186.70 327.8946
1186.80 327.7897
1186.90 327.6848
1187.00 327.5799
1187.10 327.475
1187.20 327.3701
1187.30 327.2653
1187.40 327.1604
1187.50 327.0555
1187.60 326.9506
1187.70 326.8457
1187.80 326.7408
1187.90 326.6359
1188.00 326.531
1188.10 326.4261
1188.20 326.3213
1188.30 326.2164
1188.40 326.1115
1188.50 326.0066
1188.60 325.9017
1188.70 325.7968
1188.80 325.6919
1188.90 325.587
1189.00 325.4821
1189.10 325.3773
1189.20 325.2724
1189.30 325.1675
1189.40 325.0626
1189.50 324.9577
1189.60 324.8528
1189.70 324.7479
1189.80 324.643
1189.90 324.5381
1190.00 324.4332
1190.10 324.3284
1190.20 324.0462
1190.30 323.7197
1190.40 323.3932
1190.50 323.0666
1190.60 322.7401
1190.70 322.4136
1190.80 322.0871
1190.90 321.7606
1191.00 321.4341
1191.10 321.1076
1191.20 320.7811
1191.30 320.4546
1191.40 320.128
1191.50 319.8015
1191.60 319.475
1191.70 319.1485
1191.80 318.822
1191.90 318.4955
1192.00 318.169
1192.10 317.8425
1192.20 317.516
1192.30 317.1894
1192.40 316.8629
1192.50 316.5364
1192.60 316.2099
1192.70 315.8834
1192.80 315.5569
1192.90 315.2304
1193.00 314.9039
1193.10 314.5774
1193.20 314.2508
1193.30 313.9243
1193.40 313.5978
1193.50 313.2713
1193.60 312.9448
1193.70 312.6183
1193.80 312.2918
1193.90 311.9653
1194.00 311.6388
1194.10 311.3122
1194.20 310.9857
1194.30 310.6592
1194.40 310.3429
1194.50 310.1183
1194.60 309.8936
1194.70 309.669
1194.80 309.4444
1194.90 309.2197
1195.00 308.9951
1195.10 308.7705
1195.20 308.5459
1195.30 308.3212
1195.40 308.0966
1195.50 307.872
1195.60 307.6473
1195.70 307.4227
1195.80 307.1981
1195.90 306.9734
1196.00 306.7488
1196.10 306.5242
1196.20 306.2996
1196.30 306.0749
1196.40 305.8503
1196.50 305.6257
1196.60 305.401
1196.70 305.1764
1196.80 304.9518
1196.90 304.7271
1197.00 304.5025
1197.10 304.2779
1197.20 304.0533
1197.30 303.8286
1197.40 303.604
1197.50 303.3794
1197.60 303.1547
1197.70 302.9301
1197.80 302.7055
1197.90 302.4808
1198.00 302.2562
1198.10 302.0316
1198.20 301.8069
1198.30 301.5823
1198.40 301.3577
1198.50 301.1331
1198.60 300.9084
1198.70 300.7654
1198.80 300.7447
1198.90 300.7239
1199.00 300.7032
1199.10 300.6825
1199.20 300.6618
1199.30 300.6411
1199.40 300.6204
1199.50 300.5997
1199.60 300.579
1199.70 300.5583
1199.80 300.5376
1199.90 300.5169
1200.00 300.4962
1200.10 300.4755
1200.20 300.4548
1200.30 300.434
1200.40 300.4133
1200.50 300.3926
1200.60 300.3719
1200.70 300.3512
1200.80 300.3305
1200.90 300.3098
1201.00 300.2891
1201.10 300.2684
1201.20 300.2477
1201.30 300.227
1201.40 300.2063
1201.50 300.1856
1201.60 300.1649
1201.70 300.1441
1201.80 300.1234
1201.90 300.1027
1202.00 300.082
1202.10 300.0613
1202.20 300.0406
1202.30 300.0199
1202.40 299.9992
1202.50 299.9785
1202.60 299.9578
1202.70 299.9371
1202.80 299.9164
1202.90 299.8957
1203.00 300.0501
1203.10 300.3212
1203.20 300.5924
1203.30 300.8635
1203.40 301.1347
1203.50 301.4058
1203.60 301.677
1203.70 301.9481
1203.80 302.2193
1203.90 302.4904
1204.00 302.7616
1204.10 303.0327
1204.20 303.3038
1204.30 303.575
1204.40 303.8461
1204.50 304.1173
1204.60 304.3884
1204.70 304.6596
1204.80 304.9307
1204.90 305.2019
1205.00 305.473
1205.10 305.7442
1205.20 306.0153
1205.30 306.2865
1205.40 306.5576
1205.50 306.8288
1205.60 307.0999
1205.70 307.3711
1205.80 307.6422
1205.90 307.9134
1206.00 308.1845
1206.10 308.4557
1206.20 308.7268
1206.30 308.998
1206.40 309.2691
1206.50 309.5403
1206.60 309.8114
1206.70 310.0826
1206.80 310.3537
1206.90 310.6249
1207.00 310.896
1207.10 311.1672
1207.20 311.4383
1207.30 311.8544
1207.40 312.3067
1207.50 312.759
1207.60 313.2113
1207.70 313.6637
1207.80 314.116
1207.90 314.5683
1208.00 315.0206
1208.10 315.4729
1208.20 315.9253
1208.30 316.3776
1208.40 316.8299
1208.50 317.2822
1208.60 317.7345
1208.70 318.1869
1208.80 318.6392
1208.90 319.0915
1209.00 319.5438
1209.10 319.9961
1209.20 320.4485
1209.30 320.9008
1209.40 321.3531
1209.50 321.8054
1209.60 322.2577
1209.70 322.7101
1209.80 323.1624
1209.90 323.6147
1210.00 324.067
1210.10 324.5194
1210.20 324.9717
1210.30 325.424
1210.40 325.8763
1210.50 326.3286
1210.60 326.781
1210.70 327.2333
1210.80 327.6856
1210.90 328.1379
1211.00 328.5902
1211.10 329.0426
1211.20 329.4949
1211.30 329.9472
1211.40 330.3995
1211.50 330.8518
1211.60 331.0185
1211.70 331.1534
1211.80 331.2884
1211.90 331.4233
1212.00 331.5582
1212.10 331.6932
1212.20 331.8281
1212.30 331.963
1212.40 332.098
1212.50 332.2329
1212.60 332.3678
1212.70 332.5028
1212.80 332.6377
1212.90 332.7726
1213.00 332.9075
1213.10 333.0425
1213.20 333.1774
1213.30 333.3123
1213.40 333.4473
1213.50 333.5822
1213.60 333.7171
1213.70 333.8521
1213.80 333.987
1213.90 334.1219
1214.00 334.2569
1214.10 334.3918
1214.20 334.5267
1214.30 334.6617
1214.40 334.7966
1214.50 334.9315
1214.60 335.0665
1214.70 335.2014
1214.80 335.3363
1214.90 335.4713
1215.00 335.6062
1215.10 335.7411
1215.20 335.876
1215.30 336.011
1215.40 336.1459
1215.50 336.2808
1215.60 336.4158
1215.70 336.5507
1215.80 336.6856
1215.90 337.1115
1216.00 337.5374
1216.10 337.9634
1216.20 338.3893
1216.30 338.8152
1216.40 339.2411
1216.50 339.667
1216.60 340.0929
1216.70 340.5188
1216.80 340.9447
1216.90 341.3706
1217.00 341.7965
1217.10 342.2224
1217.20 342.6483
1217.30 343.0742
1217.40 343.5001
1217.50 343.9261
1217.60 344.352
1217.70 344.7779
1217.80 345.2038
1217.90 345.6297
1218.00 346.0556
1218.10 346.4815
1218.20 346.9074
1218.30 347.3333
1218.40 347.7592
1218.50 348.1851
1218.60 348.611
1218.70 349.0369
1218.80 349.4628
1218.90 349.8887
1219.00 350.3147
1219.10 350.7406
1219.20 351.1665
1219.30 351.5924
1219.40 352.0183
1219.50 352.4442
1219.60 352.8701
1219.70 353.296
1219.80 353.7219
1219.90 354.1478
1220.00 354.5737
1220.10 354.9755
1220.20 355.1601
1220.30 355.3447
1220.40 355.5294
1220.50 355.714
1220.60 355.8986
1220.70 356.0832
1220.80 356.2679
1220.90 356.4525
1221.00 356.6371
1221.10 356.8217
1221.20 357.0064
1221.30 357.191
1221.40 357.3756
1221.50 357.5602
1221.60 357.7449
1221.70 357.9295
1221.80 358.1141
1221.90 358.2987
1222.00 358.4834
1222.10 358.668
1222.20 358.8526
1222.30 359.0372
1222.40 359.2219
1222.50 359.4065
1222.60 359.5911
1222.70 359.7757
1222.80 359.9604
1222.90 360.145
1223.00 360.3296
1223.10 360.5142
1223.20 360.6989
1223.30 360.8835
1223.40 361.0681
1223.50 361.2527
1223.60 361.4374
1223.70 361.622
1223.80 361.8066
1223.90 361.9912
1224.00 362.1759
1224.10 362.3605
1224.20 362.5451
1224.30 362.7297
1224.40 362.8902
1224.50 362.9542
1224.60 363.0182
1224.70 363.0822
1224.80 363.1461
1224.90 363.2101
1225.00 363.2741
1225.10 363.3381
1225.20 363.402
1225.30 363.466
1225.40 363.53
1225.50 363.594
1225.60 363.658
1225.70 363.7219
1225.80 363.7859
1225.90 363.8499
1226.00 363.9139
1226.10 363.9779
1226.20 364.0418
1226.30 364.1058
1226.40 364.1698
1226.50 364.2338
1226.60 364.2977
1226.70 364.3617
1226.80 364.4257
1226.90 364.4897
1227.00 364.5537
1227.10 364.6176
1227.20 364.6816
1227.30 364.7456
1227.40 364.8096
1227.50 364.8735
1227.60 364.9375
1227.70 365.0015
1227.80 365.0655
1227.90 365.1295
1228.00 365.1934
1228.10 365.2574
1228.20 365.3214
1228.30 365.3854
1228.40 365.4493
1228.50 365.5133
1228.60 365.5773
1228.70 365.5847
1228.80 365.3655
1228.90 365.1463
1229.00 364.9272
1229.10 364.708
1229.20 364.4889
1229.30 364.2697
1229.40 364.0506
1229.50 363.8314
1229.60 363.6123
1229.70 363.3931
1229.80 363.174
1229.90 362.9548
1230.00 362.7356
1230.10 362.5165
1230.20 362.2973
1230.30 362.0782
1230.40 361.859
1230.50 361.6399
1230.60 361.4207
1230.70 361.2016
1230.80 360.9824
1230.90 360.7633
1231.00 360.5441
1231.10 360.3249
1231.20 360.1058
1231.30 359.8866
1231.40 359.6675
1231.50 359.4483
1231.60 359.2292
1231.70 359.01
1231.80 358.7909
1231.90 358.5717
1232.00 358.3525
1232.10 358.1334
1232.20 357.9142
1232.30 357.6951
1232.40 357.4759
1232.50 357.2568
1232.60 357.0376
1232.70 356.8185
1232.80 356.5993
1232.90 356.3802
1233.00 356.1316
1233.10 355.7656
1233.20 355.3995
1233.30 355.0335
1233.40 354.6674
1233.50 354.3014
1233.60 353.9353
1233.70 353.5692
1233.80 353.2032
1233.90 352.8371
1234.00 352.4711
1234.10 352.105
1234.20 351.739
1234.30 351.3729
1234.40 351.0069
1234.50 350.6408
1234.60 350.2748
1234.70 349.9087
1234.80 349.5426
1234.90 349.1766
1235.00 348.8105
1235.10 348.4445
1235.20 348.0784
1235.30 347.7124
1235.40 347.3463
1235.50 346.9803
1235.60 346.6142
1235.70 346.2482
1235.80 345.8821
1235.90 345.5161
1236.00 345.15
1236.10 344.7839
1236.20 344.4179
1236.30 344.0518
1236.40 343.6858
1236.50 343.3197
1236.60 342.9537
1236.70 342.5876
1236.80 342.2216
1236.90 341.8555
1237.00 341.4895
1237.10 341.1234
1237.20 340.7574
1237.30 340.4253
1237.40 340.2291
1237.50 340.0328
1237.60 339.8366
1237.70 339.6404
1237.80 339.4442
1237.90 339.248
1238.00 339.0518
1238.10 338.8556
1238.20 338.6594
1238.30 338.4632
1238.40 338.2669
1238.50 338.0707
1238.60 337.8745
1238.70 337.6783
1238.80 337.4821
1238.90 337.2859
1239.00 337.0897
1239.10 336.8935
1239.20 336.6972
1239.30 336.501
1239.40 336.3048
1239.50 336.1086
1239.60 335.9124
1239.70 335.7162
1239.80 335.52
1239.90 335.3238
1240.00 335.1276
1240.10 334.9313
1240.20 334.7351
1240.30 334.5389
1240.40 334.3427
1240.50 334.1465
1240.60 333.9503
1240.70 333.7541
1240.80 333.5579
1240.90 333.3617
1241.00 333.1654
1241.10 332.9692
1241.20 332.773
1241.30 332.5768
1241.40 332.3806
1241.50 332.1844
1241.60 331.9919
1241.70 331.8328
1241.80 331.6737
1241.90 331.5146
1242.00 331.3555
1242.10 331.1964
1242.20 331.0373
1242.30 330.8782
1242.40 330.7191
1242.50 330.56
1242.60 330.4009
1242.70 330.2418
1242.80 330.0827
1242.90 329.9236
1243.00 329.7645
1243.10 329.6054
1243.20 329.4463
1243.30 329.2872
1243.40 329.1281
1243.50 328.969
1243.60 328.8099
1243.70 328.6508
1243.80 328.4917
1243.90 328.3326
1244.00 328.1735
1244.10 328.0145
1244.20 327.8554
1244.30 327.6963
1244.40 327.5372
1244.50 327.3781
1244.60 327.219
1244.70 327.0599
1244.80 326.9008
1244.90 326.7417
1245.00 326.5826
1245.10 326.4235
1245.20 326.2644
1245.30 326.1053
1245.40 325.9462
1245.50 325.7871
1245.60 325.628
1245.70 325.4689
1245.80 325.3098
1245.90 325.1507
1246.00 325.4559
1246.10 325.7611
1246.20 326.0662
1246.30 326.3714
1246.40 326.6766
1246.50 326.9818
1246.60 327.2869
1246.70 327.5921
1246.80 327.8973
1246.90 328.2025
1247.00 328.5076
1247.10 328.8128
1247.20 329.118
1247.30 329.4232
1247.40 329.7284
1247.50 330.0335
1247.60 330.3387
1247.70 330.6439
1247.80 330.9491
1247.90 331.2542
1248.00 331.5594
1248.10 331.8646
1248.20 332.1698
1248.30 332.4749
1248.40 332.7801
1248.50 333.0853
1248.60 333.3905
1248.70 333.6956
1248.80 334.0008
1248.90 334.306
1249.00 334.6112
1249.10 334.9164
1249.20 335.2215
1249.30 335.5267
1249.40 335.8319
1249.50 336.1371
1249.60 336.4422
1249.70 336.7474
1249.80 337.0526
1249.90 337.3578
1250.00 337.6629
1250.10 337.9681
1250.20 338.2733
1250.30 338.5305
1250.40 338.7876
1250.50 339.0448
1250.60 339.302
1250.70 339.5592
1250.80 339.8163
1250.90 340.0735
1251.00 340.3307
1251.10 340.5879
1251.20 340.845
1251.30 341.1022
1251.40 341.3594
1251.50 341.6165
1251.60 341.8737
1251.70 342.1309
1251.80 342.3881
1251.90 342.6452
1252.00 342.9024
1252.10 343.1596
1252.20 343.4168
1252.30 343.6739
1252.40 343.9311
1252.50 344.1883
1252.60 344.4454
1252.70 344.7026
1252.80 344.9598
1252.90 345.217
1253.00 345.4741
1253.10 345.7313
1253.20 345.9885
1253.30 346.2457
1253.40 346.5028
1253.50 346.76
1253.60 347.0172
1253.70 347.2743
1253.80 347.5315
1253.90 347.7887
1254.00 348.0459
1254.10 348.303
1254.20 348.5602
1254.30 348.8174
1254.40 349.0746
1254.50 349.3317
1254.60 349.7544
1254.70 350.1954
1254.80 350.6365
1254.90 351.0775
1255.00 351.5186
1255.10 351.9596
1255.20 352.4006
1255.30 352.8417
1255.40 353.2827
1255.50 353.7238
1255.60 354.1648
1255.70 354.6059
1255.80 355.0469
1255.90 355.488
1256.00 355.929
1256.10 356.37
1256.20 356.8111
1256.30 357.2521
1256.40 357.6932
1256.50 358.1342
1256.60 358.5753
1256.70 359.0163
1256.80 359.4573
1256.90 359.8984
1257.00 360.3394
1257.10 360.7805
1257.20 361.2215
1257.30 361.6626
1257.40 362.1036
1257.50 362.5447
1257.60 362.9857
1257.70 363.4267
1257.80 363.8678
1257.90 364.3088
1258.00 364.7499
1258.10 365.1909
1258.20 365.632
1258.30 366.073
1258.40 366.5141
1258.50 366.9551
1258.60 367.3961
1258.70 367.8372
1258.80 368.2782
1258.90 368.7353
1259.00 369.1992
1259.10 369.6631
1259.20 370.127
1259.30 370.5909
1259.40 371.0548
1259.50 371.5188
1259.60 371.9827
1259.70 372.4466
1259.80 372.9105
1259.90 373.3744
1260.00 373.8383
1260.10 374.3022
1260.20 374.7661
1260.30 375.2301
1260.40 375.694
1260.50 376.1579
1260.60 376.6218
1260.70 377.0857
1260.80 377.5496
1260.90 378.0135
1261.00 378.4774
1261.10 378.9414
1261.20 379.4053
1261.30 379.8692
1261.40 380.3331
1261.50 380.797
1261.60 381.2609
1261.70 381.7248
1261.80 382.1887
1261.90 382.6527
1262.00 383.1166
1262.10 383.5805
1262.20 384.0444
1262.30 384.5083
1262.40 384.9722
1262.50 385.4361
1262.60 385.9
1262.70 386.364
1262.80 386.8279
1262.90 387.2918
1263.00 387.7557
1263.10 388.2196
1263.20 388.5695
1263.30 388.8434
1263.40 389.1174
1263.50 389.3913
1263.60 389.6652
1263.70 389.9391
1263.80 390.213
1263.90 390.4869
1264.00 390.7608
1264.10 391.0348
1264.20 391.3087
1264.30 391.5826
1264.40 391.8565
1264.50 392.1304
1264.60 392.4043
1264.70 392.6782
1264.80 392.9522
1264.90 393.2261
1265.00 393.5
1265.10 393.7739
1265.20 394.0478
1265.30 394.3217
1265.40 394.5956
1265.50 394.8696
1265.60 395.1435
1265.70 395.4174
1265.80 395.6913
1265.90 395.9652
1266.00 396.2391
1266.10 396.513
1266.20 396.787
1266.30 397.0609
1266.40 397.3348
1266.50 397.6087
1266.60 397.8826
1266.70 398.1565
1266.80 398.4304
1266.90 398.7044
1267.00 398.9783
1267.10 399.2522
1267.20 399.5261
1267.30 399.8
1267.40 400.0739
1267.50 400.3324
1267.60 400.5754
1267.70 400.8184
1267.80 401.0614
1267.90 401.3044
1268.00 401.5475
1268.10 401.7905
1268.20 402.0335
1268.30 402.2765
1268.40 402.5195
1268.50 402.7625
1268.60 403.0055
1268.70 403.2485
1268.80 403.4916
1268.90 403.7346
1269.00 403.9776
1269.10 404.2206
1269.20 404.4636
1269.30 404.7066
1269.40 404.9496
1269.50 405.1926
1269.60 405.4357
1269.70 405.6787
1269.80 405.9217
1269.90 406.1647
1270.00 406.4077
1270.10 406.6507
1270.20 406.8937
1270.30 407.1368
1270.40 407.3798
1270.50 407.6228
1270.60 407.8658
1270.70 408.1088
1270.80 408.3518
1270.90 408.5948
1271.00 408.8378
1271.10 409.0809
1271.20 409.3239
1271.30 409.5669
1271.40 409.8099
1271.50 410.0529
1271.60 410.2959
1271.70 410.5389
1271.80 410.7145
1271.90 410.7326
1272.00 410.7508
1272.10 410.769
1272.20 410.7871
1272.30 410.8053
1272.40 410.8234
1272.50 410.8416
1272.60 410.8597
1272.70 410.8779
1272.80 410.896
1272.90 410.9142
1273.00 410.9324
1273.10 410.9505
1273.20 410.9687
1273.30 410.9868
1273.40 411.005
1273.50 411.0231
1273.60 411.0413
1273.70 411.0594
1273.80 411.0776
1273.90 411.0957
1274.00 411.1139
1274.10 411.1321
1274.20 411.1502
1274.30 411.1684
1274.40 411.1865
1274.50 411.2047
1274.60 411.2228
1274.70 411.241
1274.80 411.2591
1274.90 411.2773
1275.00 411.2955
1275.10 411.3136
1275.20 411.3318
1275.30 411.3499
1275.40 411.3681
1275.50 411.3862
1275.60 411.4044
1275.70 411.4225
1275.80 411.4407
1275.90 411.4589
1276.00 411.477
1276.10 411.4826
1276.20 411.3752
1276.30 411.2679
1276.40 411.1605
1276.50 411.0532
1276.60 410.9458
1276.70 410.8384
1276.80 410.7311
1276.90 410.6237
1277.00 410.5163
1277.10 410.409
1277.20 410.3016
1277.30 410.1942
1277.40 410.0869
1277.50 409.9795
1277.60 409.8721
1277.70 409.7648
1277.80 409.6574
1277.90 409.55
1278.00 409.4427
1278.10 409.3353
1278.20 409.228
1278.30 409.1206
1278.40 409.0132
1278.50 408.9059
1278.60 408.7985
1278.70 408.6911
1278.80 408.5838
1278.90 408.4764
1279.00 408.369
1279.10 408.2617
1279.20 408.1543
1279.30 408.0469
1279.40 407.9396
1279.50 407.8322
1279.60 407.7248
1279.70 407.6175
1279.80 407.5101
1279.90 407.4028
1280.00 407.2954
1280.10 407.188
1280.20 407.0807
1280.30 406.9733
1280.40 406.8659
1280.50 406.8537
1280.60 406.8415
1280.70 406.8294
1280.80 406.8172
1280.90 406.805
1281.00 406.7928
1281.10 406.7806
1281.20 406.7684
1281.30 406.7562
1281.40 406.744
1281.50 406.7318
1281.60 406.7196
1281.70 406.7075
1281.80 406.6953
1281.90 406.6831
1282.00 406.6709
1282.10 406.6587
1282.20 406.6465
1282.30 406.6343
1282.40 406.6221
1282.50 406.6099
1282.60 406.5977
1282.70 406.5856
1282.80 406.5734
1282.90 406.5612
1283.00 406.549
1283.10 406.5368
1283.20 406.5246
1283.30 406.5124
1283.40 406.5002
1283.50 406.488
1283.60 406.4759
1283.70 406.4637
1283.80 406.4515
1283.90 406.4393
1284.00 406.4271
1284.10 406.4149
1284.20 406.4027
1284.30 406.3905
1284.40 406.3783
1284.50 406.3661
1284.60 406.354
1284.70 406.3418
1284.80 406.4032
1284.90 406.4831
1285.00 406.563
1285.10 406.6429
1285.20 406.7228
1285.30 406.8026
1285.40 406.8825
1285.50 406.9624
1285.60 407.0423
1285.70 407.1222
1285.80 407.2021
1285.90 407.2819
1286.00 407.3618
1286.10 407.4417
1286.20 407.5216
1286.30 407.6015
1286.40 407.6814
1286.50 407.7612
1286.60 407.8411
1286.70 407.921
1286.80 408.0009
1286.90 408.0808
1287.00 408.1607
1287.10 408.2405
1287.20 408.3204
1287.30 408.4003
1287.40 408.4802
1287.50 408.5601
1287.60 408.64
1287.70 408.7198
1287.80 408.7997
1287.90 408.8796
1288.00 408.9595
1288.10 409.0394
1288.20 409.1193
1288.30 409.1991
1288.40 409.279
1288.50 409.3589
1288.60 409.4388
1288.70 409.5187
1288.80 409.5986
1288.90 409.6784
1289.00 409.7583
1289.10 409.6847
1289.20 409.5086
1289.30 409.3326
1289.40 409.1565
1289.50 408.9805
1289.60 408.8045
1289.70 408.6284
1289.80 408.4524
1289.90 408.2764
1290.00 408.1003
1290.10 407.9243
1290.20 407.7482
1290.30 407.5722
1290.40 407.3962
1290.50 407.2201
1290.60 407.0441
1290.70 406.8681
1290.80 406.692
1290.90 406.516
1291.00 406.34
1291.10 406.1639
1291.20 405.9879
1291.30 405.8118
1291.40 405.6358
1291.50 405.4598
1291.60 405.2837
1291.70 405.1077
1291.80 404.9317
1291.90 404.7556
1292.00 404.5796
1292.10 404.4035
1292.20 404.2275
1292.30 404.0515
1292.40 403.8754
1292.50 403.6994
1292.60 403.5234
1292.70 403.3473
1292.80 403.1713
1292.90 402.9952
1293.00 402.8192
1293.10 402.6432
1293.20 402.4671
1293.30 402.2911
1293.40 402.172
1293.50 402.1382
1293.60 402.1045
1293.70 402.0707
1293.80 402.0369
1293.90 402.0032
1294.00 401.9694
1294.10 401.9357
1294.20 401.9019
1294.30 401.8681
1294.40 401.8344
1294.50 401.8006
1294.60 401.7668
1294.70 401.7331
1294.80 401.6993
1294.90 401.6656
1295.00 401.6318
1295.10 401.598
1295.20 401.5643
1295.30 401.5305
1295.40 401.4968
1295.50 401.463
1295.60 401.4292
1295.70 401.3955
1295.80 401.3617
1295.90 401.328
1296.00 401.2942
1296.10 401.2604
1296.20 401.2267
1296.30 401.1929
1296.40 401.1592
1296.50 401.1254
1296.60 401.0916
1296.70 401.0579
1296.80 401.0241
1296.90 400.9904
1297.00 400.9566
1297.10 400.9228
1297.20 400.8891
1297.30 400.8553
1297.40 400.8216
1297.50 400.7878
1297.60 400.754
1297.70 400.7342
1297.80 400.7698
1297.90 400.8054
1298.00 400.8411
1298.10 400.8767
1298.20 400.9124
1298.30 400.948
1298.40 400.9836
1298.50 401.0193
1298.60 401.0549
1298.70 401.0906
1298.80 401.1262
1298.90 401.1619
1299.00 401.1975
1299.10 401.2331
1299.20 401.2688
1299.30 401.3044
1299.40 401.3401
1299.50 401.3757
1299.60 401.4113
1299.70 401.447
1299.80 401.4826
1299.90 401.5183
