# Version 2.1 - nm, norm@500 to 1, cut digits
# Wavelength(nm)  Flambda(ergs/cm^s/s/nm)
300.00 1.70462e-95
300.10 1.70462e-95
300.20 1.70462e-95
300.30 1.70462e-95
300.40 1.70462e-95
300.50 1.70462e-95
300.60 1.70462e-95
300.70 1.70462e-95
300.80 1.70462e-95
300.90 1.70462e-95
301.00 1.70462e-95
301.10 1.70462e-95
301.20 1.70462e-95
301.30 1.70462e-95
301.40 1.70462e-95
301.50 1.70462e-95
301.60 1.70462e-95
301.70 1.70462e-95
301.80 1.70462e-95
301.90 1.70462e-95
302.00 1.70462e-95
302.10 1.70462e-95
302.20 1.70462e-95
302.30 1.70462e-95
302.40 1.70462e-95
302.50 1.70462e-95
302.60 1.70462e-95
302.70 1.70462e-95
302.80 1.70462e-95
302.90 1.70462e-95
303.00 1.70462e-95
303.10 1.70462e-95
303.20 1.70462e-95
303.30 1.70462e-95
303.40 1.70462e-95
303.50 1.70462e-95
303.60 1.70462e-95
303.70 1.70462e-95
303.80 1.70462e-95
303.90 1.70462e-95
304.00 1.70462e-95
304.10 1.70462e-95
304.20 1.70462e-95
304.30 1.70462e-95
304.40 1.70462e-95
304.50 1.70462e-95
304.60 1.70462e-95
304.70 1.70462e-95
304.80 1.70462e-95
304.90 1.70462e-95
305.00 1.70462e-95
305.10 1.70462e-95
305.20 1.70462e-95
305.30 1.70462e-95
305.40 1.70462e-95
305.50 1.70462e-95
305.60 1.70462e-95
305.70 1.70462e-95
305.80 1.70462e-95
305.90 1.70462e-95
306.00 1.70462e-95
306.10 1.70462e-95
306.20 1.70462e-95
306.30 1.70462e-95
306.40 1.70462e-95
306.50 1.70462e-95
306.60 1.70462e-95
306.70 1.70462e-95
306.80 1.70462e-95
306.90 1.70462e-95
307.00 1.70462e-95
307.10 1.70462e-95
307.20 1.70462e-95
307.30 1.70462e-95
307.40 1.70462e-95
307.50 1.70462e-95
307.60 1.70462e-95
307.70 1.70462e-95
307.80 1.70462e-95
307.90 1.70462e-95
308.00 1.70462e-95
308.10 1.70462e-95
308.20 1.70462e-95
308.30 1.70462e-95
308.40 1.70462e-95
308.50 1.70462e-95
308.60 1.70462e-95
308.70 1.70462e-95
308.80 1.70462e-95
308.90 1.70462e-95
309.00 1.70462e-95
309.10 1.70462e-95
309.20 1.70462e-95
309.30 1.70462e-95
309.40 1.70462e-95
309.50 1.70462e-95
309.60 1.70462e-95
309.70 1.70462e-95
309.80 1.70462e-95
309.90 1.70462e-95
310.00 1.70462e-95
310.10 1.70462e-95
310.20 1.70462e-95
310.30 1.70462e-95
310.40 1.70462e-95
310.50 1.70462e-95
310.60 1.70462e-95
310.70 1.70462e-95
310.80 1.70462e-95
310.90 1.70462e-95
311.00 1.70462e-95
311.10 1.70462e-95
311.20 1.70462e-95
311.30 1.70462e-95
311.40 1.70462e-95
311.50 1.70462e-95
311.60 1.70462e-95
311.70 1.70462e-95
311.80 1.70462e-95
311.90 1.70462e-95
312.00 1.70462e-95
312.10 1.70462e-95
312.20 1.70462e-95
312.30 1.70462e-95
312.40 1.70462e-95
312.50 1.70462e-95
312.60 1.70462e-95
312.70 1.70462e-95
312.80 1.70462e-95
312.90 1.70462e-95
313.00 1.70462e-95
313.10 1.70462e-95
313.20 1.70462e-95
313.30 1.70462e-95
313.40 1.70462e-95
313.50 1.70462e-95
313.60 1.70462e-95
313.70 1.70462e-95
313.80 1.70462e-95
313.90 1.70462e-95
314.00 1.70462e-95
314.10 1.70462e-95
314.20 1.70462e-95
314.30 1.70462e-95
314.40 1.70462e-95
314.50 1.70462e-95
314.60 1.70462e-95
314.70 1.70462e-95
314.80 1.70462e-95
314.90 1.70462e-95
315.00 1.70462e-95
315.10 1.70462e-95
315.20 1.70462e-95
315.30 1.70462e-95
315.40 1.70462e-95
315.50 1.70462e-95
315.60 1.70462e-95
315.70 1.70462e-95
315.80 1.70462e-95
315.90 1.70462e-95
316.00 1.70462e-95
316.10 1.70462e-95
316.20 1.70462e-95
316.30 1.70462e-95
316.40 1.70462e-95
316.50 1.70462e-95
316.60 1.70462e-95
316.70 1.70462e-95
316.80 1.70462e-95
316.90 1.70462e-95
317.00 1.70462e-95
317.10 1.70462e-95
317.20 1.70462e-95
317.30 1.70462e-95
317.40 1.70462e-95
317.50 1.70462e-95
317.60 1.70462e-95
317.70 1.70462e-95
317.80 1.70462e-95
317.90 1.70462e-95
318.00 1.70462e-95
318.10 1.70462e-95
318.20 1.70462e-95
318.30 1.70462e-95
318.40 1.70462e-95
318.50 1.70462e-95
318.60 1.70462e-95
318.70 1.70462e-95
318.80 1.70462e-95
318.90 1.70462e-95
319.00 1.70462e-95
319.10 1.70462e-95
319.20 1.70462e-95
319.30 1.70462e-95
319.40 1.70462e-95
319.50 1.70462e-95
319.60 1.70462e-95
319.70 1.70462e-95
319.80 1.70462e-95
319.90 1.70462e-95
320.00 1.70462e-95
320.10 1.70462e-95
320.20 1.70462e-95
320.30 1.70462e-95
320.40 1.70462e-95
320.50 1.70462e-95
320.60 1.70462e-95
320.70 1.70462e-95
320.80 1.70462e-95
320.90 1.70462e-95
321.00 1.70462e-95
321.10 1.70462e-95
321.20 1.70462e-95
321.30 1.70462e-95
321.40 1.70462e-95
321.50 1.70462e-95
321.60 1.70462e-95
321.70 1.70462e-95
321.80 1.70462e-95
321.90 1.70462e-95
322.00 1.70462e-95
322.10 1.70462e-95
322.20 1.70462e-95
322.30 1.70462e-95
322.40 1.70462e-95
322.50 1.70462e-95
322.60 1.70462e-95
322.70 1.70462e-95
322.80 1.70462e-95
322.90 1.70462e-95
323.00 1.70462e-95
323.10 1.70462e-95
323.20 1.70462e-95
323.30 1.70462e-95
323.40 1.70462e-95
323.50 1.70462e-95
323.60 1.70462e-95
323.70 1.70462e-95
323.80 1.70462e-95
323.90 1.70462e-95
324.00 1.70462e-95
324.10 1.70462e-95
324.20 1.70462e-95
324.30 1.70462e-95
324.40 1.70462e-95
324.50 1.70462e-95
324.60 1.70462e-95
324.70 1.70462e-95
324.80 1.70462e-95
324.90 1.70462e-95
325.00 1.70462e-95
325.10 1.70462e-95
325.20 1.70462e-95
325.30 1.70462e-95
325.40 1.70462e-95
325.50 1.70462e-95
325.60 1.70462e-95
325.70 1.70462e-95
325.80 1.70462e-95
325.90 1.70462e-95
326.00 1.70462e-95
326.10 1.70462e-95
326.20 1.70462e-95
326.30 1.70462e-95
326.40 1.70462e-95
326.50 1.70462e-95
326.60 1.70462e-95
326.70 1.70462e-95
326.80 1.70462e-95
326.90 1.70462e-95
327.00 1.70462e-95
327.10 1.70462e-95
327.20 1.70462e-95
327.30 1.70462e-95
327.40 1.70462e-95
327.50 1.70462e-95
327.60 1.70462e-95
327.70 1.70462e-95
327.80 1.70462e-95
327.90 1.70462e-95
328.00 1.70462e-95
328.10 1.70462e-95
328.20 1.70462e-95
328.30 1.70462e-95
328.40 1.70462e-95
328.50 1.70462e-95
328.60 1.70462e-95
328.70 1.70462e-95
328.80 1.70462e-95
328.90 1.70462e-95
329.00 1.70462e-95
329.10 1.70462e-95
329.20 1.70462e-95
329.30 1.70462e-95
329.40 1.70462e-95
329.50 1.70462e-95
329.60 1.70462e-95
329.70 1.70462e-95
329.80 1.70462e-95
329.90 1.70462e-95
330.00 1.70462e-95
330.10 1.70462e-95
330.20 1.70462e-95
330.30 1.70462e-95
330.40 1.70462e-95
330.50 1.70462e-95
330.60 1.70462e-95
330.70 1.70462e-95
330.80 1.70462e-95
330.90 1.70462e-95
331.00 1.70462e-95
331.10 1.70462e-95
331.20 1.70462e-95
331.30 1.70462e-95
331.40 1.70462e-95
331.50 1.70462e-95
331.60 1.70462e-95
331.70 1.70462e-95
331.80 1.70462e-95
331.90 1.70462e-95
332.00 1.70462e-95
332.10 1.70462e-95
332.20 1.70462e-95
332.30 1.70462e-95
332.40 1.70462e-95
332.50 1.70462e-95
332.60 1.70462e-95
332.70 1.70462e-95
332.80 1.70462e-95
332.90 1.70462e-95
333.00 1.70462e-95
333.10 1.70462e-95
333.20 1.70462e-95
333.30 1.70462e-95
333.40 1.70462e-95
333.50 1.70462e-95
333.60 1.70462e-95
333.70 1.70462e-95
333.80 1.70462e-95
333.90 1.70462e-95
334.00 1.70462e-95
334.10 1.70462e-95
334.20 1.70462e-95
334.30 1.70462e-95
334.40 1.70462e-95
334.50 1.70462e-95
334.60 1.70462e-95
334.70 1.70462e-95
334.80 1.70462e-95
334.90 1.70462e-95
335.00 1.70462e-95
335.10 1.70462e-95
335.20 1.70462e-95
335.30 1.70462e-95
335.40 1.70462e-95
335.50 1.70462e-95
335.60 1.70462e-95
335.70 1.70462e-95
335.80 1.70462e-95
335.90 1.70462e-95
336.00 1.70462e-95
336.10 1.70462e-95
336.20 1.70462e-95
336.30 1.70462e-95
336.40 1.70462e-95
336.50 1.70462e-95
336.60 1.70462e-95
336.70 1.70462e-95
336.80 1.70462e-95
336.90 1.70462e-95
337.00 1.70462e-95
337.10 1.70462e-95
337.20 1.70462e-95
337.30 1.70462e-95
337.40 1.70462e-95
337.50 1.70462e-95
337.60 1.70462e-95
337.70 1.70462e-95
337.80 1.70462e-95
337.90 1.70462e-95
338.00 1.70462e-95
338.10 1.70462e-95
338.20 1.70462e-95
338.30 1.70462e-95
338.40 1.70462e-95
338.50 1.70462e-95
338.60 1.70462e-95
338.70 1.70462e-95
338.80 1.70462e-95
338.90 1.70462e-95
339.00 1.70462e-95
339.10 1.70462e-95
339.20 1.70462e-95
339.30 1.70462e-95
339.40 1.70462e-95
339.50 1.70462e-95
339.60 1.70462e-95
339.70 1.70462e-95
339.80 1.70462e-95
339.90 1.70462e-95
340.00 1.70462e-95
340.10 1.70462e-95
340.20 1.70462e-95
340.30 1.70462e-95
340.40 1.70462e-95
340.50 1.70462e-95
340.60 1.70462e-95
340.70 1.70462e-95
340.80 1.70462e-95
340.90 1.70462e-95
341.00 1.70462e-95
341.10 1.70462e-95
341.20 1.70462e-95
341.30 1.70462e-95
341.40 1.70462e-95
341.50 1.70462e-95
341.60 1.70462e-95
341.70 1.70462e-95
341.80 1.70462e-95
341.90 1.70462e-95
342.00 1.70462e-95
342.10 1.70462e-95
342.20 1.70462e-95
342.30 1.70462e-95
342.40 1.70462e-95
342.50 1.70462e-95
342.60 1.70462e-95
342.70 1.70462e-95
342.80 1.70462e-95
342.90 1.70462e-95
343.00 1.70462e-95
343.10 1.70462e-95
343.20 1.70462e-95
343.30 1.70462e-95
343.40 1.70462e-95
343.50 1.70462e-95
343.60 1.70462e-95
343.70 1.70462e-95
343.80 1.70462e-95
343.90 1.70462e-95
344.00 1.70462e-95
344.10 1.70462e-95
344.20 1.70462e-95
344.30 1.70462e-95
344.40 1.70462e-95
344.50 1.70462e-95
344.60 1.70462e-95
344.70 1.70462e-95
344.80 1.70462e-95
344.90 1.70462e-95
345.00 1.70462e-95
345.10 1.70462e-95
345.20 1.70462e-95
345.30 1.70462e-95
345.40 1.70462e-95
345.50 1.70462e-95
345.60 1.70462e-95
345.70 1.70462e-95
345.80 1.70462e-95
345.90 1.70462e-95
346.00 1.70462e-95
346.10 1.70462e-95
346.20 1.70462e-95
346.30 1.70462e-95
346.40 1.70462e-95
346.50 1.70462e-95
346.60 1.70462e-95
346.70 1.70462e-95
346.80 1.70462e-95
346.90 1.70462e-95
347.00 1.70462e-95
347.10 1.70462e-95
347.20 1.70462e-95
347.30 1.70462e-95
347.40 1.70462e-95
347.50 1.70462e-95
347.60 1.70462e-95
347.70 1.70462e-95
347.80 1.70462e-95
347.90 1.70462e-95
348.00 1.70462e-95
348.10 1.70462e-95
348.20 1.70462e-95
348.30 1.70462e-95
348.40 1.70462e-95
348.50 1.70462e-95
348.60 1.70462e-95
348.70 1.70462e-95
348.80 1.70462e-95
348.90 1.70462e-95
349.00 1.70462e-95
349.10 1.70462e-95
349.20 1.70462e-95
349.30 1.70462e-95
349.40 1.70462e-95
349.50 1.70462e-95
349.60 1.70462e-95
349.70 1.70462e-95
349.80 1.70462e-95
349.90 1.70462e-95
350.00 1.70462e-95
350.10 1.70462e-95
350.20 1.70462e-95
350.30 1.70462e-95
350.40 1.70462e-95
350.50 1.70462e-95
350.60 1.70462e-95
350.70 1.70462e-95
350.80 1.70462e-95
350.90 1.70462e-95
351.00 1.70462e-95
351.10 1.70462e-95
351.20 1.70462e-95
351.30 1.70462e-95
351.40 1.70462e-95
351.50 1.70462e-95
351.60 1.70462e-95
351.70 1.70462e-95
351.80 1.70462e-95
351.90 1.70462e-95
352.00 1.70462e-95
352.10 1.70462e-95
352.20 1.70462e-95
352.30 1.70462e-95
352.40 1.70462e-95
352.50 1.70462e-95
352.60 1.70462e-95
352.70 1.70462e-95
352.80 1.70462e-95
352.90 1.70462e-95
353.00 1.70462e-95
353.10 1.70462e-95
353.20 1.70462e-95
353.30 1.70462e-95
353.40 1.70462e-95
353.50 1.70462e-95
353.60 1.70462e-95
353.70 1.70462e-95
353.80 1.70462e-95
353.90 1.70462e-95
354.00 1.70462e-95
354.10 1.70462e-95
354.20 1.70462e-95
354.30 1.70462e-95
354.40 1.70462e-95
354.50 1.70462e-95
354.60 1.70462e-95
354.70 1.70462e-95
354.80 1.70462e-95
354.90 1.70462e-95
355.00 1.70462e-95
355.10 1.70462e-95
355.20 1.70462e-95
355.30 1.70462e-95
355.40 1.70462e-95
355.50 1.70462e-95
355.60 1.70462e-95
355.70 1.70462e-95
355.80 1.70462e-95
355.90 1.70462e-95
356.00 1.70462e-95
356.10 1.70462e-95
356.20 1.70462e-95
356.30 1.70462e-95
356.40 1.70462e-95
356.50 1.70462e-95
356.60 1.70462e-95
356.70 1.70462e-95
356.80 1.70462e-95
356.90 1.70462e-95
357.00 1.70462e-95
357.10 1.70462e-95
357.20 1.70462e-95
357.30 1.70462e-95
357.40 1.70462e-95
357.50 1.70462e-95
357.60 1.70462e-95
357.70 1.70462e-95
357.80 1.70462e-95
357.90 1.70462e-95
358.00 1.70462e-95
358.10 1.70462e-95
358.20 1.70462e-95
358.30 1.70462e-95
358.40 1.70462e-95
358.50 1.70462e-95
358.60 1.70462e-95
358.70 1.70462e-95
358.80 1.70462e-95
358.90 1.70462e-95
359.00 1.70462e-95
359.10 1.70462e-95
359.20 1.70462e-95
359.30 1.70462e-95
359.40 1.70462e-95
359.50 1.70462e-95
359.60 1.70462e-95
359.70 1.70462e-95
359.80 1.70462e-95
359.90 1.70462e-95
360.00 1.70462e-95
360.10 1.70462e-95
360.20 1.70462e-95
360.30 1.70462e-95
360.40 1.70462e-95
360.50 1.70462e-95
360.60 1.70462e-95
360.70 1.70462e-95
360.80 1.70462e-95
360.90 1.70462e-95
361.00 1.70462e-95
361.10 1.70462e-95
361.20 1.70462e-95
361.30 1.70462e-95
361.40 1.70462e-95
361.50 1.70462e-95
361.60 1.70462e-95
361.70 1.70462e-95
361.80 1.70462e-95
361.90 1.70462e-95
362.00 1.70462e-95
362.10 1.70462e-95
362.20 1.70462e-95
362.30 1.70462e-95
362.40 1.70462e-95
362.50 1.70462e-95
362.60 1.70462e-95
362.70 1.70462e-95
362.80 1.70462e-95
362.90 1.70462e-95
363.00 1.70462e-95
363.10 1.70462e-95
363.20 1.70462e-95
363.30 1.70462e-95
363.40 1.70462e-95
363.50 1.70462e-95
363.60 1.70462e-95
363.70 1.70462e-95
363.80 1.70462e-95
363.90 1.70462e-95
364.00 1.70462e-95
364.10 1.70462e-95
364.20 1.70462e-95
364.30 1.70462e-95
364.40 1.70462e-95
364.50 1.70462e-95
364.60 1.70462e-95
364.70 1.70462e-95
364.80 1.70462e-95
364.90 1.70462e-95
365.00 1.70462e-95
365.10 1.70462e-95
365.20 1.70462e-95
365.30 1.70462e-95
365.40 1.70462e-95
365.50 1.70462e-95
365.60 1.70462e-95
365.70 1.70462e-95
365.80 1.70462e-95
365.90 1.70462e-95
366.00 1.70462e-95
366.10 1.70462e-95
366.20 1.70462e-95
366.30 1.70462e-95
366.40 1.70462e-95
366.50 1.70462e-95
366.60 1.70462e-95
366.70 1.70462e-95
366.80 1.70462e-95
366.90 1.70462e-95
367.00 1.70462e-95
367.10 1.70462e-95
367.20 1.70462e-95
367.30 1.70462e-95
367.40 1.70462e-95
367.50 1.70462e-95
367.60 1.70462e-95
367.70 1.70462e-95
367.80 1.70462e-95
367.90 1.70462e-95
368.00 1.70462e-95
368.10 1.70462e-95
368.20 1.70462e-95
368.30 1.70462e-95
368.40 1.70462e-95
368.50 1.70462e-95
368.60 1.70462e-95
368.70 1.70462e-95
368.80 1.70462e-95
368.90 1.70462e-95
369.00 1.70462e-95
369.10 1.70462e-95
369.20 1.70462e-95
369.30 1.70462e-95
369.40 1.70462e-95
369.50 1.70462e-95
369.60 1.70462e-95
369.70 1.70462e-95
369.80 1.70462e-95
369.90 1.70462e-95
370.00 1.70462e-95
370.10 1.70462e-95
370.20 1.70462e-95
370.30 1.70462e-95
370.40 1.70462e-95
370.50 1.70462e-95
370.60 1.70462e-95
370.70 1.70462e-95
370.80 1.70462e-95
370.90 1.70462e-95
371.00 1.70462e-95
371.10 1.70462e-95
371.20 1.70462e-95
371.30 1.70462e-95
371.40 1.70462e-95
371.50 1.70462e-95
371.60 1.70462e-95
371.70 1.70462e-95
371.80 1.70462e-95
371.90 1.70462e-95
372.00 1.70462e-95
372.10 1.70462e-95
372.20 1.70462e-95
372.30 1.70462e-95
372.40 1.70462e-95
372.50 1.70462e-95
372.60 1.70462e-95
372.70 1.70462e-95
372.80 1.70462e-95
372.90 1.70462e-95
373.00 1.70462e-95
373.10 1.70462e-95
373.20 1.70462e-95
373.30 1.70462e-95
373.40 1.70462e-95
373.50 1.70462e-95
373.60 1.70462e-95
373.70 1.70462e-95
373.80 1.70462e-95
373.90 1.70462e-95
374.00 1.70462e-95
374.10 1.70462e-95
374.20 1.70462e-95
374.30 1.70462e-95
374.40 1.70462e-95
374.50 1.70462e-95
374.60 1.70462e-95
374.70 1.70462e-95
374.80 1.70462e-95
374.90 1.70462e-95
375.00 1.70462e-95
375.10 1.70462e-95
375.20 1.70462e-95
375.30 1.70462e-95
375.40 1.70462e-95
375.50 1.70462e-95
375.60 1.70462e-95
375.70 1.70462e-95
375.80 1.70462e-95
375.90 1.70462e-95
376.00 1.70462e-95
376.10 1.70462e-95
376.20 1.70462e-95
376.30 1.70462e-95
376.40 1.70462e-95
376.50 1.70462e-95
376.60 1.70462e-95
376.70 1.70462e-95
376.80 1.70462e-95
376.90 1.70462e-95
377.00 1.70462e-95
377.10 1.70462e-95
377.20 1.70462e-95
377.30 1.70462e-95
377.40 1.70462e-95
377.50 1.70462e-95
377.60 1.70462e-95
377.70 1.70462e-95
377.80 1.70462e-95
377.90 1.70462e-95
378.00 1.70462e-95
378.10 1.70462e-95
378.20 1.70462e-95
378.30 1.70462e-95
378.40 1.70462e-95
378.50 1.70462e-95
378.60 1.70462e-95
378.70 1.70462e-95
378.80 1.70462e-95
378.90 1.70462e-95
379.00 1.70462e-95
379.10 1.70462e-95
379.20 1.70462e-95
379.30 1.70462e-95
379.40 1.70462e-95
379.50 1.70462e-95
379.60 1.70462e-95
379.70 1.70462e-95
379.80 1.70462e-95
379.90 1.70462e-95
380.00 1.70462e-95
380.10 1.70462e-95
380.20 1.70462e-95
380.30 1.70462e-95
380.40 1.70462e-95
380.50 1.70462e-95
380.60 1.70462e-95
380.70 1.70462e-95
380.80 1.70462e-95
380.90 1.70462e-95
381.00 1.70462e-95
381.10 1.70462e-95
381.20 1.70462e-95
381.30 1.70462e-95
381.40 1.70462e-95
381.50 1.70462e-95
381.60 1.70462e-95
381.70 1.70462e-95
381.80 1.70462e-95
381.90 1.70462e-95
382.00 1.70462e-95
382.10 1.70462e-95
382.20 1.70462e-95
382.30 1.70462e-95
382.40 1.70462e-95
382.50 1.70462e-95
382.60 1.70462e-95
382.70 1.70462e-95
382.80 1.70462e-95
382.90 1.70462e-95
383.00 1.70462e-95
383.10 1.70462e-95
383.20 1.70462e-95
383.30 1.70462e-95
383.40 1.70462e-95
383.50 1.70462e-95
383.60 1.70462e-95
383.70 1.70462e-95
383.80 1.70462e-95
383.90 1.70462e-95
384.00 1.70462e-95
384.10 1.70462e-95
384.20 1.70462e-95
384.30 1.70462e-95
384.40 1.70462e-95
384.50 1.70462e-95
384.60 1.70462e-95
384.70 1.70462e-95
384.80 1.70462e-95
384.90 1.70462e-95
385.00 1.70462e-95
385.10 1.70462e-95
385.20 1.70462e-95
385.30 1.70462e-95
385.40 1.70462e-95
385.50 1.70462e-95
385.60 1.70462e-95
385.70 1.70462e-95
385.80 1.70462e-95
385.90 1.70462e-95
386.00 1.70462e-95
386.10 1.70462e-95
386.20 1.70462e-95
386.30 1.70462e-95
386.40 1.70462e-95
386.50 1.70462e-95
386.60 1.70462e-95
386.70 1.70462e-95
386.80 1.70462e-95
386.90 1.70462e-95
387.00 1.70462e-95
387.10 1.70462e-95
387.20 1.70462e-95
387.30 1.70462e-95
387.40 1.70462e-95
387.50 1.70462e-95
387.60 1.70462e-95
387.70 1.70462e-95
387.80 1.70462e-95
387.90 1.70462e-95
388.00 1.70462e-95
388.10 1.70462e-95
388.20 1.70462e-95
388.30 1.70462e-95
388.40 1.70462e-95
388.50 1.70462e-95
388.60 1.70462e-95
388.70 1.70462e-95
388.80 1.70462e-95
388.90 1.70462e-95
389.00 1.70462e-95
389.10 1.70462e-95
389.20 1.70462e-95
389.30 1.70462e-95
389.40 1.70462e-95
389.50 1.70462e-95
389.60 1.70462e-95
389.70 1.70462e-95
389.80 1.70462e-95
389.90 1.70462e-95
390.00 1.70462e-95
390.10 1.70462e-95
390.20 1.70462e-95
390.30 1.70462e-95
390.40 1.70462e-95
390.50 1.70462e-95
390.60 1.70462e-95
390.70 1.70462e-95
390.80 1.70462e-95
390.90 1.70462e-95
391.00 1.70462e-95
391.10 1.70462e-95
391.20 1.70462e-95
391.30 1.70462e-95
391.40 1.70462e-95
391.50 1.70462e-95
391.60 1.70462e-95
391.70 1.70462e-95
391.80 1.70462e-95
391.90 1.70462e-95
392.00 1.70462e-95
392.10 1.70462e-95
392.20 1.70462e-95
392.30 1.70462e-95
392.40 1.70462e-95
392.50 1.70462e-95
392.60 1.70462e-95
392.70 1.70462e-95
392.80 1.70462e-95
392.90 1.70462e-95
393.00 1.70462e-95
393.10 1.70462e-95
393.20 1.70462e-95
393.30 1.70462e-95
393.40 1.70462e-95
393.50 1.70462e-95
393.60 1.70462e-95
393.70 1.70462e-95
393.80 1.70462e-95
393.90 1.70462e-95
394.00 1.70462e-95
394.10 1.70462e-95
394.20 1.70462e-95
394.30 1.70462e-95
394.40 1.70462e-95
394.50 1.70462e-95
394.60 1.70462e-95
394.70 1.70462e-95
394.80 1.70462e-95
394.90 1.70462e-95
395.00 0.01404335
395.10 0.03126775
395.20 0.05103302
395.30 0.07205967
395.40 0.09215308
395.50 0.1087992
395.60 0.1200843
395.70 0.1252805
395.80 0.1252805
395.90 0.1252805
396.00 0.1252805
396.10 0.1252805
396.20 0.1252805
396.30 0.1252805
396.40 0.1257783
396.50 0.1270958
396.60 0.1282688
396.70 0.1289423
396.80 0.1291832
396.90 0.1294618
397.00 0.1304404
397.10 0.1325102
397.20 0.1357286
397.30 0.1399442
397.40 0.1448446
397.50 0.1503665
397.60 0.1567963
397.70 0.1641802
397.80 0.1724576
397.90 0.1813808
398.00 0.1904798
398.10 0.199482
398.20 0.208302
398.30 0.2168321
398.40 0.2249341
398.50 0.2327579
398.60 0.2403802
398.70 0.2478721
398.80 0.255662
398.90 0.2642437
399.00 0.2739057
399.10 0.2848244
399.20 0.2972615
399.30 0.3114949
399.40 0.3270256
399.50 0.3424161
399.60 0.3564556
399.70 0.3685477
399.80 0.3784106
399.90 0.3856338
400.00 0.3898448
400.10 0.3908668
400.20 0.3908668
400.30 0.3908668
400.40 0.3908668
400.50 0.3908668
400.60 0.3908668
400.70 0.3908668
400.80 0.3935084
400.90 0.3990758
401.00 0.4068849
401.10 0.4157873
401.20 0.4244926
401.30 0.4323793
401.40 0.4398314
401.50 0.4477152
401.60 0.456496
401.70 0.4652632
401.80 0.4724005
401.90 0.4764208
402.00 0.4764208
402.10 0.4764208
402.20 0.4764208
402.30 0.4764208
402.40 0.4764208
402.50 0.4764208
402.60 0.4764208
402.70 0.4764208
402.80 0.4764208
402.90 0.4764208
403.00 0.4764208
403.10 0.4764208
403.20 0.4768048
403.30 0.4783707
403.40 0.4807085
403.50 0.4834683
403.60 0.4861851
403.70 0.4885247
403.80 0.4905095
403.90 0.4924569
404.00 0.4946424
404.10 0.4971475
404.20 0.4999675
404.30 0.5032684
404.40 0.5075505
404.50 0.5137094
404.60 0.5229275
404.70 0.5363086
404.80 0.5540342
404.90 0.5751981
405.00 0.5843271
405.10 0.5906393
405.20 0.5932213
405.30 0.5922152
405.40 0.5893679
405.50 0.5875679
405.60 0.5897748
405.70 0.597599
405.80 0.6104644
405.90 0.6233415
406.00 0.6364223
406.10 0.6497148
406.20 0.6632051
406.30 0.6771979
406.40 0.6914629
406.50 0.7054438
406.60 0.7192638
406.70 0.7321276
406.80 0.7431598
406.90 0.7516043
407.00 0.7568196
407.10 0.7588278
407.20 0.7582755
407.30 0.7560287
407.40 0.7528104
407.50 0.7486655
407.60 0.743286
407.70 0.7365154
407.80 0.728278
407.90 0.7193548
408.00 0.7106194
408.10 0.7039004
408.20 0.700211
408.30 0.6998183
408.40 0.7025193
408.50 0.707405
408.60 0.7133188
408.70 0.7188689
408.80 0.7225485
408.90 0.7235605
409.00 0.7218691
409.10 0.7177772
409.20 0.7115694
409.30 0.7034172
409.40 0.6939323
409.50 0.6840569
409.60 0.67413
409.70 0.6640086
409.80 0.6541458
409.90 0.6469226
410.00 0.6427116
410.10 0.6416896
410.20 0.6416896
410.30 0.6416896
410.40 0.6424502
410.50 0.6464437
410.60 0.6542594
410.70 0.6660027
410.80 0.6787865
410.90 0.6920203
411.00 0.7059525
411.10 0.7205974
411.20 0.7355055
411.30 0.7494597
411.40 0.7601166
411.50 0.7648637
411.60 0.7626267
411.70 0.7548467
411.80 0.7477094
411.90 0.7436891
412.00 0.7436891
412.10 0.7436891
412.20 0.7436891
412.30 0.7454767
412.40 0.7506069
412.50 0.7586115
412.60 0.768456
412.70 0.7786258
412.80 0.7878052
412.90 0.7953259
413.00 0.8012252
413.10 0.8061079
413.20 0.8106149
413.30 0.8152029
413.40 0.8214107
413.50 0.8302528
413.60 0.8420719
413.70 0.856242
413.80 0.8710819
413.90 0.88435
414.00 0.8944997
414.10 0.9011386
414.20 0.9047991
414.30 0.9063462
414.40 0.906392
414.50 0.9051325
414.60 0.901938
414.70 0.8955114
414.80 0.8851035
414.90 0.871217
415.00 0.855261
415.10 0.8389765
415.20 0.8239938
415.30 0.8113448
415.40 0.8011349
415.50 0.7925385
415.60 0.7839515
415.70 0.774273
415.80 0.7634613
415.90 0.7517535
416.00 0.7397483
416.10 0.7286756
416.20 0.7197875
416.30 0.7135345
416.40 0.7098326
416.50 0.7086742
416.60 0.7102972
416.70 0.7152643
416.80 0.7234798
416.90 0.7338761
417.00 0.7455235
417.10 0.7575534
417.20 0.769006
417.30 0.7791701
417.40 0.7879093
417.50 0.7958625
417.60 0.8038545
417.70 0.8126867
417.80 0.8228651
417.90 0.8338797
418.00 0.8451568
418.10 0.8545668
418.20 0.8604503
418.30 0.8620504
418.40 0.8591772
418.50 0.8522316
418.60 0.8420572
418.70 0.8302197
418.80 0.8187502
418.90 0.8091565
419.00 0.8011858
419.10 0.7943591
419.20 0.7881298
419.30 0.7820486
419.40 0.7760028
419.50 0.7704877
419.60 0.7663751
419.70 0.7644043
419.80 0.7644043
419.90 0.7644043
420.00 0.7645751
420.10 0.7678886
420.20 0.775294
420.30 0.7863851
420.40 0.7989843
420.50 0.8086964
420.60 0.8130306
420.70 0.8106822
420.80 0.8013777
420.90 0.7853556
421.00 0.7636144
421.10 0.740067
421.20 0.7164537
421.30 0.6946128
421.40 0.6765038
421.50 0.6638729
421.60 0.6573291
421.70 0.6576791
421.80 0.66033
421.90 0.6639303
422.00 0.667934
422.10 0.6719621
422.20 0.6759321
422.30 0.6784601
422.40 0.6791474
422.50 0.6798138
422.60 0.682513
422.70 0.6894805
422.80 0.7021761
422.90 0.7204654
423.00 0.7427428
423.10 0.766507
423.20 0.7887511
423.30 0.8066086
423.40 0.8178993
423.50 0.8212175
423.60 0.8164437
423.70 0.8048461
423.80 0.7889131
423.90 0.7736976
424.00 0.7613624
424.10 0.7522184
424.20 0.7479946
424.30 0.74901
424.40 0.7541256
424.50 0.7615416
424.60 0.7697533
424.70 0.7780043
424.80 0.7860745
424.90 0.7936181
425.00 0.7997379
425.10 0.8034572
425.20 0.8040416
425.30 0.8013365
425.40 0.7957503
425.50 0.7895006
425.60 0.7845956
425.70 0.7812537
425.80 0.7792
425.90 0.7780307
426.00 0.776955
426.10 0.7751975
426.20 0.7727888
426.30 0.7682921
426.40 0.7610674
426.50 0.7512546
426.60 0.7394768
426.70 0.7264102
426.80 0.7131285
426.90 0.7009605
427.00 0.6907593
427.10 0.6828388
427.20 0.6769348
427.30 0.6727119
427.40 0.6699144
427.50 0.6677674
427.60 0.6651942
427.70 0.6616658
427.80 0.6573485
427.90 0.6526418
428.00 0.6481174
428.10 0.6447012
428.20 0.6430234
428.30 0.6431767
428.40 0.6449914
428.50 0.6479966
428.60 0.6518578
428.70 0.6561307
428.80 0.660073
428.90 0.6631463
429.00 0.6662363
429.10 0.6700185
429.20 0.6746652
429.30 0.6801586
429.40 0.6863099
429.50 0.6924625
429.60 0.6980373
429.70 0.7029163
429.80 0.707289
429.90 0.7115043
430.00 0.7158534
430.10 0.7177611
430.20 0.7162914
430.30 0.7118602
430.40 0.7064921
430.50 0.7029242
430.60 0.7035634
430.70 0.7095172
430.80 0.7206913
430.90 0.7364058
431.00 0.7549562
431.10 0.772317
431.20 0.7874984
431.30 0.79981
431.40 0.8088138
431.50 0.8146291
431.60 0.8181604
431.70 0.8193104
431.80 0.8188029
431.90 0.8171815
432.00 0.8151257
432.10 0.813075
432.20 0.8112153
432.30 0.8093041
432.40 0.806471
432.50 0.8014684
432.60 0.7929728
432.70 0.7799283
432.80 0.7619555
432.90 0.7394547
433.00 0.7134467
433.10 0.6855456
433.20 0.6584105
433.30 0.6343992
433.40 0.6145628
433.50 0.6001913
433.60 0.5922927
433.70 0.5904793
433.80 0.5934221
433.90 0.5972632
434.00 0.6005176
434.10 0.6030011
434.20 0.6028345
434.30 0.5995656
434.40 0.5943557
434.50 0.5887704
434.60 0.5841072
434.70 0.5815058
434.80 0.5815395
434.90 0.5839277
435.00 0.5877696
435.10 0.5919468
435.20 0.5957547
435.30 0.5990454
435.40 0.6022926
435.50 0.604909
435.60 0.6068506
435.70 0.6092185
435.80 0.6127438
435.90 0.6181195
436.00 0.6258692
436.10 0.635519
436.20 0.6452632
436.30 0.6550959
436.40 0.6650322
436.50 0.674781
436.60 0.6835714
436.70 0.6903663
436.80 0.6941848
436.90 0.6945592
437.00 0.6912636
437.10 0.6848737
437.20 0.6770246
437.30 0.6691146
437.40 0.6614907
437.50 0.6549593
437.60 0.6503921
437.70 0.6481405
437.80 0.6477049
437.90 0.6482556
438.00 0.6491607
438.10 0.6501711
438.20 0.6513617
438.30 0.6527696
438.40 0.6548473
438.50 0.6584652
438.60 0.6643678
438.70 0.673197
438.80 0.6849306
438.90 0.6985623
439.00 0.7124835
439.10 0.7250588
439.20 0.7353693
439.30 0.7429405
439.40 0.7474759
439.50 0.7491935
439.60 0.7486901
439.70 0.7469079
439.80 0.7448459
439.90 0.7430116
440.00 0.741243
440.10 0.7391942
440.20 0.7368688
440.30 0.7342583
440.40 0.7308919
440.50 0.7259668
440.60 0.7186102
440.70 0.7085516
440.80 0.6959689
440.90 0.6811556
441.00 0.6650979
441.10 0.6488607
441.20 0.6336793
441.30 0.6213677
441.40 0.6123639
441.50 0.6065486
441.60 0.6030173
441.70 0.6005301
441.80 0.5983866
441.90 0.5964078
442.00 0.5944599
442.10 0.5924825
442.20 0.5903722
442.30 0.5879678
442.40 0.5849834
442.50 0.5813149
442.60 0.5772669
442.70 0.573174
442.80 0.5692719
442.90 0.5668341
443.00 0.5659677
443.10 0.5663128
443.20 0.5668221
443.30 0.5668221
443.40 0.5668221
443.50 0.5662735
443.60 0.5644099
443.70 0.5613113
443.80 0.561257
443.90 0.5664868
444.00 0.5779719
444.10 0.5948639
444.20 0.6147013
444.30 0.634185
444.40 0.6502271
444.50 0.6608099
444.60 0.6650604
444.70 0.6627433
444.80 0.6544836
444.90 0.6420531
445.00 0.6281644
445.10 0.6157475
445.20 0.6067641
445.30 0.6017129
445.40 0.5997692
445.50 0.5994416
445.60 0.5992797
445.70 0.5983535
445.80 0.5962051
445.90 0.5923973
446.00 0.5868016
446.10 0.5800153
446.20 0.5730394
446.30 0.5664721
446.40 0.5599872
446.50 0.5527639
446.60 0.5443417
446.70 0.534944
446.80 0.5256408
446.90 0.5183151
447.00 0.5140066
447.10 0.5140734
447.20 0.5185239
447.30 0.5268755
447.40 0.539127
447.50 0.5542534
447.60 0.5703199
447.70 0.5853134
447.80 0.5978538
447.90 0.6071521
448.00 0.6127008
448.10 0.6141612
448.20 0.6117483
448.30 0.6064316
448.40 0.5992193
448.50 0.5907999
448.60 0.58167
448.70 0.5717793
448.80 0.5606291
448.90 0.5481527
449.00 0.5349822
449.10 0.5220613
449.20 0.5103497
449.30 0.5007825
449.40 0.4941705
449.50 0.4909689
449.60 0.490799
449.70 0.4923015
449.80 0.493972
449.90 0.495165
450.00 0.496272
450.10 0.4980967
450.20 0.5011579
450.30 0.505402
450.40 0.5102694
450.50 0.5149235
450.60 0.5187228
450.70 0.5214601
450.80 0.5237594
450.90 0.5269353
451.00 0.5323184
451.10 0.5412013
451.20 0.554144
451.30 0.5701162
451.40 0.5882864
451.50 0.6072589
451.60 0.6258178
451.70 0.6434529
451.80 0.6600824
451.90 0.675721
452.00 0.6902469
452.10 0.7033107
452.20 0.7145007
452.30 0.7236987
452.40 0.7313919
452.50 0.7386215
452.60 0.7464756
452.70 0.7558694
452.80 0.7676097
452.90 0.7812486
453.00 0.7970334
453.10 0.8145974
453.20 0.8327966
453.30 0.850392
453.40 0.8664016
453.50 0.8807361
453.60 0.8935355
453.70 0.9052219
453.80 0.9124956
453.90 0.9141784
454.00 0.9100149
454.10 0.9010151
454.20 0.8892438
454.30 0.8772503
454.40 0.8671368
454.50 0.8601805
454.60 0.8569803
454.70 0.8571877
454.80 0.859592
454.90 0.8627744
455.00 0.8657622
455.10 0.8682083
455.20 0.87032
455.30 0.8727173
455.40 0.876412
455.50 0.8820203
455.60 0.8890842
455.70 0.8964121
455.80 0.9025643
455.90 0.9062982
456.00 0.9065595
456.10 0.9032337
456.20 0.8982719
456.30 0.8917635
456.40 0.8844758
456.50 0.8776232
456.60 0.8748568
456.70 0.8777085
456.80 0.8856928
456.90 0.8970217
457.00 0.9101846
457.10 0.9222333
457.20 0.9310278
457.30 0.9351802
457.40 0.9338834
457.50 0.9275577
457.60 0.9178319
457.70 0.9065496
457.80 0.8954366
457.90 0.8859141
458.00 0.8787603
458.10 0.8742807
458.20 0.8720823
458.30 0.8711753
458.40 0.8708323
458.50 0.8710101
458.60 0.8716878
458.70 0.8728265
458.80 0.8749498
458.90 0.8789133
459.00 0.8856079
459.10 0.8958453
459.20 0.909655
459.30 0.9260588
459.40 0.9435484
459.50 0.9604403
459.60 0.9754648
459.70 0.9879034
459.80 0.9972418
459.90 1.002862
460.00 1.004417
460.10 1.002351
460.20 0.9978497
460.30 0.9921919
460.40 0.9861571
460.50 0.9804079
460.60 0.9759177
460.70 0.9734475
460.80 0.9729922
460.90 0.9740379
461.00 0.9756157
461.10 0.9764711
461.20 0.9755594
461.30 0.9725142
461.40 0.9677708
461.50 0.9620997
461.60 0.9561139
461.70 0.9502086
461.80 0.9448612
461.90 0.9405978
462.00 0.937666
462.10 0.9363127
462.20 0.936911
462.30 0.9394547
462.40 0.9437299
462.50 0.9493417
462.60 0.95551
462.70 0.9613035
462.80 0.9658494
462.90 0.9685501
463.00 0.9694099
463.10 0.9693339
463.20 0.9697845
463.30 0.9716216
463.40 0.9748644
463.50 0.9792347
463.60 0.9841175
463.70 0.9885426
463.80 0.9914046
463.90 0.9919549
464.00 0.9902314
464.10 0.9867425
464.20 0.9820222
464.30 0.9765065
464.40 0.9705265
464.50 0.964445
464.60 0.9586266
464.70 0.953804
464.80 0.9509418
464.90 0.9504917
465.00 0.9522247
465.10 0.9552806
465.20 0.9586311
465.30 0.9614135
465.40 0.9627721
465.50 0.9624489
465.60 0.9612742
465.70 0.960754
465.80 0.9623951
465.90 0.9668532
466.00 0.9738315
466.10 0.9817414
466.20 0.9871232
466.30 0.9893942
466.40 0.9893942
466.50 0.9893942
466.60 0.9869541
466.70 0.9812674
466.80 0.9729446
466.90 0.9651878
467.00 0.9587522
467.10 0.9537983
467.20 0.9500453
467.30 0.9472155
467.40 0.9450274
467.50 0.9431926
467.60 0.9418061
467.70 0.9412175
467.80 0.9417285
467.90 0.9436433
468.00 0.9470976
468.10 0.9517704
468.20 0.9571572
468.30 0.962679
468.40 0.967607
468.50 0.9712242
468.60 0.9731491
468.70 0.9735313
468.80 0.9730202
468.90 0.9722042
469.00 0.9713193
469.10 0.9703586
469.20 0.9691686
469.30 0.967535
469.40 0.9653412
469.50 0.9630173
469.60 0.9614865
469.70 0.9618348
469.80 0.9648791
469.90 0.9710432
470.00 0.9802098
470.10 0.9913855
470.20 1.003096
470.30 1.014351
470.40 1.025053
470.50 1.035692
470.60 1.0465
470.70 1.057364
470.80 1.068228
470.90 1.078647
471.00 1.087728
471.10 1.094478
471.20 1.098185
471.30 1.098739
471.40 1.096658
471.50 1.092975
471.60 1.088807
471.70 1.084533
471.80 1.07948
471.90 1.072701
472.00 1.064046
472.10 1.054032
472.20 1.043485
472.30 1.033428
472.40 1.024451
472.50 1.016811
472.60 1.010726
472.70 1.006017
472.80 1.002071
472.90 0.9982638
473.00 0.9939839
473.10 0.9888574
473.20 0.9829774
473.30 0.9768991
473.40 0.9714668
473.50 0.9673677
473.60 0.9650017
473.70 0.9644936
473.80 0.9660262
473.90 0.9695415
474.00 0.974423
474.10 0.9800791
474.20 0.9861137
474.30 0.9919607
474.40 0.997189
474.50 1.001495
474.60 1.004809
474.70 1.007367
474.80 1.009453
474.90 1.011696
475.00 1.014776
475.10 1.019122
475.20 1.024589
475.30 1.030352
475.40 1.035307
475.50 1.038215
475.60 1.037812
475.70 1.033248
475.80 1.024526
475.90 1.014766
476.00 1.005373
476.10 0.9974628
476.20 0.992081
476.30 0.98981
476.40 0.98981
476.50 0.98981
476.60 0.9900854
476.70 0.9906984
476.80 0.9916202
476.90 0.9906967
477.00 0.9885614
477.10 0.9867761
477.20 0.9868806
477.30 0.9898072
477.40 0.9955988
477.50 1.003239
477.60 1.011049
477.70 1.017374
477.80 1.021061
477.90 1.021722
478.00 1.01982
478.10 1.016588
478.20 1.013639
478.30 1.012631
478.40 1.014615
478.50 1.019587
478.60 1.026765
478.70 1.034894
478.80 1.042534
478.90 1.048512
479.00 1.051908
479.10 1.051995
479.20 1.048662
479.30 1.042603
479.40 1.035046
479.50 1.027132
479.60 1.019435
479.70 1.011827
479.80 1.004195
479.90 0.9967658
480.00 0.9898598
480.10 0.984013
480.20 0.9799888
480.30 0.9783417
480.40 0.9790212
480.50 0.9816039
480.60 0.985561
480.70 0.990152
480.80 0.9942689
480.90 0.9967126
481.00 0.9969008
481.10 0.9953427
481.20 0.9929129
481.30 0.9902535
481.40 0.9878705
481.50 0.9862345
481.60 0.9855864
481.70 0.986269
481.80 0.989173
481.90 0.9950207
482.00 1.003889
482.10 1.015144
482.20 1.027592
482.30 1.040222
482.40 1.052397
482.50 1.063475
482.60 1.073091
482.70 1.081342
482.80 1.088424
482.90 1.094366
483.00 1.099192
483.10 1.102565
483.20 1.103584
483.30 1.101516
483.40 1.096088
483.50 1.087658
483.60 1.077622
483.70 1.067912
483.80 1.060007
483.90 1.054705
484.00 1.052039
484.10 1.051364
484.20 1.051875
484.30 1.052858
484.40 1.053636
484.50 1.053708
484.60 1.05288
484.70 1.051022
484.80 1.048017
484.90 1.043751
485.00 1.037884
485.10 1.02992
485.20 1.019899
485.30 1.008804
485.40 0.9983035
485.50 0.9902734
485.60 0.9862432
485.70 0.9871138
485.80 0.9928616
485.90 1.000576
486.00 1.009252
486.10 1.018021
486.20 1.026114
486.30 1.033099
486.40 1.039077
486.50 1.044846
486.60 1.051376
486.70 1.059716
486.80 1.070215
486.90 1.082334
487.00 1.094869
487.10 1.105999
487.20 1.113837
487.30 1.117065
487.40 1.115523
487.50 1.110616
487.60 1.104559
487.70 1.099632
487.80 1.097589
487.90 1.099034
488.00 1.103316
488.10 1.10909
488.20 1.114966
488.30 1.119695
488.40 1.122252
488.50 1.122331
488.60 1.120721
488.70 1.118771
488.80 1.117507
488.90 1.117281
489.00 1.118032
489.10 1.119439
489.20 1.121148
489.30 1.123034
489.40 1.125204
489.50 1.127864
489.60 1.131049
489.70 1.134913
489.80 1.139618
489.90 1.144938
490.00 1.150159
490.10 1.154303
490.20 1.156526
490.30 1.156317
490.40 1.153644
490.50 1.148647
490.60 1.141469
490.70 1.132255
490.80 1.121168
490.90 1.108566
491.00 1.095214
491.10 1.081865
491.20 1.069124
491.30 1.058303
491.40 1.04934
491.50 1.041357
491.60 1.034221
491.70 1.027948
491.80 1.02168
491.90 1.014974
492.00 1.00745
492.10 0.9987197
492.20 0.9886827
492.30 0.9770678
492.40 0.9633492
492.50 0.9470891
492.60 0.9295366
492.70 0.910806
492.80 0.8913852
492.90 0.8740853
493.00 0.8605728
493.10 0.8521494
493.20 0.849208
493.30 0.8505994
493.40 0.854249
493.50 0.8579993
493.60 0.8597212
493.70 0.8579625
493.80 0.8526501
493.90 0.8450873
494.00 0.8373567
494.10 0.8315388
494.20 0.8291275
494.30 0.830954
494.40 0.8370673
494.50 0.8466621
494.60 0.8584598
494.70 0.8710662
494.80 0.8832797
494.90 0.8939781
495.00 0.9026053
495.10 0.9093356
495.20 0.9145651
495.30 0.9187294
495.40 0.9222384
495.50 0.925283
495.60 0.9278105
495.70 0.9296819
495.80 0.9312461
495.90 0.9334103
496.00 0.9371074
496.10 0.9431278
496.20 0.9518946
496.30 0.9633426
496.40 0.9765816
496.50 0.989934
496.60 1.00133
496.70 1.008889
496.80 1.011449
496.90 1.008982
497.00 1.002713
497.10 0.9948158
497.20 0.9874705
497.30 0.9821249
497.40 0.9793461
497.50 0.9786651
497.60 0.978905
497.70 0.9787333
497.80 0.9773662
497.90 0.9749352
498.00 0.9722708
498.10 0.9701501
498.20 0.9689248
498.30 0.9687579
498.40 0.9696171
498.50 0.9710993
498.60 0.9725696
498.70 0.9734114
498.80 0.973287
498.90 0.9723967
499.00 0.9712854
499.10 0.9707614
499.20 0.9715022
499.30 0.9736286
499.40 0.976754
499.50 0.9804184
499.60 0.9845358
499.70 0.989021
499.80 0.9935013
499.90 0.9973665
500.00 1
500.10 1.000984
500.20 0.9999751
500.30 0.9968529
500.40 0.9919622
500.50 0.9860765
500.60 0.980177
500.70 0.9753856
500.80 0.9729385
500.90 0.9740501
501.00 0.9792135
501.10 0.9879593
501.20 0.9994353
501.30 1.012003
501.40 1.02509
501.50 1.038651
501.60 1.052305
501.70 1.065884
501.80 1.080108
501.90 1.09542
502.00 1.112315
502.10 1.131414
502.20 1.152735
502.30 1.17561
502.40 1.199259
502.50 1.223072
502.60 1.245143
502.70 1.265295
502.80 1.283695
502.90 1.298762
503.00 1.310186
503.10 1.318105
503.20 1.323556
503.30 1.328472
503.40 1.334669
503.50 1.342918
503.60 1.353278
503.70 1.365254
503.80 1.377618
503.90 1.388624
504.00 1.396741
504.10 1.401159
504.20 1.40158
504.30 1.39795
504.40 1.390632
504.50 1.38047
504.60 1.368225
504.70 1.354383
504.80 1.339584
504.90 1.324933
505.00 1.311628
505.10 1.300805
505.20 1.293562
505.30 1.290877
505.40 1.293246
505.50 1.300498
505.60 1.312291
505.70 1.328128
505.80 1.346577
505.90 1.365312
506.00 1.382037
506.10 1.39509
506.20 1.403479
506.30 1.407006
506.40 1.406694
506.50 1.40443
506.60 1.402189
506.70 1.401455
506.80 1.402946
506.90 1.406592
507.00 1.41159
507.10 1.416733
507.20 1.4211
507.30 1.4243
507.40 1.42636
507.50 1.427556
507.60 1.428199
507.70 1.428716
507.80 1.429182
507.90 1.429246
508.00 1.428698
508.10 1.427644
508.20 1.426255
508.30 1.424484
508.40 1.422327
508.50 1.42003
508.60 1.417912
508.70 1.416407
508.80 1.415826
508.90 1.416233
509.00 1.417499
509.10 1.419009
509.20 1.419976
509.30 1.419778
509.40 1.418032
509.50 1.414696
509.60 1.410217
509.70 1.405529
509.80 1.401564
509.90 1.399008
510.00 1.398306
510.10 1.399541
510.20 1.402464
510.30 1.406495
510.40 1.410835
510.50 1.414623
510.60 1.417159
510.70 1.417945
510.80 1.416611
510.90 1.412741
511.00 1.406007
511.10 1.396645
511.20 1.385429
511.30 1.373507
511.40 1.362174
511.50 1.352412
511.60 1.344596
511.70 1.338565
511.80 1.333643
511.90 1.32888
512.00 1.323071
512.10 1.314959
512.20 1.303986
512.30 1.290613
512.40 1.2758
512.50 1.260452
512.60 1.245224
512.70 1.230424
512.80 1.216257
512.90 1.202926
513.00 1.190543
513.10 1.179023
513.20 1.16817
513.30 1.157847
513.40 1.148282
513.50 1.140125
513.60 1.133739
513.70 1.129106
513.80 1.125956
513.90 1.123862
514.00 1.122355
514.10 1.120779
514.20 1.118834
514.30 1.117149
514.40 1.116792
514.50 1.118622
514.60 1.123243
514.70 1.130996
514.80 1.141514
514.90 1.153733
515.00 1.166123
515.10 1.176878
515.20 1.184332
515.30 1.186975
515.40 1.183738
515.50 1.174532
515.60 1.159764
515.70 1.139891
515.80 1.115866
515.90 1.089315
516.00 1.062097
516.10 1.035893
516.20 1.012091
516.30 0.991407
516.40 0.9735477
516.50 0.9574857
516.60 0.9422722
516.70 0.927727
516.80 0.914388
516.90 0.9032004
517.00 0.8951944
517.10 0.8910807
517.20 0.8912643
517.30 0.8959854
517.40 0.9048876
517.50 0.9169617
517.60 0.9309442
517.70 0.9453806
517.80 0.9593017
517.90 0.9724566
518.00 0.9848327
518.10 0.9965497
518.20 1.008023
518.30 1.01996
518.40 1.033007
518.50 1.047415
518.60 1.06276
518.70 1.077908
518.80 1.091676
518.90 1.103059
519.00 1.111133
519.10 1.115448
519.20 1.11594
519.30 1.113048
519.40 1.107792
519.50 1.101233
519.60 1.094052
519.70 1.086612
519.80 1.079344
519.90 1.073001
520.00 1.068289
520.10 1.065767
520.20 1.065894
520.30 1.068819
520.40 1.074211
520.50 1.081357
520.60 1.089493
520.70 1.097914
520.80 1.106172
520.90 1.11451
521.00 1.123825
521.10 1.134972
521.20 1.148106
521.30 1.162653
521.40 1.1779
521.50 1.193155
521.60 1.20746
521.70 1.219854
521.80 1.230013
521.90 1.238466
522.00 1.246365
522.10 1.254847
522.20 1.264575
522.30 1.275622
522.40 1.287524
522.50 1.299614
522.60 1.311569
522.70 1.323523
522.80 1.33578
522.90 1.348663
523.00 1.362413
523.10 1.377138
523.20 1.392379
523.30 1.407112
523.40 1.420135
523.50 1.430584
523.60 1.438471
523.70 1.444369
523.80 1.449225
523.90 1.454311
524.00 1.460643
524.10 1.468532
524.20 1.477421
524.30 1.486049
524.40 1.493261
524.50 1.498377
524.60 1.501252
524.70 1.502407
524.80 1.502924
524.90 1.504153
525.00 1.507175
525.10 1.512647
525.20 1.520791
525.30 1.531411
525.40 1.544099
525.50 1.558424
525.60 1.574162
525.70 1.591266
525.80 1.60966
525.90 1.629209
526.00 1.649975
526.10 1.67212
526.20 1.695499
526.30 1.719638
526.40 1.743953
526.50 1.767902
526.60 1.791062
526.70 1.81287
526.80 1.832564
526.90 1.849308
527.00 1.862159
527.10 1.870551
527.20 1.874451
527.30 1.874016
527.40 1.869704
527.50 1.862379
527.60 1.853122
527.70 1.842859
527.80 1.831973
527.90 1.820282
528.00 1.807143
528.10 1.791876
528.20 1.774132
528.30 1.753997
528.40 1.732148
528.50 1.709585
528.60 1.687369
528.70 1.666662
528.80 1.64847
528.90 1.633291
529.00 1.621277
529.10 1.612485
529.20 1.606965
529.30 1.604492
529.40 1.604497
529.50 1.606273
529.60 1.609081
529.70 1.612281
529.80 1.615327
529.90 1.61784
530.00 1.619873
530.10 1.621654
530.20 1.623413
530.30 1.625502
530.40 1.628496
530.50 1.633155
530.60 1.640063
530.70 1.649596
530.80 1.66171
530.90 1.67562
531.00 1.689931
531.10 1.70308
531.20 1.71385
531.30 1.721414
531.40 1.725224
531.50 1.725487
531.60 1.72311
531.70 1.719223
531.80 1.714668
531.90 1.7097
532.00 1.704317
532.10 1.69859
532.20 1.692631
532.30 1.686705
532.40 1.68129
532.50 1.676791
532.60 1.673329
532.70 1.670828
532.80 1.668969
532.90 1.667146
533.00 1.664958
533.10 1.662333
533.20 1.659583
533.30 1.657286
533.40 1.655985
533.50 1.656089
533.60 1.657789
533.70 1.661091
533.80 1.665871
533.90 1.671708
534.00 1.678004
534.10 1.684492
534.20 1.691272
534.30 1.698419
534.40 1.705545
534.50 1.712184
534.60 1.718138
534.70 1.72335
534.80 1.727898
534.90 1.731802
535.00 1.735182
535.10 1.738251
535.20 1.741133
535.30 1.744066
535.40 1.747206
535.50 1.750159
535.60 1.752141
535.70 1.752513
535.80 1.751108
535.90 1.748171
536.00 1.743987
536.10 1.738683
536.20 1.732366
536.30 1.725408
536.40 1.718623
536.50 1.712876
536.60 1.708572
536.70 1.705691
536.80 1.70402
536.90 1.703302
537.00 1.703452
537.10 1.704425
537.20 1.706073
537.30 1.708248
537.40 1.711006
537.50 1.714805
537.60 1.720353
537.70 1.728251
537.80 1.738549
537.90 1.750715
538.00 1.763901
538.10 1.777205
538.20 1.790047
538.30 1.802189
538.40 1.813563
538.50 1.824553
538.60 1.835846
538.70 1.84797
538.80 1.861226
538.90 1.875569
539.00 1.890617
539.10 1.906027
539.20 1.921828
539.30 1.938475
539.40 1.95665
539.50 1.976852
539.60 1.999055
539.70 2.022675
539.80 2.046795
539.90 2.07027
540.00 2.091994
540.10 2.111232
540.20 2.127512
540.30 2.140919
540.40 2.152061
540.50 2.161362
540.60 2.168915
540.70 2.174893
540.80 2.179817
540.90 2.184384
541.00 2.189496
541.10 2.196215
541.20 2.205439
541.30 2.217606
541.40 2.232482
541.50 2.249082
541.60 2.266106
541.70 2.282167
541.80 2.295954
541.90 2.306917
542.00 2.31532
542.10 2.322003
542.20 2.32837
542.30 2.335817
542.40 2.345125
542.50 2.356422
542.60 2.369175
542.70 2.382284
542.80 2.394495
542.90 2.404579
543.00 2.411357
543.10 2.414215
543.20 2.413672
543.30 2.411217
543.40 2.40862
543.50 2.407285
543.60 2.407852
543.70 2.410251
543.80 2.413815
543.90 2.417491
544.00 2.420186
544.10 2.420956
544.20 2.419155
544.30 2.414784
544.40 2.408584
544.50 2.4016
544.60 2.394773
544.70 2.388757
544.80 2.383867
544.90 2.379942
545.00 2.376468
545.10 2.372973
545.20 2.369131
545.30 2.364654
545.40 2.359417
545.50 2.353709
545.60 2.34809
545.70 2.342864
545.80 2.337863
545.90 2.332667
546.00 2.326793
546.10 2.319812
546.20 2.311504
546.30 2.301942
546.40 2.291268
546.50 2.279591
546.60 2.267038
546.70 2.253754
546.80 2.239909
546.90 2.225576
547.00 2.210822
547.10 2.195956
547.20 2.181524
547.30 2.168047
547.40 2.155603
547.50 2.143759
547.60 2.131959
547.70 2.119742
547.80 2.106914
547.90 2.093769
548.00 2.081138
548.10 2.069735
548.20 2.059605
548.30 2.050191
548.40 2.04035
548.50 2.028606
548.60 2.013825
548.70 1.995807
548.80 1.975167
548.90 1.952978
549.00 1.931598
549.10 1.912758
549.20 1.897478
549.30 1.885754
549.40 1.87673
549.50 1.86914
549.60 1.861586
549.70 1.853044
549.80 1.843354
549.90 1.83312
550.00 1.519143
550.10 1.484584
550.20 1.455134
550.30 1.428672
550.40 1.402179
550.50 1.37301
550.60 1.3401
550.70 1.303378
550.80 1.26339
550.90 1.221659
551.00 1.180561
551.10 1.142114
551.20 1.107468
551.30 1.076452
551.40 1.047467
551.50 1.018469
551.60 0.9877035
551.70 0.9546048
551.80 0.919874
551.90 0.8849809
552.00 0.8545196
552.10 0.8319274
552.20 0.819763
552.30 0.818836
552.40 0.8282596
552.50 0.8458289
552.60 0.8681015
552.70 0.8921905
552.80 0.9171617
552.90 0.9433862
553.00 0.9712579
553.10 1.001178
553.20 1.033799
553.30 1.069071
553.40 1.106161
553.50 1.144265
553.60 1.182471
553.70 1.219489
553.80 1.25382
553.90 1.284769
554.00 1.31269
554.10 1.337712
554.20 1.358862
554.30 1.374962
554.40 1.386524
554.50 1.39526
554.60 1.402687
554.70 1.409966
554.80 1.418066
554.90 1.427116
555.00 1.43636
555.10 1.447738
555.20 1.465012
555.30 1.49045
555.40 1.524237
555.50 1.565969
555.60 1.616989
555.70 1.678669
555.80 1.750748
555.90 1.831675
556.00 1.915987
556.10 1.998525
556.20 2.07475
556.30 2.141863
556.40 2.198539
556.50 2.242417
556.60 2.271854
556.70 2.287931
556.80 2.293824
556.90 2.292681
557.00 2.285762
557.10 2.273415
557.20 2.256301
557.30 2.236609
557.40 2.217711
557.50 2.202725
557.60 2.194229
557.70 2.19444
557.80 2.204567
557.90 2.223646
558.00 2.248636
558.10 2.275978
558.20 2.302623
558.30 2.326617
558.40 2.346617
558.50 2.361938
558.60 2.372875
558.70 2.380368
558.80 2.385974
558.90 2.391843
559.00 2.400553
559.10 2.411627
559.20 2.422197
559.30 2.430527
559.40 2.436227
559.50 2.437554
559.60 2.429641
559.70 2.407049
559.80 2.366237
559.90 2.306766
560.00 2.231946
560.10 2.148114
560.20 2.062153
560.30 1.979741
560.40 1.904315
560.50 1.83964
560.60 1.789509
560.70 1.754905
560.80 1.733441
560.90 1.72142
561.00 1.71687
561.10 1.718838
561.20 1.725716
561.30 1.735155
561.40 1.744185
561.50 1.74949
561.60 1.748685
561.70 1.741044
561.80 1.727903
561.90 1.712274
562.00 1.697426
562.10 1.685814
562.20 1.67882
562.30 1.677146
562.40 1.680852
562.50 1.688719
562.60 1.698974
562.70 1.710365
562.80 1.722182
562.90 1.734349
563.00 1.746763
563.10 1.759225
563.20 1.771424
563.30 1.782428
563.40 1.791303
563.50 1.798401
563.60 1.805375
563.70 1.814231
563.80 1.826576
563.90 1.843433
564.00 1.864794
564.10 1.888778
564.20 1.912565
564.30 1.933636
564.40 1.951079
564.50 1.965215
564.60 1.976089
564.70 1.983798
564.80 1.988801
564.90 1.991682
565.00 1.992966
565.10 1.993109
565.20 1.992635
565.30 1.99136
565.40 1.988688
565.50 1.984443
565.60 1.978509
565.70 1.971365
565.80 1.964261
565.90 1.958623
566.00 1.956595
566.10 1.960316
566.20 1.971254
566.30 1.989397
566.40 2.012725
566.50 2.038143
566.60 2.062231
566.70 2.082289
566.80 2.096331
566.90 2.103655
567.00 2.105564
567.10 2.103811
567.20 2.10022
567.30 2.097255
567.40 2.09708
567.50 2.100885
567.60 2.108597
567.70 2.119661
567.80 2.133523
567.90 2.149541
568.00 2.16723
568.10 2.186249
568.20 2.206987
568.30 2.229975
568.40 2.254859
568.50 2.281141
568.60 2.308698
568.70 2.337231
568.80 2.365614
568.90 2.392513
569.00 2.416823
569.10 2.437267
569.20 2.452862
569.30 2.463749
569.40 2.470944
569.50 2.476011
569.60 2.480837
569.70 2.486311
569.80 2.491778
569.90 2.495552
570.00 2.494491
570.10 2.485433
570.20 2.467101
570.30 2.439731
570.40 2.405458
570.50 2.368574
570.60 2.33375
570.70 2.304061
570.80 2.28126
570.90 2.265623
571.00 2.255639
571.10 2.249553
571.20 2.245669
571.30 2.241951
571.40 2.236718
571.50 2.228967
571.60 2.218456
571.70 2.205648
571.80 2.191379
571.90 2.175917
572.00 2.158813
572.10 2.139778
572.20 2.118209
572.30 2.093306
572.40 2.064467
572.50 2.030921
572.60 1.992046
572.70 1.947894
572.80 1.900045
572.90 1.851129
573.00 1.803963
573.10 1.761284
573.20 1.725179
573.30 1.696673
573.40 1.675818
573.50 1.661942
573.60 1.653622
573.70 1.64895
573.80 1.646209
573.90 1.644427
574.00 1.643841
574.10 1.645279
574.20 1.648908
574.30 1.655226
574.40 1.664544
574.50 1.676309
574.60 1.689529
574.70 1.703132
574.80 1.716536
574.90 1.728966
575.00 1.739449
575.10 1.747799
575.20 1.754248
575.30 1.759041
575.40 1.762995
575.50 1.767447
575.60 1.773223
575.70 1.779012
575.80 1.782655
575.90 1.78271
576.00 1.778379
576.10 1.769258
576.20 1.75499
576.30 1.736419
576.40 1.716304
576.50 1.697963
576.60 1.684523
576.70 1.678617
576.80 1.681311
576.90 1.691775
577.00 1.708043
577.10 1.727666
577.20 1.747228
577.30 1.762904
577.40 1.772195
577.50 1.774388
577.60 1.770434
577.70 1.762371
577.80 1.751686
577.90 1.739313
578.00 1.726274
578.10 1.713854
578.20 1.703336
578.30 1.694534
578.40 1.686111
578.50 1.6771
578.60 1.668227
578.70 1.661171
578.80 1.656225
578.90 1.653117
579.00 1.651864
579.10 1.65198
579.20 1.653436
579.30 1.65714
579.40 1.664072
579.50 1.674296
579.60 1.686183
579.70 1.6977
579.80 1.706959
579.90 1.711987
580.00 1.711052
580.10 1.703637
580.20 1.691465
580.30 1.67734
580.40 1.66366
580.50 1.652408
580.60 1.645093
580.70 1.642553
580.80 1.644599
580.90 1.649747
581.00 1.6559
581.10 1.661577
581.20 1.666851
581.30 1.6725
581.40 1.678558
581.50 1.684394
581.60 1.689614
581.70 1.694723
581.80 1.701773
581.90 1.713615
582.00 1.732049
582.10 1.756068
582.20 1.782329
582.30 1.807217
582.40 1.828354
582.50 1.844184
582.60 1.852865
582.70 1.853077
582.80 1.845235
582.90 1.830653
583.00 1.810214
583.10 1.783925
583.20 1.751034
583.30 1.710865
583.40 1.663296
583.50 1.609866
583.60 1.555041
583.70 1.505044
583.80 1.464901
583.90 1.437079
584.00 1.422101
584.10 1.419279
584.20 1.426165
584.30 1.438114
584.40 1.449388
584.50 1.455057
584.60 1.452276
584.70 1.440043
584.80 1.41935
584.90 1.393226
585.00 1.364454
585.10 1.334318
585.20 1.304024
585.30 1.275226
585.40 1.248613
585.50 1.222697
585.60 1.194257
585.70 1.159563
585.80 1.119524
585.90 1.073173
586.00 1.018058
586.10 0.9547691
586.20 0.8866851
586.30 0.818422
586.40 0.7540628
586.50 0.696099
586.60 0.6513603
586.70 0.6290083
586.80 0.6282646
586.90 0.6461986
587.00 0.6791018
587.10 0.7239601
587.20 0.7782333
587.30 0.8395805
587.40 0.9066805
587.50 0.9781734
587.60 1.051138
587.70 1.121616
587.80 1.185547
587.90 1.239378
588.00 1.280704
588.10 1.308823
588.20 1.324995
588.30 1.332173
588.40 1.334235
588.50 1.334627
588.60 1.335258
588.70 1.335938
588.80 1.334251
588.90 1.327656
589.00 1.316031
589.10 1.301419
589.20 1.286826
589.30 1.27527
589.40 1.269906
589.50 1.273907
589.60 1.289352
589.70 1.316625
589.80 1.349941
589.90 1.384901
590.00 1.419951
590.10 1.453726
590.20 1.485233
590.30 1.513822
590.40 1.539739
590.50 1.564037
590.60 1.580372
590.70 1.577423
590.80 1.553543
590.90 1.510395
591.00 1.452757
591.10 1.386897
591.20 1.319004
591.30 1.253323
591.40 1.190503
591.50 1.128637
591.60 1.065568
591.70 0.9995445
591.80 0.9302552
591.90 0.8602023
592.00 0.7984829
592.10 0.7488321
592.20 0.710389
592.30 0.6821578
592.40 0.6681198
592.50 0.6660869
592.60 0.6727747
592.70 0.6854642
592.80 0.7031018
592.90 0.7251639
593.00 0.7502881
593.10 0.7769974
593.20 0.8035107
593.30 0.8276871
593.40 0.8479035
593.50 0.8636885
593.60 0.8760583
593.70 0.8869062
593.80 0.8980103
593.90 0.9102811
594.00 0.9243297
594.10 0.9412381
594.20 0.9628172
594.30 0.9912213
594.40 1.027544
594.50 1.070702
594.60 1.118495
594.70 1.168482
594.80 1.218074
594.90 1.264476
595.00 1.303884
595.10 1.332529
595.20 1.349082
595.30 1.355876
595.40 1.357821
595.50 1.36002
595.60 1.365524
595.70 1.375211
595.80 1.388498
595.90 1.40367
596.00 1.414533
596.10 1.420842
596.20 1.426054
596.30 1.432464
596.40 1.436189
596.50 1.438864
596.60 1.442161
596.70 1.446614
596.80 1.451961
596.90 1.457735
597.00 1.464236
597.10 1.47216
597.20 1.482391
597.30 1.495614
597.40 1.510976
597.50 1.526067
597.60 1.53803
597.70 1.544863
597.80 1.546327
597.90 1.543293
598.00 1.536704
598.10 1.527364
598.20 1.51517
598.30 1.499095
598.40 1.477981
598.50 1.451964
598.60 1.423463
598.70 1.396582
598.80 1.375776
598.90 1.364745
599.00 1.365724
599.10 1.378991
599.20 1.402747
599.30 1.43368
599.40 1.468507
599.50 1.504916
599.60 1.541732
599.70 1.578737
599.80 1.616582
599.90 1.656198
600.00 1.700358
600.10 1.653756
600.20 1.635701
600.30 1.636677
600.40 1.645045
600.50 1.657573
600.60 1.668668
600.70 1.68257
600.80 1.726834
600.90 1.823919
601.00 1.952599
601.10 2.072496
601.20 2.176422
601.30 2.283318
601.40 2.409929
601.50 2.536566
601.60 2.609301
601.70 2.586219
601.80 2.469553
601.90 2.288222
602.00 2.063567
602.10 1.815634
602.20 1.58937
602.30 1.424435
602.40 1.344517
602.50 1.364213
602.60 1.471714
602.70 1.654571
602.80 1.89175
602.90 2.137889
603.00 2.366808
603.10 2.558624
603.20 2.670427
603.30 2.667546
603.40 2.561305
603.50 2.415468
603.60 2.288661
603.70 2.219516
603.80 2.248424
603.90 2.394466
604.00 2.636232
604.10 2.902704
604.20 3.121557
604.30 3.257636
604.40 3.283703
604.50 3.200183
604.60 3.051147
604.70 2.885926
604.80 2.733914
604.90 2.597084
605.00 2.481238
605.10 2.404812
605.20 2.375707
605.30 2.393688
605.40 2.437693
605.50 2.478422
605.60 2.486988
605.70 2.441171
605.80 2.34619
605.90 2.21494
606.00 2.048497
606.10 1.856849
606.20 1.674612
606.30 1.554659
606.40 1.55208
606.50 1.710635
606.60 2.02959
606.70 2.452964
606.80 2.909355
606.90 3.309015
607.00 3.554661
607.10 3.592235
607.20 3.434944
607.30 3.137845
607.40 2.767123
607.50 2.376565
607.60 2.014957
607.70 1.726479
607.80 1.51985
607.90 1.376955
608.00 1.278686
608.10 1.195398
608.20 1.11535
608.30 1.073028
608.40 1.103302
608.50 1.209637
608.60 1.358475
608.70 1.496363
608.80 1.597683
608.90 1.67354
609.00 1.740429
609.10 1.825477
609.20 1.963386
609.30 2.154513
609.40 2.371345
609.50 2.609782
609.60 2.870354
609.70 3.131171
609.80 3.361109
609.90 3.531605
610.00 3.63092
610.10 3.677291
610.20 3.688295
610.30 3.674924
610.40 3.640589
610.50 3.540846
610.60 3.347405
610.70 3.098833
610.80 2.859056
610.90 2.672381
611.00 2.549842
611.10 2.486346
611.20 2.48177
611.30 2.544913
611.40 2.675393
611.50 2.842996
611.60 3.001036
611.70 3.105305
611.80 3.127018
611.90 3.089324
612.00 3.024786
612.10 2.934389
612.20 2.814717
612.30 2.664881
612.40 2.481113
612.50 2.277628
612.60 2.083786
612.70 1.917257
612.80 1.786796
612.90 1.713344
613.00 1.718838
613.10 1.80206
613.20 1.955841
613.30 2.146454
613.40 2.329564
613.50 2.496103
613.60 2.65884
613.70 2.821351
613.80 2.992931
613.90 3.188695
614.00 3.419725
614.10 3.681432
614.20 3.933186
614.30 4.100146
614.40 4.124765
614.50 4.005104
614.60 3.761664
614.70 3.45253
614.80 3.144328
614.90 2.875743
615.00 2.671676
615.10 2.575677
615.20 2.619054
615.30 2.762888
615.40 2.934403
615.50 3.077452
615.60 3.181273
615.70 3.275384
615.80 3.393663
615.90 3.548597
616.00 3.73583
616.10 3.935863
616.20 4.105696
616.30 4.194601
616.40 4.167053
616.50 4.001941
616.60 3.706005
616.70 3.327072
616.80 2.91972
616.90 2.533781
617.00 2.206134
617.10 1.953762
617.20 1.775235
617.30 1.649054
617.40 1.562204
617.50 1.506891
617.60 1.489004
617.70 1.5375
617.80 1.664304
617.90 1.848073
618.00 2.064684
618.10 2.304126
618.20 2.535181
618.30 2.70882
618.40 2.801587
618.50 2.814653
618.60 2.76376
618.70 2.684844
618.80 2.629836
618.90 2.640131
619.00 2.728506
619.10 2.867709
619.20 3.019707
619.30 3.162815
619.40 3.244449
619.50 3.218031
619.60 3.112368
619.70 2.992119
619.80 2.888469
619.90 2.808509
620.00 2.774256
620.10 2.806274
620.20 2.894483
620.30 3.007531
620.40 3.121304
620.50 3.216351
620.60 3.265144
620.70 3.248317
620.80 3.191838
620.90 3.117102
621.00 3.008619
621.10 2.853358
621.20 2.668962
621.30 2.4977
621.40 2.354653
621.50 2.220404
621.60 2.092263
621.70 1.994914
621.80 1.930547
621.90 1.877848
622.00 1.841518
622.10 1.833833
622.20 1.845915
622.30 1.875644
622.40 1.936934
622.50 2.04743
622.60 2.213138
622.70 2.419694
622.80 2.64752
622.90 2.892277
623.00 3.136472
623.10 3.351332
623.20 3.520839
623.30 3.640449
623.40 3.691229
623.50 3.656597
623.60 3.562299
623.70 3.443696
623.80 3.313318
623.90 3.175849
624.00 3.048244
624.10 2.949226
624.20 2.894397
624.30 2.887392
624.40 2.919845
624.50 2.972178
624.60 3.028677
624.70 3.084788
624.80 3.134156
624.90 3.170571
625.00 3.188054
625.10 3.203524
625.20 3.267093
625.30 3.392796
625.40 3.544758
625.50 3.700807
625.60 3.846823
625.70 3.955699
625.80 4.001264
625.90 3.982235
626.00 3.915011
626.10 3.809206
626.20 3.669616
626.30 3.479538
626.40 3.232648
626.50 2.953251
626.60 2.668781
626.70 2.422073
626.80 2.259876
626.90 2.204882
627.00 2.268499
627.10 2.452506
627.20 2.726341
627.30 3.041146
627.40 3.342974
627.50 3.575933
627.60 3.700499
627.70 3.722063
627.80 3.661154
627.90 3.533041
628.00 3.365909
628.10 3.210149
628.20 3.124603
628.30 3.14436
628.40 3.257122
628.50 3.424802
628.60 3.614965
628.70 3.769377
628.80 3.832175
628.90 3.79875
629.00 3.703171
629.10 3.591074
629.20 3.509419
629.30 3.498772
629.40 3.576987
629.50 3.714916
629.60 3.871378
629.70 4.038604
629.80 4.208005
629.90 4.356707
630.00 4.458416
630.10 4.509413
630.20 4.521848
630.30 4.505094
630.40 4.475306
630.50 4.455588
630.60 4.456111
630.70 4.46394
630.80 4.455014
630.90 4.429115
631.00 4.403506
631.10 4.364559
631.20 4.322208
631.30 4.301898
631.40 4.32227
631.50 4.400495
631.60 4.528161
631.70 4.675035
631.80 4.79665
631.90 4.855221
632.00 4.842329
632.10 4.773457
632.20 4.677743
632.30 4.600669
632.40 4.578899
632.50 4.614758
632.60 4.664731
632.70 4.688339
632.80 4.65731
632.90 4.551941
633.00 4.390124
633.10 4.21518
633.20 4.074135
633.30 4.005915
633.40 4.032559
633.50 4.143772
633.60 4.310145
633.70 4.51278
633.80 4.734324
633.90 4.971958
634.00 5.235416
634.10 5.5103
634.20 5.772042
634.30 5.994258
634.40 6.147442
634.50 6.220484
634.60 6.230011
634.70 6.19284
634.80 6.121038
634.90 6.036468
635.00 5.976387
635.10 5.954941
635.20 5.964406
635.30 5.977355
635.40 5.958637
635.50 5.899611
635.60 5.785186
635.70 5.61679
635.80 5.454377
635.90 5.352062
636.00 5.33674
636.10 5.431388
636.20 5.626153
636.30 5.891855
636.40 6.172584
636.50 6.405234
636.60 6.534222
636.70 6.530472
636.80 6.405826
636.90 6.196371
637.00 5.978826
637.10 5.814811
637.20 5.697609
637.30 5.610081
637.40 5.541247
637.50 5.485512
637.60 5.450471
637.70 5.422606
637.80 5.381578
637.90 5.311978
638.00 5.222321
638.10 5.145002
638.20 5.107097
638.30 5.111153
638.40 5.147781
638.50 5.20395
638.60 5.258815
638.70 5.296161
638.80 5.308928
638.90 5.289858
639.00 5.24255
639.10 5.199648
639.20 5.197985
639.30 5.25574
639.40 5.354426
639.50 5.45659
639.60 5.53586
639.70 5.591475
639.80 5.630998
639.90 5.662739
640.00 5.690018
640.10 5.713956
640.20 5.748145
640.30 5.791809
640.40 5.827958
640.50 5.842494
640.60 5.821521
640.70 5.757021
640.80 5.670311
640.90 5.589245
641.00 5.529754
641.10 5.491162
641.20 5.455005
641.30 5.413449
641.40 5.377176
641.50 5.352489
641.60 5.331451
641.70 5.313605
641.80 5.320748
641.90 5.370942
642.00 5.471934
642.10 5.621185
642.20 5.796494
642.30 5.965769
642.40 6.094061
642.50 6.166448
642.60 6.193401
642.70 6.190499
642.80 6.177202
642.90 6.174853
643.00 6.194309
643.10 6.23298
643.20 6.267018
643.30 6.276802
643.40 6.266326
643.50 6.246667
643.60 6.21704
643.70 6.164257
643.80 6.081155
643.90 5.974807
644.00 5.874967
644.10 5.815727
644.20 5.81467
644.30 5.871637
644.40 5.974078
644.50 6.106743
644.60 6.253562
644.70 6.39109
644.80 6.487345
644.90 6.517012
645.00 6.474086
645.10 6.370212
645.20 6.230991
645.30 6.084238
645.40 5.934
645.50 5.779394
645.60 5.63843
645.70 5.535244
645.80 5.491347
645.90 5.516925
646.00 5.613264
646.10 5.753634
646.20 5.89398
646.30 5.997979
646.40 6.040668
646.50 6.032386
646.60 6.004749
646.70 5.974288
646.80 5.952688
646.90 5.951888
647.00 5.967089
647.10 5.986205
647.20 5.99588
647.30 5.989176
647.40 5.967551
647.50 5.942059
647.60 5.925081
647.70 5.923468
647.80 5.945887
647.90 5.988186
648.00 6.035602
648.10 6.084408
648.20 6.141511
648.30 6.207512
648.40 6.278123
648.50 6.349644
648.60 6.416389
648.70 6.46701
648.80 6.48037
648.90 6.434748
649.00 6.334565
649.10 6.21745
649.20 6.136864
649.30 6.136252
649.40 6.238413
649.50 6.432318
649.60 6.672492
649.70 6.90088
649.80 7.06217
649.90 7.128392
650.00 7.124334
650.10 7.089007
650.20 7.051462
650.30 7.056648
650.40 7.151594
650.50 7.358723
650.60 7.655293
650.70 7.980918
650.80 8.263733
650.90 8.465396
651.00 8.563908
651.10 8.542111
651.20 8.426538
651.30 8.263477
651.40 8.079464
651.50 7.912908
651.60 7.817275
651.70 7.817305
651.80 7.886456
651.90 7.967333
652.00 8.02472
652.10 8.057544
652.20 8.082821
652.30 8.110184
652.40 8.147966
652.50 8.211295
652.60 8.310171
652.70 8.45479
652.80 8.648704
652.90 8.880534
653.00 9.116394
653.10 9.33199
653.20 9.527949
653.30 9.70121
653.40 9.844184
653.50 9.956685
653.60 10.04817
653.70 10.11986
653.80 10.1794
653.90 10.25267
654.00 10.34949
654.10 10.45289
654.20 10.54057
654.30 10.57708
654.40 10.5413
654.50 10.44522
654.60 10.30712
654.70 10.14925
654.80 10.00569
654.90 9.911912
655.00 9.893614
655.10 9.96087
655.20 10.09279
655.30 10.2433
655.40 10.38445
655.50 10.49789
655.60 10.5609
655.70 10.59515
655.80 10.66099
655.90 10.81516
656.00 11.08719
656.10 11.46461
656.20 11.89334
656.30 12.29676
656.40 12.59359
656.50 12.73536
656.60 12.73186
656.70 12.61582
656.80 12.40251
656.90 12.11062
657.00 11.77793
657.10 11.43461
657.20 11.11372
657.30 10.8464
657.40 10.653
657.50 10.55983
657.60 10.57626
657.70 10.66642
657.80 10.78402
657.90 10.89755
658.00 10.97549
658.10 10.99851
658.20 10.96838
658.30 10.90854
658.40 10.85872
658.50 10.85407
658.60 10.89328
658.70 10.93118
658.80 10.92696
658.90 10.85526
659.00 10.70939
659.10 10.53484
659.20 10.37495
659.30 10.2359
659.40 10.12393
659.50 10.05312
659.60 10.03956
659.70 10.08539
659.80 10.1712
659.90 10.26929
660.00 10.36069
660.10 10.44513
660.20 10.5209
660.30 10.58503
660.40 10.64947
660.50 10.71533
660.60 10.77869
660.70 10.8477
660.80 10.92699
660.90 11.00634
661.00 11.06124
661.10 11.07438
661.20 11.03536
661.30 10.94081
661.40 10.81198
661.50 10.68636
661.60 10.60906
661.70 10.61227
661.80 10.68028
661.90 10.76839
662.00 10.83555
662.10 10.84145
662.20 10.76029
662.30 10.60125
662.40 10.40171
662.50 10.20909
662.60 10.08422
662.70 10.08097
662.80 10.19809
662.90 10.39393
663.00 10.61772
663.10 10.81415
663.20 10.94301
663.30 10.99595
663.40 11.00161
663.50 11.00562
663.60 11.03748
663.70 11.10983
663.80 11.23042
663.90 11.38395
664.00 11.53604
664.10 11.65987
664.20 11.74272
664.30 11.7882
664.40 11.81142
664.50 11.831
664.60 11.85875
664.70 11.89228
664.80 11.91153
664.90 11.90493
665.00 11.87572
665.10 11.82972
665.20 11.78167
665.30 11.7571
665.40 11.76717
665.50 11.80871
665.60 11.88085
665.70 11.95864
665.80 11.99777
665.90 11.96955
666.00 11.86684
666.10 11.69861
666.20 11.48945
666.30 11.27128
666.40 11.08979
666.50 10.98997
666.60 10.9938
666.70 11.10724
666.80 11.31992
666.90 11.59532
667.00 11.88123
667.10 12.13886
667.20 12.34815
667.30 12.50773
667.40 12.63329
667.50 12.73039
667.60 12.78912
667.70 12.79682
667.80 12.74541
667.90 12.63381
668.00 12.47177
668.10 12.28655
668.20 12.1233
668.30 12.02897
668.40 12.03247
668.50 12.12876
668.60 12.27399
668.70 12.40579
668.80 12.45476
668.90 12.37617
669.00 12.17573
669.10 11.89918
669.20 11.60821
669.30 11.37556
669.40 11.26602
669.50 11.30185
669.60 11.47584
669.70 11.75612
669.80 12.07994
669.90 12.38261
670.00 12.61207
670.10 12.72109
670.20 12.69635
670.30 12.56104
670.40 12.34521
670.50 12.08187
670.60 11.80456
670.70 11.54109
670.80 11.32076
670.90 11.17845
671.00 11.12925
671.10 11.16376
671.20 11.27578
671.30 11.46893
671.40 11.73954
671.50 12.07238
671.60 12.43855
671.70 12.79918
671.80 13.12021
671.90 13.36929
672.00 13.52973
672.10 13.60898
672.20 13.62214
672.30 13.58602
672.40 13.5217
672.50 13.46206
672.60 13.43938
672.70 13.44808
672.80 13.4702
672.90 13.49802
673.00 13.51179
673.10 13.49472
673.20 13.44928
673.30 13.40559
673.40 13.39292
673.50 13.40636
673.60 13.43208
673.70 13.45938
673.80 13.48614
673.90 13.51521
674.00 13.54125
674.10 13.57286
674.20 13.62006
674.30 13.6753
674.40 13.73103
674.50 13.78254
674.60 13.82208
674.70 13.83838
674.80 13.82696
674.90 13.79701
675.00 13.76313
675.10 13.75415
675.20 13.78813
675.30 13.85054
675.40 13.9201
675.50 13.96801
675.60 13.96329
675.70 13.89855
675.80 13.80149
675.90 13.70232
676.00 13.61719
676.10 13.54527
676.20 13.48738
676.30 13.4657
676.40 13.50459
676.50 13.59814
676.60 13.71624
676.70 13.8327
676.80 13.92863
676.90 14.01045
677.00 14.09288
677.10 14.16182
677.20 14.18508
677.30 14.16257
677.40 14.1303
677.50 14.12339
677.60 14.14718
677.70 14.18081
677.80 14.19449
677.90 14.17293
678.00 14.12555
678.10 14.07304
678.20 14.02083
678.30 13.93321
678.40 13.78492
678.50 13.60349
678.60 13.43418
678.70 13.30534
678.80 13.21438
678.90 13.15545
679.00 13.13505
679.10 13.15115
679.20 13.19321
679.30 13.25482
679.40 13.32884
679.50 13.39907
679.60 13.45639
679.70 13.50647
679.80 13.54708
679.90 13.56187
680.00 13.53818
680.10 13.47472
680.20 13.38646
680.30 13.29473
680.40 13.22551
680.50 13.19908
680.60 13.22078
680.70 13.26815
680.80 13.2907
680.90 13.25388
681.00 13.15566
681.10 13.02398
681.20 12.8999
681.30 12.80742
681.40 12.7479
681.50 12.71672
681.60 12.70268
681.70 12.68976
681.80 12.65813
681.90 12.59778
682.00 12.51775
682.10 12.45016
682.20 12.44509
682.30 12.53256
682.40 12.7048
682.50 12.90364
682.60 13.05203
682.70 13.12591
682.80 13.14744
682.90 13.12527
683.00 13.05398
683.10 12.9355
683.20 12.79001
683.30 12.65244
683.40 12.53921
683.50 12.42799
683.60 12.30252
683.70 12.17355
683.80 12.06522
683.90 12.03202
684.00 12.12799
684.10 12.34815
684.20 12.63532
684.30 12.92448
684.40 13.15845
684.50 13.30411
684.60 13.34919
684.70 13.2825
684.80 13.1104
684.90 12.8787
685.00 12.63427
685.10 12.41265
685.20 12.25783
685.30 12.18509
685.40 12.17028
685.50 12.18438
685.60 12.20809
685.70 12.23596
685.80 12.28891
685.90 12.39408
686.00 12.55677
686.10 12.75038
686.20 12.92885
686.30 13.05594
686.40 13.12401
686.50 13.13685
686.60 13.08058
686.70 12.95755
686.80 12.80365
686.90 12.65192
687.00 12.53391
687.10 12.4748
687.20 12.47418
687.30 12.50352
687.40 12.51726
687.50 12.49897
687.60 12.47091
687.70 12.44572
687.80 12.40448
687.90 12.31362
688.00 12.16418
688.10 11.98891
688.20 11.83842
688.30 11.76849
688.40 11.82384
688.50 12.0107
688.60 12.28162
688.70 12.55929
688.80 12.77562
688.90 12.881
689.00 12.86363
689.10 12.73663
689.20 12.51306
689.30 12.23172
689.40 11.94248
689.50 11.68185
689.60 11.48116
689.70 11.34258
689.80 11.23161
689.90 11.11411
690.00 10.98726
690.10 10.87066
690.20 10.78239
690.30 10.73523
690.40 10.73011
690.50 10.77301
690.60 10.87251
690.70 11.03934
690.80 11.30366
690.90 11.66791
691.00 12.08112
691.10 12.47498
691.20 12.78146
691.30 12.94113
691.40 12.92015
691.50 12.71115
691.60 12.35358
691.70 11.94547
691.80 11.57565
691.90 11.28003
692.00 11.0932
692.10 11.04238
692.20 11.09899
692.30 11.21451
692.40 11.36505
692.50 11.54754
692.60 11.76652
692.70 12.0251
692.80 12.32377
692.90 12.65529
693.00 12.99626
693.10 13.29529
693.20 13.50031
693.30 13.60287
693.40 13.61059
693.50 13.52373
693.60 13.36974
693.70 13.19443
693.80 13.02688
693.90 12.89374
694.00 12.83087
694.10 12.86904
694.20 13.03213
694.30 13.33352
694.40 13.78159
694.50 14.35899
694.60 14.98446
694.70 15.55384
694.80 15.9885
694.90 16.22739
695.00 16.22518
695.10 15.9818
695.20 15.56306
695.30 15.06441
695.40 14.56703
695.50 14.14972
695.60 13.86807
695.70 13.73493
695.80 13.70928
695.90 13.71758
696.00 13.72455
696.10 13.72496
696.20 13.70829
696.30 13.68463
696.40 13.68112
696.50 13.71824
696.60 13.79543
696.70 13.90022
696.80 14.02694
696.90 14.14466
697.00 14.21243
697.10 14.2069
697.20 14.12828
697.30 14.02317
697.40 13.95508
697.50 13.96584
697.60 14.07914
697.70 14.27427
697.80 14.50794
697.90 14.72925
698.00 14.87958
698.10 14.93015
698.20 14.88936
698.30 14.80241
698.40 14.72762
698.50 14.71374
698.60 14.77799
698.70 14.88799
698.80 14.99761
698.90 15.0734
699.00 15.09536
699.10 15.06765
699.20 15.00976
699.30 14.95044
699.40 14.91281
699.50 14.89351
699.60 14.88509
699.70 14.87797
699.80 14.85679
699.90 14.81956
700.00 14.78832
700.10 14.79992
700.20 14.88815
700.30 15.06443
700.40 15.30676
700.50 15.59414
700.60 15.89817
700.70 16.16776
700.80 16.37674
700.90 16.53642
701.00 16.64955
701.10 16.71588
701.20 16.74692
701.30 16.75242
701.40 16.74895
701.50 16.74573
701.60 16.74184
701.70 16.74012
701.80 16.75393
701.90 16.79098
702.00 16.84826
702.10 16.92439
702.20 17.0149
702.30 17.09842
702.40 17.15708
702.50 17.18533
702.60 17.1988
702.70 17.23239
702.80 17.29961
702.90 17.41643
703.00 17.60531
703.10 17.86817
703.20 18.18891
703.30 18.54096
703.40 18.89003
703.50 19.21887
703.60 19.54313
703.70 19.8781
703.80 20.21234
703.90 20.53964
704.00 20.84821
704.10 21.10664
704.20 21.30266
704.30 21.43263
704.40 21.48273
704.50 21.44673
704.60 21.34246
704.70 21.20264
704.80 21.06895
704.90 20.96633
705.00 20.87645
705.10 20.76722
705.20 20.63267
705.30 20.46828
705.40 20.2453
705.50 19.94954
705.60 19.60287
705.70 19.24446
705.80 18.92237
705.90 18.68304
706.00 18.55898
706.10 18.56616
706.20 18.69143
706.30 18.89296
706.40 19.11952
706.50 19.32913
706.60 19.49673
706.70 19.61463
706.80 19.70733
706.90 19.80388
707.00 19.90213
707.10 19.98231
707.20 20.03703
707.30 20.09094
707.40 20.17835
707.50 20.31167
707.60 20.48443
707.70 20.68334
707.80 20.89408
707.90 21.09672
708.00 21.25272
708.10 21.32452
708.20 21.29306
708.30 21.15759
708.40 20.93861
708.50 20.66602
708.60 20.37685
708.70 20.09705
708.80 19.8261
708.90 19.55611
709.00 19.29048
709.10 19.05768
709.20 18.89055
709.30 18.80544
709.40 18.80753
709.50 18.89189
709.60 19.03002
709.70 19.18526
709.80 19.33584
709.90 19.47999
710.00 19.6114
710.10 19.71103
710.20 19.78488
710.30 19.85513
710.40 19.93606
710.50 20.02427
710.60 20.10526
710.70 20.17032
710.80 20.22024
710.90 20.26028
711.00 20.30904
711.10 20.3847
711.20 20.48122
711.30 20.58721
711.40 20.6935
711.50 20.78196
711.60 20.82668
711.70 20.80974
711.80 20.72918
711.90 20.607
712.00 20.47054
712.10 20.33995
712.20 20.23133
712.30 20.1476
712.40 20.07702
712.50 20.00636
712.60 19.93598
712.70 19.87459
712.80 19.82317
712.90 19.77538
713.00 19.73527
713.10 19.70759
713.20 19.67766
713.30 19.63099
713.40 19.58632
713.50 19.57703
713.60 19.6246
713.70 19.73341
713.80 19.90611
713.90 20.14116
714.00 20.41949
714.10 20.70109
714.20 20.9441
714.30 21.14092
714.40 21.2856
714.50 21.38065
714.60 21.46828
714.70 21.5888
714.80 21.75446
714.90 21.94928
715.00 22.13688
715.10 22.28445
715.20 22.36635
715.30 22.37873
715.40 22.33599
715.50 22.26656
715.60 22.21372
715.70 22.2015
715.80 22.24428
715.90 22.34617
716.00 22.48729
716.10 22.6372
716.20 22.77563
716.30 22.91249
716.40 23.0711
716.50 23.26165
716.60 23.4739
716.70 23.65904
716.80 23.75935
716.90 23.74313
717.00 23.59742
717.10 23.34957
717.20 23.0594
717.30 22.78697
717.40 22.58374
717.50 22.48502
717.60 22.49508
717.70 22.59333
717.80 22.74917
717.90 22.91896
718.00 23.06214
718.10 23.17867
718.20 23.28152
718.30 23.37211
718.40 23.46483
718.50 23.57588
718.60 23.71481
718.70 23.88677
718.80 24.08319
718.90 24.28353
719.00 24.46438
719.10 24.59719
719.20 24.67028
719.30 24.69697
719.40 24.69019
719.50 24.65552
719.60 24.60354
719.70 24.55318
719.80 24.53009
719.90 24.55601
720.00 24.64503
720.10 24.80304
720.20 25.00615
720.30 25.20545
720.40 25.35551
720.50 25.42261
720.60 25.38498
720.70 25.25199
720.80 25.06355
720.90 24.86072
721.00 24.68539
721.10 24.58162
721.20 24.57533
721.30 24.66878
721.40 24.83767
721.50 25.03864
721.60 25.2457
721.70 25.46096
721.80 25.6712
721.90 25.84699
722.00 25.97715
722.10 26.04997
722.20 26.05195
722.30 26.00282
722.40 25.94464
722.50 25.91142
722.60 25.91099
722.70 25.93258
722.80 25.97604
722.90 26.04779
723.00 26.13222
723.10 26.19738
723.20 26.24544
723.30 26.31237
723.40 26.44013
723.50 26.72696
723.60 27.25995
723.70 27.97295
723.80 28.7169
723.90 29.35329
724.00 29.79942
724.10 30.02779
724.20 30.00003
724.30 29.71199
724.40 29.24057
724.50 28.69386
724.60 28.18299
724.70 27.82828
724.80 27.72302
724.90 27.84551
725.00 28.11366
725.10 28.51208
725.20 29.02615
725.30 29.58175
725.40 30.06231
725.50 30.35468
725.60 30.40605
725.70 30.21865
725.80 29.85638
725.90 29.43897
726.00 29.06904
726.10 28.80087
726.20 28.65729
726.30 28.65054
726.40 28.77442
726.50 28.98245
726.60 29.2081
726.70 29.38518
726.80 29.45905
726.90 29.448
727.00 29.4931
727.10 29.79523
727.20 30.47421
727.30 31.46394
727.40 32.54087
727.50 33.4591
727.60 34.01921
727.70 34.08117
727.80 33.64212
727.90 32.83922
728.00 31.88457
728.10 31.01312
728.20 30.42497
728.30 30.20577
728.40 30.28066
728.50 30.43676
728.60 30.4399
728.70 30.18323
728.80 29.73121
728.90 29.21614
729.00 28.76936
729.10 28.5166
729.20 28.52644
729.30 28.78522
729.40 29.22779
729.50 29.76483
729.60 30.30505
729.70 30.78759
729.80 31.16017
729.90 31.39341
730.00 31.51213
730.10 31.573
730.20 31.63301
730.30 31.72158
730.40 31.84941
730.50 32.00972
730.60 32.1598
730.70 32.2723
730.80 32.33116
730.90 32.33877
731.00 32.35929
731.10 32.49102
731.20 32.81579
731.30 33.32847
731.40 33.94073
731.50 34.52922
731.60 34.98088
731.70 35.224
731.80 35.22644
731.90 35.01657
732.00 34.67563
732.10 34.29545
732.20 33.98558
732.30 33.85702
732.40 33.97321
732.50 34.28107
732.60 34.63634
732.70 34.92252
732.80 35.06244
732.90 35.01889
733.00 34.78996
733.10 34.40449
733.20 33.93867
733.30 33.49655
733.40 33.1915
733.50 33.14296
733.60 33.43222
733.70 34.04461
733.80 34.86358
733.90 35.70809
734.00 36.41825
734.10 36.88002
734.20 37.01035
734.30 36.77896
734.40 36.21903
734.50 35.44019
734.60 34.61383
734.70 33.90501
734.80 33.42439
734.90 33.19393
735.00 33.15973
735.10 33.24434
735.20 33.36596
735.30 33.47047
735.40 33.51511
735.50 33.46074
735.60 33.30972
735.70 33.09025
735.80 32.86786
735.90 32.70899
736.00 32.63689
736.10 32.65222
736.20 32.7599
736.30 32.98903
736.40 33.39848
736.50 34.01374
736.60 34.75421
736.70 35.45993
736.80 35.95865
736.90 36.13507
737.00 35.96689
737.10 35.5119
737.20 34.86496
737.30 34.15023
737.40 33.49953
737.50 33.02396
737.60 32.79724
737.70 32.81371
737.80 32.98084
737.90 33.17803
738.00 33.31819
738.10 33.37433
738.20 33.3783
738.30 33.37697
738.40 33.39861
738.50 33.45263
738.60 33.54948
738.70 33.70363
738.80 33.90398
738.90 34.12175
739.00 34.32911
739.10 34.4993
739.20 34.57402
739.30 34.50195
739.40 34.30674
739.50 34.07547
739.60 33.91909
739.70 33.90853
739.80 34.05897
739.90 34.34639
740.00 34.67968
740.10 34.92916
740.20 34.9984
740.30 34.83699
740.40 34.43555
740.50 33.82982
740.60 33.13412
740.70 32.49183
740.80 32.00952
740.90 31.73364
741.00 31.64148
741.10 31.69196
741.20 31.83426
741.30 32.01333
741.40 32.22081
741.50 32.45661
741.60 32.67625
741.70 32.82745
741.80 32.86615
741.90 32.76839
742.00 32.54394
742.10 32.23544
742.20 31.89716
742.30 31.58993
742.40 31.38124
742.50 31.31785
742.60 31.40544
742.70 31.6051
742.80 31.84181
742.90 32.02687
743.00 32.11198
743.10 32.0835
743.20 31.95872
743.30 31.79918
743.40 31.64782
743.50 31.51557
743.60 31.43611
743.70 31.42421
743.80 31.44214
743.90 31.43778
744.00 31.37523
744.10 31.25302
744.20 31.08415
744.30 30.9016
744.40 30.75014
744.50 30.66345
744.60 30.64776
744.70 30.66564
744.80 30.68833
744.90 30.72409
745.00 30.77337
745.10 30.83192
745.20 30.90098
745.30 30.96791
745.40 31.0214
745.50 31.06494
745.60 31.10391
745.70 31.13387
745.80 31.15147
745.90 31.16717
746.00 31.20241
746.10 31.28285
746.20 31.43647
746.30 31.65603
746.40 31.88809
746.50 32.07917
746.60 32.19642
746.70 32.23754
746.80 32.22052
746.90 32.15529
747.00 32.03587
747.10 31.84932
747.20 31.58865
747.30 31.28067
747.40 30.98319
747.50 30.75671
747.60 30.65064
747.70 30.68179
747.80 30.82909
747.90 31.06709
748.00 31.37039
748.10 31.67252
748.20 31.8779
748.30 31.9124
748.40 31.76552
748.50 31.50296
748.60 31.24216
748.70 31.07895
748.80 31.052
748.90 31.15387
749.00 31.3363
749.10 31.54839
749.20 31.74536
749.30 31.87185
749.40 31.88643
749.50 31.80555
749.60 31.69441
749.70 31.6221
749.80 31.61536
749.90 31.65446
750.00 31.69529
750.10 31.68267
750.20 31.59338
750.30 31.44621
750.40 31.27579
750.50 31.13021
750.60 31.06564
750.70 31.12085
750.80 31.29972
750.90 31.56771
751.00 31.85134
751.10 32.07022
751.20 32.19386
751.30 32.24021
751.40 32.2263
751.50 32.16778
751.60 32.08507
751.70 31.99409
751.80 31.93305
751.90 31.95582
752.00 32.08429
752.10 32.2863
752.20 32.51172
752.30 32.71691
752.40 32.86637
752.50 32.93895
752.60 32.92276
752.70 32.81169
752.80 32.62695
752.90 32.3987
753.00 32.14215
753.10 31.89217
753.20 31.66664
753.30 31.44063
753.40 31.19988
753.50 30.97477
753.60 30.81645
753.70 30.76673
753.80 30.84462
753.90 31.0436
754.00 31.32846
754.10 31.6337
754.20 31.88251
754.30 32.04055
754.40 32.11785
754.50 32.12604
754.60 32.0774
754.70 31.99198
754.80 31.90647
754.90 31.85652
755.00 31.84851
755.10 31.88349
755.20 31.97554
755.30 32.11821
755.40 32.28017
755.50 32.44601
755.60 32.61727
755.70 32.77604
755.80 32.88431
755.90 32.90683
756.00 32.82033
756.10 32.60828
756.20 32.27516
756.30 31.85801
756.40 31.4204
756.50 31.03594
756.60 30.78891
756.70 30.73814
756.80 30.8745
756.90 31.11976
757.00 31.36468
757.10 31.52709
757.20 31.55554
757.30 31.41422
757.40 31.11701
757.50 30.74975
757.60 30.41175
757.70 30.18569
757.80 30.13124
757.90 30.25346
758.00 30.49655
758.10 30.77502
758.20 30.99851
758.30 31.11876
758.40 31.09056
758.50 30.83778
758.60 30.32982
758.70 29.61171
758.80 28.76702
758.90 27.89146
759.00 27.07527
759.10 26.40169
759.20 25.94978
759.30 25.76365
759.40 25.81143
759.50 26.01639
759.60 26.3202
759.70 26.64667
759.80 26.94402
759.90 27.23519
760.00 27.51643
760.10 27.68692
760.20 27.64792
760.30 27.38204
760.40 26.90573
760.50 26.22841
760.60 25.37474
760.70 24.40835
760.80 23.46962
760.90 22.74617
761.00 22.37105
761.10 22.37582
761.20 22.69049
761.30 23.18794
761.40 23.73
761.50 24.21467
761.60 24.54989
761.70 24.62501
761.80 24.38532
761.90 23.87827
762.00 23.22315
762.10 22.55878
762.20 21.97884
762.30 21.52935
762.40 21.21974
762.50 21.03496
762.60 20.93435
762.70 20.80935
762.80 20.53719
762.90 20.0787
763.00 19.46527
763.10 18.76017
763.20 18.04869
763.30 17.39801
763.40 16.85866
763.50 16.45886
763.60 16.18761
763.70 16.00041
763.80 15.84317
763.90 15.65912
764.00 15.40314
764.10 15.05205
764.20 14.59999
764.30 14.04396
764.40 13.39173
764.50 12.65906
764.60 11.87137
764.70 11.09193
764.80 10.36257
764.90 9.702263
765.00 9.140383
765.10 8.680487
765.20 8.288986
765.30 7.931961
765.40 7.579675
765.50 7.205018
765.60 6.805936
765.70 6.407602
765.80 6.037386
765.90 5.708546
766.00 5.421925
766.10 5.158286
766.20 4.885899
766.30 4.59027
766.40 4.269303
766.50 3.937117
766.60 3.634886
766.70 3.410956
766.80 3.31118
766.90 3.37132
767.00 3.60009
767.10 3.971247
767.20 4.436095
767.30 4.956443
767.40 5.509006
767.50 6.073145
767.60 6.63061
767.70 7.15978
767.80 7.656452
767.90 8.128351
768.00 8.57799
768.10 8.995072
768.20 9.35113
768.30 9.618446
768.40 9.779648
768.50 9.819712
768.60 9.723629
768.70 9.480018
768.80 9.103246
768.90 8.637029
769.00 8.142013
769.10 7.691568
769.20 7.320763
769.30 7.004283
769.40 6.708309
769.50 6.402276
769.60 6.051333
769.70 5.64695
769.80 5.21295
769.90 4.794379
770.00 4.45411
770.10 4.257074
770.20 4.239752
770.30 4.40878
770.40 4.74642
770.50 5.205102
770.60 5.760822
770.70 6.452757
770.80 7.339119
770.90 8.41772
771.00 9.642609
771.10 10.95333
771.20 12.23531
771.30 13.31555
771.40 14.04929
771.50 14.42167
771.60 14.52212
771.70 14.46575
771.80 14.39602
771.90 14.46736
772.00 14.7659
772.10 15.27701
772.20 15.91337
772.30 16.61312
772.40 17.32283
772.50 17.93819
772.60 18.40179
772.70 18.76143
772.80 19.08738
772.90 19.4045
773.00 19.71916
773.10 20.04022
773.20 20.35036
773.30 20.62642
773.40 20.86765
773.50 21.09673
773.60 21.33401
773.70 21.56996
773.80 21.79912
773.90 22.04547
774.00 22.3293
774.10 22.64109
774.20 22.93786
774.30 23.17962
774.40 23.37633
774.50 23.61479
774.60 24.02703
774.70 24.6599
774.80 25.45367
774.90 26.2836
775.00 27.00762
775.10 27.52444
775.20 27.76506
775.30 27.73894
775.40 27.53556
775.50 27.27632
775.60 27.11014
775.70 27.14811
775.80 27.39757
775.90 27.74562
776.00 28.00329
776.10 28.03951
776.20 27.8439
776.30 27.48991
776.40 27.08646
776.50 26.74001
776.60 26.55387
776.70 26.58444
776.80 26.83019
776.90 27.25068
777.00 27.76651
777.10 28.291
777.20 28.73405
777.30 29.00782
777.40 29.08436
777.50 29.00267
777.60 28.82732
777.70 28.64689
777.80 28.54191
777.90 28.57214
778.00 28.77643
778.10 29.11911
778.20 29.48395
778.30 29.74432
778.40 29.82011
778.50 29.67156
778.60 29.32238
778.70 28.896
778.80 28.58089
778.90 28.5731
779.00 28.971
779.10 29.71938
779.20 30.65327
779.30 31.49829
779.40 31.92832
779.50 31.70448
779.60 30.7284
779.70 29.04393
779.80 26.84278
779.90 24.45934
780.00 22.32501
780.10 20.85603
780.20 20.32192
780.30 20.79973
780.40 22.19314
780.50 24.21716
780.60 26.49098
780.70 28.6743
780.80 30.49519
780.90 31.76493
781.00 32.43897
781.10 32.60955
781.20 32.45441
781.30 32.1905
781.40 32.00216
781.50 32.02597
781.60 32.37959
781.70 33.06793
781.80 33.97101
781.90 34.93143
782.00 35.74929
782.10 36.25305
782.20 36.35475
782.30 36.06873
782.40 35.50458
782.50 34.82329
782.60 34.1838
782.70 33.70364
782.80 33.45898
782.90 33.45335
783.00 33.57917
783.10 33.70855
783.20 33.76429
783.30 33.724
783.40 33.6376
783.50 33.58865
783.60 33.65582
783.70 33.86023
783.80 34.17047
783.90 34.5644
784.00 35.03074
784.10 35.53695
784.20 36.04906
784.30 36.56063
784.40 37.06064
784.50 37.51488
784.60 37.87996
784.70 38.17918
784.80 38.52842
784.90 39.00042
785.00 39.57847
785.10 40.20757
785.20 40.81545
785.30 41.31906
785.40 41.64618
785.50 41.77575
785.60 41.72129
785.70 41.50887
785.80 41.18495
785.90 40.80319
786.00 40.44691
786.10 40.16562
786.20 39.89803
786.30 39.57446
786.40 39.23685
786.50 39.00897
786.60 38.97712
786.70 39.13147
786.80 39.37752
786.90 39.567
787.00 39.54133
787.10 39.20024
787.20 38.54678
787.30 37.71408
787.40 36.8932
787.50 36.27018
787.60 36.0253
787.70 36.30182
787.80 37.10518
787.90 38.24957
788.00 39.48811
788.10 40.62206
788.20 41.50228
788.30 42.05095
788.40 42.31567
788.50 42.3898
788.60 42.34375
788.70 42.23675
788.80 42.10762
788.90 41.98607
789.00 41.90554
789.10 41.85102
789.20 41.76455
789.30 41.65376
789.40 41.55977
789.50 41.47369
789.60 41.38206
789.70 41.2744
789.80 41.11077
789.90 40.86238
790.00 40.56929
790.10 40.32659
790.20 40.21302
790.30 40.26451
790.40 40.44701
790.50 40.67463
790.60 40.8441
790.70 40.92625
790.80 41.06187
790.90 41.45963
791.00 42.23683
791.10 43.35666
791.20 44.61711
791.30 45.78921
791.40 46.69897
791.50 47.19861
791.60 47.24238
791.70 46.87795
791.80 46.23639
791.90 45.55466
792.00 45.09731
792.10 44.95621
792.20 44.95765
792.30 44.81978
792.40 44.36807
792.50 43.62997
792.60 42.79704
792.70 42.09536
792.80 41.71669
792.90 41.7717
793.00 42.27509
793.10 43.1574
793.20 44.24565
793.30 45.27896
793.40 46.01578
793.50 46.32338
793.60 46.17871
793.70 45.68926
793.80 45.01835
793.90 44.29424
794.00 43.57814
794.10 42.85373
794.20 42.01862
794.30 40.92624
794.40 39.45944
794.50 37.64734
794.60 35.66807
794.70 33.78096
794.80 32.28023
794.90 31.44127
795.00 31.45588
795.10 32.34263
795.20 33.95866
795.30 36.0344
795.40 38.26294
795.50 40.34374
795.60 42.03481
795.70 43.23096
795.80 43.95614
795.90 44.34678
796.00 44.60448
796.10 44.94119
796.20 45.4882
796.30 46.26615
796.40 47.19862
796.50 48.11735
796.60 48.82732
796.70 49.19292
796.80 49.17341
796.90 48.82832
797.00 48.27698
797.10 47.64759
797.20 47.06576
797.30 46.61415
797.40 46.36334
797.50 46.35317
797.60 46.57228
797.70 46.95664
797.80 47.4101
797.90 47.8527
798.00 48.19545
798.10 48.34199
798.20 48.19463
798.30 47.69885
798.40 46.89299
798.50 45.91039
798.60 44.94587
798.70 44.18109
798.80 43.71435
798.90 43.57498
799.00 43.79982
799.10 44.42518
799.20 45.38524
799.30 46.49535
799.40 47.55322
799.50 48.40234
799.60 48.96963
799.70 49.25268
799.80 49.28957
799.90 49.15815
800.00 48.93713
800.10 48.7053
800.20 48.54164
800.30 48.47836
800.40 48.46521
800.50 48.41919
800.60 48.30767
800.70 48.17506
800.80 48.13111
800.90 48.3282
801.00 48.86128
801.10 49.70298
801.20 50.72758
801.30 51.75801
801.40 52.6304
801.50 53.20302
801.60 53.39317
801.70 53.21074
801.80 52.75679
801.90 52.18922
802.00 51.69319
802.10 51.47173
802.20 51.65074
802.30 52.21605
802.40 53.05218
802.50 54.01211
802.60 54.97574
802.70 55.85199
802.80 56.55889
802.90 57.02473
803.00 57.20565
803.10 57.11919
803.20 56.81816
803.30 56.36828
803.40 55.84756
803.50 55.31884
803.60 54.82708
803.70 54.40295
803.80 54.08804
803.90 53.92302
804.00 53.91421
804.10 54.04332
804.20 54.29099
804.30 54.64337
804.40 55.05695
804.50 55.49446
804.60 55.96638
804.70 56.49639
804.80 57.1146
804.90 57.83748
805.00 58.66335
805.10 59.55503
805.20 60.43079
805.30 61.21731
805.40 61.85893
805.50 62.33179
805.60 62.66218
805.70 62.9379
805.80 63.2603
805.90 63.65156
806.00 64.04371
806.10 64.32549
806.20 64.39819
806.30 64.22143
806.40 63.79302
806.50 63.15578
806.60 62.42017
806.70 61.73503
806.80 61.25637
806.90 61.10652
807.00 61.34071
807.10 61.90234
807.20 62.67223
807.30 63.53803
807.40 64.41942
807.50 65.26324
807.60 66.01022
807.70 66.59725
807.80 66.99662
807.90 67.26756
808.00 67.52365
808.10 67.84835
808.20 68.26865
808.30 68.74312
808.40 69.17011
808.50 69.44847
808.60 69.53943
808.70 69.47705
808.80 69.32972
808.90 69.20292
809.00 69.20552
809.10 69.39714
809.20 69.77822
809.30 70.24622
809.40 70.63323
809.50 70.79919
809.60 70.67779
809.70 70.29009
809.80 69.73152
809.90 69.14322
810.00 68.65054
810.10 68.31594
810.20 68.11568
810.30 67.98754
810.40 67.89554
810.50 67.83513
810.60 67.82028
810.70 67.88736
810.80 68.09609
810.90 68.4877
811.00 69.03952
811.10 69.67463
811.20 70.28276
811.30 70.75615
811.40 71.05036
811.50 71.19584
811.60 71.30595
811.70 71.48289
811.80 71.75157
811.90 72.11107
812.00 72.55156
812.10 73.05314
812.20 73.58304
812.30 74.11389
812.40 74.65001
812.50 75.2136
812.60 75.8344
812.70 76.52778
812.80 77.24965
812.90 77.91994
813.00 78.45787
813.10 78.80548
813.20 78.96006
813.30 78.98353
813.40 78.97917
813.50 79.05023
813.60 79.25167
813.70 79.56239
813.80 79.88608
813.90 80.09425
814.00 80.05224
814.10 79.68165
814.20 79.00742
814.30 78.10915
814.40 77.08775
814.50 76.10826
814.60 75.34867
814.70 74.89645
814.80 74.77717
814.90 74.97484
815.00 75.41418
815.10 75.97895
815.20 76.56438
815.30 77.08657
815.40 77.53844
815.50 77.959
815.60 78.34848
815.70 78.72565
815.80 79.14787
815.90 79.63829
816.00 80.20971
816.10 80.89479
816.20 81.67827
816.30 82.47987
816.40 83.20663
816.50 83.81737
816.60 84.31914
816.70 84.73867
816.80 85.07893
816.90 85.32877
817.00 85.51202
817.10 85.6502
817.20 85.75522
817.30 85.84029
817.40 85.88956
817.50 85.82523
817.60 85.5216
817.70 84.84815
817.80 83.68287
817.90 81.92805
818.00 79.57474
818.10 76.76515
818.20 73.78268
818.30 71.02119
818.40 68.92168
818.50 67.85547
818.60 67.97953
818.70 69.15169
818.80 70.95012
818.90 72.79557
819.00 74.08106
819.10 74.3213
819.20 73.30795
819.30 71.18443
819.40 68.41154
819.50 65.6413
819.60 63.54315
819.70 62.60644
819.80 63.03308
819.90 64.71493
820.00 67.31205
820.10 70.38986
820.20 73.51188
820.30 76.31896
820.40 78.61069
820.50 80.35208
820.60 81.62912
820.70 82.5472
820.80 83.18548
820.90 83.61044
821.00 83.85632
821.10 83.9409
821.20 83.86501
821.30 83.67557
821.40 83.44926
821.50 83.22088
821.60 83.02955
821.70 82.92756
821.80 82.96457
821.90 83.17376
822.00 83.54279
822.10 84.06017
822.20 84.7197
822.30 85.4651
822.40 86.22436
822.50 86.94995
822.60 87.6342
822.70 88.23375
822.80 88.68636
822.90 88.99347
823.00 89.19347
823.10 89.30899
823.20 89.33634
823.30 89.3009
823.40 89.28418
823.50 89.3316
823.60 89.43188
823.70 89.63265
823.80 90.00227
823.90 90.5365
824.00 91.16426
824.10 91.82389
824.20 92.50405
824.30 93.19037
824.40 93.8635
824.50 94.54148
824.60 95.25
824.70 95.92986
824.80 96.44814
824.90 96.72894
825.00 96.76173
825.10 96.51667
825.20 95.96642
825.30 95.1427
825.40 94.17616
825.50 93.25558
825.60 92.53623
825.70 92.13299
825.80 92.08168
825.90 92.33087
826.00 92.78966
826.10 93.37074
826.20 94.00263
826.30 94.59837
826.40 95.08299
826.50 95.40617
826.60 95.57688
826.70 95.66497
826.80 95.71442
826.90 95.74159
827.00 95.74738
827.10 95.7254
827.20 95.67759
827.30 95.60952
827.40 95.54377
827.50 95.55002
827.60 95.70438
827.70 96.08045
827.80 96.7138
827.90 97.51083
828.00 98.27285
828.10 98.77178
828.20 98.86756
828.30 98.57152
828.40 97.99876
828.50 97.27448
828.60 96.42022
828.70 95.4103
828.80 94.28034
828.90 93.08019
829.00 91.86824
829.10 90.7007
829.20 89.62913
829.30 88.80086
829.40 88.42133
829.50 88.65404
829.60 89.51607
829.70 90.79657
829.80 92.1349
829.90 93.15088
830.00 93.66202
830.10 93.66581
830.20 93.18601
830.30 92.28581
830.40 91.09066
830.50 89.8069
830.60 88.6812
830.70 87.88954
830.80 87.50773
830.90 87.51321
831.00 87.81096
831.10 88.28977
831.20 88.85469
831.30 89.44725
831.40 89.99598
831.50 90.44102
831.60 90.78902
831.70 91.09252
831.80 91.42017
831.90 91.8137
832.00 92.27433
832.10 92.78996
832.20 93.30472
832.30 93.72148
832.40 93.94087
832.50 93.89448
832.60 93.57111
832.70 93.06509
832.80 92.53575
832.90 92.11151
833.00 91.86848
833.10 91.83713
833.20 92.01809
833.30 92.37528
833.40 92.85299
833.50 93.38788
833.60 93.90728
833.70 94.37647
833.80 94.88268
833.90 95.59109
834.00 96.63891
834.10 98.00121
834.20 99.58069
834.30 101.2662
834.40 102.8801
834.50 104.2355
834.60 105.0762
834.70 105.1971
834.80 104.5947
834.90 103.4352
835.00 102.0379
835.10 100.7866
835.20 99.93777
835.30 99.54852
835.40 99.50786
835.50 99.67129
835.60 99.87604
835.70 99.9282
835.80 99.69376
835.90 99.14932
836.00 98.47863
836.10 97.92782
836.20 97.63567
836.30 97.6769
836.40 98.05636
836.50 98.70404
836.60 99.49408
836.70 100.2617
836.80 100.872
836.90 101.2159
837.00 101.1769
837.10 100.712
837.20 99.87363
837.30 98.78426
837.40 97.6169
837.50 96.59141
837.60 95.96443
837.70 95.98558
837.80 96.75011
837.90 98.12664
838.00 99.83444
838.10 101.541
838.20 102.9207
838.30 103.6705
838.40 103.597
838.50 102.6915
838.60 101.1333
838.70 99.20178
838.80 97.20055
838.90 95.39742
839.00 93.99125
839.10 93.07242
839.20 92.65164
839.30 92.74674
839.40 93.43615
839.50 94.79137
839.60 96.81309
839.70 99.43788
839.80 102.3903
839.90 105.2202
840.00 107.5014
840.10 108.9248
840.20 109.3843
840.30 108.9739
840.40 107.9218
840.50 106.5085
840.60 105.0615
840.70 103.8749
840.80 103.0552
840.90 102.5877
841.00 102.4037
841.10 102.4033
841.20 102.621
841.30 103.1264
841.40 103.8811
841.50 104.7848
841.60 105.6728
841.70 106.3701
841.80 106.7061
841.90 106.5701
842.00 105.9842
842.10 105.0986
842.20 104.1392
842.30 103.3407
842.40 102.8811
842.50 102.8984
842.60 103.4918
842.70 104.7208
842.80 106.534
842.90 108.6686
843.00 110.7199
843.10 112.1898
843.20 112.6335
843.30 111.8238
843.40 109.7696
843.50 106.7364
843.60 103.1458
843.70 99.48683
843.80 96.24667
843.90 93.72346
844.00 91.9422
844.10 90.70791
844.20 89.77226
844.30 88.95795
844.40 88.1493
844.50 87.36151
844.60 86.72602
844.70 86.39312
844.80 86.44133
844.90 86.80004
845.00 87.34847
845.10 87.91145
845.20 88.28071
845.30 88.32657
845.40 88.00694
845.50 87.36881
845.60 86.53296
845.70 85.66682
845.80 84.95494
845.90 84.54154
846.00 84.53289
846.10 84.95303
846.20 85.66472
846.30 86.4284
846.40 87.04345
846.50 87.41156
846.60 87.49203
846.70 87.2652
846.80 86.73493
846.90 85.95782
847.00 85.01133
847.10 84.00748
847.20 83.07366
847.30 82.32374
847.40 81.80311
847.50 81.48173
847.60 81.37602
847.70 81.51399
847.80 81.83279
847.90 82.19224
848.00 82.44075
848.10 82.48432
848.20 82.38463
848.30 82.27859
848.40 82.24924
848.50 82.3171
848.60 82.49217
848.70 82.82224
848.80 83.37831
848.90 84.1744
849.00 85.12965
849.10 86.16222
849.20 87.19048
849.30 88.0835
849.40 88.69334
849.50 88.89891
849.60 88.58968
849.70 87.74441
849.80 86.53243
849.90 85.31368
850.00 84.50889
850.10 84.4097
850.20 85.082
850.30 86.3629
850.40 87.96964
850.50 89.57831
850.60 90.84952
850.70 91.5003
850.80 91.38632
850.90 90.547
851.00 89.1927
851.10 87.59321
851.20 85.98554
851.30 84.50289
851.40 83.16496
851.50 81.87934
851.60 80.46239
851.70 78.76111
851.80 76.70152
851.90 74.28475
852.00 71.69514
852.10 69.34754
852.20 67.72934
852.30 67.21839
852.40 67.96734
852.50 69.92462
852.60 72.871
852.70 76.39515
852.80 79.96013
852.90 83.09889
853.00 85.53796
853.10 87.21489
853.20 88.26106
853.30 88.92341
853.40 89.41148
853.50 89.80945
853.60 90.14777
853.70 90.45356
853.80 90.75464
853.90 91.06407
854.00 91.32514
854.10 91.4713
854.20 91.52598
854.30 91.57324
854.40 91.71862
854.50 92.04742
854.60 92.6208
854.70 93.44699
854.80 94.44641
854.90 95.47893
855.00 96.38187
855.10 97.02891
855.20 97.34826
855.30 97.34226
855.40 97.10856
855.50 96.76824
855.60 96.37065
855.70 95.89305
855.80 95.2979
855.90 94.59631
856.00 93.79456
856.10 92.90273
856.20 92.04406
856.30 91.42597
856.40 91.22096
856.50 91.48141
856.60 92.13801
856.70 93.01338
856.80 93.90101
856.90 94.62821
857.00 95.08472
857.10 95.23191
857.20 95.07772
857.30 94.67264
857.40 94.12932
857.50 93.59467
857.60 93.1686
857.70 92.89515
857.80 92.83505
857.90 93.06869
858.00 93.61295
858.10 94.42133
858.20 95.39765
858.30 96.41641
858.40 97.3838
858.50 98.24559
858.60 98.9534
858.70 99.43822
858.80 99.64241
858.90 99.53682
859.00 99.1135
859.10 98.45056
859.20 97.69494
859.30 96.99741
859.40 96.5223
859.50 96.39788
859.60 96.6436
859.70 97.17319
859.80 97.82076
859.90 98.38781
860.00 98.73514
860.10 98.8125
860.20 98.64093
860.30 98.30722
860.40 97.90751
860.50 97.46771
860.60 96.92065
860.70 96.13701
860.80 94.98392
860.90 93.38118
861.00 91.33979
861.10 88.91851
861.20 86.17413
861.30 83.19393
861.40 80.12489
861.50 77.17466
861.60 74.52674
861.70 72.3008
861.80 70.60528
861.90 69.50884
862.00 68.97357
862.10 68.86913
862.20 69.0135
862.30 69.21286
862.40 69.30572
862.50 69.23553
862.60 69.04657
862.70 68.80846
862.80 68.54153
862.90 68.20504
863.00 67.78444
863.10 67.33113
863.20 66.92781
863.30 66.62911
863.40 66.46026
863.50 66.44941
863.60 66.62108
863.70 66.96562
863.80 67.4187
863.90 67.90605
864.00 68.40673
864.10 68.91514
864.20 69.41152
864.30 69.8758
864.40 70.2651
864.50 70.58447
864.60 70.8956
864.70 71.25189
864.80 71.71891
864.90 72.36113
865.00 73.25333
865.10 74.44278
865.20 75.92225
865.30 77.63755
865.40 79.44406
865.50 81.15663
865.60 82.63701
865.70 83.82787
865.80 84.72251
865.90 85.24781
866.00 85.32361
866.10 84.99493
866.20 84.40623
866.30 83.71862
866.40 83.03213
866.50 82.43106
866.60 82.00384
866.70 81.75447
866.80 81.59301
866.90 81.44835
867.00 81.31639
867.10 81.1733
867.20 81.00643
867.30 80.89229
867.40 80.94363
867.50 81.23295
867.60 81.74969
867.70 82.42532
867.80 83.11529
867.90 83.57415
868.00 83.56914
868.10 83.02139
868.20 82.0361
868.30 80.83711
868.40 79.67493
868.50 78.76598
868.60 78.24636
868.70 78.10261
868.80 78.12235
868.90 77.99177
869.00 77.40613
869.10 76.10272
869.20 73.98573
869.30 71.22233
869.40 68.14694
869.50 65.1643
869.60 62.67204
869.70 60.90344
869.80 59.90477
869.90 59.63791
870.00 59.99939
870.10 60.81565
870.20 61.92147
870.30 63.1426
870.40 64.31056
870.50 65.32276
870.60 66.10071
870.70 66.55021
870.80 66.56678
870.90 66.08494
871.00 65.14034
871.10 63.90855
871.20 62.64191
871.30 61.55436
871.40 60.77098
871.50 60.34539
871.60 60.24941
871.70 60.37725
871.80 60.57846
871.90 60.72943
872.00 60.78991
872.10 60.79639
872.20 60.89017
872.30 61.23505
872.40 61.954
872.50 63.08791
872.60 64.55702
872.70 66.17038
872.80 67.66884
872.90 68.85138
873.00 69.61554
873.10 69.94296
873.20 69.85178
873.30 69.39468
873.40 68.70688
873.50 67.97774
873.60 67.38983
873.70 67.08231
873.80 67.11599
873.90 67.5215
874.00 68.30949
874.10 69.48227
874.20 71.01421
874.30 72.71846
874.40 74.29217
874.50 75.45152
874.60 76.02342
874.70 76.00183
874.80 75.52216
874.90 74.82873
875.00 74.21526
875.10 73.93124
875.20 74.11227
875.30 74.78559
875.40 75.93077
875.50 77.50292
875.60 79.47168
875.70 81.80008
875.80 84.34292
875.90 86.90164
876.00 89.23499
876.10 91.01275
876.20 91.9084
876.30 91.79771
876.40 90.80826
876.50 89.29171
876.60 87.78142
876.70 86.76271
876.80 86.53195
876.90 87.14916
877.00 88.49772
877.10 90.30683
877.20 92.26511
877.30 94.10502
877.40 95.69162
877.50 97.03046
877.60 98.02642
877.70 98.49202
877.80 98.32407
877.90 97.48917
878.00 95.98966
878.10 93.95435
878.20 91.65932
878.30 89.45389
878.40 87.54598
878.50 86.058
878.60 85.14001
878.70 84.87055
878.80 85.22603
878.90 86.09492
879.00 87.37991
879.10 88.95802
879.20 90.61796
879.30 92.14524
879.40 93.37244
879.50 94.1853
879.60 94.47575
879.70 94.12123
879.80 93.06776
879.90 91.37929
880.00 89.19706
880.10 86.74312
880.20 84.23034
880.30 81.81923
880.40 79.72252
880.50 78.18029
880.60 77.40861
880.70 77.58007
880.80 78.73547
880.90 80.76134
881.00 83.47763
881.10 86.73712
881.20 90.40908
881.30 94.31111
881.40 98.19526
881.50 101.7596
881.60 104.7201
881.70 106.891
881.80 108.1321
881.90 108.3202
882.00 107.3694
882.10 105.3511
882.20 102.6751
882.30 100.1181
882.40 98.4941
882.50 98.40244
882.60 100.1519
882.70 103.499
882.80 107.6973
882.90 111.7636
883.00 114.7544
883.10 116.0159
883.20 115.4941
883.30 113.8588
883.40 112.0635
883.50 110.8637
883.60 110.6842
883.70 111.5372
883.80 113.0813
883.90 114.6561
884.00 115.4372
884.10 114.8885
884.20 112.8208
884.30 109.3427
884.40 104.9109
884.50 100.2417
884.60 96.04162
884.70 92.77828
884.80 90.83954
884.90 90.627
885.00 92.28026
885.10 95.45285
885.20 99.43743
885.30 103.3954
885.40 106.5127
885.50 108.1925
885.60 108.2279
885.70 106.8204
885.80 104.393
885.90 101.4457
886.00 98.52176
886.10 96.10921
886.20 94.53195
886.30 93.89804
886.40 94.10714
886.50 94.95678
886.60 96.17199
886.70 97.3514
886.80 97.9968
886.90 97.67909
887.00 96.20378
887.10 93.68602
887.20 90.5845
887.30 87.61581
887.40 85.52045
887.50 84.82802
887.60 85.76223
887.70 88.15566
887.80 91.46926
887.90 95.01465
888.00 98.13857
888.10 100.443
888.20 101.9133
888.30 102.8813
888.40 103.969
888.50 105.732
888.60 108.3523
888.70 111.5925
888.80 114.8537
888.90 117.4034
889.00 118.5907
889.10 117.9901
889.20 115.5078
889.30 111.3945
889.40 106.244
889.50 100.8985
889.60 96.2717
889.70 93.07985
889.80 91.69759
889.90 92.26371
890.00 94.67526
890.10 98.56837
890.20 103.3953
890.30 108.4623
890.40 112.9309
890.50 116.0217
890.60 117.2734
890.70 116.5569
890.80 114.0894
890.90 110.4419
891.00 106.4544
891.10 103.0342
891.20 100.7625
891.30 99.81275
891.40 100.2211
891.50 101.9873
891.60 104.9341
891.70 108.7161
891.80 112.9458
891.90 117.1842
892.00 120.8819
892.10 123.4631
892.20 124.5027
892.30 123.8451
892.40 121.5623
892.50 117.9411
892.60 113.6524
892.70 109.6599
892.80 106.8193
892.90 105.5962
893.00 106.0978
893.10 108.0759
893.20 110.9324
893.30 113.8517
893.40 116.0365
893.50 116.9473
893.60 116.3467
893.70 114.2494
893.80 110.9666
893.90 107.0446
894.00 103.049
894.10 99.47987
894.20 96.7272
894.30 95.05983
894.40 94.60342
894.50 95.22292
894.60 96.57175
894.70 98.244
894.80 99.82698
894.90 100.9958
895.00 101.5769
895.10 101.6634
895.20 101.6102
895.30 102.0149
895.40 103.5789
895.50 106.6161
895.60 110.8816
895.70 115.76
895.80 120.4546
895.90 124.177
896.00 126.2832
896.10 126.3964
896.20 124.5267
896.30 121.0647
896.40 116.6736
896.50 112.135
896.60 108.2529
896.70 105.5763
896.80 104.214
896.90 104.0857
897.00 105.0643
897.10 106.8973
897.20 109.2017
897.30 111.5923
897.40 113.7626
897.50 115.5044
897.60 116.7551
897.70 117.5636
897.80 118.0506
897.90 118.3988
898.00 118.7141
898.10 119.069
898.20 119.7106
898.30 120.9934
898.40 123.1031
898.50 125.9214
898.60 129.1018
898.70 132.1623
898.80 134.5886
898.90 136.0027
899.00 136.1969
899.10 135.1201
899.20 132.917
899.30 129.8199
899.40 126.196
899.50 122.5631
899.60 119.3145
899.70 116.7481
899.80 115.2991
899.90 115.4976
900.00 116.3537
900.10 117.2098
900.20 118.066
900.30 118.9221
900.40 119.7783
900.50 120.6344
900.60 121.4906
900.70 122.3467
900.80 123.2029
900.90 124.059
901.00 124.9151
901.10 125.7713
901.20 126.6274
901.30 127.4836
901.40 128.3397
901.50 129.1959
901.60 130.052
901.70 130.9081
901.80 131.7643
901.90 132.6204
902.00 133.4766
902.10 134.3327
902.20 135.1889
902.30 136.045
902.40 136.9012
902.50 137.7573
902.60 138.6134
902.70 139.4696
902.80 140.3257
902.90 141.1819
903.00 142.038
903.10 142.8942
903.20 143.0655
903.30 143.2298
903.40 143.3942
903.50 143.5586
903.60 143.723
903.70 143.8874
903.80 144.0518
903.90 144.2161
904.00 144.3805
904.10 144.5449
904.20 144.7093
904.30 144.8737
904.40 145.0381
904.50 145.2024
904.60 145.3668
904.70 145.5312
904.80 145.6956
904.90 145.86
905.00 146.0244
905.10 146.1887
905.20 146.3531
905.30 146.5175
905.40 146.6819
905.50 146.8463
905.60 147.0107
905.70 147.175
905.80 147.3394
905.90 147.5038
906.00 147.6682
906.10 147.8326
906.20 147.997
906.30 148.1613
906.40 148.3257
906.50 148.4901
906.60 148.7214
906.70 148.9813
906.80 149.2412
906.90 149.5011
907.00 149.761
907.10 150.0209
907.20 150.2808
907.30 150.5407
907.40 150.8006
907.50 151.0605
907.60 151.3204
907.70 151.5803
907.80 151.8403
907.90 152.1002
908.00 152.3601
908.10 152.62
908.20 152.8799
908.30 153.1398
908.40 153.3997
908.50 153.6596
908.60 153.9195
908.70 154.1794
908.80 154.4393
908.90 154.6992
909.00 154.9591
909.10 155.2191
909.20 155.479
909.30 155.7389
909.40 155.9988
909.50 156.2587
909.60 156.5186
909.70 156.7785
909.80 157.0384
909.90 157.2983
910.00 157.535
910.10 157.6939
910.20 157.8529
910.30 158.0118
910.40 158.1707
910.50 158.3296
910.60 158.4886
910.70 158.6475
910.80 158.8064
910.90 158.9654
911.00 159.1243
911.10 159.2832
911.20 159.4422
911.30 159.6011
911.40 159.76
911.50 159.9189
911.60 160.0779
911.70 160.2368
911.80 160.3957
911.90 160.5547
912.00 160.7136
912.10 160.8725
912.20 161.0314
912.30 161.1904
912.40 161.3493
912.50 161.5082
912.60 161.6672
912.70 161.8261
912.80 161.985
912.90 162.1439
913.00 162.3029
913.10 162.4618
913.20 162.6207
913.30 162.7797
913.40 162.9386
913.50 163.2083
913.60 163.5617
913.70 163.9151
913.80 164.2685
913.90 164.6218
914.00 164.9752
914.10 165.3286
914.20 165.6819
914.30 166.0353
914.40 166.3887
914.50 166.742
914.60 167.0954
914.70 167.4488
914.80 167.8021
914.90 168.1555
915.00 168.5089
915.10 168.8622
915.20 169.2156
915.30 169.569
915.40 169.9224
915.50 170.2757
915.60 170.6291
915.70 170.9825
915.80 171.3358
915.90 171.6892
916.00 172.0426
916.10 172.3959
916.20 172.7493
916.30 173.1027
916.40 173.456
916.50 173.8094
916.60 174.1628
916.70 174.5161
916.80 174.8695
916.90 175.2229
917.00 175.4525
917.10 175.6386
917.20 175.8247
917.30 176.0107
917.40 176.1968
917.50 176.3829
917.60 176.569
917.70 176.7551
917.80 176.9412
917.90 177.1273
918.00 177.3134
918.10 177.4995
918.20 177.6856
918.30 177.8717
918.40 178.0578
918.50 178.2439
918.60 178.43
918.70 178.616
918.80 178.8021
918.90 178.9882
919.00 179.1743
919.10 179.3604
919.20 179.5465
919.30 179.7326
919.40 179.9187
919.50 180.1048
919.60 180.2909
919.70 180.477
919.80 180.6631
919.90 180.8492
920.00 181.0353
920.10 181.2213
920.20 181.4074
920.30 181.5935
920.40 181.7796
920.50 182.0127
920.60 182.2623
920.70 182.5119
920.80 182.7614
920.90 183.011
921.00 183.2606
921.10 183.5102
921.20 183.7597
921.30 184.0093
921.40 184.2589
921.50 184.5085
921.60 184.7581
921.70 185.0076
921.80 185.2572
921.90 185.5068
922.00 185.7564
922.10 186.0059
922.20 186.2555
922.30 186.5051
922.40 186.7547
922.50 187.0043
922.60 187.2538
922.70 187.5034
922.80 187.753
922.90 188.0026
923.00 188.2522
923.10 188.5017
923.20 188.7513
923.30 189.0009
923.40 189.2505
923.50 189.5
923.60 189.7496
923.70 189.9992
923.80 190.2488
923.90 190.4984
924.00 190.4756
924.10 190.2388
924.20 190.0021
924.30 189.7653
924.40 189.5286
924.50 189.2918
924.60 189.055
924.70 188.8183
924.80 188.5815
924.90 188.3448
925.00 188.108
925.10 187.8712
925.20 187.6345
925.30 187.3977
925.40 187.161
925.50 186.9242
925.60 186.6875
925.70 186.4507
925.80 186.2139
925.90 185.9772
926.00 185.7404
926.10 185.5037
926.20 185.2669
926.30 185.0301
926.40 184.7934
926.50 184.5566
926.60 184.3199
926.70 184.0831
926.80 183.8464
926.90 183.6096
927.00 183.3728
927.10 183.1361
927.20 182.8993
927.30 182.6626
927.40 182.4258
927.50 182.186
927.60 181.9341
927.70 181.6822
927.80 181.4302
927.90 181.1783
928.00 180.9264
928.10 180.6745
928.20 180.4226
928.30 180.1706
928.40 179.9187
928.50 179.6668
928.60 179.4149
928.70 179.1629
928.80 178.911
928.90 178.6591
929.00 178.4072
929.10 178.1553
929.20 177.9033
929.30 177.6514
929.40 177.3995
929.50 177.1476
929.60 176.8956
929.70 176.6437
929.80 176.3918
929.90 176.1399
930.00 175.8879
930.10 175.636
930.20 175.3841
930.30 175.1322
930.40 174.8803
930.50 174.6283
930.60 174.3764
930.70 174.1245
930.80 173.8726
930.90 173.6206
931.00 173.3687
931.10 173.6094
931.20 174.0926
931.30 174.5759
931.40 175.0592
931.50 175.5425
931.60 176.0257
931.70 176.509
931.80 176.9923
931.90 177.4755
932.00 177.9588
932.10 178.4421
932.20 178.9254
932.30 179.4086
932.40 179.8919
932.50 180.3752
932.60 180.8584
932.70 181.3417
932.80 181.825
932.90 182.3083
933.00 182.7915
933.10 183.2748
933.20 183.7581
933.30 184.2413
933.40 184.7246
933.50 185.2079
933.60 185.6911
933.70 186.1744
933.80 186.6577
933.90 187.141
934.00 187.6242
934.10 188.1075
934.20 188.5908
934.30 189.074
934.40 189.5573
934.50 190.0406
934.60 190.5239
934.70 190.8796
934.80 191.2315
934.90 191.5833
935.00 191.9352
935.10 192.287
935.20 192.6388
935.30 192.9907
935.40 193.3425
935.50 193.6943
935.60 194.0462
935.70 194.398
935.80 194.7498
935.90 195.1017
936.00 195.4535
936.10 195.8054
936.20 196.1572
936.30 196.509
936.40 196.8609
936.50 197.2127
936.60 197.5645
936.70 197.9164
936.80 198.2682
936.90 198.6201
937.00 198.9719
937.10 199.3237
937.20 199.6756
937.30 200.0274
937.40 200.3792
937.50 200.7311
937.60 201.0829
937.70 201.4348
937.80 201.7866
937.90 202.1384
938.00 202.4903
938.10 202.8421
938.20 203.1567
938.30 203.1362
938.40 203.1156
938.50 203.0951
938.60 203.0745
938.70 203.054
938.80 203.0334
938.90 203.0129
939.00 202.9924
939.10 202.9718
939.20 202.9513
939.30 202.9307
939.40 202.9102
939.50 202.8897
939.60 202.8691
939.70 202.8486
939.80 202.828
939.90 202.8075
940.00 202.7869
940.10 202.7664
940.20 202.7459
940.30 202.7253
940.40 202.7048
940.50 202.6842
940.60 202.6637
940.70 202.6432
940.80 202.6226
940.90 202.6021
941.00 202.5815
941.10 202.561
941.20 202.5404
941.30 202.5199
941.40 202.4994
941.50 202.4788
941.60 202.4583
941.70 202.4377
941.80 202.4296
941.90 202.5864
942.00 202.7432
942.10 202.9
942.20 203.0568
942.30 203.2136
942.40 203.3704
942.50 203.5272
942.60 203.684
942.70 203.8408
942.80 203.9975
942.90 204.1543
943.00 204.3111
943.10 204.4679
943.20 204.6247
943.30 204.7815
943.40 204.9383
943.50 205.0951
943.60 205.2519
943.70 205.4087
943.80 205.5655
943.90 205.7223
944.00 205.8791
944.10 206.0359
944.20 206.1927
944.30 206.3495
944.40 206.5062
944.50 206.663
944.60 206.8198
944.70 206.9766
944.80 207.1334
944.90 207.2902
945.00 207.447
945.10 207.6038
945.20 207.7606
945.30 207.9174
945.40 208.0742
945.50 208.35
945.60 208.6435
945.70 208.9371
945.80 209.2306
945.90 209.5242
946.00 209.8177
946.10 210.1113
946.20 210.4048
946.30 210.6984
946.40 210.9919
946.50 211.2855
946.60 211.5791
946.70 211.8726
946.80 212.1662
946.90 212.4597
947.00 212.7533
947.10 213.0468
947.20 213.3404
947.30 213.6339
947.40 213.9275
947.50 214.221
947.60 214.5146
947.70 214.8081
947.80 215.1017
947.90 215.3953
948.00 215.6888
948.10 215.9824
948.20 216.2759
948.30 216.5695
948.40 216.863
948.50 217.1566
948.60 217.4501
948.70 217.7437
948.80 218.0372
948.90 218.3308
949.00 218.6243
949.10 218.95
949.20 219.3078
949.30 219.6656
949.40 220.0233
949.50 220.3811
949.60 220.7389
949.70 221.0966
949.80 221.4544
949.90 221.8122
950.00 222.17
950.10 222.5277
950.20 222.8855
950.30 223.2433
950.40 223.601
950.50 223.9588
950.60 224.3166
950.70 224.6744
950.80 225.0321
950.90 225.3899
951.00 225.7477
951.10 226.1054
951.20 226.4632
951.30 226.821
951.40 227.1788
951.50 227.5365
951.60 227.8943
951.70 228.2521
951.80 228.6098
951.90 228.9676
952.00 229.3254
952.10 229.6832
952.20 230.0409
952.30 230.3987
952.40 230.7565
952.50 231.1142
952.60 231.472
952.70 231.8298
952.80 231.8815
952.90 231.9237
953.00 231.966
953.10 232.0082
953.20 232.0504
953.30 232.0927
953.40 232.1349
953.50 232.1771
953.60 232.2194
953.70 232.2616
953.80 232.3038
953.90 232.3461
954.00 232.3883
954.10 232.4305
954.20 232.4728
954.30 232.515
954.40 232.5572
954.50 232.5995
954.60 232.6417
954.70 232.684
954.80 232.7262
954.90 232.7684
955.00 232.8107
955.10 232.8529
955.20 232.8951
955.30 232.9374
955.40 232.9796
955.50 233.0218
955.60 233.0641
955.70 233.1063
955.80 233.1485
955.90 233.1908
956.00 233.233
956.10 233.2752
956.20 233.3175
956.30 233.3597
956.40 233.4056
956.50 233.461
956.60 233.5163
956.70 233.5716
956.80 233.627
956.90 233.6823
957.00 233.7376
957.10 233.793
957.20 233.8483
957.30 233.9037
957.40 233.959
957.50 234.0143
957.60 234.0697
957.70 234.125
957.80 234.1804
957.90 234.2357
958.00 234.291
958.10 234.3464
958.20 234.4017
958.30 234.457
958.40 234.5124
958.50 234.5677
958.60 234.6231
958.70 234.6784
958.80 234.7337
958.90 234.7891
959.00 234.8444
959.10 234.8997
959.20 234.9551
959.30 235.0104
959.40 235.0658
959.50 235.1211
959.60 235.1764
959.70 235.2318
959.80 235.2871
959.90 235.3425
960.00 235.3978
960.10 235.3646
960.20 235.2141
960.30 235.0635
960.40 234.913
960.50 234.7624
960.60 234.6119
960.70 234.4614
960.80 234.3108
960.90 234.1603
961.00 234.0098
961.10 233.8592
961.20 233.7087
961.30 233.5581
961.40 233.4076
961.50 233.2571
961.60 233.1065
961.70 232.956
961.80 232.8054
961.90 232.6549
962.00 232.5044
962.10 232.3538
962.20 232.2033
962.30 232.0527
962.40 231.9022
962.50 231.7517
962.60 231.6011
962.70 231.4506
962.80 231.3001
962.90 231.1495
963.00 230.999
963.10 230.8484
963.20 230.6979
963.30 230.5474
963.40 230.3968
963.50 230.2463
963.60 230.0957
963.70 229.9452
963.80 229.9918
963.90 230.3108
964.00 230.6297
964.10 230.9486
964.20 231.2676
964.30 231.5865
964.40 231.9054
964.50 232.2244
964.60 232.5433
964.70 232.8622
964.80 233.1812
964.90 233.5001
965.00 233.819
965.10 234.138
965.20 234.4569
965.30 234.7758
965.40 235.0948
965.50 235.4137
965.60 235.7326
965.70 236.0516
965.80 236.3705
965.90 236.6894
966.00 237.0084
966.10 237.3273
966.20 237.6462
966.30 237.9652
966.40 238.2841
966.50 238.603
966.60 238.9219
966.70 239.2409
966.80 239.5598
966.90 239.8787
967.00 240.1977
967.10 240.5166
967.20 240.8355
967.30 241.1545
967.40 241.4734
967.50 241.731
967.60 241.8142
967.70 241.8973
967.80 241.9805
967.90 242.0636
968.00 242.1467
968.10 242.2299
968.20 242.313
968.30 242.3962
968.40 242.4793
968.50 242.5625
968.60 242.6456
968.70 242.7287
968.80 242.8119
968.90 242.895
969.00 242.9782
969.10 243.0613
969.20 243.1444
969.30 243.2276
969.40 243.3107
969.50 243.3939
969.60 243.477
969.70 243.5602
969.80 243.6433
969.90 243.7264
970.00 243.8096
970.10 243.8927
970.20 243.9759
970.30 244.059
970.40 244.1421
970.50 244.2253
970.60 244.3084
970.70 244.3916
970.80 244.4747
970.90 244.5579
971.00 244.641
971.10 244.7241
971.20 244.8073
971.30 245.0743
971.40 245.3531
971.50 245.6319
971.60 245.9107
971.70 246.1895
971.80 246.4683
971.90 246.7471
972.00 247.0259
972.10 247.3047
972.20 247.5835
972.30 247.8623
972.40 248.1411
972.50 248.4199
972.60 248.6987
972.70 248.9775
972.80 249.2563
972.90 249.5351
973.00 249.8139
973.10 250.0927
973.20 250.3715
973.30 250.6503
973.40 250.9291
973.50 251.2079
973.60 251.4867
973.70 251.7655
973.80 252.0443
973.90 252.3231
974.00 252.6019
974.10 252.8807
974.20 253.1595
974.30 253.4383
974.40 253.7171
974.50 253.9959
974.60 254.2747
974.70 254.5535
974.80 254.8323
974.90 255.1111
975.00 255.4877
975.10 255.9746
975.20 256.4615
975.30 256.9484
975.40 257.4354
975.50 257.9223
975.60 258.4092
975.70 258.8961
975.80 259.383
975.90 259.8699
976.00 260.3569
976.10 260.8438
976.20 261.3307
976.30 261.8176
976.40 262.3045
976.50 262.7914
976.60 263.2784
976.70 263.7653
976.80 264.2522
976.90 264.7391
977.00 265.226
977.10 265.7129
977.20 266.1999
977.30 266.6868
977.40 267.1737
977.50 267.6606
977.60 268.1475
977.70 268.6344
977.80 269.1213
977.90 269.6083
978.00 270.0952
978.10 270.5821
978.20 271.069
978.30 271.5559
978.40 272.0428
978.50 272.5298
978.60 273.0167
978.70 273.5036
978.80 273.4967
978.90 273.4026
979.00 273.3086
979.10 273.2145
979.20 273.1204
979.30 273.0264
979.40 272.9323
979.50 272.8382
979.60 272.7442
979.70 272.6501
979.80 272.556
979.90 272.462
980.00 272.3679
980.10 272.2739
980.20 272.1798
980.30 272.0857
980.40 271.9917
980.50 271.8976
980.60 271.8035
980.70 271.7095
980.80 271.6154
980.90 271.5213
981.00 271.4273
981.10 271.3332
981.20 271.2392
981.30 271.1451
981.40 271.051
981.50 270.957
981.60 270.8629
981.70 270.7688
981.80 270.6748
981.90 270.5807
982.00 270.4867
982.10 270.3926
982.20 270.2985
982.30 270.2045
982.40 270.1104
982.50 269.9754
982.60 269.3691
982.70 268.7628
982.80 268.1565
982.90 267.5502
983.00 266.9439
983.10 266.3377
983.20 265.7314
983.30 265.1251
983.40 264.5188
983.50 263.9125
983.60 263.3062
983.70 262.6999
983.80 262.0937
983.90 261.4874
984.00 260.8811
984.10 260.2748
984.20 259.6685
984.30 259.0622
984.40 258.456
984.50 257.8497
984.60 257.2434
984.70 256.6371
984.80 256.0308
984.90 255.4245
985.00 254.8182
985.10 254.212
985.20 253.6057
985.30 252.9994
985.40 252.3931
985.50 251.7868
985.60 251.1805
985.70 250.5743
985.80 249.968
985.90 249.3617
986.00 248.7554
986.10 248.1491
986.20 247.5428
986.30 246.9144
986.40 246.1696
986.50 245.4249
986.60 244.6801
986.70 243.9354
986.80 243.1906
986.90 242.4458
987.00 241.7011
987.10 240.9563
987.20 240.2116
987.30 239.4668
987.40 238.7221
987.50 237.9773
987.60 237.2325
987.70 236.4878
987.80 235.743
987.90 234.9983
988.00 234.2535
988.10 233.5088
988.20 232.764
988.30 232.0192
988.40 231.2745
988.50 230.5297
988.60 229.785
988.70 229.0402
988.80 228.2954
988.90 227.5507
989.00 226.8059
989.10 226.0612
989.20 225.3164
989.30 224.5717
989.40 223.8269
989.50 223.0821
989.60 222.3374
989.70 221.5926
989.80 220.8479
989.90 220.1031
990.00 219.3584
990.10 218.6245
990.20 217.9885
990.30 217.3525
990.40 216.7165
990.50 216.0805
990.60 215.4445
990.70 214.8085
990.80 214.1725
990.90 213.5365
991.00 212.9006
991.10 212.2646
991.20 211.6286
991.30 210.9926
991.40 210.3566
991.50 209.7206
991.60 209.0846
991.70 208.4486
991.80 207.8126
991.90 207.1766
992.00 206.5406
992.10 205.9046
992.20 205.2687
992.30 204.6327
992.40 203.9967
992.50 203.3607
992.60 202.7247
992.70 202.0887
992.80 201.4527
992.90 200.8167
993.00 200.1807
993.10 199.5447
993.20 198.9087
993.30 198.2727
993.40 197.6368
993.50 197.0008
993.60 196.3648
993.70 195.7288
993.80 195.0928
993.90 194.4568
994.00 194.0098
994.10 193.5838
994.20 193.1577
994.30 192.7317
994.40 192.3057
994.50 191.8797
994.60 191.4537
994.70 191.0276
994.80 190.6016
994.90 190.1756
995.00 189.7496
995.10 189.3236
995.20 188.8975
995.30 188.4715
995.40 188.0455
995.50 187.6195
995.60 187.1934
995.70 186.7674
995.80 186.3414
995.90 185.9154
996.00 185.4894
996.10 185.0633
996.20 184.6373
996.30 184.2113
996.40 183.7853
996.50 183.3593
996.60 182.9332
996.70 182.5072
996.80 182.0812
996.90 181.6552
997.00 181.2292
997.10 180.8031
997.20 180.3771
997.30 179.9511
997.40 179.5251
997.50 179.0991
997.60 178.673
997.70 178.247
997.80 178.2126
997.90 178.4987
998.00 178.7847
998.10 179.0707
998.20 179.3568
998.30 179.6428
998.40 179.9289
998.50 180.2149
998.60 180.5009
998.70 180.787
998.80 181.073
998.90 181.3591
999.00 181.6451
999.10 181.9312
999.20 182.2172
999.30 182.5032
999.40 182.7893
999.50 183.0753
999.60 183.3614
999.70 183.6474
999.80 183.9334
999.90 184.2195
1000.00 184.5055
1000.10 184.7916
1000.20 185.0776
1000.30 185.3636
1000.40 185.6497
1000.50 185.9357
1000.60 186.2218
1000.70 186.5078
1000.80 186.7938
1000.90 187.0799
1001.00 187.3659
1001.10 187.652
1001.20 187.938
1001.30 188.224
1001.40 188.5101
1001.50 188.7961
1001.60 189.0825
1001.70 189.3715
1001.80 189.6606
1001.90 189.9497
1002.00 190.2388
1002.10 190.5278
1002.20 190.8169
1002.30 191.106
1002.40 191.395
1002.50 191.6841
1002.60 191.9732
1002.70 192.2623
1002.80 192.5513
1002.90 192.8404
1003.00 193.1295
1003.10 193.4186
1003.20 193.7076
1003.30 193.9967
1003.40 194.2858
1003.50 194.5749
1003.60 194.8639
1003.70 195.153
1003.80 195.4421
1003.90 195.7312
1004.00 196.0202
1004.10 196.3093
1004.20 196.5984
1004.30 196.8874
1004.40 197.1765
1004.50 197.4656
1004.60 197.7547
1004.70 198.0437
1004.80 198.3328
1004.90 198.6219
1005.00 198.911
1005.10 199.2
1005.20 199.4891
1005.30 199.7782
1005.40 200.0673
1005.50 200.4576
1005.60 200.9999
1005.70 201.5421
1005.80 202.0844
1005.90 202.6267
1006.00 203.169
1006.10 203.7112
1006.20 204.2535
1006.30 204.7958
1006.40 205.338
1006.50 205.8803
1006.60 206.4226
1006.70 206.9648
1006.80 207.5071
1006.90 208.0494
1007.00 208.5916
1007.10 209.1339
1007.20 209.6762
1007.30 210.2184
1007.40 210.7607
1007.50 211.303
1007.60 211.8452
1007.70 212.3875
1007.80 212.9298
1007.90 213.472
1008.00 214.0143
1008.10 214.5566
1008.20 215.0989
1008.30 215.6411
1008.40 216.1834
1008.50 216.7257
1008.60 217.2679
1008.70 217.8102
1008.80 218.3525
1008.90 218.8947
1009.00 219.437
1009.10 219.9793
1009.20 220.5215
1009.30 221.0638
1009.40 221.3884
1009.50 221.6198
1009.60 221.8512
1009.70 222.0825
1009.80 222.3139
1009.90 222.5453
1010.00 222.7766
1010.10 223.008
1010.20 223.2394
1010.30 223.4707
1010.40 223.7021
1010.50 223.9335
1010.60 224.1648
1010.70 224.3962
1010.80 224.6275
1010.90 224.8589
1011.00 225.0903
1011.10 225.3216
1011.20 225.553
1011.30 225.7844
1011.40 226.0157
1011.50 226.2471
1011.60 226.4785
1011.70 226.7098
1011.80 226.9412
1011.90 227.1726
1012.00 227.4039
1012.10 227.6353
1012.20 227.8667
1012.30 228.098
1012.40 228.3294
1012.50 228.5608
1012.60 228.7921
1012.70 229.0235
1012.80 229.2548
1012.90 229.4862
1013.00 229.7176
1013.10 229.9489
1013.20 230.1803
1013.30 230.2161
1013.40 230.203
1013.50 230.19
1013.60 230.1769
1013.70 230.1638
1013.80 230.1507
1013.90 230.1376
1014.00 230.1246
1014.10 230.1115
1014.20 230.0984
1014.30 230.0853
1014.40 230.0722
1014.50 230.0591
1014.60 230.0461
1014.70 230.033
1014.80 230.0199
1014.90 230.0068
1015.00 229.9937
1015.10 229.9807
1015.20 229.9676
1015.30 229.9545
1015.40 229.9414
1015.50 229.9283
1015.60 229.9153
1015.70 229.9022
1015.80 229.8891
1015.90 229.876
1016.00 229.8629
1016.10 229.8499
1016.20 229.8368
1016.30 229.8237
1016.40 229.8106
1016.50 229.7975
1016.60 229.7845
1016.70 229.7714
1016.80 229.7583
1016.90 229.7452
1017.00 229.7321
1017.10 229.7191
1017.20 229.8983
1017.30 230.1257
1017.40 230.353
1017.50 230.5804
1017.60 230.8078
1017.70 231.0351
1017.80 231.2625
1017.90 231.4898
1018.00 231.7172
1018.10 231.9446
1018.20 232.1719
1018.30 232.3993
1018.40 232.6266
1018.50 232.854
1018.60 233.0814
1018.70 233.3087
1018.80 233.5361
1018.90 233.7634
1019.00 233.9908
1019.10 234.2182
1019.20 234.4455
1019.30 234.6729
1019.40 234.9002
1019.50 235.1276
1019.60 235.3549
1019.70 235.5823
1019.80 235.8097
1019.90 236.037
1020.00 236.2644
1020.10 236.4917
1020.20 236.7191
1020.30 236.9465
1020.40 237.1738
1020.50 237.4012
1020.60 237.6285
1020.70 237.8559
1020.80 238.0833
1020.90 238.3106
1021.00 238.538
1021.10 238.6345
1021.20 238.6438
1021.30 238.6531
1021.40 238.6624
1021.50 238.6717
1021.60 238.681
1021.70 238.6903
1021.80 238.6996
1021.90 238.7089
1022.00 238.7182
1022.10 238.7275
1022.20 238.7368
1022.30 238.7461
1022.40 238.7554
1022.50 238.7647
1022.60 238.774
1022.70 238.7833
1022.80 238.7926
1022.90 238.8019
1023.00 238.8112
1023.10 238.8205
1023.20 238.8298
1023.30 238.8391
1023.40 238.8484
1023.50 238.8577
1023.60 238.867
1023.70 238.8763
1023.80 238.8856
1023.90 238.8949
1024.00 238.9042
1024.10 238.9135
1024.20 238.9228
1024.30 238.9321
1024.40 238.9414
1024.50 238.9507
1024.60 238.96
1024.70 238.9693
1024.80 238.9786
1024.90 238.9879
1025.00 238.9969
1025.10 239.0052
1025.20 239.0136
1025.30 239.0219
1025.40 239.0303
1025.50 239.0386
1025.60 239.047
1025.70 239.0553
1025.80 239.0637
1025.90 239.072
1026.00 239.0804
1026.10 239.0887
1026.20 239.0971
1026.30 239.1054
1026.40 239.1138
1026.50 239.1221
1026.60 239.1305
1026.70 239.1388
1026.80 239.1472
1026.90 239.1555
1027.00 239.1639
1027.10 239.1722
1027.20 239.1806
1027.30 239.1889
1027.40 239.1973
1027.50 239.2056
1027.60 239.214
1027.70 239.2223
1027.80 239.2307
1027.90 239.239
1028.00 239.2474
1028.10 239.2557
1028.20 239.2641
1028.30 239.2724
1028.40 239.2808
1028.50 239.2891
1028.60 239.2975
1028.70 239.3058
1028.80 239.3142
1028.90 239.3225
1029.00 239.8073
1029.10 240.2922
1029.20 240.777
1029.30 241.2619
1029.40 241.7467
1029.50 242.2316
1029.60 242.7164
1029.70 243.2013
1029.80 243.6861
1029.90 244.1709
1030.00 244.6558
1030.10 245.1406
1030.20 245.6255
1030.30 246.1103
1030.40 246.5952
1030.50 247.08
1030.60 247.5648
1030.70 248.0497
1030.80 248.5345
1030.90 249.0194
1031.00 249.5042
1031.10 249.9891
1031.20 250.4739
1031.30 250.9588
1031.40 251.4436
1031.50 251.9284
1031.60 252.4133
1031.70 252.8981
1031.80 253.383
1031.90 253.8678
1032.00 254.3527
1032.10 254.8375
1032.20 255.3223
1032.30 255.8072
1032.40 256.292
1032.50 256.7769
1032.60 257.2617
1032.70 257.7466
1032.80 258.2314
1032.90 258.6187
1033.00 258.8598
1033.10 259.1009
1033.20 259.3419
1033.30 259.583
1033.40 259.824
1033.50 260.0651
1033.60 260.3061
1033.70 260.5472
1033.80 260.7882
1033.90 261.0293
1034.00 261.2704
1034.10 261.5114
1034.20 261.7525
1034.30 261.9935
1034.40 262.2346
1034.50 262.4756
1034.60 262.7167
1034.70 262.9578
1034.80 263.1988
1034.90 263.4399
1035.00 263.6809
1035.10 263.922
1035.20 264.163
1035.30 264.4041
1035.40 264.6452
1035.50 264.8862
1035.60 265.1273
1035.70 265.3683
1035.80 265.6094
1035.90 265.8504
1036.00 266.0915
1036.10 266.3325
1036.20 266.5736
1036.30 266.8147
1036.40 267.0557
1036.50 267.2968
1036.60 267.5378
1036.70 267.7789
1036.80 268.0199
1036.90 268.1844
1037.00 268.3296
1037.10 268.4748
1037.20 268.6201
1037.30 268.7653
1037.40 268.9106
1037.50 269.0558
1037.60 269.2011
1037.70 269.3463
1037.80 269.4916
1037.90 269.6368
1038.00 269.7821
1038.10 269.9273
1038.20 270.0726
1038.30 270.2178
1038.40 270.3631
1038.50 270.5083
1038.60 270.6536
1038.70 270.7988
1038.80 270.9441
1038.90 271.0893
1039.00 271.2346
1039.10 271.3798
1039.20 271.5251
1039.30 271.6703
1039.40 271.8156
1039.50 271.9608
1039.60 272.1061
1039.70 272.2513
1039.80 272.3966
1039.90 272.5418
1040.00 272.6871
1040.10 272.8323
1040.20 272.9776
1040.30 273.1228
1040.40 273.268
1040.50 273.4133
1040.60 273.5585
1040.70 273.7038
1040.80 273.849
1040.90 273.967
1041.00 274.0849
1041.10 274.2028
1041.20 274.3208
1041.30 274.4387
1041.40 274.5566
1041.50 274.6745
1041.60 274.7925
1041.70 274.9104
1041.80 275.0283
1041.90 275.1463
1042.00 275.2642
1042.10 275.3821
1042.20 275.5001
1042.30 275.618
1042.40 275.7359
1042.50 275.8538
1042.60 275.9718
1042.70 276.0897
1042.80 276.2076
1042.90 276.3256
1043.00 276.4435
1043.10 276.5614
1043.20 276.6793
1043.30 276.7973
1043.40 276.9152
1043.50 277.0331
1043.60 277.1511
1043.70 277.269
1043.80 277.3869
1043.90 277.5049
1044.00 277.6228
1044.10 277.7407
1044.20 277.8586
1044.30 277.9766
1044.40 278.0945
1044.50 278.2124
1044.60 278.3304
1044.70 278.4483
1044.80 278.5734
1044.90 278.7629
1045.00 278.9525
1045.10 279.1421
1045.20 279.3316
1045.30 279.5212
1045.40 279.7107
1045.50 279.9003
1045.60 280.0899
1045.70 280.2794
1045.80 280.469
1045.90 280.6585
1046.00 280.8481
1046.10 281.0377
1046.20 281.2272
1046.30 281.4168
1046.40 281.6063
1046.50 281.7959
1046.60 281.9854
1046.70 282.175
1046.80 282.3646
1046.90 282.5541
1047.00 282.7437
1047.10 282.9332
1047.20 283.1228
1047.30 283.3124
1047.40 283.5019
1047.50 283.6915
1047.60 283.881
1047.70 284.0706
1047.80 284.2602
1047.90 284.4497
1048.00 284.6393
1048.10 284.8288
1048.20 285.0184
1048.30 285.208
1048.40 285.3975
1048.50 285.5871
1048.60 285.7766
1048.70 285.9662
1048.80 286.1315
1048.90 286.0787
1049.00 286.0259
1049.10 285.9731
1049.20 285.9203
1049.30 285.8675
1049.40 285.8147
1049.50 285.7619
1049.60 285.7091
1049.70 285.6563
1049.80 285.6035
1049.90 285.5507
1050.00 285.4979
1050.10 285.4451
1050.20 285.3923
1050.30 285.3395
1050.40 285.2867
1050.50 285.2339
1050.60 285.1811
1050.70 285.1283
1050.80 285.0755
1050.90 285.0227
1051.00 284.9699
1051.10 284.9171
1051.20 284.8643
1051.30 284.8115
1051.40 284.7587
1051.50 284.7059
1051.60 284.6531
1051.70 284.6003
1051.80 284.5475
1051.90 284.4947
1052.00 284.4419
1052.10 284.3891
1052.20 284.3363
1052.30 284.2836
1052.40 284.2308
1052.50 284.178
1052.60 284.1252
1052.70 284.0724
1052.80 284.0196
1052.90 283.8407
1053.00 283.6619
1053.10 283.4831
1053.20 283.3042
1053.30 283.1254
1053.40 282.9466
1053.50 282.7677
1053.60 282.5889
1053.70 282.4101
1053.80 282.2312
1053.90 282.0524
1054.00 281.8736
1054.10 281.6947
1054.20 281.5159
1054.30 281.3371
1054.40 281.1582
1054.50 280.9794
1054.60 280.8006
1054.70 280.6218
1054.80 280.4429
1054.90 280.2641
1055.00 280.0853
1055.10 279.9064
1055.20 279.7276
1055.30 279.5488
1055.40 279.3699
1055.50 279.1911
1055.60 279.0123
1055.70 278.8334
1055.80 278.6546
1055.90 278.4758
1056.00 278.2969
1056.10 278.1181
1056.20 277.9393
1056.30 277.7604
1056.40 277.5816
1056.50 277.4028
1056.60 277.2239
1056.70 277.0451
1056.80 276.8663
1056.90 276.8674
1057.00 276.9134
1057.10 276.9595
1057.20 277.0055
1057.30 277.0516
1057.40 277.0977
1057.50 277.1437
1057.60 277.1898
1057.70 277.2359
1057.80 277.2819
1057.90 277.328
1058.00 277.374
1058.10 277.4201
1058.20 277.4662
1058.30 277.5122
1058.40 277.5583
1058.50 277.6043
1058.60 277.6504
1058.70 277.6965
1058.80 277.7425
1058.90 277.7886
1059.00 277.8346
1059.10 277.8807
1059.20 277.9268
1059.30 277.9728
1059.40 278.0189
1059.50 278.0649
1059.60 278.111
1059.70 278.1571
1059.80 278.2031
1059.90 278.2492
1060.00 278.2952
1060.10 278.3413
1060.20 278.3874
1060.30 278.4334
1060.40 278.4795
1060.50 278.5255
1060.60 278.5716
1060.70 278.6177
1060.80 278.6637
1060.90 278.8447
1061.00 279.1605
1061.10 279.4764
1061.20 279.7922
1061.30 280.108
1061.40 280.4239
1061.50 280.7397
1061.60 281.0556
1061.70 281.3714
1061.80 281.6872
1061.90 282.0031
1062.00 282.3189
1062.10 282.6348
1062.20 282.9506
1062.30 283.2664
1062.40 283.5823
1062.50 283.8981
1062.60 284.214
1062.70 284.5298
1062.80 284.8456
1062.90 285.1615
1063.00 285.4773
1063.10 285.7931
1063.20 286.109
1063.30 286.4248
1063.40 286.7407
1063.50 287.0565
1063.60 287.3723
1063.70 287.6882
1063.80 288.004
1063.90 288.3199
1064.00 288.6357
1064.10 288.9515
1064.20 289.2674
1064.30 289.5832
1064.40 289.8991
1064.50 290.2149
1064.60 290.5307
1064.70 290.8466
1064.80 291.1624
1064.90 291.4783
1065.00 291.7848
1065.10 292.0914
1065.20 292.3979
1065.30 292.7045
1065.40 293.011
1065.50 293.3176
1065.60 293.6242
1065.70 293.9307
1065.80 294.2373
1065.90 294.5438
1066.00 294.8504
1066.10 295.1569
1066.20 295.4635
1066.30 295.77
1066.40 296.0766
1066.50 296.3832
1066.60 296.6897
1066.70 296.9963
1066.80 297.3028
1066.90 297.6094
1067.00 297.9159
1067.10 298.2225
1067.20 298.5291
1067.30 298.8356
1067.40 299.1422
1067.50 299.4487
1067.60 299.7553
1067.70 300.0618
1067.80 300.3684
1067.90 300.6749
1068.00 300.9815
1068.10 301.2881
1068.20 301.5946
1068.30 301.9012
1068.40 302.2077
1068.50 302.5143
1068.60 302.8208
1068.70 303.1274
1068.80 303.4339
1068.90 303.7405
1069.00 304.0626
1069.10 304.4004
1069.20 304.7381
1069.30 305.0758
1069.40 305.4135
1069.50 305.7512
1069.60 306.089
1069.70 306.4267
1069.80 306.7644
1069.90 307.1021
1070.00 307.4398
1070.10 307.7776
1070.20 308.1153
1070.30 308.453
1070.40 308.7907
1070.50 309.1284
1070.60 309.4662
1070.70 309.8039
1070.80 310.1416
1070.90 310.4793
1071.00 310.817
1071.10 311.1548
1071.20 311.4925
1071.30 311.8302
1071.40 312.1679
1071.50 312.5056
1071.60 312.8434
1071.70 313.1811
1071.80 313.5188
1071.90 313.8565
1072.00 314.1942
1072.10 314.532
1072.20 314.8697
1072.30 315.2074
1072.40 315.5451
1072.50 315.8828
1072.60 316.2205
1072.70 316.5583
1072.80 316.896
1072.90 317.2337
1073.00 317.5714
1073.10 317.8674
1073.20 318.1586
1073.30 318.4499
1073.40 318.7412
1073.50 319.0325
1073.60 319.3238
1073.70 319.6151
1073.80 319.9063
1073.90 320.1976
1074.00 320.4889
1074.10 320.7802
1074.20 321.0715
1074.30 321.3628
1074.40 321.654
1074.50 321.9453
1074.60 322.2366
1074.70 322.5279
1074.80 322.8192
1074.90 323.1105
1075.00 323.4017
1075.10 323.693
1075.20 323.9843
1075.30 324.2756
1075.40 324.5669
1075.50 324.8582
1075.60 325.1495
1075.70 325.4407
1075.80 325.732
1075.90 326.0233
1076.00 326.3146
1076.10 326.6059
1076.20 326.8972
1076.30 327.1884
1076.40 327.4797
1076.50 327.771
1076.60 328.0623
1076.70 328.3536
1076.80 328.6449
1076.90 328.9361
1077.00 329.2274
1077.10 329.5065
1077.20 329.6758
1077.30 329.845
1077.40 330.0143
1077.50 330.1836
1077.60 330.3528
1077.70 330.5221
1077.80 330.6914
1077.90 330.8607
1078.00 331.0299
1078.10 331.1992
1078.20 331.3685
1078.30 331.5377
1078.40 331.707
1078.50 331.8763
1078.60 332.0455
1078.70 332.2148
1078.80 332.3841
1078.90 332.5533
1079.00 332.7226
1079.10 332.8919
1079.20 333.0611
1079.30 333.2304
1079.40 333.3997
1079.50 333.5689
1079.60 333.7382
1079.70 333.9075
1079.80 334.0767
1079.90 334.246
1080.00 334.4153
1080.10 334.5845
1080.20 334.7538
1080.30 334.9231
1080.40 335.0923
1080.50 335.2616
1080.60 335.4309
1080.70 335.6002
1080.80 335.7694
1080.90 335.9387
1081.00 336.108
1081.10 336.2772
1081.20 336.6185
1081.30 337.3613
1081.40 338.1041
1081.50 338.8469
1081.60 339.5896
1081.70 340.3324
1081.80 341.0752
1081.90 341.8179
1082.00 342.5607
1082.10 343.3035
1082.20 344.0462
1082.30 344.789
1082.40 345.5318
1082.50 346.2746
1082.60 347.0173
1082.70 347.7601
1082.80 348.5029
1082.90 349.2456
1083.00 349.9884
1083.10 350.7312
1083.20 351.474
1083.30 352.2167
1083.40 352.9595
1083.50 353.7023
1083.60 354.445
1083.70 355.1878
1083.80 355.9306
1083.90 356.6733
1084.00 357.4161
1084.10 358.1589
1084.20 358.9017
1084.30 359.6444
1084.40 360.3872
1084.50 361.13
1084.60 361.8727
1084.70 362.6155
1084.80 363.3583
1084.90 364.101
1085.00 364.8438
1085.10 365.5866
1085.20 366.3294
1085.30 366.8765
1085.40 366.967
1085.50 367.0576
1085.60 367.1481
1085.70 367.2387
1085.80 367.3292
1085.90 367.4198
1086.00 367.5103
1086.10 367.6008
1086.20 367.6914
1086.30 367.7819
1086.40 367.8725
1086.50 367.963
1086.60 368.0536
1086.70 368.1441
1086.80 368.2347
1086.90 368.3252
1087.00 368.4158
1087.10 368.5063
1087.20 368.5969
1087.30 368.6874
1087.40 368.778
1087.50 368.8685
1087.60 368.9591
1087.70 369.0496
1087.80 369.1402
1087.90 369.2307
1088.00 369.3213
1088.10 369.4118
1088.20 369.5024
1088.30 369.5929
1088.40 369.6835
1088.50 369.774
1088.60 369.8645
1088.70 369.9551
1088.80 370.0456
1088.90 370.1362
1089.00 370.2267
1089.10 370.3173
1089.20 370.4078
1089.30 370.4984
1089.40 370.6136
1089.50 370.7862
1089.60 370.9589
1089.70 371.1316
1089.80 371.3042
1089.90 371.4769
1090.00 371.6495
1090.10 371.8222
1090.20 371.9949
1090.30 372.1675
1090.40 372.3402
1090.50 372.5129
1090.60 372.6855
1090.70 372.8582
1090.80 373.0308
1090.90 373.2035
1091.00 373.3762
1091.10 373.5488
1091.20 373.7215
1091.30 373.8941
1091.40 374.0668
1091.50 374.2395
1091.60 374.4121
1091.70 374.5848
1091.80 374.7575
1091.90 374.9301
1092.00 375.1028
1092.10 375.2754
1092.20 375.4481
1092.30 375.6208
1092.40 375.7934
1092.50 375.9661
1092.60 376.1388
1092.70 376.3114
1092.80 376.4841
1092.90 376.6567
1093.00 376.8294
1093.10 377.0021
1093.20 377.1747
1093.30 377.3474
1093.40 377.52
1093.50 377.6793
1093.60 377.7848
1093.70 377.8903
1093.80 377.9958
1093.90 378.1013
1094.00 378.2068
1094.10 378.3123
1094.20 378.4178
1094.30 378.5233
1094.40 378.6288
1094.50 378.7343
1094.60 378.8398
1094.70 378.9453
1094.80 379.0508
1094.90 379.1563
1095.00 379.2618
1095.10 379.3673
1095.20 379.4728
1095.30 379.5783
1095.40 379.6838
1095.50 379.7893
1095.60 379.8948
1095.70 380.0003
1095.80 380.1059
1095.90 380.2114
1096.00 380.3169
1096.10 380.4224
1096.20 380.5279
1096.30 380.6334
1096.40 380.7389
1096.50 380.8444
1096.60 380.9499
1096.70 381.0554
1096.80 381.1609
1096.90 381.2664
1097.00 381.3719
1097.10 381.4774
1097.20 381.5829
1097.30 381.6884
1097.40 381.7939
1097.50 381.8994
1097.60 382.0049
1097.70 382.161
1097.80 382.3171
1097.90 382.4732
1098.00 382.6292
1098.10 382.7853
1098.20 382.9414
1098.30 383.0975
1098.40 383.2536
1098.50 383.4096
1098.60 383.5657
1098.70 383.7218
1098.80 383.8779
1098.90 384.034
1099.00 384.1901
1099.10 384.3461
1099.20 384.5022
1099.30 384.6583
1099.40 384.8144
1099.50 384.9705
1099.60 385.1265
1099.70 385.2826
1099.80 385.4387
1099.90 385.5948
1100.00 385.7509
1100.10 385.907
1100.20 386.063
1100.30 386.2191
1100.40 386.3752
1100.50 386.5313
1100.60 386.6874
1100.70 386.8434
1100.80 386.9995
1100.90 387.1556
1101.00 387.3117
1101.10 387.4678
1101.20 387.6239
1101.30 387.7799
1101.40 387.936
1101.50 388.0921
1101.60 388.2482
1101.70 388.4043
1101.80 388.241
1101.90 387.9409
1102.00 387.6408
1102.10 387.3407
1102.20 387.0406
1102.30 386.7405
1102.40 386.4404
1102.50 386.1403
1102.60 385.8402
1102.70 385.5401
1102.80 385.24
1102.90 384.9399
1103.00 384.6398
1103.10 384.3397
1103.20 384.0396
1103.30 383.7395
1103.40 383.4394
1103.50 383.1393
1103.60 382.8392
1103.70 382.5391
1103.80 382.239
1103.90 381.9389
1104.00 381.6388
1104.10 381.3387
1104.20 381.0386
1104.30 380.7385
1104.40 380.4384
1104.50 380.1383
1104.60 379.8382
1104.70 379.5381
1104.80 379.238
1104.90 378.9379
1105.00 378.6378
1105.10 378.3377
1105.20 378.0376
1105.30 377.7375
1105.40 377.4374
1105.50 377.1373
1105.60 376.8372
1105.70 376.5371
1105.80 376.237
1105.90 376.0371
1106.00 376.0711
1106.10 376.1051
1106.20 376.1391
1106.30 376.1731
1106.40 376.2071
1106.50 376.2411
1106.60 376.2751
1106.70 376.3091
1106.80 376.3431
1106.90 376.3771
1107.00 376.4111
1107.10 376.4451
1107.20 376.4791
1107.30 376.5131
1107.40 376.5471
1107.50 376.5811
1107.60 376.6151
1107.70 376.649
1107.80 376.683
1107.90 376.717
1108.00 376.751
1108.10 376.785
1108.20 376.819
1108.30 376.853
1108.40 376.887
1108.50 376.921
1108.60 376.955
1108.70 376.989
1108.80 377.023
1108.90 377.057
1109.00 377.091
1109.10 377.125
1109.20 377.159
1109.30 377.193
1109.40 377.227
1109.50 377.261
1109.60 377.295
1109.70 377.329
1109.80 377.363
1109.90 377.397
1110.00 377.431
1110.10 377.3608
1110.20 377.2646
1110.30 377.1684
1110.40 377.0722
1110.50 376.9759
1110.60 376.8797
1110.70 376.7835
1110.80 376.6873
1110.90 376.5911
1111.00 376.4948
1111.10 376.3986
1111.20 376.3024
1111.30 376.2062
1111.40 376.11
1111.50 376.0137
1111.60 375.9175
1111.70 375.8213
1111.80 375.7251
1111.90 375.6289
1112.00 375.5326
1112.10 375.4364
1112.20 375.3402
1112.30 375.244
1112.40 375.1478
1112.50 375.0515
1112.60 374.9553
1112.70 374.8591
1112.80 374.7629
1112.90 374.6667
1113.00 374.5705
1113.10 374.4742
1113.20 374.378
1113.30 374.2818
1113.40 374.1856
1113.50 374.0894
1113.60 373.9931
1113.70 373.8969
1113.80 373.8007
1113.90 373.7045
1114.00 373.6083
1114.10 373.512
1114.20 373.4901
1114.30 373.6413
1114.40 373.7926
1114.50 373.9439
1114.60 374.0952
1114.70 374.2465
1114.80 374.3977
1114.90 374.549
1115.00 374.7003
1115.10 374.8516
1115.20 375.0029
1115.30 375.1541
1115.40 375.3054
1115.50 375.4567
1115.60 375.608
1115.70 375.7593
1115.80 375.9105
1115.90 376.0618
1116.00 376.2131
1116.10 376.3644
1116.20 376.5157
1116.30 376.6669
1116.40 376.8182
1116.50 376.9695
1116.60 377.1208
1116.70 377.2721
1116.80 377.4233
1116.90 377.5746
1117.00 377.7259
1117.10 377.8772
1117.20 378.0285
1117.30 378.1797
1117.40 378.331
1117.50 378.4823
1117.60 378.6336
1117.70 378.7849
1117.80 378.9361
1117.90 379.0874
1118.00 379.2387
1118.10 379.39
1118.20 379.5413
1118.30 379.6925
1118.40 379.8413
1118.50 379.9882
1118.60 380.1352
1118.70 380.2822
1118.80 380.4292
1118.90 380.5762
1119.00 380.7232
1119.10 380.8702
1119.20 381.0172
1119.30 381.1642
1119.40 381.3112
1119.50 381.4581
1119.60 381.6051
1119.70 381.7521
1119.80 381.8991
1119.90 382.0461
1120.00 382.1931
1120.10 382.3401
1120.20 382.4871
1120.30 382.6341
1120.40 382.7811
1120.50 382.9281
1120.60 383.075
1120.70 383.222
1120.80 383.369
1120.90 383.516
1121.00 383.663
1121.10 383.81
1121.20 383.957
1121.30 384.104
1121.40 384.251
1121.50 384.398
1121.60 384.5449
1121.70 384.6919
1121.80 384.8389
1121.90 384.9859
1122.00 385.1329
1122.10 385.2799
1122.20 385.4269
1122.30 385.5739
1122.40 385.7209
1122.50 385.8679
1122.60 385.8788
1122.70 385.8747
1122.80 385.8705
1122.90 385.8664
1123.00 385.8622
1123.10 385.8581
1123.20 385.8539
1123.30 385.8498
1123.40 385.8457
1123.50 385.8415
1123.60 385.8374
1123.70 385.8332
1123.80 385.8291
1123.90 385.8249
1124.00 385.8208
1124.10 385.8166
1124.20 385.8125
1124.30 385.8083
1124.40 385.8042
1124.50 385.8
1124.60 385.7959
1124.70 385.7917
1124.80 385.7876
1124.90 385.7834
1125.00 385.7793
1125.10 385.7751
1125.20 385.771
1125.30 385.7669
1125.40 385.7627
1125.50 385.7586
1125.60 385.7544
1125.70 385.7503
1125.80 385.7461
1125.90 385.742
1126.00 385.7378
1126.10 385.7337
1126.20 385.7295
1126.30 385.7254
1126.40 385.7212
1126.50 385.7171
1126.60 385.7129
1126.70 385.6799
1126.80 385.531
1126.90 385.3822
1127.00 385.2333
1127.10 385.0845
1127.20 384.9357
1127.30 384.7868
1127.40 384.638
1127.50 384.4892
1127.60 384.3403
1127.70 384.1915
1127.80 384.0426
1127.90 383.8938
1128.00 383.745
1128.10 383.5961
1128.20 383.4473
1128.30 383.2985
1128.40 383.1496
1128.50 383.0008
1128.60 382.852
1128.70 382.7031
1128.80 382.5543
1128.90 382.4054
1129.00 382.2566
1129.10 382.1078
1129.20 381.9589
1129.30 381.8101
1129.40 381.6613
1129.50 381.5124
1129.60 381.3636
1129.70 381.2147
1129.80 381.0659
1129.90 380.9171
1130.00 380.7682
1130.10 380.6194
1130.20 380.4706
1130.30 380.3217
1130.40 380.1729
1130.50 380.024
1130.60 379.8752
1130.70 379.7264
1130.80 379.5775
1130.90 379.3576
1131.00 378.9718
1131.10 378.586
1131.20 378.2002
1131.30 377.8144
1131.40 377.4286
1131.50 377.0428
1131.60 376.657
1131.70 376.2712
1131.80 375.8854
1131.90 375.4996
1132.00 375.1138
1132.10 374.728
1132.20 374.3422
1132.30 373.9564
1132.40 373.5706
1132.50 373.1848
1132.60 372.799
1132.70 372.4132
1132.80 372.0274
1132.90 371.6416
1133.00 371.2558
1133.10 370.87
1133.20 370.4842
1133.30 370.0984
1133.40 369.7126
1133.50 369.3268
1133.60 368.9411
1133.70 368.5553
1133.80 368.1695
1133.90 367.7837
1134.00 367.3979
1134.10 367.0121
1134.20 366.6263
1134.30 366.2405
1134.40 365.8547
1134.50 365.4689
1134.60 365.0831
1134.70 364.6973
1134.80 364.3115
1134.90 363.9257
1135.00 363.5399
1135.10 363.2826
1135.20 363.2182
1135.30 363.1538
1135.40 363.0893
1135.50 363.0249
1135.60 362.9605
1135.70 362.8961
1135.80 362.8316
1135.90 362.7672
1136.00 362.7028
1136.10 362.6384
1136.20 362.5739
1136.30 362.5095
1136.40 362.4451
1136.50 362.3807
1136.60 362.3162
1136.70 362.2518
1136.80 362.1874
1136.90 362.123
1137.00 362.0585
1137.10 361.9941
1137.20 361.9297
1137.30 361.8653
1137.40 361.8008
1137.50 361.7364
1137.60 361.672
1137.70 361.6076
1137.80 361.5431
1137.90 361.4787
1138.00 361.4143
1138.10 361.3499
1138.20 361.2854
1138.30 361.221
1138.40 361.1566
1138.50 361.0922
1138.60 361.0277
1138.70 360.9633
1138.80 360.8989
1138.90 360.8345
1139.00 360.77
1139.10 360.7056
1139.20 360.6412
1139.30 360.6868
1139.40 360.8977
1139.50 361.1085
1139.60 361.3193
1139.70 361.5301
1139.80 361.7409
1139.90 361.9517
1140.00 362.1625
1140.10 362.3733
1140.20 362.5841
1140.30 362.7949
1140.40 363.0058
1140.50 363.2166
1140.60 363.4274
1140.70 363.6382
1140.80 363.849
1140.90 364.0598
1141.00 364.2706
1141.10 364.4814
1141.20 364.6922
1141.30 364.903
1141.40 365.1138
1141.50 365.3247
1141.60 365.5355
1141.70 365.7463
1141.80 365.9571
1141.90 366.1679
1142.00 366.3787
1142.10 366.5895
1142.20 366.8003
1142.30 367.0111
1142.40 367.2219
1142.50 367.4327
1142.60 367.6436
1142.70 367.8544
1142.80 368.0652
1142.90 368.276
1143.00 368.4868
1143.10 368.6976
1143.20 368.9084
1143.30 369.1192
1143.40 369.33
1143.50 369.6665
1143.60 370.2961
1143.70 370.9258
1143.80 371.5554
1143.90 372.1851
1144.00 372.8147
1144.10 373.4443
1144.20 374.074
1144.30 374.7036
1144.40 375.3333
1144.50 375.9629
1144.60 376.5926
1144.70 377.2222
1144.80 377.8518
1144.90 378.4815
1145.00 379.1111
1145.10 379.7408
1145.20 380.3704
1145.30 381.0001
1145.40 381.6297
1145.50 382.2593
1145.60 382.889
1145.70 383.5186
1145.80 384.1483
1145.90 384.7779
1146.00 385.4075
1146.10 386.0372
1146.20 386.6668
1146.30 387.2965
1146.40 387.9261
1146.50 388.5558
1146.60 389.1854
1146.70 389.815
1146.80 390.4447
1146.90 391.0743
1147.00 391.704
1147.10 392.3336
1147.20 392.9633
1147.30 393.5929
1147.40 394.2225
1147.50 394.8522
1147.60 395.4818
1147.70 396.0724
1147.80 396.5066
1147.90 396.9408
1148.00 397.375
1148.10 397.8092
1148.20 398.2434
1148.30 398.6776
1148.40 399.1118
1148.50 399.546
1148.60 399.9802
1148.70 400.4144
1148.80 400.8486
1148.90 401.2828
1149.00 401.717
1149.10 402.1512
1149.20 402.5854
1149.30 403.0196
1149.40 403.4538
1149.50 403.888
1149.60 404.3222
1149.70 404.7564
1149.80 405.1906
1149.90 405.6248
1150.00 406.059
1150.10 406.4932
1150.20 406.9274
1150.30 407.3616
1150.40 407.7958
1150.50 408.23
1150.60 408.6642
1150.70 409.0984
1150.80 409.5326
1150.90 409.9668
1151.00 410.401
1151.10 410.8352
1151.20 411.2694
1151.30 411.7036
1151.40 412.1378
1151.50 412.572
1151.60 413.0062
1151.70 413.4404
1151.80 413.8746
1151.90 414.3088
1152.00 414.2665
1152.10 414.2242
1152.20 414.1819
1152.30 414.1396
1152.40 414.0974
1152.50 414.0551
1152.60 414.0128
1152.70 413.9705
1152.80 413.9282
1152.90 413.8859
1153.00 413.8436
1153.10 413.8013
1153.20 413.759
1153.30 413.7168
1153.40 413.6745
1153.50 413.6322
1153.60 413.5899
1153.70 413.5476
1153.80 413.5053
1153.90 413.463
1154.00 413.4207
1154.10 413.3784
1154.20 413.3362
1154.30 413.2939
1154.40 413.2516
1154.50 413.2093
1154.60 413.167
1154.70 413.1247
1154.80 413.0824
1154.90 413.0401
1155.00 412.9978
1155.10 412.9556
1155.20 412.9133
1155.30 412.871
1155.40 412.8287
1155.50 412.7864
1155.60 412.7441
1155.70 412.7018
1155.80 412.6595
1155.90 412.6172
1156.00 412.575
1156.10 412.5327
1156.20 412.3303
1156.30 412.088
1156.40 411.8457
1156.50 411.6034
1156.60 411.361
1156.70 411.1187
1156.80 410.8764
1156.90 410.6341
1157.00 410.3917
1157.10 410.1494
1157.20 409.9071
1157.30 409.6648
1157.40 409.4224
1157.50 409.1801
1157.60 408.9378
1157.70 408.6955
1157.80 408.4531
1157.90 408.2108
1158.00 407.9685
1158.10 407.7262
1158.20 407.4838
1158.30 407.2415
1158.40 406.9992
1158.50 406.7569
1158.60 406.5145
1158.70 406.2722
1158.80 406.0299
1158.90 405.7876
1159.00 405.5452
1159.10 405.3029
1159.20 405.0606
1159.30 404.8183
1159.40 404.5759
1159.50 404.3336
1159.60 404.0913
1159.70 403.849
1159.80 403.6066
1159.90 403.3643
1160.00 403.122
1160.10 402.8797
1160.20 402.6373
1160.30 402.395
1160.40 402.1418
1160.50 401.8777
1160.60 401.6136
1160.70 401.3495
1160.80 401.0854
1160.90 400.8213
1161.00 400.5572
1161.10 400.2931
1161.20 400.029
1161.30 399.7649
1161.40 399.5008
1161.50 399.2367
1161.60 398.9726
1161.70 398.7085
1161.80 398.4445
1161.90 398.1804
1162.00 397.9163
1162.10 397.6522
1162.20 397.3881
1162.30 397.124
1162.40 396.8599
1162.50 396.5958
1162.60 396.3317
1162.70 396.0676
1162.80 395.8035
1162.90 395.5394
1163.00 395.2753
1163.10 395.0112
1163.20 394.7471
1163.30 394.483
1163.40 394.2189
1163.50 393.9548
1163.60 393.6907
1163.70 393.4266
1163.80 393.1625
1163.90 392.8984
1164.00 392.6344
1164.10 392.3703
1164.20 392.1062
1164.30 391.8421
1164.40 391.578
1164.50 391.3139
1164.60 391.0549
1164.70 390.8423
1164.80 390.6297
1164.90 390.417
1165.00 390.2044
1165.10 389.9918
1165.20 389.7791
1165.30 389.5665
1165.40 389.3539
1165.50 389.1412
1165.60 388.9286
1165.70 388.716
1165.80 388.5033
1165.90 388.2907
1166.00 388.0781
1166.10 387.8654
1166.20 387.6528
1166.30 387.4402
1166.40 387.2275
1166.50 387.0149
1166.60 386.8023
1166.70 386.5896
1166.80 386.377
1166.90 386.1644
1167.00 385.9518
1167.10 385.7391
1167.20 385.5265
1167.30 385.3139
1167.40 385.1012
1167.50 384.8886
1167.60 384.676
1167.70 384.4633
1167.80 384.2507
1167.90 384.0381
1168.00 383.8254
1168.10 383.6128
1168.20 383.4002
1168.30 383.1875
1168.40 382.9749
1168.50 382.7623
1168.60 382.5496
1168.70 382.337
1168.80 382.1244
1168.90 381.6841
1169.00 381.1464
1169.10 380.6086
1169.20 380.0709
1169.30 379.5331
1169.40 378.9953
1169.50 378.4576
1169.60 377.9198
1169.70 377.3821
1169.80 376.8443
1169.90 376.3065
1170.00 375.7688
1170.10 375.231
1170.20 374.6933
1170.30 374.1555
1170.40 373.6177
1170.50 373.08
1170.60 372.5422
1170.70 372.0045
1170.80 371.4667
1170.90 370.9289
1171.00 370.3912
1171.10 369.8534
1171.20 369.3157
1171.30 368.7779
1171.40 368.2402
1171.50 367.7024
1171.60 367.1646
1171.70 366.6269
1171.80 366.0891
1171.90 365.5514
1172.00 365.0136
1172.10 364.4758
1172.20 363.9381
1172.30 363.4003
1172.40 362.8626
1172.50 362.3248
1172.60 361.787
1172.70 361.2493
1172.80 360.7115
1172.90 360.1738
1173.00 359.636
1173.10 359.2307
1173.20 359.3553
1173.30 359.4799
1173.40 359.6045
1173.50 359.7291
1173.60 359.8537
1173.70 359.9783
1173.80 360.1029
1173.90 360.2275
1174.00 360.3521
1174.10 360.4767
1174.20 360.6013
1174.30 360.7259
1174.40 360.8505
1174.50 360.9751
1174.60 361.0997
1174.70 361.2243
1174.80 361.3489
1174.90 361.4735
1175.00 361.5981
1175.10 361.7226
1175.20 361.8472
1175.30 361.9718
1175.40 362.0964
1175.50 362.221
1175.60 362.3456
1175.70 362.4702
1175.80 362.5948
1175.90 362.7194
1176.00 362.844
1176.10 362.9686
1176.20 363.0932
1176.30 363.2178
1176.40 363.3424
1176.50 363.467
1176.60 363.5916
1176.70 363.7162
1176.80 363.8408
1176.90 363.9654
1177.00 364.09
1177.10 364.2146
1177.20 364.3392
1177.30 364.4638
1177.40 364.6387
1177.50 364.8351
1177.60 365.0315
1177.70 365.2279
1177.80 365.4243
1177.90 365.6207
1178.00 365.8171
1178.10 366.0136
1178.20 366.21
1178.30 366.4064
1178.40 366.6028
1178.50 366.7992
1178.60 366.9956
1178.70 367.192
1178.80 367.3884
1178.90 367.5849
1179.00 367.7813
1179.10 367.9777
1179.20 368.1741
1179.30 368.3705
1179.40 368.5669
1179.50 368.7633
1179.60 368.9598
1179.70 369.1562
1179.80 369.3526
1179.90 369.549
1180.00 369.7454
1180.10 369.9418
1180.20 370.1382
1180.30 370.3346
1180.40 370.5311
1180.50 370.7275
1180.60 370.9239
1180.70 371.1203
1180.80 371.3167
1180.90 371.5131
1181.00 371.7095
1181.10 371.906
1181.20 372.1024
1181.30 372.2988
1181.40 372.4952
1181.50 372.6916
1181.60 372.8975
1181.70 373.1893
1181.80 373.481
1181.90 373.7727
1182.00 374.0645
1182.10 374.3562
1182.20 374.6479
1182.30 374.9397
1182.40 375.2314
1182.50 375.5231
1182.60 375.8149
1182.70 376.1066
1182.80 376.3983
1182.90 376.6901
1183.00 376.9818
1183.10 377.2735
1183.20 377.5653
1183.30 377.857
1183.40 378.1487
1183.50 378.4405
1183.60 378.7322
1183.70 379.0239
1183.80 379.3157
1183.90 379.6074
1184.00 379.8991
1184.10 380.1909
1184.20 380.4826
1184.30 380.7743
1184.40 381.0661
1184.50 381.3578
1184.60 381.6495
1184.70 381.9413
1184.80 382.233
1184.90 382.5247
1185.00 382.8165
1185.10 383.1082
1185.20 383.3999
1185.30 383.6917
1185.40 383.9834
1185.50 384.2751
1185.60 384.5669
1185.70 384.8586
1185.80 385.1503
1185.90 385.2321
1186.00 385.104
1186.10 384.9758
1186.20 384.8477
1186.30 384.7195
1186.40 384.5914
1186.50 384.4632
1186.60 384.3351
1186.70 384.2069
1186.80 384.0788
1186.90 383.9506
1187.00 383.8225
1187.10 383.6943
1187.20 383.5662
1187.30 383.4381
1187.40 383.3099
1187.50 383.1818
1187.60 383.0536
1187.70 382.9255
1187.80 382.7973
1187.90 382.6692
1188.00 382.541
1188.10 382.4129
1188.20 382.2847
1188.30 382.1566
1188.40 382.0284
1188.50 381.9003
1188.60 381.7721
1188.70 381.644
1188.80 381.5158
1188.90 381.3877
1189.00 381.2595
1189.10 381.1314
1189.20 381.0032
1189.30 380.8751
1189.40 380.7469
1189.50 380.6188
1189.60 380.4906
1189.70 380.3625
1189.80 380.2343
1189.90 380.1062
1190.00 379.978
1190.10 379.8499
1190.20 379.5051
1190.30 379.1062
1190.40 378.7073
1190.50 378.3084
1190.60 377.9094
1190.70 377.5105
1190.80 377.1116
1190.90 376.7127
1191.00 376.3138
1191.10 375.9149
1191.20 375.5159
1191.30 375.117
1191.40 374.7181
1191.50 374.3192
1191.60 373.9203
1191.70 373.5214
1191.80 373.1224
1191.90 372.7235
1192.00 372.3246
1192.10 371.9257
1192.20 371.5268
1192.30 371.1279
1192.40 370.7289
1192.50 370.33
1192.60 369.9311
1192.70 369.5322
1192.80 369.1333
1192.90 368.7344
1193.00 368.3354
1193.10 367.9365
1193.20 367.5376
1193.30 367.1387
1193.40 366.7398
1193.50 366.3409
1193.60 365.9419
1193.70 365.543
1193.80 365.1441
1193.90 364.7452
1194.00 364.3463
1194.10 363.9474
1194.20 363.5484
1194.30 363.1495
1194.40 362.763
1194.50 362.4886
1194.60 362.2142
1194.70 361.9397
1194.80 361.6653
1194.90 361.3908
1195.00 361.1164
1195.10 360.8419
1195.20 360.5675
1195.30 360.2931
1195.40 360.0186
1195.50 359.7442
1195.60 359.4697
1195.70 359.1953
1195.80 358.9208
1195.90 358.6464
1196.00 358.3719
1196.10 358.0975
1196.20 357.8231
1196.30 357.5486
1196.40 357.2742
1196.50 356.9997
1196.60 356.7253
1196.70 356.4508
1196.80 356.1764
1196.90 355.902
1197.00 355.6275
1197.10 355.3531
1197.20 355.0786
1197.30 354.8042
1197.40 354.5297
1197.50 354.2553
1197.60 353.9809
1197.70 353.7064
1197.80 353.432
1197.90 353.1575
1198.00 352.8831
1198.10 352.6086
1198.20 352.3342
1198.30 352.0597
1198.40 351.7853
1198.50 351.5109
1198.60 351.2364
1198.70 351.0616
1198.80 351.0363
1198.90 351.011
1199.00 350.9857
1199.10 350.9604
1199.20 350.9351
1199.30 350.9098
1199.40 350.8845
1199.50 350.8592
1199.60 350.8339
1199.70 350.8086
1199.80 350.7833
1199.90 350.758
1200.00 350.7327
1200.10 350.7074
1200.20 350.6821
1200.30 350.6568
1200.40 350.6315
1200.50 350.6062
1200.60 350.5809
1200.70 350.5556
1200.80 350.5303
1200.90 350.505
1201.00 350.4797
1201.10 350.4544
1201.20 350.4291
1201.30 350.4038
1201.40 350.3786
1201.50 350.3533
1201.60 350.328
1201.70 350.3027
1201.80 350.2774
1201.90 350.2521
1202.00 350.2268
1202.10 350.2015
1202.20 350.1762
1202.30 350.1509
1202.40 350.1256
1202.50 350.1003
1202.60 350.075
1202.70 350.0497
1202.80 350.0244
1202.90 349.9991
1203.00 350.1877
1203.10 350.519
1203.20 350.8503
1203.30 351.1815
1203.40 351.5128
1203.50 351.8441
1203.60 352.1754
1203.70 352.5067
1203.80 352.8379
1203.90 353.1692
1204.00 353.5005
1204.10 353.8318
1204.20 354.163
1204.30 354.4943
1204.40 354.8256
1204.50 355.1569
1204.60 355.4881
1204.70 355.8194
1204.80 356.1507
1204.90 356.482
1205.00 356.8133
1205.10 357.1445
1205.20 357.4758
1205.30 357.8071
1205.40 358.1384
1205.50 358.4696
1205.60 358.8009
1205.70 359.1322
1205.80 359.4635
1205.90 359.7948
1206.00 360.126
1206.10 360.4573
1206.20 360.7886
1206.30 361.1199
1206.40 361.4511
1206.50 361.7824
1206.60 362.1137
1206.70 362.445
1206.80 362.7762
1206.90 363.1075
1207.00 363.4388
1207.10 363.7701
1207.20 364.1014
1207.30 364.6097
1207.40 365.1623
1207.50 365.715
1207.60 366.2676
1207.70 366.8202
1207.80 367.3728
1207.90 367.9255
1208.00 368.4781
1208.10 369.0307
1208.20 369.5833
1208.30 370.136
1208.40 370.6886
1208.50 371.2412
1208.60 371.7938
1208.70 372.3465
1208.80 372.8991
1208.90 373.4517
1209.00 374.0043
1209.10 374.557
1209.20 375.1096
1209.30 375.6622
1209.40 376.2148
1209.50 376.7675
1209.60 377.3201
1209.70 377.8727
1209.80 378.4253
1209.90 378.978
1210.00 379.5306
1210.10 380.0832
1210.20 380.6358
1210.30 381.1885
1210.40 381.7411
1210.50 382.2937
1210.60 382.8463
1210.70 383.399
1210.80 383.9516
1210.90 384.5042
1211.00 385.0568
1211.10 385.6095
1211.20 386.1621
1211.30 386.7147
1211.40 387.2673
1211.50 387.82
1211.60 388.0236
1211.70 388.1885
1211.80 388.3533
1211.90 388.5182
1212.00 388.683
1212.10 388.8479
1212.20 389.0127
1212.30 389.1776
1212.40 389.3424
1212.50 389.5073
1212.60 389.6721
1212.70 389.837
1212.80 390.0018
1212.90 390.1667
1213.00 390.3316
1213.10 390.4964
1213.20 390.6613
1213.30 390.8261
1213.40 390.991
1213.50 391.1558
1213.60 391.3207
1213.70 391.4855
1213.80 391.6504
1213.90 391.8152
1214.00 391.9801
1214.10 392.1449
1214.20 392.3098
1214.30 392.4747
1214.40 392.6395
1214.50 392.8044
1214.60 392.9692
1214.70 393.1341
1214.80 393.2989
1214.90 393.4638
1215.00 393.6286
1215.10 393.7935
1215.20 393.9583
1215.30 394.1232
1215.40 394.288
1215.50 394.4529
1215.60 394.6177
1215.70 394.7826
1215.80 394.9475
1215.90 395.4678
1216.00 395.9882
1216.10 396.5085
1216.20 397.0289
1216.30 397.5492
1216.40 398.0696
1216.50 398.5899
1216.60 399.1103
1216.70 399.6306
1216.80 400.151
1216.90 400.6714
1217.00 401.1917
1217.10 401.7121
1217.20 402.2324
1217.30 402.7528
1217.40 403.2731
1217.50 403.7935
1217.60 404.3138
1217.70 404.8342
1217.80 405.3545
1217.90 405.8749
1218.00 406.3953
1218.10 406.9156
1218.20 407.436
1218.30 407.9563
1218.40 408.4767
1218.50 408.997
1218.60 409.5174
1218.70 410.0377
1218.80 410.5581
1218.90 411.0784
1219.00 411.5988
1219.10 412.1191
1219.20 412.6395
1219.30 413.1599
1219.40 413.6802
1219.50 414.2006
1219.60 414.7209
1219.70 415.2413
1219.80 415.7616
1219.90 416.282
1220.00 416.8023
1220.10 417.2932
1220.20 417.5188
1220.30 417.7443
1220.40 417.9699
1220.50 418.1955
1220.60 418.421
1220.70 418.6466
1220.80 418.8722
1220.90 419.0977
1221.00 419.3233
1221.10 419.5489
1221.20 419.7744
1221.30 420
1221.40 420.2256
1221.50 420.4511
1221.60 420.6767
1221.70 420.9023
1221.80 421.1278
1221.90 421.3534
1222.00 421.579
1222.10 421.8045
1222.20 422.0301
1222.30 422.2557
1222.40 422.4812
1222.50 422.7068
1222.60 422.9324
1222.70 423.1579
1222.80 423.3835
1222.90 423.6091
1223.00 423.8346
1223.10 424.0602
1223.20 424.2858
1223.30 424.5113
1223.40 424.7369
1223.50 424.9625
1223.60 425.188
1223.70 425.4136
1223.80 425.6392
1223.90 425.8647
1224.00 426.0903
1224.10 426.3159
1224.20 426.5414
1224.30 426.767
1224.40 426.9631
1224.50 427.0412
1224.60 427.1194
1224.70 427.1976
1224.80 427.2757
1224.90 427.3539
1225.00 427.4321
1225.10 427.5102
1225.20 427.5884
1225.30 427.6666
1225.40 427.7447
1225.50 427.8229
1225.60 427.9011
1225.70 427.9792
1225.80 428.0574
1225.90 428.1356
1226.00 428.2137
1226.10 428.2919
1226.20 428.3701
1226.30 428.4482
1226.40 428.5264
1226.50 428.6046
1226.60 428.6827
1226.70 428.7609
1226.80 428.8391
1226.90 428.9172
1227.00 428.9954
1227.10 429.0736
1227.20 429.1517
1227.30 429.2299
1227.40 429.3081
1227.50 429.3862
1227.60 429.4644
1227.70 429.5425
1227.80 429.6207
1227.90 429.6989
1228.00 429.777
1228.10 429.8552
1228.20 429.9334
1228.30 430.0115
1228.40 430.0897
1228.50 430.1679
1228.60 430.246
1228.70 430.255
1228.80 429.9873
1228.90 429.7195
1229.00 429.4518
1229.10 429.184
1229.20 428.9163
1229.30 428.6485
1229.40 428.3807
1229.50 428.113
1229.60 427.8452
1229.70 427.5775
1229.80 427.3097
1229.90 427.042
1230.00 426.7742
1230.10 426.5065
1230.20 426.2387
1230.30 425.971
1230.40 425.7032
1230.50 425.4355
1230.60 425.1677
1230.70 424.8999
1230.80 424.6322
1230.90 424.3644
1231.00 424.0967
1231.10 423.8289
1231.20 423.5612
1231.30 423.2934
1231.40 423.0257
1231.50 422.7579
1231.60 422.4902
1231.70 422.2224
1231.80 421.9547
1231.90 421.6869
1232.00 421.4191
1232.10 421.1514
1232.20 420.8836
1232.30 420.6159
1232.40 420.3481
1232.50 420.0804
1232.60 419.8126
1232.70 419.5449
1232.80 419.2771
1232.90 419.0094
1233.00 418.7057
1233.10 418.2585
1233.20 417.8113
1233.30 417.364
1233.40 416.9168
1233.50 416.4696
1233.60 416.0223
1233.70 415.5751
1233.80 415.1279
1233.90 414.6807
1234.00 414.2334
1234.10 413.7862
1234.20 413.339
1234.30 412.8917
1234.40 412.4445
1234.50 411.9973
1234.60 411.5501
1234.70 411.1028
1234.80 410.6556
1234.90 410.2084
1235.00 409.7611
1235.10 409.3139
1235.20 408.8667
1235.30 408.4195
1235.40 407.9722
1235.50 407.525
1235.60 407.0778
1235.70 406.6305
1235.80 406.1833
1235.90 405.7361
1236.00 405.2888
1236.10 404.8416
1236.20 404.3944
1236.30 403.9472
1236.40 403.4999
1236.50 403.0527
1236.60 402.6055
1236.70 402.1582
1236.80 401.711
1236.90 401.2638
1237.00 400.8166
1237.10 400.3693
1237.20 399.9221
1237.30 399.5164
1237.40 399.2767
1237.50 399.0369
1237.60 398.7972
1237.70 398.5575
1237.80 398.3178
1237.90 398.078
1238.00 397.8383
1238.10 397.5986
1238.20 397.3589
1238.30 397.1191
1238.40 396.8794
1238.50 396.6397
1238.60 396.4
1238.70 396.1603
1238.80 395.9205
1238.90 395.6808
1239.00 395.4411
1239.10 395.2014
1239.20 394.9616
1239.30 394.7219
1239.40 394.4822
1239.50 394.2425
1239.60 394.0028
1239.70 393.763
1239.80 393.5233
1239.90 393.2836
1240.00 393.0439
1240.10 392.8041
1240.20 392.5644
1240.30 392.3247
1240.40 392.085
1240.50 391.8453
1240.60 391.6055
1240.70 391.3658
1240.80 391.1261
1240.90 390.8864
1241.00 390.6466
1241.10 390.4069
1241.20 390.1672
1241.30 389.9275
1241.40 389.6877
1241.50 389.448
1241.60 389.2128
1241.70 389.0185
1241.80 388.8241
1241.90 388.6297
1242.00 388.4353
1242.10 388.2409
1242.20 388.0466
1242.30 387.8522
1242.40 387.6578
1242.50 387.4634
1242.60 387.2691
1242.70 387.0747
1242.80 386.8803
1242.90 386.6859
1243.00 386.4915
1243.10 386.2972
1243.20 386.1028
1243.30 385.9084
1243.40 385.714
1243.50 385.5196
1243.60 385.3253
1243.70 385.1309
1243.80 384.9365
1243.90 384.7421
1244.00 384.5478
1244.10 384.3534
1244.20 384.159
1244.30 383.9646
1244.40 383.7702
1244.50 383.5759
1244.60 383.3815
1244.70 383.1871
1244.80 382.9927
1244.90 382.7984
1245.00 382.604
1245.10 382.4096
1245.20 382.2152
1245.30 382.0208
1245.40 381.8265
1245.50 381.6321
1245.60 381.4377
1245.70 381.2433
1245.80 381.049
1245.90 380.8546
1246.00 381.2274
1246.10 381.6003
1246.20 381.9731
1246.30 382.346
1246.40 382.7188
1246.50 383.0917
1246.60 383.4645
1246.70 383.8374
1246.80 384.2102
1246.90 384.5831
1247.00 384.9559
1247.10 385.3288
1247.20 385.7016
1247.30 386.0745
1247.40 386.4473
1247.50 386.8202
1247.60 387.1931
1247.70 387.5659
1247.80 387.9388
1247.90 388.3116
1248.00 388.6845
1248.10 389.0573
1248.20 389.4302
1248.30 389.803
1248.40 390.1759
1248.50 390.5487
1248.60 390.9216
1248.70 391.2944
1248.80 391.6673
1248.90 392.0401
1249.00 392.413
1249.10 392.7858
1249.20 393.1587
1249.30 393.5315
1249.40 393.9044
1249.50 394.2772
1249.60 394.6501
1249.70 395.0229
1249.80 395.3958
1249.90 395.7686
1250.00 396.1415
1250.10 396.5143
1250.20 396.8872
1250.30 397.2014
1250.40 397.5156
1250.50 397.8298
1250.60 398.144
1250.70 398.4582
1250.80 398.7724
1250.90 399.0866
1251.00 399.4008
1251.10 399.715
1251.20 400.0292
1251.30 400.3434
1251.40 400.6576
1251.50 400.9718
1251.60 401.286
1251.70 401.6002
1251.80 401.9144
1251.90 402.2286
1252.00 402.5428
1252.10 402.857
1252.20 403.1712
1252.30 403.4854
1252.40 403.7996
1252.50 404.1139
1252.60 404.4281
1252.70 404.7423
1252.80 405.0565
1252.90 405.3707
1253.00 405.6849
1253.10 405.9991
1253.20 406.3133
1253.30 406.6275
1253.40 406.9417
1253.50 407.2559
1253.60 407.5701
1253.70 407.8843
1253.80 408.1985
1253.90 408.5127
1254.00 408.8269
1254.10 409.1411
1254.20 409.4553
1254.30 409.7695
1254.40 410.0837
1254.50 410.3979
1254.60 410.9143
1254.70 411.4531
1254.80 411.992
1254.90 412.5308
1255.00 413.0697
1255.10 413.6085
1255.20 414.1474
1255.30 414.6862
1255.40 415.2251
1255.50 415.7639
1255.60 416.3028
1255.70 416.8416
1255.80 417.3805
1255.90 417.9193
1256.00 418.4582
1256.10 418.997
1256.20 419.5359
1256.30 420.0747
1256.40 420.6136
1256.50 421.1524
1256.60 421.6912
1256.70 422.2301
1256.80 422.7689
1256.90 423.3078
1257.00 423.8466
1257.10 424.3855
1257.20 424.9243
1257.30 425.4632
1257.40 426.002
1257.50 426.5409
1257.60 427.0797
1257.70 427.6186
1257.80 428.1574
1257.90 428.6963
1258.00 429.2351
1258.10 429.774
1258.20 430.3128
1258.30 430.8517
1258.40 431.3905
1258.50 431.9294
1258.60 432.4682
1258.70 433.0071
1258.80 433.5459
1258.90 434.1043
1259.00 434.6711
1259.10 435.2379
1259.20 435.8047
1259.30 436.3715
1259.40 436.9383
1259.50 437.505
1259.60 438.0718
1259.70 438.6386
1259.80 439.2054
1259.90 439.7722
1260.00 440.339
1260.10 440.9058
1260.20 441.4726
1260.30 442.0394
1260.40 442.6061
1260.50 443.1729
1260.60 443.7397
1260.70 444.3065
1260.80 444.8733
1260.90 445.4401
1261.00 446.0069
1261.10 446.5737
1261.20 447.1404
1261.30 447.7072
1261.40 448.274
1261.50 448.8408
1261.60 449.4076
1261.70 449.9744
1261.80 450.5412
1261.90 451.108
1262.00 451.6748
1262.10 452.2415
1262.20 452.8083
1262.30 453.3751
1262.40 453.9419
1262.50 454.5087
1262.60 455.0755
1262.70 455.6423
1262.80 456.2091
1262.90 456.7758
1263.00 457.3426
1263.10 457.9094
1263.20 458.3369
1263.30 458.6716
1263.40 459.0062
1263.50 459.3409
1263.60 459.6756
1263.70 460.0102
1263.80 460.3449
1263.90 460.6795
1264.00 461.0142
1264.10 461.3488
1264.20 461.6835
1264.30 462.0182
1264.40 462.3528
1264.50 462.6875
1264.60 463.0221
1264.70 463.3568
1264.80 463.6914
1264.90 464.0261
1265.00 464.3608
1265.10 464.6954
1265.20 465.0301
1265.30 465.3647
1265.40 465.6994
1265.50 466.034
1265.60 466.3687
1265.70 466.7034
1265.80 467.038
1265.90 467.3727
1266.00 467.7073
1266.10 468.042
1266.20 468.3766
1266.30 468.7113
1266.40 469.0459
1266.50 469.3806
1266.60 469.7153
1266.70 470.0499
1266.80 470.3846
1266.90 470.7192
1267.00 471.0539
1267.10 471.3885
1267.20 471.7232
1267.30 472.0579
1267.40 472.3925
1267.50 472.7083
1267.60 473.0052
1267.70 473.3021
1267.80 473.599
1267.90 473.8959
1268.00 474.1928
1268.10 474.4897
1268.20 474.7866
1268.30 475.0835
1268.40 475.3804
1268.50 475.6773
1268.60 475.9742
1268.70 476.2711
1268.80 476.568
1268.90 476.8649
1269.00 477.1618
1269.10 477.4587
1269.20 477.7556
1269.30 478.0525
1269.40 478.3494
1269.50 478.6463
1269.60 478.9432
1269.70 479.2401
1269.80 479.5371
1269.90 479.834
1270.00 480.1309
1270.10 480.4278
1270.20 480.7247
1270.30 481.0216
1270.40 481.3185
1270.50 481.6154
1270.60 481.9123
1270.70 482.2092
1270.80 482.5061
1270.90 482.803
1271.00 483.0999
1271.10 483.3968
1271.20 483.6937
1271.30 483.9906
1271.40 484.2875
1271.50 484.5844
1271.60 484.8813
1271.70 485.1782
1271.80 485.3927
1271.90 485.4149
1272.00 485.437
1272.10 485.4592
1272.20 485.4814
1272.30 485.5036
1272.40 485.5258
1272.50 485.548
1272.60 485.5701
1272.70 485.5923
1272.80 485.6145
1272.90 485.6367
1273.00 485.6589
1273.10 485.681
1273.20 485.7032
1273.30 485.7254
1273.40 485.7476
1273.50 485.7698
1273.60 485.792
1273.70 485.8141
1273.80 485.8363
1273.90 485.8585
1274.00 485.8807
1274.10 485.9029
1274.20 485.925
1274.30 485.9472
1274.40 485.9694
1274.50 485.9916
1274.60 486.0138
1274.70 486.0359
1274.80 486.0581
1274.90 486.0803
1275.00 486.1025
1275.10 486.1247
1275.20 486.1469
1275.30 486.169
1275.40 486.1912
1275.50 486.2134
1275.60 486.2356
1275.70 486.2578
1275.80 486.2799
1275.90 486.3021
1276.00 486.3243
1276.10 486.3311
1276.20 486.2
1276.30 486.0688
1276.40 485.9376
1276.50 485.8065
1276.60 485.6753
1276.70 485.5441
1276.80 485.4129
1276.90 485.2818
1277.00 485.1506
1277.10 485.0194
1277.20 484.8882
1277.30 484.7571
1277.40 484.6259
1277.50 484.4947
1277.60 484.3635
1277.70 484.2324
1277.80 484.1012
1277.90 483.97
1278.00 483.8389
1278.10 483.7077
1278.20 483.5765
1278.30 483.4453
1278.40 483.3142
1278.50 483.183
1278.60 483.0518
1278.70 482.9206
1278.80 482.7895
1278.90 482.6583
1279.00 482.5271
1279.10 482.3959
1279.20 482.2648
1279.30 482.1336
1279.40 482.0024
1279.50 481.8712
1279.60 481.7401
1279.70 481.6089
1279.80 481.4777
1279.90 481.3466
1280.00 481.2154
1280.10 481.0842
1280.20 480.953
1280.30 480.8219
1280.40 480.6907
1280.50 480.6758
1280.60 480.6609
1280.70 480.646
1280.80 480.6311
1280.90 480.6162
1281.00 480.6013
1281.10 480.5864
1281.20 480.5715
1281.30 480.5566
1281.40 480.5418
1281.50 480.5269
1281.60 480.512
1281.70 480.4971
1281.80 480.4822
1281.90 480.4673
1282.00 480.4524
1282.10 480.4375
1282.20 480.4226
1282.30 480.4077
1282.40 480.3928
1282.50 480.3779
1282.60 480.363
1282.70 480.3481
1282.80 480.3332
1282.90 480.3184
1283.00 480.3035
1283.10 480.2886
1283.20 480.2737
1283.30 480.2588
1283.40 480.2439
1283.50 480.229
1283.60 480.2141
1283.70 480.1992
1283.80 480.1843
1283.90 480.1694
1284.00 480.1545
1284.10 480.1396
1284.20 480.1247
1284.30 480.1099
1284.40 480.095
1284.50 480.0801
1284.60 480.0652
1284.70 480.0503
1284.80 480.1254
1284.90 480.223
1285.00 480.3206
1285.10 480.4182
1285.20 480.5158
1285.30 480.6134
1285.40 480.711
1285.50 480.8086
1285.60 480.9062
1285.70 481.0038
1285.80 481.1014
1285.90 481.199
1286.00 481.2966
1286.10 481.3942
1286.20 481.4917
1286.30 481.5893
1286.40 481.6869
1286.50 481.7845
1286.60 481.8821
1286.70 481.9797
1286.80 482.0773
1286.90 482.1749
1287.00 482.2725
1287.10 482.3701
1287.20 482.4677
1287.30 482.5653
1287.40 482.6629
1287.50 482.7605
1287.60 482.8581
1287.70 482.9557
1287.80 483.0533
1287.90 483.1509
1288.00 483.2485
1288.10 483.3461
1288.20 483.4437
1288.30 483.5413
1288.40 483.6389
1288.50 483.7365
1288.60 483.8341
1288.70 483.9317
1288.80 484.0293
1288.90 484.1269
1289.00 484.2245
1289.10 484.1345
1289.20 483.9194
1289.30 483.7043
1289.40 483.4893
1289.50 483.2742
1289.60 483.0591
1289.70 482.844
1289.80 482.629
1289.90 482.4139
1290.00 482.1988
1290.10 481.9837
1290.20 481.7687
1290.30 481.5536
1290.40 481.3385
1290.50 481.1234
1290.60 480.9084
1290.70 480.6933
1290.80 480.4782
1290.90 480.2631
1291.00 480.0481
1291.10 479.833
1291.20 479.6179
1291.30 479.4028
1291.40 479.1878
1291.50 478.9727
1291.60 478.7576
1291.70 478.5425
1291.80 478.3275
1291.90 478.1124
1292.00 477.8973
1292.10 477.6822
1292.20 477.4672
1292.30 477.2521
1292.40 477.037
1292.50 476.822
1292.60 476.6069
1292.70 476.3918
1292.80 476.1767
1292.90 475.9617
1293.00 475.7466
1293.10 475.5315
1293.20 475.3164
1293.30 475.1014
1293.40 474.9558
1293.50 474.9146
1293.60 474.8733
1293.70 474.8321
1293.80 474.7908
1293.90 474.7496
1294.00 474.7083
1294.10 474.6671
1294.20 474.6258
1294.30 474.5846
1294.40 474.5433
1294.50 474.5021
1294.60 474.4609
1294.70 474.4196
1294.80 474.3784
1294.90 474.3371
1295.00 474.2959
1295.10 474.2546
1295.20 474.2134
1295.30 474.1721
1295.40 474.1309
1295.50 474.0896
1295.60 474.0484
1295.70 474.0071
1295.80 473.9659
1295.90 473.9246
1296.00 473.8834
1296.10 473.8422
1296.20 473.8009
1296.30 473.7597
1296.40 473.7184
1296.50 473.6772
1296.60 473.6359
1296.70 473.5947
1296.80 473.5534
1296.90 473.5122
1297.00 473.4709
1297.10 473.4297
1297.20 473.3884
1297.30 473.3472
1297.40 473.3059
1297.50 473.2647
1297.60 473.2234
1297.70 473.1992
1297.80 473.2427
1297.90 473.2862
1298.00 473.3298
1298.10 473.3733
1298.20 473.4169
1298.30 473.4604
1298.40 473.504
1298.50 473.5475
1298.60 473.5911
1298.70 473.6346
1298.80 473.6782
1298.90 473.7217
1299.00 473.7652
1299.10 473.8088
1299.20 473.8523
1299.30 473.8959
1299.40 473.9394
1299.50 473.983
1299.60 474.0265
1299.70 474.0701
1299.80 474.1136
1299.90 474.1571
