# Version 2.1 - nm, norm@500 to 1, cut digits
# Wavelength(nm)  Flambda(ergs/cm^s/s/nm)
300.00 1.813492e-95
300.10 1.813492e-95
300.20 1.813492e-95
300.30 1.813492e-95
300.40 1.813492e-95
300.50 1.813492e-95
300.60 1.813492e-95
300.70 1.813492e-95
300.80 1.813492e-95
300.90 1.813492e-95
301.00 1.813492e-95
301.10 1.813492e-95
301.20 1.813492e-95
301.30 1.813492e-95
301.40 1.813492e-95
301.50 1.813492e-95
301.60 1.813492e-95
301.70 1.813492e-95
301.80 1.813492e-95
301.90 1.813492e-95
302.00 1.813492e-95
302.10 1.813492e-95
302.20 1.813492e-95
302.30 1.813492e-95
302.40 1.813492e-95
302.50 1.813492e-95
302.60 1.813492e-95
302.70 1.813492e-95
302.80 1.813492e-95
302.90 1.813492e-95
303.00 1.813492e-95
303.10 1.813492e-95
303.20 1.813492e-95
303.30 1.813492e-95
303.40 1.813492e-95
303.50 1.813492e-95
303.60 1.813492e-95
303.70 1.813492e-95
303.80 1.813492e-95
303.90 1.813492e-95
304.00 1.813492e-95
304.10 1.813492e-95
304.20 1.813492e-95
304.30 1.813492e-95
304.40 1.813492e-95
304.50 1.813492e-95
304.60 1.813492e-95
304.70 1.813492e-95
304.80 1.813492e-95
304.90 1.813492e-95
305.00 1.813492e-95
305.10 1.813492e-95
305.20 1.813492e-95
305.30 1.813492e-95
305.40 1.813492e-95
305.50 1.813492e-95
305.60 1.813492e-95
305.70 1.813492e-95
305.80 1.813492e-95
305.90 1.813492e-95
306.00 1.813492e-95
306.10 1.813492e-95
306.20 1.813492e-95
306.30 1.813492e-95
306.40 1.813492e-95
306.50 1.813492e-95
306.60 1.813492e-95
306.70 1.813492e-95
306.80 1.813492e-95
306.90 1.813492e-95
307.00 1.813492e-95
307.10 1.813492e-95
307.20 1.813492e-95
307.30 1.813492e-95
307.40 1.813492e-95
307.50 1.813492e-95
307.60 1.813492e-95
307.70 1.813492e-95
307.80 1.813492e-95
307.90 1.813492e-95
308.00 1.813492e-95
308.10 1.813492e-95
308.20 1.813492e-95
308.30 1.813492e-95
308.40 1.813492e-95
308.50 1.813492e-95
308.60 1.813492e-95
308.70 1.813492e-95
308.80 1.813492e-95
308.90 1.813492e-95
309.00 1.813492e-95
309.10 1.813492e-95
309.20 1.813492e-95
309.30 1.813492e-95
309.40 1.813492e-95
309.50 1.813492e-95
309.60 1.813492e-95
309.70 1.813492e-95
309.80 1.813492e-95
309.90 1.813492e-95
310.00 1.813492e-95
310.10 1.813492e-95
310.20 1.813492e-95
310.30 1.813492e-95
310.40 1.813492e-95
310.50 1.813492e-95
310.60 1.813492e-95
310.70 1.813492e-95
310.80 1.813492e-95
310.90 1.813492e-95
311.00 1.813492e-95
311.10 1.813492e-95
311.20 1.813492e-95
311.30 1.813492e-95
311.40 1.813492e-95
311.50 1.813492e-95
311.60 1.813492e-95
311.70 1.813492e-95
311.80 1.813492e-95
311.90 1.813492e-95
312.00 1.813492e-95
312.10 1.813492e-95
312.20 1.813492e-95
312.30 1.813492e-95
312.40 1.813492e-95
312.50 1.813492e-95
312.60 1.813492e-95
312.70 1.813492e-95
312.80 1.813492e-95
312.90 1.813492e-95
313.00 1.813492e-95
313.10 1.813492e-95
313.20 1.813492e-95
313.30 1.813492e-95
313.40 1.813492e-95
313.50 1.813492e-95
313.60 1.813492e-95
313.70 1.813492e-95
313.80 1.813492e-95
313.90 1.813492e-95
314.00 1.813492e-95
314.10 1.813492e-95
314.20 1.813492e-95
314.30 1.813492e-95
314.40 1.813492e-95
314.50 1.813492e-95
314.60 1.813492e-95
314.70 1.813492e-95
314.80 1.813492e-95
314.90 1.813492e-95
315.00 1.813492e-95
315.10 1.813492e-95
315.20 1.813492e-95
315.30 1.813492e-95
315.40 1.813492e-95
315.50 1.813492e-95
315.60 1.813492e-95
315.70 1.813492e-95
315.80 1.813492e-95
315.90 1.813492e-95
316.00 1.813492e-95
316.10 1.813492e-95
316.20 1.813492e-95
316.30 1.813492e-95
316.40 1.813492e-95
316.50 1.813492e-95
316.60 1.813492e-95
316.70 1.813492e-95
316.80 1.813492e-95
316.90 1.813492e-95
317.00 1.813492e-95
317.10 1.813492e-95
317.20 1.813492e-95
317.30 1.813492e-95
317.40 1.813492e-95
317.50 1.813492e-95
317.60 1.813492e-95
317.70 1.813492e-95
317.80 1.813492e-95
317.90 1.813492e-95
318.00 1.813492e-95
318.10 1.813492e-95
318.20 1.813492e-95
318.30 1.813492e-95
318.40 1.813492e-95
318.50 1.813492e-95
318.60 1.813492e-95
318.70 1.813492e-95
318.80 1.813492e-95
318.90 1.813492e-95
319.00 1.813492e-95
319.10 1.813492e-95
319.20 1.813492e-95
319.30 1.813492e-95
319.40 1.813492e-95
319.50 1.813492e-95
319.60 1.813492e-95
319.70 1.813492e-95
319.80 1.813492e-95
319.90 1.813492e-95
320.00 1.813492e-95
320.10 1.813492e-95
320.20 1.813492e-95
320.30 1.813492e-95
320.40 1.813492e-95
320.50 1.813492e-95
320.60 1.813492e-95
320.70 1.813492e-95
320.80 1.813492e-95
320.90 1.813492e-95
321.00 1.813492e-95
321.10 1.813492e-95
321.20 1.813492e-95
321.30 1.813492e-95
321.40 1.813492e-95
321.50 1.813492e-95
321.60 1.813492e-95
321.70 1.813492e-95
321.80 1.813492e-95
321.90 1.813492e-95
322.00 1.813492e-95
322.10 1.813492e-95
322.20 1.813492e-95
322.30 1.813492e-95
322.40 1.813492e-95
322.50 1.813492e-95
322.60 1.813492e-95
322.70 1.813492e-95
322.80 1.813492e-95
322.90 1.813492e-95
323.00 1.813492e-95
323.10 1.813492e-95
323.20 1.813492e-95
323.30 1.813492e-95
323.40 1.813492e-95
323.50 1.813492e-95
323.60 1.813492e-95
323.70 1.813492e-95
323.80 1.813492e-95
323.90 1.813492e-95
324.00 1.813492e-95
324.10 1.813492e-95
324.20 1.813492e-95
324.30 1.813492e-95
324.40 1.813492e-95
324.50 1.813492e-95
324.60 1.813492e-95
324.70 1.813492e-95
324.80 1.813492e-95
324.90 1.813492e-95
325.00 1.813492e-95
325.10 1.813492e-95
325.20 1.813492e-95
325.30 1.813492e-95
325.40 1.813492e-95
325.50 1.813492e-95
325.60 1.813492e-95
325.70 1.813492e-95
325.80 1.813492e-95
325.90 1.813492e-95
326.00 1.813492e-95
326.10 1.813492e-95
326.20 1.813492e-95
326.30 1.813492e-95
326.40 1.813492e-95
326.50 1.813492e-95
326.60 1.813492e-95
326.70 1.813492e-95
326.80 1.813492e-95
326.90 1.813492e-95
327.00 1.813492e-95
327.10 1.813492e-95
327.20 1.813492e-95
327.30 1.813492e-95
327.40 1.813492e-95
327.50 1.813492e-95
327.60 1.813492e-95
327.70 1.813492e-95
327.80 1.813492e-95
327.90 1.813492e-95
328.00 1.813492e-95
328.10 1.813492e-95
328.20 1.813492e-95
328.30 1.813492e-95
328.40 1.813492e-95
328.50 1.813492e-95
328.60 1.813492e-95
328.70 1.813492e-95
328.80 1.813492e-95
328.90 1.813492e-95
329.00 1.813492e-95
329.10 1.813492e-95
329.20 1.813492e-95
329.30 1.813492e-95
329.40 1.813492e-95
329.50 1.813492e-95
329.60 1.813492e-95
329.70 1.813492e-95
329.80 1.813492e-95
329.90 1.813492e-95
330.00 1.813492e-95
330.10 1.813492e-95
330.20 1.813492e-95
330.30 1.813492e-95
330.40 1.813492e-95
330.50 1.813492e-95
330.60 1.813492e-95
330.70 1.813492e-95
330.80 1.813492e-95
330.90 1.813492e-95
331.00 1.813492e-95
331.10 1.813492e-95
331.20 1.813492e-95
331.30 1.813492e-95
331.40 1.813492e-95
331.50 1.813492e-95
331.60 1.813492e-95
331.70 1.813492e-95
331.80 1.813492e-95
331.90 1.813492e-95
332.00 1.813492e-95
332.10 1.813492e-95
332.20 1.813492e-95
332.30 1.813492e-95
332.40 1.813492e-95
332.50 1.813492e-95
332.60 1.813492e-95
332.70 1.813492e-95
332.80 1.813492e-95
332.90 1.813492e-95
333.00 1.813492e-95
333.10 1.813492e-95
333.20 1.813492e-95
333.30 1.813492e-95
333.40 1.813492e-95
333.50 1.813492e-95
333.60 1.813492e-95
333.70 1.813492e-95
333.80 1.813492e-95
333.90 1.813492e-95
334.00 1.813492e-95
334.10 1.813492e-95
334.20 1.813492e-95
334.30 1.813492e-95
334.40 1.813492e-95
334.50 1.813492e-95
334.60 1.813492e-95
334.70 1.813492e-95
334.80 1.813492e-95
334.90 1.813492e-95
335.00 1.813492e-95
335.10 1.813492e-95
335.20 1.813492e-95
335.30 1.813492e-95
335.40 1.813492e-95
335.50 1.813492e-95
335.60 1.813492e-95
335.70 1.813492e-95
335.80 1.813492e-95
335.90 1.813492e-95
336.00 1.813492e-95
336.10 1.813492e-95
336.20 1.813492e-95
336.30 1.813492e-95
336.40 1.813492e-95
336.50 1.813492e-95
336.60 1.813492e-95
336.70 1.813492e-95
336.80 1.813492e-95
336.90 1.813492e-95
337.00 1.813492e-95
337.10 1.813492e-95
337.20 1.813492e-95
337.30 1.813492e-95
337.40 1.813492e-95
337.50 1.813492e-95
337.60 1.813492e-95
337.70 1.813492e-95
337.80 1.813492e-95
337.90 1.813492e-95
338.00 1.813492e-95
338.10 1.813492e-95
338.20 1.813492e-95
338.30 1.813492e-95
338.40 1.813492e-95
338.50 1.813492e-95
338.60 1.813492e-95
338.70 1.813492e-95
338.80 1.813492e-95
338.90 1.813492e-95
339.00 1.813492e-95
339.10 1.813492e-95
339.20 1.813492e-95
339.30 1.813492e-95
339.40 1.813492e-95
339.50 1.813492e-95
339.60 1.813492e-95
339.70 1.813492e-95
339.80 1.813492e-95
339.90 1.813492e-95
340.00 1.813492e-95
340.10 1.813492e-95
340.20 1.813492e-95
340.30 1.813492e-95
340.40 1.813492e-95
340.50 1.813492e-95
340.60 1.813492e-95
340.70 1.813492e-95
340.80 1.813492e-95
340.90 1.813492e-95
341.00 1.813492e-95
341.10 1.813492e-95
341.20 1.813492e-95
341.30 1.813492e-95
341.40 1.813492e-95
341.50 1.813492e-95
341.60 1.813492e-95
341.70 1.813492e-95
341.80 1.813492e-95
341.90 1.813492e-95
342.00 1.813492e-95
342.10 1.813492e-95
342.20 1.813492e-95
342.30 1.813492e-95
342.40 1.813492e-95
342.50 1.813492e-95
342.60 1.813492e-95
342.70 1.813492e-95
342.80 1.813492e-95
342.90 1.813492e-95
343.00 1.813492e-95
343.10 1.813492e-95
343.20 1.813492e-95
343.30 1.813492e-95
343.40 1.813492e-95
343.50 1.813492e-95
343.60 1.813492e-95
343.70 1.813492e-95
343.80 1.813492e-95
343.90 1.813492e-95
344.00 1.813492e-95
344.10 1.813492e-95
344.20 1.813492e-95
344.30 1.813492e-95
344.40 1.813492e-95
344.50 1.813492e-95
344.60 1.813492e-95
344.70 1.813492e-95
344.80 1.813492e-95
344.90 1.813492e-95
345.00 1.813492e-95
345.10 1.813492e-95
345.20 1.813492e-95
345.30 1.813492e-95
345.40 1.813492e-95
345.50 1.813492e-95
345.60 1.813492e-95
345.70 1.813492e-95
345.80 1.813492e-95
345.90 1.813492e-95
346.00 1.813492e-95
346.10 1.813492e-95
346.20 1.813492e-95
346.30 1.813492e-95
346.40 1.813492e-95
346.50 1.813492e-95
346.60 1.813492e-95
346.70 1.813492e-95
346.80 1.813492e-95
346.90 1.813492e-95
347.00 1.813492e-95
347.10 1.813492e-95
347.20 1.813492e-95
347.30 1.813492e-95
347.40 1.813492e-95
347.50 1.813492e-95
347.60 1.813492e-95
347.70 1.813492e-95
347.80 1.813492e-95
347.90 1.813492e-95
348.00 1.813492e-95
348.10 1.813492e-95
348.20 1.813492e-95
348.30 1.813492e-95
348.40 1.813492e-95
348.50 1.813492e-95
348.60 1.813492e-95
348.70 1.813492e-95
348.80 1.813492e-95
348.90 1.813492e-95
349.00 1.813492e-95
349.10 1.813492e-95
349.20 1.813492e-95
349.30 1.813492e-95
349.40 1.813492e-95
349.50 1.813492e-95
349.60 1.813492e-95
349.70 1.813492e-95
349.80 1.813492e-95
349.90 1.813492e-95
350.00 1.813492e-95
350.10 1.813492e-95
350.20 1.813492e-95
350.30 1.813492e-95
350.40 1.813492e-95
350.50 1.813492e-95
350.60 1.813492e-95
350.70 1.813492e-95
350.80 1.813492e-95
350.90 1.813492e-95
351.00 1.813492e-95
351.10 1.813492e-95
351.20 1.813492e-95
351.30 1.813492e-95
351.40 1.813492e-95
351.50 1.813492e-95
351.60 1.813492e-95
351.70 1.813492e-95
351.80 1.813492e-95
351.90 1.813492e-95
352.00 1.813492e-95
352.10 1.813492e-95
352.20 1.813492e-95
352.30 1.813492e-95
352.40 1.813492e-95
352.50 1.813492e-95
352.60 1.813492e-95
352.70 1.813492e-95
352.80 1.813492e-95
352.90 1.813492e-95
353.00 1.813492e-95
353.10 1.813492e-95
353.20 1.813492e-95
353.30 1.813492e-95
353.40 1.813492e-95
353.50 1.813492e-95
353.60 1.813492e-95
353.70 1.813492e-95
353.80 1.813492e-95
353.90 1.813492e-95
354.00 1.813492e-95
354.10 1.813492e-95
354.20 1.813492e-95
354.30 1.813492e-95
354.40 1.813492e-95
354.50 1.813492e-95
354.60 1.813492e-95
354.70 1.813492e-95
354.80 1.813492e-95
354.90 1.813492e-95
355.00 1.813492e-95
355.10 1.813492e-95
355.20 1.813492e-95
355.30 1.813492e-95
355.40 1.813492e-95
355.50 1.813492e-95
355.60 1.813492e-95
355.70 1.813492e-95
355.80 1.813492e-95
355.90 1.813492e-95
356.00 1.813492e-95
356.10 1.813492e-95
356.20 1.813492e-95
356.30 1.813492e-95
356.40 1.813492e-95
356.50 1.813492e-95
356.60 1.813492e-95
356.70 1.813492e-95
356.80 1.813492e-95
356.90 1.813492e-95
357.00 1.813492e-95
357.10 1.813492e-95
357.20 1.813492e-95
357.30 1.813492e-95
357.40 1.813492e-95
357.50 1.813492e-95
357.60 1.813492e-95
357.70 1.813492e-95
357.80 1.813492e-95
357.90 1.813492e-95
358.00 1.813492e-95
358.10 1.813492e-95
358.20 1.813492e-95
358.30 1.813492e-95
358.40 1.813492e-95
358.50 1.813492e-95
358.60 1.813492e-95
358.70 1.813492e-95
358.80 1.813492e-95
358.90 1.813492e-95
359.00 1.813492e-95
359.10 1.813492e-95
359.20 1.813492e-95
359.30 1.813492e-95
359.40 1.813492e-95
359.50 1.813492e-95
359.60 1.813492e-95
359.70 1.813492e-95
359.80 1.813492e-95
359.90 1.813492e-95
360.00 1.813492e-95
360.10 1.813492e-95
360.20 1.813492e-95
360.30 1.813492e-95
360.40 1.813492e-95
360.50 1.813492e-95
360.60 1.813492e-95
360.70 1.813492e-95
360.80 1.813492e-95
360.90 1.813492e-95
361.00 1.813492e-95
361.10 1.813492e-95
361.20 1.813492e-95
361.30 1.813492e-95
361.40 1.813492e-95
361.50 1.813492e-95
361.60 1.813492e-95
361.70 1.813492e-95
361.80 1.813492e-95
361.90 1.813492e-95
362.00 1.813492e-95
362.10 1.813492e-95
362.20 1.813492e-95
362.30 1.813492e-95
362.40 1.813492e-95
362.50 1.813492e-95
362.60 1.813492e-95
362.70 1.813492e-95
362.80 1.813492e-95
362.90 1.813492e-95
363.00 1.813492e-95
363.10 1.813492e-95
363.20 1.813492e-95
363.30 1.813492e-95
363.40 1.813492e-95
363.50 1.813492e-95
363.60 1.813492e-95
363.70 1.813492e-95
363.80 1.813492e-95
363.90 1.813492e-95
364.00 1.813492e-95
364.10 1.813492e-95
364.20 1.813492e-95
364.30 1.813492e-95
364.40 1.813492e-95
364.50 1.813492e-95
364.60 1.813492e-95
364.70 1.813492e-95
364.80 1.813492e-95
364.90 1.813492e-95
365.00 1.813492e-95
365.10 1.813492e-95
365.20 1.813492e-95
365.30 1.813492e-95
365.40 1.813492e-95
365.50 1.813492e-95
365.60 1.813492e-95
365.70 1.813492e-95
365.80 1.813492e-95
365.90 1.813492e-95
366.00 1.813492e-95
366.10 1.813492e-95
366.20 1.813492e-95
366.30 1.813492e-95
366.40 1.813492e-95
366.50 1.813492e-95
366.60 1.813492e-95
366.70 1.813492e-95
366.80 1.813492e-95
366.90 1.813492e-95
367.00 1.813492e-95
367.10 1.813492e-95
367.20 1.813492e-95
367.30 1.813492e-95
367.40 1.813492e-95
367.50 1.813492e-95
367.60 1.813492e-95
367.70 1.813492e-95
367.80 1.813492e-95
367.90 1.813492e-95
368.00 1.813492e-95
368.10 1.813492e-95
368.20 1.813492e-95
368.30 1.813492e-95
368.40 1.813492e-95
368.50 1.813492e-95
368.60 1.813492e-95
368.70 1.813492e-95
368.80 1.813492e-95
368.90 1.813492e-95
369.00 1.813492e-95
369.10 1.813492e-95
369.20 1.813492e-95
369.30 1.813492e-95
369.40 1.813492e-95
369.50 1.813492e-95
369.60 1.813492e-95
369.70 1.813492e-95
369.80 1.813492e-95
369.90 1.813492e-95
370.00 1.813492e-95
370.10 1.813492e-95
370.20 1.813492e-95
370.30 1.813492e-95
370.40 1.813492e-95
370.50 1.813492e-95
370.60 1.813492e-95
370.70 1.813492e-95
370.80 1.813492e-95
370.90 1.813492e-95
371.00 1.813492e-95
371.10 1.813492e-95
371.20 1.813492e-95
371.30 1.813492e-95
371.40 1.813492e-95
371.50 1.813492e-95
371.60 1.813492e-95
371.70 1.813492e-95
371.80 1.813492e-95
371.90 1.813492e-95
372.00 1.813492e-95
372.10 1.813492e-95
372.20 1.813492e-95
372.30 1.813492e-95
372.40 1.813492e-95
372.50 1.813492e-95
372.60 1.813492e-95
372.70 1.813492e-95
372.80 1.813492e-95
372.90 1.813492e-95
373.00 1.813492e-95
373.10 1.813492e-95
373.20 1.813492e-95
373.30 1.813492e-95
373.40 1.813492e-95
373.50 1.813492e-95
373.60 1.813492e-95
373.70 1.813492e-95
373.80 1.813492e-95
373.90 1.813492e-95
374.00 1.813492e-95
374.10 1.813492e-95
374.20 1.813492e-95
374.30 1.813492e-95
374.40 1.813492e-95
374.50 1.813492e-95
374.60 1.813492e-95
374.70 1.813492e-95
374.80 1.813492e-95
374.90 1.813492e-95
375.00 1.813492e-95
375.10 1.813492e-95
375.20 1.813492e-95
375.30 1.813492e-95
375.40 1.813492e-95
375.50 1.813492e-95
375.60 1.813492e-95
375.70 1.813492e-95
375.80 1.813492e-95
375.90 1.813492e-95
376.00 1.813492e-95
376.10 1.813492e-95
376.20 1.813492e-95
376.30 1.813492e-95
376.40 1.813492e-95
376.50 1.813492e-95
376.60 1.813492e-95
376.70 1.813492e-95
376.80 1.813492e-95
376.90 1.813492e-95
377.00 1.813492e-95
377.10 1.813492e-95
377.20 1.813492e-95
377.30 1.813492e-95
377.40 1.813492e-95
377.50 1.813492e-95
377.60 1.813492e-95
377.70 1.813492e-95
377.80 1.813492e-95
377.90 1.813492e-95
378.00 1.813492e-95
378.10 1.813492e-95
378.20 1.813492e-95
378.30 1.813492e-95
378.40 1.813492e-95
378.50 1.813492e-95
378.60 1.813492e-95
378.70 1.813492e-95
378.80 1.813492e-95
378.90 1.813492e-95
379.00 1.813492e-95
379.10 1.813492e-95
379.20 1.813492e-95
379.30 1.813492e-95
379.40 1.813492e-95
379.50 1.813492e-95
379.60 1.813492e-95
379.70 1.813492e-95
379.80 1.813492e-95
379.90 1.813492e-95
380.00 1.813492e-95
380.10 1.813492e-95
380.20 1.813492e-95
380.30 1.813492e-95
380.40 1.813492e-95
380.50 1.813492e-95
380.60 1.813492e-95
380.70 1.813492e-95
380.80 1.813492e-95
380.90 1.813492e-95
381.00 1.813492e-95
381.10 1.813492e-95
381.20 1.813492e-95
381.30 1.813492e-95
381.40 1.813492e-95
381.50 1.813492e-95
381.60 1.813492e-95
381.70 1.813492e-95
381.80 1.813492e-95
381.90 1.813492e-95
382.00 1.813492e-95
382.10 1.813492e-95
382.20 1.813492e-95
382.30 1.813492e-95
382.40 1.813492e-95
382.50 1.813492e-95
382.60 1.813492e-95
382.70 1.813492e-95
382.80 1.813492e-95
382.90 1.813492e-95
383.00 1.813492e-95
383.10 1.813492e-95
383.20 1.813492e-95
383.30 1.813492e-95
383.40 1.813492e-95
383.50 1.813492e-95
383.60 1.813492e-95
383.70 1.813492e-95
383.80 1.813492e-95
383.90 1.813492e-95
384.00 1.813492e-95
384.10 1.813492e-95
384.20 1.813492e-95
384.30 1.813492e-95
384.40 1.813492e-95
384.50 1.813492e-95
384.60 1.813492e-95
384.70 1.813492e-95
384.80 1.813492e-95
384.90 1.813492e-95
385.00 1.813492e-95
385.10 1.813492e-95
385.20 1.813492e-95
385.30 1.813492e-95
385.40 1.813492e-95
385.50 1.813492e-95
385.60 1.813492e-95
385.70 1.813492e-95
385.80 1.813492e-95
385.90 1.813492e-95
386.00 1.813492e-95
386.10 1.813492e-95
386.20 1.813492e-95
386.30 1.813492e-95
386.40 1.813492e-95
386.50 1.813492e-95
386.60 1.813492e-95
386.70 1.813492e-95
386.80 1.813492e-95
386.90 1.813492e-95
387.00 1.813492e-95
387.10 1.813492e-95
387.20 1.813492e-95
387.30 1.813492e-95
387.40 1.813492e-95
387.50 1.813492e-95
387.60 1.813492e-95
387.70 1.813492e-95
387.80 1.813492e-95
387.90 1.813492e-95
388.00 1.813492e-95
388.10 1.813492e-95
388.20 1.813492e-95
388.30 1.813492e-95
388.40 1.813492e-95
388.50 1.813492e-95
388.60 1.813492e-95
388.70 1.813492e-95
388.80 1.813492e-95
388.90 1.813492e-95
389.00 1.813492e-95
389.10 1.813492e-95
389.20 1.813492e-95
389.30 1.813492e-95
389.40 1.813492e-95
389.50 1.813492e-95
389.60 1.813492e-95
389.70 1.813492e-95
389.80 1.813492e-95
389.90 1.813492e-95
390.00 1.813492e-95
390.10 1.813492e-95
390.20 1.813492e-95
390.30 1.813492e-95
390.40 1.813492e-95
390.50 1.813492e-95
390.60 1.813492e-95
390.70 1.813492e-95
390.80 1.813492e-95
390.90 1.813492e-95
391.00 1.813492e-95
391.10 1.813492e-95
391.20 1.813492e-95
391.30 1.813492e-95
391.40 1.813492e-95
391.50 1.813492e-95
391.60 1.813492e-95
391.70 1.813492e-95
391.80 1.813492e-95
391.90 1.813492e-95
392.00 1.813492e-95
392.10 1.813492e-95
392.20 1.813492e-95
392.30 1.813492e-95
392.40 1.813492e-95
392.50 1.813492e-95
392.60 1.813492e-95
392.70 1.813492e-95
392.80 1.813492e-95
392.90 1.813492e-95
393.00 1.813492e-95
393.10 1.813492e-95
393.20 1.813492e-95
393.30 1.813492e-95
393.40 1.813492e-95
393.50 1.813492e-95
393.60 1.813492e-95
393.70 1.813492e-95
393.80 1.813492e-95
393.90 1.813492e-95
394.00 1.813492e-95
394.10 1.813492e-95
394.20 1.813492e-95
394.30 1.813492e-95
394.40 1.813492e-95
394.50 1.813492e-95
394.60 1.813492e-95
394.70 1.813492e-95
394.80 1.813492e-95
394.90 1.813492e-95
395.00 0.0132358
395.10 0.03052226
395.20 0.05119129
395.30 0.07378414
395.40 0.09576298
395.50 0.1142062
395.60 0.1267766
395.70 0.1324893
395.80 0.1324893
395.90 0.1324893
396.00 0.1324893
396.10 0.1324893
396.20 0.1324893
396.30 0.1324893
396.40 0.1324893
396.50 0.1324893
396.60 0.1324893
396.70 0.1324893
396.80 0.1324893
396.90 0.1324893
397.00 0.1327233
397.10 0.1353933
397.20 0.140184
397.30 0.1464308
397.40 0.1533349
397.50 0.1605368
397.60 0.1682647
397.70 0.1767061
397.80 0.1860343
397.90 0.1961514
398.00 0.2065872
398.10 0.2169843
398.20 0.2271133
398.30 0.2366858
398.40 0.2454111
398.50 0.25343
398.60 0.2609767
398.70 0.2683949
398.80 0.2764169
398.90 0.2857985
399.00 0.2970225
399.10 0.3103259
399.20 0.3259155
399.30 0.3439726
399.40 0.3637557
399.50 0.3834284
399.60 0.4014316
399.70 0.4169255
399.80 0.4295044
399.90 0.4387103
400.00 0.4440994
400.10 0.4454856
400.20 0.4454856
400.30 0.4454856
400.40 0.4454856
400.50 0.4454856
400.60 0.4454856
400.70 0.44562
400.80 0.4485798
400.90 0.4543577
401.00 0.4620762
401.10 0.4704684
401.20 0.4781891
401.30 0.4846715
401.40 0.4905313
401.50 0.4969648
401.60 0.5047116
401.70 0.5128699
401.80 0.5196376
401.90 0.5232175
402.00 0.5232175
402.10 0.5232175
402.20 0.5232175
402.30 0.5232175
402.40 0.5232175
402.50 0.5232175
402.60 0.5232175
402.70 0.5232175
402.80 0.5232175
402.90 0.5232175
403.00 0.5232175
403.10 0.5232175
403.20 0.5232175
403.30 0.5238948
403.40 0.526091
403.50 0.5293852
403.60 0.5331939
403.70 0.536994
403.80 0.5405157
403.90 0.5437548
404.00 0.5466859
404.10 0.5492325
404.20 0.551461
404.30 0.5538304
404.40 0.5572328
404.50 0.5629071
404.60 0.5723173
404.70 0.5868195
404.80 0.6066563
404.90 0.6307413
405.00 0.6440539
405.10 0.6535822
405.20 0.6577898
405.30 0.6564789
405.40 0.6515223
405.50 0.646224
405.60 0.6441265
405.70 0.6474196
405.80 0.6557096
405.90 0.6639626
406.00 0.6728701
406.10 0.6828123
406.20 0.6939977
406.30 0.7067946
406.40 0.7213135
406.50 0.7369594
406.60 0.7524924
406.70 0.7663765
406.80 0.7774483
406.90 0.7852376
407.00 0.7895716
407.10 0.7888571
407.20 0.7843602
407.30 0.7781134
407.40 0.7712093
407.50 0.7640074
407.60 0.7562795
407.70 0.7478381
407.80 0.7385099
407.90 0.7283929
408.00 0.717957
408.10 0.7089437
408.20 0.7028773
408.30 0.7002905
408.40 0.7012273
408.50 0.7048501
408.60 0.7099981
408.70 0.715143
408.80 0.7185045
408.90 0.7189996
409.00 0.7163552
409.10 0.710751
409.20 0.7023639
409.30 0.6911738
409.40 0.6776934
409.50 0.6629018
409.60 0.6471752
409.70 0.6316814
409.80 0.6191024
409.90 0.6098965
410.00 0.6045074
410.10 0.6031212
410.20 0.6031212
410.30 0.6031212
410.40 0.6031212
410.50 0.6043997
410.60 0.6103934
410.70 0.6210334
410.80 0.6332878
410.90 0.6467252
411.00 0.6616122
411.10 0.6778223
411.20 0.6946676
411.30 0.7105028
411.40 0.722295
411.50 0.726742
411.60 0.7224322
411.70 0.7142739
411.80 0.7075062
411.90 0.7039263
412.00 0.7039263
412.10 0.7039263
412.20 0.7039263
412.30 0.7045166
412.40 0.7092844
412.50 0.7174358
412.60 0.7276024
412.70 0.7380748
412.80 0.7475302
412.90 0.755402
413.00 0.7618583
413.10 0.7675851
413.20 0.7735656
413.30 0.7802868
413.40 0.7879956
413.50 0.797712
413.60 0.809787
413.70 0.8237014
413.80 0.8380178
413.90 0.8507726
414.00 0.8607182
414.10 0.8676942
414.20 0.8722679
414.30 0.8750819
414.40 0.8763647
414.50 0.8758815
414.60 0.8725743
414.70 0.8646653
414.80 0.85108
414.90 0.8324265
415.00 0.8106283
415.10 0.7882604
415.20 0.767892
415.30 0.7512723
415.40 0.7387831
415.50 0.7295729
415.60 0.7218169
415.70 0.714027
415.80 0.7057369
415.90 0.697484
416.00 0.6885765
416.10 0.679613
416.20 0.6725305
416.30 0.6678237
416.40 0.665504
416.50 0.6657511
416.60 0.6690063
416.70 0.6761065
416.80 0.6872141
416.90 0.7012598
417.00 0.7171105
417.10 0.7336288
417.20 0.7495683
417.30 0.7635493
417.40 0.7755731
417.50 0.7862975
417.60 0.7965648
417.70 0.8071305
417.80 0.8184644
417.90 0.8306989
418.00 0.8437158
418.10 0.855493
418.20 0.8638814
418.30 0.867964
418.40 0.8674588
418.50 0.8626962
418.60 0.8543085
418.70 0.8437387
418.80 0.8329021
418.90 0.8230253
419.00 0.8144458
419.10 0.8067466
419.20 0.7995441
419.30 0.792677
419.40 0.7863743
419.50 0.7814932
419.60 0.7792167
419.70 0.7792167
419.80 0.7792167
419.90 0.7792167
420.00 0.7792167
420.10 0.7812709
420.20 0.7877085
420.30 0.7980541
420.40 0.8107221
420.50 0.8222937
420.60 0.8272788
420.70 0.8243665
420.80 0.8133373
420.90 0.7945849
421.00 0.7719794
421.10 0.7473771
421.20 0.7228112
421.30 0.7004935
421.40 0.6828415
421.50 0.671961
421.60 0.668524
421.70 0.6697956
421.80 0.6725581
421.90 0.6762831
422.00 0.6802978
422.10 0.6842361
422.20 0.6881483
422.30 0.691987
422.40 0.6934858
422.50 0.6949544
422.60 0.6988897
422.70 0.7077614
422.80 0.7229423
422.90 0.7439622
423.00 0.7687799
423.10 0.7945315
423.20 0.8180125
423.30 0.8362931
423.40 0.8472107
423.50 0.8494574
423.60 0.8431649
423.70 0.8299508
423.80 0.8126506
423.90 0.7966568
424.00 0.7837801
424.10 0.7744193
424.20 0.7707169
424.30 0.7721623
424.40 0.7774642
424.50 0.7847895
424.60 0.7927209
424.70 0.8007594
424.80 0.8090437
424.90 0.8174156
425.00 0.8249009
425.10 0.8303095
425.20 0.8326673
425.30 0.8315867
425.40 0.827355
425.50 0.8234203
425.60 0.8207033
425.70 0.8194875
425.80 0.8194875
425.90 0.8194875
426.00 0.8194875
426.10 0.8188788
426.20 0.8172044
426.30 0.8127783
426.40 0.8048877
426.50 0.79373
426.60 0.7800566
426.70 0.7647452
426.80 0.7491513
426.90 0.7349051
427.00 0.7230881
427.10 0.7140852
427.20 0.7075246
427.30 0.702878
427.40 0.699722
427.50 0.6971882
427.60 0.6941609
427.70 0.6901373
427.80 0.6853589
427.90 0.6802778
428.00 0.6754943
428.10 0.6719637
428.20 0.6703155
428.30 0.6705744
428.40 0.6724502
428.50 0.6753898
428.60 0.6790446
428.70 0.6828809
428.80 0.6861873
428.90 0.6887912
429.00 0.6912552
429.10 0.6944916
429.20 0.6987616
429.30 0.7040469
429.40 0.7101249
429.50 0.7162383
429.60 0.7216854
429.70 0.7262812
429.80 0.7301991
429.90 0.7337991
430.00 0.7376244
430.10 0.7401259
430.20 0.7390052
430.30 0.7347362
430.40 0.7295598
430.50 0.7264729
430.60 0.7280839
430.70 0.7355866
430.80 0.7489353
430.90 0.7674567
431.00 0.7867625
431.10 0.805103
431.20 0.8214126
431.30 0.8349053
431.40 0.8449535
431.50 0.8515
431.60 0.8554275
431.70 0.8567258
431.80 0.8558511
431.90 0.8535373
432.00 0.8507163
432.10 0.8479917
432.20 0.8455487
432.30 0.8430392
432.40 0.8394182
432.50 0.8332237
432.60 0.8229113
432.70 0.8072862
432.80 0.7860393
432.90 0.7598013
433.00 0.7299132
433.10 0.6984349
433.20 0.6689733
433.30 0.6432942
433.40 0.6224716
433.50 0.6076867
433.60 0.6002877
433.70 0.5996308
433.80 0.6039635
433.90 0.6089398
434.00 0.6132601
434.10 0.616502
434.20 0.616325
434.30 0.6131527
434.40 0.6083869
434.50 0.6037499
434.60 0.600581
434.70 0.6000343
434.80 0.602628
434.90 0.6078853
435.00 0.6146679
435.10 0.6216783
435.20 0.6281307
435.30 0.6338688
435.40 0.6393621
435.50 0.6427233
435.60 0.6449977
435.70 0.647341
435.80 0.6506363
435.90 0.6558305
436.00 0.6637309
436.10 0.6741201
436.20 0.6848156
436.30 0.6959311
436.40 0.7075144
436.50 0.7191699
436.60 0.7299004
436.70 0.7383525
436.80 0.743236
436.90 0.7439208
437.00 0.7400553
437.10 0.7322019
437.20 0.7225292
437.30 0.7131949
437.40 0.7043271
437.50 0.6961365
437.60 0.6890478
437.70 0.6844774
437.80 0.6818573
437.90 0.6801996
438.00 0.6788073
438.10 0.6774873
438.20 0.6763451
438.30 0.6753746
438.40 0.6750465
438.50 0.6763084
438.60 0.6800193
438.70 0.6870132
438.80 0.6973934
438.90 0.7101138
439.00 0.7233401
439.10 0.7351073
439.20 0.7443341
439.30 0.750582
439.40 0.7536176
439.50 0.7537467
439.60 0.7517717
439.70 0.7489086
439.80 0.7463883
439.90 0.7448013
440.00 0.7438355
440.10 0.7428887
440.20 0.7418029
440.30 0.7404097
440.40 0.7379315
440.50 0.7332016
440.60 0.7250503
440.70 0.7131135
440.80 0.6976425
440.90 0.6790652
441.00 0.6597594
441.10 0.641419
441.20 0.6251094
441.30 0.6116167
441.40 0.6015685
441.50 0.5950219
441.60 0.5910945
441.70 0.5885247
441.80 0.5866368
441.90 0.5852257
442.00 0.5840319
442.10 0.5828182
442.20 0.581349
442.30 0.5794296
442.40 0.5767838
442.50 0.5733584
442.60 0.5695689
442.70 0.5658499
442.80 0.5624604
442.90 0.5598068
443.00 0.5585671
443.10 0.5585671
443.20 0.5585671
443.30 0.5585671
443.40 0.5585671
443.50 0.5580949
443.60 0.5559025
443.70 0.5520591
443.80 0.550603
443.90 0.5552796
444.00 0.5671207
444.10 0.5850386
444.20 0.6061268
444.30 0.6266515
444.40 0.6432964
444.50 0.6540554
444.60 0.6581835
444.70 0.6555047
444.80 0.6466861
444.90 0.6336052
445.00 0.6190731
445.10 0.6060264
445.20 0.5963217
445.30 0.5903607
445.40 0.5873083
445.50 0.5857932
445.60 0.5844748
445.70 0.5823887
445.80 0.5790934
445.90 0.5738992
446.00 0.5659988
446.10 0.5561406
446.20 0.5456022
446.30 0.5351444
446.40 0.5246677
446.50 0.5137003
446.60 0.5021933
446.70 0.4906218
446.80 0.4800782
446.90 0.4720668
447.00 0.4681405
447.10 0.4692545
447.20 0.4749138
447.30 0.4840535
447.40 0.4971311
447.50 0.5138276
447.60 0.5325997
447.70 0.5502403
447.80 0.5651902
447.90 0.5764885
448.00 0.5834235
448.10 0.5855394
448.20 0.5831852
448.30 0.5775438
448.40 0.5697417
448.50 0.56059
448.60 0.5507176
448.70 0.5400996
448.80 0.5281903
448.90 0.5149523
449.00 0.50119
449.10 0.4880861
449.20 0.4767196
449.30 0.4679598
449.40 0.4624684
449.50 0.4605182
449.60 0.4614555
449.70 0.463602
449.80 0.4652055
449.90 0.4655086
450.00 0.464972
450.10 0.4646267
450.20 0.465234
450.30 0.4669584
450.40 0.4695294
450.50 0.472423
450.60 0.4752462
450.70 0.4779035
450.80 0.4810428
450.90 0.4859443
451.00 0.4925943
451.10 0.5016548
451.20 0.5138444
451.30 0.5291768
451.40 0.5467286
451.50 0.5649586
451.60 0.582576
451.70 0.5991468
451.80 0.6146692
451.90 0.6291806
452.00 0.6425211
452.10 0.6542428
452.20 0.6637996
452.30 0.6709073
452.40 0.6759846
452.50 0.6802203
452.60 0.6849787
452.70 0.6914642
452.80 0.7007892
452.90 0.7136956
453.00 0.7300334
453.10 0.7490346
453.20 0.76884
453.30 0.7880547
453.40 0.8059899
453.50 0.8223527
453.60 0.8371128
453.70 0.8506288
453.80 0.8599336
453.90 0.8624294
454.00 0.8578316
454.10 0.8473866
454.20 0.8335278
454.30 0.819115
454.40 0.8063807
454.50 0.796623
454.60 0.7904665
454.70 0.7875657
454.80 0.7866509
454.90 0.786242
455.00 0.7853908
455.10 0.7838982
455.20 0.7822134
455.30 0.7812313
455.40 0.7821792
455.50 0.7857179
455.60 0.7913328
455.70 0.7977581
455.80 0.8033278
455.90 0.8067049
456.00 0.8070969
456.10 0.8061959
456.20 0.8036102
456.30 0.7992886
456.40 0.7938734
456.50 0.78845
456.60 0.7850987
456.70 0.7872022
456.80 0.7944066
456.90 0.805481
457.00 0.8186331
457.10 0.8314165
457.20 0.8417046
457.30 0.8478441
457.40 0.8485741
457.50 0.8439076
457.60 0.8352295
457.70 0.8242028
457.80 0.8124985
457.90 0.8017108
458.00 0.7929585
458.10 0.7869195
458.20 0.783431
458.30 0.7816007
458.40 0.7807185
458.50 0.7807217
458.60 0.7815814
458.70 0.7832813
458.80 0.786446
458.90 0.7920249
459.00 0.8008844
459.10 0.8137928
459.20 0.830763
459.30 0.850728
459.40 0.8719898
459.50 0.8925844
459.60 0.9109069
459.70 0.9258853
459.80 0.9367062
459.90 0.9425764
460.00 0.9431823
460.10 0.9399188
460.20 0.9350803
460.30 0.9286724
460.40 0.921088
460.50 0.9134767
460.60 0.9076417
460.70 0.9042876
460.80 0.9031855
460.90 0.9035802
461.00 0.9043775
461.10 0.9043052
461.20 0.9023083
461.30 0.897944
461.40 0.891571
461.50 0.8839292
461.60 0.8755956
461.70 0.8670398
461.80 0.8590319
461.90 0.8524489
462.00 0.8478303
462.10 0.8456788
462.20 0.8466196
462.30 0.850817
462.40 0.8580226
462.50 0.8675472
462.60 0.878146
462.70 0.8884263
462.80 0.8970739
462.90 0.9030498
463.00 0.9060937
463.10 0.907055
463.20 0.9074578
463.30 0.9083081
463.40 0.9098595
463.50 0.9121971
463.60 0.9150683
463.70 0.9177344
463.80 0.9191888
463.90 0.9187434
464.00 0.9164933
464.10 0.9128969
464.20 0.9083218
464.30 0.9030506
464.40 0.8973402
464.50 0.8915912
464.60 0.8862534
464.70 0.882184
464.80 0.8805386
464.90 0.8819245
465.00 0.8861876
465.10 0.8924062
465.20 0.8994066
465.30 0.9061533
465.40 0.9115618
465.50 0.9151677
465.60 0.9177115
465.70 0.9206819
465.80 0.9255238
465.90 0.9328197
466.00 0.9422496
466.10 0.9500085
466.20 0.9546467
466.30 0.9556551
466.40 0.9556551
466.50 0.9556551
466.60 0.9546681
466.70 0.9500111
466.80 0.9418813
466.90 0.9321379
467.00 0.9230726
467.10 0.9146597
467.20 0.9066414
467.30 0.8989588
467.40 0.8916319
467.50 0.8847168
467.60 0.8786831
467.70 0.8742887
467.80 0.8722597
467.90 0.87326
468.00 0.8775123
468.10 0.8843999
468.20 0.8928825
468.30 0.9018927
468.40 0.9103853
468.50 0.9173422
468.60 0.922043
468.70 0.9243845
468.80 0.9249299
468.90 0.9242675
469.00 0.922674
469.10 0.9202119
469.20 0.916764
469.30 0.9121538
469.40 0.9064377
469.50 0.9004409
469.60 0.8956402
469.70 0.8937029
469.80 0.895865
469.90 0.9028014
470.00 0.9144356
470.10 0.9288009
470.20 0.9432491
470.30 0.9580096
470.40 0.9732858
470.50 0.9889564
470.60 1.004245
470.70 1.018874
470.80 1.032804
470.90 1.045691
471.00 1.056772
471.10 1.065193
471.20 1.07041
471.30 1.072581
471.40 1.072495
471.50 1.071364
471.60 1.070331
471.70 1.069438
471.80 1.067379
471.90 1.062661
472.00 1.054904
472.10 1.045334
472.20 1.034836
472.30 1.023531
472.40 1.012302
472.50 1.002261
472.60 0.9938737
472.70 0.9870667
472.80 0.981237
472.90 0.9758036
473.00 0.9701822
473.10 0.9641222
473.20 0.9579141
473.30 0.9521856
473.40 0.9476727
473.50 0.9447841
473.60 0.9435411
473.70 0.9437057
473.80 0.9452895
473.90 0.9482422
474.00 0.9520677
474.10 0.9564658
474.20 0.9614283
474.30 0.9667002
474.40 0.9720365
474.50 0.97711
474.60 0.9816556
474.70 0.9856567
474.80 0.9890354
474.90 0.9920645
475.00 0.9952298
475.10 0.9989467
475.20 1.003157
475.30 1.00715
475.40 1.009992
475.50 1.010652
475.60 1.008029
475.70 1.001398
475.80 0.9909869
475.90 0.9803138
476.00 0.970492
476.10 0.9627331
476.20 0.9580949
476.30 0.9570865
476.40 0.9570865
476.50 0.9570865
476.60 0.9570865
476.70 0.9570865
476.80 0.9570865
476.90 0.9562182
477.00 0.9543021
477.10 0.9532901
477.20 0.9550537
477.30 0.9607305
477.40 0.9703458
477.50 0.9825799
477.60 0.9952705
477.70 1.006206
477.80 1.013679
477.90 1.016778
478.00 1.015697
478.10 1.011868
478.20 1.007462
478.30 1.004816
478.40 1.005547
478.50 1.010008
478.60 1.017555
478.70 1.026852
478.80 1.036209
478.90 1.044178
479.00 1.049611
479.10 1.051594
479.20 1.049893
479.30 1.045278
479.40 1.039196
479.50 1.032911
479.60 1.026891
479.70 1.02074
479.80 1.014198
479.90 1.007483
480.00 1.000947
480.10 0.9952442
480.20 0.991236
480.30 0.9894505
480.40 0.9897285
480.50 0.9916069
480.60 0.9946123
480.70 0.9981115
480.80 1.001089
480.90 1.0024
481.00 1.001576
481.10 0.9993458
481.20 0.996694
481.30 0.9941669
481.40 0.9921427
481.50 0.9910279
481.60 0.9910558
481.70 0.9926893
481.80 0.9970555
481.90 1.005017
482.00 1.016618
482.10 1.030357
482.20 1.044832
482.30 1.059929
482.40 1.074777
482.50 1.087942
482.60 1.09897
482.70 1.108054
482.80 1.115504
482.90 1.121358
483.00 1.125656
483.10 1.128077
483.20 1.127689
483.30 1.123829
483.40 1.116364
483.50 1.105817
483.60 1.09388
483.70 1.082761
483.80 1.07406
483.90 1.068589
484.00 1.06622
484.10 1.065983
484.20 1.066766
484.30 1.067654
484.40 1.067844
484.50 1.066772
484.60 1.064289
484.70 1.060415
484.80 1.055359
484.90 1.049425
485.00 1.042507
485.10 1.034139
485.20 1.024272
485.30 1.013688
485.40 1.003835
485.50 0.9963753
485.60 0.9926444
485.70 0.99346
485.80 0.9987214
485.90 1.005278
486.00 1.012531
486.10 1.019568
486.20 1.025648
486.30 1.030448
486.40 1.034275
486.50 1.038219
486.60 1.043845
486.70 1.05249
486.80 1.064917
486.90 1.080379
487.00 1.096445
487.10 1.110485
487.20 1.11982
487.30 1.122663
487.40 1.11887
487.50 1.110349
487.60 1.100074
487.70 1.091071
487.80 1.085647
487.90 1.084736
488.00 1.087745
488.10 1.093105
488.20 1.099045
488.30 1.103891
488.40 1.106241
488.50 1.10563
488.60 1.102929
488.70 1.099702
488.80 1.097188
488.90 1.095851
489.00 1.095603
489.10 1.09608
489.20 1.096957
489.30 1.098113
489.40 1.099558
489.50 1.101434
489.60 1.103849
489.70 1.107131
489.80 1.111536
489.90 1.116822
490.00 1.12218
490.10 1.126427
490.20 1.128543
490.30 1.128002
490.40 1.124853
490.50 1.11927
490.60 1.111374
490.70 1.101247
490.80 1.089041
490.90 1.075141
491.00 1.060272
491.10 1.045093
491.20 1.032336
491.30 1.021723
491.40 1.012655
491.50 1.004312
491.60 0.996033
491.70 0.9876425
491.80 0.9793433
491.90 0.9707101
492.00 0.9613432
492.10 0.9508091
492.20 0.9389987
492.30 0.9256054
492.40 0.9101065
492.50 0.8932226
492.60 0.8752243
492.70 0.8561808
492.80 0.8365884
492.90 0.8183102
493.00 0.8041794
493.10 0.7955995
493.20 0.7930002
493.30 0.795065
493.40 0.7994596
493.50 0.8037962
493.60 0.8057274
493.70 0.8037071
493.80 0.7977024
493.90 0.7891652
494.00 0.780446
494.10 0.7739417
494.20 0.7714444
494.30 0.7740172
494.40 0.7817712
494.50 0.7937363
494.60 0.808327
494.70 0.823808
494.80 0.8386508
494.90 0.8513586
495.00 0.8610598
495.10 0.8677683
495.20 0.8719067
495.30 0.8741503
495.40 0.8753364
495.50 0.8761403
495.60 0.8768722
495.70 0.8775614
495.80 0.8786798
495.90 0.8813394
496.00 0.8866501
496.10 0.8954502
496.20 0.9080334
496.30 0.9240922
496.40 0.942369
496.50 0.9606597
496.60 0.9763123
496.70 0.9869988
496.80 0.9913604
496.90 0.9894649
497.00 0.9829627
497.10 0.9747189
497.20 0.9675802
497.30 0.9633382
497.40 0.962559
497.50 0.9644919
497.60 0.9675185
497.70 0.9699116
497.80 0.970668
497.90 0.9698918
498.00 0.9685079
498.10 0.9673786
498.20 0.9669225
498.30 0.9673906
498.40 0.9687884
498.50 0.970593
498.60 0.9719953
498.70 0.9722692
498.80 0.9710513
498.90 0.968651
499.00 0.9658575
499.10 0.9637756
499.20 0.9633434
499.30 0.9648485
499.40 0.9679883
499.50 0.9723279
499.60 0.9777073
499.70 0.9838405
499.80 0.9901158
499.90 0.9957438
500.00 1
500.10 1.00246
500.20 1.002831
500.30 1.001041
500.40 0.9975327
500.50 0.9931966
500.60 0.9890735
500.70 0.9863064
500.80 0.9860984
500.90 0.9895854
501.00 0.9971404
501.10 1.008123
501.20 1.019419
501.30 1.03104
501.40 1.043038
501.50 1.055391
501.60 1.068429
501.70 1.082416
501.80 1.097234
501.90 1.113524
502.00 1.131967
502.10 1.153335
502.20 1.177657
502.30 1.204146
502.40 1.231831
502.50 1.258818
502.60 1.284053
502.70 1.30725
502.80 1.328463
502.90 1.347058
503.00 1.361545
503.10 1.37193
503.20 1.379179
503.30 1.385305
503.40 1.392273
503.50 1.400912
503.60 1.411335
503.70 1.423156
503.80 1.435268
503.90 1.446004
504.00 1.453834
504.10 1.457836
504.20 1.457471
504.30 1.452414
504.40 1.442855
504.50 1.429634
504.60 1.413619
504.70 1.39542
504.80 1.376504
504.90 1.359744
505.00 1.345898
505.10 1.335294
505.20 1.327884
505.30 1.323756
505.40 1.32587
505.50 1.333995
505.60 1.347775
505.70 1.366673
505.80 1.389009
505.90 1.411955
506.00 1.432664
506.10 1.449026
506.20 1.459724
506.30 1.46442
506.40 1.464248
506.50 1.46147
506.60 1.458526
506.70 1.45721
506.80 1.458348
506.90 1.461909
507.00 1.467057
507.10 1.472442
507.20 1.477025
507.30 1.480408
507.40 1.482689
507.50 1.484232
507.60 1.485428
507.70 1.486746
507.80 1.488191
507.90 1.489225
508.00 1.48943
508.10 1.488801
508.20 1.487461
508.30 1.485257
508.40 1.482154
508.50 1.478588
508.60 1.475173
508.70 1.472668
508.80 1.471622
508.90 1.472189
509.00 1.474221
509.10 1.476915
509.20 1.47916
509.30 1.479968
509.40 1.47861
509.50 1.474841
509.60 1.469134
509.70 1.462685
509.80 1.456721
509.90 1.452108
510.00 1.449415
510.10 1.448764
510.20 1.449911
510.30 1.452269
510.40 1.454967
510.50 1.457064
510.60 1.457824
510.70 1.456782
510.80 1.453668
510.90 1.448187
511.00 1.4401
511.10 1.429716
511.20 1.41842
511.30 1.406799
511.40 1.395967
511.50 1.387366
511.60 1.381299
511.70 1.3774
511.80 1.374717
511.90 1.371988
512.00 1.367647
512.10 1.360054
512.20 1.348376
512.30 1.332997
512.40 1.315012
512.50 1.295585
512.60 1.275694
512.70 1.25602
512.80 1.237172
512.90 1.219735
513.00 1.204096
513.10 1.190295
513.20 1.178118
513.30 1.167283
513.40 1.157819
513.50 1.150252
513.60 1.144811
513.70 1.141295
513.80 1.139256
513.90 1.138107
514.00 1.137323
514.10 1.136292
514.20 1.134856
514.30 1.133861
514.40 1.134609
514.50 1.138087
514.60 1.144905
514.70 1.155342
514.80 1.168239
514.90 1.18088
515.00 1.192394
515.10 1.20196
515.20 1.209137
515.30 1.213271
515.40 1.210663
515.50 1.201089
515.60 1.184868
515.70 1.162388
515.80 1.134647
515.90 1.103524
516.00 1.071232
516.10 1.039786
516.20 1.010887
516.30 0.985435
516.40 0.963504
516.50 0.9440461
516.60 0.9257119
516.70 0.9076969
516.80 0.8899389
516.90 0.8747444
517.00 0.8632083
517.10 0.8560594
517.20 0.8536793
517.30 0.8562498
517.40 0.8633309
517.50 0.8738227
517.60 0.8863899
517.70 0.899517
517.80 0.9122838
517.90 0.9246135
518.00 0.9366868
518.10 0.9487258
518.20 0.9611533
518.30 0.9747195
518.40 0.9900822
518.50 1.00735
518.60 1.025816
518.70 1.043969
518.80 1.060337
518.90 1.073771
519.00 1.083281
519.10 1.088469
519.20 1.089403
519.30 1.086717
519.40 1.081674
519.50 1.075436
519.60 1.068598
519.70 1.061316
519.80 1.05384
519.90 1.046881
520.00 1.041242
520.10 1.037747
520.20 1.037179
520.30 1.039929
520.40 1.045861
520.50 1.054374
520.60 1.064718
520.70 1.07605
520.80 1.087561
520.90 1.099098
521.00 1.11131
521.10 1.124974
521.20 1.139739
521.30 1.155766
521.40 1.172744
521.50 1.18967
521.60 1.205577
521.70 1.21943
521.80 1.23075
521.90 1.239878
522.00 1.24787
522.10 1.255904
522.20 1.264858
522.30 1.275127
522.40 1.286515
522.50 1.298515
522.60 1.310916
522.70 1.323933
522.80 1.337901
522.90 1.353076
523.00 1.369502
523.10 1.387029
523.20 1.404953
523.30 1.422109
523.40 1.43727
523.50 1.449623
523.60 1.4593
523.70 1.466995
523.80 1.473783
523.90 1.481104
524.00 1.490024
524.10 1.5007
524.20 1.512286
524.30 1.523176
524.40 1.531972
524.50 1.53802
524.60 1.541435
524.70 1.543061
524.80 1.544269
524.90 1.546635
525.00 1.551346
525.10 1.559033
525.20 1.569766
525.30 1.583091
525.40 1.598361
525.50 1.614949
525.60 1.632467
525.70 1.650851
525.80 1.670164
525.90 1.690441
526.00 1.711959
526.10 1.735172
526.20 1.760164
526.30 1.786547
526.40 1.813341
526.50 1.839793
526.60 1.865629
526.70 1.890785
526.80 1.915048
526.90 1.936139
527.00 1.952901
527.10 1.964608
527.20 1.971158
527.30 1.972667
527.40 1.969502
527.50 1.962454
527.60 1.952621
527.70 1.941054
527.80 1.928273
527.90 1.914191
528.00 1.898236
528.10 1.879826
528.20 1.858792
528.30 1.835428
528.40 1.810578
528.50 1.785332
528.60 1.760744
528.70 1.737919
528.80 1.717783
528.90 1.700717
529.00 1.686733
529.10 1.675801
529.20 1.667977
529.30 1.663102
529.40 1.660676
529.50 1.660104
529.60 1.660769
529.70 1.662077
529.80 1.663464
529.90 1.664479
530.00 1.665046
530.10 1.665195
530.20 1.664996
530.30 1.664779
530.40 1.665186
530.50 1.667104
530.60 1.671286
530.70 1.678344
530.80 1.688545
530.90 1.701338
531.00 1.715327
531.10 1.728736
531.20 1.739999
531.30 1.747862
531.40 1.751404
531.50 1.750661
531.60 1.746547
531.70 1.740348
531.80 1.733263
531.90 1.72603
532.00 1.719102
532.10 1.712843
532.20 1.707366
532.30 1.702647
532.40 1.698749
532.50 1.695651
532.60 1.693078
532.70 1.690642
532.80 1.687765
532.90 1.683725
533.00 1.678327
533.10 1.671912
533.20 1.665257
533.30 1.659288
533.40 1.654713
533.50 1.651999
533.60 1.651355
533.70 1.652777
533.80 1.656079
533.90 1.660688
534.00 1.665891
534.10 1.671439
534.20 1.677544
534.30 1.684402
534.40 1.691647
534.50 1.69874
534.60 1.705372
534.70 1.711406
534.80 1.716901
534.90 1.721865
535.00 1.726372
535.10 1.730591
535.20 1.734645
535.30 1.738782
535.40 1.743093
535.50 1.747073
535.60 1.749918
535.70 1.751045
535.80 1.750362
535.90 1.748192
536.00 1.74483
536.10 1.740346
536.20 1.734769
536.30 1.728378
536.40 1.72188
536.50 1.716001
536.60 1.710939
536.70 1.706569
536.80 1.702748
536.90 1.699391
537.00 1.696697
537.10 1.694954
537.20 1.694298
537.30 1.694797
537.40 1.696697
537.50 1.700596
537.60 1.707247
537.70 1.717188
537.80 1.730284
537.90 1.745747
538.00 1.762409
538.10 1.779005
538.20 1.794643
538.30 1.808848
538.40 1.821443
538.50 1.832939
538.60 1.844347
538.70 1.856602
538.80 1.870389
538.90 1.88592
539.00 1.902903
539.10 1.920889
539.20 1.93967
539.30 1.959463
539.40 1.980773
539.50 2.003978
539.60 2.029008
539.70 2.055355
539.80 2.082248
539.90 2.108655
540.00 2.133569
540.10 2.156343
540.20 2.176504
540.30 2.194095
540.40 2.209684
540.50 2.223627
540.60 2.23595
540.70 2.246708
540.80 2.256306
540.90 2.265398
541.00 2.274914
541.10 2.285998
541.20 2.299608
541.30 2.316163
541.40 2.335314
541.50 2.355873
541.60 2.376393
541.70 2.395346
541.80 2.411207
541.90 2.423259
542.00 2.431709
542.10 2.437528
542.20 2.442462
542.30 2.448335
542.40 2.456345
542.50 2.466969
542.60 2.479884
542.70 2.494025
542.80 2.508066
542.90 2.52055
543.00 2.529868
543.10 2.534946
543.20 2.536021
543.30 2.534567
543.40 2.532548
543.50 2.53161
543.60 2.532581
543.70 2.535498
543.80 2.539691
543.90 2.544021
544.00 2.547245
544.10 2.548279
544.20 2.54638
544.30 2.541564
544.40 2.534731
544.50 2.527112
544.60 2.519798
544.70 2.513539
544.80 2.508659
544.90 2.504885
545.00 2.501518
545.10 2.497942
545.20 2.493768
545.30 2.488726
545.40 2.482845
545.50 2.476645
545.60 2.470841
545.70 2.465713
545.80 2.460912
545.90 2.455765
546.00 2.449554
546.10 2.441662
546.20 2.431755
546.30 2.41999
546.40 2.406761
546.50 2.392466
546.60 2.377466
546.70 2.361992
546.80 2.346137
546.90 2.329773
547.00 2.312757
547.10 2.295328
547.20 2.278088
547.30 2.261707
547.40 2.246445
547.50 2.231993
547.60 2.217852
547.70 2.20349
547.80 2.1886
547.90 2.173418
548.00 2.158843
548.10 2.145674
548.20 2.133931
548.30 2.122979
548.40 2.111554
548.50 2.09796
548.60 2.08248
548.70 2.064811
548.80 2.044179
548.90 2.020479
549.00 1.995653
549.10 1.97365
549.20 1.955764
549.30 1.942084
549.40 1.931735
549.50 1.923457
549.60 1.91584
549.70 1.907808
549.80 1.899142
549.90 1.890366
550.00 1.542265
550.10 1.497617
550.20 1.458404
550.30 1.423131
550.40 1.389095
550.50 1.353644
550.60 1.315459
550.70 1.274026
550.80 1.229491
550.90 1.183207
551.00 1.137674
551.10 1.095023
551.20 1.056298
551.30 1.021056
551.40 0.9872439
551.50 0.952296
551.60 0.9180795
551.70 0.883871
551.80 0.8470722
551.90 0.8065772
552.00 0.7664208
552.10 0.7358183
552.20 0.7179653
552.30 0.7137897
552.40 0.7221044
552.50 0.7402414
552.60 0.7643125
552.70 0.7911886
552.80 0.8199111
552.90 0.8509055
553.00 0.8844934
553.10 0.9208565
553.20 0.9604184
553.30 1.002755
553.40 1.046471
553.50 1.090406
553.60 1.133671
553.70 1.175214
553.80 1.213833
553.90 1.24924
554.00 1.282125
554.10 1.312654
554.20 1.339544
554.30 1.361102
554.40 1.377447
554.50 1.390107
554.60 1.400643
554.70 1.410473
554.80 1.420934
554.90 1.432446
555.00 1.44459
555.10 1.45947
555.20 1.480588
555.30 1.509405
555.40 1.544387
555.50 1.583659
555.60 1.624302
555.70 1.668455
555.80 1.720843
555.90 1.785048
556.00 1.85897
556.10 1.933949
556.20 2.006158
556.30 2.072824
556.40 2.131436
556.50 2.177728
556.60 2.208287
556.70 2.222894
556.80 2.224671
556.90 2.21728
557.00 2.202461
557.10 2.181235
557.20 2.154957
557.30 2.126623
557.40 2.100542
557.50 2.080577
557.60 2.069614
557.70 2.069773
557.80 2.081921
557.90 2.10452
558.00 2.133582
558.10 2.164494
558.20 2.193522
558.30 2.218616
558.40 2.238718
558.50 2.253589
558.60 2.263895
558.70 2.270702
558.80 2.275387
558.90 2.279635
559.00 2.285456
559.10 2.292233
559.20 2.297721
559.30 2.301536
559.40 2.305665
559.50 2.310432
559.60 2.311292
559.70 2.301509
559.80 2.275133
559.90 2.228925
560.00 2.163697
560.10 2.083922
560.20 1.995591
560.30 1.904869
560.40 1.81706
560.50 1.738376
560.60 1.674997
560.70 1.629878
560.80 1.601346
560.90 1.585644
561.00 1.580618
561.10 1.584798
561.20 1.59568
561.30 1.609636
561.40 1.622284
561.50 1.629243
561.60 1.627648
561.70 1.616787
561.80 1.598477
561.90 1.576591
562.00 1.555533
562.10 1.538784
562.20 1.528251
562.30 1.52467
562.40 1.527877
562.50 1.536209
562.60 1.547495
562.70 1.56044
562.80 1.574525
562.90 1.589828
563.00 1.606202
563.10 1.623363
563.20 1.640867
563.30 1.657468
563.40 1.671661
563.50 1.683216
563.60 1.693637
563.70 1.7053
563.80 1.720368
563.90 1.740423
564.00 1.765862
564.10 1.794936
564.20 1.824796
564.30 1.852805
564.40 1.878012
564.50 1.900587
564.60 1.920107
564.70 1.936035
564.80 1.948184
564.90 1.95667
565.00 1.961717
565.10 1.96364
565.20 1.963166
565.30 1.960614
565.40 1.956008
565.50 1.949728
565.60 1.942023
565.70 1.933598
565.80 1.925789
565.90 1.919966
566.00 1.918392
566.10 1.923334
566.20 1.936157
566.30 1.956441
566.40 1.981412
566.50 2.007173
566.60 2.029562
566.70 2.045332
566.80 2.052393
566.90 2.050609
567.00 2.042354
567.10 2.030586
567.20 2.018316
567.30 2.008973
567.40 2.005015
567.50 2.007329
567.60 2.015262
567.70 2.027586
567.80 2.043217
567.90 2.061167
568.00 2.080898
568.10 2.102264
568.20 2.125861
568.30 2.152264
568.40 2.181021
568.50 2.211434
568.60 2.242906
568.70 2.274363
568.80 2.303817
568.90 2.3293
569.00 2.349576
569.10 2.363765
569.20 2.371686
569.30 2.374609
569.40 2.374734
569.50 2.374554
569.60 2.376591
569.70 2.382059
569.80 2.390224
569.90 2.398923
570.00 2.404036
570.10 2.401355
570.20 2.388985
570.30 2.366844
570.40 2.337005
570.50 2.304
570.60 2.272771
570.70 2.246468
570.80 2.226953
570.90 2.214775
571.00 2.208566
571.10 2.206371
571.20 2.20596
571.30 2.204653
571.40 2.200569
571.50 2.192995
571.60 2.182117
571.70 2.168848
571.80 2.154329
571.90 2.138804
572.00 2.121662
572.10 2.102529
572.20 2.080616
572.30 2.054795
572.40 2.024177
572.50 1.987921
572.60 1.94573
572.70 1.898271
572.80 1.847942
572.90 1.798148
573.00 1.752124
573.10 1.7126
573.20 1.681311
573.30 1.658696
573.40 1.64404
573.50 1.635964
573.60 1.632604
573.70 1.631844
573.80 1.631911
573.90 1.63191
574.00 1.632182
574.10 1.633715
574.20 1.636892
574.30 1.642646
574.40 1.651779
574.50 1.664038
574.60 1.678552
574.70 1.694309
574.80 1.71068
574.90 1.726381
575.00 1.739605
575.10 1.749502
575.20 1.755972
575.30 1.75936
575.40 1.761078
575.50 1.763219
575.60 1.767091
575.70 1.771342
575.80 1.77357
575.90 1.772163
576.00 1.766165
576.10 1.754923
576.20 1.737761
576.30 1.715374
576.40 1.690675
576.50 1.667326
576.60 1.64894
576.70 1.638587
576.80 1.637321
576.90 1.643946
577.00 1.65628
577.10 1.671904
577.20 1.68742
577.30 1.699054
577.40 1.704533
577.50 1.703388
577.60 1.696733
577.70 1.686614
577.80 1.674187
577.90 1.659793
578.00 1.64395
578.10 1.627701
578.20 1.61245
578.30 1.598296
578.40 1.584124
578.50 1.56927
578.60 1.555027
578.70 1.543595
578.80 1.535423
578.90 1.530324
579.00 1.528487
579.10 1.529596
579.20 1.533818
579.30 1.54205
579.40 1.554772
579.50 1.571175
579.60 1.588611
579.70 1.604224
579.80 1.615567
579.90 1.620308
580.00 1.616655
580.10 1.604537
580.20 1.586629
580.30 1.566924
580.40 1.548885
580.50 1.535206
580.60 1.527699
580.70 1.527221
580.80 1.533575
580.90 1.545135
581.00 1.559231
581.10 1.573522
581.20 1.58728
581.30 1.600506
581.40 1.61246
581.50 1.621931
581.60 1.628335
581.70 1.632509
581.80 1.637559
581.90 1.647754
582.00 1.666058
582.10 1.691967
582.20 1.721703
582.30 1.750566
582.40 1.775224
582.50 1.793532
582.60 1.803263
582.70 1.803051
582.80 1.793656
582.90 1.776952
583.00 1.754262
583.10 1.725585
583.20 1.689774
583.30 1.64587
583.40 1.593919
583.50 1.536056
583.60 1.477773
583.70 1.42634
583.80 1.387346
583.90 1.363171
584.00 1.353725
584.10 1.35753
584.20 1.371222
584.30 1.388984
584.40 1.403916
584.50 1.410246
584.60 1.404809
584.70 1.386894
584.80 1.358265
584.90 1.323088
585.00 1.285404
585.10 1.247729
585.20 1.212354
585.30 1.181656
585.40 1.156334
585.50 1.133881
585.60 1.10934
585.70 1.077087
585.80 1.039695
585.90 0.9948274
586.00 0.9396455
586.10 0.8748572
586.20 0.8044955
586.30 0.7341759
586.40 0.6688734
586.50 0.6115539
586.60 0.5647445
586.70 0.5440735
586.80 0.5476596
586.90 0.5713486
587.00 0.6105485
587.10 0.6617898
587.20 0.7224221
587.30 0.7900932
587.40 0.8634588
587.50 0.9410737
587.60 1.019695
587.70 1.094966
587.80 1.162731
587.90 1.219621
588.00 1.263532
588.10 1.29412
588.20 1.313058
588.30 1.323674
588.40 1.329943
588.50 1.335249
588.60 1.341339
588.70 1.347638
588.80 1.351052
588.90 1.348286
589.00 1.338832
589.10 1.324622
589.20 1.308801
589.30 1.294746
589.40 1.286225
589.50 1.287449
589.60 1.301617
589.70 1.329987
589.80 1.363932
589.90 1.399508
590.00 1.435105
590.10 1.469294
590.20 1.501144
590.30 1.530176
590.40 1.556788
590.50 1.582163
590.60 1.604104
590.70 1.603878
590.80 1.579741
590.90 1.53353
591.00 1.470436
591.10 1.397458
591.20 1.321593
591.30 1.247687
591.40 1.176688
591.50 1.106775
591.60 1.035869
591.70 0.9624384
591.80 0.8863843
591.90 0.8103694
592.00 0.7455782
592.10 0.6938957
592.20 0.6542941
592.30 0.6246403
592.40 0.6081893
592.50 0.6037795
592.60 0.6079966
592.70 0.6183347
592.80 0.6342071
592.90 0.6555711
593.00 0.6813522
593.10 0.710077
593.20 0.7394472
593.30 0.7665246
593.40 0.7891054
593.50 0.8063934
593.60 0.8193161
593.70 0.8299139
593.80 0.8402311
593.90 0.8514321
594.00 0.8643748
594.10 0.8803804
594.20 0.9014641
594.30 0.9298805
594.40 0.9666383
594.50 1.010337
594.60 1.058566
594.70 1.108958
594.80 1.159024
594.90 1.206034
595.00 1.246152
595.10 1.275482
595.20 1.292682
595.30 1.300293
595.40 1.303534
595.50 1.3078
595.60 1.316328
595.70 1.329941
595.80 1.347642
595.90 1.367098
596.00 1.379669
596.10 1.386691
596.20 1.391551
596.30 1.397616
596.40 1.401926
596.50 1.40546
596.60 1.41042
596.70 1.417516
596.80 1.426505
596.90 1.436744
597.00 1.44811
597.10 1.460876
597.20 1.475933
597.30 1.494345
597.40 1.51542
597.50 1.536609
597.60 1.554886
597.70 1.568138
597.80 1.575999
597.90 1.578963
598.00 1.577329
598.10 1.571226
598.20 1.559878
598.30 1.541847
598.40 1.516152
598.50 1.483721
598.60 1.448215
598.70 1.415071
598.80 1.39
598.90 1.377622
599.00 1.380456
599.10 1.398333
599.20 1.428524
599.30 1.466635
599.40 1.508479
599.50 1.551105
599.60 1.592893
599.70 1.633372
599.80 1.673238
599.90 1.713787
600.00 1.876209
600.10 1.763683
600.20 1.663414
600.30 1.57672
600.40 1.506984
600.50 1.465744
600.60 1.455172
600.70 1.477755
600.80 1.560417
600.90 1.722612
601.00 1.928165
601.10 2.11666
601.20 2.271297
601.30 2.412835
601.40 2.565481
601.50 2.71429
601.60 2.801348
601.70 2.778103
601.80 2.641878
601.90 2.420683
602.00 2.138692
602.10 1.826801
602.20 1.546309
602.30 1.348413
602.40 1.263604
602.50 1.307828
602.60 1.462152
602.70 1.707345
602.80 2.01536
602.90 2.326688
603.00 2.603622
603.10 2.823547
603.20 2.944516
603.30 2.932369
603.40 2.800704
603.50 2.621005
603.60 2.459471
603.70 2.36317
603.80 2.381739
603.90 2.538485
604.00 2.810994
604.10 3.117319
604.20 3.370511
604.30 3.52885
604.40 3.562999
604.50 3.471388
604.60 3.301297
604.70 3.107145
604.80 2.917963
604.90 2.734024
605.00 2.563552
605.10 2.428141
605.20 2.340424
605.30 2.308542
605.40 2.317752
605.50 2.341532
605.60 2.349349
605.70 2.314226
605.80 2.237625
605.90 2.129324
606.00 1.981513
606.10 1.797879
606.20 1.619119
606.30 1.507778
606.40 1.527601
606.50 1.731156
606.60 2.118804
606.70 2.621932
606.80 3.150721
606.90 3.598648
607.00 3.85754
607.10 3.870768
607.20 3.657438
607.30 3.285791
607.40 2.837487
607.50 2.377428
607.60 1.960725
607.70 1.631788
607.80 1.393023
607.90 1.218944
608.00 1.084909
608.10 0.9592671
608.20 0.8354562
608.30 0.7573509
608.40 0.7643525
608.50 0.8647404
608.60 1.030309
608.70 1.20356
608.80 1.352192
608.90 1.48417
609.00 1.613185
609.10 1.766584
609.20 1.98149
609.30 2.253371
609.40 2.546637
609.50 2.85752
609.60 3.186179
609.70 3.506428
609.80 3.785651
609.90 3.990449
610.00 4.100097
610.10 4.133121
610.20 4.118748
610.30 4.078808
610.40 4.020126
610.50 3.890279
610.60 3.653644
610.70 3.353258
610.80 3.061654
610.90 2.828715
611.00 2.671162
611.10 2.590181
611.20 2.587087
611.30 2.666001
611.40 2.820534
611.50 3.01156
611.60 3.177849
611.70 3.265724
611.80 3.247859
611.90 3.163288
612.00 3.063014
612.10 2.95804
612.20 2.849256
612.30 2.729369
612.40 2.577115
612.50 2.390136
612.60 2.190137
612.70 1.997228
612.80 1.826679
612.90 1.707517
613.00 1.672765
613.10 1.729942
613.20 1.87954
613.30 2.08709
613.40 2.296231
613.50 2.485403
613.60 2.663844
613.70 2.841829
613.80 3.03913
613.90 3.277695
614.00 3.570187
614.10 3.905586
614.20 4.228903
614.30 4.45056
614.40 4.503355
614.50 4.383034
614.60 4.111522
614.70 3.755561
614.80 3.397317
614.90 3.089219
615.00 2.863256
615.10 2.76528
615.20 2.824509
615.30 2.991417
615.40 3.180399
615.50 3.330351
615.60 3.436337
615.70 3.538852
615.80 3.680264
615.90 3.873361
616.00 4.105606
616.10 4.348805
616.20 4.548749
616.30 4.641125
616.40 4.584386
616.50 4.362054
616.60 3.992145
616.70 3.533841
616.80 3.048945
616.90 2.594297
617.00 2.213386
617.10 1.922181
617.20 1.714605
617.30 1.566671
617.40 1.468745
617.50 1.416176
617.60 1.415967
617.70 1.500334
617.80 1.677034
617.90 1.911204
618.00 2.166368
618.10 2.430664
618.20 2.674326
618.30 2.846059
618.40 2.920788
618.50 2.903245
618.60 2.816613
618.70 2.705584
618.80 2.630273
618.90 2.636718
619.00 2.74338
619.10 2.923459
619.20 3.131929
619.30 3.335984
619.40 3.464254
619.50 3.457355
619.60 3.347639
619.70 3.210151
619.80 3.08259
619.90 2.976508
620.00 2.923454
620.10 2.954084
620.20 3.058126
620.30 3.197904
620.40 3.338378
620.50 3.446317
620.60 3.485445
620.70 3.435953
620.80 3.337107
620.90 3.22314
621.00 3.081849
621.10 2.903412
621.20 2.714172
621.30 2.565397
621.40 2.466139
621.50 2.378571
621.60 2.290551
621.70 2.222592
621.80 2.169018
621.90 2.104408
622.00 2.038549
622.10 1.993717
622.20 1.96485
622.30 1.951268
622.40 1.972888
622.50 2.05714
622.60 2.21747
622.70 2.438579
622.80 2.699662
622.90 2.996615
623.00 3.302045
623.10 3.577035
623.20 3.803521
623.30 3.974323
623.40 4.061822
623.50 4.039881
623.60 3.932969
623.70 3.78166
623.80 3.604007
623.90 3.408902
624.00 3.220693
624.10 3.069033
624.20 2.979571
624.30 2.963672
624.40 3.016746
624.50 3.112752
624.60 3.221976
624.70 3.327352
624.80 3.412739
624.90 3.464982
625.00 3.476687
625.10 3.469869
625.20 3.50718
625.30 3.610691
625.40 3.743786
625.50 3.885763
625.60 4.019247
625.70 4.110127
625.80 4.13179
625.90 4.089002
626.00 4.006351
626.10 3.899186
626.20 3.773331
626.30 3.604636
626.40 3.378032
626.50 3.111955
626.60 2.825551
626.70 2.559366
626.80 2.365853
626.90 2.27603
627.00 2.315683
627.10 2.497109
627.20 2.787832
627.30 3.131255
627.40 3.464592
627.50 3.723642
627.60 3.861338
627.70 3.882828
627.80 3.814117
627.90 3.674493
628.00 3.495884
628.10 3.334144
628.20 3.251468
628.30 3.282989
628.40 3.413647
628.50 3.603297
628.60 3.821807
628.70 4.007762
628.80 4.098102
628.90 4.083345
629.00 3.997967
629.10 3.890058
629.20 3.80641
629.30 3.786865
629.40 3.853164
629.50 3.981126
629.60 4.141103
629.70 4.336829
629.80 4.554088
629.90 4.755939
630.00 4.898358
630.10 4.964803
630.20 4.963059
630.30 4.904341
630.40 4.811909
630.50 4.7215
630.60 4.657206
630.70 4.617097
630.80 4.578583
630.90 4.538757
631.00 4.508092
631.10 4.461686
631.20 4.409918
631.30 4.384029
631.40 4.410091
631.50 4.511881
631.60 4.679648
631.70 4.875114
631.80 5.044943
631.90 5.142634
632.00 5.154176
632.10 5.093694
632.20 4.994556
632.30 4.90959
632.40 4.877735
632.50 4.899679
632.60 4.930608
632.70 4.930802
632.80 4.870845
632.90 4.731095
633.00 4.534376
633.10 4.331678
633.20 4.176043
633.30 4.11134
633.40 4.161448
633.50 4.310917
633.60 4.521853
633.70 4.767627
633.80 5.02419
633.90 5.287164
634.00 5.569196
634.10 5.85785
634.20 6.13051
634.30 6.362071
634.40 6.524219
634.50 6.605949
634.60 6.622707
634.70 6.587744
634.80 6.50942
634.90 6.407772
635.00 6.321663
635.10 6.26607
635.20 6.238165
635.30 6.216044
635.40 6.16474
635.50 6.080293
635.60 5.954043
635.70 5.791651
635.80 5.654801
635.90 5.600481
636.00 5.658497
636.10 5.847883
636.20 6.141788
636.30 6.494633
636.40 6.839641
636.50 7.104325
636.60 7.22604
636.70 7.17699
636.80 6.982068
636.90 6.693577
637.00 6.40501
637.10 6.190303
637.20 6.049678
637.30 5.965043
637.40 5.91415
637.50 5.87798
637.60 5.857429
637.70 5.832746
637.80 5.778917
637.90 5.680368
638.00 5.546348
638.10 5.415885
638.20 5.324305
638.30 5.277396
638.40 5.268536
638.50 5.28882
638.60 5.31807
638.70 5.336691
638.80 5.335138
638.90 5.306422
639.00 5.258186
639.10 5.228725
639.20 5.255331
639.30 5.354028
639.40 5.50255
639.50 5.65318
639.60 5.768318
639.70 5.843937
639.80 5.889224
639.90 5.912998
640.00 5.919894
640.10 5.917677
640.20 5.929724
640.30 5.962411
640.40 6.000286
640.50 6.027265
640.60 6.024673
640.70 5.978897
640.80 5.910748
640.90 5.849758
641.00 5.813249
641.10 5.798364
641.20 5.778395
641.30 5.741213
641.40 5.698162
641.50 5.65399
641.60 5.598536
641.70 5.532453
641.80 5.487012
641.90 5.495363
642.00 5.580235
642.10 5.748295
642.20 5.975836
642.30 6.218825
642.40 6.421226
642.50 6.550312
642.60 6.608546
642.70 6.60768
642.80 6.569379
642.90 6.526482
643.00 6.504072
643.10 6.51204
643.20 6.531894
643.30 6.541109
643.40 6.540259
643.50 6.536634
643.60 6.522139
643.70 6.477698
643.80 6.396352
643.90 6.285458
644.00 6.177799
644.10 6.116098
644.20 6.125174
644.30 6.204299
644.40 6.336182
644.50 6.500564
644.60 6.675917
644.70 6.833155
644.80 6.932199
644.90 6.943296
645.00 6.864832
645.10 6.717058
645.20 6.5344
645.30 6.354453
645.40 6.185955
645.50 6.026193
645.60 5.889434
645.70 5.797631
645.80 5.770642
645.90 5.816326
646.00 5.933562
646.10 6.090017
646.20 6.23478
646.30 6.324504
646.40 6.328787
646.50 6.261679
646.60 6.1686
646.70 6.079794
646.80 6.016506
646.90 5.996199
647.00 6.013666
647.10 6.050545
647.20 6.084844
647.30 6.102508
647.40 6.099534
647.50 6.084103
647.60 6.06847
647.70 6.064447
647.80 6.089485
647.90 6.144467
648.00 6.214257
648.10 6.291733
648.20 6.38002
648.30 6.475118
648.40 6.567389
648.50 6.651536
648.60 6.722263
648.70 6.766496
648.80 6.761355
648.90 6.684966
649.00 6.547601
649.10 6.395693
649.20 6.292015
649.30 6.287148
649.40 6.405276
649.50 6.63358
649.60 6.920896
649.70 7.202402
649.80 7.413564
649.90 7.516031
650.00 7.534648
650.10 7.51156
650.20 7.474188
650.30 7.472311
650.40 7.562883
650.50 7.778132
650.60 8.098924
650.70 8.459651
650.80 8.778323
650.90 9.006222
651.00 9.112588
651.10 9.073944
651.20 8.920941
651.30 8.709802
651.40 8.471803
651.50 8.252967
651.60 8.120916
651.70 8.11008
651.80 8.190958
651.90 8.294776
652.00 8.3766
652.10 8.430288
652.20 8.470652
652.30 8.507345
652.40 8.551513
652.50 8.619477
652.60 8.719
652.70 8.860789
652.80 9.051889
652.90 9.285997
653.00 9.53408
653.10 9.774537
653.20 10.01037
653.30 10.23577
653.40 10.43519
653.50 10.60111
653.60 10.73848
653.70 10.84459
653.80 10.9234
653.90 10.99975
654.00 11.08339
654.10 11.1586
654.20 11.20597
654.30 11.18891
654.40 11.08542
654.50 10.91584
654.60 10.70934
654.70 10.49597
654.80 10.31679
654.90 10.21425
655.00 10.21963
655.10 10.34144
655.20 10.54803
655.30 10.77997
655.40 11.00033
655.50 11.18081
655.60 11.28405
655.70 11.32255
655.80 11.3642
655.90 11.48484
656.00 11.73049
656.10 12.09709
656.20 12.53134
656.30 12.95314
656.40 13.27397
656.50 13.43814
656.60 13.45445
656.70 13.35519
656.80 13.15083
656.90 12.85686
657.00 12.51467
657.10 12.16098
657.20 11.83167
657.30 11.55664
657.40 11.35777
657.50 11.26992
657.60 11.3106
657.70 11.44181
657.80 11.60762
657.90 11.76516
658.00 11.87063
658.10 11.89799
658.20 11.85034
658.30 11.75735
658.40 11.66877
658.50 11.6328
658.60 11.65555
658.70 11.68791
658.80 11.68233
658.90 11.6081
659.00 11.45328
659.10 11.26087
659.20 11.07268
659.30 10.89576
659.40 10.74253
659.50 10.6337
659.60 10.59045
659.70 10.6179
659.80 10.70046
659.90 10.81225
660.00 10.93114
660.10 11.0502
660.20 11.15778
660.30 11.24315
660.40 11.31735
660.50 11.38369
660.60 11.44185
660.70 11.50147
660.80 11.5663
660.90 11.62765
661.00 11.66374
661.10 11.66295
661.20 11.61707
661.30 11.52005
661.40 11.39303
661.50 11.27649
661.60 11.2189
661.70 11.24982
661.80 11.34258
661.90 11.44299
662.00 11.50551
662.10 11.49183
662.20 11.38313
662.30 11.19685
662.40 10.97904
662.50 10.77945
662.60 10.65913
662.70 10.67453
662.80 10.81937
662.90 11.03881
663.00 11.2707
663.10 11.45668
663.20 11.56225
663.30 11.58746
663.40 11.57229
663.50 11.5721
663.60 11.61925
663.70 11.72324
663.80 11.88392
663.90 12.07768
664.00 12.26096
664.10 12.39652
664.20 12.46723
664.30 12.48326
664.40 12.47375
664.50 12.46782
664.60 12.4797
664.70 12.50432
664.80 12.51726
664.90 12.50588
665.00 12.47279
665.10 12.42323
665.20 12.37518
665.30 12.35828
665.40 12.38397
665.50 12.44829
665.60 12.55059
665.70 12.662
665.80 12.72933
665.90 12.71586
666.00 12.6117
666.10 12.42805
666.20 12.19286
666.30 11.9413
666.40 11.72732
666.50 11.60401
666.60 11.59408
666.70 11.70149
666.80 11.91513
666.90 12.19792
667.00 12.4972
667.10 12.77295
667.20 13.00314
667.30 13.18575
667.40 13.33737
667.50 13.46227
667.60 13.54734
667.70 13.5757
667.80 13.53201
667.90 13.4088
668.00 13.218
668.10 12.99651
668.20 12.80074
668.30 12.68596
668.40 12.68385
668.50 12.78795
668.60 12.94933
668.70 13.09818
668.80 13.1548
668.90 13.06805
669.00 12.84452
669.10 12.5365
669.20 12.21567
669.30 11.96474
669.40 11.85484
669.50 11.90687
669.60 12.10883
669.70 12.42458
669.80 12.78611
669.90 13.12257
670.00 13.37756
670.10 13.50207
670.20 13.48275
670.30 13.34304
670.40 13.1126
670.50 12.82272
670.60 12.50558
670.70 12.18922
670.80 11.90703
670.90 11.70196
671.00 11.59679
671.10 11.58723
671.20 11.6718
671.30 11.86085
671.40 12.15432
671.50 12.53602
671.60 12.97363
671.70 13.41931
671.80 13.82511
671.90 14.14727
672.00 14.36257
672.10 14.47674
672.20 14.50588
672.30 14.47006
672.40 14.39674
672.50 14.3279
672.60 14.30441
672.70 14.32291
672.80 14.36449
672.90 14.41831
673.00 14.45751
673.10 14.45826
673.20 14.42002
673.30 14.37354
673.40 14.34996
673.50 14.34463
673.60 14.34452
673.70 14.34022
673.80 14.33301
673.90 14.33008
674.00 14.32883
674.10 14.34193
674.20 14.38072
674.30 14.43609
674.40 14.50154
674.50 14.57303
674.60 14.63834
674.70 14.67758
674.80 14.67919
674.90 14.65082
675.00 14.60916
675.10 14.58802
675.20 14.6073
675.30 14.65324
675.40 14.71025
675.50 14.75426
675.60 14.75544
675.70 14.70432
675.80 14.62333
675.90 14.53783
676.00 14.46298
676.10 14.39645
676.20 14.33559
676.30 14.30183
676.40 14.32077
676.50 14.38913
676.60 14.48359
676.70 14.58258
676.80 14.66495
676.90 14.7371
677.00 14.81813
677.10 14.89615
677.20 14.93379
677.30 14.92431
677.40 14.90059
677.50 14.89824
677.60 14.92509
677.70 14.96223
677.80 14.97969
677.90 14.96026
678.00 14.91255
678.10 14.86039
678.20 14.81269
678.30 14.72888
678.40 14.57557
678.50 14.37859
678.60 14.1905
678.70 14.04919
678.80 13.95353
678.90 13.89382
679.00 13.87339
679.10 13.88858
679.20 13.92909
679.30 13.99122
679.40 14.07001
679.50 14.14851
679.60 14.21741
679.70 14.28162
679.80 14.33638
679.90 14.36227
680.00 14.34418
680.10 14.2801
680.20 14.1878
680.30 14.09287
680.40 14.02441
680.50 14.00067
680.60 14.02113
680.70 14.05791
680.80 14.05665
680.90 13.9848
681.00 13.84672
681.10 13.68107
681.20 13.53768
681.30 13.44186
681.40 13.39072
681.50 13.37285
681.60 13.37028
681.70 13.36164
681.80 13.32267
681.90 13.2427
682.00 13.13742
682.10 13.04891
682.20 13.03371
682.30 13.12181
682.40 13.30279
682.50 13.51168
682.60 13.66351
682.70 13.73596
682.80 13.75772
682.90 13.73733
683.00 13.66724
683.10 13.5489
683.20 13.40404
683.30 13.27324
683.40 13.17331
683.50 13.07259
683.60 12.94885
683.70 12.8139
683.80 12.69585
683.90 12.6591
684.00 12.76768
684.10 13.017
684.20 13.34247
684.30 13.67197
684.40 13.94131
684.50 14.11425
684.60 14.17834
684.70 14.11821
684.80 13.93807
684.90 13.69169
685.00 13.43586
685.10 13.21052
685.20 13.06163
685.30 13.00092
685.40 12.99766
685.50 13.01817
685.60 13.04192
685.70 13.06737
685.80 13.12111
685.90 13.23314
686.00 13.41077
686.10 13.62659
686.20 13.82778
686.30 13.97117
686.40 14.0468
686.50 14.0593
686.60 13.9916
686.70 13.84464
686.80 13.66044
686.90 13.47773
687.00 13.33205
687.10 13.25117
687.20 13.23595
687.30 13.25582
687.40 13.25773
687.50 13.22206
687.60 13.17945
687.70 13.14952
687.80 13.11239
687.90 13.02777
688.00 12.88184
688.10 12.7082
688.20 12.55777
688.30 12.48745
688.40 12.5451
688.50 12.73771
688.60 13.0127
688.70 13.2876
688.80 13.49679
688.90 13.59647
689.00 13.58001
689.10 13.46448
689.20 13.26068
689.30 13.00378
689.40 12.73845
689.50 12.49543
689.60 12.30207
689.70 12.15428
689.80 12.01402
689.90 11.84899
690.00 11.66533
690.10 11.49539
690.20 11.36514
690.30 11.29129
690.40 11.27487
690.50 11.32087
690.60 11.43693
690.70 11.63432
690.80 11.9495
690.90 12.38454
691.00 12.88016
691.10 13.359
691.20 13.73674
691.30 13.93758
691.40 13.92146
691.50 13.68077
691.60 13.26142
691.70 12.77799
691.80 12.33371
691.90 11.96567
692.00 11.70852
692.10 11.59549
692.20 11.60399
692.30 11.69074
692.40 11.83511
692.50 12.03277
692.60 12.28707
692.70 12.59929
692.80 12.96329
692.90 13.36447
693.00 13.77059
693.10 14.11769
693.20 14.34559
693.30 14.44905
693.40 14.44468
693.50 14.33861
693.60 14.15818
693.70 13.94931
693.80 13.74468
693.90 13.57733
694.00 13.48955
694.10 13.51501
694.20 13.67843
694.30 13.99015
694.40 14.45642
694.50 15.0608
694.60 15.71771
694.70 16.32045
694.80 16.7939
694.90 17.07559
695.00 17.11476
695.10 16.90621
695.20 16.51013
695.30 16.01797
695.40 15.50852
695.50 15.06266
695.60 14.7418
695.70 14.56636
695.80 14.49917
695.90 14.46507
696.00 14.43335
696.10 14.40366
696.20 14.35986
696.30 14.30711
696.40 14.27246
696.50 14.28047
696.60 14.33732
696.70 14.4356
696.80 14.57417
696.90 14.71891
697.00 14.81708
697.10 14.83554
697.20 14.77275
697.30 14.68055
697.40 14.62748
697.50 14.65894
697.60 14.80471
697.70 15.04533
697.80 15.33474
697.90 15.61378
698.00 15.81035
698.10 15.88605
698.20 15.84479
698.30 15.7379
698.40 15.63772
698.50 15.60489
698.60 15.66021
698.70 15.76802
698.80 15.88007
698.90 15.96162
699.00 15.99227
699.10 15.97865
699.20 15.93939
699.30 15.89838
699.40 15.87377
699.50 15.85728
699.60 15.83999
699.70 15.81101
699.80 15.75384
699.90 15.67261
700.00 15.60098
700.10 15.5875
700.20 15.67357
700.30 15.87186
700.40 16.15326
700.50 16.48732
700.60 16.83744
700.70 17.1454
700.80 17.38329
700.90 17.56679
701.00 17.70087
701.10 17.78547
701.20 17.83425
701.30 17.85539
701.40 17.8616
701.50 17.85981
701.60 17.84672
701.70 17.82438
701.80 17.80897
701.90 17.81181
702.00 17.83469
702.10 17.88336
702.20 17.95914
702.30 18.03922
702.40 18.10088
702.50 18.13548
702.60 18.15564
702.70 18.19455
702.80 18.26702
702.90 18.39154
703.00 18.59289
703.10 18.87421
703.20 19.22002
703.30 19.60521
703.40 19.99338
703.50 20.36258
703.60 20.72503
703.70 21.09255
703.80 21.44922
703.90 21.78819
704.00 22.1009
704.10 22.36015
704.20 22.55861
704.30 22.69531
704.40 22.75338
704.50 22.72089
704.60 22.61387
704.70 22.46587
704.80 22.32251
704.90 22.21326
705.00 22.11913
705.10 22.00695
705.20 21.87404
705.30 21.71753
705.40 21.50096
705.50 21.19917
705.60 20.82853
705.70 20.42859
705.80 20.05526
705.90 19.76797
706.00 19.61026
706.10 19.60225
706.20 19.72877
706.30 19.94335
706.40 20.19124
706.50 20.42803
706.60 20.62495
706.70 20.76713
706.80 20.8785
706.90 20.99248
707.00 21.1053
707.10 21.19433
707.20 21.25331
707.30 21.3123
707.40 21.41075
707.50 21.56553
707.60 21.77219
707.70 22.01672
707.80 22.28394
707.90 22.55003
708.00 22.76522
708.10 22.88165
708.20 22.87671
708.30 22.74963
708.40 22.52485
708.50 22.2336
708.60 21.91252
708.70 21.58848
708.80 21.26284
708.90 20.92968
709.00 20.59657
709.10 20.30017
709.20 20.07975
709.30 19.95634
709.40 19.9405
709.50 20.03181
709.60 20.19882
709.70 20.39368
709.80 20.58104
709.90 20.7507
710.00 20.89323
710.10 20.9886
710.20 21.04694
710.30 21.0983
710.40 21.1639
710.50 21.24286
710.60 21.3219
710.70 21.39357
710.80 21.4609
710.90 21.52586
711.00 21.59923
711.10 21.69708
711.20 21.81391
711.30 21.93764
711.40 22.05713
711.50 22.15004
711.60 22.18588
711.70 22.14432
711.80 22.02558
711.90 21.86002
712.00 21.68171
712.10 21.51293
712.20 21.37202
712.30 21.26711
712.40 21.18677
712.50 21.11101
712.60 21.03655
712.70 20.97314
712.80 20.92021
712.90 20.86833
713.00 20.82298
713.10 20.79166
713.20 20.75766
713.30 20.70362
713.40 20.65328
713.50 20.64954
713.60 20.71821
713.70 20.86077
713.80 21.07878
713.90 21.36991
714.00 21.70774
714.10 22.03977
714.20 22.31548
714.30 22.52798
714.40 22.67179
714.50 22.75338
714.60 22.82897
714.70 22.95099
714.80 23.13426
714.90 23.35645
715.00 23.5715
715.10 23.73947
715.20 23.82793
715.30 23.83154
715.40 23.77044
715.50 23.68177
715.60 23.6182
715.70 23.608
715.80 23.6654
715.90 23.79088
716.00 23.95755
716.10 24.12827
716.20 24.27812
716.30 24.41825
716.40 24.57672
716.50 24.76912
716.60 24.99225
716.70 25.19471
716.80 25.30688
716.90 25.28585
717.00 25.11133
717.10 24.81358
717.20 24.46362
717.30 24.13526
717.40 23.89205
717.50 23.77598
717.60 23.79489
717.70 23.92887
717.80 24.14124
717.90 24.37249
718.00 24.56372
718.10 24.70785
718.20 24.82028
718.30 24.90917
718.40 24.99796
718.50 25.10831
718.60 25.25283
718.70 25.43841
718.80 25.65455
718.90 25.87665
719.00 26.07569
719.10 26.21674
719.20 26.28764
719.30 26.30868
719.40 26.30026
719.50 26.2676
719.60 26.21628
719.70 26.16275
719.80 26.13276
719.90 26.14876
720.00 26.22675
720.10 26.37751
720.20 26.5807
720.30 26.78713
720.40 26.94888
720.50 27.02599
720.60 26.98958
720.70 26.84636
720.80 26.63536
720.90 26.40083
721.00 26.19398
721.10 26.06731
721.20 26.04969
721.30 26.14478
721.40 26.32823
721.50 26.55131
721.60 26.78292
721.70 27.02444
721.80 27.25977
721.90 27.45536
722.00 27.59886
722.10 27.67567
722.20 27.67234
722.30 27.61583
722.40 27.55372
722.50 27.52046
722.60 27.52094
722.70 27.53913
722.80 27.57208
722.90 27.62763
723.00 27.69287
723.10 27.73792
723.20 27.77093
723.30 27.83806
723.40 27.98744
723.50 28.3271
723.60 28.94887
723.70 29.76548
723.80 30.60497
723.90 31.31534
724.00 31.80042
724.10 32.02902
724.20 31.96569
724.30 31.61446
724.40 31.06608
724.50 30.44271
724.60 29.87143
724.70 29.48753
724.80 29.39372
724.90 29.56126
725.00 29.89383
725.10 30.37464
725.20 30.97986
725.30 31.61602
725.40 32.15501
725.50 32.47208
725.60 32.50484
725.70 32.25202
725.80 31.78769
725.90 31.25751
726.00 30.78829
726.10 30.45089
726.20 30.27816
726.30 30.28805
726.40 30.47088
726.50 30.76426
726.60 31.08048
726.70 31.33101
726.80 31.44155
726.90 31.4268
727.00 31.45181
727.10 31.76095
727.20 32.50337
727.30 33.60996
727.40 34.82936
727.50 35.88118
727.60 36.53303
727.70 36.61579
727.80 36.11689
727.90 35.18335
728.00 34.05449
728.10 33.00509
728.20 32.27565
728.30 31.98008
728.40 32.04266
728.50 32.21931
728.60 32.24066
728.70 31.98082
728.80 31.50501
728.90 30.95358
729.00 30.46646
729.10 30.17931
729.20 30.16878
729.30 30.42941
729.40 30.89855
729.50 31.48116
729.60 32.07857
729.70 32.62115
729.80 33.04489
729.90 33.31317
730.00 33.45143
730.10 33.52364
730.20 33.59393
730.30 33.69435
730.40 33.83958
730.50 34.02094
730.60 34.18076
730.70 34.28033
730.80 34.29851
730.90 34.23978
731.00 34.18568
731.10 34.26006
731.20 34.56355
731.30 35.09752
731.40 35.77317
731.50 36.45115
731.60 36.99412
731.70 37.30907
731.80 37.34548
731.90 37.12982
732.00 36.75812
732.10 36.33885
732.20 35.99883
732.30 35.86261
732.40 35.99747
732.50 36.34286
732.60 36.74628
732.70 37.08546
732.80 37.27194
732.90 37.25878
733.00 37.03706
733.10 36.63308
733.20 36.12644
733.30 35.62585
733.40 35.24963
733.50 35.12728
733.60 35.35372
733.70 35.93059
733.80 36.75126
733.90 37.62856
734.00 38.3911
734.10 38.91313
734.20 39.09618
734.30 38.89527
734.40 38.33773
734.50 37.53632
734.60 36.67298
734.70 35.9281
734.80 35.42879
734.90 35.20227
735.00 35.18781
735.10 35.29332
735.20 35.42192
735.30 35.5165
735.40 35.53108
735.50 35.4216
735.60 35.19767
735.70 34.90258
735.80 34.61798
735.90 34.42409
736.00 34.34825
736.10 34.38238
736.20 34.51956
736.30 34.78737
736.40 35.25078
736.50 35.93946
736.60 36.76693
736.70 37.55098
736.80 38.09625
736.90 38.27964
737.00 38.08224
737.10 37.5712
737.20 36.85416
737.30 36.07177
737.40 35.37345
737.50 34.88516
737.60 34.68586
737.70 34.75614
737.80 34.98192
737.90 35.22397
738.00 35.38036
738.10 35.42452
738.20 35.40218
738.30 35.37428
738.40 35.377
738.50 35.42439
738.60 35.52874
738.70 35.69863
738.80 35.91489
738.90 36.14676
739.00 36.36803
739.10 36.55597
739.20 36.6525
739.30 36.6028
739.40 36.43306
739.50 36.23554
739.60 36.12419
739.70 36.1639
739.80 36.35921
739.90 36.67855
740.00 37.02016
740.10 37.24749
740.20 37.26592
740.30 37.02773
740.40 36.52794
740.50 35.80989
740.60 35.00351
740.70 34.27312
740.80 33.73875
740.90 33.44862
741.00 33.374
741.10 33.46635
741.20 33.66212
741.30 33.89138
741.40 34.14357
741.50 34.41891
741.60 34.66617
741.70 34.82793
741.80 34.85841
741.90 34.73498
742.00 34.47302
742.10 34.12298
742.20 33.74426
742.30 33.40306
742.40 33.1715
742.50 33.09604
742.60 33.18272
742.70 33.39104
742.80 33.63771
742.90 33.8256
743.00 33.90569
743.10 33.86631
743.20 33.72939
743.30 33.56806
743.40 33.42989
743.50 33.31795
743.60 33.25872
743.70 33.25951
743.80 33.27382
743.90 33.24487
744.00 33.13785
744.10 32.96124
744.20 32.74445
744.30 32.537
744.40 32.39451
744.50 32.35504
744.60 32.41824
744.70 32.52451
744.80 32.62113
744.90 32.70382
745.00 32.77054
745.10 32.8234
745.20 32.87472
745.30 32.92475
745.40 32.9737
745.50 33.02872
745.60 33.09204
745.70 33.15163
745.80 33.19354
745.90 33.21889
746.00 33.24648
746.10 33.30761
746.20 33.44357
746.30 33.65838
746.40 33.89929
746.50 34.10625
746.60 34.23662
746.70 34.27873
746.80 34.24633
746.90 34.1517
747.00 33.98814
747.10 33.7394
747.20 33.40144
747.30 33.01312
747.40 32.64753
747.50 32.38027
747.60 32.2681
747.70 32.31837
747.80 32.49252
747.90 32.75482
748.00 33.07579
748.10 33.38105
748.20 33.56975
748.30 33.57097
748.40 33.38311
748.50 33.08508
748.60 32.81286
748.70 32.67513
748.80 32.71044
748.90 32.89673
749.00 33.16172
749.10 33.43909
749.20 33.67762
749.30 33.81744
749.40 33.81947
749.50 33.71322
749.60 33.57644
749.70 33.48429
749.80 33.46665
749.90 33.50176
750.00 33.53395
750.10 33.49386
750.20 33.35526
750.30 33.14491
750.40 32.91061
750.50 32.71658
750.60 32.63385
750.70 32.70949
750.80 32.94463
750.90 33.29109
751.00 33.65527
751.10 33.93477
751.20 34.08355
751.30 34.11985
751.40 34.07034
751.50 33.96501
751.60 33.83897
751.70 33.71457
751.80 33.6339
751.90 33.65341
752.00 33.79317
752.10 34.01481
752.20 34.25981
752.30 34.47719
752.40 34.62568
752.50 34.68467
752.60 34.64911
752.70 34.51949
752.80 34.3242
752.90 34.09536
753.00 33.84104
753.10 33.59285
753.20 33.36529
753.30 33.12573
753.40 32.85641
753.50 32.59032
753.60 32.38937
753.70 32.31234
753.80 32.3925
753.90 32.62797
754.00 32.97843
754.10 33.36329
754.20 33.68385
754.30 33.89275
754.40 33.99989
754.50 34.02211
754.60 33.97819
754.70 33.89476
754.80 33.81511
754.90 33.77661
755.00 33.77978
755.10 33.8182
755.20 33.90409
755.30 34.03459
755.40 34.18342
755.50 34.34092
755.60 34.51527
755.70 34.68841
755.80 34.81292
755.90 34.84279
756.00 34.74836
756.10 34.50875
756.20 34.12807
756.30 33.65005
756.40 33.1522
756.50 32.72034
756.60 32.44445
756.70 32.38537
756.80 32.52993
756.90 32.78957
757.00 33.04078
757.10 33.19533
757.20 33.20404
757.30 33.02948
757.40 32.68557
757.50 32.26704
757.60 31.88386
757.70 31.62774
757.80 31.5626
757.90 31.69416
758.00 31.96484
758.10 32.28092
758.20 32.54126
758.30 32.69528
758.40 32.69491
758.50 32.44988
758.60 31.9192
758.70 31.15028
758.80 30.23664
758.90 29.28843
759.00 28.40705
759.10 27.68373
759.20 27.20555
759.30 27.01658
759.40 27.07516
759.50 27.29544
759.60 27.61558
759.70 27.95116
759.80 28.24697
759.90 28.53862
760.00 28.83488
760.10 29.0262
760.20 28.99598
760.30 28.71889
760.40 28.20499
760.50 27.45362
760.60 26.48656
760.70 25.38206
760.80 24.31476
760.90 23.50847
761.00 23.11592
761.10 23.16886
761.20 23.5807
761.30 24.19631
761.40 24.84385
761.50 25.40272
761.60 25.77189
761.70 25.82689
761.80 25.51545
761.90 24.91029
762.00 24.16046
762.10 23.42598
762.20 22.8044
762.30 22.33618
762.40 22.02558
762.50 21.85617
762.60 21.78715
762.70 21.69624
762.80 21.44149
762.90 20.97609
763.00 20.33383
763.10 19.58478
763.20 18.82535
763.30 18.13133
763.40 17.55961
763.50 17.14271
763.60 16.86658
763.70 16.68181
763.80 16.53198
763.90 16.35666
764.00 16.10551
764.10 15.75206
764.20 15.28766
764.30 14.70431
764.40 14.00774
764.50 13.21579
764.60 12.35564
764.70 11.49548
764.80 10.68302
764.90 9.945172
765.00 9.323728
765.10 8.828669
765.20 8.42308
765.30 8.068703
765.40 7.731136
765.50 7.375887
765.60 6.99622
765.70 6.616849
765.80 6.264678
765.90 5.951871
766.00 5.675958
766.10 5.413742
766.20 5.12926
766.30 4.80583
766.40 4.444989
766.50 4.065741
766.60 3.713703
766.70 3.441244
766.80 3.298933
766.90 3.32947
767.00 3.546755
767.10 3.924389
767.20 4.409105
767.30 4.957857
767.40 5.545342
767.50 6.150957
767.60 6.75473
767.70 7.330548
767.80 7.871054
767.90 8.381524
768.00 8.862181
768.10 9.300926
768.20 9.667056
768.30 9.93186
768.40 10.08042
768.50 10.1022
768.60 9.984449
768.70 9.713133
768.80 9.299346
768.90 8.786181
769.00 8.239935
769.10 7.748367
769.20 7.354955
769.30 7.031228
769.40 6.737996
769.50 6.438171
769.60 6.088575
769.70 5.676902
769.80 5.226684
769.90 4.783492
770.00 4.415067
770.10 4.196439
770.20 4.173768
770.30 4.357804
770.40 4.729892
770.50 5.233952
770.60 5.836961
770.70 6.57496
770.80 7.511705
770.90 8.652648
771.00 9.95234
771.10 11.34755
771.20 12.71318
771.30 13.86104
771.40 14.63863
771.50 15.04004
771.60 15.17278
771.70 15.16146
771.80 15.14898
771.90 15.28202
772.00 15.63527
772.10 16.18536
772.20 16.83476
772.30 17.51557
772.40 18.18007
772.50 18.73078
772.60 19.12796
772.70 19.4449
772.80 19.76431
772.90 20.10733
773.00 20.46893
773.10 20.84816
773.20 21.21787
773.30 21.54554
773.40 21.82543
773.50 22.0801
773.60 22.3321
773.70 22.57396
773.80 22.80326
773.90 23.05071
774.00 23.34058
774.10 23.66149
774.20 23.9662
774.30 24.21156
774.40 24.40867
774.50 24.65774
774.60 25.11499
774.70 25.83389
774.80 26.74156
774.90 27.69228
775.00 28.51863
775.10 29.10562
775.20 29.37672
775.30 29.34159
775.40 29.10188
775.50 28.79767
775.60 28.60128
775.70 28.64012
775.80 28.92433
775.90 29.32571
776.00 29.62139
776.10 29.65728
776.20 29.42385
776.30 29.00719
776.40 28.53416
776.50 28.12165
776.60 27.88243
776.70 27.88114
776.80 28.11777
776.90 28.54923
777.00 29.0894
777.10 29.64722
777.20 30.12782
777.30 30.4333
777.40 30.53435
777.50 30.47832
777.60 30.32822
777.70 30.16961
777.80 30.08331
777.90 30.12959
778.00 30.35374
778.10 30.72267
778.20 31.11157
778.30 31.38299
778.40 31.45135
778.50 31.27178
778.60 30.86643
778.70 30.36945
778.80 29.98824
778.90 29.94376
779.00 30.35782
779.10 31.17973
779.20 32.23184
779.30 33.2079
779.40 33.73803
779.50 33.55113
779.60 32.53776
779.70 30.74638
779.80 28.38214
779.90 25.8061
780.00 23.48809
780.10 21.88546
780.20 21.29425
780.30 21.79877
780.40 23.29682
780.50 25.47815
780.60 27.92859
780.70 30.28964
780.80 32.27422
780.90 33.67405
781.00 34.43258
781.10 34.63958
781.20 34.48304
781.30 34.19568
781.40 33.97401
781.50 33.96464
781.60 34.30379
781.70 35.01084
781.80 35.96521
781.90 37.00034
782.00 37.89085
782.10 38.43915
782.20 38.54543
782.30 38.22269
782.40 37.59202
782.50 36.83689
782.60 36.13802
782.70 35.62848
782.80 35.39287
782.90 35.43261
783.00 35.62166
783.10 35.80184
783.20 35.8684
783.30 35.79093
783.40 35.64061
783.50 35.52611
783.60 35.54177
783.70 35.71627
783.80 36.01562
783.90 36.41482
784.00 36.89674
784.10 37.4182
784.20 37.94003
784.30 38.45765
784.40 38.96069
784.50 39.41844
784.60 39.80076
784.70 40.14836
784.80 40.58588
784.90 41.1779
785.00 41.90049
785.10 42.69014
785.20 43.45182
785.30 44.07393
785.40 44.46648
785.50 44.6097
785.60 44.52347
785.70 44.24238
785.80 43.82575
785.90 43.34109
786.00 42.88714
786.10 42.52329
786.20 42.19158
786.30 41.82675
786.40 41.46846
786.50 41.24003
786.60 41.23157
786.70 41.43085
786.80 41.73137
786.90 41.96262
787.00 41.94854
787.10 41.58317
787.20 40.87364
787.30 39.97018
787.40 39.08309
787.50 38.41505
787.60 38.16116
787.70 38.47311
787.80 39.35534
787.90 40.60188
788.00 41.94253
788.10 43.16794
788.20 44.12077
788.30 44.71849
788.40 45.01263
788.50 45.10101
788.60 45.06152
788.70 44.95841
788.80 44.8275
788.90 44.69353
789.00 44.59011
789.10 44.50689
789.20 44.38599
789.30 44.24544
789.40 44.13745
789.50 44.04993
789.60 43.96816
789.70 43.88099
789.80 43.74296
789.90 43.5186
790.00 43.24387
790.10 43.0187
790.20 42.9284
790.30 43.0119
790.40 43.22718
790.50 43.4695
790.60 43.62089
790.70 43.6625
790.80 43.77662
790.90 44.21343
791.00 45.10955
791.10 46.41731
791.20 47.90039
791.30 49.29037
791.40 50.3769
791.50 50.98271
791.60 51.0487
791.70 50.63008
791.80 49.8868
791.90 49.10405
792.00 48.59426
792.10 48.45766
792.20 48.48362
792.30 48.34198
792.40 47.82932
792.50 46.97898
792.60 46.00765
792.70 45.16948
792.80 44.68312
792.90 44.67496
793.00 45.16756
793.10 46.08744
793.20 47.23919
793.30 48.32942
793.40 49.09269
793.50 49.39097
793.60 49.20797
793.70 48.66926
793.80 47.95594
793.90 47.2052
794.00 46.47678
794.10 45.74115
794.20 44.87436
794.30 43.70652
794.40 42.10358
794.50 40.09874
794.60 37.89325
794.70 35.77653
794.80 34.07472
794.90 33.09283
795.00 33.04461
795.10 33.95541
795.20 35.67651
795.30 37.91686
795.40 40.34151
795.50 42.62434
795.60 44.50004
795.70 45.84985
795.80 46.69066
795.90 47.15628
796.00 47.46631
796.10 47.8712
796.20 48.52377
796.30 49.44032
796.40 50.52846
796.50 51.59412
796.60 52.41329
796.70 52.83054
796.80 52.80074
796.90 52.39341
797.00 51.74815
797.10 51.01249
797.20 50.33502
797.30 49.82294
797.40 49.55688
797.50 49.56568
797.60 49.82551
797.70 50.26677
797.80 50.78348
797.90 51.28454
798.00 51.66734
798.10 51.82244
798.20 51.64112
798.30 51.06231
798.40 50.12931
798.50 48.99519
798.60 47.88296
798.70 46.99425
798.80 46.43863
798.90 46.25843
799.00 46.50209
799.10 47.20938
799.20 48.30486
799.30 49.57456
799.40 50.7859
799.50 51.76086
799.60 52.41291
799.70 52.73561
799.80 52.76563
799.90 52.5881
800.00 52.29385
800.10 51.9798
800.20 51.74449
800.30 51.62572
800.40 51.57209
800.50 51.49546
800.60 51.35911
800.70 51.21558
800.80 51.18655
800.90 51.4375
801.00 52.06785
801.10 53.0364
801.20 54.19955
801.30 55.36344
801.40 56.34785
801.50 56.99575
801.60 57.21606
801.70 57.01915
801.80 56.51491
801.90 55.88105
802.00 55.32699
802.10 55.07997
802.20 55.28176
802.30 55.90955
802.40 56.82104
802.50 57.84725
802.60 58.85483
802.70 59.74706
802.80 60.44448
802.90 60.87738
803.00 61.00121
803.10 60.84165
803.20 60.46543
803.30 59.95029
803.40 59.38314
803.50 58.82693
803.60 58.31702
803.70 57.87653
803.80 57.55093
803.90 57.38581
804.00 57.38405
804.10 57.51591
804.20 57.75765
804.30 58.1065
804.40 58.5314
804.50 59.00338
804.60 59.5425
804.70 60.17203
804.80 60.90476
804.90 61.7355
805.00 62.64926
805.10 63.59942
805.20 64.49506
805.30 65.26207
805.40 65.85601
805.50 66.27509
805.60 66.56722
805.70 66.84775
805.80 67.23946
805.90 67.75368
806.00 68.2845
806.10 68.67898
806.20 68.81645
806.30 68.65151
806.40 68.17622
806.50 67.43479
806.60 66.55499
806.70 65.71341
806.80 65.09633
806.90 64.85037
807.00 65.04925
807.10 65.62922
807.20 66.44326
807.30 67.35994
807.40 68.29542
807.50 69.1977
807.60 70.00432
807.70 70.64361
807.80 71.08161
807.90 71.38124
808.00 71.66633
808.10 72.02726
808.20 72.49322
808.30 73.01796
808.40 73.48304
808.50 73.77532
808.60 73.86534
808.70 73.80707
808.80 73.6831
808.90 73.60943
809.00 73.69759
809.10 74.0006
809.20 74.50555
809.30 75.083
809.40 75.53667
809.50 75.71086
809.60 75.53865
809.70 75.05602
809.80 74.38138
809.90 73.67673
810.00 73.07854
810.10 72.65199
810.20 72.36306
810.30 72.13715
810.40 71.93927
810.50 71.77678
810.60 71.68173
810.70 71.71147
810.80 71.94238
810.90 72.41548
811.00 73.08726
811.10 73.85068
811.20 74.56598
811.30 75.10033
811.40 75.3985
811.50 75.49507
811.60 75.52392
811.70 75.61105
811.80 75.80223
811.90 76.12053
812.00 76.57513
812.10 77.15546
812.20 77.81852
812.30 78.51475
812.40 79.22712
812.50 79.95419
812.60 80.70748
812.70 81.49513
812.80 82.27082
812.90 82.95761
813.00 83.4868
813.10 83.8161
813.20 83.95096
813.30 83.94976
813.40 83.90966
813.50 83.93136
813.60 84.07461
813.70 84.32943
813.80 84.60847
813.90 84.79182
814.00 84.74712
814.10 84.39132
814.20 83.74424
814.30 82.87062
814.40 81.85614
814.50 80.86724
814.60 80.08613
814.70 79.59836
814.80 79.43631
814.90 79.60204
815.00 80.03169
815.10 80.60488
815.20 81.20518
815.30 81.73434
815.40 82.18284
815.50 82.59835
815.60 82.98362
815.70 83.37008
815.80 83.83322
815.90 84.39498
816.00 85.05926
816.10 85.8538
816.20 86.75067
816.30 87.65345
816.40 88.46081
816.50 89.13167
816.60 89.67703
816.70 90.12992
816.80 90.49478
816.90 90.75257
817.00 90.92427
817.10 91.02605
817.20 91.0628
817.30 91.0541
817.40 91.00593
817.50 90.86496
817.60 90.51781
817.70 89.82348
817.80 88.63578
817.90 86.83482
818.00 84.40108
818.10 81.47859
818.20 78.3597
818.30 75.45688
818.40 73.24029
818.50 72.11862
818.60 72.27224
818.70 73.5524
818.80 75.49881
818.90 77.48242
819.00 78.85013
819.10 79.08212
819.20 77.95626
819.30 75.63073
819.40 72.61028
819.50 69.60343
819.60 67.33489
819.70 66.33531
819.80 66.82272
819.90 68.6655
820.00 71.47512
820.10 74.7744
820.20 78.09958
820.30 81.07657
820.40 83.50061
820.50 85.34106
820.60 86.6969
820.70 87.68193
820.80 88.37083
820.90 88.82505
821.00 89.07912
821.10 89.1561
821.20 89.05465
821.30 88.82824
821.40 88.5708
821.50 88.32417
821.60 88.12721
821.70 88.02402
821.80 88.05912
821.90 88.26751
822.00 88.63974
822.10 89.17635
822.20 89.88711
822.30 90.71774
822.40 91.57871
822.50 92.39958
822.60 93.16336
822.70 93.82133
822.80 94.30234
822.90 94.60487
823.00 94.7779
823.10 94.8582
823.20 94.8516
823.30 94.79416
823.40 94.77673
823.50 94.837
823.60 94.9475
823.70 95.16025
823.80 95.56131
823.90 96.15614
824.00 96.86823
824.10 97.62248
824.20 98.40134
824.30 99.17949
824.40 99.91705
824.50 100.622
824.60 101.3218
824.70 101.9661
824.80 102.4363
824.90 102.6806
825.00 102.7061
825.10 102.4766
825.20 101.9479
825.30 101.1337
825.40 100.1542
825.50 99.199
825.60 98.42195
825.70 97.94486
825.80 97.82311
825.90 98.0265
826.00 98.47853
826.10 99.09286
826.20 99.78873
826.30 100.4617
826.40 101.0219
826.50 101.4047
826.60 101.6062
826.70 101.6951
826.80 101.7219
826.90 101.7162
827.00 101.6977
827.10 101.6708
827.20 101.6316
827.30 101.568
827.40 101.4896
827.50 101.4703
827.60 101.5992
827.70 101.9747
827.80 102.6593
827.90 103.5629
828.00 104.4682
828.10 105.1082
828.20 105.3115
828.30 105.0791
828.40 104.5197
828.50 103.7554
828.60 102.8029
828.70 101.639
828.80 100.3224
828.90 98.92989
829.00 97.54098
829.10 96.21926
829.20 95.01252
829.30 94.08377
829.40 93.66594
829.50 93.94852
829.60 94.95267
829.70 96.43209
829.80 97.97661
829.90 99.16403
830.00 99.79715
830.10 99.87603
830.20 99.42129
830.30 98.48833
830.40 97.20647
830.50 95.80497
830.60 94.56182
830.70 93.67122
830.80 93.21573
830.90 93.17291
831.00 93.43688
831.10 93.88875
831.20 94.43639
831.30 95.02452
831.40 95.57582
831.50 96.02522
831.60 96.38385
831.70 96.71062
831.80 97.07536
831.90 97.51759
832.00 98.03767
832.10 98.62301
832.20 99.21268
832.30 99.70086
832.40 99.98063
832.50 99.97236
832.60 99.65102
832.70 99.11389
832.80 98.53553
832.90 98.05405
833.00 97.74681
833.10 97.65095
833.20 97.78605
833.30 98.12861
833.40 98.6243
833.50 99.20372
833.60 99.77705
833.70 100.2923
833.80 100.8457
833.90 101.6422
834.00 102.8644
834.10 104.4949
834.20 106.398
834.30 108.4089
834.40 110.305
834.50 111.8656
834.60 112.7902
834.70 112.8439
834.80 112.0416
834.90 110.6075
835.00 108.9469
835.10 107.5269
835.20 106.6392
835.30 106.3159
835.40 106.3829
835.50 106.6351
835.60 106.8824
835.70 106.9241
835.80 106.618
835.90 105.9399
836.00 105.108
836.10 104.4117
836.20 104.0089
836.30 103.9798
836.40 104.3222
836.50 104.9567
836.60 105.7513
836.70 106.5311
836.80 107.1532
836.90 107.5037
837.00 107.4593
837.10 106.9717
837.20 106.0941
837.30 104.9587
837.40 103.7487
837.50 102.6968
837.60 102.0816
837.70 102.1765
837.80 103.0839
837.90 104.6559
838.00 106.5804
838.10 108.4929
838.20 110.0391
838.30 110.885
838.40 110.8194
838.50 109.8385
838.60 108.1426
838.70 106.0363
838.80 103.8504
838.90 101.873
839.00 100.313
839.10 99.26573
839.20 98.74335
839.30 98.76613
839.40 99.44253
839.50 100.8819
839.60 103.0895
839.70 105.9895
839.80 109.2598
839.90 112.372
840.00 114.8421
840.10 116.3382
840.20 116.7562
840.30 116.2142
840.40 114.9735
840.50 113.3449
840.60 111.6968
840.70 110.3647
840.80 109.462
840.90 108.9551
841.00 108.7675
841.10 108.7977
841.20 109.0931
841.30 109.7349
841.40 110.6632
841.50 111.7373
841.60 112.7581
841.70 113.5329
841.80 113.8829
841.90 113.7
842.00 113.0264
842.10 112.0408
842.20 110.996
842.30 110.1541
842.40 109.7115
842.50 109.8246
842.60 110.6136
842.70 112.1334
842.80 114.3027
842.90 116.8104
843.00 119.1883
843.10 120.8718
843.20 121.373
843.30 120.4589
843.40 118.1552
843.50 114.7761
843.60 110.8028
843.70 106.7828
843.80 103.2581
843.90 100.5356
844.00 98.60525
844.10 97.24513
844.20 96.20187
844.30 95.29563
844.40 94.40691
844.50 93.55604
844.60 92.8905
844.70 92.581
844.80 92.73641
844.90 93.29556
845.00 94.10834
845.10 94.93541
845.20 95.49808
845.30 95.62737
845.40 95.27501
845.50 94.50606
845.60 93.46929
845.70 92.3745
845.80 91.4621
845.90 90.92549
846.00 90.90052
846.10 91.40834
846.20 92.26334
846.30 93.15901
846.40 93.84737
846.50 94.21418
846.60 94.22796
846.70 93.88347
846.80 93.19589
846.90 92.23517
847.00 91.09601
847.10 89.911
847.20 88.82374
847.30 87.96016
847.40 87.3722
847.50 87.02915
847.60 86.94008
847.70 87.11872
847.80 87.49627
847.90 87.93244
848.00 88.26576
848.10 88.38997
848.20 88.3645
848.30 88.3295
848.40 88.36897
848.50 88.49902
848.60 88.72629
848.70 89.10225
848.80 89.70996
848.90 90.56526
849.00 91.57697
849.10 92.6614
849.20 93.73015
849.30 94.6335
849.40 95.20788
849.50 95.33019
849.60 94.89621
849.70 93.89439
849.80 92.51585
849.90 91.16403
850.00 90.31326
850.10 90.2885
850.20 91.14296
850.30 92.66621
850.40 94.51753
850.50 96.31752
850.60 97.68698
850.70 98.32005
850.80 98.06753
850.90 96.98754
851.00 95.33591
851.10 93.44022
851.20 91.58856
851.30 89.93624
851.40 88.49125
851.50 87.12578
851.60 85.61478
851.70 83.78511
851.80 81.56596
851.90 78.96797
852.00 76.19583
852.10 73.70045
852.20 72.007
852.30 71.51816
852.40 72.38646
852.50 74.54681
852.60 77.76016
852.70 81.58218
852.80 85.43388
852.90 88.81789
853.00 91.45287
853.10 93.27602
853.20 94.43219
853.30 95.20385
853.40 95.82573
853.50 96.38076
853.60 96.88197
853.70 97.32951
853.80 97.73229
853.90 98.09864
854.00 98.36057
854.10 98.44475
854.20 98.39805
854.30 98.35159
854.40 98.45543
854.50 98.82036
854.60 99.50384
854.70 100.4722
854.80 101.5901
854.90 102.6749
855.00 103.5447
855.10 104.0855
855.20 104.2492
855.30 104.0638
855.40 103.6665
855.50 103.2148
855.60 102.7624
855.70 102.2571
855.80 101.6235
855.90 100.8533
856.00 99.95257
856.10 98.94325
856.20 97.9767
856.30 97.29738
856.40 97.10359
856.50 97.44801
856.60 98.24255
856.70 99.27498
856.80 100.3034
856.90 101.1364
857.00 101.6582
857.10 101.8328
857.20 101.676
857.30 101.2483
857.40 100.6725
857.50 100.1051
857.60 99.64755
857.70 99.3414
857.80 99.25854
857.90 99.50037
858.00 100.0931
858.10 100.9899
858.20 102.0854
858.30 103.2336
858.40 104.3189
858.50 105.276
858.60 106.0547
858.70 106.585
858.80 106.8086
858.90 106.6987
859.00 106.2502
859.10 105.544
859.20 104.728
859.30 103.9559
859.40 103.4037
859.50 103.2152
859.60 103.4263
859.70 103.9543
859.80 104.6248
859.90 105.2266
860.00 105.6094
860.10 105.7148
860.20 105.5589
860.30 105.2245
860.40 104.8015
860.50 104.3124
860.60 103.689
860.70 102.7961
860.80 101.5013
860.90 99.73134
861.00 97.49453
861.10 94.85062
861.20 91.86661
861.30 88.63782
861.40 85.3189
861.50 82.12892
861.60 79.25697
861.70 76.82819
861.80 74.97046
861.90 73.77229
862.00 73.19935
862.10 73.11434
862.20 73.31954
862.30 73.59845
862.40 73.77232
862.50 73.78359
862.60 73.67695
862.70 73.51085
862.80 73.27972
862.90 72.91633
863.00 72.40269
863.10 71.80917
863.20 71.24889
863.30 70.80671
863.40 70.53596
863.50 70.48477
863.60 70.68234
863.70 71.10688
863.80 71.66599
863.90 72.25027
864.00 72.81587
864.10 73.35067
864.20 73.83866
864.30 74.26802
864.40 74.59755
864.50 74.83602
864.60 75.05644
864.70 75.32663
864.80 75.72888
864.90 76.33909
865.00 77.24393
865.10 78.50789
865.20 80.14322
865.30 82.0996
865.40 84.20601
865.50 86.23233
865.60 87.99304
865.70 89.3931
865.80 90.40794
865.90 90.9597
866.00 90.97587
866.10 90.52863
866.20 89.79721
866.30 88.97468
866.40 88.18635
866.50 87.53064
866.60 87.09678
866.70 86.87501
866.80 86.74914
866.90 86.62841
867.00 86.50872
867.10 86.37486
867.20 86.23031
867.30 86.16183
867.40 86.27606
867.50 86.63742
867.60 87.22996
867.70 87.98272
867.80 88.73718
867.90 89.21534
868.00 89.14781
868.10 88.44741
868.20 87.25046
868.30 85.82864
868.40 84.47707
868.50 83.44375
868.60 82.875
868.70 82.75299
868.80 82.84644
868.90 82.80399
869.00 82.27576
869.10 80.95583
869.20 78.72627
869.30 75.77461
869.40 72.48693
869.50 69.31302
869.60 66.67605
869.70 64.81867
869.80 63.78271
869.90 63.51844
870.00 63.90626
870.10 64.7569
870.20 65.90171
870.30 67.16948
870.40 68.39706
870.50 69.48524
870.60 70.34993
870.70 70.87975
870.80 70.94528
870.90 70.46309
871.00 69.4666
871.10 68.14346
871.20 66.76868
871.30 65.58092
871.40 64.72162
871.50 64.25603
871.60 64.15632
871.70 64.29832
871.80 64.5025
871.90 64.6287
872.00 64.63872
872.10 64.57826
872.20 64.60428
872.30 64.89904
872.40 65.60929
872.50 66.79399
872.60 68.37324
872.70 70.14046
872.80 71.81011
872.90 73.15328
873.00 74.04565
873.10 74.46155
873.20 74.41769
873.30 73.96622
873.40 73.25459
873.50 72.48923
873.60 71.86575
873.70 71.53591
873.80 71.56476
873.90 71.98465
874.00 72.81033
874.10 74.04496
874.20 75.66143
874.30 77.46227
874.40 79.12823
874.50 80.36068
874.60 80.97499
874.70 80.96532
874.80 80.47302
874.90 79.75928
875.00 79.15028
875.10 78.91984
875.20 79.20532
875.30 80.0254
875.40 81.35064
875.50 83.13808
875.60 85.37887
875.70 88.04559
875.80 90.96557
875.90 93.88769
876.00 96.51285
876.10 98.45747
876.20 99.35605
876.30 99.09157
876.40 97.85008
876.50 96.06241
876.60 94.34078
876.70 93.21983
876.80 93.00101
876.90 93.71236
877.00 95.18204
877.10 97.07893
877.20 99.05337
877.30 100.8404
877.40 102.3635
877.50 103.6924
877.60 104.7391
877.70 105.2733
877.80 105.1282
877.90 104.2187
878.00 102.5295
878.10 100.2073
878.20 97.57437
878.30 95.03924
878.40 92.84979
878.50 91.16293
878.60 90.17017
878.70 89.96433
878.80 90.48026
878.90 91.54948
879.00 93.04867
879.10 94.83832
879.20 96.68568
879.30 98.35479
879.40 99.6635
879.50 100.4935
879.60 100.746
879.70 100.3092
879.80 99.14076
879.90 97.31631
880.00 94.97641
880.10 92.34371
880.20 89.6375
880.30 87.02285
880.40 84.72787
880.50 83.02031
880.60 82.14353
880.70 82.29157
880.80 83.50878
880.90 85.6683
881.00 88.56891
881.10 92.04564
881.20 95.95404
881.30 100.0949
881.40 104.2034
881.50 107.9631
881.60 111.0808
881.70 113.3738
881.80 114.7048
881.90 114.9365
882.00 113.9628
882.10 111.8652
882.20 109.1054
882.30 106.5537
882.40 105.1146
882.50 105.4347
882.60 107.8001
882.70 111.8468
882.80 116.6717
882.90 121.1475
883.00 124.2348
883.10 125.2615
883.20 124.2509
883.30 122.0568
883.40 119.8285
883.50 118.4209
883.60 118.2667
883.70 119.3072
883.80 121.0796
883.90 122.7829
884.00 123.4895
884.10 122.6611
884.20 120.1583
884.30 116.1683
884.40 111.2478
884.50 106.2019
884.60 101.7888
884.70 98.46396
884.80 96.5855
884.90 96.56242
885.00 98.53594
885.10 102.108
885.20 106.4889
885.30 110.7652
885.40 114.0671
885.50 115.7683
885.60 115.6741
885.70 114.0369
885.80 111.3384
885.90 108.1213
886.00 104.9551
886.10 102.3477
886.20 100.6451
886.30 99.97025
886.40 100.2218
886.50 101.1912
886.60 102.5841
886.70 103.9605
886.80 104.7649
886.90 104.5132
887.00 102.9796
887.10 100.2745
887.20 96.89577
887.30 93.63948
887.40 91.33333
887.50 90.56513
887.60 91.5734
887.70 94.16007
887.80 97.716
887.90 101.4817
888.00 104.7566
888.10 107.1337
888.20 108.6533
888.30 109.7205
888.40 111.0021
888.50 113.0605
888.60 116.0381
888.70 119.628
888.80 123.1551
888.90 125.8335
889.00 126.9817
889.10 126.1665
889.20 123.3307
889.30 118.7934
889.40 113.226
889.50 107.5352
889.60 102.6621
889.70 99.33498
889.80 97.96273
889.90 98.71123
890.00 101.4575
890.10 105.7822
890.20 111.0717
890.30 116.5577
890.40 121.3241
890.50 124.5339
890.60 125.7044
890.70 124.7187
890.80 121.8413
890.90 117.7218
891.00 113.2941
891.10 109.5507
891.20 107.0893
891.30 106.0582
891.40 106.5013
891.50 108.4547
891.60 111.7526
891.70 116.0269
891.80 120.8408
891.90 125.6789
892.00 129.8969
892.10 132.8306
892.20 133.9999
892.30 133.239
892.40 130.643
892.50 126.5417
892.60 121.7004
892.70 117.223
892.80 114.0697
892.90 112.7268
893.00 113.2772
893.10 115.4203
893.20 118.4882
893.30 121.5926
893.40 123.8748
893.50 124.7566
893.60 123.9959
893.70 121.634
893.80 118.0336
893.90 113.8156
894.00 109.6108
894.10 105.9442
894.20 103.1971
894.30 101.6199
894.40 101.3119
894.50 102.0931
894.60 103.5711
894.70 105.3129
894.80 106.899
894.90 108.0281
895.00 108.5584
895.10 108.6069
895.20 108.5573
895.30 109.0654
895.40 110.9067
895.50 114.403
895.60 119.2263
895.70 124.6344
895.80 129.7146
895.90 133.6084
896.00 135.6487
896.10 135.4732
896.20 133.1428
896.30 129.124
896.40 124.1752
896.50 119.1828
896.60 115.0373
896.70 112.3003
896.80 111.0124
896.90 111.0136
897.00 112.1397
897.10 114.1303
897.20 116.5851
897.30 119.0917
897.40 121.3152
897.50 123.0371
897.60 124.2228
897.70 124.9563
897.80 125.3818
897.90 125.7002
898.00 126.0193
898.10 126.4042
898.20 127.1103
898.30 128.5218
898.40 130.8432
898.50 133.9431
898.60 137.4464
898.70 140.8397
898.80 143.5721
898.90 145.2231
899.00 145.5375
899.10 144.4327
899.20 142.0551
899.30 138.6589
899.40 134.6559
899.50 130.6313
899.60 127.032
899.70 124.2075
899.80 122.6572
899.90 122.9666
900.00 123.9913
900.10 125.016
900.20 126.0407
900.30 127.0654
900.40 128.09
900.50 129.1147
900.60 130.1394
900.70 131.1641
900.80 132.1887
900.90 133.2134
901.00 134.2381
901.10 135.2628
901.20 136.2875
901.30 137.3121
901.40 138.3368
901.50 139.3615
901.60 140.3862
901.70 141.4108
901.80 142.4355
901.90 143.4602
902.00 144.4849
902.10 145.5096
902.20 146.5342
902.30 147.5589
902.40 148.5836
902.50 149.6083
902.60 150.6329
902.70 151.6576
902.80 152.6823
902.90 153.707
903.00 154.7317
903.10 155.7563
903.20 155.9614
903.30 156.1581
903.40 156.3548
903.50 156.5516
903.60 156.7483
903.70 156.9451
903.80 157.1418
903.90 157.3385
904.00 157.5353
904.10 157.732
904.20 157.9288
904.30 158.1255
904.40 158.3223
904.50 158.519
904.60 158.7157
904.70 158.9125
904.80 159.1092
904.90 159.306
905.00 159.5027
905.10 159.6995
905.20 159.8962
905.30 160.0929
905.40 160.2897
905.50 160.4864
905.60 160.6832
905.70 160.8799
905.80 161.0767
905.90 161.2734
906.00 161.4701
906.10 161.6669
906.20 161.8636
906.30 162.0604
906.40 162.2571
906.50 162.4539
906.60 162.7306
906.70 163.0417
906.80 163.3528
906.90 163.6638
907.00 163.9749
907.10 164.286
907.20 164.5971
907.30 164.9081
907.40 165.2192
907.50 165.5303
907.60 165.8413
907.70 166.1524
907.80 166.4635
907.90 166.7746
908.00 167.0856
908.10 167.3967
908.20 167.7078
908.30 168.0188
908.40 168.3299
908.50 168.641
908.60 168.9521
908.70 169.2631
908.80 169.5742
908.90 169.8853
909.00 170.1963
909.10 170.5074
909.20 170.8185
909.30 171.1296
909.40 171.4406
909.50 171.7517
909.60 172.0628
909.70 172.3738
909.80 172.6849
909.90 172.996
910.00 173.2793
910.10 173.4695
910.20 173.6597
910.30 173.8499
910.40 174.0401
910.50 174.2303
910.60 174.4205
910.70 174.6108
910.80 174.801
910.90 174.9912
911.00 175.1814
911.10 175.3716
911.20 175.5618
911.30 175.7521
911.40 175.9423
911.50 176.1325
911.60 176.3227
911.70 176.5129
911.80 176.7031
911.90 176.8933
912.00 177.0836
912.10 177.2738
912.20 177.464
912.30 177.6542
912.40 177.8444
912.50 178.0346
912.60 178.2248
912.70 178.4151
912.80 178.6053
912.90 178.7955
913.00 178.9857
913.10 179.1759
913.20 179.3661
913.30 179.5563
913.40 179.7466
913.50 180.0694
913.60 180.4923
913.70 180.9153
913.80 181.3382
913.90 181.7611
914.00 182.1841
914.10 182.607
914.20 183.0299
914.30 183.4529
914.40 183.8758
914.50 184.2987
914.60 184.7216
914.70 185.1446
914.80 185.5675
914.90 185.9904
915.00 186.4134
915.10 186.8363
915.20 187.2592
915.30 187.6822
915.40 188.1051
915.50 188.528
915.60 188.951
915.70 189.3739
915.80 189.7968
915.90 190.2197
916.00 190.6427
916.10 191.0656
916.20 191.4885
916.30 191.9115
916.40 192.3344
916.50 192.7573
916.60 193.1803
916.70 193.6032
916.80 194.0261
916.90 194.449
917.00 194.7238
917.10 194.9465
917.20 195.1693
917.30 195.392
917.40 195.6147
917.50 195.8375
917.60 196.0602
917.70 196.2829
917.80 196.5056
917.90 196.7284
918.00 196.9511
918.10 197.1738
918.20 197.3965
918.30 197.6193
918.40 197.842
918.50 198.0647
918.60 198.2874
918.70 198.5102
918.80 198.7329
918.90 198.9556
919.00 199.1783
919.10 199.4011
919.20 199.6238
919.30 199.8465
919.40 200.0692
919.50 200.292
919.60 200.5147
919.70 200.7374
919.80 200.9601
919.90 201.1829
920.00 201.4056
920.10 201.6283
920.20 201.851
920.30 202.0738
920.40 202.2965
920.50 202.5755
920.60 202.8742
920.70 203.1729
920.80 203.4716
920.90 203.7703
921.00 204.069
921.10 204.3677
921.20 204.6664
921.30 204.9651
921.40 205.2638
921.50 205.5625
921.60 205.8612
921.70 206.16
921.80 206.4587
921.90 206.7574
922.00 207.0561
922.10 207.3548
922.20 207.6535
922.30 207.9522
922.40 208.2509
922.50 208.5496
922.60 208.8483
922.70 209.147
922.80 209.4457
922.90 209.7445
923.00 210.0432
923.10 210.3419
923.20 210.6406
923.30 210.9393
923.40 211.238
923.50 211.5367
923.60 211.8354
923.70 212.1341
923.80 212.4328
923.90 212.7315
924.00 212.7043
924.10 212.4209
924.20 212.1376
924.30 211.8542
924.40 211.5708
924.50 211.2875
924.60 211.0041
924.70 210.7207
924.80 210.4374
924.90 210.154
925.00 209.8706
925.10 209.5873
925.20 209.3039
925.30 209.0205
925.40 208.7372
925.50 208.4538
925.60 208.1704
925.70 207.8871
925.80 207.6037
925.90 207.3204
926.00 207.037
926.10 206.7536
926.20 206.4703
926.30 206.1869
926.40 205.9035
926.50 205.6202
926.60 205.3368
926.70 205.0534
926.80 204.7701
926.90 204.4867
927.00 204.2033
927.10 203.92
927.20 203.6366
927.30 203.3532
927.40 203.0699
927.50 202.7829
927.60 202.4814
927.70 202.1799
927.80 201.8783
927.90 201.5768
928.00 201.2753
928.10 200.9738
928.20 200.6723
928.30 200.3708
928.40 200.0693
928.50 199.7677
928.60 199.4662
928.70 199.1647
928.80 198.8632
928.90 198.5617
929.00 198.2602
929.10 197.9587
929.20 197.6571
929.30 197.3556
929.40 197.0541
929.50 196.7526
929.60 196.4511
929.70 196.1496
929.80 195.8481
929.90 195.5465
930.00 195.245
930.10 194.9435
930.20 194.642
930.30 194.3405
930.40 194.039
930.50 193.7375
930.60 193.4359
930.70 193.1344
930.80 192.8329
930.90 192.5314
931.00 192.2299
931.10 192.5179
931.20 193.0963
931.30 193.6747
931.40 194.2531
931.50 194.8315
931.60 195.4099
931.70 195.9883
931.80 196.5667
931.90 197.1451
932.00 197.7235
932.10 198.302
932.20 198.8804
932.30 199.4588
932.40 200.0372
932.50 200.6156
932.60 201.194
932.70 201.7724
932.80 202.3508
932.90 202.9292
933.00 203.5076
933.10 204.086
933.20 204.6644
933.30 205.2428
933.40 205.8212
933.50 206.3996
933.60 206.978
933.70 207.5564
933.80 208.1348
933.90 208.7132
934.00 209.2916
934.10 209.87
934.20 210.4484
934.30 211.0268
934.40 211.6052
934.50 212.1837
934.60 212.7621
934.70 213.1879
934.80 213.609
934.90 214.0301
935.00 214.4512
935.10 214.8723
935.20 215.2934
935.30 215.7145
935.40 216.1356
935.50 216.5566
935.60 216.9777
935.70 217.3988
935.80 217.8199
935.90 218.241
936.00 218.6621
936.10 219.0832
936.20 219.5043
936.30 219.9254
936.40 220.3465
936.50 220.7676
936.60 221.1887
936.70 221.6098
936.80 222.0309
936.90 222.452
937.00 222.8731
937.10 223.2942
937.20 223.7153
937.30 224.1364
937.40 224.5575
937.50 224.9786
937.60 225.3997
937.70 225.8208
937.80 226.2419
937.90 226.663
938.00 227.0841
938.10 227.5052
938.20 227.8817
938.30 227.8571
938.40 227.8325
938.50 227.8079
938.60 227.7834
938.70 227.7588
938.80 227.7342
938.90 227.7096
939.00 227.685
939.10 227.6604
939.20 227.6358
939.30 227.6113
939.40 227.5867
939.50 227.5621
939.60 227.5375
939.70 227.5129
939.80 227.4883
939.90 227.4637
940.00 227.4392
940.10 227.4146
940.20 227.39
940.30 227.3654
940.40 227.3408
940.50 227.3162
940.60 227.2917
940.70 227.2671
940.80 227.2425
940.90 227.2179
941.00 227.1933
941.10 227.1687
941.20 227.1441
941.30 227.1196
941.40 227.095
941.50 227.0704
941.60 227.0458
941.70 227.0212
941.80 227.0115
941.90 227.1991
942.00 227.3868
942.10 227.5745
942.20 227.7621
942.30 227.9498
942.40 228.1374
942.50 228.3251
942.60 228.5128
942.70 228.7004
942.80 228.8881
942.90 229.0757
943.00 229.2634
943.10 229.4511
943.20 229.6387
943.30 229.8264
943.40 230.014
943.50 230.2017
943.60 230.3893
943.70 230.577
943.80 230.7647
943.90 230.9523
944.00 231.14
944.10 231.3276
944.20 231.5153
944.30 231.703
944.40 231.8906
944.50 232.0783
944.60 232.2659
944.70 232.4536
944.80 232.6413
944.90 232.8289
945.00 233.0166
945.10 233.2042
945.20 233.3919
945.30 233.5796
945.40 233.7672
945.50 234.0973
945.60 234.4486
945.70 234.8
945.80 235.1513
945.90 235.5026
946.00 235.854
946.10 236.2053
946.20 236.5567
946.30 236.908
946.40 237.2593
946.50 237.6107
946.60 237.962
946.70 238.3134
946.80 238.6647
946.90 239.016
947.00 239.3674
947.10 239.7187
947.20 240.0701
947.30 240.4214
947.40 240.7727
947.50 241.1241
947.60 241.4754
947.70 241.8268
947.80 242.1781
947.90 242.5294
948.00 242.8808
948.10 243.2321
948.20 243.5835
948.30 243.9348
948.40 244.2862
948.50 244.6375
948.60 244.9888
948.70 245.3402
948.80 245.6915
948.90 246.0429
949.00 246.3942
949.10 246.784
949.20 247.2122
949.30 247.6404
949.40 248.0686
949.50 248.4968
949.60 248.925
949.70 249.3532
949.80 249.7814
949.90 250.2096
950.00 250.6378
950.10 251.066
950.20 251.4942
950.30 251.9224
950.40 252.3506
950.50 252.7788
950.60 253.207
950.70 253.6352
950.80 254.0634
950.90 254.4916
951.00 254.9198
951.10 255.348
951.20 255.7762
951.30 256.2044
951.40 256.6326
951.50 257.0608
951.60 257.489
951.70 257.9172
951.80 258.3454
951.90 258.7736
952.00 259.2018
952.10 259.63
952.20 260.0582
952.30 260.4864
952.40 260.9146
952.50 261.3428
952.60 261.771
952.70 262.1992
952.80 262.261
952.90 262.3116
953.00 262.3621
953.10 262.4127
953.20 262.4632
953.30 262.5138
953.40 262.5643
953.50 262.6149
953.60 262.6654
953.70 262.716
953.80 262.7665
953.90 262.8171
954.00 262.8676
954.10 262.9182
954.20 262.9687
954.30 263.0193
954.40 263.0698
954.50 263.1204
954.60 263.1709
954.70 263.2215
954.80 263.272
954.90 263.3226
955.00 263.3731
955.10 263.4237
955.20 263.4742
955.30 263.5248
955.40 263.5753
955.50 263.6259
955.60 263.6764
955.70 263.727
955.80 263.7775
955.90 263.8281
956.00 263.8786
956.10 263.9292
956.20 263.9797
956.30 264.0303
956.40 264.0852
956.50 264.1514
956.60 264.2177
956.70 264.2839
956.80 264.3501
956.90 264.4164
957.00 264.4826
957.10 264.5488
957.20 264.615
957.30 264.6813
957.40 264.7475
957.50 264.8137
957.60 264.88
957.70 264.9462
957.80 265.0124
957.90 265.0787
958.00 265.1449
958.10 265.2111
958.20 265.2774
958.30 265.3436
958.40 265.4098
958.50 265.4761
958.60 265.5423
958.70 265.6085
958.80 265.6748
958.90 265.741
959.00 265.8072
959.10 265.8735
959.20 265.9397
959.30 266.0059
959.40 266.0721
959.50 266.1384
959.60 266.2046
959.70 266.2708
959.80 266.3371
959.90 266.4033
960.00 266.4695
960.10 266.4298
960.20 266.2496
960.30 266.0695
960.40 265.8893
960.50 265.7091
960.60 265.529
960.70 265.3488
960.80 265.1686
960.90 264.9884
961.00 264.8083
961.10 264.6281
961.20 264.4479
961.30 264.2677
961.40 264.0876
961.50 263.9074
961.60 263.7272
961.70 263.547
961.80 263.3669
961.90 263.1867
962.00 263.0065
962.10 262.8264
962.20 262.6462
962.30 262.466
962.40 262.2858
962.50 262.1057
962.60 261.9255
962.70 261.7453
962.80 261.5651
962.90 261.385
963.00 261.2048
963.10 261.0246
963.20 260.8445
963.30 260.6643
963.40 260.4841
963.50 260.3039
963.60 260.1238
963.70 259.9436
963.80 259.9994
963.90 260.3811
964.00 260.7628
964.10 261.1446
964.20 261.5263
964.30 261.908
964.40 262.2897
964.50 262.6714
964.60 263.0531
964.70 263.4348
964.80 263.8166
964.90 264.1983
965.00 264.58
965.10 264.9617
965.20 265.3434
965.30 265.7251
965.40 266.1069
965.50 266.4886
965.60 266.8703
965.70 267.252
965.80 267.6337
965.90 268.0154
966.00 268.3971
966.10 268.7789
966.20 269.1606
966.30 269.5423
966.40 269.924
966.50 270.3057
966.60 270.6874
966.70 271.0691
966.80 271.4509
966.90 271.8326
967.00 272.2143
967.10 272.596
967.20 272.9777
967.30 273.3594
967.40 273.7412
967.50 274.0495
967.60 274.149
967.70 274.2485
967.80 274.348
967.90 274.4475
968.00 274.547
968.10 274.6465
968.20 274.7461
968.30 274.8456
968.40 274.9451
968.50 275.0446
968.60 275.1441
968.70 275.2436
968.80 275.3431
968.90 275.4426
969.00 275.5421
969.10 275.6416
969.20 275.7411
969.30 275.8406
969.40 275.9402
969.50 276.0397
969.60 276.1392
969.70 276.2387
969.80 276.3382
969.90 276.4377
970.00 276.5372
970.10 276.6367
970.20 276.7362
970.30 276.8357
970.40 276.9352
970.50 277.0347
970.60 277.1343
970.70 277.2338
970.80 277.3333
970.90 277.4328
971.00 277.5323
971.10 277.6318
971.20 277.7313
971.30 278.0509
971.40 278.3846
971.50 278.7183
971.60 279.052
971.70 279.3857
971.80 279.7193
971.90 280.053
972.00 280.3867
972.10 280.7204
972.20 281.0541
972.30 281.3877
972.40 281.7214
972.50 282.0551
972.60 282.3888
972.70 282.7225
972.80 283.0561
972.90 283.3898
973.00 283.7235
973.10 284.0572
973.20 284.3909
973.30 284.7245
973.40 285.0582
973.50 285.3919
973.60 285.7256
973.70 286.0593
973.80 286.393
973.90 286.7266
974.00 287.0603
974.10 287.394
974.20 287.7277
974.30 288.0614
974.40 288.395
974.50 288.7287
974.60 289.0624
974.70 289.3961
974.80 289.7298
974.90 290.0634
975.00 290.5142
975.10 291.097
975.20 291.6797
975.30 292.2625
975.40 292.8453
975.50 293.428
975.60 294.0108
975.70 294.5936
975.80 295.1763
975.90 295.7591
976.00 296.3419
976.10 296.9246
976.20 297.5074
976.30 298.0902
976.40 298.6729
976.50 299.2557
976.60 299.8385
976.70 300.4212
976.80 301.004
976.90 301.5868
977.00 302.1695
977.10 302.7523
977.20 303.3351
977.30 303.9178
977.40 304.5006
977.50 305.0834
977.60 305.6661
977.70 306.2489
977.80 306.8317
977.90 307.4144
978.00 307.9972
978.10 308.58
978.20 309.1627
978.30 309.7455
978.40 310.3283
978.50 310.911
978.60 311.4938
978.70 312.0766
978.80 312.0683
978.90 311.9557
979.00 311.8431
979.10 311.7305
979.20 311.618
979.30 311.5054
979.40 311.3928
979.50 311.2802
979.60 311.1676
979.70 311.0551
979.80 310.9425
979.90 310.8299
980.00 310.7173
980.10 310.6047
980.20 310.4922
980.30 310.3796
980.40 310.267
980.50 310.1544
980.60 310.0418
980.70 309.9293
980.80 309.8167
980.90 309.7041
981.00 309.5915
981.10 309.4789
981.20 309.3664
981.30 309.2538
981.40 309.1412
981.50 309.0286
981.60 308.916
981.70 308.8035
981.80 308.6909
981.90 308.5783
982.00 308.4657
982.10 308.3531
982.20 308.2406
982.30 308.128
982.40 308.0154
982.50 307.8538
982.60 307.1282
982.70 306.4025
982.80 305.6769
982.90 304.9513
983.00 304.2256
983.10 303.5
983.20 302.7744
983.30 302.0487
983.40 301.3231
983.50 300.5975
983.60 299.8718
983.70 299.1462
983.80 298.4206
983.90 297.6949
984.00 296.9693
984.10 296.2437
984.20 295.518
984.30 294.7924
984.40 294.0668
984.50 293.3411
984.60 292.6155
984.70 291.8899
984.80 291.1642
984.90 290.4386
985.00 289.713
985.10 288.9873
985.20 288.2617
985.30 287.5361
985.40 286.8104
985.50 286.0848
985.60 285.3592
985.70 284.6335
985.80 283.9079
985.90 283.1823
986.00 282.4566
986.10 281.731
986.20 281.0054
986.30 280.2532
986.40 279.3618
986.50 278.4705
986.60 277.5791
986.70 276.6877
986.80 275.7964
986.90 274.905
987.00 274.0136
987.10 273.1223
987.20 272.2309
987.30 271.3396
987.40 270.4482
987.50 269.5568
987.60 268.6655
987.70 267.7741
987.80 266.8827
987.90 265.9914
988.00 265.1
988.10 264.2086
988.20 263.3173
988.30 262.4259
988.40 261.5345
988.50 260.6432
988.60 259.7518
988.70 258.8604
988.80 257.9691
988.90 257.0777
989.00 256.1863
989.10 255.295
989.20 254.4036
989.30 253.5123
989.40 252.6209
989.50 251.7295
989.60 250.8382
989.70 249.9468
989.80 249.0554
989.90 248.1641
990.00 247.2727
990.10 246.3944
990.20 245.6332
990.30 244.872
990.40 244.1108
990.50 243.3496
990.60 242.5884
990.70 241.8272
990.80 241.066
990.90 240.3048
991.00 239.5437
991.10 238.7825
991.20 238.0213
991.30 237.2601
991.40 236.4989
991.50 235.7377
991.60 234.9765
991.70 234.2153
991.80 233.4542
991.90 232.693
992.00 231.9318
992.10 231.1706
992.20 230.4094
992.30 229.6482
992.40 228.887
992.50 228.1258
992.60 227.3646
992.70 226.6035
992.80 225.8423
992.90 225.0811
993.00 224.3199
993.10 223.5587
993.20 222.7975
993.30 222.0363
993.40 221.2751
993.50 220.514
993.60 219.7528
993.70 218.9916
993.80 218.2304
993.90 217.4692
994.00 216.9342
994.10 216.4243
994.20 215.9144
994.30 215.4045
994.40 214.8947
994.50 214.3848
994.60 213.8749
994.70 213.365
994.80 212.8551
994.90 212.3452
995.00 211.8353
995.10 211.3255
995.20 210.8156
995.30 210.3057
995.40 209.7958
995.50 209.2859
995.60 208.776
995.70 208.2662
995.80 207.7563
995.90 207.2464
996.00 206.7365
996.10 206.2266
996.20 205.7167
996.30 205.2069
996.40 204.697
996.50 204.1871
996.60 203.6772
996.70 203.1673
996.80 202.6574
996.90 202.1476
997.00 201.6377
997.10 201.1278
997.20 200.6179
997.30 200.108
997.40 199.5981
997.50 199.0883
997.60 198.5784
997.70 198.0685
997.80 198.0273
997.90 198.3697
998.00 198.712
998.10 199.0544
998.20 199.3967
998.30 199.7391
998.40 200.0814
998.50 200.4238
998.60 200.7661
998.70 201.1085
998.80 201.4508
998.90 201.7932
999.00 202.1355
999.10 202.4779
999.20 202.8202
999.30 203.1625
999.40 203.5049
999.50 203.8472
999.60 204.1896
999.70 204.5319
999.80 204.8743
999.90 205.2166
1000.00 205.559
1000.10 205.9013
1000.20 206.2437
1000.30 206.586
1000.40 206.9284
1000.50 207.2707
1000.60 207.6131
1000.70 207.9554
1000.80 208.2978
1000.90 208.6401
1001.00 208.9825
1001.10 209.3248
1001.20 209.6672
1001.30 210.0095
1001.40 210.3519
1001.50 210.6942
1001.60 211.0369
1001.70 211.3829
1001.80 211.7289
1001.90 212.0748
1002.00 212.4208
1002.10 212.7668
1002.20 213.1128
1002.30 213.4588
1002.40 213.8047
1002.50 214.1507
1002.60 214.4967
1002.70 214.8427
1002.80 215.1887
1002.90 215.5346
1003.00 215.8806
1003.10 216.2266
1003.20 216.5726
1003.30 216.9185
1003.40 217.2645
1003.50 217.6105
1003.60 217.9565
1003.70 218.3025
1003.80 218.6484
1003.90 218.9944
1004.00 219.3404
1004.10 219.6864
1004.20 220.0324
1004.30 220.3783
1004.40 220.7243
1004.50 221.0703
1004.60 221.4163
1004.70 221.7622
1004.80 222.1082
1004.90 222.4542
1005.00 222.8002
1005.10 223.1462
1005.20 223.4921
1005.30 223.8381
1005.40 224.1841
1005.50 224.6513
1005.60 225.3003
1005.70 225.9493
1005.80 226.5983
1005.90 227.2474
1006.00 227.8964
1006.10 228.5454
1006.20 229.1944
1006.30 229.8434
1006.40 230.4924
1006.50 231.1414
1006.60 231.7905
1006.70 232.4395
1006.80 233.0885
1006.90 233.7375
1007.00 234.3865
1007.10 235.0355
1007.20 235.6845
1007.30 236.3336
1007.40 236.9826
1007.50 237.6316
1007.60 238.2806
1007.70 238.9296
1007.80 239.5786
1007.90 240.2277
1008.00 240.8767
1008.10 241.5257
1008.20 242.1747
1008.30 242.8237
1008.40 243.4727
1008.50 244.1217
1008.60 244.7708
1008.70 245.4198
1008.80 246.0688
1008.90 246.7178
1009.00 247.3668
1009.10 248.0158
1009.20 248.6648
1009.30 249.3139
1009.40 249.7024
1009.50 249.9793
1009.60 250.2562
1009.70 250.5331
1009.80 250.81
1009.90 251.087
1010.00 251.3639
1010.10 251.6408
1010.20 251.9177
1010.30 252.1946
1010.40 252.4715
1010.50 252.7484
1010.60 253.0253
1010.70 253.3022
1010.80 253.5791
1010.90 253.8561
1011.00 254.133
1011.10 254.4099
1011.20 254.6868
1011.30 254.9637
1011.40 255.2406
1011.50 255.5175
1011.60 255.7944
1011.70 256.0713
1011.80 256.3482
1011.90 256.6252
1012.00 256.9021
1012.10 257.179
1012.20 257.4559
1012.30 257.7328
1012.40 258.0097
1012.50 258.2866
1012.60 258.5635
1012.70 258.8404
1012.80 259.1173
1012.90 259.3942
1013.00 259.6712
1013.10 259.9481
1013.20 260.225
1013.30 260.2678
1013.40 260.2522
1013.50 260.2365
1013.60 260.2209
1013.70 260.2052
1013.80 260.1896
1013.90 260.1739
1014.00 260.1582
1014.10 260.1426
1014.20 260.1269
1014.30 260.1113
1014.40 260.0956
1014.50 260.08
1014.60 260.0643
1014.70 260.0487
1014.80 260.033
1014.90 260.0173
1015.00 260.0017
1015.10 259.986
1015.20 259.9704
1015.30 259.9547
1015.40 259.9391
1015.50 259.9234
1015.60 259.9078
1015.70 259.8921
1015.80 259.8764
1015.90 259.8608
1016.00 259.8451
1016.10 259.8295
1016.20 259.8138
1016.30 259.7982
1016.40 259.7825
1016.50 259.7669
1016.60 259.7512
1016.70 259.7355
1016.80 259.7199
1016.90 259.7042
1017.00 259.6886
1017.10 259.6729
1017.20 259.8875
1017.30 260.1596
1017.40 260.4317
1017.50 260.7038
1017.60 260.9759
1017.70 261.2481
1017.80 261.5202
1017.90 261.7923
1018.00 262.0644
1018.10 262.3365
1018.20 262.6086
1018.30 262.8808
1018.40 263.1529
1018.50 263.425
1018.60 263.6971
1018.70 263.9692
1018.80 264.2413
1018.90 264.5134
1019.00 264.7856
1019.10 265.0577
1019.20 265.3298
1019.30 265.6019
1019.40 265.874
1019.50 266.1461
1019.60 266.4183
1019.70 266.6904
1019.80 266.9625
1019.90 267.2346
1020.00 267.5067
1020.10 267.7788
1020.20 268.051
1020.30 268.3231
1020.40 268.5952
1020.50 268.8673
1020.60 269.1394
1020.70 269.4115
1020.80 269.6836
1020.90 269.9558
1021.00 270.2279
1021.10 270.3434
1021.20 270.3545
1021.30 270.3657
1021.40 270.3768
1021.50 270.3879
1021.60 270.3991
1021.70 270.4102
1021.80 270.4213
1021.90 270.4325
1022.00 270.4436
1022.10 270.4547
1022.20 270.4659
1022.30 270.477
1022.40 270.4881
1022.50 270.4992
1022.60 270.5104
1022.70 270.5215
1022.80 270.5326
1022.90 270.5438
1023.00 270.5549
1023.10 270.566
1023.20 270.5772
1023.30 270.5883
1023.40 270.5994
1023.50 270.6106
1023.60 270.6217
1023.70 270.6328
1023.80 270.644
1023.90 270.6551
1024.00 270.6662
1024.10 270.6773
1024.20 270.6885
1024.30 270.6996
1024.40 270.7107
1024.50 270.7219
1024.60 270.733
1024.70 270.7441
1024.80 270.7553
1024.90 270.7664
1025.00 270.7771
1025.10 270.7871
1025.20 270.7971
1025.30 270.8071
1025.40 270.8171
1025.50 270.827
1025.60 270.837
1025.70 270.847
1025.80 270.857
1025.90 270.867
1026.00 270.877
1026.10 270.887
1026.20 270.897
1026.30 270.907
1026.40 270.917
1026.50 270.927
1026.60 270.937
1026.70 270.947
1026.80 270.957
1026.90 270.967
1027.00 270.977
1027.10 270.9869
1027.20 270.9969
1027.30 271.0069
1027.40 271.0169
1027.50 271.0269
1027.60 271.0369
1027.70 271.0469
1027.80 271.0569
1027.90 271.0669
1028.00 271.0769
1028.10 271.0869
1028.20 271.0969
1028.30 271.1069
1028.40 271.1169
1028.50 271.1269
1028.60 271.1369
1028.70 271.1468
1028.80 271.1568
1028.90 271.1668
1029.00 271.7471
1029.10 272.3274
1029.20 272.9077
1029.30 273.488
1029.40 274.0683
1029.50 274.6486
1029.60 275.2288
1029.70 275.8091
1029.80 276.3894
1029.90 276.9697
1030.00 277.55
1030.10 278.1303
1030.20 278.7106
1030.30 279.2908
1030.40 279.8711
1030.50 280.4514
1030.60 281.0317
1030.70 281.612
1030.80 282.1923
1030.90 282.7726
1031.00 283.3529
1031.10 283.9331
1031.20 284.5134
1031.30 285.0937
1031.40 285.674
1031.50 286.2543
1031.60 286.8346
1031.70 287.4149
1031.80 287.9951
1031.90 288.5754
1032.00 289.1557
1032.10 289.736
1032.20 290.3163
1032.30 290.8966
1032.40 291.4769
1032.50 292.0572
1032.60 292.6374
1032.70 293.2177
1032.80 293.798
1032.90 294.2616
1033.00 294.5501
1033.10 294.8386
1033.20 295.1271
1033.30 295.4156
1033.40 295.7041
1033.50 295.9926
1033.60 296.2811
1033.70 296.5697
1033.80 296.8582
1033.90 297.1467
1034.00 297.4352
1034.10 297.7237
1034.20 298.0122
1034.30 298.3007
1034.40 298.5892
1034.50 298.8777
1034.60 299.1662
1034.70 299.4547
1034.80 299.7433
1034.90 300.0318
1035.00 300.3203
1035.10 300.6088
1035.20 300.8973
1035.30 301.1858
1035.40 301.4743
1035.50 301.7628
1035.60 302.0513
1035.70 302.3398
1035.80 302.6283
1035.90 302.9169
1036.00 303.2054
1036.10 303.4939
1036.20 303.7824
1036.30 304.0709
1036.40 304.3594
1036.50 304.6479
1036.60 304.9364
1036.70 305.2249
1036.80 305.5134
1036.90 305.7102
1037.00 305.8841
1037.10 306.0579
1037.20 306.2317
1037.30 306.4056
1037.40 306.5794
1037.50 306.7533
1037.60 306.9271
1037.70 307.1009
1037.80 307.2748
1037.90 307.4486
1038.00 307.6225
1038.10 307.7963
1038.20 307.9701
1038.30 308.144
1038.40 308.3178
1038.50 308.4917
1038.60 308.6655
1038.70 308.8393
1038.80 309.0132
1038.90 309.187
1039.00 309.3609
1039.10 309.5347
1039.20 309.7086
1039.30 309.8824
1039.40 310.0562
1039.50 310.2301
1039.60 310.4039
1039.70 310.5778
1039.80 310.7516
1039.90 310.9254
1040.00 311.0993
1040.10 311.2731
1040.20 311.447
1040.30 311.6208
1040.40 311.7946
1040.50 311.9685
1040.60 312.1423
1040.70 312.3162
1040.80 312.49
1040.90 312.6312
1041.00 312.7723
1041.10 312.9134
1041.20 313.0546
1041.30 313.1957
1041.40 313.3369
1041.50 313.478
1041.60 313.6192
1041.70 313.7603
1041.80 313.9015
1041.90 314.0426
1042.00 314.1837
1042.10 314.3249
1042.20 314.466
1042.30 314.6072
1042.40 314.7483
1042.50 314.8895
1042.60 315.0306
1042.70 315.1717
1042.80 315.3129
1042.90 315.454
1043.00 315.5952
1043.10 315.7363
1043.20 315.8775
1043.30 316.0186
1043.40 316.1598
1043.50 316.3009
1043.60 316.442
1043.70 316.5832
1043.80 316.7243
1043.90 316.8655
1044.00 317.0066
1044.10 317.1478
1044.20 317.2889
1044.30 317.4301
1044.40 317.5712
1044.50 317.7123
1044.60 317.8535
1044.70 317.9946
1044.80 318.1443
1044.90 318.3712
1045.00 318.5981
1045.10 318.825
1045.20 319.0518
1045.30 319.2787
1045.40 319.5056
1045.50 319.7325
1045.60 319.9593
1045.70 320.1862
1045.80 320.4131
1045.90 320.64
1046.00 320.8668
1046.10 321.0937
1046.20 321.3206
1046.30 321.5475
1046.40 321.7743
1046.50 322.0012
1046.60 322.2281
1046.70 322.455
1046.80 322.6818
1046.90 322.9087
1047.00 323.1356
1047.10 323.3625
1047.20 323.5893
1047.30 323.8162
1047.40 324.0431
1047.50 324.27
1047.60 324.4968
1047.70 324.7237
1047.80 324.9506
1047.90 325.1775
1048.00 325.4043
1048.10 325.6312
1048.20 325.8581
1048.30 326.085
1048.40 326.3118
1048.50 326.5387
1048.60 326.7656
1048.70 326.9925
1048.80 327.1903
1048.90 327.1271
1049.00 327.0639
1049.10 327.0007
1049.20 326.9375
1049.30 326.8744
1049.40 326.8112
1049.50 326.748
1049.60 326.6848
1049.70 326.6216
1049.80 326.5584
1049.90 326.4952
1050.00 326.432
1050.10 326.3688
1050.20 326.3056
1050.30 326.2424
1050.40 326.1792
1050.50 326.116
1050.60 326.0529
1050.70 325.9897
1050.80 325.9265
1050.90 325.8633
1051.00 325.8001
1051.10 325.7369
1051.20 325.6737
1051.30 325.6105
1051.40 325.5473
1051.50 325.4841
1051.60 325.4209
1051.70 325.3577
1051.80 325.2945
1051.90 325.2313
1052.00 325.1682
1052.10 325.105
1052.20 325.0418
1052.30 324.9786
1052.40 324.9154
1052.50 324.8522
1052.60 324.789
1052.70 324.7258
1052.80 324.6626
1052.90 324.4486
1053.00 324.2345
1053.10 324.0205
1053.20 323.8065
1053.30 323.5924
1053.40 323.3784
1053.50 323.1644
1053.60 322.9503
1053.70 322.7363
1053.80 322.5223
1053.90 322.3082
1054.00 322.0942
1054.10 321.8802
1054.20 321.6661
1054.30 321.4521
1054.40 321.2381
1054.50 321.024
1054.60 320.81
1054.70 320.5959
1054.80 320.3819
1054.90 320.1679
1055.00 319.9538
1055.10 319.7398
1055.20 319.5258
1055.30 319.3117
1055.40 319.0977
1055.50 318.8837
1055.60 318.6696
1055.70 318.4556
1055.80 318.2416
1055.90 318.0275
1056.00 317.8135
1056.10 317.5995
1056.20 317.3854
1056.30 317.1714
1056.40 316.9573
1056.50 316.7433
1056.60 316.5293
1056.70 316.3152
1056.80 316.1012
1056.90 316.1025
1057.00 316.1576
1057.10 316.2128
1057.20 316.2679
1057.30 316.323
1057.40 316.3781
1057.50 316.4333
1057.60 316.4884
1057.70 316.5435
1057.80 316.5986
1057.90 316.6538
1058.00 316.7089
1058.10 316.764
1058.20 316.8192
1058.30 316.8743
1058.40 316.9294
1058.50 316.9845
1058.60 317.0397
1058.70 317.0948
1058.80 317.1499
1058.90 317.2051
1059.00 317.2602
1059.10 317.3153
1059.20 317.3704
1059.30 317.4256
1059.40 317.4807
1059.50 317.5358
1059.60 317.5909
1059.70 317.6461
1059.80 317.7012
1059.90 317.7563
1060.00 317.8115
1060.10 317.8666
1060.20 317.9217
1060.30 317.9768
1060.40 318.032
1060.50 318.0871
1060.60 318.1422
1060.70 318.1973
1060.80 318.2525
1060.90 318.469
1061.00 318.8471
1061.10 319.2251
1061.20 319.6031
1061.30 319.9811
1061.40 320.3591
1061.50 320.7371
1061.60 321.1151
1061.70 321.4932
1061.80 321.8712
1061.90 322.2492
1062.00 322.6272
1062.10 323.0052
1062.20 323.3832
1062.30 323.7612
1062.40 324.1393
1062.50 324.5173
1062.60 324.8953
1062.70 325.2733
1062.80 325.6513
1062.90 326.0293
1063.00 326.4073
1063.10 326.7853
1063.20 327.1634
1063.30 327.5414
1063.40 327.9194
1063.50 328.2974
1063.60 328.6754
1063.70 329.0534
1063.80 329.4314
1063.90 329.8095
1064.00 330.1875
1064.10 330.5655
1064.20 330.9435
1064.30 331.3215
1064.40 331.6995
1064.50 332.0775
1064.60 332.4555
1064.70 332.8336
1064.80 333.2116
1064.90 333.5896
1065.00 333.9565
1065.10 334.3234
1065.20 334.6903
1065.30 335.0572
1065.40 335.4241
1065.50 335.791
1065.60 336.1579
1065.70 336.5248
1065.80 336.8917
1065.90 337.2586
1066.00 337.6255
1066.10 337.9924
1066.20 338.3593
1066.30 338.7262
1066.40 339.0931
1066.50 339.46
1066.60 339.8269
1066.70 340.1938
1066.80 340.5607
1066.90 340.9276
1067.00 341.2945
1067.10 341.6614
1067.20 342.0283
1067.30 342.3952
1067.40 342.7621
1067.50 343.1291
1067.60 343.496
1067.70 343.8629
1067.80 344.2298
1067.90 344.5967
1068.00 344.9636
1068.10 345.3305
1068.20 345.6974
1068.30 346.0643
1068.40 346.4312
1068.50 346.7981
1068.60 347.165
1068.70 347.5319
1068.80 347.8988
1068.90 348.2657
1069.00 348.6512
1069.10 349.0554
1069.20 349.4596
1069.30 349.8638
1069.40 350.268
1069.50 350.6722
1069.60 351.0764
1069.70 351.4806
1069.80 351.8848
1069.90 352.289
1070.00 352.6932
1070.10 353.0974
1070.20 353.5016
1070.30 353.9058
1070.40 354.31
1070.50 354.7142
1070.60 355.1184
1070.70 355.5226
1070.80 355.9268
1070.90 356.331
1071.00 356.7352
1071.10 357.1394
1071.20 357.5436
1071.30 357.9478
1071.40 358.352
1071.50 358.7562
1071.60 359.1604
1071.70 359.5646
1071.80 359.9688
1071.90 360.3731
1072.00 360.7773
1072.10 361.1815
1072.20 361.5857
1072.30 361.9899
1072.40 362.3941
1072.50 362.7983
1072.60 363.2025
1072.70 363.6067
1072.80 364.0109
1072.90 364.4151
1073.00 364.8193
1073.10 365.1734
1073.20 365.5221
1073.30 365.8707
1073.40 366.2193
1073.50 366.5679
1073.60 366.9166
1073.70 367.2652
1073.80 367.6138
1073.90 367.9624
1074.00 368.3111
1074.10 368.6597
1074.20 369.0083
1074.30 369.3569
1074.40 369.7055
1074.50 370.0542
1074.60 370.4028
1074.70 370.7514
1074.80 371.1
1074.90 371.4487
1075.00 371.7973
1075.10 372.1459
1075.20 372.4945
1075.30 372.8432
1075.40 373.1918
1075.50 373.5404
1075.60 373.889
1075.70 374.2377
1075.80 374.5863
1075.90 374.9349
1076.00 375.2835
1076.10 375.6322
1076.20 375.9808
1076.30 376.3294
1076.40 376.678
1076.50 377.0266
1076.60 377.3753
1076.70 377.7239
1076.80 378.0725
1076.90 378.4211
1077.00 378.7698
1077.10 379.1038
1077.20 379.3064
1077.30 379.509
1077.40 379.7116
1077.50 379.9141
1077.60 380.1167
1077.70 380.3193
1077.80 380.5219
1077.90 380.7245
1078.00 380.9271
1078.10 381.1297
1078.20 381.3323
1078.30 381.5349
1078.40 381.7374
1078.50 381.94
1078.60 382.1426
1078.70 382.3452
1078.80 382.5478
1078.90 382.7504
1079.00 382.953
1079.10 383.1556
1079.20 383.3582
1079.30 383.5607
1079.40 383.7633
1079.50 383.9659
1079.60 384.1685
1079.70 384.3711
1079.80 384.5737
1079.90 384.7763
1080.00 384.9789
1080.10 385.1814
1080.20 385.384
1080.30 385.5866
1080.40 385.7892
1080.50 385.9918
1080.60 386.1944
1080.70 386.397
1080.80 386.5996
1080.90 386.8022
1081.00 387.0047
1081.10 387.2073
1081.20 387.6158
1081.30 388.5048
1081.40 389.3938
1081.50 390.2828
1081.60 391.1718
1081.70 392.0608
1081.80 392.9498
1081.90 393.8387
1082.00 394.7277
1082.10 395.6167
1082.20 396.5057
1082.30 397.3947
1082.40 398.2837
1082.50 399.1727
1082.60 400.0617
1082.70 400.9506
1082.80 401.8396
1082.90 402.7286
1083.00 403.6176
1083.10 404.5066
1083.20 405.3956
1083.30 406.2846
1083.40 407.1735
1083.50 408.0625
1083.60 408.9515
1083.70 409.8405
1083.80 410.7295
1083.90 411.6185
1084.00 412.5075
1084.10 413.3965
1084.20 414.2854
1084.30 415.1744
1084.40 416.0634
1084.50 416.9524
1084.60 417.8414
1084.70 418.7304
1084.80 419.6194
1084.90 420.5083
1085.00 421.3973
1085.10 422.2863
1085.20 423.1753
1085.30 423.8301
1085.40 423.9385
1085.50 424.0469
1085.60 424.1552
1085.70 424.2636
1085.80 424.372
1085.90 424.4803
1086.00 424.5887
1086.10 424.6971
1086.20 424.8055
1086.30 424.9138
1086.40 425.0222
1086.50 425.1306
1086.60 425.239
1086.70 425.3473
1086.80 425.4557
1086.90 425.5641
1087.00 425.6724
1087.10 425.7808
1087.20 425.8892
1087.30 425.9976
1087.40 426.1059
1087.50 426.2143
1087.60 426.3227
1087.70 426.4311
1087.80 426.5394
1087.90 426.6478
1088.00 426.7562
1088.10 426.8645
1088.20 426.9729
1088.30 427.0813
1088.40 427.1897
1088.50 427.298
1088.60 427.4064
1088.70 427.5148
1088.80 427.6232
1088.90 427.7315
1089.00 427.8399
1089.10 427.9483
1089.20 428.0566
1089.30 428.165
1089.40 428.3029
1089.50 428.5095
1089.60 428.7162
1089.70 428.9228
1089.80 429.1295
1089.90 429.3361
1090.00 429.5428
1090.10 429.7494
1090.20 429.9561
1090.30 430.1627
1090.40 430.3694
1090.50 430.576
1090.60 430.7827
1090.70 430.9893
1090.80 431.196
1090.90 431.4026
1091.00 431.6093
1091.10 431.8159
1091.20 432.0226
1091.30 432.2292
1091.40 432.4359
1091.50 432.6425
1091.60 432.8492
1091.70 433.0558
1091.80 433.2625
1091.90 433.4691
1092.00 433.6758
1092.10 433.8825
1092.20 434.0891
1092.30 434.2958
1092.40 434.5024
1092.50 434.7091
1092.60 434.9157
1092.70 435.1224
1092.80 435.329
1092.90 435.5357
1093.00 435.7423
1093.10 435.949
1093.20 436.1556
1093.30 436.3623
1093.40 436.5689
1093.50 436.7595
1093.60 436.8858
1093.70 437.012
1093.80 437.1383
1093.90 437.2646
1094.00 437.3908
1094.10 437.5171
1094.20 437.6434
1094.30 437.7697
1094.40 437.8959
1094.50 438.0222
1094.60 438.1485
1094.70 438.2747
1094.80 438.401
1094.90 438.5273
1095.00 438.6536
1095.10 438.7798
1095.20 438.9061
1095.30 439.0324
1095.40 439.1587
1095.50 439.2849
1095.60 439.4112
1095.70 439.5375
1095.80 439.6637
1095.90 439.79
1096.00 439.9163
1096.10 440.0426
1096.20 440.1688
1096.30 440.2951
1096.40 440.4214
1096.50 440.5476
1096.60 440.6739
1096.70 440.8002
1096.80 440.9265
1096.90 441.0527
1097.00 441.179
1097.10 441.3053
1097.20 441.4315
1097.30 441.5578
1097.40 441.6841
1097.50 441.8104
1097.60 441.9366
1097.70 442.1234
1097.80 442.3102
1097.90 442.4971
1098.00 442.6839
1098.10 442.8707
1098.20 443.0575
1098.30 443.2443
1098.40 443.4311
1098.50 443.6179
1098.60 443.8047
1098.70 443.9915
1098.80 444.1783
1098.90 444.3651
1099.00 444.5519
1099.10 444.7387
1099.20 444.9255
1099.30 445.1123
1099.40 445.2992
1099.50 445.486
1099.60 445.6728
1099.70 445.8596
1099.80 446.0464
1099.90 446.2332
1100.00 446.42
1100.10 446.6068
1100.20 446.7936
1100.30 446.9804
1100.40 447.1672
1100.50 447.354
1100.60 447.5408
1100.70 447.7276
1100.80 447.9144
1100.90 448.1013
1101.00 448.2881
1101.10 448.4749
1101.20 448.6617
1101.30 448.8485
1101.40 449.0353
1101.50 449.2221
1101.60 449.4089
1101.70 449.5957
1101.80 449.4003
1101.90 449.0412
1102.00 448.682
1102.10 448.3228
1102.20 447.9636
1102.30 447.6044
1102.40 447.2453
1102.50 446.8861
1102.60 446.5269
1102.70 446.1677
1102.80 445.8086
1102.90 445.4494
1103.00 445.0902
1103.10 444.731
1103.20 444.3719
1103.30 444.0127
1103.40 443.6535
1103.50 443.2943
1103.60 442.9351
1103.70 442.576
1103.80 442.2168
1103.90 441.8576
1104.00 441.4984
1104.10 441.1393
1104.20 440.7801
1104.30 440.4209
1104.40 440.0617
1104.50 439.7026
1104.60 439.3434
1104.70 438.9842
1104.80 438.625
1104.90 438.2658
1105.00 437.9067
1105.10 437.5475
1105.20 437.1883
1105.30 436.8291
1105.40 436.47
1105.50 436.1108
1105.60 435.7516
1105.70 435.3924
1105.80 435.0333
1105.90 434.794
1106.00 434.8347
1106.10 434.8754
1106.20 434.9161
1106.30 434.9568
1106.40 434.9975
1106.50 435.0382
1106.60 435.0789
1106.70 435.1196
1106.80 435.1602
1106.90 435.2009
1107.00 435.2416
1107.10 435.2823
1107.20 435.323
1107.30 435.3637
1107.40 435.4044
1107.50 435.4451
1107.60 435.4858
1107.70 435.5265
1107.80 435.5671
1107.90 435.6078
1108.00 435.6485
1108.10 435.6892
1108.20 435.7299
1108.30 435.7706
1108.40 435.8113
1108.50 435.852
1108.60 435.8927
1108.70 435.9334
1108.80 435.974
1108.90 436.0147
1109.00 436.0554
1109.10 436.0961
1109.20 436.1368
1109.30 436.1775
1109.40 436.2182
1109.50 436.2589
1109.60 436.2996
1109.70 436.3402
1109.80 436.3809
1109.90 436.4216
1110.00 436.4623
1110.10 436.3783
1110.20 436.2632
1110.30 436.148
1110.40 436.0328
1110.50 435.9177
1110.60 435.8025
1110.70 435.6874
1110.80 435.5722
1110.90 435.457
1111.00 435.3419
1111.10 435.2267
1111.20 435.1116
1111.30 434.9964
1111.40 434.8812
1111.50 434.7661
1111.60 434.6509
1111.70 434.5358
1111.80 434.4206
1111.90 434.3054
1112.00 434.1903
1112.10 434.0751
1112.20 433.96
1112.30 433.8448
1112.40 433.7296
1112.50 433.6145
1112.60 433.4993
1112.70 433.3842
1112.80 433.269
1112.90 433.1538
1113.00 433.0387
1113.10 432.9235
1113.20 432.8084
1113.30 432.6932
1113.40 432.578
1113.50 432.4629
1113.60 432.3477
1113.70 432.2326
1113.80 432.1174
1113.90 432.0022
1114.00 431.8871
1114.10 431.7719
1114.20 431.7456
1114.30 431.9267
1114.40 432.1077
1114.50 432.2888
1114.60 432.4699
1114.70 432.6509
1114.80 432.832
1114.90 433.013
1115.00 433.1941
1115.10 433.3752
1115.20 433.5562
1115.30 433.7373
1115.40 433.9183
1115.50 434.0994
1115.60 434.2805
1115.70 434.4615
1115.80 434.6426
1115.90 434.8236
1116.00 435.0047
1116.10 435.1858
1116.20 435.3668
1116.30 435.5479
1116.40 435.7289
1116.50 435.91
1116.60 436.0911
1116.70 436.2721
1116.80 436.4532
1116.90 436.6342
1117.00 436.8153
1117.10 436.9964
1117.20 437.1774
1117.30 437.3585
1117.40 437.5395
1117.50 437.7206
1117.60 437.9017
1117.70 438.0827
1117.80 438.2638
1117.90 438.4448
1118.00 438.6259
1118.10 438.807
1118.20 438.988
1118.30 439.1691
1118.40 439.3471
1118.50 439.523
1118.60 439.6989
1118.70 439.8748
1118.80 440.0508
1118.90 440.2267
1119.00 440.4026
1119.10 440.5785
1119.20 440.7545
1119.30 440.9304
1119.40 441.1063
1119.50 441.2822
1119.60 441.4582
1119.70 441.6341
1119.80 441.81
1119.90 441.9859
1120.00 442.1619
1120.10 442.3378
1120.20 442.5137
1120.30 442.6896
1120.40 442.8656
1120.50 443.0415
1120.60 443.2174
1120.70 443.3934
1120.80 443.5693
1120.90 443.7452
1121.00 443.9211
1121.10 444.0971
1121.20 444.273
1121.30 444.4489
1121.40 444.6248
1121.50 444.8008
1121.60 444.9767
1121.70 445.1526
1121.80 445.3285
1121.90 445.5045
1122.00 445.6804
1122.10 445.8563
1122.20 446.0322
1122.30 446.2082
1122.40 446.3841
1122.50 446.56
1122.60 446.5731
1122.70 446.5682
1122.80 446.5632
1122.90 446.5583
1123.00 446.5533
1123.10 446.5483
1123.20 446.5434
1123.30 446.5384
1123.40 446.5334
1123.50 446.5285
1123.60 446.5235
1123.70 446.5185
1123.80 446.5136
1123.90 446.5086
1124.00 446.5037
1124.10 446.4987
1124.20 446.4937
1124.30 446.4888
1124.40 446.4838
1124.50 446.4788
1124.60 446.4739
1124.70 446.4689
1124.80 446.4639
1124.90 446.459
1125.00 446.454
1125.10 446.4491
1125.20 446.4441
1125.30 446.4391
1125.40 446.4342
1125.50 446.4292
1125.60 446.4242
1125.70 446.4193
1125.80 446.4143
1125.90 446.4093
1126.00 446.4044
1126.10 446.3994
1126.20 446.3945
1126.30 446.3895
1126.40 446.3845
1126.50 446.3796
1126.60 446.3746
1126.70 446.335
1126.80 446.1569
1126.90 445.9787
1127.00 445.8006
1127.10 445.6225
1127.20 445.4443
1127.30 445.2662
1127.40 445.088
1127.50 444.9099
1127.60 444.7318
1127.70 444.5536
1127.80 444.3755
1127.90 444.1974
1128.00 444.0192
1128.10 443.8411
1128.20 443.663
1128.30 443.4848
1128.40 443.3067
1128.50 443.1286
1128.60 442.9504
1128.70 442.7723
1128.80 442.5941
1128.90 442.416
1129.00 442.2379
1129.10 442.0597
1129.20 441.8816
1129.30 441.7035
1129.40 441.5253
1129.50 441.3472
1129.60 441.1691
1129.70 440.9909
1129.80 440.8128
1129.90 440.6346
1130.00 440.4565
1130.10 440.2784
1130.20 440.1002
1130.30 439.9221
1130.40 439.744
1130.50 439.5658
1130.60 439.3877
1130.70 439.2096
1130.80 439.0314
1130.90 438.7682
1131.00 438.3065
1131.10 437.8447
1131.20 437.383
1131.30 436.9212
1131.40 436.4595
1131.50 435.9977
1131.60 435.536
1131.70 435.0743
1131.80 434.6125
1131.90 434.1508
1132.00 433.689
1132.10 433.2273
1132.20 432.7655
1132.30 432.3038
1132.40 431.842
1132.50 431.3803
1132.60 430.9186
1132.70 430.4568
1132.80 429.9951
1132.90 429.5333
1133.00 429.0716
1133.10 428.6098
1133.20 428.1481
1133.30 427.6864
1133.40 427.2246
1133.50 426.7629
1133.60 426.3011
1133.70 425.8394
1133.80 425.3776
1133.90 424.9159
1134.00 424.4541
1134.10 423.9924
1134.20 423.5307
1134.30 423.0689
1134.40 422.6072
1134.50 422.1454
1134.60 421.6837
1134.70 421.2219
1134.80 420.7602
1134.90 420.2985
1135.00 419.8367
1135.10 419.5288
1135.20 419.4517
1135.30 419.3746
1135.40 419.2975
1135.50 419.2204
1135.60 419.1433
1135.70 419.0662
1135.80 418.9891
1135.90 418.912
1136.00 418.8348
1136.10 418.7577
1136.20 418.6806
1136.30 418.6035
1136.40 418.5264
1136.50 418.4493
1136.60 418.3722
1136.70 418.2951
1136.80 418.218
1136.90 418.1409
1137.00 418.0638
1137.10 417.9867
1137.20 417.9096
1137.30 417.8324
1137.40 417.7553
1137.50 417.6782
1137.60 417.6011
1137.70 417.524
1137.80 417.4469
1137.90 417.3698
1138.00 417.2927
1138.10 417.2156
1138.20 417.1385
1138.30 417.0614
1138.40 416.9843
1138.50 416.9072
1138.60 416.83
1138.70 416.7529
1138.80 416.6758
1138.90 416.5987
1139.00 416.5216
1139.10 416.4445
1139.20 416.3674
1139.30 416.4221
1139.40 416.6744
1139.50 416.9267
1139.60 417.179
1139.70 417.4313
1139.80 417.6836
1139.90 417.9359
1140.00 418.1882
1140.10 418.4405
1140.20 418.6928
1140.30 418.9451
1140.40 419.1974
1140.50 419.4497
1140.60 419.7021
1140.70 419.9544
1140.80 420.2067
1140.90 420.459
1141.00 420.7113
1141.10 420.9636
1141.20 421.2159
1141.30 421.4682
1141.40 421.7205
1141.50 421.9728
1141.60 422.2251
1141.70 422.4774
1141.80 422.7297
1141.90 422.9821
1142.00 423.2344
1142.10 423.4867
1142.20 423.739
1142.30 423.9913
1142.40 424.2436
1142.50 424.4959
1142.60 424.7482
1142.70 425.0005
1142.80 425.2528
1142.90 425.5051
1143.00 425.7574
1143.10 426.0097
1143.20 426.2621
1143.30 426.5144
1143.40 426.7667
1143.50 427.1694
1143.60 427.923
1143.70 428.6765
1143.80 429.4301
1143.90 430.1837
1144.00 430.9373
1144.10 431.6909
1144.20 432.4445
1144.30 433.1981
1144.40 433.9517
1144.50 434.7053
1144.60 435.4588
1144.70 436.2124
1144.80 436.966
1144.90 437.7196
1145.00 438.4732
1145.10 439.2268
1145.20 439.9804
1145.30 440.734
1145.40 441.4876
1145.50 442.2411
1145.60 442.9947
1145.70 443.7483
1145.80 444.5019
1145.90 445.2555
1146.00 446.0091
1146.10 446.7627
1146.20 447.5163
1146.30 448.2699
1146.40 449.0234
1146.50 449.777
1146.60 450.5306
1146.70 451.2842
1146.80 452.0378
1146.90 452.7914
1147.00 453.545
1147.10 454.2986
1147.20 455.0522
1147.30 455.8057
1147.40 456.5593
1147.50 457.3129
1147.60 458.0665
1147.70 458.7733
1147.80 459.293
1147.90 459.8127
1148.00 460.3323
1148.10 460.852
1148.20 461.3717
1148.30 461.8914
1148.40 462.411
1148.50 462.9307
1148.60 463.4504
1148.70 463.9701
1148.80 464.4897
1148.90 465.0094
1149.00 465.5291
1149.10 466.0488
1149.20 466.5684
1149.30 467.0881
1149.40 467.6078
1149.50 468.1275
1149.60 468.6471
1149.70 469.1668
1149.80 469.6865
1149.90 470.2061
1150.00 470.7258
1150.10 471.2455
1150.20 471.7652
1150.30 472.2848
1150.40 472.8045
1150.50 473.3242
1150.60 473.8439
1150.70 474.3635
1150.80 474.8832
1150.90 475.4029
1151.00 475.9226
1151.10 476.4422
1151.20 476.9619
1151.30 477.4816
1151.40 478.0013
1151.50 478.5209
1151.60 479.0406
1151.70 479.5603
1151.80 480.08
1151.90 480.5996
1152.00 480.549
1152.10 480.4984
1152.20 480.4478
1152.30 480.3972
1152.40 480.3466
1152.50 480.2959
1152.60 480.2453
1152.70 480.1947
1152.80 480.1441
1152.90 480.0935
1153.00 480.0429
1153.10 479.9923
1153.20 479.9416
1153.30 479.891
1153.40 479.8404
1153.50 479.7898
1153.60 479.7392
1153.70 479.6886
1153.80 479.638
1153.90 479.5874
1154.00 479.5367
1154.10 479.4861
1154.20 479.4355
1154.30 479.3849
1154.40 479.3343
1154.50 479.2837
1154.60 479.2331
1154.70 479.1824
1154.80 479.1318
1154.90 479.0812
1155.00 479.0306
1155.10 478.98
1155.20 478.9294
1155.30 478.8788
1155.40 478.8281
1155.50 478.7775
1155.60 478.7269
1155.70 478.6763
1155.80 478.6257
1155.90 478.5751
1156.00 478.5245
1156.10 478.4738
1156.20 478.2317
1156.30 477.9417
1156.40 477.6516
1156.50 477.3616
1156.60 477.0716
1156.70 476.7816
1156.80 476.4915
1156.90 476.2015
1157.00 475.9115
1157.10 475.6215
1157.20 475.3314
1157.30 475.0414
1157.40 474.7514
1157.50 474.4613
1157.60 474.1713
1157.70 473.8813
1157.80 473.5913
1157.90 473.3012
1158.00 473.0112
1158.10 472.7212
1158.20 472.4311
1158.30 472.1411
1158.40 471.8511
1158.50 471.5611
1158.60 471.271
1158.70 470.981
1158.80 470.691
1158.90 470.401
1159.00 470.1109
1159.10 469.8209
1159.20 469.5309
1159.30 469.2408
1159.40 468.9508
1159.50 468.6608
1159.60 468.3708
1159.70 468.0807
1159.80 467.7907
1159.90 467.5007
1160.00 467.2106
1160.10 466.9206
1160.20 466.6306
1160.30 466.3406
1160.40 466.0375
1160.50 465.7214
1160.60 465.4053
1160.70 465.0893
1160.80 464.7732
1160.90 464.4571
1161.00 464.141
1161.10 463.8249
1161.20 463.5088
1161.30 463.1928
1161.40 462.8767
1161.50 462.5606
1161.60 462.2445
1161.70 461.9284
1161.80 461.6123
1161.90 461.2963
1162.00 460.9802
1162.10 460.6641
1162.20 460.348
1162.30 460.0319
1162.40 459.7158
1162.50 459.3998
1162.60 459.0837
1162.70 458.7676
1162.80 458.4515
1162.90 458.1354
1163.00 457.8193
1163.10 457.5033
1163.20 457.1872
1163.30 456.8711
1163.40 456.555
1163.50 456.2389
1163.60 455.9228
1163.70 455.6068
1163.80 455.2907
1163.90 454.9746
1164.00 454.6585
1164.10 454.3424
1164.20 454.0263
1164.30 453.7103
1164.40 453.3942
1164.50 453.0781
1164.60 452.7682
1164.70 452.5137
1164.80 452.2592
1164.90 452.0047
1165.00 451.7502
1165.10 451.4957
1165.20 451.2412
1165.30 450.9867
1165.40 450.7323
1165.50 450.4778
1165.60 450.2233
1165.70 449.9688
1165.80 449.7143
1165.90 449.4598
1166.00 449.2053
1166.10 448.9508
1166.20 448.6963
1166.30 448.4418
1166.40 448.1874
1166.50 447.9329
1166.60 447.6784
1166.70 447.4239
1166.80 447.1694
1166.90 446.9149
1167.00 446.6604
1167.10 446.4059
1167.20 446.1514
1167.30 445.8969
1167.40 445.6425
1167.50 445.388
1167.60 445.1335
1167.70 444.879
1167.80 444.6245
1167.90 444.37
1168.00 444.1155
1168.10 443.861
1168.20 443.6065
1168.30 443.3521
1168.40 443.0976
1168.50 442.8431
1168.60 442.5886
1168.70 442.3341
1168.80 442.0796
1168.90 441.5527
1169.00 440.9091
1169.10 440.2655
1169.20 439.6219
1169.30 438.9782
1169.40 438.3346
1169.50 437.691
1169.60 437.0474
1169.70 436.4038
1169.80 435.7602
1169.90 435.1165
1170.00 434.4729
1170.10 433.8293
1170.20 433.1857
1170.30 432.5421
1170.40 431.8984
1170.50 431.2548
1170.60 430.6112
1170.70 429.9676
1170.80 429.324
1170.90 428.6803
1171.00 428.0367
1171.10 427.3931
1171.20 426.7495
1171.30 426.1059
1171.40 425.4622
1171.50 424.8186
1171.60 424.175
1171.70 423.5314
1171.80 422.8878
1171.90 422.2441
1172.00 421.6005
1172.10 420.9569
1172.20 420.3133
1172.30 419.6697
1172.40 419.0261
1172.50 418.3824
1172.60 417.7388
1172.70 417.0952
1172.80 416.4516
1172.90 415.808
1173.00 415.1643
1173.10 414.6793
1173.20 414.8284
1173.30 414.9775
1173.40 415.1266
1173.50 415.2758
1173.60 415.4249
1173.70 415.574
1173.80 415.7231
1173.90 415.8723
1174.00 416.0214
1174.10 416.1705
1174.20 416.3196
1174.30 416.4688
1174.40 416.6179
1174.50 416.767
1174.60 416.9161
1174.70 417.0653
1174.80 417.2144
1174.90 417.3635
1175.00 417.5126
1175.10 417.6618
1175.20 417.8109
1175.30 417.96
1175.40 418.1091
1175.50 418.2583
1175.60 418.4074
1175.70 418.5565
1175.80 418.7056
1175.90 418.8548
1176.00 419.0039
1176.10 419.153
1176.20 419.3021
1176.30 419.4513
1176.40 419.6004
1176.50 419.7495
1176.60 419.8986
1176.70 420.0478
1176.80 420.1969
1176.90 420.346
1177.00 420.4951
1177.10 420.6442
1177.20 420.7934
1177.30 420.9425
1177.40 421.1518
1177.50 421.3869
1177.60 421.6219
1177.70 421.857
1177.80 422.0921
1177.90 422.3272
1178.00 422.5623
1178.10 422.7973
1178.20 423.0324
1178.30 423.2675
1178.40 423.5026
1178.50 423.7376
1178.60 423.9727
1178.70 424.2078
1178.80 424.4429
1178.90 424.678
1179.00 424.913
1179.10 425.1481
1179.20 425.3832
1179.30 425.6183
1179.40 425.8533
1179.50 426.0884
1179.60 426.3235
1179.70 426.5586
1179.80 426.7937
1179.90 427.0287
1180.00 427.2638
1180.10 427.4989
1180.20 427.734
1180.30 427.969
1180.40 428.2041
1180.50 428.4392
1180.60 428.6743
1180.70 428.9094
1180.80 429.1444
1180.90 429.3795
1181.00 429.6146
1181.10 429.8497
1181.20 430.0847
1181.30 430.3198
1181.40 430.5549
1181.50 430.79
1181.60 431.0365
1181.70 431.3856
1181.80 431.7348
1181.90 432.0839
1182.00 432.4331
1182.10 432.7823
1182.20 433.1314
1182.30 433.4806
1182.40 433.8298
1182.50 434.1789
1182.60 434.5281
1182.70 434.8772
1182.80 435.2264
1182.90 435.5756
1183.00 435.9247
1183.10 436.2739
1183.20 436.6231
1183.30 436.9722
1183.40 437.3214
1183.50 437.6705
1183.60 438.0197
1183.70 438.3689
1183.80 438.718
1183.90 439.0672
1184.00 439.4163
1184.10 439.7655
1184.20 440.1147
1184.30 440.4638
1184.40 440.813
1184.50 441.1622
1184.60 441.5113
1184.70 441.8605
1184.80 442.2096
1184.90 442.5588
1185.00 442.908
1185.10 443.2571
1185.20 443.6063
1185.30 443.9554
1185.40 444.3046
1185.50 444.6538
1185.60 445.0029
1185.70 445.3521
1185.80 445.7013
1185.90 445.7991
1186.00 445.6458
1186.10 445.4924
1186.20 445.339
1186.30 445.1856
1186.40 445.0323
1186.50 444.8789
1186.60 444.7255
1186.70 444.5721
1186.80 444.4188
1186.90 444.2654
1187.00 444.112
1187.10 443.9586
1187.20 443.8053
1187.30 443.6519
1187.40 443.4985
1187.50 443.3451
1187.60 443.1918
1187.70 443.0384
1187.80 442.885
1187.90 442.7316
1188.00 442.5783
1188.10 442.4249
1188.20 442.2715
1188.30 442.1181
1188.40 441.9648
1188.50 441.8114
1188.60 441.658
1188.70 441.5046
1188.80 441.3513
1188.90 441.1979
1189.00 441.0445
1189.10 440.8911
1189.20 440.7378
1189.30 440.5844
1189.40 440.431
1189.50 440.2776
1189.60 440.1242
1189.70 439.9709
1189.80 439.8175
1189.90 439.6641
1190.00 439.5107
1190.10 439.3574
1190.20 438.9447
1190.30 438.4673
1190.40 437.9898
1190.50 437.5124
1190.60 437.035
1190.70 436.5575
1190.80 436.0801
1190.90 435.6026
1191.00 435.1252
1191.10 434.6477
1191.20 434.1703
1191.30 433.6928
1191.40 433.2154
1191.50 432.738
1191.60 432.2605
1191.70 431.7831
1191.80 431.3056
1191.90 430.8282
1192.00 430.3507
1192.10 429.8733
1192.20 429.3958
1192.30 428.9184
1192.40 428.441
1192.50 427.9635
1192.60 427.4861
1192.70 427.0086
1192.80 426.5312
1192.90 426.0537
1193.00 425.5763
1193.10 425.0988
1193.20 424.6214
1193.30 424.144
1193.40 423.6665
1193.50 423.1891
1193.60 422.7116
1193.70 422.2342
1193.80 421.7567
1193.90 421.2793
1194.00 420.8018
1194.10 420.3244
1194.20 419.847
1194.30 419.3695
1194.40 418.907
1194.50 418.5785
1194.60 418.25
1194.70 417.9216
1194.80 417.5931
1194.90 417.2646
1195.00 416.9362
1195.10 416.6077
1195.20 416.2792
1195.30 415.9507
1195.40 415.6223
1195.50 415.2938
1195.60 414.9653
1195.70 414.6369
1195.80 414.3084
1195.90 413.9799
1196.00 413.6515
1196.10 413.323
1196.20 412.9945
1196.30 412.6661
1196.40 412.3376
1196.50 412.0091
1196.60 411.6807
1196.70 411.3522
1196.80 411.0237
1196.90 410.6952
1197.00 410.3668
1197.10 410.0383
1197.20 409.7098
1197.30 409.3814
1197.40 409.0529
1197.50 408.7244
1197.60 408.396
1197.70 408.0675
1197.80 407.739
1197.90 407.4106
1198.00 407.0821
1198.10 406.7536
1198.20 406.4252
1198.30 406.0967
1198.40 405.7682
1198.50 405.4397
1198.60 405.1113
1198.70 404.9021
1198.80 404.8718
1198.90 404.8415
1199.00 404.8112
1199.10 404.781
1199.20 404.7507
1199.30 404.7204
1199.40 404.6901
1199.50 404.6599
1199.60 404.6296
1199.70 404.5993
1199.80 404.569
1199.90 404.5387
1200.00 404.5085
1200.10 404.4782
1200.20 404.4479
1200.30 404.4176
1200.40 404.3873
1200.50 404.3571
1200.60 404.3268
1200.70 404.2965
1200.80 404.2662
1200.90 404.2359
1201.00 404.2057
1201.10 404.1754
1201.20 404.1451
1201.30 404.1148
1201.40 404.0845
1201.50 404.0543
1201.60 404.024
1201.70 403.9937
1201.80 403.9634
1201.90 403.9331
1202.00 403.9029
1202.10 403.8726
1202.20 403.8423
1202.30 403.812
1202.40 403.7818
1202.50 403.7515
1202.60 403.7212
1202.70 403.6909
1202.80 403.6606
1202.90 403.6304
1203.00 403.8561
1203.10 404.2526
1203.20 404.6491
1203.30 405.0456
1203.40 405.4421
1203.50 405.8386
1203.60 406.2351
1203.70 406.6316
1203.80 407.0281
1203.90 407.4245
1204.00 407.821
1204.10 408.2175
1204.20 408.614
1204.30 409.0105
1204.40 409.407
1204.50 409.8035
1204.60 410.2
1204.70 410.5965
1204.80 410.993
1204.90 411.3894
1205.00 411.7859
1205.10 412.1824
1205.20 412.5789
1205.30 412.9754
1205.40 413.3719
1205.50 413.7684
1205.60 414.1649
1205.70 414.5614
1205.80 414.9579
1205.90 415.3543
1206.00 415.7508
1206.10 416.1473
1206.20 416.5438
1206.30 416.9403
1206.40 417.3368
1206.50 417.7333
1206.60 418.1298
1206.70 418.5263
1206.80 418.9228
1206.90 419.3192
1207.00 419.7157
1207.10 420.1122
1207.20 420.5087
1207.30 421.1171
1207.40 421.7786
1207.50 422.44
1207.60 423.1014
1207.70 423.7628
1207.80 424.4242
1207.90 425.0856
1208.00 425.747
1208.10 426.4084
1208.20 427.0698
1208.30 427.7313
1208.40 428.3927
1208.50 429.0541
1208.60 429.7155
1208.70 430.3769
1208.80 431.0383
1208.90 431.6997
1209.00 432.3611
1209.10 433.0225
1209.20 433.684
1209.30 434.3454
1209.40 435.0068
1209.50 435.6682
1209.60 436.3296
1209.70 436.991
1209.80 437.6524
1209.90 438.3138
1210.00 438.9752
1210.10 439.6366
1210.20 440.2981
1210.30 440.9595
1210.40 441.6209
1210.50 442.2823
1210.60 442.9437
1210.70 443.6051
1210.80 444.2665
1210.90 444.9279
1211.00 445.5893
1211.10 446.2508
1211.20 446.9122
1211.30 447.5736
1211.40 448.235
1211.50 448.8964
1211.60 449.1401
1211.70 449.3374
1211.80 449.5347
1211.90 449.732
1212.00 449.9293
1212.10 450.1266
1212.20 450.324
1212.30 450.5213
1212.40 450.7186
1212.50 450.9159
1212.60 451.1132
1212.70 451.3105
1212.80 451.5078
1212.90 451.7051
1213.00 451.9024
1213.10 452.0997
1213.20 452.297
1213.30 452.4943
1213.40 452.6916
1213.50 452.8889
1213.60 453.0862
1213.70 453.2835
1213.80 453.4808
1213.90 453.6781
1214.00 453.8755
1214.10 454.0728
1214.20 454.2701
1214.30 454.4674
1214.40 454.6647
1214.50 454.862
1214.60 455.0593
1214.70 455.2566
1214.80 455.4539
1214.90 455.6512
1215.00 455.8485
1215.10 456.0458
1215.20 456.2431
1215.30 456.4404
1215.40 456.6377
1215.50 456.835
1215.60 457.0323
1215.70 457.2296
1215.80 457.4269
1215.90 458.0497
1216.00 458.6725
1216.10 459.2953
1216.20 459.9181
1216.30 460.5409
1216.40 461.1637
1216.50 461.7865
1216.60 462.4092
1216.70 463.032
1216.80 463.6548
1216.90 464.2776
1217.00 464.9004
1217.10 465.5232
1217.20 466.146
1217.30 466.7688
1217.40 467.3915
1217.50 468.0143
1217.60 468.6371
1217.70 469.2599
1217.80 469.8827
1217.90 470.5055
1218.00 471.1283
1218.10 471.7511
1218.20 472.3738
1218.30 472.9966
1218.40 473.6194
1218.50 474.2422
1218.60 474.865
1218.70 475.4878
1218.80 476.1106
1218.90 476.7334
1219.00 477.3561
1219.10 477.9789
1219.20 478.6017
1219.30 479.2245
1219.40 479.8473
1219.50 480.4701
1219.60 481.0929
1219.70 481.7157
1219.80 482.3384
1219.90 482.9612
1220.00 483.584
1220.10 484.1715
1220.20 484.4415
1220.30 484.7115
1220.40 484.9814
1220.50 485.2514
1220.60 485.5214
1220.70 485.7913
1220.80 486.0613
1220.90 486.3313
1221.00 486.6013
1221.10 486.8712
1221.20 487.1412
1221.30 487.4112
1221.40 487.6811
1221.50 487.9511
1221.60 488.2211
1221.70 488.491
1221.80 488.761
1221.90 489.031
1222.00 489.3009
1222.10 489.5709
1222.20 489.8409
1222.30 490.1109
1222.40 490.3808
1222.50 490.6508
1222.60 490.9208
1222.70 491.1907
1222.80 491.4607
1222.90 491.7307
1223.00 492.0006
1223.10 492.2706
1223.20 492.5406
1223.30 492.8106
1223.40 493.0805
1223.50 493.3505
1223.60 493.6205
1223.70 493.8904
1223.80 494.1604
1223.90 494.4304
1224.00 494.7003
1224.10 494.9703
1224.20 495.2403
1224.30 495.5102
1224.40 495.7449
1224.50 495.8385
1224.60 495.932
1224.70 496.0256
1224.80 496.1191
1224.90 496.2127
1225.00 496.3063
1225.10 496.3998
1225.20 496.4934
1225.30 496.5869
1225.40 496.6805
1225.50 496.774
1225.60 496.8676
1225.70 496.9611
1225.80 497.0547
1225.90 497.1482
1226.00 497.2418
1226.10 497.3353
1226.20 497.4289
1226.30 497.5224
1226.40 497.616
1226.50 497.7095
1226.60 497.8031
1226.70 497.8966
1226.80 497.9902
1226.90 498.0838
1227.00 498.1773
1227.10 498.2709
1227.20 498.3644
1227.30 498.458
1227.40 498.5515
1227.50 498.6451
1227.60 498.7386
1227.70 498.8322
1227.80 498.9257
1227.90 499.0193
1228.00 499.1128
1228.10 499.2064
1228.20 499.2999
1228.30 499.3935
1228.40 499.487
1228.50 499.5806
1228.60 499.6741
1228.70 499.6849
1228.80 499.3644
1228.90 499.044
1229.00 498.7235
1229.10 498.403
1229.20 498.0826
1229.30 497.7621
1229.40 497.4417
1229.50 497.1212
1229.60 496.8007
1229.70 496.4803
1229.80 496.1598
1229.90 495.8394
1230.00 495.5189
1230.10 495.1984
1230.20 494.878
1230.30 494.5575
1230.40 494.237
1230.50 493.9166
1230.60 493.5961
1230.70 493.2757
1230.80 492.9552
1230.90 492.6347
1231.00 492.3143
1231.10 491.9938
1231.20 491.6734
1231.30 491.3529
1231.40 491.0324
1231.50 490.712
1231.60 490.3915
1231.70 490.071
1231.80 489.7506
1231.90 489.4301
1232.00 489.1097
1232.10 488.7892
1232.20 488.4687
1232.30 488.1483
1232.40 487.8278
1232.50 487.5074
1232.60 487.1869
1232.70 486.8664
1232.80 486.546
1232.90 486.2255
1233.00 485.8621
1233.10 485.3268
1233.20 484.7915
1233.30 484.2563
1233.40 483.721
1233.50 483.1857
1233.60 482.6505
1233.70 482.1152
1233.80 481.5799
1233.90 481.0447
1234.00 480.5094
1234.10 479.9741
1234.20 479.4389
1234.30 478.9036
1234.40 478.3683
1234.50 477.8331
1234.60 477.2978
1234.70 476.7625
1234.80 476.2273
1234.90 475.692
1235.00 475.1567
1235.10 474.6215
1235.20 474.0862
1235.30 473.5509
1235.40 473.0157
1235.50 472.4804
1235.60 471.9451
1235.70 471.4099
1235.80 470.8746
1235.90 470.3393
1236.00 469.8041
1236.10 469.2688
1236.20 468.7335
1236.30 468.1983
1236.40 467.663
1236.50 467.1277
1236.60 466.5925
1236.70 466.0572
1236.80 465.5219
1236.90 464.9867
1237.00 464.4514
1237.10 463.9161
1237.20 463.3809
1237.30 462.8953
1237.40 462.6084
1237.50 462.3214
1237.60 462.0345
1237.70 461.7476
1237.80 461.4607
1237.90 461.1738
1238.00 460.8869
1238.10 460.6
1238.20 460.3131
1238.30 460.0261
1238.40 459.7392
1238.50 459.4523
1238.60 459.1654
1238.70 458.8785
1238.80 458.5916
1238.90 458.3047
1239.00 458.0178
1239.10 457.7308
1239.20 457.4439
1239.30 457.157
1239.40 456.8701
1239.50 456.5832
1239.60 456.2963
1239.70 456.0094
1239.80 455.7225
1239.90 455.4355
1240.00 455.1486
1240.10 454.8617
1240.20 454.5748
1240.30 454.2879
1240.40 454.001
1240.50 453.7141
1240.60 453.4272
1240.70 453.1402
1240.80 452.8533
1240.90 452.5664
1241.00 452.2795
1241.10 451.9926
1241.20 451.7057
1241.30 451.4188
1241.40 451.1319
1241.50 450.8449
1241.60 450.5635
1241.70 450.3308
1241.80 450.0982
1241.90 449.8655
1242.00 449.6329
1242.10 449.4002
1242.20 449.1676
1242.30 448.935
1242.40 448.7023
1242.50 448.4697
1242.60 448.237
1242.70 448.0044
1242.80 447.7718
1242.90 447.5391
1243.00 447.3065
1243.10 447.0738
1243.20 446.8412
1243.30 446.6085
1243.40 446.3759
1243.50 446.1433
1243.60 445.9106
1243.70 445.678
1243.80 445.4453
1243.90 445.2127
1244.00 444.98
1244.10 444.7474
1244.20 444.5148
1244.30 444.2821
1244.40 444.0495
1244.50 443.8168
1244.60 443.5842
1244.70 443.3516
1244.80 443.1189
1244.90 442.8863
1245.00 442.6536
1245.10 442.421
1245.20 442.1883
1245.30 441.9557
1245.40 441.7231
1245.50 441.4904
1245.60 441.2578
1245.70 441.0251
1245.80 440.7925
1245.90 440.5598
1246.00 441.0061
1246.10 441.4523
1246.20 441.8986
1246.30 442.3448
1246.40 442.7911
1246.50 443.2373
1246.60 443.6836
1246.70 444.1298
1246.80 444.5761
1246.90 445.0223
1247.00 445.4686
1247.10 445.9148
1247.20 446.3611
1247.30 446.8073
1247.40 447.2536
1247.50 447.6998
1247.60 448.1461
1247.70 448.5923
1247.80 449.0386
1247.90 449.4848
1248.00 449.9311
1248.10 450.3773
1248.20 450.8236
1248.30 451.2698
1248.40 451.7161
1248.50 452.1623
1248.60 452.6086
1248.70 453.0548
1248.80 453.5011
1248.90 453.9473
1249.00 454.3935
1249.10 454.8398
1249.20 455.286
1249.30 455.7323
1249.40 456.1785
1249.50 456.6248
1249.60 457.071
1249.70 457.5173
1249.80 457.9635
1249.90 458.4098
1250.00 458.856
1250.10 459.3023
1250.20 459.7485
1250.30 460.1246
1250.40 460.5006
1250.50 460.8767
1250.60 461.2527
1250.70 461.6288
1250.80 462.0049
1250.90 462.3809
1251.00 462.757
1251.10 463.133
1251.20 463.5091
1251.30 463.8851
1251.40 464.2612
1251.50 464.6372
1251.60 465.0133
1251.70 465.3893
1251.80 465.7654
1251.90 466.1415
1252.00 466.5175
1252.10 466.8936
1252.20 467.2696
1252.30 467.6457
1252.40 468.0217
1252.50 468.3978
1252.60 468.7738
1252.70 469.1499
1252.80 469.5259
1252.90 469.902
1253.00 470.278
1253.10 470.6541
1253.20 471.0302
1253.30 471.4062
1253.40 471.7823
1253.50 472.1583
1253.60 472.5344
1253.70 472.9104
1253.80 473.2865
1253.90 473.6625
1254.00 474.0386
1254.10 474.4146
1254.20 474.7907
1254.30 475.1667
1254.40 475.5428
1254.50 475.9189
1254.60 476.5369
1254.70 477.1818
1254.80 477.8267
1254.90 478.4717
1255.00 479.1166
1255.10 479.7615
1255.20 480.4064
1255.30 481.0513
1255.40 481.6963
1255.50 482.3412
1255.60 482.9861
1255.70 483.631
1255.80 484.276
1255.90 484.9209
1256.00 485.5658
1256.10 486.2107
1256.20 486.8556
1256.30 487.5006
1256.40 488.1455
1256.50 488.7904
1256.60 489.4353
1256.70 490.0802
1256.80 490.7252
1256.90 491.3701
1257.00 492.015
1257.10 492.6599
1257.20 493.3049
1257.30 493.9498
1257.40 494.5947
1257.50 495.2396
1257.60 495.8845
1257.70 496.5295
1257.80 497.1744
1257.90 497.8193
1258.00 498.4642
1258.10 499.1092
1258.20 499.7541
1258.30 500.399
1258.40 501.0439
1258.50 501.6888
1258.60 502.3338
1258.70 502.9787
1258.80 503.6236
1258.90 504.2919
1259.00 504.9703
1259.10 505.6487
1259.20 506.327
1259.30 507.0054
1259.40 507.6837
1259.50 508.3621
1259.60 509.0405
1259.70 509.7188
1259.80 510.3972
1259.90 511.0756
1260.00 511.7539
1260.10 512.4323
1260.20 513.1106
1260.30 513.789
1260.40 514.4674
1260.50 515.1457
1260.60 515.8241
1260.70 516.5025
1260.80 517.1808
1260.90 517.8592
1261.00 518.5375
1261.10 519.2159
1261.20 519.8943
1261.30 520.5726
1261.40 521.251
1261.50 521.9293
1261.60 522.6077
1261.70 523.2861
1261.80 523.9644
1261.90 524.6428
1262.00 525.3212
1262.10 525.9995
1262.20 526.6779
1262.30 527.3562
1262.40 528.0346
1262.50 528.713
1262.60 529.3913
1262.70 530.0697
1262.80 530.7481
1262.90 531.4264
1263.00 532.1048
1263.10 532.7831
1263.20 533.2948
1263.30 533.6953
1263.40 534.0959
1263.50 534.4964
1263.60 534.8969
1263.70 535.2975
1263.80 535.698
1263.90 536.0985
1264.00 536.4991
1264.10 536.8996
1264.20 537.3002
1264.30 537.7007
1264.40 538.1012
1264.50 538.5018
1264.60 538.9023
1264.70 539.3028
1264.80 539.7034
1264.90 540.1039
1265.00 540.5044
1265.10 540.905
1265.20 541.3055
1265.30 541.706
1265.40 542.1066
1265.50 542.5071
1265.60 542.9076
1265.70 543.3082
1265.80 543.7087
1265.90 544.1092
1266.00 544.5098
1266.10 544.9103
1266.20 545.3108
1266.30 545.7114
1266.40 546.1119
1266.50 546.5125
1266.60 546.913
1266.70 547.3135
1266.80 547.7141
1266.90 548.1146
1267.00 548.5151
1267.10 548.9157
1267.20 549.3162
1267.30 549.7167
1267.40 550.1173
1267.50 550.4952
1267.60 550.8506
1267.70 551.2059
1267.80 551.5613
1267.90 551.9166
1268.00 552.2719
1268.10 552.6273
1268.20 552.9826
1268.30 553.338
1268.40 553.6933
1268.50 554.0487
1268.60 554.404
1268.70 554.7594
1268.80 555.1147
1268.90 555.4701
1269.00 555.8254
1269.10 556.1808
1269.20 556.5361
1269.30 556.8915
1269.40 557.2468
1269.50 557.6022
1269.60 557.9575
1269.70 558.3129
1269.80 558.6682
1269.90 559.0236
1270.00 559.3789
1270.10 559.7343
1270.20 560.0896
1270.30 560.445
1270.40 560.8003
1270.50 561.1557
1270.60 561.511
1270.70 561.8664
1270.80 562.2217
1270.90 562.5771
1271.00 562.9324
1271.10 563.2878
1271.20 563.6431
1271.30 563.9984
1271.40 564.3538
1271.50 564.7091
1271.60 565.0645
1271.70 565.4198
1271.80 565.6766
1271.90 565.7031
1272.00 565.7296
1272.10 565.7562
1272.20 565.7827
1272.30 565.8093
1272.40 565.8358
1272.50 565.8624
1272.60 565.8889
1272.70 565.9155
1272.80 565.942
1272.90 565.9686
1273.00 565.9951
1273.10 566.0217
1273.20 566.0482
1273.30 566.0748
1273.40 566.1013
1273.50 566.1279
1273.60 566.1544
1273.70 566.181
1273.80 566.2075
1273.90 566.2341
1274.00 566.2606
1274.10 566.2872
1274.20 566.3137
1274.30 566.3402
1274.40 566.3668
1274.50 566.3933
1274.60 566.4199
1274.70 566.4464
1274.80 566.473
1274.90 566.4995
1275.00 566.5261
1275.10 566.5526
1275.20 566.5792
1275.30 566.6057
1275.40 566.6323
1275.50 566.6588
1275.60 566.6854
1275.70 566.7119
1275.80 566.7385
1275.90 566.765
1276.00 566.7916
1276.10 566.7998
1276.20 566.6428
1276.30 566.4858
1276.40 566.3288
1276.50 566.1718
1276.60 566.0148
1276.70 565.8578
1276.80 565.7008
1276.90 565.5438
1277.00 565.3868
1277.10 565.2298
1277.20 565.0728
1277.30 564.9158
1277.40 564.7588
1277.50 564.6018
1277.60 564.4448
1277.70 564.2878
1277.80 564.1308
1277.90 563.9738
1278.00 563.8168
1278.10 563.6598
1278.20 563.5028
1278.30 563.3459
1278.40 563.1889
1278.50 563.0319
1278.60 562.8749
1278.70 562.7179
1278.80 562.5609
1278.90 562.4039
1279.00 562.2469
1279.10 562.0899
1279.20 561.9329
1279.30 561.7759
1279.40 561.6189
1279.50 561.4619
1279.60 561.3049
1279.70 561.1479
1279.80 560.9909
1279.90 560.8339
1280.00 560.6769
1280.10 560.5199
1280.20 560.3629
1280.30 560.2059
1280.40 560.049
1280.50 560.0311
1280.60 560.0133
1280.70 559.9955
1280.80 559.9777
1280.90 559.9598
1281.00 559.942
1281.10 559.9242
1281.20 559.9064
1281.30 559.8885
1281.40 559.8707
1281.50 559.8529
1281.60 559.8351
1281.70 559.8172
1281.80 559.7994
1281.90 559.7816
1282.00 559.7638
1282.10 559.7459
1282.20 559.7281
1282.30 559.7103
1282.40 559.6925
1282.50 559.6746
1282.60 559.6568
1282.70 559.639
1282.80 559.6212
1282.90 559.6033
1283.00 559.5855
1283.10 559.5677
1283.20 559.5499
1283.30 559.532
1283.40 559.5142
1283.50 559.4964
1283.60 559.4786
1283.70 559.4607
1283.80 559.4429
1283.90 559.4251
1284.00 559.4073
1284.10 559.3894
1284.20 559.3716
1284.30 559.3538
1284.40 559.336
1284.50 559.3181
1284.60 559.3003
1284.70 559.2825
1284.80 559.3724
1284.90 559.4892
1285.00 559.606
1285.10 559.7228
1285.20 559.8396
1285.30 559.9564
1285.40 560.0732
1285.50 560.19
1285.60 560.3068
1285.70 560.4237
1285.80 560.5405
1285.90 560.6573
1286.00 560.7741
1286.10 560.8909
1286.20 561.0077
1286.30 561.1245
1286.40 561.2413
1286.50 561.3581
1286.60 561.4749
1286.70 561.5918
1286.80 561.7086
1286.90 561.8254
1287.00 561.9422
1287.10 562.059
1287.20 562.1758
1287.30 562.2926
1287.40 562.4094
1287.50 562.5262
1287.60 562.643
1287.70 562.7599
1287.80 562.8767
1287.90 562.9935
1288.00 563.1103
1288.10 563.2271
1288.20 563.3439
1288.30 563.4607
1288.40 563.5775
1288.50 563.6943
1288.60 563.8112
1288.70 563.928
1288.80 564.0448
1288.90 564.1616
1289.00 564.2784
1289.10 564.1707
1289.20 563.9133
1289.30 563.6558
1289.40 563.3984
1289.50 563.141
1289.60 562.8836
1289.70 562.6262
1289.80 562.3688
1289.90 562.1114
1290.00 561.854
1290.10 561.5965
1290.20 561.3391
1290.30 561.0817
1290.40 560.8243
1290.50 560.5669
1290.60 560.3095
1290.70 560.0521
1290.80 559.7947
1290.90 559.5372
1291.00 559.2798
1291.10 559.0224
1291.20 558.765
1291.30 558.5076
1291.40 558.2502
1291.50 557.9928
1291.60 557.7354
1291.70 557.4779
1291.80 557.2205
1291.90 556.9631
1292.00 556.7057
1292.10 556.4483
1292.20 556.1909
1292.30 555.9335
1292.40 555.6761
1292.50 555.4186
1292.60 555.1612
1292.70 554.9038
1292.80 554.6464
1292.90 554.389
1293.00 554.1316
1293.10 553.8742
1293.20 553.6168
1293.30 553.3593
1293.40 553.1852
1293.50 553.1358
1293.60 553.0864
1293.70 553.0371
1293.80 552.9877
1293.90 552.9383
1294.00 552.889
1294.10 552.8396
1294.20 552.7902
1294.30 552.7409
1294.40 552.6915
1294.50 552.6421
1294.60 552.5928
1294.70 552.5434
1294.80 552.494
1294.90 552.4447
1295.00 552.3953
1295.10 552.3459
1295.20 552.2966
1295.30 552.2472
1295.40 552.1978
1295.50 552.1485
1295.60 552.0991
1295.70 552.0497
1295.80 552.0004
1295.90 551.951
1296.00 551.9016
1296.10 551.8523
1296.20 551.8029
1296.30 551.7535
1296.40 551.7042
1296.50 551.6548
1296.60 551.6054
1296.70 551.5561
1296.80 551.5067
1296.90 551.4573
1297.00 551.408
1297.10 551.3586
1297.20 551.3092
1297.30 551.2599
1297.40 551.2105
1297.50 551.1611
1297.60 551.1118
1297.70 551.0827
1297.80 551.1348
1297.90 551.1869
1298.00 551.239
1298.10 551.2912
1298.20 551.3433
1298.30 551.3954
1298.40 551.4475
1298.50 551.4996
1298.60 551.5517
1298.70 551.6039
1298.80 551.656
1298.90 551.7081
1299.00 551.7602
1299.10 551.8123
1299.20 551.8644
1299.30 551.9166
1299.40 551.9687
1299.50 552.0208
1299.60 552.0729
1299.70 552.125
1299.80 552.1771
1299.90 552.2293
