# Version 2.1 - nm, norm@500 to 1, cut digits
# Wavelength(nm)  Flambda(ergs/cm^s/s/nm)
300.00 2.02218e-95
300.10 2.02218e-95
300.20 2.02218e-95
300.30 2.02218e-95
300.40 2.02218e-95
300.50 2.02218e-95
300.60 2.02218e-95
300.70 2.02218e-95
300.80 2.02218e-95
300.90 2.02218e-95
301.00 2.02218e-95
301.10 2.02218e-95
301.20 2.02218e-95
301.30 2.02218e-95
301.40 2.02218e-95
301.50 2.02218e-95
301.60 2.02218e-95
301.70 2.02218e-95
301.80 2.02218e-95
301.90 2.02218e-95
302.00 2.02218e-95
302.10 2.02218e-95
302.20 2.02218e-95
302.30 2.02218e-95
302.40 2.02218e-95
302.50 2.02218e-95
302.60 2.02218e-95
302.70 2.02218e-95
302.80 2.02218e-95
302.90 2.02218e-95
303.00 2.02218e-95
303.10 2.02218e-95
303.20 2.02218e-95
303.30 2.02218e-95
303.40 2.02218e-95
303.50 2.02218e-95
303.60 2.02218e-95
303.70 2.02218e-95
303.80 2.02218e-95
303.90 2.02218e-95
304.00 2.02218e-95
304.10 2.02218e-95
304.20 2.02218e-95
304.30 2.02218e-95
304.40 2.02218e-95
304.50 2.02218e-95
304.60 2.02218e-95
304.70 2.02218e-95
304.80 2.02218e-95
304.90 2.02218e-95
305.00 2.02218e-95
305.10 2.02218e-95
305.20 2.02218e-95
305.30 2.02218e-95
305.40 2.02218e-95
305.50 2.02218e-95
305.60 2.02218e-95
305.70 2.02218e-95
305.80 2.02218e-95
305.90 2.02218e-95
306.00 2.02218e-95
306.10 2.02218e-95
306.20 2.02218e-95
306.30 2.02218e-95
306.40 2.02218e-95
306.50 2.02218e-95
306.60 2.02218e-95
306.70 2.02218e-95
306.80 2.02218e-95
306.90 2.02218e-95
307.00 2.02218e-95
307.10 2.02218e-95
307.20 2.02218e-95
307.30 2.02218e-95
307.40 2.02218e-95
307.50 2.02218e-95
307.60 2.02218e-95
307.70 2.02218e-95
307.80 2.02218e-95
307.90 2.02218e-95
308.00 2.02218e-95
308.10 2.02218e-95
308.20 2.02218e-95
308.30 2.02218e-95
308.40 2.02218e-95
308.50 2.02218e-95
308.60 2.02218e-95
308.70 2.02218e-95
308.80 2.02218e-95
308.90 2.02218e-95
309.00 2.02218e-95
309.10 2.02218e-95
309.20 2.02218e-95
309.30 2.02218e-95
309.40 2.02218e-95
309.50 2.02218e-95
309.60 2.02218e-95
309.70 2.02218e-95
309.80 2.02218e-95
309.90 2.02218e-95
310.00 2.02218e-95
310.10 2.02218e-95
310.20 2.02218e-95
310.30 2.02218e-95
310.40 2.02218e-95
310.50 2.02218e-95
310.60 2.02218e-95
310.70 2.02218e-95
310.80 2.02218e-95
310.90 2.02218e-95
311.00 2.02218e-95
311.10 2.02218e-95
311.20 2.02218e-95
311.30 2.02218e-95
311.40 2.02218e-95
311.50 2.02218e-95
311.60 2.02218e-95
311.70 2.02218e-95
311.80 2.02218e-95
311.90 2.02218e-95
312.00 2.02218e-95
312.10 2.02218e-95
312.20 2.02218e-95
312.30 2.02218e-95
312.40 2.02218e-95
312.50 2.02218e-95
312.60 2.02218e-95
312.70 2.02218e-95
312.80 2.02218e-95
312.90 2.02218e-95
313.00 2.02218e-95
313.10 2.02218e-95
313.20 2.02218e-95
313.30 2.02218e-95
313.40 2.02218e-95
313.50 2.02218e-95
313.60 2.02218e-95
313.70 2.02218e-95
313.80 2.02218e-95
313.90 2.02218e-95
314.00 2.02218e-95
314.10 2.02218e-95
314.20 2.02218e-95
314.30 2.02218e-95
314.40 2.02218e-95
314.50 2.02218e-95
314.60 2.02218e-95
314.70 2.02218e-95
314.80 2.02218e-95
314.90 2.02218e-95
315.00 2.02218e-95
315.10 2.02218e-95
315.20 2.02218e-95
315.30 2.02218e-95
315.40 2.02218e-95
315.50 2.02218e-95
315.60 2.02218e-95
315.70 2.02218e-95
315.80 2.02218e-95
315.90 2.02218e-95
316.00 2.02218e-95
316.10 2.02218e-95
316.20 2.02218e-95
316.30 2.02218e-95
316.40 2.02218e-95
316.50 2.02218e-95
316.60 2.02218e-95
316.70 2.02218e-95
316.80 2.02218e-95
316.90 2.02218e-95
317.00 2.02218e-95
317.10 2.02218e-95
317.20 2.02218e-95
317.30 2.02218e-95
317.40 2.02218e-95
317.50 2.02218e-95
317.60 2.02218e-95
317.70 2.02218e-95
317.80 2.02218e-95
317.90 2.02218e-95
318.00 2.02218e-95
318.10 2.02218e-95
318.20 2.02218e-95
318.30 2.02218e-95
318.40 2.02218e-95
318.50 2.02218e-95
318.60 2.02218e-95
318.70 2.02218e-95
318.80 2.02218e-95
318.90 2.02218e-95
319.00 2.02218e-95
319.10 2.02218e-95
319.20 2.02218e-95
319.30 2.02218e-95
319.40 2.02218e-95
319.50 2.02218e-95
319.60 2.02218e-95
319.70 2.02218e-95
319.80 2.02218e-95
319.90 2.02218e-95
320.00 2.02218e-95
320.10 2.02218e-95
320.20 2.02218e-95
320.30 2.02218e-95
320.40 2.02218e-95
320.50 2.02218e-95
320.60 2.02218e-95
320.70 2.02218e-95
320.80 2.02218e-95
320.90 2.02218e-95
321.00 2.02218e-95
321.10 2.02218e-95
321.20 2.02218e-95
321.30 2.02218e-95
321.40 2.02218e-95
321.50 2.02218e-95
321.60 2.02218e-95
321.70 2.02218e-95
321.80 2.02218e-95
321.90 2.02218e-95
322.00 2.02218e-95
322.10 2.02218e-95
322.20 2.02218e-95
322.30 2.02218e-95
322.40 2.02218e-95
322.50 2.02218e-95
322.60 2.02218e-95
322.70 2.02218e-95
322.80 2.02218e-95
322.90 2.02218e-95
323.00 2.02218e-95
323.10 2.02218e-95
323.20 2.02218e-95
323.30 2.02218e-95
323.40 2.02218e-95
323.50 2.02218e-95
323.60 2.02218e-95
323.70 2.02218e-95
323.80 2.02218e-95
323.90 2.02218e-95
324.00 2.02218e-95
324.10 2.02218e-95
324.20 2.02218e-95
324.30 2.02218e-95
324.40 2.02218e-95
324.50 2.02218e-95
324.60 2.02218e-95
324.70 2.02218e-95
324.80 2.02218e-95
324.90 2.02218e-95
325.00 2.02218e-95
325.10 2.02218e-95
325.20 2.02218e-95
325.30 2.02218e-95
325.40 2.02218e-95
325.50 2.02218e-95
325.60 2.02218e-95
325.70 2.02218e-95
325.80 2.02218e-95
325.90 2.02218e-95
326.00 2.02218e-95
326.10 2.02218e-95
326.20 2.02218e-95
326.30 2.02218e-95
326.40 2.02218e-95
326.50 2.02218e-95
326.60 2.02218e-95
326.70 2.02218e-95
326.80 2.02218e-95
326.90 2.02218e-95
327.00 2.02218e-95
327.10 2.02218e-95
327.20 2.02218e-95
327.30 2.02218e-95
327.40 2.02218e-95
327.50 2.02218e-95
327.60 2.02218e-95
327.70 2.02218e-95
327.80 2.02218e-95
327.90 2.02218e-95
328.00 2.02218e-95
328.10 2.02218e-95
328.20 2.02218e-95
328.30 2.02218e-95
328.40 2.02218e-95
328.50 2.02218e-95
328.60 2.02218e-95
328.70 2.02218e-95
328.80 2.02218e-95
328.90 2.02218e-95
329.00 2.02218e-95
329.10 2.02218e-95
329.20 2.02218e-95
329.30 2.02218e-95
329.40 2.02218e-95
329.50 2.02218e-95
329.60 2.02218e-95
329.70 2.02218e-95
329.80 2.02218e-95
329.90 2.02218e-95
330.00 2.02218e-95
330.10 2.02218e-95
330.20 2.02218e-95
330.30 2.02218e-95
330.40 2.02218e-95
330.50 2.02218e-95
330.60 2.02218e-95
330.70 2.02218e-95
330.80 2.02218e-95
330.90 2.02218e-95
331.00 2.02218e-95
331.10 2.02218e-95
331.20 2.02218e-95
331.30 2.02218e-95
331.40 2.02218e-95
331.50 2.02218e-95
331.60 2.02218e-95
331.70 2.02218e-95
331.80 2.02218e-95
331.90 2.02218e-95
332.00 2.02218e-95
332.10 2.02218e-95
332.20 2.02218e-95
332.30 2.02218e-95
332.40 2.02218e-95
332.50 2.02218e-95
332.60 2.02218e-95
332.70 2.02218e-95
332.80 2.02218e-95
332.90 2.02218e-95
333.00 2.02218e-95
333.10 2.02218e-95
333.20 2.02218e-95
333.30 2.02218e-95
333.40 2.02218e-95
333.50 2.02218e-95
333.60 2.02218e-95
333.70 2.02218e-95
333.80 2.02218e-95
333.90 2.02218e-95
334.00 2.02218e-95
334.10 2.02218e-95
334.20 2.02218e-95
334.30 2.02218e-95
334.40 2.02218e-95
334.50 2.02218e-95
334.60 2.02218e-95
334.70 2.02218e-95
334.80 2.02218e-95
334.90 2.02218e-95
335.00 2.02218e-95
335.10 2.02218e-95
335.20 2.02218e-95
335.30 2.02218e-95
335.40 2.02218e-95
335.50 2.02218e-95
335.60 2.02218e-95
335.70 2.02218e-95
335.80 2.02218e-95
335.90 2.02218e-95
336.00 2.02218e-95
336.10 2.02218e-95
336.20 2.02218e-95
336.30 2.02218e-95
336.40 2.02218e-95
336.50 2.02218e-95
336.60 2.02218e-95
336.70 2.02218e-95
336.80 2.02218e-95
336.90 2.02218e-95
337.00 2.02218e-95
337.10 2.02218e-95
337.20 2.02218e-95
337.30 2.02218e-95
337.40 2.02218e-95
337.50 2.02218e-95
337.60 2.02218e-95
337.70 2.02218e-95
337.80 2.02218e-95
337.90 2.02218e-95
338.00 2.02218e-95
338.10 2.02218e-95
338.20 2.02218e-95
338.30 2.02218e-95
338.40 2.02218e-95
338.50 2.02218e-95
338.60 2.02218e-95
338.70 2.02218e-95
338.80 2.02218e-95
338.90 2.02218e-95
339.00 2.02218e-95
339.10 2.02218e-95
339.20 2.02218e-95
339.30 2.02218e-95
339.40 2.02218e-95
339.50 2.02218e-95
339.60 2.02218e-95
339.70 2.02218e-95
339.80 2.02218e-95
339.90 2.02218e-95
340.00 2.02218e-95
340.10 2.02218e-95
340.20 2.02218e-95
340.30 2.02218e-95
340.40 2.02218e-95
340.50 2.02218e-95
340.60 2.02218e-95
340.70 2.02218e-95
340.80 2.02218e-95
340.90 2.02218e-95
341.00 2.02218e-95
341.10 2.02218e-95
341.20 2.02218e-95
341.30 2.02218e-95
341.40 2.02218e-95
341.50 2.02218e-95
341.60 2.02218e-95
341.70 2.02218e-95
341.80 2.02218e-95
341.90 2.02218e-95
342.00 2.02218e-95
342.10 2.02218e-95
342.20 2.02218e-95
342.30 2.02218e-95
342.40 2.02218e-95
342.50 2.02218e-95
342.60 2.02218e-95
342.70 2.02218e-95
342.80 2.02218e-95
342.90 2.02218e-95
343.00 2.02218e-95
343.10 2.02218e-95
343.20 2.02218e-95
343.30 2.02218e-95
343.40 2.02218e-95
343.50 2.02218e-95
343.60 2.02218e-95
343.70 2.02218e-95
343.80 2.02218e-95
343.90 2.02218e-95
344.00 2.02218e-95
344.10 2.02218e-95
344.20 2.02218e-95
344.30 2.02218e-95
344.40 2.02218e-95
344.50 2.02218e-95
344.60 2.02218e-95
344.70 2.02218e-95
344.80 2.02218e-95
344.90 2.02218e-95
345.00 2.02218e-95
345.10 2.02218e-95
345.20 2.02218e-95
345.30 2.02218e-95
345.40 2.02218e-95
345.50 2.02218e-95
345.60 2.02218e-95
345.70 2.02218e-95
345.80 2.02218e-95
345.90 2.02218e-95
346.00 2.02218e-95
346.10 2.02218e-95
346.20 2.02218e-95
346.30 2.02218e-95
346.40 2.02218e-95
346.50 2.02218e-95
346.60 2.02218e-95
346.70 2.02218e-95
346.80 2.02218e-95
346.90 2.02218e-95
347.00 2.02218e-95
347.10 2.02218e-95
347.20 2.02218e-95
347.30 2.02218e-95
347.40 2.02218e-95
347.50 2.02218e-95
347.60 2.02218e-95
347.70 2.02218e-95
347.80 2.02218e-95
347.90 2.02218e-95
348.00 2.02218e-95
348.10 2.02218e-95
348.20 2.02218e-95
348.30 2.02218e-95
348.40 2.02218e-95
348.50 2.02218e-95
348.60 2.02218e-95
348.70 2.02218e-95
348.80 2.02218e-95
348.90 2.02218e-95
349.00 2.02218e-95
349.10 2.02218e-95
349.20 2.02218e-95
349.30 2.02218e-95
349.40 2.02218e-95
349.50 2.02218e-95
349.60 2.02218e-95
349.70 2.02218e-95
349.80 2.02218e-95
349.90 2.02218e-95
350.00 2.02218e-95
350.10 2.02218e-95
350.20 2.02218e-95
350.30 2.02218e-95
350.40 2.02218e-95
350.50 2.02218e-95
350.60 2.02218e-95
350.70 2.02218e-95
350.80 2.02218e-95
350.90 2.02218e-95
351.00 2.02218e-95
351.10 2.02218e-95
351.20 2.02218e-95
351.30 2.02218e-95
351.40 2.02218e-95
351.50 2.02218e-95
351.60 2.02218e-95
351.70 2.02218e-95
351.80 2.02218e-95
351.90 2.02218e-95
352.00 2.02218e-95
352.10 2.02218e-95
352.20 2.02218e-95
352.30 2.02218e-95
352.40 2.02218e-95
352.50 2.02218e-95
352.60 2.02218e-95
352.70 2.02218e-95
352.80 2.02218e-95
352.90 2.02218e-95
353.00 2.02218e-95
353.10 2.02218e-95
353.20 2.02218e-95
353.30 2.02218e-95
353.40 2.02218e-95
353.50 2.02218e-95
353.60 2.02218e-95
353.70 2.02218e-95
353.80 2.02218e-95
353.90 2.02218e-95
354.00 2.02218e-95
354.10 2.02218e-95
354.20 2.02218e-95
354.30 2.02218e-95
354.40 2.02218e-95
354.50 2.02218e-95
354.60 2.02218e-95
354.70 2.02218e-95
354.80 2.02218e-95
354.90 2.02218e-95
355.00 2.02218e-95
355.10 2.02218e-95
355.20 2.02218e-95
355.30 2.02218e-95
355.40 2.02218e-95
355.50 2.02218e-95
355.60 2.02218e-95
355.70 2.02218e-95
355.80 2.02218e-95
355.90 2.02218e-95
356.00 2.02218e-95
356.10 2.02218e-95
356.20 2.02218e-95
356.30 2.02218e-95
356.40 2.02218e-95
356.50 2.02218e-95
356.60 2.02218e-95
356.70 2.02218e-95
356.80 2.02218e-95
356.90 2.02218e-95
357.00 2.02218e-95
357.10 2.02218e-95
357.20 2.02218e-95
357.30 2.02218e-95
357.40 2.02218e-95
357.50 2.02218e-95
357.60 2.02218e-95
357.70 2.02218e-95
357.80 2.02218e-95
357.90 2.02218e-95
358.00 2.02218e-95
358.10 2.02218e-95
358.20 2.02218e-95
358.30 2.02218e-95
358.40 2.02218e-95
358.50 2.02218e-95
358.60 2.02218e-95
358.70 2.02218e-95
358.80 2.02218e-95
358.90 2.02218e-95
359.00 2.02218e-95
359.10 2.02218e-95
359.20 2.02218e-95
359.30 2.02218e-95
359.40 2.02218e-95
359.50 2.02218e-95
359.60 2.02218e-95
359.70 2.02218e-95
359.80 2.02218e-95
359.90 2.02218e-95
360.00 2.02218e-95
360.10 2.02218e-95
360.20 2.02218e-95
360.30 2.02218e-95
360.40 2.02218e-95
360.50 2.02218e-95
360.60 2.02218e-95
360.70 2.02218e-95
360.80 2.02218e-95
360.90 2.02218e-95
361.00 2.02218e-95
361.10 2.02218e-95
361.20 2.02218e-95
361.30 2.02218e-95
361.40 2.02218e-95
361.50 2.02218e-95
361.60 2.02218e-95
361.70 2.02218e-95
361.80 2.02218e-95
361.90 2.02218e-95
362.00 2.02218e-95
362.10 2.02218e-95
362.20 2.02218e-95
362.30 2.02218e-95
362.40 2.02218e-95
362.50 2.02218e-95
362.60 2.02218e-95
362.70 2.02218e-95
362.80 2.02218e-95
362.90 2.02218e-95
363.00 2.02218e-95
363.10 2.02218e-95
363.20 2.02218e-95
363.30 2.02218e-95
363.40 2.02218e-95
363.50 2.02218e-95
363.60 2.02218e-95
363.70 2.02218e-95
363.80 2.02218e-95
363.90 2.02218e-95
364.00 2.02218e-95
364.10 2.02218e-95
364.20 2.02218e-95
364.30 2.02218e-95
364.40 2.02218e-95
364.50 2.02218e-95
364.60 2.02218e-95
364.70 2.02218e-95
364.80 2.02218e-95
364.90 2.02218e-95
365.00 2.02218e-95
365.10 2.02218e-95
365.20 2.02218e-95
365.30 2.02218e-95
365.40 2.02218e-95
365.50 2.02218e-95
365.60 2.02218e-95
365.70 2.02218e-95
365.80 2.02218e-95
365.90 2.02218e-95
366.00 2.02218e-95
366.10 2.02218e-95
366.20 2.02218e-95
366.30 2.02218e-95
366.40 2.02218e-95
366.50 2.02218e-95
366.60 2.02218e-95
366.70 2.02218e-95
366.80 2.02218e-95
366.90 2.02218e-95
367.00 2.02218e-95
367.10 2.02218e-95
367.20 2.02218e-95
367.30 2.02218e-95
367.40 2.02218e-95
367.50 2.02218e-95
367.60 2.02218e-95
367.70 2.02218e-95
367.80 2.02218e-95
367.90 2.02218e-95
368.00 2.02218e-95
368.10 2.02218e-95
368.20 2.02218e-95
368.30 2.02218e-95
368.40 2.02218e-95
368.50 2.02218e-95
368.60 2.02218e-95
368.70 2.02218e-95
368.80 2.02218e-95
368.90 2.02218e-95
369.00 2.02218e-95
369.10 2.02218e-95
369.20 2.02218e-95
369.30 2.02218e-95
369.40 2.02218e-95
369.50 2.02218e-95
369.60 2.02218e-95
369.70 2.02218e-95
369.80 2.02218e-95
369.90 2.02218e-95
370.00 2.02218e-95
370.10 2.02218e-95
370.20 2.02218e-95
370.30 2.02218e-95
370.40 2.02218e-95
370.50 2.02218e-95
370.60 2.02218e-95
370.70 2.02218e-95
370.80 2.02218e-95
370.90 2.02218e-95
371.00 2.02218e-95
371.10 2.02218e-95
371.20 2.02218e-95
371.30 2.02218e-95
371.40 2.02218e-95
371.50 2.02218e-95
371.60 2.02218e-95
371.70 2.02218e-95
371.80 2.02218e-95
371.90 2.02218e-95
372.00 2.02218e-95
372.10 2.02218e-95
372.20 2.02218e-95
372.30 2.02218e-95
372.40 2.02218e-95
372.50 2.02218e-95
372.60 2.02218e-95
372.70 2.02218e-95
372.80 2.02218e-95
372.90 2.02218e-95
373.00 2.02218e-95
373.10 2.02218e-95
373.20 2.02218e-95
373.30 2.02218e-95
373.40 2.02218e-95
373.50 2.02218e-95
373.60 2.02218e-95
373.70 2.02218e-95
373.80 2.02218e-95
373.90 2.02218e-95
374.00 2.02218e-95
374.10 2.02218e-95
374.20 2.02218e-95
374.30 2.02218e-95
374.40 2.02218e-95
374.50 2.02218e-95
374.60 2.02218e-95
374.70 2.02218e-95
374.80 2.02218e-95
374.90 2.02218e-95
375.00 2.02218e-95
375.10 2.02218e-95
375.20 2.02218e-95
375.30 2.02218e-95
375.40 2.02218e-95
375.50 2.02218e-95
375.60 2.02218e-95
375.70 2.02218e-95
375.80 2.02218e-95
375.90 2.02218e-95
376.00 2.02218e-95
376.10 2.02218e-95
376.20 2.02218e-95
376.30 2.02218e-95
376.40 2.02218e-95
376.50 2.02218e-95
376.60 2.02218e-95
376.70 2.02218e-95
376.80 2.02218e-95
376.90 2.02218e-95
377.00 2.02218e-95
377.10 2.02218e-95
377.20 2.02218e-95
377.30 2.02218e-95
377.40 2.02218e-95
377.50 2.02218e-95
377.60 2.02218e-95
377.70 2.02218e-95
377.80 2.02218e-95
377.90 2.02218e-95
378.00 2.02218e-95
378.10 2.02218e-95
378.20 2.02218e-95
378.30 2.02218e-95
378.40 2.02218e-95
378.50 2.02218e-95
378.60 2.02218e-95
378.70 2.02218e-95
378.80 2.02218e-95
378.90 2.02218e-95
379.00 2.02218e-95
379.10 2.02218e-95
379.20 2.02218e-95
379.30 2.02218e-95
379.40 2.02218e-95
379.50 2.02218e-95
379.60 2.02218e-95
379.70 2.02218e-95
379.80 2.02218e-95
379.90 2.02218e-95
380.00 2.02218e-95
380.10 2.02218e-95
380.20 2.02218e-95
380.30 2.02218e-95
380.40 2.02218e-95
380.50 2.02218e-95
380.60 2.02218e-95
380.70 2.02218e-95
380.80 2.02218e-95
380.90 2.02218e-95
381.00 2.02218e-95
381.10 2.02218e-95
381.20 2.02218e-95
381.30 2.02218e-95
381.40 2.02218e-95
381.50 2.02218e-95
381.60 2.02218e-95
381.70 2.02218e-95
381.80 2.02218e-95
381.90 2.02218e-95
382.00 2.02218e-95
382.10 2.02218e-95
382.20 2.02218e-95
382.30 2.02218e-95
382.40 2.02218e-95
382.50 2.02218e-95
382.60 2.02218e-95
382.70 2.02218e-95
382.80 2.02218e-95
382.90 2.02218e-95
383.00 2.02218e-95
383.10 2.02218e-95
383.20 2.02218e-95
383.30 2.02218e-95
383.40 2.02218e-95
383.50 2.02218e-95
383.60 2.02218e-95
383.70 2.02218e-95
383.80 2.02218e-95
383.90 2.02218e-95
384.00 2.02218e-95
384.10 2.02218e-95
384.20 2.02218e-95
384.30 2.02218e-95
384.40 2.02218e-95
384.50 2.02218e-95
384.60 2.02218e-95
384.70 2.02218e-95
384.80 2.02218e-95
384.90 2.02218e-95
385.00 2.02218e-95
385.10 2.02218e-95
385.20 2.02218e-95
385.30 2.02218e-95
385.40 2.02218e-95
385.50 2.02218e-95
385.60 2.02218e-95
385.70 2.02218e-95
385.80 2.02218e-95
385.90 2.02218e-95
386.00 2.02218e-95
386.10 2.02218e-95
386.20 2.02218e-95
386.30 2.02218e-95
386.40 2.02218e-95
386.50 2.02218e-95
386.60 2.02218e-95
386.70 2.02218e-95
386.80 2.02218e-95
386.90 2.02218e-95
387.00 2.02218e-95
387.10 2.02218e-95
387.20 2.02218e-95
387.30 2.02218e-95
387.40 2.02218e-95
387.50 2.02218e-95
387.60 2.02218e-95
387.70 2.02218e-95
387.80 2.02218e-95
387.90 2.02218e-95
388.00 2.02218e-95
388.10 2.02218e-95
388.20 2.02218e-95
388.30 2.02218e-95
388.40 2.02218e-95
388.50 2.02218e-95
388.60 2.02218e-95
388.70 2.02218e-95
388.80 2.02218e-95
388.90 2.02218e-95
389.00 2.02218e-95
389.10 2.02218e-95
389.20 2.02218e-95
389.30 2.02218e-95
389.40 2.02218e-95
389.50 2.02218e-95
389.60 2.02218e-95
389.70 2.02218e-95
389.80 2.02218e-95
389.90 2.02218e-95
390.00 2.02218e-95
390.10 2.02218e-95
390.20 2.02218e-95
390.30 2.02218e-95
390.40 2.02218e-95
390.50 2.02218e-95
390.60 2.02218e-95
390.70 2.02218e-95
390.80 2.02218e-95
390.90 2.02218e-95
391.00 2.02218e-95
391.10 2.02218e-95
391.20 2.02218e-95
391.30 2.02218e-95
391.40 2.02218e-95
391.50 2.02218e-95
391.60 2.02218e-95
391.70 2.02218e-95
391.80 2.02218e-95
391.90 2.02218e-95
392.00 2.02218e-95
392.10 2.02218e-95
392.20 2.02218e-95
392.30 2.02218e-95
392.40 2.02218e-95
392.50 2.02218e-95
392.60 2.02218e-95
392.70 2.02218e-95
392.80 2.02218e-95
392.90 2.02218e-95
393.00 2.02218e-95
393.10 2.02218e-95
393.20 2.02218e-95
393.30 2.02218e-95
393.40 2.02218e-95
393.50 2.02218e-95
393.60 2.02218e-95
393.70 2.02218e-95
393.80 2.02218e-95
393.90 2.02218e-95
394.00 2.02218e-95
394.10 2.02218e-95
394.20 2.02218e-95
394.30 2.02218e-95
394.40 2.02218e-95
394.50 2.02218e-95
394.60 2.02218e-95
394.70 2.02218e-95
394.80 2.02218e-95
394.90 2.02218e-95
395.00 0.01207257
395.10 0.01618964
395.20 0.01618964
395.30 0.01618964
395.40 0.01618964
395.50 0.01618964
395.60 0.01618964
395.70 0.01618964
395.80 0.01618964
395.90 0.01618964
396.00 0.01618964
396.10 0.01618964
396.20 0.01618964
396.30 0.01618964
396.40 0.01618964
396.50 0.01618964
396.60 0.01618964
396.70 0.01618964
396.80 0.01618964
396.90 0.01618964
397.00 0.01618964
397.10 0.01618964
397.20 0.01618964
397.30 0.01618964
397.40 0.01618964
397.50 0.01906316
397.60 0.02607882
397.70 0.04001752
397.80 0.06370153
397.90 0.09734162
398.00 0.1388235
398.10 0.1846379
398.20 0.2301062
398.30 0.2706531
398.40 0.3037934
398.50 0.3297589
398.60 0.3512712
398.70 0.3730515
398.80 0.4009197
398.90 0.4399329
399.00 0.492977
399.10 0.5608687
399.20 0.6421687
399.30 0.7334655
399.40 0.8290718
399.50 0.9214414
399.60 1.003867
399.70 1.071478
399.80 1.121241
399.90 1.151176
400.00 1.160164
400.10 1.160164
400.20 1.160164
400.30 1.160164
400.40 1.160164
400.50 1.160164
400.60 1.160164
400.70 1.160164
400.80 1.160164
400.90 1.160164
401.00 1.161425
401.10 1.166328
401.20 1.175515
401.30 1.189723
401.40 1.210585
401.50 1.23951
401.60 1.275032
401.70 1.312837
401.80 1.347597
401.90 1.374736
402.00 1.391721
402.10 1.398427
402.20 1.398427
402.30 1.398427
402.40 1.398427
402.50 1.399751
402.60 1.407218
402.70 1.422555
402.80 1.446128
402.90 1.47628
403.00 1.510587
403.10 1.546951
403.20 1.584033
403.30 1.62183
403.40 1.662012
403.50 1.706284
403.60 1.755226
403.70 1.807803
403.80 1.861644
403.90 1.91423
404.00 1.96344
404.10 2.00818
404.20 2.048339
404.30 2.084936
404.40 2.120134
404.50 2.156768
404.60 2.197294
404.70 2.242036
404.80 2.289334
404.90 2.337605
405.00 2.37337
405.10 2.41503
405.20 2.458371
405.30 2.500282
405.40 2.540792
405.50 2.5783
405.60 2.610997
405.70 2.637583
405.80 2.657057
405.90 2.66913
406.00 2.674807
406.10 2.676065
406.20 2.676065
406.30 2.676065
406.40 2.676065
406.50 2.676065
406.60 2.676065
406.70 2.676065
406.80 2.676065
406.90 2.676065
407.00 2.676065
407.10 2.676065
407.20 2.676065
407.30 2.676065
407.40 2.676065
407.50 2.673192
407.60 2.666176
407.70 2.652237
407.80 2.628553
407.90 2.594913
408.00 2.553431
408.10 2.507617
408.20 2.462149
408.30 2.421602
408.40 2.388461
408.50 2.362496
408.60 2.340984
408.70 2.321049
408.80 2.29927
408.90 2.269425
409.00 2.227441
409.10 2.17114
409.20 2.100767
409.30 2.018904
409.40 1.930371
409.50 1.841576
409.60 1.75915
409.70 1.691539
409.80 1.641776
409.90 1.611841
410.00 1.602854
410.10 1.602854
410.20 1.602854
410.30 1.602854
410.40 1.602854
410.50 1.602854
410.60 1.610434
410.70 1.630567
410.80 1.663942
410.90 1.709057
411.00 1.76152
411.10 1.814252
411.20 1.861007
411.30 1.895577
411.40 1.911827
411.50 1.906545
411.60 1.882941
411.70 1.849431
411.80 1.815104
411.90 1.787965
412.00 1.772563
412.10 1.770361
412.20 1.776996
412.30 1.784609
412.40 1.791849
412.50 1.795681
412.60 1.789576
412.70 1.774238
412.80 1.750666
412.90 1.720514
413.00 1.686207
413.10 1.649843
413.20 1.612761
413.30 1.574964
413.40 1.534782
413.50 1.49051
413.60 1.441567
413.70 1.388991
413.80 1.33515
413.90 1.282564
414.00 1.233354
414.10 1.188614
414.20 1.148455
414.30 1.111858
414.40 1.07666
414.50 1.040026
414.60 0.9995001
414.70 0.9547581
414.80 0.90746
414.90 0.8591894
415.00 0.8113511
415.10 0.7655744
415.20 0.7222335
415.30 0.6803222
415.40 0.6398121
415.50 0.6023045
415.60 0.5696078
415.70 0.5430215
415.80 0.5235476
415.90 0.5127239
416.00 0.5146717
416.10 0.529447
416.20 0.5551826
416.30 0.5909891
416.40 0.6360225
416.50 0.6880598
416.60 0.7434568
416.70 0.7981595
416.80 0.8483738
416.90 0.8910699
417.00 0.9249261
417.10 0.9498988
417.20 0.9663067
417.30 0.9746474
417.40 0.9758563
417.50 0.9758563
417.60 0.9758563
417.70 0.9758563
417.80 0.9758563
417.90 0.9758563
418.00 0.9758563
418.10 0.9758563
418.20 0.9758563
418.30 0.9758563
418.40 0.9758563
418.50 0.9758563
418.60 0.9758563
418.70 0.9740109
418.80 0.9679212
418.90 0.9587538
419.00 0.947693
419.10 0.9361027
419.20 0.9251752
419.30 0.9157418
419.40 0.9086682
419.50 0.9050936
419.60 0.9050936
419.70 0.9050936
419.80 0.9050936
419.90 0.9050936
420.00 0.9050936
420.10 0.9050936
420.20 0.9050936
420.30 0.9050936
420.40 0.9050936
420.50 0.9050936
420.60 0.8977184
420.70 0.8775853
420.80 0.844211
420.90 0.7990956
421.00 0.7453712
421.10 0.6877367
421.20 0.6317945
421.30 0.5830163
421.40 0.5459045
421.50 0.5222621
421.60 0.5160173
421.70 0.5221272
421.80 0.5355505
421.90 0.552432
422.00 0.5706704
422.10 0.5882312
422.20 0.6051969
422.30 0.6220127
422.40 0.6390536
422.50 0.6571527
422.60 0.6769897
422.70 0.6948561
422.80 0.7084345
422.90 0.7165564
423.00 0.7181894
423.10 0.7181894
423.20 0.7181894
423.30 0.7181894
423.40 0.7181894
423.50 0.7181894
423.60 0.7181894
423.70 0.7181894
423.80 0.7181894
423.90 0.7181894
424.00 0.7181894
424.10 0.7181894
424.20 0.7181894
424.30 0.7181894
424.40 0.7181894
424.50 0.7248356
424.60 0.7397962
424.70 0.7643587
424.80 0.7985716
424.90 0.8413152
425.00 0.8905284
425.10 0.9430077
425.20 0.994704
425.30 1.041817
425.40 1.081203
425.50 1.110754
425.60 1.13067
425.70 1.143628
425.80 1.153593
425.90 1.163524
426.00 1.170983
426.10 1.17429
426.20 1.171384
426.30 1.160644
426.40 1.141298
426.50 1.114247
426.60 1.082288
426.70 1.049171
426.80 1.018934
426.90 0.9949022
427.00 0.9779238
427.10 0.9662618
427.20 0.957584
427.30 0.9511694
427.40 0.9499605
427.50 0.9499605
427.60 0.9499605
427.70 0.9499605
427.80 0.9499605
427.90 0.9517209
428.00 0.9548545
428.10 0.9574828
428.20 0.9574828
428.30 0.9574828
428.40 0.9574828
428.50 0.9574828
428.60 0.9574828
428.70 0.9574828
428.80 0.9574828
428.90 0.9574828
429.00 0.9574828
429.10 0.9574828
429.20 0.9575752
429.30 0.964913
429.40 0.9781842
429.50 0.9961289
429.60 1.01855
429.70 1.045673
429.80 1.077071
429.90 1.112498
430.00 1.152335
430.10 1.196252
430.20 1.242253
430.30 1.28718
430.40 1.327498
430.50 1.359662
430.60 1.381631
430.70 1.395391
430.80 1.406378
430.90 1.421266
431.00 1.443784
431.10 1.474899
431.20 1.513275
431.30 1.554241
431.40 1.590708
431.50 1.616491
431.60 1.622361
431.70 1.611956
431.80 1.5981
431.90 1.581219
432.00 1.561397
432.10 1.539332
432.20 1.515731
432.30 1.491302
432.40 1.467021
432.50 1.443766
432.60 1.422567
432.70 1.404701
432.80 1.391123
432.90 1.383001
433.00 1.381368
433.10 1.381368
433.20 1.381368
433.30 1.381368
433.40 1.381368
433.50 1.381368
433.60 1.381368
433.70 1.381368
433.80 1.381368
433.90 1.381368
434.00 1.381368
434.10 1.381368
434.20 1.381368
434.30 1.381368
434.40 1.381399
434.50 1.374962
434.60 1.360001
434.70 1.335439
434.80 1.301505
434.90 1.259873
435.00 1.211542
435.10 1.159062
435.20 1.107366
435.30 1.060252
435.40 1.020866
435.50 0.9913161
435.60 0.9713994
435.70 0.9584417
435.80 0.9484765
435.90 0.9372968
436.00 0.9227242
436.10 0.9077185
436.20 0.891575
436.30 0.8743207
436.40 0.8571566
436.50 0.8418959
436.60 0.8304626
436.70 0.8241589
436.80 0.8232026
436.90 0.8270099
437.00 0.8339594
437.10 0.8421823
437.20 0.8500849
437.30 0.8550541
437.40 0.8550541
437.50 0.8550541
437.60 0.8550541
437.70 0.8550541
437.80 0.8550541
437.90 0.8532937
438.00 0.8501602
438.10 0.8475319
438.20 0.8501688
438.30 0.854469
438.40 0.8587987
438.50 0.8626932
438.60 0.8666405
438.70 0.8714217
438.80 0.8773059
438.90 0.8837273
439.00 0.8896819
439.10 0.8939473
439.20 0.8955134
439.30 0.8881756
439.40 0.8749044
439.50 0.8569597
439.60 0.8345384
439.70 0.8074161
439.80 0.7760178
439.90 0.7460385
440.00 0.717415
440.10 0.6888581
440.20 0.6600982
440.30 0.6315574
440.40 0.6044259
440.50 0.5811771
440.60 0.5636308
440.70 0.5511692
440.80 0.5401823
440.90 0.5252944
441.00 0.5027766
441.10 0.4716613
441.20 0.4332856
441.30 0.392319
441.40 0.3558522
441.50 0.3300696
441.60 0.3185255
441.70 0.3185255
441.80 0.3185255
441.90 0.3185255
442.00 0.3185255
442.10 0.3185255
442.20 0.3185255
442.30 0.3185255
442.40 0.3185255
442.50 0.3185255
442.60 0.3185255
442.70 0.3185255
442.80 0.3185255
442.90 0.3185255
443.00 0.3185255
443.10 0.3185255
443.20 0.3185255
443.30 0.3185255
443.40 0.3185255
443.50 0.3185255
443.60 0.3185255
443.70 0.3221525
443.80 0.3333259
443.90 0.3522732
444.00 0.3792677
444.10 0.4135854
444.20 0.4535501
444.30 0.4980678
444.40 0.5460339
444.50 0.5954538
444.60 0.6445666
444.70 0.690358
444.80 0.7287847
444.90 0.7562891
445.00 0.7730907
445.10 0.7807347
445.20 0.7807347
445.30 0.7807347
445.40 0.7807347
445.50 0.7807347
445.60 0.7807347
445.70 0.7807347
445.80 0.7807347
445.90 0.7807347
446.00 0.7802235
446.10 0.7758878
446.20 0.7692016
446.30 0.7613893
446.40 0.7528666
446.50 0.7431405
446.60 0.7311358
446.70 0.7158541
446.80 0.6968331
446.90 0.6743616
447.00 0.6505342
447.10 0.6290008
447.20 0.613368
447.30 0.6152046
447.40 0.6374975
447.50 0.6730779
447.60 0.7192138
447.70 0.7717563
447.80 0.8258775
447.90 0.8767028
448.00 0.9200879
448.10 0.9535058
448.20 0.9738708
448.30 0.9831883
448.40 0.9853916
448.50 0.9836716
448.60 0.9797243
448.70 0.9749431
448.80 0.9690589
448.90 0.9626375
449.00 0.9569318
449.10 0.9551843
449.20 0.9583959
449.30 0.9649005
449.40 0.971844
449.50 0.9776704
449.60 0.9805724
449.70 0.9805724
449.80 0.9805724
449.90 0.9751243
450.00 0.9639107
450.10 0.9485506
450.20 0.9330803
450.30 0.9238635
450.40 0.9225984
450.50 0.9286018
450.60 0.9397146
450.70 0.9533449
450.80 0.9655589
450.90 0.972522
451.00 0.972522
451.10 0.972522
451.20 0.972522
451.30 0.972522
451.40 0.972522
451.50 0.972522
451.60 0.972522
451.70 0.972522
451.80 0.972522
451.90 0.972522
452.00 0.972522
452.10 0.9733178
452.20 0.9755112
452.30 0.9775323
452.40 0.9788141
452.50 0.9793271
452.60 0.9793271
452.70 0.9794364
452.80 0.9804082
452.90 0.9828854
453.00 0.9874723
453.10 0.9947046
453.20 1.004938
453.30 1.018552
453.40 1.035685
453.50 1.055987
453.60 1.079084
453.70 1.100856
453.80 1.117227
453.90 1.127672
454.00 1.130214
454.10 1.123136
454.20 1.106162
454.30 1.079409
454.40 1.044061
454.50 1.003298
454.60 0.9621622
454.70 0.9260783
454.80 0.9000042
454.90 0.8867928
455.00 0.8858661
455.10 0.8945211
455.20 0.9085685
455.30 0.919429
455.40 0.9279306
455.50 0.9353171
455.60 0.9419209
455.70 0.9470491
455.80 0.9496732
455.90 0.9496732
456.00 0.9496732
456.10 0.9496732
456.20 0.9496732
456.30 0.9496732
456.40 0.9496732
456.50 0.9496732
456.60 0.9496732
456.70 0.9496732
456.80 0.9496732
456.90 0.9496732
457.00 0.9520799
457.10 0.9639955
457.20 0.9851825
457.30 1.005091
457.40 1.015649
457.50 1.01355
457.60 0.9980632
457.70 0.970544
457.80 0.9342943
457.90 0.893487
458.00 0.852244
458.10 0.8188261
458.20 0.7958241
458.30 0.7822065
458.40 0.7756734
458.50 0.773499
458.60 0.7779347
458.70 0.7908148
458.80 0.8121735
458.90 0.8412765
459.00 0.8755465
459.10 0.9103212
459.20 0.9427858
459.30 0.9704098
459.40 0.9913917
459.50 1.005346
459.60 1.013363
459.70 1.015415
459.80 1.015415
459.90 1.015415
460.00 1.015415
460.10 1.015415
460.20 1.013645
460.30 1.006475
460.40 0.9945532
460.50 0.9796351
460.60 0.9638939
460.70 0.9489655
460.80 0.9367515
460.90 0.9297884
461.00 0.9297884
461.10 0.9297884
461.20 0.9297884
461.30 0.9297884
461.40 0.9297884
461.50 0.9297884
461.60 0.931078
461.70 0.9346243
461.80 0.9394951
461.90 0.9445547
462.00 0.9485315
462.10 0.9497278
462.20 0.9475344
462.30 0.9455132
462.40 0.9442314
462.50 0.9437185
462.60 0.9437185
462.70 0.9436091
462.80 0.9426374
462.90 0.9401602
463.00 0.9355733
463.10 0.9315975
463.20 0.928382
463.30 0.9256758
463.40 0.9232252
463.50 0.9206848
463.60 0.9172391
463.70 0.9119058
463.80 0.9030159
463.90 0.8888813
464.00 0.8693826
464.10 0.8453822
464.20 0.8223924
464.30 0.8046274
464.40 0.791978
464.50 0.7831123
464.60 0.7751351
464.70 0.7667504
464.80 0.7654179
464.90 0.7703653
465.00 0.7805793
465.10 0.7945483
465.20 0.8106213
465.30 0.8272659
465.40 0.8424885
465.50 0.8551145
465.60 0.8662843
465.70 0.8783356
465.80 0.8933376
465.90 0.9119138
466.00 0.9310345
466.10 0.9494469
466.20 0.9657568
466.30 0.9789114
466.40 0.9880061
466.50 0.9923611
466.60 0.9923611
466.70 0.9923611
466.80 0.9923611
466.90 0.9923611
467.00 0.9899544
467.10 0.9780389
467.20 0.9568519
467.30 0.9282116
467.40 0.8953606
467.50 0.8618787
467.60 0.8312301
467.70 0.8070569
467.80 0.7934701
467.90 0.7918554
468.00 0.8029507
468.10 0.8211605
468.20 0.8435507
468.30 0.8678782
468.40 0.8912765
468.50 0.9113508
468.60 0.9215816
468.70 0.9162861
468.80 0.8952518
468.90 0.8661487
469.00 0.8316299
469.10 0.7943373
469.20 0.7570026
469.30 0.7228739
469.40 0.6958193
469.50 0.6824693
469.60 0.6842465
469.70 0.7021555
469.80 0.7287522
469.90 0.7593874
470.00 0.7906789
470.10 0.819132
470.20 0.8416746
470.30 0.8566732
470.40 0.8648916
470.50 0.8689191
470.60 0.8713502
470.70 0.874491
470.80 0.8810237
470.90 0.8936456
471.00 0.913107
471.10 0.9376112
471.20 0.9644366
471.30 0.9911499
471.40 1.016035
471.50 1.037846
471.60 1.054112
471.70 1.062347
471.80 1.061506
471.90 1.056446
472.00 1.052469
472.10 1.050477
472.20 1.050477
472.30 1.050477
472.40 1.050477
472.50 1.050477
472.60 1.050477
472.70 1.050477
472.80 1.050477
472.90 1.050477
473.00 1.050477
473.10 1.047221
473.20 1.040203
473.30 1.029295
473.40 1.014613
473.50 0.9968514
473.60 0.9771997
473.70 0.9571342
473.80 0.9384799
473.90 0.9238612
474.00 0.9154612
474.10 0.9136964
474.20 0.9139256
474.30 0.9139256
474.40 0.9139256
474.50 0.9139256
474.60 0.9139256
474.70 0.9126026
474.80 0.9013033
474.90 0.8809508
475.00 0.8539808
475.10 0.8237127
475.20 0.7935923
475.30 0.7660873
475.40 0.7423631
475.50 0.7223505
475.60 0.7045769
475.70 0.6873974
475.80 0.6697713
475.90 0.6511951
476.00 0.6320744
476.10 0.613662
476.20 0.6015489
476.30 0.5979109
476.40 0.6041417
476.50 0.6212011
476.60 0.6483602
476.70 0.6800012
476.80 0.7137753
476.90 0.7461525
477.00 0.7730357
477.10 0.7916886
477.20 0.8015226
477.30 0.8037711
477.40 0.8037711
477.50 0.8037711
477.60 0.8037711
477.70 0.8029209
477.80 0.7986363
477.90 0.7902329
478.00 0.7769955
478.10 0.759404
478.20 0.744686
478.30 0.7366854
478.40 0.7385214
478.50 0.7507284
478.60 0.7718158
478.70 0.7988472
478.80 0.8278039
478.90 0.8496113
479.00 0.8640991
479.10 0.8726309
479.20 0.8773633
479.30 0.8807941
479.40 0.8837059
479.50 0.882018
479.60 0.8749157
479.70 0.8611428
479.80 0.8415724
479.90 0.8195567
480.00 0.7990145
480.10 0.7838444
480.20 0.7772897
480.30 0.780207
480.40 0.790401
480.50 0.8040521
480.60 0.8175314
480.70 0.8277805
480.80 0.8324639
480.90 0.8303058
481.00 0.8224122
481.10 0.8123879
481.20 0.8047749
481.30 0.8045396
481.40 0.816293
481.50 0.8428941
481.60 0.8847212
481.70 0.9402891
481.80 1.006984
481.90 1.075721
482.00 1.137643
482.10 1.18903
482.20 1.227553
482.30 1.253154
482.40 1.268352
482.50 1.277065
482.60 1.282346
482.70 1.28507
482.80 1.28507
482.90 1.28507
483.00 1.28507
483.10 1.28507
483.20 1.28507
483.30 1.28507
483.40 1.28507
483.50 1.28507
483.60 1.28507
483.70 1.28507
483.80 1.28507
483.90 1.284731
484.00 1.285703
484.10 1.288432
484.20 1.293229
484.30 1.298509
484.40 1.303331
484.50 1.306744
484.60 1.307827
484.70 1.307827
484.80 1.307827
484.90 1.307827
485.00 1.307827
485.10 1.307827
485.20 1.307827
485.30 1.307827
485.40 1.307827
485.50 1.307827
485.60 1.307827
485.70 1.307827
485.80 1.307827
485.90 1.307827
486.00 1.307827
486.10 1.307827
486.20 1.30363
486.30 1.294113
486.40 1.278788
486.50 1.257373
486.60 1.230214
486.70 1.198573
486.80 1.164799
486.90 1.132422
487.00 1.105539
487.10 1.086886
487.20 1.077052
487.30 1.074803
487.40 1.074803
487.50 1.074803
487.60 1.074803
487.70 1.074803
487.80 1.074803
487.90 1.074803
488.00 1.074803
488.10 1.074185
488.20 1.066513
488.30 1.050186
488.40 1.024952
488.50 0.9926703
488.60 0.9569164
488.70 0.9264548
488.80 0.9062932
488.90 0.8963761
489.00 0.8943805
489.10 0.8975402
489.20 0.9030273
489.30 0.9080832
489.40 0.9113901
489.50 0.9130098
489.60 0.9135787
489.70 0.9145021
489.80 0.9177326
489.90 0.9238763
490.00 0.9321974
490.10 0.9414874
490.20 0.9506806
490.30 0.9592362
490.40 0.9666771
490.50 0.9720704
490.60 0.9738389
490.70 0.9695958
490.80 0.9583796
490.90 0.9479159
491.00 0.9363482
491.10 0.9218682
491.20 0.9026558
491.30 0.8761778
491.40 0.8395396
491.50 0.7911267
491.60 0.7317445
491.70 0.6643951
491.80 0.5936713
491.90 0.5249343
492.00 0.4630118
492.10 0.4116246
492.20 0.3731021
492.30 0.3475013
492.40 0.3323033
492.50 0.32359
492.60 0.3202279
492.70 0.3235446
492.80 0.3332794
492.90 0.3465971
493.00 0.3635628
493.10 0.3834313
493.20 0.4048419
493.30 0.4259323
493.40 0.4450985
493.50 0.4623275
493.60 0.4788595
493.70 0.4958898
493.80 0.5135354
493.90 0.5314061
494.00 0.5473591
494.10 0.5611431
494.20 0.5720313
494.30 0.579103
494.40 0.5821113
494.50 0.5817622
494.60 0.5806793
494.70 0.5806793
494.80 0.5806793
494.90 0.5806793
495.00 0.5806793
495.10 0.5812245
495.20 0.5841471
495.30 0.5887312
495.40 0.5931816
495.50 0.5959592
495.60 0.5960334
495.70 0.5960334
495.80 0.5960334
495.90 0.5960334
496.00 0.5960334
496.10 0.5960334
496.20 0.5960334
496.30 0.5960334
496.40 0.5963731
496.50 0.6002979
496.60 0.6070029
496.70 0.6157392
496.80 0.6263532
496.90 0.6389019
497.00 0.6535734
497.10 0.6709927
497.20 0.69181
497.30 0.7160505
497.40 0.7432419
497.50 0.7725579
497.60 0.8027728
497.70 0.8326938
497.80 0.8612586
497.90 0.8876869
498.00 0.9112149
498.10 0.9309144
498.20 0.9462586
498.30 0.9570816
498.40 0.9632902
498.50 0.9646332
498.60 0.9646332
498.70 0.9604788
498.80 0.9513594
498.90 0.939469
499.00 0.9269769
499.10 0.9152853
499.20 0.9115145
499.30 0.9183243
499.40 0.9345963
499.50 0.9571828
499.60 0.9816867
499.70 1.002674
499.80 1.014309
499.90 1.013353
500.00 1
500.10 0.977427
500.20 0.952246
500.30 0.9257745
500.40 0.8999212
500.50 0.8768493
500.60 0.8591704
500.70 0.8500236
500.80 0.8500236
500.90 0.8500236
501.00 0.8500236
501.10 0.8500236
501.20 0.8500236
501.30 0.8500236
501.40 0.8526333
501.50 0.8619996
501.60 0.8786427
501.70 0.9022661
501.80 0.931557
501.90 0.9644826
502.00 0.9989911
502.10 1.033305
502.20 1.06548
502.30 1.093477
502.40 1.115409
502.50 1.130054
502.60 1.135321
502.70 1.12956
502.80 1.119825
502.90 1.106508
503.00 1.089542
503.10 1.069674
503.20 1.048263
503.30 1.027173
503.40 1.008006
503.50 0.9907773
503.60 0.9742454
503.70 0.9572151
503.80 0.9395695
503.90 0.9213988
504.00 0.9039877
504.10 0.8892945
504.20 0.8774671
504.30 0.8684372
504.40 0.8615596
504.50 0.8584964
504.60 0.8584964
504.70 0.8584964
504.80 0.8584964
504.90 0.8584964
505.00 0.8584964
505.10 0.8579512
505.20 0.8550286
505.30 0.8504445
505.40 0.8470254
505.50 0.8478832
505.60 0.8555979
505.70 0.8685902
505.80 0.8869005
505.90 0.9100581
506.00 0.9374135
506.10 0.9679048
506.20 0.9999348
506.30 1.031742
506.40 1.06139
506.50 1.084742
506.60 1.102567
506.70 1.116059
506.80 1.12572
506.90 1.131437
507.00 1.133138
507.10 1.13095
507.20 1.124945
507.30 1.115248
507.40 1.101447
507.50 1.082666
507.60 1.058507
507.70 1.029717
507.80 1.001152
507.90 0.9747241
508.00 0.9511961
508.10 0.9314967
508.20 0.9161525
508.30 0.9053295
508.40 0.8991209
508.50 0.8977778
508.60 0.8977778
508.70 0.8977778
508.80 0.8977778
508.90 0.8977778
509.00 0.904724
509.10 0.9218307
509.20 0.9426822
509.30 0.9632881
509.40 0.9811094
509.50 0.9943318
509.60 1.002789
509.70 1.007657
509.80 1.010504
509.90 1.01234
510.00 1.013706
510.10 1.013885
510.20 1.013885
510.30 1.013885
510.40 1.013885
510.50 1.013885
510.60 1.013885
510.70 1.014359
510.80 1.017391
510.90 1.022667
511.00 1.02949
511.10 1.03723
511.20 1.045533
511.30 1.054433
511.40 1.061217
511.50 1.061305
511.60 1.054123
511.70 1.040198
511.80 1.021147
511.90 0.9996753
512.00 0.9788205
512.10 0.96048
512.20 0.9462608
512.30 0.9384638
512.40 0.9390334
512.50 0.9486368
512.60 0.9660628
512.70 0.9891811
512.80 1.010804
512.90 1.030509
513.00 1.047452
513.10 1.060643
513.20 1.069566
513.30 1.074267
513.40 1.075746
513.50 1.075853
513.60 1.075853
513.70 1.075853
513.80 1.075853
513.90 1.075853
514.00 1.074701
514.10 1.071407
514.20 1.067572
514.30 1.066631
514.40 1.070309
514.50 1.076699
514.60 1.084165
514.70 1.091664
514.80 1.097566
514.90 1.1006
515.00 1.100894
515.10 1.100894
515.20 1.100894
515.30 1.100894
515.40 1.100849
515.50 1.099101
515.60 1.092908
515.70 1.080427
515.80 1.062117
515.90 1.039187
516.00 1.013433
516.10 0.9865925
516.20 0.9605455
516.30 0.9368417
516.40 0.9161381
516.50 0.8974781
516.60 0.8787951
516.70 0.8580802
516.80 0.8378053
516.90 0.8195397
517.00 0.8031668
517.10 0.7879359
517.20 0.7731232
517.30 0.7585798
517.40 0.7451901
517.50 0.7346551
517.60 0.7285993
517.70 0.7274675
517.80 0.7274675
517.90 0.7274675
518.00 0.7274675
518.10 0.7274675
518.20 0.7274675
518.30 0.7274675
518.40 0.7274675
518.50 0.7274675
518.60 0.7274675
518.70 0.7299957
518.80 0.7365028
518.90 0.7464567
519.00 0.7518655
519.10 0.7479509
519.20 0.7324086
519.30 0.704644
519.40 0.6668034
519.50 0.6246321
519.60 0.5855079
519.70 0.5525421
519.80 0.5278032
519.90 0.5121589
520.00 0.5050755
520.10 0.504897
520.20 0.5056462
520.30 0.5091904
520.40 0.5145155
520.50 0.520291
520.60 0.525489
520.70 0.529243
520.80 0.5299843
520.90 0.5298581
521.00 0.5319809
521.10 0.5384502
521.20 0.549679
521.30 0.5650758
521.40 0.5837485
521.50 0.6041831
521.60 0.6233179
521.70 0.6378039
521.80 0.6456715
521.90 0.6462009
522.00 0.6397435
522.10 0.6283449
522.20 0.61443
522.30 0.5990376
522.40 0.5826127
522.50 0.5657143
522.60 0.5498455
522.70 0.5367123
522.80 0.526862
522.90 0.5206015
523.00 0.5195444
523.10 0.5257278
523.20 0.539769
523.30 0.5609391
523.40 0.5873238
523.50 0.616086
523.60 0.6456945
523.70 0.6760366
523.80 0.7064835
523.90 0.7361292
524.00 0.7634465
524.10 0.7862191
524.20 0.8020206
524.30 0.8074361
524.40 0.8028044
524.50 0.7964142
524.60 0.7889483
524.70 0.7814496
524.80 0.7755471
524.90 0.7725133
525.00 0.7722193
525.10 0.7724402
525.20 0.7776242
525.30 0.7859378
525.40 0.7953718
525.50 0.8061224
525.60 0.8201782
525.70 0.8391952
525.80 0.8628836
525.90 0.8897594
526.00 0.9169253
526.10 0.9412014
526.20 0.9593435
526.30 0.9685793
526.40 0.9678619
526.50 0.9592447
526.60 0.9533974
526.70 0.9518841
526.80 0.9518841
526.90 0.9518841
527.00 0.9518841
527.10 0.9518841
527.20 0.95286
527.30 0.957612
527.40 0.964526
527.50 0.9717518
527.60 0.977608
527.70 0.980294
527.80 0.980294
527.90 0.980294
528.00 0.980294
528.10 0.980294
528.20 0.980294
528.30 0.980294
528.40 0.980294
528.50 0.980294
528.60 0.980294
528.70 0.9777658
528.80 0.9712586
528.90 0.9613047
529.00 0.9489497
529.10 0.9357577
529.20 0.9239998
529.30 0.9158622
529.40 0.91252
529.50 0.91252
529.60 0.91252
529.70 0.91252
529.80 0.91252
529.90 0.91252
530.00 0.91252
530.10 0.91252
530.20 0.9127071
530.30 0.9128574
530.40 0.9135374
530.50 0.9155381
530.60 0.9193252
530.70 0.9251424
530.80 0.9327259
530.90 0.9405525
531.00 0.9461003
531.10 0.9474248
531.20 0.943588
531.30 0.9339859
531.40 0.9185915
531.50 0.8984165
531.60 0.8756527
531.70 0.8536503
531.80 0.8361749
531.90 0.8261967
532.00 0.8249423
532.10 0.8318615
532.20 0.8447518
532.30 0.860252
532.40 0.8750021
532.50 0.8859822
532.60 0.8903895
532.70 0.8869275
532.80 0.8767814
532.90 0.8633365
533.00 0.8498472
533.10 0.838672
533.20 0.8308776
533.30 0.826386
533.40 0.8242913
533.50 0.823058
533.60 0.8201892
533.70 0.8136747
533.80 0.8029673
533.90 0.7884517
534.00 0.7717071
534.10 0.7552527
534.20 0.7413274
534.30 0.733531
534.40 0.733531
534.50 0.733531
534.60 0.733531
534.70 0.733531
534.80 0.733531
534.90 0.733531
535.00 0.733531
535.10 0.7333101
535.20 0.7299329
535.30 0.7276467
535.40 0.7269696
535.50 0.7272635
535.60 0.727034
535.70 0.7245639
535.80 0.7185581
535.90 0.7084974
536.00 0.6948635
536.10 0.6792948
536.20 0.6642693
536.30 0.6522362
536.40 0.644174
536.50 0.644174
536.60 0.644174
536.70 0.644174
536.80 0.644174
536.90 0.644174
537.00 0.644174
537.10 0.644174
537.20 0.6431981
537.30 0.6384461
537.40 0.6315321
537.50 0.6243063
537.60 0.6217635
537.70 0.6312378
537.80 0.6506033
537.90 0.6755354
538.00 0.703889
538.10 0.7327677
538.20 0.7590562
538.30 0.7802358
538.40 0.7955545
538.50 0.8060967
538.60 0.8137919
538.70 0.8205317
538.80 0.8281482
538.90 0.8384067
539.00 0.8525587
539.10 0.8712255
539.20 0.8944033
539.30 0.9212246
539.40 0.9503059
539.50 0.980198
539.60 1.00954
539.70 1.037191
539.80 1.061922
539.90 1.08285
540.00 1.10025
540.10 1.11568
540.20 1.130378
540.30 1.144549
540.40 1.159772
540.50 1.176194
540.60 1.192973
540.70 1.208985
540.80 1.223292
540.90 1.23562
541.00 1.247014
541.10 1.259479
541.20 1.275548
541.30 1.298172
541.40 1.329056
541.50 1.367524
541.60 1.4113
541.70 1.456225
541.80 1.496471
541.90 1.5268
542.00 1.544072
542.10 1.547133
542.20 1.537679
542.30 1.520463
542.40 1.501262
542.50 1.485819
542.60 1.479064
542.70 1.483274
542.80 1.497475
542.90 1.517516
543.00 1.538238
543.10 1.5552
543.20 1.566281
543.30 1.571471
543.40 1.572018
543.50 1.569829
543.60 1.566614
543.70 1.563148
543.80 1.560068
543.90 1.558271
544.00 1.558402
544.10 1.56063
544.20 1.564862
544.30 1.569132
544.40 1.57177
544.50 1.573248
544.60 1.574116
544.70 1.574811
544.80 1.575659
544.90 1.576944
545.00 1.578948
545.10 1.581848
545.20 1.583325
545.30 1.579828
545.40 1.570771
545.50 1.557838
545.60 1.542417
545.70 1.525358
545.80 1.507676
545.90 1.490632
546.00 1.4755
546.10 1.463141
546.20 1.454041
546.30 1.448735
546.40 1.448231
546.50 1.448231
546.60 1.448231
546.70 1.448231
546.80 1.448231
546.90 1.448231
547.00 1.448231
547.10 1.448231
547.20 1.448231
547.30 1.448231
547.40 1.448231
547.50 1.450073
547.60 1.451122
547.70 1.445696
547.80 1.434665
547.90 1.41888
548.00 1.399746
548.10 1.379575
548.20 1.361238
548.30 1.34697
548.40 1.337372
548.50 1.331795
548.60 1.329652
548.70 1.330812
548.80 1.334595
548.90 1.33933
549.00 1.343021
549.10 1.343969
549.20 1.341163
549.30 1.334491
549.40 1.324566
549.50 1.312004
549.60 1.29692
549.70 1.279839
549.80 1.262416
549.90 1.246309
550.00 0.6317982
550.10 0.5688939
550.20 0.5032675
550.30 0.4368437
550.40 0.371054
550.50 0.3120413
550.60 0.2641351
550.70 0.2300681
550.80 0.2092567
550.90 0.1987898
551.00 0.1950783
551.10 0.1954837
551.20 0.199463
551.30 0.2060643
551.40 0.2137745
551.50 0.2224911
551.60 0.2342013
551.70 0.2522142
551.80 0.2785925
551.90 0.3128639
552.00 0.3524607
552.10 0.3942481
552.20 0.4369667
552.30 0.4810131
552.40 0.5271912
552.50 0.5705157
552.60 0.6061607
552.70 0.6325862
552.80 0.6508578
552.90 0.6629084
553.00 0.6699514
553.10 0.6729642
553.20 0.6749127
553.30 0.6796373
553.40 0.6894174
553.50 0.7051664
553.60 0.7263706
553.70 0.7506859
553.80 0.7746022
553.90 0.7962763
554.00 0.8168745
554.10 0.8387201
554.20 0.863741
554.30 0.8933795
554.40 0.928691
554.50 0.9648204
554.60 0.9983184
554.70 1.0276
554.80 1.053641
554.90 1.078082
555.00 1.10317
555.10 1.132338
555.20 1.176297
555.30 1.249005
555.40 1.349287
555.50 1.483081
555.60 1.671537
555.70 1.926656
555.80 2.247789
555.90 2.622788
556.00 3.029817
556.10 3.439579
556.20 3.820755
556.30 4.147413
556.40 4.403078
556.50 4.584415
556.60 4.697291
556.70 4.754669
556.80 4.786796
556.90 4.814426
557.00 4.837252
557.10 4.854278
557.20 4.864637
557.30 4.869296
557.40 4.871977
557.50 4.877716
557.60 4.891979
557.70 4.919768
557.80 4.966067
557.90 5.032831
558.00 5.115209
558.10 5.205452
558.20 5.29793
558.30 5.389575
558.40 5.478654
558.50 5.565439
558.60 5.650917
558.70 5.733324
558.80 5.807992
558.90 5.870234
559.00 5.916901
559.10 5.945456
559.20 5.945844
559.30 5.906007
559.40 5.830901
559.50 5.716866
559.60 5.54025
559.70 5.283734
559.80 4.944458
559.90 4.534981
560.00 4.083344
560.10 3.624545
560.20 3.19244
560.30 2.815409
560.40 2.511852
560.50 2.287191
560.60 2.138979
560.70 2.059737
560.80 2.018016
560.90 1.990057
561.00 1.974965
561.10 1.974788
561.20 1.989239
561.30 2.013042
561.40 2.038299
561.50 2.058186
561.60 2.06801
561.70 2.065229
561.80 2.047876
561.90 2.015209
562.00 1.970623
562.10 1.919289
562.20 1.865011
562.30 1.809506
562.40 1.750753
562.50 1.683282
562.60 1.602974
562.70 1.512012
562.80 1.418058
562.90 1.330746
563.00 1.259152
563.10 1.209622
563.20 1.185453
563.30 1.184945
563.40 1.199787
563.50 1.219817
563.60 1.237864
563.70 1.251421
563.80 1.262916
563.90 1.277807
564.00 1.298653
564.10 1.327136
564.20 1.365245
564.30 1.412339
564.40 1.465118
564.50 1.518613
564.60 1.568035
564.70 1.607602
564.80 1.638954
564.90 1.66704
565.00 1.69612
565.10 1.726528
565.20 1.755565
565.30 1.779579
565.40 1.795129
565.50 1.798512
565.60 1.786213
565.70 1.756909
565.80 1.71319
565.90 1.661996
566.00 1.614234
566.10 1.580693
566.20 1.566499
566.30 1.571212
566.40 1.594349
566.50 1.636421
566.60 1.695941
566.70 1.768192
566.80 1.84438
566.90 1.914098
567.00 1.968796
567.10 2.003786
567.20 2.01956
567.30 2.021327
567.40 2.017821
567.50 2.021198
567.60 2.046437
567.70 2.106566
567.80 2.20444
567.90 2.331971
568.00 2.47553
568.10 2.619627
568.20 2.7513
568.30 2.862221
568.40 2.948736
568.50 3.011796
568.60 3.055059
568.70 3.083386
568.80 3.100819
568.90 3.109077
569.00 3.108992
569.10 3.101462
569.20 3.089293
569.30 3.078447
569.40 3.074658
569.50 3.08092
569.60 3.097619
569.70 3.122315
569.80 3.149464
569.90 3.171055
570.00 3.177144
570.10 3.160789
570.20 3.121562
570.30 3.063623
570.40 2.991839
570.50 2.910374
570.60 2.823323
570.70 2.735768
570.80 2.657151
570.90 2.597954
571.00 2.564099
571.10 2.556075
571.20 2.569712
571.30 2.597717
571.40 2.63014
571.50 2.653069
571.60 2.650632
571.70 2.609004
571.80 2.522475
571.90 2.396172
572.00 2.242947
572.10 2.07883
572.20 1.916615
572.30 1.765339
572.40 1.631674
572.50 1.51924
572.60 1.428286
572.70 1.35583
572.80 1.298367
572.90 1.250893
573.00 1.211101
573.10 1.175858
573.20 1.142573
573.30 1.108182
573.40 1.070789
573.50 1.031404
573.60 0.9931689
573.70 0.9604732
573.80 0.9393722
573.90 0.935189
574.00 0.9492257
574.10 0.9777714
574.20 1.014066
574.30 1.051842
574.40 1.086902
574.50 1.11787
574.60 1.145365
574.70 1.169433
574.80 1.188562
574.90 1.200703
575.00 1.204675
575.10 1.202041
575.20 1.195377
575.30 1.18743
575.40 1.183455
575.50 1.190736
575.60 1.214488
575.70 1.255464
575.80 1.311359
575.90 1.376436
576.00 1.44256
576.10 1.50354
576.20 1.55658
576.30 1.601105
576.40 1.638995
576.50 1.67268
576.60 1.703307
576.70 1.731269
576.80 1.755162
576.90 1.774309
577.00 1.785663
577.10 1.788274
577.20 1.780121
577.30 1.768158
577.40 1.756072
577.50 1.744436
577.60 1.73298
577.70 1.720961
577.80 1.705769
577.90 1.683785
578.00 1.664433
578.10 1.651287
578.20 1.647117
578.30 1.652892
578.40 1.667236
578.50 1.687499
578.60 1.711746
578.70 1.738534
578.80 1.763883
578.90 1.783339
579.00 1.794251
579.10 1.793608
579.20 1.779757
579.30 1.754023
579.40 1.717164
579.50 1.667116
579.60 1.600359
579.70 1.51462
579.80 1.425529
579.90 1.341328
580.00 1.264023
580.10 1.19458
580.20 1.133973
580.30 1.082711
580.40 1.03919
580.50 1.001384
580.60 0.9687178
580.70 0.9407562
580.80 0.9168635
580.90 0.8971247
581.00 0.8817903
581.10 0.8855492
581.20 0.9152147
581.30 0.9617392
581.40 1.017689
581.50 1.07727
581.60 1.134853
581.70 1.186416
581.80 1.231005
581.90 1.272013
582.00 1.304328
582.10 1.329256
582.20 1.346013
582.30 1.351628
582.40 1.344261
582.50 1.324561
582.60 1.295553
582.70 1.262231
582.80 1.229319
582.90 1.199768
583.00 1.174142
583.10 1.151177
583.20 1.128717
583.30 1.103348
583.40 1.072764
583.50 1.039881
583.60 1.016317
583.70 1.01067
583.80 1.016394
583.90 1.038768
584.00 1.0842
584.10 1.155474
584.20 1.250524
584.30 1.361232
584.40 1.475108
584.50 1.577858
584.60 1.657879
584.70 1.710257
584.80 1.737763
584.90 1.748683
585.00 1.752942
585.10 1.746342
585.20 1.732101
585.30 1.715016
585.40 1.694757
585.50 1.666298
585.60 1.623971
585.70 1.572408
585.80 1.52782
585.90 1.486811
586.00 1.443095
586.10 1.391908
586.20 1.333226
586.30 1.271509
586.40 1.212481
586.50 1.160296
586.60 1.11552
586.70 1.075726
586.80 1.038998
586.90 1.004194
587.00 0.9708812
587.10 0.9401949
587.20 0.9137017
587.30 0.8933402
587.40 0.8815184
587.50 0.8786607
587.60 0.8896284
587.70 0.914651
587.80 0.9475712
587.90 0.9738067
588.00 0.9813852
588.10 0.9612597
588.20 0.9087286
588.30 0.8253581
588.40 0.7201653
588.50 0.6174152
588.60 0.5373944
588.70 0.485016
588.80 0.4575104
588.90 0.44659
589.00 0.4423316
589.10 0.4350645
589.20 0.417451
589.30 0.3996816
589.40 0.3862039
589.50 0.3844268
589.60 0.4008868
589.70 0.4307907
589.80 0.4562283
589.90 0.4766868
590.00 0.4936447
590.10 0.5100108
590.20 0.530248
590.30 0.5592391
590.40 0.6008808
590.50 0.6564448
590.60 0.7223797
590.70 0.7905576
590.80 0.8507727
590.90 0.8941066
591.00 0.9155716
591.10 0.9155716
591.20 0.9155716
591.30 0.9155716
591.40 0.9155716
591.50 0.9155716
591.60 0.9046039
591.70 0.8795813
591.80 0.840937
591.90 0.7923278
592.00 0.7393173
592.10 0.688169
592.20 0.6456498
592.30 0.618312
592.40 0.6096291
592.50 0.6096291
592.60 0.6096291
592.70 0.6096291
592.80 0.6096291
592.90 0.612063
593.00 0.6145831
593.10 0.6149812
593.20 0.6149812
593.30 0.6033112
593.40 0.5840028
593.50 0.562203
593.60 0.5422194
593.70 0.5265168
593.80 0.5143916
593.90 0.5021686
594.00 0.4854375
594.10 0.4690714
594.20 0.4488342
594.30 0.4198431
594.40 0.3782014
594.50 0.3268732
594.60 0.2752994
594.70 0.2268801
594.80 0.1860464
594.90 0.1563992
595.00 0.1397937
595.10 0.1397937
595.20 0.1397937
595.30 0.1397937
595.40 0.1508822
595.50 0.1767929
595.60 0.2160353
595.70 0.2639938
595.80 0.3145762
595.90 0.3615226
596.00 0.4010577
596.10 0.4328007
596.20 0.4584716
596.30 0.4806607
596.40 0.5012687
596.50 0.5216697
596.60 0.5431182
596.70 0.565503
596.80 0.5874308
596.90 0.6055801
597.00 0.6231665
597.10 0.6442786
597.20 0.6695483
597.30 0.7001522
597.40 0.7327177
597.50 0.7639649
597.60 0.7947769
597.70 0.8296166
597.80 0.8743768
597.90 0.9323585
598.00 1.001754
598.10 1.070017
598.20 1.134332
598.30 1.192863
598.40 1.243363
598.50 1.280573
598.60 1.300201
598.70 1.310707
598.80 1.323375
598.90 1.350175
599.00 1.398658
599.10 1.465737
599.20 1.545554
599.30 1.636523
599.40 1.725552
599.50 1.804465
599.60 1.86683
599.70 1.908072
599.80 1.926823
599.90 1.924428
600.00 2.784901
600.10 2.730533
600.20 2.572578
600.30 2.341257
600.40 2.019979
600.50 1.657847
600.60 1.359549
600.70 1.210579
600.80 1.281982
600.90 1.619477
601.00 2.13368
601.10 2.683157
601.20 3.192678
601.30 3.638793
601.40 4.004679
601.50 4.192964
601.60 4.064285
601.70 3.568008
601.80 2.773369
601.90 1.782057
602.00 0.6994217
602.10 0
602.20 0
602.30 0
602.40 0
602.50 0
602.60 0
602.70 0.1572632
602.80 1.011987
602.90 1.900955
603.00 2.738968
603.10 3.493008
603.20 4.093332
603.30 4.453126
603.40 4.522609
603.50 4.317661
603.60 3.889394
603.70 3.340341
603.80 2.866264
603.90 2.64926
604.00 2.768115
604.10 3.154481
604.20 3.67233
604.30 4.205917
604.40 4.599456
604.50 4.717124
604.60 4.538721
604.70 4.117635
604.80 3.527479
604.90 2.867309
605.00 2.273984
605.10 1.861663
605.20 1.633704
605.30 1.573185
605.40 1.663
605.50 1.845995
605.60 2.059574
605.70 2.285045
605.80 2.544818
605.90 2.822692
606.00 3.053943
606.10 3.171899
606.20 3.154537
606.30 3.010636
606.40 2.802074
606.50 2.66678
606.60 2.719941
606.70 2.96134
606.80 3.316112
606.90 3.693447
607.00 4.000268
607.10 4.167336
607.20 4.173739
607.30 4.050638
607.40 3.859909
607.50 3.652598
607.60 3.469364
607.70 3.344224
607.80 3.278949
607.90 3.236273
608.00 3.17243
608.10 3.037806
608.20 2.792572
608.30 2.46685
608.40 2.13303
608.50 1.814617
608.60 1.507582
608.70 1.247587
608.80 1.108864
608.90 1.165531
609.00 1.447328
609.10 1.932334
609.20 2.530788
609.30 3.090836
609.40 3.482857
609.50 3.725251
609.60 3.918748
609.70 4.112769
609.80 4.307245
609.90 4.52576
610.00 4.786348
610.10 5.056268
610.20 5.265411
610.30 5.358677
610.40 5.334142
610.50 5.177067
610.60 4.934643
610.70 4.739051
610.80 4.688285
610.90 4.749326
611.00 4.824298
611.10 4.853732
611.20 4.814337
611.30 4.700563
611.40 4.528022
611.50 4.300548
611.60 4.026427
611.70 3.742417
611.80 3.468281
611.90 3.266047
612.00 3.172839
612.10 3.152817
612.20 3.16374
612.30 3.176173
612.40 3.142766
612.50 3.005307
612.60 2.758789
612.70 2.454364
612.80 2.143488
612.90 1.883478
613.00 1.742579
613.10 1.762382
613.20 1.958437
613.30 2.262959
613.40 2.558557
613.50 2.767482
613.60 2.865745
613.70 2.890633
613.80 2.943586
613.90 3.11238
614.00 3.415189
614.10 3.808651
614.20 4.216552
614.30 4.537569
614.40 4.686202
614.50 4.633758
614.60 4.397245
614.70 4.082203
614.80 3.81573
614.90 3.662886
615.00 3.637808
615.10 3.722667
615.20 3.860155
615.30 3.974699
615.40 4.008718
615.50 3.939502
615.60 3.805085
615.70 3.698259
615.80 3.69689
615.90 3.824469
616.00 4.06675
616.10 4.356075
616.20 4.582486
616.30 4.66129
616.40 4.568819
616.50 4.341959
616.60 4.105302
616.70 3.963823
616.80 3.931856
616.90 4.013392
617.00 4.183705
617.10 4.372585
617.20 4.499261
617.30 4.48668
617.40 4.285999
617.50 3.89675
617.60 3.388355
617.70 2.870757
617.80 2.455246
617.90 2.21667
618.00 2.133171
618.10 2.175222
618.20 2.321879
618.30 2.498479
618.40 2.638884
618.50 2.701236
618.60 2.657195
618.70 2.511302
618.80 2.314256
618.90 2.14761
619.00 2.095016
619.10 2.20206
619.20 2.438187
619.30 2.716008
619.40 2.896317
619.50 2.900913
619.60 2.8053
619.70 2.743404
619.80 2.779636
619.90 2.908511
620.00 3.113827
620.10 3.370353
620.20 3.629128
620.30 3.82147
620.40 3.886071
620.50 3.782351
620.60 3.533714
620.70 3.220122
620.80 2.958221
620.90 2.814473
621.00 2.750512
621.10 2.67659
621.20 2.550402
621.30 2.403274
621.40 2.256782
621.50 2.096319
621.60 1.919916
621.70 1.755034
621.80 1.626459
621.90 1.563698
622.00 1.588918
622.10 1.688339
622.20 1.845439
622.30 2.067671
622.40 2.354348
622.50 2.69748
622.60 3.063228
622.70 3.381113
622.80 3.635283
622.90 3.882809
623.00 4.160341
623.10 4.467098
623.20 4.770174
623.30 5.020985
623.40 5.163388
623.50 5.157705
623.60 4.999893
623.70 4.701628
623.80 4.295762
623.90 3.827191
624.00 3.374448
624.10 3.041716
624.20 2.871638
624.30 2.844267
624.40 2.921742
624.50 3.045571
624.60 3.169276
624.70 3.265313
624.80 3.313455
624.90 3.30457
625.00 3.230896
625.10 3.104705
625.20 2.980875
625.30 2.909088
625.40 2.899477
625.50 2.959844
625.60 3.081265
625.70 3.218056
625.80 3.320338
625.90 3.358245
626.00 3.346231
626.10 3.335955
626.20 3.393527
626.30 3.53664
626.40 3.732702
626.50 3.924978
626.60 4.013382
626.70 3.936663
626.80 3.700436
626.90 3.337906
627.00 2.926805
627.10 2.577594
627.20 2.386595
627.30 2.419959
627.40 2.669499
627.50 3.036125
627.60 3.376242
627.70 3.594641
627.80 3.671545
627.90 3.620341
628.00 3.521143
628.10 3.485559
628.20 3.570776
628.30 3.787806
628.40 4.111865
628.50 4.492138
628.60 4.889286
628.70 5.24293
628.80 5.493346
628.90 5.636883
629.00 5.682731
629.10 5.634448
629.20 5.50807
629.30 5.344125
629.40 5.186522
629.50 5.045938
629.60 5.003901
629.70 5.178893
629.80 5.561971
629.90 6.067943
630.00 6.582013
630.10 6.99051
630.20 7.202503
630.30 7.15044
630.40 6.862796
630.50 6.438537
630.60 5.974847
630.70 5.549762
630.80 5.214309
630.90 5.032999
631.00 5.011097
631.10 5.058144
631.20 5.152394
631.30 5.291262
631.40 5.427956
631.50 5.52124
631.60 5.567809
631.70 5.592481
631.80 5.592285
631.90 5.548989
632.00 5.475111
632.10 5.433092
632.20 5.484791
632.30 5.625783
632.40 5.765525
632.50 5.79677
632.60 5.641114
632.70 5.284731
632.80 4.795877
632.90 4.293308
633.00 3.883518
633.10 3.626875
633.20 3.557246
633.30 3.711282
633.40 4.092762
633.50 4.615777
633.60 5.163077
633.70 5.666218
633.80 6.111804
633.90 6.51192
634.00 6.882909
634.10 7.216888
634.20 7.472784
634.30 7.619399
634.40 7.650705
634.50 7.582842
634.60 7.46745
634.70 7.329974
634.80 7.168465
634.90 6.980992
635.00 6.789291
635.10 6.606807
635.20 6.429769
635.30 6.249474
635.40 6.039072
635.50 5.806
635.60 5.585533
635.70 5.421677
635.80 5.396358
635.90 5.580876
636.00 5.976747
636.10 6.55663
636.20 7.299184
636.30 8.167539
636.40 9.02251
636.50 9.688705
636.60 10.03408
636.70 9.99801
636.80 9.621172
636.90 9.001865
637.00 8.281663
637.10 7.608194
637.20 7.055956
637.30 6.661352
637.40 6.479353
637.50 6.515168
637.60 6.673126
637.70 6.811268
637.80 6.831209
637.90 6.674704
638.00 6.348858
638.10 5.940245
638.20 5.550603
638.30 5.264925
638.40 5.157408
638.50 5.25707
638.60 5.543863
638.70 5.951108
638.80 6.355501
638.90 6.651014
639.00 6.805362
639.10 6.860725
639.20 6.896826
639.30 6.979731
639.40 7.102397
639.50 7.194677
639.60 7.191866
639.70 7.07712
639.80 6.866733
639.90 6.591563
640.00 6.291054
640.10 6.025156
640.20 5.868689
640.30 5.867265
640.40 6.01453
640.50 6.255036
640.60 6.503897
640.70 6.682439
640.80 6.777544
640.90 6.834524
641.00 6.892333
641.10 6.948399
641.20 6.973832
641.30 6.958384
641.40 6.906826
641.50 6.815059
641.60 6.671743
641.70 6.48661
641.80 6.29126
641.90 6.11095
642.00 5.97016
642.10 5.883452
642.20 5.849551
642.30 5.850448
642.40 5.858035
642.50 5.866761
642.60 5.890876
642.70 5.944827
642.80 6.072316
642.90 6.321981
643.00 6.685986
643.10 7.089009
643.20 7.438944
643.30 7.674001
643.40 7.761006
643.50 7.70373
643.60 7.49298
643.70 7.120393
643.80 6.643306
643.90 6.156611
644.00 5.769915
644.10 5.559875
644.20 5.538706
644.30 5.69291
644.40 5.99179
644.50 6.395846
644.60 6.846523
644.70 7.2688
644.80 7.62003
644.90 7.878827
645.00 8.064961
645.10 8.200434
645.20 8.263113
645.30 8.225906
645.40 8.047774
645.50 7.727467
645.60 7.328723
645.70 6.921752
645.80 6.595138
645.90 6.426973
646.00 6.438301
646.10 6.607722
646.20 6.870187
646.30 7.165014
646.40 7.433664
646.50 7.63584
646.60 7.765809
646.70 7.798673
646.80 7.759695
646.90 7.704513
647.00 7.633534
647.10 7.529642
647.20 7.376537
647.30 7.180022
647.40 6.990434
647.50 6.860257
647.60 6.816538
647.70 6.833039
647.80 6.867829
647.90 6.904789
648.00 6.938486
648.10 6.995287
648.20 7.056726
648.30 7.084337
648.40 7.10537
648.50 7.177554
648.60 7.350801
648.70 7.626859
648.80 7.945232
648.90 8.227401
649.00 8.406382
649.10 8.44716
649.20 8.366642
649.30 8.208462
649.40 8.084428
649.50 8.11602
649.60 8.359251
649.70 8.783919
649.80 9.277467
649.90 9.70569
650.00 9.96284
650.10 9.968949
650.20 9.701736
650.30 9.232111
650.40 8.703157
650.50 8.291876
650.60 8.11844
650.70 8.237087
650.80 8.592964
650.90 9.054419
651.00 9.490685
651.10 9.796678
651.20 9.925277
651.30 9.864425
651.40 9.625805
651.50 9.298802
651.60 9.01577
651.70 8.867732
651.80 8.866752
651.90 8.968862
652.00 9.140974
652.10 9.332842
652.20 9.482838
652.30 9.555338
652.40 9.550077
652.50 9.509305
652.60 9.493822
652.70 9.579571
652.80 9.821905
652.90 10.21051
653.00 10.6838
653.10 11.17068
653.20 11.62839
653.30 12.0099
653.40 12.28941
653.50 12.48908
653.60 12.61676
653.70 12.65179
653.80 12.59096
653.90 12.46132
654.00 12.26152
654.10 11.97653
654.20 11.65415
654.30 11.36237
654.40 11.13903
654.50 10.99646
654.60 10.91716
654.70 10.88215
654.80 10.86257
654.90 10.82693
655.00 10.78935
655.10 10.7926
655.20 10.84265
655.30 10.90202
655.40 10.97839
655.50 11.10166
655.60 11.24592
655.70 11.40115
655.80 11.62582
655.90 11.99931
656.00 12.55313
656.10 13.24383
656.20 13.96999
656.30 14.59949
656.40 15.01918
656.50 15.17225
656.60 15.08137
656.70 14.80096
656.80 14.36079
656.90 13.80755
657.00 13.22015
657.10 12.66684
657.20 12.20706
657.30 11.89186
657.40 11.76306
657.50 11.88257
657.60 12.27427
657.70 12.85459
657.80 13.47125
657.90 13.97536
658.00 14.25661
658.10 14.25856
658.20 14.00882
658.30 13.58512
658.40 13.08095
658.50 12.60984
658.60 12.24599
658.70 11.9941
658.80 11.83825
658.90 11.73929
659.00 11.64105
659.10 11.53285
659.20 11.41594
659.30 11.28694
659.40 11.18095
659.50 11.14574
659.60 11.19789
659.70 11.32264
659.80 11.52016
659.90 11.79359
660.00 12.12758
660.10 12.47142
660.20 12.729
660.30 12.8146
660.40 12.72459
660.50 12.51886
660.60 12.26956
660.70 12.0455
660.80 11.87177
660.90 11.75141
661.00 11.6738
661.10 11.63081
661.20 11.5996
661.30 11.54178
661.40 11.44482
661.50 11.34748
661.60 11.33671
661.70 11.47723
661.80 11.74226
661.90 12.03667
662.00 12.2656
662.10 12.3567
662.20 12.26901
662.30 12.02088
662.40 11.70547
662.50 11.42581
662.60 11.26472
662.70 11.27047
662.80 11.43016
662.90 11.68905
663.00 11.97266
663.10 12.21539
663.20 12.38638
663.30 12.495
663.40 12.57969
663.50 12.67511
663.60 12.82046
663.70 13.03992
663.80 13.30943
663.90 13.56461
664.00 13.73483
664.10 13.8073
664.20 13.80899
664.30 13.77667
664.40 13.75757
664.50 13.76959
664.60 13.78413
664.70 13.7492
664.80 13.63678
664.90 13.46227
665.00 13.24352
665.10 13.01743
665.20 12.85583
665.30 12.83281
665.40 12.98902
665.50 13.30042
665.60 13.70093
665.70 14.09968
665.80 14.41487
665.90 14.58856
666.00 14.59378
666.10 14.45161
666.20 14.21245
666.30 13.92777
666.40 13.65371
666.50 13.43921
666.60 13.3007
666.70 13.24995
666.80 13.31669
666.90 13.53428
667.00 13.92475
667.10 14.48634
667.20 15.12925
667.30 15.71781
667.40 16.16434
667.50 16.41694
667.60 16.45035
667.70 16.27742
667.80 15.94054
667.90 15.49444
668.00 15.02259
668.10 14.62621
668.20 14.36972
668.30 14.26488
668.40 14.29265
668.50 14.41409
668.60 14.58037
668.70 14.75381
668.80 14.88892
668.90 14.9702
669.00 15.02958
669.10 15.09618
669.20 15.19256
669.30 15.34827
669.40 15.56249
669.50 15.7826
669.60 15.95588
669.70 16.05014
669.80 16.02782
669.90 15.85607
670.00 15.54324
670.10 15.11284
670.20 14.61816
670.30 14.12475
670.40 13.65508
670.50 13.2343
670.60 12.89604
670.70 12.64507
670.80 12.49161
670.90 12.48626
671.00 12.64768
671.10 12.91847
671.20 13.22923
671.30 13.55241
671.40 13.87586
671.50 14.20122
671.60 14.53013
671.70 14.85062
671.80 15.16444
671.90 15.4582
672.00 15.72667
672.10 15.99869
672.20 16.28027
672.30 16.52096
672.40 16.6662
672.50 16.72647
672.60 16.75111
672.70 16.73961
672.80 16.68418
672.90 16.61035
673.00 16.53382
673.10 16.44508
673.20 16.32582
673.30 16.19256
673.40 16.07743
673.50 15.9849
673.60 15.90307
673.70 15.81505
673.80 15.7186
673.90 15.64235
674.00 15.61818
674.10 15.66551
674.20 15.8047
674.30 16.04835
674.40 16.40281
674.50 16.88393
674.60 17.46807
674.70 18.05919
674.80 18.5234
674.90 18.74048
675.00 18.66545
675.10 18.35033
675.20 17.88314
675.30 17.32161
675.40 16.72239
675.50 16.1774
675.60 15.75922
675.70 15.50068
675.80 15.41136
675.90 15.43093
676.00 15.47496
676.10 15.51268
676.20 15.54173
676.30 15.56922
676.40 15.59922
676.50 15.60766
676.60 15.56636
676.70 15.47033
676.80 15.35172
676.90 15.28116
677.00 15.3206
677.10 15.47339
677.20 15.67584
677.30 15.89
677.40 16.13286
677.50 16.43062
677.60 16.78113
677.70 17.13284
677.80 17.44456
677.90 17.72433
678.00 18.00277
678.10 18.29017
678.20 18.53094
678.30 18.62226
678.40 18.49799
678.50 18.1739
678.60 17.72782
678.70 17.24131
678.80 16.76145
678.90 16.3054
679.00 15.90619
679.10 15.62192
679.20 15.48279
679.30 15.50735
679.40 15.71216
679.50 16.05066
679.60 16.43076
679.70 16.76152
679.80 16.96294
679.90 16.99165
680.00 16.86533
680.10 16.63991
680.20 16.37736
680.30 16.12883
680.40 15.92714
680.50 15.78145
680.60 15.66403
680.70 15.50471
680.80 15.22337
680.90 14.83134
681.00 14.42599
681.10 14.11445
681.20 13.95782
681.30 13.95277
681.40 14.05026
681.50 14.20733
681.60 14.4009
681.70 14.58517
681.80 14.70384
681.90 14.71906
682.00 14.63683
682.10 14.48398
682.20 14.27751
682.30 14.02631
682.40 13.73991
682.50 13.39942
682.60 13.02024
682.70 12.70848
682.80 12.56287
682.90 12.58695
683.00 12.72727
683.10 12.93885
683.20 13.19736
683.30 13.48884
683.40 13.77646
683.50 14.01486
683.60 14.17919
683.70 14.25061
683.80 14.23261
683.90 14.22609
684.00 14.35846
684.10 14.64548
684.20 15.01376
684.30 15.37811
684.40 15.66311
684.50 15.82221
684.60 15.83669
684.70 15.70228
684.80 15.4326
684.90 15.07422
685.00 14.70299
685.10 14.40409
685.20 14.24708
685.30 14.23638
685.40 14.31996
685.50 14.45734
685.60 14.65985
685.70 14.94553
685.80 15.30314
685.90 15.69004
686.00 16.04432
686.10 16.31248
686.20 16.46345
686.30 16.48332
686.40 16.38942
686.50 16.25691
686.60 16.1479
686.70 16.07027
686.80 15.99599
686.90 15.88575
687.00 15.71427
687.10 15.47052
687.20 15.17625
687.30 14.8866
687.40 14.63917
687.50 14.43802
687.60 14.2759
687.70 14.1322
687.80 13.96828
687.90 13.71114
688.00 13.34028
688.10 12.93441
688.20 12.59619
688.30 12.39583
688.40 12.37298
688.50 12.52809
688.60 12.76939
688.70 12.93425
688.80 12.93733
688.90 12.82881
689.00 12.69556
689.10 12.60429
689.20 12.59098
689.30 12.68151
689.40 12.87149
689.50 13.09826
689.60 13.29538
689.70 13.40835
689.80 13.36679
689.90 13.1563
690.00 12.86676
690.10 12.63059
690.20 12.51528
690.30 12.49839
690.40 12.55068
690.50 12.66267
690.60 12.80967
690.70 12.96624
690.80 13.13046
690.90 13.29369
691.00 13.42673
691.10 13.499
691.20 13.48578
691.30 13.36069
691.40 13.12187
691.50 12.78794
691.60 12.4027
691.70 12.07574
691.80 11.90317
691.90 11.90858
692.00 12.07916
692.10 12.36711
692.20 12.70412
692.30 13.05081
692.40 13.40887
692.50 13.77307
692.60 14.12459
692.70 14.44393
692.80 14.70296
692.90 14.9004
693.00 15.04995
693.10 15.12851
693.20 15.1179
693.30 15.02357
693.40 14.89462
693.50 14.79604
693.60 14.74654
693.70 14.74222
693.80 14.76005
693.90 14.79882
694.00 14.88996
694.10 15.0661
694.20 15.37555
694.30 15.87721
694.40 16.62638
694.50 17.60116
694.60 18.67095
694.70 19.70737
694.80 20.59938
694.90 21.20478
695.00 21.39849
695.10 21.12862
695.20 20.44547
695.30 19.48334
695.40 18.39385
695.50 17.33155
695.60 16.42703
695.70 15.74824
695.80 15.25459
695.90 14.859
696.00 14.54745
696.10 14.32003
696.20 14.13277
696.30 13.99194
696.40 13.96792
696.50 14.15251
696.60 14.57652
696.70 15.16356
696.80 15.809
696.90 16.39073
697.00 16.79694
697.10 16.95931
697.20 16.89002
697.30 16.67942
697.40 16.42617
697.50 16.22285
697.60 16.15017
697.70 16.22217
697.80 16.39816
697.90 16.57972
698.00 16.67396
698.10 16.6698
698.20 16.60014
698.30 16.52681
698.40 16.50281
698.50 16.55932
698.60 16.71274
698.70 16.95468
698.80 17.24809
698.90 17.53619
699.00 17.77209
699.10 17.94737
699.20 18.07595
699.30 18.16371
699.40 18.17958
699.50 18.087
699.60 17.9034
699.70 17.66261
699.80 17.38726
699.90 17.11571
700.00 16.89884
700.10 16.77424
700.20 16.74861
700.30 16.80976
700.40 16.93967
700.50 17.13011
700.60 17.36701
700.70 17.60581
700.80 17.83857
700.90 18.09633
701.00 18.36183
701.10 18.61412
701.20 18.8743
701.30 19.16004
701.40 19.48191
701.50 19.84164
701.60 20.22678
701.70 20.61549
701.80 20.97588
701.90 21.25065
702.00 21.36616
702.10 21.30642
702.20 21.11085
702.30 20.81263
702.40 20.47218
702.50 20.1695
702.60 19.97202
702.70 19.93346
702.80 20.05109
702.90 20.30111
703.00 20.66568
703.10 21.09213
703.20 21.51544
703.30 21.90311
703.40 22.2602
703.50 22.61273
703.60 23.00257
703.70 23.45863
703.80 23.96181
703.90 24.48862
704.00 24.98445
704.10 25.34539
704.20 25.49848
704.30 25.42411
704.40 25.14314
704.50 24.72364
704.60 24.27072
704.70 23.91162
704.80 23.75583
704.90 23.81034
705.00 23.97532
705.10 24.14427
705.20 24.26433
705.30 24.28356
705.40 24.14258
705.50 23.82798
705.60 23.3728
705.70 22.82405
705.80 22.2496
705.90 21.73947
706.00 21.38835
706.10 21.24503
706.20 21.29138
706.30 21.50593
706.40 21.86277
706.50 22.31031
706.60 22.78344
706.70 23.21628
706.80 23.5844
706.90 23.89598
707.00 24.15733
707.10 24.3767
707.20 24.57174
707.30 24.78415
707.40 25.04344
707.50 25.32387
707.60 25.57391
707.70 25.75607
707.80 25.86343
707.90 25.8993
708.00 25.84509
708.10 25.69044
708.20 25.45661
708.30 25.18178
708.40 24.9074
708.50 24.64963
708.60 24.43037
708.70 24.2699
708.80 24.12933
708.90 23.96159
709.00 23.77442
709.10 23.60984
709.20 23.48907
709.30 23.38934
709.40 23.31115
709.50 23.29616
709.60 23.35089
709.70 23.44459
709.80 23.52434
709.90 23.58207
710.00 23.63134
710.10 23.65115
710.20 23.66779
710.30 23.72513
710.40 23.81277
710.50 23.89282
710.60 23.94421
710.70 23.98303
710.80 24.02242
710.90 24.04756
711.00 24.06491
711.10 24.09204
711.20 24.16544
711.30 24.3172
711.40 24.52598
711.50 24.73584
711.60 24.87507
711.70 24.90551
711.80 24.84588
711.90 24.74501
712.00 24.6442
712.10 24.57254
712.20 24.54624
712.30 24.55235
712.40 24.54473
712.50 24.50363
712.60 24.46256
712.70 24.46036
712.80 24.51774
712.90 24.64257
713.00 24.8318
713.10 25.04694
713.20 25.18677
713.30 25.15751
713.40 24.95496
713.50 24.63473
713.60 24.27684
713.70 23.96754
713.80 23.80541
713.90 23.85126
714.00 24.06695
714.10 24.34472
714.20 24.6169
714.30 24.90454
714.40 25.23148
714.50 25.61015
714.60 26.0891
714.70 26.67553
714.80 27.29482
714.90 27.84344
715.00 28.19989
715.10 28.263
715.20 27.97684
715.30 27.37667
715.40 26.60717
715.50 25.86378
715.60 25.30252
715.70 24.99607
715.80 24.95767
715.90 25.14728
716.00 25.48036
716.10 25.85962
716.20 26.20562
716.30 26.47139
716.40 26.65941
716.50 26.81934
716.60 27.01485
716.70 27.25161
716.80 27.4752
716.90 27.63611
717.00 27.69336
717.10 27.61134
717.20 27.37917
717.30 27.03987
717.40 26.679
717.50 26.3762
717.60 26.20338
717.70 26.20636
717.80 26.38611
717.90 26.69791
718.00 27.07533
718.10 27.48145
718.20 27.87422
718.30 28.19292
718.40 28.41234
718.50 28.54666
718.60 28.64694
718.70 28.7661
718.80 28.93352
718.90 29.17571
719.00 29.47168
719.10 29.76732
719.20 30.03293
719.30 30.24122
719.40 30.35098
719.50 30.30781
719.60 30.08861
719.70 29.73164
719.80 29.30327
719.90 28.86031
720.00 28.46884
720.10 28.20658
720.20 28.09418
720.30 28.09579
720.40 28.1776
720.50 28.31418
720.60 28.46793
720.70 28.6195
720.80 28.76632
720.90 28.90179
721.00 29.0342
721.10 29.16978
721.20 29.29844
721.30 29.42793
721.40 29.53593
721.50 29.55632
721.60 29.46974
721.70 29.33308
721.80 29.22053
721.90 29.19095
722.00 29.28836
722.10 29.51275
722.20 29.83796
722.30 30.26644
722.40 30.78882
722.50 31.33721
722.60 31.80878
722.70 32.0953
722.80 32.16385
722.90 32.06428
723.00 31.86987
723.10 31.63511
723.20 31.41146
723.30 31.27128
723.40 31.29509
723.50 31.60254
723.60 32.26219
723.70 33.13383
723.80 33.99102
723.90 34.66401
724.00 35.04755
724.10 35.11996
724.20 34.89367
724.30 34.44915
724.40 33.93623
724.50 33.5135
724.60 33.32198
724.70 33.42067
724.80 33.79174
724.90 34.31887
725.00 34.8663
725.10 35.4179
725.20 35.97641
725.30 36.49565
725.40 36.91606
725.50 37.16067
725.60 37.15521
725.70 36.82635
725.80 36.17993
725.90 35.34192
726.00 34.47432
726.10 33.74743
726.20 33.29051
726.30 33.1747
726.40 33.39094
726.50 33.83562
726.60 34.36729
726.70 34.83363
726.80 35.11287
726.90 35.20796
727.00 35.32538
727.10 35.80611
727.20 36.84579
727.30 38.29126
727.40 39.74786
727.50 40.85939
727.60 41.39306
727.70 41.20188
727.80 40.32326
727.90 38.97495
728.00 37.4637
728.10 36.1339
728.20 35.2833
728.30 35.0572
728.40 35.3667
728.50 35.88705
728.60 36.26536
728.70 36.36563
728.80 36.2617
728.90 36.03123
729.00 35.72233
729.10 35.41962
729.20 35.18892
729.30 35.05512
729.40 35.02633
729.50 35.08835
729.60 35.20921
729.70 35.36502
729.80 35.50617
729.90 35.5949
730.00 35.67743
730.10 35.83536
730.20 36.099
730.30 36.44819
730.40 36.82819
730.50 37.1739
730.60 37.42245
730.70 37.51932
730.80 37.43633
730.90 37.20479
731.00 36.97697
731.10 36.95882
731.20 37.28704
731.30 37.96892
731.40 38.87188
731.50 39.76298
731.60 40.43128
731.70 40.75518
731.80 40.71872
731.90 40.41067
732.00 39.97163
732.10 39.57258
732.20 39.36846
732.30 39.45624
732.40 39.83516
732.50 40.36196
732.60 40.8441
732.70 41.18502
732.80 41.35572
732.90 41.32691
733.00 41.0795
733.10 40.62169
733.20 40.01526
733.30 39.36609
733.40 38.78249
733.50 38.3669
733.60 38.18071
733.70 38.22114
733.80 38.41757
733.90 38.68434
734.00 38.98995
734.10 39.27419
734.20 39.44306
734.30 39.47535
734.40 39.40851
734.50 39.31466
734.60 39.26246
734.70 39.26235
734.80 39.30067
734.90 39.34449
735.00 39.37059
735.10 39.38255
735.20 39.36826
735.30 39.29015
735.40 39.1066
735.50 38.81489
735.60 38.45831
735.70 38.0946
735.80 37.81523
735.90 37.71377
736.00 37.84392
736.10 38.21912
736.20 38.80545
736.30 39.53872
736.40 40.35038
736.50 41.13564
736.60 41.73394
736.70 41.97474
736.80 41.75346
736.90 41.09663
737.00 40.15253
737.10 39.13796
737.20 38.25699
737.30 37.64041
737.40 37.33387
737.50 37.32572
737.60 37.59159
737.70 38.07344
737.80 38.65722
737.90 39.20559
738.00 39.59987
738.10 39.80851
738.20 39.86378
738.30 39.81403
738.40 39.71032
738.50 39.58272
738.60 39.45634
738.70 39.37811
738.80 39.38593
738.90 39.47383
739.00 39.57225
739.10 39.60896
739.20 39.54503
739.30 39.37472
739.40 39.16172
739.50 39.0143
739.60 39.02487
739.70 39.18182
739.80 39.35184
739.90 39.40105
740.00 39.27581
740.10 38.96973
740.20 38.48579
740.30 37.86647
740.40 37.21463
740.50 36.62729
740.60 36.17318
740.70 35.90978
740.80 35.87075
740.90 36.02181
741.00 36.27561
741.10 36.57441
741.20 36.92316
741.30 37.34318
741.40 37.83387
741.50 38.33139
741.60 38.71509
741.70 38.87527
741.80 38.73029
741.90 38.24069
742.00 37.45481
742.10 36.50271
742.20 35.53907
742.30 34.72748
742.40 34.2135
742.50 34.07426
742.60 34.30397
742.70 34.81235
742.80 35.42537
742.90 35.95947
743.00 36.32236
743.10 36.48729
743.20 36.4727
743.30 36.36863
743.40 36.25134
743.50 36.15261
743.60 36.12496
743.70 36.19547
743.80 36.32123
743.90 36.43458
744.00 36.49011
744.10 36.48408
744.20 36.42267
744.30 36.31904
744.40 36.2175
744.50 36.16961
744.60 36.21202
744.70 36.33342
744.80 36.48311
744.90 36.61653
745.00 36.68256
745.10 36.67426
745.20 36.6439
745.30 36.63257
745.40 36.65825
745.50 36.72704
745.60 36.83937
745.70 36.99212
745.80 37.17046
745.90 37.34784
746.00 37.46642
746.10 37.49034
746.20 37.5011
746.30 37.60638
746.40 37.83747
746.50 38.13456
746.60 38.38205
746.70 38.49834
746.80 38.45477
746.90 38.24617
747.00 37.86056
747.10 37.30772
747.20 36.63853
747.30 35.94891
747.40 35.39478
747.50 35.10816
747.60 35.10743
747.70 35.31072
747.80 35.60656
747.90 35.94026
748.00 36.30018
748.10 36.62534
748.20 36.83144
748.30 36.88298
748.40 36.81147
748.50 36.69465
748.60 36.6281
748.70 36.66928
748.80 36.79789
748.90 36.95222
749.00 37.07808
749.10 37.1556
749.20 37.17741
749.30 37.10721
749.40 36.91284
749.50 36.62635
749.60 36.32219
749.70 36.06045
749.80 35.86375
749.90 35.73078
750.00 35.65083
750.10 35.59992
750.20 35.57052
750.30 35.57807
750.40 35.62333
750.50 35.71449
750.60 35.88462
750.70 36.16087
750.80 36.5538
750.90 37.03768
751.00 37.52536
751.10 37.91219
751.20 38.16366
751.30 38.3163
751.40 38.38589
751.50 38.37313
751.60 38.28816
751.70 38.11133
751.80 37.85146
751.90 37.58006
752.00 37.38208
752.10 37.31206
752.20 37.44018
752.30 37.78812
752.40 38.27338
752.50 38.79127
752.60 39.22785
752.70 39.46156
752.80 39.42807
752.90 39.12701
753.00 38.58786
753.10 37.9175
753.20 37.22762
753.30 36.56018
753.40 35.93112
753.50 35.37594
753.60 34.88601
753.70 34.48065
753.80 34.26201
753.90 34.29862
754.00 34.58479
754.10 35.04283
754.20 35.54802
754.30 35.999
754.40 36.3571
754.50 36.61044
754.60 36.7568
754.70 36.81091
754.80 36.8085
754.90 36.78237
755.00 36.74593
755.10 36.70173
755.20 36.62052
755.30 36.47066
755.40 36.26788
755.50 36.06243
755.60 35.92108
755.70 35.8795
755.80 35.92201
755.90 36.01201
756.00 36.09836
756.10 36.10481
756.20 35.97086
756.30 35.68383
756.40 35.27275
756.50 34.79999
756.60 34.39628
756.70 34.19722
756.80 34.2519
756.90 34.53801
757.00 34.97378
757.10 35.46452
757.20 35.92518
757.30 36.26084
757.40 36.42009
757.50 36.42855
757.60 36.3357
757.70 36.19521
757.80 36.05721
757.90 35.94311
758.00 35.8361
758.10 35.69966
758.20 35.49908
758.30 35.23472
758.40 34.90672
758.50 34.4703
758.60 33.89649
758.70 33.21157
758.80 32.46783
758.90 31.73089
759.00 31.0381
759.10 30.42145
759.20 29.95102
759.30 29.67423
759.40 29.62808
759.50 29.8664
759.60 30.43396
759.70 31.27948
759.80 32.25567
759.90 33.21297
760.00 34.03882
760.10 34.54252
760.20 34.49605
760.30 33.83003
760.40 32.58372
760.50 30.85102
760.60 28.85453
760.70 26.92356
760.80 25.37596
760.90 24.44076
761.00 24.20462
761.10 24.60769
761.20 25.47348
761.30 26.54443
761.40 27.48164
761.50 28.04173
761.60 28.14318
761.70 27.72893
761.80 26.87342
761.90 25.79607
762.00 24.69559
762.10 23.72484
762.20 22.97288
762.30 22.4571
762.40 22.15812
762.50 22.06895
762.60 22.22537
762.70 22.60413
762.80 23.06184
762.90 23.39628
763.00 23.41159
763.10 22.97994
763.20 22.09392
763.30 20.8439
763.40 19.40968
763.50 18.01304
763.60 16.84758
763.70 16.07413
763.80 15.80084
763.90 15.96622
764.00 16.33959
764.10 16.65378
764.20 16.70321
764.30 16.41763
764.40 15.82507
764.50 14.97941
764.60 13.98462
764.70 13.00167
764.80 12.17051
764.90 11.59135
765.00 11.33351
765.10 11.35028
765.20 11.45133
765.30 11.44957
765.40 11.22015
765.50 10.71496
765.60 10.00572
765.70 9.195459
765.80 8.391161
765.90 7.721245
766.00 7.266692
766.10 7.034892
766.20 6.942032
766.30 6.87475
766.40 6.738722
766.50 6.463168
766.60 6.05282
766.70 5.586933
766.80 5.18476
766.90 4.94724
767.00 4.89821
767.10 4.995699
767.20 5.190508
767.30 5.462805
767.40 5.793942
767.50 6.146658
767.60 6.517482
767.70 6.917541
767.80 7.354725
767.90 7.843099
768.00 8.372753
768.10 8.904744
768.20 9.376324
768.30 9.72374
768.40 9.920428
768.50 9.98199
768.60 9.922009
768.70 9.724602
768.80 9.384724
768.90 8.925932
769.00 8.383919
769.10 7.810419
769.20 7.233956
769.30 6.638243
769.40 6.017317
769.50 5.377942
769.60 4.734141
769.70 4.120629
769.80 3.575126
769.90 3.143164
770.00 2.886539
770.10 2.860033
770.20 3.079448
770.30 3.529821
770.40 4.168786
770.50 4.910296
770.60 5.697484
770.70 6.55055
770.80 7.509113
770.90 8.559396
771.00 9.686203
771.10 10.93016
771.20 12.30013
771.30 13.64205
771.40 14.74878
771.50 15.55553
771.60 16.11981
771.70 16.55816
771.80 16.99761
771.90 17.52264
772.00 18.13159
772.10 18.76397
772.20 19.37367
772.30 19.98235
772.40 20.57379
772.50 21.01334
772.60 21.20038
772.70 21.20996
772.80 21.17145
772.90 21.16609
773.00 21.24469
773.10 21.38531
773.20 21.52611
773.30 21.65826
773.40 21.8376
773.50 22.14507
773.60 22.59776
773.70 23.1155
773.80 23.6309
773.90 24.12678
774.00 24.60708
774.10 25.0821
774.20 25.52855
774.30 25.89385
774.40 26.17494
774.50 26.44632
774.60 26.80822
774.70 27.28919
774.80 27.83823
774.90 28.34033
775.00 28.6754
775.10 28.82442
775.20 28.79659
775.30 28.58058
775.40 28.21741
775.50 27.82943
775.60 27.60256
775.70 27.69584
775.80 28.1177
775.90 28.74583
776.00 29.3968
776.10 29.91139
776.20 30.19591
776.30 30.23855
776.40 30.09332
776.50 29.8039
776.60 29.44843
776.70 29.20792
776.80 29.23142
776.90 29.53899
777.00 30.07293
777.10 30.70116
777.20 31.27303
777.30 31.68481
777.40 31.88633
777.50 31.88416
777.60 31.75273
777.70 31.6098
777.80 31.55621
777.90 31.65518
778.00 31.91692
778.10 32.26291
778.20 32.56749
778.30 32.72516
778.40 32.67245
778.50 32.39608
778.60 31.9413
778.70 31.44931
778.80 31.17161
778.90 31.3487
779.00 32.05116
779.10 33.15738
779.20 34.45503
779.30 35.63433
779.40 36.31724
779.50 36.20007
779.60 35.12543
779.70 33.11341
779.80 30.38445
779.90 27.40604
780.00 24.79921
780.10 23.08383
780.20 22.51163
780.30 23.12588
780.40 24.77603
780.50 27.10066
780.60 29.65789
780.70 32.08931
780.80 34.18399
780.90 35.83078
781.00 37.00805
781.10 37.78064
781.20 38.25873
781.30 38.5364
781.40 38.6805
781.50 38.77565
781.60 38.95461
781.70 39.23515
781.80 39.55653
781.90 39.93154
782.00 40.32611
782.10 40.64463
782.20 40.80404
782.30 40.80046
782.40 40.69605
782.50 40.57077
782.60 40.49906
782.70 40.49814
782.80 40.52806
782.90 40.52501
783.00 40.41273
783.10 40.17935
783.20 39.85606
783.30 39.41656
783.40 38.87808
783.50 38.37767
783.60 38.05873
783.70 37.94472
783.80 37.99206
783.90 38.21864
784.00 38.65175
784.10 39.24227
784.20 39.92495
784.30 40.65844
784.40 41.36857
784.50 41.97785
784.60 42.49335
784.70 43.00796
784.80 43.61047
784.90 44.27811
785.00 44.95706
785.10 45.59768
785.20 46.10426
785.30 46.37779
785.40 46.38682
785.50 46.15013
785.60 45.65813
785.70 44.96955
785.80 44.24041
785.90 43.60935
786.00 43.18268
786.10 43.02893
786.20 43.12922
786.30 43.41384
786.40 43.82751
786.50 44.35763
786.60 44.96407
786.70 45.49541
786.80 45.76663
786.90 45.69685
787.00 45.32815
787.10 44.71651
787.20 43.88943
787.30 42.94462
787.40 42.02973
787.50 41.29869
787.60 40.94232
787.70 41.15284
787.80 41.99089
787.90 43.31581
788.00 44.90353
788.10 46.49545
788.20 47.82196
788.30 48.71708
788.40 49.17939
788.50 49.25944
788.60 49.02848
788.70 48.60321
788.80 48.14173
788.90 47.79553
789.00 47.62726
789.10 47.60299
789.20 47.61538
789.30 47.58025
789.40 47.47705
789.50 47.33604
789.60 47.21699
789.70 47.14894
789.80 47.09412
789.90 46.99601
790.00 46.90237
790.10 46.95927
790.20 47.2312
790.30 47.68404
790.40 48.21745
790.50 48.6601
790.60 48.84811
790.70 48.78458
790.80 48.74158
790.90 49.0441
791.00 49.84126
791.10 51.03057
791.20 52.28105
791.30 53.30303
791.40 53.9213
791.50 54.01955
791.60 53.61955
791.70 52.83051
791.80 51.86612
791.90 51.08229
792.00 50.81399
792.10 51.13729
792.20 51.75348
792.30 52.22081
792.40 52.26105
792.50 51.86132
792.60 51.24903
792.70 50.69677
792.80 50.42906
792.90 50.56228
793.00 51.09279
793.10 51.96173
793.20 53.01138
793.30 53.96419
793.40 54.5731
793.50 54.71036
793.60 54.36701
793.70 53.68579
793.80 52.87508
793.90 52.11097
794.00 51.45148
794.10 50.82034
794.20 50.02915
794.30 48.83837
794.40 47.05696
794.50 44.67243
794.60 41.88238
794.70 39.02452
794.80 36.51996
794.90 34.79967
795.00 34.22428
795.10 34.92503
795.20 36.71635
795.30 39.22416
795.40 42.0905
795.50 44.95586
795.60 47.48243
795.70 49.5096
795.80 51.04329
795.90 52.18138
796.00 53.09931
796.10 54.04505
796.20 55.14932
796.30 56.33886
796.40 57.4251
796.50 58.21044
796.60 58.59196
796.70 58.53978
796.80 58.07045
796.90 57.30738
797.00 56.45218
797.10 55.66762
797.20 55.07459
797.30 54.75874
797.40 54.75162
797.50 54.97498
797.60 55.31597
797.70 55.73836
797.80 56.21957
797.90 56.68559
798.00 57.02408
798.10 57.14739
798.20 56.97977
798.30 56.45614
798.40 55.6064
798.50 54.58526
798.60 53.61344
798.70 52.89177
798.80 52.55182
798.90 52.6936
799.00 53.4202
799.10 54.76466
799.20 56.58072
799.30 58.58094
799.40 60.48501
799.50 62.04501
799.60 63.03981
799.70 63.3827
799.80 63.15257
799.90 62.51781
800.00 61.65949
800.10 60.79432
800.20 60.15036
800.30 59.8236
800.40 59.74903
800.50 59.78474
800.60 59.82433
800.70 59.83844
800.80 59.84598
800.90 59.92098
801.00 60.17004
801.10 60.6227
801.20 61.1853
801.30 61.71529
801.40 62.11097
801.50 62.29454
801.60 62.21231
801.70 61.87784
801.80 61.40657
801.90 60.96429
802.00 60.69181
802.10 60.73105
802.20 61.15255
802.30 61.91471
802.40 62.92487
802.50 64.07673
802.60 65.26148
802.70 66.38005
802.80 67.3473
802.90 68.07735
803.00 68.49964
803.10 68.58709
803.20 68.32675
803.30 67.74825
803.40 66.94144
803.50 65.99457
803.60 65.02944
803.70 64.18339
803.80 63.57632
803.90 63.30419
804.00 63.3987
804.10 63.82474
804.20 64.50166
804.30 65.32752
804.40 66.16814
804.50 66.95061
804.60 67.70677
804.70 68.43254
804.80 69.12054
804.90 69.77326
805.00 70.34952
805.10 70.81853
805.20 71.18186
805.30 71.47342
805.40 71.72387
805.50 71.96745
805.60 72.26614
805.70 72.79598
805.80 73.71159
805.90 74.88629
806.00 76.04225
806.10 76.95108
806.20 77.44402
806.30 77.47695
806.40 77.09079
806.50 76.33286
806.60 75.3094
806.70 74.20325
806.80 73.24794
806.90 72.66812
807.00 72.62008
807.10 73.04138
807.20 73.76558
807.30 74.75475
807.40 75.98537
807.50 77.3716
807.60 78.79374
807.70 80.06446
807.80 81.01421
807.90 81.62545
808.00 82.00085
808.10 82.263
808.20 82.51625
808.30 82.77835
808.40 82.97792
808.50 83.05611
808.60 83.01152
808.70 82.86908
808.80 82.66
808.90 82.45413
809.00 82.33983
809.10 82.39752
809.20 82.65916
809.30 83.03149
809.40 83.33643
809.50 83.37815
809.60 83.03798
809.70 82.36072
809.80 81.52031
809.90 80.71366
810.00 80.09087
810.10 79.73385
810.20 79.61742
810.30 79.65302
810.40 79.76957
810.50 79.95221
810.60 80.21964
810.70 80.60303
810.80 81.12282
810.90 81.77321
811.00 82.50458
811.10 83.22922
811.20 83.81095
811.30 84.11707
811.40 84.09086
811.50 83.76768
811.60 83.31665
811.70 82.9343
811.80 82.76259
811.90 82.88306
812.00 83.33688
812.10 84.10509
812.20 85.1108
812.30 86.28237
812.40 87.54954
812.50 88.81673
812.60 89.98343
812.70 90.94794
812.80 91.60488
812.90 91.91876
813.00 91.94372
813.10 91.78451
813.20 91.56517
813.30 91.41138
813.40 91.42144
813.50 91.66314
813.60 92.13096
813.70 92.71061
813.80 93.21555
813.90 93.48525
814.00 93.43556
814.10 93.06824
814.20 92.50102
814.30 91.86623
814.40 91.23062
814.50 90.67069
814.60 90.24996
814.70 89.94067
814.80 89.70385
814.90 89.5449
815.00 89.4876
815.10 89.54666
815.20 89.70496
815.30 89.94524
815.40 90.33484
815.50 90.96927
815.60 91.83198
815.70 92.83983
815.80 93.90782
815.90 94.93175
816.00 95.86022
816.10 96.69972
816.20 97.41347
816.30 97.96783
816.40 98.39286
816.50 98.77689
816.60 99.25334
816.70 99.88801
816.80 100.5931
816.90 101.1895
817.00 101.5573
817.10 101.6837
817.20 101.6109
817.30 101.3655
817.40 100.9213
817.50 100.2661
817.60 99.42144
817.70 98.32771
817.80 96.81488
817.90 94.68624
818.00 91.85375
818.10 88.45129
818.20 84.84642
818.30 81.60102
818.40 79.3214
818.50 78.44971
818.60 79.12095
818.70 81.12694
818.80 83.92926
818.90 86.77452
819.00 88.85273
819.10 89.47613
819.20 88.28996
819.30 85.45631
819.40 81.6432
819.50 77.77179
819.60 74.72942
819.70 73.14375
819.80 73.27692
819.90 74.98534
820.00 77.83553
820.10 81.31997
820.20 84.94746
820.30 88.28977
820.40 91.09208
820.50 93.34504
820.60 95.19375
820.70 96.70806
820.80 97.83846
820.90 98.55662
821.00 98.87642
821.10 98.85417
821.20 98.56134
821.30 98.14613
821.40 97.80478
821.50 97.63115
821.60 97.66161
821.70 97.91466
821.80 98.36579
821.90 98.92116
822.00 99.45626
822.10 99.96035
822.20 100.5136
822.30 101.1539
822.40 101.8928
822.50 102.752
822.60 103.7745
822.70 104.9227
822.80 106.0421
822.90 106.9787
823.00 107.6528
823.10 108.0239
823.20 108.0791
823.30 107.8952
823.40 107.6521
823.50 107.5003
823.60 107.4963
823.70 107.7029
823.80 108.1607
823.90 108.8052
824.00 109.4848
824.10 110.0735
824.20 110.5669
824.30 111.007
824.40 111.4019
824.50 111.8234
824.60 112.3564
824.70 112.9736
824.80 113.5758
824.90 114.0722
825.00 114.3619
825.10 114.2531
825.20 113.6115
825.30 112.4802
825.40 111.0344
825.50 109.5346
825.60 108.2191
825.70 107.2929
825.80 106.9379
825.90 107.1966
826.00 107.9802
826.10 109.13
826.20 110.4125
826.30 111.5505
826.40 112.3148
826.50 112.6026
826.60 112.4095
826.70 111.8322
826.80 111.0696
826.90 110.3558
827.00 109.9011
827.10 109.7701
827.20 109.8494
827.30 110.0496
827.40 110.3865
827.50 110.8835
827.60 111.5481
827.70 112.4835
827.80 113.8117
827.90 115.4466
828.00 117.1245
828.10 118.5154
828.20 119.3665
828.30 119.5798
828.40 119.1779
828.50 118.3074
828.60 117.087
828.70 115.5067
828.80 113.6293
828.90 111.6707
829.00 109.8395
829.10 108.1768
829.20 106.5944
829.30 105.1621
829.40 104.1401
829.50 103.7682
829.60 103.989
829.70 104.4579
829.80 104.8563
829.90 105.0047
830.00 104.9541
830.10 104.8688
830.20 104.777
830.30 104.6051
830.40 104.3161
830.50 104.0039
830.60 103.9128
830.70 104.2344
830.80 104.9546
830.90 105.896
831.00 106.9536
831.10 108.1454
831.20 109.4196
831.30 110.6296
831.40 111.5729
831.50 112.1327
831.60 112.3329
831.70 112.2659
831.80 112.0539
831.90 111.7602
832.00 111.3659
832.10 110.8926
832.20 110.3864
832.30 109.878
832.40 109.3791
832.50 108.8776
832.60 108.3331
832.70 107.7655
832.80 107.2795
832.90 106.9469
833.00 106.7827
833.10 106.7771
833.20 106.9303
833.30 107.2433
833.40 107.7322
833.50 108.3759
833.60 109.049
833.70 109.6383
833.80 110.2639
833.90 111.2091
834.00 112.7254
834.10 114.8624
834.20 117.4796
834.30 120.2987
834.40 122.922
834.50 124.9847
834.60 126.1885
834.70 126.3332
834.80 125.2898
834.90 123.1204
835.00 120.3341
835.10 117.7152
835.20 115.8338
835.30 114.8799
835.40 114.7442
835.50 115.1868
835.60 115.9485
835.70 116.7517
835.80 117.3647
835.90 117.628
836.00 117.5468
836.10 117.2825
836.20 117.1203
836.30 117.355
836.40 118.0426
836.50 119.0281
836.60 120.0666
836.70 120.9058
836.80 121.3836
836.90 121.4294
837.00 121.0088
837.10 120.1834
837.20 119.0873
837.30 117.897
837.40 116.8036
837.50 115.9618
837.60 115.5046
837.70 115.5277
837.80 116.0298
837.90 116.8836
838.00 117.8929
838.10 118.8455
838.20 119.5422
838.30 119.7681
838.40 119.4192
838.50 118.6086
838.60 117.5658
838.70 116.4714
838.80 115.4466
838.90 114.5935
839.00 113.9625
839.10 113.5401
839.20 113.3058
839.30 113.2779
839.40 113.5455
839.50 114.2434
839.60 115.5558
839.70 117.676
839.80 120.4516
839.90 123.3677
840.00 125.9359
840.10 127.8425
840.20 128.946
840.30 129.2481
840.40 128.836
840.50 127.844
840.60 126.4661
840.70 124.9452
840.80 123.5233
840.90 122.3792
841.00 121.5622
841.10 121.0479
841.20 120.9408
841.30 121.3275
841.40 122.059
841.50 122.9405
841.60 123.8076
841.70 124.4748
841.80 124.7396
841.90 124.5053
842.00 123.9064
842.10 123.2467
842.20 122.8398
842.30 123.0057
842.40 123.9698
842.50 125.7487
842.60 128.2193
842.70 131.1276
842.80 134.134
842.90 136.78
843.00 138.5014
843.10 138.8389
843.20 137.6384
843.30 135.0878
843.40 131.5736
843.50 127.573
843.60 123.5238
843.70 119.7526
843.80 116.5171
843.90 113.9653
844.00 112.0502
844.10 110.6515
844.20 109.6801
844.30 109.047
844.40 108.6542
844.50 108.4238
844.60 108.3826
844.70 108.6171
844.80 109.1439
844.90 109.8457
845.00 110.5293
845.10 110.9621
845.20 110.9532
845.30 110.4222
845.40 109.3721
845.50 107.8697
845.60 106.0622
845.70 104.2306
845.80 102.7553
845.90 101.9555
846.00 101.995
846.10 102.8373
846.20 104.2575
846.30 105.9323
846.40 107.5351
846.50 108.797
846.60 109.4906
846.70 109.4401
846.80 108.6215
846.90 107.1969
847.00 105.3719
847.10 103.3161
847.20 101.2114
847.30 99.31751
847.40 97.85738
847.50 96.91194
847.60 96.44414
847.70 96.31116
847.80 96.33218
847.90 96.35636
848.00 96.29894
848.10 96.1515
848.20 96.00655
848.30 95.99235
848.40 96.18948
848.50 96.60452
848.60 97.15633
848.70 97.75876
848.80 98.38904
848.90 99.00439
849.00 99.53221
849.10 100.0406
849.20 100.6855
849.30 101.4422
849.40 102.109
849.50 102.5295
849.60 102.6004
849.70 102.2925
849.80 101.7377
849.90 101.2997
850.00 101.4834
850.10 102.585
850.20 104.4926
850.30 106.8221
850.40 109.1332
850.50 110.9642
850.60 111.9021
850.70 111.7647
850.80 110.6204
850.90 108.7381
851.00 106.5466
851.10 104.4552
851.20 102.7652
851.30 101.5776
851.40 100.7299
851.50 99.89419
851.60 98.69078
851.70 96.82304
851.80 94.14764
851.90 90.7082
852.00 86.80896
852.10 83.00337
852.20 80.00025
852.30 78.47879
852.40 78.82476
852.50 81.02582
852.60 84.7275
852.70 89.28337
852.80 93.91265
852.90 98.00078
853.00 101.2062
853.10 103.4011
853.20 104.7228
853.30 105.5367
853.40 106.1881
853.50 106.8763
853.60 107.64
853.70 108.3384
853.80 108.8003
853.90 108.994
854.00 108.9299
854.10 108.6315
854.20 108.2625
854.30 108.0766
854.40 108.2996
854.50 109.1152
854.60 110.6296
854.70 112.7479
854.80 115.1918
854.90 117.5898
855.00 119.5259
855.10 120.6417
855.20 120.7273
855.30 119.7957
855.40 118.1285
855.50 116.1308
855.60 114.092
855.70 112.119
855.80 110.3124
855.90 108.8322
856.00 107.7184
856.10 106.9113
856.20 106.4369
856.30 106.4001
856.40 106.8427
856.50 107.6674
856.60 108.6655
856.70 109.5637
856.80 110.1662
856.90 110.4358
857.00 110.464
857.10 110.4224
857.20 110.4176
857.30 110.4623
857.40 110.5912
857.50 110.8187
857.60 111.0523
857.70 111.1902
857.80 111.2928
857.90 111.5354
858.00 112.0366
858.10 112.8667
858.20 114.0151
858.30 115.3556
858.40 116.712
858.50 117.8863
858.60 118.68
858.70 118.9444
858.80 118.6325
858.90 117.8191
859.00 116.6526
859.10 115.387
859.20 114.355
859.30 113.8806
859.40 114.2363
859.50 115.5262
859.60 117.4775
859.70 119.563
859.80 121.3376
859.90 122.4722
860.00 122.798
860.10 122.3524
860.20 121.3461
860.30 120.0996
860.40 118.9173
860.50 117.9409
860.60 117.0842
860.70 116.1012
860.80 114.7204
860.90 112.7353
861.00 110.1375
861.10 107.0396
861.20 103.4435
861.30 99.39793
861.40 95.17344
861.50 91.17054
861.60 87.72831
861.70 85.00904
861.80 83.04093
861.90 81.78952
862.00 81.1435
862.10 80.92346
862.20 80.9256
862.30 80.96166
862.40 80.92951
862.50 80.84789
862.60 80.81045
862.70 80.88787
862.80 80.99265
862.90 80.97261
863.00 80.76537
863.10 80.44133
863.20 80.18884
863.30 80.12163
863.40 80.23186
863.50 80.49077
863.60 80.86746
863.70 81.26894
863.80 81.54132
863.90 81.63983
864.00 81.72175
864.10 81.92931
864.20 82.28351
864.30 82.72113
864.40 83.10548
864.50 83.35011
864.60 83.45819
864.70 83.5501
864.80 83.8583
864.90 84.60435
865.00 85.94283
865.10 87.91375
865.20 90.40629
865.30 93.00952
865.40 95.12617
865.50 96.38482
865.60 96.8528
865.70 96.86703
865.80 96.77201
865.90 96.78343
866.00 97.0203
866.10 97.57084
866.20 98.40195
866.30 99.34555
866.40 100.1355
866.50 100.5634
866.60 100.5955
866.70 100.4004
866.80 100.1435
866.90 99.82536
867.00 99.30455
867.10 98.47051
867.20 97.48168
867.30 96.62339
867.40 96.1101
867.50 96.08755
867.60 96.63627
867.70 97.67328
867.80 98.9346
867.90 100.0123
868.00 100.489
868.10 100.1436
868.20 99.05752
868.30 97.57223
868.40 96.14225
868.50 95.09555
868.60 94.46282
868.70 94.08337
868.80 93.66322
868.90 92.79966
869.00 91.13138
869.10 88.49268
869.20 84.99368
869.30 81.07707
869.40 77.353
869.50 74.33445
869.60 72.3516
869.70 71.50896
869.80 71.70208
869.90 72.67991
870.00 74.08682
870.10 75.55492
870.20 76.83959
870.30 77.774
870.40 78.2593
870.50 78.31581
870.60 78.02339
870.70 77.3875
870.80 76.32224
870.90 74.81452
871.00 73.00729
871.10 71.20461
871.20 69.77124
871.30 68.94202
871.40 68.75516
871.50 69.14677
871.60 69.98439
871.70 71.00711
871.80 71.8693
871.90 72.32838
872.00 72.35062
872.10 72.04268
872.20 71.65744
872.30 71.55299
872.40 72.07167
872.50 73.32998
872.60 75.1449
872.70 77.20512
872.80 79.19327
872.90 80.82415
873.00 81.89652
873.10 82.3903
873.20 82.37723
873.30 81.94804
873.40 81.26058
873.50 80.56142
873.60 80.10531
873.70 80.03678
873.80 80.37047
873.90 81.15232
874.00 82.45315
874.10 84.20107
874.20 86.1375
874.30 87.90202
874.40 89.17491
874.50 89.70279
874.60 89.42743
874.70 88.53072
874.80 87.29433
874.90 86.06928
875.00 85.22814
875.10 85.00926
875.20 85.40116
875.30 86.26118
875.40 87.48761
875.50 89.08462
875.60 91.18866
875.70 93.81184
875.80 96.66427
875.90 99.41296
876.00 101.7834
876.10 103.4516
876.20 104.1043
876.30 103.7057
876.40 102.5645
876.50 101.266
876.60 100.5486
876.70 100.9368
876.80 102.5706
876.90 105.2667
877.00 108.6103
877.10 112.0971
877.20 115.2509
877.30 117.7172
877.40 119.4519
877.50 120.5927
877.60 121.0322
877.70 120.521
877.80 118.9733
877.90 116.4469
878.00 113.1479
878.10 109.425
878.20 105.7082
878.30 102.4233
878.40 99.82271
878.50 98.06419
878.60 97.39388
878.70 97.95212
878.80 99.50687
878.90 101.6154
879.00 104.0216
879.10 106.539
879.20 108.9156
879.30 110.8811
879.40 112.1516
879.50 112.5505
879.60 111.9968
879.70 110.511
879.80 108.2756
879.90 105.582
880.00 102.6982
880.10 99.8631
880.20 97.2784
880.30 95.12331
880.40 93.63269
880.50 92.95058
880.60 92.98036
880.70 93.57603
880.80 94.68335
880.90 96.31276
881.00 98.51917
881.10 101.3603
881.20 104.8554
881.30 108.9347
881.40 113.3803
881.50 117.8689
881.60 122.0536
881.70 125.6125
881.80 128.227
881.90 129.535
882.00 129.3754
882.10 127.9682
882.20 125.8044
882.30 123.5659
882.40 121.9126
882.50 121.3794
882.60 122.3621
882.70 124.8524
882.80 128.3503
882.90 131.9566
883.00 134.7066
883.10 135.8994
883.20 135.3841
883.30 133.8649
883.40 132.3114
883.50 131.3401
883.60 131.2662
883.70 132.0853
883.80 133.5729
883.90 135.206
884.00 136.1175
884.10 135.5141
884.20 132.9727
884.30 128.6281
884.40 123.1114
884.50 117.3505
884.60 112.2963
884.70 108.6413
884.80 106.9274
884.90 107.546
885.00 110.4938
885.10 115.2311
885.20 120.7644
885.30 125.928
885.40 129.6844
885.50 131.4107
885.60 131.0202
885.70 128.818
885.80 125.3419
885.90 121.3142
886.00 117.5649
886.10 114.7357
886.20 113.1448
886.30 112.875
886.40 113.751
886.50 115.3807
886.60 117.2196
886.70 118.6051
886.80 118.8943
886.90 117.6802
887.00 114.9393
887.10 111.0975
887.20 106.9778
887.30 103.5381
887.40 101.5837
887.50 101.6046
887.60 103.7081
887.70 107.5212
887.80 112.2135
887.90 116.869
888.00 120.8707
888.10 123.9217
888.20 126.0698
888.30 127.6433
888.40 129.1285
888.50 131.0045
888.60 133.5241
888.70 136.5746
888.80 139.6112
888.90 141.8676
889.00 142.63
889.10 141.4148
889.20 138.0874
889.30 132.8681
889.40 126.253
889.50 119.143
889.60 112.7494
889.70 108.1641
889.80 106.143
889.90 106.9091
890.00 110.0208
890.10 114.6442
890.20 119.9139
890.30 125.0333
890.40 129.1856
890.50 131.6852
890.60 132.2528
890.70 130.998
890.80 128.3909
890.90 125.1773
891.00 122.1858
891.10 120.1837
891.20 119.48
891.30 119.9978
891.40 121.6542
891.50 124.3763
891.60 127.9533
891.70 132.0184
891.80 136.1915
891.90 140.0902
892.00 143.2941
892.10 145.4066
892.20 146.1402
892.30 145.3916
892.40 143.1836
892.50 139.6322
892.60 135.2264
892.70 130.7821
892.80 127.1599
892.90 125.051
893.00 124.8582
893.10 126.6058
893.20 129.8493
893.30 133.7768
893.40 137.4697
893.50 140.0987
893.60 141.007
893.70 139.7323
893.80 136.2092
893.90 130.9423
894.00 124.7639
894.10 118.5147
894.20 112.8858
894.30 108.4811
894.40 105.7943
894.50 104.9003
894.60 105.4947
894.70 107.1947
894.80 109.5745
894.90 112.1994
895.00 114.7656
895.10 117.2841
895.20 120.0156
895.30 123.351
895.40 127.6994
895.50 133.1572
895.60 139.319
895.70 145.36
895.80 150.3443
895.90 153.5928
896.00 154.808
896.10 153.8806
896.20 150.8736
896.30 146.2474
896.40 140.8358
896.50 135.5665
896.60 131.1949
896.70 128.1021
896.80 126.3547
896.90 125.9246
897.00 126.7238
897.10 128.5178
897.20 130.9175
897.30 133.5055
897.40 135.8338
897.50 137.5521
897.60 138.6007
897.70 139.068
897.80 139.0435
897.90 138.7087
898.00 138.3479
898.10 138.2627
898.20 138.7451
898.30 140.0726
898.40 142.4778
898.50 145.9243
898.60 149.9042
898.70 153.6683
898.80 156.4946
898.90 157.9509
899.00 157.9916
899.10 156.8136
899.20 154.7551
899.30 152.0977
899.40 149.1084
899.50 146.1389
899.60 143.3871
899.70 141.003
899.80 139.2608
899.90 138.5117
900.00 139.4003
900.10 140.289
900.20 141.1777
900.30 142.0664
900.40 142.9551
900.50 143.8438
900.60 144.7324
900.70 145.6211
900.80 146.5098
900.90 147.3985
901.00 148.2872
901.10 149.1759
901.20 150.0645
901.30 150.9532
901.40 151.8419
901.50 152.7306
901.60 153.6193
901.70 154.5079
901.80 155.3966
901.90 156.2853
902.00 157.174
902.10 158.0627
902.20 158.9514
902.30 159.84
902.40 160.7287
902.50 161.6174
902.60 162.5061
902.70 163.3948
902.80 164.2835
902.90 165.1721
903.00 166.0608
903.10 166.9495
903.20 167.1273
903.30 167.298
903.40 167.4686
903.50 167.6392
903.60 167.8098
903.70 167.9805
903.80 168.1511
903.90 168.3217
904.00 168.4924
904.10 168.663
904.20 168.8336
904.30 169.0043
904.40 169.1749
904.50 169.3455
904.60 169.5162
904.70 169.6868
904.80 169.8574
904.90 170.028
905.00 170.1987
905.10 170.3693
905.20 170.5399
905.30 170.7106
905.40 170.8812
905.50 171.0518
905.60 171.2225
905.70 171.3931
905.80 171.5637
905.90 171.7344
906.00 171.905
906.10 172.0756
906.20 172.2462
906.30 172.4169
906.40 172.5875
906.50 172.7581
906.60 172.9982
906.70 173.268
906.80 173.5378
906.90 173.8075
907.00 174.0773
907.10 174.3471
907.20 174.6169
907.30 174.8867
907.40 175.1565
907.50 175.4263
907.60 175.696
907.70 175.9658
907.80 176.2356
907.90 176.5054
908.00 176.7752
908.10 177.045
908.20 177.3148
908.30 177.5845
908.40 177.8543
908.50 178.1241
908.60 178.3939
908.70 178.6637
908.80 178.9335
908.90 179.2033
909.00 179.4731
909.10 179.7428
909.20 180.0126
909.30 180.2824
909.40 180.5522
909.50 180.822
909.60 181.0918
909.70 181.3616
909.80 181.6313
909.90 181.9011
910.00 182.1468
910.10 182.3118
910.20 182.4767
910.30 182.6417
910.40 182.8067
910.50 182.9717
910.60 183.1366
910.70 183.3016
910.80 183.4666
910.90 183.6315
911.00 183.7965
911.10 183.9615
911.20 184.1264
911.30 184.2914
911.40 184.4564
911.50 184.6213
911.60 184.7863
911.70 184.9513
911.80 185.1163
911.90 185.2812
912.00 185.4462
912.10 185.6112
912.20 185.7761
912.30 185.9411
912.40 186.1061
912.50 186.271
912.60 186.436
912.70 186.601
912.80 186.7659
912.90 186.9309
913.00 187.0959
913.10 187.2609
913.20 187.4258
913.30 187.5908
913.40 187.7558
913.50 188.0358
913.60 188.4026
913.70 188.7694
913.80 189.1362
913.90 189.503
914.00 189.8698
914.10 190.2366
914.20 190.6034
914.30 190.9702
914.40 191.337
914.50 191.7038
914.60 192.0706
914.70 192.4374
914.80 192.8042
914.90 193.171
915.00 193.5378
915.10 193.9046
915.20 194.2714
915.30 194.6382
915.40 195.005
915.50 195.3718
915.60 195.7386
915.70 196.1054
915.80 196.4722
915.90 196.839
916.00 197.2058
916.10 197.5726
916.20 197.9394
916.30 198.3062
916.40 198.673
916.50 199.0398
916.60 199.4066
916.70 199.7733
916.80 200.1401
916.90 200.5069
917.00 200.7453
917.10 200.9384
917.20 201.1316
917.30 201.3248
917.40 201.5179
917.50 201.7111
917.60 201.9043
917.70 202.0974
917.80 202.2906
917.90 202.4837
918.00 202.6769
918.10 202.8701
918.20 203.0632
918.30 203.2564
918.40 203.4496
918.50 203.6427
918.60 203.8359
918.70 204.0291
918.80 204.2222
918.90 204.4154
919.00 204.6086
919.10 204.8017
919.20 204.9949
919.30 205.1881
919.40 205.3812
919.50 205.5744
919.60 205.7676
919.70 205.9607
919.80 206.1539
919.90 206.3471
920.00 206.5402
920.10 206.7334
920.20 206.9266
920.30 207.1197
920.40 207.3129
920.50 207.5548
920.60 207.8139
920.70 208.073
920.80 208.332
920.90 208.5911
921.00 208.8501
921.10 209.1092
921.20 209.3683
921.30 209.6273
921.40 209.8864
921.50 210.1455
921.60 210.4045
921.70 210.6636
921.80 210.9227
921.90 211.1817
922.00 211.4408
922.10 211.6998
922.20 211.9589
922.30 212.218
922.40 212.477
922.50 212.7361
922.60 212.9952
922.70 213.2542
922.80 213.5133
922.90 213.7724
923.00 214.0314
923.10 214.2905
923.20 214.5495
923.30 214.8086
923.40 215.0677
923.50 215.3267
923.60 215.5858
923.70 215.8449
923.80 216.1039
923.90 216.363
924.00 216.3394
924.10 216.0936
924.20 215.8478
924.30 215.6021
924.40 215.3563
924.50 215.1106
924.60 214.8648
924.70 214.6191
924.80 214.3733
924.90 214.1276
925.00 213.8818
925.10 213.636
925.20 213.3903
925.30 213.1445
925.40 212.8988
925.50 212.653
925.60 212.4073
925.70 212.1615
925.80 211.9157
925.90 211.67
926.00 211.4242
926.10 211.1785
926.20 210.9327
926.30 210.687
926.40 210.4412
926.50 210.1954
926.60 209.9497
926.70 209.7039
926.80 209.4582
926.90 209.2124
927.00 208.9667
927.10 208.7209
927.20 208.4751
927.30 208.2294
927.40 207.9836
927.50 207.7347
927.60 207.4732
927.70 207.2117
927.80 206.9502
927.90 206.6887
928.00 206.4272
928.10 206.1657
928.20 205.9042
928.30 205.6427
928.40 205.3813
928.50 205.1198
928.60 204.8583
928.70 204.5968
928.80 204.3353
928.90 204.0738
929.00 203.8123
929.10 203.5508
929.20 203.2893
929.30 203.0278
929.40 202.7663
929.50 202.5048
929.60 202.2433
929.70 201.9818
929.80 201.7203
929.90 201.4588
930.00 201.1973
930.10 200.9358
930.20 200.6743
930.30 200.4128
930.40 200.1513
930.50 199.8898
930.60 199.6283
930.70 199.3668
930.80 199.1053
930.90 198.8438
931.00 198.5823
931.10 198.8321
931.20 199.3338
931.30 199.8354
931.40 200.337
931.50 200.8387
931.60 201.3403
931.70 201.8419
931.80 202.3436
931.90 202.8452
932.00 203.3469
932.10 203.8485
932.20 204.3501
932.30 204.8518
932.40 205.3534
932.50 205.8551
932.60 206.3567
932.70 206.8583
932.80 207.36
932.90 207.8616
933.00 208.3632
933.10 208.8649
933.20 209.3665
933.30 209.8682
933.40 210.3698
933.50 210.8714
933.60 211.3731
933.70 211.8747
933.80 212.3764
933.90 212.878
934.00 213.3796
934.10 213.8813
934.20 214.3829
934.30 214.8846
934.40 215.3862
934.50 215.8878
934.60 216.3895
934.70 216.7588
934.80 217.124
934.90 217.4892
935.00 217.8544
935.10 218.2196
935.20 218.5848
935.30 218.95
935.40 219.3152
935.50 219.6804
935.60 220.0457
935.70 220.4109
935.80 220.7761
935.90 221.1413
936.00 221.5065
936.10 221.8717
936.20 222.2369
936.30 222.6021
936.40 222.9673
936.50 223.3325
936.60 223.6977
936.70 224.063
936.80 224.4282
936.90 224.7934
937.00 225.1586
937.10 225.5238
937.20 225.889
937.30 226.2542
937.40 226.6194
937.50 226.9846
937.60 227.3498
937.70 227.7151
937.80 228.0803
937.90 228.4455
938.00 228.8107
938.10 229.1759
938.20 229.5024
938.30 229.4811
938.40 229.4598
938.50 229.4385
938.60 229.4172
938.70 229.3958
938.80 229.3745
938.90 229.3532
939.00 229.3319
939.10 229.3105
939.20 229.2892
939.30 229.2679
939.40 229.2466
939.50 229.2253
939.60 229.2039
939.70 229.1826
939.80 229.1613
939.90 229.14
940.00 229.1186
940.10 229.0973
940.20 229.076
940.30 229.0547
940.40 229.0333
940.50 229.012
940.60 228.9907
940.70 228.9694
940.80 228.9481
940.90 228.9267
941.00 228.9054
941.10 228.8841
941.20 228.8628
941.30 228.8414
941.40 228.8201
941.50 228.7988
941.60 228.7775
941.70 228.7562
941.80 228.7477
941.90 228.9105
942.00 229.0732
942.10 229.236
942.20 229.3987
942.30 229.5615
942.40 229.7242
942.50 229.887
942.60 230.0497
942.70 230.2125
942.80 230.3752
942.90 230.538
943.00 230.7008
943.10 230.8635
943.20 231.0263
943.30 231.189
943.40 231.3518
943.50 231.5145
943.60 231.6773
943.70 231.84
943.80 232.0028
943.90 232.1655
944.00 232.3283
944.10 232.491
944.20 232.6538
944.30 232.8165
944.40 232.9793
944.50 233.1421
944.60 233.3048
944.70 233.4676
944.80 233.6303
944.90 233.7931
945.00 233.9558
945.10 234.1186
945.20 234.2813
945.30 234.4441
945.40 234.6068
945.50 234.8931
945.60 235.1978
945.70 235.5025
945.80 235.8072
945.90 236.1119
946.00 236.4166
946.10 236.7214
946.20 237.0261
946.30 237.3308
946.40 237.6355
946.50 237.9402
946.60 238.2449
946.70 238.5496
946.80 238.8543
946.90 239.159
947.00 239.4638
947.10 239.7685
947.20 240.0732
947.30 240.3779
947.40 240.6826
947.50 240.9873
947.60 241.292
947.70 241.5967
947.80 241.9014
947.90 242.2061
948.00 242.5109
948.10 242.8156
948.20 243.1203
948.30 243.425
948.40 243.7297
948.50 244.0344
948.60 244.3391
948.70 244.6438
948.80 244.9485
948.90 245.2533
949.00 245.558
949.10 245.896
949.20 246.2674
949.30 246.6387
949.40 247.0101
949.50 247.3815
949.60 247.7529
949.70 248.1242
949.80 248.4956
949.90 248.867
950.00 249.2383
950.10 249.6097
950.20 249.9811
950.30 250.3524
950.40 250.7238
950.50 251.0952
950.60 251.4665
950.70 251.8379
950.80 252.2093
950.90 252.5807
951.00 252.952
951.10 253.3234
951.20 253.6948
951.30 254.0661
951.40 254.4375
951.50 254.8089
951.60 255.1802
951.70 255.5516
951.80 255.923
951.90 256.2944
952.00 256.6657
952.10 257.0371
952.20 257.4085
952.30 257.7798
952.40 258.1512
952.50 258.5226
952.60 258.8939
952.70 259.2653
952.80 259.319
952.90 259.3628
953.00 259.4067
953.10 259.4505
953.20 259.4943
953.30 259.5382
953.40 259.582
953.50 259.6259
953.60 259.6697
953.70 259.7135
953.80 259.7574
953.90 259.8012
954.00 259.8451
954.10 259.8889
954.20 259.9327
954.30 259.9766
954.40 260.0204
954.50 260.0643
954.60 260.1081
954.70 260.1519
954.80 260.1958
954.90 260.2396
955.00 260.2835
955.10 260.3273
955.20 260.3711
955.30 260.415
955.40 260.4588
955.50 260.5027
955.60 260.5465
955.70 260.5903
955.80 260.6342
955.90 260.678
956.00 260.7219
956.10 260.7657
956.20 260.8095
956.30 260.8534
956.40 260.901
956.50 260.9585
956.60 261.0159
956.70 261.0734
956.80 261.1308
956.90 261.1882
957.00 261.2457
957.10 261.3031
957.20 261.3606
957.30 261.418
957.40 261.4754
957.50 261.5329
957.60 261.5903
957.70 261.6478
957.80 261.7052
957.90 261.7627
958.00 261.8201
958.10 261.8775
958.20 261.935
958.30 261.9924
958.40 262.0499
958.50 262.1073
958.60 262.1647
958.70 262.2222
958.80 262.2796
958.90 262.3371
959.00 262.3945
959.10 262.4519
959.20 262.5094
959.30 262.5668
959.40 262.6243
959.50 262.6817
959.60 262.7392
959.70 262.7966
959.80 262.854
959.90 262.9115
960.00 262.9689
960.10 262.9345
960.20 262.7782
960.30 262.622
960.40 262.4657
960.50 262.3094
960.60 262.1532
960.70 261.9969
960.80 261.8406
960.90 261.6844
961.00 261.5281
961.10 261.3719
961.20 261.2156
961.30 261.0593
961.40 260.9031
961.50 260.7468
961.60 260.5906
961.70 260.4343
961.80 260.278
961.90 260.1218
962.00 259.9655
962.10 259.8093
962.20 259.653
962.30 259.4967
962.40 259.3405
962.50 259.1842
962.60 259.028
962.70 258.8717
962.80 258.7154
962.90 258.5592
963.00 258.4029
963.10 258.2467
963.20 258.0904
963.30 257.9341
963.40 257.7779
963.50 257.6216
963.60 257.4654
963.70 257.3091
963.80 257.3575
963.90 257.6886
964.00 258.0196
964.10 258.3507
964.20 258.6817
964.30 259.0128
964.40 259.3438
964.50 259.6749
964.60 260.0059
964.70 260.337
964.80 260.668
964.90 260.9991
965.00 261.3302
965.10 261.6612
965.20 261.9923
965.30 262.3233
965.40 262.6544
965.50 262.9854
965.60 263.3165
965.70 263.6475
965.80 263.9786
965.90 264.3096
966.00 264.6407
966.10 264.9717
966.20 265.3028
966.30 265.6339
966.40 265.9649
966.50 266.296
966.60 266.627
966.70 266.9581
966.80 267.2891
966.90 267.6202
967.00 267.9512
967.10 268.2823
967.20 268.6133
967.30 268.9444
967.40 269.2755
967.50 269.5429
967.60 269.6292
967.70 269.7155
967.80 269.8018
967.90 269.8881
968.00 269.9744
968.10 270.0607
968.20 270.147
968.30 270.2333
968.40 270.3196
968.50 270.4059
968.60 270.4922
968.70 270.5785
968.80 270.6648
968.90 270.7511
969.00 270.8374
969.10 270.9237
969.20 271.01
969.30 271.0963
969.40 271.1826
969.50 271.2689
969.60 271.3552
969.70 271.4415
969.80 271.5278
969.90 271.6141
970.00 271.7004
970.10 271.7867
970.20 271.873
970.30 271.9593
970.40 272.0456
970.50 272.1319
970.60 272.2182
970.70 272.3045
970.80 272.3908
970.90 272.4771
971.00 272.5634
971.10 272.6497
971.20 272.736
971.30 273.0132
971.40 273.3026
971.50 273.592
971.60 273.8814
971.70 274.1708
971.80 274.4602
971.90 274.7496
972.00 275.039
972.10 275.3284
972.20 275.6178
972.30 275.9072
972.40 276.1966
972.50 276.486
972.60 276.7754
972.70 277.0648
972.80 277.3542
972.90 277.6436
973.00 277.933
973.10 278.2223
973.20 278.5117
973.30 278.8011
973.40 279.0905
973.50 279.3799
973.60 279.6693
973.70 279.9587
973.80 280.2481
973.90 280.5375
974.00 280.8269
974.10 281.1163
974.20 281.4057
974.30 281.6951
974.40 281.9845
974.50 282.2739
974.60 282.5633
974.70 282.8527
974.80 283.1421
974.90 283.4315
975.00 283.8224
975.10 284.3278
975.20 284.8332
975.30 285.3386
975.40 285.8441
975.50 286.3495
975.60 286.8549
975.70 287.3603
975.80 287.8658
975.90 288.3712
976.00 288.8766
976.10 289.382
976.20 289.8874
976.30 290.3929
976.40 290.8983
976.50 291.4037
976.60 291.9091
976.70 292.4146
976.80 292.92
976.90 293.4254
977.00 293.9308
977.10 294.4362
977.20 294.9417
977.30 295.4471
977.40 295.9525
977.50 296.4579
977.60 296.9634
977.70 297.4688
977.80 297.9742
977.90 298.4796
978.00 298.985
978.10 299.4905
978.20 299.9959
978.30 300.5013
978.40 301.0067
978.50 301.5122
978.60 302.0176
978.70 302.523
978.80 302.5158
978.90 302.4182
979.00 302.3205
979.10 302.2229
979.20 302.1253
979.30 302.0276
979.40 301.93
979.50 301.8324
979.60 301.7347
979.70 301.6371
979.80 301.5394
979.90 301.4418
980.00 301.3442
980.10 301.2465
980.20 301.1489
980.30 301.0513
980.40 300.9536
980.50 300.856
980.60 300.7583
980.70 300.6607
980.80 300.5631
980.90 300.4654
981.00 300.3678
981.10 300.2701
981.20 300.1725
981.30 300.0749
981.40 299.9772
981.50 299.8796
981.60 299.782
981.70 299.6843
981.80 299.5867
981.90 299.489
982.00 299.3914
982.10 299.2938
982.20 299.1961
982.30 299.0985
982.40 299.0008
982.50 298.8607
982.60 298.2313
982.70 297.602
982.80 296.9727
982.90 296.3434
983.00 295.714
983.10 295.0847
983.20 294.4554
983.30 293.8261
983.40 293.1967
983.50 292.5674
983.60 291.9381
983.70 291.3087
983.80 290.6794
983.90 290.0501
984.00 289.4208
984.10 288.7914
984.20 288.1621
984.30 287.5328
984.40 286.9034
984.50 286.2741
984.60 285.6448
984.70 285.0155
984.80 284.3861
984.90 283.7568
985.00 283.1275
985.10 282.4982
985.20 281.8688
985.30 281.2395
985.40 280.6102
985.50 279.9808
985.60 279.3515
985.70 278.7222
985.80 278.0929
985.90 277.4635
986.00 276.8342
986.10 276.2049
986.20 275.5756
986.30 274.9232
986.40 274.1502
986.50 273.3771
986.60 272.604
986.70 271.831
986.80 271.0579
986.90 270.2848
987.00 269.5118
987.10 268.7387
987.20 267.9657
987.30 267.1926
987.40 266.4195
987.50 265.6465
987.60 264.8734
987.70 264.1003
987.80 263.3273
987.90 262.5542
988.00 261.7811
988.10 261.0081
988.20 260.235
988.30 259.462
988.40 258.6889
988.50 257.9158
988.60 257.1428
988.70 256.3697
988.80 255.5966
988.90 254.8236
989.00 254.0505
989.10 253.2774
989.20 252.5044
989.30 251.7313
989.40 250.9583
989.50 250.1852
989.60 249.4121
989.70 248.6391
989.80 247.866
989.90 247.0929
990.00 246.3199
990.10 245.5581
990.20 244.8979
990.30 244.2378
990.40 243.5776
990.50 242.9174
990.60 242.2573
990.70 241.5971
990.80 240.937
990.90 240.2768
991.00 239.6166
991.10 238.9565
991.20 238.2963
991.30 237.6361
991.40 236.976
991.50 236.3158
991.60 235.6556
991.70 234.9955
991.80 234.3353
991.90 233.6752
992.00 233.015
992.10 232.3548
992.20 231.6947
992.30 231.0345
992.40 230.3743
992.50 229.7142
992.60 229.054
992.70 228.3938
992.80 227.7337
992.90 227.0735
993.00 226.4134
993.10 225.7532
993.20 225.093
993.30 224.4329
993.40 223.7727
993.50 223.1125
993.60 222.4524
993.70 221.7922
993.80 221.132
993.90 220.4719
994.00 220.0079
994.10 219.5657
994.20 219.1234
994.30 218.6812
994.40 218.239
994.50 217.7968
994.60 217.3546
994.70 216.9124
994.80 216.4702
994.90 216.028
995.00 215.5858
995.10 215.1435
995.20 214.7013
995.30 214.2591
995.40 213.8169
995.50 213.3747
995.60 212.9325
995.70 212.4903
995.80 212.0481
995.90 211.6058
996.00 211.1636
996.10 210.7214
996.20 210.2792
996.30 209.837
996.40 209.3948
996.50 208.9526
996.60 208.5104
996.70 208.0681
996.80 207.6259
996.90 207.1837
997.00 206.7415
997.10 206.2993
997.20 205.8571
997.30 205.4149
997.40 204.9727
997.50 204.5304
997.60 204.0882
997.70 203.646
997.80 203.6103
997.90 203.9072
998.00 204.2041
998.10 204.5011
998.20 204.798
998.30 205.0949
998.40 205.3918
998.50 205.6887
998.60 205.9856
998.70 206.2825
998.80 206.5794
998.90 206.8764
999.00 207.1733
999.10 207.4702
999.20 207.7671
999.30 208.064
999.40 208.3609
999.50 208.6578
999.60 208.9547
999.70 209.2516
999.80 209.5486
999.90 209.8455
1000.00 210.1424
1000.10 210.4393
1000.20 210.7362
1000.30 211.0331
1000.40 211.33
1000.50 211.6269
1000.60 211.9239
1000.70 212.2208
1000.80 212.5177
1000.90 212.8146
1001.00 213.1115
1001.10 213.4084
1001.20 213.7053
1001.30 214.0022
1001.40 214.2991
1001.50 214.5961
1001.60 214.8933
1001.70 215.1933
1001.80 215.4934
1001.90 215.7935
1002.00 216.0935
1002.10 216.3936
1002.20 216.6936
1002.30 216.9937
1002.40 217.2938
1002.50 217.5938
1002.60 217.8939
1002.70 218.1939
1002.80 218.494
1002.90 218.7941
1003.00 219.0941
1003.10 219.3942
1003.20 219.6943
1003.30 219.9943
1003.40 220.2944
1003.50 220.5944
1003.60 220.8945
1003.70 221.1946
1003.80 221.4946
1003.90 221.7947
1004.00 222.0947
1004.10 222.3948
1004.20 222.6949
1004.30 222.9949
1004.40 223.295
1004.50 223.595
1004.60 223.8951
1004.70 224.1952
1004.80 224.4952
1004.90 224.7953
1005.00 225.0953
1005.10 225.3954
1005.20 225.6955
1005.30 225.9955
1005.40 226.2956
1005.50 226.7008
1005.60 227.2636
1005.70 227.8265
1005.80 228.3894
1005.90 228.9523
1006.00 229.5152
1006.10 230.078
1006.20 230.6409
1006.30 231.2038
1006.40 231.7667
1006.50 232.3296
1006.60 232.8924
1006.70 233.4553
1006.80 234.0182
1006.90 234.5811
1007.00 235.1439
1007.10 235.7068
1007.20 236.2697
1007.30 236.8326
1007.40 237.3955
1007.50 237.9583
1007.60 238.5212
1007.70 239.0841
1007.80 239.647
1007.90 240.2098
1008.00 240.7727
1008.10 241.3356
1008.20 241.8985
1008.30 242.4614
1008.40 243.0242
1008.50 243.5871
1008.60 244.15
1008.70 244.7129
1008.80 245.2757
1008.90 245.8386
1009.00 246.4015
1009.10 246.9644
1009.20 247.5273
1009.30 248.0901
1009.40 248.4271
1009.50 248.6673
1009.60 248.9074
1009.70 249.1476
1009.80 249.3877
1009.90 249.6279
1010.00 249.8681
1010.10 250.1082
1010.20 250.3484
1010.30 250.5885
1010.40 250.8287
1010.50 251.0689
1010.60 251.309
1010.70 251.5492
1010.80 251.7893
1010.90 252.0295
1011.00 252.2697
1011.10 252.5098
1011.20 252.75
1011.30 252.9901
1011.40 253.2303
1011.50 253.4704
1011.60 253.7106
1011.70 253.9508
1011.80 254.1909
1011.90 254.4311
1012.00 254.6712
1012.10 254.9114
1012.20 255.1516
1012.30 255.3917
1012.40 255.6319
1012.50 255.872
1012.60 256.1122
1012.70 256.3523
1012.80 256.5925
1012.90 256.8327
1013.00 257.0728
1013.10 257.313
1013.20 257.5531
1013.30 257.5903
1013.40 257.5767
1013.50 257.5632
1013.60 257.5496
1013.70 257.536
1013.80 257.5224
1013.90 257.5088
1014.00 257.4953
1014.10 257.4817
1014.20 257.4681
1014.30 257.4545
1014.40 257.441
1014.50 257.4274
1014.60 257.4138
1014.70 257.4002
1014.80 257.3866
1014.90 257.3731
1015.00 257.3595
1015.10 257.3459
1015.20 257.3323
1015.30 257.3187
1015.40 257.3052
1015.50 257.2916
1015.60 257.278
1015.70 257.2644
1015.80 257.2509
1015.90 257.2373
1016.00 257.2237
1016.10 257.2101
1016.20 257.1965
1016.30 257.183
1016.40 257.1694
1016.50 257.1558
1016.60 257.1422
1016.70 257.1287
1016.80 257.1151
1016.90 257.1015
1017.00 257.0879
1017.10 257.0743
1017.20 257.2604
1017.30 257.4964
1017.40 257.7324
1017.50 257.9684
1017.60 258.2044
1017.70 258.4404
1017.80 258.6764
1017.90 258.9124
1018.00 259.1484
1018.10 259.3844
1018.20 259.6204
1018.30 259.8564
1018.40 260.0924
1018.50 260.3284
1018.60 260.5644
1018.70 260.8004
1018.80 261.0364
1018.90 261.2724
1019.00 261.5084
1019.10 261.7444
1019.20 261.9804
1019.30 262.2164
1019.40 262.4524
1019.50 262.6884
1019.60 262.9244
1019.70 263.1604
1019.80 263.3965
1019.90 263.6325
1020.00 263.8685
1020.10 264.1045
1020.20 264.3405
1020.30 264.5765
1020.40 264.8125
1020.50 265.0485
1020.60 265.2845
1020.70 265.5205
1020.80 265.7565
1020.90 265.9925
1021.00 266.2285
1021.10 266.3287
1021.20 266.3383
1021.30 266.348
1021.40 266.3576
1021.50 266.3673
1021.60 266.3769
1021.70 266.3866
1021.80 266.3962
1021.90 266.4059
1022.00 266.4155
1022.10 266.4252
1022.20 266.4348
1022.30 266.4445
1022.40 266.4542
1022.50 266.4638
1022.60 266.4735
1022.70 266.4831
1022.80 266.4928
1022.90 266.5024
1023.00 266.5121
1023.10 266.5217
1023.20 266.5314
1023.30 266.541
1023.40 266.5507
1023.50 266.5603
1023.60 266.57
1023.70 266.5797
1023.80 266.5893
1023.90 266.599
1024.00 266.6086
1024.10 266.6183
1024.20 266.6279
1024.30 266.6376
1024.40 266.6472
1024.50 266.6569
1024.60 266.6665
1024.70 266.6762
1024.80 266.6859
1024.90 266.6955
1025.00 266.7048
1025.10 266.7134
1025.20 266.7221
1025.30 266.7308
1025.40 266.7394
1025.50 266.7481
1025.60 266.7568
1025.70 266.7654
1025.80 266.7741
1025.90 266.7828
1026.00 266.7914
1026.10 266.8001
1026.20 266.8088
1026.30 266.8174
1026.40 266.8261
1026.50 266.8348
1026.60 266.8434
1026.70 266.8521
1026.80 266.8608
1026.90 266.8694
1027.00 266.8781
1027.10 266.8868
1027.20 266.8955
1027.30 266.9041
1027.40 266.9128
1027.50 266.9215
1027.60 266.9301
1027.70 266.9388
1027.80 266.9475
1027.90 266.9561
1028.00 266.9648
1028.10 266.9735
1028.20 266.9821
1028.30 266.9908
1028.40 266.9995
1028.50 267.0081
1028.60 267.0168
1028.70 267.0255
1028.80 267.0341
1028.90 267.0428
1029.00 267.5461
1029.10 268.0493
1029.20 268.5526
1029.30 269.0559
1029.40 269.5592
1029.50 270.0624
1029.60 270.5657
1029.70 271.069
1029.80 271.5722
1029.90 272.0755
1030.00 272.5788
1030.10 273.0821
1030.20 273.5853
1030.30 274.0886
1030.40 274.5919
1030.50 275.0951
1030.60 275.5984
1030.70 276.1017
1030.80 276.605
1030.90 277.1082
1031.00 277.6115
1031.10 278.1148
1031.20 278.618
1031.30 279.1213
1031.40 279.6246
1031.50 280.1278
1031.60 280.6311
1031.70 281.1344
1031.80 281.6377
1031.90 282.1409
1032.00 282.6442
1032.10 283.1475
1032.20 283.6507
1032.30 284.154
1032.40 284.6573
1032.50 285.1606
1032.60 285.6638
1032.70 286.1671
1032.80 286.6704
1032.90 287.0724
1033.00 287.3226
1033.10 287.5729
1033.20 287.8231
1033.30 288.0733
1033.40 288.3235
1033.50 288.5737
1033.60 288.824
1033.70 289.0742
1033.80 289.3244
1033.90 289.5746
1034.00 289.8248
1034.10 290.075
1034.20 290.3253
1034.30 290.5755
1034.40 290.8257
1034.50 291.0759
1034.60 291.3261
1034.70 291.5764
1034.80 291.8266
1034.90 292.0768
1035.00 292.327
1035.10 292.5772
1035.20 292.8274
1035.30 293.0777
1035.40 293.3279
1035.50 293.5781
1035.60 293.8283
1035.70 294.0785
1035.80 294.3288
1035.90 294.579
1036.00 294.8292
1036.10 295.0794
1036.20 295.3296
1036.30 295.5798
1036.40 295.8301
1036.50 296.0803
1036.60 296.3305
1036.70 296.5807
1036.80 296.8309
1036.90 297.0016
1037.00 297.1524
1037.10 297.3031
1037.20 297.4539
1037.30 297.6047
1037.40 297.7554
1037.50 297.9062
1037.60 298.057
1037.70 298.2077
1037.80 298.3585
1037.90 298.5093
1038.00 298.6601
1038.10 298.8108
1038.20 298.9616
1038.30 299.1124
1038.40 299.2631
1038.50 299.4139
1038.60 299.5647
1038.70 299.7154
1038.80 299.8662
1038.90 300.017
1039.00 300.1677
1039.10 300.3185
1039.20 300.4693
1039.30 300.62
1039.40 300.7708
1039.50 300.9216
1039.60 301.0724
1039.70 301.2231
1039.80 301.3739
1039.90 301.5247
1040.00 301.6754
1040.10 301.8262
1040.20 301.977
1040.30 302.1277
1040.40 302.2785
1040.50 302.4293
1040.60 302.58
1040.70 302.7308
1040.80 302.8816
1040.90 303.004
1041.00 303.1264
1041.10 303.2488
1041.20 303.3712
1041.30 303.4936
1041.40 303.6161
1041.50 303.7385
1041.60 303.8609
1041.70 303.9833
1041.80 304.1057
1041.90 304.2281
1042.00 304.3505
1042.10 304.4729
1042.20 304.5953
1042.30 304.7178
1042.40 304.8402
1042.50 304.9626
1042.60 305.085
1042.70 305.2074
1042.80 305.3298
1042.90 305.4522
1043.00 305.5746
1043.10 305.697
1043.20 305.8195
1043.30 305.9419
1043.40 306.0643
1043.50 306.1867
1043.60 306.3091
1043.70 306.4315
1043.80 306.5539
1043.90 306.6763
1044.00 306.7988
1044.10 306.9212
1044.20 307.0436
1044.30 307.166
1044.40 307.2884
1044.50 307.4108
1044.60 307.5332
1044.70 307.6556
1044.80 307.7855
1044.90 307.9822
1045.00 308.179
1045.10 308.3758
1045.20 308.5725
1045.30 308.7693
1045.40 308.9661
1045.50 309.1628
1045.60 309.3596
1045.70 309.5564
1045.80 309.7531
1045.90 309.9499
1046.00 310.1466
1046.10 310.3434
1046.20 310.5402
1046.30 310.7369
1046.40 310.9337
1046.50 311.1305
1046.60 311.3272
1046.70 311.524
1046.80 311.7208
1046.90 311.9175
1047.00 312.1143
1047.10 312.311
1047.20 312.5078
1047.30 312.7046
1047.40 312.9013
1047.50 313.0981
1047.60 313.2949
1047.70 313.4916
1047.80 313.6884
1047.90 313.8852
1048.00 314.0819
1048.10 314.2787
1048.20 314.4754
1048.30 314.6722
1048.40 314.869
1048.50 315.0657
1048.60 315.2625
1048.70 315.4593
1048.80 315.6309
1048.90 315.5761
1049.00 315.5213
1049.10 315.4665
1049.20 315.4117
1049.30 315.3568
1049.40 315.302
1049.50 315.2472
1049.60 315.1924
1049.70 315.1376
1049.80 315.0828
1049.90 315.028
1050.00 314.9732
1050.10 314.9184
1050.20 314.8636
1050.30 314.8088
1050.40 314.754
1050.50 314.6992
1050.60 314.6444
1050.70 314.5896
1050.80 314.5348
1050.90 314.48
1051.00 314.4251
1051.10 314.3703
1051.20 314.3155
1051.30 314.2607
1051.40 314.2059
1051.50 314.1511
1051.60 314.0963
1051.70 314.0415
1051.80 313.9867
1051.90 313.9319
1052.00 313.8771
1052.10 313.8223
1052.20 313.7675
1052.30 313.7127
1052.40 313.6579
1052.50 313.6031
1052.60 313.5483
1052.70 313.4935
1052.80 313.4386
1052.90 313.253
1053.00 313.0674
1053.10 312.8818
1053.20 312.6961
1053.30 312.5105
1053.40 312.3249
1053.50 312.1392
1053.60 311.9536
1053.70 311.768
1053.80 311.5824
1053.90 311.3967
1054.00 311.2111
1054.10 311.0255
1054.20 310.8398
1054.30 310.6542
1054.40 310.4686
1054.50 310.283
1054.60 310.0973
1054.70 309.9117
1054.80 309.7261
1054.90 309.5404
1055.00 309.3548
1055.10 309.1692
1055.20 308.9836
1055.30 308.7979
1055.40 308.6123
1055.50 308.4267
1055.60 308.241
1055.70 308.0554
1055.80 307.8698
1055.90 307.6842
1056.00 307.4985
1056.10 307.3129
1056.20 307.1273
1056.30 306.9416
1056.40 306.756
1056.50 306.5704
1056.60 306.3848
1056.70 306.1991
1056.80 306.0135
1056.90 306.0146
1057.00 306.0624
1057.10 306.1102
1057.20 306.1581
1057.30 306.2059
1057.40 306.2537
1057.50 306.3015
1057.60 306.3493
1057.70 306.3971
1057.80 306.4449
1057.90 306.4927
1058.00 306.5405
1058.10 306.5884
1058.20 306.6362
1058.30 306.684
1058.40 306.7318
1058.50 306.7796
1058.60 306.8274
1058.70 306.8752
1058.80 306.923
1058.90 306.9708
1059.00 307.0187
1059.10 307.0665
1059.20 307.1143
1059.30 307.1621
1059.40 307.2099
1059.50 307.2577
1059.60 307.3055
1059.70 307.3533
1059.80 307.4011
1059.90 307.449
1060.00 307.4968
1060.10 307.5446
1060.20 307.5924
1060.30 307.6402
1060.40 307.688
1060.50 307.7358
1060.60 307.7836
1060.70 307.8314
1060.80 307.8793
1060.90 308.0671
1061.00 308.3949
1061.10 308.7228
1061.20 309.0506
1061.30 309.3785
1061.40 309.7063
1061.50 310.0341
1061.60 310.362
1061.70 310.6898
1061.80 311.0177
1061.90 311.3455
1062.00 311.6734
1062.10 312.0012
1062.20 312.3291
1062.30 312.6569
1062.40 312.9847
1062.50 313.3126
1062.60 313.6404
1062.70 313.9683
1062.80 314.2961
1062.90 314.624
1063.00 314.9518
1063.10 315.2796
1063.20 315.6075
1063.30 315.9353
1063.40 316.2632
1063.50 316.591
1063.60 316.9189
1063.70 317.2467
1063.80 317.5746
1063.90 317.9024
1064.00 318.2302
1064.10 318.5581
1064.20 318.8859
1064.30 319.2138
1064.40 319.5416
1064.50 319.8695
1064.60 320.1973
1064.70 320.5252
1064.80 320.853
1064.90 321.1808
1065.00 321.499
1065.10 321.8173
1065.20 322.1355
1065.30 322.4537
1065.40 322.7719
1065.50 323.0901
1065.60 323.4083
1065.70 323.7265
1065.80 324.0447
1065.90 324.3629
1066.00 324.6811
1066.10 324.9993
1066.20 325.3175
1066.30 325.6357
1066.40 325.9539
1066.50 326.2722
1066.60 326.5904
1066.70 326.9086
1066.80 327.2268
1066.90 327.545
1067.00 327.8632
1067.10 328.1814
1067.20 328.4996
1067.30 328.8178
1067.40 329.136
1067.50 329.4542
1067.60 329.7724
1067.70 330.0906
1067.80 330.4088
1067.90 330.7271
1068.00 331.0453
1068.10 331.3635
1068.20 331.6817
1068.30 331.9999
1068.40 332.3181
1068.50 332.6363
1068.60 332.9545
1068.70 333.2727
1068.80 333.5909
1068.90 333.9091
1069.00 334.2435
1069.10 334.5941
1069.20 334.9446
1069.30 335.2952
1069.40 335.6457
1069.50 335.9963
1069.60 336.3468
1069.70 336.6974
1069.80 337.048
1069.90 337.3985
1070.00 337.7491
1070.10 338.0996
1070.20 338.4502
1070.30 338.8007
1070.40 339.1513
1070.50 339.5018
1070.60 339.8524
1070.70 340.2029
1070.80 340.5535
1070.90 340.9041
1071.00 341.2546
1071.10 341.6052
1071.20 341.9557
1071.30 342.3063
1071.40 342.6568
1071.50 343.0074
1071.60 343.3579
1071.70 343.7085
1071.80 344.0591
1071.90 344.4096
1072.00 344.7602
1072.10 345.1107
1072.20 345.4613
1072.30 345.8118
1072.40 346.1624
1072.50 346.5129
1072.60 346.8635
1072.70 347.2141
1072.80 347.5646
1072.90 347.9152
1073.00 348.2657
1073.10 348.5729
1073.20 348.8752
1073.30 349.1776
1073.40 349.48
1073.50 349.7823
1073.60 350.0847
1073.70 350.387
1073.80 350.6894
1073.90 350.9917
1074.00 351.2941
1074.10 351.5964
1074.20 351.8988
1074.30 352.2012
1074.40 352.5035
1074.50 352.8059
1074.60 353.1082
1074.70 353.4106
1074.80 353.7129
1074.90 354.0153
1075.00 354.3176
1075.10 354.62
1075.20 354.9223
1075.30 355.2247
1075.40 355.5271
1075.50 355.8294
1075.60 356.1318
1075.70 356.4341
1075.80 356.7365
1075.90 357.0388
1076.00 357.3412
1076.10 357.6435
1076.20 357.9459
1076.30 358.2482
1076.40 358.5506
1076.50 358.853
1076.60 359.1553
1076.70 359.4577
1076.80 359.76
1076.90 360.0624
1077.00 360.3647
1077.10 360.6544
1077.20 360.8301
1077.30 361.0058
1077.40 361.1815
1077.50 361.3572
1077.60 361.5329
1077.70 361.7086
1077.80 361.8843
1077.90 362.06
1078.00 362.2357
1078.10 362.4114
1078.20 362.5871
1078.30 362.7628
1078.40 362.9385
1078.50 363.1142
1078.60 363.2899
1078.70 363.4656
1078.80 363.6413
1078.90 363.817
1079.00 363.9927
1079.10 364.1684
1079.20 364.3441
1079.30 364.5198
1079.40 364.6955
1079.50 364.8712
1079.60 365.0469
1079.70 365.2226
1079.80 365.3983
1079.90 365.5741
1080.00 365.7498
1080.10 365.9255
1080.20 366.1012
1080.30 366.2769
1080.40 366.4526
1080.50 366.6283
1080.60 366.804
1080.70 366.9797
1080.80 367.1554
1080.90 367.3311
1081.00 367.5068
1081.10 367.6825
1081.20 368.0368
1081.30 368.8078
1081.40 369.5788
1081.50 370.3498
1081.60 371.1208
1081.70 371.8918
1081.80 372.6628
1081.90 373.4338
1082.00 374.2048
1082.10 374.9758
1082.20 375.7468
1082.30 376.5178
1082.40 377.2888
1082.50 378.0598
1082.60 378.8308
1082.70 379.6018
1082.80 380.3728
1082.90 381.1438
1083.00 381.9148
1083.10 382.6858
1083.20 383.4568
1083.30 384.2278
1083.40 384.9988
1083.50 385.7698
1083.60 386.5408
1083.70 387.3118
1083.80 388.0828
1083.90 388.8538
1084.00 389.6248
1084.10 390.3958
1084.20 391.1668
1084.30 391.9378
1084.40 392.7088
1084.50 393.4798
1084.60 394.2508
1084.70 395.0218
1084.80 395.7928
1084.90 396.5638
1085.00 397.3348
1085.10 398.1058
1085.20 398.8768
1085.30 399.4447
1085.40 399.5387
1085.50 399.6327
1085.60 399.7267
1085.70 399.8206
1085.80 399.9146
1085.90 400.0086
1086.00 400.1026
1086.10 400.1966
1086.20 400.2906
1086.30 400.3846
1086.40 400.4786
1086.50 400.5726
1086.60 400.6666
1086.70 400.7605
1086.80 400.8545
1086.90 400.9485
1087.00 401.0425
1087.10 401.1365
1087.20 401.2305
1087.30 401.3245
1087.40 401.4185
1087.50 401.5125
1087.60 401.6064
1087.70 401.7004
1087.80 401.7944
1087.90 401.8884
1088.00 401.9824
1088.10 402.0764
1088.20 402.1704
1088.30 402.2644
1088.40 402.3584
1088.50 402.4524
1088.60 402.5463
1088.70 402.6403
1088.80 402.7343
1088.90 402.8283
1089.00 402.9223
1089.10 403.0163
1089.20 403.1103
1089.30 403.2043
1089.40 403.3238
1089.50 403.5031
1089.60 403.6823
1089.70 403.8615
1089.80 404.0407
1089.90 404.22
1090.00 404.3992
1090.10 404.5784
1090.20 404.7576
1090.30 404.9368
1090.40 405.1161
1090.50 405.2953
1090.60 405.4745
1090.70 405.6537
1090.80 405.833
1090.90 406.0122
1091.00 406.1914
1091.10 406.3706
1091.20 406.5499
1091.30 406.7291
1091.40 406.9083
1091.50 407.0875
1091.60 407.2668
1091.70 407.446
1091.80 407.6252
1091.90 407.8044
1092.00 407.9837
1092.10 408.1629
1092.20 408.3421
1092.30 408.5213
1092.40 408.7006
1092.50 408.8798
1092.60 409.059
1092.70 409.2382
1092.80 409.4175
1092.90 409.5967
1093.00 409.7759
1093.10 409.9551
1093.20 410.1344
1093.30 410.3136
1093.40 410.4928
1093.50 410.6581
1093.60 410.7676
1093.70 410.8771
1093.80 410.9866
1093.90 411.0961
1094.00 411.2056
1094.10 411.3152
1094.20 411.4247
1094.30 411.5342
1094.40 411.6437
1094.50 411.7532
1094.60 411.8627
1094.70 411.9722
1094.80 412.0818
1094.90 412.1913
1095.00 412.3008
1095.10 412.4103
1095.20 412.5198
1095.30 412.6293
1095.40 412.7388
1095.50 412.8483
1095.60 412.9579
1095.70 413.0674
1095.80 413.1769
1095.90 413.2864
1096.00 413.3959
1096.10 413.5054
1096.20 413.6149
1096.30 413.7244
1096.40 413.834
1096.50 413.9435
1096.60 414.053
1096.70 414.1625
1096.80 414.272
1096.90 414.3815
1097.00 414.491
1097.10 414.6006
1097.20 414.7101
1097.30 414.8196
1097.40 414.9291
1097.50 415.0386
1097.60 415.1481
1097.70 415.3101
1097.80 415.4721
1097.90 415.6342
1098.00 415.7962
1098.10 415.9582
1098.20 416.1202
1098.30 416.2822
1098.40 416.4442
1098.50 416.6062
1098.60 416.7683
1098.70 416.9303
1098.80 417.0923
1098.90 417.2543
1099.00 417.4163
1099.10 417.5783
1099.20 417.7403
1099.30 417.9024
1099.40 418.0644
1099.50 418.2264
1099.60 418.3884
1099.70 418.5504
1099.80 418.7124
1099.90 418.8744
1100.00 419.0365
1100.10 419.1985
1100.20 419.3605
1100.30 419.5225
1100.40 419.6845
1100.50 419.8465
1100.60 420.0085
1100.70 420.1706
1100.80 420.3326
1100.90 420.4946
1101.00 420.6566
1101.10 420.8186
1101.20 420.9806
1101.30 421.1426
1101.40 421.3046
1101.50 421.4667
1101.60 421.6287
1101.70 421.7907
1101.80 421.6212
1101.90 421.3097
1102.00 420.9982
1102.10 420.6867
1102.20 420.3752
1102.30 420.0637
1102.40 419.7522
1102.50 419.4407
1102.60 419.1292
1102.70 418.8177
1102.80 418.5062
1102.90 418.1947
1103.00 417.8832
1103.10 417.5716
1103.20 417.2601
1103.30 416.9486
1103.40 416.6371
1103.50 416.3256
1103.60 416.0141
1103.70 415.7026
1103.80 415.3911
1103.90 415.0796
1104.00 414.7681
1104.10 414.4566
1104.20 414.1451
1104.30 413.8336
1104.40 413.5221
1104.50 413.2105
1104.60 412.899
1104.70 412.5875
1104.80 412.276
1104.90 411.9645
1105.00 411.653
1105.10 411.3415
1105.20 411.03
1105.30 410.7185
1105.40 410.407
1105.50 410.0955
1105.60 409.784
1105.70 409.4725
1105.80 409.161
1105.90 408.9535
1106.00 408.9888
1106.10 409.0241
1106.20 409.0594
1106.30 409.0946
1106.40 409.1299
1106.50 409.1652
1106.60 409.2005
1106.70 409.2358
1106.80 409.2711
1106.90 409.3064
1107.00 409.3417
1107.10 409.377
1107.20 409.4123
1107.30 409.4475
1107.40 409.4828
1107.50 409.5181
1107.60 409.5534
1107.70 409.5887
1107.80 409.624
1107.90 409.6593
1108.00 409.6946
1108.10 409.7299
1108.20 409.7651
1108.30 409.8004
1108.40 409.8357
1108.50 409.871
1108.60 409.9063
1108.70 409.9416
1108.80 409.9769
1108.90 410.0122
1109.00 410.0475
1109.10 410.0827
1109.20 410.118
1109.30 410.1533
1109.40 410.1886
1109.50 410.2239
1109.60 410.2592
1109.70 410.2945
1109.80 410.3298
1109.90 410.3651
1110.00 410.4004
1110.10 410.3275
1110.20 410.2276
1110.30 410.1278
1110.40 410.0279
1110.50 409.928
1110.60 409.8281
1110.70 409.7283
1110.80 409.6284
1110.90 409.5285
1111.00 409.4286
1111.10 409.3287
1111.20 409.2289
1111.30 409.129
1111.40 409.0291
1111.50 408.9292
1111.60 408.8294
1111.70 408.7295
1111.80 408.6296
1111.90 408.5297
1112.00 408.4299
1112.10 408.33
1112.20 408.2301
1112.30 408.1302
1112.40 408.0304
1112.50 407.9305
1112.60 407.8306
1112.70 407.7307
1112.80 407.6309
1112.90 407.531
1113.00 407.4311
1113.10 407.3312
1113.20 407.2313
1113.30 407.1315
1113.40 407.0316
1113.50 406.9317
1113.60 406.8318
1113.70 406.732
1113.80 406.6321
1113.90 406.5322
1114.00 406.4323
1114.10 406.3325
1114.20 406.3097
1114.30 406.4667
1114.40 406.6237
1114.50 406.7807
1114.60 406.9378
1114.70 407.0948
1114.80 407.2518
1114.90 407.4089
1115.00 407.5659
1115.10 407.7229
1115.20 407.88
1115.30 408.037
1115.40 408.194
1115.50 408.351
1115.60 408.5081
1115.70 408.6651
1115.80 408.8221
1115.90 408.9792
1116.00 409.1362
1116.10 409.2932
1116.20 409.4502
1116.30 409.6073
1116.40 409.7643
1116.50 409.9213
1116.60 410.0784
1116.70 410.2354
1116.80 410.3924
1116.90 410.5495
1117.00 410.7065
1117.10 410.8635
1117.20 411.0205
1117.30 411.1776
1117.40 411.3346
1117.50 411.4916
1117.60 411.6487
1117.70 411.8057
1117.80 411.9627
1117.90 412.1198
1118.00 412.2768
1118.10 412.4338
1118.20 412.5908
1118.30 412.7479
1118.40 412.9022
1118.50 413.0548
1118.60 413.2074
1118.70 413.36
1118.80 413.5125
1118.90 413.6651
1119.00 413.8177
1119.10 413.9703
1119.20 414.1228
1119.30 414.2754
1119.40 414.428
1119.50 414.5806
1119.60 414.7332
1119.70 414.8857
1119.80 415.0383
1119.90 415.1909
1120.00 415.3435
1120.10 415.496
1120.20 415.6486
1120.30 415.8012
1120.40 415.9538
1120.50 416.1063
1120.60 416.2589
1120.70 416.4115
1120.80 416.5641
1120.90 416.7167
1121.00 416.8692
1121.10 417.0218
1121.20 417.1744
1121.30 417.327
1121.40 417.4795
1121.50 417.6321
1121.60 417.7847
1121.70 417.9373
1121.80 418.0899
1121.90 418.2424
1122.00 418.395
1122.10 418.5476
1122.20 418.7002
1122.30 418.8527
1122.40 419.0053
1122.50 419.1579
1122.60 419.1693
1122.70 419.165
1122.80 419.1607
1122.90 419.1564
1123.00 419.1521
1123.10 419.1478
1123.20 419.1434
1123.30 419.1391
1123.40 419.1348
1123.50 419.1305
1123.60 419.1262
1123.70 419.1219
1123.80 419.1176
1123.90 419.1133
1124.00 419.109
1124.10 419.1047
1124.20 419.1004
1124.30 419.0961
1124.40 419.0918
1124.50 419.0875
1124.60 419.0832
1124.70 419.0789
1124.80 419.0746
1124.90 419.0703
1125.00 419.066
1125.10 419.0617
1125.20 419.0573
1125.30 419.053
1125.40 419.0487
1125.50 419.0444
1125.60 419.0401
1125.70 419.0358
1125.80 419.0315
1125.90 419.0272
1126.00 419.0229
1126.10 419.0186
1126.20 419.0143
1126.30 419.01
1126.40 419.0057
1126.50 419.0014
1126.60 418.9971
1126.70 418.9627
1126.80 418.8082
1126.90 418.6538
1127.00 418.4993
1127.10 418.3448
1127.20 418.1903
1127.30 418.0358
1127.40 417.8813
1127.50 417.7268
1127.60 417.5723
1127.70 417.4178
1127.80 417.2633
1127.90 417.1088
1128.00 416.9543
1128.10 416.7998
1128.20 416.6453
1128.30 416.4908
1128.40 416.3363
1128.50 416.1818
1128.60 416.0274
1128.70 415.8729
1128.80 415.7184
1128.90 415.5639
1129.00 415.4094
1129.10 415.2549
1129.20 415.1004
1129.30 414.9459
1129.40 414.7914
1129.50 414.6369
1129.60 414.4824
1129.70 414.3279
1129.80 414.1734
1129.90 414.0189
1130.00 413.8644
1130.10 413.7099
1130.20 413.5554
1130.30 413.401
1130.40 413.2465
1130.50 413.092
1130.60 412.9375
1130.70 412.783
1130.80 412.6285
1130.90 412.4002
1131.00 411.9997
1131.10 411.5993
1131.20 411.1988
1131.30 410.7984
1131.40 410.3979
1131.50 409.9974
1131.60 409.597
1131.70 409.1965
1131.80 408.796
1131.90 408.3956
1132.00 407.9951
1132.10 407.5947
1132.20 407.1942
1132.30 406.7937
1132.40 406.3933
1132.50 405.9928
1132.60 405.5924
1132.70 405.1919
1132.80 404.7914
1132.90 404.391
1133.00 403.9905
1133.10 403.5901
1133.20 403.1896
1133.30 402.7891
1133.40 402.3887
1133.50 401.9882
1133.60 401.5877
1133.70 401.1873
1133.80 400.7868
1133.90 400.3864
1134.00 399.9859
1134.10 399.5854
1134.20 399.185
1134.30 398.7845
1134.40 398.3841
1134.50 397.9836
1134.60 397.5831
1134.70 397.1827
1134.80 396.7822
1134.90 396.3817
1135.00 395.9813
1135.10 395.7143
1135.20 395.6474
1135.30 395.5805
1135.40 395.5136
1135.50 395.4468
1135.60 395.3799
1135.70 395.313
1135.80 395.2461
1135.90 395.1793
1136.00 395.1124
1136.10 395.0455
1136.20 394.9786
1136.30 394.9118
1136.40 394.8449
1136.50 394.778
1136.60 394.7111
1136.70 394.6443
1136.80 394.5774
1136.90 394.5105
1137.00 394.4437
1137.10 394.3768
1137.20 394.3099
1137.30 394.243
1137.40 394.1762
1137.50 394.1093
1137.60 394.0424
1137.70 393.9755
1137.80 393.9087
1137.90 393.8418
1138.00 393.7749
1138.10 393.708
1138.20 393.6412
1138.30 393.5743
1138.40 393.5074
1138.50 393.4405
1138.60 393.3737
1138.70 393.3068
1138.80 393.2399
1138.90 393.173
1139.00 393.1062
1139.10 393.0393
1139.20 392.9724
1139.30 393.0198
1139.40 393.2386
1139.50 393.4575
1139.60 393.6763
1139.70 393.8951
1139.80 394.1139
1139.90 394.3328
1140.00 394.5516
1140.10 394.7704
1140.20 394.9892
1140.30 395.208
1140.40 395.4269
1140.50 395.6457
1140.60 395.8645
1140.70 396.0833
1140.80 396.3021
1140.90 396.521
1141.00 396.7398
1141.10 396.9586
1141.20 397.1774
1141.30 397.3963
1141.40 397.6151
1141.50 397.8339
1141.60 398.0527
1141.70 398.2715
1141.80 398.4904
1141.90 398.7092
1142.00 398.928
1142.10 399.1468
1142.20 399.3656
1142.30 399.5845
1142.40 399.8033
1142.50 400.0221
1142.60 400.2409
1142.70 400.4598
1142.80 400.6786
1142.90 400.8974
1143.00 401.1162
1143.10 401.335
1143.20 401.5539
1143.30 401.7727
1143.40 401.9915
1143.50 402.3408
1143.60 402.9943
1143.70 403.6479
1143.80 404.3015
1143.90 404.955
1144.00 405.6086
1144.10 406.2622
1144.20 406.9158
1144.30 407.5693
1144.40 408.2229
1144.50 408.8765
1144.60 409.5301
1144.70 410.1836
1144.80 410.8372
1144.90 411.4908
1145.00 412.1444
1145.10 412.7979
1145.20 413.4515
1145.30 414.1051
1145.40 414.7586
1145.50 415.4122
1145.60 416.0658
1145.70 416.7194
1145.80 417.3729
1145.90 418.0265
1146.00 418.6801
1146.10 419.3337
1146.20 419.9872
1146.30 420.6408
1146.40 421.2944
1146.50 421.9479
1146.60 422.6015
1146.70 423.2551
1146.80 423.9087
1146.90 424.5622
1147.00 425.2158
1147.10 425.8694
1147.20 426.523
1147.30 427.1765
1147.40 427.8301
1147.50 428.4837
1147.60 429.1373
1147.70 429.7503
1147.80 430.201
1147.90 430.6517
1148.00 431.1024
1148.10 431.5531
1148.20 432.0038
1148.30 432.4545
1148.40 432.9052
1148.50 433.3559
1148.60 433.8066
1148.70 434.2573
1148.80 434.708
1148.90 435.1587
1149.00 435.6094
1149.10 436.0601
1149.20 436.5108
1149.30 436.9615
1149.40 437.4122
1149.50 437.8629
1149.60 438.3136
1149.70 438.7643
1149.80 439.215
1149.90 439.6657
1150.00 440.1164
1150.10 440.5671
1150.20 441.0178
1150.30 441.4685
1150.40 441.9192
1150.50 442.3699
1150.60 442.8206
1150.70 443.2713
1150.80 443.722
1150.90 444.1728
1151.00 444.6235
1151.10 445.0742
1151.20 445.5249
1151.30 445.9756
1151.40 446.4263
1151.50 446.877
1151.60 447.3277
1151.70 447.7784
1151.80 448.2291
1151.90 448.6798
1152.00 448.6359
1152.10 448.592
1152.20 448.5481
1152.30 448.5042
1152.40 448.4603
1152.50 448.4164
1152.60 448.3725
1152.70 448.3286
1152.80 448.2847
1152.90 448.2408
1153.00 448.1969
1153.10 448.153
1153.20 448.1091
1153.30 448.0652
1153.40 448.0213
1153.50 447.9774
1153.60 447.9335
1153.70 447.8896
1153.80 447.8458
1153.90 447.8019
1154.00 447.758
1154.10 447.7141
1154.20 447.6702
1154.30 447.6263
1154.40 447.5824
1154.50 447.5385
1154.60 447.4946
1154.70 447.4507
1154.80 447.4068
1154.90 447.3629
1155.00 447.319
1155.10 447.2751
1155.20 447.2312
1155.30 447.1873
1155.40 447.1434
1155.50 447.0995
1155.60 447.0556
1155.70 447.0117
1155.80 446.9678
1155.90 446.9239
1156.00 446.88
1156.10 446.8361
1156.20 446.6261
1156.30 446.3746
1156.40 446.1231
1156.50 445.8715
1156.60 445.62
1156.70 445.3685
1156.80 445.1169
1156.90 444.8654
1157.00 444.6138
1157.10 444.3623
1157.20 444.1108
1157.30 443.8592
1157.40 443.6077
1157.50 443.3562
1157.60 443.1046
1157.70 442.8531
1157.80 442.6016
1157.90 442.35
1158.00 442.0985
1158.10 441.847
1158.20 441.5954
1158.30 441.3439
1158.40 441.0923
1158.50 440.8408
1158.60 440.5893
1158.70 440.3377
1158.80 440.0862
1158.90 439.8347
1159.00 439.5831
1159.10 439.3316
1159.20 439.0801
1159.30 438.8285
1159.40 438.577
1159.50 438.3255
1159.60 438.0739
1159.70 437.8224
1159.80 437.5709
1159.90 437.3193
1160.00 437.0678
1160.10 436.8162
1160.20 436.5647
1160.30 436.3132
1160.40 436.0503
1160.50 435.7762
1160.60 435.5021
1160.70 435.2279
1160.80 434.9538
1160.90 434.6797
1161.00 434.4055
1161.10 434.1314
1161.20 433.8573
1161.30 433.5831
1161.40 433.309
1161.50 433.0349
1161.60 432.7607
1161.70 432.4866
1161.80 432.2125
1161.90 431.9383
1162.00 431.6642
1162.10 431.3901
1162.20 431.1159
1162.30 430.8418
1162.40 430.5677
1162.50 430.2935
1162.60 430.0194
1162.70 429.7453
1162.80 429.4712
1162.90 429.197
1163.00 428.9229
1163.10 428.6488
1163.20 428.3746
1163.30 428.1005
1163.40 427.8264
1163.50 427.5522
1163.60 427.2781
1163.70 427.004
1163.80 426.7298
1163.90 426.4557
1164.00 426.1816
1164.10 425.9074
1164.20 425.6333
1164.30 425.3592
1164.40 425.085
1164.50 424.8109
1164.60 424.5421
1164.70 424.3214
1164.80 424.1007
1164.90 423.88
1165.00 423.6592
1165.10 423.4385
1165.20 423.2178
1165.30 422.9971
1165.40 422.7764
1165.50 422.5557
1165.60 422.335
1165.70 422.1142
1165.80 421.8935
1165.90 421.6728
1166.00 421.4521
1166.10 421.2314
1166.20 421.0107
1166.30 420.79
1166.40 420.5693
1166.50 420.3485
1166.60 420.1278
1166.70 419.9071
1166.80 419.6864
1166.90 419.4657
1167.00 419.245
1167.10 419.0243
1167.20 418.8035
1167.30 418.5828
1167.40 418.3621
1167.50 418.1414
1167.60 417.9207
1167.70 417.7
1167.80 417.4793
1167.90 417.2585
1168.00 417.0378
1168.10 416.8171
1168.20 416.5964
1168.30 416.3757
1168.40 416.155
1168.50 415.9343
1168.60 415.7135
1168.70 415.4928
1168.80 415.2721
1168.90 414.8152
1169.00 414.257
1169.10 413.6988
1169.20 413.1406
1169.30 412.5824
1169.40 412.0242
1169.50 411.466
1169.60 410.9078
1169.70 410.3496
1169.80 409.7914
1169.90 409.2332
1170.00 408.675
1170.10 408.1168
1170.20 407.5586
1170.30 407.0004
1170.40 406.4422
1170.50 405.884
1170.60 405.3258
1170.70 404.7676
1170.80 404.2094
1170.90 403.6512
1171.00 403.093
1171.10 402.5348
1171.20 401.9766
1171.30 401.4184
1171.40 400.8602
1171.50 400.302
1171.60 399.7438
1171.70 399.1856
1171.80 398.6274
1171.90 398.0692
1172.00 397.511
1172.10 396.9528
1172.20 396.3946
1172.30 395.8364
1172.40 395.2782
1172.50 394.72
1172.60 394.1618
1172.70 393.6036
1172.80 393.0454
1172.90 392.4872
1173.00 391.929
1173.10 391.5083
1173.20 391.6377
1173.30 391.767
1173.40 391.8963
1173.50 392.0257
1173.60 392.155
1173.70 392.2843
1173.80 392.4137
1173.90 392.543
1174.00 392.6723
1174.10 392.8017
1174.20 392.931
1174.30 393.0603
1174.40 393.1897
1174.50 393.319
1174.60 393.4483
1174.70 393.5777
1174.80 393.707
1174.90 393.8363
1175.00 393.9657
1175.10 394.095
1175.20 394.2243
1175.30 394.3537
1175.40 394.483
1175.50 394.6123
1175.60 394.7417
1175.70 394.871
1175.80 395.0003
1175.90 395.1297
1176.00 395.259
1176.10 395.3883
1176.20 395.5177
1176.30 395.647
1176.40 395.7763
1176.50 395.9057
1176.60 396.035
1176.70 396.1643
1176.80 396.2937
1176.90 396.423
1177.00 396.5523
1177.10 396.6816
1177.20 396.811
1177.30 396.9403
1177.40 397.1218
1177.50 397.3257
1177.60 397.5296
1177.70 397.7335
1177.80 397.9373
1177.90 398.1412
1178.00 398.3451
1178.10 398.549
1178.20 398.7529
1178.30 398.9567
1178.40 399.1606
1178.50 399.3645
1178.60 399.5684
1178.70 399.7722
1178.80 399.9761
1178.90 400.18
1179.00 400.3839
1179.10 400.5878
1179.20 400.7916
1179.30 400.9955
1179.40 401.1994
1179.50 401.4033
1179.60 401.6072
1179.70 401.811
1179.80 402.0149
1179.90 402.2188
1180.00 402.4227
1180.10 402.6265
1180.20 402.8304
1180.30 403.0343
1180.40 403.2382
1180.50 403.4421
1180.60 403.6459
1180.70 403.8498
1180.80 404.0537
1180.90 404.2576
1181.00 404.4615
1181.10 404.6653
1181.20 404.8692
1181.30 405.0731
1181.40 405.277
1181.50 405.4808
1181.60 405.6946
1181.70 405.9974
1181.80 406.3003
1181.90 406.6031
1182.00 406.9059
1182.10 407.2087
1182.20 407.5115
1182.30 407.8144
1182.40 408.1172
1182.50 408.42
1182.60 408.7228
1182.70 409.0256
1182.80 409.3285
1182.90 409.6313
1183.00 409.9341
1183.10 410.2369
1183.20 410.5398
1183.30 410.8426
1183.40 411.1454
1183.50 411.4482
1183.60 411.751
1183.70 412.0539
1183.80 412.3567
1183.90 412.6595
1184.00 412.9623
1184.10 413.2651
1184.20 413.568
1184.30 413.8708
1184.40 414.1736
1184.50 414.4764
1184.60 414.7793
1184.70 415.0821
1184.80 415.3849
1184.90 415.6877
1185.00 415.9905
1185.10 416.2934
1185.20 416.5962
1185.30 416.899
1185.40 417.2018
1185.50 417.5046
1185.60 417.8075
1185.70 418.1103
1185.80 418.4131
1185.90 418.498
1186.00 418.365
1186.10 418.232
1186.20 418.0989
1186.30 417.9659
1186.40 417.8329
1186.50 417.6999
1186.60 417.5669
1186.70 417.4338
1186.80 417.3008
1186.90 417.1678
1187.00 417.0348
1187.10 416.9018
1187.20 416.7687
1187.30 416.6357
1187.40 416.5027
1187.50 416.3697
1187.60 416.2367
1187.70 416.1037
1187.80 415.9706
1187.90 415.8376
1188.00 415.7046
1188.10 415.5716
1188.20 415.4386
1188.30 415.3055
1188.40 415.1725
1188.50 415.0395
1188.60 414.9065
1188.70 414.7735
1188.80 414.6404
1188.90 414.5074
1189.00 414.3744
1189.10 414.2414
1189.20 414.1084
1189.30 413.9753
1189.40 413.8423
1189.50 413.7093
1189.60 413.5763
1189.70 413.4433
1189.80 413.3102
1189.90 413.1772
1190.00 413.0442
1190.10 412.9112
1190.20 412.5533
1190.30 412.1392
1190.40 411.7252
1190.50 411.3111
1190.60 410.897
1190.70 410.4829
1190.80 410.0688
1190.90 409.6548
1191.00 409.2407
1191.10 408.8266
1191.20 408.4125
1191.30 407.9984
1191.40 407.5844
1191.50 407.1703
1191.60 406.7562
1191.70 406.3421
1191.80 405.9281
1191.90 405.514
1192.00 405.0999
1192.10 404.6858
1192.20 404.2717
1192.30 403.8577
1192.40 403.4436
1192.50 403.0295
1192.60 402.6154
1192.70 402.2013
1192.80 401.7873
1192.90 401.3732
1193.00 400.9591
1193.10 400.545
1193.20 400.131
1193.30 399.7169
1193.40 399.3028
1193.50 398.8887
1193.60 398.4746
1193.70 398.0606
1193.80 397.6465
1193.90 397.2324
1194.00 396.8183
1194.10 396.4042
1194.20 395.9902
1194.30 395.5761
1194.40 395.1749
1194.50 394.8901
1194.60 394.6052
1194.70 394.3203
1194.80 394.0354
1194.90 393.7506
1195.00 393.4657
1195.10 393.1808
1195.20 392.8959
1195.30 392.6111
1195.40 392.3262
1195.50 392.0413
1195.60 391.7564
1195.70 391.4716
1195.80 391.1867
1195.90 390.9018
1196.00 390.6169
1196.10 390.3321
1196.20 390.0472
1196.30 389.7623
1196.40 389.4774
1196.50 389.1926
1196.60 388.9077
1196.70 388.6228
1196.80 388.3379
1196.90 388.0531
1197.00 387.7682
1197.10 387.4833
1197.20 387.1985
1197.30 386.9136
1197.40 386.6287
1197.50 386.3438
1197.60 386.059
1197.70 385.7741
1197.80 385.4892
1197.90 385.2043
1198.00 384.9195
1198.10 384.6346
1198.20 384.3497
1198.30 384.0648
1198.40 383.78
1198.50 383.4951
1198.60 383.2102
1198.70 383.0288
1198.80 383.0025
1198.90 382.9763
1199.00 382.95
1199.10 382.9237
1199.20 382.8975
1199.30 382.8712
1199.40 382.845
1199.50 382.8187
1199.60 382.7924
1199.70 382.7662
1199.80 382.7399
1199.90 382.7137
1200.00 382.6874
1200.10 382.6611
1200.20 382.6349
1200.30 382.6086
1200.40 382.5823
1200.50 382.5561
1200.60 382.5298
1200.70 382.5036
1200.80 382.4773
1200.90 382.451
1201.00 382.4248
1201.10 382.3985
1201.20 382.3723
1201.30 382.346
1201.40 382.3197
1201.50 382.2935
1201.60 382.2672
1201.70 382.241
1201.80 382.2147
1201.90 382.1884
1202.00 382.1622
1202.10 382.1359
1202.20 382.1097
1202.30 382.0834
1202.40 382.0571
1202.50 382.0309
1202.60 382.0046
1202.70 381.9784
1202.80 381.9521
1202.90 381.9258
1203.00 382.1216
1203.10 382.4655
1203.20 382.8094
1203.30 383.1533
1203.40 383.4971
1203.50 383.841
1203.60 384.1849
1203.70 384.5287
1203.80 384.8726
1203.90 385.2165
1204.00 385.5603
1204.10 385.9042
1204.20 386.2481
1204.30 386.5919
1204.40 386.9358
1204.50 387.2797
1204.60 387.6235
1204.70 387.9674
1204.80 388.3113
1204.90 388.6551
1205.00 388.999
1205.10 389.3429
1205.20 389.6867
1205.30 390.0306
1205.40 390.3745
1205.50 390.7183
1205.60 391.0622
1205.70 391.4061
1205.80 391.75
1205.90 392.0938
1206.00 392.4377
1206.10 392.7816
1206.20 393.1254
1206.30 393.4693
1206.40 393.8132
1206.50 394.157
1206.60 394.5009
1206.70 394.8448
1206.80 395.1886
1206.90 395.5325
1207.00 395.8764
1207.10 396.2202
1207.20 396.5641
1207.30 397.0918
1207.40 397.6654
1207.50 398.239
1207.60 398.8127
1207.70 399.3863
1207.80 399.9599
1207.90 400.5336
1208.00 401.1072
1208.10 401.6808
1208.20 402.2544
1208.30 402.8281
1208.40 403.4017
1208.50 403.9753
1208.60 404.549
1208.70 405.1226
1208.80 405.6962
1208.90 406.2698
1209.00 406.8435
1209.10 407.4171
1209.20 407.9907
1209.30 408.5644
1209.40 409.138
1209.50 409.7116
1209.60 410.2852
1209.70 410.8589
1209.80 411.4325
1209.90 412.0061
1210.00 412.5798
1210.10 413.1534
1210.20 413.727
1210.30 414.3006
1210.40 414.8743
1210.50 415.4479
1210.60 416.0215
1210.70 416.5952
1210.80 417.1688
1210.90 417.7424
1211.00 418.316
1211.10 418.8897
1211.20 419.4633
1211.30 420.0369
1211.40 420.6106
1211.50 421.1842
1211.60 421.3956
1211.70 421.5667
1211.80 421.7378
1211.90 421.9089
1212.00 422.08
1212.10 422.2512
1212.20 422.4223
1212.30 422.5934
1212.40 422.7645
1212.50 422.9356
1212.60 423.1068
1212.70 423.2779
1212.80 423.449
1212.90 423.6201
1213.00 423.7912
1213.10 423.9624
1213.20 424.1335
1213.30 424.3046
1213.40 424.4757
1213.50 424.6468
1213.60 424.8179
1213.70 424.9891
1213.80 425.1602
1213.90 425.3313
1214.00 425.5024
1214.10 425.6735
1214.20 425.8447
1214.30 426.0158
1214.40 426.1869
1214.50 426.358
1214.60 426.5291
1214.70 426.7003
1214.80 426.8714
1214.90 427.0425
1215.00 427.2136
1215.10 427.3847
1215.20 427.5559
1215.30 427.727
1215.40 427.8981
1215.50 428.0692
1215.60 428.2403
1215.70 428.4115
1215.80 428.5826
1215.90 429.1227
1216.00 429.6628
1216.10 430.203
1216.20 430.7431
1216.30 431.2832
1216.40 431.8234
1216.50 432.3635
1216.60 432.9036
1216.70 433.4438
1216.80 433.9839
1216.90 434.524
1217.00 435.0641
1217.10 435.6043
1217.20 436.1444
1217.30 436.6845
1217.40 437.2247
1217.50 437.7648
1217.60 438.3049
1217.70 438.8451
1217.80 439.3852
1217.90 439.9253
1218.00 440.4655
1218.10 441.0056
1218.20 441.5457
1218.30 442.0859
1218.40 442.626
1218.50 443.1661
1218.60 443.7062
1218.70 444.2464
1218.80 444.7865
1218.90 445.3266
1219.00 445.8668
1219.10 446.4069
1219.20 446.947
1219.30 447.4872
1219.40 448.0273
1219.50 448.5674
1219.60 449.1076
1219.70 449.6477
1219.80 450.1878
1219.90 450.728
1220.00 451.2681
1220.10 451.7776
1220.20 452.0118
1220.30 452.2459
1220.40 452.48
1220.50 452.7142
1220.60 452.9483
1220.70 453.1825
1220.80 453.4166
1220.90 453.6507
1221.00 453.8849
1221.10 454.119
1221.20 454.3532
1221.30 454.5873
1221.40 454.8214
1221.50 455.0556
1221.60 455.2897
1221.70 455.5239
1221.80 455.758
1221.90 455.9921
1222.00 456.2263
1222.10 456.4604
1222.20 456.6945
1222.30 456.9287
1222.40 457.1628
1222.50 457.397
1222.60 457.6311
1222.70 457.8652
1222.80 458.0994
1222.90 458.3335
1223.00 458.5677
1223.10 458.8018
1223.20 459.0359
1223.30 459.2701
1223.40 459.5042
1223.50 459.7384
1223.60 459.9725
1223.70 460.2066
1223.80 460.4408
1223.90 460.6749
1224.00 460.9091
1224.10 461.1432
1224.20 461.3773
1224.30 461.6115
1224.40 461.815
1224.50 461.8962
1224.60 461.9773
1224.70 462.0584
1224.80 462.1396
1224.90 462.2207
1225.00 462.3018
1225.10 462.383
1225.20 462.4641
1225.30 462.5452
1225.40 462.6264
1225.50 462.7075
1225.60 462.7887
1225.70 462.8698
1225.80 462.9509
1225.90 463.0321
1226.00 463.1132
1226.10 463.1943
1226.20 463.2755
1226.30 463.3566
1226.40 463.4377
1226.50 463.5189
1226.60 463.6
1226.70 463.6812
1226.80 463.7623
1226.90 463.8434
1227.00 463.9246
1227.10 464.0057
1227.20 464.0868
1227.30 464.168
1227.40 464.2491
1227.50 464.3302
1227.60 464.4114
1227.70 464.4925
1227.80 464.5737
1227.90 464.6548
1228.00 464.7359
1228.10 464.8171
1228.20 464.8982
1228.30 464.9793
1228.40 465.0605
1228.50 465.1416
1228.60 465.2227
1228.70 465.2321
1228.80 464.9541
1228.90 464.6762
1229.00 464.3983
1229.10 464.1203
1229.20 463.8424
1229.30 463.5645
1229.40 463.2866
1229.50 463.0086
1229.60 462.7307
1229.70 462.4528
1229.80 462.1748
1229.90 461.8969
1230.00 461.619
1230.10 461.341
1230.20 461.0631
1230.30 460.7852
1230.40 460.5073
1230.50 460.2293
1230.60 459.9514
1230.70 459.6735
1230.80 459.3955
1230.90 459.1176
1231.00 458.8397
1231.10 458.5617
1231.20 458.2838
1231.30 458.0059
1231.40 457.728
1231.50 457.45
1231.60 457.1721
1231.70 456.8942
1231.80 456.6162
1231.90 456.3383
1232.00 456.0604
1232.10 455.7824
1232.20 455.5045
1232.30 455.2266
1232.40 454.9486
1232.50 454.6707
1232.60 454.3928
1232.70 454.1149
1232.80 453.8369
1232.90 453.559
1233.00 453.2438
1233.10 452.7796
1233.20 452.3154
1233.30 451.8511
1233.40 451.3869
1233.50 450.9227
1233.60 450.4584
1233.70 449.9942
1233.80 449.53
1233.90 449.0658
1234.00 448.6015
1234.10 448.1373
1234.20 447.6731
1234.30 447.2089
1234.40 446.7446
1234.50 446.2804
1234.60 445.8162
1234.70 445.352
1234.80 444.8877
1234.90 444.4235
1235.00 443.9593
1235.10 443.495
1235.20 443.0308
1235.30 442.5666
1235.40 442.1024
1235.50 441.6381
1235.60 441.1739
1235.70 440.7097
1235.80 440.2455
1235.90 439.7812
1236.00 439.317
1236.10 438.8528
1236.20 438.3886
1236.30 437.9243
1236.40 437.4601
1236.50 436.9959
1236.60 436.5316
1236.70 436.0674
1236.80 435.6032
1236.90 435.139
1237.00 434.6747
1237.10 434.2105
1237.20 433.7463
1237.30 433.3251
1237.40 433.0763
1237.50 432.8275
1237.60 432.5786
1237.70 432.3298
1237.80 432.081
1237.90 431.8321
1238.00 431.5833
1238.10 431.3345
1238.20 431.0856
1238.30 430.8368
1238.40 430.588
1238.50 430.3391
1238.60 430.0903
1238.70 429.8415
1238.80 429.5926
1238.90 429.3438
1239.00 429.095
1239.10 428.8461
1239.20 428.5973
1239.30 428.3485
1239.40 428.0996
1239.50 427.8508
1239.60 427.602
1239.70 427.3531
1239.80 427.1043
1239.90 426.8555
1240.00 426.6066
1240.10 426.3578
1240.20 426.109
1240.30 425.8601
1240.40 425.6113
1240.50 425.3625
1240.60 425.1136
1240.70 424.8648
1240.80 424.616
1240.90 424.3671
1241.00 424.1183
1241.10 423.8695
1241.20 423.6206
1241.30 423.3718
1241.40 423.123
1241.50 422.8741
1241.60 422.63
1241.70 422.4282
1241.80 422.2265
1241.90 422.0247
1242.00 421.8229
1242.10 421.6212
1242.20 421.4194
1242.30 421.2176
1242.40 421.0159
1242.50 420.8141
1242.60 420.6123
1242.70 420.4106
1242.80 420.2088
1242.90 420.007
1243.00 419.8053
1243.10 419.6035
1243.20 419.4017
1243.30 419.2
1243.40 418.9982
1243.50 418.7964
1243.60 418.5947
1243.70 418.3929
1243.80 418.1911
1243.90 417.9894
1244.00 417.7876
1244.10 417.5858
1244.20 417.3841
1244.30 417.1823
1244.40 416.9806
1244.50 416.7788
1244.60 416.577
1244.70 416.3753
1244.80 416.1735
1244.90 415.9717
1245.00 415.77
1245.10 415.5682
1245.20 415.3664
1245.30 415.1647
1245.40 414.9629
1245.50 414.7611
1245.60 414.5594
1245.70 414.3576
1245.80 414.1558
1245.90 413.9541
1246.00 414.3411
1246.10 414.7281
1246.20 415.1151
1246.30 415.5022
1246.40 415.8892
1246.50 416.2762
1246.60 416.6632
1246.70 417.0502
1246.80 417.4373
1246.90 417.8243
1247.00 418.2113
1247.10 418.5983
1247.20 418.9854
1247.30 419.3724
1247.40 419.7594
1247.50 420.1464
1247.60 420.5334
1247.70 420.9205
1247.80 421.3075
1247.90 421.6945
1248.00 422.0815
1248.10 422.4686
1248.20 422.8556
1248.30 423.2426
1248.40 423.6296
1248.50 424.0166
1248.60 424.4037
1248.70 424.7907
1248.80 425.1777
1248.90 425.5647
1249.00 425.9518
1249.10 426.3388
1249.20 426.7258
1249.30 427.1128
1249.40 427.4999
1249.50 427.8869
1249.60 428.2739
1249.70 428.6609
1249.80 429.0479
1249.90 429.435
1250.00 429.822
1250.10 430.209
1250.20 430.596
1250.30 430.9222
1250.40 431.2483
1250.50 431.5745
1250.60 431.9006
1250.70 432.2268
1250.80 432.5529
1250.90 432.879
1251.00 433.2052
1251.10 433.5313
1251.20 433.8575
1251.30 434.1836
1251.40 434.5098
1251.50 434.8359
1251.60 435.1621
1251.70 435.4882
1251.80 435.8143
1251.90 436.1405
1252.00 436.4666
1252.10 436.7928
1252.20 437.1189
1252.30 437.4451
1252.40 437.7712
1252.50 438.0974
1252.60 438.4235
1252.70 438.7496
1252.80 439.0758
1252.90 439.4019
1253.00 439.7281
1253.10 440.0542
1253.20 440.3804
1253.30 440.7065
1253.40 441.0327
1253.50 441.3588
1253.60 441.6849
1253.70 442.0111
1253.80 442.3372
1253.90 442.6634
1254.00 442.9895
1254.10 443.3157
1254.20 443.6418
1254.30 443.968
1254.40 444.2941
1254.50 444.6202
1254.60 445.1563
1254.70 445.7156
1254.80 446.2749
1254.90 446.8342
1255.00 447.3936
1255.10 447.9529
1255.20 448.5122
1255.30 449.0715
1255.40 449.6309
1255.50 450.1902
1255.60 450.7495
1255.70 451.3089
1255.80 451.8682
1255.90 452.4275
1256.00 452.9868
1256.10 453.5462
1256.20 454.1055
1256.30 454.6648
1256.40 455.2242
1256.50 455.7835
1256.60 456.3428
1256.70 456.9021
1256.80 457.4615
1256.90 458.0208
1257.00 458.5801
1257.10 459.1395
1257.20 459.6988
1257.30 460.2581
1257.40 460.8174
1257.50 461.3768
1257.60 461.9361
1257.70 462.4954
1257.80 463.0548
1257.90 463.6141
1258.00 464.1734
1258.10 464.7327
1258.20 465.2921
1258.30 465.8514
1258.40 466.4107
1258.50 466.97
1258.60 467.5294
1258.70 468.0887
1258.80 468.648
1258.90 469.2277
1259.00 469.816
1259.10 470.4043
1259.20 470.9927
1259.30 471.581
1259.40 472.1693
1259.50 472.7576
1259.60 473.346
1259.70 473.9343
1259.80 474.5226
1259.90 475.111
1260.00 475.6993
1260.10 476.2876
1260.20 476.876
1260.30 477.4643
1260.40 478.0526
1260.50 478.6409
1260.60 479.2293
1260.70 479.8176
1260.80 480.4059
1260.90 480.9943
1261.00 481.5826
1261.10 482.1709
1261.20 482.7593
1261.30 483.3476
1261.40 483.9359
1261.50 484.5242
1261.60 485.1126
1261.70 485.7009
1261.80 486.2892
1261.90 486.8776
1262.00 487.4659
1262.10 488.0542
1262.20 488.6426
1262.30 489.2309
1262.40 489.8192
1262.50 490.4075
1262.60 490.9959
1262.70 491.5842
1262.80 492.1725
1262.90 492.7609
1263.00 493.3492
1263.10 493.9375
1263.20 494.3813
1263.30 494.7287
1263.40 495.076
1263.50 495.4234
1263.60 495.7708
1263.70 496.1182
1263.80 496.4655
1263.90 496.8129
1264.00 497.1603
1264.10 497.5077
1264.20 497.855
1264.30 498.2024
1264.40 498.5498
1264.50 498.8972
1264.60 499.2446
1264.70 499.5919
1264.80 499.9393
1264.90 500.2867
1265.00 500.6341
1265.10 500.9814
1265.20 501.3288
1265.30 501.6762
1265.40 502.0236
1265.50 502.3709
1265.60 502.7183
1265.70 503.0657
1265.80 503.4131
1265.90 503.7604
1266.00 504.1078
1266.10 504.4552
1266.20 504.8026
1266.30 505.1499
1266.40 505.4973
1266.50 505.8447
1266.60 506.1921
1266.70 506.5394
1266.80 506.8868
1266.90 507.2342
1267.00 507.5816
1267.10 507.9289
1267.20 508.2763
1267.30 508.6237
1267.40 508.9711
1267.50 509.2989
1267.60 509.607
1267.70 509.9152
1267.80 510.2234
1267.90 510.5316
1268.00 510.8398
1268.10 511.148
1268.20 511.4562
1268.30 511.7644
1268.40 512.0725
1268.50 512.3807
1268.60 512.6889
1268.70 512.9971
1268.80 513.3053
1268.90 513.6135
1269.00 513.9217
1269.10 514.2298
1269.20 514.538
1269.30 514.8462
1269.40 515.1544
1269.50 515.4626
1269.60 515.7708
1269.70 516.079
1269.80 516.3872
1269.90 516.6953
1270.00 517.0035
1270.10 517.3117
1270.20 517.6199
1270.30 517.9281
1270.40 518.2363
1270.50 518.5445
1270.60 518.8527
1270.70 519.1608
1270.80 519.469
1270.90 519.7772
1271.00 520.0854
1271.10 520.3936
1271.20 520.7018
1271.30 521.01
1271.40 521.3181
1271.50 521.6263
1271.60 521.9345
1271.70 522.2427
1271.80 522.4653
1271.90 522.4884
1272.00 522.5114
1272.10 522.5344
1272.20 522.5574
1272.30 522.5805
1272.40 522.6035
1272.50 522.6265
1272.60 522.6495
1272.70 522.6726
1272.80 522.6956
1272.90 522.7186
1273.00 522.7416
1273.10 522.7647
1273.20 522.7877
1273.30 522.8107
1273.40 522.8337
1273.50 522.8568
1273.60 522.8798
1273.70 522.9028
1273.80 522.9258
1273.90 522.9489
1274.00 522.9719
1274.10 522.9949
1274.20 523.0179
1274.30 523.041
1274.40 523.064
1274.50 523.087
1274.60 523.11
1274.70 523.1331
1274.80 523.1561
1274.90 523.1791
1275.00 523.2021
1275.10 523.2252
1275.20 523.2482
1275.30 523.2712
1275.40 523.2942
1275.50 523.3172
1275.60 523.3403
1275.70 523.3633
1275.80 523.3863
1275.90 523.4093
1276.00 523.4324
1276.10 523.4395
1276.20 523.3033
1276.30 523.1672
1276.40 523.031
1276.50 522.8948
1276.60 522.7587
1276.70 522.6225
1276.80 522.4864
1276.90 522.3502
1277.00 522.214
1277.10 522.0779
1277.20 521.9417
1277.30 521.8056
1277.40 521.6694
1277.50 521.5332
1277.60 521.3971
1277.70 521.2609
1277.80 521.1248
1277.90 520.9886
1278.00 520.8525
1278.10 520.7163
1278.20 520.5801
1278.30 520.444
1278.40 520.3078
1278.50 520.1717
1278.60 520.0355
1278.70 519.8993
1278.80 519.7632
1278.90 519.627
1279.00 519.4909
1279.10 519.3547
1279.20 519.2185
1279.30 519.0824
1279.40 518.9462
1279.50 518.8101
1279.60 518.6739
1279.70 518.5377
1279.80 518.4016
1279.90 518.2654
1280.00 518.1293
1280.10 517.9931
1280.20 517.857
1280.30 517.7208
1280.40 517.5846
1280.50 517.5692
1280.60 517.5537
1280.70 517.5383
1280.80 517.5228
1280.90 517.5073
1281.00 517.4919
1281.10 517.4764
1281.20 517.461
1281.30 517.4455
1281.40 517.43
1281.50 517.4146
1281.60 517.3991
1281.70 517.3837
1281.80 517.3682
1281.90 517.3527
1282.00 517.3373
1282.10 517.3218
1282.20 517.3064
1282.30 517.2909
1282.40 517.2755
1282.50 517.26
1282.60 517.2445
1282.70 517.2291
1282.80 517.2136
1282.90 517.1982
1283.00 517.1827
1283.10 517.1672
1283.20 517.1518
1283.30 517.1363
1283.40 517.1209
1283.50 517.1054
1283.60 517.0899
1283.70 517.0745
1283.80 517.059
1283.90 517.0436
1284.00 517.0281
1284.10 517.0126
1284.20 516.9972
1284.30 516.9817
1284.40 516.9663
1284.50 516.9508
1284.60 516.9353
1284.70 516.9199
1284.80 516.9978
1284.90 517.0992
1285.00 517.2005
1285.10 517.3018
1285.20 517.4031
1285.30 517.5044
1285.40 517.6057
1285.50 517.707
1285.60 517.8083
1285.70 517.9096
1285.80 518.0109
1285.90 518.1122
1286.00 518.2135
1286.10 518.3148
1286.20 518.4161
1286.30 518.5175
1286.40 518.6188
1286.50 518.7201
1286.60 518.8214
1286.70 518.9227
1286.80 519.024
1286.90 519.1253
1287.00 519.2266
1287.10 519.3279
1287.20 519.4292
1287.30 519.5305
1287.40 519.6318
1287.50 519.7331
1287.60 519.8344
1287.70 519.9358
1287.80 520.0371
1287.90 520.1384
1288.00 520.2397
1288.10 520.341
1288.20 520.4423
1288.30 520.5436
1288.40 520.6449
1288.50 520.7462
1288.60 520.8475
1288.70 520.9488
1288.80 521.0501
1288.90 521.1514
1289.00 521.2527
1289.10 521.1593
1289.20 520.9361
1289.30 520.7128
1289.40 520.4896
1289.50 520.2663
1289.60 520.0431
1289.70 519.8198
1289.80 519.5966
1289.90 519.3733
1290.00 519.1501
1290.10 518.9268
1290.20 518.7036
1290.30 518.4803
1290.40 518.2571
1290.50 518.0338
1290.60 517.8106
1290.70 517.5873
1290.80 517.3641
1290.90 517.1408
1291.00 516.9176
1291.10 516.6943
1291.20 516.4711
1291.30 516.2478
1291.40 516.0246
1291.50 515.8014
1291.60 515.5781
1291.70 515.3549
1291.80 515.1316
1291.90 514.9084
1292.00 514.6851
1292.10 514.4619
1292.20 514.2386
1292.30 514.0154
1292.40 513.7921
1292.50 513.5689
1292.60 513.3456
1292.70 513.1224
1292.80 512.8991
1292.90 512.6759
1293.00 512.4526
1293.10 512.2294
1293.20 512.0061
1293.30 511.7829
1293.40 511.6318
1293.50 511.589
1293.60 511.5462
1293.70 511.5034
1293.80 511.4605
1293.90 511.4177
1294.00 511.3749
1294.10 511.3321
1294.20 511.2893
1294.30 511.2465
1294.40 511.2037
1294.50 511.1608
1294.60 511.118
1294.70 511.0752
1294.80 511.0324
1294.90 510.9896
1295.00 510.9468
1295.10 510.904
1295.20 510.8611
1295.30 510.8183
1295.40 510.7755
1295.50 510.7327
1295.60 510.6899
1295.70 510.6471
1295.80 510.6043
1295.90 510.5614
1296.00 510.5186
1296.10 510.4758
1296.20 510.433
1296.30 510.3902
1296.40 510.3474
1296.50 510.3046
1296.60 510.2617
1296.70 510.2189
1296.80 510.1761
1296.90 510.1333
1297.00 510.0905
1297.10 510.0477
1297.20 510.0049
1297.30 509.962
1297.40 509.9192
1297.50 509.8764
1297.60 509.8336
1297.70 509.8084
1297.80 509.8536
1297.90 509.8988
1298.00 509.944
1298.10 509.9892
1298.20 510.0344
1298.30 510.0796
1298.40 510.1248
1298.50 510.17
1298.60 510.2152
1298.70 510.2604
1298.80 510.3056
1298.90 510.3508
1299.00 510.396
1299.10 510.4412
1299.20 510.4864
1299.30 510.5316
1299.40 510.5768
1299.50 510.622
1299.60 510.6672
1299.70 510.7124
1299.80 510.7576
1299.90 510.8028
