# Version 2.1 - nm, norm@500 to 1, cut digits
# Wavelength(nm)  Flambda(ergs/cm^s/s/nm)
300.00 1.651452e-95
300.10 1.651452e-95
300.20 1.651452e-95
300.30 1.651452e-95
300.40 1.651452e-95
300.50 1.651452e-95
300.60 1.651452e-95
300.70 1.651452e-95
300.80 1.651452e-95
300.90 1.651452e-95
301.00 1.651452e-95
301.10 1.651452e-95
301.20 1.651452e-95
301.30 1.651452e-95
301.40 1.651452e-95
301.50 1.651452e-95
301.60 1.651452e-95
301.70 1.651452e-95
301.80 1.651452e-95
301.90 1.651452e-95
302.00 1.651452e-95
302.10 1.651452e-95
302.20 1.651452e-95
302.30 1.651452e-95
302.40 1.651452e-95
302.50 1.651452e-95
302.60 1.651452e-95
302.70 1.651452e-95
302.80 1.651452e-95
302.90 1.651452e-95
303.00 1.651452e-95
303.10 1.651452e-95
303.20 1.651452e-95
303.30 1.651452e-95
303.40 1.651452e-95
303.50 1.651452e-95
303.60 1.651452e-95
303.70 1.651452e-95
303.80 1.651452e-95
303.90 1.651452e-95
304.00 1.651452e-95
304.10 1.651452e-95
304.20 1.651452e-95
304.30 1.651452e-95
304.40 1.651452e-95
304.50 1.651452e-95
304.60 1.651452e-95
304.70 1.651452e-95
304.80 1.651452e-95
304.90 1.651452e-95
305.00 1.651452e-95
305.10 1.651452e-95
305.20 1.651452e-95
305.30 1.651452e-95
305.40 1.651452e-95
305.50 1.651452e-95
305.60 1.651452e-95
305.70 1.651452e-95
305.80 1.651452e-95
305.90 1.651452e-95
306.00 1.651452e-95
306.10 1.651452e-95
306.20 1.651452e-95
306.30 1.651452e-95
306.40 1.651452e-95
306.50 1.651452e-95
306.60 1.651452e-95
306.70 1.651452e-95
306.80 1.651452e-95
306.90 1.651452e-95
307.00 1.651452e-95
307.10 1.651452e-95
307.20 1.651452e-95
307.30 1.651452e-95
307.40 1.651452e-95
307.50 1.651452e-95
307.60 1.651452e-95
307.70 1.651452e-95
307.80 1.651452e-95
307.90 1.651452e-95
308.00 1.651452e-95
308.10 1.651452e-95
308.20 1.651452e-95
308.30 1.651452e-95
308.40 1.651452e-95
308.50 1.651452e-95
308.60 1.651452e-95
308.70 1.651452e-95
308.80 1.651452e-95
308.90 1.651452e-95
309.00 1.651452e-95
309.10 1.651452e-95
309.20 1.651452e-95
309.30 1.651452e-95
309.40 1.651452e-95
309.50 1.651452e-95
309.60 1.651452e-95
309.70 1.651452e-95
309.80 1.651452e-95
309.90 1.651452e-95
310.00 1.651452e-95
310.10 1.651452e-95
310.20 1.651452e-95
310.30 1.651452e-95
310.40 1.651452e-95
310.50 1.651452e-95
310.60 1.651452e-95
310.70 1.651452e-95
310.80 1.651452e-95
310.90 1.651452e-95
311.00 1.651452e-95
311.10 1.651452e-95
311.20 1.651452e-95
311.30 1.651452e-95
311.40 1.651452e-95
311.50 1.651452e-95
311.60 1.651452e-95
311.70 1.651452e-95
311.80 1.651452e-95
311.90 1.651452e-95
312.00 1.651452e-95
312.10 1.651452e-95
312.20 1.651452e-95
312.30 1.651452e-95
312.40 1.651452e-95
312.50 1.651452e-95
312.60 1.651452e-95
312.70 1.651452e-95
312.80 1.651452e-95
312.90 1.651452e-95
313.00 1.651452e-95
313.10 1.651452e-95
313.20 1.651452e-95
313.30 1.651452e-95
313.40 1.651452e-95
313.50 1.651452e-95
313.60 1.651452e-95
313.70 1.651452e-95
313.80 1.651452e-95
313.90 1.651452e-95
314.00 1.651452e-95
314.10 1.651452e-95
314.20 1.651452e-95
314.30 1.651452e-95
314.40 1.651452e-95
314.50 1.651452e-95
314.60 1.651452e-95
314.70 1.651452e-95
314.80 1.651452e-95
314.90 1.651452e-95
315.00 1.651452e-95
315.10 1.651452e-95
315.20 1.651452e-95
315.30 1.651452e-95
315.40 1.651452e-95
315.50 1.651452e-95
315.60 1.651452e-95
315.70 1.651452e-95
315.80 1.651452e-95
315.90 1.651452e-95
316.00 1.651452e-95
316.10 1.651452e-95
316.20 1.651452e-95
316.30 1.651452e-95
316.40 1.651452e-95
316.50 1.651452e-95
316.60 1.651452e-95
316.70 1.651452e-95
316.80 1.651452e-95
316.90 1.651452e-95
317.00 1.651452e-95
317.10 1.651452e-95
317.20 1.651452e-95
317.30 1.651452e-95
317.40 1.651452e-95
317.50 1.651452e-95
317.60 1.651452e-95
317.70 1.651452e-95
317.80 1.651452e-95
317.90 1.651452e-95
318.00 1.651452e-95
318.10 1.651452e-95
318.20 1.651452e-95
318.30 1.651452e-95
318.40 1.651452e-95
318.50 1.651452e-95
318.60 1.651452e-95
318.70 1.651452e-95
318.80 1.651452e-95
318.90 1.651452e-95
319.00 1.651452e-95
319.10 1.651452e-95
319.20 1.651452e-95
319.30 1.651452e-95
319.40 1.651452e-95
319.50 1.651452e-95
319.60 1.651452e-95
319.70 1.651452e-95
319.80 1.651452e-95
319.90 1.651452e-95
320.00 1.651452e-95
320.10 1.651452e-95
320.20 1.651452e-95
320.30 1.651452e-95
320.40 1.651452e-95
320.50 1.651452e-95
320.60 1.651452e-95
320.70 1.651452e-95
320.80 1.651452e-95
320.90 1.651452e-95
321.00 1.651452e-95
321.10 1.651452e-95
321.20 1.651452e-95
321.30 1.651452e-95
321.40 1.651452e-95
321.50 1.651452e-95
321.60 1.651452e-95
321.70 1.651452e-95
321.80 1.651452e-95
321.90 1.651452e-95
322.00 1.651452e-95
322.10 1.651452e-95
322.20 1.651452e-95
322.30 1.651452e-95
322.40 1.651452e-95
322.50 1.651452e-95
322.60 1.651452e-95
322.70 1.651452e-95
322.80 1.651452e-95
322.90 1.651452e-95
323.00 1.651452e-95
323.10 1.651452e-95
323.20 1.651452e-95
323.30 1.651452e-95
323.40 1.651452e-95
323.50 1.651452e-95
323.60 1.651452e-95
323.70 1.651452e-95
323.80 1.651452e-95
323.90 1.651452e-95
324.00 1.651452e-95
324.10 1.651452e-95
324.20 1.651452e-95
324.30 1.651452e-95
324.40 1.651452e-95
324.50 1.651452e-95
324.60 1.651452e-95
324.70 1.651452e-95
324.80 1.651452e-95
324.90 1.651452e-95
325.00 1.651452e-95
325.10 1.651452e-95
325.20 1.651452e-95
325.30 1.651452e-95
325.40 1.651452e-95
325.50 1.651452e-95
325.60 1.651452e-95
325.70 1.651452e-95
325.80 1.651452e-95
325.90 1.651452e-95
326.00 1.651452e-95
326.10 1.651452e-95
326.20 1.651452e-95
326.30 1.651452e-95
326.40 1.651452e-95
326.50 1.651452e-95
326.60 1.651452e-95
326.70 1.651452e-95
326.80 1.651452e-95
326.90 1.651452e-95
327.00 1.651452e-95
327.10 1.651452e-95
327.20 1.651452e-95
327.30 1.651452e-95
327.40 1.651452e-95
327.50 1.651452e-95
327.60 1.651452e-95
327.70 1.651452e-95
327.80 1.651452e-95
327.90 1.651452e-95
328.00 1.651452e-95
328.10 1.651452e-95
328.20 1.651452e-95
328.30 1.651452e-95
328.40 1.651452e-95
328.50 1.651452e-95
328.60 1.651452e-95
328.70 1.651452e-95
328.80 1.651452e-95
328.90 1.651452e-95
329.00 1.651452e-95
329.10 1.651452e-95
329.20 1.651452e-95
329.30 1.651452e-95
329.40 1.651452e-95
329.50 1.651452e-95
329.60 1.651452e-95
329.70 1.651452e-95
329.80 1.651452e-95
329.90 1.651452e-95
330.00 1.651452e-95
330.10 1.651452e-95
330.20 1.651452e-95
330.30 1.651452e-95
330.40 1.651452e-95
330.50 1.651452e-95
330.60 1.651452e-95
330.70 1.651452e-95
330.80 1.651452e-95
330.90 1.651452e-95
331.00 1.651452e-95
331.10 1.651452e-95
331.20 1.651452e-95
331.30 1.651452e-95
331.40 1.651452e-95
331.50 1.651452e-95
331.60 1.651452e-95
331.70 1.651452e-95
331.80 1.651452e-95
331.90 1.651452e-95
332.00 1.651452e-95
332.10 1.651452e-95
332.20 1.651452e-95
332.30 1.651452e-95
332.40 1.651452e-95
332.50 1.651452e-95
332.60 1.651452e-95
332.70 1.651452e-95
332.80 1.651452e-95
332.90 1.651452e-95
333.00 1.651452e-95
333.10 1.651452e-95
333.20 1.651452e-95
333.30 1.651452e-95
333.40 1.651452e-95
333.50 1.651452e-95
333.60 1.651452e-95
333.70 1.651452e-95
333.80 1.651452e-95
333.90 1.651452e-95
334.00 1.651452e-95
334.10 1.651452e-95
334.20 1.651452e-95
334.30 1.651452e-95
334.40 1.651452e-95
334.50 1.651452e-95
334.60 1.651452e-95
334.70 1.651452e-95
334.80 1.651452e-95
334.90 1.651452e-95
335.00 1.651452e-95
335.10 1.651452e-95
335.20 1.651452e-95
335.30 1.651452e-95
335.40 1.651452e-95
335.50 1.651452e-95
335.60 1.651452e-95
335.70 1.651452e-95
335.80 1.651452e-95
335.90 1.651452e-95
336.00 1.651452e-95
336.10 1.651452e-95
336.20 1.651452e-95
336.30 1.651452e-95
336.40 1.651452e-95
336.50 1.651452e-95
336.60 1.651452e-95
336.70 1.651452e-95
336.80 1.651452e-95
336.90 1.651452e-95
337.00 1.651452e-95
337.10 1.651452e-95
337.20 1.651452e-95
337.30 1.651452e-95
337.40 1.651452e-95
337.50 1.651452e-95
337.60 1.651452e-95
337.70 1.651452e-95
337.80 1.651452e-95
337.90 1.651452e-95
338.00 1.651452e-95
338.10 1.651452e-95
338.20 1.651452e-95
338.30 1.651452e-95
338.40 1.651452e-95
338.50 1.651452e-95
338.60 1.651452e-95
338.70 1.651452e-95
338.80 1.651452e-95
338.90 1.651452e-95
339.00 1.651452e-95
339.10 1.651452e-95
339.20 1.651452e-95
339.30 1.651452e-95
339.40 1.651452e-95
339.50 1.651452e-95
339.60 1.651452e-95
339.70 1.651452e-95
339.80 1.651452e-95
339.90 1.651452e-95
340.00 1.651452e-95
340.10 1.651452e-95
340.20 1.651452e-95
340.30 1.651452e-95
340.40 1.651452e-95
340.50 1.651452e-95
340.60 1.651452e-95
340.70 1.651452e-95
340.80 1.651452e-95
340.90 1.651452e-95
341.00 1.651452e-95
341.10 1.651452e-95
341.20 1.651452e-95
341.30 1.651452e-95
341.40 1.651452e-95
341.50 1.651452e-95
341.60 1.651452e-95
341.70 1.651452e-95
341.80 1.651452e-95
341.90 1.651452e-95
342.00 1.651452e-95
342.10 1.651452e-95
342.20 1.651452e-95
342.30 1.651452e-95
342.40 1.651452e-95
342.50 1.651452e-95
342.60 1.651452e-95
342.70 1.651452e-95
342.80 1.651452e-95
342.90 1.651452e-95
343.00 1.651452e-95
343.10 1.651452e-95
343.20 1.651452e-95
343.30 1.651452e-95
343.40 1.651452e-95
343.50 1.651452e-95
343.60 1.651452e-95
343.70 1.651452e-95
343.80 1.651452e-95
343.90 1.651452e-95
344.00 1.651452e-95
344.10 1.651452e-95
344.20 1.651452e-95
344.30 1.651452e-95
344.40 1.651452e-95
344.50 1.651452e-95
344.60 1.651452e-95
344.70 1.651452e-95
344.80 1.651452e-95
344.90 1.651452e-95
345.00 1.651452e-95
345.10 1.651452e-95
345.20 1.651452e-95
345.30 1.651452e-95
345.40 1.651452e-95
345.50 1.651452e-95
345.60 1.651452e-95
345.70 1.651452e-95
345.80 1.651452e-95
345.90 1.651452e-95
346.00 1.651452e-95
346.10 1.651452e-95
346.20 1.651452e-95
346.30 1.651452e-95
346.40 1.651452e-95
346.50 1.651452e-95
346.60 1.651452e-95
346.70 1.651452e-95
346.80 1.651452e-95
346.90 1.651452e-95
347.00 1.651452e-95
347.10 1.651452e-95
347.20 1.651452e-95
347.30 1.651452e-95
347.40 1.651452e-95
347.50 1.651452e-95
347.60 1.651452e-95
347.70 1.651452e-95
347.80 1.651452e-95
347.90 1.651452e-95
348.00 1.651452e-95
348.10 1.651452e-95
348.20 1.651452e-95
348.30 1.651452e-95
348.40 1.651452e-95
348.50 1.651452e-95
348.60 1.651452e-95
348.70 1.651452e-95
348.80 1.651452e-95
348.90 1.651452e-95
349.00 1.651452e-95
349.10 1.651452e-95
349.20 1.651452e-95
349.30 1.651452e-95
349.40 1.651452e-95
349.50 1.651452e-95
349.60 1.651452e-95
349.70 1.651452e-95
349.80 1.651452e-95
349.90 1.651452e-95
350.00 1.651452e-95
350.10 1.651452e-95
350.20 1.651452e-95
350.30 1.651452e-95
350.40 1.651452e-95
350.50 1.651452e-95
350.60 1.651452e-95
350.70 1.651452e-95
350.80 1.651452e-95
350.90 1.651452e-95
351.00 1.651452e-95
351.10 1.651452e-95
351.20 1.651452e-95
351.30 1.651452e-95
351.40 1.651452e-95
351.50 1.651452e-95
351.60 1.651452e-95
351.70 1.651452e-95
351.80 1.651452e-95
351.90 1.651452e-95
352.00 1.651452e-95
352.10 1.651452e-95
352.20 1.651452e-95
352.30 1.651452e-95
352.40 1.651452e-95
352.50 1.651452e-95
352.60 1.651452e-95
352.70 1.651452e-95
352.80 1.651452e-95
352.90 1.651452e-95
353.00 1.651452e-95
353.10 1.651452e-95
353.20 1.651452e-95
353.30 1.651452e-95
353.40 1.651452e-95
353.50 1.651452e-95
353.60 1.651452e-95
353.70 1.651452e-95
353.80 1.651452e-95
353.90 1.651452e-95
354.00 1.651452e-95
354.10 1.651452e-95
354.20 1.651452e-95
354.30 1.651452e-95
354.40 1.651452e-95
354.50 1.651452e-95
354.60 1.651452e-95
354.70 1.651452e-95
354.80 1.651452e-95
354.90 1.651452e-95
355.00 1.651452e-95
355.10 1.651452e-95
355.20 1.651452e-95
355.30 1.651452e-95
355.40 1.651452e-95
355.50 1.651452e-95
355.60 1.651452e-95
355.70 1.651452e-95
355.80 1.651452e-95
355.90 1.651452e-95
356.00 1.651452e-95
356.10 1.651452e-95
356.20 1.651452e-95
356.30 1.651452e-95
356.40 1.651452e-95
356.50 1.651452e-95
356.60 1.651452e-95
356.70 1.651452e-95
356.80 1.651452e-95
356.90 1.651452e-95
357.00 1.651452e-95
357.10 1.651452e-95
357.20 1.651452e-95
357.30 1.651452e-95
357.40 1.651452e-95
357.50 1.651452e-95
357.60 1.651452e-95
357.70 1.651452e-95
357.80 1.651452e-95
357.90 1.651452e-95
358.00 1.651452e-95
358.10 1.651452e-95
358.20 1.651452e-95
358.30 1.651452e-95
358.40 1.651452e-95
358.50 1.651452e-95
358.60 1.651452e-95
358.70 1.651452e-95
358.80 1.651452e-95
358.90 1.651452e-95
359.00 1.651452e-95
359.10 1.651452e-95
359.20 1.651452e-95
359.30 1.651452e-95
359.40 1.651452e-95
359.50 1.651452e-95
359.60 1.651452e-95
359.70 1.651452e-95
359.80 1.651452e-95
359.90 1.651452e-95
360.00 1.651452e-95
360.10 1.651452e-95
360.20 1.651452e-95
360.30 1.651452e-95
360.40 1.651452e-95
360.50 1.651452e-95
360.60 1.651452e-95
360.70 1.651452e-95
360.80 1.651452e-95
360.90 1.651452e-95
361.00 1.651452e-95
361.10 1.651452e-95
361.20 1.651452e-95
361.30 1.651452e-95
361.40 1.651452e-95
361.50 1.651452e-95
361.60 1.651452e-95
361.70 1.651452e-95
361.80 1.651452e-95
361.90 1.651452e-95
362.00 1.651452e-95
362.10 1.651452e-95
362.20 1.651452e-95
362.30 1.651452e-95
362.40 1.651452e-95
362.50 1.651452e-95
362.60 1.651452e-95
362.70 1.651452e-95
362.80 1.651452e-95
362.90 1.651452e-95
363.00 1.651452e-95
363.10 1.651452e-95
363.20 1.651452e-95
363.30 1.651452e-95
363.40 1.651452e-95
363.50 1.651452e-95
363.60 1.651452e-95
363.70 1.651452e-95
363.80 1.651452e-95
363.90 1.651452e-95
364.00 1.651452e-95
364.10 1.651452e-95
364.20 1.651452e-95
364.30 1.651452e-95
364.40 1.651452e-95
364.50 1.651452e-95
364.60 1.651452e-95
364.70 1.651452e-95
364.80 1.651452e-95
364.90 1.651452e-95
365.00 1.651452e-95
365.10 1.651452e-95
365.20 1.651452e-95
365.30 1.651452e-95
365.40 1.651452e-95
365.50 1.651452e-95
365.60 1.651452e-95
365.70 1.651452e-95
365.80 1.651452e-95
365.90 1.651452e-95
366.00 1.651452e-95
366.10 1.651452e-95
366.20 1.651452e-95
366.30 1.651452e-95
366.40 1.651452e-95
366.50 1.651452e-95
366.60 1.651452e-95
366.70 1.651452e-95
366.80 1.651452e-95
366.90 1.651452e-95
367.00 1.651452e-95
367.10 1.651452e-95
367.20 1.651452e-95
367.30 1.651452e-95
367.40 1.651452e-95
367.50 1.651452e-95
367.60 1.651452e-95
367.70 1.651452e-95
367.80 1.651452e-95
367.90 1.651452e-95
368.00 1.651452e-95
368.10 1.651452e-95
368.20 1.651452e-95
368.30 1.651452e-95
368.40 1.651452e-95
368.50 1.651452e-95
368.60 1.651452e-95
368.70 1.651452e-95
368.80 1.651452e-95
368.90 1.651452e-95
369.00 1.651452e-95
369.10 1.651452e-95
369.20 1.651452e-95
369.30 1.651452e-95
369.40 1.651452e-95
369.50 1.651452e-95
369.60 1.651452e-95
369.70 1.651452e-95
369.80 1.651452e-95
369.90 1.651452e-95
370.00 1.651452e-95
370.10 1.651452e-95
370.20 1.651452e-95
370.30 1.651452e-95
370.40 1.651452e-95
370.50 1.651452e-95
370.60 1.651452e-95
370.70 1.651452e-95
370.80 1.651452e-95
370.90 1.651452e-95
371.00 1.651452e-95
371.10 1.651452e-95
371.20 1.651452e-95
371.30 1.651452e-95
371.40 1.651452e-95
371.50 1.651452e-95
371.60 1.651452e-95
371.70 1.651452e-95
371.80 1.651452e-95
371.90 1.651452e-95
372.00 1.651452e-95
372.10 1.651452e-95
372.20 1.651452e-95
372.30 1.651452e-95
372.40 1.651452e-95
372.50 1.651452e-95
372.60 1.651452e-95
372.70 1.651452e-95
372.80 1.651452e-95
372.90 1.651452e-95
373.00 1.651452e-95
373.10 1.651452e-95
373.20 1.651452e-95
373.30 1.651452e-95
373.40 1.651452e-95
373.50 1.651452e-95
373.60 1.651452e-95
373.70 1.651452e-95
373.80 1.651452e-95
373.90 1.651452e-95
374.00 1.651452e-95
374.10 1.651452e-95
374.20 1.651452e-95
374.30 1.651452e-95
374.40 1.651452e-95
374.50 1.651452e-95
374.60 1.651452e-95
374.70 1.651452e-95
374.80 1.651452e-95
374.90 1.651452e-95
375.00 1.651452e-95
375.10 1.651452e-95
375.20 1.651452e-95
375.30 1.651452e-95
375.40 1.651452e-95
375.50 1.651452e-95
375.60 1.651452e-95
375.70 1.651452e-95
375.80 1.651452e-95
375.90 1.651452e-95
376.00 1.651452e-95
376.10 1.651452e-95
376.20 1.651452e-95
376.30 1.651452e-95
376.40 1.651452e-95
376.50 1.651452e-95
376.60 1.651452e-95
376.70 1.651452e-95
376.80 1.651452e-95
376.90 1.651452e-95
377.00 1.651452e-95
377.10 1.651452e-95
377.20 1.651452e-95
377.30 1.651452e-95
377.40 1.651452e-95
377.50 1.651452e-95
377.60 1.651452e-95
377.70 1.651452e-95
377.80 1.651452e-95
377.90 1.651452e-95
378.00 1.651452e-95
378.10 1.651452e-95
378.20 1.651452e-95
378.30 1.651452e-95
378.40 1.651452e-95
378.50 1.651452e-95
378.60 1.651452e-95
378.70 1.651452e-95
378.80 1.651452e-95
378.90 1.651452e-95
379.00 1.651452e-95
379.10 1.651452e-95
379.20 1.651452e-95
379.30 1.651452e-95
379.40 1.651452e-95
379.50 1.651452e-95
379.60 1.651452e-95
379.70 1.651452e-95
379.80 1.651452e-95
379.90 1.651452e-95
380.00 1.651452e-95
380.10 1.651452e-95
380.20 1.651452e-95
380.30 1.651452e-95
380.40 1.651452e-95
380.50 1.651452e-95
380.60 1.651452e-95
380.70 1.651452e-95
380.80 1.651452e-95
380.90 1.651452e-95
381.00 1.651452e-95
381.10 1.651452e-95
381.20 1.651452e-95
381.30 1.651452e-95
381.40 1.651452e-95
381.50 1.651452e-95
381.60 1.651452e-95
381.70 1.651452e-95
381.80 1.651452e-95
381.90 1.651452e-95
382.00 1.651452e-95
382.10 1.651452e-95
382.20 1.651452e-95
382.30 1.651452e-95
382.40 1.651452e-95
382.50 1.651452e-95
382.60 1.651452e-95
382.70 1.651452e-95
382.80 1.651452e-95
382.90 1.651452e-95
383.00 1.651452e-95
383.10 1.651452e-95
383.20 1.651452e-95
383.30 1.651452e-95
383.40 1.651452e-95
383.50 1.651452e-95
383.60 1.651452e-95
383.70 1.651452e-95
383.80 1.651452e-95
383.90 1.651452e-95
384.00 1.651452e-95
384.10 1.651452e-95
384.20 1.651452e-95
384.30 1.651452e-95
384.40 1.651452e-95
384.50 1.651452e-95
384.60 1.651452e-95
384.70 1.651452e-95
384.80 1.651452e-95
384.90 1.651452e-95
385.00 1.651452e-95
385.10 1.651452e-95
385.20 1.651452e-95
385.30 1.651452e-95
385.40 1.651452e-95
385.50 1.651452e-95
385.60 1.651452e-95
385.70 1.651452e-95
385.80 1.651452e-95
385.90 1.651452e-95
386.00 1.651452e-95
386.10 1.651452e-95
386.20 1.651452e-95
386.30 1.651452e-95
386.40 1.651452e-95
386.50 1.651452e-95
386.60 1.651452e-95
386.70 1.651452e-95
386.80 1.651452e-95
386.90 1.651452e-95
387.00 1.651452e-95
387.10 1.651452e-95
387.20 1.651452e-95
387.30 1.651452e-95
387.40 1.651452e-95
387.50 1.651452e-95
387.60 1.651452e-95
387.70 1.651452e-95
387.80 1.651452e-95
387.90 1.651452e-95
388.00 1.651452e-95
388.10 1.651452e-95
388.20 1.651452e-95
388.30 1.651452e-95
388.40 1.651452e-95
388.50 1.651452e-95
388.60 1.651452e-95
388.70 1.651452e-95
388.80 1.651452e-95
388.90 1.651452e-95
389.00 1.651452e-95
389.10 1.651452e-95
389.20 1.651452e-95
389.30 1.651452e-95
389.40 1.651452e-95
389.50 1.651452e-95
389.60 1.651452e-95
389.70 1.651452e-95
389.80 1.651452e-95
389.90 1.651452e-95
390.00 1.651452e-95
390.10 1.651452e-95
390.20 1.651452e-95
390.30 1.651452e-95
390.40 1.651452e-95
390.50 1.651452e-95
390.60 1.651452e-95
390.70 1.651452e-95
390.80 1.651452e-95
390.90 1.651452e-95
391.00 1.651452e-95
391.10 1.651452e-95
391.20 1.651452e-95
391.30 1.651452e-95
391.40 1.651452e-95
391.50 1.651452e-95
391.60 1.651452e-95
391.70 1.651452e-95
391.80 1.651452e-95
391.90 1.651452e-95
392.00 1.651452e-95
392.10 1.651452e-95
392.20 1.651452e-95
392.30 1.651452e-95
392.40 1.651452e-95
392.50 1.651452e-95
392.60 1.651452e-95
392.70 1.651452e-95
392.80 1.651452e-95
392.90 1.651452e-95
393.00 1.651452e-95
393.10 1.651452e-95
393.20 1.651452e-95
393.30 1.651452e-95
393.40 1.651452e-95
393.50 1.651452e-95
393.60 1.651452e-95
393.70 1.651452e-95
393.80 1.651452e-95
393.90 1.651452e-95
394.00 1.651452e-95
394.10 1.651452e-95
394.20 1.651452e-95
394.30 1.651452e-95
394.40 1.651452e-95
394.50 1.651452e-95
394.60 1.651452e-95
394.70 1.651452e-95
394.80 1.651452e-95
394.90 1.651452e-95
395.00 0.009431523
395.10 0.009431523
395.20 0.009431523
395.30 0.009431523
395.40 0.009431523
395.50 0.009431523
395.60 0.009431523
395.70 0.009431523
395.80 0.009431523
395.90 0.009431523
396.00 0.009431523
396.10 0.009431523
396.20 0.009431523
396.30 0.009431523
396.40 0.009431523
396.50 0.009431523
396.60 0.009431523
396.70 0.009431523
396.80 0.009431523
396.90 0.009431523
397.00 0.009431523
397.10 0.009431523
397.20 0.009431523
397.30 0.009431523
397.40 0.009431523
397.50 0.009431523
397.60 0.01375027
397.70 0.027242
397.80 0.05349853
397.90 0.09276582
398.00 0.1424331
398.10 0.1979819
398.20 0.2532676
398.30 0.3023431
398.40 0.3420894
398.50 0.3727481
398.60 0.3977887
398.70 0.4232659
398.80 0.4564887
398.90 0.5037416
399.00 0.5685533
399.10 0.6518608
399.20 0.7516234
399.30 0.863157
399.40 0.9792986
399.50 1.091078
399.60 1.190477
399.70 1.271501
399.80 1.330331
399.90 1.364564
400.00 1.372973
400.10 1.372973
400.20 1.372973
400.30 1.372973
400.40 1.372973
400.50 1.372973
400.60 1.372973
400.70 1.372973
400.80 1.372973
400.90 1.372973
401.00 1.372973
401.10 1.375207
401.20 1.383959
401.30 1.400522
401.40 1.426616
401.50 1.463265
401.60 1.507881
401.70 1.555094
401.80 1.598799
401.90 1.633988
402.00 1.658362
402.10 1.672469
402.20 1.67922
402.30 1.684173
402.40 1.693343
402.50 1.709357
402.60 1.733093
402.70 1.765865
402.80 1.807642
402.90 1.856184
403.00 1.908489
403.10 1.961699
403.20 2.013975
403.30 2.065609
403.40 2.119146
403.50 2.177187
403.60 2.240934
403.70 2.309394
403.80 2.379684
403.90 2.448584
404.00 2.513417
404.10 2.57284
404.20 2.626617
404.30 2.675684
404.40 2.722227
404.50 2.769178
404.60 2.818866
404.70 2.870799
404.80 2.92254
404.90 2.972667
405.00 3.011081
405.10 3.056031
405.20 3.099252
405.30 3.143388
405.40 3.188997
405.50 3.233678
405.60 3.27418
405.70 3.307842
405.80 3.332591
405.90 3.34732
406.00 3.352681
406.10 3.352681
406.20 3.352681
406.30 3.352681
406.40 3.352681
406.50 3.352681
406.60 3.352681
406.70 3.352681
406.80 3.352681
406.90 3.352681
407.00 3.352681
407.10 3.352681
407.20 3.352681
407.30 3.352681
407.40 3.352681
407.50 3.352681
407.60 3.348362
407.70 3.33487
407.80 3.308614
407.90 3.269346
408.00 3.219679
408.10 3.16413
408.20 3.108845
408.30 3.059769
408.40 3.020023
408.50 2.989364
408.60 2.964324
408.70 2.938846
408.80 2.907498
408.90 2.866927
409.00 2.811902
409.10 2.739431
409.20 2.64982
409.30 2.546716
409.40 2.436454
409.50 2.327176
409.60 2.227776
409.70 2.146752
409.80 2.087922
409.90 2.05369
410.00 2.04528
410.10 2.04528
410.20 2.04528
410.30 2.04528
410.40 2.04528
410.50 2.04528
410.60 2.053369
410.70 2.075275
410.80 2.112191
410.90 2.16241
411.00 2.22213
411.10 2.28368
411.20 2.336495
411.30 2.373334
411.40 2.388016
411.50 2.378493
411.60 2.350154
411.70 2.31334
411.80 2.278059
411.90 2.251659
412.00 2.238307
412.10 2.237056
412.20 2.243019
412.30 2.248865
412.40 2.247076
412.50 2.233351
412.60 2.209614
412.70 2.176842
412.80 2.135066
412.90 2.086524
413.00 2.034219
413.10 1.981009
413.20 1.928732
413.30 1.877098
413.40 1.823562
413.50 1.765521
413.60 1.701774
413.70 1.633314
413.80 1.563024
413.90 1.494123
414.00 1.429291
414.10 1.369868
414.20 1.316091
414.30 1.267024
414.40 1.220481
414.50 1.17353
414.60 1.123841
414.70 1.071908
414.80 1.020167
414.90 0.9700402
415.00 0.9221955
415.10 0.8772448
415.20 0.8340244
415.30 0.789888
415.40 0.7442788
415.50 0.6995985
415.60 0.6590964
415.70 0.6254346
415.80 0.6006847
415.90 0.5893727
416.00 0.5958729
416.10 0.6179419
416.20 0.6509618
416.30 0.6948746
416.40 0.748502
416.50 0.8091661
416.60 0.872487
416.70 0.9334162
416.80 0.9874207
416.90 1.031372
417.00 1.064185
417.10 1.086148
417.20 1.09789
417.30 1.100103
417.40 1.100103
417.50 1.100103
417.60 1.100103
417.70 1.100103
417.80 1.100103
417.90 1.100103
418.00 1.100103
418.10 1.100103
418.20 1.100103
418.30 1.100103
418.40 1.100103
418.50 1.100103
418.60 1.100103
418.70 1.100103
418.80 1.098228
418.90 1.091546
419.00 1.081761
419.10 1.070924
419.20 1.060772
419.30 1.052343
419.40 1.046463
419.50 1.043962
419.60 1.043962
419.70 1.043962
419.80 1.043962
419.90 1.043962
420.00 1.043962
420.10 1.043962
420.20 1.043962
420.30 1.043962
420.40 1.043962
420.50 1.043962
420.60 1.035873
420.70 1.013967
420.80 0.9770513
420.90 0.926832
421.00 0.8671123
421.10 0.8033285
421.20 0.7417614
421.30 0.6883601
421.40 0.6475835
421.50 0.6223966
421.60 0.6143564
421.70 0.6174394
421.80 0.6262325
421.90 0.6382236
422.00 0.6518926
422.10 0.6668887
422.20 0.6841129
422.30 0.703973
422.40 0.7257916
422.50 0.7490739
422.60 0.7689074
422.70 0.7808066
422.80 0.7835034
422.90 0.7835034
423.00 0.7835034
423.10 0.7835034
423.20 0.7835034
423.30 0.7835034
423.40 0.7835034
423.50 0.7835034
423.60 0.7835034
423.70 0.7835034
423.80 0.7835034
423.90 0.7835034
424.00 0.7835034
424.10 0.7835034
424.20 0.7835034
424.30 0.7835034
424.40 0.7835034
424.50 0.7853065
424.60 0.7978232
424.70 0.8233108
424.80 0.8621677
424.90 0.9131592
425.00 0.9739011
425.10 1.040451
425.20 1.107613
425.30 1.170405
425.40 1.224585
425.50 1.267058
425.60 1.297746
425.70 1.319747
425.80 1.337523
425.90 1.352489
426.00 1.362731
426.10 1.366837
426.20 1.363359
426.30 1.351211
426.40 1.329792
426.50 1.300183
426.60 1.265679
426.70 1.230754
426.80 1.199954
426.90 1.176682
427.00 1.161332
427.10 1.151274
427.20 1.143615
427.30 1.141402
427.40 1.141402
427.50 1.141402
427.60 1.141402
427.70 1.141402
427.80 1.141402
427.90 1.141402
428.00 1.141402
428.10 1.141402
428.20 1.141402
428.30 1.141402
428.40 1.141402
428.50 1.141402
428.60 1.141402
428.70 1.141402
428.80 1.141402
428.90 1.141402
429.00 1.141402
429.10 1.141402
429.20 1.141402
429.30 1.14852
429.40 1.163177
429.50 1.184153
429.60 1.211657
429.70 1.246145
429.80 1.286949
429.90 1.333521
430.00 1.386019
430.10 1.443635
430.20 1.503625
430.30 1.5617
430.40 1.612643
430.50 1.651114
430.60 1.67427
430.70 1.684256
430.80 1.689092
430.90 1.69825
431.00 1.717439
431.10 1.748735
431.20 1.790971
431.30 1.8383
431.40 1.88155
431.50 1.910511
431.60 1.9155
431.70 1.902018
431.80 1.884801
431.90 1.86402
432.00 1.839329
432.10 1.811476
432.20 1.781539
432.30 1.750879
432.40 1.721681
432.50 1.696109
432.60 1.676276
432.70 1.664377
432.80 1.66168
432.90 1.66168
433.00 1.66168
433.10 1.66168
433.20 1.66168
433.30 1.66168
433.40 1.66168
433.50 1.66168
433.60 1.66168
433.70 1.66168
433.80 1.66168
433.90 1.66168
434.00 1.66168
434.10 1.66168
434.20 1.66168
434.30 1.66168
434.40 1.66168
434.50 1.659877
434.60 1.64736
434.70 1.621872
434.80 1.583016
434.90 1.532024
435.00 1.471282
435.10 1.404732
435.20 1.33757
435.30 1.274778
435.40 1.220599
435.50 1.178125
435.60 1.147437
435.70 1.125436
435.80 1.10766
435.90 1.089278
436.00 1.067175
436.10 1.041
436.20 1.012333
436.30 0.9817026
436.40 0.9506935
436.50 0.9220663
436.60 0.8991527
436.70 0.8846988
436.80 0.8799339
436.90 0.8845264
437.00 0.8965505
437.10 0.9131513
437.20 0.9309482
437.30 0.9417632
437.40 0.9417632
437.50 0.9417632
437.60 0.9417632
437.70 0.9417632
437.80 0.9417632
437.90 0.9417632
438.00 0.9417632
438.10 0.9417632
438.20 0.9417632
438.30 0.9423387
438.40 0.9428699
438.50 0.9428699
438.60 0.9428699
438.70 0.9430475
438.80 0.9438991
438.90 0.944822
439.00 0.9448629
439.10 0.9448629
439.20 0.9448629
439.30 0.9377447
439.40 0.9230879
439.50 0.9021122
439.60 0.8746075
439.70 0.8401199
439.80 0.7993162
439.90 0.759253
440.00 0.7203236
440.10 0.6812807
440.20 0.6419515
440.30 0.6031098
440.40 0.5670155
440.50 0.5379332
440.60 0.5191966
440.70 0.5102319
440.80 0.5053966
440.90 0.4962385
441.00 0.4770491
441.10 0.4457536
441.20 0.4035175
441.30 0.3561884
441.40 0.312938
441.50 0.2820377
441.60 0.2688129
441.70 0.2688129
441.80 0.2688129
441.90 0.2688129
442.00 0.2688129
442.10 0.2688129
442.20 0.2688129
442.30 0.2688129
442.40 0.2688129
442.50 0.2688129
442.60 0.2688129
442.70 0.2688129
442.80 0.2688129
442.90 0.2688129
443.00 0.2688129
443.10 0.2688129
443.20 0.2688129
443.30 0.2688129
443.40 0.2688129
443.50 0.2688129
443.60 0.2688129
443.70 0.2751833
443.80 0.2886872
443.90 0.3086145
444.00 0.335254
444.10 0.36859
444.20 0.4079949
444.30 0.4537303
444.40 0.5056061
444.50 0.5617076
444.60 0.6192783
444.70 0.6744006
444.80 0.7216184
444.90 0.7563947
445.00 0.7771404
445.10 0.784672
445.20 0.784672
445.30 0.784672
445.40 0.784672
445.50 0.784672
445.60 0.784672
445.70 0.784672
445.80 0.784672
445.90 0.784672
446.00 0.784672
446.10 0.784672
446.20 0.7837962
446.30 0.7826627
446.40 0.7814628
446.50 0.7790348
446.60 0.7731322
446.70 0.7615816
446.80 0.7431423
446.90 0.7178702
447.00 0.6883832
447.10 0.6598767
447.20 0.6379972
447.30 0.6333641
447.40 0.6557414
447.50 0.6940883
447.60 0.7455131
447.70 0.8052678
447.80 0.8676319
447.90 0.926855
448.00 0.9779449
448.10 1.017713
448.20 1.04539
448.30 1.061488
448.40 1.069302
448.50 1.072483
448.60 1.072819
448.70 1.072641
448.80 1.07179
448.90 1.070867
449.00 1.071304
449.10 1.074644
449.20 1.080783
449.30 1.088528
449.40 1.096212
449.50 1.101946
449.60 1.103708
449.70 1.103708
449.80 1.103708
449.90 1.097199
450.00 1.083631
450.10 1.065057
450.20 1.04524
450.30 1.033342
450.40 1.031642
450.50 1.039306
450.60 1.053458
450.70 1.070552
450.80 1.085389
450.90 1.092849
451.00 1.092849
451.10 1.092849
451.20 1.092849
451.30 1.092849
451.40 1.092849
451.50 1.092849
451.60 1.092849
451.70 1.092849
451.80 1.092849
451.90 1.092849
452.00 1.092849
452.10 1.092849
452.20 1.092849
452.30 1.092911
452.40 1.093459
452.50 1.093684
452.60 1.093684
452.70 1.093684
452.80 1.093684
452.90 1.093684
453.00 1.093684
453.10 1.093684
453.20 1.095648
453.30 1.102212
453.40 1.114095
453.50 1.131119
453.60 1.152903
453.70 1.17224
453.80 1.187922
453.90 1.200196
454.00 1.206549
454.10 1.203786
454.20 1.189906
454.30 1.163246
454.40 1.124063
454.50 1.075935
454.60 1.025353
454.70 0.9798946
454.80 0.9470684
454.90 0.931638
455.00 0.9333399
455.10 0.9485125
455.20 0.9684457
455.30 0.9837677
455.40 0.9950236
455.50 1.00364
455.60 1.010362
455.70 1.014892
455.80 1.016564
455.90 1.016564
456.00 1.016564
456.10 1.016564
456.20 1.016564
456.30 1.016564
456.40 1.016564
456.50 1.016564
456.60 1.016564
456.70 1.016564
456.80 1.016564
456.90 1.016564
457.00 1.016564
457.10 1.02293
457.20 1.041195
457.30 1.06352
457.40 1.076167
457.50 1.074891
457.60 1.058067
457.70 1.026712
457.80 0.9844052
457.90 0.9358098
458.00 0.8856798
458.10 0.8459119
458.20 0.8182344
458.30 0.8015609
458.40 0.7932155
458.50 0.7900353
458.60 0.7955252
458.70 0.811902
458.80 0.8386036
458.90 0.8742002
459.00 0.9144122
459.10 0.9526832
459.20 0.9851856
459.30 1.009138
459.40 1.023177
459.50 1.028075
459.60 1.026443
459.70 1.026443
459.80 1.026443
459.90 1.026443
460.00 1.026443
460.10 1.026443
460.20 1.0256
460.30 1.018265
460.40 1.005116
460.50 0.9880627
460.60 0.9694916
460.70 0.9513763
460.80 0.9365395
460.90 0.9290792
461.00 0.9290792
461.10 0.9290792
461.20 0.9290792
461.30 0.9290792
461.40 0.9290792
461.50 0.9290792
461.60 0.9290792
461.70 0.9317504
461.80 0.9365426
461.90 0.9411499
462.00 0.9434608
462.10 0.9434608
462.20 0.9434608
462.30 0.9433992
462.40 0.9428506
462.50 0.942626
462.60 0.942626
462.70 0.942626
462.80 0.942626
462.90 0.942626
463.00 0.942626
463.10 0.942626
463.20 0.9406618
463.30 0.9371325
463.40 0.9340077
463.50 0.9305342
463.60 0.9255118
463.70 0.9178733
463.80 0.9058558
463.90 0.8875131
464.00 0.8625921
464.10 0.832038
464.20 0.8065134
464.30 0.7874378
464.40 0.7747449
464.50 0.7667716
464.60 0.7597829
464.70 0.7501967
464.80 0.7485322
464.90 0.7532927
465.00 0.7631383
465.10 0.7765748
465.20 0.7921161
465.30 0.8083766
465.40 0.8234067
465.50 0.8360053
465.60 0.8473612
465.70 0.8598218
465.80 0.8754223
465.90 0.8940511
466.00 0.9142179
466.10 0.9349672
466.20 0.9550113
466.30 0.9731585
466.40 0.9879021
466.50 0.9976172
466.60 1.001056
466.70 1.001056
466.80 1.001056
466.90 1.001056
467.00 1.001056
467.10 0.9946896
467.20 0.9764242
467.30 0.9479175
467.40 0.9128932
467.50 0.8758222
467.60 0.8412219
467.70 0.8132749
467.80 0.7975754
467.90 0.7953998
468.00 0.8075696
468.10 0.8257321
468.20 0.8485723
468.30 0.874086
468.40 0.8991077
468.50 0.9206519
468.60 0.9301127
468.70 0.9203088
468.80 0.8936072
468.90 0.8580106
469.00 0.8173202
469.10 0.775709
469.20 0.7370683
469.30 0.7053705
469.40 0.6836472
469.50 0.6730156
469.60 0.680275
469.70 0.6981289
469.80 0.7254913
469.90 0.7587467
470.00 0.7930727
470.10 0.8234693
470.20 0.8455748
470.30 0.8570387
470.40 0.8588224
470.50 0.8588224
470.60 0.8588224
470.70 0.8588224
470.80 0.8588224
470.90 0.865264
471.00 0.8812263
471.10 0.9048169
471.20 0.9327844
471.30 0.9618964
471.40 0.9896277
471.50 1.014045
471.60 1.03335
471.70 1.042883
471.80 1.040974
471.90 1.036367
472.00 1.034056
472.10 1.034056
472.20 1.034056
472.30 1.034056
472.40 1.034056
472.50 1.034056
472.60 1.034056
472.70 1.034056
472.80 1.034056
472.90 1.034056
473.00 1.034056
473.10 1.034056
473.20 1.034056
473.30 1.031021
473.40 1.022263
473.50 1.008712
473.60 0.9919516
473.70 0.9738823
473.80 0.9567136
473.90 0.942855
474.00 0.9347838
474.10 0.934765
474.20 0.934765
474.30 0.934765
474.40 0.934765
474.50 0.934765
474.60 0.934765
474.70 0.9346871
474.80 0.92196
474.90 0.8978537
475.00 0.8655604
475.10 0.8294197
475.20 0.7939452
475.30 0.7623627
475.40 0.7360768
475.50 0.7148621
475.60 0.696784
475.70 0.6797933
475.80 0.662521
475.90 0.6438921
476.00 0.6237254
476.10 0.6045582
476.20 0.5927679
476.30 0.5896257
476.40 0.5974187
476.50 0.6184046
476.60 0.6535869
476.70 0.6984629
476.80 0.7460611
476.90 0.7909607
477.00 0.8269221
477.10 0.8495494
477.20 0.8576001
477.30 0.8576001
477.40 0.8576001
477.50 0.8576001
477.60 0.8576001
477.70 0.8571475
477.80 0.8527893
477.90 0.8443371
478.00 0.8312075
478.10 0.813045
478.20 0.7964581
478.30 0.788129
478.40 0.7910224
478.50 0.8054325
478.60 0.829607
478.70 0.8603625
478.80 0.8904275
478.90 0.9105571
479.00 0.9209417
479.10 0.9234243
479.20 0.9234243
479.30 0.9234243
479.40 0.9234243
479.50 0.9234243
479.60 0.9160951
479.70 0.899904
479.80 0.8762805
479.90 0.8496695
480.00 0.825184
480.10 0.8076843
480.20 0.8010302
480.30 0.8061052
480.40 0.8200817
480.50 0.8336521
480.60 0.8439622
480.70 0.8504311
480.80 0.8541001
480.90 0.8511495
481.00 0.8415271
481.10 0.8295845
481.20 0.8208728
481.30 0.8219033
481.40 0.8388197
481.50 0.8753238
481.60 0.9318028
481.70 1.005895
481.80 1.093248
481.90 1.179987
482.00 1.256639
482.10 1.318267
482.20 1.361966
482.30 1.387726
482.40 1.398901
482.50 1.400774
482.60 1.400774
482.70 1.400774
482.80 1.400774
482.90 1.400774
483.00 1.400774
483.10 1.400774
483.20 1.400774
483.30 1.400774
483.40 1.400774
483.50 1.400774
483.60 1.400774
483.70 1.400774
483.80 1.400774
483.90 1.400774
484.00 1.400774
484.10 1.400774
484.20 1.401606
484.30 1.403458
484.40 1.405738
484.50 1.40731
484.60 1.40731
484.70 1.40731
484.80 1.40731
484.90 1.40731
485.00 1.40731
485.10 1.40731
485.20 1.40731
485.30 1.40731
485.40 1.40731
485.50 1.40731
485.60 1.40731
485.70 1.40731
485.80 1.40731
485.90 1.40731
486.00 1.40731
486.10 1.405728
486.20 1.397474
486.30 1.382469
486.40 1.359932
486.50 1.329231
486.60 1.29061
486.70 1.245734
486.80 1.198136
486.90 1.153236
487.00 1.117275
487.10 1.094648
487.20 1.086597
487.30 1.086597
487.40 1.086597
487.50 1.086597
487.60 1.086597
487.70 1.086597
487.80 1.086597
487.90 1.086597
488.00 1.086597
488.10 1.086597
488.20 1.080344
488.30 1.063159
488.40 1.035244
488.50 0.9992898
488.60 0.9598285
488.70 0.9225
488.80 0.8972939
488.90 0.8852728
489.00 0.8833424
489.10 0.8879731
489.20 0.8930754
489.30 0.8959193
489.40 0.8969571
489.50 0.8970648
489.60 0.8970041
489.70 0.896772
489.80 0.89886
489.90 0.9042395
490.00 0.9124323
490.10 0.9225975
490.20 0.9339765
490.30 0.9461423
490.40 0.9583688
490.50 0.9692609
490.60 0.9766186
490.70 0.9771879
490.80 0.973519
490.90 0.970028
491.00 0.9636881
491.10 0.9520401
491.20 0.9327842
491.30 0.9026418
491.40 0.8579941
491.50 0.7970724
491.60 0.721289
491.70 0.6349923
491.80 0.5447558
491.90 0.4580166
492.00 0.3813642
492.10 0.3197365
492.20 0.2760373
492.30 0.2502772
492.40 0.2391028
492.50 0.2372292
492.60 0.2418146
492.70 0.2520775
492.80 0.2666921
492.90 0.2848972
493.00 0.3062593
493.10 0.3293277
493.20 0.3524321
493.30 0.3741
493.40 0.3935118
493.50 0.4117144
493.60 0.4309893
493.70 0.4529473
493.80 0.4771276
493.90 0.5023354
494.00 0.5272683
494.10 0.5496644
494.20 0.5659594
494.30 0.5736406
494.40 0.5722688
494.50 0.5706972
494.60 0.5706972
494.70 0.5706972
494.80 0.5706972
494.90 0.5706972
495.00 0.5706972
495.10 0.5706972
495.20 0.5714339
495.30 0.5763418
495.40 0.5821504
495.50 0.5858456
495.60 0.5858456
495.70 0.5858456
495.80 0.5858456
495.90 0.5858456
496.00 0.5858456
496.10 0.5858456
496.20 0.5858456
496.30 0.5858456
496.40 0.5858456
496.50 0.5858456
496.60 0.5858456
496.70 0.5858456
496.80 0.589186
496.90 0.5968573
497.00 0.6086319
497.10 0.6246311
497.20 0.6452827
497.30 0.6706287
497.40 0.7002591
497.50 0.7333421
497.60 0.7684612
497.70 0.8040235
497.80 0.8382018
497.90 0.8692638
498.00 0.895555
498.10 0.91553
498.20 0.9285706
498.30 0.9347588
498.40 0.9347588
498.50 0.9347588
498.60 0.9347588
498.70 0.9347588
498.80 0.9298999
498.90 0.9217914
499.00 0.9133372
499.10 0.9062239
499.20 0.9020946
499.30 0.9109093
499.40 0.9312638
499.50 0.9591042
499.60 0.9885441
499.70 1.01256
499.80 1.023671
499.90 1.018033
500.00 1
500.10 0.9769378
500.20 0.9501076
500.30 0.9214029
500.40 0.8934161
500.50 0.8689535
500.60 0.8512858
500.70 0.8442475
500.80 0.8442475
500.90 0.8442475
501.00 0.8442475
501.10 0.8442475
501.20 0.8442475
501.30 0.8442475
501.40 0.8442475
501.50 0.8507557
501.60 0.8667982
501.70 0.8915024
501.80 0.9225671
501.90 0.9568241
502.00 0.9911955
502.10 1.023128
502.20 1.050283
502.30 1.070677
502.40 1.082634
502.50 1.085192
502.60 1.080607
502.70 1.070344
502.80 1.055729
502.90 1.037524
503.00 1.016162
503.10 0.9930936
503.20 0.9699892
503.30 0.9483212
503.40 0.9289094
503.50 0.9107068
503.60 0.8914319
503.70 0.8694739
503.80 0.8452937
503.90 0.8200859
504.00 0.7951529
504.10 0.7731486
504.20 0.7577661
504.30 0.7492703
504.40 0.7483619
504.50 0.7483619
504.60 0.7483619
504.70 0.7483619
504.80 0.7483619
504.90 0.7483619
505.00 0.7483619
505.10 0.7497181
505.20 0.7512434
505.30 0.7477998
505.40 0.742109
505.50 0.7384138
505.60 0.7393823
505.70 0.7430033
505.80 0.7499865
505.90 0.7609368
506.00 0.7765649
506.10 0.7969538
506.20 0.8212066
506.30 0.8476548
506.40 0.8740527
506.50 0.8984424
506.60 0.9198777
506.70 0.9384504
506.80 0.9511812
506.90 0.9569924
507.00 0.9562867
507.10 0.9500912
507.20 0.9391738
507.30 0.9239336
507.40 0.9037094
507.50 0.877045
507.60 0.8431251
507.70 0.8075628
507.80 0.7733845
507.90 0.7423224
508.00 0.7160313
508.10 0.6960562
508.20 0.6830156
508.30 0.6768275
508.40 0.6768275
508.50 0.6768275
508.60 0.6768275
508.70 0.6768275
508.80 0.6768275
508.90 0.6768275
509.00 0.6787564
509.10 0.6931349
509.20 0.719414
509.30 0.7463526
509.40 0.7711308
509.50 0.7915485
509.60 0.807097
509.70 0.8185246
509.80 0.8270813
509.90 0.8335311
510.00 0.8345979
510.10 0.8345979
510.20 0.8345979
510.30 0.8345979
510.40 0.8345979
510.50 0.8345979
510.60 0.8345979
510.70 0.8345979
510.80 0.8363784
510.90 0.842186
511.00 0.851129
511.10 0.862287
511.20 0.8747697
511.30 0.8877951
511.40 0.9002991
511.50 0.9045569
511.60 0.8970995
511.70 0.8789839
511.80 0.8531329
511.90 0.8241448
512.00 0.7972784
512.10 0.7762948
512.20 0.7640326
512.30 0.7634561
512.40 0.7765015
512.50 0.8032474
512.60 0.8346796
512.70 0.8657056
512.80 0.8949987
512.90 0.9216141
513.00 0.9437248
513.10 0.9595273
513.20 0.9681277
513.30 0.9697129
513.40 0.9697129
513.50 0.9697129
513.60 0.9697129
513.70 0.9697129
513.80 0.9697129
513.90 0.9697129
514.00 0.9697129
514.10 0.969321
514.20 0.9675774
514.30 0.9665397
514.40 0.9688358
514.50 0.9725776
514.60 0.9768427
514.70 0.9804609
514.80 0.9816959
514.90 0.9816959
515.00 0.9816959
515.10 0.9803397
515.20 0.9780778
515.30 0.9766134
515.40 0.9776283
515.50 0.9806093
515.60 0.9823365
515.70 0.9798089
515.80 0.9728256
515.90 0.9622558
516.00 0.9488307
516.10 0.9335557
516.20 0.9178183
516.30 0.9030994
516.40 0.8905207
516.50 0.8796304
516.60 0.8683844
516.70 0.8540728
516.80 0.8380015
516.90 0.824519
517.00 0.8134501
517.10 0.8036465
517.20 0.7939122
517.30 0.7838065
517.40 0.7744002
517.50 0.7679817
517.60 0.7667825
517.70 0.7667825
517.80 0.7667825
517.90 0.7667825
518.00 0.7667825
518.10 0.7667825
518.20 0.7667825
518.30 0.7667825
518.40 0.7667825
518.50 0.7667825
518.60 0.7667825
518.70 0.7667825
518.80 0.7667825
518.90 0.7667825
519.00 0.7678129
519.10 0.7589722
519.20 0.7370018
519.30 0.7006036
519.40 0.6544332
519.50 0.6060675
519.60 0.561079
519.70 0.524205
519.80 0.4987103
519.90 0.4858741
520.00 0.4848074
520.10 0.4848074
520.20 0.4848074
520.30 0.4848074
520.40 0.4848074
520.50 0.4848074
520.60 0.4848074
520.70 0.4848074
520.80 0.4830269
520.90 0.4772193
521.00 0.4712972
521.10 0.4707112
521.20 0.4759028
521.30 0.4863012
521.40 0.5009497
521.50 0.5180656
521.60 0.5340341
521.70 0.5449363
521.80 0.5484623
521.90 0.5435587
522.00 0.5360539
522.10 0.5251052
522.20 0.5102124
522.30 0.4903948
522.40 0.4653925
522.50 0.4360882
522.60 0.4071531
522.70 0.3811923
522.80 0.3587415
522.90 0.3401164
523.00 0.3276137
523.10 0.324259
523.20 0.3314514
523.30 0.3489512
523.40 0.3710581
523.50 0.3956129
523.60 0.422549
523.70 0.4517489
523.80 0.4819698
523.90 0.5113066
524.00 0.5371277
524.10 0.5563994
524.20 0.5665909
524.30 0.5665909
524.40 0.5642948
524.50 0.560553
524.60 0.5562879
524.70 0.5526697
524.80 0.5514347
524.90 0.5514347
525.00 0.5514347
525.10 0.5514347
525.20 0.5514347
525.30 0.5520635
525.40 0.5545587
525.50 0.5583022
525.60 0.5663282
525.70 0.5809381
525.80 0.6018379
525.90 0.6264256
526.00 0.6506859
526.10 0.6698457
526.20 0.6792947
526.30 0.6754228
526.40 0.6616036
526.50 0.6481042
526.60 0.6379149
526.70 0.6336539
526.80 0.6336539
526.90 0.6336539
527.00 0.6336539
527.10 0.6336539
527.20 0.6336539
527.30 0.6336539
527.40 0.6336539
527.50 0.6344538
527.60 0.6351137
527.70 0.6351137
527.80 0.6351137
527.90 0.6351137
528.00 0.6351137
528.10 0.6351137
528.20 0.6351137
528.30 0.6351137
528.40 0.6351137
528.50 0.6351137
528.60 0.6351137
528.70 0.6351137
528.80 0.6351137
528.90 0.6351137
529.00 0.6321544
529.10 0.6266165
529.20 0.6213349
529.30 0.6191358
529.40 0.6191358
529.50 0.6191358
529.60 0.6191358
529.70 0.6191358
529.80 0.6191358
529.90 0.6191358
530.00 0.6191358
530.10 0.6191358
530.20 0.6191358
530.30 0.6191358
530.40 0.6191358
530.50 0.6191358
530.60 0.6191358
530.70 0.6191358
530.80 0.6191358
530.90 0.6202542
531.00 0.6200633
531.10 0.6140771
531.20 0.6021353
531.30 0.5844039
531.40 0.5616105
531.50 0.5352222
531.60 0.5106685
531.70 0.4931778
531.80 0.4844381
531.90 0.4840726
532.00 0.4840726
532.10 0.4885475
532.20 0.5002594
532.30 0.5167916
532.40 0.5346096
532.50 0.5499529
532.60 0.5568395
532.70 0.5534694
532.80 0.5466271
532.90 0.5386368
533.00 0.5290288
533.10 0.5199117
533.20 0.5156071
533.30 0.5152563
533.40 0.517121
533.50 0.5188049
533.60 0.5167797
533.70 0.5083179
533.80 0.4928225
533.90 0.4712395
534.00 0.4461973
534.10 0.4269256
534.20 0.4167341
534.30 0.4167341
534.40 0.4167341
534.50 0.4167341
534.60 0.4167341
534.70 0.4167341
534.80 0.4167341
534.90 0.4167341
535.00 0.4167341
535.10 0.4167341
535.20 0.4167341
535.30 0.4161053
535.40 0.4124774
535.50 0.4099518
535.60 0.4074654
535.70 0.4029762
535.80 0.3947227
535.90 0.3817668
536.00 0.3645898
536.10 0.3454175
536.20 0.3276574
536.30 0.3197999
536.40 0.3197999
536.50 0.3197999
536.60 0.3197999
536.70 0.3197999
536.80 0.3197999
536.90 0.3197999
537.00 0.3197999
537.10 0.3197999
537.20 0.3197999
537.30 0.3197999
537.40 0.3197999
537.50 0.319
537.60 0.3183401
537.70 0.3222944
537.80 0.3352245
537.90 0.3551917
538.00 0.3799555
538.10 0.4063916
538.20 0.4307647
538.30 0.4497783
538.40 0.4621124
538.50 0.4684434
538.60 0.4704171
538.70 0.4704171
538.80 0.4704171
538.90 0.4705832
539.00 0.4743066
539.10 0.4830058
539.20 0.4971666
539.30 0.5158386
539.40 0.5370775
539.50 0.5587832
539.60 0.5790774
539.70 0.5964955
539.80 0.6095725
539.90 0.6174414
540.00 0.6207584
540.10 0.6216914
540.20 0.6231069
540.30 0.6274579
540.40 0.6357653
540.50 0.6471615
540.60 0.6597403
540.70 0.6719006
540.80 0.6828055
540.90 0.6914957
541.00 0.6987517
541.10 0.7065985
541.20 0.7179037
541.30 0.7364538
541.40 0.7648454
541.50 0.8029645
541.60 0.8456593
541.70 0.8867253
541.80 0.9217661
541.90 0.9478532
542.00 0.9638711
542.10 0.9652873
542.20 0.9535754
542.30 0.9370432
542.40 0.9192252
542.50 0.9038819
542.60 0.8944983
542.70 0.8928032
542.80 0.8982966
542.90 0.9103476
543.00 0.928005
543.10 0.9467726
543.20 0.9601993
543.30 0.9674435
543.40 0.9689626
543.50 0.9662588
543.60 0.9610701
543.70 0.9543609
543.80 0.9473785
543.90 0.9420494
544.00 0.9412705
544.10 0.9412705
544.20 0.9412705
544.30 0.9412705
544.40 0.9412705
544.50 0.9412705
544.60 0.9412705
544.70 0.9412705
544.80 0.9412705
544.90 0.9412705
545.00 0.9412705
545.10 0.9412705
545.20 0.9412705
545.30 0.9412705
545.40 0.9412705
545.50 0.9370716
545.60 0.9288363
545.70 0.9176223
545.80 0.904976
545.90 0.8929639
546.00 0.8836775
546.10 0.878576
546.20 0.8783718
546.30 0.8783718
546.40 0.8783718
546.50 0.8783718
546.60 0.8783718
546.70 0.8783718
546.80 0.8783718
546.90 0.8783718
547.00 0.8783718
547.10 0.8783718
547.20 0.8783718
547.30 0.8783718
547.40 0.8783718
547.50 0.8794595
547.60 0.8831426
547.70 0.8853059
547.80 0.8800867
547.90 0.8685435
548.00 0.8520397
548.10 0.833209
548.20 0.8159662
548.30 0.8037625
548.40 0.7982162
548.50 0.7995449
548.60 0.8077974
548.70 0.8223946
548.80 0.8419321
548.90 0.8651331
549.00 0.8864919
549.10 0.9023298
549.20 0.9103585
549.30 0.9103152
549.40 0.9035436
549.50 0.8915936
549.60 0.8754325
549.70 0.8580145
549.80 0.8449374
549.90 0.8370685
550.00 0.4148402
550.10 0.3595943
550.20 0.2973072
550.30 0.2323615
550.40 0.1686346
550.50 0.1125165
550.60 0.07241887
550.70 0.05264057
550.80 0.05256001
550.90 0.06755827
551.00 0.08820826
551.10 0.1072217
551.20 0.1250475
551.30 0.1420724
551.40 0.1590418
551.50 0.1781911
551.60 0.2037565
551.70 0.2402495
551.80 0.2890932
551.90 0.347511
552.00 0.4102164
552.10 0.4715591
552.20 0.527033
552.30 0.5736048
552.40 0.609773
552.50 0.6341623
552.60 0.6444951
552.70 0.6444951
552.80 0.6444951
552.90 0.6444951
553.00 0.6444951
553.10 0.6444951
553.20 0.6444951
553.30 0.6444951
553.40 0.6444951
553.50 0.6444951
553.60 0.6444951
553.70 0.646039
553.80 0.6502486
553.90 0.6549343
554.00 0.6612404
554.10 0.6715844
554.20 0.6882051
554.30 0.7130405
554.40 0.7471203
554.50 0.7865668
554.60 0.8241663
554.70 0.856788
554.80 0.8847621
554.90 0.9098968
555.00 0.9352684
555.10 0.9642515
555.20 1.0096
555.30 1.090004
555.40 1.205847
555.50 1.367227
555.60 1.602542
555.70 1.926405
555.80 2.336394
555.90 2.815344
556.00 3.334057
556.10 3.854061
556.20 4.33444
556.30 4.741461
556.40 5.05489
556.50 5.273842
556.60 5.409387
556.70 5.476143
556.80 5.505589
556.90 5.526408
557.00 5.538896
557.10 5.542528
557.20 5.542528
557.30 5.542528
557.40 5.542528
557.50 5.55037
557.60 5.572464
557.70 5.61023
557.80 5.665039
557.90 5.740798
558.00 5.833776
558.10 5.936734
558.20 6.04457
558.30 6.154337
558.40 6.264094
558.50 6.374057
558.60 6.484954
558.70 6.593694
558.80 6.693258
558.90 6.776608
559.00 6.838687
559.10 6.876476
559.20 6.877168
559.30 6.823694
559.40 6.720133
559.50 6.559987
559.60 6.313438
559.70 5.961576
559.80 5.505449
559.90 4.968081
560.00 4.386662
560.10 3.805316
560.20 3.269462
560.30 2.81587
560.40 2.466273
560.50 2.222932
560.60 2.077054
560.70 2.010298
560.80 1.980851
560.90 1.960033
561.00 1.947545
561.10 1.943912
561.20 1.951651
561.30 1.968114
561.40 1.991573
561.50 2.013618
561.60 2.028407
561.70 2.032874
561.80 2.022998
561.90 1.995014
562.00 1.950306
562.10 1.893271
562.20 1.827666
562.30 1.755383
562.40 1.673913
562.50 1.577042
562.60 1.460653
562.70 1.328483
562.80 1.191131
562.90 1.061587
563.00 0.9534865
563.10 0.8732835
563.20 0.8270128
563.30 0.813271
563.40 0.8219709
563.50 0.8397892
563.60 0.8562036
563.70 0.8662152
563.80 0.8715387
563.90 0.876061
564.00 0.8849074
564.10 0.9034512
564.20 0.9338707
564.30 0.9749072
564.40 1.021729
564.50 1.067578
564.60 1.10689
564.70 1.137717
564.80 1.162309
564.90 1.18616
565.00 1.215551
565.10 1.254285
565.20 1.294078
565.30 1.329039
565.40 1.354071
565.50 1.363559
565.60 1.352342
565.70 1.318071
565.80 1.268927
565.90 1.216468
566.00 1.16189
566.10 1.112641
566.20 1.084815
566.30 1.07832
566.40 1.094559
566.50 1.136962
566.60 1.206348
566.70 1.298498
566.80 1.402695
566.90 1.504466
567.00 1.58896
567.10 1.649742
567.20 1.68379
567.30 1.695625
567.40 1.695546
567.50 1.699791
567.60 1.729493
567.70 1.803516
567.80 1.926709
567.90 2.088844
568.00 2.271712
568.10 2.454186
568.20 2.618151
568.30 2.751915
568.40 2.850828
568.50 2.916707
568.60 2.955178
568.70 2.973968
568.80 2.980266
568.90 2.977938
569.00 2.968904
569.10 2.954632
569.20 2.938522
569.30 2.927243
569.40 2.926581
569.50 2.938596
569.60 2.961968
569.70 2.992478
569.80 3.017579
569.90 3.025049
570.00 3.025049
570.10 3.018032
570.20 2.987006
570.30 2.931182
570.40 2.852576
570.50 2.757945
570.60 2.654886
570.70 2.548475
570.80 2.450436
570.90 2.374549
571.00 2.32956
571.10 2.317373
571.20 2.333924
571.30 2.371227
571.40 2.416939
571.50 2.452338
571.60 2.45544
571.70 2.406618
571.80 2.297255
571.90 2.134206
572.00 1.942491
572.10 1.741473
572.20 1.54709
572.30 1.372289
572.40 1.226553
572.50 1.114827
572.60 1.037043
572.70 0.9874255
572.80 0.9565359
572.90 0.9350137
573.00 0.9146558
573.10 0.8901941
573.20 0.8595605
573.30 0.821799
573.40 0.7752282
573.50 0.7238388
573.60 0.6747994
573.70 0.6347852
573.80 0.6096842
573.90 0.6028408
574.00 0.6127995
574.10 0.6328825
574.20 0.6615828
574.30 0.6962633
574.40 0.7339056
574.50 0.7687708
574.60 0.79711
574.70 0.8195233
574.80 0.8343404
574.90 0.8398287
575.00 0.8359508
575.10 0.8257399
575.20 0.8129793
575.30 0.8011444
575.40 0.7962021
575.50 0.8063884
575.60 0.8377467
575.70 0.8920968
575.80 0.9678244
575.90 1.058145
576.00 1.14556
576.10 1.224891
576.20 1.294974
576.30 1.354927
576.40 1.405851
576.50 1.449251
576.60 1.484687
576.70 1.511606
576.80 1.530285
576.90 1.540832
577.00 1.543432
577.10 1.543432
577.20 1.542644
577.30 1.540261
577.40 1.539003
577.50 1.539003
577.60 1.539003
577.70 1.539003
577.80 1.539003
577.90 1.538376
578.00 1.528417
578.10 1.522231
578.20 1.528281
578.30 1.547641
578.40 1.578933
578.50 1.618728
578.60 1.663294
578.70 1.709079
578.80 1.750309
578.90 1.780975
579.00 1.79725
579.10 1.795102
579.20 1.772064
579.30 1.729434
579.40 1.668295
579.50 1.586861
579.60 1.491954
579.70 1.393896
579.80 1.29631
579.90 1.202381
580.00 1.114966
580.10 1.035635
580.20 0.965552
580.30 0.9055993
580.40 0.854675
580.50 0.8112748
580.60 0.7758395
580.70 0.7489205
580.80 0.7302409
580.90 0.7196943
581.00 0.7170941
581.10 0.7170941
581.20 0.7276594
581.30 0.7606731
581.40 0.8103829
581.50 0.8693439
581.60 0.9289529
581.70 0.9815049
581.80 1.022654
581.90 1.053931
582.00 1.082029
582.10 1.100014
582.20 1.103677
582.30 1.092348
582.40 1.066036
582.50 1.027216
582.60 0.9815241
582.70 0.9365625
582.80 0.8981077
582.90 0.8687486
583.00 0.848218
583.10 0.834801
583.20 0.8264683
583.30 0.8193019
583.40 0.8100295
583.50 0.8034304
583.60 0.8034304
583.70 0.8034304
583.80 0.8034304
583.90 0.8220802
584.00 0.8717381
584.10 0.9570437
584.20 1.075713
584.30 1.217532
584.40 1.366437
584.50 1.50355
584.60 1.612636
584.70 1.685581
584.80 1.724182
584.90 1.737852
585.00 1.739407
585.10 1.742312
585.20 1.746314
585.30 1.741733
585.40 1.727714
585.50 1.699503
585.60 1.65332
585.70 1.600768
585.80 1.559619
585.90 1.528342
586.00 1.500244
586.10 1.468362
586.20 1.429949
586.30 1.387236
586.40 1.344616
586.50 1.305745
586.60 1.27089
586.70 1.237428
586.80 1.204213
586.90 1.171535
587.00 1.140164
587.10 1.111762
587.20 1.087697
587.30 1.069977
587.40 1.061748
587.50 1.061748
587.60 1.061748
587.70 1.061748
587.80 1.063309
587.90 1.064711
588.00 1.0484
588.10 1.002029
588.20 0.9179786
588.30 0.7962479
588.40 0.6473426
588.50 0.510229
588.60 0.4011433
588.70 0.3281982
588.80 0.2895977
588.90 0.2759274
589.00 0.2743722
589.10 0.2714679
589.20 0.2571536
589.30 0.2425697
589.40 0.2311071
589.50 0.2297859
589.60 0.2449626
589.70 0.2679563
589.80 0.282882
589.90 0.2901115
590.00 0.2926096
590.10 0.2951887
590.20 0.3044109
590.30 0.3270848
590.40 0.3681907
590.50 0.4287028
590.60 0.5042084
590.70 0.5853354
590.80 0.6595673
590.90 0.7149169
591.00 0.7431988
591.10 0.7431988
591.20 0.7431988
591.30 0.7431988
591.40 0.7431988
591.50 0.7431988
591.60 0.7431988
591.70 0.7431988
591.80 0.7416378
591.90 0.7215864
592.00 0.6882393
592.10 0.6493052
592.20 0.6146864
592.30 0.5945982
592.40 0.5945982
592.50 0.5945982
592.60 0.5945982
592.70 0.5945982
592.80 0.5945982
592.90 0.5945982
593.00 0.5945982
593.10 0.5945982
593.20 0.5943443
593.30 0.5804959
593.40 0.5562676
593.50 0.5268393
593.60 0.4982362
593.70 0.4752425
593.80 0.4603168
593.90 0.4530873
594.00 0.4505892
594.10 0.4480101
594.20 0.4387879
594.30 0.416114
594.40 0.3750082
594.50 0.3144961
594.60 0.2389904
594.70 0.1578634
594.80 0.08363157
594.90 0.02828191
595.00 0
595.10 0
595.20 0
595.30 0
595.40 0.004443587
595.50 0.02651748
595.60 0.06398815
595.70 0.1119448
595.80 0.1644369
595.90 0.2154519
596.00 0.2610158
596.10 0.2997714
596.20 0.3321776
596.30 0.3598054
596.40 0.3835623
596.50 0.4038781
596.60 0.4215617
596.70 0.4363747
596.80 0.4468073
596.90 0.4523348
597.00 0.4547532
597.10 0.4568516
597.20 0.4614141
597.30 0.4699555
597.40 0.4822002
597.50 0.4977114
597.60 0.5188866
597.70 0.5503888
597.80 0.5957803
597.90 0.6540598
598.00 0.7193273
598.10 0.7854081
598.20 0.8488661
598.30 0.9071
598.40 0.9566535
598.50 0.9953386
598.60 1.024373
598.70 1.047878
598.80 1.072017
598.90 1.104286
599.00 1.149889
599.10 1.210405
599.20 1.285242
599.30 1.372689
599.40 1.465554
599.50 1.544723
599.60 1.602649
599.70 1.633534
599.80 1.635096
599.90 1.608188
600.00 2.610701
600.10 2.64323
600.20 2.53832
600.30 2.329358
600.40 1.98214
600.50 1.547402
600.60 1.161386
600.70 0.9401797
600.80 0.9655879
600.90 1.290725
601.00 1.824145
601.10 2.420615
601.20 2.993495
601.30 3.497895
601.40 3.89234
601.50 4.049727
601.60 3.815852
601.70 3.153677
601.80 2.162134
601.90 0.9643008
602.00 0
602.10 0
602.20 0
602.30 0
602.40 0
602.50 0
602.60 0
602.70 0
602.80 0.1522174
602.90 1.143168
603.00 2.095401
603.10 2.978593
603.20 3.721033
603.30 4.223643
603.40 4.409466
603.50 4.254506
603.60 3.785817
603.70 3.110763
603.80 2.461612
603.90 2.07025
604.00 2.057296
604.10 2.383354
604.20 2.922132
604.30 3.54404
604.40 4.055065
604.50 4.272515
604.60 4.139954
604.70 3.695833
604.80 3.024086
604.90 2.260483
605.00 1.585064
605.10 1.138901
605.20 0.9163303
605.30 0.8842811
605.40 1.023767
605.50 1.270279
605.60 1.557025
605.70 1.876972
605.80 2.262216
605.90 2.687162
606.00 3.073891
606.10 3.333632
606.20 3.409347
606.30 3.271198
606.40 2.961585
606.50 2.632684
606.60 2.440366
606.70 2.431488
606.80 2.567091
606.90 2.794945
607.00 3.056875
607.10 3.29248
607.20 3.45863
607.30 3.550439
607.40 3.595725
607.50 3.619903
607.60 3.642906
607.70 3.68565
607.80 3.753254
607.90 3.814242
608.00 3.82662
608.10 3.742141
608.20 3.506979
608.30 3.131134
608.40 2.687818
608.50 2.201211
608.60 1.678399
608.70 1.203213
608.80 0.8993647
608.90 0.8652428
609.00 1.135352
609.10 1.664175
609.20 2.306875
609.30 2.862491
609.40 3.180041
609.50 3.286495
609.60 3.319105
609.70 3.3628
609.80 3.436984
609.90 3.595861
610.00 3.881561
610.10 4.238806
610.20 4.548033
610.30 4.714839
610.40 4.730519
610.50 4.609961
610.60 4.442375
610.70 4.380334
610.80 4.510434
610.90 4.755783
611.00 4.969985
611.10 5.067366
611.20 5.014545
611.30 4.80465
611.40 4.466442
611.50 4.03313
611.60 3.560187
611.70 3.134263
611.80 2.796848
611.90 2.599925
612.00 2.553127
612.10 2.594949
612.20 2.664609
612.30 2.730322
612.40 2.751027
612.50 2.659533
612.60 2.441634
612.70 2.153951
612.80 1.853631
612.90 1.596972
613.00 1.450936
613.10 1.462218
613.20 1.646753
613.30 1.932348
613.40 2.199019
613.50 2.361261
613.60 2.383453
613.70 2.306182
613.80 2.249512
613.90 2.316035
614.00 2.522266
614.10 2.819601
614.20 3.144834
614.30 3.420475
614.40 3.574578
614.50 3.572004
614.60 3.422519
614.70 3.226257
614.80 3.099475
614.90 3.092057
615.00 3.200485
615.10 3.372946
615.20 3.516184
615.30 3.56233
615.40 3.489951
615.50 3.306061
615.60 3.06147
615.70 2.852377
615.80 2.755206
615.90 2.794466
616.00 2.963176
616.10 3.190885
616.20 3.365976
616.30 3.418496
616.40 3.343731
616.50 3.198262
616.60 3.13415
616.70 3.253309
616.80 3.53546
616.90 3.949204
617.00 4.431902
617.10 4.87957
617.20 5.188722
617.30 5.269722
617.40 5.059379
617.50 4.557671
617.60 3.854387
617.70 3.078762
617.80 2.380552
617.90 1.890187
618.00 1.606619
618.10 1.497597
618.20 1.550592
618.30 1.694597
618.40 1.854884
618.50 1.969492
618.60 1.981866
618.70 1.867129
618.80 1.654841
618.90 1.426839
619.00 1.282824
619.10 1.299781
619.20 1.466224
619.30 1.689037
619.40 1.831438
619.50 1.829008
619.60 1.76384
619.70 1.768863
619.80 1.90612
619.90 2.158693
620.00 2.480447
620.10 2.813097
620.20 3.095964
620.30 3.26106
620.40 3.25191
620.50 3.041064
620.60 2.686646
620.70 2.309036
620.80 2.036099
620.90 1.930549
621.00 1.94498
621.10 1.960741
621.20 1.899664
621.30 1.769433
621.40 1.59817
621.50 1.399378
621.60 1.183384
621.70 0.978601
621.80 0.8270732
621.90 0.7860603
622.00 0.8768883
622.10 1.061684
622.20 1.318368
622.30 1.656544
622.40 2.06008
622.50 2.496189
622.60 2.906369
622.70 3.203986
622.80 3.380082
622.90 3.514515
623.00 3.679135
623.10 3.901547
623.20 4.14855
623.30 4.359799
623.40 4.480182
623.50 4.47672
623.60 4.330827
623.70 4.03197
623.80 3.611039
623.90 3.121367
624.00 2.651237
624.10 2.318544
624.20 2.160258
624.30 2.137784
624.40 2.199754
624.50 2.285531
624.60 2.357778
624.70 2.39679
624.80 2.390525
624.90 2.338518
625.00 2.235319
625.10 2.081828
625.20 1.909037
625.30 1.76683
625.40 1.690295
625.50 1.700861
625.60 1.798361
625.70 1.944522
625.80 2.086867
625.90 2.178126
626.00 2.21871
626.10 2.266505
626.20 2.407522
626.30 2.684378
626.40 3.066924
626.50 3.471248
626.60 3.755595
626.70 3.815031
626.80 3.623703
626.90 3.203802
627.00 2.637188
627.10 2.06043
627.20 1.624326
627.30 1.456079
627.40 1.585938
627.50 1.920882
627.60 2.297084
627.70 2.582185
627.80 2.730949
627.90 2.748041
628.00 2.721942
628.10 2.76929
628.20 2.930413
628.30 3.200306
628.40 3.555572
628.50 3.951195
628.60 4.349266
628.70 4.704561
628.80 4.976275
628.90 5.167976
629.00 5.272313
629.10 5.265217
629.20 5.142028
629.30 4.935734
629.40 4.691236
629.50 4.4336
629.60 4.283193
629.70 4.391733
629.80 4.758763
629.90 5.298406
630.00 5.890881
630.10 6.399152
630.20 6.697848
630.30 6.68746
630.40 6.388933
630.50 5.908507
630.60 5.355776
630.70 4.830943
630.80 4.415351
630.90 4.200195
631.00 4.191078
631.10 4.286305
631.20 4.450093
631.30 4.657425
631.40 4.824995
631.50 4.878895
631.60 4.821036
631.70 4.712144
631.80 4.58422
631.90 4.444502
632.00 4.321605
632.10 4.293366
632.20 4.42229
632.30 4.667581
632.40 4.882404
632.50 4.921448
632.60 4.704304
632.70 4.234238
632.80 3.621611
632.90 3.039184
633.00 2.615755
633.10 2.399558
633.20 2.402659
633.30 2.64682
633.40 3.122428
633.50 3.724655
633.60 4.320932
633.70 4.838223
633.80 5.276289
633.90 5.655072
634.00 5.987748
634.10 6.269391
634.20 6.455684
634.30 6.517607
634.40 6.462275
634.50 6.317845
634.60 6.14659
634.70 5.977913
634.80 5.806805
634.90 5.620434
635.00 5.425255
635.10 5.230522
635.20 5.029549
635.30 4.81937
635.40 4.583192
635.50 4.330366
635.60 4.109672
635.70 3.975059
635.80 4.001861
635.90 4.252883
636.00 4.711371
636.10 5.331838
636.20 6.111475
636.30 7.036593
636.40 7.962715
636.50 8.698368
636.60 9.103989
636.70 9.112026
636.80 8.755273
636.90 8.127327
637.00 7.356922
637.10 6.595016
637.20 5.938404
637.30 5.447535
637.40 5.217149
637.50 5.273818
637.60 5.491137
637.70 5.691137
637.80 5.757139
637.90 5.618823
638.00 5.280129
638.10 4.832428
638.20 4.388796
638.30 4.05953
638.40 3.947602
638.50 4.094904
638.60 4.485183
638.70 5.041001
638.80 5.601557
638.90 6.026336
639.00 6.264434
639.10 6.347852
639.20 6.36361
639.30 6.393918
639.40 6.444285
639.50 6.452979
639.60 6.360551
639.70 6.148472
639.80 5.832651
639.90 5.449746
640.00 5.049965
640.10 4.706199
640.20 4.500685
640.30 4.487258
640.40 4.665064
640.50 4.969051
640.60 5.297381
640.70 5.55432
640.80 5.710511
640.90 5.809762
641.00 5.894353
641.10 5.963813
641.20 5.999324
641.30 5.996604
641.40 5.955271
641.50 5.868055
641.60 5.72673
641.70 5.543453
641.80 5.337347
641.90 5.114205
642.00 4.88475
642.10 4.65907
642.20 4.449874
642.30 4.265389
642.40 4.112821
642.50 4.014715
642.60 3.994239
642.70 4.06685
642.80 4.278293
642.90 4.668685
643.00 5.203914
643.10 5.767777
643.20 6.241956
643.30 6.557026
643.40 6.669716
643.50 6.583462
643.60 6.295071
643.70 5.807806
643.80 5.203531
643.90 4.607043
644.00 4.146941
644.10 3.897708
644.20 3.857191
644.30 4.007801
644.40 4.320644
644.50 4.756703
644.60 5.252039
644.70 5.724715
644.80 6.144689
644.90 6.50263
645.00 6.823525
645.10 7.120257
645.20 7.337435
645.30 7.410498
645.40 7.275594
645.50 6.933746
645.60 6.466018
645.70 5.956905
645.80 5.516764
645.90 5.248922
646.00 5.184216
646.10 5.315511
646.20 5.587632
646.30 5.947153
646.40 6.335187
646.50 6.686506
646.60 6.958575
646.70 7.091461
646.80 7.101301
646.90 7.050331
647.00 6.94233
647.10 6.768489
647.20 6.524699
647.30 6.231443
647.40 5.963035
647.50 5.788121
647.60 5.73663
647.70 5.762933
647.80 5.794365
647.90 5.805233
648.00 5.796983
648.10 5.811748
648.20 5.825056
648.30 5.7898
648.40 5.751998
648.50 5.794271
648.60 5.987313
648.70 6.342046
648.80 6.79026
648.90 7.23761
649.00 7.583307
649.10 7.747616
649.20 7.711858
649.30 7.502071
649.40 7.255798
649.50 7.146831
649.60 7.28416
649.70 7.667887
649.80 8.187445
649.90 8.688662
650.00 9.013447
650.10 9.026979
650.20 8.684398
650.30 8.050814
650.40 7.282197
650.50 6.59482
650.60 6.160796
650.70 6.094606
650.80 6.374729
650.90 6.856357
651.00 7.384643
651.10 7.833978
651.20 8.120146
651.30 8.188367
651.40 8.033705
651.50 7.746753
651.60 7.460083
651.70 7.271763
651.80 7.21689
651.90 7.282054
652.00 7.454033
652.10 7.6712
652.20 7.842678
652.30 7.914478
652.40 7.878092
652.50 7.780977
652.60 7.702924
652.70 7.740883
652.80 7.963938
652.90 8.358353
653.00 8.853667
653.10 9.363655
653.20 9.826862
653.30 10.18438
653.40 10.41502
653.50 10.55801
653.60 10.62408
653.70 10.58924
653.80 10.44919
653.90 10.22736
654.00 9.916381
654.10 9.503949
654.20 9.064268
654.30 8.711408
654.40 8.509968
654.50 8.459759
654.60 8.513373
654.70 8.622825
654.80 8.721003
654.90 8.736434
655.00 8.666926
655.10 8.566886
655.20 8.469374
655.30 8.365765
655.40 8.293323
655.50 8.315242
655.60 8.426946
655.70 8.613611
655.80 8.911354
655.90 9.372806
656.00 10.00405
656.10 10.74281
656.20 11.48085
656.30 12.08608
656.40 12.45948
656.50 12.56006
656.60 12.4143
656.70 12.0782
656.80 11.58944
656.90 11.00484
657.00 10.40592
657.10 9.860518
657.20 9.427294
657.30 9.159557
657.40 9.100796
657.50 9.309962
657.60 9.804327
657.70 10.49313
657.80 11.20709
657.90 11.77529
658.00 12.08038
658.10 12.06469
658.20 11.76316
658.30 11.26071
658.40 10.64986
658.50 10.04929
658.60 9.551762
658.70 9.194078
658.80 8.986016
658.90 8.895137
659.00 8.855181
659.10 8.828794
659.20 8.794894
659.30 8.744335
659.40 8.713787
659.50 8.752285
659.60 8.867008
659.70 9.033086
659.80 9.257113
659.90 9.556901
660.00 9.92617
660.10 10.30415
660.20 10.57307
660.30 10.62735
660.40 10.45636
660.50 10.13832
660.60 9.769288
660.70 9.436504
660.80 9.172534
660.90 8.985466
661.00 8.871474
661.10 8.822404
661.20 8.81043
661.30 8.788465
661.40 8.727511
661.50 8.655396
661.60 8.660733
661.70 8.816518
661.80 9.108555
661.90 9.444269
662.00 9.723338
662.10 9.867755
662.20 9.827966
662.30 9.613681
662.40 9.319961
662.50 9.057246
662.60 8.903435
662.70 8.89046
662.80 9.007594
662.90 9.220014
663.00 9.469019
663.10 9.700455
663.20 9.888237
663.30 10.03967
663.40 10.17702
663.50 10.30972
663.60 10.47087
663.70 10.69006
663.80 10.93968
663.90 11.15091
664.00 11.25828
664.10 11.27232
664.20 11.24227
664.30 11.2082
664.40 11.20873
664.50 11.24495
664.60 11.26823
664.70 11.21245
664.80 11.05616
664.90 10.82817
665.00 10.55175
665.10 10.27449
665.20 10.08183
665.30 10.05514
665.40 10.24308
665.50 10.61567
665.60 11.08318
665.70 11.5409
665.80 11.91343
665.90 12.14797
666.00 12.21521
666.10 12.13603
666.20 11.96098
666.30 11.73803
666.40 11.50759
666.50 11.30089
666.60 11.1269
666.70 11.00067
666.80 10.96948
666.90 11.10014
667.00 11.4529
667.10 12.04886
667.20 12.77963
667.30 13.46207
667.40 13.96685
667.50 14.22172
667.60 14.20184
667.70 13.937
667.80 13.49831
667.90 12.96863
668.00 12.45341
668.10 12.0632
668.20 11.84635
668.30 11.78209
668.40 11.82471
668.50 11.92579
668.60 12.04997
668.70 12.19044
668.80 12.33722
668.90 12.50243
669.00 12.72519
669.10 13.01123
669.20 13.34403
669.30 13.71039
669.40 14.06465
669.50 14.32422
669.60 14.42724
669.70 14.35317
669.80 14.09296
669.90 13.64617
670.00 13.05895
670.10 12.39236
670.20 11.72652
670.30 11.13717
670.40 10.63831
670.50 10.24746
670.60 9.993005
670.70 9.865373
670.80 9.856824
670.90 10.00661
671.00 10.32224
671.10 10.72473
671.20 11.11736
671.30 11.45247
671.40 11.71116
671.50 11.90553
671.60 12.05837
671.70 12.18638
671.80 12.32815
671.90 12.49769
672.00 12.70531
672.10 12.98813
672.20 13.34451
672.30 13.69228
672.40 13.93745
672.50 14.06455
672.60 14.11196
672.70 14.07946
672.80 13.96783
672.90 13.81996
673.00 13.67707
673.10 13.54436
673.20 13.39911
673.30 13.24595
673.40 13.10969
673.50 12.99889
673.60 12.90426
673.70 12.80731
673.80 12.70206
673.90 12.62062
674.00 12.60605
674.10 12.67499
674.20 12.84782
674.30 13.14791
674.40 13.5869
674.50 14.18824
674.60 14.92955
674.70 15.69701
674.80 16.31953
674.90 16.6301
675.00 16.55667
675.10 16.14763
675.20 15.51026
675.30 14.73049
675.40 13.89058
675.50 13.1263
675.60 12.55263
675.70 12.22098
675.80 12.13505
675.90 12.20146
676.00 12.29728
676.10 12.38295
676.20 12.45901
676.30 12.5234
676.40 12.56636
676.50 12.55527
676.60 12.46064
676.70 12.28495
676.80 12.08546
676.90 11.95466
677.00 11.96319
677.10 12.12095
677.20 12.36584
677.30 12.65431
677.40 12.99281
677.50 13.3965
677.60 13.85635
677.70 14.31168
677.80 14.72362
677.90 15.11408
678.00 15.5204
678.10 15.941
678.20 16.2929
678.30 16.46238
678.40 16.38361
678.50 16.06447
678.60 15.57634
678.70 15.00249
678.80 14.40675
678.90 13.82046
679.00 13.28871
679.10 12.89374
679.20 12.68236
679.30 12.68013
679.40 12.91105
679.50 13.32183
679.60 13.79256
679.70 14.19714
679.80 14.43103
679.90 14.44822
680.00 14.28296
680.10 14.01295
680.20 13.71064
680.30 13.42839
680.40 13.19228
680.50 13.00574
680.60 12.83509
680.70 12.60418
680.80 12.23732
680.90 11.76719
681.00 11.31969
681.10 11.01173
681.20 10.8925
681.30 10.94224
681.40 11.0986
681.50 11.31394
681.60 11.57147
681.70 11.82441
681.80 12.01283
681.90 12.09166
682.00 12.05589
682.10 11.91166
682.20 11.64581
682.30 11.25342
682.40 10.75509
682.50 10.16644
682.60 9.561819
682.70 9.097223
682.80 8.886518
682.90 8.92974
683.00 9.159788
683.10 9.514928
683.20 9.948709
683.30 10.41542
683.40 10.85509
683.50 11.23006
683.60 11.52294
683.70 11.7007
683.80 11.74957
683.90 11.76388
684.00 11.87418
684.10 12.10434
684.20 12.39589
684.30 12.6785
684.40 12.8905
684.50 12.99114
684.60 12.96215
684.70 12.80915
684.80 12.54964
684.90 12.21136
685.00 11.85882
685.10 11.58245
685.20 11.44955
685.30 11.46171
685.40 11.56986
685.50 11.74105
685.60 12.00317
685.70 12.3791
685.80 12.83482
685.90 13.29333
686.00 13.66494
686.10 13.89293
686.20 13.96941
686.30 13.90443
686.40 13.72876
686.50 13.54151
686.60 13.43899
686.70 13.43231
686.80 13.45545
686.90 13.42926
687.00 13.29652
687.10 13.02477
687.20 12.64232
687.30 12.24289
687.40 11.91267
687.50 11.67038
687.60 11.48332
687.70 11.30781
687.80 11.10314
687.90 10.7972
688.00 10.3731
688.10 9.918293
688.20 9.543388
688.30 9.31089
688.40 9.245539
688.50 9.343475
688.60 9.513006
688.70 9.582958
688.80 9.472882
688.90 9.272195
689.00 9.099589
689.10 9.033616
689.20 9.118558
689.30 9.371995
689.40 9.765918
689.50 10.20133
689.60 10.57479
689.70 10.81849
689.80 10.86056
689.90 10.69854
690.00 10.44552
690.10 10.25509
690.20 10.19928
690.30 10.23551
690.40 10.3233
690.50 10.44759
690.60 10.57101
690.70 10.65221
690.80 10.66377
690.90 10.59297
691.00 10.43916
691.10 10.2105
691.20 9.931803
691.30 9.620809
691.40 9.301763
691.50 9.004513
691.60 8.758384
691.70 8.636739
691.80 8.702437
691.90 8.965746
692.00 9.389474
692.10 9.885837
692.20 10.37078
692.30 10.81195
692.40 11.22125
692.50 11.59483
692.60 11.90596
692.70 12.12853
692.80 12.23202
692.90 12.22779
693.00 12.15845
693.10 12.03708
693.20 11.87833
693.30 11.69055
693.40 11.52533
693.50 11.46383
693.60 11.51608
693.70 11.65058
693.80 11.8151
693.90 11.98507
694.00 12.1751
694.10 12.4086
694.20 12.73671
694.30 13.23568
694.40 13.97865
694.50 14.94453
694.60 16.00698
694.70 17.05359
694.80 17.97358
694.90 18.60987
695.00 18.82454
695.10 18.55324
695.20 17.83387
695.30 16.7998
695.40 15.61421
695.50 14.44014
695.60 13.41666
695.70 12.61976
695.80 12.01288
695.90 11.52119
696.00 11.14016
696.10 10.86692
696.20 10.65445
696.30 10.51153
696.40 10.51865
696.50 10.78414
696.60 11.3421
696.70 12.08948
696.80 12.88159
696.90 13.57368
697.00 14.05115
697.10 14.24617
697.20 14.17733
697.30 13.93473
697.40 13.61049
697.50 13.3025
697.60 13.09976
697.70 13.03163
697.80 13.07069
697.90 13.12195
698.00 13.10864
698.10 13.04371
698.20 12.97264
698.30 12.94647
698.40 12.98714
698.50 13.09495
698.60 13.2781
698.70 13.54755
698.80 13.88167
698.90 14.22375
699.00 14.52181
699.10 14.759
699.20 14.9443
699.30 15.07524
699.40 15.10242
699.50 14.98396
699.60 14.7496
699.70 14.45246
699.80 14.13342
699.90 13.83838
700.00 13.60999
700.10 13.46427
700.20 13.38185
700.30 13.33817
700.40 13.32984
700.50 13.36905
700.60 13.46275
700.70 13.58798
700.80 13.75091
700.90 13.98209
701.00 14.25373
701.10 14.53724
701.20 14.85221
701.30 15.21902
701.40 15.64733
701.50 16.13705
701.60 16.67466
701.70 17.22976
701.80 17.74791
701.90 18.1424
702.00 18.30882
702.10 18.21759
702.20 17.91785
702.30 17.46864
702.40 16.96826
702.50 16.53253
702.60 16.24795
702.70 16.16991
702.80 16.28545
702.90 16.55
703.00 16.92374
703.10 17.3324
703.20 17.69584
703.30 17.98319
703.40 18.22337
703.50 18.46732
703.60 18.76727
703.70 19.15814
703.80 19.62583
703.90 20.14269
704.00 20.63718
704.10 20.98059
704.20 21.0746
704.30 20.89133
704.40 20.47076
704.50 19.91596
704.60 19.3621
704.70 18.9627
704.80 18.83837
704.90 18.97895
705.00 19.25974
705.10 19.55536
705.20 19.79326
705.30 19.90329
705.40 19.83034
705.50 19.57754
705.60 19.18411
705.70 18.69131
705.80 18.1547
705.90 17.6546
706.00 17.28805
706.10 17.10734
706.20 17.09771
706.30 17.25935
706.40 17.5904
706.50 18.04743
706.60 18.56057
706.70 19.05323
706.80 19.47891
706.90 19.82698
707.00 20.10919
707.10 20.35145
707.20 20.58065
707.30 20.83297
707.40 21.1228
707.50 21.40267
707.60 21.60367
707.70 21.68317
707.80 21.64095
707.90 21.49756
708.00 21.26325
708.10 20.95776
708.20 20.62517
708.30 20.31789
708.40 20.07593
708.50 19.90266
708.60 19.80731
708.70 19.80162
708.80 19.83068
708.90 19.8325
709.00 19.81065
709.10 19.79617
709.20 19.79147
709.30 19.7506
709.40 19.66477
709.50 19.58797
709.60 19.5489
709.70 19.54009
709.80 19.5184
709.90 19.48409
710.00 19.46297
710.10 19.43849
710.20 19.43798
710.30 19.49905
710.40 19.59096
710.50 19.66101
710.60 19.68731
710.70 19.69514
710.80 19.69923
710.90 19.68045
711.00 19.64646
711.10 19.61346
711.20 19.63386
711.30 19.75863
711.40 19.96638
711.50 20.19634
711.60 20.37121
711.70 20.45217
711.80 20.46315
711.90 20.44796
712.00 20.43912
712.10 20.46217
712.20 20.5273
712.30 20.60892
712.40 20.65051
712.50 20.64092
712.60 20.62997
712.70 20.66433
712.80 20.77347
712.90 20.97552
713.00 21.26223
713.10 21.57522
713.20 21.78749
713.30 21.78314
713.40 21.53972
713.50 21.10238
713.60 20.56261
713.70 20.03879
713.80 19.66495
713.90 19.52568
714.00 19.58883
714.10 19.74563
714.20 19.9383
714.30 20.19891
714.40 20.56274
714.50 21.04049
714.60 21.65719
714.70 22.38508
714.80 23.11248
714.90 23.71526
715.00 24.06048
715.10 24.03774
715.20 23.59375
715.30 22.78045
715.40 21.77965
715.50 20.83063
715.60 20.10975
715.70 19.69713
715.80 19.60281
715.90 19.77433
716.00 20.11648
716.10 20.52223
716.20 20.90062
716.30 21.18061
716.40 21.34656
716.50 21.45371
716.60 21.58599
716.70 21.78199
716.80 22.01492
716.90 22.24899
717.00 22.44472
717.10 22.53451
717.20 22.45602
717.30 22.21693
717.40 21.88979
717.50 21.5548
717.60 21.30312
717.70 21.20795
717.80 21.29541
717.90 21.54869
718.00 21.92268
718.10 22.37572
718.20 22.84023
718.30 23.22461
718.40 23.47534
718.50 23.5959
718.60 23.64665
718.70 23.69457
718.80 23.78687
718.90 23.97624
719.00 24.25423
719.10 24.57115
719.20 24.89379
719.30 25.16899
719.40 25.32423
719.50 25.28274
719.60 25.01312
719.70 24.55972
719.80 23.99814
719.90 23.39255
720.00 22.82252
720.10 22.38455
720.20 22.11602
720.30 21.99629
720.40 22.00817
720.50 22.14379
720.60 22.37296
720.70 22.66727
720.80 23.0016
720.90 23.33974
721.00 23.65788
721.10 23.92921
721.20 24.12166
721.30 24.24281
721.40 24.27615
721.50 24.16283
721.60 23.89751
721.70 23.55727
721.80 23.25414
721.90 23.08993
722.00 23.13235
722.10 23.39153
722.20 23.8395
722.30 24.45959
722.40 25.20844
722.50 25.97379
722.60 26.61479
722.70 26.99665
722.80 27.07801
722.90 26.92138
723.00 26.63209
723.10 26.29993
723.20 25.98648
723.30 25.75739
723.40 25.69095
723.50 25.88226
723.60 26.3694
723.70 27.0248
723.80 27.65272
723.90 28.11724
724.00 28.33844
724.10 28.30693
724.20 28.05789
724.30 27.69328
724.40 27.3565
724.50 27.1849
724.60 27.28791
724.70 27.65928
724.80 28.21026
724.90 28.80343
725.00 29.31794
725.10 29.74225
725.20 30.09961
725.30 30.39278
725.40 30.62096
725.50 30.75775
725.60 30.7437
725.70 30.48203
725.80 29.932
725.90 29.16551
726.00 28.3154
726.10 27.56249
726.20 27.05756
726.30 26.88356
726.40 27.03591
726.50 27.4193
726.60 27.90475
726.70 28.34969
726.80 28.64326
726.90 28.78346
727.00 28.94204
727.10 29.41615
727.20 30.36836
727.30 31.63144
727.40 32.82901
727.50 33.65787
727.60 33.95455
727.70 33.63386
727.80 32.76016
727.90 31.53986
728.00 30.23697
728.10 29.13828
728.20 28.48633
728.30 28.39588
728.40 28.78953
728.50 29.38412
728.60 29.87515
728.70 30.16135
728.80 30.30567
728.90 30.32886
729.00 30.2113
729.10 29.98468
729.20 29.68982
729.30 29.35838
729.40 29.03541
729.50 28.75928
729.60 28.54732
729.70 28.41227
729.80 28.33051
729.90 28.27618
730.00 28.29732
730.10 28.46393
730.20 28.77618
730.30 29.18675
730.40 29.61019
730.50 29.96408
730.60 30.20526
730.70 30.28887
730.80 30.19185
730.90 29.95293
731.00 29.72179
731.10 29.69184
731.20 29.97985
731.30 30.59075
731.40 31.39487
731.50 32.16465
731.60 32.70672
731.70 32.92219
731.80 32.82993
731.90 32.53695
732.00 32.17047
732.10 31.89085
732.20 31.82573
732.30 32.02757
732.40 32.45463
732.50 32.95113
732.60 33.347
732.70 33.58405
732.80 33.68033
732.90 33.62896
733.00 33.41357
733.10 33.03199
733.20 32.52086
733.30 31.95953
733.40 31.42497
733.50 30.97651
733.60 30.63497
733.70 30.3851
733.80 30.18494
733.90 30.02828
734.00 29.97704
734.10 30.02832
734.20 30.1201
734.30 30.25854
734.40 30.48288
734.50 30.82518
734.60 31.26868
734.70 31.71514
734.80 32.06315
734.90 32.24898
735.00 32.27997
735.10 32.22279
735.20 32.12575
735.30 31.97208
735.40 31.73339
735.50 31.43415
735.60 31.12317
735.70 30.84466
735.80 30.66633
735.90 30.66104
736.00 30.8837
736.10 31.36286
736.20 32.0639
736.30 32.88479
736.40 33.69132
736.50 34.32134
736.60 34.60924
736.70 34.44081
736.80 33.79967
736.90 32.79692
737.00 31.64294
737.10 30.58864
737.20 29.84233
737.30 29.49143
737.40 29.50183
737.50 29.77646
737.60 30.23389
737.70 30.81506
737.80 31.44344
737.90 32.0233
738.00 32.4606
738.10 32.72722
738.20 32.83215
738.30 32.79745
738.40 32.66696
738.50 32.47062
738.60 32.23446
738.70 32.02126
738.80 31.89873
738.90 31.87749
739.00 31.87672
739.10 31.8084
739.20 31.65243
739.30 31.43442
739.40 31.22452
739.50 31.11433
739.60 31.16291
739.70 31.3215
739.80 31.41295
739.90 31.27782
740.00 30.90783
740.10 30.37633
740.20 29.73998
740.30 29.08198
740.40 28.5423
740.50 28.2235
740.60 28.13516
740.70 28.24866
740.80 28.53285
740.90 28.91253
741.00 29.28908
741.10 29.61625
741.20 29.94515
741.30 30.35413
741.40 30.84981
741.50 31.34498
741.60 31.70888
741.70 31.82814
741.80 31.6188
741.90 31.03912
742.00 30.14255
742.10 29.0724
742.20 28.00214
742.30 27.11331
742.40 26.5601
742.50 26.42125
742.60 26.68526
742.70 27.25322
742.80 27.941
742.90 28.55936
743.00 29.01102
743.10 29.26492
743.20 29.33071
743.30 29.28192
743.40 29.19227
743.50 29.10839
743.60 29.09136
743.70 29.17869
743.80 29.34406
743.90 29.53069
744.00 29.69581
744.10 29.8231
744.20 29.89366
744.30 29.88661
744.40 29.82359
744.50 29.75032
744.60 29.72119
744.70 29.76894
744.80 29.87002
744.90 29.97432
745.00 30.01501
745.10 29.97735
745.20 29.91832
745.30 29.88537
745.40 29.89544
745.50 29.9504
745.60 30.05158
745.70 30.20648
745.80 30.40969
745.90 30.6305
746.00 30.78116
746.10 30.79145
746.20 30.74023
746.30 30.76452
746.40 30.93642
746.50 31.21293
746.60 31.46721
746.70 31.60093
746.80 31.56996
746.90 31.35882
747.00 30.95541
747.10 30.38447
747.20 29.71561
747.30 29.04954
747.40 28.54708
747.50 28.33518
747.60 28.40186
747.70 28.63765
747.80 28.92402
747.90 29.21345
748.00 29.50951
748.10 29.77659
748.20 29.96064
748.30 30.0516
748.40 30.0875
748.50 30.12078
748.60 30.19228
748.70 30.31016
748.80 30.42493
748.90 30.47459
749.00 30.44197
749.10 30.34769
749.20 30.21498
749.30 30.03135
749.40 29.77374
749.50 29.46057
749.60 29.14086
749.70 28.84979
749.80 28.59912
749.90 28.40075
750.00 28.27923
750.10 28.25045
750.20 28.32104
750.30 28.49168
750.40 28.7277
750.50 28.99335
750.60 29.28365
750.70 29.60349
750.80 29.96833
750.90 30.37937
751.00 30.78416
751.10 31.11267
751.20 31.35416
751.30 31.54779
751.40 31.69363
751.50 31.76636
751.60 31.75033
751.70 31.60193
751.80 31.30674
751.90 30.92834
752.00 30.57215
752.10 30.33821
752.20 30.3607
752.30 30.70288
752.40 31.27961
752.50 31.95976
752.60 32.58673
752.70 32.99048
752.80 33.06269
752.90 32.78335
753.00 32.1926
753.10 31.42007
753.20 30.61169
753.30 29.84813
753.40 29.16343
753.50 28.58546
753.60 28.06034
753.70 27.57002
753.80 27.2254
753.90 27.11783
754.00 27.26581
754.10 27.6191
754.20 28.07819
754.30 28.54046
754.40 28.94771
754.50 29.27084
754.60 29.49197
754.70 29.61175
754.80 29.64996
754.90 29.62887
755.00 29.57026
755.10 29.48604
755.20 29.33066
755.30 29.06039
755.40 28.70826
755.50 28.3445
755.60 28.05103
755.70 27.88675
755.80 27.86337
755.90 27.96414
756.00 28.14046
756.10 28.30322
756.20 28.36797
756.30 28.28826
756.40 28.05059
756.50 27.68315
756.60 27.3091
756.70 27.07709
756.80 27.06408
756.90 27.29665
757.00 27.74295
757.10 28.32815
757.20 28.96295
757.30 29.54051
757.40 29.98288
757.50 30.26536
757.60 30.38594
757.70 30.35969
757.80 30.21578
757.90 29.97967
758.00 29.66237
758.10 29.27274
758.20 28.82797
758.30 28.35878
758.40 27.89459
758.50 27.43482
758.60 26.97006
758.70 26.50763
758.80 26.05907
758.90 25.64183
759.00 25.24188
759.10 24.84574
759.20 24.49416
759.30 24.22666
759.40 24.12357
759.50 24.31288
759.60 24.89291
759.70 25.84714
759.80 27.00873
759.90 28.14567
760.00 29.09166
760.10 29.65508
760.20 29.60333
760.30 28.86152
760.40 27.48149
760.50 25.59793
760.60 23.50331
760.70 21.59195
760.80 20.17511
760.90 19.41393
761.00 19.32688
761.10 19.81429
761.20 20.69593
761.30 21.72742
761.40 22.56694
761.50 22.96373
761.60 22.87009
761.70 22.288
761.80 21.34688
761.90 20.28777
762.00 19.27721
762.10 18.41861
762.20 17.77526
762.30 17.35142
762.40 17.12163
762.50 17.08662
762.60 17.31834
762.70 17.86353
762.80 18.62006
762.90 19.34423
763.00 19.7487
763.10 19.61526
763.20 18.87187
763.30 17.59286
763.40 15.98655
763.50 14.33355
763.60 12.9073
763.70 11.95799
763.80 11.66637
763.90 11.98547
764.00 12.63328
764.10 13.26334
764.20 13.60251
764.30 13.56297
764.40 13.18096
764.50 12.51829
764.60 11.69991
764.70 10.90298
764.80 10.2871
764.90 9.968202
765.00 10.0089
765.10 10.33579
765.20 10.71294
765.30 10.91023
765.40 10.78031
765.50 10.28204
765.60 9.519924
765.70 8.620423
765.80 7.714174
765.90 6.96976
766.00 6.500954
766.10 6.333552
766.20 6.376647
766.30 6.486838
766.40 6.532517
766.50 6.403387
766.60 6.077097
766.70 5.629159
766.80 5.190106
766.90 4.868578
767.00 4.685773
767.10 4.599665
767.20 4.576515
767.30 4.616928
767.40 4.711207
767.50 4.820321
767.60 4.952008
767.70 5.139153
767.80 5.398719
767.90 5.748428
768.00 6.176146
768.10 6.636905
768.20 7.064196
768.30 7.388197
768.40 7.579641
768.50 7.662874
768.60 7.662146
768.70 7.565541
768.80 7.362
768.90 7.059498
769.00 6.665288
769.10 6.190618
769.20 5.644171
769.30 5.022
769.40 4.341727
769.50 3.637851
769.60 2.959378
769.70 2.36299
769.80 1.886841
769.90 1.566669
770.00 1.444942
770.10 1.547062
770.20 1.862052
770.30 2.360776
770.40 2.996765
770.50 3.690268
770.60 4.388476
770.70 5.100424
770.80 5.840223
770.90 6.581089
771.00 7.327844
771.10 8.173522
771.20 9.208047
771.30 10.33853
771.40 11.37468
771.50 12.22587
771.60 12.89763
771.70 13.47162
771.80 14.03987
771.90 14.63903
772.00 15.23179
772.10 15.75473
772.20 16.20711
772.30 16.66091
772.40 17.11747
772.50 17.44454
772.60 17.51628
772.70 17.37677
772.80 17.14706
772.90 16.92808
773.00 16.79925
773.10 16.73754
773.20 16.6806
773.30 16.64092
773.40 16.70098
773.50 16.95822
773.60 17.42166
773.70 17.98509
773.80 18.5562
773.90 19.08981
774.00 19.57491
774.10 20.03321
774.20 20.46258
774.30 20.81802
774.40 21.08833
774.50 21.30931
774.60 21.51297
774.70 21.70348
774.80 21.86136
774.90 21.92646
775.00 21.8468
775.10 21.67072
775.20 21.45907
775.30 21.19084
775.40 20.85622
775.50 20.53007
775.60 20.3524
775.70 20.45673
775.80 20.84696
775.90 21.43937
776.00 22.13281
776.10 22.81305
776.20 23.35741
776.30 23.69272
776.40 23.80881
776.50 23.69199
776.60 23.37839
776.70 23.07235
776.80 22.97574
776.90 23.14208
777.00 23.54612
777.10 24.06266
777.20 24.54366
777.30 24.91004
777.40 25.11108
777.50 25.1234
777.60 25.0135
777.70 24.89499
777.80 24.85904
777.90 24.95708
778.00 25.17312
778.10 25.41743
778.20 25.59544
778.30 25.64865
778.40 25.54286
778.50 25.28877
778.60 24.93642
778.70 24.59482
778.80 24.47617
778.90 24.76618
779.00 25.47655
779.10 26.46764
779.20 27.55961
779.30 28.52541
779.40 29.089
779.50 29.01187
779.60 28.14918
779.70 26.49771
779.80 24.23228
779.90 21.76674
780.00 19.65455
780.10 18.31685
780.20 17.91091
780.30 18.44299
780.40 19.77007
780.50 21.59285
780.60 23.56682
780.70 25.41964
780.80 27.03714
780.90 28.39901
781.00 29.51576
781.10 30.42618
781.20 31.16679
781.30 31.72319
781.40 32.06682
781.50 32.22309
781.60 32.28328
781.70 32.25121
781.80 32.11313
781.90 31.98702
782.00 31.97105
782.10 32.06422
782.20 32.21783
782.30 32.4201
782.40 32.67937
782.50 32.98571
782.60 33.32363
782.70 33.63095
782.80 33.79972
782.90 33.74368
783.00 33.44257
783.10 32.9897
783.20 32.50485
783.30 31.97468
783.40 31.36846
783.50 30.79476
783.60 30.38502
783.70 30.14998
783.80 30.05133
783.90 30.12945
784.00 30.43501
784.10 30.93257
784.20 31.55893
784.30 32.25921
784.40 32.93793
784.50 33.50481
784.60 33.97805
784.70 34.4497
784.80 34.96411
784.90 35.45887
785.00 35.87898
785.10 36.19848
785.20 36.35577
785.30 36.29797
785.40 36.04491
785.50 35.63255
785.60 35.0324
785.70 34.29926
785.80 33.60349
785.90 33.08644
786.00 32.82677
786.10 32.8776
786.20 33.24405
786.30 33.86544
786.40 34.64546
786.50 35.49719
786.60 36.31232
786.70 36.89327
786.80 37.05645
786.90 36.80308
787.00 36.30174
787.10 35.69258
787.20 35.00628
787.30 34.27943
787.40 33.5811
787.50 32.9948
787.60 32.65985
787.70 32.74621
787.80 33.33456
787.90 34.36353
788.00 35.69672
788.10 37.10801
788.20 38.32513
788.30 39.17212
788.40 39.61519
788.50 39.66472
788.60 39.36855
788.70 38.84581
788.80 38.29323
788.90 37.90616
789.00 37.7507
789.10 37.78349
789.20 37.8913
789.30 37.94259
789.40 37.87255
789.50 37.73128
789.60 37.60934
789.70 37.55303
789.80 37.54032
789.90 37.51878
790.00 37.53559
790.10 37.72968
790.20 38.1361
790.30 38.68434
790.40 39.26686
790.50 39.72214
790.60 39.90369
790.70 39.81974
790.80 39.71025
790.90 39.84854
791.00 40.34748
791.10 41.10165
791.20 41.81705
791.30 42.27739
791.40 42.38727
791.50 42.10813
791.60 41.51182
791.70 40.71076
791.80 39.88623
791.90 39.32944
792.00 39.28786
792.10 39.80263
792.20 40.61075
792.30 41.32977
792.40 41.71527
792.50 41.72695
792.60 41.53496
792.70 41.3478
792.80 41.32936
792.90 41.55613
793.00 42.00523
793.10 42.64089
793.20 43.37402
793.30 44.01454
793.40 44.39247
793.50 44.4158
793.60 44.07721
793.70 43.48796
793.80 42.81729
793.90 42.22111
794.00 41.74541
794.10 41.31167
794.20 40.74785
794.30 39.83951
794.40 38.41372
794.50 36.43199
794.60 34.03395
794.70 31.49535
794.80 29.18341
794.90 27.49223
795.00 26.77705
795.10 27.19769
795.20 28.58988
795.30 30.62374
795.40 33.02051
795.50 35.49272
795.60 37.74643
795.70 39.63927
795.80 41.17426
795.90 42.41028
796.00 43.44969
796.10 44.46281
796.20 45.52681
796.30 46.53549
796.40 47.29503
796.50 47.66343
796.60 47.64664
796.70 47.30511
796.80 46.68989
796.90 45.92296
797.00 45.18631
797.10 44.60516
797.20 44.24477
797.30 44.14495
797.40 44.29631
797.50 44.58308
797.60 44.87324
797.70 45.16064
797.80 45.48111
797.90 45.79289
798.00 46.01019
798.10 46.08435
798.20 45.98119
798.30 45.65105
798.40 45.10682
798.50 44.45934
798.60 43.86408
798.70 43.46692
798.80 43.37739
798.90 43.69915
799.00 44.53751
799.10 45.91258
799.20 47.6744
799.30 49.57226
799.40 51.37637
799.50 52.86433
799.60 53.79305
799.70 54.05076
799.80 53.72489
799.90 52.99159
800.00 52.03785
800.10 51.09183
800.20 50.39534
800.30 50.05391
800.40 50.00904
800.50 50.12098
800.60 50.26839
800.70 50.37621
800.80 50.39334
800.90 50.31802
801.00 50.23594
801.10 50.21969
801.20 50.23493
801.30 50.20863
801.40 50.11538
801.50 49.94842
801.60 49.6918
801.70 49.35781
801.80 49.03541
801.90 48.83647
802.00 48.81796
802.10 49.02826
802.20 49.47259
802.30 50.11283
802.40 50.92107
802.50 51.86285
802.60 52.87442
802.70 53.87953
802.80 54.80583
802.90 55.57476
803.00 56.11604
803.10 56.37298
803.20 56.28099
803.30 55.82852
803.40 55.08266
803.50 54.12772
803.60 53.11559
803.70 52.22491
803.80 51.59057
803.90 51.31409
804.00 51.43917
804.10 51.94234
804.20 52.73015
804.30 53.65827
804.40 54.55366
804.50 55.32818
804.60 56.00761
804.70 56.57341
804.80 57.01946
804.90 57.3661
805.00 57.57438
805.10 57.63499
805.20 57.60767
805.30 57.58122
805.40 57.61534
805.50 57.74344
805.60 58.00867
805.70 58.56732
805.80 59.5462
805.90 60.77343
806.00 61.95558
806.10 62.89562
806.20 63.44661
806.30 63.57754
806.40 63.35232
806.50 62.80936
806.60 62.00945
806.70 61.08318
806.80 60.22301
806.90 59.63566
807.00 59.48005
807.10 59.71203
807.20 60.2066
807.30 60.99914
807.40 62.10757
807.50 63.44385
807.60 64.88259
807.70 66.21511
807.80 67.23395
807.90 67.8771
808.00 68.20731
808.10 68.33561
808.20 68.386
808.30 68.41206
808.40 68.39478
808.50 68.32611
808.60 68.21486
808.70 68.05145
808.80 67.82223
808.90 67.54957
809.00 67.28864
809.10 67.123
809.20 67.11215
809.30 67.22006
809.40 67.33423
809.50 67.28671
809.60 66.95439
809.70 66.36817
809.80 65.68265
809.90 65.06032
810.00 64.62073
810.10 64.43661
810.20 64.4996
810.30 64.7396
810.40 65.07908
810.50 65.48595
810.60 65.95577
810.70 66.48483
810.80 67.04677
810.90 67.61052
811.00 68.14672
811.10 68.61629
811.20 68.93236
811.30 69.00597
811.40 68.79829
811.50 68.3351
811.60 67.75728
811.70 67.24536
811.80 66.95304
811.90 66.96272
812.00 67.31295
812.10 67.9779
812.20 68.88395
812.30 69.97608
812.40 71.18217
812.50 72.38816
812.60 73.46249
812.70 74.26677
812.80 74.68534
812.90 74.71159
813.00 74.45046
813.10 74.05843
813.20 73.69597
813.30 73.50327
813.40 73.56283
813.50 73.91135
813.60 74.50429
813.70 75.18453
813.80 75.74207
813.90 76.02099
814.00 75.9805
814.10 75.6732
814.20 75.25137
814.30 74.86793
814.40 74.57486
814.50 74.38082
814.60 74.26598
814.70 74.14519
814.80 73.94256
814.90 73.65265
815.00 73.33673
815.10 73.08592
815.20 72.95063
815.30 72.97245
815.40 73.25001
815.50 73.88066
815.60 74.83866
815.70 75.98483
815.80 77.14886
815.90 78.1772
816.00 79.00346
816.10 79.62386
816.20 80.01241
816.30 80.18854
816.40 80.25615
816.50 80.35876
816.60 80.66917
816.70 81.25411
816.80 81.99061
816.90 82.65063
817.00 83.06112
817.10 83.1989
817.20 83.12299
817.30 82.85451
817.40 82.34025
817.50 81.57803
817.60 80.65374
817.70 79.57314
817.80 78.20348
817.90 76.35948
818.00 73.93923
818.10 71.04194
818.20 67.99594
818.30 65.3196
818.40 63.55213
818.50 63.03895
818.60 63.84618
818.70 65.77927
818.80 68.39179
818.90 71.04795
819.00 73.04622
819.10 73.76822
819.20 72.86623
819.30 70.46143
819.40 67.14784
819.50 63.74009
819.60 60.99839
819.70 59.44879
819.80 59.3138
819.90 60.48792
820.00 62.63334
820.10 65.35797
820.20 68.2744
820.30 71.02204
820.40 73.3732
820.50 75.3298
820.60 77.02466
820.70 78.48274
820.80 79.59714
820.90 80.29759
821.00 80.58319
821.10 80.51407
821.20 80.18966
821.30 79.77706
821.40 79.47887
821.50 79.39448
821.60 79.55152
821.70 79.95537
821.80 80.55068
821.90 81.18871
822.00 81.70342
822.10 82.07216
822.20 82.3882
822.30 82.7326
822.40 83.18326
822.50 83.82474
822.60 84.73096
822.70 85.8822
822.80 87.11407
822.90 88.21994
823.00 89.05652
823.10 89.53881
823.20 89.63953
823.30 89.43615
823.40 89.11556
823.50 88.86649
823.60 88.79154
823.70 88.94413
823.80 89.31908
823.90 89.81913
824.00 90.28494
824.10 90.5965
824.20 90.76162
824.30 90.85916
824.40 90.93578
824.50 91.09153
824.60 91.42481
824.70 91.92176
824.80 92.50527
824.90 93.06565
825.00 93.45023
825.10 93.4224
825.20 92.83571
825.30 91.7525
825.40 90.34968
825.50 88.87335
825.60 87.56175
825.70 86.61986
825.80 86.25143
825.90 86.51752
826.00 87.33161
826.10 88.52595
826.20 89.83484
826.30 90.95134
826.40 91.62452
826.50 91.76025
826.60 91.36297
826.70 90.52613
826.80 89.48757
826.90 88.54042
827.00 87.94774
827.10 87.78784
827.20 87.91259
827.30 88.21836
827.40 88.72964
827.50 89.43351
827.60 90.28134
827.70 91.34144
827.80 92.72711
827.90 94.37007
828.00 96.04691
828.10 97.48511
828.20 98.45851
828.30 98.83992
828.40 98.60223
828.50 97.87759
828.60 96.82121
828.70 95.43113
828.80 93.74453
828.90 91.99434
829.00 90.40557
829.10 88.99312
829.20 87.61244
829.30 86.2556
829.40 85.12677
829.50 84.42778
829.60 84.06579
829.70 83.73484
829.80 83.26609
829.90 82.68248
830.00 82.17506
830.10 81.96558
830.20 82.08293
830.30 82.40034
830.40 82.79146
830.50 83.23916
830.60 83.89753
830.70 84.90527
830.80 86.19196
830.90 87.52883
831.00 88.84024
831.10 90.22291
831.20 91.65726
831.30 92.97283
831.40 93.94177
831.50 94.4455
831.60 94.50731
831.70 94.21532
831.80 93.69559
831.90 93.01295
832.00 92.14235
832.10 91.12038
832.20 90.04795
832.30 89.03242
832.40 88.15526
832.50 87.45286
832.60 86.893
832.70 86.44571
832.80 86.14458
832.90 86.00254
833.00 85.9951
833.10 86.08363
833.20 86.24501
833.30 86.48583
833.40 86.85792
833.50 87.37596
833.60 87.93156
833.70 88.41104
833.80 88.91749
833.90 89.69451
834.00 90.95119
834.10 92.76
834.20 95.03176
834.30 97.51576
834.40 99.82651
834.50 101.6148
834.60 102.6736
834.70 102.8834
834.80 102.0482
834.90 100.0878
835.00 97.40915
835.10 94.76047
835.20 92.72942
835.30 91.57213
835.40 91.27985
835.50 91.68158
835.60 92.55021
835.70 93.62662
835.80 94.68123
835.90 95.51127
836.00 95.97767
836.10 96.10764
836.20 96.18724
836.30 96.56859
836.40 97.33386
836.50 98.32321
836.60 99.28225
836.70 99.97332
836.80 100.2625
836.90 100.1215
837.00 99.57759
837.10 98.74592
837.20 97.77809
837.30 96.83304
837.40 96.06006
837.50 95.529
837.60 95.2488
837.70 95.17868
837.80 95.25406
837.90 95.39656
838.00 95.53662
838.10 95.61333
838.20 95.5753
838.30 95.33992
838.40 94.89722
838.50 94.40008
838.60 94.03363
838.70 93.85387
838.80 93.82066
838.90 93.89583
839.00 94.02279
839.10 94.1261
839.20 94.1696
839.30 94.16542
839.40 94.15359
839.50 94.23123
839.60 94.64283
839.70 95.70285
839.80 97.41676
839.90 99.43493
840.00 101.4046
840.10 103.1025
840.20 104.3939
840.30 105.1981
840.40 105.464
840.50 105.1784
840.60 104.3696
840.70 103.1504
840.80 101.7817
840.90 100.5379
841.00 99.53489
841.10 98.7979
841.20 98.43414
841.30 98.50752
841.40 98.86355
841.50 99.34282
841.60 99.85717
841.70 100.2749
841.80 100.4273
841.90 100.2427
842.00 99.86693
842.10 99.59373
842.20 99.68885
842.30 100.4212
842.40 101.9741
842.50 104.2691
842.60 107.0571
842.70 109.9641
842.80 112.5933
842.90 114.5286
843.00 115.3094
843.10 114.674
843.20 112.7181
843.30 109.8334
843.40 106.5206
843.50 103.219
843.60 100.2129
843.70 97.59765
843.80 95.38072
843.90 93.58342
844.00 92.17007
844.10 91.12061
844.20 90.46077
844.30 90.17351
844.40 90.19558
844.50 90.40627
844.60 90.74791
844.70 91.22789
844.80 91.78735
844.90 92.29537
845.00 92.59314
845.10 92.54168
845.20 92.08479
845.30 91.23468
845.40 90.0268
845.50 88.50332
845.60 86.76216
845.70 85.03898
845.80 83.6789
845.90 82.97483
846.00 83.05339
846.10 83.85458
846.20 85.20918
846.30 86.89446
846.40 88.63759
846.50 90.14757
846.60 91.12682
846.70 91.32992
846.80 90.70808
846.90 89.43358
847.00 87.72136
847.10 85.71361
847.20 83.56593
847.30 81.55236
847.40 79.94259
847.50 78.8647
847.60 78.26783
847.70 77.95905
847.80 77.73513
847.90 77.47062
848.00 77.14825
848.10 76.82489
848.20 76.59413
848.30 76.54882
848.40 76.75025
848.50 77.20109
848.60 77.7893
848.70 78.36597
848.80 78.84512
848.90 79.15835
849.00 79.26532
849.10 79.30751
849.20 79.55175
849.30 80.06165
849.40 80.66572
849.50 81.22235
849.60 81.64598
849.70 81.89738
849.80 82.03332
849.90 82.29139
850.00 83.05456
850.10 84.51997
850.20 86.51315
850.30 88.66164
850.40 90.5973
850.50 91.94288
850.60 92.37773
850.70 91.8423
850.80 90.51779
850.90 88.72504
851.00 86.87281
851.10 85.29489
851.20 84.20451
851.30 83.63673
851.40 83.37326
851.50 83.06336
851.60 82.34486
851.70 80.92541
851.80 78.64814
851.90 75.56022
852.00 71.94626
852.10 68.28004
852.20 65.20348
852.30 63.39614
852.40 63.29648
852.50 64.93344
852.60 67.9732
852.70 71.80973
852.80 75.73652
852.90 79.21934
853.00 81.95828
853.10 83.81516
853.20 84.88603
853.30 85.48473
853.40 85.93148
853.50 86.45123
853.60 87.10071
853.70 87.70545
853.80 88.03948
853.90 88.05825
854.00 87.82153
854.10 87.40752
854.20 86.99733
854.30 86.83129
854.40 87.10264
854.50 87.98201
854.60 89.58378
854.70 91.82486
854.80 94.43937
854.90 97.05304
855.00 99.21534
855.10 100.4954
855.20 100.6193
855.30 99.57263
855.40 97.63476
855.50 95.24428
855.60 92.76185
855.70 90.38143
855.80 88.30737
855.90 86.77471
856.00 85.83452
856.10 85.38545
856.20 85.35874
856.30 85.73418
856.40 86.4396
856.50 87.31207
856.60 88.12995
856.70 88.66427
856.80 88.80897
856.90 88.63423
857.00 88.33388
857.10 88.16041
857.20 88.24465
857.30 88.5632
857.40 89.08682
857.50 89.74004
857.60 90.33837
857.70 90.72113
857.80 90.92263
857.90 91.11016
858.00 91.42413
858.10 91.98723
858.20 92.85065
858.30 93.93911
858.40 95.0925
858.50 96.08525
858.60 96.6773
858.70 96.70627
858.80 96.14233
858.90 95.10025
859.00 93.78374
859.10 92.49042
859.20 91.58856
859.30 91.4297
859.40 92.27754
859.50 94.18176
859.60 96.74002
859.70 99.2797
859.80 101.2992
859.90 102.4791
860.00 102.6821
860.10 101.9976
860.20 100.7063
860.30 99.20018
860.40 97.84636
860.50 96.82721
860.60 96.06471
860.70 95.30466
860.80 94.25275
860.90 92.66476
861.00 90.52624
861.10 87.95607
861.20 84.91192
861.30 81.40103
861.40 77.69863
861.50 74.21801
861.60 71.30964
861.70 69.11972
861.80 67.60147
861.90 66.64481
862.00 66.11543
862.10 65.8517
862.20 65.69871
862.30 65.5379
862.40 65.34301
862.50 65.17289
862.60 65.12936
862.70 65.28263
862.80 65.53349
862.90 65.73011
863.00 65.80003
863.10 65.78685
863.20 65.86297
863.30 66.11547
863.40 66.48519
863.50 66.89275
863.60 67.27645
863.70 67.52997
863.80 67.51447
863.90 67.2539
864.00 67.00202
864.10 66.96355
864.20 67.17374
864.30 67.54793
864.40 67.9224
864.50 68.17209
864.60 68.25251
864.70 68.27967
864.80 68.5124
864.90 69.20172
865.00 70.50114
865.10 72.41733
865.20 74.77992
865.30 77.05565
865.40 78.54583
865.50 78.90474
865.60 78.36002
865.70 77.44858
865.80 76.66486
865.90 76.34973
866.00 76.70146
866.10 77.78156
866.20 79.42065
866.30 81.25962
866.40 82.84862
866.50 83.83899
866.60 84.13351
866.70 83.97622
866.80 83.6751
866.90 83.29521
867.00 82.64642
867.10 81.58132
867.20 80.30314
867.30 79.14434
867.40 78.34015
867.50 78.05757
867.60 78.41872
867.70 79.35258
867.80 80.59895
867.90 81.78163
868.00 82.50918
868.10 82.5357
868.20 81.87441
868.30 80.80474
868.40 79.74882
868.50 78.99173
868.60 78.48547
868.70 78.02431
868.80 77.3517
868.90 76.14351
869.00 74.13592
869.10 71.30517
869.20 67.88244
869.30 64.35056
869.40 61.28725
869.50 59.10601
869.60 57.99923
869.70 57.96524
869.80 58.84093
869.90 60.3204
870.00 61.99794
870.10 63.49056
870.20 64.56333
870.30 65.08455
870.40 65.00893
870.50 64.41834
870.60 63.47287
870.70 62.25435
870.80 60.73556
870.90 58.95764
871.00 57.09763
871.10 55.45496
871.20 54.35512
871.30 53.96623
871.40 54.24929
871.50 55.07275
871.60 56.27192
871.70 57.57411
871.80 58.62969
871.90 59.19882
872.00 59.25601
872.10 58.91445
872.20 58.41908
872.30 58.14175
872.40 58.44971
872.50 59.4563
872.60 60.95796
872.70 62.65843
872.80 64.30507
872.90 65.65778
873.00 66.52745
873.10 66.90602
873.20 66.8826
873.30 66.55136
873.40 66.03548
873.50 65.54221
873.60 65.29871
873.70 65.4073
873.80 65.84822
873.90 66.66449
874.00 67.94146
874.10 69.57897
874.20 71.24139
874.30 72.55726
874.40 73.28344
874.50 73.25429
874.60 72.50299
874.70 71.28025
874.80 69.88533
874.90 68.63664
875.00 67.83496
875.10 67.63342
875.20 67.93713
875.30 68.54686
875.40 69.3467
875.50 70.36552
875.60 71.78018
875.70 73.61657
875.80 75.59596
875.90 77.44182
876.00 78.98792
876.10 80.04549
876.20 80.42131
876.30 80.12845
876.40 79.44354
876.50 78.86714
876.60 79.00564
876.70 80.23709
876.80 82.57761
876.90 85.78226
877.00 89.41981
877.10 93.03094
877.20 96.19107
877.30 98.56645
877.40 100.103
877.50 100.907
877.60 100.8776
877.70 99.83393
877.80 97.79498
877.90 94.92123
878.00 91.51356
878.10 87.95123
878.20 84.60684
878.30 81.78954
878.40 79.67592
878.50 78.36952
878.60 78.06964
878.70 78.90536
878.80 80.6247
878.90 82.75765
879.00 85.0423
879.10 87.31511
879.20 89.37903
879.30 91.01412
879.40 91.9469
879.50 92.00717
879.60 91.13438
879.70 89.41349
879.80 87.10922
879.90 84.56756
880.00 82.07401
880.10 79.82683
880.20 77.9717
880.30 76.6558
880.40 76.05925
880.50 76.20803
880.60 76.81474
880.70 77.55652
880.80 78.33202
880.90 79.2362
881.00 80.47185
881.10 82.2227
881.20 84.60602
881.30 87.65087
881.40 91.22197
881.50 95.06854
881.60 98.89097
881.70 102.3531
881.80 105.0973
881.90 106.7176
882.00 107.0687
882.10 106.3966
882.20 105.074
882.30 103.474
882.40 101.922
882.50 100.7484
882.60 100.3438
882.70 100.9818
882.80 102.5959
882.90 104.6963
883.00 106.6225
883.10 107.8142
883.20 108.0029
883.30 107.5429
883.40 106.9745
883.50 106.5867
883.60 106.5573
883.70 106.9597
883.80 107.8299
883.90 109.0017
884.00 109.8889
884.10 109.719
884.20 107.9632
884.30 104.6479
884.40 100.2513
884.50 95.52104
884.60 91.28726
884.70 88.2417
884.80 86.93755
884.90 87.67027
885.00 90.35419
885.10 94.51411
885.20 99.29981
885.30 103.6921
885.40 106.8092
885.50 108.1783
885.60 107.7841
885.70 105.8654
885.80 102.8426
885.90 99.36323
886.00 96.21592
886.10 93.9726
886.20 92.85588
886.30 92.89865
886.40 93.92054
886.50 95.51055
886.60 97.10698
886.70 98.08333
886.80 97.91726
886.90 96.36506
887.00 93.54367
887.10 89.97286
887.20 86.46468
887.30 83.81932
887.40 82.60585
887.50 83.11979
887.60 85.36205
887.70 88.95733
887.80 93.16667
887.90 97.22096
888.00 100.7089
888.10 103.4639
888.20 105.4921
888.30 106.9633
888.40 108.1313
888.50 109.324
888.60 110.8305
888.70 112.7165
888.80 114.6733
888.90 116.1393
889.00 116.5497
889.10 115.4975
889.20 112.8085
889.30 108.557
889.40 102.9864
889.50 96.76613
889.60 90.99222
889.70 86.72942
889.80 84.75191
889.90 85.25145
890.00 87.70988
890.10 91.2663
890.20 95.13408
890.30 98.71365
890.40 101.4642
890.50 102.9654
890.60 103.1252
890.70 102.1514
890.80 100.5028
890.90 98.77476
891.00 97.5037
891.10 97.11486
891.20 97.67832
891.30 99.02163
891.40 101.002
891.50 103.476
891.60 106.2437
891.70 109.0296
891.80 111.5965
891.90 113.7662
892.00 115.3937
892.10 116.3743
892.20 116.6244
892.30 116.1046
892.40 114.7769
892.50 112.584
892.60 109.6956
892.70 106.5042
892.80 103.568
892.90 101.5381
893.00 100.9313
893.10 101.9855
893.20 104.5203
893.30 107.9821
893.40 111.6486
893.50 114.7446
893.60 116.5167
893.70 116.2948
893.80 113.7508
893.90 109.1703
894.00 103.2855
894.10 96.92653
894.20 90.82252
894.30 85.66539
894.40 82.08756
894.50 80.32219
894.60 80.20786
894.70 81.487
894.80 83.82272
894.90 86.77942
895.00 90.00375
895.10 93.42871
895.20 97.17245
895.30 101.3567
895.40 106.0499
895.50 111.1951
895.60 116.4805
895.70 121.2873
895.80 124.9354
895.90 127.0331
896.00 127.5704
896.10 126.5942
896.20 124.1234
896.30 120.47
896.40 116.277
896.50 112.2353
896.60 108.8111
896.70 106.196
896.80 104.5014
896.90 103.8318
897.00 104.1843
897.10 105.3931
897.20 107.1671
897.30 109.1901
897.40 111.0613
897.50 112.4343
897.60 113.2297
897.70 113.4972
897.80 113.2618
897.90 112.6444
898.00 111.9695
898.10 111.6154
898.20 111.8291
898.30 112.7506
898.40 114.5683
898.50 117.3158
898.60 120.5334
898.70 123.5133
898.80 125.6096
898.90 126.5006
899.00 126.2996
899.10 125.3422
899.20 124.0042
899.30 122.5106
899.40 120.9615
899.50 119.46
899.60 117.9866
899.70 116.5134
899.80 115.0886
899.90 113.8214
900.00 114.3398
900.10 114.8582
900.20 115.3766
900.30 115.895
900.40 116.4134
900.50 116.9318
900.60 117.4502
900.70 117.9686
900.80 118.487
900.90 119.0054
901.00 119.5238
901.10 120.0422
901.20 120.5606
901.30 121.079
901.40 121.5974
901.50 122.1158
901.60 122.6342
901.70 123.1526
901.80 123.671
901.90 124.1894
902.00 124.7078
902.10 125.2262
902.20 125.7446
902.30 126.263
902.40 126.7814
902.50 127.2998
902.60 127.8182
902.70 128.3366
902.80 128.855
902.90 129.3734
903.00 129.8918
903.10 130.4102
903.20 130.514
903.30 130.6135
903.40 130.713
903.50 130.8126
903.60 130.9121
903.70 131.0116
903.80 131.1112
903.90 131.2107
904.00 131.3102
904.10 131.4098
904.20 131.5093
904.30 131.6088
904.40 131.7084
904.50 131.8079
904.60 131.9075
904.70 132.007
904.80 132.1065
904.90 132.2061
905.00 132.3056
905.10 132.4051
905.20 132.5047
905.30 132.6042
905.40 132.7037
905.50 132.8033
905.60 132.9028
905.70 133.0023
905.80 133.1019
905.90 133.2014
906.00 133.3009
906.10 133.4005
906.20 133.5
906.30 133.5995
906.40 133.6991
906.50 133.7986
906.60 133.9386
906.70 134.096
906.80 134.2534
906.90 134.4108
907.00 134.5681
907.10 134.7255
907.20 134.8829
907.30 135.0403
907.40 135.1976
907.50 135.355
907.60 135.5124
907.70 135.6698
907.80 135.8272
907.90 135.9845
908.00 136.1419
908.10 136.2993
908.20 136.4567
908.30 136.614
908.40 136.7714
908.50 136.9288
908.60 137.0862
908.70 137.2435
908.80 137.4009
908.90 137.5583
909.00 137.7157
909.10 137.873
909.20 138.0304
909.30 138.1878
909.40 138.3452
909.50 138.5025
909.60 138.6599
909.70 138.8173
909.80 138.9747
909.90 139.132
910.00 139.2754
910.10 139.3716
910.20 139.4678
910.30 139.5641
910.40 139.6603
910.50 139.7565
910.60 139.8528
910.70 139.949
910.80 140.0452
910.90 140.1415
911.00 140.2377
911.10 140.3339
911.20 140.4301
911.30 140.5264
911.40 140.6226
911.50 140.7188
911.60 140.8151
911.70 140.9113
911.80 141.0075
911.90 141.1038
912.00 141.2
912.10 141.2962
912.20 141.3925
912.30 141.4887
912.40 141.5849
912.50 141.6812
912.60 141.7774
912.70 141.8736
912.80 141.9699
912.90 142.0661
913.00 142.1623
913.10 142.2586
913.20 142.3548
913.30 142.451
913.40 142.5473
913.50 142.7106
913.60 142.9246
913.70 143.1385
913.80 143.3525
913.90 143.5665
914.00 143.7804
914.10 143.9944
914.20 144.2084
914.30 144.4223
914.40 144.6363
914.50 144.8503
914.60 145.0642
914.70 145.2782
914.80 145.4922
914.90 145.7061
915.00 145.9201
915.10 146.1341
915.20 146.348
915.30 146.562
915.40 146.776
915.50 146.9899
915.60 147.2039
915.70 147.4179
915.80 147.6318
915.90 147.8458
916.00 148.0598
916.10 148.2737
916.20 148.4877
916.30 148.7017
916.40 148.9156
916.50 149.1296
916.60 149.3436
916.70 149.5575
916.80 149.7715
916.90 149.9855
917.00 150.1245
917.10 150.2372
917.20 150.3499
917.30 150.4625
917.40 150.5752
917.50 150.6879
917.60 150.8006
917.70 150.9133
917.80 151.0259
917.90 151.1386
918.00 151.2513
918.10 151.364
918.20 151.4767
918.30 151.5893
918.40 151.702
918.50 151.8147
918.60 151.9274
918.70 152.0401
918.80 152.1527
918.90 152.2654
919.00 152.3781
919.10 152.4908
919.20 152.6035
919.30 152.7161
919.40 152.8288
919.50 152.9415
919.60 153.0542
919.70 153.1669
919.80 153.2795
919.90 153.3922
920.00 153.5049
920.10 153.6176
920.20 153.7303
920.30 153.8429
920.40 153.9556
920.50 154.0968
920.60 154.2479
920.70 154.399
920.80 154.5501
920.90 154.7012
921.00 154.8524
921.10 155.0035
921.20 155.1546
921.30 155.3057
921.40 155.4568
921.50 155.608
921.60 155.7591
921.70 155.9102
921.80 156.0613
921.90 156.2124
922.00 156.3636
922.10 156.5147
922.20 156.6658
922.30 156.8169
922.40 156.9681
922.50 157.1192
922.60 157.2703
922.70 157.4214
922.80 157.5725
922.90 157.7237
923.00 157.8748
923.10 158.0259
923.20 158.177
923.30 158.3281
923.40 158.4793
923.50 158.6304
923.60 158.7815
923.70 158.9326
923.80 159.0837
923.90 159.2349
924.00 159.2211
924.10 159.0777
924.20 158.9344
924.30 158.791
924.40 158.6476
924.50 158.5043
924.60 158.3609
924.70 158.2176
924.80 158.0742
924.90 157.9309
925.00 157.7875
925.10 157.6441
925.20 157.5008
925.30 157.3574
925.40 157.2141
925.50 157.0707
925.60 156.9273
925.70 156.784
925.80 156.6406
925.90 156.4973
926.00 156.3539
926.10 156.2106
926.20 156.0672
926.30 155.9238
926.40 155.7805
926.50 155.6371
926.60 155.4938
926.70 155.3504
926.80 155.207
926.90 155.0637
927.00 154.9203
927.10 154.777
927.20 154.6336
927.30 154.4902
927.40 154.3469
927.50 154.2017
927.60 154.0492
927.70 153.8966
927.80 153.7441
927.90 153.5915
928.00 153.439
928.10 153.2865
928.20 153.1339
928.30 152.9814
928.40 152.8288
928.50 152.6763
928.60 152.5237
928.70 152.3712
928.80 152.2187
928.90 152.0661
929.00 151.9136
929.10 151.761
929.20 151.6085
929.30 151.456
929.40 151.3034
929.50 151.1509
929.60 150.9983
929.70 150.8458
929.80 150.6933
929.90 150.5407
930.00 150.3882
930.10 150.2356
930.20 150.0831
930.30 149.9306
930.40 149.778
930.50 149.6255
930.60 149.4729
930.70 149.3204
930.80 149.1679
930.90 149.0153
931.00 148.8628
931.10 149.0085
931.20 149.3011
931.30 149.5937
931.40 149.8864
931.50 150.179
931.60 150.4716
931.70 150.7642
931.80 151.0569
931.90 151.3495
932.00 151.6421
932.10 151.9347
932.20 152.2273
932.30 152.52
932.40 152.8126
932.50 153.1052
932.60 153.3978
932.70 153.6905
932.80 153.9831
932.90 154.2757
933.00 154.5683
933.10 154.861
933.20 155.1536
933.30 155.4462
933.40 155.7388
933.50 156.0315
933.60 156.3241
933.70 156.6167
933.80 156.9093
933.90 157.2019
934.00 157.4946
934.10 157.7872
934.20 158.0798
934.30 158.3724
934.40 158.6651
934.50 158.9577
934.60 159.2503
934.70 159.4657
934.80 159.6788
934.90 159.8918
935.00 160.1049
935.10 160.3179
935.20 160.5309
935.30 160.744
935.40 160.957
935.50 161.1701
935.60 161.3831
935.70 161.5961
935.80 161.8092
935.90 162.0222
936.00 162.2353
936.10 162.4483
936.20 162.6613
936.30 162.8744
936.40 163.0874
936.50 163.3004
936.60 163.5135
936.70 163.7265
936.80 163.9396
936.90 164.1526
937.00 164.3656
937.10 164.5787
937.20 164.7917
937.30 165.0048
937.40 165.2178
937.50 165.4308
937.60 165.6439
937.70 165.8569
937.80 166.07
937.90 166.283
938.00 166.496
938.10 166.7091
938.20 166.8996
938.30 166.8871
938.40 166.8747
938.50 166.8623
938.60 166.8498
938.70 166.8374
938.80 166.8249
938.90 166.8125
939.00 166.8001
939.10 166.7876
939.20 166.7752
939.30 166.7628
939.40 166.7503
939.50 166.7379
939.60 166.7254
939.70 166.713
939.80 166.7006
939.90 166.6881
940.00 166.6757
940.10 166.6632
940.20 166.6508
940.30 166.6384
940.40 166.6259
940.50 166.6135
940.60 166.6011
940.70 166.5886
940.80 166.5762
940.90 166.5637
941.00 166.5513
941.10 166.5389
941.20 166.5264
941.30 166.514
941.40 166.5015
941.50 166.4891
941.60 166.4767
941.70 166.4642
941.80 166.4593
941.90 166.5543
942.00 166.6492
942.10 166.7441
942.20 166.8391
942.30 166.934
942.40 167.029
942.50 167.1239
942.60 167.2188
942.70 167.3138
942.80 167.4087
942.90 167.5036
943.00 167.5986
943.10 167.6935
943.20 167.7885
943.30 167.8834
943.40 167.9783
943.50 168.0733
943.60 168.1682
943.70 168.2632
943.80 168.3581
943.90 168.453
944.00 168.548
944.10 168.6429
944.20 168.7379
944.30 168.8328
944.40 168.9277
944.50 169.0227
944.60 169.1176
944.70 169.2126
944.80 169.3075
944.90 169.4024
945.00 169.4974
945.10 169.5923
945.20 169.6873
945.30 169.7822
945.40 169.8771
945.50 170.0441
945.60 170.2219
945.70 170.3996
945.80 170.5774
945.90 170.7551
946.00 170.9329
946.10 171.1106
946.20 171.2884
946.30 171.4661
946.40 171.6439
946.50 171.8216
946.60 171.9994
946.70 172.1771
946.80 172.3549
946.90 172.5326
947.00 172.7104
947.10 172.8881
947.20 173.0658
947.30 173.2436
947.40 173.4213
947.50 173.5991
947.60 173.7768
947.70 173.9546
947.80 174.1323
947.90 174.3101
948.00 174.4878
948.10 174.6656
948.20 174.8433
948.30 175.0211
948.40 175.1988
948.50 175.3766
948.60 175.5543
948.70 175.7321
948.80 175.9098
948.90 176.0876
949.00 176.2653
949.10 176.4625
949.20 176.6791
949.30 176.8958
949.40 177.1124
949.50 177.329
949.60 177.5457
949.70 177.7623
949.80 177.9789
949.90 178.1956
950.00 178.4122
950.10 178.6288
950.20 178.8455
950.30 179.0621
950.40 179.2787
950.50 179.4954
950.60 179.712
950.70 179.9286
950.80 180.1453
950.90 180.3619
951.00 180.5785
951.10 180.7952
951.20 181.0118
951.30 181.2284
951.40 181.4451
951.50 181.6617
951.60 181.8783
951.70 182.095
951.80 182.3116
951.90 182.5282
952.00 182.7449
952.10 182.9615
952.20 183.1781
952.30 183.3948
952.40 183.6114
952.50 183.828
952.60 184.0447
952.70 184.2613
952.80 184.2926
952.90 184.3182
953.00 184.3438
953.10 184.3693
953.20 184.3949
953.30 184.4205
953.40 184.446
953.50 184.4716
953.60 184.4972
953.70 184.5228
953.80 184.5483
953.90 184.5739
954.00 184.5995
954.10 184.6251
954.20 184.6506
954.30 184.6762
954.40 184.7018
954.50 184.7274
954.60 184.7529
954.70 184.7785
954.80 184.8041
954.90 184.8296
955.00 184.8552
955.10 184.8808
955.20 184.9064
955.30 184.9319
955.40 184.9575
955.50 184.9831
955.60 185.0087
955.70 185.0342
955.80 185.0598
955.90 185.0854
956.00 185.111
956.10 185.1365
956.20 185.1621
956.30 185.1877
956.40 185.2155
956.50 185.249
956.60 185.2825
956.70 185.316
956.80 185.3495
956.90 185.383
957.00 185.4165
957.10 185.45
957.20 185.4835
957.30 185.517
957.40 185.5505
957.50 185.5841
957.60 185.6176
957.70 185.6511
957.80 185.6846
957.90 185.7181
958.00 185.7516
958.10 185.7851
958.20 185.8186
958.30 185.8521
958.40 185.8856
958.50 185.9191
958.60 185.9526
958.70 185.9861
958.80 186.0197
958.90 186.0532
959.00 186.0867
959.10 186.1202
959.20 186.1537
959.30 186.1872
959.40 186.2207
959.50 186.2542
959.60 186.2877
959.70 186.3212
959.80 186.3547
959.90 186.3882
960.00 186.4217
960.10 186.4017
960.20 186.3105
960.30 186.2193
960.40 186.1282
960.50 186.037
960.60 185.9459
960.70 185.8547
960.80 185.7636
960.90 185.6724
961.00 185.5813
961.10 185.4901
961.20 185.399
961.30 185.3078
961.40 185.2167
961.50 185.1255
961.60 185.0344
961.70 184.9432
961.80 184.8521
961.90 184.7609
962.00 184.6698
962.10 184.5786
962.20 184.4875
962.30 184.3963
962.40 184.3052
962.50 184.214
962.60 184.1228
962.70 184.0317
962.80 183.9405
962.90 183.8494
963.00 183.7582
963.10 183.6671
963.20 183.5759
963.30 183.4848
963.40 183.3936
963.50 183.3025
963.60 183.2113
963.70 183.1202
963.80 183.1484
963.90 183.3415
964.00 183.5346
964.10 183.7278
964.20 183.9209
964.30 184.114
964.40 184.3071
964.50 184.5002
964.60 184.6933
964.70 184.8865
964.80 185.0796
964.90 185.2727
965.00 185.4658
965.10 185.6589
965.20 185.852
965.30 186.0451
965.40 186.2383
965.50 186.4314
965.60 186.6245
965.70 186.8176
965.80 187.0107
965.90 187.2038
966.00 187.397
966.10 187.5901
966.20 187.7832
966.30 187.9763
966.40 188.1694
966.50 188.3625
966.60 188.5556
966.70 188.7488
966.80 188.9419
966.90 189.135
967.00 189.3281
967.10 189.5212
967.20 189.7143
967.30 189.9075
967.40 190.1006
967.50 190.2566
967.60 190.3069
967.70 190.3572
967.80 190.4076
967.90 190.4579
968.00 190.5083
968.10 190.5586
968.20 190.609
968.30 190.6593
968.40 190.7096
968.50 190.76
968.60 190.8103
968.70 190.8607
968.80 190.911
968.90 190.9614
969.00 191.0117
969.10 191.062
969.20 191.1124
969.30 191.1627
969.40 191.2131
969.50 191.2634
969.60 191.3138
969.70 191.3641
969.80 191.4145
969.90 191.4648
970.00 191.5151
970.10 191.5655
970.20 191.6158
970.30 191.6662
970.40 191.7165
970.50 191.7669
970.60 191.8172
970.70 191.8675
970.80 191.9179
970.90 191.9682
971.00 192.0186
971.10 192.0689
971.20 192.1193
971.30 192.281
971.40 192.4498
971.50 192.6186
971.60 192.7874
971.70 192.9562
971.80 193.125
971.90 193.2938
972.00 193.4627
972.10 193.6315
972.20 193.8003
972.30 193.9691
972.40 194.1379
972.50 194.3067
972.60 194.4755
972.70 194.6444
972.80 194.8132
972.90 194.982
973.00 195.1508
973.10 195.3196
973.20 195.4884
973.30 195.6572
973.40 195.8261
973.50 195.9949
973.60 196.1637
973.70 196.3325
973.80 196.5013
973.90 196.6701
974.00 196.8389
974.10 197.0078
974.20 197.1766
974.30 197.3454
974.40 197.5142
974.50 197.683
974.60 197.8518
974.70 198.0206
974.80 198.1894
974.90 198.3583
975.00 198.5863
975.10 198.8811
975.20 199.176
975.30 199.4708
975.40 199.7656
975.50 200.0605
975.60 200.3553
975.70 200.6501
975.80 200.945
975.90 201.2398
976.00 201.5346
976.10 201.8294
976.20 202.1243
976.30 202.4191
976.40 202.7139
976.50 203.0088
976.60 203.3036
976.70 203.5984
976.80 203.8933
976.90 204.1881
977.00 204.4829
977.10 204.7777
977.20 205.0726
977.30 205.3674
977.40 205.6622
977.50 205.9571
977.60 206.2519
977.70 206.5467
977.80 206.8416
977.90 207.1364
978.00 207.4312
978.10 207.7261
978.20 208.0209
978.30 208.3157
978.40 208.6105
978.50 208.9054
978.60 209.2002
978.70 209.495
978.80 209.4909
978.90 209.4339
979.00 209.3769
979.10 209.32
979.20 209.263
979.30 209.2061
979.40 209.1491
979.50 209.0922
979.60 209.0352
979.70 208.9782
979.80 208.9213
979.90 208.8643
980.00 208.8074
980.10 208.7504
980.20 208.6935
980.30 208.6365
980.40 208.5796
980.50 208.5226
980.60 208.4656
980.70 208.4087
980.80 208.3517
980.90 208.2948
981.00 208.2378
981.10 208.1809
981.20 208.1239
981.30 208.067
981.40 208.01
981.50 207.953
981.60 207.8961
981.70 207.8391
981.80 207.7822
981.90 207.7252
982.00 207.6683
982.10 207.6113
982.20 207.5544
982.30 207.4974
982.40 207.4404
982.50 207.3587
982.60 206.9916
982.70 206.6245
982.80 206.2573
982.90 205.8902
983.00 205.5231
983.10 205.156
983.20 204.7889
983.30 204.4218
983.40 204.0547
983.50 203.6876
983.60 203.3205
983.70 202.9534
983.80 202.5863
983.90 202.2191
984.00 201.852
984.10 201.4849
984.20 201.1178
984.30 200.7507
984.40 200.3836
984.50 200.0165
984.60 199.6494
984.70 199.2823
984.80 198.9152
984.90 198.5481
985.00 198.1809
985.10 197.8138
985.20 197.4467
985.30 197.0796
985.40 196.7125
985.50 196.3454
985.60 195.9783
985.70 195.6112
985.80 195.2441
985.90 194.877
986.00 194.5099
986.10 194.1427
986.20 193.7756
986.30 193.3951
986.40 192.9442
986.50 192.4932
986.60 192.0422
986.70 191.5913
986.80 191.1403
986.90 190.6894
987.00 190.2384
987.10 189.7875
987.20 189.3365
987.30 188.8856
987.40 188.4346
987.50 187.9837
987.60 187.5327
987.70 187.0817
987.80 186.6308
987.90 186.1798
988.00 185.7289
988.10 185.2779
988.20 184.827
988.30 184.376
988.40 183.9251
988.50 183.4741
988.60 183.0231
988.70 182.5722
988.80 182.1212
988.90 181.6703
989.00 181.2193
989.10 180.7684
989.20 180.3174
989.30 179.8665
989.40 179.4155
989.50 178.9645
989.60 178.5136
989.70 178.0626
989.80 177.6117
989.90 177.1607
990.00 176.7098
990.10 176.2654
990.20 175.8803
990.30 175.4952
990.40 175.1101
990.50 174.725
990.60 174.3399
990.70 173.9548
990.80 173.5697
990.90 173.1846
991.00 172.7995
991.10 172.4144
991.20 172.0293
991.30 171.6442
991.40 171.2591
991.50 170.874
991.60 170.489
991.70 170.1039
991.80 169.7188
991.90 169.3337
992.00 168.9486
992.10 168.5635
992.20 168.1784
992.30 167.7933
992.40 167.4082
992.50 167.0231
992.60 166.638
992.70 166.2529
992.80 165.8678
992.90 165.4827
993.00 165.0976
993.10 164.7125
993.20 164.3274
993.30 163.9423
993.40 163.5572
993.50 163.1721
993.60 162.787
993.70 162.4019
993.80 162.0168
993.90 161.6317
994.00 161.3611
994.10 161.1031
994.20 160.8451
994.30 160.5872
994.40 160.3292
994.50 160.0713
994.60 159.8133
994.70 159.5553
994.80 159.2974
994.90 159.0394
995.00 158.7815
995.10 158.5235
995.20 158.2656
995.30 158.0076
995.40 157.7496
995.50 157.4917
995.60 157.2337
995.70 156.9758
995.80 156.7178
995.90 156.4599
996.00 156.2019
996.10 155.9439
996.20 155.686
996.30 155.428
996.40 155.1701
996.50 154.9121
996.60 154.6541
996.70 154.3962
996.80 154.1382
996.90 153.8803
997.00 153.6223
997.10 153.3644
997.20 153.1064
997.30 152.8484
997.40 152.5905
997.50 152.3325
997.60 152.0746
997.70 151.8166
997.80 151.7958
997.90 151.969
998.00 152.1422
998.10 152.3154
998.20 152.4886
998.30 152.6618
998.40 152.835
998.50 153.0082
998.60 153.1814
998.70 153.3546
998.80 153.5278
998.90 153.701
999.00 153.8742
999.10 154.0474
999.20 154.2206
999.30 154.3938
999.40 154.567
999.50 154.7402
999.60 154.9134
999.70 155.0866
999.80 155.2598
999.90 155.433
1000.00 155.6062
1000.10 155.7794
1000.20 155.9526
1000.30 156.1258
1000.40 156.299
1000.50 156.4722
1000.60 156.6454
1000.70 156.8186
1000.80 156.9918
1000.90 157.165
1001.00 157.3382
1001.10 157.5114
1001.20 157.6846
1001.30 157.8578
1001.40 158.031
1001.50 158.2042
1001.60 158.3775
1001.70 158.5526
1001.80 158.7276
1001.90 158.9026
1002.00 159.0777
1002.10 159.2527
1002.20 159.4277
1002.30 159.6028
1002.40 159.7778
1002.50 159.9529
1002.60 160.1279
1002.70 160.3029
1002.80 160.478
1002.90 160.653
1003.00 160.828
1003.10 161.0031
1003.20 161.1781
1003.30 161.3531
1003.40 161.5282
1003.50 161.7032
1003.60 161.8783
1003.70 162.0533
1003.80 162.2283
1003.90 162.4034
1004.00 162.5784
1004.10 162.7534
1004.20 162.9285
1004.30 163.1035
1004.40 163.2785
1004.50 163.4536
1004.60 163.6286
1004.70 163.8036
1004.80 163.9787
1004.90 164.1537
1005.00 164.3288
1005.10 164.5038
1005.20 164.6788
1005.30 164.8539
1005.40 165.0289
1005.50 165.2653
1005.60 165.5936
1005.70 165.922
1005.80 166.2503
1005.90 166.5786
1006.00 166.907
1006.10 167.2353
1006.20 167.5637
1006.30 167.892
1006.40 168.2204
1006.50 168.5487
1006.60 168.8771
1006.70 169.2054
1006.80 169.5338
1006.90 169.8621
1007.00 170.1905
1007.10 170.5188
1007.20 170.8472
1007.30 171.1755
1007.40 171.5038
1007.50 171.8322
1007.60 172.1605
1007.70 172.4889
1007.80 172.8172
1007.90 173.1456
1008.00 173.4739
1008.10 173.8023
1008.20 174.1306
1008.30 174.459
1008.40 174.7873
1008.50 175.1157
1008.60 175.444
1008.70 175.7724
1008.80 176.1007
1008.90 176.429
1009.00 176.7574
1009.10 177.0857
1009.20 177.4141
1009.30 177.7424
1009.40 177.939
1009.50 178.0791
1009.60 178.2192
1009.70 178.3593
1009.80 178.4994
1009.90 178.6395
1010.00 178.7796
1010.10 178.9196
1010.20 179.0597
1010.30 179.1998
1010.40 179.3399
1010.50 179.48
1010.60 179.6201
1010.70 179.7602
1010.80 179.9003
1010.90 180.0404
1011.00 180.1805
1011.10 180.3206
1011.20 180.4607
1011.30 180.6008
1011.40 180.7409
1011.50 180.881
1011.60 181.021
1011.70 181.1611
1011.80 181.3012
1011.90 181.4413
1012.00 181.5814
1012.10 181.7215
1012.20 181.8616
1012.30 182.0017
1012.40 182.1418
1012.50 182.2819
1012.60 182.422
1012.70 182.5621
1012.80 182.7022
1012.90 182.8423
1013.00 182.9823
1013.10 183.1224
1013.20 183.2625
1013.30 183.2842
1013.40 183.2763
1013.50 183.2684
1013.60 183.2605
1013.70 183.2525
1013.80 183.2446
1013.90 183.2367
1014.00 183.2288
1014.10 183.2208
1014.20 183.2129
1014.30 183.205
1014.40 183.1971
1014.50 183.1892
1014.60 183.1812
1014.70 183.1733
1014.80 183.1654
1014.90 183.1575
1015.00 183.1496
1015.10 183.1416
1015.20 183.1337
1015.30 183.1258
1015.40 183.1179
1015.50 183.11
1015.60 183.102
1015.70 183.0941
1015.80 183.0862
1015.90 183.0783
1016.00 183.0704
1016.10 183.0624
1016.20 183.0545
1016.30 183.0466
1016.40 183.0387
1016.50 183.0308
1016.60 183.0228
1016.70 183.0149
1016.80 183.007
1016.90 182.9991
1017.00 182.9912
1017.10 182.9832
1017.20 183.0918
1017.30 183.2295
1017.40 183.3671
1017.50 183.5048
1017.60 183.6425
1017.70 183.7801
1017.80 183.9178
1017.90 184.0555
1018.00 184.1931
1018.10 184.3308
1018.20 184.4685
1018.30 184.6061
1018.40 184.7438
1018.50 184.8815
1018.60 185.0191
1018.70 185.1568
1018.80 185.2945
1018.90 185.4321
1019.00 185.5698
1019.10 185.7075
1019.20 185.8451
1019.30 185.9828
1019.40 186.1205
1019.50 186.2581
1019.60 186.3958
1019.70 186.5335
1019.80 186.6711
1019.90 186.8088
1020.00 186.9465
1020.10 187.0841
1020.20 187.2218
1020.30 187.3595
1020.40 187.4971
1020.50 187.6348
1020.60 187.7725
1020.70 187.9101
1020.80 188.0478
1020.90 188.1855
1021.00 188.3232
1021.10 188.3816
1021.20 188.3872
1021.30 188.3929
1021.40 188.3985
1021.50 188.4041
1021.60 188.4098
1021.70 188.4154
1021.80 188.421
1021.90 188.4266
1022.00 188.4323
1022.10 188.4379
1022.20 188.4435
1022.30 188.4492
1022.40 188.4548
1022.50 188.4604
1022.60 188.4661
1022.70 188.4717
1022.80 188.4773
1022.90 188.483
1023.00 188.4886
1023.10 188.4942
1023.20 188.4999
1023.30 188.5055
1023.40 188.5111
1023.50 188.5168
1023.60 188.5224
1023.70 188.528
1023.80 188.5336
1023.90 188.5393
1024.00 188.5449
1024.10 188.5505
1024.20 188.5562
1024.30 188.5618
1024.40 188.5674
1024.50 188.5731
1024.60 188.5787
1024.70 188.5843
1024.80 188.59
1024.90 188.5956
1025.00 188.601
1025.10 188.6061
1025.20 188.6111
1025.30 188.6162
1025.40 188.6212
1025.50 188.6263
1025.60 188.6313
1025.70 188.6364
1025.80 188.6414
1025.90 188.6465
1026.00 188.6516
1026.10 188.6566
1026.20 188.6617
1026.30 188.6667
1026.40 188.6718
1026.50 188.6768
1026.60 188.6819
1026.70 188.687
1026.80 188.692
1026.90 188.6971
1027.00 188.7021
1027.10 188.7072
1027.20 188.7122
1027.30 188.7173
1027.40 188.7223
1027.50 188.7274
1027.60 188.7325
1027.70 188.7375
1027.80 188.7426
1027.90 188.7476
1028.00 188.7527
1028.10 188.7577
1028.20 188.7628
1028.30 188.7678
1028.40 188.7729
1028.50 188.778
1028.60 188.783
1028.70 188.7881
1028.80 188.7931
1028.90 188.7982
1029.00 189.0918
1029.10 189.3853
1029.20 189.6789
1029.30 189.9725
1029.40 190.2661
1029.50 190.5596
1029.60 190.8532
1029.70 191.1468
1029.80 191.4404
1029.90 191.7339
1030.00 192.0275
1030.10 192.3211
1030.20 192.6147
1030.30 192.9082
1030.40 193.2018
1030.50 193.4954
1030.60 193.789
1030.70 194.0825
1030.80 194.3761
1030.90 194.6697
1031.00 194.9633
1031.10 195.2569
1031.20 195.5504
1031.30 195.844
1031.40 196.1376
1031.50 196.4312
1031.60 196.7247
1031.70 197.0183
1031.80 197.3119
1031.90 197.6055
1032.00 197.899
1032.10 198.1926
1032.20 198.4862
1032.30 198.7798
1032.40 199.0733
1032.50 199.3669
1032.60 199.6605
1032.70 199.9541
1032.80 200.2476
1032.90 200.4822
1033.00 200.6281
1033.10 200.7741
1033.20 200.9201
1033.30 201.066
1033.40 201.212
1033.50 201.3579
1033.60 201.5039
1033.70 201.6499
1033.80 201.7958
1033.90 201.9418
1034.00 202.0877
1034.10 202.2337
1034.20 202.3797
1034.30 202.5256
1034.40 202.6716
1034.50 202.8175
1034.60 202.9635
1034.70 203.1095
1034.80 203.2554
1034.90 203.4014
1035.00 203.5474
1035.10 203.6933
1035.20 203.8393
1035.30 203.9852
1035.40 204.1312
1035.50 204.2772
1035.60 204.4231
1035.70 204.5691
1035.80 204.715
1035.90 204.861
1036.00 205.007
1036.10 205.1529
1036.20 205.2989
1036.30 205.4448
1036.40 205.5908
1036.50 205.7368
1036.60 205.8827
1036.70 206.0287
1036.80 206.1747
1036.90 206.2742
1037.00 206.3622
1037.10 206.4501
1037.20 206.5381
1037.30 206.626
1037.40 206.714
1037.50 206.8019
1037.60 206.8898
1037.70 206.9778
1037.80 207.0657
1037.90 207.1537
1038.00 207.2416
1038.10 207.3296
1038.20 207.4175
1038.30 207.5055
1038.40 207.5934
1038.50 207.6814
1038.60 207.7693
1038.70 207.8573
1038.80 207.9452
1038.90 208.0332
1039.00 208.1211
1039.10 208.2091
1039.20 208.297
1039.30 208.385
1039.40 208.4729
1039.50 208.5609
1039.60 208.6488
1039.70 208.7368
1039.80 208.8247
1039.90 208.9127
1040.00 209.0006
1040.10 209.0886
1040.20 209.1765
1040.30 209.2645
1040.40 209.3524
1040.50 209.4404
1040.60 209.5283
1040.70 209.6163
1040.80 209.7042
1040.90 209.7756
1041.00 209.847
1041.10 209.9184
1041.20 209.9898
1041.30 210.0612
1041.40 210.1327
1041.50 210.2041
1041.60 210.2755
1041.70 210.3469
1041.80 210.4183
1041.90 210.4897
1042.00 210.5611
1042.10 210.6325
1042.20 210.7039
1042.30 210.7753
1042.40 210.8467
1042.50 210.9181
1042.60 210.9895
1042.70 211.0609
1042.80 211.1323
1042.90 211.2038
1043.00 211.2752
1043.10 211.3466
1043.20 211.418
1043.30 211.4894
1043.40 211.5608
1043.50 211.6322
1043.60 211.7036
1043.70 211.775
1043.80 211.8464
1043.90 211.9178
1044.00 211.9892
1044.10 212.0606
1044.20 212.132
1044.30 212.2035
1044.40 212.2749
1044.50 212.3463
1044.60 212.4177
1044.70 212.4891
1044.80 212.5648
1044.90 212.6796
1045.00 212.7944
1045.10 212.9092
1045.20 213.0239
1045.30 213.1387
1045.40 213.2535
1045.50 213.3683
1045.60 213.4831
1045.70 213.5978
1045.80 213.7126
1045.90 213.8274
1046.00 213.9422
1046.10 214.057
1046.20 214.1717
1046.30 214.2865
1046.40 214.4013
1046.50 214.5161
1046.60 214.6309
1046.70 214.7456
1046.80 214.8604
1046.90 214.9752
1047.00 215.09
1047.10 215.2047
1047.20 215.3195
1047.30 215.4343
1047.40 215.5491
1047.50 215.6639
1047.60 215.7786
1047.70 215.8934
1047.80 216.0082
1047.90 216.123
1048.00 216.2378
1048.10 216.3525
1048.20 216.4673
1048.30 216.5821
1048.40 216.6969
1048.50 216.8117
1048.60 216.9264
1048.70 217.0412
1048.80 217.1413
1048.90 217.1094
1049.00 217.0774
1049.10 217.0454
1049.20 217.0134
1049.30 216.9815
1049.40 216.9495
1049.50 216.9175
1049.60 216.8856
1049.70 216.8536
1049.80 216.8216
1049.90 216.7897
1050.00 216.7577
1050.10 216.7257
1050.20 216.6937
1050.30 216.6618
1050.40 216.6298
1050.50 216.5978
1050.60 216.5659
1050.70 216.5339
1050.80 216.5019
1050.90 216.4699
1051.00 216.438
1051.10 216.406
1051.20 216.374
1051.30 216.3421
1051.40 216.3101
1051.50 216.2781
1051.60 216.2462
1051.70 216.2142
1051.80 216.1822
1051.90 216.1502
1052.00 216.1183
1052.10 216.0863
1052.20 216.0543
1052.30 216.0224
1052.40 215.9904
1052.50 215.9584
1052.60 215.9265
1052.70 215.8945
1052.80 215.8625
1052.90 215.7542
1053.00 215.6459
1053.10 215.5377
1053.20 215.4294
1053.30 215.3211
1053.40 215.2128
1053.50 215.1045
1053.60 214.9962
1053.70 214.888
1053.80 214.7797
1053.90 214.6714
1054.00 214.5631
1054.10 214.4548
1054.20 214.3465
1054.30 214.2383
1054.40 214.13
1054.50 214.0217
1054.60 213.9134
1054.70 213.8051
1054.80 213.6968
1054.90 213.5886
1055.00 213.4803
1055.10 213.372
1055.20 213.2637
1055.30 213.1554
1055.40 213.0471
1055.50 212.9389
1055.60 212.8306
1055.70 212.7223
1055.80 212.614
1055.90 212.5057
1056.00 212.3974
1056.10 212.2892
1056.20 212.1809
1056.30 212.0726
1056.40 211.9643
1056.50 211.856
1056.60 211.7477
1056.70 211.6395
1056.80 211.5312
1056.90 211.5318
1057.00 211.5597
1057.10 211.5876
1057.20 211.6155
1057.30 211.6434
1057.40 211.6713
1057.50 211.6992
1057.60 211.7271
1057.70 211.7549
1057.80 211.7828
1057.90 211.8107
1058.00 211.8386
1058.10 211.8665
1058.20 211.8944
1058.30 211.9223
1058.40 211.9502
1058.50 211.9781
1058.60 212.006
1058.70 212.0338
1058.80 212.0617
1058.90 212.0896
1059.00 212.1175
1059.10 212.1454
1059.20 212.1733
1059.30 212.2012
1059.40 212.2291
1059.50 212.257
1059.60 212.2849
1059.70 212.3127
1059.80 212.3406
1059.90 212.3685
1060.00 212.3964
1060.10 212.4243
1060.20 212.4522
1060.30 212.4801
1060.40 212.508
1060.50 212.5359
1060.60 212.5637
1060.70 212.5916
1060.80 212.6195
1060.90 212.7291
1061.00 212.9203
1061.10 213.1116
1061.20 213.3028
1061.30 213.4941
1061.40 213.6853
1061.50 213.8766
1061.60 214.0678
1061.70 214.259
1061.80 214.4503
1061.90 214.6415
1062.00 214.8328
1062.10 215.024
1062.20 215.2153
1062.30 215.4065
1062.40 215.5977
1062.50 215.789
1062.60 215.9802
1062.70 216.1715
1062.80 216.3627
1062.90 216.554
1063.00 216.7452
1063.10 216.9364
1063.20 217.1277
1063.30 217.3189
1063.40 217.5102
1063.50 217.7014
1063.60 217.8927
1063.70 218.0839
1063.80 218.2751
1063.90 218.4664
1064.00 218.6576
1064.10 218.8489
1064.20 219.0401
1064.30 219.2314
1064.40 219.4226
1064.50 219.6138
1064.60 219.8051
1064.70 219.9963
1064.80 220.1876
1064.90 220.3788
1065.00 220.5644
1065.10 220.7501
1065.20 220.9357
1065.30 221.1213
1065.40 221.3069
1065.50 221.4925
1065.60 221.6782
1065.70 221.8638
1065.80 222.0494
1065.90 222.235
1066.00 222.4206
1066.10 222.6063
1066.20 222.7919
1066.30 222.9775
1066.40 223.1631
1066.50 223.3488
1066.60 223.5344
1066.70 223.72
1066.80 223.9056
1066.90 224.0912
1067.00 224.2769
1067.10 224.4625
1067.20 224.6481
1067.30 224.8337
1067.40 225.0193
1067.50 225.205
1067.60 225.3906
1067.70 225.5762
1067.80 225.7618
1067.90 225.9475
1068.00 226.1331
1068.10 226.3187
1068.20 226.5043
1068.30 226.6899
1068.40 226.8756
1068.50 227.0612
1068.60 227.2468
1068.70 227.4324
1068.80 227.618
1068.90 227.8037
1069.00 227.9987
1069.10 228.2032
1069.20 228.4077
1069.30 228.6122
1069.40 228.8167
1069.50 229.0212
1069.60 229.2257
1069.70 229.4302
1069.80 229.6347
1069.90 229.8391
1070.00 230.0436
1070.10 230.2481
1070.20 230.4526
1070.30 230.6571
1070.40 230.8616
1070.50 231.0661
1070.60 231.2706
1070.70 231.4751
1070.80 231.6796
1070.90 231.8841
1071.00 232.0886
1071.10 232.293
1071.20 232.4975
1071.30 232.702
1071.40 232.9065
1071.50 233.111
1071.60 233.3155
1071.70 233.52
1071.80 233.7245
1071.90 233.929
1072.00 234.1335
1072.10 234.338
1072.20 234.5424
1072.30 234.7469
1072.40 234.9514
1072.50 235.1559
1072.60 235.3604
1072.70 235.5649
1072.80 235.7694
1072.90 235.9739
1073.00 236.1784
1073.10 236.3576
1073.20 236.5339
1073.30 236.7103
1073.40 236.8867
1073.50 237.0631
1073.60 237.2394
1073.70 237.4158
1073.80 237.5922
1073.90 237.7686
1074.00 237.9449
1074.10 238.1213
1074.20 238.2977
1074.30 238.4741
1074.40 238.6504
1074.50 238.8268
1074.60 239.0032
1074.70 239.1795
1074.80 239.3559
1074.90 239.5323
1075.00 239.7087
1075.10 239.885
1075.20 240.0614
1075.30 240.2378
1075.40 240.4142
1075.50 240.5905
1075.60 240.7669
1075.70 240.9433
1075.80 241.1197
1075.90 241.296
1076.00 241.4724
1076.10 241.6488
1076.20 241.8252
1076.30 242.0015
1076.40 242.1779
1076.50 242.3543
1076.60 242.5307
1076.70 242.707
1076.80 242.8834
1076.90 243.0598
1077.00 243.2362
1077.10 243.4051
1077.20 243.5076
1077.30 243.6101
1077.40 243.7126
1077.50 243.8151
1077.60 243.9176
1077.70 244.0201
1077.80 244.1226
1077.90 244.2251
1078.00 244.3276
1078.10 244.4301
1078.20 244.5326
1078.30 244.6351
1078.40 244.7375
1078.50 244.84
1078.60 244.9425
1078.70 245.045
1078.80 245.1475
1078.90 245.25
1079.00 245.3525
1079.10 245.455
1079.20 245.5575
1079.30 245.66
1079.40 245.7625
1079.50 245.865
1079.60 245.9675
1079.70 246.07
1079.80 246.1724
1079.90 246.2749
1080.00 246.3774
1080.10 246.4799
1080.20 246.5824
1080.30 246.6849
1080.40 246.7874
1080.50 246.8899
1080.60 246.9924
1080.70 247.0949
1080.80 247.1974
1080.90 247.2999
1081.00 247.4024
1081.10 247.5048
1081.20 247.7115
1081.30 248.1613
1081.40 248.611
1081.50 249.0608
1081.60 249.5105
1081.70 249.9603
1081.80 250.41
1081.90 250.8598
1082.00 251.3095
1082.10 251.7593
1082.20 252.209
1082.30 252.6588
1082.40 253.1085
1082.50 253.5583
1082.60 254.008
1082.70 254.4578
1082.80 254.9076
1082.90 255.3573
1083.00 255.8071
1083.10 256.2568
1083.20 256.7066
1083.30 257.1563
1083.40 257.6061
1083.50 258.0558
1083.60 258.5056
1083.70 258.9553
1083.80 259.4051
1083.90 259.8548
1084.00 260.3046
1084.10 260.7543
1084.20 261.2041
1084.30 261.6538
1084.40 262.1036
1084.50 262.5533
1084.60 263.0031
1084.70 263.4528
1084.80 263.9026
1084.90 264.3523
1085.00 264.8021
1085.10 265.2518
1085.20 265.7016
1085.30 266.0329
1085.40 266.0877
1085.50 266.1425
1085.60 266.1974
1085.70 266.2522
1085.80 266.307
1085.90 266.3618
1086.00 266.4167
1086.10 266.4715
1086.20 266.5263
1086.30 266.5811
1086.40 266.636
1086.50 266.6908
1086.60 266.7456
1086.70 266.8005
1086.80 266.8553
1086.90 266.9101
1087.00 266.9649
1087.10 267.0198
1087.20 267.0746
1087.30 267.1294
1087.40 267.1842
1087.50 267.2391
1087.60 267.2939
1087.70 267.3487
1087.80 267.4036
1087.90 267.4584
1088.00 267.5132
1088.10 267.568
1088.20 267.6229
1088.30 267.6777
1088.40 267.7325
1088.50 267.7873
1088.60 267.8422
1088.70 267.897
1088.80 267.9518
1088.90 268.0067
1089.00 268.0615
1089.10 268.1163
1089.20 268.1711
1089.30 268.226
1089.40 268.2957
1089.50 268.4003
1089.60 268.5048
1089.70 268.6094
1089.80 268.7139
1089.90 268.8185
1090.00 268.923
1090.10 269.0275
1090.20 269.1321
1090.30 269.2366
1090.40 269.3412
1090.50 269.4457
1090.60 269.5503
1090.70 269.6548
1090.80 269.7594
1090.90 269.8639
1091.00 269.9685
1091.10 270.073
1091.20 270.1776
1091.30 270.2821
1091.40 270.3867
1091.50 270.4912
1091.60 270.5958
1091.70 270.7003
1091.80 270.8049
1091.90 270.9094
1092.00 271.014
1092.10 271.1185
1092.20 271.2231
1092.30 271.3276
1092.40 271.4321
1092.50 271.5367
1092.60 271.6412
1092.70 271.7458
1092.80 271.8503
1092.90 271.9549
1093.00 272.0594
1093.10 272.164
1093.20 272.2685
1093.30 272.3731
1093.40 272.4776
1093.50 272.574
1093.60 272.6379
1093.70 272.7018
1093.80 272.7657
1093.90 272.8296
1094.00 272.8935
1094.10 272.9573
1094.20 273.0212
1094.30 273.0851
1094.40 273.149
1094.50 273.2129
1094.60 273.2768
1094.70 273.3406
1094.80 273.4045
1094.90 273.4684
1095.00 273.5323
1095.10 273.5962
1095.20 273.66
1095.30 273.7239
1095.40 273.7878
1095.50 273.8517
1095.60 273.9156
1095.70 273.9795
1095.80 274.0433
1095.90 274.1072
1096.00 274.1711
1096.10 274.235
1096.20 274.2989
1096.30 274.3628
1096.40 274.4266
1096.50 274.4905
1096.60 274.5544
1096.70 274.6183
1096.80 274.6822
1096.90 274.7461
1097.00 274.8099
1097.10 274.8738
1097.20 274.9377
1097.30 275.0016
1097.40 275.0655
1097.50 275.1294
1097.60 275.1932
1097.70 275.2877
1097.80 275.3823
1097.90 275.4768
1098.00 275.5713
1098.10 275.6658
1098.20 275.7603
1098.30 275.8548
1098.40 275.9493
1098.50 276.0438
1098.60 276.1383
1098.70 276.2328
1098.80 276.3273
1098.90 276.4218
1099.00 276.5164
1099.10 276.6109
1099.20 276.7054
1099.30 276.7999
1099.40 276.8944
1099.50 276.9889
1099.60 277.0834
1099.70 277.1779
1099.80 277.2724
1099.90 277.3669
1100.00 277.4614
1100.10 277.5559
1100.20 277.6505
1100.30 277.745
1100.40 277.8395
1100.50 277.934
1100.60 278.0285
1100.70 278.123
1100.80 278.2175
1100.90 278.312
1101.00 278.4065
1101.10 278.501
1101.20 278.5955
1101.30 278.6901
1101.40 278.7846
1101.50 278.8791
1101.60 278.9736
1101.70 279.0681
1101.80 278.9692
1101.90 278.7875
1102.00 278.6058
1102.10 278.4241
1102.20 278.2424
1102.30 278.0607
1102.40 277.879
1102.50 277.6972
1102.60 277.5155
1102.70 277.3338
1102.80 277.1521
1102.90 276.9704
1103.00 276.7887
1103.10 276.607
1103.20 276.4253
1103.30 276.2435
1103.40 276.0618
1103.50 275.8801
1103.60 275.6984
1103.70 275.5167
1103.80 275.335
1103.90 275.1533
1104.00 274.9716
1104.10 274.7898
1104.20 274.6081
1104.30 274.4264
1104.40 274.2447
1104.50 274.063
1104.60 273.8813
1104.70 273.6996
1104.80 273.5178
1104.90 273.3361
1105.00 273.1544
1105.10 272.9727
1105.20 272.791
1105.30 272.6093
1105.40 272.4276
1105.50 272.2459
1105.60 272.0641
1105.70 271.8824
1105.80 271.7007
1105.90 271.5797
1106.00 271.6003
1106.10 271.6209
1106.20 271.6414
1106.30 271.662
1106.40 271.6826
1106.50 271.7032
1106.60 271.7238
1106.70 271.7444
1106.80 271.765
1106.90 271.7855
1107.00 271.8061
1107.10 271.8267
1107.20 271.8473
1107.30 271.8679
1107.40 271.8885
1107.50 271.9091
1107.60 271.9296
1107.70 271.9502
1107.80 271.9708
1107.90 271.9914
1108.00 272.012
1108.10 272.0326
1108.20 272.0532
1108.30 272.0737
1108.40 272.0943
1108.50 272.1149
1108.60 272.1355
1108.70 272.1561
1108.80 272.1767
1108.90 272.1973
1109.00 272.2178
1109.10 272.2384
1109.20 272.259
1109.30 272.2796
1109.40 272.3002
1109.50 272.3208
1109.60 272.3414
1109.70 272.3619
1109.80 272.3825
1109.90 272.4031
1110.00 272.4237
1110.10 272.3812
1110.20 272.3229
1110.30 272.2647
1110.40 272.2064
1110.50 272.1482
1110.60 272.0899
1110.70 272.0316
1110.80 271.9734
1110.90 271.9151
1111.00 271.8569
1111.10 271.7986
1111.20 271.7403
1111.30 271.6821
1111.40 271.6238
1111.50 271.5655
1111.60 271.5073
1111.70 271.449
1111.80 271.3908
1111.90 271.3325
1112.00 271.2742
1112.10 271.216
1112.20 271.1577
1112.30 271.0995
1112.40 271.0412
1112.50 270.9829
1112.60 270.9247
1112.70 270.8664
1112.80 270.8082
1112.90 270.7499
1113.00 270.6916
1113.10 270.6334
1113.20 270.5751
1113.30 270.5168
1113.40 270.4586
1113.50 270.4003
1113.60 270.3421
1113.70 270.2838
1113.80 270.2255
1113.90 270.1673
1114.00 270.109
1114.10 270.0508
1114.20 270.0375
1114.30 270.1291
1114.40 270.2207
1114.50 270.3123
1114.60 270.4039
1114.70 270.4955
1114.80 270.5871
1114.90 270.6787
1115.00 270.7703
1115.10 270.8619
1115.20 270.9535
1115.30 271.0451
1115.40 271.1367
1115.50 271.2283
1115.60 271.3199
1115.70 271.4115
1115.80 271.5031
1115.90 271.5947
1116.00 271.6863
1116.10 271.7779
1116.20 271.8695
1116.30 271.9611
1116.40 272.0527
1116.50 272.1443
1116.60 272.2359
1116.70 272.3275
1116.80 272.4191
1116.90 272.5107
1117.00 272.6023
1117.10 272.6939
1117.20 272.7855
1117.30 272.8771
1117.40 272.9687
1117.50 273.0603
1117.60 273.1519
1117.70 273.2435
1117.80 273.3351
1117.90 273.4267
1118.00 273.5183
1118.10 273.6099
1118.20 273.7015
1118.30 273.7931
1118.40 273.8831
1118.50 273.9721
1118.60 274.0611
1118.70 274.1501
1118.80 274.2391
1118.90 274.3281
1119.00 274.4172
1119.10 274.5062
1119.20 274.5952
1119.30 274.6842
1119.40 274.7732
1119.50 274.8622
1119.60 274.9512
1119.70 275.0402
1119.80 275.1292
1119.90 275.2182
1120.00 275.3072
1120.10 275.3962
1120.20 275.4852
1120.30 275.5742
1120.40 275.6632
1120.50 275.7522
1120.60 275.8412
1120.70 275.9302
1120.80 276.0192
1120.90 276.1082
1121.00 276.1972
1121.10 276.2862
1121.20 276.3752
1121.30 276.4642
1121.40 276.5532
1121.50 276.6422
1121.60 276.7312
1121.70 276.8203
1121.80 276.9093
1121.90 276.9983
1122.00 277.0873
1122.10 277.1763
1122.20 277.2653
1122.30 277.3543
1122.40 277.4433
1122.50 277.5323
1122.60 277.5389
1122.70 277.5364
1122.80 277.5339
1122.90 277.5314
1123.00 277.5289
1123.10 277.5264
1123.20 277.5239
1123.30 277.5213
1123.40 277.5188
1123.50 277.5163
1123.60 277.5138
1123.70 277.5113
1123.80 277.5088
1123.90 277.5063
1124.00 277.5038
1124.10 277.5013
1124.20 277.4987
1124.30 277.4962
1124.40 277.4937
1124.50 277.4912
1124.60 277.4887
1124.70 277.4862
1124.80 277.4837
1124.90 277.4812
1125.00 277.4787
1125.10 277.4761
1125.20 277.4736
1125.30 277.4711
1125.40 277.4686
1125.50 277.4661
1125.60 277.4636
1125.70 277.4611
1125.80 277.4586
1125.90 277.4561
1126.00 277.4535
1126.10 277.451
1126.20 277.4485
1126.30 277.446
1126.40 277.4435
1126.50 277.441
1126.60 277.4385
1126.70 277.4184
1126.80 277.3283
1126.90 277.2382
1127.00 277.1481
1127.10 277.058
1127.20 276.9678
1127.30 276.8777
1127.40 276.7876
1127.50 276.6975
1127.60 276.6073
1127.70 276.5172
1127.80 276.4271
1127.90 276.337
1128.00 276.2469
1128.10 276.1567
1128.20 276.0666
1128.30 275.9765
1128.40 275.8864
1128.50 275.7962
1128.60 275.7061
1128.70 275.616
1128.80 275.5259
1128.90 275.4358
1129.00 275.3456
1129.10 275.2555
1129.20 275.1654
1129.30 275.0753
1129.40 274.9852
1129.50 274.895
1129.60 274.8049
1129.70 274.7148
1129.80 274.6247
1129.90 274.5345
1130.00 274.4444
1130.10 274.3543
1130.20 274.2642
1130.30 274.1741
1130.40 274.0839
1130.50 273.9938
1130.60 273.9037
1130.70 273.8136
1130.80 273.7234
1130.90 273.5903
1131.00 273.3567
1131.10 273.1231
1131.20 272.8895
1131.30 272.6559
1131.40 272.4223
1131.50 272.1887
1131.60 271.9551
1131.70 271.7215
1131.80 271.4879
1131.90 271.2542
1132.00 271.0206
1132.10 270.787
1132.20 270.5534
1132.30 270.3198
1132.40 270.0862
1132.50 269.8526
1132.60 269.619
1132.70 269.3854
1132.80 269.1518
1132.90 268.9182
1133.00 268.6846
1133.10 268.451
1133.20 268.2174
1133.30 267.9838
1133.40 267.7502
1133.50 267.5166
1133.60 267.283
1133.70 267.0494
1133.80 266.8158
1133.90 266.5822
1134.00 266.3486
1134.10 266.115
1134.20 265.8814
1134.30 265.6478
1134.40 265.4142
1134.50 265.1806
1134.60 264.947
1134.70 264.7134
1134.80 264.4798
1134.90 264.2462
1135.00 264.0125
1135.10 263.8568
1135.20 263.8178
1135.30 263.7788
1135.40 263.7398
1135.50 263.7007
1135.60 263.6617
1135.70 263.6227
1135.80 263.5837
1135.90 263.5447
1136.00 263.5057
1136.10 263.4667
1136.20 263.4277
1136.30 263.3887
1136.40 263.3497
1136.50 263.3106
1136.60 263.2716
1136.70 263.2326
1136.80 263.1936
1136.90 263.1546
1137.00 263.1156
1137.10 263.0766
1137.20 263.0376
1137.30 262.9986
1137.40 262.9596
1137.50 262.9205
1137.60 262.8815
1137.70 262.8425
1137.80 262.8035
1137.90 262.7645
1138.00 262.7255
1138.10 262.6865
1138.20 262.6475
1138.30 262.6085
1138.40 262.5695
1138.50 262.5304
1138.60 262.4914
1138.70 262.4524
1138.80 262.4134
1138.90 262.3744
1139.00 262.3354
1139.10 262.2964
1139.20 262.2574
1139.30 262.285
1139.40 262.4127
1139.50 262.5403
1139.60 262.668
1139.70 262.7956
1139.80 262.9233
1139.90 263.0509
1140.00 263.1785
1140.10 263.3062
1140.20 263.4338
1140.30 263.5615
1140.40 263.6891
1140.50 263.8168
1140.60 263.9444
1140.70 264.0721
1140.80 264.1997
1140.90 264.3274
1141.00 264.455
1141.10 264.5827
1141.20 264.7103
1141.30 264.838
1141.40 264.9656
1141.50 265.0932
1141.60 265.2209
1141.70 265.3485
1141.80 265.4762
1141.90 265.6038
1142.00 265.7315
1142.10 265.8591
1142.20 265.9868
1142.30 266.1144
1142.40 266.2421
1142.50 266.3697
1142.60 266.4974
1142.70 266.625
1142.80 266.7526
1142.90 266.8803
1143.00 267.0079
1143.10 267.1356
1143.20 267.2632
1143.30 267.3909
1143.40 267.5185
1143.50 267.7223
1143.60 268.1035
1143.70 268.4848
1143.80 268.866
1143.90 269.2473
1144.00 269.6285
1144.10 270.0098
1144.20 270.391
1144.30 270.7723
1144.40 271.1535
1144.50 271.5348
1144.60 271.916
1144.70 272.2973
1144.80 272.6785
1144.90 273.0598
1145.00 273.441
1145.10 273.8223
1145.20 274.2035
1145.30 274.5848
1145.40 274.966
1145.50 275.3473
1145.60 275.7285
1145.70 276.1098
1145.80 276.4911
1145.90 276.8723
1146.00 277.2536
1146.10 277.6348
1146.20 278.0161
1146.30 278.3973
1146.40 278.7786
1146.50 279.1598
1146.60 279.5411
1146.70 279.9223
1146.80 280.3036
1146.90 280.6848
1147.00 281.0661
1147.10 281.4473
1147.20 281.8286
1147.30 282.2098
1147.40 282.5911
1147.50 282.9723
1147.60 283.3536
1147.70 283.7112
1147.80 283.9741
1147.90 284.237
1148.00 284.4999
1148.10 284.7628
1148.20 285.0257
1148.30 285.2886
1148.40 285.5516
1148.50 285.8145
1148.60 286.0774
1148.70 286.3403
1148.80 286.6032
1148.90 286.8661
1149.00 287.129
1149.10 287.3919
1149.20 287.6548
1149.30 287.9178
1149.40 288.1807
1149.50 288.4436
1149.60 288.7065
1149.70 288.9694
1149.80 289.2323
1149.90 289.4952
1150.00 289.7581
1150.10 290.021
1150.20 290.284
1150.30 290.5469
1150.40 290.8098
1150.50 291.0727
1150.60 291.3356
1150.70 291.5985
1150.80 291.8614
1150.90 292.1243
1151.00 292.3872
1151.10 292.6502
1151.20 292.9131
1151.30 293.176
1151.40 293.4389
1151.50 293.7018
1151.60 293.9647
1151.70 294.2276
1151.80 294.4905
1151.90 294.7534
1152.00 294.7278
1152.10 294.7022
1152.20 294.6766
1152.30 294.651
1152.40 294.6254
1152.50 294.5998
1152.60 294.5742
1152.70 294.5486
1152.80 294.523
1152.90 294.4974
1153.00 294.4718
1153.10 294.4462
1153.20 294.4206
1153.30 294.395
1153.40 294.3693
1153.50 294.3437
1153.60 294.3181
1153.70 294.2925
1153.80 294.2669
1153.90 294.2413
1154.00 294.2157
1154.10 294.1901
1154.20 294.1645
1154.30 294.1389
1154.40 294.1133
1154.50 294.0877
1154.60 294.0621
1154.70 294.0365
1154.80 294.0109
1154.90 293.9853
1155.00 293.9596
1155.10 293.934
1155.20 293.9084
1155.30 293.8828
1155.40 293.8572
1155.50 293.8316
1155.60 293.806
1155.70 293.7804
1155.80 293.7548
1155.90 293.7292
1156.00 293.7036
1156.10 293.678
1156.20 293.5555
1156.30 293.4087
1156.40 293.262
1156.50 293.1153
1156.60 292.9686
1156.70 292.8218
1156.80 292.6751
1156.90 292.5284
1157.00 292.3816
1157.10 292.2349
1157.20 292.0882
1157.30 291.9414
1157.40 291.7947
1157.50 291.648
1157.60 291.5013
1157.70 291.3545
1157.80 291.2078
1157.90 291.0611
1158.00 290.9143
1158.10 290.7676
1158.20 290.6209
1158.30 290.4742
1158.40 290.3274
1158.50 290.1807
1158.60 290.034
1158.70 289.8872
1158.80 289.7405
1158.90 289.5938
1159.00 289.447
1159.10 289.3003
1159.20 289.1536
1159.30 289.0069
1159.40 288.8601
1159.50 288.7134
1159.60 288.5667
1159.70 288.4199
1159.80 288.2732
1159.90 288.1265
1160.00 287.9797
1160.10 287.833
1160.20 287.6863
1160.30 287.5396
1160.40 287.3862
1160.50 287.2263
1160.60 287.0664
1160.70 286.9065
1160.80 286.7466
1160.90 286.5867
1161.00 286.4268
1161.10 286.2669
1161.20 286.1069
1161.30 285.947
1161.40 285.7871
1161.50 285.6272
1161.60 285.4673
1161.70 285.3074
1161.80 285.1475
1161.90 284.9876
1162.00 284.8277
1162.10 284.6677
1162.20 284.5078
1162.30 284.3479
1162.40 284.188
1162.50 284.0281
1162.60 283.8682
1162.70 283.7083
1162.80 283.5484
1162.90 283.3885
1163.00 283.2285
1163.10 283.0686
1163.20 282.9087
1163.30 282.7488
1163.40 282.5889
1163.50 282.429
1163.60 282.2691
1163.70 282.1092
1163.80 281.9493
1163.90 281.7893
1164.00 281.6294
1164.10 281.4695
1164.20 281.3096
1164.30 281.1497
1164.40 280.9898
1164.50 280.8299
1164.60 280.6731
1164.70 280.5443
1164.80 280.4156
1164.90 280.2868
1165.00 280.1581
1165.10 280.0293
1165.20 279.9006
1165.30 279.7718
1165.40 279.6431
1165.50 279.5143
1165.60 279.3856
1165.70 279.2568
1165.80 279.1281
1165.90 278.9993
1166.00 278.8706
1166.10 278.7418
1166.20 278.6131
1166.30 278.4843
1166.40 278.3556
1166.50 278.2268
1166.60 278.0981
1166.70 277.9693
1166.80 277.8406
1166.90 277.7118
1167.00 277.5831
1167.10 277.4543
1167.20 277.3256
1167.30 277.1968
1167.40 277.0681
1167.50 276.9393
1167.60 276.8106
1167.70 276.6818
1167.80 276.5531
1167.90 276.4243
1168.00 276.2956
1168.10 276.1668
1168.20 276.0381
1168.30 275.9093
1168.40 275.7806
1168.50 275.6518
1168.60 275.5231
1168.70 275.3943
1168.80 275.2656
1168.90 274.999
1169.00 274.6734
1169.10 274.3478
1169.20 274.0222
1169.30 273.6965
1169.40 273.3709
1169.50 273.0453
1169.60 272.7197
1169.70 272.3941
1169.80 272.0685
1169.90 271.7428
1170.00 271.4172
1170.10 271.0916
1170.20 270.766
1170.30 270.4404
1170.40 270.1148
1170.50 269.7891
1170.60 269.4635
1170.70 269.1379
1170.80 268.8123
1170.90 268.4867
1171.00 268.1611
1171.10 267.8354
1171.20 267.5098
1171.30 267.1842
1171.40 266.8586
1171.50 266.533
1171.60 266.2074
1171.70 265.8817
1171.80 265.5561
1171.90 265.2305
1172.00 264.9049
1172.10 264.5793
1172.20 264.2537
1172.30 263.928
1172.40 263.6024
1172.50 263.2768
1172.60 262.9512
1172.70 262.6256
1172.80 262.3
1172.90 261.9743
1173.00 261.6487
1173.10 261.4033
1173.20 261.4788
1173.30 261.5542
1173.40 261.6297
1173.50 261.7051
1173.60 261.7805
1173.70 261.856
1173.80 261.9314
1173.90 262.0069
1174.00 262.0823
1174.10 262.1578
1174.20 262.2332
1174.30 262.3087
1174.40 262.3841
1174.50 262.4595
1174.60 262.535
1174.70 262.6104
1174.80 262.6859
1174.90 262.7613
1175.00 262.8368
1175.10 262.9122
1175.20 262.9877
1175.30 263.0631
1175.40 263.1385
1175.50 263.214
1175.60 263.2894
1175.70 263.3649
1175.80 263.4403
1175.90 263.5158
1176.00 263.5912
1176.10 263.6667
1176.20 263.7421
1176.30 263.8175
1176.40 263.893
1176.50 263.9684
1176.60 264.0439
1176.70 264.1193
1176.80 264.1948
1176.90 264.2702
1177.00 264.3457
1177.10 264.4211
1177.20 264.4965
1177.30 264.572
1177.40 264.6779
1177.50 264.7968
1177.60 264.9157
1177.70 265.0347
1177.80 265.1536
1177.90 265.2725
1178.00 265.3914
1178.10 265.5104
1178.20 265.6293
1178.30 265.7482
1178.40 265.8672
1178.50 265.9861
1178.60 266.105
1178.70 266.224
1178.80 266.3429
1178.90 266.4618
1179.00 266.5807
1179.10 266.6997
1179.20 266.8186
1179.30 266.9375
1179.40 267.0565
1179.50 267.1754
1179.60 267.2943
1179.70 267.4132
1179.80 267.5322
1179.90 267.6511
1180.00 267.77
1180.10 267.889
1180.20 268.0079
1180.30 268.1268
1180.40 268.2458
1180.50 268.3647
1180.60 268.4836
1180.70 268.6025
1180.80 268.7215
1180.90 268.8404
1181.00 268.9593
1181.10 269.0783
1181.20 269.1972
1181.30 269.3161
1181.40 269.435
1181.50 269.554
1181.60 269.6787
1181.70 269.8553
1181.80 270.032
1181.90 270.2086
1182.00 270.3853
1182.10 270.5619
1182.20 270.7386
1182.30 270.9152
1182.40 271.0918
1182.50 271.2685
1182.60 271.4451
1182.70 271.6218
1182.80 271.7984
1182.90 271.9751
1183.00 272.1517
1183.10 272.3284
1183.20 272.505
1183.30 272.6817
1183.40 272.8583
1183.50 273.035
1183.60 273.2116
1183.70 273.3882
1183.80 273.5649
1183.90 273.7415
1184.00 273.9182
1184.10 274.0948
1184.20 274.2715
1184.30 274.4481
1184.40 274.6248
1184.50 274.8014
1184.60 274.9781
1184.70 275.1547
1184.80 275.3314
1184.90 275.508
1185.00 275.6846
1185.10 275.8613
1185.20 276.0379
1185.30 276.2146
1185.40 276.3912
1185.50 276.5679
1185.60 276.7445
1185.70 276.9212
1185.80 277.0978
1185.90 277.1473
1186.00 277.0698
1186.10 276.9922
1186.20 276.9146
1186.30 276.837
1186.40 276.7594
1186.50 276.6818
1186.60 276.6042
1186.70 276.5266
1186.80 276.449
1186.90 276.3714
1187.00 276.2938
1187.10 276.2162
1187.20 276.1386
1187.30 276.061
1187.40 275.9834
1187.50 275.9058
1187.60 275.8282
1187.70 275.7506
1187.80 275.673
1187.90 275.5954
1188.00 275.5178
1188.10 275.4403
1188.20 275.3627
1188.30 275.2851
1188.40 275.2075
1188.50 275.1299
1188.60 275.0523
1188.70 274.9747
1188.80 274.8971
1188.90 274.8195
1189.00 274.7419
1189.10 274.6643
1189.20 274.5867
1189.30 274.5091
1189.40 274.4315
1189.50 274.3539
1189.60 274.2763
1189.70 274.1987
1189.80 274.1211
1189.90 274.0435
1190.00 273.9659
1190.10 273.8883
1190.20 273.6796
1190.30 273.438
1190.40 273.1965
1190.50 272.955
1190.60 272.7134
1190.70 272.4719
1190.80 272.2303
1190.90 271.9888
1191.00 271.7472
1191.10 271.5057
1191.20 271.2641
1191.30 271.0226
1191.40 270.781
1191.50 270.5395
1191.60 270.2979
1191.70 270.0564
1191.80 269.8148
1191.90 269.5733
1192.00 269.3318
1192.10 269.0902
1192.20 268.8487
1192.30 268.6071
1192.40 268.3656
1192.50 268.124
1192.60 267.8825
1192.70 267.6409
1192.80 267.3994
1192.90 267.1578
1193.00 266.9163
1193.10 266.6747
1193.20 266.4332
1193.30 266.1917
1193.40 265.9501
1193.50 265.7086
1193.60 265.467
1193.70 265.2255
1193.80 264.9839
1193.90 264.7424
1194.00 264.5008
1194.10 264.2593
1194.20 264.0177
1194.30 263.7762
1194.40 263.5422
1194.50 263.376
1194.60 263.2098
1194.70 263.0436
1194.80 262.8775
1194.90 262.7113
1195.00 262.5451
1195.10 262.3789
1195.20 262.2128
1195.30 262.0466
1195.40 261.8804
1195.50 261.7142
1195.60 261.548
1195.70 261.3819
1195.80 261.2157
1195.90 261.0495
1196.00 260.8833
1196.10 260.7172
1196.20 260.551
1196.30 260.3848
1196.40 260.2186
1196.50 260.0525
1196.60 259.8863
1196.70 259.7201
1196.80 259.5539
1196.90 259.3877
1197.00 259.2216
1197.10 259.0554
1197.20 258.8892
1197.30 258.723
1197.40 258.5569
1197.50 258.3907
1197.60 258.2245
1197.70 258.0583
1197.80 257.8921
1197.90 257.726
1198.00 257.5598
1198.10 257.3936
1198.20 257.2274
1198.30 257.0613
1198.40 256.8951
1198.50 256.7289
1198.60 256.5627
1198.70 256.4569
1198.80 256.4416
1198.90 256.4263
1199.00 256.4109
1199.10 256.3956
1199.20 256.3803
1199.30 256.365
1199.40 256.3497
1199.50 256.3343
1199.60 256.319
1199.70 256.3037
1199.80 256.2884
1199.90 256.2731
1200.00 256.2578
1200.10 256.2424
1200.20 256.2271
1200.30 256.2118
1200.40 256.1965
1200.50 256.1812
1200.60 256.1658
1200.70 256.1505
1200.80 256.1352
1200.90 256.1199
1201.00 256.1046
1201.10 256.0892
1201.20 256.0739
1201.30 256.0586
1201.40 256.0433
1201.50 256.028
1201.60 256.0126
1201.70 255.9973
1201.80 255.982
1201.90 255.9667
1202.00 255.9514
1202.10 255.9361
1202.20 255.9207
1202.30 255.9054
1202.40 255.8901
1202.50 255.8748
1202.60 255.8595
1202.70 255.8441
1202.80 255.8288
1202.90 255.8135
1203.00 255.9277
1203.10 256.1283
1203.20 256.3289
1203.30 256.5295
1203.40 256.7301
1203.50 256.9307
1203.60 257.1313
1203.70 257.3319
1203.80 257.5325
1203.90 257.733
1204.00 257.9336
1204.10 258.1342
1204.20 258.3348
1204.30 258.5354
1204.40 258.736
1204.50 258.9366
1204.60 259.1372
1204.70 259.3378
1204.80 259.5384
1204.90 259.7389
1205.00 259.9395
1205.10 260.1401
1205.20 260.3407
1205.30 260.5413
1205.40 260.7419
1205.50 260.9425
1205.60 261.1431
1205.70 261.3437
1205.80 261.5443
1205.90 261.7449
1206.00 261.9454
1206.10 262.146
1206.20 262.3466
1206.30 262.5472
1206.40 262.7478
1206.50 262.9484
1206.60 263.149
1206.70 263.3496
1206.80 263.5502
1206.90 263.7508
1207.00 263.9513
1207.10 264.1519
1207.20 264.3525
1207.30 264.6603
1207.40 264.995
1207.50 265.3296
1207.60 265.6642
1207.70 265.9988
1207.80 266.3334
1207.90 266.668
1208.00 267.0027
1208.10 267.3373
1208.20 267.6719
1208.30 268.0065
1208.40 268.3411
1208.50 268.6758
1208.60 269.0104
1208.70 269.345
1208.80 269.6796
1208.90 270.0142
1209.00 270.3488
1209.10 270.6835
1209.20 271.0181
1209.30 271.3527
1209.40 271.6873
1209.50 272.0219
1209.60 272.3566
1209.70 272.6912
1209.80 273.0258
1209.90 273.3604
1210.00 273.695
1210.10 274.0296
1210.20 274.3643
1210.30 274.6989
1210.40 275.0335
1210.50 275.3681
1210.60 275.7027
1210.70 276.0373
1210.80 276.372
1210.90 276.7066
1211.00 277.0412
1211.10 277.3758
1211.20 277.7104
1211.30 278.0451
1211.40 278.3797
1211.50 278.7143
1211.60 278.8376
1211.70 278.9374
1211.80 279.0372
1211.90 279.1371
1212.00 279.2369
1212.10 279.3367
1212.20 279.4365
1212.30 279.5363
1212.40 279.6362
1212.50 279.736
1212.60 279.8358
1212.70 279.9356
1212.80 280.0354
1212.90 280.1353
1213.00 280.2351
1213.10 280.3349
1213.20 280.4347
1213.30 280.5345
1213.40 280.6343
1213.50 280.7342
1213.60 280.834
1213.70 280.9338
1213.80 281.0336
1213.90 281.1334
1214.00 281.2333
1214.10 281.3331
1214.20 281.4329
1214.30 281.5327
1214.40 281.6325
1214.50 281.7324
1214.60 281.8322
1214.70 281.932
1214.80 282.0318
1214.90 282.1316
1215.00 282.2315
1215.10 282.3313
1215.20 282.4311
1215.30 282.5309
1215.40 282.6307
1215.50 282.7306
1215.60 282.8304
1215.70 282.9302
1215.80 283.03
1215.90 283.3451
1216.00 283.6602
1216.10 283.9753
1216.20 284.2903
1216.30 284.6054
1216.40 284.9205
1216.50 285.2356
1216.60 285.5506
1216.70 285.8657
1216.80 286.1808
1216.90 286.4959
1217.00 286.811
1217.10 287.126
1217.20 287.4411
1217.30 287.7562
1217.40 288.0713
1217.50 288.3863
1217.60 288.7014
1217.70 289.0165
1217.80 289.3316
1217.90 289.6467
1218.00 289.9617
1218.10 290.2768
1218.20 290.5919
1218.30 290.907
1218.40 291.222
1218.50 291.5371
1218.60 291.8522
1218.70 292.1673
1218.80 292.4824
1218.90 292.7974
1219.00 293.1125
1219.10 293.4276
1219.20 293.7427
1219.30 294.0577
1219.40 294.3728
1219.50 294.6879
1219.60 295.003
1219.70 295.3181
1219.80 295.6331
1219.90 295.9482
1220.00 296.2633
1220.10 296.5605
1220.20 296.6971
1220.30 296.8337
1220.40 296.9703
1220.50 297.1068
1220.60 297.2434
1220.70 297.38
1220.80 297.5166
1220.90 297.6532
1221.00 297.7898
1221.10 297.9263
1221.20 298.0629
1221.30 298.1995
1221.40 298.3361
1221.50 298.4727
1221.60 298.6092
1221.70 298.7458
1221.80 298.8824
1221.90 299.019
1222.00 299.1556
1222.10 299.2922
1222.20 299.4287
1222.30 299.5653
1222.40 299.7019
1222.50 299.8385
1222.60 299.9751
1222.70 300.1116
1222.80 300.2482
1222.90 300.3848
1223.00 300.5214
1223.10 300.658
1223.20 300.7946
1223.30 300.9311
1223.40 301.0677
1223.50 301.2043
1223.60 301.3409
1223.70 301.4775
1223.80 301.614
1223.90 301.7506
1224.00 301.8872
1224.10 302.0238
1224.20 302.1604
1224.30 302.297
1224.40 302.4157
1224.50 302.463
1224.60 302.5103
1224.70 302.5577
1224.80 302.605
1224.90 302.6523
1225.00 302.6997
1225.10 302.747
1225.20 302.7943
1225.30 302.8417
1225.40 302.889
1225.50 302.9363
1225.60 302.9836
1225.70 303.031
1225.80 303.0783
1225.90 303.1256
1226.00 303.173
1226.10 303.2203
1226.20 303.2676
1226.30 303.3149
1226.40 303.3623
1226.50 303.4096
1226.60 303.4569
1226.70 303.5043
1226.80 303.5516
1226.90 303.5989
1227.00 303.6463
1227.10 303.6936
1227.20 303.7409
1227.30 303.7882
1227.40 303.8356
1227.50 303.8829
1227.60 303.9302
1227.70 303.9776
1227.80 304.0249
1227.90 304.0722
1228.00 304.1196
1228.10 304.1669
1228.20 304.2142
1228.30 304.2615
1228.40 304.3089
1228.50 304.3562
1228.60 304.4035
1228.70 304.409
1228.80 304.2468
1228.90 304.0847
1229.00 303.9226
1229.10 303.7605
1229.20 303.5983
1229.30 303.4362
1229.40 303.2741
1229.50 303.112
1229.60 302.9498
1229.70 302.7877
1229.80 302.6256
1229.90 302.4635
1230.00 302.3013
1230.10 302.1392
1230.20 301.9771
1230.30 301.8149
1230.40 301.6528
1230.50 301.4907
1230.60 301.3286
1230.70 301.1664
1230.80 301.0043
1230.90 300.8422
1231.00 300.6801
1231.10 300.5179
1231.20 300.3558
1231.30 300.1937
1231.40 300.0316
1231.50 299.8694
1231.60 299.7073
1231.70 299.5452
1231.80 299.383
1231.90 299.2209
1232.00 299.0588
1232.10 298.8967
1232.20 298.7345
1232.30 298.5724
1232.40 298.4103
1232.50 298.2482
1232.60 298.086
1232.70 297.9239
1232.80 297.7618
1232.90 297.5997
1233.00 297.4158
1233.10 297.145
1233.20 296.8742
1233.30 296.6034
1233.40 296.3326
1233.50 296.0618
1233.60 295.791
1233.70 295.5202
1233.80 295.2494
1233.90 294.9786
1234.00 294.7078
1234.10 294.437
1234.20 294.1662
1234.30 293.8954
1234.40 293.6246
1234.50 293.3538
1234.60 293.083
1234.70 292.8122
1234.80 292.5414
1234.90 292.2706
1235.00 291.9998
1235.10 291.729
1235.20 291.4582
1235.30 291.1874
1235.40 290.9166
1235.50 290.6458
1235.60 290.375
1235.70 290.1042
1235.80 289.8334
1235.90 289.5626
1236.00 289.2918
1236.10 289.021
1236.20 288.7502
1236.30 288.4794
1236.40 288.2086
1236.50 287.9378
1236.60 287.667
1236.70 287.3962
1236.80 287.1254
1236.90 286.8546
1237.00 286.5838
1237.10 286.313
1237.20 286.0422
1237.30 285.7965
1237.40 285.6514
1237.50 285.5062
1237.60 285.3611
1237.70 285.2159
1237.80 285.0708
1237.90 284.9256
1238.00 284.7805
1238.10 284.6353
1238.20 284.4902
1238.30 284.345
1238.40 284.1998
1238.50 284.0547
1238.60 283.9095
1238.70 283.7644
1238.80 283.6192
1238.90 283.4741
1239.00 283.3289
1239.10 283.1838
1239.20 283.0386
1239.30 282.8935
1239.40 282.7483
1239.50 282.6032
1239.60 282.458
1239.70 282.3129
1239.80 282.1677
1239.90 282.0225
1240.00 281.8774
1240.10 281.7322
1240.20 281.5871
1240.30 281.4419
1240.40 281.2968
1240.50 281.1516
1240.60 281.0065
1240.70 280.8613
1240.80 280.7162
1240.90 280.571
1241.00 280.4259
1241.10 280.2807
1241.20 280.1355
1241.30 279.9904
1241.40 279.8452
1241.50 279.7001
1241.60 279.5577
1241.70 279.44
1241.80 279.3223
1241.90 279.2046
1242.00 279.0869
1242.10 278.9692
1242.20 278.8515
1242.30 278.7338
1242.40 278.6161
1242.50 278.4984
1242.60 278.3807
1242.70 278.263
1242.80 278.1453
1242.90 278.0276
1243.00 277.9099
1243.10 277.7922
1243.20 277.6745
1243.30 277.5568
1243.40 277.4391
1243.50 277.3214
1243.60 277.2037
1243.70 277.086
1243.80 276.9683
1243.90 276.8506
1244.00 276.7329
1244.10 276.6153
1244.20 276.4976
1244.30 276.3799
1244.40 276.2622
1244.50 276.1445
1244.60 276.0268
1244.70 275.9091
1244.80 275.7914
1244.90 275.6737
1245.00 275.556
1245.10 275.4383
1245.20 275.3206
1245.30 275.2029
1245.40 275.0852
1245.50 274.9675
1245.60 274.8498
1245.70 274.7321
1245.80 274.6144
1245.90 274.4967
1246.00 274.7225
1246.10 274.9482
1246.20 275.174
1246.30 275.3998
1246.40 275.6255
1246.50 275.8513
1246.60 276.077
1246.70 276.3028
1246.80 276.5286
1246.90 276.7543
1247.00 276.9801
1247.10 277.2059
1247.20 277.4316
1247.30 277.6574
1247.40 277.8832
1247.50 278.1089
1247.60 278.3347
1247.70 278.5605
1247.80 278.7862
1247.90 279.012
1248.00 279.2377
1248.10 279.4635
1248.20 279.6893
1248.30 279.915
1248.40 280.1408
1248.50 280.3666
1248.60 280.5923
1248.70 280.8181
1248.80 281.0439
1248.90 281.2696
1249.00 281.4954
1249.10 281.7211
1249.20 281.9469
1249.30 282.1727
1249.40 282.3984
1249.50 282.6242
1249.60 282.85
1249.70 283.0757
1249.80 283.3015
1249.90 283.5273
1250.00 283.753
1250.10 283.9788
1250.20 284.2046
1250.30 284.3948
1250.40 284.5851
1250.50 284.7753
1250.60 284.9656
1250.70 285.1558
1250.80 285.3461
1250.90 285.5363
1251.00 285.7266
1251.10 285.9168
1251.20 286.1071
1251.30 286.2973
1251.40 286.4876
1251.50 286.6778
1251.60 286.8681
1251.70 287.0583
1251.80 287.2486
1251.90 287.4388
1252.00 287.6291
1252.10 287.8193
1252.20 288.0096
1252.30 288.1998
1252.40 288.3901
1252.50 288.5803
1252.60 288.7706
1252.70 288.9608
1252.80 289.1511
1252.90 289.3413
1253.00 289.5316
1253.10 289.7218
1253.20 289.9121
1253.30 290.1023
1253.40 290.2926
1253.50 290.4829
1253.60 290.6731
1253.70 290.8634
1253.80 291.0536
1253.90 291.2439
1254.00 291.4341
1254.10 291.6244
1254.20 291.8146
1254.30 292.0049
1254.40 292.1951
1254.50 292.3854
1254.60 292.698
1254.70 293.0243
1254.80 293.3506
1254.90 293.6769
1255.00 294.0031
1255.10 294.3294
1255.20 294.6557
1255.30 294.982
1255.40 295.3082
1255.50 295.6345
1255.60 295.9608
1255.70 296.2871
1255.80 296.6133
1255.90 296.9396
1256.00 297.2659
1256.10 297.5922
1256.20 297.9185
1256.30 298.2447
1256.40 298.571
1256.50 298.8973
1256.60 299.2236
1256.70 299.5498
1256.80 299.8761
1256.90 300.2024
1257.00 300.5287
1257.10 300.8549
1257.20 301.1812
1257.30 301.5075
1257.40 301.8338
1257.50 302.16
1257.60 302.4863
1257.70 302.8126
1257.80 303.1389
1257.90 303.4651
1258.00 303.7914
1258.10 304.1177
1258.20 304.444
1258.30 304.7702
1258.40 305.0965
1258.50 305.4228
1258.60 305.7491
1258.70 306.0753
1258.80 306.4016
1258.90 306.7397
1259.00 307.0829
1259.10 307.4261
1259.20 307.7693
1259.30 308.1125
1259.40 308.4557
1259.50 308.7989
1259.60 309.1421
1259.70 309.4853
1259.80 309.8285
1259.90 310.1717
1260.00 310.5149
1260.10 310.8581
1260.20 311.2013
1260.30 311.5445
1260.40 311.8876
1260.50 312.2308
1260.60 312.574
1260.70 312.9172
1260.80 313.2604
1260.90 313.6036
1261.00 313.9468
1261.10 314.29
1261.20 314.6332
1261.30 314.9764
1261.40 315.3196
1261.50 315.6628
1261.60 316.006
1261.70 316.3492
1261.80 316.6924
1261.90 317.0356
1262.00 317.3787
1262.10 317.7219
1262.20 318.0651
1262.30 318.4083
1262.40 318.7515
1262.50 319.0947
1262.60 319.4379
1262.70 319.7811
1262.80 320.1243
1262.90 320.4675
1263.00 320.8107
1263.10 321.1539
1263.20 321.4127
1263.30 321.6154
1263.40 321.818
1263.50 322.0206
1263.60 322.2233
1263.70 322.4259
1263.80 322.6286
1263.90 322.8312
1264.00 323.0338
1264.10 323.2365
1264.20 323.4391
1264.30 323.6417
1264.40 323.8444
1264.50 324.047
1264.60 324.2497
1264.70 324.4523
1264.80 324.6549
1264.90 324.8576
1265.00 325.0602
1265.10 325.2628
1265.20 325.4655
1265.30 325.6681
1265.40 325.8707
1265.50 326.0734
1265.60 326.276
1265.70 326.4787
1265.80 326.6813
1265.90 326.8839
1266.00 327.0866
1266.10 327.2892
1266.20 327.4918
1266.30 327.6945
1266.40 327.8971
1266.50 328.0997
1266.60 328.3024
1266.70 328.505
1266.80 328.7077
1266.90 328.9103
1267.00 329.1129
1267.10 329.3156
1267.20 329.5182
1267.30 329.7208
1267.40 329.9235
1267.50 330.1147
1267.60 330.2945
1267.70 330.4742
1267.80 330.654
1267.90 330.8338
1268.00 331.0136
1268.10 331.1933
1268.20 331.3731
1268.30 331.5529
1268.40 331.7327
1268.50 331.9124
1268.60 332.0922
1268.70 332.272
1268.80 332.4518
1268.90 332.6316
1269.00 332.8113
1269.10 332.9911
1269.20 333.1709
1269.30 333.3507
1269.40 333.5304
1269.50 333.7102
1269.60 333.89
1269.70 334.0698
1269.80 334.2495
1269.90 334.4293
1270.00 334.6091
1270.10 334.7889
1270.20 334.9686
1270.30 335.1484
1270.40 335.3282
1270.50 335.508
1270.60 335.6877
1270.70 335.8675
1270.80 336.0473
1270.90 336.2271
1271.00 336.4069
1271.10 336.5866
1271.20 336.7664
1271.30 336.9462
1271.40 337.126
1271.50 337.3057
1271.60 337.4855
1271.70 337.6653
1271.80 337.7952
1271.90 337.8086
1272.00 337.822
1272.10 337.8355
1272.20 337.8489
1272.30 337.8623
1272.40 337.8757
1272.50 337.8892
1272.60 337.9026
1272.70 337.916
1272.80 337.9295
1272.90 337.9429
1273.00 337.9563
1273.10 337.9698
1273.20 337.9832
1273.30 337.9966
1273.40 338.0101
1273.50 338.0235
1273.60 338.0369
1273.70 338.0503
1273.80 338.0638
1273.90 338.0772
1274.00 338.0906
1274.10 338.1041
1274.20 338.1175
1274.30 338.1309
1274.40 338.1444
1274.50 338.1578
1274.60 338.1712
1274.70 338.1847
1274.80 338.1981
1274.90 338.2115
1275.00 338.2249
1275.10 338.2384
1275.20 338.2518
1275.30 338.2652
1275.40 338.2787
1275.50 338.2921
1275.60 338.3055
1275.70 338.319
1275.80 338.3324
1275.90 338.3458
1276.00 338.3593
1276.10 338.3634
1276.20 338.284
1276.30 338.2046
1276.40 338.1251
1276.50 338.0457
1276.60 337.9663
1276.70 337.8868
1276.80 337.8074
1276.90 337.728
1277.00 337.6486
1277.10 337.5691
1277.20 337.4897
1277.30 337.4103
1277.40 337.3309
1277.50 337.2514
1277.60 337.172
1277.70 337.0926
1277.80 337.0132
1277.90 336.9337
1278.00 336.8543
1278.10 336.7749
1278.20 336.6954
1278.30 336.616
1278.40 336.5366
1278.50 336.4572
1278.60 336.3777
1278.70 336.2983
1278.80 336.2189
1278.90 336.1395
1279.00 336.06
1279.10 335.9806
1279.20 335.9012
1279.30 335.8218
1279.40 335.7423
1279.50 335.6629
1279.60 335.5835
1279.70 335.5041
1279.80 335.4246
1279.90 335.3452
1280.00 335.2658
1280.10 335.1863
1280.20 335.1069
1280.30 335.0275
1280.40 334.9481
1280.50 334.9391
1280.60 334.93
1280.70 334.921
1280.80 334.912
1280.90 334.903
1281.00 334.894
1281.10 334.8849
1281.20 334.8759
1281.30 334.8669
1281.40 334.8579
1281.50 334.8489
1281.60 334.8399
1281.70 334.8308
1281.80 334.8218
1281.90 334.8128
1282.00 334.8038
1282.10 334.7948
1282.20 334.7857
1282.30 334.7767
1282.40 334.7677
1282.50 334.7587
1282.60 334.7497
1282.70 334.7407
1282.80 334.7316
1282.90 334.7226
1283.00 334.7136
1283.10 334.7046
1283.20 334.6956
1283.30 334.6865
1283.40 334.6775
1283.50 334.6685
1283.60 334.6595
1283.70 334.6505
1283.80 334.6415
1283.90 334.6324
1284.00 334.6234
1284.10 334.6144
1284.20 334.6054
1284.30 334.5964
1284.40 334.5874
1284.50 334.5783
1284.60 334.5693
1284.70 334.5603
1284.80 334.6058
1284.90 334.6649
1285.00 334.724
1285.10 334.7831
1285.20 334.8422
1285.30 334.9013
1285.40 334.9603
1285.50 335.0194
1285.60 335.0785
1285.70 335.1376
1285.80 335.1967
1285.90 335.2558
1286.00 335.3149
1286.10 335.374
1286.20 335.4331
1286.30 335.4922
1286.40 335.5513
1286.50 335.6104
1286.60 335.6695
1286.70 335.7286
1286.80 335.7877
1286.90 335.8468
1287.00 335.9059
1287.10 335.965
1287.20 336.0241
1287.30 336.0832
1287.40 336.1423
1287.50 336.2014
1287.60 336.2605
1287.70 336.3196
1287.80 336.3787
1287.90 336.4378
1288.00 336.4968
1288.10 336.5559
1288.20 336.615
1288.30 336.6741
1288.40 336.7332
1288.50 336.7923
1288.60 336.8514
1288.70 336.9105
1288.80 336.9696
1288.90 337.0287
1289.00 337.0878
1289.10 337.0333
1289.20 336.9031
1289.30 336.7729
1289.40 336.6426
1289.50 336.5124
1289.60 336.3822
1289.70 336.2519
1289.80 336.1217
1289.90 335.9915
1290.00 335.8613
1290.10 335.731
1290.20 335.6008
1290.30 335.4706
1290.40 335.3403
1290.50 335.2101
1290.60 335.0799
1290.70 334.9496
1290.80 334.8194
1290.90 334.6892
1291.00 334.559
1291.10 334.4287
1291.20 334.2985
1291.30 334.1683
1291.40 334.038
1291.50 333.9078
1291.60 333.7776
1291.70 333.6474
1291.80 333.5171
1291.90 333.3869
1292.00 333.2567
1292.10 333.1264
1292.20 332.9962
1292.30 332.866
1292.40 332.7358
1292.50 332.6055
1292.60 332.4753
1292.70 332.3451
1292.80 332.2148
1292.90 332.0846
1293.00 331.9544
1293.10 331.8242
1293.20 331.6939
1293.30 331.5637
1293.40 331.4756
1293.50 331.4506
1293.60 331.4256
1293.70 331.4006
1293.80 331.3757
1293.90 331.3507
1294.00 331.3257
1294.10 331.3007
1294.20 331.2758
1294.30 331.2508
1294.40 331.2258
1294.50 331.2008
1294.60 331.1759
1294.70 331.1509
1294.80 331.1259
1294.90 331.1009
1295.00 331.076
1295.10 331.051
1295.20 331.026
1295.30 331.001
1295.40 330.9761
1295.50 330.9511
1295.60 330.9261
1295.70 330.9011
1295.80 330.8762
1295.90 330.8512
1296.00 330.8262
1296.10 330.8012
1296.20 330.7763
1296.30 330.7513
1296.40 330.7263
1296.50 330.7013
1296.60 330.6764
1296.70 330.6514
1296.80 330.6264
1296.90 330.6014
1297.00 330.5765
1297.10 330.5515
1297.20 330.5265
1297.30 330.5015
1297.40 330.4766
1297.50 330.4516
1297.60 330.4266
1297.70 330.4119
1297.80 330.4383
1297.90 330.4646
1298.00 330.491
1298.10 330.5174
1298.20 330.5437
1298.30 330.5701
1298.40 330.5965
1298.50 330.6228
1298.60 330.6492
1298.70 330.6756
1298.80 330.7019
1298.90 330.7283
1299.00 330.7547
1299.10 330.781
1299.20 330.8074
1299.30 330.8338
1299.40 330.8601
1299.50 330.8865
1299.60 330.9129
1299.70 330.9392
1299.80 330.9656
1299.90 330.992
