# Version 2.1 - nm, norm@500 to 1, cut digits
# Wavelength(nm)  Flambda(ergs/cm^s/s/nm)
300.00 1.488156e-95
300.10 1.488156e-95
300.20 1.488156e-95
300.30 1.488156e-95
300.40 1.488156e-95
300.50 1.488156e-95
300.60 1.488156e-95
300.70 1.488156e-95
300.80 1.488156e-95
300.90 1.488156e-95
301.00 1.488156e-95
301.10 1.488156e-95
301.20 1.488156e-95
301.30 1.488156e-95
301.40 1.488156e-95
301.50 1.488156e-95
301.60 1.488156e-95
301.70 1.488156e-95
301.80 1.488156e-95
301.90 1.488156e-95
302.00 1.488156e-95
302.10 1.488156e-95
302.20 1.488156e-95
302.30 1.488156e-95
302.40 1.488156e-95
302.50 1.488156e-95
302.60 1.488156e-95
302.70 1.488156e-95
302.80 1.488156e-95
302.90 1.488156e-95
303.00 1.488156e-95
303.10 1.488156e-95
303.20 1.488156e-95
303.30 1.488156e-95
303.40 1.488156e-95
303.50 1.488156e-95
303.60 1.488156e-95
303.70 1.488156e-95
303.80 1.488156e-95
303.90 1.488156e-95
304.00 1.488156e-95
304.10 1.488156e-95
304.20 1.488156e-95
304.30 1.488156e-95
304.40 1.488156e-95
304.50 1.488156e-95
304.60 1.488156e-95
304.70 1.488156e-95
304.80 1.488156e-95
304.90 1.488156e-95
305.00 1.488156e-95
305.10 1.488156e-95
305.20 1.488156e-95
305.30 1.488156e-95
305.40 1.488156e-95
305.50 1.488156e-95
305.60 1.488156e-95
305.70 1.488156e-95
305.80 1.488156e-95
305.90 1.488156e-95
306.00 1.488156e-95
306.10 1.488156e-95
306.20 1.488156e-95
306.30 1.488156e-95
306.40 1.488156e-95
306.50 1.488156e-95
306.60 1.488156e-95
306.70 1.488156e-95
306.80 1.488156e-95
306.90 1.488156e-95
307.00 1.488156e-95
307.10 1.488156e-95
307.20 1.488156e-95
307.30 1.488156e-95
307.40 1.488156e-95
307.50 1.488156e-95
307.60 1.488156e-95
307.70 1.488156e-95
307.80 1.488156e-95
307.90 1.488156e-95
308.00 1.488156e-95
308.10 1.488156e-95
308.20 1.488156e-95
308.30 1.488156e-95
308.40 1.488156e-95
308.50 1.488156e-95
308.60 1.488156e-95
308.70 1.488156e-95
308.80 1.488156e-95
308.90 1.488156e-95
309.00 1.488156e-95
309.10 1.488156e-95
309.20 1.488156e-95
309.30 1.488156e-95
309.40 1.488156e-95
309.50 1.488156e-95
309.60 1.488156e-95
309.70 1.488156e-95
309.80 1.488156e-95
309.90 1.488156e-95
310.00 1.488156e-95
310.10 1.488156e-95
310.20 1.488156e-95
310.30 1.488156e-95
310.40 1.488156e-95
310.50 1.488156e-95
310.60 1.488156e-95
310.70 1.488156e-95
310.80 1.488156e-95
310.90 1.488156e-95
311.00 1.488156e-95
311.10 1.488156e-95
311.20 1.488156e-95
311.30 1.488156e-95
311.40 1.488156e-95
311.50 1.488156e-95
311.60 1.488156e-95
311.70 1.488156e-95
311.80 1.488156e-95
311.90 1.488156e-95
312.00 1.488156e-95
312.10 1.488156e-95
312.20 1.488156e-95
312.30 1.488156e-95
312.40 1.488156e-95
312.50 1.488156e-95
312.60 1.488156e-95
312.70 1.488156e-95
312.80 1.488156e-95
312.90 1.488156e-95
313.00 1.488156e-95
313.10 1.488156e-95
313.20 1.488156e-95
313.30 1.488156e-95
313.40 1.488156e-95
313.50 1.488156e-95
313.60 1.488156e-95
313.70 1.488156e-95
313.80 1.488156e-95
313.90 1.488156e-95
314.00 1.488156e-95
314.10 1.488156e-95
314.20 1.488156e-95
314.30 1.488156e-95
314.40 1.488156e-95
314.50 1.488156e-95
314.60 1.488156e-95
314.70 1.488156e-95
314.80 1.488156e-95
314.90 1.488156e-95
315.00 1.488156e-95
315.10 1.488156e-95
315.20 1.488156e-95
315.30 1.488156e-95
315.40 1.488156e-95
315.50 1.488156e-95
315.60 1.488156e-95
315.70 1.488156e-95
315.80 1.488156e-95
315.90 1.488156e-95
316.00 1.488156e-95
316.10 1.488156e-95
316.20 1.488156e-95
316.30 1.488156e-95
316.40 1.488156e-95
316.50 1.488156e-95
316.60 1.488156e-95
316.70 1.488156e-95
316.80 1.488156e-95
316.90 1.488156e-95
317.00 1.488156e-95
317.10 1.488156e-95
317.20 1.488156e-95
317.30 1.488156e-95
317.40 1.488156e-95
317.50 1.488156e-95
317.60 1.488156e-95
317.70 1.488156e-95
317.80 1.488156e-95
317.90 1.488156e-95
318.00 1.488156e-95
318.10 1.488156e-95
318.20 1.488156e-95
318.30 1.488156e-95
318.40 1.488156e-95
318.50 1.488156e-95
318.60 1.488156e-95
318.70 1.488156e-95
318.80 1.488156e-95
318.90 1.488156e-95
319.00 1.488156e-95
319.10 1.488156e-95
319.20 1.488156e-95
319.30 1.488156e-95
319.40 1.488156e-95
319.50 1.488156e-95
319.60 1.488156e-95
319.70 1.488156e-95
319.80 1.488156e-95
319.90 1.488156e-95
320.00 1.488156e-95
320.10 1.488156e-95
320.20 1.488156e-95
320.30 1.488156e-95
320.40 1.488156e-95
320.50 1.488156e-95
320.60 1.488156e-95
320.70 1.488156e-95
320.80 1.488156e-95
320.90 1.488156e-95
321.00 1.488156e-95
321.10 1.488156e-95
321.20 1.488156e-95
321.30 1.488156e-95
321.40 1.488156e-95
321.50 1.488156e-95
321.60 1.488156e-95
321.70 1.488156e-95
321.80 1.488156e-95
321.90 1.488156e-95
322.00 1.488156e-95
322.10 1.488156e-95
322.20 1.488156e-95
322.30 1.488156e-95
322.40 1.488156e-95
322.50 1.488156e-95
322.60 1.488156e-95
322.70 1.488156e-95
322.80 1.488156e-95
322.90 1.488156e-95
323.00 1.488156e-95
323.10 1.488156e-95
323.20 1.488156e-95
323.30 1.488156e-95
323.40 1.488156e-95
323.50 1.488156e-95
323.60 1.488156e-95
323.70 1.488156e-95
323.80 1.488156e-95
323.90 1.488156e-95
324.00 1.488156e-95
324.10 1.488156e-95
324.20 1.488156e-95
324.30 1.488156e-95
324.40 1.488156e-95
324.50 1.488156e-95
324.60 1.488156e-95
324.70 1.488156e-95
324.80 1.488156e-95
324.90 1.488156e-95
325.00 1.488156e-95
325.10 1.488156e-95
325.20 1.488156e-95
325.30 1.488156e-95
325.40 1.488156e-95
325.50 1.488156e-95
325.60 1.488156e-95
325.70 1.488156e-95
325.80 1.488156e-95
325.90 1.488156e-95
326.00 1.488156e-95
326.10 1.488156e-95
326.20 1.488156e-95
326.30 1.488156e-95
326.40 1.488156e-95
326.50 1.488156e-95
326.60 1.488156e-95
326.70 1.488156e-95
326.80 1.488156e-95
326.90 1.488156e-95
327.00 1.488156e-95
327.10 1.488156e-95
327.20 1.488156e-95
327.30 1.488156e-95
327.40 1.488156e-95
327.50 1.488156e-95
327.60 1.488156e-95
327.70 1.488156e-95
327.80 1.488156e-95
327.90 1.488156e-95
328.00 1.488156e-95
328.10 1.488156e-95
328.20 1.488156e-95
328.30 1.488156e-95
328.40 1.488156e-95
328.50 1.488156e-95
328.60 1.488156e-95
328.70 1.488156e-95
328.80 1.488156e-95
328.90 1.488156e-95
329.00 1.488156e-95
329.10 1.488156e-95
329.20 1.488156e-95
329.30 1.488156e-95
329.40 1.488156e-95
329.50 1.488156e-95
329.60 1.488156e-95
329.70 1.488156e-95
329.80 1.488156e-95
329.90 1.488156e-95
330.00 1.488156e-95
330.10 1.488156e-95
330.20 1.488156e-95
330.30 1.488156e-95
330.40 1.488156e-95
330.50 1.488156e-95
330.60 1.488156e-95
330.70 1.488156e-95
330.80 1.488156e-95
330.90 1.488156e-95
331.00 1.488156e-95
331.10 1.488156e-95
331.20 1.488156e-95
331.30 1.488156e-95
331.40 1.488156e-95
331.50 1.488156e-95
331.60 1.488156e-95
331.70 1.488156e-95
331.80 1.488156e-95
331.90 1.488156e-95
332.00 1.488156e-95
332.10 1.488156e-95
332.20 1.488156e-95
332.30 1.488156e-95
332.40 1.488156e-95
332.50 1.488156e-95
332.60 1.488156e-95
332.70 1.488156e-95
332.80 1.488156e-95
332.90 1.488156e-95
333.00 1.488156e-95
333.10 1.488156e-95
333.20 1.488156e-95
333.30 1.488156e-95
333.40 1.488156e-95
333.50 1.488156e-95
333.60 1.488156e-95
333.70 1.488156e-95
333.80 1.488156e-95
333.90 1.488156e-95
334.00 1.488156e-95
334.10 1.488156e-95
334.20 1.488156e-95
334.30 1.488156e-95
334.40 1.488156e-95
334.50 1.488156e-95
334.60 1.488156e-95
334.70 1.488156e-95
334.80 1.488156e-95
334.90 1.488156e-95
335.00 1.488156e-95
335.10 1.488156e-95
335.20 1.488156e-95
335.30 1.488156e-95
335.40 1.488156e-95
335.50 1.488156e-95
335.60 1.488156e-95
335.70 1.488156e-95
335.80 1.488156e-95
335.90 1.488156e-95
336.00 1.488156e-95
336.10 1.488156e-95
336.20 1.488156e-95
336.30 1.488156e-95
336.40 1.488156e-95
336.50 1.488156e-95
336.60 1.488156e-95
336.70 1.488156e-95
336.80 1.488156e-95
336.90 1.488156e-95
337.00 1.488156e-95
337.10 1.488156e-95
337.20 1.488156e-95
337.30 1.488156e-95
337.40 1.488156e-95
337.50 1.488156e-95
337.60 1.488156e-95
337.70 1.488156e-95
337.80 1.488156e-95
337.90 1.488156e-95
338.00 1.488156e-95
338.10 1.488156e-95
338.20 1.488156e-95
338.30 1.488156e-95
338.40 1.488156e-95
338.50 1.488156e-95
338.60 1.488156e-95
338.70 1.488156e-95
338.80 1.488156e-95
338.90 1.488156e-95
339.00 1.488156e-95
339.10 1.488156e-95
339.20 1.488156e-95
339.30 1.488156e-95
339.40 1.488156e-95
339.50 1.488156e-95
339.60 1.488156e-95
339.70 1.488156e-95
339.80 1.488156e-95
339.90 1.488156e-95
340.00 1.488156e-95
340.10 1.488156e-95
340.20 1.488156e-95
340.30 1.488156e-95
340.40 1.488156e-95
340.50 1.488156e-95
340.60 1.488156e-95
340.70 1.488156e-95
340.80 1.488156e-95
340.90 1.488156e-95
341.00 1.488156e-95
341.10 1.488156e-95
341.20 1.488156e-95
341.30 1.488156e-95
341.40 1.488156e-95
341.50 1.488156e-95
341.60 1.488156e-95
341.70 1.488156e-95
341.80 1.488156e-95
341.90 1.488156e-95
342.00 1.488156e-95
342.10 1.488156e-95
342.20 1.488156e-95
342.30 1.488156e-95
342.40 1.488156e-95
342.50 1.488156e-95
342.60 1.488156e-95
342.70 1.488156e-95
342.80 1.488156e-95
342.90 1.488156e-95
343.00 1.488156e-95
343.10 1.488156e-95
343.20 1.488156e-95
343.30 1.488156e-95
343.40 1.488156e-95
343.50 1.488156e-95
343.60 1.488156e-95
343.70 1.488156e-95
343.80 1.488156e-95
343.90 1.488156e-95
344.00 1.488156e-95
344.10 1.488156e-95
344.20 1.488156e-95
344.30 1.488156e-95
344.40 1.488156e-95
344.50 1.488156e-95
344.60 1.488156e-95
344.70 1.488156e-95
344.80 1.488156e-95
344.90 1.488156e-95
345.00 1.488156e-95
345.10 1.488156e-95
345.20 1.488156e-95
345.30 1.488156e-95
345.40 1.488156e-95
345.50 1.488156e-95
345.60 1.488156e-95
345.70 1.488156e-95
345.80 1.488156e-95
345.90 1.488156e-95
346.00 1.488156e-95
346.10 1.488156e-95
346.20 1.488156e-95
346.30 1.488156e-95
346.40 1.488156e-95
346.50 1.488156e-95
346.60 1.488156e-95
346.70 1.488156e-95
346.80 1.488156e-95
346.90 1.488156e-95
347.00 1.488156e-95
347.10 1.488156e-95
347.20 1.488156e-95
347.30 1.488156e-95
347.40 1.488156e-95
347.50 1.488156e-95
347.60 1.488156e-95
347.70 1.488156e-95
347.80 1.488156e-95
347.90 1.488156e-95
348.00 1.488156e-95
348.10 1.488156e-95
348.20 1.488156e-95
348.30 1.488156e-95
348.40 1.488156e-95
348.50 1.488156e-95
348.60 1.488156e-95
348.70 1.488156e-95
348.80 1.488156e-95
348.90 1.488156e-95
349.00 1.488156e-95
349.10 1.488156e-95
349.20 1.488156e-95
349.30 1.488156e-95
349.40 1.488156e-95
349.50 1.488156e-95
349.60 1.488156e-95
349.70 1.488156e-95
349.80 1.488156e-95
349.90 1.488156e-95
350.00 1.488156e-95
350.10 1.488156e-95
350.20 1.488156e-95
350.30 1.488156e-95
350.40 1.488156e-95
350.50 1.488156e-95
350.60 1.488156e-95
350.70 1.488156e-95
350.80 1.488156e-95
350.90 1.488156e-95
351.00 1.488156e-95
351.10 1.488156e-95
351.20 1.488156e-95
351.30 1.488156e-95
351.40 1.488156e-95
351.50 1.488156e-95
351.60 1.488156e-95
351.70 1.488156e-95
351.80 1.488156e-95
351.90 1.488156e-95
352.00 1.488156e-95
352.10 1.488156e-95
352.20 1.488156e-95
352.30 1.488156e-95
352.40 1.488156e-95
352.50 1.488156e-95
352.60 1.488156e-95
352.70 1.488156e-95
352.80 1.488156e-95
352.90 1.488156e-95
353.00 1.488156e-95
353.10 1.488156e-95
353.20 1.488156e-95
353.30 1.488156e-95
353.40 1.488156e-95
353.50 1.488156e-95
353.60 1.488156e-95
353.70 1.488156e-95
353.80 1.488156e-95
353.90 1.488156e-95
354.00 1.488156e-95
354.10 1.488156e-95
354.20 1.488156e-95
354.30 1.488156e-95
354.40 1.488156e-95
354.50 1.488156e-95
354.60 1.488156e-95
354.70 1.488156e-95
354.80 1.488156e-95
354.90 1.488156e-95
355.00 1.488156e-95
355.10 1.488156e-95
355.20 1.488156e-95
355.30 1.488156e-95
355.40 1.488156e-95
355.50 1.488156e-95
355.60 1.488156e-95
355.70 1.488156e-95
355.80 1.488156e-95
355.90 1.488156e-95
356.00 1.488156e-95
356.10 1.488156e-95
356.20 1.488156e-95
356.30 1.488156e-95
356.40 1.488156e-95
356.50 1.488156e-95
356.60 1.488156e-95
356.70 1.488156e-95
356.80 1.488156e-95
356.90 1.488156e-95
357.00 1.488156e-95
357.10 1.488156e-95
357.20 1.488156e-95
357.30 1.488156e-95
357.40 1.488156e-95
357.50 1.488156e-95
357.60 1.488156e-95
357.70 1.488156e-95
357.80 1.488156e-95
357.90 1.488156e-95
358.00 1.488156e-95
358.10 1.488156e-95
358.20 1.488156e-95
358.30 1.488156e-95
358.40 1.488156e-95
358.50 1.488156e-95
358.60 1.488156e-95
358.70 1.488156e-95
358.80 1.488156e-95
358.90 1.488156e-95
359.00 1.488156e-95
359.10 1.488156e-95
359.20 1.488156e-95
359.30 1.488156e-95
359.40 1.488156e-95
359.50 1.488156e-95
359.60 1.488156e-95
359.70 1.488156e-95
359.80 1.488156e-95
359.90 1.488156e-95
360.00 1.488156e-95
360.10 1.488156e-95
360.20 1.488156e-95
360.30 1.488156e-95
360.40 1.488156e-95
360.50 1.488156e-95
360.60 1.488156e-95
360.70 1.488156e-95
360.80 1.488156e-95
360.90 1.488156e-95
361.00 1.488156e-95
361.10 1.488156e-95
361.20 1.488156e-95
361.30 1.488156e-95
361.40 1.488156e-95
361.50 1.488156e-95
361.60 1.488156e-95
361.70 1.488156e-95
361.80 1.488156e-95
361.90 1.488156e-95
362.00 1.488156e-95
362.10 1.488156e-95
362.20 1.488156e-95
362.30 1.488156e-95
362.40 1.488156e-95
362.50 1.488156e-95
362.60 1.488156e-95
362.70 1.488156e-95
362.80 1.488156e-95
362.90 1.488156e-95
363.00 1.488156e-95
363.10 1.488156e-95
363.20 1.488156e-95
363.30 1.488156e-95
363.40 1.488156e-95
363.50 1.488156e-95
363.60 1.488156e-95
363.70 1.488156e-95
363.80 1.488156e-95
363.90 1.488156e-95
364.00 1.488156e-95
364.10 1.488156e-95
364.20 1.488156e-95
364.30 1.488156e-95
364.40 1.488156e-95
364.50 1.488156e-95
364.60 1.488156e-95
364.70 1.488156e-95
364.80 1.488156e-95
364.90 1.488156e-95
365.00 1.488156e-95
365.10 1.488156e-95
365.20 1.488156e-95
365.30 1.488156e-95
365.40 1.488156e-95
365.50 1.488156e-95
365.60 1.488156e-95
365.70 1.488156e-95
365.80 1.488156e-95
365.90 1.488156e-95
366.00 1.488156e-95
366.10 1.488156e-95
366.20 1.488156e-95
366.30 1.488156e-95
366.40 1.488156e-95
366.50 1.488156e-95
366.60 1.488156e-95
366.70 1.488156e-95
366.80 1.488156e-95
366.90 1.488156e-95
367.00 1.488156e-95
367.10 1.488156e-95
367.20 1.488156e-95
367.30 1.488156e-95
367.40 1.488156e-95
367.50 1.488156e-95
367.60 1.488156e-95
367.70 1.488156e-95
367.80 1.488156e-95
367.90 1.488156e-95
368.00 1.488156e-95
368.10 1.488156e-95
368.20 1.488156e-95
368.30 1.488156e-95
368.40 1.488156e-95
368.50 1.488156e-95
368.60 1.488156e-95
368.70 1.488156e-95
368.80 1.488156e-95
368.90 1.488156e-95
369.00 1.488156e-95
369.10 1.488156e-95
369.20 1.488156e-95
369.30 1.488156e-95
369.40 1.488156e-95
369.50 1.488156e-95
369.60 1.488156e-95
369.70 1.488156e-95
369.80 1.488156e-95
369.90 1.488156e-95
370.00 1.488156e-95
370.10 1.488156e-95
370.20 1.488156e-95
370.30 1.488156e-95
370.40 1.488156e-95
370.50 1.488156e-95
370.60 1.488156e-95
370.70 1.488156e-95
370.80 1.488156e-95
370.90 1.488156e-95
371.00 1.488156e-95
371.10 1.488156e-95
371.20 1.488156e-95
371.30 1.488156e-95
371.40 1.488156e-95
371.50 1.488156e-95
371.60 1.488156e-95
371.70 1.488156e-95
371.80 1.488156e-95
371.90 1.488156e-95
372.00 1.488156e-95
372.10 1.488156e-95
372.20 1.488156e-95
372.30 1.488156e-95
372.40 1.488156e-95
372.50 1.488156e-95
372.60 1.488156e-95
372.70 1.488156e-95
372.80 1.488156e-95
372.90 1.488156e-95
373.00 1.488156e-95
373.10 1.488156e-95
373.20 1.488156e-95
373.30 1.488156e-95
373.40 1.488156e-95
373.50 1.488156e-95
373.60 1.488156e-95
373.70 1.488156e-95
373.80 1.488156e-95
373.90 1.488156e-95
374.00 1.488156e-95
374.10 1.488156e-95
374.20 1.488156e-95
374.30 1.488156e-95
374.40 1.488156e-95
374.50 1.488156e-95
374.60 1.488156e-95
374.70 1.488156e-95
374.80 1.488156e-95
374.90 1.488156e-95
375.00 1.488156e-95
375.10 1.488156e-95
375.20 1.488156e-95
375.30 1.488156e-95
375.40 1.488156e-95
375.50 1.488156e-95
375.60 1.488156e-95
375.70 1.488156e-95
375.80 1.488156e-95
375.90 1.488156e-95
376.00 1.488156e-95
376.10 1.488156e-95
376.20 1.488156e-95
376.30 1.488156e-95
376.40 1.488156e-95
376.50 1.488156e-95
376.60 1.488156e-95
376.70 1.488156e-95
376.80 1.488156e-95
376.90 1.488156e-95
377.00 1.488156e-95
377.10 1.488156e-95
377.20 1.488156e-95
377.30 1.488156e-95
377.40 1.488156e-95
377.50 1.488156e-95
377.60 1.488156e-95
377.70 1.488156e-95
377.80 1.488156e-95
377.90 1.488156e-95
378.00 1.488156e-95
378.10 1.488156e-95
378.20 1.488156e-95
378.30 1.488156e-95
378.40 1.488156e-95
378.50 1.488156e-95
378.60 1.488156e-95
378.70 1.488156e-95
378.80 1.488156e-95
378.90 1.488156e-95
379.00 1.488156e-95
379.10 1.488156e-95
379.20 1.488156e-95
379.30 1.488156e-95
379.40 1.488156e-95
379.50 1.488156e-95
379.60 1.488156e-95
379.70 1.488156e-95
379.80 1.488156e-95
379.90 1.488156e-95
380.00 1.488156e-95
380.10 1.488156e-95
380.20 1.488156e-95
380.30 1.488156e-95
380.40 1.488156e-95
380.50 1.488156e-95
380.60 1.488156e-95
380.70 1.488156e-95
380.80 1.488156e-95
380.90 1.488156e-95
381.00 1.488156e-95
381.10 1.488156e-95
381.20 1.488156e-95
381.30 1.488156e-95
381.40 1.488156e-95
381.50 1.488156e-95
381.60 1.488156e-95
381.70 1.488156e-95
381.80 1.488156e-95
381.90 1.488156e-95
382.00 1.488156e-95
382.10 1.488156e-95
382.20 1.488156e-95
382.30 1.488156e-95
382.40 1.488156e-95
382.50 1.488156e-95
382.60 1.488156e-95
382.70 1.488156e-95
382.80 1.488156e-95
382.90 1.488156e-95
383.00 1.488156e-95
383.10 1.488156e-95
383.20 1.488156e-95
383.30 1.488156e-95
383.40 1.488156e-95
383.50 1.488156e-95
383.60 1.488156e-95
383.70 1.488156e-95
383.80 1.488156e-95
383.90 1.488156e-95
384.00 1.488156e-95
384.10 1.488156e-95
384.20 1.488156e-95
384.30 1.488156e-95
384.40 1.488156e-95
384.50 1.488156e-95
384.60 1.488156e-95
384.70 1.488156e-95
384.80 1.488156e-95
384.90 1.488156e-95
385.00 1.488156e-95
385.10 1.488156e-95
385.20 1.488156e-95
385.30 1.488156e-95
385.40 1.488156e-95
385.50 1.488156e-95
385.60 1.488156e-95
385.70 1.488156e-95
385.80 1.488156e-95
385.90 1.488156e-95
386.00 1.488156e-95
386.10 1.488156e-95
386.20 1.488156e-95
386.30 1.488156e-95
386.40 1.488156e-95
386.50 1.488156e-95
386.60 1.488156e-95
386.70 1.488156e-95
386.80 1.488156e-95
386.90 1.488156e-95
387.00 1.488156e-95
387.10 1.488156e-95
387.20 1.488156e-95
387.30 1.488156e-95
387.40 1.488156e-95
387.50 1.488156e-95
387.60 1.488156e-95
387.70 1.488156e-95
387.80 1.488156e-95
387.90 1.488156e-95
388.00 1.488156e-95
388.10 1.488156e-95
388.20 1.488156e-95
388.30 1.488156e-95
388.40 1.488156e-95
388.50 1.488156e-95
388.60 1.488156e-95
388.70 1.488156e-95
388.80 1.488156e-95
388.90 1.488156e-95
389.00 1.488156e-95
389.10 1.488156e-95
389.20 1.488156e-95
389.30 1.488156e-95
389.40 1.488156e-95
389.50 1.488156e-95
389.60 1.488156e-95
389.70 1.488156e-95
389.80 1.488156e-95
389.90 1.488156e-95
390.00 1.488156e-95
390.10 1.488156e-95
390.20 1.488156e-95
390.30 1.488156e-95
390.40 1.488156e-95
390.50 1.488156e-95
390.60 1.488156e-95
390.70 1.488156e-95
390.80 1.488156e-95
390.90 1.488156e-95
391.00 1.488156e-95
391.10 1.488156e-95
391.20 1.488156e-95
391.30 1.488156e-95
391.40 1.488156e-95
391.50 1.488156e-95
391.60 1.488156e-95
391.70 1.488156e-95
391.80 1.488156e-95
391.90 1.488156e-95
392.00 1.488156e-95
392.10 1.488156e-95
392.20 1.488156e-95
392.30 1.488156e-95
392.40 1.488156e-95
392.50 1.488156e-95
392.60 1.488156e-95
392.70 1.488156e-95
392.80 1.488156e-95
392.90 1.488156e-95
393.00 1.488156e-95
393.10 1.488156e-95
393.20 1.488156e-95
393.30 1.488156e-95
393.40 1.488156e-95
393.50 1.488156e-95
393.60 1.488156e-95
393.70 1.488156e-95
393.80 1.488156e-95
393.90 1.488156e-95
394.00 1.488156e-95
394.10 1.488156e-95
394.20 1.488156e-95
394.30 1.488156e-95
394.40 1.488156e-95
394.50 1.488156e-95
394.60 1.488156e-95
394.70 1.488156e-95
394.80 1.488156e-95
394.90 1.488156e-95
395.00 0.00830619
395.10 0.00830619
395.20 0.00830619
395.30 0.00830619
395.40 0.00830619
395.50 0.00830619
395.60 0.00830619
395.70 0.00830619
395.80 0.00830619
395.90 0.00830619
396.00 0.00830619
396.10 0.00830619
396.20 0.00830619
396.30 0.00830619
396.40 0.00830619
396.50 0.00830619
396.60 0.00830619
396.70 0.00830619
396.80 0.00830619
396.90 0.00830619
397.00 0.00830619
397.10 0.00830619
397.20 0.00830619
397.30 0.00830619
397.40 0.00830619
397.50 0.00830619
397.60 0.01156228
397.70 0.02466991
397.80 0.05144558
397.90 0.09214421
398.00 0.1440148
398.10 0.2022413
398.20 0.2602393
398.30 0.311654
398.40 0.353184
398.50 0.3850706
398.60 0.4110018
398.70 0.4374245
398.80 0.4720767
398.90 0.5215924
399.00 0.5896789
399.10 0.6773026
399.20 0.7822347
399.30 0.8993989
399.40 1.021206
399.50 1.138308
399.60 1.242335
399.70 1.326975
399.80 1.388183
399.90 1.42344
400.00 1.4315
400.10 1.4315
400.20 1.4315
400.30 1.4315
400.40 1.4315
400.50 1.4315
400.60 1.4315
400.70 1.4315
400.80 1.4315
400.90 1.4315
401.00 1.4315
401.10 1.432714
401.20 1.441164
401.30 1.458324
401.40 1.485918
401.50 1.524814
401.60 1.572048
401.70 1.621955
401.80 1.66824
401.90 1.705818
402.00 1.732514
402.10 1.749115
402.20 1.758784
402.30 1.767335
402.40 1.780934
402.50 1.802093
402.60 1.83143
402.70 1.870083
402.80 1.917878
402.90 1.972397
403.00 2.030472
403.10 2.089015
403.20 2.146031
403.30 2.201916
403.40 2.259495
403.50 2.321658
403.60 2.389815
403.70 2.463004
403.80 2.538203
403.90 2.611984
404.00 2.68151
404.10 2.745368
404.20 2.80328
404.30 2.856137
404.40 2.906097
404.50 2.95608
404.60 3.008331
404.70 3.062065
404.80 3.114598
404.90 3.164592
405.00 3.203355
405.10 3.247269
405.20 3.289742
405.30 3.333979
405.40 3.380722
405.50 3.427314
405.60 3.470029
405.70 3.505746
405.80 3.532034
405.90 3.547501
406.00 3.552657
406.10 3.552657
406.20 3.552657
406.30 3.552657
406.40 3.552657
406.50 3.552657
406.60 3.552657
406.70 3.552657
406.80 3.552657
406.90 3.552657
407.00 3.552657
407.10 3.552657
407.20 3.552657
407.30 3.552657
407.40 3.552657
407.50 3.552657
407.60 3.549401
407.70 3.536294
407.80 3.509518
407.90 3.468819
408.00 3.416949
408.10 3.358722
408.20 3.300724
408.30 3.249309
408.40 3.207779
408.50 3.175893
408.60 3.149962
408.70 3.123539
408.80 3.08918
408.90 3.045323
409.00 2.986394
409.10 2.909153
409.20 2.813922
409.30 2.704681
409.40 2.588219
409.50 2.473182
409.60 2.369155
409.70 2.284515
409.80 2.223307
409.90 2.18805
410.00 2.17999
410.10 2.17999
410.20 2.17999
410.30 2.17999
410.40 2.17999
410.50 2.17999
410.60 2.188134
410.70 2.210336
410.80 2.247954
410.90 2.299234
411.00 2.360187
411.10 2.423981
411.20 2.478165
411.30 2.515239
411.40 2.529106
411.50 2.518177
411.60 2.488557
411.70 2.451126
411.80 2.416069
411.90 2.390527
412.00 2.378147
412.10 2.377267
412.20 2.382341
412.30 2.385587
412.40 2.379299
412.50 2.359337
412.60 2.33
412.70 2.291347
412.80 2.243552
412.90 2.189033
413.00 2.130958
413.10 2.072415
413.20 2.015399
413.30 1.959514
413.40 1.901935
413.50 1.839772
413.60 1.771615
413.70 1.698426
413.80 1.623227
413.90 1.549446
414.00 1.47992
414.10 1.416062
414.20 1.35815
414.30 1.305293
414.40 1.255333
414.50 1.20535
414.60 1.153099
414.70 1.099365
414.80 1.046832
414.90 0.9968376
415.00 0.9497693
415.10 0.9058543
415.20 0.8633819
415.30 0.8191453
415.40 0.7724022
415.50 0.72581
415.60 0.6830953
415.70 0.6473779
415.80 0.6210896
415.90 0.609782
416.00 0.6178515
416.10 0.641782
416.20 0.6769447
416.30 0.7231254
416.40 0.779042
416.50 0.8418929
416.60 0.9070987
416.70 0.969327
416.80 1.023847
416.90 1.067544
417.00 1.099439
417.10 1.119938
417.20 1.129771
417.30 1.129771
417.40 1.129771
417.50 1.129771
417.60 1.129771
417.70 1.129771
417.80 1.129771
417.90 1.129771
418.00 1.129771
418.10 1.129771
418.20 1.129771
418.30 1.129771
418.40 1.129771
418.50 1.129771
418.60 1.129771
418.70 1.129771
418.80 1.129478
418.90 1.12382
419.00 1.114662
419.10 1.104279
419.20 1.094578
419.30 1.086655
419.40 1.08131
419.50 1.079245
419.60 1.079245
419.70 1.079245
419.80 1.079245
419.90 1.079245
420.00 1.079245
420.10 1.079245
420.20 1.079245
420.30 1.079245
420.40 1.079245
420.50 1.079245
420.60 1.071101
420.70 1.0489
420.80 1.011281
420.90 0.9600015
421.00 0.899048
421.10 0.8340398
421.20 0.7714052
421.30 0.7171722
421.40 0.6757109
421.50 0.6503822
421.60 0.6418123
421.70 0.6437314
421.80 0.6506777
421.90 0.6605171
422.00 0.6722822
422.10 0.6860904
422.20 0.7031293
422.30 0.7237863
422.40 0.7470078
422.50 0.7718182
422.60 0.7908264
422.70 0.8003362
422.80 0.8003362
422.90 0.8003362
423.00 0.8003362
423.10 0.8003362
423.20 0.8003362
423.30 0.8003362
423.40 0.8003362
423.50 0.8003362
423.60 0.8003362
423.70 0.8003362
423.80 0.8003362
423.90 0.8003362
424.00 0.8003362
424.10 0.8003362
424.20 0.8003362
424.30 0.8003362
424.40 0.8003362
424.50 0.8003362
424.60 0.8117499
424.70 0.837163
424.80 0.8770961
424.90 0.9302924
425.00 0.9942876
425.10 1.064932
425.20 1.136691
425.30 1.20423
425.40 1.262971
425.50 1.309508
425.60 1.34366
425.70 1.36863
425.80 1.388991
425.90 1.405565
426.00 1.416665
426.10 1.420998
426.20 1.417367
426.30 1.404898
426.40 1.383066
426.50 1.352997
426.60 1.318118
426.70 1.283096
426.80 1.25259
426.90 1.229977
427.00 1.215476
427.10 1.206173
427.20 1.199013
427.30 1.199013
427.40 1.199013
427.50 1.199013
427.60 1.199013
427.70 1.199013
427.80 1.199013
427.90 1.199013
428.00 1.199013
428.10 1.199013
428.20 1.199013
428.30 1.199013
428.40 1.199013
428.50 1.199013
428.60 1.199013
428.70 1.199013
428.80 1.199013
428.90 1.199013
429.00 1.199013
429.10 1.199013
429.20 1.199013
429.30 1.205935
429.40 1.220863
429.50 1.242612
429.60 1.27154
429.70 1.308176
429.80 1.351776
429.90 1.401691
430.00 1.457993
430.10 1.519713
430.20 1.583873
430.30 1.64584
430.40 1.699864
430.50 1.74003
430.60 1.76317
430.70 1.771605
430.80 1.774098
430.90 1.780998
431.00 1.798651
431.10 1.829503
431.20 1.872472
431.30 1.921372
431.40 1.966414
431.50 1.996056
431.60 2.00064
431.70 1.986245
431.80 1.968071
431.90 1.946195
432.00 1.920114
432.10 1.890585
432.20 1.858803
432.30 1.826349
432.40 1.795817
432.50 1.769809
432.60 1.750801
432.70 1.741291
432.80 1.741291
432.90 1.741291
433.00 1.741291
433.10 1.741291
433.20 1.741291
433.30 1.741291
433.40 1.741291
433.50 1.741291
433.60 1.741291
433.70 1.741291
433.80 1.741291
433.90 1.741291
434.00 1.741291
434.10 1.741291
434.20 1.741291
434.30 1.741291
434.40 1.741291
434.50 1.741291
434.60 1.729878
434.70 1.704464
434.80 1.664531
434.90 1.611335
435.00 1.54734
435.10 1.476696
435.20 1.404936
435.30 1.337397
435.40 1.278657
435.50 1.23212
435.60 1.197967
435.70 1.172997
435.80 1.152637
435.90 1.131903
436.00 1.107577
436.10 1.079314
436.20 1.047783
436.30 1.014071
436.40 0.9799865
436.50 0.9472039
436.60 0.920439
436.70 0.9032215
436.80 0.8971328
436.90 0.9019394
437.00 0.915635
437.10 0.9350482
437.20 0.9561961
437.30 0.9682773
437.40 0.9682773
437.50 0.9682773
437.60 0.9682773
437.70 0.9682773
437.80 0.9682773
437.90 0.9682773
438.00 0.9682773
438.10 0.9682773
438.20 0.9682773
438.30 0.9682773
438.40 0.9682773
438.50 0.9682773
438.60 0.9682773
438.70 0.9682773
438.80 0.9682773
438.90 0.9682773
439.00 0.9682773
439.10 0.9682773
439.20 0.9682773
439.30 0.9613557
439.40 0.9464277
439.50 0.9246782
439.60 0.8957507
439.70 0.8591145
439.80 0.8155141
439.90 0.7723928
440.00 0.730305
440.10 0.6880391
440.20 0.6454612
440.30 0.6034615
440.40 0.5646569
440.50 0.5339014
440.60 0.5150319
440.70 0.5074999
440.80 0.5050068
440.90 0.4981061
441.00 0.4804538
441.10 0.4496015
441.20 0.4066325
441.30 0.3577327
441.40 0.3126904
441.50 0.28041
441.60 0.266782
441.70 0.266782
441.80 0.266782
441.90 0.266782
442.00 0.266782
442.10 0.266782
442.20 0.2673996
442.30 0.2678156
442.40 0.2678156
442.50 0.2678156
442.60 0.2678156
442.70 0.2678156
442.80 0.2678156
442.90 0.2678156
443.00 0.2678156
443.10 0.2678156
443.20 0.2678156
443.30 0.2678156
443.40 0.2678156
443.50 0.2678156
443.60 0.2678156
443.70 0.2750917
443.80 0.2892333
443.90 0.3091969
444.00 0.335272
444.10 0.3677042
444.20 0.4062616
444.30 0.4517005
444.40 0.5041589
444.50 0.5617289
444.60 0.6214745
444.70 0.6791329
444.80 0.728714
444.90 0.7651907
445.00 0.7867258
445.10 0.7940934
445.20 0.7940934
445.30 0.7940934
445.40 0.7940934
445.50 0.7940934
445.60 0.7940934
445.70 0.7940934
445.80 0.7940934
445.90 0.7940934
446.00 0.7940934
446.10 0.7940934
446.20 0.7940934
446.30 0.7940934
446.40 0.7940934
446.50 0.7940934
446.60 0.7905322
446.70 0.7805426
446.80 0.7626175
446.90 0.7367263
447.00 0.7056367
447.10 0.6750285
447.20 0.6512067
447.30 0.6442684
447.40 0.6663125
447.50 0.7050531
447.60 0.7575869
447.70 0.8190226
447.80 0.8834045
447.90 0.9447536
448.00 0.9978468
448.10 1.039304
448.20 1.068251
448.30 1.085778
448.40 1.094654
448.50 1.098153
448.60 1.098623
448.70 1.098623
448.80 1.098623
448.90 1.098623
449.00 1.099178
449.10 1.102766
449.20 1.109271
449.30 1.117347
449.40 1.125179
449.50 1.130786
449.60 1.132099
449.70 1.132099
449.80 1.132099
449.90 1.125306
450.00 1.111092
450.10 1.091638
450.20 1.070544
450.30 1.057853
450.40 1.056021
450.50 1.064171
450.60 1.079211
450.70 1.097301
450.80 1.112861
450.90 1.120383
451.00 1.120383
451.10 1.120383
451.20 1.120383
451.30 1.120383
451.40 1.120383
451.50 1.120383
451.60 1.120383
451.70 1.120383
451.80 1.120383
451.90 1.120383
452.00 1.120383
452.10 1.120383
452.20 1.119766
452.30 1.11935
452.40 1.119619
452.50 1.119734
452.60 1.119734
452.70 1.119734
452.80 1.119734
452.90 1.119734
453.00 1.119734
453.10 1.119734
453.20 1.119734
453.30 1.123597
453.40 1.133356
453.50 1.148896
453.60 1.169842
453.70 1.187968
453.80 1.203142
453.90 1.215889
454.00 1.223541
454.10 1.22241
454.20 1.209894
454.30 1.183703
454.40 1.143747
454.50 1.093692
454.60 1.040457
454.70 0.9922897
454.80 0.9575134
454.90 0.9415176
455.00 0.9441591
455.10 0.961483
455.20 0.9832573
455.30 0.9999715
455.40 1.012058
455.50 1.020986
455.60 1.027642
455.70 1.031878
455.80 1.033173
455.90 1.033173
456.00 1.033173
456.10 1.033173
456.20 1.033173
456.30 1.033173
456.40 1.033173
456.50 1.033173
456.60 1.033173
456.70 1.033173
456.80 1.033173
456.90 1.033173
457.00 1.033173
457.10 1.037393
457.20 1.054286
457.30 1.077137
457.40 1.090347
457.50 1.089394
457.60 1.072351
457.70 1.040095
457.80 0.996249
457.90 0.945579
458.00 0.8929951
458.10 0.851538
458.20 0.8225907
458.30 0.8050642
458.40 0.7961878
458.50 0.7926892
458.60 0.7984618
458.70 0.8158586
458.80 0.8440916
458.90 0.881498
459.00 0.9232418
459.10 0.9621764
459.20 0.9941635
459.30 1.016375
459.40 1.027631
459.50 1.029116
459.60 1.027803
459.70 1.027803
459.80 1.027803
459.90 1.027803
460.00 1.027803
460.10 1.027803
460.20 1.027314
460.30 1.020038
460.40 1.006651
460.50 0.9890898
460.60 0.9697797
460.70 0.9507867
460.80 0.9352262
460.90 0.9277044
461.00 0.9277044
461.10 0.9277044
461.20 0.9277044
461.30 0.9277044
461.40 0.9277044
461.50 0.9277044
461.60 0.9277044
461.70 0.9300102
461.80 0.9346955
461.90 0.9390613
462.00 0.9407216
462.10 0.9407216
462.20 0.9407216
462.30 0.9407216
462.40 0.9404518
462.50 0.9403369
462.60 0.9403369
462.70 0.9403369
462.80 0.9403369
462.90 0.9403369
463.00 0.9403369
463.10 0.9403369
463.20 0.9403369
463.30 0.9365623
463.40 0.9332402
463.50 0.9294799
463.60 0.9239591
463.70 0.9155968
463.80 0.902624
463.90 0.8830316
464.00 0.8565211
464.10 0.8252198
464.20 0.799178
464.30 0.7799306
464.40 0.7674284
464.50 0.7599132
464.60 0.753402
464.70 0.7439113
464.80 0.7421517
464.90 0.7467659
465.00 0.7563157
465.10 0.7693375
465.20 0.7844302
465.30 0.8002847
465.40 0.8149992
465.50 0.8273827
465.60 0.8386222
465.70 0.8510306
465.80 0.8665972
465.90 0.8849422
466.00 0.9051655
466.10 0.926437
466.20 0.9475288
466.30 0.9672176
466.40 0.9837998
466.50 0.9953291
466.60 1.000198
466.70 1.000198
466.80 1.000198
466.90 1.000198
467.00 1.000198
467.10 0.9959769
467.20 0.9790839
467.30 0.9510904
467.40 0.9158367
467.50 0.8780485
467.60 0.8425574
467.70 0.8136768
467.80 0.7974554
467.90 0.7951089
468.00 0.8074759
468.10 0.8253253
468.20 0.8479593
468.30 0.8734942
468.40 0.8987059
468.50 0.9204402
468.60 0.9294637
468.70 0.9181605
468.80 0.8899276
468.90 0.8525211
469.00 0.8102222
469.10 0.7676993
469.20 0.7292071
469.30 0.6989198
469.40 0.6798321
469.50 0.6727401
469.60 0.6780573
469.70 0.6948452
469.80 0.7220439
469.90 0.7557221
470.00 0.7906058
470.10 0.8212228
470.20 0.8428076
470.30 0.8527842
470.40 0.8527842
470.50 0.8527842
470.60 0.8527842
470.70 0.8527842
470.80 0.8527842
470.90 0.8568468
471.00 0.8712618
471.10 0.8941321
471.20 0.9220646
471.30 0.9515853
471.40 0.9799125
471.50 1.004891
471.60 1.024525
471.70 1.034382
471.80 1.032111
471.90 1.027745
472.00 1.026085
472.10 1.026085
472.20 1.026085
472.30 1.026085
472.40 1.026085
472.50 1.026085
472.60 1.026085
472.70 1.026085
472.80 1.026085
472.90 1.026085
473.00 1.026085
473.10 1.026085
473.20 1.026085
473.30 1.025996
473.40 1.01956
473.50 1.00778
473.60 0.9923555
473.70 0.9753148
473.80 0.9589723
473.90 0.9458542
474.00 0.9386378
474.10 0.9386378
474.20 0.9386378
474.30 0.9386378
474.40 0.9386378
474.50 0.9386378
474.60 0.9386378
474.70 0.9386378
474.80 0.9255926
474.90 0.9004974
475.00 0.8667712
475.10 0.8290578
475.20 0.7921908
475.30 0.7596221
475.40 0.7328215
475.50 0.7115099
475.60 0.693614
475.70 0.6769693
475.80 0.6601084
475.90 0.6417634
476.00 0.62154
476.10 0.6027419
476.20 0.5912624
476.30 0.5883536
476.40 0.5965947
476.50 0.6186837
476.60 0.6560248
476.70 0.7050401
476.80 0.7569503
476.90 0.8057267
477.00 0.844443
477.10 0.8681643
477.20 0.8754278
477.30 0.8754278
477.40 0.8754278
477.50 0.8754278
477.60 0.8754278
477.70 0.8751289
477.80 0.8708145
477.90 0.862482
478.00 0.8496057
478.10 0.8317563
478.20 0.8147518
478.30 0.8064374
478.40 0.8096727
478.50 0.8246589
478.60 0.8495758
478.70 0.881201
478.80 0.911065
478.90 0.9302496
479.00 0.9389553
479.10 0.9391717
479.20 0.9391717
479.30 0.9391717
479.40 0.9391717
479.50 0.9391717
479.60 0.9338545
479.70 0.9170666
479.80 0.8923363
479.90 0.8644676
480.00 0.8389298
480.10 0.8208577
480.20 0.8142754
480.30 0.8200617
480.40 0.8345895
480.50 0.8464274
480.60 0.8545089
480.70 0.858326
480.80 0.8591581
480.90 0.855964
481.00 0.845862
481.10 0.8334081
481.20 0.8244339
481.30 0.8259134
481.40 0.8444542
481.50 0.884008
481.60 0.9449588
481.70 1.02466
481.80 1.118193
481.90 1.210144
482.00 1.290969
482.10 1.355361
482.20 1.400254
482.30 1.425653
482.40 1.435165
482.50 1.435165
482.60 1.435165
482.70 1.435165
482.80 1.435165
482.90 1.435165
483.00 1.435165
483.10 1.435165
483.20 1.435165
483.30 1.435165
483.40 1.435165
483.50 1.435165
483.60 1.435165
483.70 1.435165
483.80 1.435165
483.90 1.435165
484.00 1.435165
484.10 1.435165
484.20 1.435165
484.30 1.435726
484.40 1.437034
484.50 1.437902
484.60 1.437902
484.70 1.437902
484.80 1.437902
484.90 1.437902
485.00 1.437902
485.10 1.437902
485.20 1.437902
485.30 1.437902
485.40 1.437902
485.50 1.437902
485.60 1.437902
485.70 1.437902
485.80 1.437902
485.90 1.437902
486.00 1.437902
486.10 1.435429
486.20 1.425817
486.30 1.409037
486.40 1.384214
486.50 1.350595
486.60 1.308386
486.70 1.25937
486.80 1.20746
486.90 1.158684
487.00 1.119967
487.10 1.096246
487.20 1.088983
487.30 1.088983
487.40 1.088983
487.50 1.088983
487.60 1.088983
487.70 1.088983
487.80 1.088983
487.90 1.088983
488.00 1.088983
488.10 1.088983
488.20 1.083353
488.30 1.066133
488.40 1.037686
488.50 1.000965
488.60 0.9607821
488.70 0.9230632
488.80 0.8964114
488.90 0.8838118
489.00 0.8819367
489.10 0.8870333
489.20 0.8901697
489.30 0.890891
489.40 0.890891
489.50 0.890891
489.60 0.890891
489.70 0.890891
489.80 0.8925246
489.90 0.8975352
490.00 0.9055475
490.10 0.9158693
490.20 0.9278672
490.30 0.9411634
490.40 0.9549518
490.50 0.96769
490.60 0.9769845
490.70 0.9793152
490.80 0.9784831
490.90 0.9776147
491.00 0.9733016
491.10 0.9628853
491.20 0.9439269
491.30 0.9129267
491.40 0.8660587
491.50 0.8015261
491.60 0.7209414
491.70 0.6290777
491.80 0.5331304
491.90 0.4411791
492.00 0.3603546
492.10 0.295962
492.20 0.2510694
492.30 0.22567
492.40 0.216158
492.50 0.216158
492.60 0.2216498
492.70 0.2332992
492.80 0.2494714
492.90 0.2691786
493.00 0.2918107
493.10 0.3156808
493.20 0.3390324
493.30 0.3605601
493.40 0.3797463
493.50 0.3980108
493.60 0.4179812
493.70 0.441395
493.80 0.467586
493.90 0.4949728
494.00 0.5218438
494.10 0.5454975
494.20 0.5627909
494.30 0.5705713
494.40 0.5692637
494.50 0.5683951
494.60 0.5683951
494.70 0.5683951
494.80 0.5683951
494.90 0.5683951
495.00 0.5683951
495.10 0.5683951
495.20 0.5683951
495.30 0.5733423
495.40 0.5795561
495.50 0.5835288
495.60 0.5835288
495.70 0.5835288
495.80 0.5835288
495.90 0.5835288
496.00 0.5835288
496.10 0.5835288
496.20 0.5835288
496.30 0.5835288
496.40 0.5835288
496.50 0.5835288
496.60 0.5835288
496.70 0.5835288
496.80 0.5841384
496.90 0.5898902
497.00 0.6004072
497.10 0.6156233
497.20 0.6358778
497.30 0.6612179
497.40 0.6912635
497.50 0.725194
497.60 0.7615458
497.70 0.798605
497.80 0.8342924
497.90 0.8665539
498.00 0.8934337
498.10 0.913185
498.20 0.9251657
498.30 0.9295477
498.40 0.9295477
498.50 0.9295477
498.60 0.9295477
498.70 0.9295477
498.80 0.9263357
498.90 0.9197506
499.00 0.9129199
499.10 0.907607
499.20 0.9044706
499.30 0.9138795
499.40 0.934199
499.50 0.9613238
499.60 0.989833
499.70 1.013889
499.80 1.024627
499.90 1.017358
500.00 1
500.10 0.9771332
500.20 0.950133
500.30 0.9210738
500.40 0.8927576
500.50 0.8681815
500.60 0.8508055
500.70 0.8446577
500.80 0.8446577
500.90 0.8446577
501.00 0.8446577
501.10 0.8446577
501.20 0.8446577
501.30 0.8446577
501.40 0.8446577
501.50 0.8500082
501.60 0.8655686
501.70 0.8902683
501.80 0.9214799
501.90 0.9556693
502.00 0.9894306
502.10 1.019967
502.20 1.044833
502.30 1.062097
502.40 1.070189
502.50 1.070189
502.60 1.064697
502.70 1.053048
502.80 1.036875
502.90 1.017168
503.00 0.9945362
503.10 0.970666
503.20 0.9473145
503.30 0.9257867
503.40 0.9066006
503.50 0.888336
503.60 0.8683656
503.70 0.8449519
503.80 0.8187608
503.90 0.791374
504.00 0.764503
504.10 0.7408493
504.20 0.724409
504.30 0.7162481
504.40 0.7162481
504.50 0.7162481
504.60 0.7162481
504.70 0.7162481
504.80 0.7162481
504.90 0.7162481
505.00 0.7162481
505.10 0.719069
505.20 0.7226082
505.30 0.7197707
505.40 0.7135569
505.50 0.7095841
505.60 0.7095841
505.70 0.7096979
505.80 0.7123996
505.90 0.7186798
506.00 0.7297383
506.10 0.7460781
506.20 0.7670743
506.30 0.7911202
506.40 0.8157676
506.50 0.8386977
506.60 0.8586453
506.70 0.8755705
506.80 0.8892238
506.90 0.8949751
507.00 0.8933951
507.10 0.885826
507.20 0.8732786
507.30 0.8562469
507.40 0.8339887
507.50 0.8048576
507.60 0.7685057
507.70 0.7314465
507.80 0.6957591
507.90 0.6634977
508.00 0.6366178
508.10 0.6168665
508.20 0.6048859
508.30 0.6005039
508.40 0.6005039
508.50 0.6005039
508.60 0.6005039
508.70 0.6005039
508.80 0.6005039
508.90 0.6005039
509.00 0.6005553
509.10 0.6136959
509.20 0.6404867
509.30 0.669317
509.40 0.6962516
509.50 0.7189845
509.60 0.7368891
509.70 0.7505446
509.80 0.7610629
509.90 0.7691053
510.00 0.7691053
510.10 0.7691053
510.20 0.7691053
510.30 0.7691053
510.40 0.7691053
510.50 0.7691053
510.60 0.7691053
510.70 0.7691053
510.80 0.7703963
510.90 0.7763051
511.00 0.7858827
511.10 0.7981166
511.20 0.8119342
511.30 0.8262654
511.40 0.8397102
511.50 0.8454331
511.60 0.8379958
511.70 0.8186333
511.80 0.7907007
511.90 0.759419
512.00 0.7307778
512.10 0.7091632
512.20 0.6978209
512.30 0.6999106
512.40 0.7173341
512.50 0.7480218
512.60 0.7814515
512.70 0.8147793
512.80 0.846418
512.90 0.8751427
513.00 0.8987949
513.10 0.915301
513.20 0.9236429
513.30 0.9240558
513.40 0.9240558
513.50 0.9240558
513.60 0.9240558
513.70 0.9240558
513.80 0.9240558
513.90 0.9240558
514.00 0.9240558
514.10 0.9240558
514.20 0.9232027
514.30 0.9230224
514.40 0.9244217
514.50 0.9271281
514.60 0.9301459
514.70 0.9322774
514.80 0.9322774
514.90 0.9322774
515.00 0.9322774
515.10 0.9294565
515.20 0.9259173
515.30 0.9238077
515.40 0.9249757
515.50 0.9283105
515.60 0.9313673
515.70 0.9325431
515.80 0.9298414
515.90 0.9239914
516.00 0.9153216
516.10 0.9045509
516.20 0.8928632
516.30 0.8816899
516.40 0.8723056
516.50 0.8644515
516.60 0.8561251
516.70 0.8444026
516.80 0.8301397
516.90 0.8186366
517.00 0.8096996
517.10 0.8020526
517.20 0.7943454
517.30 0.7860371
517.40 0.7782497
517.50 0.7734503
517.60 0.7734503
517.70 0.7734503
517.80 0.7734503
517.90 0.7734503
518.00 0.7734503
518.10 0.7734503
518.20 0.7734503
518.30 0.7734503
518.40 0.7734503
518.50 0.7734503
518.60 0.7734503
518.70 0.7734503
518.80 0.7734503
518.90 0.7734503
519.00 0.7733989
519.10 0.7628896
519.20 0.7389115
519.30 0.6999509
519.40 0.6526969
519.50 0.6028392
519.60 0.5564253
519.70 0.5187135
519.80 0.4933557
519.90 0.4817618
520.00 0.4817618
520.10 0.4817618
520.20 0.4817618
520.30 0.4817618
520.40 0.4817618
520.50 0.4817618
520.60 0.4817618
520.70 0.4817618
520.80 0.4804708
520.90 0.474562
521.00 0.4657763
521.10 0.4626036
521.20 0.4654894
521.30 0.4738792
521.40 0.4868086
521.50 0.5024246
521.60 0.5169682
521.70 0.5263741
521.80 0.5282452
521.90 0.5253376
522.00 0.5202174
522.10 0.511296
522.20 0.4977725
522.30 0.4784183
522.40 0.4529029
522.50 0.4222152
522.60 0.3889433
522.70 0.3586851
522.80 0.3319633
522.90 0.3090917
523.00 0.292581
523.10 0.2857714
523.20 0.2903265
523.30 0.3061909
523.40 0.3258198
523.50 0.3483874
523.60 0.3739016
523.70 0.4022058
523.80 0.4318516
523.90 0.4605972
524.00 0.4854474
524.10 0.5031171
524.20 0.5109858
524.30 0.5109858
524.40 0.5095865
524.50 0.5068801
524.60 0.5038623
524.70 0.5017308
524.80 0.5017308
524.90 0.5017308
525.00 0.5017308
525.10 0.5017308
525.20 0.5017308
525.30 0.5017308
525.40 0.5016322
525.50 0.5027364
525.60 0.508413
525.70 0.5211634
525.80 0.5406969
525.90 0.5640424
526.00 0.5868386
526.10 0.6038039
526.20 0.6099004
526.30 0.6012684
526.40 0.5860054
526.50 0.5709293
526.60 0.5593081
526.70 0.5541055
526.80 0.5541055
526.90 0.5541055
527.00 0.5541055
527.10 0.5541055
527.20 0.5541055
527.30 0.5541055
527.40 0.5541055
527.50 0.5541055
527.60 0.5541055
527.70 0.5541055
527.80 0.5541055
527.90 0.5541055
528.00 0.5541055
528.10 0.5541055
528.20 0.5541055
528.30 0.5541055
528.40 0.5541055
528.50 0.5541055
528.60 0.5541055
528.70 0.5541055
528.80 0.5541055
528.90 0.5541055
529.00 0.5541055
529.10 0.5514743
529.20 0.5486616
529.30 0.5486616
529.40 0.5486616
529.50 0.5486616
529.60 0.5486616
529.70 0.5486616
529.80 0.5486616
529.90 0.5486616
530.00 0.5486616
530.10 0.5486616
530.20 0.5486616
530.30 0.5486616
530.40 0.5486616
530.50 0.5486616
530.60 0.5486616
530.70 0.5486616
530.80 0.5486616
530.90 0.5486616
531.00 0.5478697
531.10 0.5392909
531.20 0.5245613
531.30 0.5041273
531.40 0.4789824
531.50 0.452293
531.60 0.4296263
531.70 0.4148832
531.80 0.409733
531.90 0.409733
532.00 0.409733
532.10 0.4115521
532.20 0.4211531
532.30 0.4360267
532.40 0.4524476
532.50 0.4664423
532.60 0.474129
532.70 0.4710595
532.80 0.4661426
532.90 0.4602894
533.00 0.4531479
533.10 0.4449365
533.20 0.441986
533.30 0.4431645
533.40 0.4464558
533.50 0.4491857
533.60 0.4475039
533.70 0.4384634
533.80 0.4214584
533.90 0.3976262
534.00 0.372776
534.10 0.3551063
534.20 0.3472376
534.30 0.3472376
534.40 0.3472376
534.50 0.3472376
534.60 0.3472376
534.70 0.3472376
534.80 0.3472376
534.90 0.3472376
535.00 0.3472376
535.10 0.3472376
535.20 0.3472376
535.30 0.3472376
535.40 0.3461681
535.50 0.3426462
535.60 0.3393697
535.70 0.3342107
535.80 0.3252646
535.90 0.3114542
536.00 0.2932531
536.10 0.273067
536.20 0.257662
536.30 0.2534213
536.40 0.2534213
536.50 0.2534213
536.60 0.2534213
536.70 0.2534213
536.80 0.2534213
536.90 0.2534213
537.00 0.2534213
537.10 0.2534213
537.20 0.2534213
537.30 0.2534213
537.40 0.2534213
537.50 0.2534213
537.60 0.2534213
537.70 0.2542918
537.80 0.2646434
537.90 0.2824587
538.00 0.3054985
538.10 0.3306055
538.20 0.353877
538.30 0.3717841
538.40 0.3828191
538.50 0.3874976
538.60 0.3874976
538.70 0.3874976
538.80 0.3874976
538.90 0.3874976
539.00 0.3874976
539.10 0.3923875
539.20 0.4029999
539.30 0.4183694
539.40 0.4363768
539.50 0.454717
539.60 0.4713516
539.70 0.4847207
539.80 0.4932967
539.90 0.4962325
540.00 0.4962325
540.10 0.4962325
540.20 0.4962325
540.30 0.4962325
540.40 0.4996503
540.50 0.5061506
540.60 0.5136729
540.70 0.5205214
540.80 0.5258183
540.90 0.5297655
541.00 0.5338731
541.10 0.539893
541.20 0.5492613
541.30 0.5660105
541.40 0.5930229
541.50 0.6288373
541.60 0.6682932
541.70 0.7064682
541.80 0.7387902
541.90 0.7621543
542.00 0.7752634
542.10 0.7760516
542.20 0.7664506
542.30 0.751577
542.40 0.7351561
542.50 0.7211615
542.60 0.7133169
542.70 0.7133169
542.80 0.7149189
542.90 0.7238336
543.00 0.7391941
543.10 0.7583206
543.20 0.7723917
543.30 0.7802737
543.40 0.7821257
543.50 0.7792768
543.60 0.7734463
543.70 0.7656529
543.80 0.7573484
543.90 0.752435
544.00 0.752435
544.10 0.752435
544.20 0.752435
544.30 0.752435
544.40 0.752435
544.50 0.752435
544.60 0.752435
544.70 0.752435
544.80 0.752435
544.90 0.752435
545.00 0.752435
545.10 0.752435
545.20 0.752435
545.30 0.752435
545.40 0.752435
545.50 0.751518
545.60 0.746061
545.70 0.73718
545.80 0.7265927
545.90 0.7166274
546.00 0.7096436
546.10 0.7072953
546.20 0.7072953
546.30 0.7072953
546.40 0.7072953
546.50 0.7072953
546.60 0.7072953
546.70 0.7072953
546.80 0.7072953
546.90 0.7072953
547.00 0.7072953
547.10 0.7072953
547.20 0.7072953
547.30 0.7072953
547.40 0.7072953
547.50 0.7080879
547.60 0.7114613
547.70 0.7163815
547.80 0.7133858
547.90 0.7035915
548.00 0.6883242
548.10 0.6702931
548.20 0.6537337
548.30 0.6424884
548.40 0.638523
548.50 0.6423712
548.60 0.6541506
548.70 0.6709745
548.80 0.6931885
548.90 0.7192563
549.00 0.7465939
549.10 0.7676528
549.20 0.7795376
549.30 0.7819342
549.40 0.7764331
549.50 0.7649028
549.60 0.7486085
549.70 0.7352394
549.80 0.7266634
549.90 0.7237276
550.00 0.3774906
550.10 0.325962
550.20 0.2659176
550.30 0.2025731
550.40 0.1406426
550.50 0.08650309
550.60 0.04993148
550.70 0.03573281
550.80 0.04328166
550.90 0.06333401
551.00 0.08276527
551.10 0.1004551
551.20 0.1172351
551.30 0.1338898
551.40 0.1515638
551.50 0.1728806
551.60 0.2023291
551.70 0.2443888
551.80 0.2999238
551.90 0.3650933
552.00 0.4334372
552.10 0.4983093
552.20 0.5545523
552.30 0.5989675
552.40 0.6302332
552.50 0.647258
552.60 0.6481087
552.70 0.6481087
552.80 0.6481087
552.90 0.6481087
553.00 0.6481087
553.10 0.6481087
553.20 0.6481087
553.30 0.6481087
553.40 0.6481087
553.50 0.6481087
553.60 0.6481087
553.70 0.6481087
553.80 0.6481087
553.90 0.6481087
554.00 0.6490533
554.10 0.6549968
554.20 0.668256
554.30 0.6909197
554.40 0.7239916
554.50 0.7640164
554.60 0.802513
554.70 0.8358327
554.80 0.8640629
554.90 0.8890434
555.00 0.9141066
555.10 0.9425497
555.20 0.9876718
555.30 1.069598
555.40 1.189281
555.50 1.358184
555.60 1.60691
555.70 1.950796
555.80 2.386806
555.90 2.896209
556.00 3.447573
556.10 3.999676
556.20 4.508739
556.30 4.938703
556.40 5.268285
556.50 5.497513
556.60 5.639192
556.70 5.69859
556.80 5.719847
556.90 5.733386
557.00 5.739275
557.10 5.739275
557.20 5.739275
557.30 5.739275
557.40 5.739275
557.50 5.741967
557.60 5.758782
557.70 5.792744
557.80 5.846681
557.90 5.922874
558.00 6.01824
558.10 6.1242
558.20 6.235933
558.30 6.35058
558.40 6.466159
558.50 6.582861
558.60 6.701305
558.70 6.817965
558.80 6.925069
558.90 7.014829
559.00 7.081567
559.10 7.12214
559.20 7.122932
559.30 7.065311
559.40 6.952965
559.50 6.77846
559.60 6.510192
559.70 6.128975
559.80 5.63743
559.90 5.062857
560.00 4.443149
560.10 3.826174
560.20 3.260869
560.30 2.786489
560.40 2.425642
560.50 2.179389
560.60 2.036859
560.70 1.977461
560.80 1.956205
560.90 1.942665
561.00 1.936776
561.10 1.936776
561.20 1.93739
561.30 1.947431
561.40 1.965262
561.50 1.987743
561.60 2.004118
561.70 2.011178
561.80 2.004215
561.90 1.978409
562.00 1.934385
562.10 1.87618
562.20 1.807475
562.30 1.730195
562.40 1.641693
562.50 1.53558
562.60 1.40781
562.70 1.262629
562.80 1.111544
562.90 0.9767515
563.00 0.8655187
563.10 0.7788137
563.20 0.7251639
563.30 0.7067764
563.40 0.7130745
563.50 0.7297889
563.60 0.7453355
563.70 0.7538794
563.80 0.756692
563.90 0.756692
564.00 0.760979
564.10 0.7755637
564.20 0.8026586
564.30 0.8407982
564.40 0.8846658
564.50 0.9269541
564.60 0.9617933
564.70 0.9872241
564.80 1.005736
564.90 1.023326
565.00 1.046916
565.10 1.080776
565.20 1.123877
565.30 1.162298
565.40 1.190411
565.50 1.201991
565.60 1.191355
565.70 1.155814
565.80 1.108839
565.90 1.058452
566.00 1.006166
566.10 0.9524672
566.20 0.920079
566.30 0.9095644
566.40 0.9230011
566.50 0.9648364
566.60 1.036723
566.70 1.134694
566.80 1.247501
566.90 1.351227
567.00 1.436769
567.10 1.502573
567.20 1.542791
567.30 1.558138
567.40 1.559322
567.50 1.563816
567.60 1.594677
567.70 1.672608
567.80 1.803111
567.90 1.974868
568.00 2.169223
568.10 2.362848
568.20 2.536025
568.30 2.676017
568.40 2.777882
568.50 2.843725
568.60 2.879807
568.70 2.894782
568.80 2.89688
568.90 2.890694
569.00 2.878515
569.10 2.861994
569.20 2.844697
569.30 2.833442
569.40 2.833941
569.50 2.847877
569.60 2.873324
569.70 2.905477
569.80 2.926051
569.90 2.92652
570.00 2.92652
570.10 2.92652
570.20 2.902622
570.30 2.853104
570.40 2.779519
570.50 2.685088
570.60 2.577817
570.70 2.4662
570.80 2.362611
570.90 2.281818
571.00 2.233463
571.10 2.219943
571.20 2.237298
571.30 2.277414
571.40 2.327271
571.50 2.366684
571.60 2.371772
571.70 2.321099
571.80 2.205114
571.90 2.033358
572.00 1.834716
572.10 1.626506
572.20 1.426234
572.30 1.248103
572.40 1.10237
572.50 0.9942383
572.60 0.923317
572.70 0.8829112
572.80 0.8623023
572.90 0.8508973
573.00 0.8394864
573.10 0.8221484
573.20 0.7957296
573.30 0.7585234
573.40 0.7120797
573.50 0.6613914
573.60 0.6133901
573.70 0.5757568
573.80 0.5551825
573.90 0.5547138
574.00 0.5568587
574.10 0.569505
574.20 0.5913379
574.30 0.6196962
574.40 0.6514243
574.50 0.6836511
574.60 0.7118395
574.70 0.7332793
574.80 0.7462684
574.90 0.7492196
575.00 0.7425161
575.10 0.7296838
575.20 0.7148875
575.30 0.7018147
575.40 0.696597
575.50 0.7076866
575.60 0.741333
575.70 0.7997195
575.80 0.8815119
575.90 0.9774913
576.00 1.067203
576.10 1.14888
576.20 1.22131
576.30 1.283484
576.40 1.336304
576.50 1.381056
576.60 1.416933
576.70 1.44303
576.80 1.459488
576.90 1.46648
577.00 1.46648
577.10 1.46648
577.20 1.46648
577.30 1.46648
577.40 1.46648
577.50 1.46648
577.60 1.46648
577.70 1.46648
577.80 1.46648
577.90 1.46648
578.00 1.464335
578.10 1.460811
578.20 1.470522
578.30 1.494567
578.40 1.531585
578.50 1.57792
578.60 1.629237
578.70 1.681266
578.80 1.727669
578.90 1.76196
579.00 1.779943
579.10 1.777278
579.20 1.751233
579.30 1.703081
579.40 1.634002
579.50 1.546577
579.60 1.451527
579.70 1.352611
579.80 1.253487
579.90 1.157508
580.00 1.067797
580.10 0.9861188
580.20 0.9136893
580.30 0.851515
580.40 0.7986955
580.50 0.7539433
580.60 0.7180659
580.70 0.6919688
580.80 0.6755115
580.90 0.6685189
581.00 0.6685189
581.10 0.6685189
581.20 0.6710787
581.30 0.6985836
581.40 0.7451881
581.50 0.802961
581.60 0.8623451
581.70 0.9144055
581.80 0.9536197
581.90 0.9808055
582.00 1.0027
582.10 1.017837
582.20 1.016623
582.30 0.9992441
582.40 0.9663881
582.50 0.9211651
582.60 0.8700784
582.70 0.8215657
582.80 0.7816976
582.90 0.7528869
583.00 0.7345656
583.10 0.72488
583.20 0.7218813
583.30 0.7215295
583.40 0.7202496
583.50 0.7202496
583.60 0.7202496
583.70 0.7202496
583.80 0.7202496
583.90 0.7372255
584.00 0.7876299
584.10 0.87671
584.20 1.002138
584.30 1.153095
584.40 1.312466
584.50 1.459992
584.60 1.577996
584.70 1.657322
584.80 1.699376
584.90 1.713836
585.00 1.714371
585.10 1.715623
585.20 1.726273
585.30 1.726367
585.40 1.714873
585.50 1.687212
585.60 1.640362
585.70 1.588302
585.80 1.549088
585.90 1.521902
586.00 1.500007
586.10 1.475748
586.20 1.445418
586.30 1.410394
586.40 1.374504
586.50 1.341165
586.60 1.310528
586.70 1.279942
586.80 1.24856
586.90 1.217196
587.00 1.187049
587.10 1.15995
587.20 1.137171
587.30 1.120712
587.40 1.113939
587.50 1.113939
587.60 1.113939
587.70 1.113939
587.80 1.113939
587.90 1.10618
588.00 1.081344
588.10 1.02607
588.20 0.9317908
588.30 0.7979267
588.40 0.6385561
588.50 0.4910302
588.60 0.3730257
588.70 0.2937003
588.80 0.2516458
588.90 0.2371863
589.00 0.236651
589.10 0.2353993
589.20 0.2225657
589.30 0.2093913
589.40 0.1988568
589.50 0.1977248
589.60 0.2121823
589.70 0.2322591
589.80 0.2430738
589.90 0.2453179
590.00 0.2453179
590.10 0.2453179
590.20 0.2503369
590.30 0.2703172
590.40 0.3105567
590.50 0.3719044
590.60 0.4497025
590.70 0.5342737
590.80 0.6124546
590.90 0.6713246
591.00 0.7016544
591.10 0.7016544
591.20 0.7016544
591.30 0.7016544
591.40 0.7016544
591.50 0.7016544
591.60 0.7016544
591.70 0.7016544
591.80 0.7016544
591.90 0.6924375
592.00 0.6668686
592.10 0.6330626
592.20 0.6019144
592.30 0.5848207
592.40 0.5848207
592.50 0.5848207
592.60 0.5848207
592.70 0.5848207
592.80 0.5848207
592.90 0.5848207
593.00 0.5848207
593.10 0.5848207
593.20 0.5844438
593.30 0.5700194
593.40 0.5454438
593.50 0.516464
593.60 0.4894721
593.70 0.4693953
593.80 0.4585806
593.90 0.4563365
594.00 0.4563365
594.10 0.4563365
594.20 0.4513175
594.30 0.4313372
594.40 0.3910976
594.50 0.32975
594.60 0.2519519
594.70 0.1673807
594.80 0.08919976
594.90 0.03032984
595.00 0
595.10 0
595.20 0
595.30 0
595.40 0.00192617
595.50 0.02222895
595.60 0.05843772
595.70 0.105613
595.80 0.1579533
595.90 0.2096348
596.00 0.2566754
596.10 0.2973804
596.20 0.3317374
596.30 0.3609167
596.40 0.3854455
596.50 0.4053992
596.60 0.4214095
596.70 0.4331953
596.80 0.4392283
596.90 0.4392283
597.00 0.4392283
597.10 0.4392283
597.20 0.4392283
597.30 0.4395126
597.40 0.4430121
597.50 0.4497042
597.60 0.4626716
597.70 0.4872073
597.80 0.5271939
597.90 0.5816039
598.00 0.6442065
598.10 0.7084084
598.20 0.7705182
598.30 0.8276947
598.40 0.8760934
598.50 0.9131327
598.60 0.9398718
598.70 0.9605063
598.80 0.9813425
598.90 1.010061
599.00 1.052075
599.10 1.10919
599.20 1.180977
599.30 1.265705
599.40 1.358469
599.50 1.436444
599.60 1.491793
599.70 1.518365
599.80 1.513575
599.90 1.478087
600.00 2.504103
600.10 2.568077
600.20 2.484393
600.30 2.28706
600.40 1.935949
600.50 1.481572
600.60 1.069564
600.70 0.8253785
600.80 0.8334491
600.90 1.148746
601.00 1.680553
601.10 2.284605
601.20 2.871473
601.30 3.389108
601.40 3.787641
601.50 3.931096
601.60 3.66232
601.70 2.949881
601.80 1.902027
601.90 0.6477025
602.00 0
602.10 0
602.20 0
602.30 0
602.40 0
602.50 0
602.60 0
602.70 0
602.80 0
602.90 0.8457239
603.00 1.824484
603.10 2.740821
603.20 3.523467
603.30 4.070445
603.40 4.296051
603.50 4.162008
603.60 3.686075
603.70 2.975647
603.80 2.272645
603.90 1.823496
604.00 1.762253
604.10 2.060812
604.20 2.59852
604.30 3.242804
604.40 3.788739
604.50 4.039365
604.60 3.92583
604.70 3.480463
604.80 2.789629
604.90 2.000398
605.00 1.305767
605.10 0.8544144
605.20 0.6374496
605.30 0.6163979
605.40 0.7718902
605.50 1.03776
605.60 1.34676
605.70 1.696262
605.80 2.121403
605.90 2.593548
606.00 3.031191
606.10 3.338874
606.20 3.447606
606.30 3.313821
606.40 2.972066
606.50 2.57728
606.60 2.297768
606.70 2.196942
606.80 2.249692
606.90 2.418835
607.00 2.659982
607.10 2.91697
607.20 3.139196
607.30 3.308588
607.40 3.439981
607.50 3.548944
607.60 3.64746
607.70 3.751282
607.80 3.866679
607.90 3.964818
608.00 4.005041
608.10 3.940389
608.20 3.712761
608.30 3.324591
608.40 2.848202
608.50 2.307628
608.60 1.71393
608.70 1.167298
608.80 0.8076369
608.90 0.7406639
609.00 1.002076
609.10 1.538413
609.20 2.18693
609.30 2.731871
609.40 3.016849
609.50 3.071549
609.60 3.04443
609.70 3.032099
609.80 3.060812
609.90 3.195159
610.00 3.485449
610.10 3.86901
610.20 4.21003
610.30 4.401179
610.40 4.431402
610.50 4.326243
610.60 4.188924
610.70 4.177033
610.80 4.371566
610.90 4.680739
611.00 4.942685
611.10 5.063482
611.20 5.006581
611.30 4.764735
611.40 4.371074
611.50 3.869076
611.60 3.330674
611.70 2.859465
611.80 2.504258
611.90 2.312495
612.00 2.283536
612.10 2.347433
612.20 2.437572
612.30 2.52182
612.40 2.562099
612.50 2.489008
612.60 2.285187
612.70 2.008346
612.80 1.7168
612.90 1.465552
613.00 1.320004
613.10 1.327967
613.20 1.505258
613.30 1.77924
613.40 2.030926
613.50 2.173349
613.60 2.167189
613.70 2.053585
613.80 1.957502
613.90 1.98531
614.00 2.152647
614.10 2.409772
614.20 2.699291
614.30 2.953748
614.40 3.107356
614.50 3.123174
614.60 3.008146
614.70 2.858784
614.80 2.785466
614.90 2.83168
615.00 2.987467
615.10 3.189355
615.20 3.332377
615.30 3.352604
615.40 3.242253
615.50 3.019161
615.60 2.738012
615.70 2.494694
615.80 2.363853
615.90 2.369976
616.00 2.508869
616.10 2.710199
616.20 2.863555
616.30 2.905549
616.40 2.838516
616.50 2.725364
616.60 2.725785
616.70 2.938908
616.80 3.332049
616.90 3.861296
617.00 4.451081
617.10 4.986684
617.20 5.357947
617.30 5.472063
617.40 5.261589
617.50 4.726667
617.60 3.963121
617.70 3.10518
617.80 2.314315
617.90 1.739284
618.00 1.386716
618.10 1.223879
618.20 1.241549
618.30 1.371216
618.40 1.536209
618.50 1.668179
618.60 1.70111
618.70 1.599706
618.80 1.385265
618.90 1.138398
619.00 0.9630882
619.10 0.9466201
619.20 1.084713
619.30 1.283659
619.40 1.409792
619.50 1.404817
619.60 1.351912
619.70 1.381477
619.80 1.553673
619.90 1.84765
620.00 2.20701
620.10 2.562256
620.20 2.849383
620.30 3.001766
620.40 2.965627
620.50 2.718796
620.60 2.331224
620.70 1.936205
620.80 1.663651
620.90 1.573874
621.00 1.616916
621.10 1.66542
621.20 1.629295
621.30 1.507402
621.40 1.329812
621.50 1.120152
621.60 0.8931069
621.70 0.6769752
621.80 0.5194683
621.90 0.4871257
622.00 0.600616
622.10 0.8138171
622.20 1.102966
622.30 1.4783
622.40 1.918266
622.50 2.381487
622.60 2.801338
622.70 3.086653
622.80 3.231153
622.90 3.321785
623.00 3.442179
623.10 3.629934
623.20 3.852284
623.30 4.045536
623.40 4.155857
623.50 4.153269
623.60 4.014137
623.70 3.719927
623.80 3.300305
623.90 2.810841
624.00 2.341966
624.10 2.014702
624.20 1.863333
624.30 1.843027
624.40 1.898283
624.50 1.968662
624.60 2.020799
624.70 2.038192
624.80 2.01201
624.90 1.944982
625.00 1.832599
625.10 1.671562
625.20 1.483568
625.30 1.317765
625.40 1.217849
625.50 1.209919
625.60 1.29703
625.70 1.44426
625.80 1.599028
625.90 1.708433
626.00 1.76771
626.10 1.836095
626.20 2.005521
626.30 2.327082
626.40 2.772018
626.50 3.247785
626.60 3.599602
626.70 3.70817
626.80 3.536478
626.90 3.102302
627.00 2.48769
627.10 1.836593
627.20 1.3174
627.30 1.077708
627.40 1.161415
627.50 1.479248
627.60 1.862605
627.70 2.167608
627.80 2.340392
627.90 2.382335
628.00 2.383558
628.10 2.460651
628.20 2.647082
628.30 2.932032
628.40 3.292998
628.50 3.687829
628.60 4.079759
628.70 4.429878
628.80 4.705005
628.90 4.911307
629.00 5.035468
629.10 5.043643
629.20 4.923632
629.30 4.705115
629.40 4.432623
629.50 4.136109
629.60 3.948276
629.70 4.030598
629.80 4.385748
629.90 4.928995
630.00 5.540675
630.10 6.077385
630.20 6.403121
630.30 6.408237
630.40 6.110565
630.50 5.617293
630.60 5.040796
630.70 4.487803
630.80 4.049489
630.90 3.825383
631.00 3.821118
631.10 3.932523
631.20 4.119232
631.30 4.348381
631.40 4.524584
631.50 4.563115
631.60 4.467773
631.70 4.311507
631.80 4.138667
631.90 3.965745
632.00 3.82681
632.10 3.804103
632.20 3.959342
632.30 4.239018
632.40 4.477971
632.50 4.519249
632.60 4.283015
632.70 3.77877
632.80 3.130573
632.90 2.528243
633.00 2.106689
633.10 1.908894
633.20 1.938706
633.30 2.212055
633.40 2.714555
633.50 3.336126
633.60 3.940717
633.70 4.454793
633.80 4.882961
633.90 5.247728
634.00 5.560892
634.10 5.818691
634.20 5.976341
634.30 6.006093
634.40 5.919783
634.50 5.749531
634.60 5.560507
634.70 5.383096
634.80 5.211242
634.90 5.028309
635.00 4.835028
635.10 4.638958
635.20 4.432449
635.30 4.214696
635.40 3.972879
635.50 3.716899
635.60 3.499715
635.70 3.378053
635.80 3.423598
635.90 3.695004
636.00 4.169069
636.10 4.794368
636.20 5.574958
636.30 6.505903
636.40 7.443128
636.50 8.192363
636.60 8.613549
636.70 8.637685
636.80 8.29413
636.90 7.673228
637.00 6.896891
637.10 6.114848
637.20 5.43052
637.30 4.91222
637.40 4.667781
637.50 4.7312
637.60 4.966823
637.70 5.186329
637.80 5.268205
637.90 5.138833
638.00 4.800926
638.10 4.346129
638.20 3.889853
638.30 3.549909
638.40 3.438181
638.50 3.600613
638.60 4.022618
638.70 4.624056
638.80 5.232949
638.90 5.698377
639.00 5.963416
639.10 6.055799
639.20 6.063815
639.30 6.074276
639.40 6.09722
639.50 6.075016
639.60 5.951118
639.70 5.706677
639.80 5.357202
639.90 4.940889
640.00 4.511087
640.10 4.144265
640.20 3.924049
640.30 3.906425
640.40 4.092573
640.50 4.414971
640.60 4.767196
640.70 5.048799
640.80 5.224925
640.90 5.338115
641.00 5.431184
641.10 5.504441
641.20 5.543082
641.30 5.54509
641.40 5.508192
641.50 5.42407
641.60 5.285778
641.70 5.106168
641.80 4.89946
641.90 4.66419
642.00 4.405844
642.10 4.132703
642.20 3.862411
642.30 3.612716
642.40 3.403702
642.50 3.267884
642.60 3.231333
642.70 3.309628
642.80 3.548521
642.90 3.984339
643.00 4.573858
643.10 5.187724
643.20 5.6999
643.30 6.039283
643.40 6.15959
643.50 6.064076
643.60 5.751812
643.70 5.230282
643.80 4.589046
643.90 3.961868
644.00 3.482245
644.10 3.222648
644.20 3.175672
644.30 3.322508
644.40 3.635396
644.50 4.076132
644.60 4.579837
644.70 5.063363
644.80 5.501795
644.90 5.89039
645.00 6.255647
645.10 6.606886
645.20 6.877377
645.30 6.989825
645.40 6.873024
645.50 6.528815
645.60 6.043317
645.70 5.504908
645.80 5.030159
645.90 4.730001
646.00 4.638371
646.10 4.7535
646.20 5.024743
646.30 5.402217
646.40 5.827863
646.50 6.22834
646.60 6.548267
646.70 6.715794
646.80 6.743437
646.90 6.694847
647.00 6.574981
647.10 6.378231
647.20 6.105041
647.30 5.780963
647.40 5.487922
647.50 5.299393
647.60 5.245882
647.70 5.275363
647.80 5.305047
647.90 5.306138
648.00 5.282588
648.10 5.281645
648.20 5.277026
648.30 5.219211
648.40 5.160376
648.50 5.190955
648.60 5.388138
648.70 5.766046
648.80 6.254739
648.90 6.755586
649.00 7.157
649.10 7.364088
649.20 7.345383
649.30 7.120021
649.40 6.832779
649.50 6.673866
649.60 6.769991
649.70 7.132408
649.80 7.653078
649.90 8.172994
650.00 8.517379
650.10 8.533422
650.20 8.168686
650.30 7.485085
650.40 6.640795
650.50 5.863017
650.60 5.340172
650.70 5.207048
650.80 5.454736
650.90 5.935946
651.00 6.489491
651.10 6.984256
651.20 7.323744
651.30 7.438348
651.40 7.317097
651.50 7.049554
651.60 6.766212
651.70 6.566135
651.80 6.492325
651.90 6.542833
652.00 6.711964
652.10 6.934905
652.20 7.111495
652.30 7.181869
652.40 7.134622
652.50 7.018357
652.60 6.918551
652.70 6.938308
652.80 7.150638
652.90 7.540771
653.00 8.036125
653.10 8.546314
653.20 9.004003
653.30 9.346874
653.40 9.555775
653.50 9.675575
653.60 9.717905
653.70 9.657918
653.80 9.491009
653.90 9.238865
654.00 8.89204
654.10 8.439427
654.20 7.96374
654.30 7.594149
654.40 7.404049
654.50 7.388642
654.60 7.490288
654.70 7.651115
654.80 7.791025
654.90 7.824997
655.00 7.744873
655.10 7.608455
655.20 7.458234
655.30 7.296343
655.40 7.170324
655.50 7.154592
655.60 7.252498
655.70 7.447689
655.80 7.767475
655.90 8.253783
656.00 8.90324
656.10 9.647654
656.20 10.37805
656.30 10.9645
656.40 11.31479
656.50 11.39442
656.60 11.23084
656.70 10.87971
656.80 10.38104
656.90 9.794412
657.00 9.200999
657.10 8.667387
657.20 8.250989
657.30 8.005075
657.40 7.973041
657.50 8.211791
657.60 8.735886
657.70 9.453387
657.80 10.19154
657.90 10.77407
658.00 11.08297
658.10 11.06103
658.20 10.74536
658.30 10.2221
658.40 9.581944
658.50 8.943523
658.60 8.404904
658.70 8.014117
658.80 7.790226
658.90 7.7038
659.00 7.685942
659.10 7.690091
659.20 7.687287
659.30 7.666411
659.40 7.664122
659.50 7.729112
659.60 7.864996
659.70 8.043575
659.80 8.27371
659.90 8.578317
660.00 8.954555
660.10 9.338948
660.20 9.607656
660.30 9.64953
660.40 9.451524
660.50 9.097341
660.60 8.690258
660.70 8.322885
660.80 8.030009
660.90 7.821439
661.00 7.695914
661.10 7.645407
661.20 7.640705
661.30 7.632292
661.40 7.585577
661.50 7.523917
661.60 7.535095
661.70 7.69396
661.80 7.991181
661.90 8.336628
662.00 8.629605
662.10 8.791287
662.20 8.769771
662.30 8.571431
662.40 8.290473
662.50 8.038268
662.60 7.889639
662.70 7.869986
662.80 7.969555
662.90 8.161418
663.00 8.393638
663.10 8.617149
663.20 8.808053
663.30 8.972775
663.40 9.127269
663.50 9.271521
663.60 9.435865
663.70 9.651382
663.80 9.889623
663.90 10.08124
664.00 10.16374
664.10 10.15605
664.20 10.11481
664.30 10.08064
664.40 10.08839
664.50 10.13292
664.60 10.15904
664.70 10.0965
664.80 9.92661
664.90 9.68266
665.00 9.389516
665.10 9.097936
665.20 8.896987
665.30 8.869389
665.40 9.065945
665.50 9.454976
665.60 9.939532
665.70 10.4115
665.80 10.79907
665.90 11.05218
666.00 11.14114
666.10 11.08643
666.20 10.93783
666.30 10.74122
666.40 10.53058
666.50 10.33011
666.60 10.1459
666.70 9.993952
666.80 9.927229
666.90 10.02378
667.00 10.35691
667.10 10.95583
667.20 11.70703
667.30 12.4129
667.40 12.93089
667.50 13.18246
667.60 13.14329
667.70 12.84894
667.80 12.37993
667.90 11.82813
668.00 11.30533
668.10 10.92374
668.20 10.72501
668.30 10.67673
668.40 10.72411
668.50 10.81606
668.60 10.92273
668.70 11.04878
668.80 11.19746
668.90 11.39086
669.00 11.67012
669.10 12.03224
669.20 12.44662
669.30 12.88452
669.40 13.28455
669.50 13.55441
669.60 13.6299
669.70 13.4951
669.80 13.15159
669.90 12.61087
670.00 11.93225
670.10 11.1896
670.20 10.47162
670.30 9.856567
670.40 9.35508
670.50 8.981611
670.60 8.762134
670.70 8.68196
670.80 8.726873
670.90 8.93131
671.00 9.298539
671.10 9.742936
671.20 10.15931
671.30 10.49334
671.40 10.72399
671.50 10.867
671.60 10.95257
671.70 11.00767
671.80 11.08383
671.90 11.20489
672.00 11.38674
672.10 11.66894
672.20 12.04703
672.30 12.42854
672.40 12.70649
672.50 12.85611
672.60 12.91114
672.70 12.87144
672.80 12.74094
672.90 12.56823
673.00 12.40325
673.10 12.25652
673.20 12.10408
673.30 11.94609
673.40 11.80428
673.50 11.68856
673.60 11.59076
673.70 11.4921
673.80 11.38533
673.90 11.30329
674.00 11.2925
674.10 11.36827
674.20 11.55066
674.30 11.86663
674.40 12.32958
674.50 12.96536
674.60 13.75244
674.70 14.5723
674.80 15.24293
674.90 15.58285
675.00 15.5112
675.10 15.07426
675.20 14.38465
675.30 13.53727
675.40 12.62246
675.50 11.78993
675.60 11.16839
675.70 10.81524
675.80 10.73196
675.90 10.81452
676.00 10.92784
676.10 11.02976
676.20 11.12187
676.30 11.1988
676.40 11.24582
676.50 11.22772
676.60 11.11501
676.70 10.91288
676.80 10.68687
676.90 10.53603
677.00 10.53305
677.10 10.69008
677.20 10.94659
677.30 11.2577
677.40 11.62589
677.50 12.06199
677.60 12.55458
677.70 13.04064
677.80 13.48273
677.90 13.90757
678.00 14.35433
678.10 14.8171
678.20 15.20417
678.30 15.39964
678.40 15.33889
678.50 15.02677
678.60 14.53111
678.70 13.93447
678.80 13.30579
678.90 12.68112
679.00 12.10926
679.10 11.67998
679.20 11.44545
679.30 11.43342
679.40 11.67017
679.50 12.10086
679.60 12.59728
679.70 13.02243
679.80 13.26447
679.90 13.27714
680.00 13.10024
680.10 12.81822
680.20 12.50621
680.30 12.21614
680.40 11.97121
680.50 11.77267
680.60 11.58521
680.70 11.33172
680.80 10.93937
680.90 10.44816
681.00 9.992428
681.10 9.690795
681.20 9.587264
681.30 9.656362
681.40 9.83183
681.50 10.06511
681.60 10.34198
681.70 10.61608
681.80 10.8271
681.90 10.92805
682.00 10.90995
682.10 10.77124
682.20 10.48786
682.30 10.04991
682.40 9.481719
682.50 8.811342
682.60 8.133606
682.70 7.620337
682.80 7.389109
682.90 7.43867
683.00 7.697989
683.10 8.100174
683.20 8.591386
683.30 9.114976
683.40 9.603441
683.50 10.02255
683.60 10.35796
683.70 10.57197
683.80 10.64465
683.90 10.66638
684.00 10.76677
684.10 10.97226
684.20 11.23082
684.30 11.47876
684.40 11.66045
684.50 11.73794
684.60 11.69343
684.70 11.53607
684.80 11.28453
684.90 10.95916
685.00 10.61924
685.10 10.35566
685.20 10.23378
685.30 10.25416
685.40 10.36959
685.50 10.55044
685.60 10.83022
685.70 11.23324
685.80 11.71764
685.90 12.19503
686.00 12.56698
686.10 12.77648
686.20 12.8243
686.30 12.72915
686.40 12.52626
686.50 12.32191
686.60 12.22345
686.70 12.24298
686.80 12.3016
686.90 12.30676
687.00 12.19043
687.10 11.9128
687.20 11.50413
687.30 11.07081
687.40 10.7155
687.50 10.46202
687.60 10.26883
687.70 10.08447
687.80 9.868142
687.90 9.549224
688.00 9.112434
688.10 8.647025
688.20 8.264727
688.30 8.024187
688.40 7.944261
688.50 8.019568
688.60 8.159929
688.70 8.19382
688.80 8.043898
688.90 7.812564
689.00 7.628289
689.10 7.572699
689.20 7.692408
689.30 8.001664
689.40 8.464219
689.50 8.96931
689.60 9.401572
689.70 9.689411
689.80 9.761573
689.90 9.620022
690.00 9.384561
690.10 9.214067
690.20 9.181057
690.30 9.236234
690.40 9.335662
690.50 9.462459
690.60 9.575189
690.70 9.627336
690.80 9.582533
690.90 9.426768
691.00 9.16992
691.10 8.834247
691.20 8.462405
691.30 8.088069
691.40 7.7447
691.50 7.465783
691.60 7.274848
691.70 7.230733
691.80 7.383034
691.90 7.73695
692.00 8.24693
692.10 8.811899
692.20 9.343379
692.30 9.812131
692.40 10.23363
692.50 10.60458
692.60 10.89577
692.70 11.07912
692.80 11.1237
692.90 11.04532
693.00 10.89657
693.10 10.7036
693.20 10.49293
693.30 10.27383
693.40 10.09794
693.50 10.0511
693.60 10.13993
693.70 10.32332
693.80 10.53914
693.90 10.75462
694.00 10.97794
694.10 11.22874
694.20 11.55838
694.30 12.04824
694.40 12.77683
694.50 13.72372
694.60 14.76617
694.70 15.79949
694.80 16.7148
694.90 17.3521
695.00 17.57099
695.10 17.30358
695.20 16.58259
695.30 15.53889
695.40 14.33724
695.50 13.14114
695.60 12.09056
695.70 11.26317
695.80 10.6245
695.90 10.10546
696.00 9.70506
696.10 9.419413
696.20 9.201135
696.30 9.05977
696.40 9.078234
696.50 9.36917
696.60 9.967329
696.70 10.76154
696.80 11.59472
696.90 12.31615
697.00 12.81207
697.10 13.01594
697.20 12.94838
697.30 12.69796
697.40 12.35287
697.50 12.01138
697.60 11.76408
697.70 11.6455
697.80 11.63354
697.90 11.63601
698.00 11.58335
698.10 11.49712
698.20 11.4267
698.30 11.41829
698.40 11.4821
698.50 11.60703
698.60 11.79814
698.70 12.07333
698.80 12.41699
698.90 12.77335
699.00 13.08943
699.10 13.34555
699.20 13.5487
699.30 13.6934
699.40 13.7243
699.50 13.59825
699.60 13.34903
699.70 13.03599
699.80 12.70606
699.90 12.40718
700.00 12.17828
700.10 12.02715
700.20 11.92517
700.30 11.84364
700.40 11.78458
700.50 11.7675
700.60 11.80698
700.70 11.88838
700.80 12.02297
700.90 12.24061
701.00 12.51009
701.10 12.80047
701.20 13.13046
701.30 13.52113
701.40 13.98165
701.50 14.51121
701.60 15.09618
701.70 15.70347
701.80 16.27123
701.90 16.70335
702.00 16.8858
702.10 16.78447
702.20 16.45127
702.30 15.95381
702.40 15.40274
702.50 14.92514
702.60 14.61315
702.70 14.52185
702.80 14.63474
702.90 14.90033
703.00 15.27136
703.10 15.66681
703.20 16.00232
703.30 16.24807
703.40 16.44132
703.50 16.64134
703.60 16.90335
703.70 17.26387
703.80 17.71088
703.90 18.21566
704.00 18.70161
704.10 19.03298
704.20 19.10372
704.30 18.88337
704.40 18.41828
704.50 17.82272
704.60 17.24073
704.70 16.83301
704.80 16.72228
704.90 16.89224
705.00 17.21107
705.10 17.54849
705.20 17.82587
705.30 17.96752
705.40 17.9208
705.50 17.69485
705.60 17.33055
705.70 16.86635
705.80 16.3524
705.90 15.86414
706.00 15.49788
706.10 15.30634
706.20 15.27628
706.30 15.41582
706.40 15.73199
706.50 16.18507
706.60 16.70458
706.70 17.21123
706.80 17.65117
706.90 18.007
707.00 18.29228
707.10 18.53902
707.20 18.77706
707.30 19.03996
707.40 19.33631
707.50 19.61142
707.60 19.79109
707.70 19.83153
707.80 19.73496
707.90 19.52795
708.00 19.23118
708.10 18.87516
708.20 18.51164
708.30 18.19743
708.40 17.97133
708.50 17.83197
708.60 17.78377
708.70 17.83513
708.80 17.92613
708.90 17.99031
709.00 18.02965
709.10 18.07063
709.20 18.10872
709.30 18.09017
709.40 18.00293
709.50 17.90463
709.60 17.83169
709.70 17.7853
709.80 17.72664
709.90 17.65902
710.00 17.61234
710.10 17.57197
710.20 17.56516
710.30 17.6266
710.40 17.71858
710.50 17.78382
710.60 17.80045
710.70 17.79675
710.80 17.7878
710.90 17.75315
711.00 17.70083
711.10 17.64624
711.20 17.6468
711.30 17.75961
711.40 17.9636
711.50 18.19721
711.60 18.38236
711.70 18.48058
711.80 18.51736
711.90 18.53395
712.00 18.55909
712.10 18.61662
712.20 18.71433
712.30 18.82241
712.40 18.88143
712.50 18.88359
712.60 18.8839
712.70 18.93115
712.80 19.05757
712.90 19.28473
713.00 19.60264
713.10 19.94654
713.20 20.18201
713.30 20.1869
713.40 19.9324
713.50 19.4591
713.60 18.86118
713.70 18.26696
713.80 17.8213
713.90 17.61619
714.00 17.62218
714.10 17.73191
714.20 17.89219
714.30 18.13862
714.40 18.51009
714.50 19.01652
714.60 19.67388
714.70 20.44197
714.80 21.1973
714.90 21.8102
715.00 22.14567
715.10 22.09172
715.20 21.59687
715.30 20.71839
715.40 19.64877
715.50 18.63954
715.60 17.87166
715.70 17.42669
715.80 17.31333
715.90 17.4754
716.00 17.81531
716.10 18.22421
716.20 18.60836
716.30 18.88902
716.40 19.04415
716.50 19.13013
716.60 19.23699
716.70 19.41481
716.80 19.64737
716.90 19.90456
717.00 20.14805
717.10 20.29961
717.20 20.27894
717.30 20.08062
717.40 19.77121
717.50 19.42983
717.60 19.15323
717.70 19.0235
717.80 19.07557
717.90 19.3032
718.00 19.66983
718.10 20.13277
718.20 20.61612
718.30 21.0184
718.40 21.27657
718.50 21.39011
718.60 21.42181
718.70 21.44274
718.80 21.50589
718.90 21.67274
719.00 21.93959
719.10 22.25918
719.20 22.59755
719.30 22.89289
719.40 23.06234
719.50 23.02215
719.60 22.73836
719.70 22.25685
719.80 21.65541
719.90 20.99983
720.00 20.37337
720.10 19.87788
720.20 19.55628
720.30 19.39385
720.40 19.3798
720.50 19.51286
720.60 19.76605
720.70 20.10809
720.80 20.50598
720.90 20.91319
721.00 21.29449
721.10 21.61135
721.20 21.82414
721.30 21.94024
721.40 21.94557
721.50 21.7849
721.60 21.45813
721.70 21.04852
721.80 20.6802
721.90 20.46912
722.00 20.49062
722.10 20.75838
722.20 21.24424
722.30 21.92473
722.40 22.74473
722.50 23.57745
722.60 24.27036
722.70 24.68108
722.80 24.76582
722.90 24.59075
723.00 24.27126
723.10 23.90867
723.20 23.56727
723.30 23.3092
723.40 23.21063
723.50 23.35609
723.60 23.77184
723.70 24.337
723.80 24.87033
723.90 25.25058
724.00 25.40845
724.10 25.33921
724.20 25.08585
724.30 24.75658
724.40 24.49009
724.50 24.4137
724.60 24.6234
724.70 25.08906
724.80 25.69727
724.90 26.30508
725.00 26.79911
725.10 27.16967
725.20 27.4472
725.30 27.65241
725.40 27.80614
725.50 27.90103
725.60 27.88406
725.70 27.65136
725.80 27.14575
725.90 26.41807
726.00 25.58823
726.10 24.838
726.20 24.32362
726.30 24.13104
726.40 24.25741
726.50 24.612
726.60 25.07255
726.70 25.50236
726.80 25.79642
726.90 25.95094
727.00 26.12208
727.10 26.58604
727.20 27.49057
727.30 28.66597
727.40 29.74873
727.50 30.46009
727.60 30.66473
727.70 30.30161
727.80 29.44394
727.90 28.29062
728.00 27.0856
728.10 26.08984
728.20 25.52159
728.30 25.48253
728.40 25.90074
728.50 26.51297
728.60 27.03748
728.70 27.38743
728.80 27.62076
728.90 27.7369
729.00 27.69166
729.10 27.49673
729.20 27.18306
729.30 26.78429
729.40 26.35833
729.50 25.96227
729.60 25.6313
729.70 25.39142
729.80 25.22898
729.90 25.12289
730.00 25.1211
730.10 25.28818
730.20 25.61323
730.30 26.03971
730.40 26.47224
730.50 26.82337
730.60 27.05792
730.70 27.1353
730.80 27.03469
730.90 26.79694
731.00 26.56834
731.10 26.53454
731.20 26.80307
731.30 27.3779
731.40 28.13256
731.50 28.84517
731.60 29.33196
731.70 29.50404
731.80 29.39275
731.90 29.11008
732.00 28.77626
732.10 28.54514
732.20 28.53223
732.30 28.77275
732.40 29.21056
732.50 29.68783
732.60 30.04552
732.70 30.24049
732.80 30.30782
732.90 30.24899
733.00 30.04888
733.10 29.70156
733.20 29.23383
733.30 28.71395
733.40 28.20614
733.50 27.75288
733.60 27.35973
733.70 27.00711
733.80 26.66429
733.90 26.35437
734.00 26.17267
734.10 26.1374
734.20 26.19931
734.30 26.37456
734.40 26.70239
734.50 27.19959
734.60 27.81827
734.70 28.42179
734.80 28.87808
734.90 29.11315
735.00 29.14543
735.10 29.06374
735.20 28.93783
735.30 28.75886
735.40 28.50376
735.50 28.20663
735.60 27.91748
735.70 27.67486
735.80 27.53661
735.90 27.56679
736.00 27.81987
736.10 28.32948
736.20 29.06131
736.30 29.90108
736.40 30.6926
736.50 31.25524
736.60 31.42424
736.70 31.10797
736.80 30.32278
736.90 29.20907
737.00 27.99665
737.10 26.94489
737.20 26.26027
737.30 26.01286
737.40 26.1397
737.50 26.51391
737.60 27.03438
737.70 27.64263
737.80 28.2772
737.90 28.85921
738.00 29.30522
738.10 29.58883
738.20 29.71033
738.30 29.68173
738.40 29.54351
738.50 29.32507
738.60 29.05236
738.70 28.79297
738.80 28.62446
738.90 28.56341
739.00 28.52615
739.10 28.4203
739.20 28.23301
739.30 28.001
739.40 27.79566
739.50 27.70096
739.60 27.76273
739.70 27.91935
739.80 27.98039
739.90 27.77963
740.00 27.32561
740.10 26.71981
740.20 26.03774
740.30 25.37622
740.40 24.8866
740.50 24.6718
740.60 24.71949
740.70 24.96982
740.80 25.36831
740.90 25.82595
741.00 26.24153
741.10 26.57382
741.20 26.89005
741.30 27.28831
741.40 27.77775
741.50 28.264
741.60 28.61469
741.70 28.71695
741.80 28.48734
741.90 27.88396
742.00 26.96125
742.10 25.86508
742.20 24.77301
742.30 23.87023
742.40 23.3116
742.50 23.17515
742.60 23.44747
742.70 24.02812
742.80 24.73221
742.90 25.3715
743.00 25.84848
743.10 26.13098
743.20 26.22529
743.30 26.19762
743.40 26.11961
743.50 26.04256
743.60 26.0297
743.70 26.1218
743.80 26.29905
743.90 26.50961
744.00 26.71236
744.10 26.88665
744.20 27.00462
744.30 27.03322
744.40 26.98539
744.50 26.90399
744.60 26.84899
744.70 26.86887
744.80 26.95043
744.90 27.04231
745.00 27.07302
745.10 27.02516
745.20 26.95654
745.30 26.91618
745.40 26.92034
745.50 26.96931
745.60 27.06474
745.70 27.21791
745.80 27.42697
745.90 27.66016
746.00 27.82017
746.10 27.82528
746.20 27.75209
746.30 27.74618
746.40 27.8935
746.50 28.15793
746.60 28.41058
746.70 28.54854
746.80 28.52271
746.90 28.31406
747.00 27.91068
747.10 27.34237
747.20 26.68452
747.30 26.03796
747.40 25.56269
747.50 25.38173
747.60 25.47214
747.70 25.71604
747.80 25.99426
747.90 26.2627
748.00 26.53044
748.10 26.7718
748.20 26.94473
748.30 27.04872
748.40 27.12356
748.50 27.21153
748.60 27.33266
748.70 27.47684
748.80 27.58465
748.90 27.59499
749.00 27.50458
749.10 27.34863
749.20 27.16122
749.30 26.93884
749.40 26.66216
749.50 26.34426
749.60 26.02404
749.70 25.72692
749.80 25.46048
749.90 25.24127
750.00 25.10642
750.10 25.08625
750.20 25.1925
750.30 25.42036
750.40 25.72274
750.50 26.04827
750.60 26.37806
750.70 26.70873
750.80 27.05729
750.90 27.43483
751.00 27.80254
751.10 28.10424
751.20 28.33813
751.30 28.54369
751.40 28.71522
751.50 28.81822
751.60 28.82781
751.70 28.69229
751.80 28.38891
751.90 27.9773
752.00 27.56869
752.10 27.27825
752.20 27.2615
752.30 27.59599
752.40 28.19699
752.50 28.92578
752.60 29.61259
752.70 30.07233
752.80 30.18227
752.90 29.91547
753.00 29.31534
753.10 28.51779
753.20 27.67897
753.30 26.89248
753.40 26.19845
753.50 25.62149
753.60 25.09198
753.70 24.57837
753.80 24.19301
753.90 24.03414
754.00 24.12886
754.10 24.43787
754.20 24.87252
754.30 25.33142
754.40 25.75012
754.50 26.09367
754.60 26.33872
754.70 26.48071
754.80 26.53324
754.90 26.51435
755.00 26.44853
755.10 26.35096
755.20 26.17082
755.30 25.86064
755.40 25.45929
755.50 25.0432
755.60 24.69853
755.70 24.49178
755.80 24.44453
755.90 24.54763
756.00 24.75418
756.10 24.9718
756.20 25.10861
756.30 25.10649
756.40 24.9365
756.50 24.6138
756.60 24.25674
756.70 24.01639
756.80 23.97868
756.90 24.18777
757.00 24.63067
757.10 25.2411
757.20 25.92965
757.30 26.58681
757.40 27.12616
757.50 27.50487
757.60 27.70202
757.70 27.71823
757.80 27.57449
757.90 27.29734
758.00 26.90782
758.10 26.43137
758.20 25.90398
758.30 25.36707
758.40 24.86031
758.50 24.39944
758.60 23.98238
758.70 23.60934
758.80 23.2767
758.90 22.98389
759.00 22.6982
759.10 22.38965
759.20 22.08753
759.30 21.82779
759.40 21.70543
759.50 21.87362
759.60 22.44879
759.70 23.4275
759.80 24.6384
759.90 25.82292
760.00 26.79773
760.10 27.37395
760.20 27.3211
760.30 26.56347
760.40 25.15671
760.50 23.2483
760.60 21.15167
760.70 19.27865
760.80 17.93299
760.90 17.24823
761.00 17.21745
761.10 17.72796
761.20 18.60107
761.30 19.60126
761.40 20.39117
761.50 20.72141
761.60 20.55751
761.70 19.92313
761.80 18.96584
761.90 17.93068
762.00 16.96966
762.10 16.1663
762.20 15.57339
762.30 15.19027
762.40 14.98969
762.50 14.97517
762.60 15.23084
762.70 15.82839
762.80 16.68255
762.90 17.53834
763.00 18.07942
763.10 18.05788
763.20 17.37907
763.30 16.11022
763.40 14.46674
763.50 12.74631
763.60 11.24732
763.70 10.24876
763.80 9.955142
763.90 10.32561
764.00 11.06386
764.10 11.79988
764.20 12.24015
764.30 12.29179
764.40 11.99346
764.50 11.40891
764.60 10.66877
764.70 9.953255
764.80 9.426613
764.90 9.208678
765.00 9.358564
765.10 9.794243
765.20 10.26685
765.30 10.53417
765.40 10.44298
765.50 9.955366
765.60 9.186195
765.70 8.2685
765.80 7.339491
765.90 6.579784
766.00 6.113364
766.10 5.972383
766.20 6.064803
766.30 6.238503
766.40 6.350298
766.50 6.277149
766.60 5.9871
766.70 5.553059
766.80 5.107583
766.90 4.760378
767.00 4.531325
767.10 4.379062
767.20 4.276089
767.30 4.230521
767.40 4.236112
767.50 4.253814
767.60 4.295364
767.70 4.40112
767.80 4.591104
767.90 4.884097
768.00 5.267344
768.10 5.694392
768.20 6.09843
768.30 6.408541
768.40 6.594939
768.50 6.684791
768.60 6.705878
768.70 6.647936
768.80 6.497875
768.90 6.257806
769.00 5.924398
769.10 5.493821
769.20 4.967314
769.30 4.345536
769.40 3.6545
769.50 2.93835
769.60 2.258163
769.70 1.677785
769.80 1.234906
769.90 0.9610811
770.00 0.8909723
770.10 1.038758
770.20 1.383788
770.30 1.892184
770.40 2.516725
770.50 3.181274
770.60 3.835375
770.70 4.483807
770.80 5.131067
770.90 5.74602
771.00 6.340775
771.10 7.026135
771.20 7.920392
771.30 8.954672
771.40 9.94798
771.50 10.80167
771.60 11.50204
771.70 12.11659
771.80 12.72298
771.90 13.33968
772.00 13.91682
772.10 14.39098
772.20 14.77812
772.30 15.16753
772.40 15.56703
772.50 15.84738
772.60 15.87554
772.70 15.68344
772.80 15.38711
772.90 15.0931
773.00 14.89004
773.10 14.75489
773.20 14.62611
773.30 14.52385
773.40 14.53904
773.50 14.77361
773.60 15.23347
773.70 15.80453
773.80 16.38685
773.90 16.92566
774.00 17.40462
774.10 17.84931
774.20 18.2654
774.30 18.61143
774.40 18.87337
774.50 19.07221
774.60 19.21432
774.70 19.29486
774.80 19.30624
774.90 19.20948
775.00 18.97852
775.10 18.68568
775.20 18.40984
775.30 18.12676
775.40 17.80808
775.50 17.51
775.60 17.35332
775.70 17.46002
775.80 17.83226
775.90 18.40188
776.00 19.09967
776.10 19.82978
776.20 20.46088
776.30 20.89843
776.40 21.10879
776.50 21.05738
776.60 20.76428
776.70 20.43911
776.80 20.29989
776.90 20.41156
777.00 20.76122
777.10 21.22825
777.20 21.66798
777.30 22.01169
777.40 22.20928
777.50 22.22673
777.60 22.12655
777.70 22.01896
777.80 21.99008
777.90 22.08618
778.00 22.28189
778.10 22.48481
778.20 22.61334
778.30 22.62726
778.40 22.50365
778.50 22.2619
778.60 21.95297
778.70 21.67227
778.80 21.61408
778.90 21.94092
779.00 22.64264
779.10 23.57522
779.20 24.57373
779.30 25.44525
779.40 25.95577
779.50 25.89462
779.60 25.12397
779.70 23.63205
779.80 21.57406
779.90 19.33737
780.00 17.44158
780.10 16.26461
780.20 15.92647
780.30 16.41964
780.40 17.60624
780.50 19.2147
780.60 20.94192
780.70 22.55167
780.80 23.96726
780.90 25.20212
781.00 26.27842
781.10 27.22474
781.20 28.04989
781.30 28.69979
781.40 29.11125
781.50 29.28746
781.60 29.30297
781.70 29.15639
781.80 28.85149
781.90 28.54305
782.00 28.37628
782.10 28.38501
782.20 28.53399
782.30 28.80871
782.40 29.19757
782.50 29.65774
782.60 30.14089
782.70 30.55662
782.80 30.77374
782.90 30.69912
783.00 30.33342
783.10 29.80717
783.20 29.27076
783.30 28.71586
783.40 28.09459
783.50 27.50325
783.60 27.06677
783.70 26.79103
783.80 26.64026
783.90 26.66248
784.00 26.91614
784.10 27.37139
784.20 27.96684
784.30 28.64349
784.40 29.29961
784.50 29.84166
784.60 30.29164
784.70 30.73981
784.80 31.21343
784.90 31.63652
785.00 31.95454
785.10 32.15068
785.20 32.1769
785.30 31.99812
785.40 31.65274
785.50 31.18245
785.60 30.55228
785.70 29.81468
785.80 29.14251
785.90 28.67582
786.00 28.48183
786.10 28.60712
786.20 29.06553
786.30 29.80072
786.40 30.70286
786.50 31.65905
786.60 32.53771
786.70 33.12745
786.80 33.24823
786.90 32.93142
787.00 32.38944
787.10 31.7911
787.20 31.16778
787.30 30.53296
787.40 29.92568
787.50 29.40219
787.60 29.08057
787.70 29.11985
787.80 29.60674
787.90 30.51005
788.00 31.72788
788.10 33.04974
788.20 34.2068
788.30 35.02228
788.40 35.45107
788.50 35.48856
788.60 35.17322
788.70 34.62311
788.80 34.04601
788.90 33.65021
789.00 33.50199
789.10 33.55525
789.20 33.69641
789.30 33.77866
789.40 33.72196
789.50 33.5829
789.60 33.46188
789.70 33.4108
789.80 33.41379
789.90 33.42078
790.00 33.47796
790.10 33.71937
790.20 34.16866
790.30 34.74308
790.40 35.33418
790.50 35.78671
790.60 35.96292
790.70 35.87283
790.80 35.74065
790.90 35.81626
791.00 36.19734
791.10 36.77913
791.20 37.28599
791.30 37.53218
791.40 37.45319
791.50 37.03973
791.60 36.3809
791.70 35.58846
791.80 34.82882
791.90 34.36464
792.00 34.40715
792.10 34.984
792.20 35.84958
792.30 36.64951
792.40 37.15577
792.50 37.31864
792.60 37.28443
792.70 37.23466
792.80 37.30825
792.90 37.56575
793.00 37.97758
793.10 38.51706
793.20 39.12178
793.30 39.63696
793.40 39.92375
793.50 39.90478
793.60 39.57345
793.70 39.02764
793.80 38.41941
793.90 37.89473
794.00 37.4944
794.10 37.14036
794.20 36.66938
794.30 35.87975
794.40 34.60803
794.50 32.80677
794.60 30.59201
794.70 28.21221
794.80 26.00878
794.90 24.35585
795.00 23.60087
795.10 23.9116
795.20 25.13426
795.30 26.96061
795.40 29.14559
795.50 31.43289
795.60 33.54951
795.70 35.3621
795.80 36.87259
795.90 38.12453
796.00 39.19171
796.10 40.21313
796.20 41.24498
796.30 42.17069
796.40 42.79767
796.50 43.00665
796.60 42.84357
796.70 42.40114
796.80 41.74225
796.90 40.98638
797.00 40.30535
797.10 39.8085
797.20 39.53958
797.30 39.52088
797.40 39.72809
797.50 40.03352
797.60 40.30025
797.70 40.5333
797.80 40.78941
797.90 41.03937
798.00 41.20854
798.10 41.26341
798.20 41.18564
798.30 40.93207
798.40 40.50911
798.50 40.00966
798.60 39.56266
798.70 39.29137
798.80 39.29544
798.90 39.67819
799.00 40.54401
799.10 41.90797
799.20 43.62115
799.30 45.45045
799.40 47.1884
799.50 48.62564
799.60 49.51493
799.70 49.73709
799.80 49.38131
799.90 48.62369
800.00 47.65036
800.10 46.68999
800.20 45.9855
800.30 45.64424
800.40 45.61103
800.50 45.7492
800.60 45.93387
800.70 46.07442
800.80 46.0948
800.90 45.9654
801.00 45.76281
801.10 45.57428
801.20 45.38787
801.30 45.15731
801.40 44.88568
801.50 44.59245
801.60 44.27584
801.70 43.94746
801.80 43.68509
801.90 43.57892
802.00 43.65416
802.10 43.92399
802.20 44.36948
802.30 44.95444
802.40 45.67522
802.50 46.52437
802.60 47.45576
802.70 48.40275
802.80 49.2989
802.90 50.06962
803.00 50.64587
803.10 50.96099
803.20 50.93245
803.30 50.53371
803.40 49.82242
803.50 48.88006
803.60 47.86711
803.70 46.97451
803.80 46.34047
803.90 46.06688
804.00 46.20117
804.10 46.72454
804.20 47.54033
804.30 48.49096
804.40 49.39193
804.50 50.15092
804.60 50.79105
804.70 51.28878
804.80 51.63855
804.90 51.86692
805.00 51.9364
805.10 51.84574
805.20 51.67513
805.30 51.53209
805.40 51.48607
805.50 51.56958
805.60 51.81819
805.70 52.37834
805.80 53.36456
805.90 54.59114
806.00 55.76369
806.10 56.69991
806.20 57.26329
806.30 57.42815
806.40 57.26582
806.50 56.8108
806.60 56.10616
806.70 55.26116
806.80 54.45
806.90 53.86944
807.00 53.67678
807.10 53.83533
807.20 54.23735
807.30 54.94463
807.40 55.99006
807.50 57.2862
807.60 58.70764
807.70 60.0412
807.80 61.06888
807.90 61.71331
808.00 62.02151
808.10 62.09847
808.20 62.0734
808.30 62.01218
808.40 61.91539
808.50 61.7938
808.60 61.65983
808.70 61.49136
808.80 61.25846
808.90 60.96566
809.00 60.65503
809.10 60.40992
809.20 60.29897
809.30 60.30783
809.40 60.34995
809.50 60.27036
809.60 59.94634
809.70 59.40316
809.80 58.78579
809.90 58.24142
810.00 57.8764
810.10 57.75889
810.20 57.88688
810.30 58.19817
810.40 58.61417
810.50 59.09691
810.60 59.63356
810.70 60.20761
810.80 60.77591
810.90 61.2986
811.00 61.75426
811.10 62.12233
811.20 62.3355
811.30 62.32236
811.40 62.05128
811.50 61.54411
811.60 60.92906
811.70 60.37779
811.80 60.04585
811.90 60.01461
812.00 60.32102
812.10 60.93715
812.20 61.79177
812.30 62.8369
812.40 64.00087
812.50 65.16471
812.60 66.18757
812.70 66.9198
812.80 67.24384
812.90 67.16383
813.00 66.80168
813.10 66.33036
813.20 65.92115
813.30 65.71726
813.40 65.79407
813.50 66.17623
813.60 66.80554
813.70 67.51173
813.80 68.07955
813.90 68.35732
814.00 68.32088
814.10 68.04066
814.20 67.67919
814.30 67.39447
814.40 67.23222
814.50 67.17597
814.60 67.17556
814.70 67.12609
814.80 66.93935
814.90 66.60597
815.00 66.20003
815.10 65.83928
815.20 65.59816
815.30 65.53924
815.40 65.77106
815.50 66.39006
815.60 67.36752
815.70 68.54593
815.80 69.72634
815.90 70.73957
816.00 71.51477
816.10 72.04445
816.20 72.30701
816.30 72.3411
816.40 72.2761
816.50 72.27349
816.60 72.51775
816.70 73.07487
816.80 73.81092
816.90 74.48364
817.00 74.90315
817.10 75.04285
817.20 74.96705
817.30 74.69443
817.40 74.16276
817.50 73.37358
817.60 72.43503
817.70 71.37686
817.80 70.08218
817.90 68.37294
818.00 66.14377
818.10 63.47952
818.20 60.68876
818.30 58.26537
818.40 56.71512
818.50 56.34221
818.60 57.18635
818.70 59.06114
818.80 61.56129
818.90 64.10462
819.00 66.04096
819.10 66.78749
819.20 66.00474
819.30 63.79689
819.40 60.72104
819.50 57.53938
819.60 54.95294
819.70 53.44184
819.80 53.21038
819.90 54.16879
820.00 56.01995
820.10 58.42064
820.20 61.02796
820.30 63.51206
820.40 65.65894
820.50 67.47464
820.60 69.08529
820.70 70.49896
820.80 71.58932
820.90 72.27185
821.00 72.54023
821.10 72.45498
821.20 72.12423
821.30 71.71931
821.40 71.44185
821.50 71.39168
821.60 71.59273
821.70 72.0455
821.80 72.68418
821.90 73.34223
822.00 73.84106
822.10 74.15399
822.20 74.37759
822.30 74.60751
822.40 74.94479
822.50 75.4957
822.60 76.3444
822.70 77.478
822.80 78.73121
822.90 79.88135
823.00 80.76411
823.10 81.27945
823.20 81.3953
823.30 81.18804
823.40 80.84417
823.50 80.56334
823.60 80.46354
823.70 80.59376
823.80 80.9321
823.90 81.37085
824.00 81.75043
824.10 81.95493
824.20 81.99659
824.30 81.96648
824.40 81.92475
824.50 81.98016
824.60 82.23455
824.70 82.67915
824.80 83.24629
824.90 83.82109
825.00 84.23431
825.10 84.23674
825.20 83.6798
825.30 82.63192
825.40 81.26775
825.50 79.8241
825.60 78.53528
825.70 77.60296
825.80 77.23557
825.90 77.50005
826.00 78.3121
826.10 79.50339
826.20 80.80067
826.30 81.89111
826.40 82.51979
826.50 82.59735
826.60 82.1314
826.70 81.21271
826.80 80.0895
826.90 79.07192
827.00 78.43812
827.10 78.27019
827.20 78.40963
827.30 78.74925
827.40 79.31637
827.50 80.08492
827.60 80.98635
827.70 82.07509
827.80 83.45936
827.90 85.07852
828.00 86.72766
828.10 88.15987
828.20 89.16244
828.30 89.59947
828.40 89.42608
828.50 88.7669
828.60 87.78808
828.70 86.49063
828.80 84.90169
828.90 83.25668
829.00 81.78297
829.10 80.48561
829.20 79.20162
829.30 77.89464
829.40 76.74487
829.50 75.93691
829.60 75.36638
829.70 74.74648
829.80 73.9663
829.90 73.12285
830.00 72.45559
830.10 72.20383
830.20 72.39622
830.30 72.88851
830.40 73.52353
830.50 74.24353
830.60 75.16695
830.70 76.41078
830.80 77.88497
830.90 79.3456
831.00 80.72903
831.10 82.15945
831.20 83.62935
831.30 84.96235
831.40 85.92495
831.50 86.39985
831.60 86.40974
831.70 86.03972
831.80 85.41521
831.90 84.60059
832.00 83.56888
832.10 82.36169
832.20 81.09834
832.30 79.91274
832.40 78.9107
832.50 78.14578
832.60 77.58939
832.70 77.19367
832.80 76.96546
832.90 76.89584
833.00 76.94621
833.10 77.06793
833.20 77.22969
833.30 77.44003
833.40 77.76308
833.50 78.22647
833.60 78.72976
833.70 79.16103
833.80 79.61542
833.90 80.3179
834.00 81.45857
834.10 83.1172
834.20 85.22485
834.30 87.54512
834.40 89.70325
834.50 91.36138
834.60 92.34964
834.70 92.58005
834.80 91.83503
834.90 89.98342
835.00 87.388
835.10 84.77146
835.20 82.7184
835.30 81.50513
835.40 81.15999
835.50 81.54016
835.60 82.43399
835.70 83.59339
835.80 84.79334
835.90 85.8184
836.00 86.47871
836.10 86.75164
836.20 86.91889
836.30 87.34803
836.40 88.1294
836.50 89.10404
836.60 90.01824
836.70 90.64357
836.80 90.85858
836.90 90.65123
837.00 90.07078
837.10 89.25032
837.20 88.34545
837.30 87.50603
837.40 86.86352
837.50 86.45546
837.60 86.24495
837.70 86.14165
837.80 86.0588
837.90 85.93724
838.00 85.7552
838.10 85.50835
838.20 85.2006
838.30 84.79932
838.40 84.32931
838.50 83.95561
838.60 83.84397
838.70 84.00369
838.80 84.33589
838.90 84.7514
839.00 85.1552
839.10 85.45025
839.20 85.59529
839.30 85.5999
839.40 85.48545
839.50 85.33358
839.60 85.40704
839.70 86.05968
839.80 87.35503
839.90 89.00994
840.00 90.72728
840.10 92.32079
840.20 93.6603
840.30 94.63612
840.40 95.14718
840.50 95.12624
840.60 94.53991
840.70 93.45165
840.80 92.12481
840.90 90.86454
841.00 89.80941
841.10 89.00248
841.20 88.55019
841.30 88.50711
841.40 88.71919
841.50 89.04265
841.60 89.41883
841.70 89.73793
841.80 89.8465
841.90 89.68325
842.00 89.39567
842.10 89.26912
842.20 89.54742
842.30 90.47628
842.40 92.22049
842.50 94.66814
842.60 97.52751
842.70 100.3867
842.80 102.8343
842.90 104.4766
843.00 104.8986
843.10 103.9156
843.20 101.7135
843.30 98.75277
843.40 95.568
843.50 92.57742
843.60 90.00409
843.70 87.85675
843.80 86.05071
843.90 84.56029
844.00 83.35457
844.10 82.45067
844.20 81.91624
844.30 81.7609
844.40 81.93528
844.50 82.30486
844.60 82.78178
844.70 83.34427
844.80 83.90664
844.90 84.33509
845.00 84.48605
845.10 84.25722
845.20 83.64294
845.30 82.68926
845.40 81.44298
845.50 79.93655
845.60 78.24812
845.70 76.5929
845.80 75.29738
845.90 74.64
846.00 74.73163
846.10 75.50466
846.20 76.81307
846.30 78.47478
846.40 80.24114
846.50 81.81782
846.60 82.88626
846.70 83.17934
846.80 82.64002
846.90 81.44151
847.00 79.79867
847.10 77.84131
847.20 75.71276
847.30 73.68793
847.40 72.0493
847.50 70.94022
847.60 70.30558
847.70 69.93713
847.80 69.62674
847.90 69.2603
848.00 68.84568
848.10 68.46286
848.20 68.20429
848.30 68.14826
848.40 68.348
848.50 68.80468
848.60 69.3967
848.70 69.9545
848.80 70.37024
848.90 70.56721
849.00 70.51759
849.10 70.38753
849.20 70.48037
849.30 70.89117
849.40 71.46231
849.50 72.05996
849.60 72.60651
849.70 73.05962
849.80 73.44749
849.90 73.95747
850.00 74.92146
850.10 76.49689
850.20 78.48912
850.30 80.53603
850.40 82.302
850.50 83.44708
850.60 83.68975
850.70 83.0166
850.80 81.64733
850.90 79.9167
851.00 78.21948
851.10 76.85617
851.20 76.00418
851.30 75.6737
851.40 75.62949
851.50 75.51812
851.60 74.98974
851.70 73.75836
851.80 71.66465
851.90 68.75633
852.00 65.30618
852.10 61.75093
852.20 58.69743
852.30 56.81432
852.40 56.5523
852.50 57.95506
852.60 60.70177
852.70 64.21116
852.80 67.81554
852.90 71.01893
853.00 73.54162
853.10 75.24392
853.20 76.20505
853.30 76.71481
853.40 77.079
853.50 77.52832
853.60 78.12519
853.70 78.68562
853.80 78.96717
853.90 78.92125
854.00 78.62488
854.10 78.17508
854.20 77.7564
854.30 77.60036
854.40 77.88508
854.50 78.7736
854.60 80.38143
854.70 82.63123
854.80 85.26596
854.90 87.91644
855.00 90.12677
855.10 91.44639
855.20 91.58244
855.30 90.51042
855.40 88.50452
855.50 86.00843
855.60 83.40316
855.70 80.91158
855.80 78.77286
855.90 77.24586
856.00 76.38484
856.10 76.07483
856.20 76.21328
856.30 76.73432
856.40 77.52495
856.50 78.4008
856.60 79.13905
856.70 79.5308
856.80 79.50469
856.90 79.16927
857.00 78.75293
857.10 78.53375
857.20 78.64938
857.30 79.0635
857.40 79.72384
857.50 80.5231
857.60 81.24588
857.70 81.71252
857.80 81.94711
857.90 82.11131
858.00 82.35131
858.10 82.80699
858.20 83.5515
858.30 84.5295
858.40 85.5894
858.50 86.4992
858.60 87.0074
858.70 86.94929
858.80 86.30175
858.90 85.19253
859.00 83.84224
859.10 82.55977
859.20 81.72047
859.30 81.68032
859.40 82.69543
859.50 84.79469
859.60 87.53466
859.70 90.20011
859.80 92.27686
859.90 93.45415
860.00 93.60874
860.10 92.84745
860.20 91.47228
860.30 89.89516
860.40 88.50028
860.50 87.482
860.60 86.76655
860.70 86.10093
860.80 85.18716
860.90 83.77112
861.00 81.83643
861.10 79.50227
861.20 76.71079
861.30 73.45379
861.40 70.00377
861.50 66.77198
861.60 64.10739
861.70 62.14791
861.80 60.8199
861.90 59.98727
862.00 59.50943
862.10 59.23391
862.20 59.02633
862.30 58.79571
862.40 58.5441
862.50 58.34419
862.60 58.29912
862.70 58.47782
862.80 58.77834
862.90 59.05148
863.00 59.22224
863.10 59.32366
863.20 59.51946
863.30 59.88548
863.40 60.34468
863.50 60.80029
863.60 61.18033
863.70 61.37527
863.80 61.2541
863.90 60.86564
864.00 60.49504
864.10 60.36666
864.20 60.52044
864.30 60.8652
864.40 61.22994
864.50 61.47743
864.60 61.54637
864.70 61.54925
864.80 61.75042
864.90 62.40766
865.00 63.67155
865.10 65.53641
865.20 67.81271
865.30 69.93089
865.40 71.1663
865.50 71.18831
865.60 70.27981
865.70 69.0426
865.80 68.01823
865.90 67.58807
866.00 67.97634
866.10 69.23372
866.20 71.14343
866.30 73.28191
866.40 75.13907
866.50 76.32028
866.60 76.70658
866.70 76.56574
866.80 76.25326
866.90 75.85683
867.00 75.17152
867.10 74.03873
867.20 72.67489
867.30 71.42438
867.40 70.52624
867.50 70.15258
867.60 70.43883
867.70 71.31954
867.80 72.54012
867.90 73.74217
868.00 74.55019
868.10 74.71312
868.20 74.2189
868.30 73.31957
868.40 72.41848
868.50 71.78029
868.60 71.3288
868.70 70.84507
868.80 70.09053
868.90 68.77519
869.00 66.67543
869.10 63.82009
869.20 60.48115
869.30 57.14834
869.40 54.37802
869.50 52.54038
869.60 51.77398
869.70 52.03809
869.80 53.15068
869.90 54.79066
870.00 56.54047
870.10 58.0178
870.20 58.99514
870.30 59.35584
870.40 59.07506
870.50 58.25598
870.60 57.0856
870.70 55.67253
870.80 54.01159
870.90 52.16319
871.00 50.31404
871.10 48.75698
871.20 47.79778
871.30 47.57724
871.40 48.0286
871.50 48.99756
871.60 50.31025
871.70 51.69408
871.80 52.80363
871.90 53.40399
872.00 53.4731
872.10 53.12474
872.20 52.5969
872.30 52.26048
872.40 52.48589
872.50 53.38348
872.60 54.74542
872.70 56.28584
872.80 57.78001
872.90 59.00834
873.00 59.78926
873.10 60.11928
873.20 60.09243
873.30 59.80263
873.40 59.35828
873.50 58.94879
873.60 58.78749
873.70 58.95949
873.80 59.43268
873.90 60.24833
874.00 61.49574
874.10 63.06596
874.20 64.6005
874.30 65.72986
874.40 66.24305
874.50 66.00942
874.60 65.09521
874.70 63.77242
874.80 62.34187
874.90 61.10481
875.00 60.33071
875.10 60.13881
875.20 60.40513
875.30 60.91284
875.40 61.5427
875.50 62.33219
875.60 63.47015
875.70 64.98713
875.80 66.61307
875.90 68.09668
876.00 69.31426
876.10 70.12996
876.20 70.39778
876.30 70.14859
876.40 69.64271
876.50 69.34142
876.60 69.79259
876.70 71.31429
876.80 73.87672
876.90 77.21633
877.00 80.90282
877.10 84.50092
877.20 87.61194
877.30 89.91522
877.40 91.35387
877.50 92.02081
877.60 91.81931
877.70 90.59673
877.80 88.41022
877.90 85.45546
878.00 82.06324
878.10 78.61801
878.20 75.46511
878.30 72.8657
878.40 70.96569
878.50 69.84691
878.60 69.68822
878.70 70.61243
878.80 72.36436
878.90 74.47156
879.00 76.67432
879.10 78.8201
879.20 80.73536
879.30 82.22225
879.40 83.01561
879.50 82.95027
879.60 81.9743
879.70 80.19491
879.80 77.9028
879.90 75.45844
880.00 73.14908
880.10 71.15481
880.20 69.59833
880.30 68.61263
880.40 68.35478
880.50 68.80688
880.60 69.61599
880.70 70.39946
880.80 71.04024
880.90 71.66285
881.00 72.52118
881.10 73.84236
881.20 75.77778
881.30 78.39243
881.40 81.58362
881.50 85.13132
881.60 88.75824
881.70 92.12836
881.80 94.87558
881.90 96.58453
882.00 97.11772
882.10 96.72715
882.20 95.73555
882.30 94.39651
882.40 92.90705
882.50 91.51702
882.60 90.60845
882.70 90.55454
882.80 91.44921
882.90 92.96135
883.00 94.55295
883.10 95.72493
883.20 96.16952
883.30 96.10682
883.40 95.91016
883.50 95.74334
883.60 95.73085
883.70 95.97335
883.80 96.60222
883.90 97.58513
884.00 98.44893
884.10 98.44137
884.20 97.00325
884.30 94.12067
884.40 90.20766
884.50 85.9337
884.60 82.07074
884.70 79.29901
884.80 78.16685
884.90 78.92964
885.00 81.47275
885.10 85.35252
885.20 89.78523
885.30 93.82224
885.40 96.65332
885.50 97.86873
885.60 97.47956
885.70 95.69638
885.80 92.88966
885.90 89.66863
886.00 86.79406
886.10 84.80287
886.20 83.87878
886.30 84.03586
886.40 85.0948
886.50 86.64431
886.60 88.12558
886.70 88.93547
886.80 88.60456
886.90 86.95324
887.00 84.14815
887.10 80.73519
887.20 77.50914
887.30 75.19911
887.40 74.27805
887.50 74.96505
887.60 77.22186
887.70 80.67844
887.80 84.64155
887.90 88.40861
888.00 91.65076
888.10 94.25191
888.20 96.20304
888.30 97.61264
888.40 98.64487
888.50 99.56685
888.60 100.676
888.70 102.1028
888.80 103.6305
888.90 104.7817
889.00 105.0559
889.10 104.0808
889.20 101.6705
889.30 97.84429
889.40 92.7488
889.50 86.9571
889.60 81.50522
889.70 77.43046
889.80 75.50118
889.90 75.89452
890.00 78.07256
890.10 81.17846
890.20 84.46744
890.30 87.42213
890.40 89.61218
890.50 90.72149
890.60 90.72863
890.70 89.87413
890.80 88.60501
890.90 87.45175
891.00 86.83445
891.10 87.04554
891.20 88.0661
891.30 89.69131
891.40 91.75863
891.50 94.10103
891.60 96.52589
891.70 98.79583
891.80 100.7299
891.90 102.228
892.00 103.2491
892.10 103.7971
892.20 103.8652
892.30 103.4381
892.40 102.4559
892.50 100.7987
892.60 98.51554
892.70 95.83709
892.80 93.20111
892.90 91.23338
893.00 90.48413
893.10 91.26598
893.20 93.49872
893.30 96.73287
893.40 100.33
893.50 103.5474
893.60 105.6085
893.70 105.7776
893.80 103.6352
893.90 99.38191
894.00 93.70102
894.10 87.40509
894.20 81.22565
894.30 75.87561
894.40 72.02815
894.50 69.97091
894.60 69.59765
894.70 70.70108
894.80 72.98257
894.90 76.01322
895.00 79.42724
895.10 83.12999
895.20 87.18526
895.30 91.6137
895.40 96.35739
895.50 101.3038
895.60 106.1807
895.70 110.4551
895.80 113.5522
895.90 115.1923
896.00 115.4713
896.10 114.493
896.20 112.2597
896.30 109.0239
896.40 105.3475
896.50 101.8232
896.60 98.8035
896.70 96.4067
896.80 94.75914
896.90 94.01225
897.00 94.19461
897.10 95.1684
897.20 96.6834
897.30 98.46546
897.40 100.138
897.50 101.3616
897.60 102.0509
897.70 102.2405
897.80 101.9314
897.90 101.2201
898.00 100.4405
898.10 99.99328
898.20 100.1046
898.30 100.8618
898.40 102.4337
898.50 104.8793
898.60 107.764
898.70 110.4068
898.80 112.2003
898.90 112.8688
899.00 112.5822
899.10 111.7215
899.20 110.6705
899.30 109.6294
899.40 108.6355
899.50 107.6986
899.60 106.7196
899.70 105.6056
899.80 104.3207
899.90 102.8836
900.00 103.2573
900.10 103.631
900.20 104.0047
900.30 104.3784
900.40 104.7521
900.50 105.1258
900.60 105.4995
900.70 105.8733
900.80 106.247
900.90 106.6207
901.00 106.9944
901.10 107.3681
901.20 107.7418
901.30 108.1155
901.40 108.4892
901.50 108.863
901.60 109.2367
901.70 109.6104
901.80 109.9841
901.90 110.3578
902.00 110.7315
902.10 111.1052
902.20 111.4789
902.30 111.8527
902.40 112.2264
902.50 112.6001
902.60 112.9738
902.70 113.3475
902.80 113.7212
902.90 114.0949
903.00 114.4686
903.10 114.8423
903.20 114.9171
903.30 114.9889
903.40 115.0606
903.50 115.1324
903.60 115.2041
903.70 115.2759
903.80 115.3476
903.90 115.4194
904.00 115.4912
904.10 115.5629
904.20 115.6347
904.30 115.7064
904.40 115.7782
904.50 115.8499
904.60 115.9217
904.70 115.9934
904.80 116.0652
904.90 116.1369
905.00 116.2087
905.10 116.2805
905.20 116.3522
905.30 116.424
905.40 116.4957
905.50 116.5675
905.60 116.6392
905.70 116.711
905.80 116.7827
905.90 116.8545
906.00 116.9262
906.10 116.998
906.20 117.0698
906.30 117.1415
906.40 117.2133
906.50 117.285
906.60 117.386
906.70 117.4994
906.80 117.6129
906.90 117.7263
907.00 117.8398
907.10 117.9532
907.20 118.0667
907.30 118.1801
907.40 118.2936
907.50 118.407
907.60 118.5205
907.70 118.6339
907.80 118.7474
907.90 118.8608
908.00 118.9743
908.10 119.0877
908.20 119.2012
908.30 119.3146
908.40 119.4281
908.50 119.5415
908.60 119.655
908.70 119.7684
908.80 119.8819
908.90 119.9953
909.00 120.1088
909.10 120.2222
909.20 120.3357
909.30 120.4492
909.40 120.5626
909.50 120.6761
909.60 120.7895
909.70 120.903
909.80 121.0164
909.90 121.1299
910.00 121.2332
910.10 121.3025
910.20 121.3719
910.30 121.4413
910.40 121.5107
910.50 121.58
910.60 121.6494
910.70 121.7188
910.80 121.7882
910.90 121.8575
911.00 121.9269
911.10 121.9963
911.20 122.0657
911.30 122.135
911.40 122.2044
911.50 122.2738
911.60 122.3432
911.70 122.4125
911.80 122.4819
911.90 122.5513
912.00 122.6206
912.10 122.69
912.20 122.7594
912.30 122.8288
912.40 122.8981
912.50 122.9675
912.60 123.0369
912.70 123.1063
912.80 123.1756
912.90 123.245
913.00 123.3144
913.10 123.3838
913.20 123.4531
913.30 123.5225
913.40 123.5919
913.50 123.7096
913.60 123.8639
913.70 124.0181
913.80 124.1724
913.90 124.3266
914.00 124.4809
914.10 124.6351
914.20 124.7894
914.30 124.9436
914.40 125.0979
914.50 125.2521
914.60 125.4064
914.70 125.5606
914.80 125.7148
914.90 125.8691
915.00 126.0233
915.10 126.1776
915.20 126.3318
915.30 126.4861
915.40 126.6403
915.50 126.7946
915.60 126.9488
915.70 127.1031
915.80 127.2573
915.90 127.4116
916.00 127.5658
916.10 127.7201
916.20 127.8743
916.30 128.0286
916.40 128.1828
916.50 128.3371
916.60 128.4913
916.70 128.6456
916.80 128.7998
916.90 128.9541
917.00 129.0543
917.10 129.1355
917.20 129.2167
917.30 129.298
917.40 129.3792
917.50 129.4604
917.60 129.5417
917.70 129.6229
917.80 129.7041
917.90 129.7853
918.00 129.8666
918.10 129.9478
918.20 130.029
918.30 130.1103
918.40 130.1915
918.50 130.2727
918.60 130.354
918.70 130.4352
918.80 130.5164
918.90 130.5977
919.00 130.6789
919.10 130.7601
919.20 130.8413
919.30 130.9226
919.40 131.0038
919.50 131.085
919.60 131.1663
919.70 131.2475
919.80 131.3287
919.90 131.41
920.00 131.4912
920.10 131.5724
920.20 131.6537
920.30 131.7349
920.40 131.8161
920.50 131.9178
920.60 132.0268
920.70 132.1357
920.80 132.2447
920.90 132.3536
921.00 132.4626
921.10 132.5715
921.20 132.6804
921.30 132.7894
921.40 132.8983
921.50 133.0073
921.60 133.1162
921.70 133.2252
921.80 133.3341
921.90 133.443
922.00 133.552
922.10 133.6609
922.20 133.7699
922.30 133.8788
922.40 133.9878
922.50 134.0967
922.60 134.2056
922.70 134.3146
922.80 134.4235
922.90 134.5325
923.00 134.6414
923.10 134.7504
923.20 134.8593
923.30 134.9682
923.40 135.0772
923.50 135.1861
923.60 135.2951
923.70 135.404
923.80 135.513
923.90 135.6219
924.00 135.612
924.10 135.5086
924.20 135.4053
924.30 135.3019
924.40 135.1986
924.50 135.0952
924.60 134.9919
924.70 134.8885
924.80 134.7852
924.90 134.6818
925.00 134.5785
925.10 134.4751
925.20 134.3718
925.30 134.2685
925.40 134.1651
925.50 134.0618
925.60 133.9584
925.70 133.8551
925.80 133.7517
925.90 133.6484
926.00 133.545
926.10 133.4417
926.20 133.3383
926.30 133.235
926.40 133.1316
926.50 133.0283
926.60 132.9249
926.70 132.8216
926.80 132.7183
926.90 132.6149
927.00 132.5116
927.10 132.4082
927.20 132.3049
927.30 132.2015
927.40 132.0982
927.50 131.9935
927.60 131.8835
927.70 131.7736
927.80 131.6636
927.90 131.5536
928.00 131.4437
928.10 131.3337
928.20 131.2237
928.30 131.1138
928.40 131.0038
928.50 130.8938
928.60 130.7839
928.70 130.6739
928.80 130.5639
928.90 130.454
929.00 130.344
929.10 130.234
929.20 130.1241
929.30 130.0141
929.40 129.9042
929.50 129.7942
929.60 129.6842
929.70 129.5743
929.80 129.4643
929.90 129.3543
930.00 129.2444
930.10 129.1344
930.20 129.0244
930.30 128.9145
930.40 128.8045
930.50 128.6945
930.60 128.5846
930.70 128.4746
930.80 128.3646
930.90 128.2547
931.00 128.1447
931.10 128.2497
931.20 128.4607
931.30 128.6716
931.40 128.8826
931.50 129.0935
931.60 129.3045
931.70 129.5154
931.80 129.7264
931.90 129.9374
932.00 130.1483
932.10 130.3593
932.20 130.5702
932.30 130.7812
932.40 130.9921
932.50 131.2031
932.60 131.414
932.70 131.625
932.80 131.8359
932.90 132.0469
933.00 132.2578
933.10 132.4688
933.20 132.6797
933.30 132.8907
933.40 133.1016
933.50 133.3126
933.60 133.5235
933.70 133.7345
933.80 133.9454
933.90 134.1564
934.00 134.3673
934.10 134.5783
934.20 134.7892
934.30 135.0002
934.40 135.2111
934.50 135.4221
934.60 135.633
934.70 135.7883
934.80 135.9419
934.90 136.0955
935.00 136.2491
935.10 136.4026
935.20 136.5562
935.30 136.7098
935.40 136.8634
935.50 137.017
935.60 137.1705
935.70 137.3241
935.80 137.4777
935.90 137.6313
936.00 137.7849
936.10 137.9384
936.20 138.092
936.30 138.2456
936.40 138.3992
936.50 138.5528
936.60 138.7063
936.70 138.8599
936.80 139.0135
936.90 139.1671
937.00 139.3207
937.10 139.4742
937.20 139.6278
937.30 139.7814
937.40 139.935
937.50 140.0885
937.60 140.2421
937.70 140.3957
937.80 140.5493
937.90 140.7029
938.00 140.8564
938.10 141.01
938.20 141.1473
938.30 141.1384
938.40 141.1294
938.50 141.1204
938.60 141.1115
938.70 141.1025
938.80 141.0935
938.90 141.0846
939.00 141.0756
939.10 141.0666
939.20 141.0577
939.30 141.0487
939.40 141.0397
939.50 141.0308
939.60 141.0218
939.70 141.0128
939.80 141.0039
939.90 140.9949
940.00 140.9859
940.10 140.977
940.20 140.968
940.30 140.959
940.40 140.9501
940.50 140.9411
940.60 140.9321
940.70 140.9232
940.80 140.9142
940.90 140.9052
941.00 140.8963
941.10 140.8873
941.20 140.8783
941.30 140.8694
941.40 140.8604
941.50 140.8514
941.60 140.8425
941.70 140.8335
941.80 140.83
941.90 140.8984
942.00 140.9668
942.10 141.0353
942.20 141.1037
942.30 141.1722
942.40 141.2406
942.50 141.3091
942.60 141.3775
942.70 141.4459
942.80 141.5144
942.90 141.5828
943.00 141.6513
943.10 141.7197
943.20 141.7881
943.30 141.8566
943.40 141.925
943.50 141.9935
943.60 142.0619
943.70 142.1304
943.80 142.1988
943.90 142.2672
944.00 142.3357
944.10 142.4041
944.20 142.4726
944.30 142.541
944.40 142.6094
944.50 142.6779
944.60 142.7463
944.70 142.8148
944.80 142.8832
944.90 142.9517
945.00 143.0201
945.10 143.0885
945.20 143.157
945.30 143.2254
945.40 143.2939
945.50 143.4142
945.60 143.5424
945.70 143.6705
945.80 143.7987
945.90 143.9268
946.00 144.0549
946.10 144.1831
946.20 144.3112
946.30 144.4393
946.40 144.5675
946.50 144.6956
946.60 144.8238
946.70 144.9519
946.80 145.08
946.90 145.2082
947.00 145.3363
947.10 145.4645
947.20 145.5926
947.30 145.7207
947.40 145.8489
947.50 145.977
947.60 146.1051
947.70 146.2333
947.80 146.3614
947.90 146.4896
948.00 146.6177
948.10 146.7458
948.20 146.874
948.30 147.0021
948.40 147.1302
948.50 147.2584
948.60 147.3865
948.70 147.5147
948.80 147.6428
948.90 147.7709
949.00 147.8991
949.10 148.0412
949.20 148.1974
949.30 148.3536
949.40 148.5097
949.50 148.6659
949.60 148.8221
949.70 148.9782
949.80 149.1344
949.90 149.2906
950.00 149.4468
950.10 149.6029
950.20 149.7591
950.30 149.9153
950.40 150.0714
950.50 150.2276
950.60 150.3838
950.70 150.5399
950.80 150.6961
950.90 150.8523
951.00 151.0085
951.10 151.1646
951.20 151.3208
951.30 151.477
951.40 151.6331
951.50 151.7893
951.60 151.9455
951.70 152.1016
951.80 152.2578
951.90 152.414
952.00 152.5702
952.10 152.7263
952.20 152.8825
952.30 153.0387
952.40 153.1948
952.50 153.351
952.60 153.5072
952.70 153.6633
952.80 153.6859
952.90 153.7043
953.00 153.7228
953.10 153.7412
953.20 153.7597
953.30 153.7781
953.40 153.7965
953.50 153.815
953.60 153.8334
953.70 153.8518
953.80 153.8703
953.90 153.8887
954.00 153.9071
954.10 153.9256
954.20 153.944
954.30 153.9624
954.40 153.9809
954.50 153.9993
954.60 154.0178
954.70 154.0362
954.80 154.0546
954.90 154.0731
955.00 154.0915
955.10 154.1099
955.20 154.1284
955.30 154.1468
955.40 154.1652
955.50 154.1837
955.60 154.2021
955.70 154.2205
955.80 154.239
955.90 154.2574
956.00 154.2759
956.10 154.2943
956.20 154.3127
956.30 154.3312
956.40 154.3512
956.50 154.3754
956.60 154.3995
956.70 154.4237
956.80 154.4478
956.90 154.472
957.00 154.4961
957.10 154.5203
957.20 154.5444
957.30 154.5686
957.40 154.5928
957.50 154.6169
957.60 154.6411
957.70 154.6652
957.80 154.6894
957.90 154.7135
958.00 154.7377
958.10 154.7618
958.20 154.786
958.30 154.8102
958.40 154.8343
958.50 154.8585
958.60 154.8826
958.70 154.9068
958.80 154.9309
958.90 154.9551
959.00 154.9792
959.10 155.0034
959.20 155.0276
959.30 155.0517
959.40 155.0759
959.50 155.1
959.60 155.1242
959.70 155.1483
959.80 155.1725
959.90 155.1966
960.00 155.2208
960.10 155.2063
960.20 155.1406
960.30 155.0749
960.40 155.0092
960.50 154.9435
960.60 154.8778
960.70 154.812
960.80 154.7463
960.90 154.6806
961.00 154.6149
961.10 154.5492
961.20 154.4835
961.30 154.4178
961.40 154.3521
961.50 154.2864
961.60 154.2206
961.70 154.1549
961.80 154.0892
961.90 154.0235
962.00 153.9578
962.10 153.8921
962.20 153.8264
962.30 153.7607
962.40 153.695
962.50 153.6292
962.60 153.5635
962.70 153.4978
962.80 153.4321
962.90 153.3664
963.00 153.3007
963.10 153.235
963.20 153.1693
963.30 153.1036
963.40 153.0378
963.50 152.9721
963.60 152.9064
963.70 152.8407
963.80 152.8611
963.90 153.0003
964.00 153.1395
964.10 153.2787
964.20 153.4179
964.30 153.5571
964.40 153.6964
964.50 153.8356
964.60 153.9748
964.70 154.114
964.80 154.2532
964.90 154.3924
965.00 154.5317
965.10 154.6709
965.20 154.8101
965.30 154.9493
965.40 155.0885
965.50 155.2277
965.60 155.367
965.70 155.5062
965.80 155.6454
965.90 155.7846
966.00 155.9238
966.10 156.063
966.20 156.2022
966.30 156.3415
966.40 156.4807
966.50 156.6199
966.60 156.7591
966.70 156.8983
966.80 157.0375
966.90 157.1768
967.00 157.316
967.10 157.4552
967.20 157.5944
967.30 157.7336
967.40 157.8728
967.50 157.9853
967.60 158.0216
967.70 158.0579
967.80 158.0942
967.90 158.1305
968.00 158.1668
968.10 158.2031
968.20 158.2393
968.30 158.2756
968.40 158.3119
968.50 158.3482
968.60 158.3845
968.70 158.4208
968.80 158.4571
968.90 158.4934
969.00 158.5297
969.10 158.566
969.20 158.6023
969.30 158.6386
969.40 158.6748
969.50 158.7111
969.60 158.7474
969.70 158.7837
969.80 158.82
969.90 158.8563
970.00 158.8926
970.10 158.9289
970.20 158.9652
970.30 159.0015
970.40 159.0378
970.50 159.0741
970.60 159.1103
970.70 159.1466
970.80 159.1829
970.90 159.2192
971.00 159.2555
971.10 159.2918
971.20 159.3281
971.30 159.4447
971.40 159.5664
971.50 159.6881
971.60 159.8098
971.70 159.9315
971.80 160.0532
971.90 160.1749
972.00 160.2966
972.10 160.4183
972.20 160.54
972.30 160.6616
972.40 160.7833
972.50 160.905
972.60 161.0267
972.70 161.1484
972.80 161.2701
972.90 161.3918
973.00 161.5135
973.10 161.6352
973.20 161.7569
973.30 161.8786
973.40 162.0003
973.50 162.122
973.60 162.2437
973.70 162.3654
973.80 162.4871
973.90 162.6088
974.00 162.7305
974.10 162.8522
974.20 162.9739
974.30 163.0956
974.40 163.2173
974.50 163.339
974.60 163.4607
974.70 163.5824
974.80 163.7041
974.90 163.8258
975.00 163.9902
975.10 164.2027
975.20 164.4153
975.30 164.6278
975.40 164.8403
975.50 165.0529
975.60 165.2654
975.70 165.478
975.80 165.6905
975.90 165.9031
976.00 166.1156
976.10 166.3281
976.20 166.5407
976.30 166.7532
976.40 166.9658
976.50 167.1783
976.60 167.3908
976.70 167.6034
976.80 167.8159
976.90 168.0285
977.00 168.241
977.10 168.4536
977.20 168.6661
977.30 168.8786
977.40 169.0912
977.50 169.3037
977.60 169.5163
977.70 169.7288
977.80 169.9414
977.90 170.1539
978.00 170.3664
978.10 170.579
978.20 170.7915
978.30 171.0041
978.40 171.2166
978.50 171.4291
978.60 171.6417
978.70 171.8542
978.80 171.8512
978.90 171.8102
979.00 171.7691
979.10 171.728
979.20 171.687
979.30 171.6459
979.40 171.6049
979.50 171.5638
979.60 171.5227
979.70 171.4817
979.80 171.4406
979.90 171.3996
980.00 171.3585
980.10 171.3174
980.20 171.2764
980.30 171.2353
980.40 171.1943
980.50 171.1532
980.60 171.1121
980.70 171.0711
980.80 171.03
980.90 170.989
981.00 170.9479
981.10 170.9068
981.20 170.8658
981.30 170.8247
981.40 170.7837
981.50 170.7426
981.60 170.7016
981.70 170.6605
981.80 170.6194
981.90 170.5784
982.00 170.5373
982.10 170.4963
982.20 170.4552
982.30 170.4141
982.40 170.3731
982.50 170.3141
982.60 170.0495
982.70 169.7848
982.80 169.5202
982.90 169.2555
983.00 168.9909
983.10 168.7263
983.20 168.4616
983.30 168.197
983.40 167.9323
983.50 167.6677
983.60 167.403
983.70 167.1384
983.80 166.8737
983.90 166.6091
984.00 166.3444
984.10 166.0798
984.20 165.8151
984.30 165.5505
984.40 165.2858
984.50 165.0212
984.60 164.7565
984.70 164.4919
984.80 164.2272
984.90 163.9626
985.00 163.698
985.10 163.4333
985.20 163.1687
985.30 162.904
985.40 162.6394
985.50 162.3747
985.60 162.1101
985.70 161.8454
985.80 161.5808
985.90 161.3161
986.00 161.0515
986.10 160.7868
986.20 160.5222
986.30 160.2479
986.40 159.9228
986.50 159.5977
986.60 159.2726
986.70 158.9475
986.80 158.6224
986.90 158.2973
987.00 157.9722
987.10 157.6471
987.20 157.322
987.30 156.997
987.40 156.6719
987.50 156.3468
987.60 156.0217
987.70 155.6966
987.80 155.3715
987.90 155.0464
988.00 154.7213
988.10 154.3962
988.20 154.0711
988.30 153.746
988.40 153.4209
988.50 153.0959
988.60 152.7708
988.70 152.4457
988.80 152.1206
988.90 151.7955
989.00 151.4704
989.10 151.1453
989.20 150.8202
989.30 150.4951
989.40 150.17
989.50 149.8449
989.60 149.5198
989.70 149.1948
989.80 148.8697
989.90 148.5446
990.00 148.2195
990.10 147.8991
990.20 147.6215
990.30 147.3439
990.40 147.0663
990.50 146.7887
990.60 146.5111
990.70 146.2334
990.80 145.9558
990.90 145.6782
991.00 145.4006
991.10 145.123
991.20 144.8454
991.30 144.5678
991.40 144.2901
991.50 144.0125
991.60 143.7349
991.70 143.4573
991.80 143.1797
991.90 142.9021
992.00 142.6245
992.10 142.3468
992.20 142.0692
992.30 141.7916
992.40 141.514
992.50 141.2364
992.60 140.9588
992.70 140.6812
992.80 140.4035
992.90 140.1259
993.00 139.8483
993.10 139.5707
993.20 139.2931
993.30 139.0155
993.40 138.7379
993.50 138.4602
993.60 138.1826
993.70 137.905
993.80 137.6274
993.90 137.3498
994.00 137.1547
994.10 136.9687
994.20 136.7827
994.30 136.5968
994.40 136.4108
994.50 136.2249
994.60 136.0389
994.70 135.8529
994.80 135.667
994.90 135.481
995.00 135.295
995.10 135.1091
995.20 134.9231
995.30 134.7372
995.40 134.5512
995.50 134.3652
995.60 134.1793
995.70 133.9933
995.80 133.8074
995.90 133.6214
996.00 133.4354
996.10 133.2495
996.20 133.0635
996.30 132.8776
996.40 132.6916
996.50 132.5056
996.60 132.3197
996.70 132.1337
996.80 131.9478
996.90 131.7618
997.00 131.5758
997.10 131.3899
997.20 131.2039
997.30 131.0179
997.40 130.832
997.50 130.646
997.60 130.4601
997.70 130.2741
997.80 130.2591
997.90 130.384
998.00 130.5088
998.10 130.6337
998.20 130.7585
998.30 130.8834
998.40 131.0082
998.50 131.1331
998.60 131.258
998.70 131.3828
998.80 131.5077
998.90 131.6325
999.00 131.7574
999.10 131.8823
999.20 132.0071
999.30 132.132
999.40 132.2568
999.50 132.3817
999.60 132.5065
999.70 132.6314
999.80 132.7563
999.90 132.8811
1000.00 133.006
1000.10 133.1308
1000.20 133.2557
1000.30 133.3806
1000.40 133.5054
1000.50 133.6303
1000.60 133.7551
1000.70 133.88
1000.80 134.0048
1000.90 134.1297
1001.00 134.2546
1001.10 134.3794
1001.20 134.5043
1001.30 134.6291
1001.40 134.754
1001.50 134.8789
1001.60 135.0038
1001.70 135.13
1001.80 135.2562
1001.90 135.3824
1002.00 135.5086
1002.10 135.6348
1002.20 135.7609
1002.30 135.8871
1002.40 136.0133
1002.50 136.1395
1002.60 136.2657
1002.70 136.3919
1002.80 136.518
1002.90 136.6442
1003.00 136.7704
1003.10 136.8966
1003.20 137.0228
1003.30 137.149
1003.40 137.2751
1003.50 137.4013
1003.60 137.5275
1003.70 137.6537
1003.80 137.7799
1003.90 137.906
1004.00 138.0322
1004.10 138.1584
1004.20 138.2846
1004.30 138.4108
1004.40 138.537
1004.50 138.6631
1004.60 138.7893
1004.70 138.9155
1004.80 139.0417
1004.90 139.1679
1005.00 139.2941
1005.10 139.4202
1005.20 139.5464
1005.30 139.6726
1005.40 139.7988
1005.50 139.9692
1005.60 140.2059
1005.70 140.4426
1005.80 140.6793
1005.90 140.916
1006.00 141.1527
1006.10 141.3894
1006.20 141.6261
1006.30 141.8628
1006.40 142.0995
1006.50 142.3362
1006.60 142.5729
1006.70 142.8096
1006.80 143.0463
1006.90 143.283
1007.00 143.5197
1007.10 143.7564
1007.20 143.9931
1007.30 144.2298
1007.40 144.4665
1007.50 144.7032
1007.60 144.94
1007.70 145.1767
1007.80 145.4134
1007.90 145.6501
1008.00 145.8868
1008.10 146.1235
1008.20 146.3602
1008.30 146.5969
1008.40 146.8336
1008.50 147.0703
1008.60 147.307
1008.70 147.5437
1008.80 147.7804
1008.90 148.0171
1009.00 148.2538
1009.10 148.4905
1009.20 148.7272
1009.30 148.9639
1009.40 149.1056
1009.50 149.2066
1009.60 149.3076
1009.70 149.4086
1009.80 149.5096
1009.90 149.6106
1010.00 149.7116
1010.10 149.8126
1010.20 149.9136
1010.30 150.0146
1010.40 150.1155
1010.50 150.2165
1010.60 150.3175
1010.70 150.4185
1010.80 150.5195
1010.90 150.6205
1011.00 150.7215
1011.10 150.8225
1011.20 150.9235
1011.30 151.0245
1011.40 151.1255
1011.50 151.2265
1011.60 151.3275
1011.70 151.4284
1011.80 151.5294
1011.90 151.6304
1012.00 151.7314
1012.10 151.8324
1012.20 151.9334
1012.30 152.0344
1012.40 152.1354
1012.50 152.2364
1012.60 152.3374
1012.70 152.4384
1012.80 152.5394
1012.90 152.6404
1013.00 152.7413
1013.10 152.8423
1013.20 152.9433
1013.30 152.959
1013.40 152.9533
1013.50 152.9475
1013.60 152.9418
1013.70 152.9361
1013.80 152.9304
1013.90 152.9247
1014.00 152.919
1014.10 152.9133
1014.20 152.9076
1014.30 152.9019
1014.40 152.8962
1014.50 152.8904
1014.60 152.8847
1014.70 152.879
1014.80 152.8733
1014.90 152.8676
1015.00 152.8619
1015.10 152.8562
1015.20 152.8505
1015.30 152.8448
1015.40 152.8391
1015.50 152.8333
1015.60 152.8276
1015.70 152.8219
1015.80 152.8162
1015.90 152.8105
1016.00 152.8048
1016.10 152.7991
1016.20 152.7934
1016.30 152.7877
1016.40 152.782
1016.50 152.7762
1016.60 152.7705
1016.70 152.7648
1016.80 152.7591
1016.90 152.7534
1017.00 152.7477
1017.10 152.742
1017.20 152.8202
1017.30 152.9195
1017.40 153.0187
1017.50 153.118
1017.60 153.2172
1017.70 153.3165
1017.80 153.4157
1017.90 153.5149
1018.00 153.6142
1018.10 153.7134
1018.20 153.8127
1018.30 153.9119
1018.40 154.0112
1018.50 154.1104
1018.60 154.2097
1018.70 154.3089
1018.80 154.4081
1018.90 154.5074
1019.00 154.6066
1019.10 154.7059
1019.20 154.8051
1019.30 154.9044
1019.40 155.0036
1019.50 155.1029
1019.60 155.2021
1019.70 155.3013
1019.80 155.4006
1019.90 155.4998
1020.00 155.5991
1020.10 155.6983
1020.20 155.7976
1020.30 155.8968
1020.40 155.996
1020.50 156.0953
1020.60 156.1945
1020.70 156.2938
1020.80 156.393
1020.90 156.4923
1021.00 156.5915
1021.10 156.6336
1021.20 156.6377
1021.30 156.6418
1021.40 156.6458
1021.50 156.6499
1021.60 156.6539
1021.70 156.658
1021.80 156.6621
1021.90 156.6661
1022.00 156.6702
1022.10 156.6742
1022.20 156.6783
1022.30 156.6824
1022.40 156.6864
1022.50 156.6905
1022.60 156.6945
1022.70 156.6986
1022.80 156.7027
1022.90 156.7067
1023.00 156.7108
1023.10 156.7148
1023.20 156.7189
1023.30 156.723
1023.40 156.727
1023.50 156.7311
1023.60 156.7351
1023.70 156.7392
1023.80 156.7433
1023.90 156.7473
1024.00 156.7514
1024.10 156.7554
1024.20 156.7595
1024.30 156.7636
1024.40 156.7676
1024.50 156.7717
1024.60 156.7757
1024.70 156.7798
1024.80 156.7839
1024.90 156.7879
1025.00 156.7918
1025.10 156.7955
1025.20 156.7991
1025.30 156.8027
1025.40 156.8064
1025.50 156.81
1025.60 156.8137
1025.70 156.8173
1025.80 156.821
1025.90 156.8246
1026.00 156.8283
1026.10 156.8319
1026.20 156.8355
1026.30 156.8392
1026.40 156.8428
1026.50 156.8465
1026.60 156.8501
1026.70 156.8538
1026.80 156.8574
1026.90 156.8611
1027.00 156.8647
1027.10 156.8684
1027.20 156.872
1027.30 156.8756
1027.40 156.8793
1027.50 156.8829
1027.60 156.8866
1027.70 156.8902
1027.80 156.8939
1027.90 156.8975
1028.00 156.9012
1028.10 156.9048
1028.20 156.9084
1028.30 156.9121
1028.40 156.9157
1028.50 156.9194
1028.60 156.923
1028.70 156.9267
1028.80 156.9303
1028.90 156.934
1029.00 157.1456
1029.10 157.3572
1029.20 157.5689
1029.30 157.7805
1029.40 157.9921
1029.50 158.2038
1029.60 158.4154
1029.70 158.6271
1029.80 158.8387
1029.90 159.0503
1030.00 159.262
1030.10 159.4736
1030.20 159.6852
1030.30 159.8969
1030.40 160.1085
1030.50 160.3202
1030.60 160.5318
1030.70 160.7434
1030.80 160.9551
1030.90 161.1667
1031.00 161.3783
1031.10 161.59
1031.20 161.8016
1031.30 162.0133
1031.40 162.2249
1031.50 162.4365
1031.60 162.6482
1031.70 162.8598
1031.80 163.0714
1031.90 163.2831
1032.00 163.4947
1032.10 163.7064
1032.20 163.918
1032.30 164.1296
1032.40 164.3413
1032.50 164.5529
1032.60 164.7645
1032.70 164.9762
1032.80 165.1878
1032.90 165.3569
1033.00 165.4621
1033.10 165.5673
1033.20 165.6726
1033.30 165.7778
1033.40 165.883
1033.50 165.9882
1033.60 166.0935
1033.70 166.1987
1033.80 166.3039
1033.90 166.4091
1034.00 166.5143
1034.10 166.6196
1034.20 166.7248
1034.30 166.83
1034.40 166.9352
1034.50 167.0405
1034.60 167.1457
1034.70 167.2509
1034.80 167.3561
1034.90 167.4613
1035.00 167.5666
1035.10 167.6718
1035.20 167.777
1035.30 167.8822
1035.40 167.9875
1035.50 168.0927
1035.60 168.1979
1035.70 168.3031
1035.80 168.4084
1035.90 168.5136
1036.00 168.6188
1036.10 168.724
1036.20 168.8292
1036.30 168.9345
1036.40 169.0397
1036.50 169.1449
1036.60 169.2501
1036.70 169.3554
1036.80 169.4606
1036.90 169.5323
1037.00 169.5957
1037.10 169.6592
1037.20 169.7226
1037.30 169.786
1037.40 169.8494
1037.50 169.9128
1037.60 169.9762
1037.70 170.0396
1037.80 170.103
1037.90 170.1664
1038.00 170.2298
1038.10 170.2932
1038.20 170.3566
1038.30 170.42
1038.40 170.4834
1038.50 170.5468
1038.60 170.6102
1038.70 170.6736
1038.80 170.737
1038.90 170.8004
1039.00 170.8638
1039.10 170.9272
1039.20 170.9906
1039.30 171.054
1039.40 171.1174
1039.50 171.1808
1039.60 171.2442
1039.70 171.3076
1039.80 171.371
1039.90 171.4344
1040.00 171.4978
1040.10 171.5612
1040.20 171.6246
1040.30 171.688
1040.40 171.7514
1040.50 171.8148
1040.60 171.8782
1040.70 171.9416
1040.80 172.005
1040.90 172.0565
1041.00 172.108
1041.10 172.1595
1041.20 172.2109
1041.30 172.2624
1041.40 172.3139
1041.50 172.3654
1041.60 172.4168
1041.70 172.4683
1041.80 172.5198
1041.90 172.5713
1042.00 172.6227
1042.10 172.6742
1042.20 172.7257
1042.30 172.7772
1042.40 172.8287
1042.50 172.8801
1042.60 172.9316
1042.70 172.9831
1042.80 173.0346
1042.90 173.086
1043.00 173.1375
1043.10 173.189
1043.20 173.2405
1043.30 173.2919
1043.40 173.3434
1043.50 173.3949
1043.60 173.4464
1043.70 173.4979
1043.80 173.5493
1043.90 173.6008
1044.00 173.6523
1044.10 173.7038
1044.20 173.7552
1044.30 173.8067
1044.40 173.8582
1044.50 173.9097
1044.60 173.9611
1044.70 174.0126
1044.80 174.0672
1044.90 174.15
1045.00 174.2327
1045.10 174.3155
1045.20 174.3982
1045.30 174.4809
1045.40 174.5637
1045.50 174.6464
1045.60 174.7292
1045.70 174.8119
1045.80 174.8947
1045.90 174.9774
1046.00 175.0602
1046.10 175.1429
1046.20 175.2256
1046.30 175.3084
1046.40 175.3911
1046.50 175.4739
1046.60 175.5566
1046.70 175.6394
1046.80 175.7221
1046.90 175.8048
1047.00 175.8876
1047.10 175.9703
1047.20 176.0531
1047.30 176.1358
1047.40 176.2186
1047.50 176.3013
1047.60 176.3841
1047.70 176.4668
1047.80 176.5495
1047.90 176.6323
1048.00 176.715
1048.10 176.7978
1048.20 176.8805
1048.30 176.9633
1048.40 177.046
1048.50 177.1287
1048.60 177.2115
1048.70 177.2942
1048.80 177.3664
1048.90 177.3434
1049.00 177.3203
1049.10 177.2973
1049.20 177.2742
1049.30 177.2512
1049.40 177.2281
1049.50 177.2051
1049.60 177.182
1049.70 177.159
1049.80 177.1359
1049.90 177.1129
1050.00 177.0898
1050.10 177.0668
1050.20 177.0437
1050.30 177.0207
1050.40 176.9976
1050.50 176.9746
1050.60 176.9516
1050.70 176.9285
1050.80 176.9055
1050.90 176.8824
1051.00 176.8594
1051.10 176.8363
1051.20 176.8133
1051.30 176.7902
1051.40 176.7672
1051.50 176.7441
1051.60 176.7211
1051.70 176.698
1051.80 176.675
1051.90 176.6519
1052.00 176.6289
1052.10 176.6058
1052.20 176.5828
1052.30 176.5598
1052.40 176.5367
1052.50 176.5137
1052.60 176.4906
1052.70 176.4676
1052.80 176.4445
1052.90 176.3665
1053.00 176.2884
1053.10 176.2103
1053.20 176.1323
1053.30 176.0542
1053.40 175.9761
1053.50 175.8981
1053.60 175.82
1053.70 175.742
1053.80 175.6639
1053.90 175.5858
1054.00 175.5078
1054.10 175.4297
1054.20 175.3517
1054.30 175.2736
1054.40 175.1955
1054.50 175.1175
1054.60 175.0394
1054.70 174.9614
1054.80 174.8833
1054.90 174.8052
1055.00 174.7272
1055.10 174.6491
1055.20 174.571
1055.30 174.493
1055.40 174.4149
1055.50 174.3369
1055.60 174.2588
1055.70 174.1807
1055.80 174.1027
1055.90 174.0246
1056.00 173.9466
1056.10 173.8685
1056.20 173.7904
1056.30 173.7124
1056.40 173.6343
1056.50 173.5563
1056.60 173.4782
1056.70 173.4001
1056.80 173.3221
1056.90 173.3225
1057.00 173.3426
1057.10 173.3628
1057.20 173.3829
1057.30 173.403
1057.40 173.4231
1057.50 173.4432
1057.60 173.4633
1057.70 173.4834
1057.80 173.5035
1057.90 173.5236
1058.00 173.5437
1058.10 173.5638
1058.20 173.5839
1058.30 173.604
1058.40 173.6241
1058.50 173.6442
1058.60 173.6643
1058.70 173.6844
1058.80 173.7045
1058.90 173.7247
1059.00 173.7448
1059.10 173.7649
1059.20 173.785
1059.30 173.8051
1059.40 173.8252
1059.50 173.8453
1059.60 173.8654
1059.70 173.8855
1059.80 173.9056
1059.90 173.9257
1060.00 173.9458
1060.10 173.9659
1060.20 173.986
1060.30 174.0061
1060.40 174.0262
1060.50 174.0463
1060.60 174.0665
1060.70 174.0866
1060.80 174.1067
1060.90 174.1856
1061.00 174.3235
1061.10 174.4614
1061.20 174.5992
1061.30 174.7371
1061.40 174.875
1061.50 175.0128
1061.60 175.1507
1061.70 175.2886
1061.80 175.4264
1061.90 175.5643
1062.00 175.7022
1062.10 175.84
1062.20 175.9779
1062.30 176.1158
1062.40 176.2536
1062.50 176.3915
1062.60 176.5294
1062.70 176.6672
1062.80 176.8051
1062.90 176.943
1063.00 177.0808
1063.10 177.2187
1063.20 177.3566
1063.30 177.4944
1063.40 177.6323
1063.50 177.7702
1063.60 177.908
1063.70 178.0459
1063.80 178.1838
1063.90 178.3216
1064.00 178.4595
1064.10 178.5974
1064.20 178.7352
1064.30 178.8731
1064.40 179.011
1064.50 179.1488
1064.60 179.2867
1064.70 179.4246
1064.80 179.5624
1064.90 179.7003
1065.00 179.8341
1065.10 179.9679
1065.20 180.1017
1065.30 180.2355
1065.40 180.3694
1065.50 180.5032
1065.60 180.637
1065.70 180.7708
1065.80 180.9046
1065.90 181.0384
1066.00 181.1722
1066.10 181.3061
1066.20 181.4399
1066.30 181.5737
1066.40 181.7075
1066.50 181.8413
1066.60 181.9751
1066.70 182.1089
1066.80 182.2428
1066.90 182.3766
1067.00 182.5104
1067.10 182.6442
1067.20 182.778
1067.30 182.9118
1067.40 183.0456
1067.50 183.1795
1067.60 183.3133
1067.70 183.4471
1067.80 183.5809
1067.90 183.7147
1068.00 183.8485
1068.10 183.9823
1068.20 184.1161
1068.30 184.25
1068.40 184.3838
1068.50 184.5176
1068.60 184.6514
1068.70 184.7852
1068.80 184.919
1068.90 185.0528
1069.00 185.1935
1069.10 185.3409
1069.20 185.4883
1069.30 185.6357
1069.40 185.7831
1069.50 185.9305
1069.60 186.078
1069.70 186.2254
1069.80 186.3728
1069.90 186.5202
1070.00 186.6676
1070.10 186.815
1070.20 186.9625
1070.30 187.1099
1070.40 187.2573
1070.50 187.4047
1070.60 187.5521
1070.70 187.6995
1070.80 187.847
1070.90 187.9944
1071.00 188.1418
1071.10 188.2892
1071.20 188.4366
1071.30 188.584
1071.40 188.7315
1071.50 188.8789
1071.60 189.0263
1071.70 189.1737
1071.80 189.3211
1071.90 189.4685
1072.00 189.616
1072.10 189.7634
1072.20 189.9108
1072.30 190.0582
1072.40 190.2056
1072.50 190.353
1072.60 190.5005
1072.70 190.6479
1072.80 190.7953
1072.90 190.9427
1073.00 191.0901
1073.10 191.2193
1073.20 191.3465
1073.30 191.4736
1073.40 191.6007
1073.50 191.7279
1073.60 191.855
1073.70 191.9822
1073.80 192.1093
1073.90 192.2365
1074.00 192.3636
1074.10 192.4908
1074.20 192.6179
1074.30 192.7451
1074.40 192.8722
1074.50 192.9994
1074.60 193.1265
1074.70 193.2537
1074.80 193.3808
1074.90 193.508
1075.00 193.6351
1075.10 193.7623
1075.20 193.8894
1075.30 194.0165
1075.40 194.1437
1075.50 194.2708
1075.60 194.398
1075.70 194.5251
1075.80 194.6523
1075.90 194.7794
1076.00 194.9066
1076.10 195.0337
1076.20 195.1609
1076.30 195.288
1076.40 195.4152
1076.50 195.5423
1076.60 195.6695
1076.70 195.7966
1076.80 195.9238
1076.90 196.0509
1077.00 196.1781
1077.10 196.2999
1077.20 196.3738
1077.30 196.4476
1077.40 196.5215
1077.50 196.5954
1077.60 196.6693
1077.70 196.7432
1077.80 196.8171
1077.90 196.891
1078.00 196.9649
1078.10 197.0387
1078.20 197.1126
1078.30 197.1865
1078.40 197.2604
1078.50 197.3343
1078.60 197.4082
1078.70 197.4821
1078.80 197.5559
1078.90 197.6298
1079.00 197.7037
1079.10 197.7776
1079.20 197.8515
1079.30 197.9254
1079.40 197.9993
1079.50 198.0732
1079.60 198.147
1079.70 198.2209
1079.80 198.2948
1079.90 198.3687
1080.00 198.4426
1080.10 198.5165
1080.20 198.5904
1080.30 198.6642
1080.40 198.7381
1080.50 198.812
1080.60 198.8859
1080.70 198.9598
1080.80 199.0337
1080.90 199.1076
1081.00 199.1814
1081.10 199.2553
1081.20 199.4043
1081.30 199.7285
1081.40 200.0528
1081.50 200.377
1081.60 200.7012
1081.70 201.0254
1081.80 201.3497
1081.90 201.6739
1082.00 201.9981
1082.10 202.3223
1082.20 202.6466
1082.30 202.9708
1082.40 203.295
1082.50 203.6192
1082.60 203.9435
1082.70 204.2677
1082.80 204.5919
1082.90 204.9161
1083.00 205.2404
1083.10 205.5646
1083.20 205.8888
1083.30 206.213
1083.40 206.5373
1083.50 206.8615
1083.60 207.1857
1083.70 207.5099
1083.80 207.8342
1083.90 208.1584
1084.00 208.4826
1084.10 208.8068
1084.20 209.131
1084.30 209.4553
1084.40 209.7795
1084.50 210.1037
1084.60 210.4279
1084.70 210.7522
1084.80 211.0764
1084.90 211.4006
1085.00 211.7248
1085.10 212.0491
1085.20 212.3733
1085.30 212.6121
1085.40 212.6516
1085.50 212.6912
1085.60 212.7307
1085.70 212.7702
1085.80 212.8097
1085.90 212.8493
1086.00 212.8888
1086.10 212.9283
1086.20 212.9678
1086.30 213.0074
1086.40 213.0469
1086.50 213.0864
1086.60 213.1259
1086.70 213.1655
1086.80 213.205
1086.90 213.2445
1087.00 213.284
1087.10 213.3236
1087.20 213.3631
1087.30 213.4026
1087.40 213.4421
1087.50 213.4817
1087.60 213.5212
1087.70 213.5607
1087.80 213.6002
1087.90 213.6398
1088.00 213.6793
1088.10 213.7188
1088.20 213.7583
1088.30 213.7979
1088.40 213.8374
1088.50 213.8769
1088.60 213.9164
1088.70 213.9559
1088.80 213.9955
1088.90 214.035
1089.00 214.0745
1089.10 214.114
1089.20 214.1536
1089.30 214.1931
1089.40 214.2434
1089.50 214.3187
1089.60 214.3941
1089.70 214.4695
1089.80 214.5448
1089.90 214.6202
1090.00 214.6956
1090.10 214.771
1090.20 214.8463
1090.30 214.9217
1090.40 214.9971
1090.50 215.0724
1090.60 215.1478
1090.70 215.2232
1090.80 215.2985
1090.90 215.3739
1091.00 215.4493
1091.10 215.5246
1091.20 215.6
1091.30 215.6754
1091.40 215.7507
1091.50 215.8261
1091.60 215.9015
1091.70 215.9768
1091.80 216.0522
1091.90 216.1276
1092.00 216.2029
1092.10 216.2783
1092.20 216.3537
1092.30 216.4291
1092.40 216.5044
1092.50 216.5798
1092.60 216.6552
1092.70 216.7305
1092.80 216.8059
1092.90 216.8813
1093.00 216.9566
1093.10 217.032
1093.20 217.1074
1093.30 217.1827
1093.40 217.2581
1093.50 217.3276
1093.60 217.3737
1093.70 217.4197
1093.80 217.4658
1093.90 217.5118
1094.00 217.5579
1094.10 217.6039
1094.20 217.65
1094.30 217.696
1094.40 217.7421
1094.50 217.7881
1094.60 217.8342
1094.70 217.8802
1094.80 217.9263
1094.90 217.9723
1095.00 218.0184
1095.10 218.0645
1095.20 218.1105
1095.30 218.1566
1095.40 218.2026
1095.50 218.2487
1095.60 218.2947
1095.70 218.3408
1095.80 218.3868
1095.90 218.4329
1096.00 218.4789
1096.10 218.525
1096.20 218.571
1096.30 218.6171
1096.40 218.6631
1096.50 218.7092
1096.60 218.7552
1096.70 218.8013
1096.80 218.8473
1096.90 218.8934
1097.00 218.9395
1097.10 218.9855
1097.20 219.0316
1097.30 219.0776
1097.40 219.1237
1097.50 219.1697
1097.60 219.2158
1097.70 219.2839
1097.80 219.352
1097.90 219.4202
1098.00 219.4883
1098.10 219.5564
1098.20 219.6246
1098.30 219.6927
1098.40 219.7608
1098.50 219.8289
1098.60 219.8971
1098.70 219.9652
1098.80 220.0333
1098.90 220.1015
1099.00 220.1696
1099.10 220.2377
1099.20 220.3059
1099.30 220.374
1099.40 220.4421
1099.50 220.5103
1099.60 220.5784
1099.70 220.6465
1099.80 220.7146
1099.90 220.7828
1100.00 220.8509
1100.10 220.919
1100.20 220.9872
1100.30 221.0553
1100.40 221.1234
1100.50 221.1916
1100.60 221.2597
1100.70 221.3278
1100.80 221.396
1100.90 221.4641
1101.00 221.5322
1101.10 221.6003
1101.20 221.6685
1101.30 221.7366
1101.40 221.8047
1101.50 221.8729
1101.60 221.941
1101.70 222.0091
1101.80 221.9379
1101.90 221.8069
1102.00 221.6759
1102.10 221.5449
1102.20 221.4139
1102.30 221.2829
1102.40 221.1519
1102.50 221.0209
1102.60 220.8899
1102.70 220.7589
1102.80 220.6279
1102.90 220.4969
1103.00 220.3659
1103.10 220.2349
1103.20 220.1039
1103.30 219.9729
1103.40 219.8419
1103.50 219.7109
1103.60 219.5799
1103.70 219.4489
1103.80 219.318
1103.90 219.187
1104.00 219.056
1104.10 218.925
1104.20 218.794
1104.30 218.663
1104.40 218.532
1104.50 218.401
1104.60 218.27
1104.70 218.139
1104.80 218.008
1104.90 217.877
1105.00 217.746
1105.10 217.615
1105.20 217.484
1105.30 217.353
1105.40 217.222
1105.50 217.091
1105.60 216.96
1105.70 216.829
1105.80 216.698
1105.90 216.6108
1106.00 216.6256
1106.10 216.6405
1106.20 216.6553
1106.30 216.6701
1106.40 216.685
1106.50 216.6998
1106.60 216.7147
1106.70 216.7295
1106.80 216.7443
1106.90 216.7592
1107.00 216.774
1107.10 216.7889
1107.20 216.8037
1107.30 216.8185
1107.40 216.8334
1107.50 216.8482
1107.60 216.8631
1107.70 216.8779
1107.80 216.8927
1107.90 216.9076
1108.00 216.9224
1108.10 216.9373
1108.20 216.9521
1108.30 216.9669
1108.40 216.9818
1108.50 216.9966
1108.60 217.0115
1108.70 217.0263
1108.80 217.0411
1108.90 217.056
1109.00 217.0708
1109.10 217.0857
1109.20 217.1005
1109.30 217.1153
1109.40 217.1302
1109.50 217.145
1109.60 217.1599
1109.70 217.1747
1109.80 217.1895
1109.90 217.2044
1110.00 217.2192
1110.10 217.1886
1110.20 217.1466
1110.30 217.1046
1110.40 217.0626
1110.50 217.0206
1110.60 216.9786
1110.70 216.9366
1110.80 216.8946
1110.90 216.8526
1111.00 216.8106
1111.10 216.7686
1111.20 216.7266
1111.30 216.6846
1111.40 216.6426
1111.50 216.6006
1111.60 216.5586
1111.70 216.5166
1111.80 216.4746
1111.90 216.4326
1112.00 216.3906
1112.10 216.3486
1112.20 216.3066
1112.30 216.2646
1112.40 216.2226
1112.50 216.1806
1112.60 216.1386
1112.70 216.0966
1112.80 216.0546
1112.90 216.0126
1113.00 215.9706
1113.10 215.9286
1113.20 215.8866
1113.30 215.8446
1113.40 215.8026
1113.50 215.7606
1113.60 215.7186
1113.70 215.6766
1113.80 215.6346
1113.90 215.5926
1114.00 215.5506
1114.10 215.5086
1114.20 215.499
1114.30 215.565
1114.40 215.6311
1114.50 215.6971
1114.60 215.7631
1114.70 215.8292
1114.80 215.8952
1114.90 215.9612
1115.00 216.0273
1115.10 216.0933
1115.20 216.1593
1115.30 216.2254
1115.40 216.2914
1115.50 216.3574
1115.60 216.4235
1115.70 216.4895
1115.80 216.5555
1115.90 216.6216
1116.00 216.6876
1116.10 216.7536
1116.20 216.8197
1116.30 216.8857
1116.40 216.9518
1116.50 217.0178
1116.60 217.0838
1116.70 217.1499
1116.80 217.2159
1116.90 217.2819
1117.00 217.348
1117.10 217.414
1117.20 217.48
1117.30 217.5461
1117.40 217.6121
1117.50 217.6781
1117.60 217.7442
1117.70 217.8102
1117.80 217.8762
1117.90 217.9423
1118.00 218.0083
1118.10 218.0743
1118.20 218.1404
1118.30 218.2064
1118.40 218.2713
1118.50 218.3355
1118.60 218.3996
1118.70 218.4638
1118.80 218.528
1118.90 218.5921
1119.00 218.6563
1119.10 218.7205
1119.20 218.7846
1119.30 218.8488
1119.40 218.9129
1119.50 218.9771
1119.60 219.0413
1119.70 219.1054
1119.80 219.1696
1119.90 219.2338
1120.00 219.2979
1120.10 219.3621
1120.20 219.4262
1120.30 219.4904
1120.40 219.5546
1120.50 219.6187
1120.60 219.6829
1120.70 219.7471
1120.80 219.8112
1120.90 219.8754
1121.00 219.9395
1121.10 220.0037
1121.20 220.0679
1121.30 220.132
1121.40 220.1962
1121.50 220.2604
1121.60 220.3245
1121.70 220.3887
1121.80 220.4528
1121.90 220.517
1122.00 220.5812
1122.10 220.6453
1122.20 220.7095
1122.30 220.7737
1122.40 220.8378
1122.50 220.902
1122.60 220.9068
1122.70 220.905
1122.80 220.9031
1122.90 220.9013
1123.00 220.8995
1123.10 220.8977
1123.20 220.8959
1123.30 220.8941
1123.40 220.8923
1123.50 220.8905
1123.60 220.8887
1123.70 220.8869
1123.80 220.885
1123.90 220.8832
1124.00 220.8814
1124.10 220.8796
1124.20 220.8778
1124.30 220.876
1124.40 220.8742
1124.50 220.8724
1124.60 220.8706
1124.70 220.8687
1124.80 220.8669
1124.90 220.8651
1125.00 220.8633
1125.10 220.8615
1125.20 220.8597
1125.30 220.8579
1125.40 220.8561
1125.50 220.8543
1125.60 220.8525
1125.70 220.8506
1125.80 220.8488
1125.90 220.847
1126.00 220.8452
1126.10 220.8434
1126.20 220.8416
1126.30 220.8398
1126.40 220.838
1126.50 220.8362
1126.60 220.8344
1126.70 220.8199
1126.80 220.7549
1126.90 220.69
1127.00 220.625
1127.10 220.56
1127.20 220.4951
1127.30 220.4301
1127.40 220.3651
1127.50 220.3002
1127.60 220.2352
1127.70 220.1702
1127.80 220.1053
1127.90 220.0403
1128.00 219.9753
1128.10 219.9104
1128.20 219.8454
1128.30 219.7804
1128.40 219.7154
1128.50 219.6505
1128.60 219.5855
1128.70 219.5205
1128.80 219.4556
1128.90 219.3906
1129.00 219.3256
1129.10 219.2607
1129.20 219.1957
1129.30 219.1307
1129.40 219.0658
1129.50 219.0008
1129.60 218.9358
1129.70 218.8709
1129.80 218.8059
1129.90 218.7409
1130.00 218.676
1130.10 218.611
1130.20 218.546
1130.30 218.481
1130.40 218.4161
1130.50 218.3511
1130.60 218.2861
1130.70 218.2212
1130.80 218.1562
1130.90 218.0602
1131.00 217.8918
1131.10 217.7234
1131.20 217.555
1131.30 217.3866
1131.40 217.2182
1131.50 217.0498
1131.60 216.8814
1131.70 216.713
1131.80 216.5446
1131.90 216.3762
1132.00 216.2078
1132.10 216.0394
1132.20 215.871
1132.30 215.7026
1132.40 215.5342
1132.50 215.3658
1132.60 215.1973
1132.70 215.0289
1132.80 214.8605
1132.90 214.6921
1133.00 214.5237
1133.10 214.3553
1133.20 214.1869
1133.30 214.0185
1133.40 213.8501
1133.50 213.6817
1133.60 213.5133
1133.70 213.3449
1133.80 213.1765
1133.90 213.0081
1134.00 212.8397
1134.10 212.6713
1134.20 212.5029
1134.30 212.3345
1134.40 212.1661
1134.50 211.9977
1134.60 211.8293
1134.70 211.6609
1134.80 211.4925
1134.90 211.3241
1135.00 211.1557
1135.10 211.0434
1135.20 211.0152
1135.30 210.9871
1135.40 210.959
1135.50 210.9309
1135.60 210.9028
1135.70 210.8746
1135.80 210.8465
1135.90 210.8184
1136.00 210.7903
1136.10 210.7621
1136.20 210.734
1136.30 210.7059
1136.40 210.6778
1136.50 210.6497
1136.60 210.6215
1136.70 210.5934
1136.80 210.5653
1136.90 210.5372
1137.00 210.5091
1137.10 210.4809
1137.20 210.4528
1137.30 210.4247
1137.40 210.3966
1137.50 210.3684
1137.60 210.3403
1137.70 210.3122
1137.80 210.2841
1137.90 210.256
1138.00 210.2278
1138.10 210.1997
1138.20 210.1716
1138.30 210.1435
1138.40 210.1153
1138.50 210.0872
1138.60 210.0591
1138.70 210.031
1138.80 210.0029
1138.90 209.9747
1139.00 209.9466
1139.10 209.9185
1139.20 209.8904
1139.30 209.9103
1139.40 210.0023
1139.50 210.0943
1139.60 210.1864
1139.70 210.2784
1139.80 210.3704
1139.90 210.4624
1140.00 210.5544
1140.10 210.6465
1140.20 210.7385
1140.30 210.8305
1140.40 210.9225
1140.50 211.0145
1140.60 211.1066
1140.70 211.1986
1140.80 211.2906
1140.90 211.3826
1141.00 211.4746
1141.10 211.5667
1141.20 211.6587
1141.30 211.7507
1141.40 211.8427
1141.50 211.9347
1141.60 212.0267
1141.70 212.1188
1141.80 212.2108
1141.90 212.3028
1142.00 212.3948
1142.10 212.4868
1142.20 212.5789
1142.30 212.6709
1142.40 212.7629
1142.50 212.8549
1142.60 212.9469
1142.70 213.039
1142.80 213.131
1142.90 213.223
1143.00 213.315
1143.10 213.407
1143.20 213.4991
1143.30 213.5911
1143.40 213.6831
1143.50 213.83
1143.60 214.1048
1143.70 214.3797
1143.80 214.6545
1143.90 214.9293
1144.00 215.2042
1144.10 215.479
1144.20 215.7539
1144.30 216.0287
1144.40 216.3036
1144.50 216.5784
1144.60 216.8532
1144.70 217.1281
1144.80 217.4029
1144.90 217.6778
1145.00 217.9526
1145.10 218.2275
1145.20 218.5023
1145.30 218.7771
1145.40 219.052
1145.50 219.3268
1145.60 219.6017
1145.70 219.8765
1145.80 220.1514
1145.90 220.4262
1146.00 220.701
1146.10 220.9759
1146.20 221.2507
1146.30 221.5256
1146.40 221.8004
1146.50 222.0753
1146.60 222.3501
1146.70 222.6249
1146.80 222.8998
1146.90 223.1746
1147.00 223.4495
1147.10 223.7243
1147.20 223.9992
1147.30 224.274
1147.40 224.5489
1147.50 224.8237
1147.60 225.0985
1147.70 225.3563
1147.80 225.5458
1147.90 225.7354
1148.00 225.9249
1148.10 226.1144
1148.20 226.304
1148.30 226.4935
1148.40 226.683
1148.50 226.8726
1148.60 227.0621
1148.70 227.2516
1148.80 227.4412
1148.90 227.6307
1149.00 227.8202
1149.10 228.0098
1149.20 228.1993
1149.30 228.3888
1149.40 228.5784
1149.50 228.7679
1149.60 228.9574
1149.70 229.1469
1149.80 229.3365
1149.90 229.526
1150.00 229.7155
1150.10 229.9051
1150.20 230.0946
1150.30 230.2841
1150.40 230.4737
1150.50 230.6632
1150.60 230.8527
1150.70 231.0423
1150.80 231.2318
1150.90 231.4213
1151.00 231.6109
1151.10 231.8004
1151.20 231.9899
1151.30 232.1794
1151.40 232.369
1151.50 232.5585
1151.60 232.748
1151.70 232.9376
1151.80 233.1271
1151.90 233.3166
1152.00 233.2982
1152.10 233.2797
1152.20 233.2613
1152.30 233.2428
1152.40 233.2243
1152.50 233.2059
1152.60 233.1874
1152.70 233.169
1152.80 233.1505
1152.90 233.132
1153.00 233.1136
1153.10 233.0951
1153.20 233.0767
1153.30 233.0582
1153.40 233.0397
1153.50 233.0213
1153.60 233.0028
1153.70 232.9844
1153.80 232.9659
1153.90 232.9474
1154.00 232.929
1154.10 232.9105
1154.20 232.8921
1154.30 232.8736
1154.40 232.8551
1154.50 232.8367
1154.60 232.8182
1154.70 232.7998
1154.80 232.7813
1154.90 232.7629
1155.00 232.7444
1155.10 232.7259
1155.20 232.7075
1155.30 232.689
1155.40 232.6706
1155.50 232.6521
1155.60 232.6336
1155.70 232.6152
1155.80 232.5967
1155.90 232.5783
1156.00 232.5598
1156.10 232.5413
1156.20 232.453
1156.30 232.3472
1156.40 232.2415
1156.50 232.1357
1156.60 232.0299
1156.70 231.9241
1156.80 231.8184
1156.90 231.7126
1157.00 231.6068
1157.10 231.501
1157.20 231.3953
1157.30 231.2895
1157.40 231.1837
1157.50 231.0779
1157.60 230.9722
1157.70 230.8664
1157.80 230.7606
1157.90 230.6548
1158.00 230.549
1158.10 230.4433
1158.20 230.3375
1158.30 230.2317
1158.40 230.1259
1158.50 230.0202
1158.60 229.9144
1158.70 229.8086
1158.80 229.7028
1158.90 229.5971
1159.00 229.4913
1159.10 229.3855
1159.20 229.2797
1159.30 229.1739
1159.40 229.0682
1159.50 228.9624
1159.60 228.8566
1159.70 228.7508
1159.80 228.6451
1159.90 228.5393
1160.00 228.4335
1160.10 228.3277
1160.20 228.222
1160.30 228.1162
1160.40 228.0057
1160.50 227.8904
1160.60 227.7751
1160.70 227.6598
1160.80 227.5445
1160.90 227.4293
1161.00 227.314
1161.10 227.1987
1161.20 227.0834
1161.30 226.9681
1161.40 226.8529
1161.50 226.7376
1161.60 226.6223
1161.70 226.507
1161.80 226.3917
1161.90 226.2765
1162.00 226.1612
1162.10 226.0459
1162.20 225.9306
1162.30 225.8153
1162.40 225.7001
1162.50 225.5848
1162.60 225.4695
1162.70 225.3542
1162.80 225.2389
1162.90 225.1237
1163.00 225.0084
1163.10 224.8931
1163.20 224.7778
1163.30 224.6626
1163.40 224.5473
1163.50 224.432
1163.60 224.3167
1163.70 224.2014
1163.80 224.0862
1163.90 223.9709
1164.00 223.8556
1164.10 223.7403
1164.20 223.625
1164.30 223.5098
1164.40 223.3945
1164.50 223.2792
1164.60 223.1662
1164.70 223.0733
1164.80 222.9805
1164.90 222.8877
1165.00 222.7949
1165.10 222.7021
1165.20 222.6093
1165.30 222.5165
1165.40 222.4236
1165.50 222.3308
1165.60 222.238
1165.70 222.1452
1165.80 222.0524
1165.90 221.9596
1166.00 221.8667
1166.10 221.7739
1166.20 221.6811
1166.30 221.5883
1166.40 221.4955
1166.50 221.4027
1166.60 221.3099
1166.70 221.217
1166.80 221.1242
1166.90 221.0314
1167.00 220.9386
1167.10 220.8458
1167.20 220.753
1167.30 220.6601
1167.40 220.5673
1167.50 220.4745
1167.60 220.3817
1167.70 220.2889
1167.80 220.1961
1167.90 220.1033
1168.00 220.0104
1168.10 219.9176
1168.20 219.8248
1168.30 219.732
1168.40 219.6392
1168.50 219.5464
1168.60 219.4535
1168.70 219.3607
1168.80 219.2679
1168.90 219.0758
1169.00 218.841
1169.10 218.6063
1169.20 218.3715
1169.30 218.1368
1169.40 217.9021
1169.50 217.6673
1169.60 217.4326
1169.70 217.1979
1169.80 216.9631
1169.90 216.7284
1170.00 216.4937
1170.10 216.2589
1170.20 216.0242
1170.30 215.7895
1170.40 215.5547
1170.50 215.32
1170.60 215.0852
1170.70 214.8505
1170.80 214.6158
1170.90 214.381
1171.00 214.1463
1171.10 213.9116
1171.20 213.6768
1171.30 213.4421
1171.40 213.2074
1171.50 212.9726
1171.60 212.7379
1171.70 212.5032
1171.80 212.2684
1171.90 212.0337
1172.00 211.7989
1172.10 211.5642
1172.20 211.3295
1172.30 211.0947
1172.40 210.86
1172.50 210.6253
1172.60 210.3905
1172.70 210.1558
1172.80 209.9211
1172.90 209.6863
1173.00 209.4516
1173.10 209.2747
1173.20 209.3291
1173.30 209.3835
1173.40 209.4378
1173.50 209.4922
1173.60 209.5466
1173.70 209.601
1173.80 209.6554
1173.90 209.7098
1174.00 209.7642
1174.10 209.8186
1174.20 209.8729
1174.30 209.9273
1174.40 209.9817
1174.50 210.0361
1174.60 210.0905
1174.70 210.1449
1174.80 210.1993
1174.90 210.2537
1175.00 210.308
1175.10 210.3624
1175.20 210.4168
1175.30 210.4712
1175.40 210.5256
1175.50 210.58
1175.60 210.6344
1175.70 210.6888
1175.80 210.7431
1175.90 210.7975
1176.00 210.8519
1176.10 210.9063
1176.20 210.9607
1176.30 211.0151
1176.40 211.0695
1176.50 211.1239
1176.60 211.1782
1176.70 211.2326
1176.80 211.287
1176.90 211.3414
1177.00 211.3958
1177.10 211.4502
1177.20 211.5046
1177.30 211.559
1177.40 211.6353
1177.50 211.721
1177.60 211.8068
1177.70 211.8925
1177.80 211.9782
1177.90 212.064
1178.00 212.1497
1178.10 212.2354
1178.20 212.3212
1178.30 212.4069
1178.40 212.4926
1178.50 212.5784
1178.60 212.6641
1178.70 212.7499
1178.80 212.8356
1178.90 212.9213
1179.00 213.0071
1179.10 213.0928
1179.20 213.1785
1179.30 213.2643
1179.40 213.35
1179.50 213.4357
1179.60 213.5215
1179.70 213.6072
1179.80 213.6929
1179.90 213.7787
1180.00 213.8644
1180.10 213.9502
1180.20 214.0359
1180.30 214.1216
1180.40 214.2074
1180.50 214.2931
1180.60 214.3788
1180.70 214.4646
1180.80 214.5503
1180.90 214.636
1181.00 214.7218
1181.10 214.8075
1181.20 214.8932
1181.30 214.979
1181.40 215.0647
1181.50 215.1505
1181.60 215.2403
1181.70 215.3677
1181.80 215.495
1181.90 215.6224
1182.00 215.7497
1182.10 215.8771
1182.20 216.0044
1182.30 216.1318
1182.40 216.2591
1182.50 216.3864
1182.60 216.5138
1182.70 216.6411
1182.80 216.7685
1182.90 216.8958
1183.00 217.0232
1183.10 217.1505
1183.20 217.2778
1183.30 217.4052
1183.40 217.5325
1183.50 217.6599
1183.60 217.7872
1183.70 217.9146
1183.80 218.0419
1183.90 218.1693
1184.00 218.2966
1184.10 218.4239
1184.20 218.5513
1184.30 218.6786
1184.40 218.806
1184.50 218.9333
1184.60 219.0607
1184.70 219.188
1184.80 219.3153
1184.90 219.4427
1185.00 219.57
1185.10 219.6974
1185.20 219.8247
1185.30 219.9521
1185.40 220.0794
1185.50 220.2067
1185.60 220.3341
1185.70 220.4614
1185.80 220.5888
1185.90 220.6245
1186.00 220.5685
1186.10 220.5126
1186.20 220.4567
1186.30 220.4007
1186.40 220.3448
1186.50 220.2889
1186.60 220.2329
1186.70 220.177
1186.80 220.121
1186.90 220.0651
1187.00 220.0092
1187.10 219.9532
1187.20 219.8973
1187.30 219.8413
1187.40 219.7854
1187.50 219.7295
1187.60 219.6735
1187.70 219.6176
1187.80 219.5617
1187.90 219.5057
1188.00 219.4498
1188.10 219.3938
1188.20 219.3379
1188.30 219.282
1188.40 219.226
1188.50 219.1701
1188.60 219.1142
1188.70 219.0582
1188.80 219.0023
1188.90 218.9463
1189.00 218.8904
1189.10 218.8345
1189.20 218.7785
1189.30 218.7226
1189.40 218.6667
1189.50 218.6107
1189.60 218.5548
1189.70 218.4988
1189.80 218.4429
1189.90 218.387
1190.00 218.331
1190.10 218.2751
1190.20 218.1246
1190.30 217.9505
1190.40 217.7763
1190.50 217.6022
1190.60 217.4281
1190.70 217.2539
1190.80 217.0798
1190.90 216.9057
1191.00 216.7316
1191.10 216.5574
1191.20 216.3833
1191.30 216.2092
1191.40 216.035
1191.50 215.8609
1191.60 215.6868
1191.70 215.5126
1191.80 215.3385
1191.90 215.1644
1192.00 214.9903
1192.10 214.8161
1192.20 214.642
1192.30 214.4679
1192.40 214.2937
1192.50 214.1196
1192.60 213.9455
1192.70 213.7713
1192.80 213.5972
1192.90 213.4231
1193.00 213.249
1193.10 213.0748
1193.20 212.9007
1193.30 212.7266
1193.40 212.5524
1193.50 212.3783
1193.60 212.2042
1193.70 212.03
1193.80 211.8559
1193.90 211.6818
1194.00 211.5077
1194.10 211.3335
1194.20 211.1594
1194.30 210.9853
1194.40 210.8166
1194.50 210.6968
1194.60 210.577
1194.70 210.4572
1194.80 210.3374
1194.90 210.2176
1195.00 210.0978
1195.10 209.978
1195.20 209.8582
1195.30 209.7384
1195.40 209.6186
1195.50 209.4988
1195.60 209.379
1195.70 209.2592
1195.80 209.1394
1195.90 209.0196
1196.00 208.8998
1196.10 208.78
1196.20 208.6602
1196.30 208.5404
1196.40 208.4206
1196.50 208.3008
1196.60 208.1811
1196.70 208.0613
1196.80 207.9415
1196.90 207.8217
1197.00 207.7019
1197.10 207.5821
1197.20 207.4623
1197.30 207.3425
1197.40 207.2227
1197.50 207.1029
1197.60 206.9831
1197.70 206.8633
1197.80 206.7435
1197.90 206.6237
1198.00 206.5039
1198.10 206.3841
1198.20 206.2643
1198.30 206.1445
1198.40 206.0247
1198.50 205.9049
1198.60 205.7851
1198.70 205.7088
1198.80 205.6978
1198.90 205.6867
1199.00 205.6757
1199.10 205.6647
1199.20 205.6536
1199.30 205.6426
1199.40 205.6315
1199.50 205.6205
1199.60 205.6094
1199.70 205.5984
1199.80 205.5873
1199.90 205.5763
1200.00 205.5653
1200.10 205.5542
1200.20 205.5432
1200.30 205.5321
1200.40 205.5211
1200.50 205.51
1200.60 205.499
1200.70 205.488
1200.80 205.4769
1200.90 205.4659
1201.00 205.4548
1201.10 205.4438
1201.20 205.4327
1201.30 205.4217
1201.40 205.4107
1201.50 205.3996
1201.60 205.3886
1201.70 205.3775
1201.80 205.3665
1201.90 205.3554
1202.00 205.3444
1202.10 205.3334
1202.20 205.3223
1202.30 205.3113
1202.40 205.3002
1202.50 205.2892
1202.60 205.2781
1202.70 205.2671
1202.80 205.2561
1202.90 205.245
1203.00 205.3274
1203.10 205.472
1203.20 205.6166
1203.30 205.7612
1203.40 205.9058
1203.50 206.0504
1203.60 206.195
1203.70 206.3396
1203.80 206.4842
1203.90 206.6288
1204.00 206.7734
1204.10 206.918
1204.20 207.0626
1204.30 207.2072
1204.40 207.3518
1204.50 207.4964
1204.60 207.641
1204.70 207.7856
1204.80 207.9302
1204.90 208.0748
1205.00 208.2194
1205.10 208.3641
1205.20 208.5087
1205.30 208.6533
1205.40 208.7979
1205.50 208.9425
1205.60 209.0871
1205.70 209.2317
1205.80 209.3763
1205.90 209.5209
1206.00 209.6655
1206.10 209.8101
1206.20 209.9547
1206.30 210.0993
1206.40 210.2439
1206.50 210.3885
1206.60 210.5331
1206.70 210.6777
1206.80 210.8223
1206.90 210.9669
1207.00 211.1115
1207.10 211.2561
1207.20 211.4008
1207.30 211.6227
1207.40 211.8639
1207.50 212.1051
1207.60 212.3463
1207.70 212.5876
1207.80 212.8288
1207.90 213.07
1208.00 213.3112
1208.10 213.5524
1208.20 213.7937
1208.30 214.0349
1208.40 214.2761
1208.50 214.5173
1208.60 214.7586
1208.70 214.9998
1208.80 215.241
1208.90 215.4822
1209.00 215.7235
1209.10 215.9647
1209.20 216.2059
1209.30 216.4471
1209.40 216.6884
1209.50 216.9296
1209.60 217.1708
1209.70 217.412
1209.80 217.6533
1209.90 217.8945
1210.00 218.1357
1210.10 218.3769
1210.20 218.6182
1210.30 218.8594
1210.40 219.1006
1210.50 219.3418
1210.60 219.5831
1210.70 219.8243
1210.80 220.0655
1210.90 220.3067
1211.00 220.548
1211.10 220.7892
1211.20 221.0304
1211.30 221.2716
1211.40 221.5129
1211.50 221.7541
1211.60 221.843
1211.70 221.9149
1211.80 221.9869
1211.90 222.0588
1212.00 222.1308
1212.10 222.2028
1212.20 222.2747
1212.30 222.3467
1212.40 222.4186
1212.50 222.4906
1212.60 222.5626
1212.70 222.6345
1212.80 222.7065
1212.90 222.7784
1213.00 222.8504
1213.10 222.9224
1213.20 222.9943
1213.30 223.0663
1213.40 223.1382
1213.50 223.2102
1213.60 223.2822
1213.70 223.3541
1213.80 223.4261
1213.90 223.498
1214.00 223.57
1214.10 223.642
1214.20 223.7139
1214.30 223.7859
1214.40 223.8578
1214.50 223.9298
1214.60 224.0018
1214.70 224.0737
1214.80 224.1457
1214.90 224.2176
1215.00 224.2896
1215.10 224.3616
1215.20 224.4335
1215.30 224.5055
1215.40 224.5774
1215.50 224.6494
1215.60 224.7214
1215.70 224.7933
1215.80 224.8653
1215.90 225.0924
1216.00 225.3196
1216.10 225.5467
1216.20 225.7738
1216.30 226.001
1216.40 226.2281
1216.50 226.4552
1216.60 226.6824
1216.70 226.9095
1216.80 227.1367
1216.90 227.3638
1217.00 227.5909
1217.10 227.8181
1217.20 228.0452
1217.30 228.2724
1217.40 228.4995
1217.50 228.7266
1217.60 228.9538
1217.70 229.1809
1217.80 229.408
1217.90 229.6352
1218.00 229.8623
1218.10 230.0895
1218.20 230.3166
1218.30 230.5437
1218.40 230.7709
1218.50 230.998
1218.60 231.2251
1218.70 231.4523
1218.80 231.6794
1218.90 231.9066
1219.00 232.1337
1219.10 232.3608
1219.20 232.588
1219.30 232.8151
1219.40 233.0423
1219.50 233.2694
1219.60 233.4965
1219.70 233.7237
1219.80 233.9508
1219.90 234.1779
1220.00 234.4051
1220.10 234.6193
1220.20 234.7178
1220.30 234.8163
1220.40 234.9147
1220.50 235.0132
1220.60 235.1117
1220.70 235.2101
1220.80 235.3086
1220.90 235.407
1221.00 235.5055
1221.10 235.604
1221.20 235.7024
1221.30 235.8009
1221.40 235.8993
1221.50 235.9978
1221.60 236.0963
1221.70 236.1947
1221.80 236.2932
1221.90 236.3917
1222.00 236.4901
1222.10 236.5886
1222.20 236.687
1222.30 236.7855
1222.40 236.884
1222.50 236.9824
1222.60 237.0809
1222.70 237.1793
1222.80 237.2778
1222.90 237.3763
1223.00 237.4747
1223.10 237.5732
1223.20 237.6716
1223.30 237.7701
1223.40 237.8686
1223.50 237.967
1223.60 238.0655
1223.70 238.164
1223.80 238.2624
1223.90 238.3609
1224.00 238.4593
1224.10 238.5578
1224.20 238.6563
1224.30 238.7547
1224.40 238.8403
1224.50 238.8744
1224.60 238.9086
1224.70 238.9427
1224.80 238.9768
1224.90 239.0109
1225.00 239.045
1225.10 239.0792
1225.20 239.1133
1225.30 239.1474
1225.40 239.1815
1225.50 239.2156
1225.60 239.2497
1225.70 239.2839
1225.80 239.318
1225.90 239.3521
1226.00 239.3862
1226.10 239.4203
1226.20 239.4545
1226.30 239.4886
1226.40 239.5227
1226.50 239.5568
1226.60 239.5909
1226.70 239.6251
1226.80 239.6592
1226.90 239.6933
1227.00 239.7274
1227.10 239.7615
1227.20 239.7957
1227.30 239.8298
1227.40 239.8639
1227.50 239.898
1227.60 239.9321
1227.70 239.9663
1227.80 240.0004
1227.90 240.0345
1228.00 240.0686
1228.10 240.1027
1228.20 240.1369
1228.30 240.171
1228.40 240.2051
1228.50 240.2392
1228.60 240.2733
1228.70 240.2773
1228.80 240.1604
1228.90 240.0435
1229.00 239.9266
1229.10 239.8098
1229.20 239.6929
1229.30 239.576
1229.40 239.4591
1229.50 239.3423
1229.60 239.2254
1229.70 239.1085
1229.80 238.9916
1229.90 238.8747
1230.00 238.7579
1230.10 238.641
1230.20 238.5241
1230.30 238.4072
1230.40 238.2904
1230.50 238.1735
1230.60 238.0566
1230.70 237.9397
1230.80 237.8229
1230.90 237.706
1231.00 237.5891
1231.10 237.4722
1231.20 237.3554
1231.30 237.2385
1231.40 237.1216
1231.50 237.0047
1231.60 236.8879
1231.70 236.771
1231.80 236.6541
1231.90 236.5372
1232.00 236.4203
1232.10 236.3035
1232.20 236.1866
1232.30 236.0697
1232.40 235.9528
1232.50 235.836
1232.60 235.7191
1232.70 235.6022
1232.80 235.4853
1232.90 235.3685
1233.00 235.2359
1233.10 235.0407
1233.20 234.8455
1233.30 234.6503
1233.40 234.455
1233.50 234.2598
1233.60 234.0646
1233.70 233.8694
1233.80 233.6742
1233.90 233.479
1234.00 233.2837
1234.10 233.0885
1234.20 232.8933
1234.30 232.6981
1234.40 232.5029
1234.50 232.3076
1234.60 232.1124
1234.70 231.9172
1234.80 231.722
1234.90 231.5268
1235.00 231.3315
1235.10 231.1363
1235.20 230.9411
1235.30 230.7459
1235.40 230.5507
1235.50 230.3555
1235.60 230.1602
1235.70 229.965
1235.80 229.7698
1235.90 229.5746
1236.00 229.3794
1236.10 229.1841
1236.20 228.9889
1236.30 228.7937
1236.40 228.5985
1236.50 228.4033
1236.60 228.2081
1236.70 228.0128
1236.80 227.8176
1236.90 227.6224
1237.00 227.4272
1237.10 227.232
1237.20 227.0367
1237.30 226.8596
1237.40 226.755
1237.50 226.6504
1237.60 226.5457
1237.70 226.4411
1237.80 226.3364
1237.90 226.2318
1238.00 226.1272
1238.10 226.0225
1238.20 225.9179
1238.30 225.8132
1238.40 225.7086
1238.50 225.604
1238.60 225.4993
1238.70 225.3947
1238.80 225.29
1238.90 225.1854
1239.00 225.0808
1239.10 224.9761
1239.20 224.8715
1239.30 224.7668
1239.40 224.6622
1239.50 224.5576
1239.60 224.4529
1239.70 224.3483
1239.80 224.2436
1239.90 224.139
1240.00 224.0343
1240.10 223.9297
1240.20 223.8251
1240.30 223.7204
1240.40 223.6158
1240.50 223.5111
1240.60 223.4065
1240.70 223.3019
1240.80 223.1972
1240.90 223.0926
1241.00 222.9879
1241.10 222.8833
1241.20 222.7787
1241.30 222.674
1241.40 222.5694
1241.50 222.4647
1241.60 222.3621
1241.70 222.2772
1241.80 222.1924
1241.90 222.1075
1242.00 222.0227
1242.10 221.9378
1242.20 221.853
1242.30 221.7681
1242.40 221.6833
1242.50 221.5985
1242.60 221.5136
1242.70 221.4288
1242.80 221.3439
1242.90 221.2591
1243.00 221.1742
1243.10 221.0894
1243.20 221.0045
1243.30 220.9197
1243.40 220.8348
1243.50 220.75
1243.60 220.6651
1243.70 220.5803
1243.80 220.4954
1243.90 220.4106
1244.00 220.3257
1244.10 220.2409
1244.20 220.156
1244.30 220.0712
1244.40 219.9864
1244.50 219.9015
1244.60 219.8167
1244.70 219.7318
1244.80 219.647
1244.90 219.5621
1245.00 219.4773
1245.10 219.3924
1245.20 219.3076
1245.30 219.2227
1245.40 219.1379
1245.50 219.053
1245.60 218.9682
1245.70 218.8833
1245.80 218.7985
1245.90 218.7136
1246.00 218.8764
1246.10 219.0391
1246.20 219.2019
1246.30 219.3647
1246.40 219.5274
1246.50 219.6902
1246.60 219.8529
1246.70 220.0157
1246.80 220.1784
1246.90 220.3412
1247.00 220.5039
1247.10 220.6667
1247.20 220.8294
1247.30 220.9922
1247.40 221.1549
1247.50 221.3177
1247.60 221.4804
1247.70 221.6432
1247.80 221.8059
1247.90 221.9687
1248.00 222.1314
1248.10 222.2942
1248.20 222.4569
1248.30 222.6197
1248.40 222.7824
1248.50 222.9452
1248.60 223.108
1248.70 223.2707
1248.80 223.4335
1248.90 223.5962
1249.00 223.759
1249.10 223.9217
1249.20 224.0845
1249.30 224.2472
1249.40 224.41
1249.50 224.5727
1249.60 224.7355
1249.70 224.8982
1249.80 225.061
1249.90 225.2237
1250.00 225.3865
1250.10 225.5492
1250.20 225.712
1250.30 225.8491
1250.40 225.9863
1250.50 226.1234
1250.60 226.2606
1250.70 226.3977
1250.80 226.5349
1250.90 226.672
1251.00 226.8092
1251.10 226.9464
1251.20 227.0835
1251.30 227.2207
1251.40 227.3578
1251.50 227.495
1251.60 227.6321
1251.70 227.7693
1251.80 227.9064
1251.90 228.0436
1252.00 228.1807
1252.10 228.3179
1252.20 228.455
1252.30 228.5922
1252.40 228.7293
1252.50 228.8665
1252.60 229.0036
1252.70 229.1408
1252.80 229.2779
1252.90 229.4151
1253.00 229.5522
1253.10 229.6894
1253.20 229.8265
1253.30 229.9637
1253.40 230.1008
1253.50 230.238
1253.60 230.3751
1253.70 230.5123
1253.80 230.6494
1253.90 230.7866
1254.00 230.9237
1254.10 231.0609
1254.20 231.198
1254.30 231.3352
1254.40 231.4723
1254.50 231.6095
1254.60 231.8349
1254.70 232.0701
1254.80 232.3053
1254.90 232.5405
1255.00 232.7757
1255.10 233.011
1255.20 233.2462
1255.30 233.4814
1255.40 233.7166
1255.50 233.9518
1255.60 234.187
1255.70 234.4222
1255.80 234.6574
1255.90 234.8926
1256.00 235.1279
1256.10 235.3631
1256.20 235.5983
1256.30 235.8335
1256.40 236.0687
1256.50 236.3039
1256.60 236.5391
1256.70 236.7743
1256.80 237.0095
1256.90 237.2448
1257.00 237.48
1257.10 237.7152
1257.20 237.9504
1257.30 238.1856
1257.40 238.4208
1257.50 238.656
1257.60 238.8912
1257.70 239.1264
1257.80 239.3617
1257.90 239.5969
1258.00 239.8321
1258.10 240.0673
1258.20 240.3025
1258.30 240.5377
1258.40 240.7729
1258.50 241.0081
1258.60 241.2433
1258.70 241.4785
1258.80 241.7138
1258.90 241.9575
1259.00 242.2049
1259.10 242.4523
1259.20 242.6997
1259.30 242.9471
1259.40 243.1945
1259.50 243.4419
1259.60 243.6894
1259.70 243.9368
1259.80 244.1842
1259.90 244.4316
1260.00 244.679
1260.10 244.9264
1260.20 245.1738
1260.30 245.4212
1260.40 245.6686
1260.50 245.916
1260.60 246.1634
1260.70 246.4108
1260.80 246.6582
1260.90 246.9056
1261.00 247.1531
1261.10 247.4005
1261.20 247.6479
1261.30 247.8953
1261.40 248.1427
1261.50 248.3901
1261.60 248.6375
1261.70 248.8849
1261.80 249.1323
1261.90 249.3797
1262.00 249.6271
1262.10 249.8745
1262.20 250.1219
1262.30 250.3693
1262.40 250.6167
1262.50 250.8642
1262.60 251.1116
1262.70 251.359
1262.80 251.6064
1262.90 251.8538
1263.00 252.1012
1263.10 252.3486
1263.20 252.5352
1263.30 252.6813
1263.40 252.8274
1263.50 252.9734
1263.60 253.1195
1263.70 253.2656
1263.80 253.4117
1263.90 253.5578
1264.00 253.7038
1264.10 253.8499
1264.20 253.996
1264.30 254.1421
1264.40 254.2882
1264.50 254.4342
1264.60 254.5803
1264.70 254.7264
1264.80 254.8725
1264.90 255.0186
1265.00 255.1646
1265.10 255.3107
1265.20 255.4568
1265.30 255.6029
1265.40 255.749
1265.50 255.895
1265.60 256.0411
1265.70 256.1872
1265.80 256.3333
1265.90 256.4794
1266.00 256.6254
1266.10 256.7715
1266.20 256.9176
1266.30 257.0637
1266.40 257.2098
1266.50 257.3558
1266.60 257.5019
1266.70 257.648
1266.80 257.7941
1266.90 257.9402
1267.00 258.0862
1267.10 258.2323
1267.20 258.3784
1267.30 258.5245
1267.40 258.6706
1267.50 258.8084
1267.60 258.938
1267.70 259.0676
1267.80 259.1972
1267.90 259.3268
1268.00 259.4564
1268.10 259.586
1268.20 259.7156
1268.30 259.8452
1268.40 259.9748
1268.50 260.1044
1268.60 260.234
1268.70 260.3636
1268.80 260.4932
1268.90 260.6228
1269.00 260.7524
1269.10 260.882
1269.20 261.0116
1269.30 261.1412
1269.40 261.2708
1269.50 261.4004
1269.60 261.53
1269.70 261.6596
1269.80 261.7892
1269.90 261.9188
1270.00 262.0484
1270.10 262.178
1270.20 262.3076
1270.30 262.4372
1270.40 262.5668
1270.50 262.6964
1270.60 262.826
1270.70 262.9556
1270.80 263.0852
1270.90 263.2148
1271.00 263.3444
1271.10 263.474
1271.20 263.6036
1271.30 263.7332
1271.40 263.8628
1271.50 263.9924
1271.60 264.122
1271.70 264.2516
1271.80 264.3452
1271.90 264.3549
1272.00 264.3646
1272.10 264.3743
1272.20 264.3839
1272.30 264.3936
1272.40 264.4033
1272.50 264.413
1272.60 264.4227
1272.70 264.4324
1272.80 264.442
1272.90 264.4517
1273.00 264.4614
1273.10 264.4711
1273.20 264.4808
1273.30 264.4905
1273.40 264.5001
1273.50 264.5098
1273.60 264.5195
1273.70 264.5292
1273.80 264.5389
1273.90 264.5485
1274.00 264.5582
1274.10 264.5679
1274.20 264.5776
1274.30 264.5873
1274.40 264.597
1274.50 264.6066
1274.60 264.6163
1274.70 264.626
1274.80 264.6357
1274.90 264.6454
1275.00 264.6551
1275.10 264.6647
1275.20 264.6744
1275.30 264.6841
1275.40 264.6938
1275.50 264.7035
1275.60 264.7131
1275.70 264.7228
1275.80 264.7325
1275.90 264.7422
1276.00 264.7519
1276.10 264.7549
1276.20 264.6976
1276.30 264.6403
1276.40 264.5831
1276.50 264.5258
1276.60 264.4686
1276.70 264.4113
1276.80 264.3541
1276.90 264.2968
1277.00 264.2395
1277.10 264.1823
1277.20 264.125
1277.30 264.0678
1277.40 264.0105
1277.50 263.9533
1277.60 263.896
1277.70 263.8387
1277.80 263.7815
1277.90 263.7242
1278.00 263.667
1278.10 263.6097
1278.20 263.5524
1278.30 263.4952
1278.40 263.4379
1278.50 263.3807
1278.60 263.3234
1278.70 263.2662
1278.80 263.2089
1278.90 263.1516
1279.00 263.0944
1279.10 263.0371
1279.20 262.9799
1279.30 262.9226
1279.40 262.8653
1279.50 262.8081
1279.60 262.7508
1279.70 262.6936
1279.80 262.6363
1279.90 262.5791
1280.00 262.5218
1280.10 262.4645
1280.20 262.4073
1280.30 262.35
1280.40 262.2928
1280.50 262.2863
1280.60 262.2798
1280.70 262.2733
1280.80 262.2668
1280.90 262.2603
1281.00 262.2538
1281.10 262.2473
1281.20 262.2408
1281.30 262.2343
1281.40 262.2278
1281.50 262.2213
1281.60 262.2148
1281.70 262.2083
1281.80 262.2018
1281.90 262.1953
1282.00 262.1888
1282.10 262.1822
1282.20 262.1757
1282.30 262.1692
1282.40 262.1627
1282.50 262.1562
1282.60 262.1497
1282.70 262.1432
1282.80 262.1367
1282.90 262.1302
1283.00 262.1237
1283.10 262.1172
1283.20 262.1107
1283.30 262.1042
1283.40 262.0977
1283.50 262.0912
1283.60 262.0847
1283.70 262.0782
1283.80 262.0717
1283.90 262.0652
1284.00 262.0587
1284.10 262.0522
1284.20 262.0457
1284.30 262.0392
1284.40 262.0327
1284.50 262.0262
1284.60 262.0197
1284.70 262.0132
1284.80 262.046
1284.90 262.0886
1285.00 262.1312
1285.10 262.1738
1285.20 262.2164
1285.30 262.259
1285.40 262.3016
1285.50 262.3442
1285.60 262.3868
1285.70 262.4294
1285.80 262.472
1285.90 262.5146
1286.00 262.5572
1286.10 262.5998
1286.20 262.6424
1286.30 262.685
1286.40 262.7276
1286.50 262.7702
1286.60 262.8128
1286.70 262.8554
1286.80 262.898
1286.90 262.9407
1287.00 262.9833
1287.10 263.0259
1287.20 263.0685
1287.30 263.1111
1287.40 263.1537
1287.50 263.1963
1287.60 263.2389
1287.70 263.2815
1287.80 263.3241
1287.90 263.3667
1288.00 263.4093
1288.10 263.4519
1288.20 263.4945
1288.30 263.5371
1288.40 263.5797
1288.50 263.6223
1288.60 263.6649
1288.70 263.7075
1288.80 263.7501
1288.90 263.7927
1289.00 263.8353
1289.10 263.796
1289.20 263.7021
1289.30 263.6082
1289.40 263.5144
1289.50 263.4205
1289.60 263.3266
1289.70 263.2327
1289.80 263.1388
1289.90 263.045
1290.00 262.9511
1290.10 262.8572
1290.20 262.7633
1290.30 262.6694
1290.40 262.5755
1290.50 262.4817
1290.60 262.3878
1290.70 262.2939
1290.80 262.2
1290.90 262.1061
1291.00 262.0123
1291.10 261.9184
1291.20 261.8245
1291.30 261.7306
1291.40 261.6367
1291.50 261.5429
1291.60 261.449
1291.70 261.3551
1291.80 261.2612
1291.90 261.1673
1292.00 261.0734
1292.10 260.9796
1292.20 260.8857
1292.30 260.7918
1292.40 260.6979
1292.50 260.604
1292.60 260.5102
1292.70 260.4163
1292.80 260.3224
1292.90 260.2285
1293.00 260.1346
1293.10 260.0407
1293.20 259.9469
1293.30 259.853
1293.40 259.7895
1293.50 259.7715
1293.60 259.7534
1293.70 259.7354
1293.80 259.7174
1293.90 259.6994
1294.00 259.6814
1294.10 259.6634
1294.20 259.6454
1294.30 259.6274
1294.40 259.6094
1294.50 259.5914
1294.60 259.5734
1294.70 259.5554
1294.80 259.5374
1294.90 259.5194
1295.00 259.5014
1295.10 259.4834
1295.20 259.4654
1295.30 259.4474
1295.40 259.4294
1295.50 259.4114
1295.60 259.3934
1295.70 259.3754
1295.80 259.3573
1295.90 259.3393
1296.00 259.3213
1296.10 259.3033
1296.20 259.2853
1296.30 259.2673
1296.40 259.2493
1296.50 259.2313
1296.60 259.2133
1296.70 259.1953
1296.80 259.1773
1296.90 259.1593
1297.00 259.1413
1297.10 259.1233
1297.20 259.1053
1297.30 259.0873
1297.40 259.0693
1297.50 259.0513
1297.60 259.0333
1297.70 259.0227
1297.80 259.0417
1297.90 259.0607
1298.00 259.0797
1298.10 259.0987
1298.20 259.1177
1298.30 259.1367
1298.40 259.1557
1298.50 259.1747
1298.60 259.1937
1298.70 259.2127
1298.80 259.2317
1298.90 259.2508
1299.00 259.2698
1299.10 259.2888
1299.20 259.3078
1299.30 259.3268
1299.40 259.3458
1299.50 259.3648
1299.60 259.3838
1299.70 259.4028
1299.80 259.4218
1299.90 259.4408
