# Version 2.1 - nm, norm@500 to 1, cut digits
# Wavelength(nm)  Flambda(ergs/cm^s/s/nm)
300.00 1.349152e-95
300.10 1.349152e-95
300.20 1.349152e-95
300.30 1.349152e-95
300.40 1.349152e-95
300.50 1.349152e-95
300.60 1.349152e-95
300.70 1.349152e-95
300.80 1.349152e-95
300.90 1.349152e-95
301.00 1.349152e-95
301.10 1.349152e-95
301.20 1.349152e-95
301.30 1.349152e-95
301.40 1.349152e-95
301.50 1.349152e-95
301.60 1.349152e-95
301.70 1.349152e-95
301.80 1.349152e-95
301.90 1.349152e-95
302.00 1.349152e-95
302.10 1.349152e-95
302.20 1.349152e-95
302.30 1.349152e-95
302.40 1.349152e-95
302.50 1.349152e-95
302.60 1.349152e-95
302.70 1.349152e-95
302.80 1.349152e-95
302.90 1.349152e-95
303.00 1.349152e-95
303.10 1.349152e-95
303.20 1.349152e-95
303.30 1.349152e-95
303.40 1.349152e-95
303.50 1.349152e-95
303.60 1.349152e-95
303.70 1.349152e-95
303.80 1.349152e-95
303.90 1.349152e-95
304.00 1.349152e-95
304.10 1.349152e-95
304.20 1.349152e-95
304.30 1.349152e-95
304.40 1.349152e-95
304.50 1.349152e-95
304.60 1.349152e-95
304.70 1.349152e-95
304.80 1.349152e-95
304.90 1.349152e-95
305.00 1.349152e-95
305.10 1.349152e-95
305.20 1.349152e-95
305.30 1.349152e-95
305.40 1.349152e-95
305.50 1.349152e-95
305.60 1.349152e-95
305.70 1.349152e-95
305.80 1.349152e-95
305.90 1.349152e-95
306.00 1.349152e-95
306.10 1.349152e-95
306.20 1.349152e-95
306.30 1.349152e-95
306.40 1.349152e-95
306.50 1.349152e-95
306.60 1.349152e-95
306.70 1.349152e-95
306.80 1.349152e-95
306.90 1.349152e-95
307.00 1.349152e-95
307.10 1.349152e-95
307.20 1.349152e-95
307.30 1.349152e-95
307.40 1.349152e-95
307.50 1.349152e-95
307.60 1.349152e-95
307.70 1.349152e-95
307.80 1.349152e-95
307.90 1.349152e-95
308.00 1.349152e-95
308.10 1.349152e-95
308.20 1.349152e-95
308.30 1.349152e-95
308.40 1.349152e-95
308.50 1.349152e-95
308.60 1.349152e-95
308.70 1.349152e-95
308.80 1.349152e-95
308.90 1.349152e-95
309.00 1.349152e-95
309.10 1.349152e-95
309.20 1.349152e-95
309.30 1.349152e-95
309.40 1.349152e-95
309.50 1.349152e-95
309.60 1.349152e-95
309.70 1.349152e-95
309.80 1.349152e-95
309.90 1.349152e-95
310.00 1.349152e-95
310.10 1.349152e-95
310.20 1.349152e-95
310.30 1.349152e-95
310.40 1.349152e-95
310.50 1.349152e-95
310.60 1.349152e-95
310.70 1.349152e-95
310.80 1.349152e-95
310.90 1.349152e-95
311.00 1.349152e-95
311.10 1.349152e-95
311.20 1.349152e-95
311.30 1.349152e-95
311.40 1.349152e-95
311.50 1.349152e-95
311.60 1.349152e-95
311.70 1.349152e-95
311.80 1.349152e-95
311.90 1.349152e-95
312.00 1.349152e-95
312.10 1.349152e-95
312.20 1.349152e-95
312.30 1.349152e-95
312.40 1.349152e-95
312.50 1.349152e-95
312.60 1.349152e-95
312.70 1.349152e-95
312.80 1.349152e-95
312.90 1.349152e-95
313.00 1.349152e-95
313.10 1.349152e-95
313.20 1.349152e-95
313.30 1.349152e-95
313.40 1.349152e-95
313.50 1.349152e-95
313.60 1.349152e-95
313.70 1.349152e-95
313.80 1.349152e-95
313.90 1.349152e-95
314.00 1.349152e-95
314.10 1.349152e-95
314.20 1.349152e-95
314.30 1.349152e-95
314.40 1.349152e-95
314.50 1.349152e-95
314.60 1.349152e-95
314.70 1.349152e-95
314.80 1.349152e-95
314.90 1.349152e-95
315.00 1.349152e-95
315.10 1.349152e-95
315.20 1.349152e-95
315.30 1.349152e-95
315.40 1.349152e-95
315.50 1.349152e-95
315.60 1.349152e-95
315.70 1.349152e-95
315.80 1.349152e-95
315.90 1.349152e-95
316.00 1.349152e-95
316.10 1.349152e-95
316.20 1.349152e-95
316.30 1.349152e-95
316.40 1.349152e-95
316.50 1.349152e-95
316.60 1.349152e-95
316.70 1.349152e-95
316.80 1.349152e-95
316.90 1.349152e-95
317.00 1.349152e-95
317.10 1.349152e-95
317.20 1.349152e-95
317.30 1.349152e-95
317.40 1.349152e-95
317.50 1.349152e-95
317.60 1.349152e-95
317.70 1.349152e-95
317.80 1.349152e-95
317.90 1.349152e-95
318.00 1.349152e-95
318.10 1.349152e-95
318.20 1.349152e-95
318.30 1.349152e-95
318.40 1.349152e-95
318.50 1.349152e-95
318.60 1.349152e-95
318.70 1.349152e-95
318.80 1.349152e-95
318.90 1.349152e-95
319.00 1.349152e-95
319.10 1.349152e-95
319.20 1.349152e-95
319.30 1.349152e-95
319.40 1.349152e-95
319.50 1.349152e-95
319.60 1.349152e-95
319.70 1.349152e-95
319.80 1.349152e-95
319.90 1.349152e-95
320.00 1.349152e-95
320.10 1.349152e-95
320.20 1.349152e-95
320.30 1.349152e-95
320.40 1.349152e-95
320.50 1.349152e-95
320.60 1.349152e-95
320.70 1.349152e-95
320.80 1.349152e-95
320.90 1.349152e-95
321.00 1.349152e-95
321.10 1.349152e-95
321.20 1.349152e-95
321.30 1.349152e-95
321.40 1.349152e-95
321.50 1.349152e-95
321.60 1.349152e-95
321.70 1.349152e-95
321.80 1.349152e-95
321.90 1.349152e-95
322.00 1.349152e-95
322.10 1.349152e-95
322.20 1.349152e-95
322.30 1.349152e-95
322.40 1.349152e-95
322.50 1.349152e-95
322.60 1.349152e-95
322.70 1.349152e-95
322.80 1.349152e-95
322.90 1.349152e-95
323.00 1.349152e-95
323.10 1.349152e-95
323.20 1.349152e-95
323.30 1.349152e-95
323.40 1.349152e-95
323.50 1.349152e-95
323.60 1.349152e-95
323.70 1.349152e-95
323.80 1.349152e-95
323.90 1.349152e-95
324.00 1.349152e-95
324.10 1.349152e-95
324.20 1.349152e-95
324.30 1.349152e-95
324.40 1.349152e-95
324.50 1.349152e-95
324.60 1.349152e-95
324.70 1.349152e-95
324.80 1.349152e-95
324.90 1.349152e-95
325.00 1.349152e-95
325.10 1.349152e-95
325.20 1.349152e-95
325.30 1.349152e-95
325.40 1.349152e-95
325.50 1.349152e-95
325.60 1.349152e-95
325.70 1.349152e-95
325.80 1.349152e-95
325.90 1.349152e-95
326.00 1.349152e-95
326.10 1.349152e-95
326.20 1.349152e-95
326.30 1.349152e-95
326.40 1.349152e-95
326.50 1.349152e-95
326.60 1.349152e-95
326.70 1.349152e-95
326.80 1.349152e-95
326.90 1.349152e-95
327.00 1.349152e-95
327.10 1.349152e-95
327.20 1.349152e-95
327.30 1.349152e-95
327.40 1.349152e-95
327.50 1.349152e-95
327.60 1.349152e-95
327.70 1.349152e-95
327.80 1.349152e-95
327.90 1.349152e-95
328.00 1.349152e-95
328.10 1.349152e-95
328.20 1.349152e-95
328.30 1.349152e-95
328.40 1.349152e-95
328.50 1.349152e-95
328.60 1.349152e-95
328.70 1.349152e-95
328.80 1.349152e-95
328.90 1.349152e-95
329.00 1.349152e-95
329.10 1.349152e-95
329.20 1.349152e-95
329.30 1.349152e-95
329.40 1.349152e-95
329.50 1.349152e-95
329.60 1.349152e-95
329.70 1.349152e-95
329.80 1.349152e-95
329.90 1.349152e-95
330.00 1.349152e-95
330.10 1.349152e-95
330.20 1.349152e-95
330.30 1.349152e-95
330.40 1.349152e-95
330.50 1.349152e-95
330.60 1.349152e-95
330.70 1.349152e-95
330.80 1.349152e-95
330.90 1.349152e-95
331.00 1.349152e-95
331.10 1.349152e-95
331.20 1.349152e-95
331.30 1.349152e-95
331.40 1.349152e-95
331.50 1.349152e-95
331.60 1.349152e-95
331.70 1.349152e-95
331.80 1.349152e-95
331.90 1.349152e-95
332.00 1.349152e-95
332.10 1.349152e-95
332.20 1.349152e-95
332.30 1.349152e-95
332.40 1.349152e-95
332.50 1.349152e-95
332.60 1.349152e-95
332.70 1.349152e-95
332.80 1.349152e-95
332.90 1.349152e-95
333.00 1.349152e-95
333.10 1.349152e-95
333.20 1.349152e-95
333.30 1.349152e-95
333.40 1.349152e-95
333.50 1.349152e-95
333.60 1.349152e-95
333.70 1.349152e-95
333.80 1.349152e-95
333.90 1.349152e-95
334.00 1.349152e-95
334.10 1.349152e-95
334.20 1.349152e-95
334.30 1.349152e-95
334.40 1.349152e-95
334.50 1.349152e-95
334.60 1.349152e-95
334.70 1.349152e-95
334.80 1.349152e-95
334.90 1.349152e-95
335.00 1.349152e-95
335.10 1.349152e-95
335.20 1.349152e-95
335.30 1.349152e-95
335.40 1.349152e-95
335.50 1.349152e-95
335.60 1.349152e-95
335.70 1.349152e-95
335.80 1.349152e-95
335.90 1.349152e-95
336.00 1.349152e-95
336.10 1.349152e-95
336.20 1.349152e-95
336.30 1.349152e-95
336.40 1.349152e-95
336.50 1.349152e-95
336.60 1.349152e-95
336.70 1.349152e-95
336.80 1.349152e-95
336.90 1.349152e-95
337.00 1.349152e-95
337.10 1.349152e-95
337.20 1.349152e-95
337.30 1.349152e-95
337.40 1.349152e-95
337.50 1.349152e-95
337.60 1.349152e-95
337.70 1.349152e-95
337.80 1.349152e-95
337.90 1.349152e-95
338.00 1.349152e-95
338.10 1.349152e-95
338.20 1.349152e-95
338.30 1.349152e-95
338.40 1.349152e-95
338.50 1.349152e-95
338.60 1.349152e-95
338.70 1.349152e-95
338.80 1.349152e-95
338.90 1.349152e-95
339.00 1.349152e-95
339.10 1.349152e-95
339.20 1.349152e-95
339.30 1.349152e-95
339.40 1.349152e-95
339.50 1.349152e-95
339.60 1.349152e-95
339.70 1.349152e-95
339.80 1.349152e-95
339.90 1.349152e-95
340.00 1.349152e-95
340.10 1.349152e-95
340.20 1.349152e-95
340.30 1.349152e-95
340.40 1.349152e-95
340.50 1.349152e-95
340.60 1.349152e-95
340.70 1.349152e-95
340.80 1.349152e-95
340.90 1.349152e-95
341.00 1.349152e-95
341.10 1.349152e-95
341.20 1.349152e-95
341.30 1.349152e-95
341.40 1.349152e-95
341.50 1.349152e-95
341.60 1.349152e-95
341.70 1.349152e-95
341.80 1.349152e-95
341.90 1.349152e-95
342.00 1.349152e-95
342.10 1.349152e-95
342.20 1.349152e-95
342.30 1.349152e-95
342.40 1.349152e-95
342.50 1.349152e-95
342.60 1.349152e-95
342.70 1.349152e-95
342.80 1.349152e-95
342.90 1.349152e-95
343.00 1.349152e-95
343.10 1.349152e-95
343.20 1.349152e-95
343.30 1.349152e-95
343.40 1.349152e-95
343.50 1.349152e-95
343.60 1.349152e-95
343.70 1.349152e-95
343.80 1.349152e-95
343.90 1.349152e-95
344.00 1.349152e-95
344.10 1.349152e-95
344.20 1.349152e-95
344.30 1.349152e-95
344.40 1.349152e-95
344.50 1.349152e-95
344.60 1.349152e-95
344.70 1.349152e-95
344.80 1.349152e-95
344.90 1.349152e-95
345.00 1.349152e-95
345.10 1.349152e-95
345.20 1.349152e-95
345.30 1.349152e-95
345.40 1.349152e-95
345.50 1.349152e-95
345.60 1.349152e-95
345.70 1.349152e-95
345.80 1.349152e-95
345.90 1.349152e-95
346.00 1.349152e-95
346.10 1.349152e-95
346.20 1.349152e-95
346.30 1.349152e-95
346.40 1.349152e-95
346.50 1.349152e-95
346.60 1.349152e-95
346.70 1.349152e-95
346.80 1.349152e-95
346.90 1.349152e-95
347.00 1.349152e-95
347.10 1.349152e-95
347.20 1.349152e-95
347.30 1.349152e-95
347.40 1.349152e-95
347.50 1.349152e-95
347.60 1.349152e-95
347.70 1.349152e-95
347.80 1.349152e-95
347.90 1.349152e-95
348.00 1.349152e-95
348.10 1.349152e-95
348.20 1.349152e-95
348.30 1.349152e-95
348.40 1.349152e-95
348.50 1.349152e-95
348.60 1.349152e-95
348.70 1.349152e-95
348.80 1.349152e-95
348.90 1.349152e-95
349.00 1.349152e-95
349.10 1.349152e-95
349.20 1.349152e-95
349.30 1.349152e-95
349.40 1.349152e-95
349.50 1.349152e-95
349.60 1.349152e-95
349.70 1.349152e-95
349.80 1.349152e-95
349.90 1.349152e-95
350.00 1.349152e-95
350.10 1.349152e-95
350.20 1.349152e-95
350.30 1.349152e-95
350.40 1.349152e-95
350.50 1.349152e-95
350.60 1.349152e-95
350.70 1.349152e-95
350.80 1.349152e-95
350.90 1.349152e-95
351.00 1.349152e-95
351.10 1.349152e-95
351.20 1.349152e-95
351.30 1.349152e-95
351.40 1.349152e-95
351.50 1.349152e-95
351.60 1.349152e-95
351.70 1.349152e-95
351.80 1.349152e-95
351.90 1.349152e-95
352.00 1.349152e-95
352.10 1.349152e-95
352.20 1.349152e-95
352.30 1.349152e-95
352.40 1.349152e-95
352.50 1.349152e-95
352.60 1.349152e-95
352.70 1.349152e-95
352.80 1.349152e-95
352.90 1.349152e-95
353.00 1.349152e-95
353.10 1.349152e-95
353.20 1.349152e-95
353.30 1.349152e-95
353.40 1.349152e-95
353.50 1.349152e-95
353.60 1.349152e-95
353.70 1.349152e-95
353.80 1.349152e-95
353.90 1.349152e-95
354.00 1.349152e-95
354.10 1.349152e-95
354.20 1.349152e-95
354.30 1.349152e-95
354.40 1.349152e-95
354.50 1.349152e-95
354.60 1.349152e-95
354.70 1.349152e-95
354.80 1.349152e-95
354.90 1.349152e-95
355.00 1.349152e-95
355.10 1.349152e-95
355.20 1.349152e-95
355.30 1.349152e-95
355.40 1.349152e-95
355.50 1.349152e-95
355.60 1.349152e-95
355.70 1.349152e-95
355.80 1.349152e-95
355.90 1.349152e-95
356.00 1.349152e-95
356.10 1.349152e-95
356.20 1.349152e-95
356.30 1.349152e-95
356.40 1.349152e-95
356.50 1.349152e-95
356.60 1.349152e-95
356.70 1.349152e-95
356.80 1.349152e-95
356.90 1.349152e-95
357.00 1.349152e-95
357.10 1.349152e-95
357.20 1.349152e-95
357.30 1.349152e-95
357.40 1.349152e-95
357.50 1.349152e-95
357.60 1.349152e-95
357.70 1.349152e-95
357.80 1.349152e-95
357.90 1.349152e-95
358.00 1.349152e-95
358.10 1.349152e-95
358.20 1.349152e-95
358.30 1.349152e-95
358.40 1.349152e-95
358.50 1.349152e-95
358.60 1.349152e-95
358.70 1.349152e-95
358.80 1.349152e-95
358.90 1.349152e-95
359.00 1.349152e-95
359.10 1.349152e-95
359.20 1.349152e-95
359.30 1.349152e-95
359.40 1.349152e-95
359.50 1.349152e-95
359.60 1.349152e-95
359.70 1.349152e-95
359.80 1.349152e-95
359.90 1.349152e-95
360.00 1.349152e-95
360.10 1.349152e-95
360.20 1.349152e-95
360.30 1.349152e-95
360.40 1.349152e-95
360.50 1.349152e-95
360.60 1.349152e-95
360.70 1.349152e-95
360.80 1.349152e-95
360.90 1.349152e-95
361.00 1.349152e-95
361.10 1.349152e-95
361.20 1.349152e-95
361.30 1.349152e-95
361.40 1.349152e-95
361.50 1.349152e-95
361.60 1.349152e-95
361.70 1.349152e-95
361.80 1.349152e-95
361.90 1.349152e-95
362.00 1.349152e-95
362.10 1.349152e-95
362.20 1.349152e-95
362.30 1.349152e-95
362.40 1.349152e-95
362.50 1.349152e-95
362.60 1.349152e-95
362.70 1.349152e-95
362.80 1.349152e-95
362.90 1.349152e-95
363.00 1.349152e-95
363.10 1.349152e-95
363.20 1.349152e-95
363.30 1.349152e-95
363.40 1.349152e-95
363.50 1.349152e-95
363.60 1.349152e-95
363.70 1.349152e-95
363.80 1.349152e-95
363.90 1.349152e-95
364.00 1.349152e-95
364.10 1.349152e-95
364.20 1.349152e-95
364.30 1.349152e-95
364.40 1.349152e-95
364.50 1.349152e-95
364.60 1.349152e-95
364.70 1.349152e-95
364.80 1.349152e-95
364.90 1.349152e-95
365.00 1.349152e-95
365.10 1.349152e-95
365.20 1.349152e-95
365.30 1.349152e-95
365.40 1.349152e-95
365.50 1.349152e-95
365.60 1.349152e-95
365.70 1.349152e-95
365.80 1.349152e-95
365.90 1.349152e-95
366.00 1.349152e-95
366.10 1.349152e-95
366.20 1.349152e-95
366.30 1.349152e-95
366.40 1.349152e-95
366.50 1.349152e-95
366.60 1.349152e-95
366.70 1.349152e-95
366.80 1.349152e-95
366.90 1.349152e-95
367.00 1.349152e-95
367.10 1.349152e-95
367.20 1.349152e-95
367.30 1.349152e-95
367.40 1.349152e-95
367.50 1.349152e-95
367.60 1.349152e-95
367.70 1.349152e-95
367.80 1.349152e-95
367.90 1.349152e-95
368.00 1.349152e-95
368.10 1.349152e-95
368.20 1.349152e-95
368.30 1.349152e-95
368.40 1.349152e-95
368.50 1.349152e-95
368.60 1.349152e-95
368.70 1.349152e-95
368.80 1.349152e-95
368.90 1.349152e-95
369.00 1.349152e-95
369.10 1.349152e-95
369.20 1.349152e-95
369.30 1.349152e-95
369.40 1.349152e-95
369.50 1.349152e-95
369.60 1.349152e-95
369.70 1.349152e-95
369.80 1.349152e-95
369.90 1.349152e-95
370.00 1.349152e-95
370.10 1.349152e-95
370.20 1.349152e-95
370.30 1.349152e-95
370.40 1.349152e-95
370.50 1.349152e-95
370.60 1.349152e-95
370.70 1.349152e-95
370.80 1.349152e-95
370.90 1.349152e-95
371.00 1.349152e-95
371.10 1.349152e-95
371.20 1.349152e-95
371.30 1.349152e-95
371.40 1.349152e-95
371.50 1.349152e-95
371.60 1.349152e-95
371.70 1.349152e-95
371.80 1.349152e-95
371.90 1.349152e-95
372.00 1.349152e-95
372.10 1.349152e-95
372.20 1.349152e-95
372.30 1.349152e-95
372.40 1.349152e-95
372.50 1.349152e-95
372.60 1.349152e-95
372.70 1.349152e-95
372.80 1.349152e-95
372.90 1.349152e-95
373.00 1.349152e-95
373.10 1.349152e-95
373.20 1.349152e-95
373.30 1.349152e-95
373.40 1.349152e-95
373.50 1.349152e-95
373.60 1.349152e-95
373.70 1.349152e-95
373.80 1.349152e-95
373.90 1.349152e-95
374.00 1.349152e-95
374.10 1.349152e-95
374.20 1.349152e-95
374.30 1.349152e-95
374.40 1.349152e-95
374.50 1.349152e-95
374.60 1.349152e-95
374.70 1.349152e-95
374.80 1.349152e-95
374.90 1.349152e-95
375.00 1.349152e-95
375.10 1.349152e-95
375.20 1.349152e-95
375.30 1.349152e-95
375.40 1.349152e-95
375.50 1.349152e-95
375.60 1.349152e-95
375.70 1.349152e-95
375.80 1.349152e-95
375.90 1.349152e-95
376.00 1.349152e-95
376.10 1.349152e-95
376.20 1.349152e-95
376.30 1.349152e-95
376.40 1.349152e-95
376.50 1.349152e-95
376.60 1.349152e-95
376.70 1.349152e-95
376.80 1.349152e-95
376.90 1.349152e-95
377.00 1.349152e-95
377.10 1.349152e-95
377.20 1.349152e-95
377.30 1.349152e-95
377.40 1.349152e-95
377.50 1.349152e-95
377.60 1.349152e-95
377.70 1.349152e-95
377.80 1.349152e-95
377.90 1.349152e-95
378.00 1.349152e-95
378.10 1.349152e-95
378.20 1.349152e-95
378.30 1.349152e-95
378.40 1.349152e-95
378.50 1.349152e-95
378.60 1.349152e-95
378.70 1.349152e-95
378.80 1.349152e-95
378.90 1.349152e-95
379.00 1.349152e-95
379.10 1.349152e-95
379.20 1.349152e-95
379.30 1.349152e-95
379.40 1.349152e-95
379.50 1.349152e-95
379.60 1.349152e-95
379.70 1.349152e-95
379.80 1.349152e-95
379.90 1.349152e-95
380.00 1.349152e-95
380.10 1.349152e-95
380.20 1.349152e-95
380.30 1.349152e-95
380.40 1.349152e-95
380.50 1.349152e-95
380.60 1.349152e-95
380.70 1.349152e-95
380.80 1.349152e-95
380.90 1.349152e-95
381.00 1.349152e-95
381.10 1.349152e-95
381.20 1.349152e-95
381.30 1.349152e-95
381.40 1.349152e-95
381.50 1.349152e-95
381.60 1.349152e-95
381.70 1.349152e-95
381.80 1.349152e-95
381.90 1.349152e-95
382.00 1.349152e-95
382.10 1.349152e-95
382.20 1.349152e-95
382.30 1.349152e-95
382.40 1.349152e-95
382.50 1.349152e-95
382.60 1.349152e-95
382.70 1.349152e-95
382.80 1.349152e-95
382.90 1.349152e-95
383.00 1.349152e-95
383.10 1.349152e-95
383.20 1.349152e-95
383.30 1.349152e-95
383.40 1.349152e-95
383.50 1.349152e-95
383.60 1.349152e-95
383.70 1.349152e-95
383.80 1.349152e-95
383.90 1.349152e-95
384.00 1.349152e-95
384.10 1.349152e-95
384.20 1.349152e-95
384.30 1.349152e-95
384.40 1.349152e-95
384.50 1.349152e-95
384.60 1.349152e-95
384.70 1.349152e-95
384.80 1.349152e-95
384.90 1.349152e-95
385.00 1.349152e-95
385.10 1.349152e-95
385.20 1.349152e-95
385.30 1.349152e-95
385.40 1.349152e-95
385.50 1.349152e-95
385.60 1.349152e-95
385.70 1.349152e-95
385.80 1.349152e-95
385.90 1.349152e-95
386.00 1.349152e-95
386.10 1.349152e-95
386.20 1.349152e-95
386.30 1.349152e-95
386.40 1.349152e-95
386.50 1.349152e-95
386.60 1.349152e-95
386.70 1.349152e-95
386.80 1.349152e-95
386.90 1.349152e-95
387.00 1.349152e-95
387.10 1.349152e-95
387.20 1.349152e-95
387.30 1.349152e-95
387.40 1.349152e-95
387.50 1.349152e-95
387.60 1.349152e-95
387.70 1.349152e-95
387.80 1.349152e-95
387.90 1.349152e-95
388.00 1.349152e-95
388.10 1.349152e-95
388.20 1.349152e-95
388.30 1.349152e-95
388.40 1.349152e-95
388.50 1.349152e-95
388.60 1.349152e-95
388.70 1.349152e-95
388.80 1.349152e-95
388.90 1.349152e-95
389.00 1.349152e-95
389.10 1.349152e-95
389.20 1.349152e-95
389.30 1.349152e-95
389.40 1.349152e-95
389.50 1.349152e-95
389.60 1.349152e-95
389.70 1.349152e-95
389.80 1.349152e-95
389.90 1.349152e-95
390.00 1.349152e-95
390.10 1.349152e-95
390.20 1.349152e-95
390.30 1.349152e-95
390.40 1.349152e-95
390.50 1.349152e-95
390.60 1.349152e-95
390.70 1.349152e-95
390.80 1.349152e-95
390.90 1.349152e-95
391.00 1.349152e-95
391.10 1.349152e-95
391.20 1.349152e-95
391.30 1.349152e-95
391.40 1.349152e-95
391.50 1.349152e-95
391.60 1.349152e-95
391.70 1.349152e-95
391.80 1.349152e-95
391.90 1.349152e-95
392.00 1.349152e-95
392.10 1.349152e-95
392.20 1.349152e-95
392.30 1.349152e-95
392.40 1.349152e-95
392.50 1.349152e-95
392.60 1.349152e-95
392.70 1.349152e-95
392.80 1.349152e-95
392.90 1.349152e-95
393.00 1.349152e-95
393.10 1.349152e-95
393.20 1.349152e-95
393.30 1.349152e-95
393.40 1.349152e-95
393.50 1.349152e-95
393.60 1.349152e-95
393.70 1.349152e-95
393.80 1.349152e-95
393.90 1.349152e-95
394.00 1.349152e-95
394.10 1.349152e-95
394.20 1.349152e-95
394.30 1.349152e-95
394.40 1.349152e-95
394.50 1.349152e-95
394.60 1.349152e-95
394.70 1.349152e-95
394.80 1.349152e-95
394.90 1.349152e-95
395.00 0.007355599
395.10 0.007355599
395.20 0.007355599
395.30 0.007355599
395.40 0.007355599
395.50 0.007355599
395.60 0.007355599
395.70 0.007355599
395.80 0.007355599
395.90 0.007355599
396.00 0.007355599
396.10 0.007544701
396.20 0.007544701
396.30 0.007544701
396.40 0.007544701
396.50 0.007544701
396.60 0.007544701
396.70 0.007544701
396.80 0.007544701
396.90 0.007544701
397.00 0.007544701
397.10 0.007544701
397.20 0.007544701
397.30 0.007544701
397.40 0.007544701
397.50 0.007544701
397.60 0.009920406
397.70 0.02266493
397.80 0.04976397
397.90 0.09147881
398.00 0.1449543
398.10 0.2051491
398.20 0.2651447
398.30 0.3182771
398.40 0.3611081
398.50 0.3938777
398.60 0.4204389
398.70 0.4475347
398.80 0.4832243
398.90 0.5344022
399.00 0.6049079
399.10 0.6957281
399.20 0.8044885
399.30 0.9258118
399.40 1.051789
399.50 1.172798
399.60 1.280214
399.70 1.36749
399.80 1.430412
399.90 1.466372
400.00 1.474116
400.10 1.474116
400.20 1.474116
400.30 1.474116
400.40 1.474116
400.50 1.474116
400.60 1.474116
400.70 1.474116
400.80 1.474116
400.90 1.474116
401.00 1.474116
401.10 1.474494
401.20 1.482665
401.30 1.500247
401.40 1.528963
401.50 1.569548
401.60 1.618745
401.70 1.670664
401.80 1.718882
401.90 1.758271
402.00 1.786764
402.10 1.805339
402.20 1.817356
402.30 1.828814
402.40 1.845979
402.50 1.871262
402.60 1.905064
402.70 1.948377
402.80 2.000908
402.90 2.060104
403.00 2.122676
403.10 2.185355
403.20 2.246029
403.30 2.305177
403.40 2.365841
403.50 2.431137
403.60 2.50264
403.70 2.579418
403.80 2.658344
403.90 2.735836
404.00 2.808934
404.10 2.876175
404.20 2.937247
404.30 2.993001
404.40 3.045565
404.50 3.097837
404.60 3.151985
404.70 3.206987
404.80 3.25997
404.90 3.309668
405.00 3.348569
405.10 3.391473
405.20 3.433174
405.30 3.477326
405.40 3.52482
405.50 3.572799
405.60 3.61716
405.70 3.654423
405.80 3.681869
405.90 3.697879
406.00 3.70285
406.10 3.702661
406.20 3.702661
406.30 3.702661
406.40 3.702661
406.50 3.702661
406.60 3.702661
406.70 3.702661
406.80 3.702661
406.90 3.702661
407.00 3.702661
407.10 3.702661
407.20 3.702661
407.30 3.702661
407.40 3.702661
407.50 3.702661
407.60 3.700285
407.70 3.687541
407.80 3.660442
407.90 3.618727
408.00 3.565252
408.10 3.505057
408.20 3.445061
408.30 3.391929
408.40 3.349098
408.50 3.316328
408.60 3.289767
408.70 3.262671
408.80 3.226981
408.90 3.180605
409.00 3.118709
409.10 3.037862
409.20 2.938397
409.30 2.824554
409.40 2.703465
409.50 2.584157
409.60 2.476741
409.70 2.389465
409.80 2.326543
409.90 2.290582
410.00 2.282839
410.10 2.282839
410.20 2.282839
410.30 2.282839
410.40 2.282839
410.50 2.282839
410.60 2.290997
410.70 2.313357
410.80 2.351407
410.90 2.40336
411.00 2.465093
411.10 2.530478
411.20 2.585578
411.30 2.622705
411.40 2.635853
411.50 2.623818
411.60 2.593262
411.70 2.555468
411.80 2.520726
411.90 2.495981
412.00 2.484442
412.10 2.483868
412.20 2.488196
412.30 2.489305
412.40 2.479366
412.50 2.454384
412.60 2.420583
412.70 2.37727
412.80 2.324738
412.90 2.265542
413.00 2.202971
413.10 2.140292
413.20 2.079618
413.30 2.02047
413.40 1.959806
413.50 1.894509
413.60 1.823007
413.70 1.746228
413.80 1.667303
413.90 1.589811
414.00 1.516713
414.10 1.449472
414.20 1.388399
414.30 1.332645
414.40 1.280081
414.50 1.22781
414.60 1.173662
414.70 1.11866
414.80 1.065676
414.90 1.015979
415.00 0.9697219
415.10 0.9268183
415.20 0.8851167
415.30 0.8409646
415.40 0.7934711
415.50 0.7454923
415.60 0.7011307
415.70 0.6638685
415.80 0.6364222
415.90 0.6251608
416.00 0.634482
416.10 0.6598432
416.20 0.6966241
416.30 0.7444838
416.40 0.8020602
416.50 0.8664611
416.60 0.9329614
416.70 0.996017
416.80 1.050753
416.90 1.094079
417.00 1.125104
417.10 1.144329
417.20 1.152566
417.30 1.152566
417.40 1.152566
417.50 1.152566
417.60 1.152566
417.70 1.152566
417.80 1.152566
417.90 1.152566
418.00 1.152566
418.10 1.152566
418.20 1.152566
418.30 1.152566
418.40 1.152566
418.50 1.152566
418.60 1.152566
418.70 1.152566
418.80 1.152566
418.90 1.147765
419.00 1.139155
419.10 1.129182
419.20 1.119886
419.30 1.112407
419.40 1.107518
419.50 1.105817
419.60 1.105817
419.70 1.105817
419.80 1.105817
419.90 1.105817
420.00 1.105817
420.10 1.105817
420.20 1.105817
420.30 1.105817
420.40 1.105817
420.50 1.105817
420.60 1.097659
420.70 1.075299
420.80 1.037249
420.90 0.9852955
421.00 0.9235634
421.10 0.8577995
421.20 0.7945286
421.30 0.7398201
421.40 0.6979555
421.50 0.6726062
421.60 0.6636358
421.70 0.6645968
421.80 0.6700081
421.90 0.6780527
422.00 0.6882182
422.10 0.701004
422.20 0.7178275
422.30 0.7390577
422.40 0.7633379
422.50 0.7893034
422.60 0.8075658
422.70 0.8150878
422.80 0.8150878
422.90 0.8150878
423.00 0.8150878
423.10 0.8150878
423.20 0.8150878
423.30 0.8150878
423.40 0.8150878
423.50 0.8150878
423.60 0.8150878
423.70 0.8150878
423.80 0.8150878
423.90 0.8150878
424.00 0.8150878
424.10 0.8150878
424.20 0.8150878
424.30 0.8150878
424.40 0.8150878
424.50 0.8150878
424.60 0.8255575
424.70 0.8508141
424.80 0.8914762
424.90 0.9462736
425.00 1.012686
425.10 1.086409
425.20 1.161654
425.30 1.232817
425.40 1.295063
425.50 1.344744
425.60 1.381598
425.70 1.4089
425.80 1.431295
425.90 1.449122
426.00 1.460881
426.10 1.465383
426.20 1.46164
426.30 1.448956
426.40 1.426868
426.50 1.396537
426.60 1.361482
426.70 1.326514
426.80 1.296363
426.90 1.274373
427.00 1.26062
427.10 1.251968
427.20 1.245244
427.30 1.245244
427.40 1.245244
427.50 1.245244
427.60 1.245244
427.70 1.245244
427.80 1.245244
427.90 1.245244
428.00 1.245244
428.10 1.245244
428.20 1.245244
428.30 1.245244
428.40 1.245244
428.50 1.245244
428.60 1.245244
428.70 1.245244
428.80 1.245244
428.90 1.245244
429.00 1.245244
429.10 1.245244
429.20 1.245244
429.30 1.251978
429.40 1.267072
429.50 1.289372
429.60 1.319353
429.70 1.357606
429.80 1.403327
429.90 1.455785
430.00 1.514982
430.10 1.579822
430.20 1.647149
430.30 1.712062
430.40 1.768399
430.50 1.809798
430.60 1.832838
430.70 1.839974
430.80 1.840545
430.90 1.845575
431.00 1.861905
431.10 1.89228
431.20 1.935686
431.30 1.985685
431.40 2.032021
431.50 2.062108
431.60 2.066343
431.70 2.051257
431.80 2.03237
431.90 2.00968
432.00 1.982562
432.10 1.951775
432.20 1.918606
432.30 1.884809
432.40 1.853303
432.50 1.827036
432.60 1.808773
432.70 1.801251
432.80 1.801251
432.90 1.801251
433.00 1.801251
433.10 1.801251
433.20 1.801251
433.30 1.801251
433.40 1.801251
433.50 1.801251
433.60 1.801251
433.70 1.801251
433.80 1.801251
433.90 1.801251
434.00 1.801251
434.10 1.801251
434.20 1.801251
434.30 1.801251
434.40 1.801251
434.50 1.801251
434.60 1.790782
434.70 1.765525
434.80 1.724863
434.90 1.670065
435.00 1.603653
435.10 1.52993
435.20 1.454685
435.30 1.383522
435.40 1.321276
435.50 1.271595
435.60 1.234741
435.70 1.207439
435.80 1.185044
435.90 1.162467
436.00 1.136416
436.10 1.106553
436.20 1.073516
436.30 1.03834
436.40 1.002852
436.50 0.9687815
436.60 0.938971
436.70 0.9195605
436.80 0.9124132
436.90 0.9173767
437.00 0.9323863
437.10 0.9540241
437.20 0.97783
437.30 0.9909002
437.40 0.9909002
437.50 0.9909002
437.60 0.9909002
437.70 0.9909002
437.80 0.9909002
437.90 0.9909002
438.00 0.9909002
438.10 0.9909002
438.20 0.9909002
438.30 0.9909002
438.40 0.9909002
438.50 0.9909002
438.60 0.9909002
438.70 0.9909002
438.80 0.9909002
438.90 0.9909002
439.00 0.9909002
439.10 0.9909002
439.20 0.9909002
439.30 0.9841653
439.40 0.9690719
439.50 0.9467721
439.60 0.9167911
439.70 0.8785374
439.80 0.8328164
439.90 0.7873588
440.00 0.7428491
440.10 0.6981094
440.20 0.6530376
440.30 0.6086159
440.40 0.5677431
440.50 0.5357366
440.60 0.5168294
440.70 0.5104962
440.80 0.5099259
440.90 0.5048954
441.00 0.4885652
441.10 0.458191
441.20 0.414785
441.30 0.364786
441.40 0.3184492
441.50 0.2851629
441.60 0.2712568
441.70 0.2712568
441.80 0.2712568
441.90 0.2712568
442.00 0.2712568
442.10 0.2712568
442.20 0.2730364
442.30 0.2743905
442.40 0.2743905
442.50 0.2743905
442.60 0.2743905
442.70 0.2743905
442.80 0.2743905
442.90 0.2743905
443.00 0.2743905
443.10 0.2743905
443.20 0.2743905
443.30 0.2743905
443.40 0.2743905
443.50 0.2743905
443.60 0.2744877
443.70 0.2824764
443.80 0.2970857
443.90 0.3170039
444.00 0.3425199
444.10 0.3740915
444.20 0.4118115
444.30 0.4568373
444.40 0.5095742
444.50 0.5681273
444.60 0.6294249
444.70 0.6889382
444.80 0.7402635
444.90 0.7779921
445.00 0.800091
445.10 0.8072969
445.20 0.8072969
445.30 0.8072969
445.40 0.8072969
445.50 0.8072969
445.60 0.8072969
445.70 0.8072969
445.80 0.8072969
445.90 0.8072969
446.00 0.8072969
446.10 0.8072969
446.20 0.8072969
446.30 0.8072969
446.40 0.8072969
446.50 0.8072969
446.60 0.8056619
446.70 0.7969851
446.80 0.7795475
446.90 0.753248
447.00 0.7209663
447.10 0.6887562
447.20 0.6634372
447.30 0.6546418
447.40 0.6763307
447.50 0.7152472
447.60 0.7684893
447.70 0.8310671
447.80 0.8968553
447.90 0.9597103
448.00 1.01424
448.10 1.056921
448.20 1.086797
448.30 1.104955
448.40 1.114231
448.50 1.117977
448.60 1.118555
448.70 1.118555
448.80 1.118555
448.90 1.118555
449.00 1.11917
449.10 1.122948
449.20 1.129728
449.30 1.138043
449.40 1.145966
449.50 1.151448
449.60 1.15239
449.70 1.15239
449.80 1.15239
449.90 1.14539
450.00 1.130703
450.10 1.110603
450.20 1.088545
450.30 1.075255
450.40 1.073321
450.50 1.081838
450.60 1.097546
450.70 1.116382
450.80 1.132475
450.90 1.140019
451.00 1.140019
451.10 1.140019
451.20 1.140019
451.30 1.140019
451.40 1.140019
451.50 1.140019
451.60 1.140019
451.70 1.140019
451.80 1.140019
451.90 1.140019
452.00 1.140019
452.10 1.140019
452.20 1.138239
452.30 1.136885
452.40 1.136926
452.50 1.136951
452.60 1.136951
452.70 1.136951
452.80 1.136951
452.90 1.136951
453.00 1.136951
453.10 1.136951
453.20 1.136951
453.30 1.138593
453.40 1.146578
453.50 1.160849
453.60 1.180933
453.70 1.198003
453.80 1.212704
453.90 1.225789
454.00 1.234474
454.10 1.23468
454.20 1.223327
454.30 1.197616
454.40 1.157179
454.50 1.105738
454.60 1.050537
454.70 1.000337
454.80 0.9640988
454.90 0.9477014
455.00 0.9511005
455.10 0.9701167
455.20 0.9933132
455.30 1.011102
455.40 1.023821
455.50 1.03297
455.60 1.039548
455.70 1.043528
455.80 1.044509
455.90 1.044509
456.00 1.044509
456.10 1.044509
456.20 1.044509
456.30 1.044509
456.40 1.044509
456.50 1.044509
456.60 1.044509
456.70 1.044509
456.80 1.044509
456.90 1.044509
457.00 1.044509
457.10 1.046961
457.20 1.062669
457.30 1.085864
457.40 1.099483
457.50 1.098799
457.60 1.081642
457.70 1.048771
457.80 1.003831
457.90 0.9516573
458.00 0.8972664
458.10 0.8545854
458.20 0.8247096
458.30 0.8065522
458.40 0.7972754
458.50 0.7935299
458.60 0.7995117
458.70 0.8176764
458.80 0.8470541
458.90 0.8857984
459.00 0.9286366
459.10 0.9679667
459.20 0.9994125
459.30 1.020119
459.40 1.029058
459.50 1.02775
459.60 1.026808
459.70 1.026808
459.80 1.026808
459.90 1.026808
460.00 1.026808
460.10 1.026808
460.20 1.026611
460.30 1.019409
460.40 1.005879
460.50 0.9879691
460.60 0.968128
460.70 0.9484894
460.80 0.9323963
460.90 0.9248526
461.00 0.9248526
461.10 0.9248526
461.20 0.9248526
461.30 0.9248526
461.40 0.9248526
461.50 0.9248526
461.60 0.9248526
461.70 0.9268511
461.80 0.9314314
461.90 0.9355835
462.00 0.9367061
462.10 0.9367061
462.20 0.9367061
462.30 0.9367061
462.40 0.936665
462.50 0.9366402
462.60 0.9366402
462.70 0.9366402
462.80 0.9366402
462.90 0.9366402
463.00 0.9366402
463.10 0.9366402
463.20 0.9366402
463.30 0.9349981
463.40 0.9315274
463.50 0.927547
463.60 0.9216398
463.70 0.9127176
463.80 0.8990133
463.90 0.8784735
464.00 0.8507642
464.10 0.8189856
464.20 0.7926193
464.30 0.773304
464.40 0.7610046
464.50 0.753892
464.60 0.7477954
464.70 0.7384819
464.80 0.7366514
464.90 0.7411287
465.00 0.7504008
465.10 0.7630349
465.20 0.7777043
465.30 0.7931674
465.40 0.8075688
465.50 0.8197299
465.60 0.830832
465.70 0.8431511
465.80 0.8586315
465.90 0.8766756
466.00 0.8968691
466.10 0.9184871
466.20 0.9403554
466.30 0.9612297
466.40 0.9792514
466.50 0.9922194
466.60 0.9982377
466.70 0.9982377
466.80 0.9982377
466.90 0.9982377
467.00 0.9982377
467.10 0.9957858
467.20 0.9800776
467.30 0.9526086
467.40 0.9173001
467.50 0.8790681
467.60 0.8429829
467.70 0.8134482
467.80 0.7968615
467.90 0.7943841
468.00 0.8068658
468.10 0.8243923
468.20 0.8467726
468.30 0.8722287
468.40 0.8975007
468.50 0.9193086
468.60 0.9279409
468.70 0.9154553
468.80 0.8860776
468.90 0.8473333
469.00 0.8038796
469.10 0.7607719
469.20 0.7225458
469.30 0.6935247
469.40 0.6766621
469.50 0.6724884
469.60 0.6760923
469.70 0.6919461
469.80 0.7189088
469.90 0.7528056
470.00 0.7880138
470.10 0.8186956
470.20 0.8397737
470.30 0.8484978
470.40 0.8484978
470.50 0.8484978
470.60 0.8484978
470.70 0.8484978
470.80 0.8484978
470.90 0.8506016
471.00 0.8636983
471.10 0.8858941
471.20 0.913693
471.30 0.9434365
471.40 0.9721439
471.50 0.9974874
471.60 1.017317
471.70 1.027399
471.80 1.024842
471.90 1.02069
472.00 1.019567
472.10 1.019567
472.20 1.019567
472.30 1.019567
472.40 1.019567
472.50 1.019567
472.60 1.019567
472.70 1.019567
472.80 1.019567
472.90 1.019567
473.00 1.019567
473.10 1.019567
473.20 1.019567
473.30 1.019567
473.40 1.015052
473.50 1.004762
473.60 0.9904879
473.70 0.9743518
473.80 0.9587456
473.90 0.9462818
474.00 0.939791
474.10 0.939791
474.20 0.939791
474.30 0.939791
474.40 0.939791
474.50 0.939791
474.60 0.939791
474.70 0.939791
474.80 0.926535
474.90 0.9007264
475.00 0.8659563
475.10 0.8271002
475.20 0.7892342
475.30 0.7559824
475.40 0.7288621
475.50 0.7075515
475.60 0.6898718
475.70 0.6735724
475.80 0.657111
475.90 0.639067
476.00 0.6188734
476.10 0.6004475
476.20 0.589265
476.30 0.5865581
476.40 0.5951341
476.50 0.6180412
476.60 0.6570054
476.70 0.709218
476.80 0.7644554
476.90 0.8162154
477.00 0.8570368
477.10 0.8815626
477.20 0.8881556
477.30 0.8881556
477.40 0.8881556
477.50 0.8881556
477.60 0.8881556
477.70 0.8879833
477.80 0.8837211
477.90 0.8755177
478.00 0.8628968
478.10 0.8453704
478.20 0.8280886
478.30 0.8198175
478.40 0.82332
478.50 0.8387205
478.60 0.8641501
478.70 0.8963668
478.80 0.9259542
478.90 0.9442945
479.00 0.951596
479.10 0.951596
479.20 0.951596
479.30 0.951596
479.40 0.951596
479.50 0.951596
479.60 0.9479922
479.70 0.9321383
479.80 0.9065969
479.90 0.8778056
480.00 0.8515041
480.10 0.8330325
480.20 0.8265335
480.30 0.8328791
480.40 0.8463455
480.50 0.8567234
480.60 0.8629539
480.70 0.8645901
480.80 0.8645901
480.90 0.8624864
481.00 0.8520307
481.10 0.8392058
481.20 0.830051
481.30 0.8318917
481.40 0.8516897
481.50 0.8935861
481.60 0.9579609
481.70 1.041946
481.80 1.140175
481.90 1.236038
482.00 1.319967
482.10 1.386376
482.20 1.432074
482.30 1.457084
482.40 1.465202
482.50 1.465202
482.60 1.465202
482.70 1.465202
482.80 1.465202
482.90 1.465202
483.00 1.465202
483.10 1.465202
483.20 1.465202
483.30 1.465202
483.40 1.465202
483.50 1.465202
483.60 1.465202
483.70 1.465202
483.80 1.465202
483.90 1.465202
484.00 1.465202
484.10 1.465202
484.20 1.465202
484.30 1.465202
484.40 1.46571
484.50 1.466001
484.60 1.466001
484.70 1.466001
484.80 1.466001
484.90 1.466001
485.00 1.466001
485.10 1.466001
485.20 1.466001
485.30 1.466001
485.40 1.466001
485.50 1.466001
485.60 1.466001
485.70 1.466001
485.80 1.466001
485.90 1.466001
486.00 1.466001
486.10 1.462809
486.20 1.452123
486.30 1.433956
486.40 1.407358
486.50 1.371483
486.60 1.3265
486.70 1.274288
486.80 1.21905
486.90 1.16729
487.00 1.126469
487.10 1.101943
487.20 1.09535
487.30 1.09535
487.40 1.09535
487.50 1.09535
487.60 1.09535
487.70 1.09535
487.80 1.09535
487.90 1.09535
488.00 1.09535
488.10 1.09535
488.20 1.090252
488.30 1.073067
488.40 1.044292
488.50 1.007084
488.60 0.9664621
488.70 0.9285663
488.80 0.9008335
488.90 0.8878087
489.00 0.885986
489.10 0.889808
489.20 0.8913266
489.30 0.8913266
489.40 0.8913266
489.50 0.8913266
489.60 0.8913266
489.70 0.8913266
489.80 0.8925828
489.90 0.8972733
490.00 0.9051079
490.10 0.9155188
490.20 0.9279773
490.30 0.9421469
490.40 0.9571594
490.50 0.9713577
490.60 0.9821996
490.70 0.9859606
490.80 0.9859606
490.90 0.9859606
491.00 0.9833195
491.10 0.9739486
491.20 0.9553046
491.30 0.9237204
491.40 0.8752149
491.50 0.807975
491.60 0.7237711
491.70 0.6277051
491.80 0.5274533
491.90 0.4315901
492.00 0.3476611
492.10 0.2812522
492.20 0.2355535
492.30 0.2105443
492.40 0.2024263
492.50 0.2024263
492.60 0.2086379
492.70 0.2213762
492.80 0.23876
492.90 0.2596202
493.00 0.2832045
493.10 0.30764
493.20 0.3311055
493.30 0.3524377
493.40 0.3713673
493.50 0.3896138
493.60 0.4100772
493.70 0.4345921
493.80 0.4623274
493.90 0.4913913
494.00 0.5197445
494.10 0.5443365
494.20 0.5617014
494.30 0.5690372
494.40 0.5685291
494.50 0.568238
494.60 0.568238
494.70 0.568238
494.80 0.568238
494.90 0.568238
495.00 0.568238
495.10 0.568238
495.20 0.568238
495.30 0.5731987
495.40 0.5797201
495.50 0.5839046
495.60 0.5839046
495.70 0.5839046
495.80 0.5839046
495.90 0.5839046
496.00 0.5839046
496.10 0.5839046
496.20 0.5839046
496.30 0.5839046
496.40 0.5839046
496.50 0.5839046
496.60 0.5839046
496.70 0.5839046
496.80 0.5839046
496.90 0.5880665
497.00 0.5975166
497.10 0.6120357
497.20 0.6318896
497.30 0.6571295
497.40 0.6874012
497.50 0.7218964
497.60 0.7591187
497.70 0.7972613
497.80 0.8340473
497.90 0.8671672
498.00 0.8944268
498.10 0.9139211
498.20 0.9249907
498.30 0.9278807
498.40 0.9278807
498.50 0.9278807
498.60 0.9278807
498.70 0.9278807
498.80 0.9260261
498.90 0.9207105
499.00 0.9152318
499.10 0.9114097
499.20 0.9098912
499.30 0.9187347
499.40 0.9381012
499.50 0.9644514
499.60 0.9920931
499.70 1.014923
499.80 1.025315
499.90 1.016741
500.00 1
500.10 0.9773789
500.20 0.9503413
500.30 0.9211019
500.40 0.8926231
500.50 0.8680468
500.60 0.8509745
500.70 0.8455773
500.80 0.8455773
500.90 0.8455773
501.00 0.8455773
501.10 0.8455773
501.20 0.8455773
501.30 0.8455773
501.40 0.8455773
501.50 0.8499619
501.60 0.8650699
501.70 0.889673
501.80 0.9208872
501.90 0.9548926
502.00 0.9880286
502.10 1.017309
502.20 1.040211
502.30 1.054854
502.40 1.059758
502.50 1.059758
502.60 1.053546
502.70 1.040808
502.80 1.023424
502.90 1.002564
503.00 0.9789796
503.10 0.9545442
503.20 0.9310786
503.30 0.9097464
503.40 0.8908168
503.50 0.8725704
503.60 0.8521069
503.70 0.827592
503.80 0.7998567
503.90 0.7707929
504.00 0.7424397
504.10 0.7178476
504.20 0.700605
504.30 0.6932692
504.40 0.6932692
504.50 0.6932692
504.60 0.6932692
504.70 0.6932692
504.80 0.6932692
504.90 0.6932692
505.00 0.6940697
505.10 0.6980765
505.20 0.702646
505.30 0.7003141
505.40 0.6937927
505.50 0.6896082
505.60 0.6896082
505.70 0.6896082
505.80 0.6896082
505.90 0.6920496
506.00 0.6993335
506.10 0.7123038
506.20 0.7305606
506.30 0.7525534
506.40 0.775678
506.50 0.7973295
506.60 0.8159866
506.70 0.8315022
506.80 0.8442341
506.90 0.8499148
507.00 0.8476266
507.10 0.8389638
507.20 0.8251321
507.30 0.8067009
507.40 0.7828647
507.50 0.751828
507.60 0.7146058
507.70 0.6764631
507.80 0.6396772
507.90 0.6065573
508.00 0.5792976
508.10 0.5598034
508.20 0.5487338
508.30 0.5458438
508.40 0.5458438
508.50 0.5458438
508.60 0.5458438
508.70 0.5458438
508.80 0.5458438
508.90 0.5458438
509.00 0.5458438
509.10 0.5579236
509.20 0.5842367
509.30 0.614504
509.40 0.6430989
509.50 0.6676378
509.60 0.6873998
509.70 0.7028239
509.80 0.7149052
509.90 0.7242184
510.00 0.7242184
510.10 0.7242184
510.20 0.7242184
510.30 0.7242184
510.40 0.7242184
510.50 0.7242184
510.60 0.7242184
510.70 0.7242184
510.80 0.7251047
510.90 0.7310738
511.00 0.7411339
511.10 0.7542007
511.20 0.7690567
511.30 0.784401
511.40 0.7985637
511.50 0.8054619
511.60 0.7980691
511.70 0.7777607
511.80 0.7482328
511.90 0.7151949
512.00 0.6852117
512.10 0.6631629
512.20 0.6526146
512.30 0.6568747
512.40 0.6778094
512.50 0.7095119
512.60 0.7444477
512.70 0.7795304
512.80 0.8129663
512.90 0.8433062
513.00 0.8681288
513.10 0.8851474
513.20 0.8932468
513.30 0.8932468
513.40 0.8932468
513.50 0.8932468
513.60 0.8932468
513.70 0.8932468
513.80 0.8932468
513.90 0.8932468
514.00 0.8932468
514.10 0.8932468
514.20 0.8931246
514.30 0.8931246
514.40 0.8937859
514.50 0.8956363
514.60 0.8976239
514.70 0.8985328
514.80 0.8985328
514.90 0.8985328
515.00 0.8977322
515.10 0.8937254
515.20 0.889156
515.30 0.8865271
515.40 0.8877197
515.50 0.8913309
515.60 0.8946712
515.70 0.8961163
515.80 0.8961539
515.90 0.8941818
516.00 0.8894294
516.10 0.8823789
516.20 0.8740436
516.30 0.865809
516.40 0.8590696
516.50 0.8537255
516.60 0.8478156
516.70 0.8382523
516.80 0.8255204
516.90 0.8156778
517.00 0.808516
517.10 0.8026596
517.20 0.7966374
517.30 0.7898288
517.40 0.7833933
517.50 0.7799347
517.60 0.7799347
517.70 0.7799347
517.80 0.7799347
517.90 0.7799347
518.00 0.7799347
518.10 0.7799347
518.20 0.7799347
518.30 0.7799347
518.40 0.7799347
518.50 0.7799347
518.60 0.7799347
518.70 0.7799347
518.80 0.7799347
518.90 0.7799347
519.00 0.7799347
519.10 0.7681017
519.20 0.7425736
519.30 0.7034629
519.40 0.6555013
519.50 0.6046124
519.60 0.5572086
519.70 0.5189543
519.80 0.4938037
519.90 0.4832683
520.00 0.4832683
520.10 0.4832683
520.20 0.4832683
520.30 0.4832683
520.40 0.4832683
520.50 0.4832683
520.60 0.4832683
520.70 0.4832683
520.80 0.482382
520.90 0.4764129
521.00 0.4663529
521.10 0.4610791
521.20 0.4620702
521.30 0.4687876
521.40 0.4802638
521.50 0.4945959
521.60 0.5079206
521.70 0.5160688
521.80 0.5165809
521.90 0.5156134
522.00 0.5124606
522.10 0.5052289
522.20 0.4928749
522.30 0.4739722
522.40 0.4481336
522.50 0.4164311
522.60 0.3814953
522.70 0.3478402
522.80 0.3177298
522.90 0.2914751
523.00 0.2717522
523.10 0.2621457
523.20 0.2645292
523.30 0.2784515
523.40 0.295982
523.50 0.3168412
523.60 0.3410979
523.70 0.3685639
523.80 0.3976283
523.90 0.4257827
524.00 0.4497463
524.10 0.4660408
524.20 0.4719822
524.30 0.4719822
524.40 0.4713209
524.50 0.4694705
524.60 0.4674829
524.70 0.4665741
524.80 0.4665741
524.90 0.4665741
525.00 0.4665741
525.10 0.4665741
525.20 0.4665741
525.30 0.4665741
525.40 0.4653814
525.50 0.4643254
525.60 0.4680613
525.70 0.4792447
525.80 0.4975507
525.90 0.5197936
526.00 0.541308
526.10 0.5564167
526.20 0.5597514
526.30 0.5472631
526.40 0.5308779
526.50 0.5145706
526.60 0.5018234
526.70 0.495871
526.80 0.495871
526.90 0.495871
527.00 0.495871
527.10 0.495871
527.20 0.495871
527.30 0.495871
527.40 0.495871
527.50 0.495871
527.60 0.495871
527.70 0.495871
527.80 0.495871
527.90 0.495871
528.00 0.495871
528.10 0.495871
528.20 0.495871
528.30 0.495871
528.40 0.495871
528.50 0.495871
528.60 0.495871
528.70 0.495871
528.80 0.495871
528.90 0.495871
529.00 0.495871
529.10 0.4956242
529.20 0.4948391
529.30 0.4948391
529.40 0.4948391
529.50 0.4948391
529.60 0.4948391
529.70 0.4948391
529.80 0.4948391
529.90 0.4948391
530.00 0.4948391
530.10 0.4948391
530.20 0.4948391
530.30 0.4948391
530.40 0.4948391
530.50 0.4948391
530.60 0.4948391
530.70 0.4948391
530.80 0.4948391
530.90 0.4948391
531.00 0.4948391
531.10 0.487046
531.20 0.4711989
531.30 0.4491373
531.40 0.4234984
531.50 0.3978834
531.60 0.3768435
531.70 0.3644006
531.80 0.3622022
531.90 0.3622022
532.00 0.3622022
532.10 0.3622022
532.20 0.3700426
532.30 0.3835052
532.40 0.3987229
532.50 0.4115632
532.60 0.4181208
532.70 0.4166932
532.80 0.4133677
532.90 0.4092825
533.00 0.4041828
533.10 0.3967707
533.20 0.3949376
533.30 0.3973612
533.40 0.4018055
533.50 0.4053796
533.60 0.4039846
533.70 0.3945053
533.80 0.3763311
533.90 0.3507511
534.00 0.3267876
534.10 0.310493
534.20 0.3045516
534.30 0.3045516
534.40 0.3045516
534.50 0.3045516
534.60 0.3045516
534.70 0.3045516
534.80 0.3045516
534.90 0.3045516
535.00 0.3045516
535.10 0.3045516
535.20 0.3045516
535.30 0.3045516
535.40 0.3045516
535.50 0.3019966
535.60 0.2980871
535.70 0.2924002
535.80 0.2829218
535.90 0.2684654
536.00 0.2494961
536.10 0.2285577
536.20 0.2153016
536.30 0.2140316
536.40 0.2140316
536.50 0.2140316
536.60 0.2140316
536.70 0.2140316
536.80 0.2140316
536.90 0.2140316
537.00 0.2140316
537.10 0.2140316
537.20 0.2140316
537.30 0.2140316
537.40 0.2140316
537.50 0.2140316
537.60 0.2140316
537.70 0.2140316
537.80 0.2222378
537.90 0.2382279
538.00 0.2597726
538.10 0.2836994
538.20 0.3059834
538.30 0.3229192
538.40 0.3328514
538.50 0.3361622
538.60 0.3361622
538.70 0.3361622
538.80 0.3361622
538.90 0.3361622
539.00 0.3361622
539.10 0.3379218
539.20 0.3455954
539.30 0.358209
539.40 0.3735088
539.50 0.3890305
539.60 0.4026127
539.70 0.4126238
539.80 0.4174905
539.90 0.4174905
540.00 0.4174905
540.10 0.4174905
540.20 0.4174905
540.30 0.4174905
540.40 0.4174905
540.50 0.4199666
540.60 0.4233297
540.70 0.4258131
540.80 0.4265086
540.90 0.4265086
541.00 0.4265086
541.10 0.428142
541.20 0.434788
541.30 0.4494995
541.40 0.4739512
541.50 0.5065279
541.60 0.5431894
541.70 0.578859
541.80 0.6088383
541.90 0.6298899
542.00 0.6405734
542.10 0.6405734
542.20 0.632733
542.30 0.6192703
542.40 0.6040527
542.50 0.5912124
542.60 0.5846548
542.70 0.5846548
542.80 0.5846548
542.90 0.5909738
543.00 0.6044001
543.10 0.6237192
543.20 0.6382639
543.30 0.6466373
543.40 0.6487544
543.50 0.6457976
543.60 0.6394648
543.70 0.6308149
543.80 0.6214616
543.90 0.6188871
544.00 0.6188871
544.10 0.6188871
544.20 0.6188871
544.30 0.6188871
544.40 0.6188871
544.50 0.6188871
544.60 0.6188871
544.70 0.6188871
544.80 0.6188871
544.90 0.6188871
545.00 0.6188871
545.10 0.6188871
545.20 0.6188871
545.30 0.6188871
545.40 0.6188871
545.50 0.6188871
545.60 0.6157204
545.70 0.6087788
545.80 0.5999134
545.90 0.5916578
546.00 0.5865812
546.10 0.586491
546.20 0.586491
546.30 0.586491
546.40 0.586491
546.50 0.586491
546.60 0.586491
546.70 0.586491
546.80 0.586491
546.90 0.586491
547.00 0.586491
547.10 0.586491
547.20 0.586491
547.30 0.586491
547.40 0.586491
547.50 0.5870397
547.60 0.5901472
547.70 0.5956492
547.80 0.5944813
547.90 0.5861525
548.00 0.5719528
548.10 0.5546428
548.20 0.5387039
548.30 0.5282839
548.40 0.525625
548.50 0.531517
548.60 0.5445211
548.70 0.5631007
548.80 0.5874177
548.90 0.6155938
549.00 0.644671
549.10 0.669916
549.20 0.6849063
549.30 0.6892871
549.40 0.6848446
549.50 0.6737006
549.60 0.6601184
549.70 0.6501073
549.80 0.6452406
549.90 0.6452406
550.00 0.3505098
550.10 0.3022119
550.20 0.2442256
550.30 0.1824275
550.40 0.1221976
550.50 0.06987823
550.60 0.03632478
550.70 0.02673779
550.80 0.04049107
550.90 0.05964471
551.00 0.07800723
551.10 0.09454909
551.20 0.1104117
551.30 0.1267012
551.40 0.1448845
551.50 0.1678917
551.60 0.2004017
551.70 0.246851
551.80 0.3076434
551.90 0.3780835
552.00 0.4507766
552.10 0.518288
552.20 0.5749477
552.30 0.617434
552.40 0.6445768
552.50 0.6555213
552.60 0.6555213
552.70 0.6555213
552.80 0.6555213
552.90 0.6555213
553.00 0.6555213
553.10 0.6555213
553.20 0.6555213
553.30 0.6555213
553.40 0.6555213
553.50 0.6555213
553.60 0.6555213
553.70 0.6555213
553.80 0.6555213
553.90 0.6555213
554.00 0.6555213
554.10 0.6578475
554.20 0.6683105
554.30 0.6891149
554.40 0.7212389
554.50 0.7615856
554.60 0.8006703
554.70 0.8344349
554.80 0.862768
554.90 0.8875286
555.00 0.9122455
555.10 0.9401405
555.20 0.9849074
555.30 1.06777
555.40 1.190139
555.50 1.364553
555.60 1.6233
555.70 1.982249
555.80 2.437876
555.90 2.970242
556.00 3.546205
556.10 4.122454
556.20 4.653034
556.30 5.100125
556.40 5.441662
556.50 5.678423
556.60 5.817682
556.70 5.870844
556.80 5.885331
556.90 5.892872
557.00 5.893348
557.10 5.893348
557.20 5.893348
557.30 5.893348
557.40 5.893348
557.50 5.893348
557.60 5.905786
557.70 5.935252
557.80 5.984836
557.90 6.057269
558.00 6.150787
558.10 6.258801
558.20 6.373296
558.30 6.4915
558.40 6.6114
558.50 6.733168
558.60 6.857332
558.70 6.980023
558.80 7.092884
558.90 7.187543
559.00 7.257837
559.10 7.30053
559.20 7.301402
559.30 7.240609
559.40 7.121509
559.50 6.935929
559.60 6.650928
559.70 6.247163
559.80 5.730744
559.90 5.127938
560.00 4.479282
560.10 3.835521
560.20 3.248282
560.30 2.758705
560.40 2.390025
560.50 2.14232
560.60 2.00306
560.70 1.949898
560.80 1.935412
560.90 1.92787
561.00 1.927394
561.10 1.927394
561.20 1.927394
561.30 1.932152
561.40 1.945317
561.50 1.966544
561.60 1.984153
561.70 1.993306
561.80 1.988749
561.90 1.96482
562.00 1.921519
562.10 1.862578
562.20 1.791598
562.30 1.710528
562.40 1.616612
562.50 1.50335
562.60 1.366762
562.70 1.211498
562.80 1.052708
562.90 0.9141346
563.00 0.8007611
563.10 0.7136314
563.20 0.654155
563.30 0.6320415
563.40 0.6363537
563.50 0.6521033
563.60 0.6668825
563.70 0.6741952
563.80 0.6741952
563.90 0.6741952
564.00 0.6747414
564.10 0.6860368
564.20 0.7103138
564.30 0.7459431
564.40 0.7872321
564.50 0.8264529
564.60 0.8575066
564.70 0.8784333
564.80 0.8919074
564.90 0.9043181
565.00 0.9230798
565.10 0.9528291
565.20 0.9932635
565.30 1.034365
565.40 1.06489
565.50 1.078135
565.60 1.068014
565.70 1.031569
565.80 0.9865422
565.90 0.938038
566.00 0.8878205
566.10 0.8364217
566.20 0.8004279
566.30 0.7866697
566.40 0.7977666
566.50 0.83898
566.60 0.9126394
566.70 1.014998
566.80 1.131469
566.90 1.236402
567.00 1.322478
567.10 1.387576
567.20 1.432684
567.30 1.450842
567.40 1.453052
567.50 1.457734
567.60 1.489426
567.70 1.570256
567.80 1.704781
567.90 1.880057
568.00 2.083065
568.10 2.285071
568.20 2.465123
568.30 2.609676
568.40 2.71357
568.50 2.779136
568.60 2.81313
568.70 2.824932
568.80 2.823591
568.90 2.814277
569.00 2.799574
569.10 2.781278
569.20 2.763076
569.30 2.751882
569.40 2.753329
569.50 2.768782
569.60 2.795828
569.70 2.829202
569.80 2.846001
569.90 2.846001
570.00 2.846001
570.10 2.846001
570.20 2.828016
570.30 2.783836
570.40 2.71463
570.50 2.623194
570.60 2.515104
570.70 2.399655
570.80 2.29192
570.90 2.207424
571.00 2.156503
571.10 2.141943
571.20 2.159889
571.30 2.202154
571.40 2.25521
571.50 2.297752
571.60 2.304445
571.70 2.252449
571.80 2.131491
571.90 1.956215
572.00 1.752661
572.10 1.53936
572.20 1.335031
572.30 1.154849
572.40 1.009666
572.50 0.9048787
572.60 0.8398306
572.70 0.807102
572.80 0.7949695
572.90 0.7918726
573.00 0.7878139
573.10 0.7763609
573.20 0.7541282
573.30 0.7194626
573.40 0.6743255
573.50 0.6244006
573.60 0.577428
573.70 0.5418815
573.80 0.5250826
573.90 0.5250826
574.00 0.5250826
574.10 0.531606
574.20 0.5477465
574.30 0.5708331
574.40 0.5976102
574.50 0.6250853
574.60 0.6508245
574.70 0.6713882
574.80 0.6828351
574.90 0.6837026
575.00 0.6747159
575.10 0.6597902
575.20 0.6433866
575.30 0.6293518
575.40 0.6239287
575.50 0.6357144
575.60 0.6711035
575.70 0.7325679
575.80 0.8190072
575.90 0.9163006
576.00 1.007551
576.10 1.090839
576.20 1.164912
576.30 1.228668
576.40 1.282837
576.50 1.328525
576.60 1.364629
576.70 1.389956
576.80 1.404536
576.90 1.408599
577.00 1.408599
577.10 1.408599
577.20 1.408599
577.30 1.408599
577.40 1.408599
577.50 1.408599
577.60 1.408599
577.70 1.408599
577.80 1.408599
577.90 1.408599
578.00 1.408599
578.10 1.407263
578.20 1.419928
578.30 1.447709
578.40 1.489266
578.50 1.540769
578.60 1.597408
578.70 1.654343
578.80 1.704798
578.90 1.741921
579.00 1.761232
579.10 1.758153
579.20 1.729751
579.30 1.677268
579.40 1.601963
579.50 1.515363
579.60 1.420555
579.70 1.32131
579.80 1.221303
579.90 1.124009
580.00 1.032759
580.10 0.9494713
580.20 0.8753977
580.30 0.8116423
580.40 0.7574733
580.50 0.7117849
580.60 0.6756815
580.70 0.650354
580.80 0.6357741
580.90 0.6317112
581.00 0.6317112
581.10 0.6317112
581.20 0.6317112
581.30 0.6546122
581.40 0.6985045
581.50 0.7550894
581.60 0.8140664
581.70 0.8655292
581.80 0.9030149
581.90 0.9267569
582.00 0.9435003
582.10 0.9562544
582.20 0.9510603
582.30 0.928804
582.40 0.8907261
582.50 0.8404421
582.60 0.7851402
582.70 0.733909
582.80 0.6930364
582.90 0.664782
583.00 0.6483345
583.10 0.6417337
583.20 0.643104
583.30 0.6483207
583.40 0.6535751
583.50 0.6535751
583.60 0.6535751
583.70 0.6535751
583.80 0.6535751
583.90 0.6691196
584.00 0.7199443
584.10 0.8117727
584.20 0.94225
584.30 1.100106
584.40 1.267426
584.50 1.422903
584.60 1.54775
584.70 1.631989
584.80 1.676708
584.90 1.691758
585.00 1.691758
585.10 1.691758
585.20 1.703809
585.30 1.707722
585.40 1.698333
585.50 1.671226
585.60 1.624008
585.70 1.572545
585.80 1.535059
585.90 1.511317
586.00 1.494574
586.10 1.476632
586.20 1.45302
586.30 1.424409
586.40 1.394153
586.50 1.365459
586.60 1.338383
586.70 1.31026
586.80 1.280494
586.90 1.250322
587.00 1.22129
587.10 1.195357
587.20 1.173713
587.30 1.158346
587.40 1.152788
587.50 1.152788
587.60 1.152788
587.70 1.152788
587.80 1.152788
587.90 1.137574
588.00 1.105868
588.10 1.043529
588.20 0.9412471
588.30 0.7979744
588.40 0.6306537
588.50 0.4751766
588.60 0.3503299
588.70 0.2660907
588.80 0.2213726
588.90 0.2063226
589.00 0.2063226
589.10 0.2063226
589.20 0.194747
589.30 0.1827737
589.40 0.173037
589.50 0.1720639
589.60 0.1858794
589.70 0.2034976
589.80 0.2109133
589.90 0.2109133
590.00 0.2109133
590.10 0.2109133
590.20 0.2124797
590.30 0.2301842
590.40 0.2695646
590.50 0.3313641
590.60 0.4107424
590.70 0.4978089
590.80 0.578922
590.90 0.6404463
591.00 0.6723351
591.10 0.6723351
591.20 0.6723351
591.30 0.6723351
591.40 0.6723351
591.50 0.6723351
591.60 0.6723351
591.70 0.6723351
591.80 0.6723351
591.90 0.672004
592.00 0.6528857
592.10 0.6233963
592.20 0.5952006
592.30 0.5806176
592.40 0.5806176
592.50 0.5806176
592.60 0.5806176
592.70 0.5806176
592.80 0.5806176
592.90 0.5806176
593.00 0.5806176
593.10 0.5806176
593.20 0.5801417
593.30 0.5653009
593.40 0.540534
593.50 0.5120298
593.60 0.4864556
593.70 0.4688375
593.80 0.4614218
593.90 0.4614218
594.00 0.4614218
594.10 0.4614218
594.20 0.4598554
594.30 0.4421508
594.40 0.4027704
594.50 0.3409709
594.60 0.2615927
594.70 0.1745262
594.80 0.09341308
594.90 0.03188878
595.00 0
595.10 0
595.20 0
595.30 0
595.40 0
595.50 0.01877948
595.60 0.0538211
595.70 0.1001805
595.80 0.1521998
595.90 0.2042315
596.00 0.2523014
596.10 0.2944458
596.20 0.3302673
596.30 0.3606043
596.40 0.3856714
596.50 0.4052542
596.60 0.4198373
596.70 0.4291057
596.80 0.4315218
596.90 0.4315218
597.00 0.4315218
597.10 0.4315218
597.20 0.4315218
597.30 0.4315218
597.40 0.4315218
597.50 0.4315218
597.60 0.437735
597.70 0.4564873
597.80 0.4919077
597.90 0.5429518
598.00 0.6031418
598.10 0.6655672
598.20 0.7263419
598.30 0.7824394
598.40 0.8297127
598.50 0.8652681
598.60 0.8900313
598.70 0.9082434
598.80 0.9263025
598.90 0.9520134
599.00 0.9909365
599.10 1.045059
599.20 1.114083
599.30 1.196271
599.40 1.288467
599.50 1.365172
599.60 1.418208
599.70 1.441156
599.80 1.431196
599.90 1.38883
600.00 2.407596
600.10 2.497018
600.20 2.43099
600.30 2.2439
600.40 1.89093
600.50 1.422219
600.60 0.9905254
600.70 0.7284865
600.80 0.7223627
600.90 1.028434
601.00 1.556923
601.10 2.164895
601.20 2.760983
601.30 3.287484
601.40 3.687856
601.50 3.81939
601.60 3.523113
601.70 2.772291
601.80 1.682377
601.90 0.386621
602.00 0
602.10 0
602.20 0
602.30 0
602.40 0
602.50 0
602.60 0
602.70 0
602.80 0
602.90 0.5995455
603.00 1.596294
603.10 2.536261
603.20 3.348809
603.30 3.929976
603.40 4.187234
603.50 4.070783
603.60 3.590722
603.70 2.854069
603.80 2.109717
603.90 1.615051
604.00 1.514588
604.10 1.789559
604.20 2.324369
604.30 2.984508
604.40 3.556909
604.50 3.833695
604.60 3.73613
604.70 3.291421
604.80 2.587593
604.90 1.780395
605.00 1.072682
605.10 0.6187886
605.20 0.40722
605.30 0.3952318
605.40 0.5632155
605.50 0.8438997
605.60 1.169918
605.70 1.54225
605.80 1.998385
605.90 2.507312
606.00 2.984903
606.10 3.330594
606.20 3.46589
606.30 3.336174
606.40 2.969447
606.50 2.522322
606.60 2.172627
606.70 1.997064
606.80 1.981929
606.90 2.102471
607.00 2.325733
607.10 2.599223
607.20 2.866424
607.30 3.098561
607.40 3.299803
607.50 3.477621
607.60 3.637456
607.70 3.790785
607.80 3.944794
607.90 4.072913
608.00 4.135733
608.10 4.087521
608.20 3.866905
608.30 3.470127
608.40 2.968512
608.50 2.385883
608.60 1.736508
608.70 1.133565
608.80 0.7296613
608.90 0.6361026
609.00 0.8894255
609.10 1.429883
609.20 2.080713
609.30 2.614882
609.40 2.872178
609.50 2.884393
609.60 2.808579
609.70 2.750525
609.80 2.741984
609.90 2.855785
610.00 3.148732
610.10 3.552349
610.20 3.918059
610.30 4.128376
610.40 4.170366
610.50 4.078183
610.60 3.966106
610.70 3.995231
610.80 4.241671
610.90 4.601821
611.00 4.901785
611.10 5.041258
611.20 4.981237
611.30 4.714199
611.40 4.276716
611.50 3.720495
611.60 3.130642
611.70 2.62421
611.80 2.255805
611.90 2.068979
612.00 2.054703
612.10 2.136393
612.20 2.242923
612.30 2.341997
612.40 2.398115
612.50 2.340333
612.60 2.14878
612.70 1.881839
612.80 1.598557
612.90 1.352675
613.00 1.208073
613.10 1.213294
613.20 1.384001
613.30 1.647465
613.40 1.885961
613.50 2.011657
613.60 1.982359
613.70 1.8395
613.80 1.71158
613.90 1.707655
614.00 1.842588
614.10 2.065895
614.20 2.325149
614.30 2.561343
614.40 2.713968
614.50 2.744752
614.60 2.658305
614.70 2.547821
614.80 2.518456
614.90 2.608311
615.00 2.802202
615.10 3.02737
615.20 3.169677
615.30 3.168655
615.40 3.027698
615.50 2.773419
615.60 2.463463
615.70 2.193099
615.80 2.035245
615.90 2.014273
616.00 2.128284
616.10 2.307306
616.20 2.44233
616.30 2.475566
616.40 2.415102
616.50 2.328777
616.60 2.381917
616.70 2.671002
616.80 3.153335
616.90 3.774952
617.00 4.450003
617.10 5.055428
617.20 5.476036
617.30 5.616776
617.40 5.406987
617.50 4.846945
617.60 4.03704
617.70 3.115078
617.80 2.251495
617.90 1.60946
618.00 1.201849
618.10 0.9956613
618.20 0.984405
618.30 1.10187
618.40 1.270088
618.50 1.415745
618.60 1.465346
618.70 1.375215
618.80 1.159823
618.90 0.8984737
619.00 0.6982569
619.10 0.6545443
619.20 0.7689576
619.30 0.9476558
619.40 1.060025
619.50 1.052989
619.60 1.010302
619.70 1.059805
619.80 1.259895
619.90 1.586591
620.00 1.975323
620.10 2.347691
620.20 2.637218
620.30 2.778642
620.40 2.72059
620.50 2.44529
620.60 2.032091
620.70 1.624336
620.80 1.35312
620.90 1.276567
621.00 1.34282
621.10 1.417891
621.20 1.402287
621.30 1.287664
621.40 1.105573
621.50 0.8878238
621.60 0.6526048
621.70 0.4280153
621.80 0.2662164
621.90 0.2410786
622.00 0.372656
622.10 0.608261
622.20 0.9228443
622.30 1.327121
622.40 1.795193
622.50 2.278821
622.60 2.704993
622.70 2.979184
622.80 3.097329
622.90 3.151836
623.00 3.235646
623.10 3.394383
623.20 3.595756
623.30 3.773579
623.40 3.875265
623.50 3.873399
623.60 3.740314
623.70 3.451007
623.80 3.034034
623.90 2.546581
624.00 2.080496
624.10 1.7589
624.20 1.61375
624.30 1.595291
624.40 1.644854
624.50 1.702389
624.60 1.7379
624.70 1.737568
624.80 1.695212
624.90 1.616166
625.00 1.496703
625.10 1.330106
625.20 1.1304
625.30 0.9459432
625.40 0.8273037
625.50 0.8042921
625.60 0.8825883
625.70 1.030138
625.80 1.194473
625.90 1.318291
626.00 1.392616
626.10 1.477564
626.20 1.669561
626.30 2.026434
626.40 2.520666
626.50 3.053008
626.60 3.458621
626.70 3.606918
626.80 3.451914
626.90 3.007709
627.00 2.356198
627.10 1.64682
627.20 1.0617
627.30 0.7645433
627.40 0.8102322
627.50 1.112891
627.60 1.500649
627.70 1.820764
627.80 2.01252
627.90 2.074609
628.00 2.098148
628.10 2.199251
628.20 2.405655
628.30 2.701834
628.40 3.066098
628.50 3.458796
628.60 3.844236
628.70 4.188809
628.80 4.46569
628.90 4.683144
629.00 4.823031
629.10 4.843651
629.20 4.726689
629.30 4.499007
629.40 4.204671
629.50 3.877513
629.60 3.65981
629.70 3.720403
629.80 4.064512
629.90 4.60866
630.00 5.233729
630.10 5.791652
630.20 6.138253
630.30 6.156015
630.40 5.860163
630.50 5.358252
630.60 4.764507
630.70 4.190591
630.80 3.735363
630.90 3.504787
631.00 3.504503
631.10 3.628705
631.20 3.833437
631.30 4.079547
631.40 4.26214
631.50 4.287971
631.60 4.162365
631.70 3.967985
631.80 3.759101
631.90 3.559704
632.00 3.408191
632.10 3.390087
632.20 3.566241
632.30 3.872956
632.40 4.130722
632.50 4.17367
632.60 3.922729
632.70 3.392459
632.80 2.717642
632.90 2.101318
633.00 1.682882
633.10 1.500864
633.20 1.552385
633.30 1.848551
633.40 2.37113
633.50 3.006165
633.60 3.615274
633.70 4.12479
633.80 4.54326
633.90 4.895205
634.00 5.191249
634.10 5.4286
634.20 5.562256
634.30 5.565615
634.40 5.454321
634.50 5.263614
634.60 5.060786
634.70 4.876907
634.80 4.70509
634.90 4.525655
635.00 4.334651
635.10 4.138227
635.20 3.927973
635.30 3.70485
635.40 3.459336
635.50 3.201744
635.60 2.988244
635.70 2.87762
635.80 2.938305
635.90 3.225343
636.00 3.710349
636.10 4.337244
636.20 5.115676
636.30 6.047878
636.40 6.990648
636.50 7.74816
636.60 8.180476
636.70 8.217674
636.80 7.886194
636.90 7.273383
637.00 6.49512
637.10 5.699568
637.20 4.995172
637.30 4.456413
637.40 4.201412
637.50 4.270107
637.60 4.519799
637.70 4.754413
637.80 4.84895
637.90 4.727371
638.00 4.391377
638.10 3.932497
638.20 3.467608
638.30 3.120219
638.40 3.009073
638.50 3.183256
638.60 3.629591
638.70 4.266036
638.80 4.912126
638.90 5.409011
639.00 5.695062
639.10 5.794422
639.20 5.796082
639.30 5.79029
639.40 5.790745
639.50 5.743383
639.60 5.594241
639.70 5.324281
639.80 4.948628
639.90 4.506588
640.00 4.053878
640.10 3.669602
640.20 3.438204
640.30 3.417216
640.40 3.60948
640.50 3.945704
640.60 4.316126
640.70 4.616819
640.80 4.808567
640.90 4.932719
641.00 5.032363
641.10 5.108448
641.20 5.1495
641.30 5.155363
641.40 5.122228
641.50 5.040949
641.60 4.905656
641.70 4.729717
641.80 4.523294
641.90 4.279002
642.00 3.998027
642.10 3.687139
642.20 3.367952
642.30 3.065923
642.40 2.811582
642.50 2.645466
642.60 2.59592
642.70 2.678564
642.80 2.938983
642.90 3.410272
643.00 4.041926
643.10 4.694332
643.20 5.235623
643.30 5.593591
643.40 5.719667
643.50 5.61695
643.60 5.286356
643.70 4.738797
643.80 4.069776
643.90 3.419887
644.00 2.926121
644.10 2.659034
644.20 2.606958
644.30 2.750157
644.40 3.061905
644.50 3.504803
644.60 4.013451
644.70 4.504022
644.80 4.955883
644.90 5.368058
645.00 5.768183
645.10 6.16263
645.20 6.475657
645.30 6.619859
645.40 6.518286
645.50 6.173442
645.60 5.675255
645.70 5.114938
645.80 4.613702
645.90 4.288272
646.00 4.174991
646.10 4.276481
646.20 4.545987
646.30 4.936706
646.40 5.391477
646.50 5.830609
646.60 6.188429
646.70 6.383625
646.80 6.425708
646.90 6.379245
647.00 6.250138
647.10 6.035413
647.20 5.739233
647.30 5.391193
647.40 5.079131
647.50 4.88019
647.60 4.825228
647.70 4.857195
647.80 4.88534
647.90 4.878439
648.00 4.842478
648.10 4.828706
648.20 4.809459
648.30 4.733433
648.40 4.657636
648.50 4.678546
648.60 4.878371
648.70 5.273789
648.80 5.793712
648.90 6.33638
649.00 6.781801
649.10 7.023059
649.20 7.018355
649.30 6.781118
649.40 6.461486
649.50 6.262368
649.60 6.32447
649.70 6.668113
649.80 7.187733
649.90 7.72097
650.00 8.08007
650.10 8.098105
650.20 7.716641
650.30 6.994752
650.40 6.091817
650.50 5.243111
650.60 4.649672
650.70 4.462367
650.80 4.682625
650.90 5.161684
651.00 5.733782
651.10 6.263799
651.20 6.64557
651.30 6.797635
651.40 6.704135
651.50 6.453454
651.60 6.173897
651.70 5.964968
651.80 5.875965
651.90 5.914311
652.00 6.080478
652.10 6.307297
652.20 6.4874
652.30 6.556344
652.40 6.500402
652.50 6.368929
652.60 6.251728
652.70 6.25654
652.80 6.45931
652.90 6.844476
653.00 7.338
653.10 7.846433
653.20 8.297893
653.30 8.627505
653.40 8.817864
653.50 8.918271
653.60 8.941045
653.70 8.860742
653.80 8.672512
653.90 8.396553
654.00 8.02175
654.10 7.538013
654.20 7.034702
654.30 6.652834
654.40 6.472712
654.50 6.485794
654.60 6.626298
654.70 6.82849
654.80 7.001966
654.90 7.050959
655.00 6.962463
655.10 6.796839
655.20 6.604124
655.30 6.395228
655.40 6.225913
655.50 6.179482
655.60 6.265748
655.70 6.467169
655.80 6.80376
655.90 7.308543
656.00 7.970436
656.10 8.716671
656.20 9.438076
656.30 10.00697
656.40 10.33706
656.50 10.39928
656.60 10.22175
656.70 9.859678
656.80 9.354772
656.90 8.768703
657.00 8.182024
657.10 7.66005
657.20 7.258964
657.30 7.031804
657.40 7.021725
657.50 7.283744
657.60 7.830157
657.70 8.568406
657.80 9.323535
657.90 9.915579
658.00 10.22643
658.10 10.19947
658.20 9.873435
658.30 9.33516
658.40 8.673465
658.50 8.006516
658.60 7.436356
658.70 7.019997
658.80 6.784018
658.90 6.701554
659.00 6.701817
659.10 6.730895
659.20 6.753506
659.30 6.756959
659.40 6.777764
659.50 6.864152
659.60 7.016811
659.70 7.204932
659.80 7.439191
659.90 7.746588
660.00 8.127103
660.10 8.515286
660.20 8.782814
660.30 8.814395
660.40 8.595065
660.50 8.212683
660.60 7.776049
660.70 7.381801
660.80 7.066411
660.90 6.841061
661.00 6.706587
661.10 6.655096
661.20 6.656351
661.30 6.659042
661.40 6.624135
661.50 6.571249
661.60 6.587155
661.70 6.74794
661.80 7.048277
661.90 7.400376
662.00 7.703612
662.10 7.878791
662.20 7.872285
662.30 7.687717
662.40 7.418243
662.50 7.175572
662.60 7.031736
662.70 7.006702
662.80 7.091546
662.90 7.265893
663.00 7.483525
663.10 7.699722
663.20 7.892459
663.30 8.067415
663.40 8.235333
663.50 8.388482
663.60 8.554817
663.70 8.766524
663.80 8.994572
663.90 9.169447
664.00 9.23132
664.10 9.205899
664.20 9.155671
664.30 9.121562
664.40 9.13518
664.50 9.186334
664.60 9.214674
664.70 9.146844
664.80 8.96648
664.90 8.710405
665.00 8.404704
665.10 8.102525
665.20 7.895559
665.30 7.867318
665.40 8.070174
665.50 8.471176
665.60 8.967834
665.70 9.449665
665.80 9.84806
665.90 10.1154
666.00 10.22176
666.10 10.18724
666.20 10.0608
666.30 9.886458
666.40 9.692789
666.50 9.498161
666.60 9.306297
666.70 9.133909
666.80 9.038414
666.90 9.106735
667.00 9.422587
667.10 10.02166
667.20 10.78672
667.30 11.50908
667.40 12.03592
667.50 12.28384
667.60 12.22906
667.70 11.91171
667.80 11.4197
667.90 10.85189
668.00 10.32487
668.10 9.951755
668.20 9.768574
668.30 9.733529
668.40 9.784634
668.50 9.868776
668.60 9.960734
668.70 10.07452
668.80 10.22421
668.90 10.43991
669.00 10.76427
669.10 11.18719
669.20 11.66665
669.30 12.16136
669.40 12.59726
669.50 12.87452
669.60 12.92724
669.70 12.74333
669.80 12.33306
669.90 11.71763
670.00 10.9669
670.10 10.16491
670.20 9.40703
670.30 8.773293
670.40 8.27155
670.50 7.913683
670.60 7.723608
670.70 7.682507
670.80 7.770926
670.90 8.019238
671.00 8.427242
671.10 8.904202
671.20 9.338397
671.30 9.6703
671.40 9.877182
671.50 9.977688
671.60 10.00797
671.70 10.00331
671.80 10.02557
671.90 10.10659
672.00 10.2667
672.10 10.54732
672.20 10.94173
672.30 11.34937
672.40 11.65306
672.50 11.82051
672.60 11.88154
672.70 11.83612
672.80 11.69069
672.90 11.49835
673.00 11.31595
673.10 11.15831
673.20 11.00056
673.30 10.83922
673.40 10.69341
673.50 10.5741
673.60 10.47408
673.70 10.3744
673.80 10.26679
673.90 10.18458
674.00 10.1769
674.10 10.25797
674.20 10.44749
674.30 10.77524
674.40 11.25602
674.50 11.91755
674.60 12.73906
674.70 13.59863
674.80 14.30605
674.90 14.66867
675.00 14.59874
675.10 14.14065
675.20 13.41096
675.30 12.51153
675.40 11.53898
675.50 10.65383
675.60 9.995522
675.70 9.626133
675.80 9.545324
675.90 9.640771
676.00 9.767957
676.10 9.882772
676.20 9.987653
676.30 10.07453
676.40 10.1247
676.50 10.10094
676.60 9.973887
676.70 9.75091
676.80 9.504082
676.90 9.337445
677.00 9.325075
677.10 9.480903
677.20 9.745951
677.30 10.07439
677.40 10.46545
677.50 10.92638
677.60 11.44387
677.70 11.95319
677.80 12.41827
677.90 12.86959
678.00 13.34771
678.10 13.84318
678.20 14.25752
678.30 14.4735
678.40 14.4277
678.50 14.12249
678.60 13.62254
678.70 13.00953
678.80 12.3563
678.90 11.70262
679.00 11.10015
679.10 10.64446
679.20 10.39191
679.30 10.37189
679.40 10.61254
679.50 11.05787
679.60 11.5734
679.70 12.01376
679.80 12.26154
679.90 12.27047
680.00 12.08472
680.10 11.79396
680.20 11.47519
680.30 11.17983
680.40 10.92862
680.50 10.72103
680.60 10.52053
680.70 10.24955
680.80 9.837854
680.90 9.331259
681.00 8.870526
681.10 8.575199
681.20 8.484884
681.30 8.569533
681.40 8.759956
681.50 9.007015
681.60 9.298638
681.70 9.588994
681.80 9.817673
681.90 9.936319
682.00 9.932726
682.10 9.799048
682.20 9.502425
682.30 9.028896
682.40 8.405763
682.50 7.671141
682.60 6.936227
682.70 6.385126
682.80 6.138002
682.90 6.192554
683.00 6.474811
683.10 6.913915
683.20 7.450198
683.30 8.018285
683.40 8.544773
683.50 8.998367
683.60 9.367265
683.70 9.610074
683.80 9.701927
683.90 9.729649
684.00 9.821564
684.10 10.00612
684.20 10.23677
684.30 10.45545
684.40 10.61169
684.50 10.66997
684.60 10.61295
684.70 10.45263
684.80 10.20855
684.90 9.894937
685.00 9.566606
685.10 9.314465
685.20 9.202061
685.30 9.22907
685.40 9.350012
685.50 9.538075
685.60 9.831231
685.70 10.25487
685.80 10.76087
685.90 11.2519
686.00 11.62271
686.10 11.81632
686.20 11.84055
686.30 11.72112
686.40 11.49674
686.50 11.2792
686.60 11.18443
686.70 11.2253
686.80 11.31268
686.90 11.34343
687.00 11.24095
687.10 10.95956
687.20 10.53101
687.30 10.07163
687.40 9.697164
687.50 9.435483
687.60 9.238019
687.70 9.047126
687.80 8.822081
687.90 8.493763
688.00 8.04825
688.10 7.57593
688.20 7.189031
688.30 6.942826
688.40 6.851293
688.50 6.90783
688.60 7.023833
688.70 7.028137
688.80 6.846226
688.90 6.590726
689.00 6.397611
689.10 6.350712
689.20 6.498374
689.30 6.852068
689.40 7.368951
689.50 7.929068
689.60 8.407745
689.70 8.730559
689.80 8.827028
689.90 8.702736
690.00 8.482502
690.10 8.328934
690.20 8.314676
690.30 8.38513
690.40 8.493688
690.50 8.622052
690.60 8.72563
690.70 8.753843
690.80 8.663164
690.90 8.438576
691.00 8.098513
691.10 7.676683
691.20 7.230142
691.30 6.805469
691.40 6.443521
691.50 6.18063
691.60 6.035504
691.70 6.054892
691.80 6.27737
691.90 6.703977
692.00 7.282502
692.10 7.901393
692.20 8.468893
692.30 8.958414
692.40 9.388286
692.50 9.75569
692.60 10.02951
692.70 10.18012
692.80 10.1764
692.90 10.03775
693.00 9.824679
693.10 9.573952
693.20 9.321657
693.30 9.077786
693.40 8.893854
693.50 8.859155
693.60 8.977539
693.70 9.200183
693.80 9.457094
693.90 9.708945
694.00 9.958627
694.10 10.22261
694.20 10.55226
694.30 11.03284
694.40 11.74694
694.50 12.67474
694.60 13.69693
694.70 14.71551
694.80 15.62356
694.90 16.25927
695.00 16.48079
695.10 16.21757
695.20 15.49796
695.30 14.45032
695.40 13.24007
695.50 12.03049
695.60 10.96171
695.70 10.11253
695.80 9.450294
695.90 8.910861
696.00 8.496145
696.10 8.201435
696.20 7.979229
696.30 7.839667
696.40 7.867328
696.50 8.177958
696.60 8.806709
696.70 9.636186
696.80 10.4998
696.90 11.24248
697.00 11.7516
697.10 11.96193
697.20 11.89567
697.30 11.6398
697.40 11.27898
697.50 10.91141
697.60 10.62864
697.70 10.46929
697.80 10.41569
697.90 10.37831
698.00 10.29368
698.10 10.19038
698.20 10.12074
698.30 10.12689
698.40 10.20936
698.50 10.3478
698.60 10.5447
698.70 10.82354
698.80 11.1737
698.90 11.5404
699.00 11.87001
699.10 12.14062
699.20 12.35759
699.30 12.51298
699.40 12.54681
699.50 12.41503
699.60 12.15461
699.70 11.82975
699.80 11.49218
699.90 11.19129
700.00 10.96282
700.10 10.80784
700.20 10.69028
700.30 10.57812
700.40 10.47784
700.50 10.41484
700.60 10.40987
700.70 10.45517
700.80 10.56609
700.90 10.77185
701.00 11.03855
701.10 11.33345
701.20 11.67448
701.30 12.08317
701.40 12.56826
701.50 13.1284
701.60 13.74985
701.70 14.39748
701.80 15.00364
701.90 15.46487
702.00 15.65973
702.10 15.55053
702.20 15.19126
702.30 14.65626
702.40 14.06583
702.50 13.55583
702.60 13.22262
702.70 13.12083
702.80 13.23113
702.90 13.49658
703.00 13.864
703.10 14.24717
703.20 14.55859
703.30 14.76944
703.40 14.92362
703.50 15.08701
703.60 15.31702
703.70 15.65138
703.80 16.07983
703.90 16.57284
704.00 17.04999
704.10 17.37027
704.20 17.42174
704.30 17.17191
704.40 16.6722
704.50 16.0456
704.60 15.44282
704.70 15.02983
704.80 14.93063
704.90 15.12394
705.00 15.47266
705.10 15.84296
705.20 16.15155
705.30 16.3185
705.40 16.29337
705.50 16.09021
705.60 15.75108
705.70 15.312
705.80 14.81849
705.90 14.34174
706.00 13.97709
706.10 13.77743
706.20 13.73079
706.30 13.85175
706.40 14.15457
706.50 14.60273
706.60 15.12549
706.70 15.64166
706.80 16.09158
706.90 16.45241
707.00 16.73913
707.10 16.98861
707.20 17.23298
707.30 17.50352
707.40 17.80409
707.50 18.07427
707.60 18.23585
707.70 18.24422
707.80 18.10362
707.90 17.8454
708.00 17.49873
708.10 17.10277
708.20 16.71535
708.30 16.39665
708.40 16.18437
708.50 16.07323
708.60 16.06373
708.70 16.1615
708.80 16.30276
708.90 16.41765
709.00 16.50683
709.10 16.59296
709.20 16.66587
709.30 16.66563
709.40 16.57755
709.50 16.46207
709.60 16.36172
709.70 16.28482
709.80 16.19617
709.90 16.10159
710.00 16.03421
710.10 15.981
710.20 15.96907
710.30 16.03058
710.40 16.12228
710.50 16.18334
710.60 16.19201
710.70 16.17891
710.80 16.15933
710.90 16.11186
711.00 16.04475
711.10 15.97273
711.20 15.95708
711.30 16.0597
711.40 16.25984
711.50 16.49556
711.60 16.6884
711.70 16.80037
711.80 16.85808
711.90 16.90057
712.00 16.95338
712.10 17.03885
712.20 17.16282
712.30 17.2921
712.40 17.36514
712.50 17.37689
712.60 17.3864
712.70 17.444
712.80 17.58406
712.90 17.83089
713.00 18.1731
713.10 18.54095
713.20 18.79449
713.30 18.8069
713.40 18.54432
713.50 18.04341
713.60 17.40024
713.70 16.75073
713.80 16.24809
713.90 15.98995
714.00 15.94922
714.10 16.0201
714.20 16.1533
714.30 16.38722
714.40 16.76355
714.50 17.2915
714.60 17.97959
714.70 18.77763
714.80 19.55295
714.90 20.17181
715.00 20.49805
715.10 20.41879
715.20 19.88426
715.30 18.95584
715.40 17.83403
715.50 16.7794
715.60 15.97602
715.70 15.50629
715.80 15.3778
715.90 15.53154
716.00 15.86835
716.10 16.27827
716.20 16.66569
716.30 16.94585
716.40 17.09155
716.50 17.15991
716.60 17.2456
716.70 17.4079
716.80 17.63929
716.90 17.91439
717.00 18.19599
717.10 18.39743
717.20 18.42408
717.30 18.2598
717.40 17.96606
717.50 17.62074
717.60 17.32482
717.70 17.16734
717.80 17.19031
717.90 17.39612
718.00 17.75537
718.10 18.22465
718.20 18.72156
718.30 19.13696
718.40 19.40024
718.50 19.50761
718.60 19.52363
718.70 19.52242
718.80 19.56153
718.90 19.70936
719.00 19.9661
719.10 20.28667
719.20 20.63662
719.30 20.94731
719.40 21.12772
719.50 21.08874
719.60 20.79445
719.70 20.29179
719.80 19.66003
719.90 18.96609
720.00 18.29589
720.10 17.75528
720.20 17.39152
720.30 17.19482
720.40 17.15964
720.50 17.29011
720.60 17.56198
720.70 17.94172
720.80 18.39003
720.90 18.85213
721.00 19.2836
721.10 19.63646
721.20 19.86507
721.30 19.97662
721.40 19.95904
721.50 19.7603
721.60 19.38455
721.70 18.91981
721.80 18.49961
721.90 18.25104
722.00 18.25537
722.10 18.52913
722.20 19.0441
722.30 19.77139
722.40 20.64642
722.50 21.53105
722.60 22.26376
722.70 22.69651
722.80 22.78371
722.90 22.59423
723.00 22.25126
723.10 21.86517
723.20 21.50224
723.30 21.22146
723.40 21.09701
723.50 21.20447
723.60 21.56032
723.70 22.04963
723.80 22.50368
723.90 22.81366
724.00 22.91919
724.10 22.81939
724.20 22.56346
724.30 22.2643
724.40 22.05624
724.50 22.05791
724.60 22.35398
724.70 22.89492
724.80 23.5476
724.90 24.16509
725.00 24.64051
725.10 24.96578
725.20 25.17705
725.30 25.30963
725.40 25.40196
725.50 25.46227
725.60 25.44296
725.70 25.23482
725.80 24.7674
725.90 24.07414
726.00 23.26399
726.10 22.51877
726.20 21.99861
726.30 21.79159
726.40 21.89625
726.50 22.22598
726.60 22.66444
726.70 23.08029
726.80 23.37365
726.90 23.53928
727.00 23.72004
727.10 24.17396
727.20 25.03613
727.30 26.13548
727.40 27.12037
727.50 27.73307
727.60 27.86175
727.70 27.46533
727.80 26.62399
727.90 25.52972
728.00 24.40918
728.10 23.50126
728.20 23.00353
728.30 23.0066
728.40 23.4433
728.50 24.06763
728.60 24.61752
728.70 25.01824
728.80 25.3234
728.90 25.51504
729.00 25.52905
729.10 25.36074
729.20 25.03289
729.30 24.58061
729.40 24.07213
729.50 23.57958
729.60 23.15263
729.70 22.82801
729.80 22.60026
729.90 22.45229
730.00 22.43177
730.10 22.59861
730.20 22.9329
730.30 23.37076
730.40 23.8091
730.50 24.15665
730.60 24.38489
730.70 24.45689
730.80 24.35373
730.90 24.11784
731.00 23.89217
731.10 23.85535
731.20 24.10696
731.30 24.65016
731.40 25.36157
731.50 26.02479
731.60 26.4646
731.70 26.60057
731.80 26.47416
731.90 26.20097
732.00 25.8951
732.10 25.70446
732.20 25.73425
732.30 26.00548
732.40 26.45043
732.50 26.91019
732.60 27.23534
732.70 27.39519
732.80 27.43863
732.90 27.37391
733.00 27.18705
733.10 26.86903
733.20 26.4385
733.30 25.95444
733.40 25.47039
733.50 25.01493
733.60 24.5811
733.70 24.14586
733.80 23.68778
733.90 23.25382
734.00 22.96622
734.10 22.86037
734.20 22.89765
734.30 23.10231
734.40 23.51346
734.50 24.13534
734.60 24.8948
734.70 25.62436
734.80 26.16739
734.90 26.44179
735.00 26.47501
735.10 26.3736
735.20 26.22459
735.30 26.02562
735.40 25.75808
735.50 25.46378
735.60 25.19356
735.70 24.98117
735.80 24.87618
735.90 24.93523
736.00 25.2122
736.10 25.74478
736.20 26.49902
736.30 27.35104
736.40 28.12731
736.50 28.63279
736.60 28.70403
736.70 28.26817
736.80 27.36824
736.90 26.16808
737.00 24.91248
737.10 23.86675
737.20 23.23512
737.30 23.07316
737.40 23.29466
737.50 23.74882
737.60 24.31883
737.70 24.94692
737.80 25.58415
737.90 26.16572
738.00 26.61718
738.10 26.9136
738.20 27.04817
738.30 27.02467
738.40 26.88066
738.50 26.64499
738.60 26.34344
738.70 26.04729
738.80 25.84186
738.90 25.74852
739.00 25.68159
739.10 25.54548
739.20 25.3333
739.30 25.09071
739.40 24.88987
739.50 24.80818
739.60 24.88051
739.70 25.03492
739.80 25.07089
739.90 24.81728
740.00 24.29631
740.10 23.6321
740.20 22.91524
740.30 22.25333
740.40 21.80645
740.50 21.67741
740.60 21.83606
740.70 22.19723
740.80 22.68761
740.90 23.20719
741.00 23.6531
741.10 23.98832
741.20 24.29302
741.30 24.68103
741.40 25.16353
741.50 25.64066
741.60 25.97924
741.70 26.06723
741.80 25.82192
741.90 25.20143
742.00 24.26085
742.10 23.14755
742.20 22.04177
742.30 21.13099
742.40 20.57003
742.50 20.43606
742.60 20.71415
742.70 21.30297
742.80 22.01773
742.90 22.67173
743.00 23.16759
743.10 23.4724
743.20 23.58964
743.30 23.57934
743.40 23.51113
743.50 23.43994
743.60 23.43055
743.70 23.5262
743.80 23.71249
743.90 23.9418
744.00 24.17454
744.10 24.38655
744.20 24.54281
744.30 24.60043
744.40 24.5652
744.50 24.47745
744.60 24.40154
744.70 24.39857
744.80 24.46387
744.90 24.54526
745.00 24.5677
745.10 24.51169
745.20 24.4355
745.30 24.38923
745.40 24.38854
745.50 24.43244
745.60 24.52282
745.70 24.674
745.80 24.88704
745.90 25.12947
746.00 25.29653
746.10 25.29738
746.20 25.20651
746.30 25.17596
746.40 25.30264
746.50 25.55622
746.60 25.80657
746.70 25.94748
746.80 25.92594
746.90 25.72013
747.00 25.31828
747.10 24.75426
747.20 24.10788
747.30 23.47969
747.40 23.02842
747.50 22.87342
747.60 22.98286
747.70 23.23248
747.80 23.503
747.90 23.75327
748.00 23.99688
748.10 24.21631
748.20 24.37952
748.30 24.49375
748.40 24.60012
748.50 24.73244
748.60 24.89367
748.70 25.05879
748.80 25.16051
748.90 25.13868
749.00 25.00141
749.10 24.79565
749.20 24.56426
749.30 24.31107
749.40 24.01985
749.50 23.69929
749.60 23.37985
749.70 23.0789
749.80 22.80057
749.90 22.56517
750.00 22.41994
750.10 22.40689
750.20 22.54185
750.30 22.81561
750.40 23.17105
750.50 23.54428
750.60 23.9051
750.70 24.24337
750.80 24.57732
750.90 24.92608
751.00 25.2621
751.10 25.54077
751.20 25.76756
751.30 25.9821
751.40 26.17397
751.50 26.30131
751.60 26.3318
751.70 26.20731
751.80 25.89838
751.90 25.46119
752.00 25.0113
752.10 24.67578
752.20 24.62705
752.30 24.95399
752.40 25.57255
752.50 26.33834
752.60 27.07145
752.70 27.57521
752.80 27.71555
752.90 27.46
753.00 26.85448
753.10 26.03949
753.20 25.17896
753.30 24.37668
753.40 23.67764
753.50 23.10369
753.60 22.57257
753.70 22.04188
753.80 21.62468
753.90 21.4245
754.00 21.47535
754.10 21.74701
754.20 22.16006
754.30 22.61448
754.40 23.04097
754.50 23.39991
754.60 23.66357
754.70 23.82317
754.80 23.88721
754.90 23.87019
755.00 23.79873
755.10 23.69062
755.20 23.49092
755.30 23.14931
755.40 22.70926
755.50 22.25199
755.60 21.86678
755.70 21.62611
755.80 21.55954
755.90 21.66416
756.00 21.89463
756.10 22.15625
756.20 22.35142
756.30 22.41269
756.40 22.29862
756.50 22.01369
756.60 21.67185
756.70 21.42559
756.80 21.36784
756.90 21.55696
757.00 21.99543
757.10 22.62417
757.20 23.35404
757.30 24.07377
757.40 24.6903
757.50 25.14621
757.60 25.40517
757.70 25.45601
757.80 25.31295
757.90 25.0033
758.00 24.55626
758.10 24.01066
758.20 23.41777
758.30 22.82755
758.40 22.28793
758.50 21.82789
758.60 21.45136
758.70 21.15275
758.80 20.91607
758.90 20.72601
759.00 20.53474
759.10 20.29891
759.20 20.03832
759.30 19.78591
759.40 19.64827
759.50 19.79857
759.60 20.36762
759.70 21.36264
759.80 22.60926
759.90 23.8282
760.00 24.82288
760.10 25.40739
760.20 25.35384
760.30 24.58614
760.40 23.16284
760.50 21.2413
760.60 19.15092
760.70 17.31626
760.80 16.03381
760.90 15.41406
761.00 15.42937
761.10 15.95683
761.20 16.8197
761.30 17.79055
761.40 18.53695
761.50 18.81159
761.60 18.5909
761.70 17.91619
761.80 16.94929
761.90 15.93759
762.00 15.02065
762.10 14.26545
762.20 13.71598
762.30 13.36757
762.40 13.1916
762.50 13.19389
762.60 13.46814
762.70 14.10623
762.80 15.03694
762.90 15.99703
763.00 16.64768
763.10 16.71764
763.20 16.09415
763.30 14.83836
763.40 13.1707
763.50 11.40166
763.60 9.848888
763.70 8.813842
763.80 8.519699
763.90 8.930733
764.00 9.740091
764.10 10.55992
764.20 11.08111
764.30 11.20704
764.40 10.97821
764.50 10.45968
764.60 9.786234
764.70 9.139932
764.80 8.688176
764.90 8.553538
765.00 8.792062
765.10 9.314977
765.20 9.863781
765.30 10.18731
765.40 10.1281
765.50 9.651032
765.60 8.878994
765.70 7.949888
765.80 7.00578
765.90 6.236437
766.00 5.773722
766.10 5.654856
766.20 5.787224
766.30 6.012154
766.40 6.177542
766.50 6.150401
766.60 5.891052
766.70 5.469996
766.80 5.020949
766.90 4.654073
767.00 4.388099
767.10 4.182365
767.20 4.014569
767.30 3.898929
767.40 3.832045
767.50 3.775002
767.60 3.742759
767.70 3.781626
767.80 3.91405
767.90 4.159607
768.00 4.505081
768.10 4.902983
768.20 5.286504
768.30 5.584101
768.40 5.765675
768.50 5.860596
768.60 5.899425
768.70 5.873287
768.80 5.767481
768.90 5.57932
769.00 5.296839
769.10 4.903904
769.20 4.395668
769.30 3.77655
769.40 3.079321
769.50 2.355837
769.60 1.67681
769.70 1.111695
769.80 0.6976625
769.90 0.4627306
770.00 0.4350551
770.10 0.6195921
770.20 0.9878649
770.30 1.50225
770.40 2.115088
770.50 2.753483
770.60 3.369089
770.70 3.963193
770.80 4.532417
770.90 5.042192
771.00 5.510534
771.10 6.062343
771.20 6.838644
771.30 7.790439
771.40 8.745013
771.50 9.597527
771.60 10.31864
771.70 10.96402
771.80 11.59929
771.90 12.22798
772.00 12.7902
772.10 13.22273
772.20 13.55509
772.30 13.89045
772.40 14.24183
772.50 14.48296
772.60 14.4754
772.70 14.24106
772.80 13.89143
772.90 13.53722
773.00 13.27428
773.10 13.07965
773.20 12.89266
773.30 12.73967
773.40 12.71814
773.50 12.93331
773.60 13.38851
773.70 13.96366
773.80 14.55295
773.90 15.09397
774.00 15.56612
774.10 15.99801
774.20 16.40169
774.30 16.73873
774.40 16.99285
774.50 17.17285
774.60 17.26415
774.70 17.25455
774.80 17.1462
774.90 16.91758
775.00 16.56387
775.10 16.17675
775.20 15.8495
775.30 15.55535
775.40 15.25092
775.50 14.97688
775.60 14.83794
775.70 14.94617
775.80 15.30231
775.90 15.85117
776.00 16.54988
776.10 17.31799
776.20 18.01759
776.30 18.53701
776.40 18.82359
776.50 18.82581
776.60 18.55057
776.70 18.211
776.80 18.03747
776.90 18.10406
777.00 18.40798
777.10 18.83282
777.20 19.23717
777.30 19.56107
777.40 19.7551
777.50 19.77668
777.60 19.6848
777.70 19.58654
777.80 19.56355
777.90 19.6577
778.00 19.83607
778.10 20.00441
778.20 20.09204
778.30 20.07379
778.40 19.93611
778.50 19.70534
778.60 19.43305
778.70 19.20315
778.80 19.19458
778.90 19.55027
779.00 20.24228
779.10 21.12357
779.20 22.04197
779.30 22.83319
779.40 23.29842
779.50 23.25056
779.60 22.558
779.70 21.20204
779.80 19.32126
779.90 17.27994
780.00 15.56806
780.10 14.52685
780.20 14.24535
780.30 14.7049
780.40 15.77226
780.50 17.19957
780.60 18.71871
780.70 20.12383
780.80 21.36914
780.90 22.4956
781.00 23.5348
781.10 24.50689
781.20 25.398
781.30 26.12184
781.40 26.58716
781.50 26.77901
781.60 26.75796
781.70 26.51838
781.80 26.07835
781.90 25.62211
782.00 25.33277
782.10 25.27249
782.20 25.41712
782.30 25.75
782.40 26.24327
782.50 26.82737
782.60 27.42736
782.70 27.93009
782.80 28.18589
782.90 28.09636
783.00 27.67929
783.10 27.09505
783.20 26.51855
783.30 25.94553
783.40 25.31429
783.50 24.71078
783.60 24.25409
783.70 23.94614
783.80 23.75336
783.90 23.72983
784.00 23.94013
784.10 24.35911
784.20 24.92706
784.30 25.58186
784.40 26.21704
784.50 26.73678
784.60 27.16606
784.70 27.59336
784.80 28.03188
784.90 28.39482
785.00 28.62826
785.10 28.72288
785.20 28.64191
785.30 28.36498
785.40 27.94547
785.50 27.42962
785.60 26.7773
785.70 26.03883
785.80 25.38847
785.90 24.96469
786.00 24.82508
786.10 25.01072
786.20 25.54254
786.30 26.36794
786.40 27.36643
786.50 28.40438
786.60 29.33163
786.70 29.92633
786.80 30.01201
786.90 29.64457
787.00 29.07143
787.10 28.48418
787.20 27.91465
787.30 27.35742
787.40 26.8268
787.50 26.35658
787.60 26.04707
787.70 26.04773
787.80 26.4499
787.90 27.24716
788.00 28.36617
788.10 29.60999
788.20 30.71362
788.30 31.5003
788.40 31.91581
788.50 31.94332
788.60 31.61351
788.70 31.04312
788.80 30.44816
788.90 30.04671
789.00 29.90496
789.10 29.97474
789.20 30.14262
789.30 30.24986
789.40 30.20426
789.50 30.06753
789.60 29.94771
789.70 29.90111
789.80 29.91692
789.90 29.94718
790.00 30.03713
790.10 30.31628
790.20 30.79891
790.30 31.39256
790.40 31.98844
790.50 32.43701
790.60 32.6082
790.70 32.51343
790.80 32.36322
790.90 32.38733
791.00 32.6707
791.10 33.10947
791.20 33.44406
791.30 33.51437
791.40 33.2814
791.50 32.75976
791.60 32.05233
791.70 31.26991
791.80 30.56613
791.90 30.17936
792.00 30.29041
792.10 30.9158
792.20 31.82507
792.30 32.68808
792.40 33.2911
792.50 33.57688
792.60 33.67169
792.70 33.73434
792.80 33.88283
792.90 34.16447
793.00 34.54431
793.10 35.00318
793.20 35.50072
793.30 35.91157
793.40 36.12283
793.50 36.06937
793.60 35.74522
793.70 35.23695
793.80 34.68202
793.90 34.21772
794.00 33.88047
794.10 33.59288
794.20 33.19951
794.30 32.50984
794.40 31.36876
794.50 29.72172
794.60 27.66503
794.70 25.42391
794.80 23.31742
794.90 21.70194
795.00 20.9173
795.10 21.13707
795.20 22.21663
795.30 23.86659
795.40 25.87032
795.50 27.99796
795.60 29.99462
795.70 31.73483
795.80 33.21961
795.90 34.47984
796.00 35.5657
796.10 36.59006
796.20 37.59177
796.30 38.44622
796.40 38.96253
796.50 39.04049
796.60 38.75851
796.70 38.23531
796.80 37.54322
796.90 36.79924
797.00 36.16621
797.10 35.7401
797.20 35.54692
797.30 35.59455
797.40 35.84661
797.50 36.16613
797.60 36.41273
797.70 36.60049
797.80 36.80307
797.90 37.00157
798.00 37.13078
798.10 37.16969
798.20 37.11296
798.30 36.92289
798.40 36.60061
798.50 36.22397
798.60 35.89976
798.70 35.73233
798.80 35.81285
798.90 36.24398
799.00 37.12899
799.10 38.47873
799.20 40.14572
799.30 41.91214
799.40 43.58951
799.50 44.97989
799.60 45.83362
799.70 46.02592
799.80 45.64703
799.90 44.87238
800.00 43.88672
800.10 42.91824
800.20 42.20988
800.30 41.87003
800.40 41.84647
800.50 42.00554
800.60 42.21997
800.70 42.38673
800.80 42.40969
800.90 42.23658
801.00 41.93632
801.10 41.60775
801.20 41.2573
801.30 40.86074
801.40 40.44439
801.50 40.04911
801.60 39.68469
801.70 39.36213
801.80 39.14978
801.90 39.11981
802.00 39.27136
802.10 39.58879
802.20 40.03356
802.30 40.57116
802.40 41.21778
802.50 41.98806
802.60 42.85043
802.70 43.74638
802.80 44.61453
802.90 45.38382
803.00 45.98647
803.10 46.34793
803.20 46.37134
803.30 46.018
803.40 45.33763
803.50 44.40908
803.60 43.39927
803.70 42.50847
803.80 41.87705
803.90 41.60686
804.00 41.74817
804.10 42.28606
804.20 43.12164
804.30 44.08709
804.40 44.98922
804.50 45.73267
804.60 46.33829
804.70 46.77854
804.80 47.04833
804.90 47.17922
805.00 47.13505
805.10 46.92116
805.20 46.63413
805.30 46.39638
805.40 46.28505
805.50 46.33183
805.60 46.56592
805.70 47.12519
805.80 48.1137
805.90 49.33514
806.00 50.49542
806.10 51.425
806.20 51.99639
806.30 52.18835
806.40 52.078
806.50 51.69653
806.60 51.07238
806.70 50.29695
806.80 49.52888
806.90 48.95605
807.00 48.73386
807.10 48.83181
807.20 49.15671
807.30 49.79169
807.40 50.78171
807.50 52.04019
807.60 53.44214
807.70 54.77154
807.80 55.80257
807.90 56.44561
808.00 56.73467
808.10 56.7694
808.20 56.68278
808.30 56.55049
808.40 56.3891
808.50 56.22474
808.60 56.07271
808.70 55.90074
808.80 55.66572
808.90 55.35757
809.00 55.0075
809.10 54.69838
809.20 54.50609
809.30 54.43399
809.40 54.41708
809.50 54.3116
809.60 53.99558
809.70 53.4896
809.80 52.93024
809.90 52.45159
810.00 52.14887
810.10 52.08622
810.20 52.26683
810.30 52.6352
810.40 53.11213
810.50 53.65505
810.60 54.24427
810.70 54.85291
810.80 55.42427
810.90 55.91145
811.00 56.2996
811.10 56.58337
811.20 56.71168
811.30 56.62771
811.40 56.30586
811.50 55.76467
811.60 55.1215
811.70 54.54016
811.80 54.17711
811.90 54.11255
812.00 54.38201
812.10 54.95594
812.20 55.76534
812.30 56.76813
812.40 57.89332
812.50 59.01835
812.60 59.99531
812.70 60.66592
812.80 60.91152
812.90 60.74499
813.00 60.30168
813.10 59.76737
813.20 59.32149
813.30 59.10924
813.40 59.19984
813.50 59.60804
813.60 60.26471
813.70 60.98944
813.80 61.56351
813.90 61.8393
814.00 61.8063
814.10 61.54926
814.20 61.23847
814.30 61.03548
814.40 60.9807
814.50 61.03724
814.60 61.1303
814.70 61.13928
814.80 60.96622
814.90 60.59859
815.00 60.12064
815.10 59.67143
815.20 59.34476
815.30 59.2201
815.40 59.41368
815.50 60.02083
815.60 61.01052
815.70 62.21083
815.80 63.40018
815.90 64.39725
816.00 65.12782
816.10 65.58139
816.20 65.74004
816.30 65.65796
816.40 65.48487
816.50 65.39631
816.60 65.58561
816.70 66.1179
816.80 66.85082
816.90 67.53138
817.00 67.95669
817.10 68.09744
817.20 68.022
817.30 67.74704
817.40 67.20313
817.50 66.3949
817.60 65.44824
817.70 64.41236
817.80 63.18381
817.90 61.59109
818.00 59.52641
818.10 57.06258
818.20 54.49082
818.30 52.28321
818.40 50.91625
818.50 50.65934
818.60 51.53044
818.70 53.35056
818.80 55.7495
818.90 58.1911
819.00 60.06954
819.10 60.8333
819.20 60.15092
819.30 58.11227
819.40 55.24222
819.50 52.25722
819.60 49.80736
819.70 48.3334
819.80 48.024
819.90 48.80257
820.00 50.40637
820.10 52.5334
820.20 54.87838
820.30 57.13783
820.40 59.10975
820.50 60.8035
820.60 62.33931
820.70 63.71136
820.80 64.778
820.90 65.44332
821.00 65.69661
821.10 65.59851
821.20 65.26383
821.30 64.8667
821.40 64.60723
821.50 64.58519
821.60 64.82144
821.70 65.31247
821.80 65.98417
821.90 66.65611
822.00 67.14009
822.10 67.40624
822.20 67.55349
822.30 67.68902
822.40 67.9324
822.50 68.40725
822.60 69.20577
822.70 70.32069
822.80 71.58662
822.90 72.7686
823.00 73.68577
823.10 74.22616
823.20 74.35394
823.30 74.1443
823.40 73.78271
823.50 73.47697
823.60 73.35724
823.70 73.4687
823.80 73.77586
823.90 74.16289
824.00 74.47059
824.10 74.58686
824.20 74.52749
824.30 74.39321
824.40 74.25497
824.50 74.2282
824.60 74.41717
824.70 74.81733
824.80 75.36897
824.90 75.95339
825.00 76.38844
825.10 76.41559
825.20 75.88505
825.30 74.86997
825.40 73.5425
825.50 72.131
825.60 70.86563
825.70 69.94464
825.80 69.57948
825.90 69.84166
826.00 70.64897
826.10 71.8333
826.20 73.11621
826.30 74.18125
826.40 74.77121
826.50 74.80096
826.60 74.28066
826.70 73.29856
826.80 72.11043
826.90 71.03914
827.00 70.37412
827.10 70.20027
827.20 70.35118
827.30 70.71718
827.40 71.32778
827.50 72.14628
827.60 73.08811
827.70 74.19616
827.80 75.57407
827.90 77.16769
828.00 78.788
828.10 80.20992
828.20 81.23256
828.30 81.71338
828.40 81.59318
828.50 80.98995
828.60 80.07818
828.70 78.86127
828.80 77.35811
828.90 75.80521
829.00 74.43103
829.10 73.23258
829.20 72.03242
829.30 70.77109
829.40 69.60855
829.50 68.71459
829.60 67.97584
829.70 67.12222
829.80 66.09055
829.90 65.03801
830.00 64.24267
830.10 63.95732
830.20 64.21029
830.30 64.8436
830.40 65.67547
830.50 66.61522
830.60 67.7517
830.70 69.18371
830.80 70.80555
830.90 72.36178
831.00 73.79884
831.10 75.26289
831.20 76.7563
831.30 78.09853
831.40 79.05233
831.50 79.50189
831.60 79.46932
831.70 79.03696
831.80 78.32918
831.90 77.40982
832.00 76.25038
832.10 74.8964
832.20 73.48185
832.30 72.16176
832.40 71.06147
832.50 70.24835
832.60 69.6969
832.70 69.34479
832.80 69.17702
832.90 69.16681
833.00 69.26423
833.10 69.41261
833.20 69.57406
833.30 69.7587
833.40 70.04049
833.50 70.45748
833.60 70.91615
833.70 71.30641
833.80 71.71656
833.90 72.35549
834.00 73.39711
834.10 74.9268
834.20 76.89245
834.30 79.07024
834.40 81.09556
834.50 82.64116
834.60 83.56804
834.70 83.81437
834.80 83.14586
834.90 81.3901
835.00 78.87244
835.10 76.29201
835.20 74.22869
835.30 72.97424
835.40 72.58721
835.50 72.94834
835.60 73.8594
835.70 75.08224
835.80 76.3964
835.90 77.57693
836.00 78.39318
836.10 78.78187
836.20 79.0201
836.30 79.48666
836.40 80.27824
836.50 81.2372
836.60 82.11134
836.70 82.6806
836.80 82.83425
836.90 82.57341
837.00 81.96531
837.10 81.15711
837.20 80.30708
837.30 79.5571
837.40 79.02359
837.50 78.71756
837.60 78.56478
837.70 78.43476
837.80 78.22296
837.90 77.88613
838.00 77.44163
838.10 76.93139
838.20 76.40444
838.30 75.86915
838.40 75.37858
838.50 75.10713
838.60 75.20408
838.70 75.64054
838.80 76.27
838.90 76.96199
839.00 77.59044
839.10 78.04102
839.20 78.26848
839.30 78.28024
839.40 78.0824
839.50 77.74359
839.60 77.54053
839.70 77.85791
839.80 78.80645
839.90 80.15838
840.00 81.66313
840.10 83.16534
840.20 84.5391
840.30 85.65149
840.40 86.36092
840.50 86.55619
840.60 86.15388
840.70 85.17665
840.80 83.88899
840.90 82.62003
841.00 81.52629
841.10 80.66525
841.20 80.14235
841.30 80.00428
841.40 80.09796
841.50 80.29292
841.60 80.5548
841.70 80.79215
841.80 80.8645
841.90 80.71927
842.00 80.50484
842.10 80.49857
842.20 80.92548
842.30 82.01138
842.40 83.90534
842.50 86.46844
842.60 89.37538
842.70 92.18479
842.80 94.47482
842.90 95.87159
843.00 95.99876
843.10 94.73547
843.20 92.34062
843.30 89.32895
843.40 86.26076
843.50 83.53547
843.60 81.32537
843.70 79.56837
843.80 78.1048
843.90 76.8707
844.00 75.83914
844.10 75.05757
844.20 74.6276
844.30 74.5806
844.40 74.87877
844.50 75.37675
844.60 75.9624
844.70 76.59018
844.80 77.15281
844.90 77.51463
845.00 77.54509
845.10 77.17222
845.20 76.43169
845.30 75.39697
845.40 74.12401
845.50 72.63718
845.60 70.99819
845.70 69.4047
845.80 68.16681
845.90 67.55003
846.00 67.65201
846.10 68.39913
846.20 69.66488
846.30 71.30107
846.40 73.07977
846.50 74.70501
846.60 75.84228
846.70 76.20778
846.80 75.73791
846.90 74.60599
847.00 73.02601
847.10 71.11717
847.20 69.01225
847.30 66.98584
847.40 65.3298
847.50 64.19942
847.60 63.5363
847.70 63.1205
847.80 62.74063
847.90 62.2923
848.00 61.80389
848.10 61.37393
848.20 61.0936
848.30 61.02903
848.40 61.22664
848.50 61.68636
848.60 62.27927
848.70 62.81956
848.80 63.18194
848.90 63.28318
849.00 63.10581
849.10 62.83554
849.20 62.80435
849.30 63.13262
849.40 63.67473
849.50 64.30365
849.60 64.94856
849.70 65.56473
849.80 66.15697
849.90 66.87083
850.00 67.99526
850.10 69.65463
850.20 71.63858
850.30 73.5948
850.40 75.21552
850.50 76.19249
850.60 76.27724
850.70 75.4941
850.80 74.09343
850.90 72.42005
851.00 70.85585
851.10 69.673
851.20 69.01896
851.30 68.8836
851.40 69.01868
851.50 69.06991
851.60 68.69884
851.70 67.62573
851.80 65.68986
851.90 62.93922
852.00 59.63587
852.10 56.18465
852.20 53.16147
852.30 51.22355
852.40 50.82988
852.50 52.03603
852.60 54.533
852.70 57.76193
852.80 61.08936
852.90 64.05241
853.00 66.38894
853.10 67.95855
853.20 68.82642
853.30 69.2616
853.40 69.55696
853.50 69.94707
853.60 70.4987
853.70 71.02082
853.80 71.25845
853.90 71.15985
854.00 70.81587
854.10 70.33852
854.20 69.91448
854.30 69.76719
854.40 70.06177
854.50 70.95442
854.60 72.56116
854.70 74.8096
854.80 77.45094
854.90 80.12154
855.00 82.36278
855.10 83.70976
855.20 83.85519
855.30 82.76652
855.40 80.71258
855.50 78.13961
855.60 75.4438
855.70 72.87077
855.80 70.68727
855.90 69.17065
856.00 68.37755
856.10 68.1823
856.20 68.45516
856.30 69.09319
856.40 69.95044
856.50 70.82577
856.60 71.49619
856.70 71.76998
856.80 71.60443
856.90 71.13901
857.00 70.62948
857.10 70.37378
857.20 70.51462
857.30 71.00526
857.40 71.77481
857.50 72.69036
857.60 73.5121
857.70 74.0455
857.80 74.30626
857.90 74.45078
858.00 74.62944
858.10 74.99565
858.20 75.64021
858.30 76.52429
858.40 77.50382
858.50 78.34244
858.60 78.78022
858.70 78.6512
858.80 77.9378
858.90 76.7779
859.00 75.40509
859.10 74.13631
859.20 73.35127
859.30 73.40826
859.40 74.5562
859.50 76.80689
859.60 79.68501
859.70 82.44317
859.80 84.55887
859.90 85.72965
860.00 85.84405
860.10 85.0229
860.20 83.58443
860.30 81.95521
860.40 80.53204
860.50 79.51829
860.60 78.84399
860.70 78.25801
860.80 77.46052
860.90 76.19028
861.00 74.42939
861.10 72.29682
861.20 69.72227
861.30 66.68494
861.40 63.45407
861.50 60.43774
861.60 57.98232
861.70 56.21847
861.80 55.05087
861.90 54.3227
862.00 53.88876
862.10 53.60466
862.20 53.35326
862.30 53.06646
862.40 52.76947
862.50 52.54597
862.60 52.49982
862.70 52.69861
862.80 53.03857
862.90 53.3732
863.00 53.62571
863.10 53.82037
863.20 54.11319
863.30 54.57058
863.40 55.10114
863.50 55.59431
863.60 55.96992
863.70 56.11628
863.80 55.90923
863.90 55.41776
864.00 54.95156
864.10 54.75022
864.20 54.85733
864.30 55.17675
864.40 55.53217
864.50 55.77693
864.60 55.83623
864.70 55.81928
864.80 55.9939
864.90 56.62245
865.00 57.85256
865.10 59.66847
865.20 61.86572
865.30 63.84722
865.40 64.86984
865.50 64.61653
865.60 63.41428
865.70 61.91558
865.80 60.69846
865.90 60.17595
866.00 60.59261
866.10 61.99008
866.20 64.11369
866.30 66.48882
866.40 68.55806
866.50 69.89073
866.60 70.35055
866.70 70.22369
866.80 69.90309
866.90 69.49465
867.00 68.78207
867.10 67.59825
867.20 66.16957
867.30 64.84884
867.40 63.87733
867.50 63.43066
867.60 63.65465
867.70 64.48862
867.80 65.68354
867.90 66.89689
868.00 67.76761
868.10 68.04138
868.20 67.6855
868.30 66.92871
868.40 66.15749
868.50 65.61883
868.60 65.2138
868.70 64.71346
868.80 63.89481
868.90 62.49689
869.00 60.32973
869.10 57.46505
869.20 54.20712
869.30 51.04947
869.40 48.52894
869.50 46.97893
869.60 46.49347
869.70 47.00013
869.80 48.30206
869.90 50.06699
870.00 51.86926
870.10 53.32856
870.20 54.22426
870.30 54.45246
870.40 54.00512
870.50 53.00246
870.60 51.65275
870.70 50.08606
870.80 48.31523
870.90 46.41622
871.00 44.5829
871.10 43.10163
871.20 42.26093
871.30 42.17875
871.40 42.76591
871.50 43.85009
871.60 45.25058
871.70 46.69589
871.80 47.84537
871.90 48.46898
872.00 48.54757
872.10 48.19496
872.20 47.64259
872.30 47.25915
872.40 47.41628
872.50 48.22143
872.60 49.46411
872.70 50.86798
872.80 52.23197
872.90 53.35408
873.00 54.05955
873.10 54.34867
873.20 54.31912
873.30 54.06426
873.40 53.68002
873.50 53.34052
873.60 53.24698
873.70 53.47012
873.80 53.96791
873.90 54.77998
874.00 55.99854
874.10 57.50789
874.20 58.93218
874.30 59.90492
874.40 60.24218
874.50 59.84237
874.60 58.79852
874.70 57.39896
874.80 55.94469
874.90 54.72179
875.00 53.97312
875.10 53.78984
875.20 54.02461
875.30 54.44706
875.40 54.93568
875.50 55.53484
875.60 56.44248
875.70 57.69282
875.80 59.02388
875.90 60.20596
876.00 61.15059
876.10 61.76562
876.20 61.9442
876.30 61.73162
876.40 61.37391
876.50 61.2985
876.60 62.0034
876.70 63.75649
876.80 66.49059
876.90 69.92788
877.00 73.64048
877.10 77.2144
877.20 80.27359
877.30 82.5093
877.40 83.86253
877.50 84.41501
877.60 84.07372
877.70 82.70955
877.80 80.41072
877.90 77.40088
878.00 74.03407
878.10 70.69745
878.20 67.71285
878.30 65.30123
878.40 63.58287
878.50 62.62158
878.60 62.57884
878.70 63.57187
878.80 65.34381
878.90 67.42204
879.00 69.54961
879.10 71.58356
879.20 73.37017
879.30 74.73039
879.40 75.40686
879.50 75.23914
879.60 74.18257
879.70 72.36208
879.80 70.08853
879.90 67.73285
880.00 65.58266
880.10 63.8025
880.20 62.49585
880.30 61.78363
880.40 61.80344
880.50 62.50163
880.60 63.47306
880.70 64.28763
880.80 64.81594
880.90 65.20618
881.00 65.75303
881.10 66.71822
881.20 68.28046
881.30 70.53381
881.40 73.40263
881.50 76.69281
881.60 80.14637
881.70 83.42866
881.80 86.16803
881.90 87.94291
882.00 88.62291
882.10 88.46375
882.20 87.74632
882.30 86.62553
882.40 85.19277
882.50 83.63109
882.60 82.31428
882.70 81.69528
882.80 81.99885
882.90 83.0247
883.00 84.33704
883.10 85.48844
883.20 86.14045
883.30 86.40253
883.40 86.51029
883.50 86.52464
883.60 86.52599
883.70 86.63696
883.80 87.06628
883.90 87.89123
884.00 88.73267
884.10 88.85775
884.20 87.68454
884.30 85.16631
884.40 81.66316
884.50 77.77802
884.60 74.23253
884.70 71.69493
884.80 70.70755
884.90 71.49203
885.00 73.91054
885.10 77.54683
885.20 81.67449
885.30 85.40604
885.40 87.99284
885.50 89.07809
885.60 88.69451
885.70 87.02876
885.80 84.4091
885.90 81.41127
886.00 78.77033
886.10 76.99261
886.20 76.22936
886.30 76.47924
886.40 77.56446
886.50 79.07506
886.60 80.45666
886.70 81.12753
886.80 80.6632
886.90 78.93711
887.00 76.15589
887.10 72.88472
887.20 69.90131
887.30 67.8739
887.40 67.1952
887.50 68.021
887.60 70.28121
887.70 73.61146
887.80 77.3585
887.90 80.87675
888.00 83.9059
888.10 86.3716
888.20 88.25239
888.30 89.60638
888.40 90.52382
888.50 91.22111
888.60 92.00144
888.70 93.04778
888.80 94.21909
888.90 95.10894
889.00 95.27082
889.10 94.36241
889.20 92.18875
889.30 88.72444
889.40 84.0362
889.50 78.61645
889.60 73.44816
889.70 69.54237
889.80 67.65974
889.90 67.96483
890.00 69.90561
890.10 72.63179
890.20 75.43553
890.30 77.86862
890.40 79.59249
890.50 80.37752
890.60 80.25993
890.70 79.50607
890.80 78.55179
890.90 77.87239
891.00 77.79152
891.10 78.49192
891.20 79.88207
891.30 81.73145
891.40 83.86203
891.50 86.08813
891.60 88.22379
891.70 90.06361
891.80 91.47339
891.90 92.41729
892.00 92.93904
892.10 93.13172
892.20 93.0509
892.30 92.70106
892.40 92.00489
892.50 90.79138
892.60 89.01137
892.70 86.76206
892.80 84.38126
892.90 82.47169
893.00 81.60889
893.10 82.16531
893.20 84.1429
893.30 87.17888
893.40 90.70579
893.50 94.01024
893.60 96.29967
893.70 96.78764
893.80 94.98143
893.90 91.01137
894.00 85.51841
894.10 79.2977
894.20 73.0799
894.30 67.59238
894.40 63.53912
894.50 61.25119
894.60 60.6678
894.70 61.62353
894.80 63.85212
894.90 66.93179
895.00 70.48792
895.10 74.4037
895.20 78.69821
895.30 83.3095
895.40 88.07656
895.50 92.84196
895.60 97.36678
895.70 101.1902
895.80 103.8254
895.90 105.0856
896.00 105.1525
896.10 104.1763
896.20 102.1454
896.30 99.26278
896.40 96.02226
896.50 92.93405
896.60 90.25602
896.70 88.04662
896.80 86.44366
896.90 85.63648
897.00 85.67918
897.10 86.45731
897.20 87.75496
897.30 89.33355
897.40 90.83749
897.50 91.93446
897.60 92.53448
897.70 92.65978
897.80 92.29158
897.90 91.50617
898.00 90.64411
898.10 90.12241
898.20 90.1497
898.30 90.76973
898.40 92.13497
898.50 94.32475
898.60 96.92661
898.70 99.28403
898.80 100.8236
898.90 101.3077
899.00 100.9521
899.10 100.1738
899.20 99.36113
899.30 98.69368
899.40 98.15707
899.50 97.68493
899.60 97.11345
899.70 96.29707
899.80 95.13137
899.90 93.56077
900.00 93.81487
900.10 94.06898
900.20 94.32308
900.30 94.57718
900.40 94.83129
900.50 95.08539
900.60 95.3395
900.70 95.5936
900.80 95.8477
900.90 96.10181
901.00 96.35591
901.10 96.61002
901.20 96.86412
901.30 97.11822
901.40 97.37233
901.50 97.62643
901.60 97.88053
901.70 98.13464
901.80 98.38874
901.90 98.64285
902.00 98.89695
902.10 99.15105
902.20 99.40516
902.30 99.65926
902.40 99.91336
902.50 100.1675
902.60 100.4216
902.70 100.6757
902.80 100.9298
902.90 101.1839
903.00 101.438
903.10 101.6921
903.20 101.7429
903.30 101.7917
903.40 101.8405
903.50 101.8893
903.60 101.9381
903.70 101.9869
903.80 102.0357
903.90 102.0845
904.00 102.1332
904.10 102.182
904.20 102.2308
904.30 102.2796
904.40 102.3284
904.50 102.3772
904.60 102.426
904.70 102.4748
904.80 102.5236
904.90 102.5723
905.00 102.6211
905.10 102.6699
905.20 102.7187
905.30 102.7675
905.40 102.8163
905.50 102.8651
905.60 102.9139
905.70 102.9627
905.80 103.0114
905.90 103.0602
906.00 103.109
906.10 103.1578
906.20 103.2066
906.30 103.2554
906.40 103.3042
906.50 103.353
906.60 103.4216
906.70 103.4987
906.80 103.5759
906.90 103.653
907.00 103.7302
907.10 103.8073
907.20 103.8845
907.30 103.9616
907.40 104.0387
907.50 104.1159
907.60 104.193
907.70 104.2702
907.80 104.3473
907.90 104.4244
908.00 104.5016
908.10 104.5787
908.20 104.6559
908.30 104.733
908.40 104.8101
908.50 104.8873
908.60 104.9644
908.70 105.0416
908.80 105.1187
908.90 105.1958
909.00 105.273
909.10 105.3501
909.20 105.4273
909.30 105.5044
909.40 105.5815
909.50 105.6587
909.60 105.7358
909.70 105.813
909.80 105.8901
909.90 105.9673
910.00 106.0375
910.10 106.0847
910.20 106.1318
910.30 106.179
910.40 106.2262
910.50 106.2734
910.60 106.3205
910.70 106.3677
910.80 106.4149
910.90 106.462
911.00 106.5092
911.10 106.5564
911.20 106.6035
911.30 106.6507
911.40 106.6979
911.50 106.7451
911.60 106.7922
911.70 106.8394
911.80 106.8866
911.90 106.9337
912.00 106.9809
912.10 107.0281
912.20 107.0752
912.30 107.1224
912.40 107.1696
912.50 107.2168
912.60 107.2639
912.70 107.3111
912.80 107.3583
912.90 107.4054
913.00 107.4526
913.10 107.4998
913.20 107.5469
913.30 107.5941
913.40 107.6413
913.50 107.7214
913.60 107.8262
913.70 107.9311
913.80 108.036
913.90 108.1409
914.00 108.2458
914.10 108.3506
914.20 108.4555
914.30 108.5604
914.40 108.6653
914.50 108.7702
914.60 108.875
914.70 108.9799
914.80 109.0848
914.90 109.1897
915.00 109.2946
915.10 109.3994
915.20 109.5043
915.30 109.6092
915.40 109.7141
915.50 109.819
915.60 109.9238
915.70 110.0287
915.80 110.1336
915.90 110.2385
916.00 110.3433
916.10 110.4482
916.20 110.5531
916.30 110.658
916.40 110.7629
916.50 110.8677
916.60 110.9726
916.70 111.0775
916.80 111.1824
916.90 111.2873
917.00 111.3554
917.10 111.4106
917.20 111.4659
917.30 111.5211
917.40 111.5763
917.50 111.6316
917.60 111.6868
917.70 111.742
917.80 111.7973
917.90 111.8525
918.00 111.9077
918.10 111.963
918.20 112.0182
918.30 112.0734
918.40 112.1287
918.50 112.1839
918.60 112.2391
918.70 112.2944
918.80 112.3496
918.90 112.4048
919.00 112.4601
919.10 112.5153
919.20 112.5705
919.30 112.6258
919.40 112.681
919.50 112.7362
919.60 112.7915
919.70 112.8467
919.80 112.9019
919.90 112.9572
920.00 113.0124
920.10 113.0676
920.20 113.1228
920.30 113.1781
920.40 113.2333
920.50 113.3025
920.60 113.3766
920.70 113.4506
920.80 113.5247
920.90 113.5988
921.00 113.6729
921.10 113.7469
921.20 113.821
921.30 113.8951
921.40 113.9692
921.50 114.0432
921.60 114.1173
921.70 114.1914
921.80 114.2655
921.90 114.3395
922.00 114.4136
922.10 114.4877
922.20 114.5618
922.30 114.6358
922.40 114.7099
922.50 114.784
922.60 114.8581
922.70 114.9321
922.80 115.0062
922.90 115.0803
923.00 115.1544
923.10 115.2284
923.20 115.3025
923.30 115.3766
923.40 115.4507
923.50 115.5247
923.60 115.5988
923.70 115.6729
923.80 115.747
923.90 115.821
924.00 115.8143
924.10 115.744
924.20 115.6737
924.30 115.6035
924.40 115.5332
924.50 115.4629
924.60 115.3927
924.70 115.3224
924.80 115.2521
924.90 115.1818
925.00 115.1116
925.10 115.0413
925.20 114.971
925.30 114.9008
925.40 114.8305
925.50 114.7602
925.60 114.69
925.70 114.6197
925.80 114.5494
925.90 114.4792
926.00 114.4089
926.10 114.3386
926.20 114.2683
926.30 114.1981
926.40 114.1278
926.50 114.0575
926.60 113.9873
926.70 113.917
926.80 113.8467
926.90 113.7765
927.00 113.7062
927.10 113.6359
927.20 113.5656
927.30 113.4954
927.40 113.4251
927.50 113.3539
927.60 113.2792
927.70 113.2044
927.80 113.1296
927.90 113.0548
928.00 112.9801
928.10 112.9053
928.20 112.8305
928.30 112.7558
928.40 112.681
928.50 112.6062
928.60 112.5315
928.70 112.4567
928.80 112.3819
928.90 112.3071
929.00 112.2324
929.10 112.1576
929.20 112.0828
929.30 112.0081
929.40 111.9333
929.50 111.8585
929.60 111.7837
929.70 111.709
929.80 111.6342
929.90 111.5594
930.00 111.4847
930.10 111.4099
930.20 111.3351
930.30 111.2603
930.40 111.1856
930.50 111.1108
930.60 111.036
930.70 110.9613
930.80 110.8865
930.90 110.8117
931.00 110.737
931.10 110.8084
931.20 110.9518
931.30 111.0953
931.40 111.2387
931.50 111.3821
931.60 111.5256
931.70 111.669
931.80 111.8124
931.90 111.9559
932.00 112.0993
932.10 112.2427
932.20 112.3862
932.30 112.5296
932.40 112.673
932.50 112.8165
932.60 112.9599
932.70 113.1033
932.80 113.2468
932.90 113.3902
933.00 113.5336
933.10 113.6771
933.20 113.8205
933.30 113.964
933.40 114.1074
933.50 114.2508
933.60 114.3943
933.70 114.5377
933.80 114.6811
933.90 114.8246
934.00 114.968
934.10 115.1114
934.20 115.2549
934.30 115.3983
934.40 115.5417
934.50 115.6852
934.60 115.8286
934.70 115.9342
934.80 116.0386
934.90 116.1431
935.00 116.2475
935.10 116.3519
935.20 116.4563
935.30 116.5608
935.40 116.6652
935.50 116.7696
935.60 116.874
935.70 116.9785
935.80 117.0829
935.90 117.1873
936.00 117.2917
936.10 117.3962
936.20 117.5006
936.30 117.605
936.40 117.7094
936.50 117.8139
936.60 117.9183
936.70 118.0227
936.80 118.1271
936.90 118.2316
937.00 118.336
937.10 118.4404
937.20 118.5448
937.30 118.6493
937.40 118.7537
937.50 118.8581
937.60 118.9625
937.70 119.067
937.80 119.1714
937.90 119.2758
938.00 119.3802
938.10 119.4847
938.20 119.578
938.30 119.5719
938.40 119.5658
938.50 119.5597
938.60 119.5537
938.70 119.5476
938.80 119.5415
938.90 119.5354
939.00 119.5293
939.10 119.5232
939.20 119.5171
939.30 119.511
939.40 119.5049
939.50 119.4988
939.60 119.4927
939.70 119.4866
939.80 119.4805
939.90 119.4744
940.00 119.4683
940.10 119.4622
940.20 119.4561
940.30 119.45
940.40 119.4439
940.50 119.4378
940.60 119.4317
940.70 119.4256
940.80 119.4195
940.90 119.4134
941.00 119.4073
941.10 119.4012
941.20 119.3951
941.30 119.389
941.40 119.3829
941.50 119.3768
941.60 119.3707
941.70 119.3647
941.80 119.3622
941.90 119.4088
942.00 119.4553
942.10 119.5018
942.20 119.5484
942.30 119.5949
942.40 119.6415
942.50 119.688
942.60 119.7345
942.70 119.7811
942.80 119.8276
942.90 119.8741
943.00 119.9207
943.10 119.9672
943.20 120.0137
943.30 120.0603
943.40 120.1068
943.50 120.1534
943.60 120.1999
943.70 120.2464
943.80 120.293
943.90 120.3395
944.00 120.386
944.10 120.4326
944.20 120.4791
944.30 120.5257
944.40 120.5722
944.50 120.6187
944.60 120.6653
944.70 120.7118
944.80 120.7583
944.90 120.8049
945.00 120.8514
945.10 120.8979
945.20 120.9445
945.30 120.991
945.40 121.0376
945.50 121.1194
945.60 121.2065
945.70 121.2937
945.80 121.3808
945.90 121.4679
946.00 121.555
946.10 121.6422
946.20 121.7293
946.30 121.8164
946.40 121.9035
946.50 121.9907
946.60 122.0778
946.70 122.1649
946.80 122.2521
946.90 122.3392
947.00 122.4263
947.10 122.5134
947.20 122.6006
947.30 122.6877
947.40 122.7748
947.50 122.8619
947.60 122.9491
947.70 123.0362
947.80 123.1233
947.90 123.2104
948.00 123.2976
948.10 123.3847
948.20 123.4718
948.30 123.559
948.40 123.6461
948.50 123.7332
948.60 123.8203
948.70 123.9075
948.80 123.9946
948.90 124.0817
949.00 124.1688
949.10 124.2655
949.20 124.3717
949.30 124.4779
949.40 124.5841
949.50 124.6902
949.60 124.7964
949.70 124.9026
949.80 125.0088
949.90 125.115
950.00 125.2212
950.10 125.3274
950.20 125.4336
950.30 125.5397
950.40 125.6459
950.50 125.7521
950.60 125.8583
950.70 125.9645
950.80 126.0707
950.90 126.1769
951.00 126.283
951.10 126.3892
951.20 126.4954
951.30 126.6016
951.40 126.7078
951.50 126.814
951.60 126.9202
951.70 127.0264
951.80 127.1325
951.90 127.2387
952.00 127.3449
952.10 127.4511
952.20 127.5573
952.30 127.6635
952.40 127.7697
952.50 127.8759
952.60 127.982
952.70 128.0882
952.80 128.1036
952.90 128.1161
953.00 128.1286
953.10 128.1412
953.20 128.1537
953.30 128.1662
953.40 128.1788
953.50 128.1913
953.60 128.2039
953.70 128.2164
953.80 128.2289
953.90 128.2415
954.00 128.254
954.10 128.2665
954.20 128.2791
954.30 128.2916
954.40 128.3041
954.50 128.3167
954.60 128.3292
954.70 128.3417
954.80 128.3543
954.90 128.3668
955.00 128.3793
955.10 128.3919
955.20 128.4044
955.30 128.417
955.40 128.4295
955.50 128.442
955.60 128.4546
955.70 128.4671
955.80 128.4796
955.90 128.4922
956.00 128.5047
956.10 128.5172
956.20 128.5298
956.30 128.5423
956.40 128.5559
956.50 128.5724
956.60 128.5888
956.70 128.6052
956.80 128.6216
956.90 128.6381
957.00 128.6545
957.10 128.6709
957.20 128.6873
957.30 128.7038
957.40 128.7202
957.50 128.7366
957.60 128.753
957.70 128.7694
957.80 128.7859
957.90 128.8023
958.00 128.8187
958.10 128.8351
958.20 128.8516
958.30 128.868
958.40 128.8844
958.50 128.9008
958.60 128.9173
958.70 128.9337
958.80 128.9501
958.90 128.9665
959.00 128.983
959.10 128.9994
959.20 129.0158
959.30 129.0322
959.40 129.0487
959.50 129.0651
959.60 129.0815
959.70 129.0979
959.80 129.1144
959.90 129.1308
960.00 129.1472
960.10 129.1374
960.20 129.0927
960.30 129.048
960.40 129.0033
960.50 128.9586
960.60 128.914
960.70 128.8693
960.80 128.8246
960.90 128.7799
961.00 128.7352
961.10 128.6906
961.20 128.6459
961.30 128.6012
961.40 128.5565
961.50 128.5118
961.60 128.4672
961.70 128.4225
961.80 128.3778
961.90 128.3331
962.00 128.2884
962.10 128.2438
962.20 128.1991
962.30 128.1544
962.40 128.1097
962.50 128.065
962.60 128.0204
962.70 127.9757
962.80 127.931
962.90 127.8863
963.00 127.8416
963.10 127.797
963.20 127.7523
963.30 127.7076
963.40 127.6629
963.50 127.6182
963.60 127.5736
963.70 127.5289
963.80 127.5427
963.90 127.6374
964.00 127.732
964.10 127.8267
964.20 127.9214
964.30 128.016
964.40 128.1107
964.50 128.2053
964.60 128.3
964.70 128.3947
964.80 128.4893
964.90 128.584
965.00 128.6786
965.10 128.7733
965.20 128.868
965.30 128.9626
965.40 129.0573
965.50 129.1519
965.60 129.2466
965.70 129.3412
965.80 129.4359
965.90 129.5306
966.00 129.6252
966.10 129.7199
966.20 129.8145
966.30 129.9092
966.40 130.0039
966.50 130.0985
966.60 130.1932
966.70 130.2878
966.80 130.3825
966.90 130.4772
967.00 130.5718
967.10 130.6665
967.20 130.7611
967.30 130.8558
967.40 130.9505
967.50 131.0269
967.60 131.0516
967.70 131.0763
967.80 131.1009
967.90 131.1256
968.00 131.1503
968.10 131.175
968.20 131.1997
968.30 131.2243
968.40 131.249
968.50 131.2737
968.60 131.2984
968.70 131.323
968.80 131.3477
968.90 131.3724
969.00 131.3971
969.10 131.4217
969.20 131.4464
969.30 131.4711
969.40 131.4958
969.50 131.5204
969.60 131.5451
969.70 131.5698
969.80 131.5945
969.90 131.6192
970.00 131.6438
970.10 131.6685
970.20 131.6932
970.30 131.7179
970.40 131.7425
970.50 131.7672
970.60 131.7919
970.70 131.8166
970.80 131.8412
970.90 131.8659
971.00 131.8906
971.10 131.9153
971.20 131.9399
971.30 132.0192
971.40 132.102
971.50 132.1847
971.60 132.2675
971.70 132.3502
971.80 132.433
971.90 132.5157
972.00 132.5984
972.10 132.6812
972.20 132.7639
972.30 132.8467
972.40 132.9294
972.50 133.0122
972.60 133.0949
972.70 133.1777
972.80 133.2604
972.90 133.3432
973.00 133.4259
973.10 133.5087
973.20 133.5914
973.30 133.6742
973.40 133.7569
973.50 133.8397
973.60 133.9224
973.70 134.0052
973.80 134.0879
973.90 134.1706
974.00 134.2534
974.10 134.3361
974.20 134.4189
974.30 134.5016
974.40 134.5844
974.50 134.6671
974.60 134.7499
974.70 134.8326
974.80 134.9154
974.90 134.9981
975.00 135.1099
975.10 135.2544
975.20 135.3989
975.30 135.5435
975.40 135.688
975.50 135.8325
975.60 135.977
975.70 136.1215
975.80 136.266
975.90 136.4106
976.00 136.5551
976.10 136.6996
976.20 136.8441
976.30 136.9886
976.40 137.1331
976.50 137.2777
976.60 137.4222
976.70 137.5667
976.80 137.7112
976.90 137.8557
977.00 138.0002
977.10 138.1448
977.20 138.2893
977.30 138.4338
977.40 138.5783
977.50 138.7228
977.60 138.8673
977.70 139.0119
977.80 139.1564
977.90 139.3009
978.00 139.4454
978.10 139.5899
978.20 139.7344
978.30 139.879
978.40 140.0235
978.50 140.168
978.60 140.3125
978.70 140.457
978.80 140.455
978.90 140.4271
979.00 140.3991
979.10 140.3712
979.20 140.3433
979.30 140.3154
979.40 140.2875
979.50 140.2595
979.60 140.2316
979.70 140.2037
979.80 140.1758
979.90 140.1479
980.00 140.12
980.10 140.092
980.20 140.0641
980.30 140.0362
980.40 140.0083
980.50 139.9804
980.60 139.9525
980.70 139.9245
980.80 139.8966
980.90 139.8687
981.00 139.8408
981.10 139.8129
981.20 139.7849
981.30 139.757
981.40 139.7291
981.50 139.7012
981.60 139.6733
981.70 139.6454
981.80 139.6174
981.90 139.5895
982.00 139.5616
982.10 139.5337
982.20 139.5058
982.30 139.4778
982.40 139.4499
982.50 139.4098
982.60 139.2299
982.70 139.05
982.80 138.87
982.90 138.6901
983.00 138.5101
983.10 138.3302
983.20 138.1502
983.30 137.9703
983.40 137.7903
983.50 137.6104
983.60 137.4304
983.70 137.2505
983.80 137.0706
983.90 136.8906
984.00 136.7107
984.10 136.5307
984.20 136.3508
984.30 136.1708
984.40 135.9909
984.50 135.8109
984.60 135.631
984.70 135.451
984.80 135.2711
984.90 135.0912
985.00 134.9112
985.10 134.7313
985.20 134.5513
985.30 134.3714
985.40 134.1914
985.50 134.0115
985.60 133.8315
985.70 133.6516
985.80 133.4716
985.90 133.2917
986.00 133.1118
986.10 132.9318
986.20 132.7519
986.30 132.5653
986.40 132.3443
986.50 132.1233
986.60 131.9022
986.70 131.6812
986.80 131.4601
986.90 131.2391
987.00 131.018
987.10 130.797
987.20 130.5759
987.30 130.3549
987.40 130.1339
987.50 129.9128
987.60 129.6918
987.70 129.4707
987.80 129.2497
987.90 129.0286
988.00 128.8076
988.10 128.5865
988.20 128.3655
988.30 128.1445
988.40 127.9234
988.50 127.7024
988.60 127.4813
988.70 127.2603
988.80 127.0392
988.90 126.8182
989.00 126.5971
989.10 126.3761
989.20 126.1551
989.30 125.934
989.40 125.713
989.50 125.4919
989.60 125.2709
989.70 125.0498
989.80 124.8288
989.90 124.6077
990.00 124.3867
990.10 124.1689
990.20 123.9801
990.30 123.7914
990.40 123.6026
990.50 123.4138
990.60 123.2251
990.70 123.0363
990.80 122.8475
990.90 122.6588
991.00 122.47
991.10 122.2813
991.20 122.0925
991.30 121.9037
991.40 121.715
991.50 121.5262
991.60 121.3374
991.70 121.1487
991.80 120.9599
991.90 120.7712
992.00 120.5824
992.10 120.3936
992.20 120.2049
992.30 120.0161
992.40 119.8273
992.50 119.6386
992.60 119.4498
992.70 119.2611
992.80 119.0723
992.90 118.8835
993.00 118.6948
993.10 118.506
993.20 118.3172
993.30 118.1285
993.40 117.9397
993.50 117.751
993.60 117.5622
993.70 117.3734
993.80 117.1847
993.90 116.9959
994.00 116.8632
994.10 116.7368
994.20 116.6103
994.30 116.4839
994.40 116.3575
994.50 116.231
994.60 116.1046
994.70 115.9781
994.80 115.8517
994.90 115.7252
995.00 115.5988
995.10 115.4724
995.20 115.3459
995.30 115.2195
995.40 115.093
995.50 114.9666
995.60 114.8401
995.70 114.7137
995.80 114.5873
995.90 114.4608
996.00 114.3344
996.10 114.2079
996.20 114.0815
996.30 113.955
996.40 113.8286
996.50 113.7022
996.60 113.5757
996.70 113.4493
996.80 113.3228
996.90 113.1964
997.00 113.0699
997.10 112.9435
997.20 112.817
997.30 112.6906
997.40 112.5642
997.50 112.4377
997.60 112.3113
997.70 112.1848
997.80 112.1746
997.90 112.2595
998.00 112.3444
998.10 112.4293
998.20 112.5142
998.30 112.5991
998.40 112.684
998.50 112.7689
998.60 112.8538
998.70 112.9387
998.80 113.0236
998.90 113.1085
999.00 113.1934
999.10 113.2783
999.20 113.3632
999.30 113.4481
999.40 113.533
999.50 113.6179
999.60 113.7028
999.70 113.7877
999.80 113.8726
999.90 113.9575
1000.00 114.0424
1000.10 114.1273
1000.20 114.2122
1000.30 114.297
1000.40 114.3819
1000.50 114.4668
1000.60 114.5517
1000.70 114.6366
1000.80 114.7215
1000.90 114.8064
1001.00 114.8913
1001.10 114.9762
1001.20 115.0611
1001.30 115.146
1001.40 115.2309
1001.50 115.3158
1001.60 115.4008
1001.70 115.4866
1001.80 115.5724
1001.90 115.6582
1002.00 115.744
1002.10 115.8298
1002.20 115.9156
1002.30 116.0014
1002.40 116.0872
1002.50 116.173
1002.60 116.2588
1002.70 116.3446
1002.80 116.4304
1002.90 116.5162
1003.00 116.602
1003.10 116.6878
1003.20 116.7736
1003.30 116.8594
1003.40 116.9451
1003.50 117.0309
1003.60 117.1167
1003.70 117.2025
1003.80 117.2883
1003.90 117.3741
1004.00 117.4599
1004.10 117.5457
1004.20 117.6315
1004.30 117.7173
1004.40 117.8031
1004.50 117.8889
1004.60 117.9747
1004.70 118.0605
1004.80 118.1463
1004.90 118.2321
1005.00 118.3179
1005.10 118.4037
1005.20 118.4895
1005.30 118.5753
1005.40 118.6611
1005.50 118.7769
1005.60 118.9379
1005.70 119.0988
1005.80 119.2598
1005.90 119.4207
1006.00 119.5817
1006.10 119.7426
1006.20 119.9036
1006.30 120.0645
1006.40 120.2255
1006.50 120.3864
1006.60 120.5473
1006.70 120.7083
1006.80 120.8692
1006.90 121.0302
1007.00 121.1911
1007.10 121.3521
1007.20 121.513
1007.30 121.674
1007.40 121.8349
1007.50 121.9959
1007.60 122.1568
1007.70 122.3177
1007.80 122.4787
1007.90 122.6396
1008.00 122.8006
1008.10 122.9615
1008.20 123.1225
1008.30 123.2834
1008.40 123.4444
1008.50 123.6053
1008.60 123.7663
1008.70 123.9272
1008.80 124.0881
1008.90 124.2491
1009.00 124.41
1009.10 124.571
1009.20 124.7319
1009.30 124.8929
1009.40 124.9892
1009.50 125.0579
1009.60 125.1266
1009.70 125.1952
1009.80 125.2639
1009.90 125.3326
1010.00 125.4012
1010.10 125.4699
1010.20 125.5386
1010.30 125.6073
1010.40 125.6759
1010.50 125.7446
1010.60 125.8133
1010.70 125.8819
1010.80 125.9506
1010.90 126.0193
1011.00 126.0879
1011.10 126.1566
1011.20 126.2253
1011.30 126.2939
1011.40 126.3626
1011.50 126.4313
1011.60 126.5
1011.70 126.5686
1011.80 126.6373
1011.90 126.706
1012.00 126.7746
1012.10 126.8433
1012.20 126.912
1012.30 126.9806
1012.40 127.0493
1012.50 127.118
1012.60 127.1866
1012.70 127.2553
1012.80 127.324
1012.90 127.3927
1013.00 127.4613
1013.10 127.53
1013.20 127.5987
1013.30 127.6093
1013.40 127.6054
1013.50 127.6015
1013.60 127.5976
1013.70 127.5938
1013.80 127.5899
1013.90 127.586
1014.00 127.5821
1014.10 127.5782
1014.20 127.5743
1014.30 127.5705
1014.40 127.5666
1014.50 127.5627
1014.60 127.5588
1014.70 127.5549
1014.80 127.5511
1014.90 127.5472
1015.00 127.5433
1015.10 127.5394
1015.20 127.5355
1015.30 127.5316
1015.40 127.5278
1015.50 127.5239
1015.60 127.52
1015.70 127.5161
1015.80 127.5122
1015.90 127.5083
1016.00 127.5045
1016.10 127.5006
1016.20 127.4967
1016.30 127.4928
1016.40 127.4889
1016.50 127.4851
1016.60 127.4812
1016.70 127.4773
1016.80 127.4734
1016.90 127.4695
1017.00 127.4656
1017.10 127.4618
1017.20 127.515
1017.30 127.5824
1017.40 127.6499
1017.50 127.7174
1017.60 127.7849
1017.70 127.8524
1017.80 127.9198
1017.90 127.9873
1018.00 128.0548
1018.10 128.1223
1018.20 128.1898
1018.30 128.2572
1018.40 128.3247
1018.50 128.3922
1018.60 128.4597
1018.70 128.5272
1018.80 128.5947
1018.90 128.6621
1019.00 128.7296
1019.10 128.7971
1019.20 128.8646
1019.30 128.9321
1019.40 128.9995
1019.50 129.067
1019.60 129.1345
1019.70 129.202
1019.80 129.2695
1019.90 129.3369
1020.00 129.4044
1020.10 129.4719
1020.20 129.5394
1020.30 129.6069
1020.40 129.6743
1020.50 129.7418
1020.60 129.8093
1020.70 129.8768
1020.80 129.9443
1020.90 130.0117
1021.00 130.0792
1021.10 130.1079
1021.20 130.1106
1021.30 130.1134
1021.40 130.1161
1021.50 130.1189
1021.60 130.1217
1021.70 130.1244
1021.80 130.1272
1021.90 130.13
1022.00 130.1327
1022.10 130.1355
1022.20 130.1382
1022.30 130.141
1022.40 130.1438
1022.50 130.1465
1022.60 130.1493
1022.70 130.152
1022.80 130.1548
1022.90 130.1576
1023.00 130.1603
1023.10 130.1631
1023.20 130.1658
1023.30 130.1686
1023.40 130.1714
1023.50 130.1741
1023.60 130.1769
1023.70 130.1796
1023.80 130.1824
1023.90 130.1852
1024.00 130.1879
1024.10 130.1907
1024.20 130.1934
1024.30 130.1962
1024.40 130.199
1024.50 130.2017
1024.60 130.2045
1024.70 130.2072
1024.80 130.21
1024.90 130.2128
1025.00 130.2154
1025.10 130.2179
1025.20 130.2204
1025.30 130.2228
1025.40 130.2253
1025.50 130.2278
1025.60 130.2303
1025.70 130.2328
1025.80 130.2352
1025.90 130.2377
1026.00 130.2402
1026.10 130.2427
1026.20 130.2452
1026.30 130.2476
1026.40 130.2501
1026.50 130.2526
1026.60 130.2551
1026.70 130.2575
1026.80 130.26
1026.90 130.2625
1027.00 130.265
1027.10 130.2675
1027.20 130.2699
1027.30 130.2724
1027.40 130.2749
1027.50 130.2774
1027.60 130.2798
1027.70 130.2823
1027.80 130.2848
1027.90 130.2873
1028.00 130.2898
1028.10 130.2922
1028.20 130.2947
1028.30 130.2972
1028.40 130.2997
1028.50 130.3022
1028.60 130.3046
1028.70 130.3071
1028.80 130.3096
1028.90 130.3121
1029.00 130.456
1029.10 130.5999
1029.20 130.7438
1029.30 130.8877
1029.40 131.0316
1029.50 131.1755
1029.60 131.3194
1029.70 131.4633
1029.80 131.6072
1029.90 131.7511
1030.00 131.895
1030.10 132.0389
1030.20 132.1828
1030.30 132.3267
1030.40 132.4706
1030.50 132.6145
1030.60 132.7584
1030.70 132.9023
1030.80 133.0462
1030.90 133.1901
1031.00 133.334
1031.10 133.4779
1031.20 133.6218
1031.30 133.7657
1031.40 133.9096
1031.50 134.0535
1031.60 134.1974
1031.70 134.3413
1031.80 134.4852
1031.90 134.6291
1032.00 134.773
1032.10 134.9169
1032.20 135.0608
1032.30 135.2047
1032.40 135.3486
1032.50 135.4925
1032.60 135.6364
1032.70 135.7803
1032.80 135.9242
1032.90 136.0392
1033.00 136.1107
1033.10 136.1823
1033.20 136.2538
1033.30 136.3254
1033.40 136.3969
1033.50 136.4685
1033.60 136.54
1033.70 136.6116
1033.80 136.6831
1033.90 136.7547
1034.00 136.8262
1034.10 136.8977
1034.20 136.9693
1034.30 137.0408
1034.40 137.1124
1034.50 137.1839
1034.60 137.2555
1034.70 137.327
1034.80 137.3986
1034.90 137.4701
1035.00 137.5417
1035.10 137.6132
1035.20 137.6847
1035.30 137.7563
1035.40 137.8278
1035.50 137.8994
1035.60 137.9709
1035.70 138.0425
1035.80 138.114
1035.90 138.1856
1036.00 138.2571
1036.10 138.3287
1036.20 138.4002
1036.30 138.4717
1036.40 138.5433
1036.50 138.6148
1036.60 138.6864
1036.70 138.7579
1036.80 138.8295
1036.90 138.8783
1037.00 138.9214
1037.10 138.9645
1037.20 139.0076
1037.30 139.0507
1037.40 139.0938
1037.50 139.1369
1037.60 139.18
1037.70 139.2232
1037.80 139.2663
1037.90 139.3094
1038.00 139.3525
1038.10 139.3956
1038.20 139.4387
1038.30 139.4818
1038.40 139.5249
1038.50 139.568
1038.60 139.6111
1038.70 139.6543
1038.80 139.6974
1038.90 139.7405
1039.00 139.7836
1039.10 139.8267
1039.20 139.8698
1039.30 139.9129
1039.40 139.956
1039.50 139.9991
1039.60 140.0422
1039.70 140.0853
1039.80 140.1285
1039.90 140.1716
1040.00 140.2147
1040.10 140.2578
1040.20 140.3009
1040.30 140.344
1040.40 140.3871
1040.50 140.4302
1040.60 140.4733
1040.70 140.5164
1040.80 140.5596
1040.90 140.5946
1041.00 140.6296
1041.10 140.6646
1041.20 140.6996
1041.30 140.7346
1041.40 140.7696
1041.50 140.8046
1041.60 140.8396
1041.70 140.8746
1041.80 140.9096
1041.90 140.9446
1042.00 140.9796
1042.10 141.0146
1042.20 141.0496
1042.30 141.0846
1042.40 141.1196
1042.50 141.1546
1042.60 141.1896
1042.70 141.2246
1042.80 141.2596
1042.90 141.2946
1043.00 141.3296
1043.10 141.3646
1043.20 141.3996
1043.30 141.4346
1043.40 141.4696
1043.50 141.5046
1043.60 141.5396
1043.70 141.5746
1043.80 141.6096
1043.90 141.6446
1044.00 141.6796
1044.10 141.7146
1044.20 141.7496
1044.30 141.7846
1044.40 141.8196
1044.50 141.8546
1044.60 141.8896
1044.70 141.9246
1044.80 141.9617
1044.90 142.018
1045.00 142.0743
1045.10 142.1305
1045.20 142.1868
1045.30 142.243
1045.40 142.2993
1045.50 142.3556
1045.60 142.4118
1045.70 142.4681
1045.80 142.5244
1045.90 142.5806
1046.00 142.6369
1046.10 142.6931
1046.20 142.7494
1046.30 142.8057
1046.40 142.8619
1046.50 142.9182
1046.60 142.9744
1046.70 143.0307
1046.80 143.087
1046.90 143.1432
1047.00 143.1995
1047.10 143.2558
1047.20 143.312
1047.30 143.3683
1047.40 143.4245
1047.50 143.4808
1047.60 143.5371
1047.70 143.5933
1047.80 143.6496
1047.90 143.7058
1048.00 143.7621
1048.10 143.8184
1048.20 143.8746
1048.30 143.9309
1048.40 143.9871
1048.50 144.0434
1048.60 144.0997
1048.70 144.1559
1048.80 144.205
1048.90 144.1893
1049.00 144.1737
1049.10 144.158
1049.20 144.1423
1049.30 144.1266
1049.40 144.111
1049.50 144.0953
1049.60 144.0796
1049.70 144.064
1049.80 144.0483
1049.90 144.0326
1050.00 144.017
1050.10 144.0013
1050.20 143.9856
1050.30 143.9699
1050.40 143.9543
1050.50 143.9386
1050.60 143.9229
1050.70 143.9073
1050.80 143.8916
1050.90 143.8759
1051.00 143.8602
1051.10 143.8446
1051.20 143.8289
1051.30 143.8132
1051.40 143.7976
1051.50 143.7819
1051.60 143.7662
1051.70 143.7505
1051.80 143.7349
1051.90 143.7192
1052.00 143.7035
1052.10 143.6879
1052.20 143.6722
1052.30 143.6565
1052.40 143.6409
1052.50 143.6252
1052.60 143.6095
1052.70 143.5938
1052.80 143.5782
1052.90 143.5251
1053.00 143.472
1053.10 143.4189
1053.20 143.3659
1053.30 143.3128
1053.40 143.2597
1053.50 143.2066
1053.60 143.1536
1053.70 143.1005
1053.80 143.0474
1053.90 142.9943
1054.00 142.9412
1054.10 142.8882
1054.20 142.8351
1054.30 142.782
1054.40 142.7289
1054.50 142.6759
1054.60 142.6228
1054.70 142.5697
1054.80 142.5166
1054.90 142.4635
1055.00 142.4105
1055.10 142.3574
1055.20 142.3043
1055.30 142.2512
1055.40 142.1982
1055.50 142.1451
1055.60 142.092
1055.70 142.0389
1055.80 141.9858
1055.90 141.9328
1056.00 141.8797
1056.10 141.8266
1056.20 141.7735
1056.30 141.7205
1056.40 141.6674
1056.50 141.6143
1056.60 141.5612
1056.70 141.5082
1056.80 141.4551
1056.90 141.4554
1057.00 141.4691
1057.10 141.4827
1057.20 141.4964
1057.30 141.5101
1057.40 141.5238
1057.50 141.5374
1057.60 141.5511
1057.70 141.5648
1057.80 141.5784
1057.90 141.5921
1058.00 141.6058
1058.10 141.6194
1058.20 141.6331
1058.30 141.6468
1058.40 141.6605
1058.50 141.6741
1058.60 141.6878
1058.70 141.7015
1058.80 141.7151
1058.90 141.7288
1059.00 141.7425
1059.10 141.7562
1059.20 141.7698
1059.30 141.7835
1059.40 141.7972
1059.50 141.8108
1059.60 141.8245
1059.70 141.8382
1059.80 141.8518
1059.90 141.8655
1060.00 141.8792
1060.10 141.8929
1060.20 141.9065
1060.30 141.9202
1060.40 141.9339
1060.50 141.9475
1060.60 141.9612
1060.70 141.9749
1060.80 141.9886
1060.90 142.0423
1061.00 142.136
1061.10 142.2297
1061.20 142.3235
1061.30 142.4172
1061.40 142.511
1061.50 142.6047
1061.60 142.6985
1061.70 142.7922
1061.80 142.8859
1061.90 142.9797
1062.00 143.0734
1062.10 143.1672
1062.20 143.2609
1062.30 143.3546
1062.40 143.4484
1062.50 143.5421
1062.60 143.6359
1062.70 143.7296
1062.80 143.8233
1062.90 143.9171
1063.00 144.0108
1063.10 144.1046
1063.20 144.1983
1063.30 144.2921
1063.40 144.3858
1063.50 144.4795
1063.60 144.5733
1063.70 144.667
1063.80 144.7608
1063.90 144.8545
1064.00 144.9482
1064.10 145.042
1064.20 145.1357
1064.30 145.2295
1064.40 145.3232
1064.50 145.417
1064.60 145.5107
1064.70 145.6044
1064.80 145.6982
1064.90 145.7919
1065.00 145.8829
1065.10 145.9739
1065.20 146.0649
1065.30 146.1559
1065.40 146.2468
1065.50 146.3378
1065.60 146.4288
1065.70 146.5198
1065.80 146.6108
1065.90 146.7018
1066.00 146.7928
1066.10 146.8837
1066.20 146.9747
1066.30 147.0657
1066.40 147.1567
1066.50 147.2477
1066.60 147.3387
1066.70 147.4297
1066.80 147.5207
1066.90 147.6116
1067.00 147.7026
1067.10 147.7936
1067.20 147.8846
1067.30 147.9756
1067.40 148.0666
1067.50 148.1576
1067.60 148.2485
1067.70 148.3395
1067.80 148.4305
1067.90 148.5215
1068.00 148.6125
1068.10 148.7035
1068.20 148.7945
1068.30 148.8854
1068.40 148.9764
1068.50 149.0674
1068.60 149.1584
1068.70 149.2494
1068.80 149.3404
1068.90 149.4314
1069.00 149.527
1069.10 149.6272
1069.20 149.7274
1069.30 149.8277
1069.40 149.9279
1069.50 150.0281
1069.60 150.1284
1069.70 150.2286
1069.80 150.3288
1069.90 150.4291
1070.00 150.5293
1070.10 150.6296
1070.20 150.7298
1070.30 150.83
1070.40 150.9303
1070.50 151.0305
1070.60 151.1307
1070.70 151.231
1070.80 151.3312
1070.90 151.4314
1071.00 151.5317
1071.10 151.6319
1071.20 151.7321
1071.30 151.8324
1071.40 151.9326
1071.50 152.0328
1071.60 152.1331
1071.70 152.2333
1071.80 152.3336
1071.90 152.4338
1072.00 152.534
1072.10 152.6343
1072.20 152.7345
1072.30 152.8347
1072.40 152.935
1072.50 153.0352
1072.60 153.1354
1072.70 153.2357
1072.80 153.3359
1072.90 153.4361
1073.00 153.5364
1073.10 153.6242
1073.20 153.7107
1073.30 153.7971
1073.40 153.8836
1073.50 153.97
1073.60 154.0565
1073.70 154.1429
1073.80 154.2294
1073.90 154.3158
1074.00 154.4023
1074.10 154.4887
1074.20 154.5752
1074.30 154.6616
1074.40 154.7481
1074.50 154.8346
1074.60 154.921
1074.70 155.0075
1074.80 155.0939
1074.90 155.1804
1075.00 155.2668
1075.10 155.3533
1075.20 155.4397
1075.30 155.5262
1075.40 155.6126
1075.50 155.6991
1075.60 155.7855
1075.70 155.872
1075.80 155.9584
1075.90 156.0449
1076.00 156.1314
1076.10 156.2178
1076.20 156.3043
1076.30 156.3907
1076.40 156.4772
1076.50 156.5636
1076.60 156.6501
1076.70 156.7365
1076.80 156.823
1076.90 156.9094
1077.00 156.9959
1077.10 157.0787
1077.20 157.129
1077.30 157.1792
1077.40 157.2294
1077.50 157.2797
1077.60 157.3299
1077.70 157.3801
1077.80 157.4304
1077.90 157.4806
1078.00 157.5309
1078.10 157.5811
1078.20 157.6313
1078.30 157.6816
1078.40 157.7318
1078.50 157.7821
1078.60 157.8323
1078.70 157.8825
1078.80 157.9328
1078.90 157.983
1079.00 158.0333
1079.10 158.0835
1079.20 158.1337
1079.30 158.184
1079.40 158.2342
1079.50 158.2844
1079.60 158.3347
1079.70 158.3849
1079.80 158.4352
1079.90 158.4854
1080.00 158.5356
1080.10 158.5859
1080.20 158.6361
1080.30 158.6864
1080.40 158.7366
1080.50 158.7868
1080.60 158.8371
1080.70 158.8873
1080.80 158.9376
1080.90 158.9878
1081.00 159.038
1081.10 159.0883
1081.20 159.1896
1081.30 159.41
1081.40 159.6305
1081.50 159.8509
1081.60 160.0714
1081.70 160.2918
1081.80 160.5123
1081.90 160.7328
1082.00 160.9532
1082.10 161.1737
1082.20 161.3941
1082.30 161.6146
1082.40 161.835
1082.50 162.0555
1082.60 162.2759
1082.70 162.4964
1082.80 162.7168
1082.90 162.9373
1083.00 163.1578
1083.10 163.3782
1083.20 163.5987
1083.30 163.8191
1083.40 164.0396
1083.50 164.26
1083.60 164.4805
1083.70 164.7009
1083.80 164.9214
1083.90 165.1418
1084.00 165.3623
1084.10 165.5828
1084.20 165.8032
1084.30 166.0237
1084.40 166.2441
1084.50 166.4646
1084.60 166.685
1084.70 166.9055
1084.80 167.1259
1084.90 167.3464
1085.00 167.5668
1085.10 167.7873
1085.20 168.0078
1085.30 168.1701
1085.40 168.197
1085.50 168.2239
1085.60 168.2508
1085.70 168.2776
1085.80 168.3045
1085.90 168.3314
1086.00 168.3583
1086.10 168.3851
1086.20 168.412
1086.30 168.4389
1086.40 168.4658
1086.50 168.4926
1086.60 168.5195
1086.70 168.5464
1086.80 168.5733
1086.90 168.6001
1087.00 168.627
1087.10 168.6539
1087.20 168.6808
1087.30 168.7076
1087.40 168.7345
1087.50 168.7614
1087.60 168.7883
1087.70 168.8151
1087.80 168.842
1087.90 168.8689
1088.00 168.8958
1088.10 168.9226
1088.20 168.9495
1088.30 168.9764
1088.40 169.0033
1088.50 169.0301
1088.60 169.057
1088.70 169.0839
1088.80 169.1107
1088.90 169.1376
1089.00 169.1645
1089.10 169.1914
1089.20 169.2182
1089.30 169.2451
1089.40 169.2793
1089.50 169.3306
1089.60 169.3818
1089.70 169.433
1089.80 169.4843
1089.90 169.5355
1090.00 169.5868
1090.10 169.638
1090.20 169.6893
1090.30 169.7405
1090.40 169.7918
1090.50 169.843
1090.60 169.8943
1090.70 169.9455
1090.80 169.9968
1090.90 170.048
1091.00 170.0992
1091.10 170.1505
1091.20 170.2017
1091.30 170.253
1091.40 170.3042
1091.50 170.3555
1091.60 170.4067
1091.70 170.458
1091.80 170.5092
1091.90 170.5605
1092.00 170.6117
1092.10 170.663
1092.20 170.7142
1092.30 170.7654
1092.40 170.8167
1092.50 170.8679
1092.60 170.9192
1092.70 170.9704
1092.80 171.0217
1092.90 171.0729
1093.00 171.1242
1093.10 171.1754
1093.20 171.2267
1093.30 171.2779
1093.40 171.3292
1093.50 171.3764
1093.60 171.4077
1093.70 171.439
1093.80 171.4704
1093.90 171.5017
1094.00 171.533
1094.10 171.5643
1094.20 171.5956
1094.30 171.6269
1094.40 171.6582
1094.50 171.6895
1094.60 171.7209
1094.70 171.7522
1094.80 171.7835
1094.90 171.8148
1095.00 171.8461
1095.10 171.8774
1095.20 171.9087
1095.30 171.9401
1095.40 171.9714
1095.50 172.0027
1095.60 172.034
1095.70 172.0653
1095.80 172.0966
1095.90 172.1279
1096.00 172.1592
1096.10 172.1906
1096.20 172.2219
1096.30 172.2532
1096.40 172.2845
1096.50 172.3158
1096.60 172.3471
1096.70 172.3784
1096.80 172.4098
1096.90 172.4411
1097.00 172.4724
1097.10 172.5037
1097.20 172.535
1097.30 172.5663
1097.40 172.5976
1097.50 172.629
1097.60 172.6603
1097.70 172.7066
1097.80 172.7529
1097.90 172.7992
1098.00 172.8456
1098.10 172.8919
1098.20 172.9382
1098.30 172.9845
1098.40 173.0309
1098.50 173.0772
1098.60 173.1235
1098.70 173.1698
1098.80 173.2162
1098.90 173.2625
1099.00 173.3088
1099.10 173.3551
1099.20 173.4015
1099.30 173.4478
1099.40 173.4941
1099.50 173.5404
1099.60 173.5868
1099.70 173.6331
1099.80 173.6794
1099.90 173.7257
1100.00 173.7721
1100.10 173.8184
1100.20 173.8647
1100.30 173.911
1100.40 173.9574
1100.50 174.0037
1100.60 174.05
1100.70 174.0963
1100.80 174.1427
1100.90 174.189
1101.00 174.2353
1101.10 174.2816
1101.20 174.328
1101.30 174.3743
1101.40 174.4206
1101.50 174.4669
1101.60 174.5133
1101.70 174.5596
1101.80 174.5111
1101.90 174.4221
1102.00 174.333
1102.10 174.2439
1102.20 174.1549
1102.30 174.0658
1102.40 173.9767
1102.50 173.8877
1102.60 173.7986
1102.70 173.7095
1102.80 173.6204
1102.90 173.5314
1103.00 173.4423
1103.10 173.3532
1103.20 173.2642
1103.30 173.1751
1103.40 173.086
1103.50 172.997
1103.60 172.9079
1103.70 172.8188
1103.80 172.7297
1103.90 172.6407
1104.00 172.5516
1104.10 172.4625
1104.20 172.3735
1104.30 172.2844
1104.40 172.1953
1104.50 172.1062
1104.60 172.0172
1104.70 171.9281
1104.80 171.839
1104.90 171.75
1105.00 171.6609
1105.10 171.5718
1105.20 171.4828
1105.30 171.3937
1105.40 171.3046
1105.50 171.2155
1105.60 171.1265
1105.70 171.0374
1105.80 170.9483
1105.90 170.889
1106.00 170.8991
1106.10 170.9092
1106.20 170.9193
1106.30 170.9294
1106.40 170.9395
1106.50 170.9496
1106.60 170.9596
1106.70 170.9697
1106.80 170.9798
1106.90 170.9899
1107.00 171
1107.10 171.0101
1107.20 171.0202
1107.30 171.0303
1107.40 171.0404
1107.50 171.0505
1107.60 171.0606
1107.70 171.0706
1107.80 171.0807
1107.90 171.0908
1108.00 171.1009
1108.10 171.111
1108.20 171.1211
1108.30 171.1312
1108.40 171.1413
1108.50 171.1514
1108.60 171.1615
1108.70 171.1715
1108.80 171.1816
1108.90 171.1917
1109.00 171.2018
1109.10 171.2119
1109.20 171.222
1109.30 171.2321
1109.40 171.2422
1109.50 171.2523
1109.60 171.2624
1109.70 171.2724
1109.80 171.2825
1109.90 171.2926
1110.00 171.3027
1110.10 171.2819
1110.20 171.2533
1110.30 171.2248
1110.40 171.1962
1110.50 171.1677
1110.60 171.1391
1110.70 171.1105
1110.80 171.082
1110.90 171.0534
1111.00 171.0249
1111.10 170.9963
1111.20 170.9678
1111.30 170.9392
1111.40 170.9106
1111.50 170.8821
1111.60 170.8535
1111.70 170.825
1111.80 170.7964
1111.90 170.7679
1112.00 170.7393
1112.10 170.7107
1112.20 170.6822
1112.30 170.6536
1112.40 170.6251
1112.50 170.5965
1112.60 170.5679
1112.70 170.5394
1112.80 170.5108
1112.90 170.4823
1113.00 170.4537
1113.10 170.4252
1113.20 170.3966
1113.30 170.368
1113.40 170.3395
1113.50 170.3109
1113.60 170.2824
1113.70 170.2538
1113.80 170.2252
1113.90 170.1967
1114.00 170.1681
1114.10 170.1396
1114.20 170.1331
1114.30 170.178
1114.40 170.2229
1114.50 170.2678
1114.60 170.3127
1114.70 170.3576
1114.80 170.4025
1114.90 170.4474
1115.00 170.4923
1115.10 170.5372
1115.20 170.5821
1115.30 170.627
1115.40 170.6719
1115.50 170.7168
1115.60 170.7617
1115.70 170.8066
1115.80 170.8515
1115.90 170.8964
1116.00 170.9413
1116.10 170.9862
1116.20 171.0311
1116.30 171.076
1116.40 171.1209
1116.50 171.1658
1116.60 171.2107
1116.70 171.2556
1116.80 171.3005
1116.90 171.3454
1117.00 171.3903
1117.10 171.4352
1117.20 171.4801
1117.30 171.525
1117.40 171.5699
1117.50 171.6148
1117.60 171.6597
1117.70 171.7046
1117.80 171.7495
1117.90 171.7944
1118.00 171.8393
1118.10 171.8842
1118.20 171.9291
1118.30 171.974
1118.40 172.0181
1118.50 172.0617
1118.60 172.1053
1118.70 172.149
1118.80 172.1926
1118.90 172.2362
1119.00 172.2799
1119.10 172.3235
1119.20 172.3671
1119.30 172.4107
1119.40 172.4544
1119.50 172.498
1119.60 172.5416
1119.70 172.5852
1119.80 172.6289
1119.90 172.6725
1120.00 172.7161
1120.10 172.7597
1120.20 172.8034
1120.30 172.847
1120.40 172.8906
1120.50 172.9343
1120.60 172.9779
1120.70 173.0215
1120.80 173.0651
1120.90 173.1088
1121.00 173.1524
1121.10 173.196
1121.20 173.2396
1121.30 173.2833
1121.40 173.3269
1121.50 173.3705
1121.60 173.4141
1121.70 173.4578
1121.80 173.5014
1121.90 173.545
1122.00 173.5887
1122.10 173.6323
1122.20 173.6759
1122.30 173.7195
1122.40 173.7632
1122.50 173.8068
1122.60 173.81
1122.70 173.8088
1122.80 173.8076
1122.90 173.8064
1123.00 173.8051
1123.10 173.8039
1123.20 173.8027
1123.30 173.8014
1123.40 173.8002
1123.50 173.799
1123.60 173.7977
1123.70 173.7965
1123.80 173.7953
1123.90 173.794
1124.00 173.7928
1124.10 173.7916
1124.20 173.7904
1124.30 173.7891
1124.40 173.7879
1124.50 173.7867
1124.60 173.7854
1124.70 173.7842
1124.80 173.783
1124.90 173.7817
1125.00 173.7805
1125.10 173.7793
1125.20 173.778
1125.30 173.7768
1125.40 173.7756
1125.50 173.7743
1125.60 173.7731
1125.70 173.7719
1125.80 173.7707
1125.90 173.7694
1126.00 173.7682
1126.10 173.767
1126.20 173.7657
1126.30 173.7645
1126.40 173.7633
1126.50 173.762
1126.60 173.7608
1126.70 173.751
1126.80 173.7068
1126.90 173.6626
1127.00 173.6185
1127.10 173.5743
1127.20 173.5301
1127.30 173.4859
1127.40 173.4418
1127.50 173.3976
1127.60 173.3534
1127.70 173.3092
1127.80 173.2651
1127.90 173.2209
1128.00 173.1767
1128.10 173.1325
1128.20 173.0884
1128.30 173.0442
1128.40 173
1128.50 172.9558
1128.60 172.9117
1128.70 172.8675
1128.80 172.8233
1128.90 172.7791
1129.00 172.735
1129.10 172.6908
1129.20 172.6466
1129.30 172.6024
1129.40 172.5583
1129.50 172.5141
1129.60 172.4699
1129.70 172.4257
1129.80 172.3816
1129.90 172.3374
1130.00 172.2932
1130.10 172.249
1130.20 172.2049
1130.30 172.1607
1130.40 172.1165
1130.50 172.0723
1130.60 172.0282
1130.70 171.984
1130.80 171.9398
1130.90 171.8745
1131.00 171.76
1131.10 171.6455
1131.20 171.531
1131.30 171.4165
1131.40 171.302
1131.50 171.1875
1131.60 171.073
1131.70 170.9585
1131.80 170.844
1131.90 170.7295
1132.00 170.615
1132.10 170.5005
1132.20 170.386
1132.30 170.2715
1132.40 170.157
1132.50 170.0425
1132.60 169.928
1132.70 169.8135
1132.80 169.6989
1132.90 169.5844
1133.00 169.4699
1133.10 169.3554
1133.20 169.2409
1133.30 169.1264
1133.40 169.0119
1133.50 168.8974
1133.60 168.7829
1133.70 168.6684
1133.80 168.5539
1133.90 168.4394
1134.00 168.3249
1134.10 168.2104
1134.20 168.0959
1134.30 167.9814
1134.40 167.8669
1134.50 167.7524
1134.60 167.6379
1134.70 167.5233
1134.80 167.4088
1134.90 167.2943
1135.00 167.1798
1135.10 167.1035
1135.20 167.0844
1135.30 167.0652
1135.40 167.0461
1135.50 167.027
1135.60 167.0079
1135.70 166.9888
1135.80 166.9696
1135.90 166.9505
1136.00 166.9314
1136.10 166.9123
1136.20 166.8931
1136.30 166.874
1136.40 166.8549
1136.50 166.8358
1136.60 166.8167
1136.70 166.7975
1136.80 166.7784
1136.90 166.7593
1137.00 166.7402
1137.10 166.7211
1137.20 166.7019
1137.30 166.6828
1137.40 166.6637
1137.50 166.6446
1137.60 166.6254
1137.70 166.6063
1137.80 166.5872
1137.90 166.5681
1138.00 166.549
1138.10 166.5298
1138.20 166.5107
1138.30 166.4916
1138.40 166.4725
1138.50 166.4534
1138.60 166.4342
1138.70 166.4151
1138.80 166.396
1138.90 166.3769
1139.00 166.3577
1139.10 166.3386
1139.20 166.3195
1139.30 166.3331
1139.40 166.3956
1139.50 166.4582
1139.60 166.5208
1139.70 166.5833
1139.80 166.6459
1139.90 166.7085
1140.00 166.771
1140.10 166.8336
1140.20 166.8962
1140.30 166.9587
1140.40 167.0213
1140.50 167.0839
1140.60 167.1464
1140.70 167.209
1140.80 167.2716
1140.90 167.3341
1141.00 167.3967
1141.10 167.4593
1141.20 167.5219
1141.30 167.5844
1141.40 167.647
1141.50 167.7096
1141.60 167.7721
1141.70 167.8347
1141.80 167.8973
1141.90 167.9598
1142.00 168.0224
1142.10 168.085
1142.20 168.1475
1142.30 168.2101
1142.40 168.2727
1142.50 168.3352
1142.60 168.3978
1142.70 168.4604
1142.80 168.5229
1142.90 168.5855
1143.00 168.6481
1143.10 168.7106
1143.20 168.7732
1143.30 168.8358
1143.40 168.8984
1143.50 168.9982
1143.60 169.1851
1143.70 169.372
1143.80 169.5588
1143.90 169.7457
1144.00 169.9326
1144.10 170.1195
1144.20 170.3064
1144.30 170.4932
1144.40 170.6801
1144.50 170.867
1144.60 171.0539
1144.70 171.2408
1144.80 171.4276
1144.90 171.6145
1145.00 171.8014
1145.10 171.9883
1145.20 172.1751
1145.30 172.362
1145.40 172.5489
1145.50 172.7358
1145.60 172.9227
1145.70 173.1095
1145.80 173.2964
1145.90 173.4833
1146.00 173.6702
1146.10 173.857
1146.20 174.0439
1146.30 174.2308
1146.40 174.4177
1146.50 174.6046
1146.60 174.7914
1146.70 174.9783
1146.80 175.1652
1146.90 175.3521
1147.00 175.539
1147.10 175.7258
1147.20 175.9127
1147.30 176.0996
1147.40 176.2865
1147.50 176.4733
1147.60 176.6602
1147.70 176.8355
1147.80 176.9644
1147.90 177.0932
1148.00 177.2221
1148.10 177.351
1148.20 177.4799
1148.30 177.6087
1148.40 177.7376
1148.50 177.8665
1148.60 177.9953
1148.70 178.1242
1148.80 178.2531
1148.90 178.3819
1149.00 178.5108
1149.10 178.6397
1149.20 178.7686
1149.30 178.8974
1149.40 179.0263
1149.50 179.1552
1149.60 179.284
1149.70 179.4129
1149.80 179.5418
1149.90 179.6707
1150.00 179.7995
1150.10 179.9284
1150.20 180.0573
1150.30 180.1861
1150.40 180.315
1150.50 180.4439
1150.60 180.5728
1150.70 180.7016
1150.80 180.8305
1150.90 180.9594
1151.00 181.0882
1151.10 181.2171
1151.20 181.346
1151.30 181.4748
1151.40 181.6037
1151.50 181.7326
1151.60 181.8615
1151.70 181.9903
1151.80 182.1192
1151.90 182.2481
1152.00 182.2355
1152.10 182.223
1152.20 182.2104
1152.30 182.1979
1152.40 182.1853
1152.50 182.1728
1152.60 182.1602
1152.70 182.1477
1152.80 182.1351
1152.90 182.1226
1153.00 182.11
1153.10 182.0975
1153.20 182.0849
1153.30 182.0724
1153.40 182.0598
1153.50 182.0473
1153.60 182.0347
1153.70 182.0221
1153.80 182.0096
1153.90 181.997
1154.00 181.9845
1154.10 181.9719
1154.20 181.9594
1154.30 181.9468
1154.40 181.9343
1154.50 181.9217
1154.60 181.9092
1154.70 181.8966
1154.80 181.8841
1154.90 181.8715
1155.00 181.859
1155.10 181.8464
1155.20 181.8339
1155.30 181.8213
1155.40 181.8088
1155.50 181.7962
1155.60 181.7837
1155.70 181.7711
1155.80 181.7586
1155.90 181.746
1156.00 181.7335
1156.10 181.7209
1156.20 181.6609
1156.30 181.5889
1156.40 181.517
1156.50 181.4451
1156.60 181.3732
1156.70 181.3013
1156.80 181.2293
1156.90 181.1574
1157.00 181.0855
1157.10 181.0136
1157.20 180.9416
1157.30 180.8697
1157.40 180.7978
1157.50 180.7259
1157.60 180.654
1157.70 180.582
1157.80 180.5101
1157.90 180.4382
1158.00 180.3663
1158.10 180.2943
1158.20 180.2224
1158.30 180.1505
1158.40 180.0786
1158.50 180.0067
1158.60 179.9347
1158.70 179.8628
1158.80 179.7909
1158.90 179.719
1159.00 179.647
1159.10 179.5751
1159.20 179.5032
1159.30 179.4313
1159.40 179.3594
1159.50 179.2874
1159.60 179.2155
1159.70 179.1436
1159.80 179.0717
1159.90 178.9997
1160.00 178.9278
1160.10 178.8559
1160.20 178.784
1160.30 178.7121
1160.40 178.6369
1160.50 178.5585
1160.60 178.4801
1160.70 178.4017
1160.80 178.3234
1160.90 178.245
1161.00 178.1666
1161.10 178.0882
1161.20 178.0098
1161.30 177.9314
1161.40 177.8531
1161.50 177.7747
1161.60 177.6963
1161.70 177.6179
1161.80 177.5395
1161.90 177.4611
1162.00 177.3828
1162.10 177.3044
1162.20 177.226
1162.30 177.1476
1162.40 177.0692
1162.50 176.9908
1162.60 176.9125
1162.70 176.8341
1162.80 176.7557
1162.90 176.6773
1163.00 176.5989
1163.10 176.5205
1163.20 176.4422
1163.30 176.3638
1163.40 176.2854
1163.50 176.207
1163.60 176.1286
1163.70 176.0502
1163.80 175.9719
1163.90 175.8935
1164.00 175.8151
1164.10 175.7367
1164.20 175.6583
1164.30 175.5799
1164.40 175.5016
1164.50 175.4232
1164.60 175.3463
1164.70 175.2832
1164.80 175.2201
1164.90 175.157
1165.00 175.0939
1165.10 175.0308
1165.20 174.9677
1165.30 174.9045
1165.40 174.8414
1165.50 174.7783
1165.60 174.7152
1165.70 174.6521
1165.80 174.589
1165.90 174.5259
1166.00 174.4628
1166.10 174.3997
1166.20 174.3366
1166.30 174.2735
1166.40 174.2103
1166.50 174.1472
1166.60 174.0841
1166.70 174.021
1166.80 173.9579
1166.90 173.8948
1167.00 173.8317
1167.10 173.7686
1167.20 173.7055
1167.30 173.6424
1167.40 173.5793
1167.50 173.5161
1167.60 173.453
1167.70 173.3899
1167.80 173.3268
1167.90 173.2637
1168.00 173.2006
1168.10 173.1375
1168.20 173.0744
1168.30 173.0113
1168.40 172.9482
1168.50 172.885
1168.60 172.8219
1168.70 172.7588
1168.80 172.6957
1168.90 172.5651
1169.00 172.4055
1169.10 172.2458
1169.20 172.0862
1169.30 171.9266
1169.40 171.767
1169.50 171.6074
1169.60 171.4478
1169.70 171.2882
1169.80 171.1286
1169.90 170.969
1170.00 170.8094
1170.10 170.6498
1170.20 170.4902
1170.30 170.3306
1170.40 170.171
1170.50 170.0113
1170.60 169.8517
1170.70 169.6921
1170.80 169.5325
1170.90 169.3729
1171.00 169.2133
1171.10 169.0537
1171.20 168.8941
1171.30 168.7345
1171.40 168.5749
1171.50 168.4153
1171.60 168.2557
1171.70 168.0961
1171.80 167.9364
1171.90 167.7768
1172.00 167.6172
1172.10 167.4576
1172.20 167.298
1172.30 167.1384
1172.40 166.9788
1172.50 166.8192
1172.60 166.6596
1172.70 166.5
1172.80 166.3404
1172.90 166.1808
1173.00 166.0212
1173.10 165.9009
1173.20 165.9379
1173.30 165.9748
1173.40 166.0118
1173.50 166.0488
1173.60 166.0858
1173.70 166.1228
1173.80 166.1597
1173.90 166.1967
1174.00 166.2337
1174.10 166.2707
1174.20 166.3077
1174.30 166.3446
1174.40 166.3816
1174.50 166.4186
1174.60 166.4556
1174.70 166.4926
1174.80 166.5295
1174.90 166.5665
1175.00 166.6035
1175.10 166.6405
1175.20 166.6775
1175.30 166.7144
1175.40 166.7514
1175.50 166.7884
1175.60 166.8254
1175.70 166.8624
1175.80 166.8993
1175.90 166.9363
1176.00 166.9733
1176.10 167.0103
1176.20 167.0473
1176.30 167.0842
1176.40 167.1212
1176.50 167.1582
1176.60 167.1952
1176.70 167.2322
1176.80 167.2691
1176.90 167.3061
1177.00 167.3431
1177.10 167.3801
1177.20 167.4171
1177.30 167.4541
1177.40 167.506
1177.50 167.5642
1177.60 167.6225
1177.70 167.6808
1177.80 167.7391
1177.90 167.7974
1178.00 167.8557
1178.10 167.914
1178.20 167.9723
1178.30 168.0306
1178.40 168.0889
1178.50 168.1472
1178.60 168.2055
1178.70 168.2638
1178.80 168.3221
1178.90 168.3804
1179.00 168.4387
1179.10 168.497
1179.20 168.5553
1179.30 168.6136
1179.40 168.6719
1179.50 168.7302
1179.60 168.7885
1179.70 168.8468
1179.80 168.905
1179.90 168.9633
1180.00 169.0216
1180.10 169.0799
1180.20 169.1382
1180.30 169.1965
1180.40 169.2548
1180.50 169.3131
1180.60 169.3714
1180.70 169.4297
1180.80 169.488
1180.90 169.5463
1181.00 169.6046
1181.10 169.6629
1181.20 169.7212
1181.30 169.7795
1181.40 169.8378
1181.50 169.8961
1181.60 169.9572
1181.70 170.0438
1181.80 170.1304
1181.90 170.217
1182.00 170.3035
1182.10 170.3901
1182.20 170.4767
1182.30 170.5633
1182.40 170.6499
1182.50 170.7365
1182.60 170.8231
1182.70 170.9096
1182.80 170.9962
1182.90 171.0828
1183.00 171.1694
1183.10 171.256
1183.20 171.3426
1183.30 171.4292
1183.40 171.5158
1183.50 171.6023
1183.60 171.6889
1183.70 171.7755
1183.80 171.8621
1183.90 171.9487
1184.00 172.0353
1184.10 172.1219
1184.20 172.2084
1184.30 172.295
1184.40 172.3816
1184.50 172.4682
1184.60 172.5548
1184.70 172.6414
1184.80 172.728
1184.90 172.8146
1185.00 172.9011
1185.10 172.9877
1185.20 173.0743
1185.30 173.1609
1185.40 173.2475
1185.50 173.3341
1185.60 173.4207
1185.70 173.5072
1185.80 173.5938
1185.90 173.6181
1186.00 173.5801
1186.10 173.542
1186.20 173.504
1186.30 173.466
1186.40 173.4279
1186.50 173.3899
1186.60 173.3519
1186.70 173.3138
1186.80 173.2758
1186.90 173.2378
1187.00 173.1997
1187.10 173.1617
1187.20 173.1237
1187.30 173.0856
1187.40 173.0476
1187.50 173.0096
1187.60 172.9715
1187.70 172.9335
1187.80 172.8954
1187.90 172.8574
1188.00 172.8194
1188.10 172.7813
1188.20 172.7433
1188.30 172.7053
1188.40 172.6672
1188.50 172.6292
1188.60 172.5912
1188.70 172.5531
1188.80 172.5151
1188.90 172.4771
1189.00 172.439
1189.10 172.401
1189.20 172.363
1189.30 172.3249
1189.40 172.2869
1189.50 172.2489
1189.60 172.2108
1189.70 172.1728
1189.80 172.1348
1189.90 172.0967
1190.00 172.0587
1190.10 172.0206
1190.20 171.9183
1190.30 171.7999
1190.40 171.6815
1190.50 171.5631
1190.60 171.4447
1190.70 171.3263
1190.80 171.2079
1190.90 171.0895
1191.00 170.9711
1191.10 170.8527
1191.20 170.7343
1191.30 170.6159
1191.40 170.4975
1191.50 170.3791
1191.60 170.2607
1191.70 170.1423
1191.80 170.0239
1191.90 169.9055
1192.00 169.7871
1192.10 169.6687
1192.20 169.5503
1192.30 169.4319
1192.40 169.3136
1192.50 169.1952
1192.60 169.0768
1192.70 168.9584
1192.80 168.84
1192.90 168.7216
1193.00 168.6032
1193.10 168.4848
1193.20 168.3664
1193.30 168.248
1193.40 168.1296
1193.50 168.0112
1193.60 167.8928
1193.70 167.7744
1193.80 167.656
1193.90 167.5376
1194.00 167.4192
1194.10 167.3008
1194.20 167.1824
1194.30 167.064
1194.40 166.9493
1194.50 166.8678
1194.60 166.7864
1194.70 166.7049
1194.80 166.6235
1194.90 166.542
1195.00 166.4605
1195.10 166.3791
1195.20 166.2976
1195.30 166.2162
1195.40 166.1347
1195.50 166.0533
1195.60 165.9718
1195.70 165.8904
1195.80 165.8089
1195.90 165.7274
1196.00 165.646
1196.10 165.5645
1196.20 165.4831
1196.30 165.4016
1196.40 165.3202
1196.50 165.2387
1196.60 165.1573
1196.70 165.0758
1196.80 164.9944
1196.90 164.9129
1197.00 164.8314
1197.10 164.75
1197.20 164.6685
1197.30 164.5871
1197.40 164.5056
1197.50 164.4242
1197.60 164.3427
1197.70 164.2613
1197.80 164.1798
1197.90 164.0983
1198.00 164.0169
1198.10 163.9354
1198.20 163.854
1198.30 163.7725
1198.40 163.6911
1198.50 163.6096
1198.60 163.5282
1198.70 163.4763
1198.80 163.4688
1198.90 163.4613
1199.00 163.4538
1199.10 163.4462
1199.20 163.4387
1199.30 163.4312
1199.40 163.4237
1199.50 163.4162
1199.60 163.4087
1199.70 163.4012
1199.80 163.3937
1199.90 163.3862
1200.00 163.3787
1200.10 163.3712
1200.20 163.3637
1200.30 163.3561
1200.40 163.3486
1200.50 163.3411
1200.60 163.3336
1200.70 163.3261
1200.80 163.3186
1200.90 163.3111
1201.00 163.3036
1201.10 163.2961
1201.20 163.2886
1201.30 163.2811
1201.40 163.2735
1201.50 163.266
1201.60 163.2585
1201.70 163.251
1201.80 163.2435
1201.90 163.236
1202.00 163.2285
1202.10 163.221
1202.20 163.2135
1202.30 163.206
1202.40 163.1985
1202.50 163.191
1202.60 163.1834
1202.70 163.1759
1202.80 163.1684
1202.90 163.1609
1203.00 163.2169
1203.10 163.3152
1203.20 163.4136
1203.30 163.5119
1203.40 163.6102
1203.50 163.7085
1203.60 163.8068
1203.70 163.9052
1203.80 164.0035
1203.90 164.1018
1204.00 164.2001
1204.10 164.2985
1204.20 164.3968
1204.30 164.4951
1204.40 164.5934
1204.50 164.6918
1204.60 164.7901
1204.70 164.8884
1204.80 164.9867
1204.90 165.085
1205.00 165.1834
1205.10 165.2817
1205.20 165.38
1205.30 165.4783
1205.40 165.5767
1205.50 165.675
1205.60 165.7733
1205.70 165.8716
1205.80 165.97
1205.90 166.0683
1206.00 166.1666
1206.10 166.2649
1206.20 166.3632
1206.30 166.4616
1206.40 166.5599
1206.50 166.6582
1206.60 166.7565
1206.70 166.8549
1206.80 166.9532
1206.90 167.0515
1207.00 167.1498
1207.10 167.2482
1207.20 167.3465
1207.30 167.4974
1207.40 167.6614
1207.50 167.8254
1207.60 167.9894
1207.70 168.1534
1207.80 168.3175
1207.90 168.4815
1208.00 168.6455
1208.10 168.8095
1208.20 168.9735
1208.30 169.1376
1208.40 169.3016
1208.50 169.4656
1208.60 169.6296
1208.70 169.7936
1208.80 169.9577
1208.90 170.1217
1209.00 170.2857
1209.10 170.4497
1209.20 170.6137
1209.30 170.7777
1209.40 170.9418
1209.50 171.1058
1209.60 171.2698
1209.70 171.4338
1209.80 171.5978
1209.90 171.7619
1210.00 171.9259
1210.10 172.0899
1210.20 172.2539
1210.30 172.4179
1210.40 172.582
1210.50 172.746
1210.60 172.91
1210.70 173.074
1210.80 173.238
1210.90 173.4021
1211.00 173.5661
1211.10 173.7301
1211.20 173.8941
1211.30 174.0581
1211.40 174.2222
1211.50 174.3862
1211.60 174.4466
1211.70 174.4955
1211.80 174.5445
1211.90 174.5934
1212.00 174.6423
1212.10 174.6913
1212.20 174.7402
1212.30 174.7891
1212.40 174.838
1212.50 174.887
1212.60 174.9359
1212.70 174.9848
1212.80 175.0338
1212.90 175.0827
1213.00 175.1316
1213.10 175.1805
1213.20 175.2295
1213.30 175.2784
1213.40 175.3273
1213.50 175.3763
1213.60 175.4252
1213.70 175.4741
1213.80 175.523
1213.90 175.572
1214.00 175.6209
1214.10 175.6698
1214.20 175.7188
1214.30 175.7677
1214.40 175.8166
1214.50 175.8655
1214.60 175.9145
1214.70 175.9634
1214.80 176.0123
1214.90 176.0613
1215.00 176.1102
1215.10 176.1591
1215.20 176.208
1215.30 176.257
1215.40 176.3059
1215.50 176.3548
1215.60 176.4038
1215.70 176.4527
1215.80 176.5016
1215.90 176.6561
1216.00 176.8105
1216.10 176.9649
1216.20 177.1194
1216.30 177.2738
1216.40 177.4283
1216.50 177.5827
1216.60 177.7371
1216.70 177.8916
1216.80 178.046
1216.90 178.2005
1217.00 178.3549
1217.10 178.5094
1217.20 178.6638
1217.30 178.8182
1217.40 178.9727
1217.50 179.1271
1217.60 179.2816
1217.70 179.436
1217.80 179.5904
1217.90 179.7449
1218.00 179.8993
1218.10 180.0538
1218.20 180.2082
1218.30 180.3627
1218.40 180.5171
1218.50 180.6715
1218.60 180.826
1218.70 180.9804
1218.80 181.1349
1218.90 181.2893
1219.00 181.4437
1219.10 181.5982
1219.20 181.7526
1219.30 181.9071
1219.40 182.0615
1219.50 182.2159
1219.60 182.3704
1219.70 182.5248
1219.80 182.6793
1219.90 182.8337
1220.00 182.9882
1220.10 183.1338
1220.20 183.2008
1220.30 183.2677
1220.40 183.3347
1220.50 183.4016
1220.60 183.4686
1220.70 183.5355
1220.80 183.6025
1220.90 183.6694
1221.00 183.7364
1221.10 183.8033
1221.20 183.8703
1221.30 183.9372
1221.40 184.0042
1221.50 184.0711
1221.60 184.1381
1221.70 184.205
1221.80 184.272
1221.90 184.3389
1222.00 184.4059
1222.10 184.4728
1222.20 184.5398
1222.30 184.6067
1222.40 184.6737
1222.50 184.7406
1222.60 184.8076
1222.70 184.8745
1222.80 184.9414
1222.90 185.0084
1223.00 185.0753
1223.10 185.1423
1223.20 185.2092
1223.30 185.2762
1223.40 185.3431
1223.50 185.4101
1223.60 185.477
1223.70 185.544
1223.80 185.6109
1223.90 185.6779
1224.00 185.7448
1224.10 185.8118
1224.20 185.8787
1224.30 185.9457
1224.40 186.0039
1224.50 186.0271
1224.60 186.0503
1224.70 186.0735
1224.80 186.0967
1224.90 186.1199
1225.00 186.1431
1225.10 186.1663
1225.20 186.1895
1225.30 186.2127
1225.40 186.2359
1225.50 186.2591
1225.60 186.2823
1225.70 186.3055
1225.80 186.3287
1225.90 186.3519
1226.00 186.3751
1226.10 186.3983
1226.20 186.4215
1226.30 186.4447
1226.40 186.4679
1226.50 186.4911
1226.60 186.5143
1226.70 186.5375
1226.80 186.5607
1226.90 186.5839
1227.00 186.6071
1227.10 186.6303
1227.20 186.6535
1227.30 186.6767
1227.40 186.6999
1227.50 186.7231
1227.60 186.7463
1227.70 186.7695
1227.80 186.7927
1227.90 186.8159
1228.00 186.8391
1228.10 186.8623
1228.20 186.8855
1228.30 186.9087
1228.40 186.9319
1228.50 186.9551
1228.60 186.9783
1228.70 186.9809
1228.80 186.9014
1228.90 186.822
1229.00 186.7425
1229.10 186.663
1229.20 186.5836
1229.30 186.5041
1229.40 186.4246
1229.50 186.3452
1229.60 186.2657
1229.70 186.1862
1229.80 186.1068
1229.90 186.0273
1230.00 185.9478
1230.10 185.8683
1230.20 185.7889
1230.30 185.7094
1230.40 185.6299
1230.50 185.5505
1230.60 185.471
1230.70 185.3915
1230.80 185.3121
1230.90 185.2326
1231.00 185.1531
1231.10 185.0737
1231.20 184.9942
1231.30 184.9147
1231.40 184.8352
1231.50 184.7558
1231.60 184.6763
1231.70 184.5968
1231.80 184.5174
1231.90 184.4379
1232.00 184.3584
1232.10 184.279
1232.20 184.1995
1232.30 184.12
1232.40 184.0405
1232.50 183.9611
1232.60 183.8816
1232.70 183.8021
1232.80 183.7227
1232.90 183.6432
1233.00 183.5531
1233.10 183.4203
1233.20 183.2876
1233.30 183.1549
1233.40 183.0221
1233.50 182.8894
1233.60 182.7567
1233.70 182.6239
1233.80 182.4912
1233.90 182.3584
1234.00 182.2257
1234.10 182.093
1234.20 181.9602
1234.30 181.8275
1234.40 181.6948
1234.50 181.562
1234.60 181.4293
1234.70 181.2965
1234.80 181.1638
1234.90 181.0311
1235.00 180.8983
1235.10 180.7656
1235.20 180.6328
1235.30 180.5001
1235.40 180.3674
1235.50 180.2346
1235.60 180.1019
1235.70 179.9692
1235.80 179.8364
1235.90 179.7037
1236.00 179.5709
1236.10 179.4382
1236.20 179.3055
1236.30 179.1727
1236.40 179.04
1236.50 178.9073
1236.60 178.7745
1236.70 178.6418
1236.80 178.509
1236.90 178.3763
1237.00 178.2436
1237.10 178.1108
1237.20 177.9781
1237.30 177.8577
1237.40 177.7865
1237.50 177.7154
1237.60 177.6442
1237.70 177.5731
1237.80 177.5019
1237.90 177.4308
1238.00 177.3596
1238.10 177.2885
1238.20 177.2173
1238.30 177.1462
1238.40 177.075
1238.50 177.0039
1238.60 176.9327
1238.70 176.8616
1238.80 176.7904
1238.90 176.7193
1239.00 176.6481
1239.10 176.577
1239.20 176.5058
1239.30 176.4347
1239.40 176.3635
1239.50 176.2924
1239.60 176.2212
1239.70 176.1501
1239.80 176.0789
1239.90 176.0078
1240.00 175.9366
1240.10 175.8655
1240.20 175.7943
1240.30 175.7232
1240.40 175.652
1240.50 175.5809
1240.60 175.5097
1240.70 175.4386
1240.80 175.3674
1240.90 175.2963
1241.00 175.2251
1241.10 175.154
1241.20 175.0828
1241.30 175.0117
1241.40 174.9405
1241.50 174.8694
1241.60 174.7996
1241.70 174.7419
1241.80 174.6842
1241.90 174.6265
1242.00 174.5688
1242.10 174.5111
1242.20 174.4534
1242.30 174.3957
1242.40 174.338
1242.50 174.2804
1242.60 174.2227
1242.70 174.165
1242.80 174.1073
1242.90 174.0496
1243.00 173.9919
1243.10 173.9342
1243.20 173.8765
1243.30 173.8188
1243.40 173.7611
1243.50 173.7034
1243.60 173.6457
1243.70 173.5881
1243.80 173.5304
1243.90 173.4727
1244.00 173.415
1244.10 173.3573
1244.20 173.2996
1244.30 173.2419
1244.40 173.1842
1244.50 173.1265
1244.60 173.0688
1244.70 173.0111
1244.80 172.9535
1244.90 172.8958
1245.00 172.8381
1245.10 172.7804
1245.20 172.7227
1245.30 172.665
1245.40 172.6073
1245.50 172.5496
1245.60 172.4919
1245.70 172.4342
1245.80 172.3765
1245.90 172.3188
1246.00 172.4295
1246.10 172.5402
1246.20 172.6508
1246.30 172.7615
1246.40 172.8722
1246.50 172.9828
1246.60 173.0935
1246.70 173.2041
1246.80 173.3148
1246.90 173.4255
1247.00 173.5361
1247.10 173.6468
1247.20 173.7575
1247.30 173.8681
1247.40 173.9788
1247.50 174.0894
1247.60 174.2001
1247.70 174.3108
1247.80 174.4214
1247.90 174.5321
1248.00 174.6428
1248.10 174.7534
1248.20 174.8641
1248.30 174.9747
1248.40 175.0854
1248.50 175.1961
1248.60 175.3067
1248.70 175.4174
1248.80 175.5281
1248.90 175.6387
1249.00 175.7494
1249.10 175.86
1249.20 175.9707
1249.30 176.0814
1249.40 176.192
1249.50 176.3027
1249.60 176.4134
1249.70 176.524
1249.80 176.6347
1249.90 176.7453
1250.00 176.856
1250.10 176.9667
1250.20 177.0773
1250.30 177.1706
1250.40 177.2638
1250.50 177.3571
1250.60 177.4504
1250.70 177.5436
1250.80 177.6369
1250.90 177.7301
1251.00 177.8234
1251.10 177.9166
1251.20 178.0099
1251.30 178.1031
1251.40 178.1964
1251.50 178.2897
1251.60 178.3829
1251.70 178.4762
1251.80 178.5694
1251.90 178.6627
1252.00 178.7559
1252.10 178.8492
1252.20 178.9424
1252.30 179.0357
1252.40 179.129
1252.50 179.2222
1252.60 179.3155
1252.70 179.4087
1252.80 179.502
1252.90 179.5952
1253.00 179.6885
1253.10 179.7817
1253.20 179.875
1253.30 179.9683
1253.40 180.0615
1253.50 180.1548
1253.60 180.248
1253.70 180.3413
1253.80 180.4345
1253.90 180.5278
1254.00 180.621
1254.10 180.7143
1254.20 180.8075
1254.30 180.9008
1254.40 180.9941
1254.50 181.0873
1254.60 181.2406
1254.70 181.4005
1254.80 181.5604
1254.90 181.7204
1255.00 181.8803
1255.10 182.0402
1255.20 182.2002
1255.30 182.3601
1255.40 182.52
1255.50 182.68
1255.60 182.8399
1255.70 182.9998
1255.80 183.1597
1255.90 183.3197
1256.00 183.4796
1256.10 183.6395
1256.20 183.7995
1256.30 183.9594
1256.40 184.1193
1256.50 184.2793
1256.60 184.4392
1256.70 184.5991
1256.80 184.759
1256.90 184.919
1257.00 185.0789
1257.10 185.2388
1257.20 185.3988
1257.30 185.5587
1257.40 185.7186
1257.50 185.8786
1257.60 186.0385
1257.70 186.1984
1257.80 186.3584
1257.90 186.5183
1258.00 186.6782
1258.10 186.8381
1258.20 186.9981
1258.30 187.158
1258.40 187.3179
1258.50 187.4779
1258.60 187.6378
1258.70 187.7977
1258.80 187.9577
1258.90 188.1234
1259.00 188.2916
1259.10 188.4598
1259.20 188.6281
1259.30 188.7963
1259.40 188.9645
1259.50 189.1327
1259.60 189.301
1259.70 189.4692
1259.80 189.6374
1259.90 189.8056
1260.00 189.9738
1260.10 190.1421
1260.20 190.3103
1260.30 190.4785
1260.40 190.6467
1260.50 190.815
1260.60 190.9832
1260.70 191.1514
1260.80 191.3196
1260.90 191.4878
1261.00 191.6561
1261.10 191.8243
1261.20 191.9925
1261.30 192.1607
1261.40 192.329
1261.50 192.4972
1261.60 192.6654
1261.70 192.8336
1261.80 193.0019
1261.90 193.1701
1262.00 193.3383
1262.10 193.5065
1262.20 193.6747
1262.30 193.843
1262.40 194.0112
1262.50 194.1794
1262.60 194.3476
1262.70 194.5159
1262.80 194.6841
1262.90 194.8523
1263.00 195.0205
1263.10 195.1888
1263.20 195.3156
1263.30 195.415
1263.40 195.5143
1263.50 195.6136
1263.60 195.7129
1263.70 195.8123
1263.80 195.9116
1263.90 196.0109
1264.00 196.1103
1264.10 196.2096
1264.20 196.3089
1264.30 196.4082
1264.40 196.5076
1264.50 196.6069
1264.60 196.7062
1264.70 196.8055
1264.80 196.9049
1264.90 197.0042
1265.00 197.1035
1265.10 197.2028
1265.20 197.3022
1265.30 197.4015
1265.40 197.5008
1265.50 197.6001
1265.60 197.6995
1265.70 197.7988
1265.80 197.8981
1265.90 197.9974
1266.00 198.0968
1266.10 198.1961
1266.20 198.2954
1266.30 198.3948
1266.40 198.4941
1266.50 198.5934
1266.60 198.6927
1266.70 198.7921
1266.80 198.8914
1266.90 198.9907
1267.00 199.09
1267.10 199.1894
1267.20 199.2887
1267.30 199.388
1267.40 199.4873
1267.50 199.5811
1267.60 199.6692
1267.70 199.7573
1267.80 199.8454
1267.90 199.9336
1268.00 200.0217
1268.10 200.1098
1268.20 200.1979
1268.30 200.286
1268.40 200.3742
1268.50 200.4623
1268.60 200.5504
1268.70 200.6385
1268.80 200.7266
1268.90 200.8148
1269.00 200.9029
1269.10 200.991
1269.20 201.0791
1269.30 201.1672
1269.40 201.2554
1269.50 201.3435
1269.60 201.4316
1269.70 201.5197
1269.80 201.6078
1269.90 201.696
1270.00 201.7841
1270.10 201.8722
1270.20 201.9603
1270.30 202.0484
1270.40 202.1366
1270.50 202.2247
1270.60 202.3128
1270.70 202.4009
1270.80 202.4891
1270.90 202.5772
1271.00 202.6653
1271.10 202.7534
1271.20 202.8415
1271.30 202.9297
1271.40 203.0178
1271.50 203.1059
1271.60 203.194
1271.70 203.2821
1271.80 203.3458
1271.90 203.3524
1272.00 203.359
1272.10 203.3656
1272.20 203.3721
1272.30 203.3787
1272.40 203.3853
1272.50 203.3919
1272.60 203.3985
1272.70 203.4051
1272.80 203.4116
1272.90 203.4182
1273.00 203.4248
1273.10 203.4314
1273.20 203.438
1273.30 203.4446
1273.40 203.4511
1273.50 203.4577
1273.60 203.4643
1273.70 203.4709
1273.80 203.4775
1273.90 203.4841
1274.00 203.4906
1274.10 203.4972
1274.20 203.5038
1274.30 203.5104
1274.40 203.517
1274.50 203.5236
1274.60 203.5301
1274.70 203.5367
1274.80 203.5433
1274.90 203.5499
1275.00 203.5565
1275.10 203.5631
1275.20 203.5696
1275.30 203.5762
1275.40 203.5828
1275.50 203.5894
1275.60 203.596
1275.70 203.6026
1275.80 203.6091
1275.90 203.6157
1276.00 203.6223
1276.10 203.6243
1276.20 203.5854
1276.30 203.5465
1276.40 203.5075
1276.50 203.4686
1276.60 203.4297
1276.70 203.3907
1276.80 203.3518
1276.90 203.3129
1277.00 203.2739
1277.10 203.235
1277.20 203.1961
1277.30 203.1571
1277.40 203.1182
1277.50 203.0793
1277.60 203.0404
1277.70 203.0014
1277.80 202.9625
1277.90 202.9236
1278.00 202.8846
1278.10 202.8457
1278.20 202.8068
1278.30 202.7678
1278.40 202.7289
1278.50 202.69
1278.60 202.651
1278.70 202.6121
1278.80 202.5732
1278.90 202.5342
1279.00 202.4953
1279.10 202.4564
1279.20 202.4174
1279.30 202.3785
1279.40 202.3396
1279.50 202.3006
1279.60 202.2617
1279.70 202.2228
1279.80 202.1838
1279.90 202.1449
1280.00 202.106
1280.10 202.067
1280.20 202.0281
1280.30 201.9892
1280.40 201.9502
1280.50 201.9458
1280.60 201.9414
1280.70 201.937
1280.80 201.9326
1280.90 201.9281
1281.00 201.9237
1281.10 201.9193
1281.20 201.9149
1281.30 201.9105
1281.40 201.906
1281.50 201.9016
1281.60 201.8972
1281.70 201.8928
1281.80 201.8884
1281.90 201.8839
1282.00 201.8795
1282.10 201.8751
1282.20 201.8707
1282.30 201.8663
1282.40 201.8618
1282.50 201.8574
1282.60 201.853
1282.70 201.8486
1282.80 201.8442
1282.90 201.8397
1283.00 201.8353
1283.10 201.8309
1283.20 201.8265
1283.30 201.8221
1283.40 201.8176
1283.50 201.8132
1283.60 201.8088
1283.70 201.8044
1283.80 201.8
1283.90 201.7955
1284.00 201.7911
1284.10 201.7867
1284.20 201.7823
1284.30 201.7779
1284.40 201.7734
1284.50 201.769
1284.60 201.7646
1284.70 201.7602
1284.80 201.7825
1284.90 201.8114
1285.00 201.8404
1285.10 201.8694
1285.20 201.8983
1285.30 201.9273
1285.40 201.9563
1285.50 201.9852
1285.60 202.0142
1285.70 202.0432
1285.80 202.0721
1285.90 202.1011
1286.00 202.1301
1286.10 202.159
1286.20 202.188
1286.30 202.217
1286.40 202.2459
1286.50 202.2749
1286.60 202.3039
1286.70 202.3328
1286.80 202.3618
1286.90 202.3908
1287.00 202.4197
1287.10 202.4487
1287.20 202.4777
1287.30 202.5066
1287.40 202.5356
1287.50 202.5646
1287.60 202.5935
1287.70 202.6225
1287.80 202.6515
1287.90 202.6804
1288.00 202.7094
1288.10 202.7384
1288.20 202.7673
1288.30 202.7963
1288.40 202.8253
1288.50 202.8542
1288.60 202.8832
1288.70 202.9122
1288.80 202.9411
1288.90 202.9701
1289.00 202.9991
1289.10 202.9724
1289.20 202.9085
1289.30 202.8447
1289.40 202.7809
1289.50 202.717
1289.60 202.6532
1289.70 202.5894
1289.80 202.5255
1289.90 202.4617
1290.00 202.3979
1290.10 202.334
1290.20 202.2702
1290.30 202.2064
1290.40 202.1425
1290.50 202.0787
1290.60 202.0149
1290.70 201.951
1290.80 201.8872
1290.90 201.8233
1291.00 201.7595
1291.10 201.6957
1291.20 201.6318
1291.30 201.568
1291.40 201.5042
1291.50 201.4403
1291.60 201.3765
1291.70 201.3127
1291.80 201.2488
1291.90 201.185
1292.00 201.1212
1292.10 201.0573
1292.20 200.9935
1292.30 200.9297
1292.40 200.8658
1292.50 200.802
1292.60 200.7382
1292.70 200.6743
1292.80 200.6105
1292.90 200.5467
1293.00 200.4828
1293.10 200.419
1293.20 200.3552
1293.30 200.2913
1293.40 200.2481
1293.50 200.2359
1293.60 200.2236
1293.70 200.2114
1293.80 200.1992
1293.90 200.1869
1294.00 200.1747
1294.10 200.1624
1294.20 200.1502
1294.30 200.138
1294.40 200.1257
1294.50 200.1135
1294.60 200.1012
1294.70 200.089
1294.80 200.0767
1294.90 200.0645
1295.00 200.0523
1295.10 200.04
1295.20 200.0278
1295.30 200.0155
1295.40 200.0033
1295.50 199.991
1295.60 199.9788
1295.70 199.9666
1295.80 199.9543
1295.90 199.9421
1296.00 199.9298
1296.10 199.9176
1296.20 199.9054
1296.30 199.8931
1296.40 199.8809
1296.50 199.8686
1296.60 199.8564
1296.70 199.8441
1296.80 199.8319
1296.90 199.8197
1297.00 199.8074
1297.10 199.7952
1297.20 199.7829
1297.30 199.7707
1297.40 199.7584
1297.50 199.7462
1297.60 199.734
1297.70 199.7268
1297.80 199.7397
1297.90 199.7526
1298.00 199.7655
1298.10 199.7785
1298.20 199.7914
1298.30 199.8043
1298.40 199.8172
1298.50 199.8301
1298.60 199.8431
1298.70 199.856
1298.80 199.8689
1298.90 199.8818
1299.00 199.8948
1299.10 199.9077
1299.20 199.9206
1299.30 199.9335
1299.40 199.9465
1299.50 199.9594
1299.60 199.9723
1299.70 199.9852
1299.80 199.9982
1299.90 200.0111
